Time,Second,AccelerationX,AccelerationY,AccelerationZ,EulerAnglesX,EulerAnglesY,EulerAnglesZ
13:57:05:929,0.000,-0.369,0.527,0.563,-11.994,-24.567,-12.356
13:57:05:929,0.000,-0.913,-0.700,-1.531,-10.929,-18.336,-9.941
13:57:05:952,0.023,-0.441,-0.098,0.005,-10.651,-18.259,-8.044
13:57:05:981,0.051,-0.200,0.149,0.266,-9.917,-23.460,-5.575
13:57:06:007,0.077,0.220,0.075,0.409,-9.603,-26.475,-4.509
13:57:06:033,0.103,0.266,-0.103,0.111,-9.545,-25.304,-2.971
13:57:06:06,0.130,-0.197,0.000,-0.712,-9.779,-22.228,-1.931
13:57:06:086,0.157,-0.500,-0.026,-0.451,-9.386,-19.848,-0.524
13:57:06:087,0.157,-0.047,0.053,0.204,-8.387,-21.811,0.339
13:57:06:139,0.210,0.082,0.003,0.256,-7.889,-22.992,0.821
13:57:06:139,0.210,-0.055,-0.094,-0.132,-7.736,-22.432,1.652
13:57:06:162,0.233,-0.198,0.071,-0.176,-7.763,-21.667,2.131
13:57:06:215,0.285,0.198,-0.029,0.034,-6.994,-23.636,3.591
13:57:06:271,0.342,0.108,-0.014,-0.060,-6.577,-23.495,4.398
13:57:06:273,0.343,-0.054,0.002,-0.081,-5.751,-23.142,5.808
13:57:06:295,0.366,-0.042,0.044,-0.052,-5.087,-23.127,6.786
13:57:06:32,0.391,-0.063,0.044,-0.029,-4.007,-23.358,8.249
13:57:06:346,0.417,-0.012,0.064,-0.036,-2.742,-24.578,9.650
13:57:06:372,0.443,0.053,0.079,-0.058,-1.750,-24.978,10.564
13:57:06:4,0.470,0.113,0.229,-0.064,-0.030,-26.172,12.042
13:57:06:426,0.497,0.180,0.217,0.018,1.380,-26.608,13.146
13:57:06:453,0.524,0.271,0.265,-0.011,3.901,-27.891,15.076
13:57:06:479,0.550,0.452,0.374,-0.181,5.950,-28.125,16.599
13:57:06:503,0.574,0.785,0.389,-0.219,9.736,-29.174,19.154
13:57:06:53,0.600,1.209,0.370,0.054,14.437,-29.812,22.385
13:57:06:558,0.628,1.417,0.132,-0.020,17.949,-29.959,24.840
13:57:06:584,0.655,0.609,0.551,-0.618,23.624,-28.495,29.417
13:57:06:64,0.711,0.559,-0.054,-0.514,27.196,-25.868,33.516
13:57:06:64,0.711,0.194,-0.142,-0.534,30.609,-21.426,39.064
13:57:06:663,0.733,0.342,-0.793,-0.500,32.616,-18.445,42.665
13:57:06:688,0.759,-0.136,-0.346,-0.513,34.290,-18.579,42.712
13:57:06:713,0.784,0.243,-1.065,-0.302,35.132,-18.329,42.355
13:57:06:739,0.810,0.166,-1.061,-0.053,34.273,-18.640,40.865
13:57:06:795,0.865,0.024,-0.833,-0.033,31.278,-19.237,37.247
13:57:06:796,0.866,-0.069,-0.760,-0.194,28.268,-19.618,34.151
13:57:06:82,0.891,0.143,-0.682,-0.140,22.749,-20.425,28.360
13:57:06:845,0.915,0.165,-0.505,-0.159,16.561,-21.200,21.750
13:57:06:872,0.943,0.124,-0.339,-0.165,12.223,-21.441,17.016
13:57:06:929,0.999,0.107,0.178,-0.249,5.503,-21.547,9.258
13:57:06:93,1.000,-0.191,0.707,-0.129,0.974,-21.433,3.894
13:57:07:008,1.078,-0.626,1.050,-0.017,-6.108,-19.179,-3.882
13:57:07:009,1.079,-1.435,0.829,0.217,-12.789,-13.936,-11.107
13:57:07:009,1.080,-1.618,0.636,0.809,-16.449,-10.411,-15.686
13:57:07:088,1.159,-2.302,-0.262,-0.042,-19.690,-6.123,-20.862
13:57:07:088,1.159,-0.927,-0.147,0.923,-20.533,-4.424,-21.760
13:57:07:089,1.160,2.774,1.335,0.449,-19.688,-3.560,-19.066
13:57:07:195,1.266,-0.426,-0.044,0.805,-17.831,-2.601,-18.309
13:57:07:196,1.267,-0.812,-0.223,0.047,-14.916,0.065,-15.345
13:57:07:198,1.269,-0.577,0.322,0.166,-13.535,3.494,-12.059
13:57:07:199,1.270,0.103,-0.129,-0.437,-13.048,6.524,-8.990
13:57:07:27,1.341,-0.522,-0.173,0.043,-11.808,10.187,-6.405
13:57:07:271,1.341,-0.447,-0.026,0.205,-11.064,8.650,-4.198
13:57:07:295,1.366,0.195,0.102,0.232,-9.872,4.292,-1.420
13:57:07:296,1.366,0.341,-0.135,0.051,-9.334,3.174,-0.058
13:57:07:317,1.388,-0.305,-0.010,-0.192,-9.244,5.873,1.714
13:57:07:343,1.414,-0.484,0.026,0.083,-9.167,8.715,3.009
13:57:07:371,1.442,0.100,0.024,0.029,-8.771,8.231,3.668
13:57:07:397,1.468,0.212,-0.033,-0.013,-8.256,6.701,4.521
13:57:07:423,1.493,-0.169,-0.010,-0.105,-8.112,6.713,5.154
13:57:07:449,1.520,0.011,0.013,-0.079,-7.692,6.651,6.303
13:57:07:475,1.545,0.073,0.004,-0.070,-6.886,5.841,7.662
13:57:07:503,1.573,-0.016,-0.019,-0.070,-6.293,5.539,8.668
13:57:07:529,1.600,-0.085,0.024,-0.005,-5.362,5.329,10.230
13:57:07:554,1.625,-0.081,0.023,-0.003,-4.688,5.527,11.215
13:57:07:587,1.658,-0.043,-0.001,0.013,-3.691,5.034,12.547
13:57:07:609,1.680,-0.003,0.057,-0.003,-2.712,4.654,13.829
13:57:07:632,1.703,0.016,0.093,-0.061,-2.056,4.228,14.712
13:57:07:66,1.731,0.037,0.129,-0.162,-0.916,3.809,16.051
13:57:07:685,1.755,0.214,0.228,-0.157,0.045,3.310,17.025
13:57:07:711,1.781,0.260,0.289,-0.179,2.071,2.694,18.844
13:57:07:766,1.837,0.421,0.434,-0.277,3.861,2.282,20.390
13:57:07:793,1.863,0.533,0.399,-0.397,7.337,1.572,23.104
13:57:07:794,1.864,0.786,0.438,-0.561,11.622,0.516,26.496
13:57:07:818,1.888,1.049,0.161,-0.852,15.094,-0.981,28.792
13:57:07:872,1.942,0.351,0.521,-0.836,21.498,-3.218,32.516
13:57:07:897,1.968,0.714,-0.067,-0.794,25.584,-2.779,36.062
13:57:07:953,2.024,0.199,-0.042,-0.441,29.882,-0.900,40.926
13:57:07:954,2.025,0.075,-0.737,-0.494,32.389,0.847,44.348
13:57:07:955,2.026,0.049,-0.289,0.196,33.937,0.153,44.338
13:57:08:003,2.073,0.105,-1.001,-0.030,35.407,-1.403,43.365
13:57:08:003,2.074,0.263,-1.164,0.044,34.773,-2.824,41.612
13:57:08:055,2.126,0.127,-0.962,0.057,31.580,-4.537,37.758
13:57:08:056,2.126,-0.004,-0.815,-0.099,26.222,-5.905,32.851
13:57:08:079,2.149,0.071,-0.767,-0.132,21.927,-6.830,28.962
13:57:08:105,2.176,0.185,-0.501,-0.122,14.898,-8.324,22.307
13:57:08:132,2.203,0.126,-0.126,-0.127,10.021,-9.130,17.492
13:57:08:158,2.229,0.122,0.127,-0.105,2.821,-10.218,9.758
13:57:08:245,2.315,0.056,0.630,0.063,-4.454,-10.567,1.715
13:57:08:245,2.316,-0.307,1.145,0.224,-9.467,-9.439,-3.612
13:57:08:246,2.316,-0.995,1.047,0.419,-16.716,-4.646,-11.793
13:57:08:247,2.317,-1.452,0.841,1.119,-20.800,-0.518,-17.111
13:57:08:291,2.362,-2.473,0.056,0.675,-24.956,4.312,-23.459
13:57:08:317,2.388,-1.047,-0.760,0.808,-25.839,5.175,-24.477
13:57:08:344,2.414,0.285,0.644,0.275,-23.645,5.242,-20.365
13:57:08:345,2.415,2.700,1.104,-0.218,-21.216,6.285,-16.755
13:57:08:424,2.494,-0.895,-0.232,1.115,-19.330,5.847,-15.605
13:57:08:424,2.495,-0.924,0.107,0.429,-16.559,9.079,-12.472
13:57:08:446,2.516,0.024,-0.083,-0.025,-15.719,10.744,-10.386
13:57:08:475,2.546,-0.577,-0.170,-0.571,-14.910,14.940,-7.630
13:57:08:476,2.547,-0.433,0.038,0.409,-14.059,17.673,-5.660
13:57:08:528,2.598,-0.347,0.147,0.218,-13.336,16.283,-4.150
13:57:08:529,2.599,0.254,-0.070,0.110,-12.456,12.816,-2.144
13:57:08:609,2.680,0.227,-0.116,-0.058,-12.251,12.146,-1.263
13:57:08:61,2.680,-0.206,-0.003,-0.117,-12.400,14.557,-0.348
13:57:08:611,2.681,-0.445,0.065,-0.012,-12.336,16.008,0.178
13:57:08:63,2.700,-0.173,0.028,0.018,-11.834,14.743,0.990
13:57:08:713,2.783,0.215,-0.047,-0.046,-11.242,12.372,1.734
13:57:08:714,2.784,0.056,-0.061,-0.110,-10.953,11.906,2.256
13:57:08:767,2.837,-0.053,0.027,-0.116,-10.409,11.853,3.195
13:57:08:768,2.838,0.065,-0.008,-0.123,-9.872,11.344,3.984
13:57:08:768,2.839,0.085,-0.034,-0.044,-8.892,10.985,5.383
13:57:08:815,2.885,-0.040,0.046,0.038,-7.829,11.376,7.010
13:57:08:842,2.913,-0.110,0.032,-0.002,-7.058,11.492,8.140
13:57:08:843,2.914,-0.111,0.025,0.036,-5.867,11.511,9.663
13:57:08:895,2.966,-0.013,0.027,0.002,-5.048,11.253,10.540
13:57:08:895,2.966,0.022,0.056,-0.061,-3.752,11.033,11.782
13:57:08:976,3.047,0.012,0.168,-0.135,-2.214,10.770,13.173
13:57:08:976,3.047,0.070,0.203,-0.084,-0.987,10.631,14.216
13:57:09:,3.070,0.137,0.194,-0.124,1.234,10.107,15.970
13:57:09:001,3.071,0.196,0.324,-0.198,2.978,9.747,17.329
13:57:09:051,3.122,0.331,0.416,-0.441,6.133,9.037,19.601
13:57:09:08,3.151,0.485,0.434,-0.577,8.702,8.450,21.233
13:57:09:081,3.152,1.019,0.404,-0.723,13.431,7.083,24.114
13:57:09:102,3.173,0.828,-0.027,-0.891,19.079,5.473,27.427
13:57:09:129,3.199,0.190,0.401,-0.877,22.842,5.661,30.432
13:57:09:185,3.255,0.180,0.020,-0.671,27.504,9.211,36.679
13:57:09:186,3.257,-0.102,-0.160,-0.446,29.317,12.225,40.515
13:57:09:237,3.308,0.167,-0.626,-0.148,31.425,15.375,44.466
13:57:09:239,3.310,-0.088,-0.808,-0.152,34.439,15.337,44.835
13:57:09:262,3.333,0.087,-1.135,-0.311,35.489,15.475,44.753
13:57:09:288,3.358,0.017,-0.931,-0.081,34.810,15.397,42.701
13:57:09:341,3.412,-0.149,-0.802,-0.092,32.933,15.535,40.637
13:57:09:342,3.413,-0.216,-0.814,-0.176,28.488,16.021,36.342
13:57:09:369,3.440,-0.187,-0.678,-0.254,24.827,16.047,32.521
13:57:09:421,3.491,-0.047,-0.524,-0.309,18.957,15.532,25.723
13:57:09:421,3.492,-0.100,-0.204,-0.341,12.968,15.189,18.247
13:57:09:444,3.514,-0.168,-0.003,-0.296,8.918,14.930,12.915
13:57:09:471,3.541,-0.061,0.420,-0.210,2.485,15.053,4.940
13:57:09:496,3.567,-0.271,0.972,0.031,-2.251,16.604,-0.085
13:57:09:522,3.593,-1.036,1.287,0.439,-9.521,22.908,-7.392
13:57:09:579,3.649,-1.017,0.807,1.538,-13.582,29.069,-12.536
13:57:09:579,3.649,-1.755,0.175,1.280,-16.894,35.857,-19.363
13:57:09:601,3.672,-0.553,-0.347,1.321,-18.676,37.868,-19.903
13:57:09:627,3.698,2.546,1.303,-1.544,-17.680,39.004,-17.770
13:57:09:659,3.729,0.513,0.146,0.913,-14.723,41.491,-15.732
13:57:09:709,3.780,-0.147,-0.018,0.539,-12.814,43.391,-13.584
13:57:09:709,3.780,-0.539,0.317,0.640,-11.034,46.765,-10.073
13:57:09:762,3.832,0.358,0.030,-0.300,-10.255,51.054,-5.999
13:57:09:762,3.833,-1.082,-0.455,0.234,-9.677,54.000,-4.466
13:57:09:786,3.856,-0.043,0.000,0.357,-8.813,53.568,-1.935
13:57:09:814,3.884,0.326,0.134,0.021,-8.088,51.688,-0.552
13:57:09:837,3.908,0.353,-0.028,-0.209,-7.475,50.537,1.078
13:57:09:864,3.934,-0.189,-0.089,-0.232,-7.786,53.717,2.724
13:57:09:892,3.963,-0.358,0.078,0.178,-7.901,56.172,3.668
13:57:09:918,3.989,-0.066,0.061,0.162,-7.287,56.505,4.584
13:57:09:943,4.013,0.186,0.024,-0.116,-6.701,55.173,4.980
13:57:09:971,4.041,0.152,-0.097,-0.220,-6.277,54.373,5.603
13:57:09:997,4.067,-0.140,0.044,0.069,-6.216,54.942,6.121
13:57:10:021,4.092,-0.001,0.023,-0.045,-5.856,54.803,6.830
13:57:10:047,4.118,0.059,-0.037,-0.166,-5.308,54.199,7.674
13:57:10:074,4.145,-0.039,-0.012,-0.086,-4.989,54.220,8.339
13:57:10:159,4.230,-0.036,0.040,-0.064,-4.430,54.524,9.421
13:57:10:161,4.231,-0.008,0.018,-0.045,-3.758,54.708,10.515
13:57:10:162,4.232,-0.030,0.041,-0.039,-3.235,54.796,11.253
13:57:10:208,4.279,-0.063,0.023,-0.092,-2.275,54.725,12.332
13:57:10:209,4.280,-0.080,0.071,-0.094,-1.464,54.531,13.047
13:57:10:288,4.358,-0.031,0.085,-0.160,0.057,54.049,14.154
13:57:10:288,4.359,0.010,0.155,-0.249,1.365,53.619,15.028
13:57:10:314,4.384,-0.055,0.246,-0.333,3.823,54.156,16.631
13:57:10:314,4.384,-0.068,0.335,-0.477,6.815,54.693,18.553
13:57:10:336,4.406,-0.001,0.351,-0.570,9.152,54.293,19.904
13:57:10:392,4.463,0.020,0.270,-0.878,13.368,54.805,22.226
13:57:10:392,4.463,0.145,0.059,-1.235,16.426,54.619,24.109
13:57:10:415,4.486,-0.207,-0.084,-1.090,21.415,55.401,27.806
13:57:10:444,4.514,-0.606,0.347,-0.730,26.640,57.814,32.755
13:57:10:469,4.540,-0.495,-0.087,-0.788,29.784,60.731,36.893
13:57:10:554,4.625,-0.459,-0.138,-0.307,32.958,65.687,42.545
13:57:10:555,4.626,-0.408,-0.426,-0.346,34.412,69.593,45.571
13:57:10:556,4.626,-0.493,-0.300,0.075,36.489,71.918,47.423
13:57:10:628,4.699,-0.114,-1.008,-0.115,36.439,74.480,46.815
13:57:10:628,4.699,-0.268,-0.755,-0.031,33.303,75.270,43.468
13:57:10:654,4.725,-0.337,-0.778,-0.025,30.141,75.648,40.375
13:57:10:655,4.725,-0.338,-0.627,-0.162,24.396,75.672,34.431
13:57:10:737,4.808,-0.361,-0.454,-0.108,20.295,75.483,29.915
13:57:10:739,4.809,-0.379,-0.268,-0.143,13.870,75.114,22.434
13:57:10:74,4.810,-0.372,0.116,-0.227,7.208,74.638,14.443
13:57:10:786,4.857,-0.216,0.596,-0.038,2.459,74.831,9.188
13:57:10:786,4.857,-0.125,1.168,0.492,-5.109,77.346,1.638
13:57:10:809,4.879,0.526,1.479,1.600,-10.005,80.477,-3.027
13:57:10:864,4.934,0.990,0.594,1.216,-16.423,85.067,-9.156
13:57:10:89,4.961,-0.013,-0.077,1.818,-19.308,86.847,-12.454
13:57:10:891,4.961,0.989,-0.286,1.362,-21.955,88.446,-14.836
13:57:10:914,4.984,0.851,0.017,0.367,-22.356,88.475,-12.625
13:57:10:969,5.040,0.223,0.628,-2.574,-21.275,88.677,-10.280
13:57:10:97,5.041,0.996,-0.114,0.314,-19.055,90.098,-8.905
13:57:10:992,5.063,0.201,-0.082,0.760,-17.569,93.391,-7.348
13:57:11:048,5.118,0.464,0.557,0.018,-16.975,98.195,-4.392
13:57:11:048,5.119,-0.511,-0.259,0.877,-16.604,103.422,-1.641
13:57:11:073,5.143,0.269,-0.075,0.402,-15.908,104.659,-0.068
13:57:11:129,5.200,0.374,0.088,-0.419,-14.092,100.792,2.998
13:57:11:129,5.200,-0.074,0.000,-0.567,-13.430,99.078,4.658
13:57:11:15,5.221,-0.325,-0.146,0.252,-13.287,101.277,6.615
13:57:11:205,5.276,0.041,0.053,0.278,-13.069,103.214,7.676
13:57:11:206,5.277,0.136,0.019,-0.031,-12.011,102.983,9.058
13:57:11:23,5.300,0.097,-0.036,-0.230,-10.912,101.762,10.210
13:57:11:285,5.356,-0.061,-0.008,0.049,-10.587,101.801,10.959
13:57:11:285,5.356,-0.064,0.003,-0.010,-10.140,101.805,11.975
13:57:11:308,5.378,-0.026,0.003,-0.169,-9.587,101.929,12.613
13:57:11:361,5.431,-0.050,-0.006,-0.123,-8.710,101.450,13.635
13:57:11:389,5.460,-0.016,-0.031,-0.055,-8.099,101.987,14.446
13:57:11:39,5.460,0.025,0.041,-0.022,-7.139,101.835,15.794
13:57:11:471,5.542,0.113,0.044,-0.026,-6.205,102.189,17.067
13:57:11:472,5.543,-0.021,0.035,-0.066,-5.590,101.859,17.791
13:57:11:473,5.544,-0.060,0.055,-0.044,-4.705,101.843,18.731
13:57:11:519,5.590,-0.097,0.094,-0.191,-3.974,101.508,19.329
13:57:11:547,5.617,-0.125,0.127,-0.212,-2.572,101.449,20.467
13:57:11:547,5.618,-0.224,0.197,-0.274,-0.649,101.166,22.025
13:57:11:6,5.671,-0.340,0.361,-0.358,1.045,101.371,23.333
13:57:11:601,5.671,-0.345,0.362,-0.508,4.194,101.357,25.729
13:57:11:65,5.720,-0.522,0.215,-0.653,6.772,101.647,27.636
13:57:11:687,5.758,-0.565,0.285,-0.794,11.090,101.729,31.139
13:57:11:709,5.780,-0.840,-0.066,-0.833,16.209,101.181,34.858
13:57:11:73,5.801,-0.719,0.108,-0.616,20.538,100.506,37.430
13:57:11:731,5.802,-0.743,-0.026,-0.493,26.592,101.495,42.457
13:57:11:783,5.853,-0.427,-0.028,-0.106,29.718,102.629,45.511
13:57:11:783,5.854,-0.445,-0.558,-0.111,33.302,104.019,48.971
13:57:11:807,5.878,-0.091,-0.646,-0.255,35.247,103.949,49.842
13:57:11:834,5.904,-0.078,-0.711,-0.017,37.748,102.794,49.803
13:57:11:887,5.958,-0.063,-0.963,-0.130,37.576,101.508,48.377
13:57:11:888,5.959,0.013,-0.842,-0.134,36.146,100.318,46.396
13:57:11:942,6.012,-0.022,-0.714,-0.012,32.175,98.444,42.384
13:57:11:942,6.013,-0.060,-0.636,-0.029,28.667,96.891,39.016
13:57:12:023,6.094,-0.127,-0.584,-0.148,22.565,94.327,33.334
13:57:12:024,6.094,-0.178,-0.289,-0.244,15.547,92.068,27.028
13:57:12:025,6.095,-0.123,-0.140,-0.261,10.879,90.602,22.552
13:57:12:044,6.114,-0.085,0.109,-0.186,3.781,88.982,15.898
13:57:12:128,6.199,0.024,0.398,-0.201,-1.313,88.733,11.471
13:57:12:129,6.199,0.249,1.083,0.077,-9.291,89.789,4.535
13:57:12:129,6.200,0.740,1.235,0.679,-17.099,93.156,-2.862
13:57:12:149,6.219,1.455,0.469,0.636,-20.864,94.630,-7.442
13:57:12:174,6.245,0.923,-0.043,2.149,-24.482,97.533,-13.129
13:57:12:287,6.358,0.890,-0.237,0.317,-25.798,97.836,-13.853
13:57:12:288,6.359,-0.526,0.557,-1.350,-24.344,98.846,-11.225
13:57:12:289,6.360,1.418,0.066,0.480,-23.518,99.906,-10.475
13:57:12:334,6.404,0.097,0.563,0.079,-20.582,104.302,-7.377
13:57:12:335,6.405,-0.260,-0.187,0.365,-20.414,107.554,-5.659
13:57:12:358,6.428,0.004,-0.071,0.614,-20.046,111.847,-4.858
13:57:12:384,6.454,0.223,-0.024,-0.083,-19.651,111.112,-3.690
13:57:12:44,6.511,0.220,-0.083,-0.307,-19.193,107.649,-1.909
13:57:12:44,6.511,-0.084,-0.011,-0.329,-19.324,108.533,-1.079
13:57:12:5,6.570,-0.271,0.023,0.281,-19.453,110.533,-0.737
13:57:12:5,6.571,-0.115,0.067,0.162,-19.148,111.218,0.469
13:57:12:516,6.587,0.012,0.009,0.013,-18.526,109.970,1.583
13:57:12:658,6.729,0.101,-0.010,-0.150,-17.382,107.709,3.272
13:57:12:658,6.729,-0.044,-0.043,-0.120,-16.351,106.092,4.869
13:57:12:658,6.729,-0.103,-0.010,-0.042,-15.698,105.350,5.890
13:57:12:658,6.729,-0.034,-0.059,-0.076,-14.700,104.375,7.416
13:57:12:727,6.798,0.016,-0.007,-0.121,-14.048,103.905,8.412
13:57:12:815,6.886,0.009,-0.018,-0.095,-13.076,103.657,9.887
13:57:12:816,6.887,-0.054,-0.021,-0.123,-12.454,103.599,10.862
13:57:12:817,6.888,-0.026,-0.008,-0.087,-11.585,102.930,12.337
13:57:12:818,6.889,0.042,0.048,-0.025,-10.760,103.184,13.789
13:57:12:839,6.909,-0.009,-0.015,-0.074,-10.118,102.432,14.756
13:57:12:839,6.909,-0.080,0.024,-0.128,-8.966,102.171,16.293
13:57:12:839,6.909,-0.046,0.068,-0.101,-8.118,101.530,17.417
13:57:12:86,6.930,-0.045,0.157,-0.069,-6.607,101.620,19.199
13:57:12:885,6.955,-0.067,0.180,-0.156,-4.695,100.827,21.024
13:57:12:911,6.982,-0.122,0.172,-0.248,-3.098,100.408,22.259
13:57:12:912,6.983,-0.259,0.311,-0.320,-0.332,99.341,24.260
13:57:12:964,7.035,-0.337,0.273,-0.515,1.749,99.102,25.731
13:57:12:99,7.061,-0.466,0.261,-0.682,5.609,98.453,28.353
13:57:12:991,7.062,-0.538,0.292,-0.931,10.244,97.916,31.805
13:57:13:043,7.113,-0.713,0.005,-1.129,13.801,97.418,34.402
13:57:13:069,7.140,-0.728,0.509,-0.323,19.993,97.184,38.634
13:57:13:07,7.140,-0.493,-0.018,-0.310,23.984,98.412,42.354
13:57:13:093,7.164,-0.394,-0.022,-0.106,28.562,100.924,47.395
13:57:13:119,7.189,-0.421,-0.666,-0.021,30.716,102.280,50.028
13:57:13:145,7.216,-0.126,-0.150,0.267,33.696,102.592,51.644
13:57:13:199,7.270,-0.236,-1.055,-0.112,36.527,101.208,51.237
13:57:13:227,7.297,-0.010,-1.077,-0.142,36.611,100.079,50.114
13:57:13:227,7.298,0.046,-0.866,-0.144,34.460,97.844,46.914
13:57:13:25,7.320,-0.064,-0.711,-0.038,31.618,96.422,44.182
13:57:13:335,7.406,-0.099,-0.663,-0.090,25.793,94.210,39.269
13:57:13:335,7.406,-0.083,-0.639,-0.227,21.353,92.574,35.446
13:57:13:337,7.408,-0.124,-0.437,-0.232,14.093,90.409,28.978
13:57:13:384,7.455,-0.194,-0.133,-0.249,6.817,88.537,21.761
13:57:13:385,7.455,-0.220,0.380,-0.186,2.006,87.374,16.663
13:57:13:438,7.509,0.141,0.834,-0.238,-5.445,86.368,8.930
13:57:13:438,7.509,0.437,1.214,0.221,-10.266,86.689,3.933
13:57:13:46,7.531,1.250,1.141,0.670,-17.084,89.095,-3.093
13:57:13:486,7.556,1.118,0.510,1.158,-21.776,92.131,-9.003
13:57:13:512,7.583,0.758,-0.080,1.870,-23.586,94.358,-11.922
13:57:13:54,7.610,0.716,-0.109,0.121,-23.426,96.374,-11.040
13:57:13:623,7.694,-0.865,0.721,-2.390,-22.131,99.030,-9.320
13:57:13:624,7.694,1.136,0.127,0.572,-19.839,101.513,-8.036
13:57:13:625,7.695,0.300,0.195,0.532,-17.916,105.235,-5.299
13:57:13:644,7.715,0.077,0.220,0.099,-17.527,107.170,-2.951
13:57:13:67,7.740,-0.244,-0.178,0.722,-16.905,111.061,-0.028
13:57:13:698,7.768,0.302,0.002,0.246,-16.439,112.062,1.793
13:57:13:722,7.793,0.297,0.094,0.012,-14.912,109.077,4.934
13:57:13:75,7.821,0.069,-0.114,-0.449,-13.999,106.705,6.677
13:57:13:777,7.848,-0.100,-0.153,-0.379,-13.531,106.465,8.453
13:57:13:83,7.901,-0.089,0.019,0.172,-13.805,108.865,9.683
13:57:13:831,7.902,0.051,0.072,0.257,-13.599,109.369,10.345
13:57:13:855,7.926,0.054,-0.047,-0.264,-12.792,107.984,11.149
13:57:13:911,7.982,-0.127,0.001,-0.074,-12.489,107.377,11.574
13:57:13:911,7.982,-0.132,0.017,-0.007,-12.411,107.366,12.206
13:57:13:989,8.059,-0.103,-0.041,-0.125,-11.893,106.690,12.972
13:57:13:99,8.060,-0.092,-0.034,-0.294,-11.396,106.187,13.667
13:57:14:074,8.145,-0.084,-0.016,-0.119,-10.701,106.235,14.917
13:57:14:074,8.145,-0.031,-0.015,-0.080,-10.148,106.293,15.887
13:57:14:074,8.145,-0.002,0.006,-0.071,-9.277,106.278,17.340
13:57:14:075,8.146,-0.007,0.018,-0.077,-8.707,106.082,18.265
13:57:14:09,8.161,-0.056,-0.015,-0.189,-7.776,105.611,19.587
13:57:14:117,8.188,-0.079,0.060,-0.102,-6.785,105.242,20.949
13:57:14:173,8.244,-0.127,0.056,-0.100,-6.007,105.026,21.864
13:57:14:174,8.244,-0.120,0.136,-0.144,-4.585,104.757,23.254
13:57:14:226,8.297,-0.148,0.209,-0.195,-3.401,104.503,24.272
13:57:14:226,8.297,-0.206,0.259,-0.327,-1.136,103.943,25.929
13:57:14:305,8.376,-0.348,0.304,-0.440,1.689,103.511,27.857
13:57:14:306,8.377,-0.376,0.275,-0.557,3.928,103.354,29.394
13:57:14:307,8.378,-0.504,0.177,-0.785,7.920,103.093,32.337
13:57:14:355,8.426,-0.673,0.230,-0.829,10.899,103.026,34.794
13:57:14:356,8.427,-0.903,0.007,-0.741,16.333,102.504,38.803
13:57:14:38,8.450,-0.839,0.219,-0.632,20.811,101.976,41.558
13:57:14:405,8.475,-0.697,-0.111,-0.559,27.698,102.540,46.593
13:57:14:461,8.532,-0.405,-0.266,-0.133,33.332,103.281,50.562
13:57:14:462,8.532,-0.455,-0.849,-0.160,35.927,103.536,52.436
13:57:14:483,8.554,-0.350,-0.356,0.283,39.137,101.951,52.568
13:57:14:537,8.608,-0.186,-1.133,-0.220,40.251,100.630,52.146
13:57:14:567,8.638,0.059,-0.955,-0.275,38.954,98.169,49.641
13:57:14:568,8.638,0.038,-0.733,-0.245,35.012,95.526,45.634
13:57:14:645,8.716,-0.082,-0.780,-0.168,31.200,93.907,42.385
13:57:14:646,8.717,-0.153,-0.680,-0.250,24.189,91.369,36.580
13:57:14:67,8.741,-0.127,-0.469,-0.335,19.019,89.706,32.302
13:57:14:671,8.742,-0.084,-0.226,-0.437,11.151,87.562,25.446
13:57:14:732,8.803,-0.115,0.093,-0.429,5.954,86.460,20.629
13:57:14:733,8.804,0.148,0.573,-0.419,-1.881,85.327,12.939
13:57:14:746,8.817,0.367,1.271,0.189,-9.630,86.079,4.868
13:57:14:802,8.872,0.481,1.350,0.495,-14.524,88.272,-0.581
13:57:14:803,8.873,0.835,0.031,1.082,-19.704,92.855,-8.218
13:57:14:856,8.927,0.788,-0.023,2.063,-22.039,97.218,-12.310
13:57:14:91,8.981,0.379,0.540,-0.695,-21.065,102.537,-11.023
13:57:14:912,8.982,1.345,0.364,0.362,-20.017,101.439,-9.789
13:57:14:93,9.001,0.423,0.180,0.216,-17.537,102.218,-6.245
13:57:15:045,9.116,0.085,-0.067,0.093,-16.559,102.052,-3.823
13:57:15:045,9.116,0.065,-0.193,-0.110,-16.172,104.252,-0.448
13:57:15:046,9.117,0.190,0.079,0.363,-15.917,107.432,1.756
13:57:15:047,9.118,0.129,0.124,0.142,-15.532,107.481,3.393
13:57:15:117,9.188,0.041,-0.107,-0.221,-14.488,105.344,5.645
13:57:15:118,9.188,0.011,-0.101,-0.298,-13.968,104.405,6.851
13:57:15:144,9.214,-0.034,0.068,0.116,-14.017,106.444,8.761
13:57:15:169,9.240,-0.014,0.005,-0.029,-13.759,106.539,9.706
13:57:15:17,9.240,0.050,-0.030,-0.166,-12.983,105.003,10.641
13:57:15:248,9.319,-0.088,-0.044,-0.215,-12.594,104.320,11.230
13:57:15:249,9.320,-0.047,-0.011,-0.043,-12.186,103.980,12.123
13:57:15:273,9.344,-0.062,0.015,-0.152,-11.793,103.568,12.782
13:57:15:328,9.398,-0.090,-0.050,-0.245,-11.098,102.787,13.843
13:57:15:329,9.399,-0.050,-0.026,-0.155,-10.456,102.678,15.011
13:57:15:353,9.424,-0.030,0.014,-0.081,-10.024,102.508,15.867
13:57:15:354,9.424,-0.020,-0.006,-0.119,-9.236,102.425,17.209
13:57:15:492,9.562,-0.042,0.001,-0.170,-8.599,101.806,18.155
13:57:15:492,9.563,-0.004,0.027,-0.108,-7.631,101.556,19.646
13:57:15:493,9.563,-0.091,0.058,-0.115,-6.884,100.932,20.634
13:57:15:494,9.564,-0.117,0.061,-0.137,-5.472,100.591,22.147
13:57:15:511,9.581,-0.152,0.182,-0.174,-3.656,100.059,23.852
13:57:15:511,9.582,-0.132,0.267,-0.223,-2.192,99.720,25.055
13:57:15:536,9.606,-0.214,0.278,-0.438,0.534,98.813,26.876
13:57:15:618,9.689,-0.291,0.258,-0.542,2.660,98.467,28.240
13:57:15:619,9.690,-0.534,0.211,-0.721,6.542,97.630,30.729
13:57:15:62,9.691,-0.560,0.190,-1.040,11.439,96.899,34.075
13:57:15:67,9.741,-0.767,-0.006,-1.224,15.090,96.485,36.652
13:57:15:672,9.742,-0.590,0.291,-0.577,21.171,96.736,40.983
13:57:15:746,9.817,-0.697,-0.033,-0.517,25.092,98.088,44.648
13:57:15:771,9.842,-0.427,-0.032,-0.205,30.059,99.900,49.424
13:57:15:797,9.868,-0.584,-0.730,-0.104,32.895,100.835,51.851
13:57:15:831,9.902,0.111,-0.420,-0.293,36.314,100.622,53.175
13:57:15:831,9.902,-0.147,-0.979,-0.223,38.583,99.383,52.652
13:57:15:831,9.902,-0.070,-1.086,-0.203,37.992,98.381,51.316
13:57:15:848,9.919,0.020,-0.854,-0.179,35.106,96.466,47.507
13:57:15:875,9.946,-0.053,-0.757,-0.115,31.939,95.209,44.264
13:57:15:903,9.973,-0.116,-0.750,-0.182,26.003,92.960,38.245
13:57:15:927,9.998,-0.139,-0.584,-0.226,19.354,90.564,31.266
13:57:15:982,10.052,-0.166,-0.459,-0.221,14.592,89.218,26.296
13:57:16:009,10.080,-0.128,-0.073,-0.325,7.341,87.584,18.508
13:57:16:01,10.081,-0.047,0.598,-0.388,2.312,87.343,13.245
13:57:16:032,10.103,0.135,1.175,-0.028,-5.326,89.198,5.362
13:57:16:059,10.129,-0.029,1.374,0.471,-10.072,92.628,0.117
13:57:16:087,10.157,1.021,0.629,1.087,-15.914,101.042,-7.814
13:57:16:142,10.213,0.592,0.190,2.091,-19.360,109.646,-14.413
13:57:16:142,10.213,1.274,-0.311,1.705,-20.812,112.005,-16.382
13:57:16:164,10.234,0.483,0.118,0.081,-20.659,112.044,-14.255
13:57:16:191,10.262,0.946,0.141,-0.419,-19.401,113.373,-12.316
13:57:16:331,10.401,0.683,0.009,0.277,-16.796,115.467,-10.415
13:57:16:332,10.402,0.367,0.056,0.545,-15.008,118.409,-7.273
13:57:16:332,10.403,0.316,0.055,0.288,-14.764,120.236,-5.125
13:57:16:333,10.404,-0.324,-0.114,0.559,-14.889,123.303,-1.493
13:57:16:35,10.421,0.255,-0.078,0.239,-14.750,124.985,-0.022
13:57:16:403,10.474,-0.016,-0.027,-0.462,-13.275,122.159,3.724
13:57:16:403,10.474,-0.207,-0.099,-0.298,-12.907,122.076,5.140
13:57:16:456,10.526,0.105,0.047,0.139,-13.163,125.119,6.022
13:57:16:456,10.527,0.015,0.075,0.038,-13.125,126.298,6.626
13:57:16:481,10.551,-0.087,-0.007,-0.215,-12.522,125.304,7.767
13:57:16:506,10.577,-0.090,-0.082,-0.135,-12.085,124.665,8.568
13:57:16:562,10.633,0.092,-0.001,-0.035,-11.642,125.039,9.734
13:57:16:562,10.633,0.062,0.032,-0.078,-11.178,125.111,10.751
13:57:16:583,10.654,-0.070,-0.023,-0.213,-10.821,124.749,11.401
13:57:16:721,10.792,-0.014,0.000,-0.074,-10.361,124.682,12.296
13:57:16:722,10.792,0.011,0.038,-0.051,-10.090,124.692,12.834
13:57:16:723,10.793,-0.072,-0.037,-0.128,-9.507,124.501,13.599
13:57:16:796,10.867,-0.100,0.009,-0.101,-8.778,124.299,14.432
13:57:16:851,10.922,-0.082,0.083,-0.029,-8.230,124.445,15.045
13:57:16:904,10.975,-0.154,0.058,-0.100,-7.063,124.358,15.985
13:57:16:904,10.975,-0.191,0.055,-0.201,-6.008,124.069,16.709
13:57:16:929,11.000,-0.146,0.141,-0.340,-3.955,123.386,18.192
13:57:16:929,11.000,-0.237,0.375,-0.309,-2.305,123.193,19.500
13:57:16:987,11.058,-0.331,0.327,-0.253,0.519,123.384,21.732
13:57:16:988,11.058,-0.538,0.283,-0.339,3.918,123.756,24.124
13:57:16:989,11.059,-0.715,0.267,-0.484,6.584,124.076,25.877
13:57:16:991,11.062,-0.938,0.060,-0.611,11.066,124.648,28.967
13:57:17:005,11.076,-0.788,0.057,-0.115,14.520,125.044,31.275
13:57:17:06,11.131,-0.695,0.343,0.185,19.852,126.779,35.253
13:57:17:06,11.131,-0.680,-0.002,0.118,24.477,130.462,40.364
13:57:17:086,11.157,-0.509,-0.156,0.170,26.579,133.252,43.544
13:57:17:087,11.158,-0.571,-0.610,0.197,28.367,136.658,46.874
13:57:17:141,11.211,-0.171,-0.279,0.354,29.466,137.847,47.337
13:57:17:142,11.212,-0.329,-0.953,0.212,29.349,140.091,47.230
13:57:17:143,11.213,-0.076,-0.807,0.160,28.120,141.221,45.841
13:57:17:161,11.232,-0.097,-0.731,0.137,25.081,142.320,42.204
13:57:17:188,11.258,-0.167,-0.684,0.252,20.673,143.209,37.002
13:57:17:216,11.287,-0.212,-0.609,0.296,17.145,143.653,32.889
13:57:17:301,11.372,-0.214,-0.335,0.232,11.397,144.117,26.086
13:57:17:302,11.373,-0.143,-0.120,0.211,7.532,144.668,21.192
13:57:17:302,11.373,0.025,0.282,0.486,1.111,146.627,13.710
13:57:17:319,11.390,0.563,0.709,0.373,-10.115,150.083,1.191
13:57:17:345,11.416,1.169,0.974,0.188,-16.971,151.942,-5.393
13:57:17:373,11.443,1.656,0.592,-0.473,-21.249,153.074,-8.886
13:57:17:453,11.524,1.560,0.149,-0.624,-26.285,156.484,-12.840
13:57:17:454,11.525,1.485,-0.265,-0.260,-27.869,159.575,-14.896
13:57:17:479,11.550,1.080,-0.310,-0.638,-27.671,163.786,-14.992
13:57:17:48,11.551,-0.538,0.418,-1.190,-25.703,166.655,-13.461
13:57:17:503,11.573,0.354,-0.322,-0.309,-23.891,169.566,-12.884
13:57:17:529,11.600,0.753,0.040,-0.214,-21.851,176.901,-11.379
13:57:17:56,11.630,-0.125,-0.043,0.268,-21.430,-178.964,-9.049
13:57:17:584,11.654,1.038,-0.235,0.493,-20.201,-173.202,-7.414
13:57:17:61,11.681,0.205,-0.070,-0.214,-19.240,-175.658,-3.965
13:57:17:666,11.737,-0.178,-0.146,-0.536,-18.472,-178.362,-1.828
13:57:17:667,11.738,-0.435,0.000,-0.193,-18.105,-177.306,0.002
13:57:17:686,11.757,0.483,-0.009,0.169,-18.194,-174.300,0.617
13:57:17:716,11.786,0.355,-0.010,-0.022,-17.990,-171.685,1.427
13:57:17:742,11.812,-0.276,0.010,-0.278,-17.589,-172.572,2.305
13:57:17:772,11.842,-0.101,-0.013,-0.072,-17.079,-173.198,3.513
13:57:17:827,11.898,0.137,0.010,-0.048,-16.658,-172.571,4.708
13:57:17:829,11.900,0.043,0.001,-0.081,-16.155,-172.907,5.688
13:57:17:873,11.944,-0.098,-0.021,-0.143,-15.336,-173.686,7.186
13:57:17:874,11.944,-0.026,-0.025,-0.085,-14.854,-173.727,8.059
13:57:17:954,12.025,0.027,0.005,-0.157,-14.126,-173.654,9.328
13:57:17:956,12.027,-0.034,-0.016,-0.111,-13.321,-173.331,10.587
13:57:17:956,12.027,-0.011,-0.007,-0.102,-12.568,-173.495,11.351
13:57:17:975,12.046,0.006,0.029,-0.112,-11.325,-173.292,12.429
13:57:18:001,12.072,0.057,0.070,-0.099,-10.739,-173.534,13.129
13:57:18:057,12.127,-0.020,0.055,-0.017,-9.716,-173.720,13.994
13:57:18:058,12.128,-0.153,0.064,0.064,-8.346,-174.492,14.876
13:57:18:109,12.180,-0.211,0.184,0.044,-7.173,-174.439,15.702
13:57:18:11,12.180,-0.338,0.470,0.123,-4.842,-174.850,17.429
13:57:18:19,12.261,-0.411,0.453,0.224,-2.910,-174.714,18.862
13:57:18:191,12.262,-0.605,0.436,0.310,0.634,-174.850,21.674
13:57:18:192,12.263,-0.650,0.396,0.541,3.532,-175.079,24.062
13:57:18:24,12.311,-0.901,0.199,0.788,8.245,-175.796,28.313
13:57:18:241,12.312,-0.625,0.175,0.428,13.584,-177.023,32.397
13:57:18:293,12.363,-0.454,0.289,0.469,17.669,-177.498,35.284
13:57:18:294,12.364,-0.133,-0.160,0.388,22.711,-177.130,39.445
13:57:18:345,12.416,-0.320,-0.581,-0.047,25.146,-177.073,41.521
13:57:18:346,12.417,0.126,-0.397,0.035,28.198,-177.486,42.573
13:57:18:425,12.495,-0.180,-0.968,0.042,29.405,-178.611,42.518
13:57:18:425,12.496,-0.074,-0.932,0.022,28.461,-178.858,41.657
13:57:18:449,12.519,-0.050,-0.761,0.009,24.991,-179.629,39.301
13:57:18:478,12.548,-0.069,-0.713,0.045,21.568,-179.943,37.212
13:57:18:478,12.548,-0.198,-0.562,0.021,15.441,179.576,32.956
13:57:18:5,12.571,-0.223,-0.490,0.101,11.078,179.498,29.574
13:57:18:526,12.597,-0.226,-0.392,0.129,4.561,179.641,23.633
13:57:18:554,12.625,-0.153,0.109,0.161,-1.866,179.828,16.492
13:57:18:585,12.656,-0.217,0.437,0.008,-6.098,179.787,11.247
13:57:18:636,12.706,0.150,1.052,-0.177,-12.737,-179.721,3.032
13:57:18:636,12.707,0.486,1.304,-0.186,-17.516,-178.800,-2.375
13:57:18:658,12.728,1.058,0.490,-1.048,-24.715,-176.431,-9.876
13:57:18:685,12.756,1.178,0.197,-1.324,-29.098,-174.432,-14.207
13:57:18:739,12.810,1.869,-0.734,-0.931,-33.983,-173.805,-18.823
13:57:18:74,12.811,0.754,-0.465,-0.835,-34.251,-173.888,-18.099
13:57:18:792,12.862,-0.095,0.444,-0.498,-32.635,-174.150,-14.857
13:57:18:793,12.863,-2.926,0.684,0.213,-30.164,-174.658,-9.768
13:57:18:845,12.916,0.667,-0.282,-0.811,-28.939,-175.016,-7.996
13:57:18:845,12.916,0.463,0.159,-0.548,-26.337,-171.057,-7.059
13:57:18:868,12.938,0.160,0.031,0.084,-25.238,-165.983,-5.588
13:57:18:895,12.965,0.488,0.076,0.067,-25.229,-162.606,-5.253
13:57:18:922,12.993,0.457,0.027,-0.322,-24.262,-162.316,-3.684
13:57:18:946,13.017,0.079,0.033,-0.436,-23.544,-165.100,-1.950
13:57:19:002,13.073,-0.432,-0.139,-0.163,-23.120,-168.022,-0.206
13:57:19:003,13.073,0.096,0.000,0.054,-23.613,-165.574,-0.223
13:57:19:057,13.127,0.406,0.132,0.024,-23.690,-163.847,-0.415
13:57:19:059,13.129,0.137,0.035,-0.025,-23.128,-165.316,0.389
13:57:19:105,13.176,-0.216,-0.064,-0.124,-22.527,-167.447,1.300
13:57:19:134,13.204,-0.173,-0.022,-0.070,-21.718,-169.478,2.655
13:57:19:134,13.204,-0.043,0.025,-0.048,-21.189,-170.201,3.544
13:57:19:156,13.227,-0.027,-0.005,-0.038,-20.197,-171.352,5.045
13:57:19:183,13.253,-0.099,-0.040,-0.046,-19.014,-172.501,6.667
13:57:19:209,13.280,-0.159,-0.046,-0.097,-18.232,-172.861,7.764
13:57:19:324,13.394,-0.062,-0.013,-0.048,-17.061,-172.740,9.388
13:57:19:324,13.394,-0.016,0.006,-0.095,-16.247,-172.625,10.487
13:57:19:326,13.396,0.045,0.018,-0.163,-14.997,-172.715,12.089
13:57:19:327,13.397,-0.013,-0.008,-0.120,-13.726,-172.757,13.550
13:57:19:371,13.442,-0.033,0.013,-0.057,-12.837,-173.027,14.421
13:57:19:371,13.442,-0.031,0.104,0.025,-11.295,-173.256,15.733
13:57:19:393,13.464,-0.107,0.120,-0.010,-10.032,-173.663,16.694
13:57:19:448,13.519,-0.212,0.181,-0.069,-7.877,-174.226,18.368
13:57:19:449,13.520,-0.295,0.351,0.022,-6.194,-174.533,19.616
13:57:19:476,13.546,-0.450,0.451,0.301,-3.281,-174.755,21.805
13:57:19:476,13.547,-0.723,0.424,0.321,0.331,-174.920,24.742
13:57:19:527,13.598,-0.868,0.413,0.402,3.118,-174.938,27.193
13:57:19:528,13.598,-0.851,0.008,0.777,7.589,-174.847,31.387
13:57:19:579,13.650,-0.259,0.517,0.347,11.069,-174.957,34.185
13:57:19:58,13.651,-0.417,0.149,0.408,17.184,-174.767,38.582
13:57:19:603,13.674,-0.061,-0.136,0.361,22.536,-174.630,42.036
13:57:19:629,13.700,-0.173,-0.584,0.279,25.299,-174.797,43.553
13:57:19:655,13.726,0.211,-0.448,0.245,28.429,-176.492,43.771
13:57:19:737,13.807,-0.180,-0.910,-0.040,29.292,-177.556,43.611
13:57:19:768,13.839,-0.309,-1.042,-0.061,27.483,-178.455,42.185
13:57:19:768,13.839,-0.122,-0.689,-0.056,24.694,-178.644,40.553
13:57:19:768,13.839,0.008,-0.560,0.087,19.089,-178.580,37.107
13:57:19:788,13.859,-0.101,-0.567,0.075,12.780,-178.685,32.429
13:57:19:815,13.886,-0.209,-0.540,0.097,8.417,-178.689,28.689
13:57:19:899,13.970,0.053,-0.123,0.192,1.910,-178.264,22.167
13:57:19:899,13.970,-0.274,0.146,0.078,-2.349,-177.821,17.363
13:57:19:899,13.970,-0.125,0.318,-0.084,-8.380,-177.566,9.199
13:57:19:918,13.988,0.328,1.023,-0.277,-14.758,-176.118,0.414
13:57:19:946,14.016,0.852,1.204,-0.334,-19.158,-174.046,-5.298
13:57:20:088,14.158,1.045,0.069,-1.125,-25.579,-170.312,-13.030
13:57:20:088,14.159,1.714,-0.043,-0.855,-29.270,-169.094,-16.650
13:57:20:088,14.159,1.685,-0.767,-1.127,-32.682,-169.031,-19.724
13:57:20:088,14.159,0.634,-0.290,-0.805,-32.523,-171.040,-16.818
13:57:20:104,14.175,-1.577,0.726,0.316,-31.011,-170.940,-13.833
13:57:20:105,14.175,0.035,-0.431,-1.667,-29.327,-168.909,-13.130
13:57:20:129,14.199,0.399,-0.087,-0.691,-27.467,-165.911,-13.025
13:57:20:154,14.225,0.474,0.199,-0.538,-25.848,-162.623,-11.604
13:57:20:238,14.309,0.226,0.187,0.089,-25.823,-160.558,-10.214
13:57:20:239,14.310,0.693,-0.213,-0.038,-25.430,-155.649,-9.565
13:57:20:24,14.311,0.358,0.084,-0.359,-24.483,-155.666,-8.140
13:57:20:261,14.332,-0.223,-0.063,-0.361,-23.944,-158.971,-6.335
13:57:20:287,14.358,-0.453,-0.055,-0.052,-23.628,-161.391,-4.677
13:57:20:311,14.382,0.290,0.042,0.085,-23.691,-159.356,-4.575
13:57:20:396,14.467,0.367,0.088,0.120,-23.430,-156.938,-4.242
13:57:20:397,14.467,-0.099,-0.028,-0.114,-22.568,-159.120,-2.463
13:57:20:451,14.521,-0.261,-0.037,-0.167,-21.903,-160.759,-1.134
13:57:20:451,14.521,0.036,0.001,-0.091,-21.075,-161.547,0.613
13:57:20:451,14.521,0.063,0.014,-0.043,-20.486,-161.946,1.768
13:57:20:469,14.540,-0.109,-0.003,-0.060,-19.365,-163.234,3.590
13:57:20:495,14.566,-0.118,-0.027,-0.113,-18.503,-163.970,4.745
13:57:20:521,14.592,-0.059,-0.015,-0.086,-17.155,-164.301,6.399
13:57:20:548,14.619,-0.006,0.004,-0.108,-15.803,-165.019,8.094
13:57:20:604,14.675,0.011,-0.005,-0.130,-14.886,-165.027,9.221
13:57:20:604,14.675,0.036,0.031,-0.153,-13.478,-165.845,10.790
13:57:20:628,14.699,-0.001,0.020,-0.102,-12.532,-166.098,11.747
13:57:20:654,14.724,-0.074,0.068,-0.062,-11.009,-167.164,13.096
13:57:20:68,14.751,-0.132,0.159,-0.072,-9.292,-167.737,14.488
13:57:20:706,14.777,-0.218,0.167,-0.101,-8.004,-168.572,15.514
13:57:20:732,14.803,-0.277,0.242,-0.043,-5.711,-168.818,17.294
13:57:20:759,14.830,-0.268,0.380,0.219,-3.864,-169.158,18.688
13:57:20:792,14.862,-0.367,0.394,0.448,-0.252,-169.316,21.073
13:57:20:812,14.883,-0.631,0.426,0.449,2.594,-169.742,22.939
13:57:20:838,14.908,-1.006,0.269,0.649,7.442,-170.308,26.384
13:57:20:863,14.933,-0.426,0.300,0.611,12.500,-169.748,30.360
13:57:20:918,14.989,-0.112,0.426,0.654,15.724,-168.175,33.383
13:57:20:919,14.990,-0.053,-0.038,0.398,19.219,-164.301,37.988
13:57:20:943,15.014,0.088,-0.232,0.280,20.568,-161.638,40.486
13:57:20:968,15.038,0.029,-0.242,-0.081,22.515,-158.829,42.299
13:57:20:999,15.069,-0.022,-0.908,0.258,24.123,-156.783,42.699
13:57:21:05,15.120,-0.030,-0.988,0.244,24.048,-155.463,41.777
13:57:21:05,15.121,0.008,-0.725,0.086,22.527,-153.243,39.202
13:57:21:102,15.173,0.163,-0.492,0.097,20.555,-151.319,36.989
13:57:21:103,15.174,0.143,-0.498,0.144,16.740,-147.836,32.795
13:57:21:157,15.227,0.238,-0.330,0.230,13.874,-145.145,29.349
13:57:21:157,15.227,0.392,-0.219,0.234,9.573,-140.639,23.471
13:57:21:178,15.248,0.548,-0.108,0.279,5.856,-136.171,17.127
13:57:21:204,15.275,0.727,0.020,0.130,3.435,-133.576,12.552
13:57:21:231,15.302,0.802,0.202,-0.063,-0.642,-130.745,5.027
13:57:21:257,15.327,0.956,0.456,-0.503,-5.561,-128.714,-2.791
13:57:21:282,15.353,0.752,0.642,-0.765,-9.506,-127.702,-7.499
13:57:21:339,15.410,0.620,0.649,-1.138,-16.226,-125.976,-13.482
13:57:21:341,15.411,0.076,0.068,-1.637,-20.629,-124.622,-16.703
13:57:21:392,15.462,-0.288,-0.177,-1.635,-25.978,-122.369,-20.086
13:57:21:392,15.462,-0.176,-0.498,-1.456,-27.868,-121.177,-21.214
13:57:21:414,15.485,-0.795,-0.494,-1.223,-27.866,-119.385,-20.051
13:57:21:44,15.511,-1.912,1.473,1.904,-25.401,-114.107,-18.605
13:57:21:498,15.569,-0.200,-0.057,-1.511,-23.544,-110.931,-18.732
13:57:21:499,15.570,-0.784,0.791,-1.274,-21.524,-104.701,-16.996
13:57:21:519,15.590,1.081,0.049,-0.261,-20.780,-102.017,-14.712
13:57:21:545,15.616,0.108,-0.346,-0.374,-19.353,-99.313,-13.019
13:57:21:572,15.642,-0.245,-0.045,-0.375,-18.427,-102.024,-10.330
13:57:21:686,15.757,-0.512,0.153,0.080,-17.994,-104.128,-8.573
13:57:21:687,15.758,-0.020,-0.033,0.153,-17.529,-103.485,-6.632
13:57:21:689,15.760,0.535,-0.052,-0.313,-17.003,-101.725,-5.572
13:57:21:702,15.773,-0.107,0.009,0.022,-15.234,-102.208,-2.326
13:57:21:757,15.828,0.016,-0.043,-0.040,-13.971,-102.689,-0.412
13:57:21:79,15.861,-0.039,-0.012,-0.273,-12.790,-102.523,1.289
13:57:21:792,15.863,-0.034,-0.011,-0.157,-12.022,-102.847,2.334
13:57:21:896,15.967,-0.124,0.031,-0.119,-10.961,-103.680,3.784
13:57:21:897,15.968,-0.061,-0.011,-0.097,-10.255,-104.106,4.699
13:57:21:898,15.968,-0.045,-0.001,-0.089,-9.227,-104.426,5.990
13:57:21:899,15.969,-0.058,0.034,-0.163,-8.240,-104.643,7.207
13:57:21:916,15.986,-0.092,0.035,-0.178,-7.638,-104.217,7.954
13:57:21:916,15.987,-0.103,-0.001,-0.183,-6.799,-104.647,8.916
13:57:21:94,16.011,-0.050,0.005,-0.110,-6.282,-104.540,9.459
13:57:22:024,16.095,-0.005,0.066,-0.044,-5.465,-105.207,10.212
13:57:22:024,16.095,-0.028,0.090,-0.030,-4.853,-105.035,10.699
13:57:22:047,16.118,0.010,0.134,0.066,-3.654,-105.322,11.574
13:57:22:049,16.119,0.121,0.181,0.074,-1.967,-105.046,12.799
13:57:22:07,16.141,0.171,0.228,0.147,-0.428,-105.518,13.839
13:57:22:155,16.226,0.306,0.484,0.400,2.610,-106.461,15.786
13:57:22:155,16.226,0.168,0.541,0.953,5.101,-107.316,17.313
13:57:22:157,16.227,-0.038,0.414,1.234,9.664,-108.570,20.062
13:57:22:175,16.246,0.137,0.182,0.895,14.580,-108.420,23.845
13:57:22:231,16.301,0.730,0.550,0.334,17.995,-106.735,27.287
13:57:22:232,16.302,0.462,0.113,0.089,22.044,-102.117,33.353
13:57:22:254,16.324,0.489,-0.447,0.142,24.113,-99.275,36.729
13:57:22:282,16.352,0.140,-0.760,0.378,26.479,-96.088,40.115
13:57:22:307,16.377,0.190,-0.892,0.034,28.507,-95.187,40.362
13:57:22:333,16.404,0.283,-1.041,0.154,29.404,-93.847,40.492
13:57:22:359,16.430,0.163,-0.737,-0.041,28.060,-92.546,38.216
13:57:22:386,16.456,0.189,-0.643,-0.150,26.234,-92.166,35.864
13:57:22:411,16.482,0.267,-0.624,-0.186,22.461,-92.094,30.746
13:57:22:438,16.508,0.326,-0.619,-0.022,19.540,-92.613,26.453
13:57:22:464,16.534,0.455,-0.497,-0.043,14.513,-93.246,19.626
13:57:22:49,16.561,0.373,-0.021,-0.127,8.696,-93.919,12.500
13:57:22:518,16.589,0.241,0.173,-0.098,4.588,-94.437,7.786
13:57:22:543,16.614,-0.116,0.522,-0.412,-2.284,-93.712,1.158
13:57:22:628,16.699,-0.327,0.653,-0.824,-7.112,-91.889,-3.180
13:57:22:629,16.700,-0.649,0.637,-1.178,-14.018,-87.957,-9.895
13:57:22:63,16.701,-1.400,0.562,-1.340,-19.820,-84.675,-16.199
13:57:22:649,16.720,-0.817,-0.232,-1.711,-21.780,-82.867,-19.203
13:57:22:677,16.747,-1.188,-0.402,-1.369,-23.104,-80.672,-20.143
13:57:22:789,16.860,0.565,1.036,2.288,-22.222,-79.165,-18.846
13:57:22:79,16.860,-1.009,0.255,0.096,-19.837,-77.346,-17.665
13:57:22:79,16.860,-0.622,0.347,-1.065,-17.889,-73.752,-16.464
13:57:22:79,16.861,-0.245,0.453,0.432,-17.074,-68.394,-12.606
13:57:22:836,16.907,0.277,-0.440,-1.437,-15.500,-63.344,-10.896
13:57:22:838,16.909,-0.171,-0.160,-0.396,-14.956,-65.168,-8.751
13:57:22:86,16.930,-0.278,0.087,0.197,-14.178,-70.756,-5.791
13:57:22:885,16.956,-0.066,0.019,0.604,-13.607,-72.002,-4.437
13:57:22:911,16.982,0.153,-0.079,-0.282,-13.081,-68.644,-2.871
13:57:22:937,17.007,-0.085,0.006,-0.538,-12.440,-66.568,-1.462
13:57:22:995,17.065,-0.177,-0.012,-0.170,-11.906,-66.607,-0.543
13:57:22:995,17.065,-0.115,0.013,0.070,-11.379,-67.908,0.542
13:57:23:016,17.087,0.037,-0.001,-0.193,-11.272,-67.561,1.072
13:57:23:041,17.112,0.051,-0.029,-0.051,-10.979,-68.761,1.885
13:57:23:071,17.142,0.066,0.011,0.052,-10.638,-69.207,2.542
13:57:23:095,17.166,0.069,0.003,-0.026,-10.014,-70.102,3.658
13:57:23:124,17.194,0.070,-0.001,-0.037,-9.196,-70.291,4.973
13:57:23:176,17.247,0.004,0.036,-0.040,-8.561,-70.651,5.952
13:57:23:177,17.248,-0.020,0.017,-0.053,-7.546,-70.669,7.497
13:57:23:201,17.272,0.012,0.005,-0.047,-6.846,-71.096,8.531
13:57:23:226,17.297,0.014,0.085,-0.094,-5.768,-71.196,10.099
13:57:23:26,17.331,0.021,0.079,-0.011,-4.570,-71.654,11.608
13:57:23:277,17.348,0.070,0.056,0.008,-3.624,-72.060,12.593
13:57:23:304,17.375,0.103,0.131,0.053,-2.001,-72.256,14.202
13:57:23:331,17.402,0.138,0.196,0.066,-0.762,-72.541,15.464
13:57:23:386,17.456,0.123,0.279,0.105,1.247,-72.685,17.526
13:57:23:386,17.457,0.276,0.283,0.197,2.790,-72.781,18.940
13:57:23:411,17.481,0.410,0.285,0.311,5.592,-72.897,21.178
13:57:23:436,17.506,0.708,0.262,0.517,9.285,-73.467,23.824
13:57:23:461,17.532,0.858,0.140,0.860,12.293,-74.269,25.858
13:57:23:487,17.558,0.624,0.370,0.322,17.573,-75.115,29.463
13:57:23:544,17.615,0.944,0.061,0.329,22.706,-73.599,34.862
13:57:23:545,17.615,0.394,0.099,-0.052,25.905,-72.718,37.926
13:57:23:567,17.638,0.446,-0.385,0.002,30.049,-71.953,41.403
13:57:23:593,17.663,-0.057,-0.335,0.174,32.080,-72.216,42.468
13:57:23:621,17.691,0.116,-0.759,-0.123,34.498,-74.360,41.684
13:57:23:645,17.716,0.134,-1.103,0.205,33.900,-76.067,39.934
13:57:23:726,17.797,0.000,-0.883,0.181,32.199,-77.617,37.439
13:57:23:756,17.827,0.032,-0.778,0.040,28.241,-79.850,32.832
13:57:23:757,17.827,0.146,-0.662,0.050,24.531,-81.133,29.289
13:57:23:758,17.828,0.184,-0.485,0.056,18.013,-82.958,23.315
13:57:23:777,17.847,0.195,-0.151,0.165,13.315,-83.986,18.996
13:57:23:833,17.904,0.162,-0.013,0.180,6.278,-85.236,12.202
13:57:23:834,17.905,0.033,0.381,0.080,-0.953,-84.927,5.281
13:57:23:855,17.926,-0.126,0.905,-0.295,-6.019,-83.360,0.358
13:57:23:972,18.042,-0.211,1.102,-0.921,-13.456,-79.400,-7.492
13:57:23:972,18.043,-1.499,0.999,-1.367,-18.212,-76.126,-12.637
13:57:23:972,18.043,-1.177,0.192,-1.485,-23.517,-73.738,-18.911
13:57:23:972,18.043,-1.575,-0.759,-1.261,-26.014,-72.444,-21.883
13:57:24:017,18.088,-0.952,-0.354,-0.563,-27.122,-72.761,-21.186
13:57:24:017,18.088,0.638,1.559,2.964,-24.899,-71.421,-18.154
13:57:24:068,18.139,-0.659,-0.326,-0.091,-23.569,-71.443,-17.435
13:57:24:069,18.140,-0.827,0.031,-0.814,-20.161,-67.506,-15.261
13:57:24:093,18.164,0.135,0.233,-0.073,-19.257,-65.940,-13.233
13:57:24:152,18.223,0.419,-0.365,-0.810,-18.150,-61.405,-10.393
13:57:24:152,18.223,-0.341,-0.070,-0.517,-16.847,-58.227,-8.667
13:57:24:152,18.223,-0.541,0.120,-0.245,-16.060,-60.038,-7.041
13:57:24:171,18.242,-0.131,0.047,0.374,-15.142,-64.109,-4.658
13:57:24:197,18.268,0.021,-0.189,0.185,-15.015,-64.127,-3.799
13:57:24:256,18.326,0.020,0.093,-0.521,-15.250,-60.522,-3.228
13:57:24:257,18.328,-0.048,0.020,-0.364,-15.073,-59.290,-2.676
13:57:24:309,18.380,-0.028,0.001,-0.011,-14.623,-61.170,-2.111
13:57:24:31,18.380,0.024,-0.073,0.169,-13.946,-64.146,-1.275
13:57:24:33,18.400,0.050,0.007,-0.083,-13.648,-64.870,-0.734
13:57:24:385,18.456,0.024,0.019,-0.198,-13.205,-65.207,0.211
13:57:24:385,18.456,0.080,0.021,-0.020,-12.752,-66.022,0.973
13:57:24:436,18.507,0.024,-0.080,0.207,-11.907,-67.815,2.276
13:57:24:437,18.508,0.036,0.017,-0.014,-11.088,-68.338,3.654
13:57:24:517,18.588,0.023,-0.003,-0.116,-10.492,-68.182,4.685
13:57:24:518,18.589,0.030,0.020,0.012,-9.378,-68.408,6.404
13:57:24:519,18.589,-0.048,0.053,-0.122,-8.557,-68.740,7.647
13:57:24:539,18.609,-0.022,0.022,-0.101,-7.224,-69.087,9.459
13:57:24:564,18.635,0.097,0.012,-0.098,-5.644,-69.689,11.181
13:57:24:59,18.661,0.070,0.153,-0.150,-4.461,-69.950,12.368
13:57:24:616,18.687,0.028,0.204,0.006,-2.423,-70.975,14.129
13:57:24:673,18.744,0.076,0.243,0.081,-0.845,-71.719,15.328
13:57:24:673,18.744,0.271,0.307,0.168,1.866,-73.048,17.202
13:57:24:695,18.766,0.342,0.367,0.312,3.889,-73.628,18.639
13:57:24:724,18.794,0.556,0.386,0.573,7.519,-74.788,21.395
13:57:24:777,18.848,0.956,0.255,0.912,11.750,-75.729,24.998
13:57:24:778,18.849,1.006,0.127,0.668,15.095,-76.419,27.596
13:57:24:8,18.871,0.874,0.444,0.019,20.762,-76.720,32.167
13:57:24:827,18.897,0.424,-0.078,0.013,24.293,-76.031,35.617
13:57:24:855,18.926,0.315,-0.015,-0.077,28.312,-75.253,39.456
13:57:24:882,18.952,0.497,-0.963,0.114,31.039,-75.306,41.483
13:57:24:905,18.976,0.390,-0.533,-0.486,32.817,-77.376,40.742
13:57:24:964,19.035,0.211,-1.176,0.185,33.280,-79.589,39.595
13:57:24:965,19.036,0.014,-1.067,0.242,31.912,-81.348,37.737
13:57:25:043,19.113,-0.033,-0.750,0.030,28.036,-83.462,33.958
13:57:25:043,19.114,0.154,-0.705,0.006,22.457,-85.382,29.139
13:57:25:044,19.114,0.130,-0.574,0.165,18.108,-86.702,25.427
13:57:25:066,19.137,0.085,-0.383,0.197,11.022,-87.897,19.542
13:57:25:091,19.161,0.007,-0.045,0.052,6.266,-88.196,15.344
13:57:25:116,19.186,-0.021,0.226,0.109,-0.732,-87.941,8.507
13:57:25:141,19.212,-0.100,0.707,-0.168,-5.339,-86.860,3.619
13:57:25:168,19.239,-0.364,0.938,-0.592,-12.399,-82.948,-4.254
13:57:25:194,19.265,-0.804,1.002,-1.284,-19.030,-77.461,-12.479
13:57:25:221,19.291,-1.427,0.377,-1.370,-22.680,-74.891,-17.312
13:57:25:276,19.346,-1.532,-0.392,-1.918,-26.486,-73.301,-22.007
13:57:25:276,19.347,-1.030,-0.399,-0.461,-27.601,-74.141,-21.654
13:57:25:301,19.371,1.067,1.245,2.430,-25.666,-74.417,-18.256
13:57:25:326,19.397,-1.178,-0.085,-0.538,-23.643,-75.466,-16.515
13:57:25:352,19.423,-0.553,-0.110,-0.383,-21.649,-72.937,-15.197
13:57:25:379,19.450,-0.045,0.569,0.035,-20.535,-68.656,-12.524
13:57:25:404,19.475,0.372,-0.270,-0.995,-19.658,-64.176,-11.165
13:57:25:435,19.506,-0.346,0.024,-0.606,-18.335,-61.552,-9.630
13:57:25:459,19.530,-0.352,0.078,-0.124,-17.623,-64.903,-7.651
13:57:25:483,19.554,-0.080,-0.045,0.518,-16.885,-69.384,-5.320
13:57:25:509,19.580,0.049,-0.059,-0.111,-16.919,-66.628,-4.579
13:57:25:535,19.606,0.059,0.049,-0.584,-16.917,-63.410,-4.511
13:57:25:564,19.635,0.080,0.033,-0.367,-16.537,-63.250,-3.677
13:57:25:589,19.660,-0.028,-0.024,0.168,-16.093,-65.511,-2.730
13:57:25:616,19.686,0.044,-0.039,0.053,-15.337,-68.102,-1.168
13:57:25:641,19.711,0.086,0.002,-0.018,-14.553,-69.671,0.621
13:57:25:667,19.737,0.094,0.000,-0.095,-13.884,-70.481,1.845
13:57:25:693,19.764,0.020,-0.006,0.071,-12.624,-71.485,3.698
13:57:25:72,19.791,-0.007,-0.008,-0.043,-11.697,-71.887,4.934
13:57:25:749,19.820,0.016,-0.005,0.001,-10.228,-72.169,6.872
13:57:25:772,19.842,-0.077,0.035,-0.136,-9.251,-72.275,8.193
13:57:25:8,19.870,-0.136,-0.005,-0.131,-7.852,-72.612,10.024
13:57:25:824,19.895,-0.071,-0.010,-0.047,-6.517,-74.046,11.598
13:57:25:85,19.921,-0.020,-0.002,-0.009,-5.691,-74.461,12.604
13:57:25:878,19.949,0.035,0.149,-0.097,-4.447,-75.715,14.107
13:57:25:903,19.974,0.066,0.155,0.049,-3.502,-76.054,15.083
13:57:25:929,20.000,0.174,0.228,0.020,-1.816,-77.244,16.612
13:57:25:956,20.026,0.232,0.355,0.117,0.302,-77.832,18.401
13:57:25:982,20.053,0.310,0.414,0.277,2.058,-78.768,19.783
13:57:26:008,20.078,0.446,0.373,0.515,5.249,-79.543,22.189
13:57:26:034,20.104,0.646,0.375,0.755,7.728,-80.640,24.143
13:57:26:06,20.131,0.835,0.156,0.866,12.031,-81.931,27.493
13:57:26:087,20.158,0.564,0.540,0.191,17.689,-84.043,30.818
13:57:26:115,20.185,0.745,0.086,0.539,21.950,-84.621,33.638
13:57:26:17,20.240,0.414,-0.119,0.045,27.526,-84.137,37.896
13:57:26:17,20.240,0.379,-0.394,0.078,30.273,-83.738,40.108
13:57:26:192,20.262,-0.138,-0.346,-0.016,32.897,-84.420,41.631
13:57:26:218,20.288,0.066,-0.668,-0.242,34.329,-85.992,40.794
13:57:26:246,20.316,0.192,-1.168,0.206,34.148,-87.842,39.679
13:57:26:271,20.342,0.045,-0.865,0.233,31.118,-89.070,36.739
13:57:26:298,20.369,0.057,-0.696,0.161,27.803,-89.313,34.329
13:57:26:352,20.423,0.213,-0.606,-0.056,21.598,-89.374,29.758
13:57:26:407,20.478,0.284,-0.397,0.269,9.694,-90.455,18.907
13:57:26:408,20.478,0.232,0.162,0.164,2.148,-91.012,11.080
13:57:26:409,20.479,0.082,0.624,0.054,-2.920,-91.069,5.441
13:57:26:428,20.498,-0.184,1.189,-0.524,-10.706,-90.064,-3.161
13:57:26:483,20.553,-0.177,1.327,-1.173,-15.934,-88.438,-8.728
13:57:26:51,20.580,-1.327,0.363,-1.033,-22.612,-87.375,-15.591
13:57:26:51,20.581,-0.977,-0.450,-2.211,-27.289,-86.561,-19.995
13:57:26:563,20.634,-1.226,-0.874,-1.612,-28.207,-87.488,-19.420
13:57:26:565,20.635,-0.547,0.314,0.153,-25.976,-87.966,-14.982
13:57:26:615,20.686,-1.024,1.218,3.505,-24.384,-87.201,-12.418
13:57:26:615,20.686,-1.104,0.008,-0.871,-21.952,-85.493,-12.028
13:57:26:67,20.741,-0.740,-0.115,-1.064,-20.233,-80.883,-11.283
13:57:26:693,20.763,0.131,0.384,0.194,-19.756,-75.847,-8.891
13:57:26:743,20.814,0.333,-0.320,-0.978,-19.052,-70.006,-8.037
13:57:26:775,20.846,-0.176,-0.082,-0.663,-18.300,-69.680,-7.050
13:57:26:776,20.846,-0.189,0.025,0.062,-17.024,-74.485,-4.746
13:57:26:776,20.847,-0.106,-0.050,0.556,-16.422,-76.882,-3.619
13:57:26:828,20.899,0.136,-0.049,0.065,-16.277,-74.420,-2.971
13:57:26:829,20.900,0.231,0.055,-0.521,-16.057,-70.420,-2.650
13:57:26:848,20.919,0.179,0.053,-0.382,-15.632,-70.757,-1.939
13:57:26:874,20.945,-0.067,-0.005,0.153,-14.621,-73.627,-0.538
13:57:26:902,20.972,-0.021,-0.045,0.097,-14.032,-74.878,0.393
13:57:26:927,20.997,0.105,0.011,-0.089,-13.161,-75.937,1.830
13:57:26:953,21.024,0.101,0.000,-0.063,-12.430,-76.810,2.776
13:57:26:98,21.051,0.067,-0.016,0.122,-11.178,-78.785,4.195
13:57:27:006,21.077,0.012,-0.018,0.066,-9.863,-80.017,5.665
13:57:27:032,21.103,0.039,-0.010,0.022,-8.964,-80.082,6.729
13:57:27:058,21.129,0.048,0.006,-0.037,-7.530,-80.392,8.410
13:57:27:084,21.155,0.008,0.046,-0.047,-6.524,-80.594,9.518
13:57:27:111,21.181,0.033,0.065,-0.049,-4.898,-81.559,11.049
13:57:27:138,21.208,0.029,0.058,0.019,-3.125,-82.049,12.428
13:57:27:164,21.235,0.057,0.113,0.129,-1.789,-82.310,13.373
13:57:27:189,21.260,0.067,0.219,0.169,0.449,-82.344,15.080
13:57:27:217,21.288,0.138,0.267,0.126,2.093,-82.349,16.409
13:57:27:242,21.313,0.369,0.377,0.180,5.000,-82.165,18.554
13:57:27:269,21.340,0.533,0.318,0.348,7.337,-82.218,19.996
13:57:27:296,21.366,0.485,0.339,0.681,11.379,-82.593,22.353
13:57:27:322,21.392,0.716,0.109,0.922,16.126,-83.212,25.082
13:57:27:376,21.447,0.797,-0.071,0.727,19.715,-83.496,27.014
13:57:27:377,21.447,0.864,0.158,0.259,25.376,-82.356,31.041
13:57:27:401,21.472,0.551,-0.022,-0.044,28.784,-80.291,34.433
13:57:27:484,21.554,0.549,-0.158,-0.121,32.351,-77.069,38.946
13:57:27:484,21.555,0.161,-0.649,0.263,34.894,-75.208,41.536
13:57:27:485,21.556,0.235,-0.629,-0.265,36.390,-75.075,41.487
13:57:27:507,21.577,0.293,-1.092,0.073,36.462,-74.283,40.933
13:57:27:532,21.602,0.142,-0.771,-0.040,35.268,-73.987,39.308
13:57:27:556,21.627,0.181,-0.665,-0.072,32.105,-73.214,35.606
13:57:27:583,21.654,0.345,-0.672,-0.166,29.202,-72.340,32.346
13:57:27:61,21.681,0.388,-0.557,-0.171,24.126,-70.547,26.352
13:57:27:667,21.737,0.373,-0.273,-0.417,18.678,-68.309,19.581
13:57:27:668,21.738,0.470,-0.066,-0.223,14.983,-66.962,14.797
13:57:27:688,21.759,0.458,0.253,-0.301,9.011,-63.778,7.999
13:57:27:716,21.786,0.341,0.517,-0.389,4.483,-59.916,3.667
13:57:27:769,21.840,-0.205,0.939,-0.955,-2.305,-52.313,-3.273
13:57:27:77,21.841,-0.632,0.919,-1.032,-8.323,-45.626,-10.450
13:57:27:793,21.864,-1.485,0.252,-1.045,-12.056,-42.399,-14.700
13:57:27:819,21.890,-1.647,-0.234,-0.799,-16.856,-39.567,-19.297
13:57:27:846,21.916,-1.562,-0.473,-0.388,-19.112,-38.920,-20.686
13:57:27:874,21.944,-1.036,-0.076,-0.150,-20.152,-39.674,-18.902
13:57:27:905,21.975,2.278,0.806,2.104,-18.731,-39.316,-14.912
13:57:27:924,21.994,-0.466,0.169,1.310,-17.279,-37.104,-14.243
13:57:27:95,22.021,-0.754,0.022,-0.080,-14.411,-31.299,-12.722
13:57:27:978,22.048,-0.661,0.586,0.155,-13.551,-27.834,-11.069
13:57:28:003,22.074,0.104,-0.270,-1.257,-13.532,-22.965,-7.650
13:57:28:03,22.100,-0.586,-0.183,-0.314,-13.246,-19.516,-6.553
13:57:28:058,22.129,-0.288,-0.127,-0.080,-12.315,-20.112,-4.500
13:57:28:087,22.158,0.297,0.258,0.521,-11.729,-23.886,-2.648
13:57:28:137,22.208,0.337,-0.109,0.152,-11.592,-23.631,-1.842
13:57:28:138,22.209,-0.077,-0.119,-0.371,-11.715,-18.924,-1.231
13:57:28:161,22.232,-0.272,0.071,-0.174,-11.785,-16.228,-0.835
13:57:28:188,22.259,-0.117,0.093,0.077,-11.418,-15.754,0.002
13:57:28:214,22.284,0.159,-0.030,0.069,-10.993,-16.747,0.646
13:57:28:239,22.310,0.170,-0.075,-0.035,-10.536,-17.897,1.765
13:57:28:265,22.336,0.015,0.026,-0.141,-10.051,-18.281,3.159
13:57:28:292,22.362,0.083,-0.005,-0.002,-9.508,-19.017,4.192
13:57:28:318,22.389,0.152,-0.010,0.052,-8.575,-20.251,5.826
13:57:28:346,22.417,0.094,-0.017,-0.033,-7.948,-20.511,6.970
13:57:28:372,22.442,-0.006,0.000,-0.071,-6.953,-20.424,8.697
13:57:28:399,22.469,0.063,0.011,0.026,-5.715,-21.489,10.463
13:57:28:424,22.494,0.109,0.002,-0.004,-4.792,-21.683,11.662
13:57:28:451,22.522,0.000,0.055,-0.103,-3.275,-22.626,13.449
13:57:28:504,22.575,-0.021,0.076,-0.041,-2.159,-22.624,14.536
13:57:28:505,22.576,0.140,0.115,0.014,-0.198,-23.966,16.080
13:57:28:529,22.600,0.194,0.280,-0.024,1.276,-24.021,17.207
13:57:28:555,22.626,0.358,0.368,-0.114,3.959,-24.924,19.066
13:57:28:581,22.651,0.602,0.427,-0.202,7.445,-26.010,21.224
13:57:28:607,22.677,0.929,0.394,0.008,10.286,-26.245,22.970
13:57:28:633,22.703,1.149,0.325,0.003,15.106,-26.321,26.367
13:57:28:662,22.733,1.346,0.007,-0.344,18.479,-25.702,29.130
13:57:28:663,22.733,0.733,0.275,-0.501,24.427,-24.906,33.246
13:57:28:687,22.758,0.535,-0.153,-0.430,30.399,-22.491,38.404
13:57:28:712,22.783,0.297,-0.114,-0.501,33.058,-21.167,41.506
13:57:28:739,22.810,0.389,-0.730,-0.311,35.737,-18.981,44.764
13:57:28:765,22.835,0.000,-0.680,-0.064,37.221,-18.906,44.984
13:57:28:821,22.891,0.247,-0.974,-0.152,37.669,-18.914,44.438
13:57:28:821,22.891,0.180,-0.964,0.038,35.143,-19.549,41.671
13:57:28:873,22.944,0.084,-0.750,-0.028,32.255,-20.101,39.063
13:57:28:873,22.944,0.091,-0.740,-0.154,26.697,-21.255,34.154
13:57:28:896,22.967,0.132,-0.565,-0.107,22.375,-22.279,30.236
13:57:28:923,22.994,0.129,-0.414,-0.130,15.283,-23.825,23.730
13:57:28:949,23.020,0.247,-0.014,-0.019,10.500,-24.993,19.012
13:57:28:974,23.045,0.175,0.256,0.079,3.610,-26.460,11.880
13:57:29:001,23.071,-0.156,0.633,0.186,-3.486,-25.417,5.093
13:57:29:027,23.097,-0.615,0.886,0.178,-8.142,-22.693,0.627
13:57:29:053,23.123,-1.270,0.838,0.074,-14.011,-16.832,-6.505
13:57:29:108,23.179,-1.728,0.194,0.134,-16.873,-13.103,-10.836
13:57:29:109,23.180,-1.877,0.054,0.051,-18.980,-8.033,-15.280
13:57:29:132,23.202,-0.820,0.140,0.712,-19.660,-4.286,-15.758
13:57:29:158,23.229,0.691,0.800,1.170,-18.753,-2.206,-14.969
13:57:29:186,23.257,-0.563,-0.082,0.674,-16.450,0.711,-13.485
13:57:29:268,23.339,-0.272,0.034,0.426,-15.640,1.792,-11.699
13:57:29:269,23.340,-0.139,0.106,-0.659,-15.567,3.379,-8.671
13:57:29:27,23.341,-0.613,-0.172,-0.409,-15.634,6.170,-7.059
13:57:29:289,23.360,-0.456,-0.026,0.071,-15.211,7.096,-5.017
13:57:29:318,23.388,0.112,-0.009,0.398,-14.535,2.607,-2.797
13:57:29:343,23.413,0.437,0.013,0.174,-14.341,0.853,-1.755
13:57:29:427,23.497,-0.061,0.008,-0.166,-14.756,3.310,-1.107
13:57:29:428,23.498,-0.322,-0.013,-0.256,-14.965,5.871,-0.987
13:57:29:428,23.499,-0.110,0.049,-0.235,-14.736,6.192,-0.371
13:57:29:537,23.608,0.266,-0.051,0.074,-14.170,3.918,0.841
13:57:29:538,23.608,0.065,0.026,0.016,-13.784,3.027,1.845
13:57:29:538,23.608,0.024,0.024,-0.044,-13.106,1.847,3.653
13:57:29:538,23.608,0.100,-0.037,-0.083,-12.521,1.814,4.930
13:57:29:692,23.763,0.184,-0.027,-0.018,-11.481,0.642,6.845
13:57:29:693,23.763,0.026,-0.001,0.019,-10.773,1.407,8.106
13:57:29:694,23.764,-0.005,0.003,0.000,-9.735,1.734,10.026
13:57:29:745,23.815,-0.042,0.070,0.105,-7.917,2.683,13.340
13:57:29:745,23.816,-0.021,0.044,0.076,-6.860,3.543,15.263
13:57:29:746,23.816,0.064,0.017,-0.040,-6.045,3.244,16.435
13:57:29:762,23.832,0.109,0.170,-0.005,-3.140,3.005,19.954
13:57:29:815,23.886,0.128,0.137,-0.078,-1.979,3.456,21.093
13:57:29:848,23.918,0.161,0.179,-0.119,0.004,3.128,22.828
13:57:29:848,23.918,0.286,0.226,-0.223,1.557,3.242,24.063
13:57:29:868,23.938,0.445,0.356,-0.292,4.305,2.674,26.149
13:57:29:893,23.964,0.880,0.300,-0.442,7.828,2.194,28.560
13:57:29:973,24.043,1.144,0.301,-0.488,10.706,1.688,30.476
13:57:30:006,24.077,1.141,-0.038,-0.465,15.877,1.273,33.879
13:57:30:007,24.078,0.271,0.632,-0.624,19.811,1.541,36.672
13:57:30:007,24.078,0.516,-0.031,-0.740,25.515,3.995,42.320
13:57:30:054,24.124,0.050,0.178,-0.324,28.963,5.370,45.397
13:57:30:054,24.125,0.122,-0.719,-0.515,33.830,6.759,48.743
13:57:30:135,24.205,-0.322,-0.720,-0.457,37.470,6.457,49.144
13:57:30:136,24.206,0.133,-1.029,-0.086,38.812,5.469,48.634
13:57:30:137,24.207,0.198,-1.061,-0.022,37.111,4.406,46.530
13:57:30:155,24.226,0.075,-0.786,-0.008,34.098,3.722,43.980
13:57:30:215,24.286,0.003,-0.692,-0.151,28.021,3.075,39.060
13:57:30:216,24.287,0.041,-0.533,-0.212,21.113,2.564,32.874
13:57:30:236,24.307,0.009,-0.415,-0.327,16.443,2.306,28.294
13:57:30:267,24.338,0.102,-0.135,-0.323,9.791,1.864,20.885
13:57:30:288,24.358,-0.040,0.062,-0.328,5.397,1.755,15.806
13:57:30:313,24.383,-0.034,0.446,-0.168,-1.302,1.930,7.970
13:57:30:368,24.439,-0.296,0.997,-0.023,-5.989,2.816,2.691
13:57:30:369,24.440,-0.765,1.208,0.139,-13.315,5.296,-5.076
13:57:30:393,24.464,-0.661,0.473,1.328,-19.994,7.969,-11.961
13:57:30:447,24.518,-1.275,0.352,1.004,-23.148,10.084,-15.784
13:57:30:448,24.519,-1.558,-0.811,1.296,-25.184,12.495,-18.030
13:57:30:471,24.542,0.326,0.479,0.370,-24.146,12.941,-15.824
13:57:30:555,24.626,1.146,0.625,-0.099,-21.943,13.633,-11.545
13:57:30:556,24.627,-0.486,-0.343,1.148,-19.341,14.128,-10.028
13:57:30:557,24.627,-0.154,0.121,0.508,-17.891,17.435,-8.259
13:57:30:575,24.646,-0.010,0.302,0.283,-17.009,21.937,-5.559
13:57:30:602,24.672,-0.923,-0.113,-0.294,-16.864,25.944,-3.874
13:57:30:629,24.699,-0.484,-0.126,0.100,-16.398,29.631,-2.124
13:57:30:655,24.725,-0.037,0.079,0.352,-15.095,26.296,0.472
13:57:30:742,24.813,0.402,0.017,0.162,-14.229,23.080,2.124
13:57:30:743,24.814,0.463,-0.152,-0.166,-13.921,22.315,3.787
13:57:30:744,24.815,-0.051,-0.023,-0.244,-14.181,24.529,4.585
13:57:30:787,24.858,-0.141,-0.039,-0.001,-12.969,25.798,6.913
13:57:30:841,24.911,0.298,-0.035,0.085,-11.645,24.222,8.170
13:57:30:842,24.912,0.041,-0.035,0.075,-11.129,24.459,9.095
13:57:30:867,24.937,-0.052,0.010,0.033,-10.916,24.650,9.592
13:57:30:868,24.938,0.080,0.012,-0.059,-10.493,24.579,10.344
13:57:30:919,24.990,0.177,-0.047,-0.127,-10.156,24.108,10.910
13:57:30:92,24.991,0.092,-0.014,-0.168,-9.532,24.003,12.007
13:57:30:943,25.014,0.082,0.009,-0.041,-8.661,24.166,13.407
13:57:30:969,25.040,0.025,0.009,0.006,-7.976,24.633,14.396
13:57:30:996,25.066,0.021,0.021,0.016,-6.865,24.552,15.858
13:57:31:023,25.094,0.083,0.019,-0.106,-5.967,24.356,16.843
13:57:31:048,25.119,0.042,0.066,-0.096,-4.389,23.768,18.432
13:57:31:105,25.176,0.050,0.088,-0.106,-3.193,23.627,19.550
13:57:31:106,25.177,0.090,0.231,-0.119,-1.050,23.134,21.299
13:57:31:132,25.203,0.285,0.301,-0.182,1.637,22.479,23.060
13:57:31:153,25.224,0.376,0.336,-0.261,3.692,22.003,24.305
13:57:31:179,25.250,0.541,0.388,-0.416,7.065,21.564,26.504
13:57:31:207,25.277,0.801,0.363,-0.848,9.617,21.365,28.318
13:57:31:232,25.303,0.841,0.201,-1.024,14.217,21.066,31.655
13:57:31:262,25.332,0.483,0.119,-0.856,20.431,20.237,35.269
13:57:31:285,25.356,-0.023,0.256,-0.811,24.891,20.450,38.055
13:57:31:31,25.381,-0.011,-0.123,-0.516,29.313,23.548,43.178
13:57:31:338,25.409,-0.094,-0.357,-0.381,30.684,25.803,46.065
13:57:31:364,25.434,0.190,-0.521,0.011,32.093,27.992,48.674
13:57:31:42,25.490,-0.338,-0.520,-0.045,33.521,27.630,48.435
13:57:31:421,25.491,-0.021,-1.052,-0.316,34.216,27.500,47.713
13:57:31:442,25.513,0.016,-0.920,-0.116,32.421,27.014,45.135
13:57:31:498,25.568,0.043,-0.802,-0.075,30.135,26.536,42.473
13:57:31:498,25.569,-0.181,-0.627,-0.129,25.206,25.962,37.487
13:57:31:549,25.620,-0.109,-0.554,-0.163,21.429,25.346,33.437
13:57:31:55,25.621,0.004,-0.414,-0.252,15.589,24.043,26.646
13:57:31:601,25.672,0.193,-0.116,-0.276,11.493,23.372,21.889
13:57:31:629,25.699,0.212,0.100,-0.245,5.117,23.108,14.719
13:57:31:629,25.700,0.181,0.573,-0.072,-1.810,25.293,7.575
13:57:31:652,25.722,-0.070,1.199,0.304,-6.616,28.670,2.531
13:57:31:678,25.748,-0.595,1.181,0.484,-13.021,36.524,-5.596
13:57:31:762,25.833,-0.749,0.509,1.648,-16.288,43.606,-11.031
13:57:31:763,25.834,-1.512,0.040,2.052,-18.946,52.802,-17.535
13:57:31:764,25.835,-0.100,-0.217,1.298,-19.887,56.439,-18.883
13:57:31:784,25.855,1.893,1.385,-2.619,-19.003,56.789,-16.732
13:57:31:839,25.909,0.236,0.003,1.179,-17.033,56.679,-14.810
13:57:31:839,25.910,0.456,0.177,0.589,-15.416,57.123,-12.295
13:57:31:862,25.932,-0.108,-0.147,0.116,-14.188,55.381,-8.403
13:57:31:889,25.959,-0.229,-0.203,-0.233,-13.848,57.552,-5.615
13:57:31:915,25.986,-0.181,-0.073,0.300,-13.742,60.445,-4.251
13:57:31:94,26.011,0.170,0.138,0.376,-13.374,62.269,-2.534
13:57:31:967,26.038,0.243,-0.054,-0.209,-12.893,60.830,-1.280
13:57:31:993,26.064,0.261,-0.135,-0.274,-12.515,59.618,0.402
13:57:32:02,26.090,-0.153,0.055,0.026,-12.681,61.727,1.155
13:57:32:046,26.116,-0.155,0.097,0.272,-12.706,64.864,2.025
13:57:32:073,26.144,-0.053,0.050,0.054,-11.957,64.820,3.003
13:57:32:098,26.169,0.108,-0.038,-0.142,-11.264,64.098,3.723
13:57:32:128,26.199,0.148,-0.109,-0.042,-10.606,64.356,4.754
13:57:32:181,26.252,0.103,0.063,0.202,-10.463,65.332,5.381
13:57:32:181,26.252,0.053,0.057,0.124,-10.288,66.016,6.154
13:57:32:203,26.274,0.014,-0.017,-0.053,-9.940,65.671,6.907
13:57:32:231,26.301,0.065,-0.009,-0.072,-9.720,65.563,7.389
13:57:32:256,26.327,0.063,-0.022,-0.094,-9.354,65.645,8.194
13:57:32:282,26.352,0.024,-0.010,-0.042,-9.072,65.828,8.807
13:57:32:367,26.437,0.008,0.029,-0.005,-8.567,67.254,9.815
13:57:32:367,26.438,0.016,0.008,-0.115,-7.877,68.035,10.851
13:57:32:368,26.439,-0.027,-0.017,-0.157,-7.193,67.815,11.597
13:57:32:388,26.459,-0.033,0.019,-0.173,-5.728,68.719,13.147
13:57:32:414,26.484,-0.017,0.167,-0.113,-4.387,68.612,14.431
13:57:32:47,26.541,0.060,0.304,-0.068,-1.889,69.387,16.404
13:57:32:471,26.541,0.027,0.391,-0.477,0.106,69.398,17.596
13:57:32:492,26.563,-0.039,0.443,-0.526,3.510,70.198,19.595
13:57:32:547,26.618,-0.036,0.398,-0.860,7.466,70.627,22.303
13:57:32:548,26.619,-0.077,0.330,-1.090,10.476,71.876,24.579
13:57:32:571,26.642,-0.235,0.126,-1.266,15.537,73.442,28.649
13:57:32:652,26.723,-0.510,0.293,-0.606,19.201,74.987,31.584
13:57:32:704,26.775,-0.463,0.024,-0.573,24.291,78.703,37.137
13:57:32:737,26.807,-0.578,-0.181,-0.092,27.811,83.172,42.227
13:57:32:738,26.808,-0.343,-0.512,-0.236,29.525,84.880,44.669
13:57:32:738,26.809,-0.241,-0.319,0.090,31.578,86.443,45.569
13:57:32:739,26.810,-0.370,-1.043,-0.160,31.966,86.947,45.563
13:57:32:755,26.826,-0.141,-0.933,-0.109,29.918,87.146,43.722
13:57:32:811,26.882,-0.110,-0.712,0.035,26.046,86.555,40.028
13:57:32:811,26.882,-0.170,-0.673,0.051,22.844,85.660,36.634
13:57:32:949,27.019,-0.153,-0.624,-0.145,17.434,83.663,30.390
13:57:32:949,27.019,-0.107,-0.445,-0.303,13.388,82.326,25.863
13:57:32:949,27.020,-0.069,-0.291,-0.418,6.810,80.912,18.807
13:57:32:95,27.020,-0.029,0.173,-0.417,1.977,80.965,13.969
13:57:32:966,27.037,0.092,0.802,-0.188,-5.857,83.340,6.068
13:57:32:992,27.062,0.191,1.477,0.615,-13.587,89.643,-2.737
13:57:33:018,27.088,0.931,1.473,0.935,-17.745,95.578,-9.024
13:57:33:078,27.149,0.888,0.625,1.941,-21.365,103.189,-16.990
13:57:33:079,27.150,0.557,-1.014,2.171,-22.809,105.185,-20.284
13:57:33:079,27.150,0.595,-0.316,0.782,-23.109,104.804,-18.908
13:57:33:08,27.151,0.462,1.004,-2.002,-21.368,104.338,-14.818
13:57:33:151,27.221,1.018,-0.186,0.255,-19.945,102.524,-13.261
13:57:33:152,27.222,0.318,-0.128,0.888,-17.923,103.256,-9.939
13:57:33:178,27.249,0.379,0.286,-0.386,-17.627,105.989,-7.837
13:57:33:178,27.249,-0.463,-0.163,0.548,-17.335,110.633,-4.087
13:57:33:23,27.300,0.467,-0.141,0.259,-16.489,113.318,-2.324
13:57:33:231,27.301,0.204,0.009,0.071,-15.703,111.133,-0.520
13:57:33:254,27.324,0.166,-0.095,-0.474,-14.911,107.606,1.991
13:57:33:309,27.379,-0.058,-0.050,-0.229,-14.798,107.645,3.034
13:57:33:309,27.380,0.093,0.079,0.388,-15.113,110.520,4.069
13:57:33:332,27.402,0.119,0.020,0.031,-14.989,111.327,4.522
13:57:33:388,27.459,0.111,-0.016,-0.304,-14.510,109.663,5.356
13:57:33:388,27.459,0.010,-0.049,0.003,-14.322,109.146,5.981
13:57:33:411,27.482,0.006,0.013,0.019,-14.238,109.148,6.397
13:57:33:437,27.508,-0.034,-0.026,-0.135,-13.734,108.350,7.288
13:57:33:463,27.534,0.025,0.032,-0.090,-13.280,107.910,8.050
13:57:33:489,27.560,0.014,0.005,-0.056,-12.460,107.536,9.348
13:57:33:576,27.647,0.056,0.002,-0.054,-11.446,107.105,10.792
13:57:33:576,27.647,0.064,-0.005,-0.024,-10.703,106.850,11.796
13:57:33:576,27.647,0.107,0.020,-0.041,-9.516,106.434,13.305
13:57:33:594,27.665,0.082,0.115,0.033,-8.741,106.175,14.280
13:57:33:622,27.693,0.041,0.112,-0.048,-7.572,105.650,15.565
13:57:33:705,27.775,-0.102,0.129,-0.170,-6.659,105.077,16.335
13:57:33:706,27.776,-0.143,0.189,-0.165,-4.965,104.503,17.561
13:57:33:708,27.778,-0.171,0.275,-0.259,-2.811,104.214,19.190
13:57:33:727,27.797,-0.270,0.430,-0.428,-0.951,103.933,20.588
13:57:33:809,27.880,-0.375,0.401,-0.577,2.513,103.796,23.066
13:57:33:81,27.881,-0.694,0.340,-0.713,5.400,103.693,25.063
13:57:33:897,27.967,-0.929,0.136,-0.961,10.195,103.718,28.821
13:57:33:897,27.968,-0.698,0.522,-0.191,13.909,103.498,31.663
13:57:33:897,27.968,-0.881,0.237,-0.450,19.965,103.937,36.699
13:57:33:912,27.982,-0.452,-0.136,-0.087,24.578,106.339,41.990
13:57:33:97,28.041,-0.295,-0.475,0.037,26.469,108.042,44.896
13:57:33:97,28.041,0.151,-0.111,0.093,28.623,108.154,46.041
13:57:33:97,28.041,0.058,-0.757,0.082,30.312,106.949,45.659
13:57:34:017,28.088,-0.220,-1.119,-0.008,30.235,105.042,43.783
13:57:34:018,28.089,-0.015,-0.945,-0.073,27.642,102.223,39.763
13:57:34:042,28.112,-0.010,-0.813,0.019,24.643,100.321,36.449
13:57:34:068,28.139,-0.146,-0.666,-0.002,18.871,97.086,30.748
13:57:34:093,28.164,-0.110,-0.500,-0.182,14.533,94.775,26.660
13:57:34:121,28.192,-0.029,-0.223,-0.353,7.375,92.053,20.546
13:57:34:145,28.216,0.097,0.028,-0.152,-0.215,90.856,14.340
13:57:34:173,28.244,0.177,0.357,-0.124,-5.587,91.205,9.977
13:57:34:2,28.270,0.323,0.805,0.307,-13.782,93.742,2.789
13:57:34:225,28.296,0.737,1.134,1.093,-18.976,96.327,-2.341
13:57:34:251,28.321,1.838,0.992,1.006,-25.856,99.203,-9.498
13:57:34:277,28.347,1.044,-0.113,1.562,-29.860,99.806,-14.456
13:57:34:303,28.374,1.463,-0.464,1.365,-31.460,100.560,-15.629
13:57:34:362,28.433,0.430,0.309,-0.455,-30.476,102.304,-13.615
13:57:34:365,28.435,-0.948,1.198,-2.986,-28.858,105.010,-12.382
13:57:34:382,28.452,0.803,-0.240,-0.044,-25.969,108.457,-12.094
13:57:34:439,28.509,0.795,-0.014,0.462,-24.233,112.949,-11.758
13:57:34:44,28.511,0.511,0.410,-0.055,-23.416,118.360,-9.479
13:57:34:515,28.586,-0.167,-0.167,1.025,-22.581,122.803,-7.588
13:57:34:544,28.614,0.408,-0.052,0.352,-22.006,122.344,-5.767
13:57:34:544,28.615,0.371,-0.031,-0.240,-20.606,117.516,-2.664
13:57:34:697,28.768,0.202,-0.018,-0.443,-20.007,115.228,-1.266
13:57:34:777,28.847,-0.014,-0.081,-0.236,-19.950,116.845,-0.425
13:57:34:866,28.937,0.002,0.042,0.461,-20.001,120.609,-0.234
13:57:34:866,28.937,0.171,0.046,0.278,-19.659,121.099,0.289
13:57:34:866,28.937,0.134,0.020,-0.118,-18.793,119.224,1.438
13:57:34:866,28.937,0.039,-0.077,-0.238,-18.337,117.995,2.273
13:57:34:891,28.962,0.030,-0.017,0.043,-17.931,117.694,3.345
13:57:34:891,28.962,0.022,-0.003,0.005,-17.586,117.343,4.100
13:57:34:892,28.963,-0.033,-0.033,-0.181,-16.759,115.672,5.533
13:57:34:893,28.964,-0.011,-0.014,-0.120,-15.831,114.923,7.032
13:57:34:943,29.014,0.039,-0.004,-0.005,-15.202,114.080,8.066
13:57:34:944,29.015,0.078,0.002,-0.028,-14.123,114.050,9.726
13:57:34:945,29.015,0.085,0.038,-0.005,-13.339,113.108,10.843
13:57:34:946,29.016,0.046,0.040,-0.003,-12.064,112.742,12.500
13:57:34:996,29.066,0.001,0.044,-0.039,-10.581,111.634,14.125
13:57:34:996,29.066,-0.044,0.070,-0.078,-9.394,111.253,15.262
13:57:34:996,29.067,-0.076,0.264,-0.131,-7.235,109.994,17.216
13:57:34:997,29.067,-0.184,0.458,-0.285,-5.428,109.548,18.723
13:57:35:012,29.082,-0.374,0.462,-0.411,-2.119,108.614,21.311
13:57:35:038,29.109,-0.444,0.460,-0.688,0.472,108.291,23.327
13:57:35:064,29.135,-0.607,0.451,-0.702,4.949,107.660,27.148
13:57:35:09,29.161,-0.973,0.099,-0.653,9.781,106.831,31.499
13:57:35:146,29.217,-0.515,0.451,-0.318,13.912,105.645,34.144
13:57:35:147,29.217,-0.623,0.157,-0.327,20.898,104.846,38.657
13:57:35:171,29.242,-0.421,-0.301,0.028,24.597,105.002,41.364
13:57:35:197,29.267,-0.350,-0.886,-0.092,28.524,104.666,44.002
13:57:35:223,29.293,0.004,-0.692,0.228,31.285,102.097,43.718
13:57:35:327,29.398,-0.109,-1.096,-0.180,31.791,100.572,43.190
13:57:35:417,29.488,0.021,-1.014,-0.241,29.455,98.273,40.715
13:57:35:417,29.488,0.025,-0.797,-0.123,26.444,97.047,38.542
13:57:35:417,29.488,-0.136,-0.669,-0.124,20.495,95.270,34.407
13:57:35:417,29.488,-0.108,-0.582,-0.272,13.681,93.299,29.233
13:57:35:485,29.556,-0.035,-0.397,-0.328,8.789,92.351,25.435
13:57:35:52,29.591,-0.060,0.071,-0.153,1.383,91.610,19.185
13:57:35:521,29.592,0.009,0.287,-0.224,-3.535,91.472,14.588
13:57:35:523,29.593,0.164,0.678,-0.147,-10.781,92.700,7.256
13:57:35:523,29.593,0.380,1.129,0.362,-15.527,94.926,1.967
13:57:35:543,29.613,0.833,0.957,0.827,-22.103,99.816,-6.479
13:57:35:543,29.614,1.028,0.194,1.249,-27.653,103.354,-14.044
13:57:35:546,29.616,1.213,-0.134,1.801,-30.851,103.948,-17.376
13:57:35:563,29.634,1.055,-0.655,0.979,-33.527,102.577,-17.906
13:57:35:647,29.718,0.492,0.123,0.621,-32.638,101.607,-15.438
13:57:35:649,29.719,-0.294,0.578,-1.103,-30.553,99.593,-10.051
13:57:35:649,29.720,1.858,-0.392,0.669,-28.796,97.958,-7.673
13:57:35:668,29.739,0.816,0.055,0.374,-27.244,101.211,-7.364
13:57:35:694,29.765,-0.328,0.227,0.031,-26.452,105.767,-6.020
13:57:35:721,29.791,-0.124,-0.107,0.893,-26.548,109.806,-5.256
13:57:35:776,29.847,0.394,-0.023,0.625,-25.797,113.239,-4.788
13:57:35:802,29.873,0.471,-0.036,-0.270,-24.766,110.415,-2.883
13:57:35:803,29.874,0.182,-0.182,-0.641,-23.678,104.962,0.136
13:57:35:828,29.898,-0.080,0.042,0.023,-24.154,106.877,0.767
13:57:35:854,29.924,-0.065,0.161,0.632,-24.244,109.654,0.433
13:57:35:911,29.981,0.071,0.012,-0.033,-23.465,107.109,1.890
13:57:35:934,30.004,0.069,-0.090,-0.308,-22.836,105.003,3.059
13:57:35:935,30.006,0.007,-0.026,-0.055,-22.022,103.832,4.581
13:57:35:957,30.028,0.005,0.026,-0.005,-20.975,102.489,6.392
13:57:35:983,30.054,0.060,-0.026,-0.137,-20.081,101.309,7.717
13:57:36:011,30.081,-0.007,-0.044,-0.105,-18.720,100.359,9.599
13:57:36:036,30.107,0.072,-0.030,-0.012,-17.864,100.226,10.760
13:57:36:063,30.133,0.116,-0.008,-0.011,-16.569,99.951,12.509
13:57:36:093,30.164,0.151,0.013,0.011,-15.763,99.785,13.599
13:57:36:115,30.186,0.179,0.025,0.041,-14.707,99.679,15.027
13:57:36:141,30.212,0.147,0.019,0.033,-13.704,99.319,16.263
13:57:36:167,30.238,0.022,0.053,-0.060,-12.988,98.869,17.026
13:57:36:223,30.294,-0.022,0.155,-0.066,-11.758,98.453,18.229
13:57:36:224,30.294,0.026,0.167,-0.200,-10.781,98.048,19.133
13:57:36:276,30.346,-0.007,0.174,-0.259,-8.801,97.179,20.699
13:57:36:277,30.348,-0.088,0.244,-0.364,-6.230,96.398,22.719
13:57:36:302,30.372,-0.250,0.397,-0.440,-4.134,96.184,24.375
13:57:36:327,30.398,-0.391,0.437,-0.652,-0.293,95.785,27.367
13:57:36:378,30.449,-0.464,0.401,-0.847,2.779,95.445,29.803
13:57:36:406,30.477,-0.609,0.627,-0.307,12.321,94.025,36.546
13:57:36:431,30.501,-0.721,0.136,-0.621,19.007,94.940,41.704
13:57:36:456,30.527,-0.367,0.004,-0.206,24.625,95.719,45.780
13:57:36:482,30.553,-0.553,-0.732,-0.228,27.697,95.918,47.691
13:57:36:536,30.606,-0.336,-0.440,0.216,31.069,94.700,47.862
13:57:36:565,30.636,-0.156,-1.120,-0.241,32.045,93.908,47.556
13:57:36:565,30.636,0.072,-1.049,-0.348,29.954,93.084,45.710
13:57:36:645,30.716,0.059,-0.816,-0.157,25.481,92.216,42.143
13:57:36:646,30.717,-0.036,-0.768,-0.072,21.501,91.654,38.950
13:57:36:646,30.717,-0.171,-0.712,-0.111,14.815,90.522,32.871
13:57:36:772,30.842,-0.181,-0.476,-0.196,10.191,89.581,28.171
13:57:36:798,30.868,-0.258,-0.009,-0.009,3.047,88.424,20.684
13:57:36:88,30.950,0.075,0.577,-0.247,-1.854,87.943,15.563
13:57:36:938,31.009,0.460,0.930,0.055,-8.849,86.619,7.451
13:57:36:939,31.009,0.999,1.075,0.564,-15.606,87.539,-0.029
13:57:36:94,31.010,1.485,0.702,0.957,-19.671,90.064,-4.892
13:57:36:94,31.011,1.121,-0.053,1.488,-23.623,96.646,-11.957
13:57:36:982,31.053,1.034,-0.212,1.918,-24.836,101.697,-15.399
13:57:37:097,31.167,0.912,0.190,0.573,-24.637,106.330,-16.503
13:57:37:097,31.167,1.066,-0.022,0.412,-22.947,107.298,-14.870
13:57:37:097,31.167,0.549,-0.090,0.369,-21.554,107.336,-13.365
13:57:37:097,31.168,0.261,0.168,0.082,-20.695,107.128,-10.197
13:57:37:142,31.213,-0.419,-0.208,0.238,-20.468,108.751,-8.032
13:57:37:201,31.272,0.300,-0.092,0.563,-19.883,113.124,-6.429
13:57:37:201,31.272,0.372,0.112,0.236,-19.073,112.868,-4.010
13:57:37:201,31.272,0.260,0.017,-0.161,-18.552,110.488,-2.166
13:57:37:202,31.273,0.047,-0.104,-0.274,-18.032,109.215,-0.295
13:57:37:219,31.290,0.047,-0.040,-0.054,-18.010,110.801,0.397
13:57:37:252,31.322,0.033,0.068,0.305,-17.886,113.176,1.401
13:57:37:252,31.323,0.140,-0.013,-0.012,-17.448,112.786,2.398
13:57:37:252,31.323,0.074,-0.033,-0.204,-16.544,110.908,3.909
13:57:37:298,31.369,0.047,-0.068,-0.121,-15.810,109.956,5.288
13:57:37:323,31.394,0.001,-0.015,0.033,-15.444,109.893,6.187
13:57:37:349,31.420,0.119,0.006,0.033,-14.812,109.781,7.473
13:57:37:41,31.481,0.092,-0.009,-0.132,-14.337,109.488,8.272
13:57:37:411,31.482,0.047,-0.014,-0.105,-13.674,109.105,9.493
13:57:37:412,31.482,0.088,0.002,0.000,-13.086,109.154,10.745
13:57:37:413,31.483,0.116,0.002,-0.036,-12.661,109.079,11.612
13:57:37:462,31.532,0.119,0.027,-0.036,-11.916,108.796,12.922
13:57:37:463,31.533,0.032,0.031,-0.048,-11.393,108.482,13.816
13:57:37:463,31.534,-0.017,0.080,-0.031,-10.421,108.108,15.214
13:57:37:464,31.535,-0.024,0.181,-0.050,-9.603,107.817,16.191
13:57:37:537,31.608,-0.013,0.212,-0.089,-7.984,107.301,17.824
13:57:37:537,31.608,-0.050,0.246,-0.230,-5.775,106.426,19.618
13:57:37:559,31.630,-0.176,0.339,-0.273,-4.016,105.920,20.921
13:57:37:587,31.658,-0.371,0.435,-0.468,-0.968,105.329,23.155
13:57:37:611,31.681,-0.550,0.468,-0.671,1.444,104.965,24.974
13:57:37:778,31.849,-0.938,0.321,-1.110,5.617,104.429,28.554
13:57:37:779,31.850,-0.837,0.199,-0.592,10.840,103.974,32.900
13:57:37:78,31.851,-0.729,0.501,-0.283,14.624,104.276,36.167
13:57:37:781,31.851,-0.387,0.035,-0.236,19.746,106.107,41.532
13:57:37:798,31.869,-0.415,-0.419,-0.141,22.544,107.423,44.530
13:57:37:849,31.920,0.165,-0.422,-0.349,25.377,107.918,46.331
13:57:37:882,31.953,-0.010,-1.026,-0.080,27.467,107.126,46.084
13:57:37:883,31.954,-0.155,-1.168,-0.195,27.371,106.660,44.808
13:57:37:884,31.955,0.045,-0.939,-0.069,24.501,106.162,41.555
13:57:37:886,31.956,0.056,-0.844,-0.066,21.346,105.989,38.592
13:57:37:931,32.002,-0.074,-0.646,0.077,15.820,105.585,32.902
13:57:37:932,32.003,-0.015,-0.550,-0.027,12.083,104.889,28.361
13:57:37:933,32.004,0.031,-0.342,-0.093,6.331,104.046,21.179
13:57:37:98,32.050,-0.093,-0.164,-0.230,0.389,104.067,13.901
13:57:38:006,32.076,0.019,0.147,-0.195,-3.633,104.268,8.610
13:57:38:033,32.103,0.301,0.575,-0.051,-9.755,105.953,-0.030
13:57:38:112,32.183,0.487,1.295,0.556,-13.992,109.029,-6.121
13:57:38:173,32.244,1.138,1.189,1.107,-19.635,116.750,-15.297
13:57:38:174,32.244,1.701,0.381,1.267,-22.196,122.387,-20.552
13:57:38:174,32.244,1.306,-0.408,1.569,-25.570,127.588,-25.683
13:57:38:175,32.245,0.900,-0.398,0.526,-26.442,126.744,-24.855
13:57:38:22,32.291,-1.375,1.679,-2.657,-25.361,126.699,-22.494
13:57:38:221,32.292,1.368,-0.194,-0.312,-22.819,127.305,-20.695
13:57:38:222,32.292,0.468,-0.151,0.530,-20.804,129.411,-18.888
13:57:38:268,32.338,0.936,0.255,0.139,-19.463,132.496,-15.795
13:57:38:296,32.367,-0.045,-0.146,0.604,-18.436,135.861,-12.039
13:57:38:297,32.368,0.149,-0.382,0.862,-17.799,137.844,-10.739
13:57:38:32,32.391,0.313,-0.084,0.180,-17.226,136.368,-8.045
13:57:38:401,32.472,0.251,0.074,-0.204,-16.828,134.393,-6.467
13:57:38:427,32.497,0.077,-0.070,-0.261,-16.423,133.255,-5.042
13:57:38:455,32.526,0.066,-0.101,-0.145,-16.505,134.693,-4.662
13:57:38:456,32.527,0.146,0.052,0.262,-16.789,138.131,-4.505
13:57:38:48,32.551,0.268,0.018,0.198,-16.738,139.646,-4.196
13:57:38:508,32.579,0.184,0.028,0.041,-16.602,138.688,-3.840
13:57:38:508,32.579,-0.047,-0.053,-0.187,-16.457,137.388,-3.348
13:57:38:529,32.600,-0.027,0.025,0.015,-16.374,137.350,-2.930
13:57:38:586,32.656,-0.002,0.036,0.084,-16.007,137.418,-1.857
13:57:38:586,32.657,0.002,-0.007,-0.077,-15.259,136.423,-0.280
13:57:38:608,32.679,0.011,-0.012,-0.079,-14.645,135.812,0.864
13:57:38:636,32.707,0.035,-0.011,-0.007,-13.587,135.564,2.647
13:57:38:748,32.819,0.059,-0.014,-0.037,-12.797,135.466,3.879
13:57:38:749,32.819,0.133,-0.019,0.007,-11.588,135.280,5.710
13:57:38:75,32.820,0.193,-0.004,0.042,-10.834,135.239,6.861
13:57:38:75,32.821,0.148,0.035,0.024,-9.702,134.810,8.426
13:57:38:767,32.837,0.078,0.042,0.002,-8.573,134.272,9.784
13:57:38:82,32.890,0.055,0.133,0.020,-7.792,133.834,10.623
13:57:38:934,33.004,-0.037,0.180,-0.007,-6.352,133.070,11.946
13:57:38:935,33.006,-0.173,0.405,-0.071,-5.077,132.363,12.917
13:57:38:936,33.007,-0.311,0.384,-0.124,-2.539,131.317,14.582
13:57:38:938,33.008,-0.534,0.482,-0.223,0.794,130.367,16.819
13:57:39:01,33.081,-0.665,0.508,-0.386,3.493,129.958,18.688
13:57:39:011,33.082,-1.087,0.313,-0.658,8.103,129.493,22.203
13:57:39:012,33.083,-0.677,0.307,0.000,11.388,129.830,24.891
13:57:39:013,33.084,-0.508,0.500,0.344,16.141,132.056,29.595
13:57:39:028,33.099,-0.368,0.123,0.314,19.876,135.957,35.105
13:57:39:055,33.126,-0.362,-0.330,0.222,21.838,138.188,38.115
13:57:39:083,33.154,-0.045,-0.299,-0.088,24.048,140.833,40.805
13:57:39:137,33.207,0.064,-0.555,0.421,25.650,141.420,41.036
13:57:39:137,33.208,-0.259,-1.005,0.185,26.100,143.373,40.994
13:57:39:188,33.259,-0.115,-0.833,0.159,24.415,145.293,39.004
13:57:39:241,33.312,-0.041,-0.728,0.197,22.358,146.575,36.866
13:57:39:271,33.342,0.015,-0.630,0.293,18.602,147.854,32.115
13:57:39:271,33.342,-0.029,-0.568,0.190,15.904,148.132,28.079
13:57:39:272,33.343,-0.155,-0.492,0.133,11.612,148.300,21.328
13:57:39:292,33.362,-0.255,-0.251,0.058,8.558,148.333,16.263
13:57:39:349,33.419,-0.196,0.013,0.100,3.602,148.798,8.164
13:57:39:349,33.419,0.019,0.594,0.114,-2.193,151.017,-0.202
13:57:39:397,33.467,0.488,1.221,0.280,-6.427,154.429,-5.890
13:57:39:451,33.522,1.016,1.244,0.661,-12.029,163.004,-14.444
13:57:39:482,33.552,2.632,0.399,0.084,-14.774,169.855,-19.890
13:57:39:482,33.553,2.072,-0.463,0.085,-18.505,176.249,-25.815
13:57:39:483,33.553,0.985,-0.349,-0.346,-21.280,175.672,-27.231
13:57:39:502,33.573,-0.274,0.396,-0.074,-20.933,174.550,-24.899
13:57:39:528,33.598,1.027,-0.188,-1.294,-19.049,174.384,-22.540
13:57:39:554,33.624,0.892,-0.024,-0.088,-17.327,174.370,-20.592
13:57:39:638,33.709,0.063,0.484,-0.757,-16.221,176.063,-16.504
13:57:39:638,33.709,-0.034,-0.273,0.542,-14.570,-179.610,-13.355
13:57:39:639,33.710,0.703,-0.471,0.464,-13.644,-175.959,-12.077
13:57:39:687,33.758,0.594,0.089,-0.240,-13.052,-176.578,-9.778
13:57:39:688,33.759,-0.180,0.104,-0.299,-12.856,-178.958,-8.402
13:57:39:712,33.782,-0.304,-0.087,-0.210,-12.716,179.888,-6.995
13:57:39:738,33.808,0.226,-0.031,0.182,-12.785,-176.573,-6.141
13:57:39:763,33.834,0.631,0.036,0.131,-12.664,-174.563,-5.684
13:57:39:791,33.861,0.196,0.020,-0.061,-12.340,-175.512,-5.056
13:57:39:818,33.889,-0.061,0.034,-0.041,-12.113,-177.110,-4.696
13:57:39:842,33.912,-0.273,-0.117,-0.060,-11.898,-177.651,-4.090
13:57:39:959,34.030,0.247,0.012,0.061,-11.755,-176.908,-3.581
13:57:39:961,34.032,0.244,0.021,0.014,-11.342,-176.760,-2.669
13:57:39:961,34.032,0.013,0.006,-0.025,-10.802,-177.735,-1.660
13:57:39:962,34.033,0.000,-0.032,-0.020,-10.383,-178.177,-0.978
13:57:39:977,34.047,0.069,-0.005,0.029,-9.697,-177.868,0.172
13:57:40:003,34.074,0.078,0.016,0.001,-9.173,-178.039,1.013
13:57:40:004,34.074,0.061,0.030,-0.005,-8.254,-177.968,2.328
13:57:40:027,34.098,0.090,0.037,-0.002,-7.213,-178.275,3.648
13:57:40:08,34.151,0.105,0.054,0.060,-6.399,-178.018,4.542
13:57:40:107,34.178,0.061,0.075,0.090,-4.826,-178.639,5.957
13:57:40:108,34.179,0.105,0.161,0.085,-3.543,-178.748,6.975
13:57:40:131,34.202,-0.047,0.280,-0.035,-1.311,179.959,8.565
13:57:40:187,34.258,-0.240,0.370,0.091,0.435,179.264,9.611
13:57:40:187,34.258,-0.263,0.409,0.205,3.475,178.255,11.424
13:57:40:21,34.280,-0.510,0.441,0.387,7.195,177.884,13.800
13:57:40:236,34.307,-0.811,0.429,0.438,10.041,177.713,15.769
13:57:40:262,34.333,-0.985,0.194,0.617,14.759,178.077,19.443
13:57:40:288,34.359,-0.118,0.320,0.695,18.213,179.069,22.348
13:57:40:316,34.387,-0.233,0.143,0.761,22.807,-177.373,28.009
13:57:40:341,34.412,0.188,-0.050,0.413,25.803,-172.911,33.812
13:57:40:482,34.553,0.035,-0.251,0.323,27.402,-170.223,36.846
13:57:40:483,34.554,0.029,-0.173,-0.004,29.739,-169.012,38.871
13:57:40:484,34.555,-0.057,-0.921,0.242,31.253,-168.045,39.282
13:57:40:484,34.555,0.028,-0.896,0.106,31.379,-167.641,38.814
13:57:40:502,34.573,0.093,-0.758,0.026,30.256,-167.493,37.561
13:57:40:502,34.573,0.188,-0.707,0.058,26.877,-167.061,34.722
13:57:40:524,34.595,0.197,-0.656,0.136,22.074,-166.736,30.590
13:57:40:553,34.623,0.135,-0.631,0.185,18.349,-166.569,27.231
13:57:40:578,34.648,-0.030,-0.457,0.262,12.565,-166.367,21.355
13:57:40:608,34.678,0.117,-0.209,0.215,8.780,-166.354,16.890
13:57:40:659,34.730,0.171,0.080,0.208,3.004,-166.887,9.516
13:57:40:66,34.730,0.131,0.547,0.120,-3.502,-167.577,1.786
13:57:40:798,34.868,0.399,0.838,-0.028,-8.420,-167.582,-3.422
13:57:40:799,34.869,0.502,1.637,-1.320,-16.669,-165.536,-10.901
13:57:40:8,34.870,0.440,-0.119,-1.402,-21.336,-164.584,-15.147
13:57:40:816,34.887,1.086,-0.641,-1.282,-28.548,-165.151,-21.503
13:57:40:817,34.888,-0.933,0.418,-0.131,-28.197,-164.438,-20.068
13:57:40:84,34.911,0.556,-0.200,-1.479,-25.698,-162.262,-18.707
13:57:40:867,34.938,0.011,-0.527,-0.338,-23.480,-159.780,-18.046
13:57:40:892,34.963,0.500,0.463,-0.265,-21.796,-155.248,-16.235
13:57:40:919,34.989,1.224,-0.307,0.087,-20.982,-150.922,-14.634
13:57:40:945,35.015,0.602,-0.131,-0.299,-19.394,-147.802,-13.385
13:57:41:,35.071,-0.119,0.047,-0.416,-18.629,-152.519,-10.578
13:57:41:001,35.071,-0.537,-0.043,-0.019,-18.256,-155.327,-8.983
13:57:41:051,35.122,0.121,-0.035,0.018,-17.909,-153.467,-7.810
13:57:41:138,35.209,0.556,0.018,-0.033,-17.618,-150.676,-7.411
13:57:41:138,35.209,0.316,-0.008,-0.063,-17.110,-149.566,-6.394
13:57:41:138,35.209,-0.037,0.003,-0.050,-16.557,-151.383,-5.013
13:57:41:139,35.210,0.014,-0.033,0.008,-16.171,-152.383,-4.047
13:57:41:155,35.225,0.147,-0.015,-0.035,-15.496,-153.545,-2.484
13:57:41:181,35.251,0.052,0.016,0.007,-14.929,-154.668,-1.350
13:57:41:207,35.278,0.025,-0.013,-0.011,-13.873,-156.282,0.301
13:57:41:234,35.305,0.069,-0.024,-0.020,-13.121,-156.983,1.361
13:57:41:261,35.332,0.117,0.004,-0.060,-12.000,-157.579,2.927
13:57:41:288,35.359,0.072,-0.010,-0.050,-10.819,-158.297,4.488
13:57:41:313,35.384,0.061,-0.002,-0.050,-10.051,-158.884,5.504
13:57:41:341,35.411,0.151,0.006,-0.077,-8.944,-159.658,6.985
13:57:41:392,35.463,0.131,0.021,-0.041,-8.203,-160.250,7.936
13:57:41:421,35.492,0.052,0.054,0.083,-6.966,-161.338,9.301
13:57:41:421,35.492,-0.004,0.166,0.006,-6.027,-162.038,10.227
13:57:41:443,35.514,0.003,0.227,0.066,-4.393,-162.936,11.748
13:57:41:47,35.540,-0.078,0.277,0.097,-2.270,-163.870,13.491
13:57:41:507,35.578,-0.219,0.416,0.318,-0.521,-164.503,14.839
13:57:41:551,35.622,-0.341,0.444,0.368,2.712,-165.175,17.381
13:57:41:552,35.623,-0.508,0.430,0.643,5.353,-165.614,19.474
13:57:41:576,35.646,-0.786,0.419,0.764,9.687,-166.681,23.285
13:57:41:601,35.671,-0.447,0.278,0.677,14.804,-168.080,27.222
13:57:41:627,35.698,-0.221,0.337,0.802,18.607,-168.250,30.476
13:57:41:654,35.725,0.071,0.055,0.368,23.177,-166.823,35.702
13:57:41:68,35.750,-0.033,-0.459,0.440,25.537,-165.914,38.424
13:57:41:708,35.779,-0.186,-0.535,0.077,28.214,-165.853,40.299
13:57:41:732,35.803,-0.008,-0.817,0.059,30.553,-167.438,40.122
13:57:41:789,35.860,-0.075,-1.027,0.177,30.661,-168.337,39.226
13:57:41:789,35.860,-0.113,-0.891,-0.013,28.907,-169.975,36.320
13:57:41:811,35.882,0.020,-0.749,-0.016,26.470,-170.767,33.786
13:57:41:867,35.938,0.020,-0.731,0.071,21.577,-171.807,29.002
13:57:41:894,35.964,0.008,-0.607,0.155,15.693,-172.717,23.212
13:57:41:894,35.964,-0.034,-0.457,0.211,11.406,-173.138,18.903
13:57:41:945,36.015,-0.141,-0.157,0.208,4.893,-173.807,11.729
13:57:41:946,36.017,-0.025,0.224,0.104,0.524,-174.085,6.676
13:57:41:97,36.041,0.134,0.477,-0.080,-6.552,-173.343,-1.315
13:57:42:022,36.093,0.695,1.167,-0.323,-11.493,-171.534,-6.934
13:57:42:052,36.122,0.929,1.229,-0.769,-18.770,-166.334,-15.567
13:57:42:052,36.123,0.986,0.092,-1.348,-24.811,-161.365,-23.323
13:57:42:074,36.144,2.324,-0.135,-1.187,-27.911,-159.205,-27.200
13:57:42:1,36.171,1.079,-0.943,-1.129,-30.169,-160.640,-26.959
13:57:42:126,36.196,-0.487,0.469,-0.386,-28.799,-161.520,-23.707
13:57:42:233,36.304,-2.952,1.287,-1.382,-26.176,-159.691,-20.177
13:57:42:272,36.342,0.097,-0.307,-0.744,-21.795,-154.743,-19.746
13:57:42:273,36.343,0.493,-0.064,-0.860,-19.393,-149.897,-18.670
13:57:42:274,36.344,0.624,0.195,0.094,-18.179,-144.319,-16.282
13:57:42:275,36.345,1.031,-0.338,-0.274,-17.562,-140.753,-14.868
13:57:42:287,36.358,0.564,-0.109,-0.340,-16.636,-140.387,-13.047
13:57:42:31,36.380,-0.245,0.085,-0.425,-15.870,-146.251,-10.447
13:57:42:417,36.487,-0.522,0.010,-0.120,-15.627,-148.973,-9.181
13:57:42:483,36.553,0.098,-0.098,0.067,-15.626,-146.700,-8.526
13:57:42:483,36.553,0.573,-0.013,-0.037,-15.600,-143.413,-8.499
13:57:42:483,36.554,0.531,0.000,-0.047,-15.380,-142.217,-8.094
13:57:42:483,36.554,-0.250,-0.004,0.004,-15.194,-144.345,-7.519
13:57:42:572,36.643,-0.200,-0.026,0.036,-14.815,-146.613,-6.571
13:57:42:683,36.753,0.163,0.021,-0.004,-14.213,-147.030,-5.398
13:57:42:683,36.753,0.162,0.020,-0.018,-13.686,-147.607,-4.449
13:57:42:704,36.775,-0.033,-0.021,0.051,-12.760,-148.990,-2.884
13:57:42:792,36.862,0.068,-0.015,-0.052,-12.043,-149.516,-1.821
13:57:42:793,36.863,0.083,-0.024,-0.026,-10.840,-149.727,-0.192
13:57:42:793,36.864,0.093,-0.012,-0.047,-9.574,-149.985,1.483
13:57:42:794,36.865,0.115,-0.002,-0.108,-8.734,-150.114,2.552
13:57:42:836,36.907,0.113,0.022,-0.112,-7.466,-150.454,4.071
13:57:42:871,36.942,0.076,0.022,0.012,-6.580,-151.735,5.031
13:57:42:871,36.942,0.096,0.056,-0.013,-5.098,-152.422,6.487
13:57:42:872,36.942,0.079,0.130,0.001,-4.000,-153.794,7.503
13:57:42:873,36.943,0.023,0.167,0.028,-2.059,-154.520,9.109
13:57:42:924,36.995,-0.028,0.285,0.080,0.348,-156.087,10.887
13:57:42:925,36.996,-0.071,0.354,0.236,2.262,-156.696,12.185
13:57:42:945,37.016,-0.818,0.415,0.902,12.821,-160.737,19.097
13:57:42:946,37.017,-0.260,0.233,0.784,16.235,-161.512,21.347
13:57:42:947,37.018,0.347,0.444,0.681,21.829,-161.058,25.557
13:57:42:966,37.036,0.280,0.021,0.523,26.156,-157.728,31.136
13:57:42:992,37.063,0.192,-0.451,0.480,28.041,-155.492,34.374
13:57:43:075,37.145,-0.267,-0.522,0.038,30.151,-153.330,37.414
13:57:43:076,37.146,-0.091,-0.976,0.142,31.652,-153.551,37.363
13:57:43:101,37.172,-0.166,-1.137,0.364,32.210,-152.517,37.276
13:57:43:101,37.172,-0.106,-0.780,0.141,30.321,-150.570,35.576
13:57:43:123,37.194,-0.008,-0.562,0.149,27.821,-148.319,33.943
13:57:43:178,37.249,0.176,-0.598,0.254,23.101,-143.985,30.554
13:57:43:205,37.276,0.354,-0.531,0.327,19.599,-140.856,27.406
13:57:43:206,37.276,0.962,-0.034,0.100,14.327,-136.277,21.406
13:57:43:255,37.325,0.593,-0.035,0.225,9.556,-131.994,14.857
13:57:43:284,37.355,0.470,-0.085,0.145,6.875,-130.406,9.760
13:57:43:284,37.355,0.512,0.272,-0.121,2.897,-129.193,0.899
13:57:43:334,37.405,0.821,0.976,-0.440,-0.296,-128.099,-5.201
13:57:43:365,37.436,0.845,1.045,-0.999,-6.250,-124.591,-13.104
13:57:43:365,37.436,0.579,0.537,-1.672,-9.640,-121.443,-17.654
13:57:43:386,37.457,0.835,-0.104,-1.933,-13.672,-118.112,-22.411
13:57:43:441,37.512,0.258,-0.502,-1.594,-16.349,-118.929,-22.559
13:57:43:442,37.512,-0.225,0.025,-0.772,-16.048,-119.321,-20.105
13:57:43:466,37.537,-2.208,1.481,1.738,-13.554,-117.207,-17.199
13:57:43:492,37.563,-0.218,-0.157,-0.752,-11.214,-114.476,-16.004
13:57:43:518,37.588,0.355,0.064,-1.008,-8.385,-109.430,-12.581
13:57:43:545,37.616,0.314,0.123,0.610,-7.772,-104.362,-8.187
13:57:43:6,37.671,1.619,-0.649,-0.546,-6.836,-100.524,-6.154
13:57:43:6,37.671,0.185,-0.136,-0.616,-5.593,-99.807,-3.414
13:57:43:622,37.693,-0.588,0.247,-0.124,-4.666,-102.807,-2.132
13:57:43:649,37.719,-0.454,0.156,0.330,-3.565,-106.419,-0.760
13:57:43:677,37.748,-0.187,-0.186,0.373,-3.480,-104.887,0.429
13:57:43:73,37.801,0.646,-0.012,-0.210,-4.071,-99.703,2.358
13:57:43:731,37.802,0.166,0.049,-0.466,-3.838,-97.896,3.704
13:57:43:781,37.852,-0.034,0.074,0.006,-3.144,-99.448,4.084
13:57:43:833,37.903,-0.073,-0.042,0.353,-2.281,-101.250,4.687
13:57:43:893,37.964,0.225,-0.057,-0.030,-2.124,-100.579,5.371
13:57:43:894,37.965,0.164,0.021,-0.274,-1.973,-99.043,6.322
13:57:43:895,37.966,0.014,0.032,0.066,-1.494,-99.359,6.878
13:57:43:896,37.967,0.059,0.002,0.098,-1.227,-99.599,7.270
13:57:43:912,37.982,0.153,-0.038,0.022,-0.866,-99.489,7.963
13:57:43:937,38.008,0.138,-0.007,0.052,-0.512,-98.642,8.523
13:57:43:964,38.034,0.102,-0.012,0.062,0.245,-98.785,9.497
13:57:43:99,38.060,0.079,0.041,0.004,1.165,-98.417,10.588
13:57:44:016,38.087,0.088,0.076,-0.004,1.814,-98.629,11.293
13:57:44:042,38.113,0.141,0.062,0.030,2.964,-98.386,12.147
13:57:44:068,38.139,0.186,0.074,0.150,3.946,-98.910,12.658
13:57:44:103,38.173,0.181,0.186,0.179,5.820,-99.039,13.640
13:57:44:177,38.247,0.214,0.244,0.214,7.302,-99.461,14.446
13:57:44:201,38.272,0.301,0.283,0.371,10.052,-99.927,15.789
13:57:44:228,38.299,0.496,0.361,0.614,13.654,-100.540,17.612
13:57:44:261,38.332,0.516,0.362,0.969,16.686,-100.799,19.173
13:57:44:261,38.332,0.633,0.172,1.351,22.046,-100.571,22.517
13:57:44:262,38.333,0.839,0.097,0.857,25.723,-99.254,25.693
13:57:44:263,38.334,1.136,0.159,0.528,31.214,-94.788,32.269
13:57:44:306,38.377,0.759,-0.114,-0.008,35.038,-88.541,39.918
13:57:44:331,38.402,0.629,-0.322,-0.047,36.744,-85.173,44.013
13:57:44:358,38.428,0.013,-0.337,0.336,39.250,-82.038,47.155
13:57:44:384,38.454,0.254,-0.734,-0.032,41.116,-81.260,48.079
13:57:44:413,38.484,0.224,-1.065,0.095,41.450,-79.209,48.391
13:57:44:414,38.485,0.129,-0.801,0.015,40.207,-78.407,47.362
13:57:44:462,38.533,0.140,-0.703,-0.063,36.145,-76.999,44.839
13:57:44:489,38.559,0.225,-0.708,-0.069,30.113,-75.393,41.179
13:57:44:52,38.591,0.279,-0.692,-0.004,25.361,-74.356,37.927
13:57:44:544,38.614,0.295,-0.539,0.017,17.988,-72.944,31.728
13:57:44:545,38.615,0.442,-0.191,-0.368,13.397,-72.133,26.871
13:57:44:598,38.668,0.450,0.009,0.125,6.845,-71.195,18.873
13:57:44:599,38.670,0.266,0.729,-0.142,0.692,-71.169,9.329
13:57:44:62,38.690,0.042,1.149,-0.494,-3.791,-70.953,2.792
13:57:44:647,38.718,-1.268,1.627,-0.805,-10.839,-70.439,-6.018
13:57:44:673,38.743,-1.302,0.447,-0.891,-14.896,-71.179,-10.743
13:57:44:699,38.769,-1.545,-0.571,-1.639,-19.678,-71.422,-15.470
13:57:44:724,38.795,-0.909,-0.267,-0.554,-20.532,-71.965,-15.614
13:57:44:751,38.822,1.417,0.910,1.858,-18.569,-72.204,-11.511
13:57:44:78,38.850,-1.163,0.102,-0.210,-17.054,-73.503,-9.740
13:57:44:805,38.875,-0.358,0.242,-0.461,-15.442,-73.051,-7.299
13:57:44:861,38.931,-0.241,0.320,0.309,-14.269,-70.991,-3.370
13:57:44:861,38.932,0.282,-0.368,-0.984,-13.367,-68.001,-1.237
13:57:44:909,38.980,-0.389,0.113,-0.502,-12.401,-64.821,0.799
13:57:44:967,39.037,-0.184,0.011,0.350,-11.032,-68.328,3.330
13:57:44:968,39.038,0.168,-0.089,0.588,-10.486,-70.120,4.639
13:57:44:968,39.039,0.144,-0.017,-0.351,-10.518,-68.773,6.138
13:57:45:018,39.088,-0.014,0.054,-0.136,-10.501,-67.485,6.853
13:57:45:018,39.088,0.035,-0.005,0.140,-10.015,-68.173,7.746
13:57:45:066,39.137,0.065,-0.009,-0.043,-9.569,-68.748,8.443
13:57:45:15,39.220,0.061,0.005,-0.077,-9.366,-68.823,8.824
13:57:45:151,39.221,0.160,-0.011,0.042,-8.923,-69.537,9.380
13:57:45:202,39.273,0.144,-0.025,0.078,-8.496,-70.246,9.816
13:57:45:277,39.347,0.107,-0.005,0.047,-7.782,-70.956,10.573
13:57:45:366,39.436,0.081,0.002,0.037,-7.258,-71.278,11.151
13:57:45:366,39.436,0.121,-0.002,0.043,-6.355,-71.796,12.106
13:57:45:366,39.437,0.077,0.002,0.008,-5.414,-71.779,13.119
13:57:45:367,39.437,0.071,-0.005,0.019,-4.744,-72.102,13.804
13:57:45:391,39.462,0.054,0.046,0.041,-3.694,-72.226,14.820
13:57:45:392,39.462,0.098,0.056,0.072,-2.949,-72.602,15.495
13:57:45:392,39.462,0.150,0.075,0.043,-1.692,-72.696,16.530
13:57:45:393,39.463,0.239,0.071,0.070,-0.115,-73.263,17.662
13:57:45:439,39.510,0.248,0.160,0.106,1.194,-73.285,18.552
13:57:45:44,39.510,0.292,0.155,0.207,3.534,-73.757,20.147
13:57:45:441,39.511,0.301,0.234,0.258,5.315,-73.682,21.497
13:57:45:461,39.532,0.499,0.284,0.446,8.504,-73.808,23.841
13:57:45:518,39.588,0.675,0.285,0.636,11.169,-73.813,25.610
13:57:45:518,39.589,1.069,0.118,0.758,16.068,-73.603,29.092
13:57:45:539,39.609,0.996,0.002,0.833,21.604,-73.351,33.393
13:57:45:565,39.635,0.904,0.601,0.028,25.632,-72.265,36.987
13:57:45:592,39.663,0.743,0.105,0.260,31.408,-69.291,43.331
13:57:45:618,39.689,0.520,-0.393,0.005,34.578,-67.340,46.847
13:57:45:644,39.714,0.535,-0.897,0.036,38.090,-64.912,50.736
13:57:45:67,39.741,0.181,-0.563,-0.346,41.262,-65.387,51.131
13:57:45:702,39.773,0.234,-1.182,0.055,41.789,-65.226,51.280
13:57:45:749,39.820,-0.027,-0.966,0.086,40.131,-66.267,49.030
13:57:45:779,39.849,-0.088,-0.852,0.009,37.607,-66.819,46.714
13:57:45:779,39.849,0.025,-0.821,-0.102,32.123,-67.932,42.061
13:57:45:801,39.872,0.119,-0.671,-0.092,27.628,-68.685,38.337
13:57:45:857,39.928,0.200,-0.542,0.001,20.277,-69.880,31.914
13:57:45:859,39.930,0.298,-0.229,0.077,13.107,-71.343,24.506
13:57:45:88,39.951,0.372,0.065,-0.063,8.671,-72.569,19.273
13:57:45:935,40.006,0.111,0.461,0.246,1.966,-74.245,11.423
13:57:45:936,40.006,-0.087,0.806,-0.117,-2.737,-74.556,6.062
13:57:45:959,40.029,-0.215,1.443,-0.692,-10.362,-72.590,-1.579
13:57:45:985,40.056,-1.717,0.468,-0.699,-16.829,-70.761,-8.368
13:57:46:011,40.082,-1.493,0.471,-1.261,-19.921,-70.616,-11.596
13:57:46:096,40.166,-1.500,-0.460,-1.200,-22.418,-71.154,-13.385
13:57:46:096,40.167,1.729,0.995,3.255,-21.881,-70.955,-11.798
13:57:46:097,40.168,-1.675,0.229,-0.329,-20.176,-70.064,-10.445
13:57:46:116,40.187,-0.497,0.005,-0.502,-18.595,-68.630,-8.948
13:57:46:142,40.213,-0.113,0.598,-0.304,-17.733,-66.096,-6.586
13:57:46:198,40.268,0.001,-0.199,-1.356,-17.320,-60.900,-4.075
13:57:46:198,40.269,-0.187,-0.185,-0.662,-16.625,-59.844,-2.971
13:57:46:25,40.321,-0.187,0.055,0.238,-15.254,-64.878,-0.433
13:57:46:28,40.350,0.065,-0.142,0.651,-14.510,-67.696,0.885
13:57:46:28,40.350,0.282,-0.045,-0.049,-14.531,-65.845,2.070
13:57:46:33,40.401,0.065,0.087,-0.502,-14.463,-62.733,3.049
13:57:46:331,40.401,0.088,-0.008,-0.101,-13.950,-63.405,3.923
13:57:46:354,40.424,0.029,-0.004,0.230,-13.030,-65.160,5.233
13:57:46:379,40.450,0.139,-0.034,-0.074,-12.543,-65.284,6.040
13:57:46:406,40.477,0.129,-0.033,-0.057,-11.755,-65.651,7.312
13:57:46:431,40.502,0.071,0.002,0.078,-10.767,-66.553,8.674
13:57:46:46,40.530,0.061,-0.008,0.055,-10.069,-67.013,9.587
13:57:46:511,40.582,0.039,0.026,-0.026,-8.402,-67.413,11.825
13:57:46:536,40.607,0.073,-0.007,0.035,-7.325,-67.931,13.115
13:57:46:567,40.638,0.051,-0.012,0.050,-6.590,-68.715,13.948
13:57:46:567,40.638,0.031,0.033,0.009,-5.556,-69.208,15.201
13:57:46:589,40.660,0.115,0.057,-0.018,-4.523,-69.928,16.442
13:57:46:615,40.686,0.197,0.027,0.017,-3.703,-70.297,17.228
13:57:46:67,40.741,0.154,0.102,0.102,-2.194,-71.353,18.503
13:57:46:671,40.742,0.204,0.157,0.115,-0.988,-71.707,19.428
13:57:46:723,40.793,0.226,0.205,0.156,1.198,-72.572,21.009
13:57:46:723,40.794,0.372,0.259,0.235,2.983,-73.176,22.217
13:57:46:804,40.875,0.608,0.349,0.406,6.201,-73.940,24.342
13:57:46:805,40.876,0.786,0.236,0.752,10.367,-74.668,27.079
13:57:46:806,40.877,0.903,0.138,1.000,13.630,-75.101,29.389
13:57:46:825,40.896,0.775,0.011,0.787,19.150,-75.737,33.419
13:57:46:851,40.922,0.969,0.322,0.307,23.226,-75.550,36.526
13:57:46:877,40.948,0.776,-0.036,0.344,29.370,-73.884,42.283
13:57:46:904,40.975,0.498,-0.252,0.051,34.416,-72.296,46.915
13:57:46:93,41.000,0.543,-1.017,0.108,36.976,-71.507,49.306
13:57:46:957,41.027,0.147,-0.705,-0.261,40.035,-72.212,49.826
13:57:46:983,41.054,0.200,-1.122,0.163,41.002,-72.609,49.895
13:57:47:009,41.080,-0.010,-0.988,0.158,39.506,-73.523,48.100
13:57:47:066,41.136,-0.008,-0.782,0.143,35.381,-74.553,44.620
13:57:47:066,41.136,0.106,-0.785,0.027,31.563,-75.296,41.483
13:57:47:087,41.158,0.162,-0.668,0.057,24.716,-76.437,35.671
13:57:47:174,41.245,0.221,-0.212,-0.107,19.710,-77.156,31.195
13:57:47:175,41.246,0.442,-0.338,0.264,11.921,-77.830,24.168
13:57:47:177,41.248,0.188,0.122,0.299,7.007,-78.564,18.797
13:57:47:222,41.292,0.059,0.532,0.087,-0.096,-79.134,10.067
13:57:47:222,41.293,-0.138,1.461,-0.469,-7.426,-78.305,1.244
13:57:47:303,41.373,-1.168,1.681,-0.715,-11.885,-77.600,-3.973
13:57:47:304,41.374,-1.317,0.570,-1.416,-17.249,-76.974,-10.021
13:57:47:305,41.375,-1.264,-0.326,-1.703,-19.405,-76.277,-12.376
13:57:47:329,41.400,-0.717,-0.070,-0.318,-19.273,-75.673,-11.059
13:57:47:413,41.483,-1.348,0.311,0.585,-17.584,-73.912,-9.164
13:57:47:413,41.484,-1.125,-0.080,-0.063,-15.821,-72.727,-7.678
13:57:47:413,41.484,-0.443,0.256,-0.508,-14.524,-69.517,-4.992
13:57:47:43,41.500,0.154,0.185,0.543,-14.562,-66.606,-2.310
13:57:47:485,41.556,-0.003,-0.283,-1.083,-14.101,-61.099,-0.532
13:57:47:486,41.557,-0.141,0.073,-0.274,-13.121,-62.679,1.916
13:57:47:539,41.610,-0.194,0.058,0.241,-12.143,-66.097,3.349
13:57:47:539,41.610,0.051,-0.112,0.526,-11.583,-68.023,4.609
13:57:47:56,41.631,0.125,-0.054,-0.004,-12.104,-66.033,5.082
13:57:47:586,41.657,0.220,0.085,-0.529,-12.632,-63.002,5.427
13:57:47:642,41.713,0.228,-0.005,0.010,-12.339,-63.731,5.828
13:57:47:642,41.713,0.174,-0.054,0.302,-11.426,-66.329,6.715
13:57:47:693,41.763,0.166,0.004,0.087,-10.609,-67.599,7.958
13:57:47:72,41.791,0.165,0.024,0.007,-9.959,-68.307,8.961
13:57:47:721,41.792,0.220,-0.036,0.093,-8.707,-69.785,10.530
13:57:47:744,41.815,0.184,-0.055,0.181,-7.769,-70.745,11.585
13:57:47:77,41.840,0.154,-0.033,0.111,-6.430,-71.103,13.259
13:57:47:825,41.896,0.149,-0.031,0.101,-5.584,-71.225,14.445
13:57:47:826,41.896,0.097,0.011,0.021,-4.412,-71.040,16.229
13:57:47:85,41.920,-0.027,0.065,-0.014,-3.259,-71.407,17.867
13:57:47:877,41.947,0.156,0.008,0.085,-2.395,-71.722,18.823
13:57:47:901,41.972,0.182,0.040,0.099,-1.070,-72.283,20.218
13:57:47:927,41.998,0.234,0.121,0.128,-0.033,-72.537,21.215
13:57:47:954,42.025,0.226,0.136,0.229,1.969,-73.095,22.831
13:57:47:98,42.051,0.290,0.215,0.241,4.365,-73.397,24.760
13:57:48:006,42.077,0.388,0.252,0.340,6.242,-73.661,26.246
13:57:48:032,42.103,0.639,0.302,0.454,9.620,-73.829,28.795
13:57:48:088,42.159,0.774,0.279,0.773,12.467,-74.198,30.827
13:57:48:088,42.159,0.938,0.117,1.060,17.602,-74.873,34.496
13:57:48:141,42.212,0.799,-0.002,0.825,23.954,-75.631,38.403
13:57:48:142,42.212,0.943,0.354,0.280,28.527,-74.944,41.814
13:57:48:194,42.265,0.574,0.041,0.112,34.896,-72.690,47.494
13:57:48:194,42.265,0.564,-0.211,0.091,38.464,-71.457,50.521
13:57:48:216,42.287,0.336,-1.174,0.244,42.316,-70.260,53.493
13:57:48:242,42.313,0.050,-0.787,-0.077,45.201,-71.585,53.046
13:57:48:269,42.340,0.231,-1.178,0.159,45.247,-71.816,52.683
13:57:48:295,42.366,0.004,-0.962,0.144,42.711,-72.960,50.011
13:57:48:353,42.424,-0.011,-0.815,0.137,39.583,-73.740,47.387
13:57:48:354,42.424,0.157,-0.795,-0.014,32.994,-74.399,42.580
13:57:48:374,42.444,0.222,-0.620,0.029,27.658,-74.566,38.805
13:57:48:4,42.471,0.280,-0.117,-0.336,19.217,-74.690,32.171
13:57:48:428,42.498,0.498,-0.206,0.066,10.898,-74.013,25.328
13:57:48:453,42.523,0.310,0.108,0.174,6.021,-74.159,19.813
13:57:48:507,42.578,0.230,0.797,-0.121,-0.515,-74.491,10.681
13:57:48:508,42.579,0.093,1.196,-0.365,-4.825,-74.606,4.300
13:57:48:533,42.603,-1.160,1.509,-0.878,-11.528,-75.172,-4.151
13:57:48:559,42.630,-1.604,0.623,-1.350,-17.585,-76.443,-10.081
13:57:48:587,42.657,-1.253,-0.210,-1.718,-20.237,-76.667,-12.356
13:57:48:612,42.682,-0.334,0.157,0.183,-20.334,-77.232,-10.980
13:57:48:669,42.740,-1.551,0.637,2.258,-19.212,-76.750,-8.453
13:57:48:669,42.740,-0.557,-0.047,-0.213,-16.547,-76.096,-6.773
13:57:48:75,42.820,-0.377,0.153,-0.548,-14.707,-71.534,-4.172
13:57:48:751,42.822,0.005,0.310,0.191,-14.578,-68.591,-1.944
13:57:48:753,42.823,0.085,-0.184,-1.160,-14.194,-63.147,0.584
13:57:48:769,42.840,-0.101,-0.087,-0.342,-13.549,-62.394,2.163
13:57:48:794,42.864,-0.233,0.091,0.334,-11.523,-66.813,4.812
13:57:48:82,42.891,0.054,-0.107,0.506,-10.264,-69.479,6.233
13:57:48:85,42.921,0.193,-0.179,0.223,-9.855,-68.945,7.796
13:57:48:851,42.921,-0.056,0.149,-0.452,-10.492,-65.223,8.993
13:57:48:872,42.943,-0.080,0.149,-0.440,-10.471,-64.200,9.517
13:57:48:901,42.972,0.013,-0.027,0.350,-9.642,-66.228,9.830
13:57:48:925,42.995,0.285,-0.114,0.125,-9.291,-67.449,9.995
13:57:48:98,43.051,0.216,-0.018,-0.080,-9.052,-67.702,10.286
13:57:48:981,43.052,0.207,-0.025,0.210,-8.589,-68.391,10.635
13:57:49:033,43.103,0.220,-0.045,0.263,-7.518,-69.859,11.599
13:57:49:034,43.104,0.159,0.037,0.005,-6.465,-69.983,12.944
13:57:49:083,43.154,0.144,-0.015,0.051,-5.664,-69.876,13.916
13:57:49:114,43.184,0.166,-0.024,0.141,-4.182,-70.338,15.427
13:57:49:114,43.185,0.067,0.031,0.008,-3.216,-70.326,16.489
13:57:49:135,43.205,0.026,0.036,0.000,-1.758,-70.783,18.001
13:57:49:161,43.232,0.094,0.038,0.083,-0.182,-71.267,19.286
13:57:49:187,43.258,0.163,0.075,0.107,0.934,-71.814,20.081
13:57:49:215,43.286,0.197,0.120,0.171,2.747,-72.020,21.351
13:57:49:24,43.311,0.196,0.169,0.241,4.141,-72.249,22.326
13:57:49:266,43.337,0.468,0.193,0.245,6.750,-72.218,24.060
13:57:49:322,43.393,0.663,0.306,0.431,10.204,-72.355,26.489
13:57:49:322,43.393,0.866,0.366,0.605,13.189,-72.461,28.461
13:57:49:345,43.416,1.029,0.216,1.095,18.678,-73.121,31.871
13:57:49:371,43.442,0.982,-0.144,0.931,22.964,-73.825,34.222
13:57:49:427,43.497,0.968,0.404,0.041,29.603,-73.002,38.948
13:57:49:427,43.498,0.736,-0.047,0.084,33.304,-70.557,43.249
13:57:49:45,43.521,0.572,-0.104,-0.043,36.859,-66.457,48.993
13:57:49:477,43.547,0.359,-0.786,-0.080,39.309,-63.430,52.886
13:57:49:503,43.574,-0.013,-0.186,-0.186,40.704,-62.514,53.609
13:57:49:559,43.629,0.137,-0.980,-0.025,41.983,-61.540,53.939
13:57:49:559,43.629,0.047,-1.004,-0.045,41.276,-60.979,53.122
13:57:49:581,43.652,0.055,-0.976,0.032,38.217,-60.359,50.387
13:57:49:61,43.680,0.125,-0.691,-0.137,32.776,-59.602,46.143
13:57:49:634,43.705,0.142,-0.560,-0.200,28.600,-59.256,42.491
13:57:49:72,43.791,0.202,-0.543,-0.222,22.148,-59.049,36.050
13:57:49:72,43.791,0.140,-0.164,-0.369,17.859,-59.137,31.173
13:57:49:72,43.791,0.505,-0.413,0.071,11.426,-59.130,23.854
13:57:49:74,43.811,0.407,-0.087,0.078,7.245,-59.405,18.222
13:57:49:767,43.837,0.340,0.607,-0.026,0.466,-58.767,9.446
13:57:49:792,43.863,-0.382,1.720,-0.561,-6.934,-56.570,0.659
13:57:49:819,43.890,-0.815,1.392,-0.573,-11.670,-53.800,-4.423
13:57:49:844,43.915,-1.730,0.639,-0.022,-18.070,-49.890,-10.302
13:57:49:873,43.944,-1.634,-0.561,-1.224,-20.273,-47.249,-13.185
13:57:49:898,43.969,-0.330,0.074,0.208,-19.798,-45.473,-11.431
13:57:49:923,43.993,1.650,0.909,3.141,-17.960,-43.878,-7.421
13:57:49:949,44.019,-0.893,-0.133,0.510,-16.057,-43.333,-6.607
13:57:49:976,44.046,-0.362,-0.056,-0.087,-14.530,-39.551,-4.077
13:57:50:001,44.072,-0.640,0.416,0.191,-14.220,-36.496,-2.104
13:57:50:027,44.098,0.218,-0.081,-0.893,-14.518,-31.779,1.453
13:57:50:054,44.125,-0.326,-0.110,-0.005,-14.554,-27.613,3.084
13:57:50:082,44.153,-0.320,0.054,-0.051,-13.861,-28.559,4.517
13:57:50:108,44.178,0.148,0.045,0.363,-12.577,-32.203,6.529
13:57:50:136,44.206,0.466,-0.153,0.263,-12.158,-33.383,7.540
13:57:50:16,44.230,0.240,-0.089,-0.080,-12.656,-30.870,8.750
13:57:50:185,44.256,-0.215,0.140,-0.243,-12.868,-28.710,9.440
13:57:50:241,44.312,0.025,-0.002,0.051,-12.103,-28.813,10.522
13:57:50:242,44.313,0.257,-0.087,0.282,-10.859,-30.506,11.434
13:57:50:264,44.334,0.209,-0.085,0.129,-10.479,-30.523,11.993
13:57:50:29,44.361,-0.019,0.027,-0.001,-10.334,-29.594,12.827
13:57:50:346,44.417,0.114,0.001,0.075,-10.066,-29.577,13.376
13:57:50:347,44.417,0.159,-0.015,0.099,-9.539,-30.066,14.157
13:57:50:398,44.469,0.132,-0.011,0.094,-9.168,-30.070,14.948
13:57:50:398,44.469,0.133,-0.030,-0.009,-8.897,-30.004,15.513
13:57:50:424,44.495,0.150,-0.008,0.068,-8.310,-30.093,16.417
13:57:50:448,44.519,0.114,0.003,0.080,-7.834,-30.174,17.036
13:57:50:504,44.574,0.132,0.022,0.022,-6.995,-30.435,18.000
13:57:50:504,44.574,0.131,0.028,0.026,-6.311,-30.579,18.639
13:57:50:526,44.597,0.190,0.045,0.033,-5.112,-31.250,19.331
13:57:50:552,44.623,0.222,0.086,0.049,-3.443,-31.746,20.478
13:57:50:58,44.651,0.260,0.168,0.061,-2.052,-31.896,21.403
13:57:50:606,44.677,0.326,0.249,0.142,0.519,-32.427,23.037
13:57:50:632,44.702,0.525,0.341,0.067,2.591,-32.540,24.221
13:57:50:658,44.728,0.653,0.314,0.092,6.171,-32.677,26.199
13:57:50:684,44.755,0.940,0.281,0.154,10.530,-32.562,28.616
13:57:50:71,44.781,1.216,0.083,0.298,13.748,-32.571,30.648
13:57:50:736,44.807,0.918,-0.027,-0.090,18.901,-31.667,34.209
13:57:50:762,44.833,0.530,0.390,-0.311,22.510,-30.391,37.041
13:57:50:79,44.861,0.526,0.065,-0.385,27.472,-27.018,42.334
13:57:50:816,44.887,0.470,-0.471,-0.273,31.663,-25.032,46.521
13:57:50:842,44.912,0.322,-0.779,-0.089,34.057,-23.940,48.133
13:57:50:867,44.938,0.117,-0.525,-0.138,36.521,-23.161,48.576
13:57:50:895,44.966,0.182,-0.926,-0.183,36.930,-22.417,48.372
13:57:50:95,45.021,0.146,-0.822,-0.218,34.456,-20.720,47.053
13:57:50:951,45.022,0.157,-0.707,-0.145,29.724,-19.185,44.266
13:57:51:003,45.073,0.109,-0.634,-0.202,25.365,-18.025,41.594
13:57:51:003,45.074,-0.463,0.192,-0.458,18.399,-16.103,36.966
13:57:51:055,45.126,0.154,-0.395,-0.438,13.565,-14.173,34.269
13:57:51:057,45.127,0.139,-0.174,-0.296,7.054,-12.259,28.826
13:57:51:141,45.212,-0.137,-0.002,-0.154,1.746,-11.007,22.623
13:57:51:141,45.212,0.087,0.086,-0.168,-1.843,-10.039,18.025
13:57:51:141,45.212,-0.140,0.426,-0.262,-7.405,-8.809,10.231
13:57:51:141,45.212,-0.299,0.703,-0.128,-11.442,-8.347,4.966
13:57:51:183,45.253,-0.582,1.421,0.569,-18.207,-7.275,-2.044
13:57:51:266,45.337,-1.060,0.214,0.838,-22.213,-7.081,-5.832
13:57:51:267,45.338,-1.879,-0.065,0.734,-26.691,-6.803,-9.575
13:57:51:294,45.365,-0.933,-0.361,0.676,-27.399,-7.162,-8.404
13:57:51:295,45.365,0.799,0.194,0.634,-26.292,-6.772,-5.699
13:57:51:295,45.365,1.113,0.072,1.514,-24.711,-3.815,-4.243
13:57:51:314,45.385,-0.816,0.238,0.339,-23.478,-0.824,-4.063
13:57:51:34,45.411,-0.540,0.400,0.476,-23.068,2.665,-2.040
13:57:51:367,45.438,-0.131,0.047,-0.583,-23.158,7.185,-0.085
13:57:51:422,45.492,-0.451,-0.168,-0.021,-22.756,9.715,0.418
13:57:51:423,45.493,0.104,-0.013,0.303,-21.496,7.344,2.789
13:57:51:475,45.546,0.511,-0.113,0.306,-20.687,4.679,4.555
13:57:51:475,45.546,0.416,-0.076,0.081,-20.788,5.228,6.128
13:57:51:497,45.568,-0.380,0.128,-0.222,-21.143,7.584,6.720
13:57:51:526,45.596,-0.264,0.033,-0.029,-20.926,8.416,8.000
13:57:51:608,45.679,0.246,-0.008,0.209,-20.215,7.425,9.314
13:57:51:609,45.680,0.095,0.002,0.144,-19.797,7.325,9.981
13:57:51:609,45.680,0.062,-0.037,-0.016,-19.119,6.916,11.042
13:57:51:629,45.699,0.214,-0.012,0.032,-18.486,6.255,11.872
13:57:51:655,45.726,0.183,-0.021,0.028,-17.395,5.382,13.226
13:57:51:681,45.752,0.146,-0.027,0.059,-16.318,4.937,14.485
13:57:51:767,45.838,0.112,-0.046,0.076,-15.635,4.977,15.272
13:57:51:768,45.839,0.091,0.001,0.059,-14.641,4.914,16.400
13:57:51:768,45.839,0.125,-0.004,0.061,-13.943,4.891,17.116
13:57:51:924,45.995,0.176,-0.024,0.078,-12.851,4.635,18.175
13:57:51:925,45.995,0.060,0.011,0.075,-12.131,4.572,18.863
13:57:51:925,45.996,0.090,0.013,0.101,-11.004,4.266,19.832
13:57:51:948,46.019,0.152,0.093,-0.020,-9.680,4.025,20.723
13:57:51:977,46.047,0.147,0.093,-0.069,-8.710,3.905,21.300
13:57:51:977,46.048,0.315,0.141,-0.002,-6.863,3.580,22.254
13:57:51:978,46.049,0.381,0.115,-0.058,-5.333,3.364,23.044
13:57:52:001,46.072,0.526,0.270,-0.110,-2.614,3.347,24.750
13:57:52:001,46.072,0.680,0.395,-0.301,0.754,3.820,27.123
13:57:52:023,46.093,0.815,0.338,-0.403,3.464,4.214,29.118
13:57:52:079,46.150,1.066,0.265,-0.503,8.214,4.601,32.894
13:57:52:08,46.151,0.920,-0.074,-0.840,11.843,4.636,35.668
13:57:52:102,46.172,0.352,0.337,-0.608,18.103,4.967,40.109
13:57:52:162,46.233,0.276,-0.148,-0.527,23.558,6.876,45.110
13:57:52:164,46.235,0.141,-0.234,-0.371,25.893,8.262,47.805
13:57:52:182,46.253,-0.014,-0.387,-0.212,28.380,9.555,50.468
13:57:52:235,46.306,0.150,-0.161,0.248,29.679,9.672,51.066
13:57:52:236,46.307,0.005,-0.750,0.038,31.476,8.679,50.546
13:57:52:288,46.358,0.121,-1.159,-0.171,30.782,8.690,49.820
13:57:52:288,46.359,0.175,-0.924,0.045,27.260,8.066,47.153
13:57:52:343,46.414,0.063,-0.587,-0.013,20.891,8.255,43.547
13:57:52:343,46.414,-0.058,-0.518,-0.040,16.026,8.310,40.446
13:57:52:392,46.463,-0.048,-0.254,-0.047,8.656,8.020,34.823
13:57:52:419,46.490,0.485,-0.390,-0.164,3.791,7.660,30.717
13:57:52:42,46.490,0.326,-0.019,-0.009,-2.633,6.675,23.540
13:57:52:442,46.513,0.324,0.346,0.085,-8.705,5.761,15.707
13:57:52:47,46.541,0.099,0.868,0.186,-12.905,5.464,10.200
13:57:52:495,46.566,-0.521,1.292,0.772,-19.604,6.068,2.093
13:57:52:58,46.650,-0.968,0.555,1.271,-23.808,7.258,-3.076
13:57:52:581,46.651,-1.524,0.070,1.085,-28.640,9.008,-9.385
13:57:52:581,46.652,-1.359,-0.717,1.147,-30.614,9.353,-11.250
13:57:52:629,46.700,0.419,0.263,0.375,-29.926,8.777,-9.002
13:57:52:63,46.701,2.454,0.385,1.300,-28.179,9.138,-5.026
13:57:52:654,46.724,-0.572,-0.181,1.385,-26.719,7.530,-3.929
13:57:52:679,46.749,-0.474,0.199,0.571,-24.529,9.366,-1.446
13:57:52:734,46.805,0.334,0.051,0.324,-24.090,10.569,0.623
13:57:52:735,46.806,-0.691,-0.100,-0.398,-23.791,14.812,2.820
13:57:52:758,46.828,-0.244,0.002,0.527,-23.264,17.949,3.957
13:57:52:788,46.859,0.057,0.113,0.342,-22.396,16.299,5.515
13:57:52:81,46.881,0.507,-0.174,0.170,-21.321,12.800,7.730
13:57:52:894,46.965,0.063,-0.047,-0.009,-21.416,12.648,8.356
13:57:52:896,46.967,-0.259,0.141,0.047,-22.464,15.660,8.151
13:57:52:897,46.968,-0.065,0.083,-0.080,-22.634,15.758,8.307
13:57:52:945,47.015,0.327,-0.085,-0.020,-22.068,13.277,9.108
13:57:52:97,47.041,0.248,-0.079,-0.059,-21.329,11.623,10.100
13:57:52:971,47.042,0.164,0.015,-0.055,-20.750,10.821,10.994
13:57:52:995,47.065,0.195,-0.016,0.032,-19.584,9.459,12.587
13:57:53:05,47.121,0.242,-0.001,0.023,-18.721,8.870,13.637
13:57:53:051,47.121,0.222,-0.060,0.003,-17.421,8.431,15.170
13:57:53:073,47.144,0.146,-0.013,0.063,-16.139,8.354,16.737
13:57:53:129,47.200,0.135,-0.010,0.049,-15.330,8.414,17.777
13:57:53:131,47.201,0.063,0.013,0.170,-14.229,9.160,19.209
13:57:53:152,47.223,0.095,-0.047,0.154,-13.520,8.987,20.052
13:57:53:178,47.248,0.150,0.002,0.126,-12.493,9.176,21.203
13:57:53:205,47.276,0.167,0.041,-0.041,-11.750,8.927,21.946
13:57:53:23,47.300,0.133,0.094,-0.021,-10.593,9.161,23.083
13:57:53:315,47.385,0.247,0.115,0.000,-9.041,8.836,24.238
13:57:53:315,47.386,0.321,0.184,-0.028,-7.692,9.098,25.090
13:57:53:316,47.387,0.419,0.216,-0.112,-5.132,8.640,26.682
13:57:53:476,47.547,0.520,0.352,-0.327,-2.982,8.606,28.047
13:57:53:476,47.547,0.702,0.361,-0.327,0.936,8.288,30.537
13:57:53:477,47.548,1.096,0.278,-0.700,5.993,8.067,33.678
13:57:53:478,47.549,1.445,0.072,-0.712,9.878,7.782,36.288
13:57:53:555,47.626,0.765,0.129,-0.551,16.010,8.582,40.742
13:57:53:556,47.626,0.279,0.251,-0.787,19.651,10.552,44.399
13:57:53:556,47.627,0.098,0.129,-0.379,23.084,14.355,49.797
13:57:53:557,47.627,0.047,-0.561,-0.460,25.051,16.299,52.551
13:57:53:578,47.649,0.347,-0.823,-0.067,28.014,17.809,54.643
13:57:53:579,47.650,-0.069,-0.825,-0.074,31.402,17.703,54.522
13:57:53:58,47.651,0.040,-1.141,-0.183,31.341,17.818,53.797
13:57:53:598,47.669,0.021,-0.924,0.006,28.935,17.382,50.829
13:57:53:624,47.695,-0.090,-0.760,-0.042,25.928,17.201,48.145
13:57:53:731,47.801,-0.121,-0.714,-0.173,20.032,16.720,42.977
13:57:53:817,47.888,0.072,-0.539,-0.174,13.759,15.514,36.520
13:57:53:818,47.889,0.066,-0.449,-0.197,9.645,14.670,31.868
13:57:53:819,47.890,0.142,-0.197,-0.266,3.396,13.860,24.508
13:57:53:82,47.891,0.181,0.086,-0.246,-0.962,13.892,19.437
13:57:53:87,47.940,-0.088,0.732,0.016,-8.114,15.665,11.416
13:57:53:871,47.941,-0.452,1.386,0.487,-15.596,19.747,2.669
13:57:53:872,47.942,-0.632,1.531,1.282,-20.091,22.991,-3.137
13:57:53:892,47.963,-0.487,-0.341,1.488,-28.002,27.362,-12.614
13:57:53:939,48.010,0.796,-0.035,0.752,-28.583,29.717,-12.049
13:57:53:966,48.036,0.048,-0.323,1.376,-27.140,32.716,-11.393
13:57:54:052,48.123,-0.230,-0.228,0.684,-24.331,36.745,-10.276
13:57:54:053,48.124,0.023,0.374,0.990,-22.964,40.934,-7.689
13:57:54:054,48.125,0.534,0.122,-0.196,-22.557,43.720,-5.095
13:57:54:055,48.126,-0.683,-0.292,0.271,-21.428,47.941,-3.115
13:57:54:101,48.171,0.095,-0.100,0.279,-20.732,47.717,-1.051
13:57:54:101,48.171,0.476,0.044,0.275,-19.545,45.076,1.792
13:57:54:123,48.193,0.499,-0.060,-0.033,-18.872,44.923,3.709
13:57:54:264,48.334,-0.050,-0.068,-0.153,-19.037,47.208,4.563
13:57:54:264,48.334,-0.379,0.051,0.251,-19.305,51.242,5.605
13:57:54:265,48.335,-0.120,0.016,0.424,-18.910,52.001,6.396
13:57:54:266,48.336,0.413,0.032,0.229,-17.807,50.898,7.467
13:57:54:283,48.353,0.307,-0.091,-0.061,-17.266,50.193,8.022
13:57:54:284,48.354,0.012,0.004,0.117,-17.082,50.586,8.639
13:57:54:309,48.379,0.048,0.052,0.090,-16.786,50.769,9.085
13:57:54:332,48.403,0.252,-0.051,-0.106,-16.324,49.946,9.580
13:57:54:359,48.429,0.148,-0.026,-0.095,-15.643,49.332,10.570
13:57:54:414,48.485,0.119,-0.007,0.055,-15.181,49.609,11.368
13:57:54:415,48.486,0.139,0.023,0.095,-14.229,49.992,12.733
13:57:54:439,48.509,0.131,0.003,0.097,-13.101,50.018,14.115
13:57:54:465,48.536,0.111,0.021,0.084,-12.341,49.913,14.980
13:57:54:493,48.563,0.106,0.072,0.057,-11.178,49.645,16.127
13:57:54:518,48.588,0.149,0.059,-0.019,-10.259,49.288,16.826
13:57:54:572,48.643,0.234,0.143,-0.107,-8.571,48.780,17.990
13:57:54:572,48.643,0.232,0.261,-0.204,-7.232,48.658,18.917
13:57:54:595,48.666,0.266,0.378,-0.263,-4.649,48.456,20.683
13:57:54:622,48.692,0.233,0.521,-0.611,-1.159,48.250,22.877
13:57:54:648,48.718,0.385,0.588,-0.893,1.733,48.143,24.580
13:57:54:674,48.744,0.625,0.253,-1.425,7.004,47.901,27.783
13:57:54:7,48.770,-0.042,0.324,-0.895,11.023,48.319,30.158
13:57:54:727,48.798,-0.425,0.405,-0.718,16.349,51.979,35.021
13:57:54:752,48.823,-0.369,0.042,-0.285,18.330,58.225,40.683
13:57:54:78,48.851,-0.314,-0.262,-0.188,18.461,61.653,43.712
13:57:54:893,48.963,0.156,-0.520,-0.140,19.657,64.106,45.614
13:57:54:893,48.964,-0.104,-0.732,0.039,21.264,65.116,45.779
13:57:54:894,48.964,-0.210,-1.099,-0.132,21.450,66.421,44.978
13:57:54:895,48.965,-0.149,-1.019,0.005,20.148,67.312,43.513
13:57:54:939,49.010,-0.119,-0.829,0.048,16.247,68.644,39.865
13:57:54:94,49.011,-0.169,-0.536,0.252,11.814,69.360,34.506
13:57:54:964,49.035,-0.349,-0.590,0.072,8.744,69.296,30.147
13:57:54:989,49.060,-0.278,-0.323,-0.019,3.706,68.478,22.817
13:57:55:016,49.086,-0.321,-0.067,-0.003,-0.004,67.644,17.751
13:57:55:099,49.170,0.192,0.245,-0.144,-5.696,65.872,10.185
13:57:55:1,49.171,0.298,0.632,0.227,-12.295,65.823,2.684
13:57:55:101,49.171,0.443,0.867,0.430,-17.256,67.912,-2.501
13:57:55:15,49.221,0.913,0.994,1.244,-24.374,74.543,-11.031
13:57:55:152,49.223,0.311,0.168,1.622,-27.527,79.176,-16.696
13:57:55:26,49.330,-0.054,-0.497,2.433,-30.575,86.567,-23.856
13:57:55:261,49.331,0.766,-0.472,0.878,-31.543,88.736,-24.796
13:57:55:262,49.332,0.611,0.608,-1.017,-29.895,90.457,-22.423
13:57:55:262,49.333,1.124,-0.290,0.638,-27.272,91.226,-20.666
13:57:55:278,49.348,0.572,-0.134,0.417,-25.548,92.429,-18.759
13:57:55:304,49.374,0.320,0.178,0.830,-23.951,94.839,-16.023
13:57:55:331,49.402,0.198,-0.012,-0.214,-23.449,97.225,-13.503
13:57:55:358,49.428,-0.013,-0.240,0.628,-22.318,101.116,-11.941
13:57:55:384,49.454,0.419,0.001,0.317,-21.571,99.257,-9.274
13:57:55:41,49.481,0.409,0.036,-0.016,-21.172,96.552,-7.409
13:57:55:466,49.537,0.247,-0.108,-0.247,-20.932,95.491,-5.802
13:57:55:468,49.538,0.089,0.015,0.336,-21.039,97.432,-5.509
13:57:55:488,49.559,-0.010,0.052,0.448,-21.006,99.866,-5.273
13:57:55:515,49.585,0.111,-0.016,0.125,-20.706,98.480,-4.404
13:57:55:541,49.611,0.177,-0.037,-0.176,-20.481,97.007,-3.701
13:57:55:567,49.638,0.098,-0.064,0.013,-20.193,96.398,-2.781
13:57:55:593,49.664,0.119,0.027,0.112,-19.911,96.441,-2.092
13:57:55:62,49.691,0.094,-0.003,0.012,-19.204,95.808,-0.828
13:57:55:648,49.719,0.153,-0.022,-0.027,-18.650,96.855,0.127
13:57:55:648,49.719,0.155,-0.008,0.059,-17.785,96.675,1.501
13:57:55:672,49.742,0.121,-0.027,0.066,-16.869,97.881,2.899
13:57:55:698,49.768,0.112,-0.021,-0.041,-16.215,97.629,3.909
13:57:55:724,49.794,0.248,0.031,0.131,-15.249,98.704,5.428
13:57:55:75,49.821,0.200,0.022,0.140,-14.628,98.696,6.337
13:57:55:806,49.877,0.107,0.027,0.054,-13.564,99.185,7.601
13:57:55:806,49.877,0.040,0.041,-0.030,-12.660,98.692,8.490
13:57:55:859,49.930,0.081,0.215,-0.050,-10.915,98.799,10.137
13:57:56:016,50.087,0.140,0.261,-0.112,-8.763,98.847,12.064
13:57:56:074,50.145,-0.053,0.374,-0.254,-7.063,98.308,13.351
13:57:56:075,50.146,-0.137,0.444,-0.249,-4.137,98.348,15.440
13:57:56:076,50.147,-0.461,0.485,-0.655,-1.801,98.020,16.972
13:57:56:077,50.147,-0.479,0.370,-0.962,2.395,97.979,19.888
13:57:56:181,50.251,-0.542,0.171,-0.820,7.155,97.986,23.695
13:57:56:181,50.251,-0.362,0.567,0.059,10.339,99.020,26.695
13:57:56:181,50.251,-0.418,0.225,-0.072,14.319,102.285,32.254
13:57:56:182,50.252,-0.385,0.049,0.123,16.154,104.738,35.599
13:57:56:207,50.278,-0.533,-0.720,-0.079,18.406,106.984,39.324
13:57:56:207,50.278,-0.144,-0.547,0.264,21.024,106.626,40.170
13:57:56:207,50.278,-0.307,-0.992,-0.092,21.790,106.739,40.420
13:57:56:208,50.278,-0.044,-0.878,-0.118,20.981,106.581,38.892
13:57:56:33,50.401,-0.027,-0.725,-0.027,19.339,106.600,36.938
13:57:56:363,50.434,-0.150,-0.743,0.077,15.232,107.138,33.033
13:57:56:364,50.434,-0.184,-0.650,0.066,11.596,107.859,29.840
13:57:56:365,50.435,-0.035,-0.288,0.353,5.476,109.233,23.999
13:57:56:366,50.436,-0.354,-0.289,0.016,-0.982,111.266,17.415
13:57:56:415,50.485,-0.123,0.044,0.092,-5.148,112.367,12.125
13:57:56:416,50.486,0.128,0.570,0.154,-11.067,113.415,3.281
13:57:56:416,50.487,0.445,1.152,0.567,-15.253,113.948,-3.208
13:57:56:417,50.488,1.168,1.255,0.539,-22.324,114.114,-12.502
13:57:56:463,50.534,1.433,-0.168,0.661,-29.989,112.892,-19.450
13:57:56:463,50.534,1.856,0.065,1.345,-34.339,113.071,-22.663
13:57:56:541,50.611,0.857,0.151,-0.359,-36.708,111.569,-21.951
13:57:56:542,50.612,1.428,0.771,-2.864,-34.077,112.356,-18.239
13:57:56:593,50.664,0.772,-0.324,0.463,-31.276,115.071,-17.784
13:57:56:594,50.664,1.030,-0.274,0.836,-28.109,121.643,-16.991
13:57:56:677,50.747,-0.383,0.122,0.603,-27.055,126.465,-14.782
13:57:56:677,50.747,0.137,-0.248,0.701,-26.124,128.437,-13.829
13:57:56:677,50.748,0.559,-0.128,0.346,-24.621,125.449,-10.651
13:57:56:806,50.877,0.429,0.003,-0.363,-23.850,122.108,-8.311
13:57:56:807,50.878,0.126,-0.174,-0.373,-23.381,120.881,-6.471
13:57:56:808,50.879,0.073,0.011,0.347,-23.364,125.039,-6.428
13:57:56:832,50.903,0.306,0.067,0.644,-23.175,127.190,-6.448
13:57:56:832,50.903,0.312,-0.013,0.218,-22.847,125.567,-5.508
13:57:56:855,50.926,0.195,-0.020,-0.254,-22.716,123.354,-4.653
13:57:56:856,50.927,-0.071,-0.043,0.075,-22.526,122.383,-3.860
13:57:56:966,51.037,0.104,0.013,0.187,-22.148,122.236,-3.265
13:57:56:967,51.037,0.134,0.029,-0.033,-21.313,120.685,-1.784
13:57:56:968,51.038,0.092,-0.010,-0.045,-20.308,119.538,-0.148
13:57:56:984,51.054,0.166,-0.013,0.031,-18.302,118.825,2.668
13:57:57:04,51.111,0.218,-0.003,0.077,-17.469,118.488,3.871
13:57:57:041,51.112,0.275,-0.008,0.079,-16.277,117.893,5.605
13:57:57:123,51.193,0.187,0.032,0.065,-15.086,117.123,7.189
13:57:57:123,51.193,0.132,0.052,0.074,-14.231,116.648,8.137
13:57:57:123,51.194,0.067,0.152,-0.059,-12.713,115.814,9.616
13:57:57:143,51.214,0.119,0.238,-0.092,-11.487,115.255,10.751
13:57:57:17,51.240,0.061,0.269,-0.112,-9.363,114.481,12.692
13:57:57:195,51.266,-0.235,0.436,-0.167,-6.666,113.355,14.896
13:57:57:274,51.344,-0.374,0.560,-0.294,-4.485,113.015,16.690
