Time,Second,AccelerationX,AccelerationY,AccelerationZ,EulerAnglesX,EulerAnglesY,EulerAnglesZ
19:54:33:986,0.000,0.013,0.000,-0.011,-10.579,7.791,-3.943
19:54:33:986,0.000,0.007,-0.001,-0.011,-10.464,7.966,-3.807
19:54:33:987,0.002,0.008,-0.002,-0.006,-10.466,7.960,-3.813
19:54:33:988,0.003,0.011,-0.001,-0.008,-10.476,7.961,-3.816
19:54:34:004,0.018,0.007,-0.001,-0.006,-10.479,7.968,-3.824
19:54:34:039,0.053,0.006,0.002,-0.009,-10.473,7.967,-3.811
19:54:34:041,0.055,0.008,-0.002,-0.010,-10.483,7.965,-3.783
19:54:34:041,0.055,0.006,-0.001,-0.006,-10.485,7.966,-3.747
19:54:34:042,0.056,0.007,-0.001,-0.009,-10.481,7.969,-3.729
19:54:34:187,0.202,0.009,-0.001,-0.006,-10.489,7.972,-3.706
19:54:34:357,0.371,0.005,0.000,-0.005,-10.492,7.971,-3.697
19:54:34:358,0.372,0.002,-0.002,-0.011,-10.496,7.970,-3.688
19:54:34:358,0.372,0.010,-0.001,-0.007,-10.506,7.961,-3.690
19:54:34:358,0.372,0.011,-0.002,-0.005,-10.513,7.958,-3.698
19:54:34:371,0.385,0.006,0.001,-0.016,-10.519,7.959,-3.711
19:54:34:565,0.579,0.002,-0.003,-0.003,-10.549,7.964,-3.733
19:54:34:565,0.579,0.011,0.003,-0.023,-10.570,7.938,-3.733
19:54:34:566,0.580,0.008,-0.004,-0.009,-10.583,7.914,-3.741
19:54:34:567,0.581,0.006,0.003,-0.015,-10.587,7.912,-3.742
19:54:34:615,0.629,0.010,-0.003,-0.005,-10.593,7.927,-3.757
19:54:34:616,0.630,0.002,-0.001,-0.017,-10.609,7.955,-3.771
19:54:34:617,0.631,0.004,0.001,-0.008,-10.619,7.947,-3.774
19:54:34:618,0.632,0.006,0.000,-0.011,-10.615,7.964,-3.742
19:54:34:747,0.761,0.008,-0.003,-0.006,-10.615,7.964,-3.742
19:54:34:747,0.761,0.005,0.000,-0.013,-10.615,7.964,-3.742
19:54:34:748,0.762,0.003,-0.001,-0.008,-10.614,7.973,-3.743
19:54:34:749,0.763,0.005,0.000,-0.006,-10.614,7.973,-3.743
19:54:35:01,1.024,0.008,-0.002,-0.008,-10.614,7.973,-3.743
19:54:35:01,1.024,0.010,0.000,-0.013,-10.614,7.973,-3.743
19:54:35:01,1.024,0.006,0.001,-0.012,-10.613,8.005,-3.746
19:54:35:011,1.025,0.010,-0.002,-0.014,-10.616,8.012,-3.753
19:54:35:524,1.538,0.008,-0.003,-0.014,-10.615,8.014,-3.726
19:54:35:591,1.605,0.008,-0.001,-0.013,-10.621,8.016,-3.739
19:54:35:591,1.605,0.005,-0.002,-0.010,-10.630,8.016,-3.743
19:54:35:592,1.606,0.012,-0.001,-0.013,-10.636,7.996,-3.743
19:54:35:593,1.607,0.007,0.000,-0.016,-10.645,7.987,-3.746
19:54:35:72,1.734,0.009,-0.003,-0.020,-10.665,8.001,-3.765
19:54:35:72,1.734,0.002,-0.004,-0.007,-10.667,8.046,-3.744
19:54:35:72,1.734,0.007,0.001,-0.016,-10.677,8.060,-3.749
19:54:35:72,1.734,0.007,-0.001,-0.010,-10.679,8.054,-3.755
19:54:35:735,1.749,0.005,-0.003,-0.016,-10.693,8.066,-3.761
19:54:35:764,1.779,0.007,-0.001,-0.010,-10.702,8.067,-3.765
19:54:35:893,1.907,0.001,-0.002,-0.007,-10.710,8.063,-3.773
19:54:35:979,1.993,0.006,0.003,-0.016,-10.713,8.070,-3.780
19:54:35:98,1.994,0.006,-0.001,-0.010,-10.722,8.071,-3.783
19:54:35:981,1.995,0.004,0.003,-0.012,-10.732,8.071,-3.787
19:54:35:982,1.996,0.004,-0.002,-0.005,-10.741,8.072,-3.790
19:54:36:11,2.124,0.004,-0.001,-0.006,-10.741,8.072,-3.790
19:54:36:111,2.125,0.008,0.000,-0.013,-10.749,8.068,-3.798
19:54:36:112,2.126,0.002,-0.001,-0.007,-10.800,8.082,-3.835
19:54:36:112,2.127,0.007,0.001,-0.013,-10.805,8.071,-3.835
19:54:36:159,2.173,0.005,-0.002,-0.011,-10.813,8.067,-3.843
19:54:36:16,2.174,0.007,-0.002,-0.011,-10.822,8.068,-3.847
19:54:36:295,2.310,0.006,-0.001,-0.001,-10.753,8.070,-3.668
19:54:36:296,2.311,0.006,0.001,-0.019,-10.741,8.068,-3.642
19:54:36:297,2.311,0.005,-0.002,-0.011,-10.721,8.063,-3.624
19:54:36:312,2.326,0.003,0.000,-0.016,-10.702,8.064,-3.590
19:54:36:56,2.574,0.005,-0.003,-0.005,-10.697,8.067,-3.573
19:54:36:561,2.575,0.006,0.000,-0.018,-10.698,8.064,-3.541
19:54:36:561,2.575,0.008,-0.001,-0.008,-10.703,8.068,-3.528
19:54:36:561,2.575,0.003,0.002,-0.016,-10.696,8.077,-3.505
19:54:36:688,2.702,0.006,0.001,-0.009,-10.700,8.080,-3.491
19:54:36:689,2.703,0.009,-0.001,-0.016,-10.697,8.074,-3.473
19:54:36:689,2.704,0.002,-0.002,-0.001,-10.699,8.082,-3.464
19:54:36:692,2.706,0.005,0.000,-0.012,-10.672,8.062,-3.378
19:54:36:717,2.731,0.006,0.000,-0.003,-10.672,8.064,-3.362
19:54:36:718,2.732,0.006,0.000,-0.008,-10.665,8.063,-3.339
19:54:36:719,2.733,0.003,-0.003,-0.007,-10.665,8.065,-3.323
19:54:36:72,2.734,0.004,0.000,-0.009,-10.668,8.064,-3.303
19:54:36:735,2.749,0.004,0.000,-0.008,-10.663,8.067,-3.285
19:54:36:954,2.968,0.004,0.001,-0.017,-10.661,8.065,-3.263
19:54:36:954,2.968,0.010,0.000,-0.006,-10.667,8.029,-3.230
19:54:36:955,2.969,0.006,0.000,-0.008,-10.666,8.031,-3.204
19:54:36:955,2.969,0.004,0.001,-0.006,-10.661,7.991,-3.160
19:54:37:075,3.089,0.007,-0.002,-0.003,-10.662,7.936,-3.097
19:54:37:126,3.140,0.004,-0.004,-0.007,-10.666,7.903,-3.027
19:54:37:287,3.301,0.004,-0.002,-0.010,-10.660,7.902,-3.014
19:54:37:288,3.302,0.006,-0.002,-0.005,-10.663,7.901,-3.004
19:54:37:472,3.486,0.007,-0.001,-0.009,-10.666,7.910,-2.996
19:54:37:473,3.487,0.012,0.000,-0.008,-10.638,7.623,-2.729
19:54:37:528,3.542,0.002,-0.001,-0.008,-10.626,7.600,-2.674
19:54:37:529,3.543,-0.001,0.001,-0.003,-10.597,7.585,-2.604
19:54:37:53,3.544,0.003,-0.003,-0.007,-10.595,7.574,-2.581
19:54:37:53,3.544,0.004,-0.005,-0.008,-10.599,7.563,-2.571
19:54:37:661,3.675,0.005,-0.003,-0.002,-10.599,7.573,-2.572
19:54:37:661,3.675,0.006,0.001,-0.013,-10.592,7.589,-2.576
19:54:37:661,3.675,0.002,-0.001,-0.006,-10.596,7.610,-2.580
19:54:37:662,3.676,0.005,0.002,-0.002,-10.598,7.648,-2.590
19:54:37:866,3.880,0.004,0.000,-0.006,-10.593,7.691,-2.592
19:54:37:866,3.880,0.007,0.002,-0.011,-10.593,7.691,-2.592
19:54:37:924,3.938,0.010,0.000,-0.005,-10.591,7.652,-2.582
19:54:37:925,3.939,0.003,-0.002,-0.009,-10.594,7.651,-2.573
19:54:37:925,3.939,0.005,-0.003,-0.007,-10.595,7.656,-2.568
19:54:37:925,3.939,0.004,-0.001,-0.007,-10.591,7.657,-2.567
19:54:38:054,4.068,0.006,0.000,-0.004,-10.591,7.657,-2.567
19:54:38:055,4.069,0.006,-0.003,-0.001,-10.591,7.657,-2.567
19:54:38:055,4.069,0.004,0.000,-0.011,-10.592,7.737,-2.581
19:54:38:082,4.096,0.006,0.000,-0.015,-10.622,7.858,-2.662
19:54:38:083,4.097,0.012,0.001,-0.002,-10.630,7.811,-2.655
19:54:38:084,4.098,0.006,-0.001,-0.004,-10.632,7.754,-2.618
19:54:38:085,4.099,0.003,-0.002,-0.011,-10.631,7.786,-2.621
19:54:38:229,4.243,0.004,0.000,-0.005,-10.624,7.824,-2.628
19:54:38:5,4.514,0.005,0.001,-0.007,-10.626,7.850,-2.636
19:54:38:5,4.514,0.005,-0.003,-0.002,-10.626,7.894,-2.641
19:54:38:501,4.515,0.003,-0.002,-0.007,-10.619,7.964,-2.661
19:54:38:502,4.516,0.012,-0.004,-0.001,-10.658,8.027,-2.687
19:54:38:635,4.649,0.004,-0.001,-0.009,-10.675,8.029,-2.684
19:54:38:635,4.649,0.008,0.000,-0.005,-10.684,8.029,-2.687
19:54:38:636,4.650,0.005,0.000,-0.007,-10.689,7.974,-2.673
19:54:38:637,4.651,0.000,0.003,-0.017,-10.743,7.850,-2.506
19:54:38:659,4.673,0.008,-0.004,-0.002,-10.765,7.850,-2.504
19:54:38:659,4.673,0.007,0.000,-0.012,-10.796,7.864,-2.506
19:54:38:659,4.673,0.005,0.000,-0.008,-10.816,7.869,-2.509
19:54:38:66,4.674,0.010,-0.001,-0.014,-10.852,7.828,-2.497
19:54:38:893,4.907,0.008,-0.002,-0.007,-10.871,7.790,-2.474
19:54:38:894,4.908,0.003,0.000,0.000,-10.902,7.790,-2.417
19:54:38:895,4.909,0.004,0.001,-0.010,-10.907,7.784,-2.402
19:54:38:896,4.910,0.009,0.000,0.001,-10.933,7.789,-2.375
19:54:39:001,5.015,0.002,0.001,-0.019,-10.966,7.799,-2.357
19:54:39:001,5.015,-0.002,-0.001,-0.013,-10.990,7.853,-2.340
19:54:39:002,5.016,0.005,0.000,-0.009,-10.993,7.861,-2.331
19:54:39:003,5.017,0.007,-0.003,-0.003,-10.993,7.861,-2.331
19:54:39:025,5.039,0.007,-0.001,-0.011,-10.997,7.873,-2.334
19:54:39:026,5.040,0.002,-0.001,-0.004,-11.003,7.964,-2.351
19:54:39:026,5.040,0.007,0.000,-0.009,-11.116,7.954,-2.334
19:54:39:181,5.195,0.007,-0.006,-0.006,-11.123,7.982,-2.345
19:54:39:182,5.196,0.007,0.003,-0.015,-11.119,8.051,-2.356
19:54:39:182,5.196,0.006,0.003,-0.013,-11.096,8.114,-2.364
19:54:39:208,5.222,0.015,0.001,-0.013,-11.011,8.232,-2.254
19:54:39:209,5.223,0.006,0.005,-0.009,-11.003,8.325,-2.192
19:54:39:21,5.224,0.002,0.002,-0.021,-10.998,8.455,-2.082
19:54:39:211,5.225,0.008,-0.003,-0.015,-10.999,8.497,-1.986
19:54:39:39,5.404,0.008,0.003,-0.017,-10.994,8.546,-1.814
19:54:39:391,5.405,0.007,-0.004,-0.012,-10.991,8.560,-1.682
19:54:39:392,5.406,0.005,-0.002,-0.012,-11.000,8.574,-1.459
19:54:39:42,5.434,0.010,-0.003,-0.004,-11.030,8.578,-1.210
19:54:39:42,5.434,0.006,0.000,-0.016,-11.271,9.001,-0.607
19:54:39:42,5.434,0.014,-0.007,-0.008,-11.447,9.399,-0.283
19:54:39:421,5.435,0.027,-0.006,0.001,-11.653,9.699,0.134
19:54:39:57,5.584,0.024,0.004,0.005,-11.819,9.976,0.414
19:54:39:571,5.585,-0.017,0.001,-0.027,-12.134,10.543,0.853
19:54:39:735,5.749,-0.033,0.013,-0.038,-12.322,10.813,1.163
19:54:39:736,5.750,0.017,-0.015,-0.014,-12.543,10.932,1.658
19:54:39:737,5.751,-0.048,0.017,0.018,-12.699,11.041,1.966
19:54:39:737,5.751,-0.091,0.015,0.001,-12.993,11.090,2.332
19:54:39:786,5.800,-0.019,0.023,-0.034,-13.292,10.462,2.598
19:54:39:786,5.801,0.016,0.013,-0.078,-13.459,10.017,2.688
19:54:39:787,5.802,-0.005,0.020,-0.051,-13.577,9.634,2.769
19:54:39:788,5.802,0.028,0.015,-0.050,-13.549,9.225,2.890
19:54:39:867,5.881,0.086,-0.013,-0.014,-13.274,8.437,3.278
19:54:39:868,5.882,0.021,0.001,-0.023,-12.899,8.029,3.917
19:54:39:868,5.882,0.013,0.008,-0.031,-12.625,7.975,4.405
19:54:39:869,5.883,0.023,-0.007,-0.006,-12.157,7.830,5.230
19:54:39:915,5.929,0.013,0.011,-0.033,-11.841,7.782,5.823
19:54:39:915,5.929,-0.018,0.009,0.025,-10.958,7.724,7.748
19:54:39:916,5.930,-0.002,0.024,0.027,-10.672,7.673,8.399
19:54:39:965,5.979,-0.035,0.059,0.020,-10.271,7.568,9.268
19:54:39:966,5.980,0.006,0.046,-0.031,-9.983,7.421,9.784
19:54:40:017,6.031,0.064,0.034,-0.038,-9.434,7.149,10.545
19:54:40:018,6.032,0.090,0.063,-0.033,-8.978,6.999,11.161
19:54:40:155,6.169,0.114,0.141,-0.019,-8.156,6.792,12.347
19:54:40:155,6.169,0.154,0.220,-0.035,-7.529,6.669,13.308
19:54:40:156,6.170,0.215,0.182,-0.056,-6.370,6.255,15.016
19:54:40:156,6.170,0.556,0.370,-0.391,6.879,1.199,31.999
19:54:40:181,6.195,0.752,0.220,-0.459,8.849,0.450,35.340
19:54:40:181,6.195,0.615,0.108,-0.385,11.045,0.499,40.112
19:54:40:182,6.196,0.429,-0.413,-0.406,12.614,-0.061,42.627
19:54:40:182,6.196,0.494,-0.518,-0.073,15.506,-0.797,45.002
19:54:40:254,6.268,0.317,-0.739,-0.112,17.976,-2.344,45.713
19:54:40:255,6.269,0.319,-0.958,0.010,18.630,-3.470,45.190
19:54:40:285,6.299,0.249,-0.854,0.096,18.212,-5.080,42.776
19:54:40:286,6.300,0.037,-0.575,-0.004,16.934,-5.879,40.347
19:54:40:724,6.739,0.129,-0.529,-0.040,14.150,-7.135,35.700
19:54:40:757,6.771,0.265,-0.487,0.020,10.407,-8.121,30.176
19:54:40:758,6.772,0.274,-0.287,0.066,7.527,-8.209,26.031
19:54:40:759,6.773,0.180,-0.121,-0.001,3.405,-7.830,19.260
19:54:40:759,6.773,0.098,0.014,0.016,0.751,-7.300,14.436
19:54:41:02,7.034,0.019,0.282,0.019,-3.117,-6.134,6.649
19:54:41:021,7.035,-0.063,0.650,0.038,-6.793,-4.714,-1.798
19:54:41:021,7.035,-0.357,0.817,0.053,-9.227,-3.089,-7.654
19:54:41:022,7.036,-0.950,0.698,0.152,-12.947,0.756,-16.356
19:54:41:124,7.138,-1.316,0.440,0.575,-15.365,3.471,-21.537
19:54:41:125,7.139,-2.130,-0.329,0.424,-18.015,6.958,-27.711
19:54:41:125,7.139,-1.737,-0.757,0.321,-18.966,8.035,-29.441
19:54:41:363,7.377,0.507,0.532,-0.370,-17.927,8.639,-27.291
19:54:41:363,7.377,-0.701,-0.027,0.725,-16.862,8.594,-25.163
19:54:41:363,7.377,-0.503,0.207,0.609,-15.532,9.603,-23.287
19:54:41:364,7.378,-0.639,0.231,0.101,-14.316,10.886,-19.904
19:54:41:413,7.427,-0.109,-0.054,-0.075,-13.886,11.851,-17.491
19:54:41:414,7.428,-0.316,-0.021,-0.145,-13.731,13.691,-14.327
19:54:41:415,7.429,-0.119,-0.082,0.119,-13.537,14.066,-11.760
19:54:41:416,7.430,-0.080,0.005,0.100,-13.305,13.543,-10.239
19:54:41:434,7.448,-0.008,0.002,0.058,-13.311,13.012,-8.426
19:54:41:434,7.448,-0.006,-0.015,0.022,-13.530,13.183,-7.562
19:54:41:466,7.480,0.058,0.000,-0.042,-13.634,7.425,0.769
19:54:41:467,7.481,0.008,0.000,-0.001,-13.197,8.039,1.991
19:54:41:468,7.482,0.061,0.015,-0.025,-12.427,7.454,3.950
19:54:41:52,7.534,-0.006,0.085,-0.017,-10.928,7.887,7.462
19:54:41:521,7.535,0.681,0.390,-0.178,-2.626,8.236,20.429
19:54:41:522,7.536,0.823,0.372,-0.322,0.523,7.907,24.477
19:54:41:522,7.536,1.121,0.110,-0.566,4.341,7.064,29.206
19:54:41:598,7.612,0.860,0.148,-0.593,7.589,5.987,32.544
19:54:41:599,7.613,0.585,0.296,-0.745,10.582,6.551,38.255
19:54:41:599,7.613,0.339,-0.119,-0.592,11.820,7.761,41.773
19:54:41:6,7.614,0.280,-0.973,-0.241,19.167,6.344,46.768
19:54:41:653,7.667,0.451,-0.527,-0.088,7.587,-2.179,24.908
19:54:41:653,7.667,0.464,-0.098,0.078,2.814,-5.198,16.068
19:54:41:654,7.668,0.411,0.184,0.128,-0.702,-6.967,9.814
19:54:41:655,7.669,-0.049,1.062,0.474,-6.517,-8.109,-0.027
19:54:41:706,7.720,-0.935,1.358,0.577,-10.560,-7.122,-6.884
19:54:41:706,7.720,-1.494,0.998,0.686,-15.643,-2.759,-17.017
19:54:41:706,7.720,-2.338,-0.163,0.482,-18.323,4.615,-25.450
19:54:41:706,7.720,-2.547,-0.655,1.051,-18.681,9.678,-28.710
19:54:41:73,7.744,1.036,0.770,-0.101,-17.104,13.753,-27.675
19:54:41:731,7.745,-1.050,0.116,1.167,-15.406,16.256,-26.398
19:54:41:732,7.746,-1.251,-0.048,-0.087,-13.274,18.590,-23.149
19:54:41:75,7.764,-0.221,-0.166,0.076,-12.565,20.196,-16.130
19:54:41:773,7.787,-0.202,-0.211,0.089,-12.830,20.547,-12.577
19:54:41:805,7.819,-0.108,-0.026,0.126,-12.669,19.971,-10.616
19:54:41:806,7.820,0.008,-0.043,0.055,-12.539,18.771,-8.166
19:54:41:807,7.821,-0.034,0.071,0.126,-12.704,18.400,-6.854
19:54:41:883,7.897,-0.170,0.016,-0.145,-13.274,18.225,-5.396
19:54:41:884,7.898,0.001,0.021,-0.077,-13.470,17.663,-4.375
19:54:41:885,7.899,0.037,0.028,-0.023,-13.374,17.032,-3.657
19:54:41:903,7.917,0.044,0.017,-0.099,-13.087,16.234,-2.387
19:54:41:931,7.945,-0.006,0.012,-0.090,-12.774,15.815,-1.392
19:54:41:956,7.970,0.037,0.030,-0.031,-12.085,15.371,0.289
19:54:41:981,7.995,0.038,0.033,-0.001,-11.204,15.017,2.041
19:54:42:008,8.022,0.023,0.015,0.044,-10.640,14.830,3.204
19:54:42:034,8.048,0.016,0.008,0.025,-9.821,14.541,4.962
19:54:42:089,8.103,-0.040,0.024,0.005,-9.277,15.146,6.104
19:54:42:09,8.104,-0.006,0.053,-0.024,-8.492,14.774,7.773
19:54:42:117,8.131,0.034,0.103,-0.032,-7.947,15.023,8.846
19:54:42:14,8.154,0.082,0.119,-0.023,-7.050,14.359,10.429
19:54:42:165,8.179,0.203,0.123,-0.036,-5.957,14.371,12.150
19:54:42:385,8.399,0.223,0.159,-0.032,-5.067,14.124,13.460
19:54:42:386,8.400,0.283,0.229,-0.112,-3.394,14.422,15.834
19:54:42:387,8.402,0.413,0.391,-0.305,-1.962,14.396,17.753
19:54:42:388,8.402,0.514,0.427,-0.394,0.812,14.703,21.167
19:54:42:439,8.453,0.880,0.334,-0.691,4.622,14.174,25.202
19:54:42:44,8.454,1.205,0.094,-0.707,7.670,13.209,28.215
19:54:42:44,8.454,0.590,0.424,-0.775,11.617,12.704,33.503
19:54:42:441,8.455,0.470,0.155,-0.794,12.616,14.572,37.757
19:54:42:489,8.503,0.226,-0.326,-0.585,14.384,17.244,43.204
19:54:42:49,8.504,0.093,-0.379,-0.055,16.811,18.358,46.328
19:54:42:492,8.506,0.103,-0.826,-0.284,18.943,18.346,47.462
19:54:42:492,8.506,0.230,-1.067,-0.160,19.702,18.664,47.705
19:54:42:509,8.523,0.165,-1.020,-0.132,19.405,18.931,46.743
19:54:42:594,8.608,-0.004,-0.800,-0.182,17.450,19.858,43.739
19:54:42:595,8.609,-0.051,-0.682,-0.277,15.582,20.578,40.801
19:54:42:595,8.609,-0.010,-0.608,-0.321,12.496,21.352,35.025
19:54:42:596,8.611,0.038,-0.434,-0.339,9.203,22.049,27.917
19:54:42:642,8.656,0.056,-0.282,-0.360,7.062,22.538,22.514
19:54:42:696,8.710,-0.044,0.060,-0.378,3.761,23.396,13.524
19:54:42:697,8.711,-0.024,0.537,-0.340,1.483,24.309,7.194
19:54:42:697,8.711,-0.239,0.826,-0.230,-2.311,26.953,-2.609
19:54:42:746,8.760,-0.831,1.315,0.162,-6.237,32.292,-12.685
19:54:42:746,8.760,-1.341,1.057,1.001,-8.791,37.447,-19.091
19:54:42:769,8.783,-1.307,0.154,1.206,-11.973,44.824,-27.078
19:54:42:798,8.812,-1.601,-0.773,2.283,-13.136,47.731,-29.597
19:54:42:877,8.891,-0.900,-0.249,0.991,-12.890,49.983,-28.692
19:54:43:006,9.020,0.427,0.476,0.650,-11.554,52.036,-25.695
19:54:43:041,9.055,2.419,0.836,-1.710,-9.357,54.961,-21.725
19:54:43:042,9.056,0.168,0.078,0.860,-7.524,60.236,-18.743
19:54:43:042,9.056,-0.938,-0.048,0.384,-6.868,63.140,-16.372
19:54:43:044,9.058,0.152,0.076,0.301,-7.488,65.151,-13.072
19:54:43:066,9.080,-0.343,0.044,-0.140,-8.318,67.028,-10.740
19:54:43:067,9.081,-0.231,-0.112,0.227,-9.106,67.885,-7.854
19:54:43:069,9.083,-0.078,-0.009,-0.029,-8.995,66.598,-5.257
19:54:43:069,9.083,0.142,0.050,-0.008,-8.990,66.270,-3.739
19:54:43:198,9.212,0.039,0.017,-0.107,-9.016,66.957,-1.717
19:54:43:199,9.213,-0.182,0.031,0.017,-8.892,67.714,-0.494
19:54:43:212,9.226,-0.066,0.005,-0.032,-8.244,67.842,1.211
19:54:43:213,9.227,0.152,-0.013,0.026,-7.626,67.853,2.640
19:54:43:216,9.230,0.109,-0.006,0.041,-7.471,68.051,3.414
19:54:43:245,9.259,-0.041,-0.002,0.038,-7.466,68.192,4.383
19:54:43:245,9.259,-0.024,0.023,0.009,-7.449,67.895,4.988
19:54:43:268,9.282,0.071,-0.037,-0.151,-7.256,67.040,5.988
19:54:43:324,9.338,-0.028,0.024,-0.053,-7.086,66.777,6.673
19:54:43:324,9.338,-0.003,0.019,-0.127,-6.603,66.234,7.818
19:54:43:405,9.419,-0.048,0.050,-0.081,-6.048,66.857,8.937
19:54:43:405,9.419,-0.056,0.073,-0.091,-5.476,66.565,9.805
19:54:43:406,9.420,0.058,0.163,-0.132,-4.381,66.789,11.228
19:54:43:454,9.468,0.061,0.205,-0.266,-3.474,66.428,12.370
19:54:43:455,9.469,0.123,0.301,-0.291,-1.736,66.650,14.474
19:54:43:478,9.492,0.118,0.414,-0.528,0.971,66.337,17.202
19:54:43:507,9.522,-0.027,0.407,-0.715,3.335,66.779,19.433
19:54:43:53,9.544,-0.112,0.385,-1.141,7.515,67.058,23.628
19:54:43:586,9.600,-0.036,0.240,-1.513,10.568,67.307,27.060
19:54:43:586,9.600,-0.060,-0.010,-1.393,14.865,68.169,32.929
19:54:43:641,9.655,-0.488,0.301,-1.121,16.958,70.201,37.209
19:54:43:641,9.655,-0.646,-0.152,-0.693,18.572,74.468,43.047
19:54:43:749,9.763,0.131,-0.854,-0.945,21.457,76.374,46.214
19:54:43:75,9.764,-0.165,-0.910,-0.397,23.423,76.562,47.395
19:54:43:751,9.765,-0.317,-1.002,-0.385,22.862,77.882,47.127
19:54:43:752,9.766,-0.069,-0.969,-0.288,21.699,78.020,45.568
19:54:43:825,9.839,-0.168,-0.857,-0.214,18.209,78.867,41.683
19:54:43:826,9.840,-0.284,-0.752,-0.208,13.916,79.412,35.850
19:54:43:847,9.861,-0.223,-0.431,-0.380,6.421,79.763,22.447
19:54:43:873,9.887,-0.300,0.054,-0.261,3.387,80.091,16.066
19:54:43:898,9.913,-0.200,0.509,-0.044,-1.297,80.424,5.617
19:54:43:924,9.938,-0.068,1.182,0.528,-6.407,81.917,-4.886
19:54:44:01,10.024,-0.003,1.268,1.339,-9.972,85.169,-11.614
19:54:44:01,10.024,0.652,0.760,1.908,-14.664,90.562,-20.714
19:54:44:01,10.024,0.278,-0.177,2.452,-16.541,93.816,-25.247
19:54:44:031,10.045,0.772,-0.669,2.432,-17.617,97.993,-27.963
19:54:44:057,10.071,1.270,-0.155,1.207,-17.214,99.017,-26.498
19:54:44:111,10.125,0.751,-0.301,0.971,-14.777,101.443,-23.953
19:54:44:112,10.126,-0.312,0.010,1.046,-12.967,103.962,-20.039
19:54:44:165,10.179,0.433,0.302,1.181,-12.734,105.112,-17.626
19:54:44:166,10.180,-0.035,-0.110,0.431,-13.274,107.228,-13.699
19:54:44:215,10.229,0.084,-0.247,0.110,-13.632,107.837,-11.708
19:54:44:216,10.230,0.081,0.022,0.152,-13.585,106.918,-9.075
19:54:44:24,10.254,0.090,0.015,0.021,-13.552,105.733,-7.146
19:54:44:268,10.282,0.071,0.025,-0.018,-13.800,105.438,-6.231
19:54:44:291,10.305,0.016,0.047,0.061,-14.376,105.719,-5.312
19:54:44:318,10.332,-0.134,-0.001,0.063,-14.588,105.034,-4.467
19:54:44:374,10.388,-0.095,-0.052,-0.061,-14.543,102.759,-2.908
19:54:44:374,10.388,-0.002,-0.006,-0.215,-14.270,100.540,-1.195
19:54:44:426,10.440,-0.060,-0.005,-0.150,-13.959,99.553,0.074
19:54:44:427,10.441,-0.115,-0.004,-0.200,-13.285,98.786,2.256
19:54:44:449,10.463,0.016,0.052,-0.029,-12.782,98.930,3.769
19:54:44:476,10.490,0.024,0.062,0.005,-11.976,99.257,5.965
19:54:44:502,10.516,-0.025,0.022,-0.102,-11.105,99.162,8.163
19:54:44:528,10.542,0.063,0.089,0.010,-10.539,99.413,9.604
19:54:44:555,10.569,-0.013,0.106,-0.040,-9.619,99.041,11.677
19:54:44:612,10.626,-0.068,0.125,-0.135,-8.844,99.033,13.040
19:54:44:612,10.626,-0.036,0.256,-0.303,-7.338,98.257,15.240
19:54:44:691,10.705,-0.079,0.343,-0.466,-6.049,98.057,17.006
19:54:44:692,10.706,-0.156,0.412,-0.592,-3.139,97.240,20.238
19:54:44:693,10.707,-0.529,0.471,-0.969,0.825,96.809,24.319
19:54:44:796,10.811,-0.671,0.309,-1.241,3.807,96.491,27.650
19:54:44:797,10.811,-0.811,-0.060,-1.429,8.256,96.061,33.538
19:54:44:822,10.836,-0.799,0.620,-0.755,9.952,97.054,38.046
19:54:44:823,10.837,-0.869,0.312,-0.839,11.458,100.055,44.651
19:54:44:825,10.839,-0.672,-0.910,-0.808,14.684,100.706,49.012
19:54:44:873,10.887,-0.389,-0.504,0.166,17.835,100.195,50.408
19:54:44:873,10.887,-0.363,-1.060,-0.198,19.438,99.585,51.178
19:54:44:957,10.971,-0.011,-1.257,-0.216,19.771,99.022,50.155
19:54:44:957,10.971,-0.056,-1.032,-0.110,17.746,98.768,46.890
19:54:44:958,10.972,-0.143,-0.950,-0.086,15.356,98.697,43.734
19:54:44:959,10.973,-0.224,-0.909,-0.209,11.117,98.434,37.442
19:54:44:975,10.989,-0.328,-0.692,-0.263,6.312,98.455,29.516
19:54:45:,11.014,-0.320,-0.483,-0.302,3.055,98.609,23.394
19:54:45:028,11.042,-0.364,0.141,-0.147,-1.730,98.781,12.966
19:54:45:083,11.097,-0.113,1.075,0.000,-5.000,98.448,5.316
19:54:45:11,11.124,0.157,1.513,0.663,-10.723,99.152,-6.204
19:54:45:11,11.124,1.491,1.293,1.787,-17.259,100.653,-16.671
19:54:45:16,11.174,1.553,0.463,1.735,-20.985,100.567,-21.820
19:54:45:161,11.175,1.268,-0.649,2.976,-24.056,102.938,-26.156
19:54:45:185,11.199,1.383,0.180,-0.114,-24.504,103.267,-25.329
19:54:45:213,11.227,-0.627,1.443,-3.214,-22.348,105.289,-22.351
19:54:45:239,11.253,0.591,0.327,0.640,-19.779,108.090,-19.713
19:54:45:264,11.278,0.380,0.258,0.970,-18.773,109.444,-17.443
19:54:45:289,11.303,-0.109,-0.245,0.284,-18.134,112.773,-13.648
19:54:45:315,11.329,0.462,0.046,0.449,-18.048,114.762,-11.904
19:54:45:342,11.356,0.101,0.069,0.073,-17.433,113.310,-8.799
19:54:45:456,11.470,0.034,-0.038,-0.013,-17.116,111.777,-6.999
19:54:45:457,11.471,0.012,-0.012,-0.063,-17.053,110.692,-5.218
19:54:45:458,11.472,0.043,0.013,0.104,-17.353,110.942,-4.195
19:54:45:474,11.488,-0.156,-0.029,-0.099,-17.070,107.980,-1.522
19:54:45:53,11.544,0.019,-0.010,-0.210,-16.549,106.334,-0.304
19:54:45:53,11.544,-0.076,0.025,-0.104,-15.773,104.756,1.448
19:54:45:612,11.626,-0.096,-0.015,-0.170,-14.872,103.890,3.511
19:54:45:613,11.627,0.046,0.056,-0.053,-14.240,103.919,4.905
19:54:45:614,11.628,0.070,0.054,0.002,-13.333,103.879,7.012
19:54:45:631,11.645,0.027,0.041,-0.032,-12.693,103.619,8.376
19:54:45:657,11.671,0.045,0.090,-0.050,-11.647,103.173,10.309
19:54:45:683,11.697,-0.092,0.080,-0.175,-10.883,102.777,11.616
19:54:45:711,11.725,-0.045,0.231,-0.225,-9.451,102.392,13.766
19:54:45:736,11.750,0.011,0.250,-0.440,-7.637,102.171,16.405
19:54:45:794,11.808,-0.119,0.316,-0.426,-6.157,102.112,18.553
19:54:45:794,11.808,-0.301,0.422,-0.640,-3.344,102.175,22.379
19:54:45:816,11.830,-0.585,0.405,-0.730,-0.973,102.162,25.300
19:54:45:84,11.854,-0.787,0.267,-1.412,3.427,101.543,30.409
19:54:45:866,11.880,-0.879,0.175,-1.083,7.992,101.330,36.284
19:54:45:919,11.934,-0.892,0.762,-0.602,8.991,103.281,40.684
19:54:45:949,11.963,-0.946,0.161,-0.405,11.781,105.293,46.473
19:54:45:95,11.964,-0.173,-0.345,-0.189,14.640,105.039,49.011
19:54:45:976,11.990,-0.319,-0.939,-0.194,19.807,103.473,50.774
19:54:45:999,12.013,-0.135,-1.186,-0.270,21.271,101.708,50.156
19:54:46:025,12.039,0.041,-1.228,-0.219,21.088,100.303,48.261
19:54:46:11,12.125,-0.014,-1.024,-0.114,18.180,98.544,43.876
19:54:46:111,12.126,-0.119,-0.999,-0.174,15.217,97.334,40.018
19:54:46:112,12.127,-0.189,-0.848,-0.332,9.791,95.842,32.939
19:54:46:245,12.259,-0.199,-0.605,-0.335,5.771,95.375,27.451
19:54:46:246,12.260,-0.233,-0.138,-0.282,-0.149,95.354,17.926
19:54:46:246,12.260,0.011,0.665,-0.141,-5.710,95.084,6.842
19:54:46:247,12.261,0.175,1.234,0.218,-9.597,95.405,-0.935
19:54:46:265,12.279,0.807,1.818,1.582,-15.463,98.155,-12.766
19:54:46:266,12.280,1.306,1.393,1.918,-19.468,99.717,-19.796
19:54:46:347,12.361,1.063,-0.621,3.170,-24.254,101.582,-26.865
19:54:46:348,12.362,0.928,-0.203,1.051,-25.815,101.011,-26.347
19:54:46:349,12.363,0.099,0.869,-0.933,-24.241,101.941,-23.275
19:54:46:366,12.380,1.244,-0.535,0.709,-21.965,103.699,-20.325
19:54:46:42,12.434,-0.283,0.005,1.240,-19.670,107.950,-18.544
19:54:46:421,12.435,0.807,0.579,0.637,-18.504,110.602,-15.043
19:54:46:445,12.459,0.178,0.093,0.757,-18.368,113.178,-12.735
19:54:46:473,12.487,0.202,-0.195,0.135,-17.849,113.604,-9.629
19:54:46:497,12.511,0.172,0.013,0.091,-16.792,111.035,-6.514
19:54:46:553,12.567,0.064,-0.092,-0.099,-16.465,109.587,-4.912
19:54:46:554,12.568,0.026,0.016,-0.001,-16.480,109.516,-3.541
19:54:46:577,12.591,0.009,-0.003,0.032,-16.700,109.860,-2.808
19:54:46:602,12.616,-0.017,0.044,0.202,-16.562,109.043,-1.627
19:54:46:628,12.642,0.079,0.001,-0.192,-16.150,106.570,-0.138
19:54:46:654,12.668,-0.077,0.021,-0.146,-15.932,105.448,0.829
19:54:46:738,12.752,-0.153,-0.014,-0.142,-15.315,104.100,2.451
19:54:46:739,12.753,-0.024,0.020,-0.186,-14.690,103.490,3.745
19:54:46:763,12.777,0.050,0.057,-0.091,-13.744,103.778,5.827
19:54:46:763,12.777,0.003,0.045,0.034,-12.823,104.151,7.964
19:54:46:785,12.799,-0.008,0.059,0.008,-12.098,104.000,9.373
19:54:46:812,12.826,-0.002,0.103,-0.091,-10.809,103.421,11.466
19:54:46:837,12.852,-0.068,0.208,-0.257,-9.830,102.982,12.937
19:54:46:892,12.906,-0.025,0.276,-0.333,-8.139,102.416,15.423
19:54:46:948,12.962,-0.055,0.335,-0.428,-6.799,102.194,17.384
19:54:46:949,12.963,-0.125,0.390,-0.578,-4.188,101.963,20.886
19:54:46:95,12.964,-0.654,0.443,-0.793,-0.737,101.911,25.216
19:54:47:027,13.041,-0.698,0.485,-1.049,1.938,101.590,28.677
19:54:47:028,13.042,-1.125,0.068,-1.303,7.199,100.012,34.299
19:54:47:029,13.043,-0.837,0.295,-0.956,10.552,99.226,38.257
19:54:47:103,13.117,-0.895,0.168,-0.790,13.458,100.858,44.280
19:54:47:132,13.146,-0.504,-1.034,-0.854,17.528,100.164,48.110
19:54:47:135,13.149,-0.255,-0.306,0.423,21.328,98.773,48.798
19:54:47:157,13.171,0.156,-1.332,-0.399,24.037,93.664,47.210
19:54:47:157,13.171,0.122,-1.048,-0.314,21.349,91.682,43.141
19:54:47:181,13.195,-0.054,-0.908,-0.181,18.266,90.705,39.601
19:54:47:235,13.249,-0.153,-0.796,-0.293,13.075,89.058,32.823
19:54:47:235,13.249,-0.150,-0.576,-0.416,7.463,87.320,24.522
19:54:47:348,13.362,-0.014,-0.197,-0.476,3.586,86.207,18.346
19:54:47:349,13.363,0.099,0.446,-0.268,-2.459,85.302,8.483
19:54:47:35,13.364,0.347,1.203,-0.096,-6.586,85.737,1.436
19:54:47:35,13.364,0.508,1.657,0.817,-12.535,89.888,-9.611
19:54:47:363,13.377,0.553,0.955,2.049,-16.916,97.679,-20.999
19:54:47:479,13.493,0.529,0.063,2.806,-18.780,103.272,-27.348
19:54:47:48,13.494,1.147,-1.178,2.426,-20.800,107.699,-31.500
19:54:47:481,13.495,-0.120,1.141,-1.090,-20.189,107.866,-29.495
19:54:47:482,13.496,0.516,0.965,-3.235,-17.704,109.431,-25.690
19:54:47:495,13.509,0.517,0.202,0.441,-15.108,111.990,-22.337
19:54:47:52,13.534,-0.263,0.070,1.404,-13.754,113.993,-19.688
19:54:47:606,13.620,-0.129,-0.189,-0.176,-13.651,115.066,-15.534
19:54:47:606,13.620,-0.100,0.137,0.226,-14.073,116.961,-13.265
19:54:47:607,13.621,0.226,-0.149,0.136,-14.173,117.894,-10.740
19:54:47:627,13.641,0.126,0.054,0.088,-13.931,117.570,-9.333
19:54:47:657,13.671,0.129,-0.005,0.006,-13.720,116.714,-7.691
19:54:47:678,13.692,0.050,0.034,-0.050,-13.944,116.050,-6.518
19:54:47:731,13.745,-0.009,0.003,0.003,-14.278,116.010,-5.938
19:54:47:79,13.804,-0.092,-0.002,0.082,-14.653,115.445,-4.982
19:54:47:79,13.804,-0.090,-0.042,0.016,-14.586,114.104,-4.091
19:54:47:791,13.805,-0.007,-0.038,-0.235,-14.301,111.824,-2.629
19:54:47:81,13.824,-0.104,0.004,-0.042,-13.960,110.925,-1.255
19:54:47:865,13.879,-0.053,0.008,-0.064,-13.635,110.720,-0.271
19:54:47:866,13.880,0.013,0.010,-0.134,-12.998,110.371,1.451
19:54:47:89,13.904,-0.057,0.031,-0.016,-12.582,110.409,2.714
19:54:47:945,13.959,0.019,0.005,-0.028,-11.838,110.889,4.627
19:54:47:945,13.959,-0.058,0.070,-0.058,-11.171,111.067,5.953
19:54:47:997,14.011,-0.070,0.085,-0.066,-9.921,111.129,8.050
19:54:48:051,14.065,-0.046,0.142,-0.045,-8.519,111.180,10.296
19:54:48:052,14.066,-0.027,0.185,-0.137,-7.458,111.037,11.933
19:54:48:052,14.066,-0.039,0.336,-0.327,-5.763,110.675,14.684
19:54:48:186,14.200,-0.102,0.403,-0.469,-4.543,110.333,16.798
19:54:48:187,14.201,-0.414,0.537,-0.649,-2.147,109.927,20.577
19:54:48:188,14.202,-0.647,0.595,-1.052,1.568,109.265,25.266
19:54:48:189,14.203,-0.957,0.271,-1.328,4.931,108.558,28.903
19:54:48:206,14.220,-0.830,0.354,-0.594,9.589,108.317,34.797
19:54:48:206,14.220,-0.881,0.069,-0.488,11.622,109.799,38.908
19:54:48:287,14.301,-0.706,-0.189,0.053,13.432,112.997,44.048
19:54:48:289,14.303,-0.032,-0.318,0.378,16.433,113.438,46.710
19:54:48:29,14.304,-0.415,-0.955,-0.077,18.643,112.962,47.612
19:54:48:308,14.322,-0.316,-1.187,-0.249,18.902,112.508,46.875
19:54:48:364,14.378,-0.104,-0.995,-0.138,18.376,111.659,44.904
19:54:48:364,14.378,-0.126,-0.846,-0.075,15.789,111.642,40.399
19:54:48:388,14.402,-0.294,-0.751,-0.025,13.528,111.492,36.459
19:54:48:442,14.456,-0.381,-0.671,-0.200,9.749,110.982,29.179
19:54:48:442,14.456,-0.370,-0.348,-0.193,5.295,111.011,20.720
19:54:48:496,14.510,-0.385,0.014,-0.094,2.246,111.344,14.446
19:54:48:497,14.511,-0.207,0.748,-0.001,-2.517,112.177,4.231
19:54:48:578,14.592,-0.052,1.097,0.250,-5.864,113.684,-2.729
19:54:48:578,14.592,0.592,1.469,0.926,-10.930,119.261,-13.291
19:54:48:579,14.593,1.212,0.596,1.279,-15.332,126.516,-23.113
19:54:48:597,14.611,1.484,-0.204,1.922,-17.084,131.179,-28.220
19:54:48:624,14.638,1.572,-0.939,1.386,-18.223,135.874,-31.545
19:54:48:649,14.663,0.858,0.411,0.183,-17.720,136.935,-30.138
19:54:48:676,14.690,-0.329,0.795,-1.011,-15.710,138.273,-25.455
19:54:48:703,14.718,1.189,-0.337,0.130,-14.155,139.420,-22.941
19:54:48:869,14.883,0.959,0.002,-0.097,-12.285,142.810,-20.001
19:54:48:871,14.885,1.156,0.453,0.380,-11.255,145.647,-17.084
19:54:48:871,14.885,-0.178,-0.001,0.106,-11.573,146.091,-14.945
19:54:48:872,14.886,-0.026,0.145,0.110,-12.442,148.307,-12.183
19:54:49:043,15.057,-0.049,-0.018,0.030,-12.643,148.597,-10.662
19:54:49:074,15.088,0.045,0.009,0.028,-12.572,147.615,-8.716
19:54:49:074,15.088,-0.049,-0.012,-0.011,-12.490,146.761,-7.217
19:54:49:128,15.142,0.030,0.013,-0.060,-12.538,146.916,-6.506
19:54:49:129,15.143,0.079,0.028,0.053,-12.673,147.565,-5.667
19:54:49:15,15.164,-0.001,0.023,0.071,-12.717,147.414,-5.004
19:54:49:183,15.197,-0.043,-0.033,-0.039,-12.445,146.079,-3.721
19:54:49:184,15.198,-0.049,-0.016,-0.096,-12.053,144.738,-2.348
19:54:49:185,15.199,-0.031,0.018,-0.056,-11.818,144.384,-1.559
19:54:49:186,15.200,-0.049,0.004,0.039,-11.372,144.052,-0.371
19:54:49:26,15.274,-0.091,-0.007,-0.053,-10.983,142.895,0.595
19:54:49:289,15.304,-0.024,0.012,-0.017,-10.274,142.411,2.120
19:54:49:289,15.304,-0.164,0.011,-0.150,-9.750,141.959,3.175
19:54:49:29,15.304,0.109,0.090,-0.040,-8.974,142.073,4.854
19:54:49:291,15.305,-0.059,0.074,-0.001,-8.117,141.981,6.476
19:54:49:312,15.326,-0.120,0.126,-0.041,-7.320,141.758,7.631
19:54:49:313,15.327,-0.226,0.186,-0.094,-5.424,140.852,9.701
19:54:49:313,15.327,-0.221,0.299,-0.117,-3.697,140.558,11.353
19:54:49:369,15.383,-0.350,0.429,-0.268,-0.808,140.028,14.238
19:54:49:369,15.383,-0.700,0.530,-0.234,2.605,139.891,17.718
19:54:49:369,15.383,-1.047,0.563,-0.468,5.161,140.052,20.529
19:54:49:369,15.383,-1.623,0.222,-0.416,9.454,140.710,25.820
19:54:49:437,15.451,-1.194,0.309,-0.089,12.414,141.601,29.986
19:54:49:475,15.490,-1.179,0.250,0.228,15.309,144.958,36.807
19:54:49:476,15.490,-0.670,-0.248,0.391,16.585,150.114,42.451
19:54:49:477,15.491,-0.739,-0.805,0.007,17.320,152.420,44.921
19:54:49:517,15.531,-0.338,-1.026,0.354,18.250,154.821,47.154
19:54:49:576,15.590,-0.447,-1.035,0.466,17.145,156.655,47.357
19:54:49:577,15.591,-0.230,-1.120,0.124,15.926,158.523,45.276
19:54:49:577,15.591,-0.126,-0.807,0.399,14.270,160.302,42.585
19:54:49:623,15.637,-0.225,-0.777,0.448,11.292,163.046,37.077
19:54:49:624,15.638,-0.262,-0.625,0.589,7.689,166.100,30.077
19:54:49:657,15.672,-0.304,-0.515,0.618,5.312,168.271,24.571
19:54:49:732,15.746,-0.041,-0.162,0.761,1.782,171.518,15.201
19:54:49:736,15.750,0.703,0.971,0.559,-4.566,174.195,-2.841
19:54:49:752,15.766,1.298,1.195,0.088,-9.863,176.202,-13.133
19:54:49:832,15.846,1.761,0.946,-0.576,-13.845,177.903,-19.213
19:54:49:863,15.877,2.139,-0.175,-0.206,-18.894,179.848,-26.362
19:54:49:864,15.878,2.244,-0.743,-0.691,-20.911,-178.020,-29.234
19:54:49:886,15.900,1.367,-0.172,-1.087,-22.563,-177.178,-29.021
19:54:49:887,15.901,-2.622,0.610,-1.422,-21.911,-176.798,-26.673
19:54:49:909,15.923,1.278,-0.119,-1.058,-19.473,-173.975,-24.824
19:54:49:935,15.949,1.201,0.131,0.183,-16.849,-170.032,-21.660
19:54:49:992,16.006,0.163,0.093,-0.178,-16.297,-167.976,-19.469
19:54:49:993,16.007,0.967,-0.051,0.096,-16.102,-163.969,-16.283
19:54:50:014,16.028,0.149,-0.189,-0.057,-15.877,-164.428,-14.355
19:54:50:041,16.055,0.001,-0.057,-0.166,-15.363,-167.215,-11.544
19:54:50:154,16.168,-0.020,0.021,-0.207,-15.270,-167.693,-10.026
19:54:50:155,16.169,-0.002,-0.016,-0.037,-15.518,-166.398,-9.691
19:54:50:155,16.169,0.208,0.037,0.125,-16.080,-164.059,-9.566
19:54:50:156,16.170,0.073,0.015,0.081,-16.274,-163.787,-9.244
19:54:50:252,16.266,-0.118,0.039,0.094,-16.300,-165.451,-8.074
19:54:50:286,16.300,-0.055,0.022,0.049,-15.859,-167.736,-6.013
19:54:50:287,16.301,0.042,0.011,0.020,-15.190,-168.876,-4.458
19:54:50:288,16.302,-0.084,-0.020,0.101,-13.986,-170.651,-1.874
19:54:50:288,16.302,-0.226,-0.067,0.035,-13.030,-171.962,0.014
19:54:50:332,16.346,0.038,0.079,-0.081,-11.364,-172.465,2.580
19:54:50:332,16.346,0.067,0.025,0.041,-10.257,-172.335,4.039
19:54:50:415,16.429,-0.044,0.072,0.048,-8.581,-172.957,6.201
19:54:50:415,16.429,-0.166,0.184,-0.007,-6.862,-174.051,8.495
19:54:50:415,16.429,-0.213,0.310,-0.014,-5.636,-174.369,10.251
19:54:50:438,16.452,-0.347,0.380,-0.021,-3.554,-174.899,13.371
19:54:50:549,16.563,-0.661,0.612,0.380,-1.785,-175.009,15.874
19:54:50:549,16.563,-0.983,0.771,0.478,1.453,-174.898,20.592
19:54:50:549,16.563,-1.535,0.653,0.783,5.577,-175.298,26.503
19:54:50:55,16.564,-1.358,0.120,0.705,8.977,-176.025,30.628
19:54:50:653,16.667,-0.592,0.264,0.906,13.284,-175.625,36.686
19:54:50:654,16.668,-0.350,-0.324,0.787,14.797,-173.918,40.512
19:54:50:654,16.668,0.274,-0.256,0.081,17.908,-174.049,43.722
19:54:50:655,16.669,-0.188,-1.116,0.372,20.528,-175.508,44.780
19:54:50:729,16.743,-0.333,-1.266,0.108,21.065,-177.241,44.550
19:54:50:73,16.744,-0.158,-1.064,-0.014,19.378,-178.755,41.924
19:54:50:731,16.745,-0.119,-0.977,0.081,16.930,-179.213,39.386
19:54:50:865,16.879,-0.109,-0.851,0.214,12.314,-179.881,34.185
19:54:50:865,16.879,-0.286,-0.765,0.263,9.101,179.493,29.699
19:54:50:865,16.879,-0.313,-0.493,0.306,4.174,178.710,21.562
19:54:50:866,16.880,-0.335,0.052,0.138,-0.849,177.800,12.110
19:54:50:912,16.926,-0.089,0.594,0.102,-4.302,177.143,5.196
19:54:50:913,16.927,0.369,1.371,-0.218,-10.259,177.320,-5.575
19:54:50:915,16.929,1.559,1.464,-0.840,-14.611,178.903,-12.777
19:54:50:962,16.976,1.753,0.563,-0.955,-20.491,-177.297,-22.455
19:54:51:019,17.033,3.536,-0.926,-0.841,-24.270,-171.642,-29.965
19:54:51:02,17.034,1.891,-0.966,-1.134,-24.437,-169.137,-30.271
19:54:51:021,17.035,-2.721,1.519,0.546,-21.670,-165.486,-26.651
19:54:51:04,17.054,1.114,-0.633,-1.316,-19.884,-162.824,-25.528
19:54:51:122,17.137,0.804,-0.064,-0.682,-16.428,-156.972,-23.082
19:54:51:123,17.137,0.472,0.402,-0.706,-15.782,-154.889,-19.250
19:54:51:124,17.138,0.187,0.112,0.148,-15.802,-152.493,-16.624
19:54:51:144,17.159,0.299,-0.128,-0.263,-15.416,-152.075,-13.271
19:54:51:17,17.184,0.134,0.007,-0.125,-14.756,-153.445,-10.974
19:54:51:197,17.211,-0.005,-0.018,-0.116,-13.959,-155.695,-7.749
19:54:51:276,17.290,0.021,0.010,-0.011,-13.523,-155.561,-5.465
19:54:51:308,17.322,0.007,-0.073,-0.007,-13.188,-155.144,-4.216
19:54:51:308,17.323,0.228,0.029,-0.070,-12.455,-155.218,-2.522
19:54:51:309,17.324,-0.111,-0.009,-0.094,-11.916,-156.022,-1.439
19:54:51:357,17.371,-0.090,-0.006,-0.061,-11.350,-156.489,-0.012
19:54:51:357,17.371,0.084,-0.014,-0.019,-11.126,-156.219,0.818
19:54:51:38,17.394,0.062,0.024,-0.064,-10.835,-156.082,2.064
19:54:51:406,17.420,-0.037,0.030,-0.009,-10.388,-156.682,3.394
19:54:51:543,17.557,0.012,0.020,0.026,-10.028,-157.113,4.310
19:54:51:544,17.558,0.062,0.049,-0.011,-9.401,-157.770,5.708
19:54:51:544,17.558,-0.010,0.068,-0.048,-8.891,-158.327,6.614
19:54:51:567,17.581,-0.091,0.124,0.048,-7.930,-159.160,8.049
19:54:51:649,17.663,-0.160,0.222,0.091,-6.580,-160.681,9.875
19:54:51:649,17.663,-0.299,0.300,0.048,-5.411,-161.181,11.434
19:54:51:65,17.664,-0.393,0.354,0.124,-2.989,-162.384,14.384
19:54:51:669,17.683,-0.594,0.699,0.423,-0.865,-162.667,16.820
19:54:51:705,17.719,-0.729,0.456,0.678,3.143,-163.067,21.178
19:54:51:705,17.719,-1.437,0.403,0.935,7.961,-163.883,26.350
19:54:51:706,17.720,-1.138,-0.015,1.034,11.209,-164.106,30.136
19:54:51:707,17.721,-0.138,0.604,0.990,13.071,-160.214,36.682
19:54:51:751,17.765,-0.082,0.113,1.056,14.414,-157.750,40.459
19:54:51:799,17.813,-0.108,-0.986,0.394,19.430,-156.466,44.849
19:54:51:829,17.843,-0.070,-1.069,0.467,19.826,-155.917,44.598
19:54:51:829,17.843,-0.094,-1.084,0.268,18.794,-155.631,41.886
19:54:51:987,18.001,-0.004,-0.955,0.249,17.194,-155.253,38.834
19:54:51:987,18.001,0.021,-0.859,0.355,14.267,-155.267,32.500
19:54:52:019,18.033,-0.109,-0.711,0.395,12.021,-155.627,27.232
19:54:52:019,18.033,-0.072,-0.472,0.427,7.926,-155.766,18.398
19:54:52:021,18.035,-0.021,0.053,0.332,3.317,-155.315,8.439
19:54:52:021,18.035,0.046,0.329,0.266,-0.041,-154.192,1.460
19:54:52:037,18.051,0.526,1.207,-0.241,-5.147,-149.832,-9.437
19:54:52:064,18.079,1.518,1.499,-0.749,-8.089,-144.649,-16.940
19:54:52:065,18.079,2.094,0.950,-1.421,-11.377,-134.688,-27.334
19:54:52:088,18.102,1.208,-0.698,-2.398,-14.025,-127.179,-33.977
19:54:52:563,18.577,1.361,-1.110,-1.987,-13.799,-124.381,-34.596
19:54:52:59,18.604,-0.225,0.528,-0.537,-10.958,-120.847,-30.208
19:54:52:615,18.629,-2.352,0.971,1.402,-8.897,-118.629,-27.632
19:54:52:754,18.768,0.014,0.029,-0.822,-6.042,-114.458,-23.745
19:54:52:754,18.768,1.574,-0.332,-0.828,-5.488,-112.787,-21.007
19:54:52:78,18.795,0.020,-0.089,0.213,-6.443,-111.846,-17.022
19:54:52:781,18.795,0.086,0.140,-0.083,-7.347,-109.751,-13.934
19:54:52:781,18.795,0.108,-0.141,-0.161,-7.616,-109.612,-12.195
19:54:52:782,18.796,0.139,0.087,-0.089,-7.660,-110.113,-9.920
19:54:52:83,18.844,-0.028,0.011,-0.039,-7.690,-110.378,-8.447
19:54:52:831,18.845,-0.030,-0.007,-0.087,-7.698,-110.017,-6.848
19:54:52:833,18.847,0.132,0.028,-0.094,-7.839,-109.824,-5.399
19:54:52:966,18.981,0.122,0.023,-0.076,-7.746,-110.457,-4.418
19:54:52:966,18.981,-0.029,-0.006,-0.036,-7.523,-111.557,-3.134
19:54:52:966,18.981,-0.010,-0.013,0.014,-7.432,-112.152,-2.394
19:54:52:966,18.981,0.045,0.020,0.013,-7.293,-112.787,-1.249
19:54:53:066,19.080,0.078,0.014,0.045,-7.106,-113.110,-0.403
19:54:53:066,19.080,0.011,0.019,-0.047,-6.660,-113.368,0.946
19:54:53:147,19.161,0.012,0.029,-0.038,-6.126,-113.596,2.321
19:54:53:148,19.162,0.042,0.037,-0.005,-5.730,-113.809,3.236
19:54:53:148,19.163,0.036,0.081,0.021,-4.994,-113.163,4.644
19:54:53:149,19.164,0.012,0.108,0.086,-4.370,-113.639,5.685
19:54:53:196,19.210,-0.043,0.174,0.143,-3.059,-113.222,7.493
19:54:53:197,19.211,-0.126,0.243,0.188,-1.334,-113.656,9.799
19:54:53:226,19.240,-0.119,0.293,0.246,0.063,-112.894,11.710
19:54:53:227,19.241,-0.030,0.562,0.572,2.906,-112.889,15.118
19:54:53:227,19.241,0.117,0.541,0.797,5.453,-112.379,17.741
19:54:53:229,19.243,0.046,0.440,1.347,9.906,-112.301,22.516
19:54:53:378,19.392,0.187,0.072,1.474,13.036,-112.124,26.298
19:54:53:379,19.393,0.454,0.288,0.916,16.153,-109.172,33.014
19:54:53:906,19.921,0.773,0.115,0.832,17.547,-104.557,39.380
19:54:53:907,19.921,0.480,-0.483,0.695,19.057,-103.113,42.194
19:54:53:908,19.922,0.537,-0.176,-0.318,21.882,-101.676,44.085
19:54:54:034,20.048,0.325,-1.046,0.428,22.688,-101.893,44.280
19:54:54:273,20.287,-0.102,-1.270,0.428,23.085,-102.262,42.052
19:54:54:273,20.287,0.039,-0.950,0.206,20.733,-102.124,38.044
19:54:54:274,20.288,0.146,-0.890,0.156,18.057,-101.658,34.610
19:54:54:404,20.418,0.254,-0.760,0.243,13.234,-100.640,28.117
19:54:54:487,20.501,0.364,-0.545,0.372,9.932,-99.780,22.844
19:54:54:488,20.502,0.380,-0.189,0.244,4.846,-98.001,13.734
19:54:54:488,20.502,0.197,0.449,0.033,-0.036,-96.628,3.233
19:54:54:489,20.503,0.075,0.939,-0.323,-3.463,-95.206,-4.032
19:54:54:661,20.676,-0.238,1.423,-1.291,-8.327,-90.888,-14.777
19:54:54:827,20.841,-0.320,0.658,-2.297,-12.051,-84.736,-24.394
19:54:54:828,20.842,-0.420,-0.175,-2.689,-13.623,-80.339,-29.086
19:54:54:829,20.843,-0.994,-0.789,-2.172,-14.511,-75.183,-31.340
19:54:54:83,20.844,0.442,1.316,1.842,-13.328,-73.831,-29.539
19:54:55:012,21.026,-0.356,-0.085,0.504,-11.306,-71.886,-26.455
19:54:55:012,21.026,0.951,-0.102,-1.750,-9.714,-70.730,-22.200
19:54:55:012,21.027,-1.340,0.913,-0.690,-9.794,-69.969,-19.250
19:54:55:014,21.028,0.038,-0.162,-0.249,-9.940,-68.882,-14.498
19:54:55:269,21.283,-0.122,-0.141,-0.068,-10.042,-67.847,-12.059
19:54:55:269,21.283,0.321,0.425,0.555,2.698,-77.004,18.627
19:54:55:456,21.470,0.733,0.396,0.842,6.493,-77.012,22.479
19:54:55:456,21.470,1.163,0.459,0.454,14.179,-72.550,38.410
19:54:55:457,21.471,0.109,-1.144,0.258,21.735,-72.270,44.118
19:54:55:478,21.492,0.353,-0.057,0.117,0.984,-72.624,12.525
19:54:55:479,21.493,0.175,0.474,-0.017,-2.505,-72.813,5.161
19:54:55:694,21.708,-2.166,-1.158,-3.154,-23.355,-66.641,-30.563
19:54:55:695,21.709,-1.729,-0.050,-1.276,-21.238,-66.423,-24.161
19:54:55:696,21.710,-0.075,0.255,-0.986,-18.021,-63.490,-20.994
19:54:55:697,21.711,-0.137,-0.015,-0.090,-16.626,-61.432,-17.036
19:54:55:716,21.730,-0.074,-0.084,-0.519,-16.329,-59.345,-14.613
19:54:55:871,21.885,-0.317,-0.122,-0.127,-15.890,-58.883,-11.554
19:54:55:902,21.916,0.020,-0.007,0.040,-13.964,-65.490,-0.973
19:54:55:902,21.916,0.101,0.007,-0.035,-13.209,-66.708,1.333
19:54:55:902,21.916,0.015,0.007,0.041,-12.482,-67.567,2.991
19:54:56:087,22.101,0.014,0.024,0.029,-11.988,-67.815,4.152
19:54:56:088,22.102,0.066,0.033,-0.044,-11.233,-68.028,5.969
19:54:56:089,22.103,0.047,0.312,0.245,-6.438,-70.749,13.770
19:54:56:09,22.104,0.151,0.395,0.371,-3.795,-71.584,17.009
19:54:56:245,22.259,0.481,0.476,0.461,-1.661,-71.801,19.526
19:54:56:246,22.260,0.653,0.528,0.863,1.846,-72.360,24.079
19:54:56:246,22.260,0.113,-1.231,0.360,23.348,-81.013,44.485
19:54:56:247,22.261,-0.044,-1.038,0.288,21.798,-83.523,40.870
19:54:56:297,22.312,-0.150,0.705,0.236,-5.303,-84.527,2.019
19:54:56:298,22.312,-0.549,1.569,-0.535,-10.545,-82.231,-9.958
19:54:56:298,22.313,-0.752,1.601,-1.521,-13.555,-79.210,-17.894
19:54:56:299,22.314,-0.867,-0.051,-2.619,-17.171,-73.323,-27.865
19:54:56:358,22.372,-0.622,-0.416,-1.546,-19.670,-69.315,-32.021
19:54:56:358,22.372,-0.111,-0.076,-0.184,-12.760,-64.235,-18.215
19:54:56:358,22.372,-0.061,-0.118,-0.469,-12.951,-62.304,-15.685
19:54:56:358,22.372,-0.137,-0.139,-0.209,-13.210,-61.271,-12.633
19:54:56:372,22.386,-0.025,0.013,-0.119,-13.012,-62.465,-10.717
19:54:56:373,22.387,-0.019,-0.008,0.009,-12.258,-65.426,-6.494
19:54:56:395,22.409,0.089,-0.001,-0.079,-11.822,-65.435,-2.953
19:54:56:427,22.441,0.042,-0.032,0.075,-11.372,-67.400,-1.185
19:54:56:427,22.441,0.080,0.001,0.123,-10.958,-68.280,0.510
19:54:56:428,22.442,0.046,0.027,-0.063,-10.708,-68.184,1.639
19:54:56:453,22.467,-0.005,0.077,0.018,-8.681,-70.162,8.243
19:54:56:454,22.468,0.032,0.135,0.025,-7.918,-71.004,10.123
19:54:56:454,22.468,0.151,0.215,0.102,-6.957,-72.206,12.120
19:54:56:5,22.514,0.136,0.350,0.229,-6.106,-72.776,13.702
19:54:56:605,22.619,0.848,0.371,1.252,4.681,-76.455,28.472
19:54:56:631,22.646,0.791,0.175,0.992,7.126,-77.133,32.265
19:54:56:744,22.758,0.816,0.495,0.488,10.222,-76.851,38.079
19:54:56:744,22.758,0.847,-0.159,0.374,12.838,-76.668,41.666
19:54:56:745,22.759,0.277,-0.930,0.787,17.969,-78.551,45.212
19:54:56:746,22.760,0.314,-0.891,0.280,23.237,-81.838,46.174
19:54:56:797,22.811,0.279,-1.040,0.320,24.391,-83.585,45.579
19:54:56:797,22.812,-0.066,-1.171,0.403,23.969,-86.870,42.908
19:54:56:798,22.813,-0.032,-0.961,0.277,21.780,-87.723,40.172
19:54:56:799,22.813,0.118,-0.882,0.278,17.032,-88.426,34.831
19:54:56:823,22.837,0.199,-0.731,0.406,11.420,-88.316,27.857
19:54:56:824,22.838,0.233,-0.540,0.422,7.583,-87.659,22.311
19:54:56:824,22.838,0.300,0.061,0.273,2.216,-85.879,12.591
19:54:56:825,22.839,0.058,0.939,0.077,-0.989,-84.688,5.118
19:54:56:928,22.942,-0.075,1.353,-0.467,-5.695,-82.106,-6.701
19:54:56:929,22.943,-0.416,1.337,-1.884,-9.819,-76.127,-18.213
19:54:56:93,22.944,-0.724,0.579,-2.408,-12.193,-71.675,-24.756
19:54:56:931,22.945,-1.194,-0.738,-2.579,-14.980,-66.736,-31.130
19:54:57:023,23.037,-1.062,-0.974,-2.269,-16.020,-65.551,-32.278
19:54:57:06,23.074,-0.712,0.789,0.826,-15.715,-66.003,-28.839
19:54:57:062,23.076,-0.728,0.037,-0.415,-11.256,-62.317,-22.928
19:54:57:062,23.076,-0.148,0.116,-1.101,-9.815,-59.481,-19.125
19:54:57:082,23.096,0.522,-0.091,-0.040,-10.081,-58.281,-16.482
19:54:57:083,23.097,-0.296,-0.054,-0.245,-10.407,-55.755,-13.138
19:54:57:112,23.126,-0.080,0.059,-0.173,-10.096,-56.357,-11.142
19:54:57:113,23.127,-0.146,0.024,-0.083,-9.508,-58.192,-8.682
19:54:57:114,23.128,0.045,0.016,0.051,-9.367,-59.622,-6.760
19:54:57:114,23.128,0.034,0.022,0.001,-9.420,-59.753,-5.701
19:54:57:138,23.152,0.111,0.035,-0.137,-9.456,-59.420,-4.022
19:54:57:139,23.153,0.120,-0.018,-0.062,-9.191,-59.716,-2.890
19:54:57:14,23.154,0.097,-0.020,0.075,-8.456,-61.280,-1.175
19:54:57:14,23.154,-0.016,-0.009,0.066,-7.955,-61.818,-0.061
19:54:57:235,23.249,0.040,-0.015,-0.009,-7.414,-61.579,1.564
19:54:57:267,23.281,0.076,-0.009,-0.048,-6.934,-61.343,3.228
19:54:57:268,23.282,0.026,0.011,-0.034,-6.543,-61.517,4.359
19:54:57:268,23.282,-0.026,0.040,-0.035,-5.979,-61.833,5.960
19:54:57:291,23.305,0.045,0.048,-0.111,-5.608,-62.148,6.957
19:54:57:292,23.306,0.079,0.074,-0.021,-4.932,-63.680,8.269
19:54:57:293,23.307,0.072,0.183,0.144,-3.980,-65.304,9.611
19:54:57:311,23.325,0.178,0.204,0.166,-3.085,-65.974,10.741
19:54:57:367,23.382,0.197,0.333,0.255,-1.052,-67.391,12.995
19:54:57:368,23.383,0.435,0.565,0.419,0.680,-67.695,14.974
19:54:57:391,23.405,0.611,0.545,0.557,3.741,-67.995,18.877
19:54:57:417,23.431,0.907,0.566,1.025,7.369,-68.167,24.011
19:54:57:444,23.458,1.183,0.226,1.166,10.134,-68.384,27.889
19:54:57:602,23.616,0.827,0.494,0.528,14.024,-68.319,33.819
19:54:57:711,23.725,1.004,0.279,0.396,16.293,-67.020,37.883
19:54:57:711,23.725,0.946,-0.422,0.162,19.989,-65.488,42.791
19:54:57:741,23.756,0.110,-0.403,-0.069,22.695,-65.984,44.513
19:54:57:742,23.756,0.458,-1.139,0.005,25.563,-66.607,45.665
19:54:57:743,23.757,0.153,-1.289,0.280,25.064,-67.219,44.319
19:54:57:743,23.758,0.069,-1.021,0.140,23.495,-67.128,42.136
19:54:57:768,23.782,0.183,-0.887,-0.070,19.966,-66.755,37.169
19:54:57:769,23.783,0.255,-0.906,-0.001,17.874,-67.521,32.403
19:54:57:769,23.783,0.311,-0.643,0.236,14.717,-70.191,23.563
19:54:57:77,23.784,0.266,-0.042,0.089,10.550,-72.800,13.977
19:54:57:822,23.836,0.206,0.233,0.028,7.211,-73.451,7.667
19:54:57:823,23.837,0.035,0.822,-0.379,1.792,-71.752,-1.739
19:54:57:823,23.837,-0.138,1.383,-1.009,-1.655,-68.754,-8.199
19:54:57:871,23.885,-0.466,1.274,-1.522,-6.061,-61.882,-17.956
19:54:57:872,23.886,-0.835,0.344,-2.106,-8.251,-56.262,-23.752
19:54:57:922,23.936,-1.946,-0.450,-2.073,-10.768,-47.523,-29.956
19:54:57:922,23.936,-1.286,-0.762,-0.978,-13.139,-43.893,-31.083
19:54:57:971,23.985,-0.661,0.360,0.207,-12.463,-41.972,-28.754
19:54:57:972,23.986,1.693,1.316,3.041,-9.938,-36.502,-24.260
19:54:57:995,24.009,-1.518,0.002,-0.002,-7.773,-31.279,-22.446
19:54:58:136,24.150,-2.260,0.883,0.737,-5.349,-23.015,-18.244
19:54:58:137,24.151,0.635,0.411,0.303,-6.381,-22.611,-14.031
19:54:58:138,24.152,-0.127,-0.092,-0.907,-7.302,-20.898,-11.194
19:54:58:138,24.152,-0.264,-0.093,-0.095,-7.654,-21.347,-8.033
19:54:58:155,24.169,-0.145,0.083,-0.108,-7.231,-22.541,-6.343
19:54:58:156,24.170,0.110,-0.003,0.122,-7.123,-24.254,-4.057
19:54:58:178,24.192,-0.034,0.053,-0.065,-7.279,-23.901,-2.373
19:54:58:237,24.251,-0.068,0.069,-0.201,-7.232,-23.713,-1.457
19:54:58:238,24.252,0.210,-0.022,-0.004,-6.823,-24.714,-0.130
19:54:58:316,24.330,0.079,0.039,0.056,-6.463,-25.225,0.789
19:54:58:316,24.330,0.181,-0.017,-0.055,-5.945,-25.440,2.325
19:54:58:317,24.331,0.078,-0.035,-0.119,-5.639,-25.257,3.494
19:54:58:337,24.351,-0.011,0.026,-0.154,-5.111,-24.853,5.341
19:54:58:442,24.456,-0.045,0.031,0.004,-4.459,-24.929,7.096
19:54:58:521,24.535,-0.015,0.027,0.118,-4.058,-25.281,8.174
19:54:58:548,24.562,-0.007,0.042,0.057,-3.539,-25.665,9.677
19:54:58:549,24.563,0.058,0.036,-0.070,-3.215,-25.782,10.581
19:54:58:607,24.621,0.187,0.130,-0.012,-2.560,-26.087,11.906
19:54:58:608,24.622,0.255,0.200,0.089,-1.507,-26.448,13.487
19:54:58:609,24.623,0.319,0.273,0.140,-0.544,-27.607,14.841
19:54:58:61,24.624,0.533,0.373,0.042,1.436,-27.741,17.471
19:54:58:787,24.801,0.726,0.421,0.049,3.379,-28.923,19.694
19:54:58:787,24.801,1.382,0.327,-0.068,7.486,-29.221,23.768
19:54:58:898,24.912,1.565,0.062,0.310,10.755,-29.469,27.062
19:54:58:898,24.912,0.963,0.443,-0.030,14.756,-28.555,33.157
19:54:58:899,24.913,1.065,0.435,-0.424,16.260,-23.753,40.140
19:54:58:899,24.913,0.826,-0.284,-0.533,17.980,-21.327,43.832
19:54:58:971,24.985,0.142,-0.422,-0.144,21.197,-19.712,47.182
19:54:58:972,24.986,0.433,-1.205,-0.326,23.869,-18.963,48.375
19:54:59:031,25.045,0.361,-1.373,-0.001,24.218,-18.558,47.612
19:54:59:031,25.045,0.186,-1.088,-0.104,22.921,-17.347,44.617
19:54:59:032,25.046,0.163,-0.945,-0.223,20.748,-15.995,41.709
19:54:59:032,25.046,0.291,-0.831,-0.302,16.581,-13.981,35.568
19:54:59:054,25.068,0.325,-0.702,-0.473,13.883,-12.700,30.491
19:54:59:055,25.069,0.388,-0.326,-0.581,9.736,-11.093,21.309
19:54:59:056,25.070,0.224,0.337,-0.645,5.718,-9.732,10.919
19:54:59:057,25.071,-0.002,0.810,-0.588,2.730,-8.904,3.525
19:54:59:071,25.085,-0.864,1.493,-0.545,-2.245,-6.175,-7.262
19:54:59:128,25.143,-1.460,1.384,-0.479,-5.864,-3.227,-13.809
19:54:59:129,25.143,-1.646,0.530,0.853,-10.764,-0.409,-21.920
19:54:59:185,25.199,-3.313,-0.714,0.445,-12.923,2.904,-25.573
19:54:59:185,25.199,-1.577,-0.267,0.549,-13.096,3.556,-24.067
19:54:59:186,25.200,2.971,1.039,0.557,-10.915,5.472,-20.505
19:54:59:187,25.201,-0.806,0.391,0.359,-9.755,6.694,-18.048
19:54:59:285,25.299,-0.915,0.267,-0.234,-8.453,8.846,-13.699
19:54:59:339,25.353,0.343,-0.212,-0.208,-8.486,9.631,-10.749
19:54:59:339,25.353,-0.501,-0.040,-0.207,-9.080,12.603,-7.101
19:54:59:372,25.386,-0.063,-0.066,0.192,-8.850,12.506,-4.429
19:54:59:373,25.387,-0.039,0.076,0.017,-8.635,11.914,-2.944
19:54:59:373,25.387,0.079,0.000,-0.014,-8.704,10.900,-0.996
19:54:59:373,25.387,0.215,-0.054,-0.079,-8.996,10.604,0.230
19:54:59:394,25.408,-0.018,0.043,-0.071,-9.421,10.893,1.891
19:54:59:396,25.410,-0.024,0.033,-0.146,-9.159,9.916,3.396
19:54:59:475,25.489,0.118,0.017,0.019,-8.828,8.771,4.215
19:54:59:476,25.490,0.181,0.013,-0.086,-8.582,8.260,5.242
19:54:59:476,25.490,0.106,-0.018,-0.173,-8.369,7.557,5.958
19:54:59:519,25.533,0.138,0.000,-0.112,-7.313,7.068,8.376
19:54:59:544,25.558,0.064,0.058,-0.017,-6.614,7.495,10.080
19:54:59:755,25.769,0.085,0.049,-0.004,-5.872,7.733,11.834
19:54:59:79,25.804,0.135,0.020,-0.079,-5.330,7.510,13.030
19:54:59:79,25.804,0.104,0.077,-0.091,-4.308,7.607,14.889
19:54:59:79,25.804,0.281,0.167,-0.121,-3.384,7.208,16.203
19:54:59:791,25.805,0.356,0.175,-0.062,-1.641,7.201,18.464
19:54:59:868,25.882,0.465,0.296,-0.208,0.617,7.065,21.258
19:54:59:869,25.883,0.638,0.399,-0.272,2.465,7.473,23.472
19:54:59:869,25.884,1.014,0.403,-0.497,6.034,7.733,27.426
19:54:59:941,25.955,1.425,-0.154,-0.933,13.910,8.027,36.269
19:54:59:941,25.955,0.732,0.286,-0.968,17.189,9.698,42.861
19:55:00:098,26.112,0.708,0.330,-0.924,18.491,11.731,46.988
19:55:00:099,26.113,0.556,-0.701,-0.784,22.294,13.001,51.202
19:55:00:226,26.241,-0.079,-0.560,-0.427,25.596,12.493,52.248
19:55:00:307,26.321,0.129,-1.088,-0.411,28.029,11.915,52.750
19:55:00:308,26.322,0.295,-1.309,-0.042,27.906,10.742,51.630
19:55:00:342,26.356,0.261,-1.191,-0.037,25.095,9.517,48.239
19:55:00:342,26.356,0.158,-0.968,-0.152,20.201,8.571,43.039
19:55:00:343,26.357,0.206,-0.876,-0.203,16.606,7.767,38.556
19:55:00:344,26.358,0.338,-0.700,-0.239,10.901,6.839,30.686
19:55:00:367,26.381,0.346,-0.421,-0.240,6.967,6.714,24.807
19:55:00:367,26.381,0.274,0.072,-0.263,1.406,7.037,14.774
19:55:00:367,26.381,0.176,1.009,0.006,-3.737,7.145,3.503
19:55:00:368,26.382,-0.474,1.503,0.084,-7.262,8.852,-4.072
19:55:00:398,26.412,-1.769,1.433,0.871,-12.386,13.550,-15.042
19:55:00:398,26.412,-2.084,0.879,1.324,-15.474,16.504,-21.028
19:55:00:399,26.413,-3.000,-0.715,1.927,-18.269,19.794,-25.565
19:55:00:4,26.414,-0.266,0.082,0.674,-17.931,20.688,-24.200
19:55:00:42,26.435,2.270,0.172,0.853,-15.846,23.292,-21.505
19:55:00:421,26.436,-0.378,0.121,0.828,-13.471,26.654,-17.813
19:55:00:422,26.436,-0.885,0.319,0.186,-12.944,27.309,-15.167
19:55:00:423,26.437,-0.021,-0.243,-0.253,-13.187,29.063,-10.889
19:55:00:441,26.455,-0.218,0.064,0.123,-13.373,29.937,-8.715
19:55:00:442,26.456,-0.060,-0.002,0.049,-12.752,28.973,-5.571
19:55:00:55,26.564,0.027,0.047,0.016,-12.098,27.392,-3.077
19:55:00:551,26.565,0.182,-0.079,-0.077,-11.925,26.590,-1.525
19:55:00:552,26.566,0.031,-0.055,-0.085,-11.925,26.605,0.351
19:55:00:553,26.567,-0.015,-0.007,-0.149,-11.771,26.577,1.506
19:55:00:57,26.584,0.135,-0.022,-0.104,-11.035,25.206,3.246
19:55:00:57,26.584,0.185,0.017,-0.055,-10.392,24.132,4.666
19:55:00:593,26.607,0.103,-0.007,-0.106,-10.041,23.761,5.573
19:55:00:673,26.687,0.114,0.029,-0.075,-8.896,22.904,8.224
19:55:00:7,26.714,0.094,0.024,-0.069,-8.059,22.597,10.018
19:55:00:734,26.748,0.129,0.028,-0.061,-7.511,22.375,11.297
19:55:00:735,26.749,0.091,0.033,-0.088,-6.614,22.197,13.267
19:55:00:75,26.764,0.167,0.113,-0.139,-5.522,21.874,15.398
19:55:00:807,26.821,0.324,0.266,-0.079,-4.609,21.484,16.947
19:55:00:808,26.822,0.461,0.229,-0.129,-2.864,21.065,19.572
19:55:00:829,26.843,0.440,0.274,-0.317,-1.216,20.941,21.680
19:55:00:885,26.899,0.655,0.485,-0.527,2.067,20.936,25.410
19:55:00:885,26.899,0.908,0.354,-1.041,6.759,20.817,29.798
19:55:01:075,27.089,1.553,0.121,-1.068,10.643,20.186,33.214
19:55:01:088,27.102,0.726,0.152,-0.968,16.471,20.237,39.111
19:55:01:128,27.142,0.317,-0.721,-0.170,22.005,31.009,53.052
19:55:01:129,27.143,-0.339,-0.615,-0.506,23.615,32.149,54.131
19:55:01:129,27.143,-0.020,-1.192,-0.418,23.120,33.416,53.161
19:55:01:129,27.144,0.069,-1.243,-0.241,22.330,33.911,51.244
19:55:01:148,27.162,-0.011,-1.035,-0.257,19.381,35.172,46.473
19:55:01:149,27.163,-0.085,-0.863,-0.344,15.874,36.144,39.650
19:55:01:285,27.299,-0.095,-0.801,-0.436,13.482,36.467,34.062
19:55:01:286,27.300,-0.076,-0.499,-0.591,9.637,36.997,24.396
19:55:01:286,27.300,-0.059,-0.009,-0.592,6.902,37.559,17.289
19:55:01:287,27.301,-0.264,0.573,-0.454,2.621,38.966,5.949
19:55:01:303,27.317,-0.753,1.467,-0.109,-0.407,40.833,-1.638
19:55:01:335,27.349,-1.138,1.462,0.534,-5.298,45.927,-12.520
19:55:01:336,27.350,-1.165,1.038,1.375,-9.979,53.187,-21.989
19:55:01:356,27.371,-0.918,-0.244,2.960,-13.020,58.105,-26.764
19:55:01:381,27.395,-0.934,-0.363,1.255,-14.487,61.308,-28.070
19:55:01:408,27.422,-0.216,0.346,0.342,-12.808,64.517,-25.474
19:55:01:434,27.448,2.457,0.960,-1.760,-10.371,69.279,-21.467
19:55:01:459,27.473,-0.114,0.206,1.393,-7.853,75.959,-18.016
19:55:01:489,27.503,-0.379,0.442,1.067,-7.726,78.649,-15.202
19:55:01:489,27.503,0.047,-0.057,-0.398,-9.201,78.683,-10.626
19:55:01:57,27.584,-0.233,0.093,-0.081,-10.377,80.281,-8.121
19:55:01:571,27.585,-0.204,-0.240,0.172,-11.120,80.526,-4.966
19:55:01:572,27.586,0.027,0.060,-0.081,-10.862,79.631,-2.964
19:55:01:592,27.606,0.066,0.031,-0.059,-10.698,78.607,-0.247
19:55:01:63,27.644,0.151,0.031,-0.086,-10.439,78.395,1.850
19:55:01:646,27.660,0.032,0.067,-0.021,-10.194,78.625,2.962
19:55:01:669,27.683,0.009,-0.065,-0.162,-9.710,78.506,4.587
19:55:01:724,27.739,0.103,-0.009,-0.044,-9.447,78.504,5.638
19:55:01:725,27.740,0.062,0.009,-0.087,-9.147,78.618,7.051
19:55:01:749,27.763,0.140,-0.001,-0.026,-8.930,78.617,8.412
19:55:01:777,27.791,0.096,-0.002,-0.054,-8.806,78.546,9.293
19:55:01:805,27.819,0.019,0.015,-0.018,-8.654,78.478,10.543
19:55:01:881,27.896,0.120,0.050,-0.059,-8.123,77.790,12.360
19:55:01:908,27.923,0.098,0.057,-0.182,-7.592,77.288,13.384
19:55:01:91,27.924,0.135,0.085,-0.246,-7.050,77.994,14.196
19:55:01:932,27.947,0.054,0.120,-0.282,-5.946,78.011,15.853
19:55:01:961,27.975,-0.128,0.250,-0.320,-4.892,79.252,17.272
19:55:02:016,28.030,-0.033,0.319,-0.441,-2.741,79.381,19.863
19:55:02:039,28.053,0.074,0.422,-0.704,-0.823,80.336,21.930
19:55:02:04,28.054,-0.140,0.364,-1.137,3.111,80.371,25.673
19:55:02:178,28.192,-0.196,0.147,-1.508,7.715,80.741,30.556
19:55:02:179,28.193,-0.367,-0.056,-1.394,10.451,81.381,34.469
19:55:02:18,28.194,-0.875,0.510,-0.994,12.360,84.947,41.122
19:55:02:181,28.195,-0.732,0.328,-0.673,12.562,88.235,45.288
19:55:02:198,28.212,-0.417,-0.885,-1.009,14.216,90.722,49.644
19:55:02:198,28.212,-0.280,-0.970,-0.291,17.059,91.476,51.568
19:55:02:25,28.264,-0.488,-1.045,-0.240,17.090,91.945,51.781
19:55:02:251,28.265,-0.143,-1.210,-0.203,16.506,91.894,49.886
19:55:02:329,28.343,-0.217,-0.909,-0.055,14.938,92.056,47.384
19:55:02:33,28.344,-0.308,-0.832,-0.045,11.264,92.443,42.261
19:55:02:355,28.369,-0.367,-0.714,-0.161,8.590,92.471,37.804
19:55:02:355,28.369,-0.369,-0.588,-0.235,4.434,92.327,29.733
19:55:02:407,28.421,-0.319,-0.168,-0.258,-0.005,92.303,20.449
19:55:02:408,28.422,-0.310,0.254,-0.047,-3.130,92.486,13.742
19:55:02:433,28.447,0.029,0.777,-0.005,-8.144,92.695,3.112
19:55:02:486,28.500,0.075,1.313,0.564,-11.885,94.146,-4.064
19:55:02:486,28.501,0.939,1.255,1.682,-17.906,98.874,-14.976
19:55:02:509,28.523,1.163,0.376,1.882,-23.151,102.944,-24.121
19:55:02:564,28.578,1.404,-0.784,3.227,-25.372,106.152,-28.272
19:55:02:565,28.579,1.008,-0.064,1.136,-26.173,107.073,-27.207
19:55:02:588,28.602,-0.294,1.384,-2.675,-24.784,107.474,-23.866
19:55:02:617,28.631,1.415,-0.483,1.256,-22.990,108.088,-20.398
19:55:02:669,28.684,-0.307,0.092,1.108,-20.607,111.507,-17.001
19:55:02:67,28.684,0.999,0.607,0.501,-20.306,112.389,-14.520
19:55:02:695,28.709,0.310,0.177,0.590,-20.350,115.634,-11.243
19:55:02:779,28.793,0.310,-0.139,0.183,-20.045,115.764,-9.128
19:55:02:78,28.794,0.150,0.040,0.027,-19.006,113.645,-5.726
19:55:02:78,28.794,-0.017,-0.140,-0.244,-18.542,112.339,-3.684
19:55:02:83,28.844,0.032,0.019,-0.148,-18.361,112.525,-1.569
19:55:02:83,28.844,0.031,0.029,0.223,-18.271,113.679,-0.238
19:55:02:912,28.926,0.062,-0.013,-0.015,-17.924,113.249,0.782
19:55:02:912,28.926,0.139,-0.023,-0.228,-17.412,111.588,2.674
19:55:02:913,28.927,-0.002,0.019,-0.063,-17.238,110.833,3.877
19:55:03:175,29.189,-0.028,0.014,-0.057,-16.785,109.866,5.526
19:55:03:176,29.190,0.006,-0.016,-0.113,-16.179,108.881,7.147
19:55:03:177,29.191,0.035,-0.002,-0.147,-15.736,108.412,8.272
19:55:03:178,29.192,0.125,0.025,-0.035,-15.100,108.079,9.993
19:55:03:227,29.241,0.061,0.059,-0.069,-14.684,107.771,11.159
19:55:03:227,29.242,0.043,0.077,-0.094,-13.974,107.121,12.902
19:55:03:228,29.242,-0.018,0.186,-0.263,-13.357,106.942,14.093
19:55:03:334,29.348,-0.011,0.185,-0.310,-11.904,106.066,16.113
19:55:03:334,29.348,-0.093,0.288,-0.436,-9.875,105.867,18.601
19:55:03:334,29.348,-0.111,0.347,-0.523,-8.186,105.771,20.628
19:55:03:335,29.349,-0.393,0.467,-0.754,-5.230,106.143,24.336
19:55:03:439,29.453,-0.719,0.373,-0.908,-2.954,106.495,27.360
19:55:03:439,29.453,-0.998,0.144,-1.436,0.797,106.599,32.966
19:55:03:44,29.454,-0.752,0.304,-0.992,4.514,106.753,39.242
19:55:03:441,29.455,-0.835,0.516,-0.725,5.775,108.218,43.322
19:55:03:492,29.506,-0.880,-0.395,-0.435,9.087,109.761,48.540
19:55:03:493,29.507,-0.093,-0.270,0.061,11.938,109.474,50.685
19:55:03:494,29.508,-0.340,-1.145,-0.170,15.668,108.324,52.172
19:55:03:495,29.509,-0.079,-1.369,-0.277,16.287,107.244,51.624
19:55:03:535,29.549,-0.047,-1.194,-0.202,15.690,105.153,48.585
19:55:03:569,29.583,-0.142,-0.966,-0.126,12.126,103.471,43.736
19:55:03:57,29.584,-0.199,-0.926,-0.253,8.879,102.409,39.647
19:55:03:57,29.584,-0.247,-0.763,-0.466,3.351,101.354,32.219
19:55:03:571,29.585,-0.269,-0.459,-0.453,-0.520,101.300,26.462
19:55:03:588,29.602,-0.261,0.035,-0.235,-6.028,102.016,16.434
19:55:03:589,29.603,0.025,0.820,-0.129,-11.269,102.733,4.854
19:55:03:615,29.630,0.543,1.733,0.497,-15.019,103.536,-3.358
19:55:03:616,29.630,1.294,1.555,1.710,-20.664,105.547,-15.332
19:55:03:665,29.679,1.352,0.000,2.519,-24.490,106.256,-21.559
19:55:03:719,29.733,1.950,-0.991,2.810,-29.015,107.503,-26.678
19:55:03:72,29.734,1.373,0.069,0.654,-28.885,107.967,-24.512
19:55:03:745,29.759,-0.207,1.293,-3.365,-26.994,110.209,-21.801
19:55:03:746,29.760,0.587,0.101,0.526,-24.345,114.336,-19.494
19:55:03:829,29.843,0.637,-0.014,0.996,-22.464,117.951,-17.710
19:55:03:829,29.843,0.200,0.309,-0.006,-21.992,120.238,-13.940
19:55:03:83,29.844,0.249,-0.105,0.155,-22.051,121.995,-11.401
19:55:03:954,29.968,0.104,-0.153,0.156,-21.801,120.544,-7.730
19:55:03:98,29.994,0.097,-0.049,-0.185,-21.449,118.038,-4.762
19:55:04:015,30.029,0.144,0.020,-0.049,-21.542,117.773,-3.731
19:55:04:016,30.030,0.032,0.057,0.197,-21.856,117.867,-3.055
19:55:04:017,30.031,-0.017,0.002,0.038,-21.959,116.899,-2.610
19:55:04:018,30.032,-0.317,-0.015,-0.206,-21.926,114.039,-1.278
19:55:04:035,30.049,-0.106,0.036,-0.197,-21.163,111.808,0.856
19:55:04:036,30.050,0.169,0.049,-0.180,-20.329,111.029,2.506
19:55:04:061,30.075,0.117,0.040,-0.082,-19.315,110.760,4.837
19:55:04:114,30.128,0.060,-0.001,-0.070,-18.734,110.595,6.349
19:55:04:115,30.129,0.058,0.002,-0.111,-17.713,110.261,8.637
19:55:04:137,30.151,0.061,0.103,0.000,-17.042,110.077,10.140
19:55:04:164,30.178,0.135,0.072,-0.150,-16.088,109.526,12.259
19:55:04:191,30.205,0.080,0.068,-0.264,-15.067,108.826,14.305
19:55:04:217,30.231,-0.018,0.184,-0.269,-14.280,108.543,15.763
19:55:04:244,30.258,-0.036,0.222,-0.433,-12.772,108.148,18.343
19:55:04:27,30.284,-0.109,0.221,-0.480,-11.421,108.011,20.399
19:55:04:324,30.338,-0.209,0.309,-0.563,-9.104,108.028,24.151
19:55:04:324,30.338,-0.595,0.413,-0.880,-6.266,107.997,28.696
19:55:04:347,30.362,-0.781,0.309,-1.178,-3.860,107.567,32.192
19:55:04:374,30.388,-1.024,0.134,-1.194,0.663,106.014,37.987
19:55:04:459,30.473,-0.813,0.694,-0.712,2.324,106.143,42.267
19:55:04:46,30.474,-0.877,0.145,-0.588,4.933,107.410,48.091
19:55:04:461,30.475,-0.431,-1.162,-0.883,10.367,106.422,51.913
19:55:04:479,30.493,-0.334,-0.783,-0.110,15.004,104.835,52.772
19:55:04:505,30.519,-0.144,-1.265,-0.293,18.197,102.071,52.347
19:55:04:532,30.547,0.046,-1.344,-0.332,19.260,99.665,50.440
19:55:04:594,30.608,0.009,-1.015,-0.261,17.026,96.762,45.876
19:55:04:595,30.609,-0.075,-0.888,-0.261,13.938,95.126,42.118
19:55:04:61,30.624,-0.121,-0.829,-0.436,8.170,92.918,35.280
19:55:04:635,30.649,-0.150,-0.504,-0.604,1.694,91.709,27.067
19:55:04:693,30.707,-0.088,-0.210,-0.491,-2.615,91.525,20.818
19:55:04:714,30.728,0.596,1.229,-0.188,-12.485,90.541,2.751
19:55:04:741,30.755,1.016,1.828,1.085,-18.341,93.531,-9.037
19:55:04:767,30.781,1.128,0.650,2.228,-23.373,98.569,-20.019
19:55:04:822,30.836,1.299,-0.662,3.030,-25.691,102.615,-25.619
19:55:04:849,30.863,1.247,-0.928,2.341,-26.687,106.070,-28.161
19:55:04:85,30.864,-1.044,1.568,-2.521,-25.116,107.080,-25.806
19:55:04:899,30.913,1.564,-0.430,1.368,-23.252,107.201,-22.490
19:55:04:926,30.940,0.546,0.161,0.546,-21.363,108.455,-20.125
19:55:04:953,30.967,0.795,0.303,0.553,-19.791,110.345,-16.097
19:55:04:954,30.968,0.286,-0.075,0.556,-19.434,112.713,-12.322
19:55:04:977,30.991,0.395,0.189,0.350,-19.537,114.201,-10.404
19:55:05:006,31.020,0.105,0.008,0.060,-19.269,113.402,-7.387
19:55:05:059,31.073,0.073,0.015,0.036,-19.014,112.500,-5.766
19:55:05:059,31.073,0.084,0.008,-0.092,-18.685,111.317,-3.805
19:55:05:082,31.096,0.058,-0.045,-0.073,-18.650,110.948,-2.216
19:55:05:108,31.122,0.013,-0.031,0.010,-18.709,111.015,-1.229
19:55:05:134,31.148,0.023,-0.014,-0.023,-18.411,109.843,0.780
19:55:05:163,31.177,0.100,0.016,-0.131,-18.005,108.593,2.149
19:55:05:216,31.230,0.083,0.018,-0.116,-17.522,106.445,3.776
19:55:05:216,31.231,-0.026,0.021,-0.078,-17.133,105.561,5.362
19:55:05:24,31.254,0.023,0.009,-0.130,-16.785,104.232,6.517
19:55:05:296,31.310,0.059,0.003,-0.100,-16.145,103.762,8.278
19:55:05:297,31.311,0.046,0.049,-0.060,-15.747,102.967,9.493
19:55:05:348,31.362,0.059,0.056,-0.091,-15.119,102.468,11.355
19:55:05:349,31.363,0.019,0.129,-0.136,-14.614,101.592,12.610
19:55:05:371,31.385,0.020,0.175,-0.249,-13.580,100.831,14.709
19:55:05:398,31.412,0.017,0.263,-0.338,-12.194,99.584,17.220
19:55:05:424,31.438,0.026,0.259,-0.416,-10.959,99.251,19.184
19:55:05:48,31.494,-0.195,0.556,-0.642,-8.541,98.512,22.677
19:55:05:48,31.495,-0.326,0.547,-0.831,-6.355,98.281,25.366
19:55:05:503,31.517,-0.490,0.385,-1.341,-2.004,97.489,30.135
19:55:05:53,31.544,-0.893,-0.020,-1.415,1.375,96.760,33.792
19:55:05:612,31.626,-0.668,0.725,-0.614,4.820,97.384,39.823
19:55:05:612,31.626,-0.728,0.491,-0.481,6.760,100.179,45.662
19:55:05:635,31.649,-0.240,-0.877,-0.795,9.083,100.708,48.790
19:55:05:636,31.650,-0.316,-1.079,-0.290,14.386,99.718,51.008
19:55:05:694,31.708,-0.300,-1.151,-0.269,16.196,99.054,51.605
19:55:05:694,31.708,-0.039,-1.261,-0.294,17.031,97.788,49.923
19:55:05:879,31.893,-0.087,-0.990,-0.138,14.869,96.859,46.178
19:55:05:88,31.894,-0.131,-0.964,-0.153,12.391,96.225,42.779
19:55:05:88,31.894,-0.200,-0.862,-0.313,7.937,95.219,36.233
19:55:05:881,31.895,-0.240,-0.622,-0.360,4.601,94.872,31.016
19:55:05:958,31.972,-0.258,-0.312,-0.345,-0.649,95.139,22.072
19:55:05:959,31.973,-0.157,0.347,-0.235,-5.606,95.668,11.594
19:55:05:96,31.974,0.026,0.877,-0.147,-8.909,95.991,3.850
19:55:05:961,31.975,0.365,1.892,0.844,-14.260,98.101,-8.295
19:55:05:984,31.998,0.976,1.128,1.751,-17.947,101.450,-16.270
19:55:05:984,31.998,1.086,0.030,2.432,-22.916,107.124,-26.265
19:55:05:985,31.999,1.255,-1.069,2.152,-25.450,111.845,-30.802
19:55:05:986,32.000,0.905,0.459,0.275,-24.182,113.590,-28.913
19:55:06:055,32.069,0.157,1.084,-3.614,-20.841,117.136,-24.601
19:55:06:086,32.100,0.942,0.108,0.560,-19.063,119.506,-22.817
19:55:06:086,32.100,-0.150,-0.131,0.950,-16.512,124.290,-18.938
19:55:06:087,32.101,0.515,0.131,0.618,-16.132,125.886,-16.551
19:55:06:274,32.288,0.385,0.113,0.395,-16.500,128.808,-12.723
19:55:06:275,32.289,0.163,-0.119,0.210,-16.352,129.727,-9.283
19:55:06:276,32.290,0.254,0.001,0.040,-15.752,128.573,-6.976
19:55:06:277,32.291,0.100,-0.045,-0.199,-15.160,126.688,-3.746
19:55:06:344,32.358,0.036,0.004,-0.161,-15.043,126.714,-2.239
19:55:06:374,32.388,0.087,-0.008,0.034,-14.964,128.025,-0.674
19:55:06:375,32.389,0.156,0.048,0.109,-14.870,128.553,0.566
19:55:06:376,32.390,-0.004,-0.043,-0.196,-14.707,127.473,1.635
19:55:06:501,32.515,0.066,-0.004,-0.143,-14.612,126.494,3.101
19:55:06:527,32.541,0.068,0.042,0.053,-14.632,126.305,3.943
19:55:06:561,32.575,0.036,0.032,-0.079,-14.540,125.575,5.357
19:55:06:562,32.576,0.001,0.006,-0.075,-14.290,124.657,6.432
19:55:06:562,32.576,0.024,0.034,-0.073,-13.762,123.565,8.092
19:55:06:563,32.577,0.030,0.101,0.004,-13.097,122.754,9.729
19:55:06:617,32.631,-0.003,0.114,-0.099,-12.500,122.042,10.846
19:55:06:617,32.631,-0.095,0.222,-0.242,-11.339,120.865,12.650
19:55:06:617,32.631,-0.043,0.322,-0.440,-10.319,120.251,14.181
19:55:06:617,32.631,-0.172,0.423,-0.540,-8.395,119.528,16.972
19:55:06:666,32.680,-0.518,0.636,-0.708,-5.444,119.236,20.836
19:55:06:667,32.681,-0.815,0.548,-0.707,-3.030,119.294,23.897
19:55:06:667,32.681,-1.108,0.374,-1.265,1.167,118.880,29.410
19:55:06:668,32.682,-0.823,0.285,-0.604,4.644,117.935,33.252
19:55:06:712,32.726,-1.006,0.462,-0.294,6.715,120.206,39.462
19:55:06:739,32.753,-0.838,-0.162,0.015,8.837,122.761,44.208
19:55:06:739,32.753,-0.817,-0.912,-0.499,10.683,123.075,45.953
19:55:06:761,32.776,-0.464,-0.903,-0.027,12.533,123.224,47.247
19:55:06:789,32.803,-0.339,-1.227,-0.136,12.542,123.105,46.719
19:55:06:814,32.828,-0.305,-1.137,-0.127,11.797,123.112,43.713
19:55:06:843,32.857,-0.262,-0.900,0.059,10.254,123.485,40.545
19:55:06:894,32.908,-0.371,-0.788,0.086,7.438,123.993,34.237
19:55:06:924,32.938,-0.500,-0.599,0.007,3.972,124.816,26.317
19:55:06:948,32.963,-0.501,-0.417,-0.030,1.402,125.855,20.248
19:55:06:949,32.963,-0.478,0.099,0.161,-2.582,128.420,9.966
19:55:06:972,32.986,-0.313,0.465,0.348,-5.343,130.724,2.398
19:55:06:999,33.013,0.307,1.328,0.881,-9.815,135.187,-9.800
19:55:07:056,33.070,1.236,1.647,1.640,-13.166,139.261,-18.047
19:55:07:056,33.070,2.572,0.791,1.348,-19.650,144.835,-28.763
19:55:07:077,33.091,2.763,-1.290,1.536,-25.563,147.057,-35.194
19:55:07:105,33.119,1.728,-0.557,0.534,-26.620,148.006,-35.374
19:55:07:182,33.196,1.016,0.339,-0.424,-23.931,150.938,-31.042
19:55:07:214,33.228,-1.231,0.398,-2.804,-21.335,153.363,-28.184
19:55:07:214,33.228,1.365,-0.279,-0.226,-17.740,159.223,-25.445
19:55:07:215,33.229,1.723,0.516,-0.599,-15.206,164.771,-22.397
19:55:07:235,33.249,-0.448,0.433,-0.654,-14.678,166.602,-19.792
19:55:07:291,33.305,0.487,0.066,0.098,-14.994,168.795,-15.938
19:55:07:292,33.306,0.084,-0.145,0.283,-14.943,167.978,-13.460
19:55:07:314,33.329,0.117,0.031,0.058,-14.110,165.529,-9.784
19:55:07:368,33.382,0.040,0.064,-0.128,-13.248,164.724,-7.015
19:55:07:369,33.383,0.131,-0.038,-0.084,-12.803,165.321,-5.799
19:55:07:393,33.407,0.249,0.011,0.100,-12.322,166.220,-4.324
19:55:07:422,33.436,0.079,-0.034,-0.081,-11.990,166.070,-3.404
19:55:07:473,33.487,0.099,-0.038,-0.189,-11.642,165.688,-2.182
19:55:07:474,33.488,0.104,0.031,-0.049,-11.561,165.526,-1.034
19:55:07:498,33.513,0.027,0.025,-0.043,-11.467,165.308,-0.191
19:55:07:552,33.566,0.121,0.035,0.035,-11.175,164.933,1.121
19:55:07:553,33.567,0.063,0.007,-0.054,-10.875,164.401,2.064
19:55:07:634,33.648,0.097,0.013,0.013,-10.364,163.766,3.495
19:55:07:634,33.648,0.077,0.021,-0.042,-9.965,163.177,4.462
19:55:07:635,33.649,0.003,0.099,-0.104,-9.249,162.185,5.933
19:55:07:771,33.785,-0.130,0.264,0.020,-8.133,161.885,7.635
19:55:07:771,33.785,-0.180,0.319,-0.120,-7.064,161.322,9.075
19:55:07:771,33.785,-0.301,0.406,-0.228,-4.686,160.760,11.865
19:55:07:771,33.785,-0.428,0.470,-0.192,-2.612,160.531,14.153
19:55:07:792,33.806,-0.880,0.564,0.192,1.010,160.746,18.289
19:55:07:792,33.806,-1.576,0.442,0.021,5.077,160.679,23.482
19:55:07:87,33.884,-1.743,0.171,0.249,8.265,160.284,27.312
19:55:07:871,33.885,-0.802,0.515,0.505,11.675,161.665,33.467
19:55:07:871,33.885,-0.538,0.088,0.774,12.674,164.546,37.241
19:55:07:891,33.905,-0.996,-0.707,0.292,14.575,167.383,40.792
19:55:07:95,33.964,-0.359,-0.913,0.239,16.362,167.988,42.379
19:55:07:95,33.964,-0.348,-1.000,0.409,15.890,169.378,42.189
19:55:07:95,33.964,-0.325,-1.205,0.085,14.266,170.214,39.639
19:55:08:137,34.151,-0.155,-0.962,0.221,12.005,171.421,36.856
19:55:08:138,34.152,-0.241,-0.895,0.295,8.023,173.253,31.112
19:55:08:139,34.153,-0.229,-0.720,0.310,5.329,174.415,26.221
19:55:08:14,34.154,-0.225,-0.500,0.374,1.391,176.258,17.444
19:55:08:189,34.203,-0.079,0.030,0.366,-2.485,177.984,7.093
19:55:08:19,34.204,0.139,0.431,0.268,-5.252,178.735,-0.672
19:55:08:191,34.205,0.755,1.300,-0.046,-10.311,-179.950,-12.727
19:55:08:192,34.206,1.992,1.418,-0.576,-14.000,-177.558,-20.706
19:55:08:209,34.223,2.293,0.568,-0.851,-19.691,-173.729,-31.241
19:55:08:209,34.223,3.329,-1.301,-1.012,-23.874,-169.741,-38.040
19:55:08:262,34.277,2.464,-1.384,-1.046,-24.921,-168.977,-38.446
19:55:08:263,34.278,0.084,0.781,-0.571,-21.921,-167.750,-34.032
19:55:08:313,34.327,-0.279,-0.474,-1.363,-20.028,-166.379,-31.426
19:55:08:314,34.328,0.791,0.108,-1.195,-16.540,-162.786,-28.450
19:55:08:338,34.352,0.895,0.033,-0.219,-14.538,-160.642,-26.088
19:55:08:55,34.564,0.270,-0.106,0.220,-14.080,-159.004,-22.207
19:55:08:712,34.726,0.443,0.014,-0.066,-13.824,-156.163,-18.977
19:55:08:713,34.727,0.338,-0.104,-0.218,-13.450,-156.259,-17.010
19:55:08:713,34.727,0.114,-0.030,-0.171,-13.003,-158.212,-14.339
19:55:08:733,34.747,0.066,-0.024,-0.106,-13.002,-159.068,-12.970
19:55:08:848,34.862,0.066,-0.028,-0.065,-13.202,-158.818,-11.582
19:55:08:849,34.863,0.259,0.038,-0.027,-13.387,-158.124,-10.731
19:55:08:85,34.864,0.355,-0.012,-0.022,-13.408,-158.278,-9.356
19:55:08:85,34.864,-0.018,0.009,-0.017,-13.333,-161.559,-7.564
19:55:08:899,34.913,-0.163,0.004,0.097,-13.202,-163.438,-6.405
19:55:08:899,34.913,0.002,0.029,0.035,-12.574,-164.040,-4.753
19:55:08:899,34.913,0.041,0.018,0.024,-11.644,-164.049,-2.765
19:55:08:9,34.914,0.057,0.027,-0.039,-10.988,-164.083,-1.298
19:55:08:926,34.940,0.148,0.007,-0.052,-10.076,-164.357,0.877
19:55:08:926,34.940,0.140,0.033,-0.044,-9.470,-164.785,2.233
19:55:08:926,34.940,0.025,0.068,-0.050,-8.470,-165.738,4.190
19:55:08:926,34.940,-0.045,0.218,0.036,-7.610,-166.386,5.539
19:55:08:949,34.963,-0.155,0.273,-0.030,-6.013,-167.201,7.801
19:55:08:951,34.965,-0.260,0.361,-0.026,-4.056,-168.776,10.634
19:55:08:951,34.965,-0.379,0.489,0.107,-2.391,-169.046,12.917
19:55:08:952,34.966,-0.641,0.593,0.402,0.782,-169.976,16.991
19:55:08:974,34.988,-1.120,0.547,0.692,3.298,-170.380,20.163
19:55:08:975,34.989,-1.323,0.177,0.925,7.592,-171.455,25.455
19:55:08:975,34.989,-0.340,0.524,0.886,10.677,-170.858,31.540
19:55:09:052,35.066,-0.494,0.404,0.839,12.076,-168.963,35.476
19:55:09:052,35.067,-0.519,-0.689,0.760,14.992,-167.970,39.625
19:55:09:054,35.068,-0.151,-0.809,0.385,17.475,-168.581,40.661
19:55:09:073,35.087,-0.210,-1.113,0.510,19.355,-169.668,41.015
19:55:09:1,35.114,-0.377,-1.198,0.123,19.593,-170.539,39.782
19:55:09:125,35.139,-0.218,-1.014,0.124,17.913,-170.833,36.273
19:55:09:179,35.193,-0.140,-0.891,0.267,14.530,-170.414,31.135
19:55:09:288,35.302,-0.150,-0.781,0.363,11.818,-169.905,26.693
19:55:09:289,35.303,-0.115,-0.579,0.449,7.308,-168.487,18.762
19:55:09:345,35.359,-0.085,-0.282,0.465,4.180,-167.018,12.714
19:55:09:345,35.359,0.330,0.295,0.477,-0.503,-164.073,2.424
19:55:09:346,35.360,0.677,0.931,0.156,-5.327,-161.602,-9.221
19:55:09:347,35.361,1.482,1.318,-0.131,-8.881,-159.244,-16.994
19:55:09:364,35.378,2.208,0.812,-1.723,-15.406,-155.096,-27.674
19:55:09:365,35.379,2.334,-0.659,-1.391,-20.258,-154.399,-33.104
19:55:09:441,35.455,2.825,-1.460,-1.929,-24.454,-151.840,-37.942
19:55:09:58,35.594,1.166,-0.602,-1.729,-23.798,-150.646,-35.214
19:55:09:582,35.596,-1.264,1.078,-0.570,-21.383,-149.373,-31.618
19:55:09:582,35.596,0.532,-0.785,-1.933,-18.681,-146.309,-29.450
19:55:09:582,35.596,0.566,0.019,-0.877,-15.125,-142.248,-27.378
19:55:09:661,35.675,0.544,0.397,-0.802,-13.787,-140.285,-23.769
19:55:09:662,35.676,0.583,-0.082,-0.358,-13.192,-138.022,-21.214
19:55:09:663,35.677,0.294,-0.194,-0.378,-12.652,-136.204,-18.187
19:55:09:663,35.677,0.200,0.035,-0.223,-11.886,-137.574,-15.391
19:55:09:681,35.695,0.081,-0.008,-0.125,-11.534,-138.760,-13.745
19:55:09:682,35.696,0.085,-0.006,-0.023,-11.397,-138.877,-11.783
19:55:09:683,35.697,0.278,-0.023,-0.089,-11.334,-138.246,-10.880
19:55:09:703,35.717,0.270,-0.004,-0.108,-11.075,-138.111,-9.681
19:55:09:788,35.803,0.013,0.001,-0.086,-10.784,-140.052,-8.212
19:55:09:789,35.804,-0.096,-0.015,-0.011,-10.644,-141.279,-7.205
19:55:09:791,35.805,0.191,0.015,0.006,-10.327,-141.954,-5.936
19:55:09:811,35.825,0.103,0.007,0.013,-10.029,-142.539,-5.079
19:55:09:861,35.875,0.012,0.012,0.034,-9.341,-143.779,-3.650
19:55:09:888,35.902,0.051,0.016,0.025,-8.759,-144.306,-2.608
19:55:09:889,35.903,0.038,0.027,0.075,-7.759,-144.746,-0.869
19:55:09:97,35.984,0.091,0.066,-0.027,-6.633,-145.159,1.038
19:55:09:971,35.985,0.044,0.116,0.020,-5.754,-145.566,2.383
19:55:09:972,35.986,0.028,0.256,0.048,-4.164,-146.129,4.548
19:55:10:049,36.063,-0.197,0.354,0.042,-2.928,-146.628,6.178
19:55:10:049,36.063,-0.220,0.379,0.133,-0.596,-147.272,9.040
19:55:10:05,36.064,-0.351,0.558,0.380,2.773,-147.890,12.549
19:55:10:098,36.112,-0.344,0.544,0.825,5.578,-148.132,15.293
19:55:10:162,36.176,-0.945,0.354,1.302,10.368,-148.916,20.083
19:55:10:163,36.177,-0.572,0.108,1.266,13.872,-149.378,23.698
19:55:10:163,36.177,0.272,0.530,1.114,16.496,-145.777,30.585
19:55:10:163,36.177,0.231,-0.188,1.009,18.542,-141.633,36.557
19:55:10:447,36.461,-0.356,-0.777,0.886,20.076,-140.491,39.056
19:55:10:447,36.461,0.025,-1.062,0.527,22.697,-140.059,40.776
19:55:10:447,36.461,0.121,-1.116,0.612,22.959,-139.607,40.684
19:55:10:448,36.462,-0.127,-1.168,0.274,22.219,-138.741,38.427
19:55:10:463,36.478,0.158,-0.935,0.274,20.623,-137.416,35.873
19:55:10:529,36.543,0.197,-0.929,0.367,17.559,-135.418,30.277
19:55:10:529,36.543,0.194,-0.752,0.454,14.076,-133.553,22.717
19:55:10:529,36.543,0.291,-0.513,0.570,11.652,-132.151,16.778
19:55:10:549,36.563,0.483,-0.102,0.487,7.845,-129.769,6.669
19:55:10:55,36.564,0.865,0.695,0.093,5.120,-128.075,-0.715
19:55:10:551,36.565,1.259,1.249,-0.580,0.564,-124.574,-12.032
19:55:10:604,36.618,1.405,1.222,-1.430,-4.431,-119.345,-22.449
19:55:10:604,36.618,1.061,0.600,-2.212,-8.059,-115.462,-28.245
19:55:10:605,36.619,0.924,-0.866,-2.117,-12.928,-112.476,-34.205
19:55:10:606,36.620,0.796,-1.083,-2.569,-13.856,-110.182,-35.768
19:55:10:622,36.636,0.205,-0.042,-1.561,-13.497,-108.559,-32.601
19:55:10:654,36.668,-1.752,0.491,1.366,-11.167,-105.634,-28.737
19:55:10:654,36.668,-0.895,-0.058,-1.650,-8.825,-101.961,-27.135
19:55:10:654,36.668,0.673,0.171,-1.685,-5.746,-96.543,-23.595
19:55:10:674,36.688,-0.188,0.108,0.345,-5.827,-95.668,-20.942
19:55:10:782,36.796,0.504,-0.087,-0.382,-6.564,-92.835,-17.072
19:55:10:783,36.797,0.216,-0.166,-0.233,-6.536,-92.575,-15.160
19:55:10:814,36.828,0.034,0.037,-0.094,-5.909,-93.902,-12.837
19:55:10:815,36.829,-0.040,0.004,0.025,-5.666,-94.684,-10.922
19:55:10:815,36.829,0.052,0.006,-0.067,-5.745,-94.214,-9.824
19:55:10:83,36.845,0.242,-0.005,-0.171,-5.737,-93.772,-8.344
19:55:10:857,36.871,0.233,-0.058,0.066,-5.545,-94.578,-7.339
19:55:10:888,36.902,-0.009,0.012,0.015,-5.014,-95.949,-5.839
19:55:10:909,36.923,0.142,0.020,-0.014,-4.457,-96.589,-4.411
19:55:10:936,36.950,0.201,0.005,0.057,-4.081,-97.021,-3.374
19:55:10:992,37.007,0.130,-0.036,0.001,-3.395,-97.506,-1.623
19:55:10:993,37.007,0.058,0.024,-0.066,-2.864,-97.604,-0.369
19:55:11:015,37.029,0.098,0.013,-0.044,-2.011,-97.804,1.559
19:55:11:099,37.113,0.083,0.035,-0.081,-1.474,-97.931,2.850
19:55:11:099,37.113,0.063,0.079,-0.077,-0.632,-98.081,4.687
19:55:11:121,37.135,0.098,0.092,0.052,0.433,-98.648,6.402
19:55:11:23,37.244,0.116,0.188,0.133,1.345,-99.067,7.620
19:55:11:23,37.244,0.113,0.260,0.216,3.169,-99.587,9.730
19:55:11:368,37.382,0.137,0.373,0.359,4.760,-99.888,11.451
19:55:11:369,37.383,0.227,0.555,0.645,7.691,-100.208,14.709
19:55:11:369,37.383,0.504,0.455,1.018,11.515,-100.202,18.957
19:55:11:37,37.384,0.403,0.434,1.637,14.471,-100.284,22.494
19:55:11:599,37.613,0.654,0.045,1.278,19.159,-100.051,28.688
19:55:11:629,37.643,1.119,0.521,0.637,20.739,-97.825,33.666
19:55:11:629,37.643,1.040,0.056,0.543,23.079,-94.069,40.460
19:55:11:629,37.643,-0.003,-0.627,0.481,26.225,-93.332,44.206
19:55:11:63,37.644,0.353,-0.787,-0.018,28.704,-93.859,45.155
19:55:11:778,37.792,0.295,-1.177,0.277,29.196,-94.180,44.984
19:55:11:917,37.931,0.031,-1.293,0.320,28.597,-94.681,43.262
19:55:11:917,37.931,0.146,-0.993,0.156,25.743,-94.667,39.004
19:55:11:918,37.932,0.263,-0.944,0.171,23.097,-94.562,35.198
19:55:11:919,37.933,0.303,-0.836,0.261,18.491,-94.530,27.989
19:55:12:365,38.379,0.320,-0.534,0.369,13.366,-94.077,19.494
19:55:12:366,38.380,0.372,-0.202,0.365,9.802,-93.173,13.264
19:55:12:367,38.381,0.443,0.388,0.087,4.464,-90.666,2.939
19:55:12:367,38.381,0.469,1.511,-0.564,1.010,-88.404,-4.659
19:55:12:466,38.480,0.399,1.728,-1.651,-3.853,-83.055,-16.273
19:55:12:467,38.481,-0.819,0.801,-2.559,-8.369,-77.057,-26.368
19:55:12:468,38.482,-0.934,-0.829,-2.953,-11.174,-74.849,-31.000
19:55:12:496,38.510,-0.899,-0.893,-1.837,-14.016,-75.006,-32.321
19:55:12:497,38.511,-0.889,-0.259,-1.767,-13.476,-75.487,-29.143
19:55:12:497,38.511,0.405,1.000,3.368,-11.528,-74.496,-23.900
19:55:12:498,38.512,-0.266,0.144,-0.728,-10.084,-72.433,-22.265
19:55:12:6,38.614,-0.252,-0.023,-2.081,-6.783,-65.863,-18.285
19:55:12:6,38.614,0.407,0.118,-0.030,-6.920,-64.719,-13.858
19:55:12:6,38.615,0.166,0.081,-0.280,-7.418,-63.285,-11.276
19:55:12:6,38.615,0.154,-0.069,-0.178,-7.255,-64.048,-8.121
19:55:12:619,38.633,0.025,-0.154,0.144,-6.748,-65.613,-6.099
19:55:12:752,38.767,-0.028,0.036,0.044,-6.340,-67.351,-1.317
19:55:12:778,38.792,0.152,0.058,-0.196,-6.195,-67.894,-0.047
19:55:12:778,38.792,0.142,0.009,0.067,-5.668,-69.345,1.651
19:55:12:985,38.999,0.075,-0.016,-0.064,-5.396,-69.900,2.611
19:55:13:011,39.025,0.145,0.039,-0.072,-5.105,-70.569,3.911
19:55:13:467,39.481,1.061,0.178,1.218,10.818,-75.496,25.214
19:55:13:467,39.481,1.084,0.115,1.115,14.589,-75.398,30.821
19:55:13:467,39.481,1.111,0.664,0.296,15.921,-74.075,35.426
19:55:13:467,39.481,1.070,-0.074,0.453,18.130,-72.195,41.957
19:55:13:538,39.552,0.785,-0.502,0.320,20.294,-71.622,45.000
19:55:13:539,39.553,0.199,-0.337,-0.340,24.696,-73.206,46.790
19:55:13:726,39.740,0.262,-0.976,0.011,27.051,-74.538,47.360
19:55:13:726,39.740,0.104,-1.033,0.085,27.665,-76.309,46.098
19:55:13:727,39.741,0.040,-1.135,0.168,25.779,-77.351,43.343
19:55:13:753,39.767,0.090,-1.076,0.159,23.216,-77.771,40.670
19:55:13:754,39.768,0.252,-0.929,0.138,18.026,-77.804,35.295
19:55:13:755,39.769,0.389,-0.680,0.122,14.270,-77.671,30.760
19:55:13:756,39.770,0.422,-0.519,0.196,9.063,-77.780,22.380
19:55:13:834,39.848,0.391,0.018,0.203,4.060,-78.486,12.526
19:55:13:835,39.849,0.233,0.569,0.206,0.628,-79.423,5.339
19:55:13:836,39.850,-0.236,1.362,-0.107,-5.392,-80.305,-5.678
19:55:13:836,39.850,-1.076,1.781,-1.016,-9.806,-79.393,-12.993
19:55:13:935,39.949,-1.344,0.669,-1.920,-15.495,-75.943,-23.162
19:55:13:935,39.949,-2.210,-1.303,-2.544,-18.382,-70.345,-30.029
19:55:13:994,40.008,-0.978,-0.422,-1.412,-18.078,-68.998,-29.547
19:55:13:994,40.008,0.130,-0.059,-0.078,-13.295,-63.266,-12.994
19:55:13:995,40.009,0.161,-0.004,-0.166,-13.316,-63.947,-11.633
19:55:13:995,40.009,0.217,0.368,0.208,-2.848,-75.005,15.112
19:55:14:044,40.058,0.296,0.489,0.441,-0.188,-75.907,17.795
19:55:14:045,40.059,0.540,0.484,0.581,3.212,-76.526,21.162
19:55:14:046,40.060,0.816,0.322,1.040,5.860,-76.938,23.912
19:55:14:047,40.061,0.942,0.183,1.240,10.476,-77.899,28.726
19:55:14:325,40.339,0.897,0.347,0.555,15.289,-78.588,34.253
19:55:14:379,40.393,0.387,-1.128,0.311,28.189,-79.286,45.596
19:55:14:38,40.394,-0.052,-1.206,0.359,27.645,-81.647,42.852
19:55:14:437,40.451,0.061,-0.906,0.092,24.494,-82.971,38.302
19:55:14:437,40.451,0.215,-0.941,0.236,21.698,-83.971,34.280
19:55:14:437,40.452,0.265,-0.793,0.368,16.688,-85.435,26.881
19:55:14:438,40.453,0.312,-0.370,0.356,11.061,-86.033,18.355
19:55:14:536,40.550,0.282,-0.090,0.246,7.264,-86.089,12.008
19:55:14:536,40.550,0.121,0.627,-0.004,1.529,-85.779,1.606
19:55:14:559,40.573,0.058,1.285,-0.614,-2.360,-84.701,-5.598
19:55:14:594,40.608,-0.601,1.599,-2.028,-7.952,-80.784,-16.506
19:55:14:595,40.609,-1.038,0.405,-2.516,-13.273,-77.486,-25.995
19:55:14:596,40.610,-1.558,-1.009,-3.058,-16.108,-76.061,-29.904
19:55:14:62,40.634,0.716,1.134,2.295,-16.725,-76.224,-25.842
19:55:14:621,40.635,-1.339,-0.545,0.046,-15.148,-73.650,-22.751
19:55:14:671,40.685,0.230,0.122,-0.565,-12.177,-61.541,-16.599
19:55:14:672,40.686,0.351,-0.205,-0.202,-12.532,-60.444,-15.484
19:55:14:673,40.687,0.162,-0.030,-0.237,-12.348,-61.377,-13.945
19:55:14:692,40.706,0.161,0.017,0.161,-12.005,-63.054,-12.418
19:55:14:719,40.733,0.045,0.031,-0.051,-8.015,-69.019,-0.475
19:55:14:721,40.735,0.144,0.027,-0.082,-6.843,-69.273,1.807
19:55:14:751,40.765,0.116,0.043,-0.016,-6.067,-69.640,3.224
19:55:14:752,40.766,0.059,0.076,-0.110,-4.993,-69.910,5.264
19:55:14:753,40.767,0.153,0.065,-0.066,-4.287,-70.186,6.544
19:55:14:754,40.768,0.212,0.070,0.034,-2.991,-71.167,8.419
19:55:14:805,40.819,0.256,0.273,0.264,-1.129,-72.240,10.574
19:55:14:805,40.819,0.183,0.331,0.299,0.387,-73.446,12.345
19:55:14:806,40.820,0.154,0.395,0.429,2.875,-73.705,15.621
19:55:14:806,40.821,0.323,0.458,0.531,4.732,-74.005,18.207
19:55:14:83,40.845,0.773,0.404,0.680,8.142,-73.861,22.677
19:55:14:83,40.845,1.135,0.118,1.302,12.748,-74.685,27.756
19:55:14:832,40.846,1.022,-0.081,1.078,16.563,-76.040,31.203
19:55:14:833,40.847,1.166,0.362,0.291,19.280,-74.502,37.656
19:55:14:876,40.890,1.028,-0.440,0.386,21.683,-73.343,41.459
19:55:14:909,40.923,0.465,-1.108,0.884,26.109,-74.140,45.020
19:55:14:909,40.923,0.500,-1.025,0.111,29.371,-75.766,45.599
19:55:14:91,40.924,0.304,-1.104,0.218,30.812,-78.746,44.824
19:55:14:912,40.926,-0.059,-1.277,0.366,29.677,-81.537,41.688
19:55:14:988,41.002,-0.013,-1.038,0.300,27.227,-82.559,38.299
19:55:14:988,41.002,0.118,-0.878,0.251,22.644,-83.740,32.087
19:55:14:989,41.003,0.240,-0.739,0.372,18.997,-84.374,26.958
19:55:14:99,41.004,0.277,-0.471,0.450,13.328,-84.332,18.588
19:55:15:004,41.019,0.371,0.186,0.186,7.406,-82.424,8.931
19:55:15:12,41.134,0.198,0.665,-0.048,3.694,-80.562,1.420
19:55:15:121,41.135,0.124,1.643,-0.952,-1.112,-75.333,-10.163
19:55:15:122,41.136,-0.279,1.860,-2.180,-3.397,-69.945,-17.678
19:55:15:123,41.137,-1.014,0.265,-3.013,-6.701,-63.323,-26.265
19:55:15:135,41.149,-2.276,-0.971,-2.755,-8.840,-61.354,-28.546
19:55:15:221,41.235,-0.808,-0.264,-1.593,-7.495,-58.665,-24.917
19:55:15:221,41.235,1.266,1.233,2.599,-4.899,-53.701,-19.140
19:55:15:273,41.287,-1.493,-0.139,-0.758,-3.529,-49.248,-17.293
19:55:15:274,41.288,-0.347,0.054,-1.255,-2.053,-43.077,-12.487
19:55:15:275,41.289,-0.231,0.388,0.096,-2.572,-42.655,-9.620
19:55:15:293,41.307,-0.094,0.070,-0.809,-3.900,-40.099,-4.842
19:55:15:321,41.335,-0.150,-0.178,-0.578,-3.827,-40.529,-1.062
19:55:15:348,41.362,0.205,-0.031,0.221,-3.262,-41.880,1.272
19:55:15:401,41.415,0.076,0.048,0.022,-3.015,-41.530,4.130
19:55:15:401,41.416,-0.010,0.042,0.039,-3.058,-40.056,5.435
19:55:15:453,41.467,0.004,0.056,-0.208,-2.852,-38.871,7.095
19:55:15:51,41.524,0.131,0.006,0.107,-2.160,-39.459,8.721
19:55:15:511,41.525,0.106,0.003,0.067,-1.856,-39.770,9.769
19:55:15:511,41.525,0.162,0.005,0.034,-1.465,-40.640,11.324
19:55:15:529,41.543,0.135,0.012,0.031,-1.205,-41.245,12.329
19:55:15:643,41.657,0.165,0.016,0.052,-0.798,-42.026,13.744
19:55:15:644,41.658,0.162,0.023,-0.052,-0.554,-42.321,14.670
19:55:15:644,41.658,0.172,0.042,-0.005,-0.070,-42.942,15.996
19:55:15:645,41.659,0.139,0.042,0.039,0.587,-43.707,17.223
19:55:15:664,41.678,0.201,0.110,0.119,1.070,-43.909,18.052
19:55:15:687,41.701,0.378,0.177,0.264,2.101,-44.632,19.575
19:55:15:716,41.730,0.468,0.184,0.293,3.022,-44.666,21.004
19:55:15:771,41.785,0.552,0.213,0.209,4.854,-44.574,23.932
19:55:15:771,41.786,0.860,0.356,0.285,7.666,-44.345,27.656
19:55:15:792,41.806,1.134,0.389,0.344,10.419,-44.432,30.501
19:55:15:906,41.920,1.592,0.021,0.837,15.956,-45.551,35.228
19:55:15:907,41.921,1.625,-0.217,0.825,20.162,-46.431,38.786
19:55:15:908,41.922,1.425,0.171,0.103,23.396,-43.979,45.795
19:55:15:909,41.923,1.042,-0.123,-0.033,25.052,-41.356,49.877
19:55:16:009,42.023,0.861,-0.941,0.053,28.434,-39.084,53.944
19:55:16:009,42.023,0.367,-0.792,-0.190,30.893,-37.627,55.565
19:55:16:01,42.024,0.348,-1.155,-0.195,30.570,-36.748,55.202
19:55:16:06,42.074,0.199,-1.388,0.107,28.942,-35.240,52.591
19:55:16:061,42.075,0.196,-0.971,-0.217,26.449,-33.824,49.760
19:55:16:087,42.101,0.310,-0.831,-0.455,22.200,-31.737,43.866
19:55:16:087,42.101,0.478,-0.783,-0.561,17.765,-30.195,36.064
19:55:16:107,42.121,0.510,-0.531,-0.585,14.671,-29.379,30.082
19:55:16:193,42.207,0.623,-0.105,-0.585,10.182,-28.570,20.084
19:55:16:193,42.207,0.577,0.241,-0.632,6.873,-27.761,13.302
19:55:16:194,42.208,0.118,1.094,-0.777,1.273,-25.042,3.055
19:55:16:214,42.228,-0.575,1.620,-0.997,-4.681,-20.228,-7.284
19:55:16:326,42.340,-1.304,1.459,-0.971,-8.772,-16.536,-13.850
19:55:16:326,42.340,-2.226,0.243,0.457,-14.974,-13.848,-21.615
19:55:16:327,42.341,-2.015,-0.804,0.340,-17.584,-13.564,-23.712
19:55:16:328,42.342,-1.768,-0.310,0.559,-17.508,-12.793,-20.248
19:55:16:374,42.388,3.243,0.948,0.611,-16.495,-11.854,-16.819
19:55:16:374,42.388,-2.071,0.007,1.469,-15.853,-9.283,-15.207
19:55:16:456,42.470,-1.244,0.464,-0.677,-14.455,-5.559,-12.814
19:55:16:456,42.470,-0.037,0.353,0.233,-14.975,-5.018,-10.501
19:55:16:457,42.471,0.002,0.203,-0.150,-15.798,-2.190,-8.105
19:55:16:474,42.488,0.097,-0.194,-0.149,-16.045,-1.260,-6.903
19:55:16:501,42.515,0.131,-0.005,-0.150,-15.892,-1.431,-5.149
19:55:16:609,42.623,0.293,-0.056,0.001,-15.914,-1.569,-3.434
19:55:16:667,42.681,0.208,-0.008,-0.087,-15.928,-0.971,-2.372
19:55:16:667,42.681,0.021,0.084,-0.036,-15.608,-0.649,-0.437
19:55:16:668,42.682,0.070,0.017,-0.001,-15.160,-1.306,1.137
19:55:16:69,42.704,0.226,-0.057,0.012,-14.384,-2.906,3.752
19:55:16:691,42.705,0.197,-0.041,0.010,-13.834,-3.732,5.480
19:55:16:692,42.706,0.155,-0.011,-0.049,-12.906,-4.762,8.094
19:55:16:769,42.783,0.163,0.013,0.017,-11.633,-5.787,10.721
19:55:16:77,42.784,0.098,0.040,0.042,-10.802,-6.138,12.304
19:55:17:034,43.048,0.180,0.056,-0.027,-8.941,-6.774,15.728
19:55:17:141,43.155,0.212,0.074,-0.046,-7.733,-8.007,17.709
19:55:17:141,43.155,0.398,0.179,-0.004,-6.164,-8.513,19.886
19:55:17:142,43.156,0.456,0.257,0.127,-4.872,-9.289,21.560
19:55:17:143,43.157,0.641,0.306,0.090,-2.272,-9.368,24.645
19:55:17:215,43.229,0.801,0.333,0.017,0.002,-9.811,27.154
19:55:17:215,43.229,1.225,0.353,-0.250,4.240,-9.708,31.648
19:55:17:276,43.290,1.820,-0.167,-0.205,9.598,-10.167,36.890
19:55:17:277,43.291,1.736,-0.259,-0.399,13.793,-10.515,40.797
19:55:17:277,43.291,0.864,0.497,-0.813,15.473,-7.372,47.581
19:55:17:278,43.292,0.788,-0.280,-0.806,16.784,-5.280,51.422
19:55:17:326,43.340,0.923,-1.083,-0.334,20.012,-4.484,55.168
19:55:17:327,43.341,0.244,-0.956,-0.345,23.342,-4.732,56.078
19:55:17:327,43.341,0.196,-1.087,-0.432,24.727,-5.412,55.834
19:55:17:328,43.342,0.285,-1.327,0.066,24.226,-6.614,53.031
19:55:17:346,43.360,0.242,-1.066,0.005,21.927,-6.979,50.045
19:55:17:346,43.360,0.226,-0.939,-0.069,17.057,-7.465,44.157
19:55:17:378,43.392,0.287,-0.843,-0.123,13.486,-7.857,39.361
19:55:17:378,43.392,0.458,-0.705,-0.138,8.089,-8.462,30.881
19:55:17:379,43.393,0.378,-0.236,-0.176,2.699,-8.712,21.036
19:55:17:379,43.393,0.426,0.283,0.009,-0.686,-9.089,13.727
19:55:17:404,43.418,-0.277,1.481,0.062,-6.117,-7.643,2.389
19:55:17:404,43.418,-0.872,1.844,0.131,-9.577,-4.501,-5.231
19:55:17:404,43.418,-2.075,1.163,0.499,-14.046,1.872,-15.766
19:55:17:404,43.419,-2.366,0.391,0.545,-16.374,5.385,-21.003
19:55:17:45,43.464,-2.801,-0.770,0.701,-18.204,7.646,-23.510
19:55:17:451,43.465,2.622,1.279,-0.641,-16.866,9.586,-19.780
19:55:17:472,43.486,-1.135,-0.295,1.443,-16.163,10.454,-18.485
19:55:17:639,43.653,-0.689,0.112,0.399,-14.234,14.261,-14.864
19:55:17:639,43.653,-0.304,0.322,0.752,-14.261,15.639,-12.347
19:55:17:64,43.654,-0.316,0.017,0.183,-14.903,17.475,-8.219
19:55:17:641,43.655,-0.225,-0.195,-0.024,-15.537,18.221,-4.893
19:55:17:664,43.678,-0.049,-0.054,0.049,-15.354,17.454,-2.895
19:55:17:665,43.679,0.066,0.060,0.174,-14.671,16.157,-0.519
19:55:17:666,43.680,0.136,0.011,0.168,-14.547,15.469,0.814
19:55:17:822,43.836,0.126,0.023,-0.044,-14.926,14.772,2.294
19:55:17:823,43.837,0.056,-0.001,-0.195,-14.955,13.627,3.549
19:55:17:824,43.838,0.216,-0.058,-0.098,-14.651,12.404,4.521
19:55:17:825,43.839,0.282,0.013,-0.020,-14.001,10.996,6.205
19:55:17:845,43.859,0.227,-0.041,-0.112,-13.523,10.510,7.523
19:55:17:846,43.860,0.195,-0.024,-0.101,-12.721,10.597,9.697
19:55:17:847,43.861,0.081,0.064,0.004,-12.155,10.884,11.260
19:55:17:867,43.881,0.080,0.067,0.077,-11.297,11.065,13.583
19:55:18:033,44.048,0.167,0.018,0.055,-10.333,10.780,15.784
19:55:18:033,44.048,0.162,0.077,0.014,-9.679,11.712,17.187
19:55:18:034,44.048,0.289,0.080,0.098,-8.625,11.321,19.294
19:55:18:035,44.049,0.365,0.186,-0.063,-7.841,12.208,20.746
19:55:18:057,44.071,0.383,0.195,-0.133,-6.171,12.116,23.130
19:55:18:058,44.072,0.542,0.280,-0.236,-3.770,13.013,26.040
19:55:18:058,44.072,0.821,0.358,-0.270,-1.755,12.805,28.356
19:55:18:106,44.120,1.152,0.249,-0.824,2.349,13.246,32.481
19:55:18:106,44.120,1.496,0.068,-0.914,5.706,12.848,35.772
19:55:18:182,44.196,0.978,0.218,-0.827,10.356,12.996,41.648
19:55:18:207,44.221,0.840,0.430,-1.074,10.844,15.410,46.213
19:55:18:239,44.253,0.503,0.092,-0.942,13.109,18.377,51.838
19:55:18:24,44.254,0.492,-0.757,-0.147,17.559,19.665,54.989
19:55:18:241,44.255,-0.053,-0.653,-0.457,21.268,19.332,55.872
19:55:18:316,44.330,0.150,-1.175,-0.363,22.232,18.937,55.011
19:55:18:316,44.331,0.195,-1.242,-0.109,21.480,18.405,53.183
19:55:18:612,44.626,0.173,-1.023,-0.148,17.966,18.037,48.539
19:55:18:612,44.626,0.116,-0.905,-0.271,13.430,17.457,41.971
19:55:18:612,44.626,0.228,-0.778,-0.374,10.167,16.929,36.626
19:55:18:612,44.626,0.293,-0.549,-0.432,4.962,16.591,27.426
19:55:18:636,44.650,0.269,-0.114,-0.466,1.403,16.886,20.596
19:55:18:637,44.651,-0.004,0.733,-0.306,-3.838,17.705,9.216
19:55:18:637,44.651,-0.612,1.518,0.040,-9.342,20.189,-2.801
19:55:18:638,44.652,-1.497,2.089,0.452,-13.238,23.499,-10.853
19:55:18:691,44.705,-1.529,0.492,1.782,-19.679,28.011,-21.123
19:55:18:692,44.707,-3.034,-1.000,2.674,-23.268,29.515,-25.307
19:55:18:695,44.710,1.552,0.736,0.526,-23.452,29.578,-19.876
19:55:18:706,44.721,2.844,0.650,-2.367,-21.393,33.794,-15.101
19:55:18:767,44.781,-0.662,0.576,1.749,-19.869,41.913,-15.317
19:55:18:768,44.782,0.076,0.153,1.154,-18.878,46.639,-14.550
19:55:18:768,44.782,0.186,0.213,-0.432,-19.725,47.430,-11.187
19:55:18:791,44.805,-0.195,-0.257,-0.132,-20.400,49.037,-9.657
19:55:18:791,44.805,-0.097,-0.007,0.085,-20.551,50.250,-7.913
19:55:18:792,44.806,0.070,0.128,0.230,-19.991,49.429,-6.289
19:55:18:811,44.825,0.284,-0.029,0.044,-19.783,47.996,-5.017
19:55:18:839,44.853,0.048,0.039,-0.220,-19.963,47.129,-3.572
19:55:18:865,44.879,-0.080,0.018,-0.160,-19.775,46.847,-2.549
19:55:18:89,44.904,0.168,0.023,-0.018,-19.001,45.572,-0.545
19:55:18:974,44.988,0.248,-0.011,-0.010,-18.200,44.223,1.726
19:55:18:975,44.989,0.138,-0.001,-0.019,-17.779,43.791,3.190
19:55:18:976,44.990,0.129,-0.007,-0.057,-17.021,43.041,5.506
19:55:18:997,45.011,0.151,-0.013,-0.132,-16.397,42.525,7.114
19:55:19:022,45.036,0.132,0.027,0.023,-15.357,41.944,9.444
19:55:19:047,45.061,0.149,0.025,0.021,-14.640,41.734,10.871
19:55:19:074,45.088,0.191,0.019,0.019,-13.560,41.204,12.902
19:55:19:215,45.229,0.209,0.082,-0.042,-12.532,40.881,14.908
19:55:19:215,45.229,0.210,0.126,-0.059,-11.819,40.854,16.259
19:55:19:216,45.230,0.284,0.159,-0.166,-10.508,40.805,18.486
19:55:19:216,45.230,0.392,0.196,-0.247,-9.329,40.766,20.196
19:55:19:288,45.302,0.516,0.400,-0.400,-6.886,40.850,23.319
19:55:19:553,45.567,0.712,0.567,-0.791,-3.259,40.975,27.214
19:55:19:554,45.568,0.888,0.213,-1.380,0.141,40.940,30.201
19:55:19:554,45.568,1.157,-0.105,-1.510,6.127,40.456,35.616
19:55:19:662,45.676,0.251,0.549,-1.218,8.624,42.144,40.028
19:55:19:662,45.676,0.156,0.275,-1.284,8.595,47.722,46.744
19:55:19:663,45.677,-0.169,-0.754,-0.967,9.011,51.993,51.215
19:55:19:664,45.678,-0.011,-0.372,0.032,9.904,53.627,52.562
19:55:19:687,45.701,-0.532,-1.047,-0.388,10.257,55.716,53.142
19:55:19:687,45.701,-0.133,-1.326,-0.323,10.038,56.511,51.852
19:55:19:688,45.702,-0.156,-1.179,-0.315,9.222,58.089,48.009
19:55:19:688,45.702,-0.283,-0.873,-0.236,7.927,59.407,44.229
19:55:19:708,45.722,-0.295,-0.785,-0.296,5.631,61.112,36.999
19:55:19:709,45.723,-0.330,-0.605,-0.454,2.950,62.452,28.102
19:55:19:735,45.749,-0.279,-0.311,-0.550,0.851,63.422,21.375
19:55:19:735,45.749,-0.403,0.297,-0.390,-2.841,65.648,10.234
19:55:19:762,45.776,-0.482,1.055,-0.060,-5.560,67.806,2.155
19:55:19:762,45.776,-0.692,1.849,0.947,-9.955,73.744,-10.432
19:55:19:763,45.777,-0.751,1.478,2.358,-13.024,79.410,-18.585
19:55:19:818,45.832,0.278,-0.129,2.538,-18.321,86.279,-28.161
19:55:19:818,45.832,-0.123,-0.929,2.442,-20.844,89.815,-31.509
19:55:19:819,45.833,1.059,0.406,0.424,-19.730,91.921,-29.176
19:55:19:82,45.834,1.471,0.839,-2.875,-16.587,96.087,-24.755
19:55:19:84,45.854,0.331,-0.080,1.192,-15.000,99.158,-22.885
19:55:19:841,45.855,0.193,0.331,1.532,-13.132,103.791,-19.185
19:55:19:843,45.857,-0.144,-0.078,-0.023,-13.694,105.643,-15.262
19:55:19:861,45.875,-0.102,-0.090,0.554,-14.373,107.466,-13.256
19:55:19:918,45.932,0.108,-0.062,0.180,-14.718,107.324,-10.647
19:55:19:918,45.932,0.196,-0.065,-0.006,-14.673,106.239,-9.048
19:55:19:968,45.982,0.187,-0.029,-0.119,-15.020,104.713,-6.837
19:55:19:969,45.983,0.118,-0.018,-0.038,-15.396,104.294,-5.039
19:55:19:997,46.011,0.009,0.070,0.167,-15.438,104.186,-3.997
19:55:20:047,46.061,0.060,0.007,-0.039,-15.226,103.075,-2.412
19:55:20:048,46.062,0.190,0.008,-0.119,-15.093,102.348,-1.427
19:55:20:072,46.086,0.085,0.008,-0.090,-14.966,101.582,0.052
19:55:20:097,46.111,0.010,0.003,-0.033,-14.674,101.419,1.705
19:55:20:123,46.137,0.075,0.018,-0.049,-14.364,101.477,2.928
19:55:20:15,46.164,0.182,0.095,0.037,-13.834,101.625,4.835
19:55:20:178,46.192,0.191,0.084,-0.033,-13.440,101.483,6.105
19:55:20:203,46.218,0.185,0.069,-0.081,-12.745,100.941,7.959
19:55:20:23,46.244,0.069,0.107,-0.103,-12.021,100.491,9.186
19:55:20:256,46.270,0.019,0.175,-0.195,-10.587,99.821,11.171
19:55:20:281,46.295,0.091,0.228,-0.322,-8.911,99.299,13.550
19:55:20:365,46.379,0.116,0.250,-0.426,-7.658,99.082,15.455
19:55:20:365,46.379,-0.033,0.398,-0.635,-5.429,99.170,18.879
19:55:20:366,46.380,-0.379,0.520,-0.829,-3.530,99.476,21.561
19:55:20:444,46.458,-0.701,0.303,-1.425,0.094,99.560,26.421
19:55:20:445,46.459,-0.572,0.308,-1.020,3.848,99.615,32.491
19:55:20:661,46.675,-0.866,0.604,-0.645,4.421,101.721,37.059
19:55:20:661,46.675,-0.661,0.084,-0.372,5.364,104.740,42.687
19:55:20:661,46.675,-0.201,-1.018,-0.969,7.226,105.209,45.302
19:55:20:662,46.676,-0.421,-0.801,-0.183,10.913,104.642,46.911
19:55:20:679,46.693,-0.276,-1.247,-0.315,11.469,104.316,47.020
19:55:20:701,46.715,-0.137,-1.312,-0.357,11.205,103.167,44.986
19:55:20:736,46.750,-0.193,-0.938,-0.112,8.498,103.181,40.785
19:55:20:736,46.750,-0.229,-0.878,-0.094,5.864,103.461,37.071
19:55:20:737,46.751,-0.329,-0.751,-0.224,1.414,104.088,30.011
19:55:20:738,46.752,-0.376,-0.539,-0.232,-1.698,104.879,24.278
19:55:20:761,46.776,-0.403,-0.135,-0.129,-6.152,106.415,14.131
19:55:20:762,46.777,-0.143,0.713,0.095,-10.614,107.536,2.271
19:55:20:763,46.777,0.223,1.545,0.625,-14.128,108.304,-6.119
19:55:20:84,46.854,1.364,1.733,1.781,-20.307,111.223,-18.874
19:55:20:84,46.854,1.536,0.154,2.051,-25.088,112.175,-26.033
19:55:20:841,46.855,2.296,-1.511,3.185,-31.248,113.776,-33.087
19:55:20:89,46.904,1.584,-0.872,1.622,-32.158,113.999,-32.063
19:55:20:89,46.904,0.289,1.095,-1.161,-29.713,115.318,-28.428
19:55:20:913,46.927,2.123,-0.728,1.496,-27.620,117.371,-25.374
19:55:20:938,46.952,0.878,0.022,0.688,-24.880,121.998,-24.245
19:55:20:964,46.978,1.203,0.687,0.470,-23.353,124.546,-21.154
19:55:20:989,47.003,0.236,0.050,0.234,-23.214,125.678,-18.591
19:55:21:074,47.088,0.271,-0.253,0.291,-23.071,126.896,-15.672
19:55:21:075,47.089,0.295,0.008,0.089,-22.436,125.385,-12.835
19:55:21:075,47.089,0.213,-0.011,0.013,-22.244,123.947,-11.046
19:55:21:235,47.250,0.156,0.009,-0.062,-22.451,122.902,-8.804
19:55:21:235,47.250,0.059,0.047,0.132,-22.630,122.813,-7.794
19:55:21:237,47.252,0.081,0.012,0.109,-22.648,121.369,-5.992
19:55:21:238,47.252,0.135,0.000,-0.158,-22.532,119.654,-4.562
19:55:21:279,47.293,0.051,0.013,-0.027,-22.253,117.740,-2.657
19:55:21:342,47.356,-0.034,0.007,-0.106,-21.738,116.461,-0.691
19:55:21:342,47.356,0.080,0.027,-0.033,-21.277,116.075,0.645
19:55:21:343,47.357,0.199,0.023,-0.010,-20.588,115.874,2.649
19:55:21:343,47.357,0.171,0.017,-0.021,-20.119,115.637,4.038
19:55:21:359,47.373,0.088,0.061,0.065,-19.451,115.082,6.202
19:55:21:36,47.374,0.171,0.037,-0.083,-18.878,114.091,8.462
19:55:21:414,47.428,0.114,0.109,-0.117,-18.395,113.319,9.996
19:55:21:415,47.429,0.094,0.229,-0.232,-17.365,112.254,12.430
19:55:21:526,47.540,-0.039,0.287,-0.324,-16.426,111.619,14.250
19:55:21:526,47.540,-0.090,0.360,-0.388,-14.587,110.755,17.514
19:55:21:526,47.540,-0.257,0.508,-0.701,-12.170,110.079,21.495
19:55:21:527,47.541,-0.462,0.410,-1.027,-10.130,109.481,24.610
19:55:21:542,47.556,-0.694,0.188,-1.582,-6.812,108.266,30.066
19:55:21:597,47.612,-0.490,0.974,-0.433,-5.203,108.318,34.108
19:55:21:598,47.612,-0.568,0.576,-0.617,-4.862,110.694,40.216
19:55:21:619,47.633,-0.848,-0.258,-0.461,-2.063,111.295,45.418
19:55:21:734,47.748,-0.004,-0.327,-0.014,0.626,110.672,47.548
19:55:21:734,47.748,-0.512,-1.075,-0.184,5.295,108.788,49.032
19:55:21:735,47.749,-0.121,-1.395,-0.362,6.452,107.448,48.433
19:55:21:736,47.750,0.018,-1.038,-0.203,7.287,105.152,45.340
19:55:21:752,47.766,-0.075,-0.984,-0.232,6.532,103.714,42.115
19:55:21:845,47.859,-0.083,-0.951,-0.378,4.062,101.363,35.799
19:55:21:845,47.859,-0.084,-0.705,-0.546,0.160,99.798,28.042
19:55:21:845,47.859,-0.090,-0.493,-0.501,-3.027,99.802,22.142
19:55:21:845,47.859,-0.030,0.090,-0.405,-7.764,100.752,11.793
19:55:21:857,47.871,0.228,0.740,-0.189,-10.918,101.722,3.793
19:55:21:918,47.932,0.561,1.621,0.710,-15.907,104.703,-9.463
19:55:21:919,47.933,1.283,1.514,2.626,-20.831,110.209,-22.972
19:55:21:996,48.010,1.272,-0.952,2.557,-29.168,111.808,-33.337
19:55:21:997,48.011,0.077,1.709,-2.946,-28.515,111.115,-31.050
19:55:22:014,48.028,1.493,0.450,-0.076,-26.364,113.142,-28.733
19:55:22:039,48.053,-0.073,-0.053,2.214,-23.569,116.850,-26.716
19:55:22:098,48.112,1.090,0.164,0.360,-21.960,119.962,-23.165
19:55:22:099,48.113,0.121,0.042,0.360,-22.077,121.939,-19.233
19:55:22:119,48.133,0.163,-0.140,0.203,-22.125,121.761,-16.793
19:55:22:145,48.159,0.164,0.010,0.057,-21.449,119.503,-12.820
19:55:22:198,48.212,0.094,-0.104,-0.135,-20.928,118.028,-10.246
19:55:22:256,48.270,0.250,-0.046,-0.004,-20.308,117.518,-7.279
19:55:22:257,48.271,0.110,-0.013,0.106,-19.808,117.812,-5.230
19:55:22:257,48.271,0.146,-0.025,0.108,-19.420,117.688,-4.011
19:55:22:305,48.319,0.204,0.025,-0.023,-18.881,117.120,-2.394
19:55:22:305,48.319,0.089,0.019,-0.053,-18.719,116.712,-1.429
19:55:22:33,48.344,0.059,0.017,0.035,-18.583,115.992,0.035
19:55:22:499,48.513,0.056,0.000,-0.031,-18.269,115.212,1.628
19:55:22:499,48.513,0.077,0.043,-0.057,-17.960,114.834,2.784
19:55:22:499,48.513,0.159,0.061,0.002,-17.454,114.426,4.691
19:55:22:499,48.513,0.158,0.047,-0.034,-17.115,114.078,6.027
19:55:22:518,48.532,0.136,0.079,-0.090,-16.539,113.473,8.025
19:55:22:518,48.532,0.049,0.168,-0.092,-16.029,112.968,9.404
19:55:22:519,48.533,0.051,0.244,-0.268,-14.887,112.140,11.708
19:55:22:542,48.556,0.006,0.328,-0.370,-13.220,111.377,14.474
19:55:22:564,48.578,-0.001,0.313,-0.411,-11.755,110.998,16.614
19:55:22:593,48.607,-0.397,0.540,-0.696,-9.027,110.663,20.341
19:55:22:618,48.633,-0.598,0.542,-0.827,-6.722,110.486,23.238
19:55:22:645,48.660,-0.871,0.247,-1.280,-2.769,109.325,28.684
19:55:22:754,48.768,-0.623,0.783,-0.498,-0.424,108.918,32.826
19:55:22:754,48.768,-0.783,0.648,-0.484,-0.486,111.895,39.278
19:55:22:775,48.789,-0.782,-0.263,-0.339,2.095,112.185,44.181
19:55:22:803,48.817,-0.267,-0.377,0.512,5.212,111.034,45.909
19:55:22:828,48.842,-0.414,-1.059,-0.169,8.846,108.456,46.856
19:55:22:893,48.907,-0.114,-1.376,-0.347,9.474,106.917,46.131
19:55:22:894,48.908,0.002,-1.055,-0.205,7.896,105.161,42.724
19:55:22:908,48.922,-0.198,-0.916,-0.290,1.752,102.985,33.312
19:55:23:021,49.035,-0.194,-0.668,-0.411,-3.108,102.565,25.575
19:55:23:021,49.036,-0.161,-0.217,-0.340,-6.450,102.943,19.516
19:55:23:022,49.037,-0.088,0.120,-0.239,-11.342,104.055,8.892
19:55:23:069,49.083,0.749,1.443,0.733,-20.174,106.822,-11.862
19:55:23:07,49.084,1.772,1.167,2.186,-26.215,109.617,-23.774
19:55:23:071,49.085,1.726,-0.834,2.650,-30.466,109.968,-29.214
19:55:23:119,49.133,1.863,-1.450,3.025,-34.177,109.808,-32.080
19:55:23:12,49.134,-0.036,1.157,-1.220,-32.104,111.017,-28.553
19:55:23:171,49.185,1.585,-0.788,-1.138,-30.895,111.398,-27.017
19:55:23:172,49.186,0.757,0.065,0.524,-27.136,116.164,-24.790
19:55:23:226,49.240,0.898,0.296,0.468,-26.053,117.296,-22.391
19:55:23:226,49.240,0.046,-0.087,0.389,-25.250,120.391,-19.068
19:55:23:276,49.290,0.163,-0.142,0.354,-24.942,121.524,-17.143
19:55:23:277,49.291,0.294,-0.007,0.133,-23.764,120.163,-13.564
19:55:23:3,49.314,0.261,-0.032,0.030,-22.718,118.089,-10.265
19:55:23:326,49.340,0.217,-0.033,-0.083,-22.358,117.515,-8.601
19:55:23:353,49.367,0.112,-0.026,-0.027,-22.155,117.746,-6.654
19:55:23:408,49.422,0.082,0.005,0.130,-21.944,117.868,-5.511
19:55:23:408,49.422,0.112,-0.008,0.013,-21.164,116.327,-3.394
19:55:23:46,49.474,0.163,-0.025,-0.126,-20.692,115.275,-2.144
19:55:23:461,49.475,0.066,-0.026,-0.155,-20.261,114.685,-0.610
19:55:23:512,49.526,0.129,-0.003,0.065,-19.915,114.674,0.813
19:55:23:54,49.554,0.121,-0.009,-0.065,-19.640,114.273,1.904
19:55:23:541,49.555,0.146,-0.030,-0.116,-19.164,113.563,3.673
19:55:23:562,49.576,0.161,0.053,0.064,-18.942,113.445,4.821
19:55:23:59,49.604,0.127,0.053,0.011,-18.604,113.107,6.570
19:55:23:702,49.716,0.063,0.100,-0.026,-18.069,112.463,8.369
19:55:23:703,49.717,0.069,0.160,-0.095,-17.486,111.890,9.690
19:55:23:703,49.717,0.022,0.244,-0.155,-16.297,110.979,11.998
19:55:23:704,49.718,0.057,0.317,-0.275,-15.293,110.329,13.779
19:55:23:722,49.736,0.040,0.406,-0.412,-13.361,109.244,16.879
19:55:23:861,49.875,-0.305,0.582,-0.685,-10.344,108.146,20.542
19:55:23:861,49.875,-0.471,0.604,-0.889,-7.730,107.267,23.502
19:55:23:862,49.876,-0.797,0.267,-1.353,-3.084,105.576,28.794
19:55:23:863,49.877,-0.619,0.473,-0.645,-0.123,104.799,32.735
19:55:23:883,49.897,-0.743,0.478,-0.465,1.071,106.970,38.847
19:55:23:883,49.897,-0.616,-0.086,-0.297,3.292,108.048,43.525
19:55:23:932,49.946,-0.541,-0.982,-0.799,5.967,107.146,45.258
19:55:23:933,49.947,-0.359,-0.963,-0.246,10.138,105.091,46.366
19:55:23:96,49.975,-0.192,-1.218,-0.324,10.662,103.965,45.825
19:55:23:961,49.976,-0.076,-1.209,-0.345,9.405,102.863,43.263
19:55:24:011,50.025,-0.107,-0.953,-0.128,7.401,102.655,40.478
19:55:24:039,50.053,-0.192,-0.876,-0.177,3.895,102.320,34.707
19:55:24:039,50.053,-0.210,-0.720,-0.246,0.068,102.112,27.146
19:55:24:09,50.104,-0.230,-0.516,-0.306,-2.657,102.278,21.270
19:55:24:09,50.104,-0.141,0.026,-0.217,-6.731,102.675,11.105
19:55:24:142,50.156,-0.026,0.308,-0.214,-9.560,102.831,3.662
19:55:24:143,50.158,0.360,1.289,0.298,-14.523,104.958,-8.247
19:55:24:166,50.180,0.677,1.606,1.639,-20.030,110.659,-20.997
19:55:24:3,50.314,2.087,0.921,2.318,-24.213,115.110,-28.895
19:55:24:301,50.315,1.984,-1.753,3.705,-29.574,118.029,-36.395
19:55:24:386,50.400,0.466,0.245,0.822,-30.362,117.780,-35.892
19:55:24:387,50.401,0.410,1.071,-1.055,-27.455,119.762,-31.235
19:55:24:388,50.402,1.286,-0.605,0.658,-25.152,121.034,-29.369
19:55:24:389,50.403,0.549,-0.169,0.869,-21.017,128.199,-26.995
19:55:24:409,50.423,2.348,0.780,0.201,-19.410,131.646,-24.097
19:55:24:41,50.424,-0.086,0.364,0.050,-19.584,133.192,-21.466
19:55:24:41,50.424,0.108,-0.191,0.264,-19.964,134.456,-18.242
19:55:24:428,50.442,0.073,-0.072,0.220,-19.708,133.553,-16.021
19:55:24:541,50.556,0.095,-0.050,-0.052,-18.746,131.073,-12.481
19:55:24:543,50.558,0.253,0.003,-0.021,-17.917,130.524,-9.781
19:55:24:622,50.636,0.162,-0.060,-0.102,-16.451,130.295,-5.861
19:55:24:622,50.636,0.213,-0.053,-0.053,-15.931,129.795,-4.497
19:55:24:622,50.636,0.185,-0.015,0.017,-15.630,129.684,-3.426
19:55:24:645,50.659,0.181,0.033,0.068,-15.503,129.281,-2.753
19:55:24:719,50.733,0.050,0.022,0.002,-15.237,128.263,-1.663
19:55:24:751,50.765,0.029,0.028,-0.002,-14.933,127.635,-0.897
19:55:24:751,50.765,0.068,0.041,-0.021,-14.260,126.908,0.421
19:55:24:751,50.765,0.106,0.095,0.018,-13.748,126.341,1.406
19:55:24:775,50.789,0.019,0.100,-0.069,-12.770,125.170,3.061
19:55:24:797,50.811,-0.051,0.205,-0.097,-11.336,124.095,5.069
19:55:24:824,50.838,0.124,0.351,-0.330,-10.061,123.538,6.676
19:55:24:983,50.997,-0.019,0.409,-0.401,-7.395,122.843,9.549
19:55:25:016,51.030,-0.161,0.472,-0.433,-5.188,122.603,11.817
19:55:25:016,51.030,-0.692,0.681,-0.465,-1.284,122.555,15.816
19:55:25:017,51.031,-0.980,0.539,-0.718,1.654,122.182,18.963
19:55:25:018,51.032,-1.404,0.066,-0.839,6.162,121.556,24.474
19:55:25:038,51.053,-0.961,0.676,0.169,7.716,125.511,31.028
19:55:25:039,51.053,-0.876,-0.035,0.183,8.522,128.613,34.893
19:55:25:04,51.054,-0.843,-0.665,-0.273,9.963,131.415,38.803
19:55:25:059,51.073,-0.406,-0.839,0.113,11.793,131.978,39.943
19:55:25:084,51.098,-0.579,-1.065,0.263,12.254,133.039,40.541
19:55:25:112,51.126,-0.330,-1.231,-0.039,11.717,133.759,38.514
19:55:25:194,51.208,-0.211,-0.934,0.091,10.516,134.733,35.831
19:55:25:195,51.209,-0.326,-0.827,0.210,8.072,136.397,30.205
19:55:25:219,51.234,-0.486,-0.693,0.228,6.283,137.381,25.278
19:55:25:22,51.235,-0.548,-0.385,0.358,3.277,139.178,16.474
19:55:25:242,51.257,-0.391,-0.005,0.452,-0.293,141.510,6.488
19:55:25:297,51.311,-0.196,0.403,0.586,-2.940,143.202,-0.777
19:55:25:298,51.312,0.533,1.165,0.858,-7.693,146.708,-12.315
19:55:25:321,51.335,1.411,1.500,1.240,-11.312,150.666,-20.162
19:55:25:348,51.362,2.739,0.867,0.822,-17.388,158.258,-31.134
19:55:25:374,51.388,2.762,-1.151,0.565,-23.590,162.819,-38.454
19:55:25:399,51.413,2.939,-1.665,0.830,-24.696,165.192,-40.064
19:55:25:426,51.441,1.750,-0.339,-0.171,-22.557,167.717,-36.086
19:55:25:454,51.468,-2.619,1.322,-2.106,-20.058,169.657,-32.464
19:55:25:617,51.631,1.872,-0.684,-0.936,-16.177,174.695,-30.050
19:55:25:617,51.632,1.827,0.457,-0.725,-12.977,178.695,-27.740
19:55:25:618,51.632,0.097,-0.211,-0.292,-12.176,-179.180,-23.894
19:55:25:7,51.714,0.491,-0.101,0.320,-11.967,-176.310,-20.420
19:55:25:7,51.714,0.352,-0.108,-0.024,-11.505,-176.107,-18.503
19:55:25:702,51.716,0.196,-0.035,-0.011,-10.739,-177.248,-15.815
19:55:25:704,51.718,0.143,-0.055,-0.165,-10.431,-177.919,-14.145
19:55:25:802,51.817,0.191,-0.003,-0.009,-10.203,-177.728,-12.017
19:55:25:804,51.818,0.199,-0.046,0.190,-10.012,-177.486,-9.928
19:55:25:804,51.818,0.264,-0.082,0.076,-9.692,-177.991,-8.618
19:55:25:823,51.837,0.094,0.031,-0.042,-9.189,-179.088,-6.371
19:55:25:824,51.838,0.078,0.004,0.153,-9.161,-179.673,-5.224
19:55:25:849,51.863,0.046,-0.012,0.052,-9.011,179.850,-4.424
19:55:25:85,51.864,0.085,0.014,0.015,-8.552,179.105,-3.133
19:55:25:957,51.971,0.112,0.039,-0.031,-7.968,178.617,-1.692
19:55:25:957,51.971,0.157,0.054,0.041,-7.524,178.764,-0.674
19:55:25:981,51.996,0.128,0.096,0.059,-6.709,178.088,0.875
19:55:25:982,51.996,-0.002,0.175,0.009,-5.966,177.802,1.992
19:55:26:013,52.027,-0.114,0.281,-0.049,-4.304,176.729,3.978
19:55:26:013,52.027,-0.221,0.410,-0.032,-1.906,176.235,6.652
19:55:26:059,52.073,-0.347,0.494,0.043,0.009,175.935,8.880
19:55:26:059,52.073,-0.683,0.586,0.406,3.279,175.792,13.013
19:55:26:083,52.097,-1.196,0.646,0.470,5.718,175.678,16.317
19:55:26:197,52.211,-1.530,0.281,0.678,9.818,175.073,22.031
19:55:26:198,52.212,-0.548,0.628,0.762,12.834,176.436,28.606
19:55:26:198,52.212,-0.506,0.500,0.984,13.468,179.791,32.964
19:55:26:199,52.213,-0.630,-0.601,0.639,15.425,-177.623,37.570
19:55:26:216,52.230,-0.103,-0.843,0.401,17.310,-176.530,38.849
19:55:26:217,52.231,-0.119,-1.108,0.514,18.268,-176.090,39.839
19:55:26:268,52.282,-0.268,-1.261,0.082,18.126,-176.334,38.920
19:55:26:27,52.284,-0.154,-1.090,0.117,16.619,-176.153,35.427
19:55:26:322,52.336,-0.124,-0.972,0.277,13.608,-175.336,30.271
19:55:26:322,52.336,-0.203,-0.849,0.312,11.147,-174.752,25.839
19:55:26:403,52.417,-0.158,-0.638,0.359,7.180,-173.541,17.819
19:55:26:404,52.418,-0.098,-0.408,0.473,4.445,-172.413,11.643
19:55:26:404,52.418,0.151,0.228,0.466,0.163,-170.111,1.191
19:55:26:591,52.605,0.591,0.871,0.281,-2.803,-168.298,-6.545
19:55:26:592,52.606,1.519,1.455,-0.165,-7.605,-164.697,-18.825
19:55:26:592,52.606,2.763,0.842,-1.090,-13.124,-161.159,-30.516
19:55:26:593,52.607,2.771,-0.859,-1.492,-18.092,-160.545,-36.298
19:55:26:661,52.675,2.389,-1.515,-1.392,-23.531,-160.663,-39.508
19:55:26:726,52.741,-0.090,0.979,-0.945,-22.856,-160.818,-36.927
19:55:26:727,52.742,-2.979,1.646,0.374,-19.697,-159.861,-31.805
19:55:26:728,52.743,0.940,0.023,-0.635,-16.317,-156.531,-29.533
19:55:26:729,52.744,0.663,0.031,-1.161,-14.337,-155.002,-27.498
19:55:26:747,52.762,0.604,0.184,0.075,-13.899,-154.345,-23.666
19:55:26:747,52.762,0.335,-0.050,-0.048,-13.596,-152.732,-21.321
19:55:26:748,52.762,0.350,-0.071,-0.132,-12.798,-152.644,-18.541
19:55:26:749,52.763,0.170,-0.023,-0.202,-12.131,-154.610,-15.791
19:55:26:766,52.780,0.094,0.011,-0.089,-11.944,-155.311,-14.367
19:55:26:905,52.920,0.116,-0.056,-0.063,-11.975,-154.920,-12.813
19:55:26:906,52.921,0.402,0.040,0.041,-12.078,-154.385,-12.004
19:55:26:907,52.922,0.219,-0.043,0.067,-11.965,-155.829,-10.349
19:55:26:908,52.922,0.036,0.035,-0.066,-11.622,-158.551,-8.627
19:55:27:037,53.051,0.018,0.014,0.046,-11.424,-159.895,-7.656
19:55:27:038,53.052,0.064,-0.015,0.164,-10.892,-161.103,-6.149
19:55:27:039,53.053,-0.060,0.008,0.149,-10.312,-161.782,-4.928
19:55:27:071,53.085,0.181,0.040,-0.066,-8.368,-161.995,-1.409
19:55:27:071,53.085,0.188,0.029,-0.013,-7.302,-162.401,0.740
19:55:27:072,53.086,0.129,0.052,0.043,-6.223,-163.174,2.818
19:55:27:109,53.123,0.011,0.212,0.037,-5.340,-163.752,4.189
19:55:27:109,53.123,-0.112,0.302,0.023,-3.702,-165.639,6.365
19:55:27:132,53.146,-0.245,0.327,-0.012,-2.421,-166.251,8.082
19:55:27:158,53.172,-0.325,0.491,0.206,-0.096,-167.556,11.325
19:55:27:184,53.198,-0.556,0.644,0.516,2.815,-167.989,15.474
19:55:27:211,53.225,-0.988,0.532,0.799,5.260,-168.469,18.706
19:55:27:295,53.309,-1.109,0.226,0.880,9.437,-169.796,24.167
19:55:27:296,53.310,-0.249,0.700,0.843,11.457,-169.472,28.312
19:55:27:297,53.311,-0.332,0.465,0.882,12.874,-165.951,34.838
19:55:27:316,53.330,-0.741,-0.776,0.609,14.409,-164.353,38.186
19:55:27:342,53.356,0.571,-0.255,0.238,17.411,-163.934,40.709
19:55:27:368,53.382,-0.118,-0.991,0.449,19.678,-164.358,41.571
19:55:27:422,53.436,-0.246,-1.144,0.140,20.627,-165.142,40.700
19:55:27:452,53.467,-0.147,-1.093,0.030,20.512,-165.893,37.587
19:55:27:452,53.467,0.014,-0.974,0.126,19.327,-165.988,34.591
19:55:27:664,53.678,0.019,-0.918,0.208,16.578,-166.250,28.615
19:55:27:664,53.679,-0.173,-0.749,0.348,13.202,-166.775,20.820
19:55:27:666,53.680,-0.213,-0.484,0.417,10.683,-167.009,14.865
19:55:27:896,53.910,-0.006,0.016,0.303,6.529,-167.150,4.856
19:55:27:926,53.940,0.008,0.707,0.169,3.519,-167.296,-2.333
19:55:27:927,53.941,0.679,1.562,-0.100,-1.354,-164.811,-13.117
19:55:27:928,53.942,1.567,1.306,-0.365,-5.679,-157.991,-23.717
19:55:27:956,53.970,2.207,0.656,-1.463,-7.400,-151.286,-30.219
19:55:27:956,53.970,2.783,-1.365,-2.419,-7.849,-142.361,-36.979
19:55:27:957,53.971,1.404,-0.645,-1.190,-6.750,-138.816,-37.490
19:55:27:957,53.971,-1.226,1.232,1.108,-3.279,-135.179,-32.924
19:55:28:038,54.052,0.723,-0.065,-1.874,-1.492,-133.460,-30.739
19:55:28:039,54.053,0.226,0.193,-0.639,0.357,-131.824,-26.622
19:55:28:04,54.054,0.177,0.980,-0.869,-0.147,-131.927,-22.365
19:55:28:04,54.054,0.221,-0.554,0.592,-0.254,-130.582,-19.184
19:55:28:08,54.094,0.326,-0.017,-0.312,-0.254,-128.495,-15.471
19:55:28:081,54.095,0.298,-0.010,-0.089,0.049,-128.476,-13.427
19:55:28:113,54.127,0.030,-0.070,0.087,0.427,-129.367,-10.622
19:55:28:113,54.127,0.135,0.000,-0.103,0.714,-129.171,-8.502
19:55:28:114,54.128,0.163,0.008,-0.053,0.775,-129.122,-7.375
19:55:28:115,54.129,0.245,0.006,0.002,0.895,-129.703,-5.935
19:55:28:14,54.154,0.082,0.016,-0.007,1.041,-130.491,-5.150
19:55:28:141,54.155,0.131,-0.014,0.016,1.154,-131.463,-4.191
19:55:28:141,54.155,0.160,0.038,0.089,1.214,-131.987,-3.567
19:55:28:142,54.156,0.155,-0.018,0.062,1.422,-132.761,-2.517
19:55:28:16,54.174,0.109,-0.005,0.066,1.846,-133.334,-1.197
19:55:28:168,54.182,0.135,0.018,0.016,2.297,-133.423,-0.151
19:55:28:211,54.226,0.138,0.068,0.008,3.189,-133.509,1.576
19:55:28:212,54.227,0.122,0.156,0.060,3.872,-133.567,2.732
19:55:28:324,54.338,0.073,0.144,0.122,5.171,-133.932,4.370
19:55:28:324,54.338,-0.009,0.282,0.222,6.935,-134.321,6.224
19:55:28:325,54.339,-0.040,0.289,0.279,8.426,-134.491,7.753
19:55:28:326,54.340,-0.135,0.417,0.470,11.241,-134.678,10.669
19:55:28:34,54.354,0.024,0.600,1.113,13.705,-134.639,13.121
19:55:28:428,54.442,-0.159,0.380,1.597,18.483,-134.631,17.590
19:55:28:429,54.443,-0.197,0.019,1.586,23.259,-134.170,23.537
19:55:28:43,54.444,0.525,0.452,1.377,25.349,-131.196,28.792
19:55:28:43,54.444,0.769,0.141,1.018,27.041,-124.627,36.710
19:55:28:69,54.704,-0.271,-0.523,0.584,28.475,-122.639,40.118
19:55:28:691,54.705,0.080,-1.174,0.491,31.272,-121.787,42.424
19:55:28:691,54.705,-0.066,-1.317,0.404,31.682,-121.239,42.815
19:55:28:694,54.708,-0.069,-1.185,0.318,31.194,-120.985,40.921
19:55:28:716,54.730,0.183,-0.959,0.281,28.469,-119.483,37.315
19:55:28:717,54.731,0.286,-0.909,0.306,25.819,-118.110,33.942
19:55:28:718,54.732,0.370,-0.736,0.416,21.360,-115.995,27.120
19:55:28:718,54.732,0.455,-0.526,0.478,18.361,-114.710,21.559
19:55:28:765,54.780,0.511,-0.154,0.446,13.964,-112.986,11.963
19:55:28:765,54.780,0.626,0.511,0.103,9.590,-110.585,1.565
19:55:28:796,54.810,0.900,1.078,-0.283,6.685,-107.715,-5.450
19:55:28:796,54.810,1.096,1.259,-1.211,2.749,-100.713,-15.774
19:55:28:796,54.810,0.386,0.940,-2.154,0.367,-95.327,-22.223
19:55:28:797,54.811,0.145,-0.709,-3.138,-2.721,-89.999,-30.073
19:55:28:926,54.940,-0.218,-1.133,-2.539,-4.165,-87.821,-32.566
19:55:28:927,54.941,-0.228,-0.250,-1.857,-4.867,-87.628,-30.289
19:55:28:927,54.941,-0.101,1.406,3.219,-3.482,-86.870,-24.570
19:55:28:946,54.961,1.269,-0.220,-1.551,0.234,-80.078,-17.781
19:55:28:947,54.961,0.420,-0.258,0.297,0.375,-77.501,-15.026
19:55:28:97,54.984,0.014,0.038,-0.638,-0.569,-75.266,-10.570
19:55:28:998,55.012,0.055,-0.205,-0.299,-1.107,-73.855,-7.152
19:55:29:11,55.124,0.147,0.091,-0.196,-0.767,-74.724,-5.410
19:55:29:111,55.125,-0.017,-0.065,0.057,-0.240,-76.672,-2.935
19:55:29:112,55.126,0.133,-0.030,-0.017,-0.279,-76.994,-1.514
19:55:29:113,55.127,0.143,0.000,-0.058,-0.215,-76.595,0.395
19:55:29:127,55.141,0.233,-0.042,-0.051,0.235,-77.135,1.980
19:55:29:156,55.170,0.111,-0.029,0.110,0.642,-77.918,2.892
19:55:29:181,55.195,0.140,-0.012,0.032,0.960,-78.196,4.166
19:55:29:292,55.306,0.186,0.026,0.043,1.107,-78.222,5.044
19:55:29:293,55.307,0.195,-0.003,0.030,1.548,-78.543,6.405
19:55:29:294,55.308,0.208,0.017,0.004,1.947,-78.742,7.421
19:55:29:313,55.328,0.151,0.051,-0.053,2.683,-78.820,9.047
19:55:29:314,55.328,0.199,0.086,-0.025,3.650,-79.271,10.567
19:55:29:39,55.404,0.224,0.061,0.072,4.467,-79.875,11.502
19:55:29:496,55.511,0.307,0.202,0.197,6.130,-80.803,13.034
19:55:29:69,55.704,0.312,0.269,0.281,7.532,-81.247,14.317
19:55:29:69,55.705,0.324,0.359,0.503,10.365,-81.828,16.850
19:55:29:69,55.705,0.839,0.524,0.886,14.115,-81.913,20.444
19:55:29:69,55.705,0.999,0.350,1.023,17.115,-81.628,23.623
19:55:29:719,55.733,1.168,-0.084,1.499,22.043,-81.270,29.519
19:55:29:72,55.734,1.297,0.392,0.470,25.025,-80.391,33.985
19:55:29:721,55.735,1.252,0.214,0.467,27.558,-76.423,41.425
19:55:29:721,55.735,0.751,-0.899,0.859,29.706,-74.902,45.238
19:55:29:768,55.782,0.387,-0.758,-0.056,34.168,-75.854,47.876
19:55:29:768,55.782,0.426,-1.207,0.255,36.516,-77.595,48.673
19:55:29:769,55.783,-0.021,-1.273,0.426,36.380,-79.179,47.425
19:55:29:771,55.785,0.062,-1.008,0.214,33.800,-81.302,43.808
19:55:29:872,55.886,0.123,-0.956,0.211,30.641,-82.416,40.603
19:55:29:873,55.887,0.186,-0.920,0.373,24.645,-83.884,34.437
19:55:29:873,55.888,0.216,-0.649,0.482,17.715,-84.588,26.848
19:55:29:976,55.990,0.264,0.275,0.344,7.005,-84.960,10.739
19:55:29:977,55.991,0.086,1.440,0.063,3.068,-84.999,3.121
19:55:29:978,55.992,-0.281,2.031,-0.793,-2.605,-83.057,-8.738
19:55:29:979,55.993,-0.240,1.158,-2.422,-5.755,-80.044,-16.384
19:55:30:371,56.385,-2.009,-0.610,-3.330,-9.252,-73.603,-25.399
19:55:30:372,56.386,-1.158,-0.813,-2.123,-10.498,-69.720,-27.387
19:55:30:376,56.390,1.664,1.454,2.838,-8.596,-67.298,-24.453
19:55:30:376,56.390,-1.785,0.687,-0.309,-6.897,-64.686,-20.751
19:55:30:475,56.489,0.404,-0.206,-2.356,-5.097,-62.115,-17.544
19:55:30:476,56.490,0.045,-0.285,0.257,-4.887,-60.036,-12.586
19:55:30:477,56.491,0.056,0.104,-0.214,-5.414,-57.923,-8.159
19:55:30:477,56.491,-0.274,0.001,-0.261,-5.556,-57.663,-6.145
19:55:30:556,56.570,0.163,0.025,-0.141,-5.535,-58.927,-3.658
19:55:30:557,56.571,0.134,0.035,-0.070,-5.492,-59.735,-2.350
19:55:30:558,56.572,0.054,0.014,0.117,-5.442,-61.010,-0.628
19:55:30:558,56.572,0.196,-0.034,-0.152,-5.594,-61.367,0.213
19:55:30:661,56.675,0.328,-0.053,-0.073,-5.677,-62.437,1.475
19:55:30:662,56.676,0.246,-0.037,0.115,-5.411,-64.256,2.786
19:55:30:663,56.677,0.221,-0.023,0.091,-5.077,-65.237,3.787
19:55:30:664,56.678,0.182,-0.020,-0.008,-4.560,-65.953,5.517
19:55:31:028,57.042,0.227,0.003,0.054,-4.099,-66.257,6.768
19:55:31:028,57.042,0.076,0.037,0.032,-3.395,-66.702,8.790
19:55:31:028,57.042,0.131,0.011,0.012,-2.775,-67.091,10.796
