Time,Second,AccelerationX,AccelerationY,AccelerationZ,EulerAnglesX,EulerAnglesY,EulerAnglesZ
19:54:33:851,0.000,0.004,-0.005,0.006,0.337,-7.798,15.608
19:54:33:881,0.030,0.004,-0.004,0.006,0.349,-7.802,15.606
19:54:33:933,0.082,0.005,-0.001,-0.001,0.369,-7.794,15.607
19:54:33:934,0.083,0.004,-0.005,-0.001,0.362,-7.847,15.602
19:54:33:983,0.132,0.004,0.002,-0.007,0.362,-7.847,15.602
19:54:34:011,0.160,0.002,-0.003,0.005,0.360,-7.838,15.602
19:54:34:012,0.161,0.004,-0.001,0.003,0.357,-7.816,15.603
19:54:34:04,0.189,0.004,-0.004,0.008,0.354,-7.817,15.612
19:54:34:06,0.209,0.003,-0.005,0.003,0.348,-7.806,15.611
19:54:34:088,0.237,0.000,-0.008,0.006,0.353,-7.766,15.593
19:54:34:112,0.261,-0.001,-0.006,0.004,0.366,-7.723,15.567
19:54:34:196,0.345,0.000,-0.001,0.000,0.376,-7.700,15.562
19:54:34:197,0.346,0.003,-0.002,-0.002,0.382,-7.663,15.560
19:54:34:199,0.348,0.005,-0.006,-0.006,0.382,-7.846,15.557
19:54:34:217,0.366,0.005,-0.004,0.000,0.380,-7.848,15.545
19:54:34:244,0.393,0.006,-0.005,-0.004,0.375,-7.894,15.547
19:54:34:27,0.419,0.006,-0.002,0.001,0.369,-7.884,15.546
19:54:34:296,0.445,0.007,-0.002,0.001,0.356,-7.944,15.544
19:54:34:323,0.472,0.003,-0.002,0.009,0.345,-7.908,15.548
19:54:34:407,0.556,0.002,0.001,0.003,0.326,-7.928,15.546
19:54:34:407,0.556,-0.001,0.001,0.010,0.324,-7.876,15.548
19:54:34:408,0.557,0.000,0.000,-0.002,0.334,-7.837,15.548
19:54:34:427,0.576,-0.001,-0.002,0.007,0.363,-7.771,15.549
19:54:34:456,0.605,-0.003,-0.001,-0.004,0.382,-7.755,15.549
19:54:34:48,0.629,0.006,0.002,0.006,0.396,-7.776,15.549
19:54:34:507,0.656,0.012,0.003,0.002,0.423,-7.779,15.551
19:54:34:593,0.742,0.010,0.000,0.005,0.458,-7.716,15.549
19:54:34:594,0.743,0.007,-0.008,-0.001,0.482,-7.650,15.549
19:54:34:595,0.744,0.008,-0.011,0.009,0.501,-7.633,15.549
19:54:34:613,0.762,0.012,-0.009,0.001,0.525,-7.635,15.541
19:54:34:638,0.787,0.005,-0.002,0.003,0.541,-7.619,15.521
19:54:34:664,0.813,0.001,-0.003,-0.005,0.557,-7.582,15.470
19:54:34:69,0.839,0.000,-0.001,-0.004,0.592,-7.569,15.439
19:54:34:771,0.920,0.000,0.000,-0.003,0.594,-7.548,15.440
19:54:34:805,0.954,-0.001,-0.005,-0.001,0.586,-7.526,15.440
19:54:34:806,0.955,0.002,-0.008,-0.001,0.588,-7.527,15.450
19:54:34:806,0.955,0.005,-0.009,0.001,0.590,-7.525,15.462
19:54:34:807,0.956,0.005,-0.006,-0.001,0.582,-7.506,15.460
19:54:34:849,0.998,0.005,-0.005,0.000,0.571,-7.492,15.473
19:54:34:874,1.023,0.009,-0.006,-0.001,0.535,-7.501,15.488
19:54:34:906,1.055,0.011,-0.002,0.001,0.506,-7.508,15.495
19:54:34:907,1.055,0.008,-0.002,0.002,0.459,-7.520,15.495
19:54:34:985,1.134,0.009,-0.002,0.001,0.437,-7.518,15.494
19:54:34:986,1.135,0.005,-0.002,0.007,0.390,-7.498,15.496
19:54:34:987,1.136,0.006,-0.002,-0.001,0.367,-7.487,15.495
19:54:35:005,1.154,0.005,0.000,0.007,0.361,-7.476,15.494
19:54:35:033,1.182,0.002,-0.001,-0.001,0.349,-7.426,15.492
19:54:35:058,1.207,-0.001,0.000,0.006,0.336,-7.380,15.496
19:54:35:165,1.314,-0.001,0.000,-0.001,0.324,-7.344,15.499
19:54:35:198,1.347,0.003,-0.001,0.005,0.320,-7.324,15.519
19:54:35:198,1.347,0.004,-0.001,-0.003,0.312,-7.298,15.534
19:54:35:2,1.349,0.002,-0.001,0.004,0.303,-7.277,15.553
19:54:35:2,1.349,0.006,-0.008,0.003,0.307,-7.280,15.560
19:54:35:215,1.364,0.008,0.002,0.007,0.303,-7.266,15.564
19:54:35:241,1.390,0.004,0.003,0.000,0.296,-7.235,15.573
19:54:35:297,1.446,0.003,-0.001,0.005,0.305,-7.187,15.573
19:54:35:298,1.447,0.004,-0.008,0.002,0.304,-7.170,15.570
19:54:35:379,1.528,0.003,-0.006,0.007,0.303,-7.160,15.569
19:54:35:379,1.528,0.001,0.001,-0.002,0.303,-7.160,15.569
19:54:35:379,1.528,0.000,0.000,0.006,0.297,-7.150,15.568
19:54:35:429,1.578,0.001,0.000,-0.003,0.298,-7.129,15.569
19:54:35:429,1.578,-0.001,-0.002,0.007,0.300,-7.102,15.587
19:54:35:452,1.601,0.001,-0.002,0.004,0.293,-7.086,15.601
19:54:35:478,1.627,0.003,-0.003,0.000,0.294,-7.081,15.627
19:54:35:535,1.684,0.004,-0.003,0.004,0.291,-7.081,15.637
19:54:35:536,1.685,0.003,-0.002,0.004,0.316,-7.072,15.640
19:54:35:587,1.736,0.003,-0.001,0.004,0.336,-7.064,15.641
19:54:35:588,1.737,0.007,-0.002,0.002,0.333,-7.076,15.639
19:54:35:611,1.759,0.006,-0.005,0.004,0.333,-7.076,15.639
19:54:35:637,1.786,0.004,-0.004,0.003,0.333,-7.076,15.639
19:54:35:688,1.837,0.004,-0.001,0.005,0.333,-7.076,15.639
19:54:35:746,1.895,0.003,-0.002,0.000,0.333,-7.076,15.639
19:54:35:747,1.896,0.002,-0.003,0.006,0.360,-7.071,15.638
19:54:35:747,1.896,0.003,-0.002,-0.001,0.380,-7.063,15.639
19:54:35:767,1.915,0.002,-0.004,0.000,0.391,-7.057,15.637
19:54:35:794,1.943,0.004,-0.002,-0.006,0.401,-7.056,15.640
19:54:35:82,1.969,0.003,-0.001,0.006,0.401,-7.056,15.640
19:54:35:875,2.024,0.006,0.001,-0.001,0.401,-7.056,15.640
19:54:35:875,2.024,0.003,-0.001,0.008,0.401,-7.056,15.640
19:54:35:956,2.104,0.001,-0.006,0.002,0.401,-7.056,15.640
19:54:35:956,2.105,0.004,-0.004,0.008,0.401,-7.056,15.640
19:54:35:957,2.106,0.004,-0.001,-0.002,0.401,-7.056,15.640
19:54:35:976,2.125,0.003,-0.003,0.008,0.423,-7.053,15.637
19:54:36:007,2.156,0.012,-0.001,-0.004,0.428,-7.051,15.639
19:54:36:029,2.178,0.005,0.002,0.001,0.421,-7.004,15.655
19:54:36:055,2.204,0.006,-0.007,0.002,0.422,-6.974,15.656
19:54:36:14,2.289,0.007,-0.010,0.007,0.428,-6.973,15.637
19:54:36:14,2.289,0.001,-0.009,0.005,0.417,-6.954,15.614
19:54:36:163,2.312,-0.004,-0.003,0.006,0.411,-6.925,15.603
19:54:36:164,2.313,-0.003,0.001,0.002,0.401,-6.890,15.586
19:54:36:188,2.337,-0.008,0.004,0.006,0.388,-6.851,15.573
19:54:36:214,2.363,-0.005,0.007,-0.002,0.378,-6.827,15.576
19:54:36:239,2.388,-0.002,-0.007,0.004,0.375,-6.810,15.581
19:54:36:265,2.414,0.002,-0.005,0.002,0.373,-6.809,15.602
19:54:36:347,2.496,0.004,-0.004,0.002,0.377,-6.808,15.624
19:54:36:348,2.497,0.003,-0.006,0.010,0.377,-6.808,15.624
19:54:36:373,2.522,0.005,-0.005,0.010,0.374,-6.834,15.627
19:54:36:374,2.523,0.002,-0.001,0.002,0.379,-6.860,15.622
19:54:36:397,2.546,0.003,0.002,0.001,0.380,-6.869,15.623
19:54:36:423,2.572,0.003,-0.002,0.002,0.390,-6.901,15.623
19:54:36:449,2.598,0.006,0.002,-0.007,0.397,-6.921,15.625
19:54:36:532,2.681,0.008,-0.001,0.001,0.404,-6.956,15.620
19:54:36:533,2.682,0.011,-0.006,-0.005,0.398,-6.993,15.622
19:54:36:557,2.706,0.012,-0.008,0.002,0.378,-7.018,15.625
19:54:36:558,2.707,0.012,-0.004,-0.004,0.354,-7.027,15.622
19:54:36:581,2.730,0.012,0.003,0.007,0.336,-7.034,15.611
19:54:36:638,2.787,0.012,0.008,-0.004,0.331,-7.037,15.578
19:54:36:639,2.788,0.004,-0.002,0.000,0.329,-7.039,15.536
19:54:36:686,2.835,0.005,-0.003,-0.002,0.326,-7.050,15.503
19:54:36:715,2.863,0.004,-0.010,0.003,0.311,-7.101,15.470
19:54:36:715,2.863,0.008,-0.003,-0.001,0.297,-7.136,15.443
19:54:36:738,2.887,0.005,-0.003,0.008,0.293,-7.152,15.415
19:54:36:764,2.913,0.005,-0.001,0.002,0.283,-7.157,15.380
19:54:36:79,2.939,0.000,0.003,0.007,0.267,-7.159,15.364
19:54:36:845,2.994,0.001,-0.001,0.006,0.267,-7.159,15.364
19:54:36:846,2.995,0.009,0.005,0.004,0.274,-7.178,15.366
19:54:36:898,3.046,0.005,0.003,-0.003,0.291,-7.182,15.365
19:54:36:927,3.076,0.005,-0.003,0.002,0.300,-7.192,15.326
19:54:36:927,3.076,0.003,-0.006,-0.003,0.305,-7.211,15.300
19:54:36:948,3.097,-0.002,-0.008,0.004,0.311,-7.215,15.286
19:54:36:975,3.124,0.001,-0.001,0.004,0.309,-7.236,15.285
19:54:37:002,3.151,0.006,-0.003,0.005,0.317,-7.250,15.282
19:54:37:134,3.283,0.002,-0.001,-0.001,0.320,-7.272,15.281
19:54:37:135,3.284,0.005,0.004,0.000,0.328,-7.291,15.283
19:54:37:167,3.316,0.002,-0.004,0.005,0.336,-7.311,15.284
19:54:37:168,3.317,0.011,-0.003,-0.003,0.335,-7.316,15.289
19:54:37:169,3.318,0.012,-0.005,0.004,0.335,-7.316,15.320
19:54:37:17,3.319,0.011,-0.009,-0.004,0.344,-7.319,15.328
19:54:37:186,3.335,0.008,-0.003,0.003,0.362,-7.311,15.319
19:54:37:21,3.359,0.008,-0.003,-0.005,0.359,-7.311,15.297
19:54:37:236,3.385,0.008,-0.004,-0.002,0.357,-7.313,15.286
19:54:37:291,3.440,0.009,-0.003,-0.008,0.360,-7.313,15.276
19:54:37:292,3.441,0.005,-0.003,0.002,0.362,-7.314,15.256
19:54:37:317,3.466,0.005,-0.004,-0.002,0.346,-7.322,15.224
19:54:37:318,3.467,0.003,-0.005,0.002,0.348,-7.319,15.199
19:54:37:37,3.519,0.004,-0.004,-0.001,0.342,-7.320,15.186
19:54:37:371,3.520,0.001,-0.005,0.010,0.323,-7.328,15.164
19:54:37:394,3.543,0.001,-0.003,0.000,0.316,-7.329,15.152
19:54:37:476,3.625,0.000,-0.001,0.008,0.315,-7.331,15.141
19:54:37:476,3.625,0.001,-0.001,0.003,0.315,-7.331,15.141
19:54:37:502,3.651,0.000,-0.001,0.006,0.309,-7.316,15.135
19:54:37:502,3.651,0.000,0.000,-0.001,0.303,-7.295,15.145
19:54:37:525,3.674,0.002,-0.001,0.006,0.300,-7.295,15.154
19:54:37:551,3.700,0.007,-0.002,0.001,0.311,-7.289,15.152
19:54:37:578,3.727,0.004,-0.003,0.006,0.311,-7.289,15.152
19:54:37:605,3.754,0.004,-0.004,-0.001,0.311,-7.289,15.152
19:54:37:718,3.867,0.011,-0.003,0.001,0.311,-7.289,15.152
19:54:37:719,3.868,0.011,-0.001,-0.005,0.311,-7.289,15.152
19:54:37:719,3.868,0.004,0.004,0.003,0.314,-7.295,15.127
19:54:37:72,3.869,0.002,-0.001,0.004,0.312,-7.297,15.084
19:54:37:735,3.884,-0.002,-0.007,0.006,0.312,-7.289,15.032
19:54:37:761,3.910,0.002,-0.007,0.006,0.305,-7.276,15.015
19:54:37:787,3.936,0.001,0.000,0.000,0.307,-7.280,15.010
19:54:37:817,3.966,-0.002,0.002,0.001,0.309,-7.277,14.953
19:54:37:898,4.047,0.004,0.002,-0.004,0.311,-7.298,14.922
19:54:37:904,4.053,0.007,-0.005,-0.001,0.316,-7.288,14.903
19:54:37:919,4.068,0.006,-0.007,0.005,0.308,-7.274,14.906
19:54:37:944,4.093,0.009,-0.002,0.001,0.311,-7.243,14.898
19:54:37:972,4.121,0.001,-0.001,0.008,0.317,-7.200,14.881
19:54:37:998,4.147,0.002,0.005,-0.003,0.322,-7.143,14.859
19:54:38:111,4.260,0.000,-0.003,0.008,0.316,-7.128,14.853
19:54:38:112,4.261,-0.001,-0.002,0.000,0.315,-7.129,14.841
19:54:38:113,4.261,0.001,-0.002,0.004,0.316,-7.131,14.821
19:54:38:113,4.262,0.005,0.001,-0.001,0.320,-7.151,14.800
19:54:38:129,4.278,0.006,-0.001,0.007,0.335,-7.187,14.787
19:54:38:157,4.306,0.006,-0.002,0.005,0.332,-7.212,14.791
19:54:38:181,4.330,0.010,-0.004,0.014,0.326,-7.245,14.788
19:54:38:208,4.356,0.009,-0.003,0.009,0.327,-7.240,14.783
19:54:38:262,4.411,0.006,-0.004,0.011,0.347,-7.218,14.779
19:54:38:29,4.439,0.000,-0.005,0.002,0.384,-7.229,14.753
19:54:38:29,4.439,0.004,-0.001,0.005,0.401,-7.265,14.731
19:54:38:312,4.461,0.005,0.001,-0.005,0.423,-7.299,14.710
19:54:38:339,4.488,0.003,-0.002,0.002,0.427,-7.316,14.705
19:54:38:366,4.515,0.004,-0.008,-0.002,0.436,-7.345,14.707
19:54:38:393,4.541,0.006,-0.011,0.002,0.436,-7.345,14.707
19:54:38:476,4.625,0.006,-0.006,-0.005,0.434,-7.365,14.706
19:54:38:477,4.626,0.012,-0.006,0.002,0.416,-7.405,14.693
19:54:38:496,4.645,0.010,0.003,0.002,0.381,-7.427,14.645
19:54:38:522,4.671,0.005,-0.002,0.008,0.375,-7.429,14.612
19:54:38:553,4.702,0.006,-0.008,0.013,0.370,-7.432,14.579
19:54:38:665,4.814,0.002,-0.008,0.008,0.363,-7.396,14.552
19:54:38:665,4.814,0.002,-0.007,0.000,0.351,-7.357,14.540
19:54:38:665,4.814,-0.002,-0.001,0.008,0.360,-7.274,14.514
19:54:38:666,4.815,-0.009,-0.004,-0.001,0.367,-7.159,14.479
19:54:38:684,4.833,-0.023,0.002,-0.007,0.378,-6.892,14.438
19:54:38:707,4.856,-0.024,-0.010,-0.030,0.395,-6.618,14.444
19:54:38:734,4.883,-0.025,-0.008,-0.030,0.394,-6.503,14.449
19:54:38:761,4.909,-0.017,0.004,-0.030,0.354,-6.477,14.396
19:54:38:873,5.022,-0.020,0.005,-0.024,0.301,-6.510,14.325
19:54:38:873,5.022,-0.025,0.004,-0.012,0.246,-6.520,14.203
19:54:38:874,5.023,-0.027,0.010,0.010,0.223,-6.405,14.164
19:54:38:89,5.039,-0.023,0.006,0.022,0.263,-6.056,14.218
19:54:38:918,5.067,-0.021,-0.007,0.018,0.321,-5.912,14.232
19:54:38:943,5.092,-0.019,-0.008,0.016,0.466,-5.680,14.241
19:54:39:057,5.205,-0.008,-0.051,0.005,0.671,-5.472,14.297
19:54:39:057,5.206,0.005,-0.053,-0.006,0.801,-5.407,14.337
19:54:39:058,5.206,0.032,0.000,-0.034,0.975,-5.403,14.414
19:54:39:076,5.224,0.058,0.038,-0.033,1.057,-5.466,14.338
19:54:39:1,5.249,0.035,-0.011,-0.017,0.999,-5.255,14.177
19:54:39:157,5.306,0.037,-0.005,-0.003,0.944,-5.151,14.060
19:54:39:158,5.307,0.066,-0.059,0.078,0.821,-5.116,13.790
19:54:39:207,5.356,0.056,-0.012,0.137,0.644,-5.029,13.520
19:54:39:208,5.357,0.041,0.043,0.153,0.263,-4.588,12.914
19:54:39:26,5.409,-0.019,0.041,0.142,0.007,-4.045,12.349
19:54:39:261,5.409,-0.090,0.022,0.112,-0.231,-2.861,11.306
19:54:39:284,5.433,-0.163,-0.007,0.083,-0.207,-1.627,10.117
19:54:39:31,5.459,-0.196,-0.025,0.068,-0.111,-1.029,9.291
19:54:39:336,5.485,-0.217,-0.054,0.051,0.039,-0.710,8.013
19:54:39:392,5.541,-0.231,-0.065,0.051,0.079,-0.845,7.208
19:54:39:393,5.542,-0.221,-0.074,0.058,0.112,-1.394,6.546
19:54:39:446,5.595,-0.202,-0.107,0.072,-0.106,-2.031,5.613
19:54:39:447,5.595,-0.222,-0.104,0.085,-0.305,-2.295,5.067
19:54:39:468,5.617,-0.227,-0.068,0.099,-0.428,-2.741,4.748
19:54:39:494,5.643,-0.207,-0.037,0.129,-0.660,-3.018,4.315
19:54:39:71,5.859,-0.189,-0.034,0.124,-0.993,-3.472,3.910
19:54:39:711,5.860,-0.184,-0.005,0.158,-1.237,-4.135,3.808
19:54:39:712,5.861,-0.159,0.031,0.160,-1.347,-4.625,3.922
19:54:39:757,5.906,-0.096,0.134,0.164,-1.456,-5.517,4.376
19:54:39:791,5.940,-0.131,0.254,0.076,-1.477,-5.731,4.855
19:54:39:792,5.941,-0.124,0.267,0.048,-1.304,-5.617,5.727
19:54:39:793,5.942,-0.115,0.194,-0.010,-1.066,-5.554,6.439
19:54:39:794,5.943,-0.083,0.095,0.033,-0.549,-5.975,7.752
19:54:39:89,6.039,-0.026,0.052,0.073,-0.099,-6.827,9.287
19:54:39:995,6.144,0.027,0.101,0.059,0.004,-7.341,10.530
19:54:40:027,6.176,0.023,0.046,-0.030,0.103,-7.546,12.618
19:54:40:028,6.177,0.031,-0.028,-0.042,0.358,-7.434,13.933
19:54:40:029,6.178,0.037,-0.150,-0.072,1.075,-7.333,15.713
19:54:40:055,6.204,0.083,-0.151,-0.064,1.870,-7.602,17.266
19:54:40:056,6.205,0.108,-0.090,-0.080,2.230,-8.065,18.199
19:54:40:056,6.205,0.111,0.041,-0.093,2.446,-9.210,19.231
19:54:40:057,6.206,0.117,0.043,-0.092,2.501,-10.076,19.523
19:54:40:186,6.334,0.109,0.016,-0.084,2.679,-11.346,19.488
19:54:40:186,6.335,0.079,-0.052,-0.061,2.887,-11.915,19.394
19:54:40:187,6.336,0.063,-0.070,-0.054,3.216,-12.554,19.510
19:54:40:188,6.336,0.069,-0.039,-0.048,3.405,-12.709,20.152
19:54:40:212,6.361,0.102,-0.012,-0.043,3.459,-12.999,20.850
19:54:40:213,6.362,0.157,-0.018,-0.037,3.562,-13.247,21.967
19:54:40:213,6.362,0.177,-0.078,-0.038,3.637,-13.227,22.644
19:54:40:214,6.363,0.170,-0.118,-0.037,3.702,-12.699,23.511
19:54:40:292,6.441,0.161,-0.163,-0.055,3.704,-12.019,24.162
19:54:40:292,6.441,0.163,-0.179,-0.040,3.655,-11.554,24.403
19:54:40:293,6.442,0.166,-0.171,-0.041,3.497,-10.862,24.382
19:54:40:294,6.443,0.163,-0.132,-0.034,3.188,-10.372,23.754
19:54:40:361,6.510,0.163,-0.056,-0.043,2.924,-9.508,22.789
19:54:40:475,6.624,0.151,-0.011,-0.038,2.772,-8.781,21.824
19:54:40:475,6.624,0.135,0.095,-0.079,2.574,-7.383,19.997
19:54:40:476,6.625,0.113,0.192,-0.116,2.393,-5.531,17.908
19:54:40:477,6.626,0.061,0.273,-0.098,2.239,-4.269,16.464
19:54:40:5,6.649,0.041,0.313,-0.105,1.868,-2.774,14.236
19:54:40:501,6.650,0.012,0.280,-0.090,1.545,-2.086,12.680
19:54:40:502,6.651,-0.045,0.205,-0.042,1.024,-1.268,10.265
19:54:40:503,6.652,-0.104,-0.070,0.038,0.498,-0.728,7.937
19:54:40:522,6.671,-0.099,-0.187,0.087,0.133,-0.723,6.601
19:54:40:522,6.671,-0.048,-0.111,0.069,-0.417,-1.129,5.083
19:54:40:686,6.835,-0.011,-0.049,0.067,-0.623,-1.158,4.397
19:54:40:687,6.836,0.022,0.056,0.061,-0.523,-0.111,3.798
19:54:40:688,6.837,-0.050,0.007,0.037,-0.259,1.367,3.612
19:54:40:689,6.838,-0.076,-0.031,0.028,0.209,4.177,3.391
19:54:40:708,6.857,-0.086,-0.123,0.058,0.553,6.844,3.257
19:54:40:709,6.858,-0.076,-0.180,0.066,0.686,8.152,3.240
19:54:40:709,6.858,-0.069,-0.172,0.071,0.791,9.971,3.167
19:54:40:729,6.878,-0.064,-0.122,0.081,0.861,10.780,3.042
19:54:40:784,6.933,-0.073,-0.062,0.073,0.950,12.096,2.737
19:54:40:785,6.934,-0.098,-0.025,0.088,0.970,13.001,2.186
19:54:40:894,7.043,-0.167,-0.074,0.155,0.741,13.990,0.555
19:54:40:894,7.043,-0.173,-0.107,0.175,0.539,13.791,-0.200
19:54:40:896,7.045,-0.209,-0.095,0.220,0.119,12.981,-1.278
19:54:40:998,7.147,-0.250,-0.054,0.223,-0.346,11.784,-2.255
19:54:40:998,7.147,-0.254,-0.027,0.214,-0.586,10.904,-2.768
19:54:40:999,7.148,-0.262,0.037,0.164,-0.710,9.732,-3.084
19:54:41:048,7.197,-0.259,0.082,0.126,-0.577,9.225,-2.895
19:54:41:049,7.198,-0.261,0.187,0.080,-0.149,9.098,-1.945
19:54:41:049,7.198,-0.286,0.264,0.056,0.182,9.393,-0.951
19:54:41:098,7.247,-0.317,0.280,0.001,0.557,10.111,0.893
19:54:41:099,7.248,-0.290,0.194,-0.014,0.777,10.941,2.981
19:54:41:149,7.298,-0.250,0.125,-0.018,0.851,10.939,4.568
19:54:41:207,7.356,-0.165,0.077,-0.017,0.887,10.235,7.349
19:54:41:209,7.358,-0.027,0.099,-0.056,0.892,9.155,9.515
19:54:41:21,7.359,0.022,0.138,-0.069,0.994,6.689,13.079
19:54:41:257,7.406,0.140,0.142,-0.108,1.490,3.053,16.510
19:54:41:257,7.406,0.186,0.081,-0.072,2.076,0.290,18.459
19:54:41:337,7.486,0.209,-0.032,-0.087,3.023,-3.222,20.656
19:54:41:338,7.487,0.224,-0.091,-0.043,3.475,-4.406,21.764
19:54:41:338,7.487,0.112,-0.140,-0.101,3.906,-5.026,23.418
19:54:41:358,7.507,0.165,-0.153,-0.120,4.321,-5.135,25.215
19:54:41:384,7.533,0.206,-0.124,-0.141,4.737,-5.292,26.444
19:54:41:412,7.561,0.274,-0.154,-0.133,5.566,-5.680,28.200
19:54:41:466,7.615,0.296,-0.173,-0.140,6.097,-5.904,29.246
19:54:41:467,7.616,0.289,-0.177,-0.132,6.542,-5.663,30.564
19:54:41:489,7.638,0.247,-0.183,-0.110,5.700,-5.176,30.398
19:54:41:516,7.664,0.230,-0.199,-0.100,5.559,-4.869,30.821
19:54:41:541,7.690,0.251,-0.203,-0.083,5.356,-4.871,31.190
19:54:41:598,7.747,0.305,-0.148,-0.071,5.258,-4.853,31.203
19:54:41:598,7.747,0.332,-0.053,-0.066,5.101,-5.241,30.733
19:54:41:65,7.799,0.363,0.044,-0.094,4.824,-5.450,29.453
19:54:41:651,7.800,0.354,0.109,-0.090,4.517,-5.316,28.115
19:54:41:761,7.910,0.364,0.196,-0.057,3.859,-4.507,25.530
19:54:41:762,7.911,0.388,0.236,-0.072,3.205,-3.547,23.606
19:54:41:762,7.911,0.135,0.089,-0.081,1.986,-1.132,20.518
19:54:41:763,7.912,-0.142,0.070,0.114,1.211,0.766,18.102
19:54:41:808,7.957,-0.116,0.010,0.104,0.241,2.195,13.987
19:54:41:809,7.958,0.009,0.017,0.031,-0.544,1.326,10.402
19:54:41:833,7.982,0.059,0.126,0.022,-0.840,0.748,8.777
19:54:41:833,7.982,0.024,0.108,0.063,-0.790,1.819,7.204
19:54:41:885,8.034,-0.072,-0.004,0.079,-0.518,3.854,6.513
19:54:41:916,8.065,-0.120,-0.074,0.064,-0.125,7.557,5.849
19:54:41:916,8.065,-0.100,-0.152,0.024,0.056,10.904,5.510
19:54:41:936,8.085,-0.113,-0.145,0.047,0.139,13.029,5.327
19:54:41:962,8.111,-0.078,-0.088,0.032,0.243,15.172,5.000
19:54:41:987,8.136,-0.106,-0.049,0.051,0.294,16.274,4.615
19:54:42:041,8.190,-0.111,-0.052,0.078,0.312,17.471,3.650
19:54:42:128,8.277,-0.150,-0.088,0.150,0.170,18.518,2.413
19:54:42:128,8.277,-0.159,-0.114,0.169,-0.048,19.085,1.618
19:54:42:129,8.278,-0.200,-0.122,0.212,-0.469,19.919,0.583
19:54:42:129,8.278,-0.236,-0.099,0.232,-0.761,20.040,-0.033
19:54:42:145,8.294,-0.256,-0.097,0.255,-1.185,19.903,-0.879
19:54:42:171,8.320,-0.254,-0.031,0.284,-1.500,19.534,-1.316
19:54:42:198,8.347,-0.275,0.012,0.290,-2.028,18.587,-1.666
19:54:42:223,8.372,-0.242,0.060,0.218,-2.420,17.841,-1.548
19:54:42:25,8.398,-0.246,0.163,0.222,-2.530,17.709,-1.140
19:54:42:276,8.425,-0.291,0.340,0.244,-2.577,17.908,-0.005
19:54:42:333,8.482,-0.288,0.227,0.175,-2.554,17.913,0.958
19:54:42:334,8.483,-0.234,0.101,0.141,-2.302,17.651,2.699
19:54:42:385,8.534,-0.132,0.028,0.096,-1.876,17.284,5.170
19:54:42:386,8.535,-0.052,0.121,0.053,-1.605,16.956,7.322
19:54:42:407,8.556,0.001,0.257,0.024,-1.215,15.991,10.964
19:54:42:435,8.583,0.059,0.307,-0.030,-0.863,14.994,13.357
19:54:42:489,8.638,0.150,0.211,-0.104,0.004,13.200,16.675
19:54:42:489,8.638,0.210,0.148,-0.115,0.805,12.021,18.788
19:54:42:515,8.664,0.289,-0.014,-0.071,2.033,10.845,21.999
19:54:42:777,8.926,0.247,-0.072,-0.059,2.810,10.652,25.323
19:54:42:803,8.952,0.260,-0.090,-0.105,3.216,10.745,27.416
19:54:43:,9.149,0.264,-0.110,-0.145,4.155,10.808,30.200
19:54:43:001,9.150,0.302,-0.173,-0.160,5.036,10.862,31.785
19:54:43:002,9.151,0.308,-0.211,-0.151,6.436,11.184,33.831
19:54:43:002,9.151,0.304,-0.251,-0.155,7.529,11.833,35.501
19:54:43:021,9.170,0.306,-0.264,-0.149,7.967,12.633,36.371
19:54:43:022,9.171,0.288,-0.284,-0.153,8.146,13.753,37.302
19:54:43:023,9.172,0.266,-0.289,-0.149,8.070,14.804,37.636
19:54:43:098,9.247,0.285,-0.263,-0.162,7.845,15.810,37.631
19:54:43:098,9.247,0.319,-0.202,-0.191,7.614,16.798,37.263
19:54:43:213,9.362,0.314,-0.167,-0.214,7.042,17.813,36.114
19:54:43:234,9.383,0.192,0.219,-0.260,3.255,22.624,26.670
19:54:43:235,9.384,0.123,0.302,-0.236,2.120,24.326,22.363
19:54:43:237,9.386,0.041,0.350,-0.165,1.146,25.975,17.675
19:54:43:238,9.387,-0.023,0.262,-0.056,0.545,27.026,14.612
19:54:43:284,9.433,-0.065,0.060,0.110,-0.417,28.411,10.468
19:54:43:285,9.434,-0.045,-0.031,0.045,-1.106,29.498,8.222
19:54:43:285,9.434,-0.009,-0.004,-0.005,-1.957,31.793,5.956
19:54:43:286,9.435,-0.027,0.101,0.002,-2.296,36.129,5.169
19:54:43:364,9.513,-0.042,0.090,0.038,-2.273,39.623,5.155
19:54:43:365,9.514,-0.099,-0.018,0.089,-2.077,45.265,5.143
19:54:43:366,9.514,-0.124,-0.106,0.145,-1.907,48.852,4.852
19:54:43:366,9.515,-0.068,-0.150,0.099,-1.611,53.382,4.037
19:54:43:387,9.536,-0.029,-0.154,0.146,-1.341,56.790,3.229
19:54:43:387,9.536,-0.015,-0.143,0.168,-1.189,58.748,2.653
19:54:43:388,9.537,0.000,-0.095,0.209,-1.029,61.584,1.688
19:54:43:44,9.589,-0.009,-0.069,0.207,-0.960,63.307,1.018
19:54:43:441,9.590,-0.015,-0.075,0.253,-0.831,65.635,-0.076
19:54:43:442,9.591,-0.012,-0.079,0.324,-0.749,66.970,-0.912
19:54:43:443,9.592,0.006,-0.105,0.344,-0.709,68.581,-2.298
19:54:43:467,9.616,0.002,-0.089,0.381,-0.840,69.619,-3.688
19:54:43:467,9.616,-0.005,-0.008,0.448,-1.006,70.073,-4.512
19:54:43:483,9.632,-0.054,0.140,0.429,-1.315,70.690,-5.457
19:54:43:513,9.662,-0.066,0.227,0.432,-1.453,71.294,-5.745
19:54:43:565,9.714,-0.064,0.281,0.509,-1.457,72.707,-5.521
19:54:43:566,9.715,-0.068,0.216,0.537,-1.462,74.375,-4.598
19:54:43:703,9.852,-0.066,0.141,0.510,-1.564,75.201,-3.641
19:54:43:704,9.852,0.027,-0.009,0.445,-1.771,75.951,-1.617
19:54:43:704,9.853,0.029,0.069,0.344,-1.934,76.032,0.270
19:54:43:705,9.854,0.017,0.186,0.269,-2.158,75.246,4.082
19:54:43:723,9.872,-0.003,0.352,0.099,-2.138,74.143,7.127
19:54:43:723,9.872,0.022,0.335,-0.041,-1.607,71.916,11.953
19:54:43:748,9.897,0.057,0.234,-0.126,-0.510,69.560,16.670
19:54:43:83,9.979,0.090,0.087,-0.175,0.370,68.194,19.620
19:54:43:857,10.006,0.099,-0.077,-0.201,1.527,66.936,23.734
19:54:43:857,10.006,0.054,-0.130,-0.218,2.115,66.479,26.415
19:54:43:858,10.007,0.051,-0.157,-0.247,3.069,65.799,30.245
19:54:43:909,10.057,0.051,-0.252,-0.321,4.509,64.814,33.574
19:54:43:909,10.058,0.069,-0.305,-0.350,5.737,64.187,35.458
19:54:43:93,10.079,0.076,-0.360,-0.370,7.437,63.587,37.657
19:54:43:956,10.105,0.073,-0.386,-0.373,8.157,63.750,38.761
19:54:43:985,10.134,0.040,-0.368,-0.401,8.590,64.360,39.862
19:54:44:01,10.159,0.040,-0.300,-0.427,8.603,64.891,40.125
19:54:44:038,10.187,0.039,-0.198,-0.479,8.366,65.582,39.542
19:54:44:039,10.188,0.050,-0.105,-0.504,7.737,66.549,37.656
19:54:44:09,10.239,0.023,-0.024,-0.520,7.039,67.489,35.743
19:54:44:091,10.240,-0.027,0.097,-0.520,5.586,69.638,32.152
19:54:44:201,10.350,-0.043,0.206,-0.444,4.511,71.541,29.339
19:54:44:202,10.351,-0.067,0.270,-0.360,2.901,74.787,24.557
19:54:44:202,10.351,-0.026,0.254,-0.043,1.503,77.968,19.090
19:54:44:203,10.352,0.063,0.204,0.157,0.752,79.472,15.155
19:54:44:22,10.369,0.078,0.138,0.204,-0.314,80.256,9.432
19:54:44:247,10.396,0.047,0.159,0.172,-0.997,80.224,6.288
19:54:44:303,10.452,-0.014,0.194,0.198,-1.600,80.242,3.060
19:54:44:303,10.452,0.011,0.029,0.173,-1.503,80.868,1.726
19:54:44:352,10.501,0.039,-0.061,0.172,-0.809,83.154,0.699
19:54:44:353,10.502,0.051,-0.195,0.191,-0.036,86.330,0.703
19:54:44:376,10.525,0.032,-0.238,0.185,0.299,88.661,1.016
19:54:44:455,10.604,0.017,-0.099,0.200,0.596,94.729,1.588
19:54:44:482,10.631,0.051,-0.104,0.162,0.672,95.422,0.685
19:54:44:515,10.664,0.094,-0.119,0.143,0.686,95.630,-0.242
19:54:44:563,10.712,0.128,-0.107,0.226,0.597,96.192,-1.880
19:54:44:563,10.712,0.134,-0.098,0.308,0.508,96.508,-3.131
19:54:44:586,10.735,0.140,-0.017,0.340,0.368,97.099,-5.117
19:54:44:612,10.761,0.110,0.149,0.390,0.225,97.522,-6.717
19:54:44:639,10.788,0.100,0.117,0.432,0.220,97.949,-7.358
19:54:44:665,10.813,0.096,0.147,0.478,0.358,98.842,-7.683
19:54:44:718,10.867,0.167,0.286,0.538,0.331,99.770,-7.372
19:54:44:746,10.895,0.216,0.230,0.597,-0.079,100.591,-6.213
19:54:44:747,10.896,0.213,0.027,0.516,-0.743,100.429,-4.537
19:54:44:77,10.919,0.197,-0.003,0.442,-1.131,100.064,-2.991
19:54:44:91,11.059,0.144,0.234,0.377,-1.499,98.785,0.255
19:54:44:911,11.060,0.049,0.372,0.237,-1.427,97.435,2.964
19:54:44:912,11.061,-0.046,0.499,0.080,-0.696,94.695,7.592
19:54:44:913,11.062,-0.088,0.362,-0.088,0.292,92.694,10.883
19:54:44:959,11.108,-0.072,0.228,-0.171,2.173,90.233,15.846
19:54:44:96,11.109,-0.051,0.006,-0.230,3.778,89.206,20.880
19:54:44:961,11.110,-0.056,-0.072,-0.245,4.416,88.872,24.338
19:54:45:016,11.165,-0.129,-0.154,-0.249,4.950,88.778,29.384
19:54:45:017,11.165,-0.176,-0.177,-0.269,5.445,88.435,32.399
19:54:45:033,11.182,-0.174,-0.256,-0.331,7.010,87.325,36.165
19:54:45:059,11.208,-0.146,-0.344,-0.413,9.599,85.666,39.012
19:54:45:085,11.234,-0.135,-0.390,-0.433,11.446,84.637,40.470
19:54:45:113,11.262,-0.118,-0.428,-0.431,13.511,83.698,42.054
19:54:45:138,11.287,-0.107,-0.394,-0.422,14.167,83.501,42.742
19:54:45:166,11.315,-0.111,-0.352,-0.432,14.165,83.105,43.090
19:54:45:195,11.343,-0.129,-0.262,-0.491,13.760,83.091,42.773
19:54:45:217,11.366,-0.131,-0.207,-0.506,12.772,83.120,41.392
19:54:45:246,11.395,-0.151,-0.050,-0.584,11.348,83.408,38.899
19:54:45:271,11.420,-0.163,0.003,-0.542,10.154,83.856,36.628
19:54:45:326,11.475,-0.189,0.132,-0.474,8.093,84.948,32.300
19:54:45:326,11.475,-0.114,0.202,-0.247,6.652,85.863,28.847
19:54:45:347,11.496,0.067,0.255,-0.040,4.619,86.854,22.979
19:54:45:373,11.522,0.123,0.285,0.024,2.645,86.288,16.855
19:54:45:402,11.550,0.129,0.289,0.037,1.252,85.106,13.177
19:54:45:427,11.576,0.094,0.256,0.089,-0.660,83.366,8.946
19:54:45:454,11.603,0.111,0.178,0.068,-1.517,82.932,6.903
19:54:45:479,11.628,0.152,0.015,0.109,-1.950,84.192,4.797
19:54:45:505,11.654,0.123,-0.127,0.162,-1.770,86.253,3.959
19:54:45:531,11.680,0.061,-0.182,0.196,-1.082,90.323,3.371
19:54:45:558,11.707,0.048,-0.166,0.246,-0.167,94.904,3.299
19:54:45:586,11.734,0.010,-0.138,0.271,0.446,97.665,3.301
19:54:45:612,11.761,0.035,-0.136,0.303,1.284,100.719,2.988
19:54:45:636,11.785,0.057,-0.121,0.328,1.699,102.005,2.380
19:54:45:663,11.812,0.098,-0.139,0.321,1.992,102.969,0.758
19:54:45:694,11.843,0.124,-0.168,0.368,1.844,103.291,-1.308
19:54:45:717,11.866,0.137,-0.172,0.408,1.565,103.171,-2.679
19:54:45:743,11.892,0.164,-0.024,0.486,0.982,102.648,-4.607
19:54:45:768,11.917,0.202,0.102,0.581,0.488,101.886,-5.696
19:54:45:795,11.944,0.169,0.052,0.569,-0.281,100.371,-7.007
19:54:45:849,11.998,0.093,0.257,0.535,-0.840,98.921,-7.312
19:54:45:85,11.999,0.143,0.263,0.540,-0.998,98.255,-6.761
19:54:45:875,12.024,0.163,0.306,0.520,-1.191,97.463,-4.797
19:54:45:898,12.047,0.080,0.239,0.420,-1.279,97.001,-2.787
19:54:45:954,12.103,-0.009,0.287,0.333,-1.288,96.041,1.223
19:54:45:955,12.103,-0.090,0.391,0.102,-0.997,94.007,6.353
19:54:46:006,12.155,-0.112,0.392,-0.036,-0.497,91.709,10.164
19:54:46:007,12.156,-0.079,0.222,-0.107,1.031,87.038,15.557
19:54:46:031,12.180,-0.058,0.050,-0.135,2.468,83.800,18.451
19:54:46:06,12.209,-0.017,-0.069,-0.233,4.532,80.285,21.587
19:54:46:084,12.233,-0.007,-0.186,-0.268,5.765,79.156,24.418
19:54:46:11,12.259,-0.047,-0.173,-0.258,6.314,78.991,26.635
19:54:46:135,12.284,-0.132,-0.114,-0.263,7.325,78.911,30.167
19:54:46:165,12.314,-0.159,-0.117,-0.328,8.446,78.664,32.348
19:54:46:188,12.337,-0.128,-0.193,-0.399,10.809,78.333,35.074
19:54:46:215,12.364,-0.108,-0.237,-0.427,12.570,77.975,36.613
19:54:46:241,12.390,-0.119,-0.321,-0.458,14.772,77.906,38.717
19:54:46:267,12.416,-0.131,-0.342,-0.425,15.991,78.890,40.488
19:54:46:295,12.444,-0.153,-0.342,-0.437,16.329,79.433,41.311
19:54:46:319,12.468,-0.172,-0.303,-0.463,16.402,80.079,41.717
19:54:46:409,12.558,-0.187,-0.243,-0.511,16.152,80.407,41.286
19:54:46:41,12.559,-0.182,-0.138,-0.567,15.049,81.089,39.536
19:54:46:41,12.559,-0.177,-0.038,-0.496,13.098,82.073,36.458
19:54:46:411,12.560,-0.176,0.070,-0.445,11.528,82.810,33.668
19:54:46:424,12.573,-0.155,0.218,-0.279,9.146,83.800,28.489
19:54:46:45,12.599,-0.089,0.202,-0.137,7.724,84.215,24.602
19:54:46:515,12.664,0.010,0.181,-0.012,5.789,84.276,18.732
19:54:46:515,12.664,0.018,0.186,0.004,4.567,84.019,15.280
19:54:46:588,12.737,0.014,0.207,0.033,2.862,83.770,11.388
19:54:46:588,12.737,0.073,0.155,0.129,1.582,84.415,9.074
19:54:46:588,12.737,0.129,0.081,0.142,1.012,85.363,8.197
19:54:46:607,12.756,0.180,-0.044,0.181,0.446,87.413,7.591
19:54:46:634,12.783,0.175,-0.146,0.180,0.190,88.981,7.468
19:54:46:659,12.808,0.145,-0.128,0.199,-0.090,91.528,7.463
19:54:46:687,12.836,0.107,-0.080,0.220,-0.112,93.664,7.381
19:54:46:712,12.861,0.086,-0.069,0.214,0.062,94.864,7.133
19:54:46:797,12.946,0.080,-0.071,0.185,0.588,95.808,6.365
19:54:46:797,12.946,0.134,-0.126,0.212,1.002,96.357,5.619
19:54:46:798,12.947,0.169,-0.170,0.243,1.459,97.296,4.214
19:54:46:819,12.968,0.143,-0.237,0.280,1.568,98.263,2.724
19:54:46:846,12.995,0.121,-0.200,0.297,1.489,98.671,1.825
19:54:46:871,13.019,0.074,0.074,0.350,1.289,98.887,0.685
19:54:46:896,13.045,0.068,0.204,0.396,1.210,98.758,-0.048
19:54:46:923,13.072,-0.026,0.299,0.417,1.306,98.433,-1.288
19:54:46:949,13.098,-0.001,0.261,0.468,1.541,98.609,-2.055
19:54:47:004,13.153,0.070,0.202,0.474,1.943,99.097,-2.699
19:54:47:004,13.153,0.070,0.105,0.476,1.922,99.098,-2.231
19:54:47:064,13.213,-0.002,0.094,0.441,1.752,98.689,-1.190
19:54:47:064,13.213,-0.079,0.310,0.378,1.538,97.507,1.403
19:54:47:133,13.282,-0.137,0.385,0.225,1.563,96.218,3.726
19:54:47:221,13.370,-0.149,0.327,0.119,1.967,93.262,7.764
19:54:47:221,13.370,-0.124,0.192,-0.008,2.827,89.551,12.049
19:54:47:223,13.372,-0.052,0.086,-0.110,3.582,87.027,14.934
19:54:47:241,13.389,-0.023,-0.030,-0.221,5.218,82.404,22.087
19:54:47:241,13.390,-0.073,-0.092,-0.220,5.986,80.981,26.230
19:54:47:295,13.444,-0.087,-0.164,-0.286,6.749,80.153,28.774
19:54:47:295,13.444,-0.085,-0.214,-0.324,8.476,78.975,32.190
19:54:47:316,13.465,-0.059,-0.299,-0.365,10.724,78.088,35.027
19:54:47:342,13.491,-0.060,-0.331,-0.373,12.189,77.824,36.605
19:54:47:507,13.656,-0.060,-0.344,-0.360,13.968,77.886,38.482
19:54:47:508,13.657,-0.100,-0.320,-0.417,14.788,78.119,39.344
19:54:47:509,13.658,-0.139,-0.250,-0.481,15.501,78.595,40.009
19:54:47:562,13.711,-0.174,-0.201,-0.515,15.657,79.184,39.804
19:54:47:563,13.712,-0.167,-0.188,-0.500,15.399,79.766,39.129
19:54:47:564,13.713,-0.158,-0.103,-0.503,14.360,80.967,37.346
19:54:47:564,13.713,-0.161,-0.052,-0.464,13.254,81.928,35.733
19:54:47:642,13.791,-0.172,0.073,-0.421,11.136,83.477,32.653
19:54:47:642,13.791,-0.128,0.154,-0.260,8.900,84.928,28.728
19:54:47:642,13.791,-0.042,0.183,-0.164,7.564,85.658,25.713
19:54:47:643,13.792,-0.012,0.164,-0.141,5.711,86.348,21.058
19:54:47:658,13.807,-0.040,0.174,-0.187,4.531,86.914,18.274
19:54:47:684,13.833,-0.017,0.268,-0.111,3.012,88.966,15.477
19:54:47:74,13.889,0.001,0.198,-0.038,2.323,90.886,14.358
19:54:47:74,13.889,0.016,0.044,0.023,1.670,94.237,13.225
19:54:47:793,13.942,0.076,-0.105,0.030,1.315,97.938,12.386
19:54:47:793,13.942,0.072,-0.168,0.041,1.125,100.496,11.944
19:54:47:815,13.964,0.051,-0.218,0.074,0.913,104.313,11.340
19:54:47:842,13.991,0.024,-0.180,0.113,0.875,106.658,10.857
19:54:47:867,14.016,0.031,-0.115,0.149,1.031,109.568,9.862
19:54:47:895,14.044,0.034,-0.012,0.150,1.400,111.473,8.364
19:54:47:92,14.069,0.031,-0.020,0.145,1.656,112.544,7.129
19:54:47:947,14.096,0.105,-0.055,0.191,1.872,114.108,5.061
19:54:47:973,14.122,0.193,-0.078,0.222,1.816,115.296,3.627
19:54:48:,14.148,0.292,-0.086,0.306,1.412,116.552,1.534
19:54:48:027,14.176,0.300,-0.070,0.312,0.987,116.875,0.232
19:54:48:051,14.200,0.251,0.034,0.329,0.385,116.978,-1.397
19:54:48:081,14.230,0.220,0.112,0.327,0.194,117.434,-2.360
19:54:48:104,14.253,0.212,0.213,0.331,0.344,118.092,-2.503
19:54:48:13,14.279,0.250,0.346,0.386,0.818,119.947,-1.828
19:54:48:157,14.306,0.220,0.206,0.384,1.122,121.338,-0.854
19:54:48:211,14.360,0.221,0.112,0.328,1.341,123.169,1.341
19:54:48:212,14.361,0.183,0.098,0.232,1.120,124.184,4.546
19:54:48:235,14.384,0.131,0.217,0.181,0.796,124.274,7.167
19:54:48:291,14.440,0.075,0.276,0.092,0.382,123.415,11.425
19:54:48:291,14.440,-0.010,0.267,-0.001,0.324,122.287,14.281
19:54:48:314,14.463,-0.056,0.223,-0.077,0.685,120.019,18.425
19:54:48:37,14.519,-0.082,0.116,-0.168,1.716,117.095,22.311
19:54:48:371,14.520,-0.075,0.043,-0.217,2.705,115.017,24.726
19:54:48:422,14.571,-0.081,-0.081,-0.279,4.367,112.274,28.051
19:54:48:423,14.572,-0.095,-0.154,-0.314,5.440,110.989,30.133
19:54:48:445,14.594,-0.129,-0.179,-0.305,6.693,110.288,33.127
19:54:48:472,14.621,-0.182,-0.210,-0.293,7.372,110.393,35.016
19:54:48:501,14.650,-0.217,-0.246,-0.275,8.548,110.774,37.600
19:54:48:557,14.705,-0.231,-0.296,-0.294,10.001,111.125,39.691
19:54:48:557,14.705,-0.228,-0.338,-0.286,10.950,111.446,40.798
19:54:48:557,14.706,-0.236,-0.355,-0.299,12.008,112.092,42.074
19:54:48:657,14.806,-0.307,-0.319,-0.334,12.366,112.580,42.665
19:54:48:684,14.833,-0.352,-0.297,-0.349,12.369,113.386,43.051
19:54:48:769,14.918,-0.398,-0.247,-0.341,11.643,114.465,42.543
19:54:48:77,14.919,-0.374,-0.227,-0.319,10.740,115.389,41.585
19:54:48:771,14.920,-0.395,-0.145,-0.320,8.865,116.951,39.248
19:54:48:773,14.922,-0.403,-0.035,-0.314,7.401,117.979,37.153
19:54:48:794,14.943,-0.358,0.082,-0.253,5.183,119.349,33.202
19:54:48:794,14.943,-0.307,0.449,-0.216,3.267,120.013,28.087
19:54:48:794,14.943,-0.161,0.502,-0.108,2.290,119.832,24.150
19:54:48:813,14.962,0.039,0.267,0.000,1.026,118.695,17.957
19:54:48:841,14.990,0.119,0.143,0.038,0.162,117.676,14.107
19:54:48:866,15.015,0.129,0.078,-0.044,-1.255,116.474,9.774
19:54:48:893,15.042,0.130,0.169,-0.092,-2.171,116.472,8.174
19:54:48:919,15.067,0.141,0.160,-0.047,-3.222,118.400,7.452
19:54:48:973,15.122,0.145,0.061,0.040,-3.683,122.587,7.765
19:54:48:974,15.123,0.168,-0.060,0.080,-3.693,126.301,8.103
19:54:48:997,15.146,0.185,-0.161,0.084,-3.427,131.658,8.669
19:54:49:022,15.171,0.156,-0.208,0.063,-3.160,135.153,9.076
19:54:49:049,15.198,0.121,-0.192,0.030,-2.746,139.093,9.677
19:54:49:075,15.224,0.102,-0.169,0.013,-2.360,142.973,10.090
19:54:49:102,15.251,0.111,-0.123,0.015,-2.161,144.929,10.132
19:54:49:128,15.277,0.130,-0.109,0.038,-1.987,148.301,9.665
19:54:49:155,15.304,0.175,-0.080,0.021,-1.981,149.854,8.973
19:54:49:18,15.329,0.273,-0.088,-0.016,-2.166,152.047,7.486
19:54:49:235,15.384,0.330,-0.123,-0.032,-2.422,152.457,6.289
19:54:49:236,15.385,0.342,-0.067,-0.052,-2.990,152.804,4.399
19:54:49:261,15.410,0.338,0.086,-0.059,-3.663,152.759,2.837
19:54:49:285,15.434,0.317,0.085,0.004,-3.992,152.737,2.074
19:54:49:312,15.460,0.329,0.234,0.031,-4.074,153.906,1.289
19:54:49:342,15.491,0.378,0.259,0.055,-3.888,154.840,1.081
19:54:49:364,15.513,0.410,0.297,0.058,-3.470,156.912,1.245
19:54:49:39,15.539,0.412,0.111,0.082,-3.158,157.905,1.766
19:54:49:416,15.565,0.390,0.006,0.052,-2.992,158.780,2.309
19:54:49:443,15.592,0.324,0.044,0.020,-2.836,158.879,3.822
19:54:49:475,15.624,0.260,0.221,-0.004,-2.794,159.109,5.597
19:54:49:496,15.644,0.126,0.403,0.001,-2.628,157.477,9.456
19:54:49:578,15.727,-0.028,0.471,-0.032,-2.243,155.978,12.576
19:54:49:579,15.728,-0.172,0.327,-0.118,-1.089,153.612,17.570
19:54:49:606,15.755,-0.239,0.159,-0.196,0.358,152.371,22.698
19:54:49:654,15.803,-0.256,-0.004,-0.216,1.135,152.169,26.199
19:54:49:759,15.908,-0.272,-0.064,-0.201,1.771,152.675,31.456
19:54:49:795,15.944,-0.367,-0.141,-0.172,2.212,152.935,34.858
19:54:49:795,15.944,-0.377,-0.206,-0.152,3.384,153.092,39.503
19:54:49:796,15.945,-0.376,-0.342,-0.153,5.310,153.222,43.190
19:54:49:797,15.946,-0.365,-0.402,-0.156,6.737,153.451,45.060
19:54:49:95,16.099,-0.346,-0.490,-0.158,8.511,154.021,47.088
19:54:49:951,16.100,-0.373,-0.510,-0.140,9.253,154.487,47.991
19:54:49:952,16.101,-0.408,-0.472,-0.129,9.598,155.236,48.614
19:54:49:953,16.102,-0.455,-0.403,-0.106,9.240,156.024,48.063
19:54:49:976,16.125,-0.504,-0.346,-0.101,8.634,156.654,46.894
19:54:49:977,16.126,-0.560,-0.208,-0.085,7.145,158.029,43.881
19:54:49:978,16.127,-0.606,-0.070,-0.097,5.783,159.376,41.063
19:54:49:979,16.128,-0.594,0.198,-0.005,3.436,162.203,35.769
19:54:49:998,16.147,-0.545,0.320,0.022,2.040,164.565,31.597
19:54:49:999,16.148,-0.359,0.573,0.073,0.410,168.501,24.678
19:54:50:024,16.173,0.164,0.479,-0.094,-0.438,171.692,17.264
19:54:50:047,16.196,0.245,0.305,-0.078,-0.811,172.510,12.355
19:54:50:074,16.223,0.230,0.109,0.004,-1.415,172.638,6.006
19:54:50:128,16.277,0.185,0.067,0.060,-1.630,172.768,2.986
19:54:50:128,16.277,0.206,0.012,0.027,-1.322,174.121,0.407
19:54:50:151,16.300,0.276,-0.104,0.005,-0.367,177.538,-0.249
19:54:50:179,16.328,0.286,-0.170,-0.011,0.363,-179.470,0.037
19:54:50:205,16.354,0.320,-0.157,-0.002,1.167,-174.550,1.162
19:54:50:23,16.378,0.309,-0.109,0.001,1.416,-171.452,2.100
19:54:50:256,16.405,0.308,-0.060,0.004,1.509,-167.716,3.386
19:54:50:282,16.431,0.294,-0.103,-0.009,1.559,-164.088,4.137
19:54:50:309,16.458,0.279,-0.110,-0.017,1.678,-162.996,4.214
19:54:50:337,16.486,0.241,-0.199,-0.096,1.922,-161.634,3.770
19:54:50:363,16.512,0.265,-0.294,-0.175,2.000,-160.827,3.230
19:54:50:388,16.537,0.277,-0.250,-0.189,1.865,-159.929,2.231
19:54:50:415,16.564,0.311,-0.103,-0.178,1.581,-159.625,1.550
19:54:50:44,16.588,0.370,0.067,-0.125,1.049,-159.585,0.502
19:54:50:471,16.620,0.457,0.254,-0.100,0.681,-160.059,-0.790
19:54:50:495,16.644,0.588,0.421,-0.162,0.538,-160.563,-1.811
19:54:50:519,16.668,0.606,0.455,-0.168,0.341,-161.713,-3.223
19:54:50:546,16.695,0.518,0.322,-0.195,0.057,-162.780,-3.708
19:54:50:572,16.721,0.446,0.200,-0.184,-0.589,-164.629,-2.997
19:54:50:598,16.747,0.271,0.234,-0.118,-1.345,-167.046,0.126
19:54:50:624,16.773,0.184,0.406,-0.014,-1.739,-169.174,3.602
19:54:50:651,16.800,-0.068,0.439,0.101,-1.576,-173.551,10.117
19:54:50:765,16.914,-0.211,0.329,0.067,-0.730,-176.864,14.741
19:54:50:765,16.914,-0.229,0.113,0.029,1.338,179.175,21.024
19:54:50:766,16.915,-0.316,-0.137,-0.013,3.044,177.715,26.070
19:54:50:767,16.916,-0.307,-0.215,0.032,3.500,177.624,29.129
19:54:50:784,16.933,-0.247,-0.269,0.081,3.736,177.604,33.366
19:54:50:87,17.019,-0.282,-0.270,0.122,4.050,177.286,35.869
19:54:50:87,17.019,-0.326,-0.294,0.120,5.380,176.284,38.869
19:54:50:871,17.020,-0.417,-0.360,0.086,9.312,174.362,41.737
19:54:50:915,17.064,-0.403,-0.385,0.092,11.172,173.909,42.456
19:54:50:943,17.092,-0.402,-0.387,0.090,11.786,174.016,42.682
19:54:50:943,17.092,-0.431,-0.312,0.124,11.834,174.517,42.711
19:54:51:051,17.200,-0.497,-0.229,0.143,11.504,174.871,42.409
19:54:51:052,17.201,-0.524,-0.124,0.156,10.619,175.364,41.151
19:54:51:053,17.202,-0.548,-0.004,0.131,9.296,176.024,38.708
19:54:51:101,17.250,-0.508,0.022,0.140,8.166,176.642,36.441
19:54:51:101,17.250,-0.454,0.157,0.130,6.312,177.969,32.352
19:54:51:125,17.274,-0.336,0.337,0.086,5.060,179.050,29.278
19:54:51:126,17.275,-0.177,0.331,0.030,3.397,-179.342,24.266
19:54:51:156,17.305,-0.041,0.228,-0.039,2.082,-178.005,19.129
19:54:51:235,17.384,-0.028,0.128,-0.030,1.351,-177.170,16.022
19:54:51:236,17.385,-0.089,0.110,-0.007,0.549,-175.591,12.540
19:54:51:236,17.385,-0.037,0.106,0.010,0.235,-173.993,11.223
19:54:51:256,17.405,0.008,0.072,0.029,0.130,-170.408,10.429
19:54:51:28,17.429,0.081,-0.050,0.042,0.280,-167.382,10.229
19:54:51:307,17.456,0.126,-0.076,0.024,0.710,-162.243,10.032
19:54:51:334,17.482,0.179,-0.150,0.002,1.247,-157.229,9.632
19:54:51:361,17.510,0.166,-0.180,-0.046,1.593,-154.418,9.153
19:54:51:386,17.535,0.162,-0.164,-0.091,1.948,-151.367,8.086
19:54:51:411,17.560,0.147,-0.111,-0.109,2.016,-150.045,7.142
19:54:51:439,17.588,0.188,-0.091,-0.134,1.966,-148.490,5.456
19:54:51:464,17.613,0.204,-0.105,-0.180,1.936,-147.071,3.568
19:54:51:491,17.640,0.209,-0.138,-0.199,2.023,-146.067,2.905
19:54:51:517,17.666,0.225,-0.070,-0.253,2.145,-144.588,2.488
19:54:51:543,17.691,0.286,0.086,-0.259,1.989,-143.810,1.616
19:54:51:569,17.718,0.312,0.129,-0.255,1.694,-142.874,0.478
19:54:51:596,17.745,0.323,0.120,-0.291,1.465,-141.878,-0.405
19:54:51:622,17.771,0.314,0.221,-0.311,1.243,-141.227,-0.667
19:54:51:649,17.798,0.295,0.288,-0.387,0.701,-140.556,-0.355
19:54:51:674,17.823,0.296,0.260,-0.396,0.208,-140.503,0.318
19:54:51:7,17.849,0.225,0.032,-0.318,-0.401,-140.904,1.934
19:54:51:727,17.875,0.147,0.140,-0.236,-0.647,-141.367,3.601
19:54:51:753,17.902,0.090,0.307,-0.159,-0.710,-142.266,7.229
19:54:51:781,17.930,0.022,0.395,-0.042,-0.299,-143.580,11.820
19:54:51:806,17.955,-0.040,0.381,0.038,0.285,-144.717,15.057
19:54:51:833,17.982,-0.121,0.271,0.093,1.623,-146.673,19.888
19:54:51:858,18.007,-0.224,0.121,0.123,2.768,-148.113,22.987
19:54:51:913,18.062,-0.297,0.030,0.146,4.670,-150.144,27.501
19:54:51:914,18.062,-0.340,-0.068,0.182,6.488,-151.540,31.968
19:54:52:122,18.271,-0.337,-0.120,0.221,7.627,-152.027,34.872
19:54:52:235,18.384,-0.350,-0.181,0.283,9.519,-152.347,38.940
19:54:52:236,18.385,-0.357,-0.272,0.320,11.064,-152.401,41.347
19:54:52:237,18.386,-0.340,-0.353,0.288,13.587,-152.113,44.414
19:54:52:238,18.387,-0.315,-0.451,0.265,15.847,-151.326,46.821
19:54:52:287,18.436,-0.320,-0.486,0.270,16.981,-150.620,48.102
19:54:52:288,18.437,-0.333,-0.482,0.324,17.987,-149.421,49.530
19:54:52:289,18.437,-0.362,-0.443,0.368,18.220,-148.617,50.011
19:54:52:29,18.438,-0.364,-0.333,0.446,17.803,-147.298,49.680
19:54:52:31,18.459,-0.348,-0.312,0.433,16.914,-146.199,48.673
19:54:52:311,18.460,-0.368,-0.238,0.463,14.757,-144.144,46.101
19:54:52:312,18.461,-0.354,-0.127,0.485,11.947,-141.637,42.680
19:54:52:335,18.484,-0.363,0.067,0.541,9.906,-139.713,39.937
19:54:52:335,18.484,-0.288,0.389,0.550,6.963,-136.487,34.993
19:54:52:386,18.535,-0.039,0.261,0.075,2.858,-125.830,19.381
19:54:52:412,18.560,-0.037,0.257,0.019,2.418,-123.381,16.233
19:54:52:412,18.561,0.041,0.227,-0.023,1.833,-119.953,12.718
19:54:52:437,18.585,0.071,0.145,-0.074,1.545,-117.445,11.084
19:54:52:463,18.612,0.070,0.018,-0.135,1.423,-113.232,9.470
19:54:52:488,18.637,0.042,-0.112,-0.179,1.637,-108.897,8.648
19:54:52:514,18.663,0.040,-0.127,-0.169,1.870,-106.140,8.387
19:54:52:542,18.691,0.044,-0.094,-0.177,2.272,-102.235,8.188
19:54:52:566,18.715,0.071,-0.085,-0.203,2.600,-99.835,8.007
19:54:52:592,18.741,0.069,-0.090,-0.222,3.200,-96.644,7.370
19:54:52:624,18.773,0.037,-0.144,-0.244,3.839,-93.937,6.224
19:54:52:645,18.794,0.009,-0.160,-0.271,4.207,-92.435,5.132
19:54:52:673,18.822,-0.030,-0.183,-0.322,4.505,-90.578,3.239
19:54:52:698,18.847,-0.010,-0.147,-0.394,4.531,-90.236,1.869
19:54:52:725,18.874,-0.024,-0.087,-0.433,4.343,-89.306,-0.254
19:54:52:754,18.903,0.007,0.034,-0.467,3.939,-89.688,-2.262
19:54:52:776,18.925,0.009,0.085,-0.481,3.624,-89.521,-3.368
19:54:52:805,18.954,0.000,0.211,-0.515,3.106,-89.046,-4.383
19:54:52:83,18.979,-0.053,0.224,-0.535,2.699,-88.659,-4.489
19:54:52:856,19.005,-0.034,0.264,-0.527,1.880,-88.165,-3.727
19:54:52:881,19.030,-0.059,0.167,-0.494,1.298,-87.834,-2.644
19:54:52:908,19.057,-0.104,0.128,-0.421,0.416,-87.783,-0.147
19:54:52:937,19.086,-0.074,0.264,-0.314,-0.581,-88.061,3.598
19:54:52:961,19.110,-0.008,0.357,-0.161,-1.221,-88.886,6.717
19:54:52:986,19.135,0.000,0.367,-0.059,-1.830,-91.434,11.882
19:54:53:014,19.163,-0.066,0.273,0.065,-1.652,-95.404,17.108
19:54:53:128,19.277,-0.100,0.176,0.110,-1.091,-98.560,20.365
19:54:53:128,19.277,-0.135,0.004,0.232,0.325,-103.603,24.703
19:54:53:128,19.277,-0.181,-0.105,0.284,1.498,-106.686,27.362
19:54:53:128,19.277,-0.214,-0.164,0.344,3.278,-110.124,31.262
19:54:53:143,19.292,-0.178,-0.136,0.397,4.311,-111.473,33.842
19:54:53:171,19.320,-0.126,-0.216,0.429,5.712,-112.262,37.538
19:54:53:196,19.345,-0.078,-0.318,0.420,7.207,-111.969,40.797
19:54:53:223,19.372,-0.069,-0.374,0.409,8.197,-111.287,42.643
19:54:53:278,19.427,-0.070,-0.425,0.386,9.433,-109.857,44.863
19:54:53:278,19.427,-0.062,-0.377,0.435,9.991,-108.864,45.958
19:54:53:306,19.455,-0.047,-0.327,0.481,10.419,-107.610,46.734
19:54:53:307,19.456,0.004,-0.258,0.559,10.272,-106.539,46.139
19:54:53:357,19.506,0.050,-0.231,0.579,9.678,-105.588,44.785
19:54:53:358,19.507,0.073,-0.171,0.563,8.004,-103.404,41.792
19:54:53:412,19.561,0.081,-0.014,0.590,6.424,-101.430,39.246
19:54:53:412,19.561,0.116,0.257,0.565,3.819,-98.181,34.685
19:54:53:464,19.613,0.028,0.259,0.169,2.315,-96.081,31.025
19:54:53:465,19.614,-0.045,0.261,-0.005,0.869,-94.149,24.718
19:54:53:49,19.639,-0.077,0.143,-0.034,-0.097,-94.285,18.484
19:54:53:512,19.661,-0.076,0.129,0.003,-0.731,-94.902,15.053
19:54:53:538,19.687,-0.021,0.225,0.051,-1.536,-95.196,11.632
19:54:53:594,19.743,-0.022,0.223,0.057,-1.801,-94.254,10.422
19:54:53:594,19.743,-0.081,0.147,-0.069,-1.881,-90.695,9.743
19:54:53:617,19.766,-0.121,0.021,-0.110,-1.929,-86.131,9.873
19:54:53:643,19.792,-0.138,-0.080,-0.146,-2.091,-83.265,10.207
19:54:53:67,19.819,-0.157,-0.134,-0.131,-2.453,-79.900,10.717
19:54:53:695,19.844,-0.151,-0.157,-0.088,-2.644,-78.355,10.911
19:54:53:722,19.871,-0.140,-0.164,-0.047,-2.698,-76.595,10.835
19:54:53:748,19.897,-0.138,-0.137,-0.057,-2.443,-74.907,10.283
19:54:53:776,19.925,-0.147,-0.107,-0.072,-2.158,-73.733,9.630
19:54:53:801,19.950,-0.166,-0.145,-0.117,-1.684,-72.011,8.329
19:54:53:826,19.975,-0.183,-0.136,-0.164,-1.449,-71.056,7.292
19:54:53:853,20.002,-0.197,-0.066,-0.213,-1.307,-69.951,5.575
19:54:53:878,20.027,-0.215,0.042,-0.255,-1.346,-69.665,4.361
19:54:53:905,20.054,-0.195,0.093,-0.302,-1.489,-69.752,2.509
19:54:53:931,20.080,-0.196,0.100,-0.320,-1.551,-69.831,0.780
19:54:53:958,20.107,-0.210,0.205,-0.329,-1.573,-69.691,-0.087
19:54:53:988,20.137,-0.248,0.285,-0.353,-1.623,-69.321,-0.665
19:54:54:011,20.160,-0.193,0.203,-0.405,-1.738,-69.044,-0.514
19:54:54:036,20.185,-0.165,0.097,-0.381,-1.790,-68.663,0.427
19:54:54:062,20.211,-0.134,0.092,-0.316,-1.760,-68.718,2.371
19:54:54:088,20.237,-0.101,0.125,-0.276,-1.768,-69.289,4.276
19:54:54:117,20.266,-0.019,0.195,-0.196,-1.763,-71.212,7.724
19:54:54:141,20.290,0.038,0.226,-0.086,-1.628,-73.302,10.223
19:54:54:196,20.345,0.032,0.165,0.002,-1.079,-77.010,14.012
19:54:54:314,20.463,0.039,0.052,0.115,-0.525,-79.621,16.466
19:54:54:317,20.466,0.028,-0.097,0.217,1.142,-85.069,24.050
19:54:54:318,20.466,0.042,-0.100,0.260,1.552,-86.004,26.722
19:54:54:328,20.477,0.122,-0.103,0.307,2.316,-86.996,30.637
19:54:54:329,20.478,0.146,-0.147,0.339,3.038,-87.451,33.008
19:54:54:351,20.500,0.154,-0.206,0.347,4.361,-87.789,36.026
19:54:54:378,20.527,0.133,-0.264,0.368,5.267,-87.894,37.672
19:54:54:404,20.553,0.136,-0.283,0.403,6.345,-87.925,39.670
19:54:54:43,20.579,0.129,-0.235,0.443,6.902,-88.026,41.083
19:54:54:457,20.606,0.138,-0.156,0.493,7.028,-88.207,41.573
19:54:54:485,20.633,0.139,-0.159,0.493,6.792,-88.427,41.436
19:54:54:51,20.659,0.135,-0.146,0.531,6.043,-88.186,40.401
19:54:54:536,20.685,0.130,-0.131,0.516,5.187,-87.661,39.372
19:54:54:619,20.768,0.155,-0.085,0.501,3.550,-86.521,37.270
19:54:54:62,20.769,0.143,-0.009,0.449,2.329,-85.826,35.280
19:54:54:621,20.770,0.022,0.077,0.220,0.571,-84.725,31.211
19:54:54:67,20.819,-0.070,0.140,0.156,-0.322,-84.812,27.838
19:54:54:671,20.819,-0.112,0.209,0.159,-1.385,-86.094,22.560
19:54:54:692,20.841,-0.107,0.234,0.189,-2.463,-88.151,17.915
19:54:54:719,20.868,-0.067,0.211,0.171,-3.110,-89.023,15.432
19:54:54:8,20.949,-0.110,0.070,0.063,-3.703,-88.307,12.522
19:54:54:824,20.973,-0.145,-0.053,-0.078,-3.774,-86.350,11.010
19:54:54:858,21.007,-0.135,-0.170,-0.101,-3.580,-82.266,9.364
19:54:54:859,21.008,-0.157,-0.180,-0.182,-3.352,-78.135,8.463
19:54:54:859,21.008,-0.155,-0.163,-0.183,-3.250,-75.955,8.119
19:54:54:877,21.026,-0.136,-0.088,-0.176,-3.126,-73.872,7.629
19:54:54:963,21.112,-0.130,-0.023,-0.150,-3.033,-73.156,7.170
19:54:54:963,21.112,-0.159,-0.028,-0.147,-2.816,-72.694,6.114
19:54:54:963,21.112,-0.194,-0.101,-0.200,-2.652,-72.399,5.163
19:54:55:012,21.161,-0.196,-0.106,-0.258,-2.456,-71.917,3.499
19:54:55:012,21.161,-0.213,0.052,-0.324,-2.315,-71.789,1.746
19:54:55:035,21.183,-0.225,0.120,-0.361,-2.249,-72.049,0.589
19:54:55:061,21.210,-0.169,0.121,-0.417,-2.091,-72.664,-1.121
19:54:55:086,21.235,-0.140,0.177,-0.430,-1.890,-72.948,-2.115
19:54:55:116,21.265,-0.118,0.209,-0.455,-1.442,-73.715,-2.905
19:54:55:139,21.288,-0.141,0.200,-0.442,-1.038,-74.233,-2.487
19:54:55:165,21.314,-0.114,0.206,-0.409,-1.022,-74.407,-1.446
19:54:55:223,21.372,-0.079,0.109,-0.337,-1.301,-75.299,1.167
19:54:55:224,21.373,-0.007,0.147,-0.242,-1.552,-76.074,3.408
19:54:55:273,21.422,0.059,0.226,-0.142,-1.817,-77.843,7.386
19:54:55:274,21.423,0.116,0.243,-0.036,-1.643,-80.342,11.766
19:54:55:297,21.446,0.114,0.183,0.024,-1.213,-82.604,14.603
19:54:55:322,21.471,0.117,0.097,0.105,-0.172,-86.343,18.417
19:54:55:349,21.498,0.101,0.025,0.174,0.665,-88.952,20.592
19:54:55:375,21.524,0.070,-0.087,0.238,1.760,-92.050,23.489
19:54:55:401,21.550,0.058,-0.146,0.237,2.460,-94.482,26.295
19:54:55:429,21.578,0.081,-0.162,0.225,2.878,-95.471,28.148
19:54:55:455,21.604,0.109,-0.193,0.276,3.832,-97.175,30.792
19:54:55:48,21.629,0.112,-0.241,0.343,4.728,-98.095,32.455
19:54:55:511,21.660,0.107,-0.273,0.356,6.168,-99.238,34.741
19:54:55:534,21.683,0.087,-0.316,0.360,7.027,-99.691,36.069
19:54:55:569,21.717,0.077,-0.311,0.392,7.923,-100.158,37.713
19:54:55:586,21.735,0.091,-0.229,0.484,8.343,-100.497,38.718
19:54:55:616,21.765,0.092,-0.150,0.521,8.293,-100.639,38.837
19:54:55:616,21.765,0.108,-0.084,0.503,7.691,-100.464,37.975
19:54:55:668,21.817,0.070,-0.017,0.518,6.982,-100.145,36.645
19:54:55:669,21.818,0.047,0.030,0.447,5.501,-99.319,33.824
19:54:55:69,21.839,0.040,0.127,0.366,3.762,-98.389,30.149
19:54:55:717,21.866,0.018,0.184,0.270,2.596,-97.791,27.276
19:54:55:743,21.892,-0.056,0.149,0.076,1.038,-97.111,22.529
19:54:55:771,21.920,-0.111,0.144,-0.013,0.109,-96.941,19.279
19:54:55:825,21.974,-0.085,0.156,-0.006,-1.169,-97.238,14.810
19:54:55:825,21.974,-0.085,0.183,-0.027,-1.886,-97.263,12.395
19:54:55:848,21.997,-0.080,0.109,-0.099,-2.536,-97.382,9.775
19:54:55:876,22.025,-0.102,-0.018,-0.105,-2.683,-95.966,8.202
19:54:55:902,22.051,-0.091,-0.062,-0.121,-2.648,-94.328,7.650
19:54:55:927,22.076,-0.079,-0.143,-0.115,-2.543,-91.478,7.411
19:54:55:979,22.128,-0.076,-0.143,-0.148,-2.516,-89.591,7.487
19:54:56:008,22.157,-0.087,-0.150,-0.131,-2.559,-87.274,7.583
19:54:56:009,22.158,-0.097,-0.148,-0.130,-2.336,-85.654,7.922
19:54:56:033,22.182,-0.118,-0.129,-0.089,-2.072,-84.983,8.017
19:54:56:058,22.207,-0.142,-0.112,-0.107,-2.311,-84.334,7.115
19:54:56:084,22.233,-0.166,-0.121,-0.136,-2.456,-83.973,6.371
19:54:56:11,22.259,-0.174,-0.099,-0.164,-2.656,-83.348,5.190
19:54:56:136,22.285,-0.193,-0.072,-0.204,-2.757,-83.298,4.461
19:54:56:164,22.313,-0.181,0.082,-0.260,-2.915,-82.702,3.538
19:54:56:189,22.338,-0.116,0.157,-0.283,-2.965,-82.881,2.899
19:54:56:22,22.369,-0.086,0.285,-0.262,-2.874,-82.616,2.667
19:54:56:241,22.390,-0.101,0.289,-0.278,-2.606,-82.403,2.804
19:54:56:268,22.417,-0.132,0.325,-0.300,-2.455,-81.862,3.237
19:54:56:296,22.444,-0.098,0.231,-0.303,-2.433,-81.521,4.321
19:54:56:322,22.471,-0.053,0.133,-0.252,-2.468,-81.146,5.949
19:54:56:349,22.498,-0.040,0.099,-0.205,-2.434,-81.591,7.451
19:54:56:373,22.522,-0.004,0.146,-0.102,-2.325,-82.305,10.363
19:54:56:402,22.551,0.015,0.160,-0.011,-2.180,-83.491,12.563
19:54:56:425,22.574,0.034,0.162,0.018,-1.729,-86.120,15.902
19:54:56:54,22.689,0.089,0.089,0.077,-0.762,-89.950,18.702
19:54:56:54,22.689,0.077,0.027,0.129,0.149,-92.651,20.158
19:54:56:541,22.690,0.043,-0.117,0.208,1.642,-96.684,22.031
19:54:56:542,22.691,0.004,-0.162,0.205,2.521,-98.713,23.308
19:54:56:557,22.706,0.036,-0.194,0.194,3.460,-100.878,25.379
19:54:56:585,22.734,0.067,-0.188,0.213,3.910,-101.538,26.818
19:54:56:675,22.824,0.095,-0.187,0.231,4.714,-102.354,28.962
19:54:56:675,22.824,0.080,-0.211,0.297,5.912,-103.152,30.880
19:54:56:675,22.824,0.092,-0.230,0.320,6.791,-103.550,32.015
19:54:56:829,22.978,0.080,-0.243,0.354,7.884,-103.712,33.589
19:54:56:829,22.978,0.081,-0.163,0.449,8.285,-103.502,34.577
19:54:56:831,22.980,0.090,-0.100,0.501,8.351,-102.749,35.856
19:54:56:831,22.980,0.109,-0.033,0.519,7.870,-102.062,36.498
19:54:56:884,23.033,0.052,-0.031,0.469,7.304,-101.516,36.331
19:54:56:884,23.033,0.007,0.032,0.499,6.014,-100.649,35.118
19:54:56:884,23.033,-0.039,0.013,0.439,4.931,-100.017,33.839
19:54:56:884,23.033,-0.084,0.083,0.351,3.126,-98.991,31.367
19:54:56:902,23.051,-0.150,0.069,0.181,1.946,-98.347,29.353
19:54:56:954,23.103,-0.191,0.081,0.093,0.476,-97.300,25.838
19:54:56:954,23.103,-0.182,0.097,0.085,-0.478,-96.855,22.063
19:54:56:976,23.125,-0.109,0.132,0.165,-0.845,-96.675,19.728
19:54:57:002,23.151,-0.074,0.153,0.147,-1.053,-95.872,16.951
19:54:57:112,23.261,-0.045,0.096,0.025,-0.907,-94.408,15.649
19:54:57:113,23.262,-0.068,0.015,-0.037,-0.355,-91.178,14.318
19:54:57:14,23.289,-0.083,-0.106,-0.118,0.295,-87.821,13.343
19:54:57:141,23.290,-0.049,-0.207,-0.099,0.641,-85.844,12.826
19:54:57:141,23.290,0.020,-0.213,-0.067,0.998,-83.125,12.302
19:54:57:16,23.309,0.033,-0.165,-0.063,1.143,-81.464,12.106
19:54:57:186,23.335,-0.007,-0.133,-0.114,1.294,-79.435,11.756
19:54:57:272,23.421,-0.050,-0.109,-0.117,1.295,-78.314,10.981
19:54:57:273,23.422,-0.076,-0.101,-0.094,1.169,-77.705,10.236
19:54:57:274,23.423,-0.098,-0.159,-0.096,0.786,-76.753,9.124
19:54:57:458,23.607,-0.156,-0.144,-0.124,0.412,-75.955,8.531
19:54:57:459,23.608,-0.204,-0.012,-0.158,-0.323,-74.841,7.880
19:54:57:46,23.609,-0.182,0.129,-0.170,-0.856,-74.274,7.498
19:54:57:483,23.632,-0.177,0.244,-0.186,-1.960,-72.218,6.396
19:54:57:484,23.633,-0.206,0.174,-0.221,-2.145,-71.260,6.208
19:54:57:485,23.634,-0.243,0.199,-0.250,-2.480,-70.247,6.218
19:54:57:486,23.635,-0.234,0.254,-0.210,-2.726,-70.023,6.500
19:54:57:502,23.651,-0.233,0.217,-0.198,-3.006,-70.167,7.486
19:54:57:558,23.707,-0.159,0.221,-0.078,-3.052,-70.674,9.289
19:54:57:559,23.708,-0.145,0.236,-0.029,-2.951,-70.890,11.031
19:54:57:581,23.730,-0.087,0.284,-0.001,-2.594,-71.270,14.259
19:54:57:665,23.814,-0.047,0.272,0.043,-2.165,-71.943,16.649
19:54:57:665,23.814,-0.006,0.142,0.157,-1.116,-73.687,20.398
19:54:57:666,23.815,-0.017,0.046,0.209,-0.183,-75.039,22.908
19:54:57:715,23.864,-0.029,-0.114,0.263,1.220,-76.604,26.568
19:54:57:716,23.865,0.012,-0.180,0.298,2.210,-77.073,30.185
19:54:57:738,23.887,0.075,-0.183,0.321,2.672,-76.900,32.552
19:54:57:764,23.912,0.114,-0.185,0.312,3.430,-76.365,35.810
19:54:57:79,23.939,0.160,-0.240,0.344,4.159,-75.948,37.604
19:54:57:845,23.994,0.170,-0.275,0.345,5.497,-75.185,39.656
19:54:57:847,23.995,0.166,-0.345,0.332,6.728,-74.102,41.028
19:54:57:958,24.107,0.167,-0.362,0.330,7.197,-73.227,41.641
19:54:57:959,24.108,0.195,-0.338,0.337,7.247,-71.762,42.151
19:54:57:976,24.125,0.236,-0.167,0.296,4.120,-67.440,38.970
19:54:57:977,24.126,0.239,-0.108,0.313,2.952,-65.999,37.622
19:54:58:032,24.181,0.295,0.003,0.295,1.073,-63.489,35.178
19:54:58:033,24.182,0.340,0.145,0.332,-0.141,-61.542,33.158
19:54:58:053,24.202,0.262,0.430,0.221,-1.721,-58.322,29.269
19:54:58:167,24.316,0.067,0.257,0.056,-2.403,-56.117,26.022
19:54:58:168,24.317,-0.098,0.056,0.041,-2.994,-53.453,20.731
19:54:58:169,24.318,-0.073,0.052,0.155,-3.660,-52.446,16.413
19:54:58:213,24.362,0.053,0.187,0.123,-5.082,-50.115,13.418
19:54:58:213,24.362,-0.012,0.165,0.030,-5.395,-47.465,12.868
19:54:58:265,24.413,-0.067,0.070,-0.027,-5.272,-41.986,11.609
19:54:58:351,24.500,-0.113,-0.119,-0.069,-4.498,-36.066,9.958
19:54:58:352,24.501,-0.121,-0.197,-0.047,-3.788,-32.554,8.924
19:54:58:352,24.501,-0.165,-0.209,-0.036,-2.831,-28.351,7.575
19:54:58:352,24.501,-0.190,-0.130,-0.046,-2.363,-26.220,6.665
19:54:58:448,24.597,-0.209,-0.061,-0.080,-1.885,-23.829,4.962
19:54:58:566,24.715,-0.223,-0.048,-0.091,-1.591,-22.601,3.564
19:54:58:567,24.716,-0.269,-0.094,-0.092,-1.139,-20.925,1.279
19:54:58:569,24.718,-0.366,-0.140,-0.085,-0.745,-19.303,-1.046
19:54:58:569,24.718,-0.442,-0.130,-0.069,-0.638,-18.371,-2.538
19:54:58:585,24.734,-0.497,-0.081,-0.060,-0.840,-17.537,-4.628
19:54:58:586,24.734,-0.526,-0.010,-0.092,-1.201,-17.333,-5.908
19:54:58:587,24.735,-0.550,0.011,-0.097,-1.809,-17.258,-7.602
19:54:58:606,24.755,-0.610,0.169,-0.081,-2.309,-17.171,-8.899
19:54:58:634,24.783,-0.704,0.291,-0.079,-2.642,-17.091,-9.327
19:54:58:635,24.784,-0.739,0.189,-0.054,-3.135,-17.005,-9.166
19:54:58:685,24.834,-0.551,-0.050,-0.045,-3.383,-17.283,-8.514
19:54:58:686,24.835,-0.498,0.125,-0.011,-3.619,-17.544,-6.239
19:54:58:764,24.913,-0.412,0.362,-0.011,-3.783,-18.248,-1.884
19:54:58:826,24.975,-0.313,0.497,-0.008,-3.807,-19.309,1.913
19:54:58:826,24.975,-0.137,0.461,0.023,-3.447,-21.936,8.150
19:54:58:826,24.975,-0.023,0.397,0.064,-2.845,-24.245,12.332
19:54:58:826,24.975,0.109,0.164,0.136,-1.327,-28.177,18.295
19:54:58:868,25.017,0.192,-0.005,0.227,0.054,-30.878,22.018
19:54:58:897,25.046,0.260,-0.096,0.259,2.140,-33.896,27.252
19:54:58:898,25.047,0.308,-0.157,0.230,3.706,-34.968,32.144
19:54:58:919,25.068,0.335,-0.178,0.173,4.660,-35.144,35.214
19:54:58:946,25.095,0.382,-0.260,0.164,6.633,-34.775,38.977
19:54:58:972,25.120,0.410,-0.342,0.161,8.264,-34.514,40.885
19:54:58:998,25.147,0.394,-0.419,0.154,10.485,-33.481,43.087
19:54:59:025,25.174,0.419,-0.443,0.133,11.813,-31.762,44.793
19:54:59:08,25.229,0.447,-0.416,0.126,12.175,-30.519,45.641
19:54:59:081,25.230,0.475,-0.346,0.098,12.188,-28.944,46.116
19:54:59:102,25.251,0.479,-0.310,0.098,11.812,-27.866,45.648
19:54:59:13,25.279,0.504,-0.252,0.099,10.507,-26.686,43.616
19:54:59:156,25.305,0.520,-0.162,0.105,9.154,-25.583,41.480
19:54:59:21,25.359,0.550,0.010,0.096,6.598,-23.920,37.273
19:54:59:212,25.361,0.412,0.228,0.098,3.951,-22.152,31.719
19:54:59:375,25.524,0.046,0.382,0.172,2.427,-21.302,27.210
19:54:59:376,25.525,-0.143,0.316,0.203,0.518,-21.415,19.667
19:54:59:376,25.525,-0.036,0.229,0.131,-0.697,-22.312,14.694
19:54:59:377,25.526,-0.029,0.286,0.092,-2.305,-23.520,8.530
19:54:59:397,25.546,-0.057,0.319,0.049,-2.984,-22.984,4.460
19:54:59:4,25.549,-0.143,0.252,0.029,-2.665,-21.022,2.759
19:54:59:401,25.550,-0.238,0.108,-0.025,-1.276,-16.097,1.306
19:54:59:505,25.654,-0.310,-0.078,-0.055,-0.045,-12.081,0.977
19:54:59:505,25.654,-0.325,-0.146,-0.035,1.625,-5.979,1.264
19:54:59:506,25.655,-0.341,-0.209,-0.040,2.727,-0.723,1.960
19:54:59:523,25.671,-0.262,-0.190,-0.062,3.518,5.598,2.812
19:54:59:689,25.838,-0.247,-0.177,-0.051,3.674,7.123,2.889
19:54:59:69,25.839,-0.265,-0.209,-0.003,3.837,9.617,2.638
19:54:59:691,25.840,-0.298,-0.249,0.065,3.831,10.743,2.167
19:54:59:691,25.840,-0.315,-0.256,0.085,3.510,12.376,0.979
19:54:59:739,25.888,-0.358,-0.135,0.158,2.770,13.043,-0.717
19:54:59:739,25.888,-0.421,0.016,0.208,2.044,12.698,-2.064
19:54:59:764,25.913,-0.512,0.101,0.230,0.696,11.654,-4.339
19:54:59:765,25.914,-0.530,0.289,0.162,-0.257,10.613,-5.912
19:54:59:766,25.915,-0.545,0.340,0.167,-1.412,9.447,-7.841
19:54:59:785,25.934,-0.603,0.333,0.232,-1.924,9.064,-8.805
19:54:59:811,25.960,-0.578,0.125,0.262,-1.991,9.257,-8.742
19:54:59:838,25.987,-0.553,0.020,0.227,-1.981,9.638,-7.404
19:54:59:867,26.016,-0.503,0.123,0.216,-2.133,9.581,-5.512
19:54:59:891,26.040,-0.394,0.318,0.110,-2.543,7.775,-1.148
19:55:00:005,26.154,-0.144,0.424,0.011,-2.608,4.207,4.391
19:55:00:006,26.155,-0.009,0.395,-0.057,-2.171,1.220,8.426
19:55:00:006,26.155,0.099,0.195,-0.007,-0.563,-3.319,14.188
19:55:00:021,26.170,0.221,-0.104,0.082,2.578,-8.106,22.451
19:55:00:047,26.196,0.254,-0.139,0.054,3.325,-8.859,25.485
19:55:00:078,26.227,0.276,-0.141,-0.022,4.262,-9.662,29.797
19:55:00:079,26.228,0.358,-0.221,-0.101,5.718,-10.334,33.590
19:55:00:129,26.278,0.394,-0.266,-0.104,7.149,-10.557,35.712
19:55:00:13,26.279,0.400,-0.357,-0.091,9.694,-10.427,38.206
19:55:00:153,26.302,0.382,-0.388,-0.106,11.258,-9.954,39.413
19:55:00:18,26.329,0.378,-0.392,-0.111,12.841,-8.665,40.647
19:55:00:205,26.354,0.418,-0.339,-0.151,13.386,-7.175,41.152
19:55:00:231,26.380,0.489,-0.259,-0.191,13.306,-6.319,41.023
19:55:00:287,26.436,0.533,-0.161,-0.229,12.540,-4.979,39.998
19:55:00:287,26.436,0.596,-0.034,-0.251,11.585,-3.982,38.652
19:55:00:312,26.461,0.527,0.063,-0.256,9.625,-2.126,35.610
19:55:00:337,26.486,0.443,0.118,-0.239,8.140,-0.796,32.895
19:55:00:363,26.512,0.229,0.254,-0.094,5.962,0.777,27.800
19:55:00:389,26.538,-0.035,0.227,0.168,3.951,0.945,21.759
19:55:00:419,26.568,-0.047,0.191,0.161,2.527,0.060,17.566
19:55:00:469,26.618,0.028,0.260,0.125,-1.101,-2.172,9.284
19:55:00:497,26.646,0.000,0.168,0.149,-2.347,-1.184,6.606
19:55:00:521,26.670,-0.082,0.041,0.117,-2.410,2.880,5.230
19:55:00:547,26.696,-0.149,-0.052,0.110,-1.912,7.029,4.842
19:55:00:572,26.721,-0.225,-0.117,0.100,-0.733,14.171,4.934
19:55:00:6,26.749,-0.260,-0.151,0.105,0.152,18.997,5.304
19:55:00:626,26.774,-0.274,-0.170,0.096,1.416,25.400,5.950
19:55:00:654,26.803,-0.251,-0.158,0.079,2.537,30.348,6.291
19:55:00:678,26.827,-0.237,-0.162,0.075,3.207,32.890,6.224
19:55:00:736,26.885,-0.230,-0.195,0.114,4.025,35.920,5.666
19:55:00:736,26.885,-0.242,-0.227,0.164,4.403,37.524,5.003
19:55:00:756,26.905,-0.255,-0.207,0.193,4.597,39.158,3.570
19:55:00:783,26.932,-0.307,-0.041,0.234,4.480,39.491,2.302
19:55:00:816,26.965,-0.359,0.108,0.248,4.097,39.142,0.053
19:55:00:836,26.985,-0.419,0.121,0.223,3.710,38.459,-2.464
19:55:00:861,27.010,-0.451,0.156,0.217,3.562,38.320,-4.001
19:55:00:914,27.063,-0.437,0.128,0.366,3.278,38.926,-5.848
19:55:00:94,27.089,-0.406,0.032,0.358,2.687,39.244,-5.099
19:55:00:966,27.115,-0.393,0.128,0.313,1.816,39.222,-2.892
19:55:00:994,27.143,-0.365,0.281,0.275,1.164,38.686,-0.637
19:55:01:021,27.170,-0.258,0.436,0.181,0.349,36.817,3.705
19:55:01:046,27.195,-0.151,0.428,0.111,0.082,34.746,7.061
19:55:01:073,27.222,0.030,0.358,0.016,0.302,30.897,12.508
19:55:01:099,27.248,0.136,0.316,-0.010,0.897,28.165,16.326
19:55:01:124,27.273,0.310,0.161,-0.039,2.364,24.305,22.168
19:55:01:151,27.300,0.416,-0.038,-0.103,4.135,21.790,28.022
19:55:01:176,27.325,0.434,-0.134,-0.150,5.126,21.366,31.861
19:55:01:203,27.351,0.396,-0.242,-0.160,6.071,22.318,37.321
19:55:01:232,27.381,0.363,-0.312,-0.173,6.502,23.209,40.623
19:55:01:257,27.406,0.348,-0.381,-0.184,7.447,24.269,44.763
19:55:01:284,27.433,0.314,-0.481,-0.173,8.848,25.024,47.667
19:55:01:307,27.456,0.315,-0.539,-0.149,9.747,25.523,48.884
19:55:01:334,27.483,0.341,-0.549,-0.177,10.524,26.431,49.785
19:55:01:36,27.509,0.375,-0.476,-0.217,10.522,27.102,49.828
19:55:01:386,27.535,0.408,-0.355,-0.323,9.925,28.192,48.905
19:55:01:413,27.562,0.402,-0.273,-0.342,9.176,29.079,47.491
19:55:01:44,27.589,0.413,-0.162,-0.358,7.710,30.725,44.067
19:55:01:494,27.643,1.612,1.176,-1.504,5.481,31.960,39.059
19:55:01:495,27.644,0.466,0.302,-0.523,3.817,33.515,35.244
19:55:01:519,27.668,0.351,0.722,-0.524,2.250,37.130,28.834
19:55:01:544,27.693,-0.008,0.579,-0.065,1.433,39.573,23.762
19:55:01:57,27.719,-0.143,0.277,0.113,1.284,42.662,16.411
19:55:01:597,27.746,-0.147,0.092,0.095,1.506,44.873,10.556
19:55:01:63,27.779,-0.099,0.128,0.024,1.665,46.189,8.056
19:55:01:793,27.942,-0.166,0.206,0.005,1.806,48.891,6.495
19:55:01:793,27.942,-0.166,0.099,0.041,1.967,51.628,6.534
19:55:01:794,27.943,-0.206,0.060,0.083,2.118,56.651,7.632
19:55:01:794,27.943,-0.212,-0.076,0.094,2.161,62.349,9.249
19:55:01:843,27.992,-0.178,-0.117,0.097,2.183,65.767,10.336
19:55:01:843,27.992,-0.162,-0.178,0.047,2.291,71.044,11.742
19:55:01:843,27.992,-0.130,-0.185,0.037,2.423,73.564,12.418
19:55:01:844,27.993,-0.104,-0.197,0.041,2.688,77.540,12.896
19:55:01:889,28.038,-0.077,-0.228,0.048,2.838,79.592,12.805
19:55:01:915,28.064,-0.082,-0.227,0.086,2.908,83.090,11.986
19:55:01:916,28.065,-0.009,-0.185,0.158,2.737,85.735,10.304
19:55:01:966,28.115,0.025,-0.135,0.215,2.490,87.187,8.705
19:55:01:995,28.144,0.086,-0.008,0.301,1.979,88.675,5.683
19:55:01:996,28.145,0.075,0.151,0.396,1.578,89.202,3.316
19:55:02:074,28.223,0.068,0.224,0.463,0.902,89.843,-0.491
19:55:02:075,28.224,-0.003,0.355,0.541,0.362,90.139,-4.086
19:55:02:203,28.352,0.054,0.262,0.624,0.262,90.921,-6.023
19:55:02:344,28.493,0.110,0.138,0.679,0.450,92.263,-7.790
19:55:02:344,28.493,0.128,0.010,0.650,0.569,93.271,-8.047
19:55:02:344,28.493,0.082,0.015,0.631,0.523,94.138,-7.008
19:55:02:344,28.493,0.052,0.192,0.604,0.325,94.427,-5.389
19:55:02:367,28.516,-0.015,0.311,0.500,-0.100,93.775,-1.735
19:55:02:368,28.517,-0.068,0.304,0.408,-0.386,91.849,2.905
19:55:02:368,28.517,-0.085,0.330,0.139,-0.324,89.432,6.343
19:55:02:369,28.518,0.021,0.102,0.018,0.414,84.716,11.493
19:55:02:397,28.546,0.044,-0.033,-0.068,1.168,82.304,14.789
19:55:02:397,28.546,0.077,-0.080,-0.170,2.427,79.392,19.749
19:55:02:398,28.547,0.051,-0.080,-0.227,3.367,77.565,24.487
19:55:02:4,28.549,0.013,-0.065,-0.260,3.871,76.894,27.306
19:55:02:416,28.565,-0.024,-0.117,-0.307,4.900,75.999,30.873
19:55:02:416,28.565,-0.045,-0.194,-0.378,6.008,75.340,32.747
19:55:02:437,28.586,-0.035,-0.277,-0.389,7.965,74.710,34.994
19:55:02:463,28.612,-0.060,-0.366,-0.395,9.710,74.942,36.881
19:55:02:489,28.638,-0.066,-0.382,-0.400,10.485,75.648,37.990
19:55:02:516,28.665,-0.104,-0.303,-0.424,10.913,77.122,39.233
19:55:02:648,28.797,-0.118,-0.243,-0.458,10.792,78.060,39.552
19:55:02:761,28.910,-0.132,-0.187,-0.484,10.035,79.196,38.855
19:55:02:762,28.911,-0.113,-0.129,-0.492,9.027,79.933,37.496
19:55:02:762,28.911,-0.104,0.018,-0.467,7.164,81.003,34.359
19:55:02:763,28.912,-0.069,0.111,-0.357,5.326,81.866,29.915
19:55:02:787,28.936,-0.022,0.288,-0.268,4.276,82.216,26.344
19:55:02:788,28.937,0.043,0.404,-0.102,2.952,82.268,20.617
19:55:02:788,28.937,-0.002,0.265,0.000,2.198,82.381,17.030
19:55:02:789,28.938,-0.003,0.215,0.002,1.371,83.162,12.559
19:55:02:809,28.958,-0.003,0.164,0.052,1.029,84.999,9.833
19:55:02:809,28.958,-0.001,0.088,0.053,1.126,86.800,9.074
19:55:02:831,28.980,-0.055,-0.017,0.044,1.551,90.332,9.048
19:55:02:887,29.035,-0.046,-0.101,0.077,1.951,93.242,9.484
19:55:02:913,29.062,-0.081,-0.218,0.096,2.628,97.992,10.375
19:55:02:913,29.062,-0.127,-0.230,0.088,3.065,101.152,10.905
19:55:02:965,29.114,-0.154,-0.208,0.108,3.677,105.495,11.312
19:55:02:966,29.115,-0.152,-0.203,0.110,4.189,108.998,11.031
19:55:02:988,29.137,-0.135,-0.180,0.153,4.306,110.907,10.484
19:55:03:016,29.165,-0.101,-0.143,0.154,4.400,112.897,8.996
19:55:03:045,29.194,-0.025,-0.089,0.248,4.251,113.904,7.635
19:55:03:069,29.217,0.062,-0.096,0.312,3.829,114.768,4.947
19:55:03:093,29.242,0.235,-0.109,0.351,3.226,114.638,1.517
19:55:03:119,29.268,0.278,0.004,0.426,2.623,113.813,-1.062
19:55:03:145,29.294,0.302,0.175,0.537,1.356,111.719,-4.959
19:55:03:171,29.320,0.300,0.226,0.589,0.388,109.975,-7.259
19:55:03:199,29.348,0.304,0.296,0.609,-0.945,107.604,-9.665
19:55:03:225,29.374,0.355,0.292,0.623,-1.716,105.811,-10.288
19:55:03:251,29.400,0.335,0.224,0.592,-1.913,105.059,-9.576
19:55:03:276,29.425,0.201,0.113,0.523,-1.905,103.763,-7.051
19:55:03:303,29.452,0.145,0.171,0.485,-1.749,102.818,-4.530
19:55:03:496,29.645,-0.025,0.418,0.470,-1.226,100.337,0.141
19:55:03:497,29.646,-0.182,0.453,0.152,-0.412,97.344,3.685
19:55:03:497,29.646,-0.229,0.391,-0.099,1.764,90.972,8.640
19:55:03:498,29.647,-0.019,0.079,-0.432,4.885,83.971,12.834
19:55:03:522,29.671,-0.120,0.085,-0.066,6.502,81.148,15.132
19:55:03:522,29.671,-0.039,-0.122,-0.283,8.374,80.211,19.208
19:55:03:523,29.672,-0.102,-0.166,-0.235,8.911,81.186,22.211
19:55:03:524,29.673,-0.176,-0.173,-0.212,9.168,83.328,26.897
19:55:03:539,29.688,-0.245,-0.194,-0.241,9.639,84.835,31.220
19:55:03:565,29.714,-0.266,-0.194,-0.265,10.472,85.257,33.693
19:55:03:594,29.743,-0.250,-0.287,-0.389,12.644,85.188,36.710
19:55:03:618,29.767,-0.230,-0.374,-0.412,14.331,85.073,38.362
19:55:03:645,29.794,-0.234,-0.444,-0.438,16.528,85.227,40.438
19:55:03:67,29.819,-0.238,-0.408,-0.454,17.448,85.574,41.495
19:55:03:698,29.847,-0.261,-0.346,-0.502,17.828,86.166,42.234
19:55:03:723,29.872,-0.269,-0.262,-0.518,16.992,86.614,41.544
19:55:03:749,29.898,-0.277,-0.176,-0.558,15.886,86.795,40.173
19:55:03:78,29.929,-0.271,-0.086,-0.514,13.664,87.045,36.836
19:55:03:801,29.950,-0.204,0.052,-0.446,11.992,87.237,33.869
19:55:03:829,29.978,-0.147,0.210,-0.364,9.462,87.506,28.525
19:55:03:856,30.005,0.024,0.393,-0.149,7.176,87.330,22.445
19:55:03:881,30.030,0.047,0.408,-0.024,5.737,86.731,18.300
19:55:03:936,30.085,-0.016,0.267,0.047,3.748,85.620,12.580
19:55:03:937,30.086,0.051,0.168,0.087,2.703,85.295,9.484
19:55:03:96,30.109,0.185,0.064,0.138,1.734,85.856,6.425
19:55:03:987,30.136,0.231,-0.119,0.142,1.381,86.857,5.454
19:55:04:013,30.162,0.163,-0.204,0.178,1.065,89.645,5.274
19:55:04:04,30.189,0.016,-0.095,0.162,0.897,93.587,6.134
19:55:04:065,30.214,-0.031,-0.007,0.165,0.941,96.269,7.026
19:55:04:091,30.240,-0.057,0.085,0.269,1.390,99.481,8.019
19:55:04:119,30.268,-0.050,-0.057,0.219,1.921,100.645,8.176
19:55:04:145,30.294,0.013,-0.180,0.152,2.872,100.946,7.433
19:55:04:17,30.319,0.107,-0.188,0.116,3.455,100.535,5.971
19:55:04:196,30.344,0.121,-0.193,0.156,3.499,100.469,4.866
19:55:04:224,30.373,0.125,-0.197,0.214,3.257,100.880,3.317
19:55:04:252,30.401,0.084,-0.057,0.283,3.017,101.476,2.370
19:55:04:275,30.424,0.080,0.094,0.363,2.673,102.263,0.993
19:55:04:302,30.451,0.065,0.049,0.406,2.557,102.446,-0.394
19:55:04:327,30.476,0.054,0.006,0.391,2.636,102.279,-1.212
19:55:04:382,30.530,-0.010,0.300,0.387,2.850,102.174,-1.864
19:55:04:383,30.531,0.051,0.362,0.459,2.989,102.263,-1.854
19:55:04:413,30.562,0.048,0.284,0.486,3.091,102.295,-1.236
19:55:04:413,30.562,-0.039,0.175,0.441,3.070,102.088,-0.338
19:55:04:465,30.614,-0.112,0.323,0.386,2.962,101.123,1.859
19:55:04:466,30.615,-0.176,0.384,0.367,3.077,98.091,4.910
19:55:04:511,30.660,-0.248,0.333,0.182,3.527,94.587,6.929
19:55:04:57,30.719,-0.187,0.167,0.027,4.516,88.780,9.463
19:55:04:571,30.719,-0.119,0.025,-0.016,5.317,85.811,11.131
19:55:04:571,30.719,-0.053,-0.090,-0.127,6.369,82.907,14.096
19:55:04:594,30.743,-0.080,-0.147,-0.103,7.154,81.332,17.635
19:55:04:647,30.796,-0.120,-0.139,-0.108,7.716,80.676,20.168
19:55:04:647,30.796,-0.185,-0.130,-0.198,8.957,79.346,23.952
19:55:04:67,30.819,-0.196,-0.145,-0.340,10.148,78.416,26.342
19:55:04:695,30.844,-0.170,-0.190,-0.396,12.252,77.304,29.658
19:55:04:72,30.869,-0.161,-0.247,-0.443,14.281,76.958,32.576
19:55:04:747,30.895,-0.161,-0.266,-0.447,15.343,77.172,34.238
19:55:04:773,30.922,-0.188,-0.274,-0.450,15.551,77.724,35.277
19:55:04:829,30.978,-0.199,-0.250,-0.463,15.042,78.138,35.191
19:55:04:829,30.978,-0.214,-0.200,-0.485,14.952,79.049,35.380
19:55:04:851,31.000,-0.200,-0.186,-0.461,14.496,79.649,34.869
19:55:04:936,31.085,-0.168,-0.103,-0.454,13.163,80.601,33.174
19:55:04:937,31.085,-0.119,-0.059,-0.372,11.248,81.622,30.437
19:55:04:937,31.086,-0.100,-0.014,-0.305,9.836,82.286,28.084
19:55:04:959,31.108,-0.018,0.060,-0.152,7.796,83.056,23.937
19:55:04:985,31.134,0.042,0.171,-0.064,6.539,83.349,20.997
19:55:05:038,31.187,0.047,0.308,-0.036,4.831,83.416,16.683
19:55:05:039,31.188,0.038,0.407,-0.050,3.497,83.293,12.828
19:55:05:061,31.210,0.042,0.296,-0.055,2.904,83.696,10.723
19:55:05:087,31.236,0.004,0.000,-0.051,2.466,86.369,8.612
19:55:05:114,31.263,0.025,-0.068,0.065,2.370,89.929,7.959
19:55:05:2,31.349,0.029,-0.146,0.179,2.419,96.361,7.763
19:55:05:2,31.349,0.006,-0.171,0.230,2.551,100.404,7.822
19:55:05:2,31.349,-0.051,-0.186,0.273,2.930,105.070,7.689
19:55:05:22,31.369,-0.079,-0.186,0.232,3.522,107.516,6.869
19:55:05:246,31.395,0.013,-0.107,0.230,3.910,108.522,5.872
19:55:05:272,31.421,0.015,-0.122,0.219,4.374,109.601,3.887
19:55:05:3,31.449,0.029,-0.140,0.256,4.571,110.447,2.351
19:55:05:326,31.475,0.112,-0.139,0.351,4.679,111.658,-0.071
19:55:05:376,31.525,0.193,0.040,0.478,4.440,112.586,-4.256
19:55:05:402,31.551,0.150,0.154,0.551,4.068,112.053,-6.635
19:55:05:429,31.578,0.121,0.076,0.550,3.851,111.170,-7.968
19:55:05:482,31.631,0.194,0.250,0.589,3.524,111.116,-9.129
19:55:05:535,31.684,0.200,0.178,0.626,3.358,111.426,-8.542
19:55:05:565,31.714,0.183,0.121,0.576,2.884,111.474,-6.892
19:55:05:565,31.714,0.159,0.083,0.525,2.447,111.019,-5.262
19:55:05:586,31.735,0.061,0.194,0.467,1.714,109.203,-2.045
19:55:05:613,31.761,-0.002,0.246,0.389,1.330,107.050,0.514
19:55:05:645,31.794,-0.118,0.407,0.290,1.248,101.895,4.657
19:55:05:666,31.815,-0.185,0.335,-0.048,2.437,93.625,8.742
19:55:05:694,31.842,-0.044,0.188,-0.339,3.759,87.410,11.148
19:55:05:72,31.869,0.020,0.061,-0.214,5.950,80.930,14.541
19:55:05:745,31.894,0.047,-0.079,-0.365,7.250,79.058,17.241
19:55:05:829,31.978,-0.001,-0.149,-0.265,8.323,79.755,22.118
19:55:05:829,31.978,-0.113,-0.172,-0.267,8.706,81.956,27.364
19:55:05:83,31.979,-0.178,-0.175,-0.283,9.017,83.136,30.563
19:55:05:85,31.998,-0.196,-0.273,-0.359,10.307,83.862,34.511
19:55:05:875,32.024,-0.189,-0.316,-0.400,11.747,83.856,36.495
19:55:05:901,32.050,-0.173,-0.429,-0.406,14.101,83.932,38.695
19:55:05:986,32.135,-0.159,-0.484,-0.404,15.430,84.215,39.759
19:55:05:987,32.136,-0.168,-0.493,-0.399,16.457,85.090,40.862
19:55:05:989,32.138,-0.210,-0.379,-0.476,16.210,86.244,41.152
19:55:06:007,32.156,-0.245,-0.308,-0.515,15.417,87.072,40.683
19:55:06:034,32.183,-0.284,-0.183,-0.561,13.489,88.425,38.741
19:55:06:088,32.237,-0.310,-0.036,-0.546,11.884,89.470,36.531
19:55:06:089,32.238,-0.311,0.075,-0.484,9.223,91.313,31.914
19:55:06:112,32.261,-0.234,0.305,-0.350,6.501,93.555,25.989
19:55:06:137,32.286,-0.063,0.446,-0.186,4.896,95.116,21.587
19:55:06:164,32.313,-0.009,0.366,0.031,2.884,97.001,14.975
19:55:06:192,32.341,-0.072,0.281,0.079,1.761,97.998,10.972
19:55:06:218,32.367,-0.028,0.292,0.126,0.511,99.825,6.169
19:55:06:272,32.421,0.069,0.173,0.159,-0.088,102.465,3.317
19:55:06:272,32.421,0.106,0.107,0.196,-0.289,104.814,2.368
19:55:06:295,32.444,0.163,-0.061,0.258,-0.483,109.249,1.948
19:55:06:323,32.472,0.160,-0.142,0.234,-0.585,112.463,2.111
19:55:06:349,32.498,0.154,-0.177,0.273,-0.628,116.784,2.559
19:55:06:374,32.523,0.124,-0.155,0.263,-0.516,118.908,2.786
19:55:06:4,32.549,0.068,-0.156,0.227,-0.108,121.126,2.784
19:55:06:427,32.575,0.103,-0.131,0.179,0.489,122.852,2.206
19:55:06:453,32.602,0.141,-0.117,0.196,0.894,124.106,1.498
19:55:06:48,32.629,0.170,-0.121,0.231,1.382,126.120,0.006
19:55:06:506,32.655,0.225,-0.144,0.305,1.573,127.419,-1.252
19:55:06:532,32.681,0.284,-0.123,0.347,1.697,128.891,-3.383
19:55:06:558,32.707,0.353,0.074,0.439,1.610,129.193,-5.654
19:55:06:589,32.738,0.373,0.223,0.490,1.434,128.821,-7.067
19:55:06:589,32.738,0.341,0.306,0.543,1.116,127.928,-8.573
19:55:06:611,32.760,0.364,0.310,0.488,0.928,127.644,-8.885
19:55:06:667,32.816,0.395,0.220,0.395,0.674,127.356,-7.961
19:55:06:667,32.816,0.362,0.119,0.344,0.491,127.335,-6.383
19:55:06:718,32.867,0.261,0.053,0.318,0.250,127.280,-2.694
19:55:06:719,32.868,0.139,0.370,0.267,0.072,126.772,2.239
19:55:06:778,32.926,0.068,0.481,0.175,0.086,125.846,5.980
19:55:06:778,32.927,-0.006,0.509,0.118,0.594,123.247,11.937
19:55:06:798,32.947,-0.210,0.346,-0.185,1.508,120.315,15.932
19:55:06:877,33.026,-0.189,0.152,-0.261,3.353,116.949,21.333
19:55:06:877,33.026,-0.207,0.035,-0.337,5.395,114.818,26.587
19:55:07:04,33.189,-0.221,-0.075,-0.375,6.708,113.996,29.964
19:55:07:04,33.189,-0.255,-0.204,-0.339,8.573,113.368,34.716
19:55:07:041,33.190,-0.282,-0.258,-0.360,9.881,113.206,37.574
19:55:07:042,33.191,-0.301,-0.297,-0.393,12.079,112.985,41.243
19:55:07:068,33.217,-0.310,-0.443,-0.370,14.414,113.126,44.133
19:55:07:068,33.217,-0.300,-0.509,-0.353,15.793,113.428,45.687
19:55:07:069,33.218,-0.292,-0.600,-0.306,17.251,114.323,47.507
19:55:07:07,33.219,-0.291,-0.622,-0.311,17.737,115.114,48.265
19:55:07:084,33.233,-0.331,-0.557,-0.320,17.570,116.501,48.345
19:55:07:143,33.292,-0.402,-0.460,-0.362,16.838,117.551,47.494
19:55:07:144,33.293,-0.455,-0.372,-0.321,14.751,119.481,44.749
19:55:07:162,33.311,-0.504,-0.264,-0.306,11.847,122.057,40.433
19:55:07:246,33.395,-0.617,-0.107,-0.286,9.796,124.148,36.700
19:55:07:247,33.396,-0.732,0.425,-0.227,7.044,127.724,29.557
19:55:07:247,33.396,-0.320,1.107,-0.061,5.647,130.309,23.755
19:55:07:266,33.415,0.139,1.043,0.308,4.506,133.429,14.188
19:55:07:354,33.502,0.038,0.200,0.456,3.944,134.009,5.262
19:55:07:354,33.503,0.178,-0.057,0.356,3.632,134.016,0.630
19:55:07:355,33.504,0.109,0.022,-0.065,3.142,134.431,-2.897
19:55:07:372,33.521,0.106,0.139,-0.044,2.632,135.949,-3.109
19:55:07:398,33.547,0.077,0.131,0.029,1.752,140.298,-1.432
19:55:07:424,33.573,0.115,0.021,0.115,1.159,143.902,0.357
19:55:07:45,33.599,0.150,-0.094,0.204,0.408,150.327,3.206
19:55:07:477,33.626,0.110,-0.180,0.129,0.164,156.581,5.189
19:55:07:504,33.653,0.087,-0.201,0.076,0.344,159.832,5.816
19:55:07:529,33.678,-0.039,-0.217,-0.041,1.049,163.281,5.811
19:55:07:556,33.705,-0.019,-0.188,-0.011,1.700,165.228,5.171
19:55:07:582,33.731,0.093,-0.129,0.048,2.762,168.129,3.180
19:55:07:609,33.758,0.274,-0.120,0.103,3.713,170.984,0.227
19:55:07:634,33.783,0.385,-0.110,0.096,4.279,173.661,-2.041
19:55:07:662,33.811,0.500,0.011,0.087,4.846,174.693,-5.478
19:55:07:687,33.836,0.586,0.211,0.171,4.893,175.483,-7.622
19:55:07:715,33.863,0.585,0.128,0.175,4.473,174.174,-10.245
19:55:07:739,33.888,0.582,0.101,0.116,3.749,173.800,-11.616
19:55:07:771,33.920,0.592,0.162,0.017,3.252,173.431,-11.641
19:55:07:793,33.942,0.634,0.136,-0.019,2.505,174.486,-10.392
19:55:07:821,33.970,0.576,0.116,-0.022,2.018,174.788,-8.839
19:55:07:846,33.995,0.492,0.100,-0.011,1.309,175.627,-5.607
19:55:07:87,34.019,0.412,0.243,0.017,0.890,175.317,-2.890
19:55:07:896,34.045,0.293,0.400,0.060,0.510,174.704,1.836
19:55:07:927,34.076,0.182,0.490,0.128,0.752,171.723,7.074
19:55:07:949,34.098,-0.331,0.412,0.041,1.663,168.101,10.673
19:55:07:977,34.126,-0.183,0.221,0.019,3.672,162.657,15.305
19:55:08:001,34.150,-0.338,0.084,-0.077,5.317,160.181,18.382
19:55:08:027,34.176,-0.321,-0.042,-0.087,7.468,158.089,23.232
19:55:08:24,34.389,-0.359,-0.141,-0.026,9.066,157.645,28.323
19:55:08:276,34.425,-0.386,-0.180,0.000,10.003,157.720,31.690
19:55:08:277,34.425,-0.452,-0.249,0.037,11.665,157.804,36.360
19:55:08:278,34.426,-0.497,-0.328,0.020,13.126,157.752,39.040
19:55:08:278,34.427,-0.493,-0.419,0.017,15.600,157.763,42.288
19:55:08:374,34.523,-0.481,-0.500,0.006,17.135,157.944,43.851
19:55:08:374,34.523,-0.465,-0.529,0.006,18.788,158.508,45.501
19:55:08:405,34.554,-0.486,-0.506,-0.002,18.960,159.288,45.901
19:55:08:405,34.554,-0.526,-0.418,0.013,18.354,159.802,45.405
19:55:08:406,34.555,-0.556,-0.338,0.044,16.546,160.648,43.467
19:55:08:407,34.556,-0.593,-0.204,0.047,14.836,161.388,41.426
19:55:08:457,34.606,-0.565,-0.064,0.045,11.880,162.734,37.294
19:55:08:457,34.606,-0.541,0.249,0.016,9.114,163.937,31.905
19:55:08:459,34.607,-0.455,0.406,0.012,7.570,164.468,27.723
19:55:08:459,34.608,-0.210,0.430,-0.014,5.595,165.005,21.108
19:55:08:478,34.627,-0.068,0.357,-0.003,4.501,165.410,16.854
19:55:08:479,34.627,-0.023,0.358,0.015,3.301,166.521,11.280
19:55:08:501,34.650,0.012,0.307,0.059,2.841,168.870,7.272
19:55:08:526,34.675,0.106,0.181,0.086,2.938,171.234,5.549
19:55:08:564,34.713,0.114,0.007,0.100,3.463,175.520,4.109
19:55:08:58,34.729,0.169,-0.059,0.076,3.912,178.758,3.694
19:55:08:605,34.754,0.224,-0.153,0.066,4.579,-176.420,3.469
19:55:08:632,34.780,0.228,-0.182,0.084,4.969,-173.474,3.381
19:55:08:659,34.808,0.228,-0.190,0.136,5.464,-168.969,3.099
19:55:08:688,34.837,0.248,-0.163,0.093,5.864,-165.646,2.411
19:55:08:71,34.859,0.272,-0.152,0.062,6.064,-164.119,1.701
19:55:08:738,34.887,0.279,-0.176,0.014,6.193,-161.941,0.382
19:55:08:764,34.913,0.330,-0.189,-0.056,6.157,-160.875,-0.560
19:55:08:793,34.942,0.366,-0.198,-0.116,5.897,-159.663,-2.040
19:55:08:793,34.942,0.416,-0.098,-0.168,5.386,-159.138,-3.525
19:55:08:816,34.965,0.455,0.002,-0.201,4.919,-159.212,-4.481
19:55:08:844,34.993,0.497,0.112,-0.239,4.078,-159.851,-5.738
19:55:08:873,35.022,0.506,0.155,-0.240,3.471,-160.416,-6.262
19:55:08:926,35.075,0.488,0.321,-0.226,2.592,-161.058,-6.207
19:55:08:927,35.076,0.449,0.398,-0.242,2.101,-161.255,-5.479
19:55:09:004,35.153,0.412,0.284,-0.231,1.607,-161.341,-3.321
19:55:09:005,35.154,0.350,0.133,-0.164,1.355,-161.577,-0.001
19:55:09:006,35.155,0.294,0.309,-0.097,1.264,-162.036,2.807
19:55:09:025,35.174,0.150,0.502,0.024,1.372,-163.688,7.626
19:55:09:081,35.230,0.029,0.524,0.114,1.762,-165.579,11.068
19:55:09:082,35.231,-0.265,0.398,0.198,3.089,-169.564,16.423
19:55:09:104,35.253,-0.285,0.200,0.181,5.151,-173.364,21.503
19:55:09:219,35.368,-0.382,0.058,0.156,6.780,-175.692,24.865
19:55:09:219,35.368,-0.397,-0.141,0.123,9.312,-178.573,29.674
19:55:09:22,35.369,-0.393,-0.244,0.135,10.986,179.922,32.631
19:55:09:22,35.369,-0.416,-0.290,0.128,13.464,178.232,36.491
19:55:09:263,35.412,-0.424,-0.370,0.154,15.989,177.069,39.501
19:55:09:292,35.441,-0.427,-0.425,0.164,17.660,176.614,41.042
19:55:09:316,35.465,-0.439,-0.477,0.172,19.891,176.524,42.734
19:55:09:369,35.518,-0.451,-0.468,0.240,21.368,179.963,45.104
19:55:09:393,35.542,-0.532,-0.313,0.320,20.144,-177.711,45.155
19:55:09:419,35.568,-0.525,-0.257,0.352,18.218,-175.595,44.037
19:55:09:445,35.594,-0.516,-0.220,0.355,16.572,-174.273,42.627
19:55:09:501,35.650,-0.572,-0.059,0.376,13.625,-172.296,39.629
19:55:09:502,35.651,-0.552,0.101,0.348,11.505,-171.000,37.015
19:55:09:554,35.703,-0.474,0.285,0.305,8.450,-169.115,32.110
19:55:09:609,35.758,-0.277,0.409,0.195,5.912,-167.457,26.150
19:55:09:609,35.758,-0.148,0.353,0.060,4.595,-166.571,21.928
19:55:09:61,35.759,-0.018,0.200,-0.035,3.037,-165.419,15.941
19:55:09:631,35.779,-0.003,0.197,-0.052,2.213,-164.542,12.553
19:55:09:656,35.805,0.020,0.269,-0.042,1.181,-162.080,8.839
19:55:09:682,35.831,0.135,0.144,-0.044,0.728,-159.439,7.367
19:55:09:708,35.857,0.186,0.068,-0.073,0.457,-154.381,6.534
19:55:09:737,35.886,0.198,-0.068,-0.090,0.434,-149.039,6.832
19:55:09:791,35.940,0.237,-0.105,-0.092,0.465,-145.764,7.356
19:55:09:791,35.940,0.176,-0.151,-0.072,0.680,-141.932,8.391
19:55:09:816,35.964,0.154,-0.156,-0.056,0.890,-140.115,8.955
19:55:09:839,35.988,0.081,-0.164,-0.010,1.382,-138.348,9.522
19:55:09:866,36.015,0.058,-0.100,0.021,1.917,-136.722,9.608
19:55:09:892,36.041,0.074,-0.087,0.005,2.184,-135.279,9.355
19:55:09:946,36.095,0.137,-0.172,-0.051,2.405,-132.509,8.503
19:55:09:947,36.096,0.186,-0.192,-0.107,2.410,-130.478,7.684
19:55:09:97,36.119,0.178,-0.113,-0.155,2.276,-127.852,6.129
19:55:09:996,36.145,0.228,0.140,-0.228,2.039,-126.398,4.087
19:55:10:023,36.172,0.249,0.216,-0.268,1.869,-126.159,2.492
19:55:10:049,36.198,0.289,0.260,-0.273,1.570,-127.558,0.130
19:55:10:075,36.224,0.255,0.271,-0.320,1.338,-127.583,-1.095
19:55:10:105,36.254,0.210,0.277,-0.376,0.861,-128.423,-1.681
19:55:10:128,36.276,0.199,0.179,-0.409,0.428,-127.925,-1.184
19:55:10:155,36.304,0.192,0.009,-0.377,-0.324,-127.727,0.823
19:55:10:18,36.329,0.178,0.275,-0.275,-1.101,-128.983,4.131
19:55:10:207,36.356,0.136,0.410,-0.191,-1.412,-130.930,6.883
19:55:10:233,36.382,0.101,0.525,-0.048,-1.025,-135.923,11.473
19:55:10:259,36.408,-0.187,0.339,0.251,0.341,-140.998,14.554
19:55:10:314,36.462,-0.248,0.236,0.303,3.669,-149.223,18.555
19:55:10:342,36.491,-0.343,0.016,0.178,7.073,-154.836,21.865
19:55:10:342,36.491,-0.458,-0.110,0.168,8.778,-156.125,24.399
19:55:10:366,36.515,-0.459,-0.212,0.205,9.960,-154.963,29.009
19:55:10:391,36.540,-0.271,-0.205,0.213,9.927,-152.989,32.323
19:55:10:557,36.706,-0.258,-0.251,0.311,9.723,-150.267,36.954
19:55:10:558,36.707,-0.225,-0.290,0.345,9.892,-148.880,39.530
19:55:10:559,36.708,-0.236,-0.356,0.342,11.148,-147.586,42.500
19:55:10:559,36.708,-0.273,-0.463,0.326,12.940,-146.583,44.652
19:55:10:743,36.892,-0.291,-0.487,0.346,14.063,-145.914,45.708
19:55:10:744,36.893,-0.370,-0.446,0.410,15.163,-144.901,46.584
19:55:10:744,36.893,-0.361,-0.374,0.469,15.226,-144.132,46.533
19:55:10:745,36.894,-0.317,-0.324,0.484,14.013,-142.626,45.338
19:55:10:77,36.919,-0.313,-0.248,0.527,11.635,-140.623,42.845
19:55:10:771,36.920,-0.294,-0.136,0.578,9.720,-139.047,40.523
19:55:10:771,36.920,-0.270,0.078,0.639,6.811,-136.388,36.093
19:55:10:772,36.921,-0.208,0.377,0.717,4.991,-134.379,32.495
19:55:10:79,36.939,-0.002,0.504,0.555,2.534,-131.062,26.272
19:55:10:791,36.940,0.064,0.320,0.197,0.738,-127.919,19.794
19:55:10:792,36.941,0.075,0.297,0.002,-0.228,-126.186,15.792
19:55:10:811,36.960,-0.008,0.323,0.036,-1.539,-124.392,11.057
19:55:10:837,36.986,-0.012,0.215,0.030,-2.324,-123.437,9.092
19:55:10:863,37.012,-0.012,0.064,-0.035,-3.225,-121.409,7.327
19:55:10:889,37.038,0.014,-0.043,-0.126,-3.620,-119.188,6.765
19:55:10:915,37.064,0.005,-0.192,-0.087,-3.775,-115.048,6.403
19:55:10:944,37.093,0.034,-0.224,-0.125,-3.580,-110.191,6.203
19:55:10:995,37.144,0.058,-0.109,-0.150,-2.622,-102.122,5.529
19:55:11:023,37.172,0.093,-0.112,-0.182,-2.120,-98.846,4.994
19:55:11:024,37.173,0.076,-0.134,-0.217,-1.359,-94.205,3.825
19:55:11:047,37.196,0.041,-0.135,-0.270,-0.762,-90.178,2.289
19:55:11:078,37.227,-0.017,-0.149,-0.345,-0.538,-88.011,1.095
19:55:11:099,37.248,-0.090,-0.132,-0.421,-0.503,-85.789,-0.864
19:55:11:125,37.274,-0.171,-0.038,-0.488,-0.673,-85.187,-2.207
19:55:11:18,37.329,-0.190,0.104,-0.537,-1.223,-85.336,-4.065
19:55:11:181,37.330,-0.148,0.126,-0.504,-1.756,-86.036,-5.051
19:55:11:233,37.382,-0.124,0.196,-0.463,-2.453,-87.012,-5.744
19:55:11:234,37.383,-0.241,0.312,-0.447,-2.803,-86.970,-5.055
19:55:11:259,37.408,-0.262,0.372,-0.450,-2.909,-86.400,-3.754
19:55:11:283,37.432,-0.203,0.197,-0.396,-3.031,-85.527,-0.766
19:55:11:317,37.466,-0.141,0.208,-0.277,-3.101,-85.118,1.827
19:55:11:336,37.485,-0.127,0.328,-0.170,-3.209,-84.779,6.594
19:55:11:363,37.511,-0.053,0.395,0.024,-3.118,-85.474,12.066
19:55:11:388,37.537,-0.017,0.395,0.127,-2.743,-86.609,15.765
19:55:11:415,37.564,-0.014,0.250,0.250,-1.546,-89.028,20.936
19:55:11:525,37.674,0.000,0.094,0.285,-0.361,-90.777,23.969
19:55:11:526,37.675,-0.038,-0.069,0.341,1.617,-93.004,28.000
19:55:11:526,37.675,-0.049,-0.163,0.346,3.444,-94.560,31.673
19:55:11:551,37.700,-0.042,-0.176,0.365,4.600,-95.325,34.024
19:55:11:551,37.700,0.008,-0.232,0.415,6.413,-96.146,37.391
19:55:11:573,37.722,0.011,-0.256,0.436,7.687,-96.461,39.492
19:55:11:628,37.777,0.019,-0.333,0.460,9.727,-96.651,42.277
19:55:11:629,37.778,0.005,-0.377,0.459,11.030,-96.547,43.859
19:55:11:682,37.831,0.020,-0.444,0.452,13.325,-95.082,47.204
19:55:11:703,37.852,0.035,-0.420,0.477,13.466,-94.444,47.645
19:55:11:788,37.937,0.058,-0.372,0.510,13.258,-93.522,47.321
19:55:11:788,37.937,0.077,-0.361,0.496,12.700,-92.811,46.403
19:55:11:789,37.938,0.113,-0.282,0.567,11.141,-91.342,44.037
19:55:11:837,37.986,0.196,-0.078,0.629,8.901,-89.216,40.516
19:55:11:837,37.986,0.242,0.044,0.631,7.210,-87.363,37.526
19:55:11:86,38.009,0.333,0.373,0.571,4.659,-83.817,32.069
19:55:11:888,38.037,0.244,0.380,0.328,3.159,-81.009,27.905
19:55:11:915,38.063,0.146,0.314,0.070,1.521,-76.609,21.524
19:55:11:94,38.089,0.025,0.210,-0.075,0.577,-72.863,15.912
19:55:11:965,38.114,-0.008,0.187,-0.091,0.176,-71.245,13.143
19:55:11:994,38.143,0.002,0.180,-0.114,-0.312,-69.740,10.139
19:55:12:018,38.167,-0.022,0.140,-0.113,-0.621,-68.724,8.811
19:55:12:044,38.193,-0.067,0.070,-0.141,-1.141,-66.775,7.565
19:55:12:072,38.221,-0.126,-0.015,-0.152,-1.500,-64.919,7.021
19:55:12:098,38.246,-0.176,-0.052,-0.147,-2.049,-61.962,6.360
19:55:12:123,38.272,-0.227,-0.109,-0.147,-2.605,-59.169,5.653
19:55:12:178,38.327,-0.265,-0.129,-0.172,-2.933,-57.598,5.071
19:55:12:179,38.328,-0.297,-0.148,-0.177,-3.271,-55.903,4.022
19:55:12:203,38.352,-0.330,-0.114,-0.178,-3.399,-55.194,3.227
19:55:12:229,38.378,-0.370,-0.131,-0.175,-3.461,-54.641,1.947
19:55:12:285,38.434,-0.393,-0.171,-0.185,-3.412,-54.652,0.708
19:55:12:285,38.434,-0.395,-0.110,-0.210,-3.366,-54.651,0.016
19:55:12:307,38.456,-0.355,0.029,-0.249,-3.255,-55.004,-0.677
19:55:12:333,38.482,-0.321,0.049,-0.264,-3.115,-55.209,-0.837
19:55:12:39,38.539,-0.230,0.126,-0.283,-2.873,-55.528,-0.477
19:55:12:391,38.540,-0.237,0.288,-0.265,-2.757,-55.360,0.227
19:55:12:411,38.560,-0.205,0.325,-0.250,-2.749,-55.169,1.919
19:55:12:44,38.588,-0.165,0.326,-0.239,-2.973,-55.563,4.201
19:55:12:467,38.616,-0.067,0.209,-0.205,-3.170,-56.109,6.036
19:55:12:491,38.640,-0.016,0.264,-0.127,-3.416,-57.453,9.146
19:55:12:518,38.667,0.039,0.255,-0.059,-3.483,-58.679,11.413
19:55:12:544,38.693,0.074,0.223,-0.018,-3.323,-61.453,14.911
19:55:12:601,38.750,0.124,0.093,0.072,-2.735,-64.814,18.416
19:55:12:601,38.750,0.143,0.047,0.110,-2.107,-67.346,20.752
19:55:12:622,38.771,0.172,-0.002,0.228,-0.902,-71.051,24.298
19:55:12:705,38.854,0.163,-0.017,0.251,0.029,-73.571,26.677
19:55:12:706,38.855,0.186,-0.050,0.336,1.630,-76.609,30.221
19:55:12:729,38.878,0.223,-0.067,0.397,2.793,-78.273,32.539
19:55:12:73,38.879,0.244,-0.120,0.461,4.701,-80.262,35.886
19:55:12:782,38.931,0.248,-0.191,0.522,6.604,-81.533,39.010
19:55:12:783,38.931,0.245,-0.262,0.496,7.590,-81.860,40.963
19:55:12:806,38.955,0.210,-0.341,0.492,8.388,-81.935,43.649
19:55:12:831,38.980,0.187,-0.328,0.481,8.354,-81.438,45.256
19:55:12:86,39.009,0.184,-0.317,0.486,7.677,-81.109,47.216
19:55:12:888,39.037,0.190,-0.332,0.541,7.064,-80.723,48.351
19:55:12:91,39.059,0.183,-0.344,0.557,6.727,-81.150,48.518
19:55:12:968,39.117,0.226,-0.313,0.614,5.928,-80.920,47.729
19:55:12:969,39.118,0.243,-0.238,0.623,4.958,-81.218,46.414
19:55:12:989,39.138,0.258,-0.133,0.634,2.901,-80.093,43.158
19:55:13:078,39.227,0.242,0.033,0.553,0.434,-78.733,38.337
19:55:13:078,39.227,0.095,0.015,0.370,-1.228,-77.407,34.447
19:55:13:078,39.227,-0.130,0.031,0.160,-3.331,-75.436,28.199
19:55:13:079,39.228,-0.147,0.011,0.124,-4.274,-74.541,24.169
19:55:13:154,39.303,-0.064,0.084,0.138,-5.277,-73.480,18.854
19:55:13:155,39.304,0.008,0.253,0.106,-5.703,-72.410,15.919
19:55:13:176,39.325,0.009,0.299,0.022,-5.910,-69.585,12.424
19:55:13:176,39.325,0.011,0.267,-0.030,-5.689,-65.471,9.917
19:55:13:227,39.376,-0.034,0.196,-0.110,-5.452,-62.195,8.633
19:55:13:255,39.404,-0.082,0.104,-0.099,-5.184,-57.160,7.067
19:55:13:285,39.434,-0.158,0.052,-0.202,-5.204,-53.899,6.094
19:55:13:285,39.434,-0.175,-0.012,-0.215,-5.347,-50.026,4.567
19:55:13:306,39.455,-0.210,-0.065,-0.224,-5.366,-47.633,2.875
19:55:13:33,39.479,-0.237,-0.111,-0.201,-5.268,-47.221,1.741
19:55:13:357,39.506,-0.284,-0.094,-0.164,-4.975,-46.328,0.129
19:55:13:384,39.533,-0.311,-0.109,-0.161,-4.688,-46.206,-0.896
19:55:13:438,39.587,-0.334,-0.142,-0.220,-4.165,-45.457,-2.421
19:55:13:439,39.588,-0.395,-0.054,-0.295,-3.618,-45.501,-4.073
19:55:13:461,39.610,-0.416,-0.005,-0.342,-3.282,-45.831,-5.315
19:55:13:488,39.637,-0.426,0.030,-0.409,-2.898,-47.664,-7.233
19:55:13:514,39.663,-0.398,0.134,-0.450,-2.704,-48.831,-8.326
19:55:13:541,39.689,-0.422,0.181,-0.517,-2.480,-51.129,-9.345
19:55:13:593,39.742,-0.402,0.186,-0.570,-2.383,-52.339,-9.525
19:55:13:65,39.799,-0.350,0.124,-0.582,-2.335,-54.516,-8.834
19:55:13:65,39.799,-0.239,0.098,-0.496,-2.358,-57.071,-6.686
19:55:13:763,39.912,-0.169,0.200,-0.444,-2.371,-59.123,-4.354
19:55:13:764,39.913,0.014,0.458,-0.330,-2.305,-62.666,0.371
19:55:13:765,39.914,0.161,0.544,-0.161,-2.112,-65.328,4.162
19:55:13:766,39.915,0.225,0.500,0.003,-1.440,-69.644,10.405
19:55:13:779,39.928,0.248,0.371,0.191,-0.281,-74.019,16.865
19:55:13:78,39.929,0.252,0.254,0.260,0.713,-76.786,21.104
19:55:13:807,39.956,0.291,0.116,0.380,2.527,-80.599,27.132
19:55:13:83,39.979,0.290,0.004,0.425,4.012,-82.885,30.802
19:55:13:886,40.035,0.269,-0.120,0.502,6.864,-86.037,35.835
19:55:13:887,40.036,0.248,-0.181,0.520,9.137,-87.887,38.869
19:55:13:911,40.059,0.228,-0.268,0.568,12.987,-90.224,42.874
19:55:13:934,40.083,0.185,-0.396,0.559,16.994,-91.927,46.211
19:55:13:961,40.110,0.185,-0.458,0.530,19.453,-92.650,48.058
19:55:13:987,40.136,0.155,-0.521,0.494,22.454,-93.247,50.269
19:55:14:015,40.164,0.191,-0.537,0.542,23.893,-93.392,51.369
19:55:14:039,40.188,0.211,-0.529,0.568,24.917,-93.504,52.284
19:55:14:066,40.215,0.222,-0.515,0.561,24.403,-93.230,52.121
19:55:14:092,40.240,0.198,-0.493,0.546,23.062,-93.138,51.433
19:55:14:118,40.267,0.214,-0.365,0.579,18.661,-92.765,48.276
19:55:14:145,40.294,0.183,-0.301,0.559,16.125,-92.323,46.387
19:55:14:171,40.320,0.220,-0.086,0.649,12.132,-91.621,42.598
19:55:14:197,40.345,0.221,0.019,0.635,9.505,-91.112,39.456
19:55:14:224,40.373,0.125,0.085,0.466,5.667,-90.031,34.162
19:55:14:249,40.398,-0.041,0.190,0.276,2.261,-88.784,28.544
19:55:14:276,40.425,-0.068,0.253,0.246,0.353,-88.127,24.932
19:55:14:389,40.538,-0.092,0.312,0.178,-2.068,-87.499,19.926
19:55:14:39,40.539,-0.278,0.338,0.124,-3.534,-87.146,16.865
19:55:14:391,40.540,-0.442,0.219,0.010,-6.167,-85.577,12.500
19:55:14:392,40.541,-0.487,0.219,-0.143,-9.166,-80.957,7.948
19:55:14:436,40.585,-0.412,0.365,-0.361,-10.830,-76.052,5.159
19:55:14:437,40.586,-0.324,0.055,-0.448,-11.114,-70.373,2.906
19:55:14:459,40.608,-0.249,0.005,-0.382,-10.365,-68.645,2.085
19:55:14:514,40.663,-0.272,0.019,-0.385,-8.591,-68.044,1.644
19:55:14:543,40.692,-0.256,-0.098,-0.294,-6.439,-68.793,1.269
19:55:14:543,40.692,-0.226,-0.078,-0.255,-5.295,-69.615,0.394
19:55:14:564,40.713,-0.158,-0.189,-0.192,-3.834,-70.285,-0.849
19:55:14:619,40.767,-0.161,-0.103,-0.243,-3.320,-69.909,-1.517
19:55:14:675,40.824,-0.166,0.061,-0.412,-3.013,-68.824,-2.588
19:55:14:676,40.825,-0.182,0.123,-0.531,-2.960,-68.331,-3.444
19:55:14:676,40.825,-0.129,0.230,-0.593,-2.945,-68.530,-4.878
19:55:14:786,40.935,-0.139,0.159,-0.571,-2.906,-69.687,-5.992
19:55:14:787,40.936,-0.149,0.144,-0.559,-2.869,-70.681,-6.240
19:55:14:787,40.936,-0.189,-0.050,-0.462,-2.892,-72.302,-5.471
19:55:14:889,41.038,-0.146,-0.006,-0.341,-3.022,-73.200,-4.057
19:55:14:889,41.038,-0.119,0.155,-0.337,-3.468,-74.546,-0.639
19:55:14:89,41.039,-0.019,0.373,-0.294,-4.101,-76.757,4.034
19:55:14:891,41.040,0.043,0.437,-0.177,-4.388,-79.125,7.524
19:55:14:936,41.085,0.087,0.366,0.029,-4.016,-83.933,12.830
19:55:14:936,41.085,0.068,0.258,0.211,-3.113,-87.703,16.118
19:55:14:962,41.111,0.016,0.065,0.341,-1.191,-93.073,20.748
19:55:14:962,41.111,-0.024,-0.019,0.356,0.138,-95.742,23.694
19:55:14:985,41.134,-0.028,-0.063,0.372,1.985,-98.292,28.003
19:55:15:011,41.160,0.007,-0.110,0.427,3.634,-99.451,32.243
19:55:15:039,41.188,0.043,-0.138,0.454,4.693,-99.766,34.993
19:55:15:064,41.213,0.058,-0.222,0.499,6.443,-99.734,38.876
19:55:15:231,41.380,0.073,-0.320,0.498,7.679,-99.436,41.248
19:55:15:232,41.380,0.087,-0.403,0.488,9.469,-98.597,44.412
19:55:15:232,41.381,0.099,-0.428,0.530,10.814,-97.430,47.056
19:55:15:233,41.382,0.119,-0.418,0.588,11.317,-96.379,48.417
19:55:15:253,41.402,0.144,-0.416,0.586,11.351,-94.944,49.514
19:55:15:254,41.403,0.145,-0.455,0.543,10.701,-93.701,49.530
19:55:15:336,41.485,0.164,-0.286,0.581,5.120,-89.463,45.960
19:55:15:337,41.486,0.115,-0.166,0.577,2.689,-87.881,43.387
19:55:15:338,41.487,-0.028,0.074,0.503,-0.637,-85.452,38.145
19:55:15:339,41.488,-0.098,0.162,0.428,-2.335,-83.832,33.993
19:55:15:52,41.669,-0.095,0.257,0.331,-4.183,-81.313,27.369
19:55:15:521,41.670,-0.050,0.383,0.247,-4.977,-79.398,22.988
19:55:15:522,41.671,0.005,0.406,0.215,-5.353,-76.120,17.045
19:55:15:522,41.671,-0.075,0.304,0.040,-5.368,-71.235,12.444
19:55:15:618,41.767,-0.132,0.168,-0.033,-5.345,-66.494,10.236
19:55:15:619,41.768,-0.187,0.001,-0.119,-5.381,-58.120,8.350
19:55:15:659,41.808,-0.098,-0.048,-0.153,-5.559,-52.527,8.101
19:55:15:66,41.809,-0.107,-0.047,-0.158,-5.727,-45.547,8.666
19:55:15:661,41.810,-0.123,-0.071,-0.170,-5.692,-40.689,9.547
19:55:15:661,41.810,-0.095,-0.070,-0.130,-5.385,-38.597,10.044
19:55:15:671,41.820,-0.010,-0.160,-0.057,-4.549,-36.907,9.974
19:55:15:672,41.821,-0.018,-0.241,-0.035,-3.846,-36.014,9.313
19:55:15:802,41.951,-0.042,-0.256,-0.049,-2.768,-34.913,7.356
19:55:15:803,41.952,-0.176,-0.069,-0.133,-2.222,-34.233,5.363
19:55:15:86,42.009,-0.214,0.125,-0.230,-1.588,-33.487,1.706
19:55:15:861,42.010,-0.309,0.193,-0.341,-1.138,-33.118,-2.237
19:55:15:862,42.011,-0.361,0.144,-0.381,-0.959,-32.951,-4.691
19:55:15:863,42.012,-0.448,0.142,-0.394,-0.954,-32.711,-7.571
19:55:15:968,42.117,-0.548,0.113,-0.361,-1.189,-32.543,-8.713
19:55:15:968,42.117,-0.551,0.017,-0.326,-2.008,-32.458,-9.030
19:55:15:971,42.120,-0.485,-0.118,-0.261,-3.227,-32.674,-7.677
19:55:15:972,42.121,-0.512,0.028,-0.243,-4.177,-33.053,-5.920
19:55:16:044,42.193,-0.456,0.301,-0.188,-5.741,-34.505,-2.181
19:55:16:045,42.194,-0.369,0.458,-0.149,-6.743,-36.392,0.898
19:55:16:046,42.195,-0.250,0.465,-0.028,-7.791,-41.127,6.408
19:55:16:047,42.196,-0.014,0.346,0.147,-7.492,-48.203,12.473
19:55:16:202,42.351,0.050,0.245,0.195,-6.251,-53.774,16.511
19:55:16:202,42.351,0.139,0.121,0.531,-3.685,-60.620,22.139
19:55:16:204,42.353,0.095,0.007,0.572,-2.284,-62.154,25.654
19:55:16:205,42.354,0.112,-0.101,0.580,-1.513,-61.456,30.881
19:55:16:227,42.376,0.196,-0.159,0.475,-1.590,-60.054,34.139
19:55:16:228,42.377,0.244,-0.283,0.311,-1.514,-58.274,38.259
19:55:16:229,42.378,0.243,-0.385,0.290,-0.555,-57.116,41.471
19:55:16:23,42.379,0.277,-0.505,0.344,0.409,-56.461,43.131
19:55:16:244,42.393,0.252,-0.514,0.335,1.598,-55.486,44.853
19:55:16:271,42.420,0.294,-0.456,0.370,2.107,-54.701,45.453
19:55:16:386,42.535,0.319,-0.398,0.386,2.123,-53.952,45.315
19:55:16:386,42.535,0.356,-0.324,0.358,1.044,-52.743,43.783
19:55:16:387,42.536,0.349,-0.300,0.339,-0.129,-51.805,41.992
19:55:16:388,42.537,0.420,-0.050,0.396,-2.120,-49.805,38.206
19:55:16:404,42.553,0.492,0.232,0.454,-3.300,-48.219,34.893
19:55:16:43,42.579,0.446,0.593,0.381,-4.759,-45.238,28.776
19:55:16:456,42.605,0.161,0.573,0.181,-5.579,-42.658,24.097
19:55:16:538,42.687,-0.110,0.332,0.003,-6.358,-37.721,16.909
19:55:16:539,42.688,-0.215,-0.070,0.038,-6.341,-32.888,10.914
19:55:16:562,42.711,-0.257,-0.026,0.034,-6.260,-29.832,8.188
19:55:16:588,42.737,-0.159,0.079,0.006,-6.282,-26.422,6.252
19:55:16:589,42.738,-0.129,0.116,0.015,-6.310,-24.445,6.015
19:55:16:64,42.789,-0.119,0.091,0.017,-6.372,-21.912,6.610
19:55:16:641,42.790,-0.079,-0.041,-0.023,-6.213,-19.101,7.534
19:55:16:722,42.871,-0.042,-0.121,-0.045,-5.878,-17.273,7.948
19:55:16:723,42.872,-0.079,-0.163,-0.075,-5.081,-14.385,7.977
19:55:16:724,42.873,-0.036,-0.215,-0.079,-4.387,-12.372,7.618
19:55:16:744,42.893,-0.085,-0.186,-0.091,-3.299,-9.517,6.522
19:55:16:77,42.919,-0.132,-0.135,-0.110,-2.313,-6.748,4.956
19:55:16:797,42.946,-0.152,-0.121,-0.113,-1.817,-4.973,3.711
19:55:16:91,43.059,-0.245,-0.110,-0.112,-1.350,-2.551,1.615
19:55:16:91,43.059,-0.307,-0.089,-0.095,-1.201,-1.209,0.087
19:55:16:912,43.061,-0.433,0.053,-0.050,-1.184,0.172,-2.384
19:55:16:912,43.061,-0.511,0.175,-0.015,-1.306,0.510,-4.095
19:55:16:926,43.075,-0.581,0.171,-0.005,-1.720,0.312,-6.568
19:55:17:013,43.162,-0.650,0.260,0.093,-2.438,-0.160,-8.448
19:55:17:014,43.163,-0.655,0.193,0.225,-3.078,-0.416,-9.119
19:55:17:061,43.209,-0.584,-0.022,0.274,-5.090,-0.772,-8.024
19:55:17:062,43.210,-0.550,0.159,0.160,-6.175,-1.580,-5.421
19:55:17:145,43.294,-0.428,0.343,0.070,-6.643,-2.886,-3.015
19:55:17:145,43.294,-0.304,0.348,0.054,-6.639,-5.943,1.277
19:55:17:145,43.294,-0.118,0.253,0.065,-5.595,-10.125,5.891
19:55:17:164,43.313,0.044,0.097,0.128,-4.399,-13.244,8.893
19:55:17:248,43.397,0.079,-0.017,0.152,-2.501,-17.201,13.097
19:55:17:249,43.398,0.104,-0.067,0.084,-1.407,-18.758,15.839
19:55:17:25,43.399,0.206,-0.117,0.044,-0.105,-20.182,19.982
19:55:17:356,43.505,0.244,-0.117,-0.003,0.993,-20.926,23.949
19:55:17:357,43.506,0.306,-0.125,-0.035,1.787,-21.268,26.423
19:55:17:358,43.507,0.372,-0.188,-0.031,3.237,-21.641,29.712
19:55:17:358,43.507,0.384,-0.267,-0.038,4.303,-21.795,31.556
19:55:17:373,43.522,0.384,-0.327,-0.037,5.854,-21.716,33.773
19:55:17:399,43.548,0.396,-0.342,-0.041,7.037,-21.392,35.373
19:55:17:425,43.574,0.437,-0.309,-0.037,7.544,-21.018,36.028
19:55:17:514,43.663,0.518,-0.209,-0.038,7.829,-20.571,36.251
19:55:17:514,43.663,0.558,-0.167,-0.063,7.586,-20.015,35.880
19:55:17:515,43.664,0.559,-0.106,-0.076,6.479,-18.729,34.589
19:55:17:516,43.665,0.521,-0.021,-0.085,4.427,-16.737,32.204
19:55:17:589,43.737,0.492,0.100,-0.071,2.830,-15.313,29.927
19:55:17:589,43.738,0.293,0.191,0.005,0.463,-13.324,25.549
19:55:17:59,43.739,0.129,0.185,0.108,-0.922,-12.258,22.253
19:55:17:609,43.758,-0.028,0.081,0.180,-2.665,-11.315,17.423
19:55:17:635,43.784,0.035,0.111,0.229,-3.717,-11.122,14.584
19:55:17:803,43.952,0.038,0.241,0.258,-5.148,-10.940,11.071
19:55:17:804,43.953,0.017,0.217,0.240,-6.228,-9.623,8.377
19:55:17:804,43.953,-0.030,0.069,0.210,-6.516,-7.557,6.971
19:55:17:805,43.954,-0.052,-0.050,0.228,-6.451,-3.092,5.184
19:55:17:908,44.057,-0.114,-0.103,0.148,-6.200,0.446,4.153
19:55:17:908,44.057,-0.164,-0.081,0.085,-5.535,6.034,3.006
19:55:17:909,44.058,-0.132,-0.036,0.025,-4.568,10.807,2.018
19:55:17:932,44.081,-0.310,-0.066,0.047,-2.783,16.752,-0.398
19:55:17:932,44.081,-0.330,-0.110,0.057,-2.190,18.206,-1.676
19:55:17:933,44.082,-0.355,-0.176,0.076,-1.668,18.902,-3.817
19:55:17:952,44.101,-0.385,-0.161,0.119,-1.601,18.980,-5.320
19:55:18:035,44.184,-0.456,-0.078,0.176,-1.859,18.604,-7.550
19:55:18:035,44.184,-0.531,-0.003,0.251,-2.433,18.031,-9.662
19:55:18:036,44.185,-0.566,-0.031,0.260,-2.933,17.410,-10.909
19:55:18:113,44.262,-0.551,-0.025,0.241,-3.672,16.758,-12.210
19:55:18:114,44.263,-0.586,0.181,0.310,-4.081,16.768,-12.482
19:55:18:115,44.264,-0.620,0.237,0.375,-4.557,17.168,-11.868
19:55:18:134,44.283,-0.583,0.033,0.300,-5.004,17.206,-10.025
19:55:18:161,44.310,-0.544,0.023,0.266,-5.332,16.697,-8.126
19:55:18:187,44.336,-0.449,0.278,0.209,-5.818,14.883,-4.263
19:55:18:242,44.391,-0.311,0.473,0.159,-6.026,12.892,-1.127
19:55:18:243,44.392,-0.180,0.460,0.100,-5.850,8.445,4.139
19:55:18:265,44.414,0.132,0.464,-0.007,-4.682,2.392,9.786
19:55:18:297,44.446,0.366,0.234,0.039,-3.266,-1.941,13.400
19:55:18:319,44.468,0.298,0.127,0.085,-1.008,-6.649,18.338
19:55:18:374,44.523,0.318,0.024,0.082,0.262,-7.798,21.714
19:55:18:374,44.523,0.407,-0.116,0.041,1.770,-8.170,26.957
19:55:18:426,44.575,0.395,-0.130,-0.006,2.635,-7.969,30.329
19:55:18:426,44.575,0.394,-0.182,-0.105,4.070,-7.566,34.933
19:55:18:454,44.603,0.471,-0.327,-0.106,6.137,-7.276,38.729
19:55:18:477,44.626,0.463,-0.374,-0.117,7.623,-6.941,40.791
19:55:18:501,44.650,0.428,-0.491,-0.125,9.637,-6.092,43.270
19:55:18:528,44.677,0.474,-0.510,-0.149,10.621,-5.321,44.543
19:55:18:554,44.703,0.514,-0.437,-0.164,11.199,-4.016,45.675
19:55:18:581,44.730,0.543,-0.355,-0.181,10.682,-2.769,45.478
19:55:18:607,44.756,0.530,-0.330,-0.190,9.628,-1.780,44.541
19:55:18:633,44.782,0.565,-0.248,-0.193,7.136,-0.247,42.119
19:55:18:659,44.808,0.615,-0.101,-0.198,5.254,0.896,39.838
19:55:18:717,44.865,0.666,0.231,-0.218,2.625,2.676,35.296
19:55:18:741,44.890,0.499,0.387,-0.205,1.087,3.996,31.559
19:55:18:742,44.891,0.307,0.333,-0.148,-0.833,6.322,25.341
19:55:18:767,44.916,0.048,0.156,0.020,-2.458,9.296,19.284
19:55:18:819,44.968,0.064,0.044,0.110,-3.235,11.470,15.867
19:55:18:82,44.969,0.132,0.180,0.160,-4.425,14.725,11.670
19:55:18:843,44.992,0.018,0.291,0.082,-5.498,17.745,9.529
19:55:18:871,45.020,-0.082,0.182,0.061,-6.585,23.104,7.758
19:55:18:898,45.047,-0.057,-0.031,-0.006,-6.677,28.721,6.621
19:55:18:922,45.071,-0.250,0.054,0.092,-6.186,32.265,5.962
19:55:18:948,45.097,-0.197,-0.025,0.078,-5.210,36.463,4.472
19:55:19:004,45.153,-0.217,-0.067,0.103,-4.325,39.018,3.323
19:55:19:004,45.153,-0.212,-0.098,0.122,-2.957,42.002,1.359
19:55:19:027,45.176,-0.245,-0.122,0.143,-1.816,44.762,-0.883
19:55:19:055,45.203,-0.282,-0.142,0.172,-1.257,46.415,-2.478
19:55:19:079,45.228,-0.337,-0.178,0.227,-0.616,48.644,-4.977
19:55:19:106,45.255,-0.347,-0.189,0.290,-0.282,49.843,-6.662
19:55:19:132,45.281,-0.364,-0.192,0.364,0.032,51.112,-9.133
19:55:19:158,45.307,-0.365,-0.167,0.428,0.080,51.624,-10.679
19:55:19:216,45.364,-0.407,-0.059,0.519,-0.130,51.900,-12.742
19:55:19:216,45.364,-0.408,-0.078,0.525,-0.638,51.963,-14.256
19:55:19:264,45.413,-0.404,-0.032,0.516,-1.036,52.049,-14.740
19:55:19:321,45.470,-0.373,0.163,0.592,-1.626,52.671,-14.413
19:55:19:323,45.472,-0.334,0.107,0.628,-2.053,53.267,-13.472
19:55:19:323,45.472,-0.291,0.003,0.583,-2.813,54.017,-11.101
19:55:19:348,45.497,-0.265,0.121,0.535,-3.370,54.228,-8.936
19:55:19:397,45.546,-0.237,0.387,0.480,-4.305,53.609,-4.703
19:55:19:398,45.547,-0.150,0.565,0.343,-5.129,51.316,0.343
19:55:19:423,45.572,-0.116,0.556,0.258,-5.288,48.310,4.093
19:55:19:477,45.626,-0.029,0.466,0.098,-4.520,41.829,9.825
19:55:19:478,45.627,0.487,0.309,-0.303,-2.963,36.040,13.543
19:55:19:499,45.648,0.389,0.099,-0.119,-0.032,28.881,18.263
19:55:19:527,45.676,0.453,0.038,-0.100,2.764,25.810,23.192
19:55:19:552,45.701,0.455,-0.081,-0.138,4.366,25.239,26.579
19:55:19:578,45.727,0.411,-0.163,-0.231,6.352,25.709,31.634
19:55:19:605,45.754,0.335,-0.222,-0.302,7.521,26.494,34.779
19:55:19:633,45.782,0.312,-0.330,-0.314,9.394,27.974,38.861
19:55:19:657,45.805,0.293,-0.430,-0.314,11.342,29.763,42.105
19:55:19:684,45.833,0.270,-0.497,-0.309,12.584,31.066,43.840
19:55:19:71,45.859,0.304,-0.527,-0.366,14.111,33.016,45.770
19:55:19:735,45.884,0.337,-0.470,-0.457,14.679,34.317,46.473
19:55:19:762,45.911,0.320,-0.453,-0.466,14.470,36.406,46.362
19:55:19:793,45.942,0.290,-0.377,-0.521,12.657,38.929,44.710
19:55:19:793,45.942,0.265,-0.319,-0.547,10.695,40.905,42.714
19:55:19:816,45.965,0.249,-0.121,-0.638,7.332,44.263,38.342
19:55:19:871,46.020,0.252,0.206,-0.695,5.132,46.752,34.403
19:55:19:872,46.021,0.214,0.510,-0.421,2.359,50.841,27.108
19:55:19:919,46.068,0.116,0.560,-0.197,1.111,53.802,21.793
19:55:19:981,46.130,-0.160,0.385,-0.122,0.048,58.637,14.115
19:55:19:981,46.130,-0.136,0.323,-0.041,0.071,64.299,7.836
19:55:19:981,46.130,-0.054,0.280,0.038,0.432,68.290,5.132
19:55:20:112,46.261,-0.023,0.231,0.213,0.663,75.135,2.611
19:55:20:113,46.262,-0.120,0.086,0.299,0.552,79.836,2.271
19:55:20:114,46.263,-0.125,-0.015,0.226,0.785,86.184,2.806
19:55:20:115,46.264,-0.164,-0.111,0.261,1.347,90.743,3.429
19:55:20:135,46.284,-0.141,-0.099,0.263,1.929,93.285,3.420
19:55:20:135,46.284,-0.136,-0.116,0.259,3.232,95.501,2.841
19:55:20:156,46.305,-0.136,-0.104,0.214,4.301,96.686,1.958
19:55:20:269,46.418,-0.161,-0.139,0.241,6.026,98.601,-0.011
19:55:20:27,46.419,-0.143,-0.195,0.319,7.127,100.134,-1.646
19:55:20:271,46.420,-0.103,-0.230,0.365,8.514,102.836,-4.362
19:55:20:272,46.421,-0.039,-0.145,0.511,9.533,105.595,-7.317
19:55:20:287,46.436,-0.025,-0.082,0.621,10.002,107.056,-9.438
19:55:20:316,46.465,-0.002,-0.025,0.780,10.364,108.369,-12.731
19:55:20:398,46.547,0.042,-0.012,0.868,10.364,108.798,-14.769
19:55:20:398,46.547,0.058,0.023,0.883,9.971,109.014,-17.092
19:55:20:398,46.547,0.128,0.055,0.833,9.055,108.968,-17.958
19:55:20:45,46.599,0.168,-0.008,0.754,8.199,108.976,-17.504
19:55:20:451,46.600,0.195,-0.016,0.695,6.678,109.157,-15.243
19:55:20:471,46.620,0.159,0.145,0.679,5.511,109.179,-12.802
19:55:20:497,46.646,0.097,0.310,0.632,3.505,108.208,-8.196
19:55:20:524,46.673,0.006,0.422,0.507,2.122,106.431,-4.728
19:55:20:609,46.758,-0.037,0.413,0.358,0.461,101.812,0.880
19:55:20:611,46.760,-0.133,0.369,0.057,-0.034,94.235,6.754
19:55:20:613,46.762,-0.105,0.230,-0.298,0.749,87.439,10.448
19:55:20:659,46.808,0.016,0.061,-0.217,3.082,77.718,14.917
19:55:20:66,46.809,0.101,0.024,-0.350,4.831,73.602,17.897
19:55:20:683,46.832,0.152,-0.103,-0.406,7.126,70.312,22.399
19:55:20:706,46.855,0.065,-0.153,-0.386,8.567,70.185,26.973
19:55:20:734,46.883,-0.037,-0.201,-0.402,9.248,70.978,29.904
19:55:20:76,46.909,-0.108,-0.277,-0.397,10.272,72.683,33.847
19:55:20:788,46.936,-0.098,-0.354,-0.440,11.183,73.818,36.043
19:55:20:813,46.962,-0.108,-0.355,-0.458,12.722,75.451,38.569
19:55:20:839,46.988,-0.129,-0.332,-0.543,14.172,77.014,40.053
19:55:20:894,47.043,-0.148,-0.312,-0.545,14.785,78.055,40.362
19:55:20:894,47.043,-0.179,-0.315,-0.525,14.757,79.710,39.710
19:55:20:918,47.067,-0.224,-0.213,-0.602,14.007,80.960,38.564
19:55:20:946,47.095,-0.280,-0.063,-0.596,12.051,82.986,35.708
19:55:20:969,47.118,-0.253,0.073,-0.521,10.409,84.357,33.021
19:55:21:054,47.203,-0.205,0.240,-0.358,7.778,86.396,27.905
19:55:21:055,47.204,-0.017,0.275,-0.075,5.499,87.932,21.972
19:55:21:075,47.224,-0.037,0.213,-0.047,2.936,87.674,12.823
19:55:21:134,47.283,-0.031,0.178,-0.085,2.177,87.256,9.999
19:55:21:134,47.283,-0.018,0.184,0.006,1.519,87.855,7.091
19:55:21:18,47.329,-0.025,0.055,0.129,1.433,90.723,5.286
19:55:21:21,47.359,-0.030,-0.046,0.120,1.712,93.451,4.449
19:55:21:211,47.360,-0.048,-0.056,0.202,2.226,98.260,3.310
19:55:21:231,47.380,-0.068,-0.059,0.278,2.623,101.531,2.556
19:55:21:259,47.408,-0.076,-0.096,0.287,3.273,105.674,0.974
19:55:21:286,47.435,-0.041,-0.083,0.391,3.705,107.947,-0.462
19:55:21:311,47.460,0.014,-0.106,0.406,4.291,110.346,-3.166
19:55:21:337,47.486,0.119,-0.164,0.483,4.717,111.467,-6.367
19:55:21:363,47.512,0.162,-0.203,0.502,4.861,111.650,-8.618
19:55:21:39,47.539,0.208,-0.213,0.559,4.829,111.100,-11.998
19:55:21:416,47.565,0.256,-0.114,0.642,4.667,110.383,-14.121
19:55:21:444,47.593,0.192,0.003,0.736,4.255,108.848,-16.896
19:55:21:469,47.618,0.157,-0.069,0.759,3.999,107.675,-18.677
19:55:21:496,47.645,0.129,-0.015,0.769,4.011,107.333,-18.990
19:55:21:521,47.670,0.162,0.008,0.714,4.058,107.101,-17.958
19:55:21:547,47.696,0.149,0.107,0.726,3.876,107.024,-16.371
19:55:21:573,47.722,0.061,0.110,0.666,3.220,106.183,-12.969
19:55:21:599,47.748,-0.058,0.169,0.546,2.674,105.362,-10.125
19:55:21:629,47.777,-0.109,0.293,0.456,1.900,103.575,-5.208
19:55:21:711,47.860,-0.168,0.448,0.315,1.367,100.730,0.051
19:55:21:712,47.861,-0.210,0.443,0.245,1.315,97.783,3.555
19:55:21:712,47.861,-0.298,0.414,0.065,2.094,91.244,8.263
19:55:21:759,47.908,-0.256,0.207,-0.218,3.268,85.694,10.790
19:55:21:787,47.936,-0.163,0.086,-0.127,5.239,78.676,13.766
19:55:21:787,47.936,-0.056,-0.026,-0.248,7.027,74.630,16.936
19:55:21:809,47.958,-0.041,-0.068,-0.334,8.049,73.317,19.310
19:55:21:836,47.985,-0.148,-0.096,-0.310,9.404,72.643,23.261
19:55:21:862,48.011,-0.189,-0.119,-0.382,10.336,72.570,25.974
19:55:21:891,48.040,-0.161,-0.177,-0.435,11.973,72.643,29.968
19:55:21:918,48.067,-0.142,-0.268,-0.474,13.732,72.998,33.682
19:55:21:944,48.093,-0.137,-0.301,-0.497,14.834,73.371,35.933
19:55:21:967,48.116,-0.135,-0.309,-0.545,16.152,74.047,38.721
19:55:21:997,48.145,-0.140,-0.300,-0.574,16.751,74.474,40.004
19:55:21:997,48.146,-0.134,-0.344,-0.618,17.021,75.170,40.971
19:55:22:019,48.168,-0.141,-0.338,-0.664,16.559,75.900,41.001
19:55:22:048,48.197,-0.159,-0.300,-0.653,14.827,77.434,39.919
19:55:22:072,48.221,-0.205,-0.110,-0.618,12.282,79.190,37.118
19:55:22:212,48.361,-0.188,-0.035,-0.520,10.338,80.394,34.260
19:55:22:213,48.362,-0.073,0.060,-0.351,7.440,82.150,28.899
19:55:22:214,48.363,0.008,0.167,-0.232,5.748,83.158,24.993
19:55:22:214,48.363,0.049,0.249,-0.152,3.716,84.111,19.278
19:55:22:231,48.380,-0.006,0.290,-0.140,2.214,84.709,14.195
19:55:22:257,48.406,-0.059,0.244,-0.134,1.528,85.538,11.254
19:55:22:284,48.433,-0.046,0.275,0.035,0.827,88.863,7.572
19:55:22:285,48.434,0.002,0.055,0.079,0.862,92.386,5.785
19:55:22:308,48.457,0.003,0.086,0.323,1.353,98.246,3.678
19:55:22:335,48.484,-0.064,-0.040,0.303,2.067,104.133,2.184
19:55:22:362,48.511,-0.040,-0.068,0.370,2.605,107.443,1.169
19:55:22:415,48.564,0.042,-0.114,0.418,3.403,111.277,-0.393
19:55:22:442,48.591,0.049,-0.119,0.398,3.893,113.519,-1.537
19:55:22:443,48.592,0.057,-0.128,0.363,4.555,115.323,-3.376
19:55:22:469,48.618,0.111,-0.134,0.404,4.951,116.631,-4.662
19:55:22:498,48.647,0.177,-0.138,0.461,5.506,118.065,-6.689
19:55:22:518,48.667,0.254,-0.051,0.546,5.979,119.349,-8.922
19:55:22:544,48.693,0.261,0.032,0.617,6.204,119.641,-10.484
19:55:22:571,48.720,0.225,-0.028,0.657,6.452,120.030,-12.598
19:55:22:598,48.747,0.251,0.084,0.719,6.589,120.158,-13.563
19:55:22:624,48.773,0.310,0.105,0.713,6.687,120.699,-14.009
19:55:22:65,48.799,0.288,0.096,0.680,6.426,120.917,-13.082
19:55:22:677,48.826,0.258,0.019,0.611,6.001,120.815,-11.693
19:55:22:702,48.851,0.177,0.142,0.568,5.111,120.074,-8.582
19:55:22:731,48.880,0.065,0.260,0.517,4.441,119.067,-6.011
19:55:22:757,48.906,-0.013,0.311,0.443,3.529,116.402,-1.836
19:55:22:783,48.932,-0.095,0.315,0.331,3.140,113.780,0.942
19:55:22:807,48.956,-0.146,0.257,0.206,3.123,108.739,4.888
19:55:22:835,48.984,-0.202,0.089,-0.043,3.876,102.613,8.469
19:55:22:891,49.040,-0.174,0.016,-0.068,4.685,98.204,10.558
19:55:22:892,49.041,-0.173,-0.008,-0.053,6.115,92.708,13.672
19:55:22:944,49.093,-0.176,-0.027,-0.182,7.243,89.710,15.853
19:55:22:969,49.118,-0.229,-0.039,-0.239,9.160,86.167,19.218
19:55:22:97,49.119,-0.252,-0.070,-0.310,11.325,83.692,22.568
19:55:22:997,49.146,-0.251,-0.136,-0.366,12.863,82.591,24.749
19:55:23:018,49.167,-0.258,-0.199,-0.377,14.983,82.022,28.081
19:55:23:072,49.221,-0.273,-0.247,-0.424,16.250,82.115,30.345
19:55:23:073,49.222,-0.288,-0.236,-0.460,17.750,82.714,33.506
19:55:23:095,49.244,-0.313,-0.222,-0.518,18.906,83.223,35.848
19:55:23:123,49.272,-0.288,-0.268,-0.538,19.351,83.563,36.889
19:55:23:149,49.298,-0.271,-0.294,-0.615,19.168,84.312,37.620
19:55:23:175,49.324,-0.243,-0.321,-0.592,18.336,84.981,37.413
19:55:23:2,49.349,-0.219,-0.229,-0.492,16.033,86.156,35.809
19:55:23:23,49.379,-0.186,-0.124,-0.388,14.062,86.832,33.830
19:55:23:254,49.403,-0.054,-0.090,-0.241,11.134,87.321,29.762
19:55:23:28,49.429,0.043,-0.016,-0.152,8.600,87.032,25.105
19:55:23:308,49.457,0.031,0.090,-0.175,7.139,86.475,21.989
19:55:23:361,49.510,-0.009,0.281,-0.170,5.307,85.493,17.506
19:55:23:362,49.511,-0.046,0.306,-0.120,4.380,85.114,14.662
19:55:23:386,49.535,-0.036,0.187,-0.083,3.537,85.932,10.774
19:55:23:413,49.562,0.007,0.083,0.088,3.018,89.464,7.585
19:55:23:439,49.588,0.030,-0.023,0.164,2.926,92.820,5.975
19:55:23:464,49.613,0.035,-0.051,0.235,2.828,98.163,4.120
19:55:23:489,49.638,-0.026,-0.027,0.382,2.747,101.504,2.978
19:55:23:516,49.665,-0.012,-0.047,0.349,2.699,105.410,1.184
19:55:23:575,49.724,0.031,-0.016,0.378,2.688,107.171,-0.238
19:55:23:598,49.746,0.112,-0.023,0.376,2.662,108.856,-2.723
19:55:23:599,49.747,0.166,-0.064,0.407,2.568,109.639,-5.500
19:55:23:621,49.770,0.239,-0.098,0.448,2.458,109.929,-7.434
19:55:23:647,49.796,0.308,-0.051,0.539,2.222,109.810,-10.365
19:55:23:676,49.825,0.341,0.008,0.599,2.004,109.485,-12.287
19:55:23:701,49.850,0.284,0.001,0.670,1.675,108.440,-14.880
19:55:23:725,49.874,0.193,-0.005,0.672,1.660,107.744,-16.605
19:55:23:753,49.902,0.200,0.119,0.710,1.885,107.735,-16.952
19:55:23:779,49.928,0.239,0.161,0.753,2.318,107.798,-16.250
19:55:23:804,49.953,0.153,0.129,0.725,2.444,107.647,-15.117
19:55:23:83,49.979,0.114,0.083,0.645,2.389,106.756,-12.547
19:55:23:858,50.007,0.054,0.072,0.509,2.188,105.870,-8.867
19:55:23:885,50.034,0.020,0.159,0.467,1.997,105.032,-5.867
19:55:23:94,50.089,-0.094,0.250,0.368,1.729,102.950,-0.803
19:55:23:964,50.113,-0.157,0.286,0.312,1.795,100.524,2.676
19:55:23:965,50.114,-0.273,0.370,-0.040,2.746,94.548,7.682
19:55:23:989,50.138,-0.192,0.176,-0.428,4.065,89.709,10.565
19:55:24:102,50.251,-0.148,0.109,-0.175,6.322,83.354,14.115
19:55:24:103,50.252,-0.056,-0.020,-0.292,8.284,80.303,17.712
19:55:24:104,50.253,-0.076,-0.036,-0.320,9.244,79.682,20.305
19:55:24:104,50.253,-0.169,-0.025,-0.320,10.487,79.599,24.182
19:55:24:147,50.296,-0.244,-0.055,-0.373,11.372,79.775,26.647
19:55:24:175,50.323,-0.220,-0.153,-0.392,12.964,80.148,30.072
19:55:24:176,50.325,-0.203,-0.218,-0.384,14.633,80.830,33.236
19:55:24:202,50.351,-0.176,-0.325,-0.412,15.718,81.343,35.273
19:55:24:202,50.351,-0.169,-0.385,-0.421,16.936,82.218,38.241
19:55:24:278,50.427,-0.165,-0.373,-0.483,17.415,82.787,39.999
19:55:24:314,50.463,-0.150,-0.393,-0.504,17.719,83.194,41.805
19:55:24:315,50.464,-0.151,-0.438,-0.513,17.528,83.365,42.302
19:55:24:316,50.465,-0.151,-0.407,-0.515,16.335,83.755,41.852
19:55:24:329,50.478,-0.152,-0.342,-0.465,13.431,84.677,38.696
19:55:24:355,50.504,-0.163,-0.212,-0.504,11.758,85.285,36.297
19:55:24:382,50.530,-0.215,0.159,-0.534,9.111,86.489,31.125
19:55:24:468,50.617,-0.183,0.263,-0.432,7.376,87.571,26.797
19:55:24:469,50.618,-0.098,0.346,-0.160,5.024,89.837,19.655
19:55:24:47,50.619,-0.023,0.372,0.042,3.174,92.617,12.624
19:55:24:516,50.665,-0.014,0.293,0.131,2.253,94.646,8.478
19:55:24:516,50.665,0.077,0.271,0.165,1.169,97.920,3.297
19:55:24:539,50.688,0.128,0.251,0.204,0.461,101.089,0.687
19:55:24:566,50.715,0.150,0.214,0.248,-0.342,107.452,-0.891
19:55:24:594,50.743,0.109,0.081,0.384,-0.828,116.098,-0.704
19:55:24:65,50.799,0.142,-0.011,0.494,-0.999,121.848,-0.037
19:55:24:651,50.800,0.130,-0.111,0.425,-0.864,127.762,1.563
19:55:24:671,50.820,0.158,-0.177,0.374,-0.517,129.636,2.644
19:55:24:697,50.846,0.193,-0.227,0.289,0.338,130.054,4.013
19:55:24:724,50.872,0.170,-0.196,0.267,0.989,129.493,4.275
19:55:24:751,50.900,0.103,-0.258,0.172,1.980,127.599,3.364
19:55:24:775,50.924,0.096,-0.200,0.151,2.739,125.462,1.755
19:55:24:803,50.952,0.112,-0.104,0.190,2.926,124.689,0.387
19:55:24:829,50.978,0.167,0.070,0.325,2.973,124.537,-1.798
19:55:24:854,51.003,0.187,0.165,0.491,2.966,124.799,-3.268
19:55:24:882,51.031,0.199,0.144,0.535,2.951,125.176,-5.326
19:55:24:906,51.055,0.231,0.232,0.514,2.829,125.339,-6.607
19:55:24:933,51.082,0.333,0.290,0.478,2.564,125.371,-6.563
19:55:24:96,51.109,0.360,0.072,0.343,1.809,124.866,-5.208
19:55:25:014,51.163,0.327,-0.063,0.274,1.094,123.910,-3.239
19:55:25:015,51.164,0.258,0.150,0.245,0.071,121.598,0.754
19:55:25:039,51.188,0.016,0.439,0.083,-0.233,117.341,5.439
19:55:25:123,51.272,-0.051,0.458,-0.026,0.396,113.532,8.597
19:55:25:124,51.273,-0.109,0.278,-0.231,2.728,107.169,12.531
19:55:25:125,51.274,-0.071,0.124,-0.312,4.674,103.944,14.503
19:55:25:175,51.324,-0.076,0.046,-0.303,7.323,102.885,17.472
19:55:25:176,51.325,-0.070,-0.108,-0.360,8.607,104.395,19.892
19:55:25:196,51.345,-0.174,-0.136,-0.257,9.554,108.587,24.279
19:55:25:281,51.430,-0.276,-0.158,-0.193,9.934,113.067,28.672
19:55:25:281,51.430,-0.349,-0.196,-0.156,10.174,115.709,31.290
19:55:25:282,51.431,-0.351,-0.261,-0.143,10.805,118.942,34.522
19:55:25:3,51.449,-0.347,-0.367,-0.164,11.475,120.602,36.224
19:55:25:359,51.508,-0.321,-0.435,-0.160,12.603,122.613,38.177
19:55:25:36,51.509,-0.340,-0.490,-0.174,13.373,124.215,39.478
19:55:25:409,51.558,-0.372,-0.478,-0.204,13.458,125.091,39.874
19:55:25:41,51.559,-0.441,-0.360,-0.237,12.703,126.255,39.396
19:55:25:433,51.582,-0.468,-0.251,-0.246,11.613,127.085,38.191
19:55:25:46,51.609,-0.474,-0.133,-0.218,9.316,128.640,34.982
19:55:25:513,51.662,-0.482,0.051,-0.211,7.614,129.986,31.973
19:55:25:514,51.663,-0.482,0.311,-0.181,5.330,132.328,26.208
19:55:25:538,51.687,-0.381,0.693,-0.023,3.703,134.909,19.204
19:55:25:563,51.712,-0.173,0.657,0.116,2.987,136.743,14.155
19:55:25:618,51.767,0.207,0.296,0.255,2.351,140.056,6.734
19:55:25:619,51.768,0.240,0.155,0.212,2.294,142.551,2.403
19:55:25:642,51.790,0.275,0.148,0.232,2.592,146.339,-1.567
19:55:25:668,51.817,0.219,0.135,0.259,2.969,149.505,-2.988
19:55:25:7,51.849,0.268,0.063,0.275,3.183,151.301,-2.886
19:55:25:722,51.871,0.230,-0.079,0.202,3.563,153.735,-1.612
19:55:25:749,51.898,0.208,-0.139,0.176,3.787,155.611,-0.315
19:55:25:776,51.925,0.176,-0.135,0.146,4.106,158.754,1.957
19:55:25:8,51.949,0.138,-0.148,0.136,4.417,161.957,4.220
19:55:25:827,51.976,0.112,-0.170,0.125,4.607,163.980,5.537
19:55:25:856,52.005,0.089,-0.206,0.145,4.906,166.753,7.062
19:55:25:878,52.027,0.093,-0.221,0.137,5.101,168.478,7.720
19:55:25:904,52.053,0.112,-0.241,0.128,5.300,172.264,8.127
19:55:25:931,52.080,0.130,-0.256,0.111,5.323,173.508,7.976
19:55:25:958,52.107,0.155,-0.174,0.109,5.134,176.133,7.057
19:55:25:985,52.134,0.178,-0.065,0.109,4.841,176.462,5.970
19:55:26:013,52.161,0.264,0.167,0.075,4.208,177.485,3.733
19:55:26:035,52.184,0.347,0.246,0.039,3.430,177.929,1.166
19:55:26:063,52.212,0.363,0.269,0.052,2.835,177.390,-0.404
19:55:26:091,52.240,0.417,0.235,-0.041,1.941,177.891,-2.123
19:55:26:115,52.264,0.466,0.229,-0.084,1.155,177.269,-2.770
19:55:26:141,52.290,0.437,0.113,-0.093,0.780,177.425,-2.496
19:55:26:166,52.315,0.416,0.131,-0.025,0.471,176.189,-0.894
19:55:26:194,52.343,0.331,0.351,0.032,0.440,174.753,0.973
19:55:26:247,52.396,0.092,0.448,0.066,0.928,171.288,4.607
19:55:26:275,52.424,-0.129,0.368,0.066,1.807,168.257,7.236
19:55:26:276,52.425,-0.170,0.213,0.009,3.744,163.535,10.840
19:55:26:328,52.477,-0.121,0.001,-0.035,5.764,161.380,14.330
19:55:26:492,52.641,-0.213,-0.095,-0.053,6.851,161.199,16.973
19:55:26:493,52.642,-0.189,-0.158,0.031,7.937,162.131,21.211
19:55:26:494,52.643,-0.252,-0.183,0.115,8.495,162.954,24.077
19:55:26:495,52.644,-0.286,-0.208,0.143,9.527,163.940,28.090
19:55:26:517,52.666,-0.348,-0.246,0.164,11.063,164.537,31.516
19:55:26:517,52.666,-0.382,-0.301,0.159,12.417,164.745,33.397
19:55:26:518,52.667,-0.418,-0.392,0.154,14.590,165.088,35.657
19:55:26:728,52.877,-0.468,-0.410,0.163,15.831,165.548,36.832
19:55:26:729,52.878,-0.511,-0.340,0.173,16.989,166.548,37.965
19:55:26:73,52.879,-0.563,-0.227,0.212,17.109,167.802,38.000
