Time,Second,AccelerationX,AccelerationY,AccelerationZ,EulerAnglesX,EulerAnglesY,EulerAnglesZ
19:18:01:736,0.000,-0.005,-0.004,0.009,-8.188,-47.252,3.335
19:18:01:792,0.056,-0.005,-0.005,0.007,-8.183,-47.253,3.336
19:18:01:792,0.056,-0.009,-0.004,0.013,-8.173,-47.247,3.333
19:18:01:793,0.057,-0.004,-0.005,0.006,-8.162,-47.252,3.330
19:18:01:812,0.076,-0.012,-0.005,0.015,-8.152,-47.251,3.332
19:18:01:867,0.131,-0.008,-0.007,0.009,-8.146,-47.247,3.328
19:18:01:868,0.132,-0.006,-0.006,0.010,-8.135,-47.251,3.326
19:18:01:891,0.155,-0.007,-0.003,0.010,-8.131,-47.250,3.327
19:18:01:916,0.180,-0.005,-0.004,0.010,-8.124,-47.251,3.318
19:18:02:001,0.265,-0.007,-0.006,0.013,-8.114,-47.250,3.320
19:18:02:002,0.266,-0.001,-0.004,0.006,-8.103,-47.245,3.316
19:18:02:003,0.267,-0.007,-0.003,0.012,-8.097,-47.250,3.313
19:18:02:052,0.316,-0.001,-0.003,0.005,-8.093,-47.249,3.314
19:18:02:053,0.317,-0.007,-0.004,0.011,-8.081,-47.249,3.306
19:18:02:074,0.338,0.000,-0.001,0.007,-8.076,-47.249,3.307
19:18:02:129,0.394,-0.005,-0.004,0.011,-8.065,-47.244,3.304
19:18:02:13,0.395,-0.002,-0.002,0.005,-8.045,-47.248,3.303
19:18:02:157,0.421,-0.005,-0.004,0.007,-8.034,-47.243,3.300
19:18:02:181,0.445,-0.004,-0.003,0.007,-8.008,-47.248,3.300
19:18:02:207,0.471,-0.009,-0.004,0.012,-7.983,-47.253,3.301
19:18:02:234,0.498,-0.004,-0.003,0.008,-7.973,-47.263,3.303
19:18:02:258,0.522,-0.009,-0.004,0.015,-7.968,-47.298,3.312
19:18:02:313,0.578,-0.004,-0.004,0.009,-7.967,-47.303,3.307
19:18:02:314,0.578,-0.007,-0.003,0.012,-7.967,-47.303,3.307
19:18:02:339,0.603,-0.001,-0.005,0.007,-7.962,-47.323,3.310
19:18:02:393,0.657,-0.005,-0.005,0.010,-7.957,-47.339,3.316
19:18:02:393,0.657,-0.005,-0.003,0.010,-7.941,-47.364,3.316
19:18:02:417,0.681,-0.010,-0.005,0.015,-7.936,-47.384,3.319
19:18:02:529,0.793,-0.007,-0.003,0.010,-7.920,-47.414,3.324
19:18:02:529,0.793,-0.006,-0.004,0.011,-7.926,-47.430,3.329
19:18:02:529,0.793,-0.004,-0.004,0.009,-7.920,-47.461,3.332
19:18:02:58,0.844,-0.006,-0.004,0.012,-7.919,-47.492,3.334
19:18:02:58,0.844,-0.005,-0.003,0.010,-7.919,-47.502,3.335
19:18:02:58,0.844,-0.009,-0.003,0.015,-7.914,-47.518,3.341
19:18:02:6,0.864,-0.006,-0.004,0.011,-7.913,-47.532,3.338
19:18:02:655,0.919,-0.008,-0.004,0.014,-7.913,-47.087,3.340
19:18:02:656,0.920,-0.006,-0.004,0.015,-7.917,-47.097,3.340
19:18:02:68,0.944,-0.003,-0.003,0.011,-7.920,-46.692,3.344
19:18:02:764,1.028,-0.002,-0.004,0.010,-7.920,-46.692,3.344
19:18:02:765,1.029,0.000,-0.004,0.008,-7.914,-46.362,3.340
19:18:02:765,1.029,-0.006,-0.004,0.014,-7.914,-46.362,3.340
19:18:02:783,1.047,0.001,-0.002,0.008,-7.912,-46.174,3.343
19:18:02:839,1.103,-0.006,-0.004,0.015,-7.912,-46.174,3.343
19:18:02:839,1.103,0.000,-0.003,0.008,-7.913,-45.809,3.341
19:18:02:862,1.126,-0.003,-0.007,0.011,-7.913,-45.809,3.341
19:18:02:974,1.238,0.001,-0.003,0.007,-7.918,-45.687,3.342
19:18:02:974,1.238,-0.005,-0.005,0.016,-7.918,-45.687,3.342
19:18:02:975,1.239,0.002,-0.004,0.006,-7.914,-45.438,3.342
19:18:03:027,1.291,-0.005,-0.004,0.014,-7.917,-45.266,3.341
19:18:03:028,1.292,0.000,-0.006,0.011,-7.917,-45.266,3.341
19:18:03:028,1.292,-0.007,-0.005,0.014,-7.915,-45.200,3.343
19:18:03:048,1.312,-0.001,-0.003,0.012,-7.915,-45.200,3.343
19:18:03:101,1.365,-0.006,-0.004,0.014,-7.917,-45.047,3.343
19:18:03:102,1.366,-0.003,-0.003,0.011,-7.917,-45.047,3.343
19:18:03:124,1.388,-0.005,-0.004,0.014,-7.916,-44.950,3.342
19:18:03:151,1.415,-0.005,-0.004,0.013,-7.916,-44.950,3.342
19:18:03:206,1.470,-0.007,-0.005,0.017,-7.915,-44.833,3.340
19:18:03:206,1.470,-0.001,-0.002,0.011,-7.915,-44.833,3.340
19:18:03:229,1.493,0.000,-0.005,0.011,-7.916,-44.813,3.339
19:18:03:285,1.549,0.002,-0.004,0.008,-7.916,-44.813,3.339
19:18:03:286,1.550,-0.004,-0.006,0.012,-7.914,-44.538,3.342
19:18:03:311,1.575,0.000,-0.006,0.009,-7.914,-44.538,3.342
19:18:03:312,1.576,-0.002,-0.005,0.012,-7.916,-44.376,3.342
19:18:03:361,1.625,-0.003,-0.003,0.013,-7.916,-44.376,3.342
19:18:03:389,1.653,-0.007,-0.005,0.017,-7.914,-44.300,3.342
19:18:03:39,1.654,-0.002,-0.004,0.012,-7.914,-44.300,3.342
19:18:03:443,1.707,-0.001,-0.006,0.012,-7.919,-43.973,3.341
19:18:03:443,1.707,-0.002,-0.004,0.013,-7.919,-43.973,3.341
19:18:03:466,1.730,0.004,-0.002,0.006,-7.919,-43.963,3.341
19:18:03:493,1.757,-0.002,-0.003,0.012,-7.919,-43.963,3.341
19:18:03:549,1.813,0.003,-0.005,0.007,-7.916,-43.948,3.346
19:18:03:549,1.813,-0.001,-0.002,0.013,-7.916,-43.948,3.346
19:18:03:571,1.835,0.002,-0.006,0.008,-7.912,-43.779,3.341
19:18:03:626,1.890,-0.001,-0.006,0.012,-7.912,-43.779,3.341
19:18:03:627,1.891,0.004,-0.002,0.007,-7.919,-43.764,3.344
19:18:03:651,1.915,-0.004,-0.005,0.012,-7.919,-43.764,3.344
19:18:03:677,1.941,0.004,0.000,0.004,-7.917,-43.581,3.343
19:18:03:728,1.992,0.003,-0.005,0.016,-7.917,-43.581,3.343
19:18:03:757,2.021,0.008,-0.004,0.011,-7.917,-43.581,3.343
19:18:03:758,2.022,-0.002,-0.004,0.013,-7.915,-43.595,3.339
19:18:03:811,2.075,0.002,-0.001,0.008,-7.915,-43.595,3.339
19:18:03:812,2.076,-0.001,-0.004,0.012,-7.911,-43.601,3.346
19:18:03:833,2.097,0.004,-0.002,0.009,-7.916,-43.602,3.365
19:18:03:859,2.123,-0.001,-0.004,0.012,-7.916,-43.603,3.386
19:18:03:886,2.150,0.003,-0.004,0.009,-7.916,-43.605,3.406
19:18:03:941,2.205,0.001,-0.002,0.013,-7.912,-43.529,3.418
19:18:03:941,2.205,0.002,-0.003,0.012,-7.918,-43.536,3.442
19:18:03:991,2.255,0.003,-0.004,0.008,-7.918,-43.480,3.454
19:18:04:021,2.285,0.002,-0.002,0.009,-7.918,-43.480,3.454
19:18:04:021,2.285,-0.002,-0.003,0.013,-7.914,-43.450,3.453
19:18:04:072,2.336,0.007,-0.005,0.005,-7.914,-43.450,3.453
19:18:04:073,2.337,0.001,-0.006,0.013,-7.919,-43.368,3.457
19:18:04:096,2.360,-0.002,-0.004,0.012,-7.919,-43.368,3.457
19:18:04:122,2.386,-0.001,-0.010,0.012,-7.912,-43.393,3.455
19:18:04:177,2.441,0.001,-0.004,0.011,-7.912,-43.393,3.455
19:18:04:178,2.442,0.003,-0.005,0.011,-7.915,-43.445,3.457
19:18:04:201,2.465,0.001,-0.006,0.012,-7.915,-43.445,3.457
19:18:04:257,2.521,0.001,-0.004,0.012,-7.918,-43.373,3.453
19:18:04:258,2.522,0.000,-0.002,0.010,-7.918,-43.373,3.453
19:18:04:279,2.543,0.006,-0.003,0.007,-7.910,-43.347,3.458
19:18:04:334,2.599,0.000,-0.006,0.011,-7.910,-43.347,3.458
19:18:04:335,2.600,0.006,-0.002,0.005,-7.905,-43.348,3.459
19:18:04:359,2.623,0.001,-0.006,0.012,-7.905,-43.348,3.459
19:18:04:471,2.735,0.006,-0.003,0.005,-7.901,-43.317,3.458
19:18:04:472,2.736,-0.001,-0.006,0.011,-7.901,-43.317,3.458
19:18:04:473,2.737,0.005,-0.003,0.007,-7.901,-43.317,3.458
19:18:04:474,2.738,-0.003,-0.006,0.015,-7.901,-43.317,3.458
19:18:04:489,2.753,0.006,-0.005,0.006,-7.901,-43.317,3.458
19:18:04:545,2.809,-0.005,-0.007,0.016,-7.901,-43.317,3.458
19:18:04:546,2.810,0.005,-0.001,0.010,-7.901,-43.317,3.458
19:18:04:571,2.835,-0.001,-0.004,0.011,-7.901,-43.317,3.458
19:18:04:596,2.860,0.001,-0.004,0.010,-7.901,-43.317,3.458
19:18:04:621,2.885,0.001,-0.005,0.014,-7.901,-43.317,3.458
19:18:04:705,2.969,0.001,-0.005,0.011,-7.901,-43.317,3.458
19:18:04:706,2.970,-0.002,-0.005,0.016,-7.901,-43.317,3.458
19:18:04:706,2.970,0.002,-0.004,0.008,-7.901,-43.317,3.458
19:18:04:726,2.990,0.001,-0.006,0.011,-7.901,-43.317,3.458
19:18:04:781,3.045,0.004,-0.002,0.007,-7.901,-43.317,3.458
19:18:04:782,3.046,-0.001,-0.006,0.012,-7.901,-43.317,3.458
19:18:04:804,3.068,0.004,-0.001,0.009,-7.901,-43.317,3.458
19:18:04:861,3.125,-0.003,-0.006,0.013,-7.901,-43.317,3.458
19:18:04:861,3.125,-0.001,-0.003,0.011,-7.902,-43.323,3.463
19:18:04:913,3.177,0.000,-0.005,0.013,-7.905,-43.314,3.472
19:18:04:913,3.178,-0.001,-0.007,0.011,-7.905,-43.314,3.472
19:18:04:968,3.232,0.000,-0.001,0.009,-7.905,-43.314,3.472
19:18:04:969,3.233,0.001,-0.006,0.009,-7.905,-43.314,3.472
19:18:04:988,3.252,0.003,-0.006,0.007,-7.905,-43.314,3.472
19:18:05:043,3.307,0.001,-0.006,0.011,-7.904,-43.318,3.468
19:18:05:044,3.308,0.003,-0.004,0.007,-7.905,-43.323,3.473
19:18:05:067,3.331,0.002,-0.003,0.008,-7.903,-43.328,3.469
19:18:05:093,3.357,0.006,-0.003,0.007,-7.903,-43.337,3.469
19:18:05:147,3.411,0.003,-0.005,0.008,-7.903,-43.337,3.469
19:18:05:175,3.439,0.006,-0.002,0.007,-7.903,-43.337,3.469
19:18:05:175,3.439,0.001,-0.005,0.011,-7.903,-43.337,3.469
19:18:05:226,3.490,0.006,-0.001,0.005,-7.903,-43.337,3.469
19:18:05:253,3.517,-0.002,-0.004,0.012,-7.903,-43.337,3.469
19:18:05:254,3.518,0.005,-0.005,0.006,-7.903,-43.337,3.469
19:18:05:306,3.570,-0.002,-0.003,0.013,-7.903,-43.337,3.469
19:18:05:307,3.571,0.003,-0.002,0.007,-7.903,-43.337,3.469
19:18:05:33,3.594,-0.001,-0.006,0.013,-7.903,-43.337,3.469
19:18:05:356,3.620,0.004,-0.002,0.006,-7.903,-43.337,3.469
19:18:05:411,3.675,-0.001,-0.005,0.014,-7.903,-43.337,3.469
19:18:05:411,3.675,0.003,-0.004,0.010,-7.903,-43.337,3.469
19:18:05:436,3.700,-0.001,-0.005,0.014,-7.903,-43.337,3.469
19:18:05:461,3.726,0.003,-0.005,0.008,-7.903,-43.337,3.469
19:18:05:487,3.751,0.001,-0.004,0.012,-7.903,-43.337,3.469
19:18:05:517,3.781,0.004,-0.002,0.009,-7.903,-43.337,3.469
19:18:05:517,3.781,0.000,-0.002,0.009,-7.902,-43.335,3.484
19:18:05:569,3.833,0.004,-0.006,0.007,-7.900,-43.334,3.495
19:18:05:57,3.834,-0.003,-0.003,0.015,-7.900,-43.334,3.495
19:18:05:618,3.882,0.003,-0.006,0.008,-7.900,-43.334,3.495
19:18:05:674,3.938,0.000,-0.003,0.010,-7.900,-43.334,3.495
19:18:05:674,3.938,-0.001,-0.004,0.009,-7.900,-43.334,3.495
19:18:05:7,3.964,0.002,-0.002,0.008,-7.900,-43.334,3.495
19:18:05:701,3.965,0.004,-0.003,0.009,-7.900,-43.334,3.495
19:18:05:753,4.017,0.008,-0.003,0.003,-7.900,-43.334,3.495
19:18:05:753,4.017,0.002,-0.004,0.009,-7.900,-43.334,3.495
19:18:05:776,4.040,0.006,-0.003,0.005,-7.900,-43.334,3.495
19:18:05:831,4.096,0.003,-0.001,0.008,-7.900,-43.334,3.495
19:18:05:832,4.097,0.007,-0.005,0.001,-7.900,-43.334,3.495
19:18:05:884,4.148,0.003,-0.005,0.008,-7.900,-43.334,3.495
19:18:05:884,4.148,0.006,-0.002,0.005,-7.900,-43.334,3.495
19:18:05:936,4.200,0.001,-0.007,0.010,-7.900,-43.334,3.495
19:18:05:936,4.200,0.007,-0.003,0.007,-7.900,-43.334,3.495
19:18:05:961,4.225,0.000,-0.002,0.013,-7.900,-43.334,3.495
19:18:06:016,4.280,0.007,-0.004,0.006,-7.900,-43.334,3.495
19:18:06:017,4.281,0.001,-0.005,0.012,-7.900,-43.334,3.495
19:18:06:038,4.302,0.005,-0.001,0.006,-7.900,-43.334,3.495
19:18:06:065,4.329,0.001,-0.006,0.009,-7.900,-43.334,3.495
19:18:06:149,4.413,0.007,-0.004,0.007,-7.900,-43.334,3.495
19:18:06:149,4.413,-0.001,-0.007,0.011,-7.900,-43.334,3.495
19:18:06:15,4.414,0.004,-0.001,0.009,-7.900,-43.334,3.495
19:18:06:199,4.463,0.003,-0.003,0.008,-7.900,-43.334,3.495
19:18:06:2,4.464,0.005,-0.004,0.006,-7.900,-43.334,3.495
19:18:06:222,4.486,0.003,-0.006,0.008,-7.900,-43.334,3.495
19:18:06:28,4.544,0.007,-0.003,0.004,-7.900,-43.334,3.495
19:18:06:28,4.544,0.004,-0.007,0.007,-7.900,-43.334,3.495
19:18:06:302,4.566,0.009,0.000,0.004,-7.900,-43.334,3.495
19:18:06:328,4.592,0.004,-0.004,0.009,-7.900,-43.334,3.495
19:18:06:386,4.650,0.003,-0.003,0.009,-7.900,-43.334,3.495
19:18:06:386,4.650,0.001,-0.006,0.009,-7.900,-43.334,3.495
19:18:06:407,4.671,0.003,-0.003,0.008,-7.900,-43.334,3.495
19:18:06:462,4.726,0.005,-0.008,0.007,-7.900,-43.334,3.495
19:18:06:462,4.726,0.003,-0.005,0.007,-7.900,-43.334,3.495
19:18:06:487,4.751,0.009,0.000,0.005,-7.900,-43.334,3.495
19:18:06:512,4.776,0.003,-0.005,0.008,-7.900,-43.334,3.495
19:18:06:537,4.801,0.007,-0.004,0.002,-7.900,-43.334,3.495
19:18:06:563,4.827,0.002,-0.005,0.008,-7.900,-43.334,3.495
19:18:06:589,4.854,0.008,-0.004,0.000,-7.900,-43.334,3.495
19:18:06:646,4.910,0.005,-0.005,0.008,-7.900,-43.334,3.495
19:18:06:646,4.910,0.012,-0.003,-0.002,-7.900,-43.334,3.495
19:18:06:669,4.933,-0.001,-0.004,0.011,-7.900,-43.334,3.495
19:18:06:723,4.987,0.008,-0.002,0.000,-7.900,-43.334,3.495
19:18:06:724,4.988,0.002,-0.009,0.009,-7.903,-43.359,3.491
19:18:06:747,5.011,0.007,-0.003,0.003,-7.898,-43.375,3.498
19:18:06:802,5.066,0.002,-0.005,0.008,-7.899,-43.402,3.505
19:18:06:827,5.091,0.007,-0.001,0.006,-7.897,-43.416,3.501
19:18:06:857,5.121,0.006,-0.007,0.006,-7.898,-43.422,3.506
19:18:06:857,5.121,0.007,-0.004,0.002,-7.898,-43.422,3.506
19:18:06:908,5.172,0.005,-0.005,0.006,-7.898,-43.422,3.506
19:18:06:908,5.172,0.010,-0.003,0.002,-7.898,-43.422,3.506
19:18:06:93,5.194,0.003,-0.004,0.007,-7.898,-43.422,3.506
19:18:06:986,5.250,0.006,-0.002,0.005,-7.898,-43.422,3.506
19:18:06:987,5.251,0.008,-0.004,0.003,-7.898,-43.422,3.506
19:18:07:01,5.274,0.007,-0.003,0.004,-7.898,-43.422,3.506
19:18:07:036,5.300,0.005,-0.004,0.006,-7.898,-43.422,3.506
19:18:07:115,5.379,0.009,-0.005,0.003,-7.898,-43.422,3.506
19:18:07:177,5.441,0.005,-0.002,0.007,-7.898,-43.422,3.506
19:18:07:177,5.441,0.007,-0.004,0.003,-7.898,-43.422,3.506
19:18:07:177,5.441,0.002,-0.005,0.008,-7.898,-43.422,3.506
19:18:07:178,5.442,0.007,-0.003,0.004,-7.898,-43.422,3.506
19:18:07:193,5.457,0.005,-0.003,0.004,-7.898,-43.422,3.506
19:18:07:249,5.513,0.009,-0.003,0.005,-7.898,-43.422,3.506
19:18:07:249,5.513,0.007,-0.004,0.003,-7.898,-43.422,3.506
19:18:07:272,5.536,0.003,-0.005,0.006,-7.898,-43.422,3.506
19:18:07:301,5.565,0.007,-0.005,0.003,-7.898,-43.422,3.506
19:18:07:352,5.617,0.004,-0.006,0.005,-7.898,-43.422,3.506
19:18:07:38,5.644,0.011,-0.002,0.002,-7.898,-43.422,3.506
19:18:07:381,5.645,0.005,-0.004,0.006,-7.898,-43.422,3.506
19:18:07:432,5.696,0.011,-0.001,-0.001,-7.898,-43.422,3.506
19:18:07:433,5.697,0.004,-0.005,0.008,-7.898,-43.422,3.506
19:18:07:457,5.721,0.007,-0.003,0.004,-7.898,-43.422,3.506
19:18:07:512,5.776,0.004,-0.005,0.007,-7.898,-43.422,3.506
19:18:07:513,5.777,0.010,-0.001,-0.001,-7.898,-43.422,3.506
19:18:07:564,5.828,0.005,-0.004,0.008,-7.898,-43.422,3.506
19:18:07:564,5.828,0.006,-0.004,0.003,-7.898,-43.422,3.506
19:18:07:645,5.909,0.002,-0.003,0.008,-7.898,-43.422,3.506
19:18:07:646,5.910,0.005,-0.004,0.003,-7.898,-43.422,3.506
19:18:07:647,5.911,0.006,-0.005,-0.001,-7.898,-43.431,3.507
19:18:07:695,5.959,0.002,-0.006,0.009,-7.892,-43.437,3.504
19:18:07:695,5.959,0.004,-0.001,0.005,-7.892,-43.437,3.504
19:18:07:718,5.983,0.004,-0.006,0.004,-7.892,-43.437,3.504
19:18:07:744,6.008,0.007,-0.004,0.003,-7.892,-43.437,3.504
19:18:07:771,6.035,0.007,-0.005,0.003,-7.892,-43.437,3.504
19:18:07:797,6.061,0.002,-0.003,0.005,-7.892,-43.437,3.504
19:18:07:826,6.090,0.009,-0.002,0.002,-7.892,-43.437,3.504
19:18:07:827,6.091,0.005,-0.006,0.004,-7.892,-43.437,3.504
19:18:07:906,6.170,0.005,-0.003,0.005,-7.892,-43.437,3.504
19:18:07:906,6.170,0.004,-0.003,0.004,-7.892,-43.437,3.504
19:18:07:958,6.222,0.004,-0.002,0.004,-7.892,-43.437,3.504
19:18:07:958,6.222,0.004,-0.003,0.003,-7.892,-43.437,3.504
19:18:07:982,6.246,0.006,-0.001,0.000,-7.892,-43.437,3.504
19:18:08:007,6.271,0.001,-0.003,0.006,-7.892,-43.437,3.504
19:18:08:062,6.326,0.007,-0.004,0.001,-7.892,-43.437,3.504
19:18:08:063,6.327,0.005,-0.003,0.004,-7.892,-43.437,3.504
19:18:08:114,6.378,0.008,-0.003,0.000,-7.892,-43.437,3.504
19:18:08:141,6.405,0.005,-0.004,0.004,-7.892,-43.437,3.504
19:18:08:142,6.406,0.009,-0.003,-0.003,-7.892,-43.437,3.504
19:18:08:166,6.430,0.002,-0.005,0.006,-7.892,-43.437,3.504
19:18:08:222,6.486,0.007,-0.006,-0.001,-7.892,-43.437,3.504
19:18:08:222,6.486,0.003,-0.006,0.005,-7.901,-43.437,3.501
19:18:08:243,6.507,0.009,-0.005,0.000,-7.901,-43.437,3.501
19:18:08:328,6.592,0.003,-0.005,0.006,-7.901,-43.437,3.501
19:18:08:329,6.593,0.005,-0.003,0.002,-7.898,-43.441,3.487
19:18:08:329,6.593,0.002,-0.005,0.006,-7.895,-43.440,3.477
19:18:08:349,6.613,0.008,-0.005,0.000,-7.895,-43.440,3.477
19:18:08:374,6.638,0.002,-0.003,0.006,-7.895,-43.440,3.477
19:18:08:401,6.665,0.004,-0.005,0.003,-7.894,-43.435,3.472
19:18:08:427,6.691,0.003,-0.005,0.005,-7.896,-43.435,3.461
19:18:08:453,6.717,0.006,-0.006,0.002,-7.894,-43.435,3.452
19:18:08:48,6.744,0.003,-0.003,0.005,-7.898,-43.438,3.446
19:18:08:506,6.770,0.005,-0.004,0.004,-7.896,-43.437,3.436
19:18:08:534,6.798,0.005,-0.003,0.004,-7.895,-43.437,3.416
19:18:08:587,6.851,0.006,-0.001,0.000,-7.895,-43.437,3.416
19:18:08:588,6.852,0.003,-0.006,0.005,-7.895,-43.437,3.416
19:18:08:612,6.876,0.002,-0.005,0.004,-7.895,-43.437,3.416
19:18:08:668,6.932,0.004,-0.002,0.005,-7.895,-43.437,3.416
19:18:08:668,6.932,0.003,-0.005,0.003,-7.895,-43.437,3.416
19:18:08:69,6.954,0.005,-0.006,0.004,-7.895,-43.437,3.416
19:18:08:716,6.980,0.002,-0.003,0.005,-7.895,-43.437,3.416
19:18:08:744,7.008,0.008,-0.006,0.001,-7.895,-43.437,3.416
19:18:08:769,7.033,0.003,-0.002,0.004,-7.895,-43.437,3.416
19:18:08:852,7.117,0.005,-0.005,0.002,-7.895,-43.437,3.416
19:18:08:853,7.118,0.003,-0.003,0.007,-7.895,-43.437,3.416
19:18:08:854,7.118,0.007,-0.003,0.000,-7.895,-43.437,3.416
19:18:08:873,7.137,0.003,-0.005,0.007,-7.895,-43.437,3.416
19:18:08:929,7.193,0.004,-0.003,0.004,-7.895,-43.437,3.416
19:18:08:93,7.194,0.002,-0.004,0.007,-7.895,-43.437,3.416
19:18:08:954,7.218,0.007,-0.002,0.002,-7.895,-43.437,3.416
19:18:08:979,7.243,0.000,-0.005,0.006,-7.897,-43.432,3.420
19:18:09:005,7.269,0.009,-0.004,-0.001,-7.897,-43.432,3.420
19:18:09:06,7.324,0.002,-0.003,0.005,-7.897,-43.432,3.420
19:18:09:06,7.324,0.006,-0.006,0.003,-7.897,-43.432,3.420
19:18:09:11,7.374,0.000,-0.003,0.007,-7.897,-43.432,3.420
19:18:09:139,7.403,0.004,-0.003,0.003,-7.897,-43.432,3.420
19:18:09:139,7.403,0.000,-0.004,0.009,-7.897,-43.432,3.420
19:18:09:193,7.457,0.004,-0.006,0.005,-7.897,-43.432,3.420
19:18:09:193,7.457,0.003,-0.003,0.005,-7.897,-43.432,3.420
19:18:09:216,7.481,0.004,-0.003,0.006,-7.897,-43.432,3.420
19:18:09:243,7.507,0.005,-0.005,0.001,-7.897,-43.432,3.420
19:18:09:296,7.560,0.008,-0.007,0.003,-7.902,-43.431,3.419
19:18:09:322,7.586,0.003,-0.001,0.006,-7.902,-43.431,3.419
19:18:09:323,7.587,0.005,-0.005,0.003,-7.902,-43.431,3.419
19:18:09:346,7.610,0.000,-0.001,0.010,-7.902,-43.431,3.419
19:18:09:372,7.636,0.004,-0.004,0.009,-7.902,-43.431,3.419
19:18:09:398,7.663,0.003,-0.004,0.006,-7.902,-43.431,3.419
19:18:09:424,7.688,0.002,-0.003,0.005,-7.902,-43.431,3.419
19:18:09:453,7.717,0.003,-0.004,0.007,-7.901,-43.426,3.414
19:18:09:478,7.742,0.004,-0.006,0.005,-7.901,-43.416,3.413
19:18:09:564,7.828,0.001,-0.005,0.009,-7.901,-43.416,3.413
19:18:09:564,7.828,0.002,-0.004,0.007,-7.901,-43.416,3.413
19:18:09:564,7.828,0.003,-0.004,0.004,-7.901,-43.416,3.413
19:18:09:584,7.848,0.004,-0.003,0.006,-7.901,-43.416,3.413
19:18:09:636,7.900,0.005,-0.005,0.003,-7.901,-43.416,3.413
19:18:09:664,7.928,0.003,-0.005,0.005,-7.901,-43.416,3.413
19:18:09:665,7.929,0.005,-0.002,0.004,-7.901,-43.416,3.413
19:18:09:687,7.951,0.002,-0.004,0.007,-7.901,-43.416,3.413
19:18:09:713,7.977,0.005,-0.004,0.004,-7.901,-43.416,3.413
19:18:09:739,8.003,-0.001,-0.005,0.009,-7.901,-43.416,3.413
19:18:09:765,8.030,0.007,-0.002,0.002,-7.901,-43.416,3.413
19:18:09:821,8.085,0.001,-0.001,0.008,-7.901,-43.416,3.413
19:18:09:822,8.086,0.005,-0.002,0.004,-7.901,-43.416,3.413
19:18:09:844,8.108,0.001,-0.004,0.009,-7.901,-43.416,3.413
19:18:09:9,8.164,0.006,-0.004,0.005,-7.901,-43.416,3.413
19:18:09:9,8.164,0.001,-0.005,0.007,-7.901,-43.416,3.413
19:18:09:925,8.189,0.003,-0.004,0.007,-7.901,-43.416,3.413
19:18:09:95,8.215,0.004,-0.006,0.007,-7.901,-43.416,3.413
19:18:10:038,8.302,0.004,-0.001,0.005,-7.901,-43.416,3.413
19:18:10:039,8.303,0.006,-0.003,0.007,-7.901,-43.416,3.413
19:18:10:039,8.303,0.006,-0.005,0.002,-7.901,-43.416,3.413
19:18:10:04,8.304,0.005,-0.004,0.006,-7.901,-43.416,3.413
19:18:10:084,8.348,0.006,-0.003,0.004,-7.901,-43.416,3.413
19:18:10:084,8.348,0.000,-0.005,0.010,-7.901,-43.416,3.413
19:18:10:166,8.430,0.002,-0.006,0.006,-7.901,-43.416,3.413
19:18:10:166,8.430,0.003,-0.003,0.010,-7.911,-43.422,3.416
19:18:10:167,8.431,0.003,-0.003,0.008,-7.927,-43.416,3.417
19:18:10:215,8.479,0.005,-0.005,0.004,-7.932,-43.418,3.416
19:18:10:216,8.480,0.003,-0.003,0.007,-7.952,-43.423,3.417
19:18:10:298,8.562,0.008,-0.004,0.003,-7.952,-43.423,3.417
19:18:10:299,8.563,0.005,-0.004,0.006,-7.967,-43.422,3.413
19:18:10:299,8.563,0.008,-0.005,0.003,-7.989,-43.423,3.418
19:18:10:317,8.581,0.006,-0.006,0.005,-7.989,-43.423,3.418
19:18:10:343,8.607,0.011,-0.002,-0.002,-7.994,-43.422,3.417
19:18:10:369,8.633,0.004,0.000,0.005,-7.994,-43.422,3.417
19:18:10:398,8.662,0.011,-0.006,-0.002,-7.994,-43.422,3.417
19:18:10:422,8.686,0.004,-0.006,0.007,-7.994,-43.422,3.417
19:18:10:478,8.742,0.012,-0.004,-0.002,-7.994,-43.422,3.417
19:18:10:478,8.742,0.005,-0.004,0.004,-7.994,-43.422,3.417
19:18:10:53,8.794,0.011,-0.002,-0.002,-7.994,-43.422,3.417
19:18:10:531,8.795,0.004,-0.008,0.005,-7.994,-43.422,3.417
19:18:10:553,8.817,0.006,-0.002,0.005,-7.994,-43.422,3.417
19:18:10:608,8.872,0.005,-0.005,0.006,-7.994,-43.422,3.417
19:18:10:609,8.873,0.007,-0.004,0.005,-7.994,-43.422,3.417
19:18:10:632,8.896,0.005,-0.003,0.005,-7.994,-43.422,3.417
19:18:10:688,8.952,0.010,-0.003,0.003,-7.994,-43.422,3.417
19:18:10:688,8.952,0.006,-0.003,0.005,-7.994,-43.422,3.417
19:18:10:71,8.975,0.011,-0.004,0.001,-7.994,-43.422,3.417
19:18:10:739,9.003,0.007,-0.002,0.005,-7.994,-43.422,3.417
19:18:10:792,9.056,0.010,-0.005,0.001,-7.994,-43.422,3.417
19:18:10:793,9.057,0.007,-0.003,0.007,-7.994,-43.422,3.417
19:18:10:816,9.080,0.012,-0.002,0.000,-7.994,-43.422,3.417
19:18:10:871,9.135,0.008,-0.003,0.007,-7.994,-43.422,3.417
19:18:10:872,9.136,0.006,-0.007,0.003,-7.994,-43.422,3.417
19:18:10:894,9.159,0.008,-0.006,0.004,-7.994,-43.422,3.417
19:18:10:921,9.185,0.007,-0.003,0.006,-7.994,-43.422,3.417
19:18:10:978,9.242,0.009,-0.005,0.005,-7.994,-43.422,3.417
19:18:10:978,9.242,0.010,-0.005,0.005,-7.994,-43.422,3.417
19:18:11:058,9.322,0.010,-0.006,0.000,-7.994,-43.422,3.417
19:18:11:058,9.322,0.010,-0.004,0.005,-7.994,-43.422,3.417
19:18:11:059,9.323,0.010,-0.003,-0.001,-7.994,-43.422,3.417
19:18:11:078,9.342,0.008,-0.005,0.005,-7.994,-43.422,3.417
19:18:11:134,9.398,0.010,-0.005,-0.001,-7.994,-43.422,3.417
19:18:11:134,9.398,0.008,-0.005,0.005,-7.994,-43.422,3.417
19:18:11:158,9.422,0.012,-0.003,0.000,-7.994,-43.422,3.417
19:18:11:244,9.508,0.008,-0.004,0.004,-7.994,-43.422,3.417
19:18:11:244,9.508,0.012,-0.004,-0.002,-7.994,-43.422,3.417
19:18:11:244,9.508,0.006,-0.004,0.005,-7.994,-43.422,3.417
19:18:11:264,9.529,0.013,-0.001,-0.001,-7.994,-43.422,3.417
19:18:11:289,9.553,0.005,-0.007,0.004,-7.994,-43.422,3.417
19:18:11:315,9.579,0.010,-0.005,0.003,-7.994,-43.422,3.417
19:18:11:341,9.605,0.005,-0.004,0.004,-7.994,-43.422,3.417
19:18:11:398,9.662,0.015,-0.004,-0.006,-7.998,-43.423,3.416
19:18:11:398,9.662,0.009,-0.004,0.000,-8.008,-43.423,3.414
19:18:11:419,9.683,0.011,-0.003,0.003,-8.008,-43.423,3.414
19:18:11:446,9.710,0.007,-0.003,0.004,-8.008,-43.423,3.414
19:18:11:503,9.767,0.010,-0.005,0.000,-8.008,-43.423,3.414
19:18:11:503,9.767,0.008,-0.006,0.002,-8.008,-43.423,3.414
19:18:11:525,9.789,0.011,-0.003,-0.001,-8.008,-43.423,3.414
19:18:11:58,9.844,0.007,-0.006,0.001,-8.008,-43.423,3.414
19:18:11:581,9.845,0.012,0.000,0.000,-8.008,-43.423,3.414
19:18:11:604,9.868,0.007,-0.006,0.002,-8.008,-43.423,3.414
19:18:11:63,9.894,0.009,-0.003,0.001,-8.008,-43.423,3.414
19:18:11:655,9.920,0.009,-0.006,0.005,-8.008,-43.423,3.414
19:18:11:682,9.946,0.007,-0.003,0.005,-8.008,-43.423,3.414
19:18:11:766,10.030,0.010,-0.005,0.003,-8.008,-43.423,3.414
19:18:11:767,10.031,0.008,-0.002,0.003,-8.008,-43.423,3.414
19:18:11:768,10.032,0.010,-0.005,-0.001,-8.008,-43.423,3.414
19:18:11:787,10.051,0.007,-0.005,0.003,-8.008,-43.423,3.414
19:18:11:841,10.105,0.012,-0.003,-0.002,-8.008,-43.423,3.414
19:18:11:87,10.134,0.009,-0.004,0.001,-8.008,-43.423,3.414
19:18:11:87,10.134,0.014,-0.003,-0.002,-8.008,-43.423,3.414
19:18:11:892,10.156,0.007,-0.004,0.003,-8.008,-43.423,3.414
19:18:11:947,10.211,0.012,-0.004,-0.003,-8.008,-43.423,3.414
19:18:11:948,10.212,0.008,-0.006,0.002,-8.008,-43.423,3.414
19:18:11:971,10.235,0.013,0.001,-0.002,-8.008,-43.423,3.414
19:18:12:026,10.290,0.006,-0.008,0.003,-8.008,-43.423,3.414
19:18:12:027,10.291,0.014,-0.001,-0.003,-8.008,-43.423,3.414
19:18:12:05,10.314,0.007,-0.004,0.002,-8.008,-43.423,3.414
19:18:12:077,10.341,0.009,-0.005,0.002,-8.008,-43.423,3.414
19:18:12:102,10.366,0.007,-0.004,0.006,-8.008,-43.423,3.414
19:18:12:128,10.392,0.011,-0.002,0.002,-8.008,-43.423,3.414
19:18:12:154,10.418,0.009,-0.004,0.005,-8.008,-43.423,3.414
19:18:12:239,10.503,0.009,-0.005,0.000,-8.008,-43.423,3.414
19:18:12:24,10.504,0.007,-0.006,0.005,-8.008,-43.423,3.414
19:18:12:241,10.505,0.008,-0.006,0.002,-8.008,-43.423,3.414
19:18:12:318,10.582,0.007,-0.003,0.004,-8.008,-43.423,3.414
19:18:12:318,10.582,0.009,-0.003,0.001,-8.008,-43.423,3.414
19:18:12:319,10.583,0.005,-0.004,0.007,-8.008,-43.423,3.414
19:18:12:367,10.631,0.007,-0.005,0.003,-8.008,-43.423,3.414
19:18:12:368,10.632,0.008,-0.007,0.006,-8.008,-43.423,3.414
19:18:12:423,10.687,0.005,-0.005,0.006,-8.008,-43.423,3.414
19:18:12:424,10.688,0.003,-0.003,0.008,-8.008,-43.423,3.414
19:18:12:424,10.688,0.006,-0.005,0.005,-8.008,-43.423,3.414
19:18:12:472,10.736,0.012,-0.004,0.003,-8.008,-43.423,3.414
19:18:12:473,10.737,0.009,-0.002,0.003,-8.008,-43.423,3.414
19:18:12:554,10.818,0.015,-0.006,0.002,-8.008,-43.423,3.414
19:18:12:555,10.819,0.007,-0.003,0.006,-8.008,-43.423,3.414
19:18:12:556,10.820,0.011,-0.005,0.002,-8.008,-43.423,3.414
19:18:12:604,10.868,0.010,-0.004,0.007,-8.008,-43.423,3.414
19:18:12:605,10.869,0.010,-0.004,0.003,-8.008,-43.423,3.414
19:18:12:627,10.891,0.006,-0.008,0.005,-8.008,-43.423,3.414
19:18:12:684,10.948,0.012,-0.001,0.000,-8.008,-43.423,3.414
19:18:12:684,10.948,0.003,-0.003,0.009,-8.008,-43.423,3.414
19:18:12:735,10.999,0.010,-0.005,0.000,-8.008,-43.423,3.414
19:18:12:736,11.000,0.007,-0.004,0.008,-8.008,-43.423,3.414
19:18:12:758,11.023,0.011,-0.004,0.001,-8.008,-43.423,3.414
19:18:12:814,11.078,0.005,-0.005,0.008,-8.008,-43.423,3.414
19:18:12:814,11.078,0.008,-0.005,0.006,-8.008,-43.423,3.414
19:18:12:837,11.101,0.008,-0.003,0.009,-8.008,-43.423,3.414
19:18:12:863,11.127,0.010,-0.003,0.005,-8.008,-43.423,3.414
19:18:12:919,11.183,0.006,-0.006,0.008,-8.008,-43.423,3.414
19:18:12:919,11.183,0.006,-0.004,0.005,-8.008,-43.423,3.414
19:18:12:944,11.208,0.003,-0.006,0.010,-8.008,-43.423,3.414
19:18:12:997,11.261,0.008,-0.008,0.006,-8.008,-43.423,3.414
19:18:12:998,11.262,0.008,-0.003,0.007,-8.018,-43.429,3.417
19:18:13:021,11.285,0.010,-0.002,0.006,-8.034,-43.423,3.418
19:18:13:077,11.341,0.008,-0.006,0.006,-8.034,-43.423,3.418
19:18:13:077,11.341,0.008,-0.006,0.007,-8.034,-43.423,3.418
19:18:13:129,11.393,0.003,-0.006,0.008,-8.034,-43.423,3.418
19:18:13:129,11.393,0.008,-0.004,0.008,-8.034,-43.423,3.418
19:18:13:181,11.445,0.006,-0.006,0.008,-8.034,-43.423,3.418
19:18:13:182,11.446,0.006,-0.005,0.008,-8.034,-43.423,3.418
19:18:13:206,11.470,0.014,-0.002,0.001,-8.034,-43.423,3.418
19:18:13:231,11.496,0.008,-0.005,0.007,-8.034,-43.423,3.418
19:18:13:258,11.522,0.014,-0.004,0.000,-8.034,-43.423,3.418
19:18:13:284,11.548,0.009,-0.004,0.008,-8.044,-43.423,3.416
19:18:13:31,11.574,0.010,-0.002,0.007,-8.044,-43.423,3.416
19:18:13:336,11.600,0.008,-0.007,0.008,-8.044,-43.423,3.416
19:18:13:389,11.653,0.010,-0.005,0.002,-8.055,-43.429,3.418
19:18:13:447,11.711,0.007,-0.005,0.007,-8.055,-43.429,3.418
19:18:13:447,11.711,0.012,-0.004,0.000,-8.049,-43.422,3.414
19:18:13:448,11.712,0.008,-0.005,0.006,-8.049,-43.422,3.414
19:18:13:47,11.734,0.015,-0.004,0.000,-8.049,-43.422,3.414
19:18:13:522,11.786,0.005,-0.008,0.007,-8.049,-43.422,3.414
19:18:13:523,11.787,0.008,-0.005,0.004,-8.049,-43.422,3.414
19:18:13:547,11.811,0.008,-0.005,0.007,-8.049,-43.422,3.414
19:18:13:572,11.836,0.011,-0.007,0.004,-8.049,-43.422,3.414
19:18:13:628,11.892,0.009,-0.004,0.006,-8.049,-43.422,3.414
19:18:13:654,11.918,0.015,-0.003,0.000,-8.049,-43.422,3.414
19:18:13:655,11.919,0.008,-0.007,0.009,-8.049,-43.422,3.414
19:18:13:706,11.970,0.008,-0.004,0.006,-8.049,-43.422,3.414
19:18:13:707,11.971,0.007,-0.004,0.004,-8.049,-43.422,3.414
19:18:13:729,11.993,0.012,-0.003,0.003,-8.049,-43.422,3.414
19:18:13:756,12.020,0.012,-0.003,0.005,-8.049,-43.422,3.414
19:18:13:782,12.046,0.008,-0.005,0.001,-8.049,-43.422,3.414
19:18:13:808,12.072,0.008,-0.002,0.006,-8.049,-43.422,3.414
19:18:13:835,12.099,0.007,-0.002,0.006,-8.049,-43.422,3.414
19:18:13:89,12.154,0.008,-0.006,0.006,-8.049,-43.422,3.414
19:18:13:891,12.155,0.008,-0.005,0.006,-8.049,-43.422,3.414
19:18:13:913,12.177,0.008,-0.005,0.006,-8.049,-43.422,3.414
19:18:13:968,12.232,0.010,-0.003,0.006,-8.049,-43.422,3.414
19:18:13:969,12.233,0.008,-0.006,0.005,-8.049,-43.422,3.414
19:18:13:994,12.258,0.007,-0.004,0.003,-8.049,-43.422,3.414
19:18:14:046,12.310,0.012,-0.005,0.000,-8.049,-43.422,3.414
19:18:14:074,12.338,0.007,-0.003,0.006,-8.049,-43.422,3.414
19:18:14:074,12.338,0.011,-0.002,-0.001,-8.049,-43.422,3.414
19:18:14:097,12.361,0.007,-0.005,0.005,-8.049,-43.422,3.414
19:18:14:181,12.446,0.013,-0.001,-0.001,-8.049,-43.422,3.414
19:18:14:182,12.446,0.006,-0.005,0.008,-8.049,-43.422,3.414
19:18:14:183,12.447,0.013,-0.004,0.000,-8.049,-43.422,3.414
19:18:14:202,12.466,0.008,-0.005,0.006,-8.049,-43.422,3.414
19:18:14:229,12.493,0.014,-0.003,0.000,-8.049,-43.422,3.414
19:18:14:257,12.521,0.005,-0.006,0.008,-8.049,-43.422,3.414
19:18:14:311,12.575,0.014,-0.004,0.001,-8.049,-43.422,3.414
19:18:14:311,12.575,0.005,-0.006,0.006,-8.049,-43.422,3.414
19:18:14:333,12.597,0.010,-0.005,0.003,-8.049,-43.422,3.414
19:18:14:419,12.683,0.006,-0.004,0.008,-8.049,-43.422,3.414
19:18:14:419,12.683,0.008,-0.006,0.003,-8.049,-43.422,3.414
19:18:14:419,12.683,0.005,-0.003,0.008,-8.049,-43.422,3.414
19:18:14:439,12.703,0.010,-0.005,0.001,-8.049,-43.422,3.414
19:18:14:494,12.758,0.006,-0.005,0.009,-8.049,-43.422,3.414
19:18:14:494,12.758,0.009,-0.006,0.003,-8.049,-43.422,3.414
19:18:14:518,12.782,0.008,-0.006,0.007,-8.049,-43.422,3.414
19:18:14:544,12.808,0.009,-0.007,0.003,-8.049,-43.422,3.414
19:18:14:599,12.863,0.008,-0.003,0.007,-8.049,-43.422,3.414
19:18:14:599,12.863,0.006,-0.006,0.005,-8.049,-43.422,3.414
19:18:14:622,12.886,0.003,-0.005,0.006,-8.049,-43.422,3.414
19:18:14:682,12.946,0.007,-0.003,0.006,-8.049,-43.422,3.414
19:18:14:682,12.946,0.003,-0.006,0.009,-8.049,-43.422,3.414
19:18:14:682,12.946,0.007,-0.006,0.005,-8.049,-43.422,3.414
19:18:14:76,13.024,0.005,-0.004,0.006,-8.049,-43.422,3.414
19:18:14:76,13.024,0.009,-0.006,0.003,-8.049,-43.422,3.414
19:18:14:761,13.025,0.011,-0.001,0.002,-8.049,-43.422,3.414
19:18:14:78,13.044,0.006,-0.004,0.006,-8.049,-43.422,3.414
19:18:14:806,13.070,0.010,-0.005,0.003,-8.049,-43.422,3.414
19:18:14:89,13.154,0.009,-0.003,0.005,-8.049,-43.422,3.414
19:18:14:891,13.155,0.011,-0.001,0.002,-8.049,-43.422,3.414
19:18:14:892,13.156,0.003,-0.008,0.006,-8.049,-43.422,3.414
19:18:14:94,13.205,0.012,-0.003,-0.002,-8.049,-43.422,3.414
19:18:14:941,13.205,0.005,-0.005,0.004,-8.049,-43.422,3.414
19:18:14:964,13.228,0.011,-0.004,0.001,-8.049,-43.422,3.414
19:18:15:048,13.312,0.004,-0.005,0.007,-8.049,-43.422,3.414
19:18:15:049,13.313,0.010,-0.005,0.003,-8.049,-43.422,3.414
19:18:15:049,13.313,0.005,-0.007,0.007,-8.049,-43.422,3.414
19:18:15:068,13.332,0.011,-0.004,0.004,-8.049,-43.422,3.414
19:18:15:127,13.391,0.003,-0.007,0.009,-8.049,-43.422,3.414
19:18:15:127,13.391,0.010,-0.004,0.001,-8.049,-43.422,3.414
19:18:15:149,13.413,0.004,-0.005,0.007,-8.051,-43.408,3.418
19:18:15:202,13.466,0.009,-0.005,0.003,-8.051,-43.408,3.418
19:18:15:203,13.467,0.004,-0.005,0.008,-8.051,-43.408,3.418
19:18:15:227,13.491,0.009,-0.005,0.005,-8.051,-43.408,3.418
19:18:15:419,13.683,0.007,-0.005,0.005,-8.051,-43.408,3.418
19:18:15:42,13.684,0.008,-0.002,0.003,-8.051,-43.408,3.418
19:18:15:421,13.685,0.006,-0.005,0.005,-8.051,-43.408,3.418
19:18:15:421,13.685,0.006,-0.002,0.005,-8.051,-43.408,3.418
19:18:15:464,13.728,0.006,-0.006,0.006,-8.051,-43.408,3.418
19:18:15:499,13.763,0.006,-0.005,0.006,-8.051,-43.408,3.418
19:18:15:499,13.763,0.006,-0.007,0.008,-8.051,-43.408,3.418
19:18:15:499,13.763,0.007,-0.005,0.007,-8.051,-43.408,3.418
19:18:15:5,13.764,0.005,-0.006,0.005,-8.051,-43.408,3.418
19:18:15:519,13.783,0.005,-0.005,0.004,-8.051,-43.408,3.418
19:18:15:519,13.783,0.008,-0.005,0.000,-8.051,-43.408,3.418
19:18:15:54,13.805,0.005,-0.004,0.009,-8.051,-43.408,3.418
19:18:15:596,13.860,0.009,-0.002,0.004,-8.051,-43.408,3.418
19:18:15:597,13.861,0.005,-0.006,0.007,-8.051,-43.408,3.418
19:18:15:649,13.913,0.010,-0.004,0.003,-8.051,-43.408,3.418
19:18:15:649,13.913,0.005,-0.005,0.006,-8.051,-43.408,3.418
19:18:15:672,13.936,0.008,-0.003,0.004,-8.051,-43.408,3.418
19:18:15:728,13.992,0.007,-0.005,0.010,-8.051,-43.408,3.418
19:18:15:728,13.993,0.011,-0.001,0.002,-8.051,-43.408,3.418
19:18:15:751,14.015,0.005,-0.004,0.007,-8.051,-43.408,3.418
19:18:15:779,14.043,0.009,-0.003,0.004,-8.051,-43.408,3.418
19:18:15:832,14.096,0.005,-0.005,0.006,-8.051,-43.408,3.418
19:18:15:833,14.097,0.008,-0.002,0.004,-8.051,-43.408,3.418
19:18:15:856,14.120,0.001,-0.003,0.007,-8.051,-43.408,3.418
19:18:15:909,14.174,0.007,-0.005,0.003,-8.051,-43.408,3.418
19:18:15:937,14.201,0.001,-0.005,0.007,-8.051,-43.408,3.418
19:18:15:938,14.202,0.004,-0.003,0.007,-8.051,-43.408,3.418
19:18:15:962,14.226,0.004,-0.004,0.009,-8.051,-43.408,3.418
19:18:16:018,14.282,0.007,-0.001,0.005,-8.051,-43.408,3.418
19:18:16:018,14.282,0.006,-0.005,0.005,-8.051,-43.408,3.418
19:18:16:039,14.303,0.009,-0.006,0.003,-8.051,-43.408,3.418
19:18:16:094,14.359,0.005,-0.004,0.010,-8.051,-43.408,3.418
19:18:16:095,14.360,0.004,-0.003,0.006,-8.051,-43.408,3.418
19:18:16:147,14.411,0.001,-0.004,0.013,-8.051,-43.408,3.418
19:18:16:148,14.412,0.004,-0.006,0.007,-8.051,-43.408,3.418
19:18:16:171,14.435,0.002,-0.004,0.009,-8.051,-43.408,3.418
19:18:16:198,14.462,0.005,-0.005,0.006,-8.051,-43.408,3.418
19:18:16:225,14.489,0.004,-0.004,0.006,-8.051,-43.408,3.418
19:18:16:249,14.513,0.004,-0.004,0.006,-8.051,-43.408,3.418
19:18:16:276,14.541,0.006,-0.004,0.002,-8.051,-43.408,3.418
19:18:16:304,14.568,0.005,-0.005,0.008,-8.051,-43.408,3.418
19:18:16:358,14.622,0.009,-0.004,0.001,-8.051,-43.408,3.418
19:18:16:359,14.623,0.002,-0.003,0.009,-8.051,-43.408,3.418
19:18:16:381,14.645,0.008,0.000,0.005,-8.051,-43.408,3.418
19:18:16:436,14.700,0.002,-0.006,0.010,-8.051,-43.408,3.418
19:18:16:437,14.701,0.007,-0.004,0.002,-8.051,-43.408,3.418
19:18:16:459,14.724,0.001,-0.003,0.009,-8.051,-43.408,3.418
19:18:16:488,14.752,0.007,-0.001,0.004,-8.051,-43.408,3.418
19:18:16:543,14.807,0.001,-0.006,0.010,-8.051,-43.408,3.418
19:18:16:543,14.807,0.005,-0.005,0.003,-8.051,-43.408,3.418
19:18:16:626,14.890,0.002,-0.010,0.009,-8.051,-43.408,3.418
19:18:16:626,14.890,0.004,-0.002,0.006,-8.051,-43.408,3.418
19:18:16:626,14.890,0.000,-0.003,0.010,-8.060,-43.408,3.416
19:18:16:643,14.907,0.004,-0.001,0.004,-8.060,-43.408,3.416
19:18:16:7,14.964,0.003,-0.007,0.007,-8.060,-43.408,3.416
19:18:16:7,14.964,0.002,-0.006,0.008,-8.065,-43.407,3.415
19:18:16:722,14.986,0.003,-0.007,0.005,-8.065,-43.407,3.415
19:18:16:748,15.012,0.005,-0.003,0.004,-8.065,-43.407,3.415
19:18:16:775,15.039,0.006,-0.007,0.008,-8.065,-43.407,3.415
19:18:16:801,15.065,0.007,-0.002,0.004,-8.079,-43.409,3.411
19:18:16:827,15.091,0.006,-0.002,0.005,-8.106,-43.408,3.415
19:18:16:882,15.146,0.007,-0.003,0.006,-8.116,-43.409,3.413
19:18:16:883,15.147,0.003,-0.004,0.010,-8.135,-43.409,3.408
19:18:16:908,15.172,0.005,-0.005,0.007,-8.146,-43.414,3.411
19:18:16:961,15.225,0.004,-0.003,0.009,-8.146,-43.414,3.411
19:18:16:962,15.226,0.006,-0.004,0.006,-8.155,-43.414,3.409
19:18:16:989,15.253,0.007,-0.003,0.006,-8.155,-43.414,3.409
19:18:16:989,15.253,0.005,-0.004,0.007,-8.160,-43.413,3.408
19:18:17:011,15.275,0.008,-0.004,0.004,-8.174,-43.415,3.404
19:18:17:066,15.330,0.005,-0.006,0.008,-8.191,-43.414,3.411
19:18:17:067,15.331,0.007,-0.003,0.004,-8.212,-43.420,3.411
19:18:17:092,15.356,0.007,-0.006,0.008,-8.221,-43.420,3.409
19:18:17:145,15.409,0.008,-0.008,0.004,-8.237,-43.415,3.410
19:18:17:146,15.410,0.002,-0.004,0.011,-8.252,-43.421,3.412
19:18:17:169,15.433,0.012,-0.002,0.001,-8.262,-43.421,3.410
19:18:17:196,15.460,0.005,-0.005,0.008,-8.262,-43.421,3.410
19:18:17:222,15.486,0.012,-0.004,0.003,-8.262,-43.421,3.410
19:18:17:248,15.512,0.008,-0.004,0.008,-8.262,-43.421,3.410
19:18:17:361,15.625,0.014,-0.006,-0.001,-8.262,-43.421,3.410
19:18:17:361,15.625,0.006,-0.002,0.007,-8.262,-43.421,3.410
19:18:17:362,15.626,0.010,-0.002,0.006,-8.262,-43.421,3.410
19:18:17:408,15.673,0.008,-0.005,0.005,-8.262,-43.421,3.410
19:18:17:408,15.673,0.005,-0.004,0.006,-8.262,-43.421,3.410
19:18:17:431,15.695,0.008,-0.005,0.005,-8.262,-43.421,3.410
19:18:17:459,15.723,0.006,-0.003,0.008,-8.262,-43.421,3.410
19:18:17:483,15.747,0.009,-0.004,0.008,-8.262,-43.421,3.410
19:18:17:511,15.775,0.010,-0.003,0.005,-8.262,-43.421,3.410
19:18:17:538,15.802,0.011,-0.005,0.004,-8.262,-43.421,3.410
19:18:17:591,15.856,0.007,-0.005,0.010,-8.262,-43.421,3.410
19:18:17:592,15.856,0.011,-0.005,0.004,-8.262,-43.421,3.410
19:18:17:615,15.879,0.005,-0.004,0.007,-8.262,-43.421,3.410
19:18:17:67,15.934,0.006,-0.006,0.006,-8.262,-43.421,3.410
19:18:17:671,15.935,0.003,-0.004,0.009,-8.262,-43.421,3.410
19:18:17:693,15.957,0.007,-0.004,0.006,-8.262,-43.421,3.410
19:18:17:719,15.983,0.010,-0.005,0.007,-8.262,-43.421,3.410
19:18:17:746,16.010,0.007,-0.007,0.008,-8.262,-43.421,3.410
19:18:17:774,16.039,0.014,-0.001,0.001,-8.262,-43.421,3.410
19:18:17:857,16.121,0.009,-0.004,0.005,-8.262,-43.421,3.410
19:18:17:858,16.122,0.008,-0.003,0.004,-8.262,-43.421,3.410
19:18:17:858,16.122,0.009,-0.005,0.008,-8.262,-43.421,3.410
19:18:17:878,16.142,0.012,-0.003,0.006,-8.262,-43.421,3.410
19:18:17:929,16.193,0.014,-0.003,0.000,-8.262,-43.421,3.410
19:18:17:957,16.221,0.003,-0.007,0.013,-8.262,-43.421,3.410
19:18:17:982,16.246,0.013,-0.001,0.002,-8.262,-43.421,3.410
19:18:18:037,16.301,0.008,-0.005,0.007,-8.262,-43.421,3.410
19:18:18:038,16.302,0.011,-0.003,0.004,-8.262,-43.421,3.410
19:18:18:119,16.383,0.006,-0.005,0.008,-8.262,-43.421,3.410
19:18:18:12,16.384,0.012,-0.005,0.005,-8.262,-43.421,3.410
19:18:18:12,16.384,0.007,-0.007,0.007,-8.262,-43.421,3.410
19:18:18:14,16.404,0.010,-0.005,0.005,-8.262,-43.421,3.410
19:18:18:166,16.430,0.005,-0.003,0.007,-8.262,-43.421,3.410
19:18:18:22,16.484,0.008,-0.005,0.006,-8.262,-43.421,3.410
19:18:18:248,16.512,0.005,-0.006,0.007,-8.262,-43.421,3.410
19:18:18:249,16.513,0.011,-0.007,0.006,-8.262,-43.421,3.410
19:18:18:329,16.593,0.009,-0.006,0.007,-8.262,-43.421,3.410
19:18:18:329,16.593,0.009,-0.002,0.005,-8.262,-43.421,3.410
19:18:18:33,16.594,0.005,-0.003,0.006,-8.262,-43.421,3.410
19:18:18:379,16.643,0.012,-0.003,0.001,-8.262,-43.421,3.410
19:18:18:38,16.644,0.006,-0.007,0.007,-8.262,-43.421,3.410
19:18:18:402,16.666,0.012,-0.003,0.006,-8.262,-43.421,3.410
19:18:18:431,16.695,0.001,-0.006,0.013,-8.262,-43.421,3.410
19:18:18:484,16.748,0.005,-0.006,0.007,-8.262,-43.421,3.410
19:18:18:484,16.748,0.005,-0.005,0.007,-8.262,-43.421,3.410
19:18:18:507,16.771,0.006,-0.006,0.008,-8.262,-43.421,3.410
19:18:18:563,16.827,0.012,-0.005,0.004,-8.262,-43.421,3.410
19:18:18:563,16.827,0.006,-0.006,0.008,-8.262,-43.421,3.410
19:18:18:587,16.851,0.009,-0.004,0.006,-8.262,-43.421,3.410
19:18:18:642,16.906,0.005,-0.005,0.008,-8.262,-43.421,3.410
19:18:18:642,16.906,0.007,-0.003,0.006,-8.262,-43.421,3.410
19:18:18:664,16.928,0.007,-0.005,0.008,-8.262,-43.421,3.410
19:18:18:692,16.956,0.009,-0.001,0.004,-8.262,-43.421,3.410
19:18:18:717,16.982,0.005,-0.005,0.010,-8.262,-43.421,3.410
19:18:18:774,17.038,0.012,-0.004,0.003,-8.262,-43.421,3.410
19:18:18:774,17.038,0.004,-0.005,0.010,-8.262,-43.421,3.410
19:18:18:825,17.089,0.008,-0.006,0.007,-8.262,-43.421,3.410
19:18:18:826,17.090,0.004,-0.004,0.010,-8.262,-43.421,3.410
19:18:18:848,17.112,0.008,-0.005,0.006,-8.262,-43.421,3.410
19:18:18:905,17.170,0.004,-0.004,0.011,-8.262,-43.421,3.410
19:18:18:906,17.170,0.008,-0.003,0.006,-8.262,-43.421,3.410
19:18:18:927,17.191,0.006,-0.003,0.009,-8.262,-43.421,3.410
19:18:18:954,17.218,0.007,-0.004,0.006,-8.262,-43.421,3.410
19:18:19:009,17.273,0.003,-0.005,0.009,-8.262,-43.421,3.410
19:18:19:009,17.273,0.008,-0.005,0.006,-8.262,-43.421,3.410
19:18:19:032,17.296,0.007,-0.004,0.008,-8.262,-43.421,3.410
19:18:19:058,17.322,0.007,-0.004,0.006,-8.262,-43.421,3.410
19:18:19:084,17.348,0.004,-0.005,0.007,-8.262,-43.421,3.410
19:18:19:111,17.375,0.005,-0.003,0.011,-8.262,-43.421,3.410
19:18:19:139,17.403,0.003,-0.007,0.011,-8.262,-43.421,3.410
19:18:19:164,17.428,0.006,-0.004,0.009,-8.262,-43.421,3.410
19:18:19:195,17.459,0.004,-0.006,0.011,-8.262,-43.421,3.410
19:18:19:195,17.459,0.008,-0.002,0.010,-8.262,-43.421,3.410
19:18:19:303,17.568,0.009,-0.004,0.006,-8.262,-43.421,3.410
19:18:19:304,17.568,0.006,-0.003,0.008,-8.262,-43.421,3.410
19:18:19:304,17.569,0.007,-0.004,0.005,-8.262,-43.421,3.410
19:18:19:305,17.570,0.005,-0.005,0.008,-8.262,-43.421,3.410
19:18:19:351,17.615,0.010,-0.004,0.003,-8.262,-43.421,3.410
19:18:19:351,17.615,0.006,-0.002,0.011,-8.262,-43.421,3.410
19:18:19:374,17.638,0.010,-0.003,0.003,-8.262,-43.421,3.410
19:18:19:428,17.692,0.007,-0.003,0.011,-8.262,-43.421,3.410
19:18:19:429,17.693,0.011,-0.003,0.006,-8.262,-43.421,3.410
19:18:19:452,17.716,0.004,-0.003,0.014,-8.262,-43.421,3.410
19:18:19:478,17.742,0.010,-0.005,0.008,-8.262,-43.421,3.410
19:18:19:534,17.798,0.003,-0.006,0.013,-8.267,-43.410,3.408
19:18:19:535,17.799,0.010,-0.004,0.003,-8.267,-43.410,3.408
19:18:19:557,17.821,0.006,-0.005,0.009,-8.267,-43.410,3.408
19:18:19:612,17.876,0.009,-0.001,0.007,-8.267,-43.410,3.408
19:18:19:613,17.877,0.004,-0.008,0.012,-8.267,-43.410,3.408
19:18:19:636,17.900,0.010,-0.004,0.007,-8.267,-43.410,3.408
19:18:19:662,17.926,0.006,-0.005,0.012,-8.267,-43.410,3.408
19:18:19:718,17.982,0.007,-0.003,0.008,-8.267,-43.410,3.408
19:18:19:719,17.983,0.007,-0.005,0.011,-8.267,-43.410,3.408
19:18:19:741,18.005,0.010,-0.005,0.011,-8.267,-43.410,3.408
19:18:19:796,18.060,0.009,-0.001,0.008,-8.267,-43.410,3.408
19:18:19:797,18.061,0.008,-0.007,0.007,-8.267,-43.410,3.408
19:18:19:819,18.083,0.008,-0.002,0.010,-8.267,-43.410,3.408
19:18:19:906,18.170,0.011,-0.006,0.009,-8.267,-43.410,3.408
19:18:19:906,18.170,0.006,-0.006,0.009,-8.267,-43.410,3.408
19:18:19:906,18.170,0.008,-0.003,0.012,-8.267,-43.410,3.408
19:18:19:926,18.190,0.008,-0.004,0.011,-8.267,-43.410,3.408
19:18:19:98,18.244,0.008,-0.006,0.012,-8.267,-43.410,3.408
19:18:19:981,18.245,0.010,-0.005,0.009,-8.267,-43.410,3.408
19:18:20:061,18.326,0.011,-0.004,0.012,-8.267,-43.410,3.408
19:18:20:062,18.326,0.012,-0.003,0.006,-8.267,-43.410,3.408
19:18:20:063,18.327,0.010,-0.007,0.008,-8.267,-43.410,3.408
19:18:20:082,18.346,0.013,-0.007,0.008,-8.267,-43.410,3.408
19:18:20:108,18.372,0.007,-0.005,0.013,-8.267,-43.410,3.408
19:18:20:135,18.399,0.010,-0.004,0.004,-8.267,-43.410,3.408
19:18:20:161,18.425,0.009,-0.006,0.009,-8.267,-43.410,3.408
19:18:20:187,18.451,0.015,-0.004,0.006,-8.267,-43.410,3.408
19:18:20:243,18.507,0.006,-0.006,0.013,-8.267,-43.410,3.408
19:18:20:243,18.507,0.011,-0.003,0.006,-8.267,-43.410,3.408
19:18:20:268,18.532,0.009,-0.005,0.012,-8.267,-43.410,3.408
19:18:20:323,18.587,0.013,-0.006,0.007,-8.267,-43.410,3.408
19:18:20:323,18.587,0.008,-0.005,0.010,-8.267,-43.410,3.408
19:18:20:403,18.667,0.011,-0.008,0.008,-8.267,-43.410,3.408
19:18:20:404,18.668,0.007,-0.002,0.013,-8.267,-43.410,3.408
19:18:20:404,18.668,0.012,-0.003,0.006,-8.267,-43.410,3.408
19:18:20:511,18.775,0.010,-0.006,0.014,-8.267,-43.410,3.408
19:18:20:512,18.776,0.010,-0.006,0.007,-8.267,-43.410,3.408
19:18:20:512,18.776,0.011,-0.004,0.011,-8.267,-43.410,3.408
19:18:20:513,18.777,0.010,-0.005,0.009,-8.267,-43.410,3.408
19:18:20:529,18.793,0.013,-0.005,0.007,-8.267,-43.410,3.408
19:18:20:585,18.849,0.014,-0.005,0.008,-8.267,-43.410,3.408
19:18:20:585,18.849,0.010,-0.003,0.010,-8.267,-43.410,3.408
19:18:20:607,18.871,0.015,-0.004,0.007,-8.267,-43.410,3.408
19:18:20:634,18.898,0.011,-0.007,0.009,-8.267,-43.410,3.408
19:18:20:717,18.981,0.011,-0.004,0.010,-8.267,-43.410,3.408
19:18:20:717,18.981,0.011,-0.004,0.010,-8.267,-43.410,3.408
19:18:20:77,19.034,0.013,-0.007,0.009,-8.267,-43.410,3.408
19:18:20:771,19.035,0.013,-0.003,0.009,-8.267,-43.410,3.408
19:18:20:772,19.036,0.011,-0.005,0.007,-8.267,-43.410,3.408
19:18:20:791,19.055,0.017,-0.004,0.006,-8.267,-43.410,3.408
19:18:20:846,19.110,0.013,-0.004,0.007,-8.273,-43.409,3.407
19:18:20:847,19.111,0.020,-0.003,0.003,-8.273,-43.409,3.407
19:18:20:87,19.134,0.014,-0.004,0.007,-8.273,-43.409,3.407
19:18:20:898,19.162,0.017,-0.003,0.006,-8.268,-43.416,3.413
19:18:20:954,19.218,0.013,-0.004,0.013,-8.268,-43.416,3.413
19:18:20:954,19.218,0.019,-0.004,0.001,-8.268,-43.416,3.413
19:18:21:035,19.299,0.015,-0.003,0.001,-8.268,-43.416,3.413
19:18:21:035,19.299,0.019,-0.004,0.006,-8.272,-43.421,3.407
19:18:21:035,19.299,0.013,-0.004,0.009,-8.272,-43.421,3.407
19:18:21:055,19.319,0.014,-0.003,0.008,-8.272,-43.421,3.407
19:18:21:08,19.344,0.013,-0.005,0.011,-8.272,-43.421,3.407
19:18:21:106,19.370,0.016,-0.001,0.004,-8.272,-43.421,3.407
19:18:21:222,19.486,0.014,-0.005,0.010,-8.272,-43.421,3.407
19:18:21:222,19.486,0.019,-0.004,0.004,-8.272,-43.421,3.407
19:18:21:223,19.487,0.017,-0.003,0.007,-8.272,-43.421,3.407
19:18:21:223,19.487,0.016,-0.004,0.005,-8.272,-43.421,3.407
19:18:21:239,19.503,0.015,-0.005,0.008,-8.272,-43.421,3.407
19:18:21:294,19.558,0.017,-0.003,0.007,-8.272,-43.421,3.407
19:18:21:294,19.558,0.017,-0.003,0.002,-8.272,-43.421,3.407
19:18:21:316,19.580,0.019,-0.002,0.003,-8.272,-43.421,3.407
19:18:21:372,19.637,0.016,-0.005,0.006,-8.272,-43.421,3.407
19:18:21:372,19.637,0.012,-0.004,0.008,-8.272,-43.421,3.407
19:18:21:422,19.686,0.016,-0.006,0.004,-8.272,-43.421,3.407
19:18:21:48,19.744,0.014,-0.005,0.007,-8.272,-43.421,3.407
19:18:21:48,19.744,0.012,-0.005,0.010,-8.272,-43.421,3.407
19:18:21:481,19.745,0.013,-0.006,0.007,-8.272,-43.421,3.407
19:18:21:502,19.766,0.016,-0.004,0.006,-8.272,-43.421,3.407
19:18:21:503,19.767,0.010,-0.005,0.006,-8.272,-43.421,3.407
19:18:21:556,19.820,0.020,-0.007,-0.002,-8.272,-43.421,3.407
19:18:21:556,19.820,0.013,-0.004,0.007,-8.272,-43.421,3.407
19:18:21:578,19.842,0.024,-0.003,0.004,-8.273,-43.427,3.413
19:18:21:605,19.869,0.014,-0.003,0.004,-8.273,-43.427,3.413
19:18:21:632,19.896,0.019,-0.002,0.000,-8.273,-43.436,3.413
19:18:21:657,19.921,0.012,-0.004,0.008,-8.273,-43.436,3.413
19:18:21:742,20.006,0.019,-0.005,-0.004,-8.273,-43.436,3.413
19:18:21:743,20.007,0.011,-0.002,0.007,-8.273,-43.436,3.413
19:18:21:743,20.008,0.021,-0.006,0.002,-8.262,-43.431,3.410
19:18:21:762,20.026,0.013,-0.006,0.008,-8.262,-43.431,3.410
19:18:21:818,20.082,0.017,-0.004,0.003,-8.262,-43.431,3.410
19:18:21:818,20.082,0.014,-0.004,0.007,-8.262,-43.431,3.410
19:18:21:843,20.107,0.017,-0.006,0.005,-8.262,-43.431,3.410
19:18:21:869,20.133,0.011,-0.007,0.009,-8.262,-43.431,3.410
19:18:21:921,20.185,0.018,-0.004,0.001,-8.262,-43.431,3.410
19:18:21:949,20.213,0.009,-0.004,0.006,-8.262,-43.431,3.410
19:18:21:95,20.214,0.013,-0.005,0.002,-8.258,-43.420,3.411
19:18:22:004,20.268,0.010,-0.004,0.006,-8.258,-43.420,3.411
19:18:22:004,20.268,0.015,-0.006,0.002,-8.258,-43.420,3.411
19:18:22:025,20.289,0.013,-0.006,0.004,-8.258,-43.410,3.410
19:18:22:081,20.345,0.017,-0.006,0.004,-8.262,-43.394,3.403
19:18:22:081,20.345,0.013,-0.004,0.007,-8.258,-43.374,3.403
19:18:22:104,20.368,0.007,-0.005,0.008,-8.263,-43.353,3.400
19:18:22:217,20.481,0.010,-0.004,0.006,-8.263,-43.334,3.398
19:18:22:218,20.482,0.008,-0.005,0.007,-8.263,-43.317,3.393
19:18:22:218,20.482,0.009,-0.005,0.010,-8.264,-43.312,3.397
19:18:22:22,20.484,0.011,-0.005,0.007,-8.264,-43.312,3.397
19:18:22:265,20.529,0.011,-0.002,0.004,-8.264,-43.312,3.397
19:18:22:266,20.530,0.011,-0.001,0.003,-8.264,-43.312,3.397
19:18:22:287,20.551,0.013,-0.004,0.000,-8.264,-43.312,3.397
19:18:22:313,20.578,0.009,-0.005,0.008,-8.264,-43.312,3.397
19:18:22:398,20.662,0.014,-0.004,0.002,-8.264,-43.312,3.397
19:18:22:399,20.663,0.011,-0.004,0.004,-8.264,-43.312,3.397
19:18:22:399,20.663,0.015,-0.003,0.001,-8.264,-43.312,3.397
19:18:22:478,20.742,0.011,-0.005,0.008,-8.264,-43.312,3.397
19:18:22:478,20.742,0.014,-0.004,0.002,-8.264,-43.312,3.397
19:18:22:478,20.742,0.008,-0.006,0.007,-8.264,-43.312,3.397
19:18:22:528,20.792,0.015,-0.006,0.001,-8.264,-43.312,3.397
19:18:22:529,20.793,0.010,-0.005,0.008,-8.264,-43.312,3.397
19:18:22:55,20.814,0.012,-0.004,0.003,-8.264,-43.312,3.397
19:18:22:576,20.840,0.010,-0.005,0.008,-8.264,-43.312,3.397
19:18:22:603,20.867,0.009,-0.005,0.003,-8.264,-43.312,3.397
19:18:22:657,20.921,0.007,-0.005,0.007,-8.264,-43.312,3.397
19:18:22:658,20.922,0.013,-0.004,0.003,-8.264,-43.312,3.397
19:18:22:712,20.976,0.008,-0.004,0.008,-8.264,-43.312,3.397
19:18:22:712,20.976,0.009,-0.007,0.006,-8.264,-43.312,3.397
19:18:22:733,20.997,0.008,-0.004,0.009,-8.264,-43.312,3.397
19:18:22:789,21.053,0.009,-0.007,0.007,-8.264,-43.312,3.397
19:18:22:789,21.053,0.010,-0.003,0.006,-8.264,-43.312,3.397
19:18:22:813,21.077,0.012,-0.004,0.005,-8.264,-43.312,3.397
19:18:22:838,21.102,0.008,-0.005,0.007,-8.264,-43.312,3.397
19:18:22:894,21.158,0.006,-0.005,0.008,-8.264,-43.312,3.397
19:18:22:894,21.158,0.010,-0.006,0.002,-8.264,-43.312,3.397
19:18:22:947,21.211,0.003,-0.005,0.006,-8.264,-43.312,3.397
19:18:22:947,21.211,0.012,-0.004,0.007,-8.264,-43.312,3.397
19:18:22:97,21.234,0.013,-0.004,0.006,-8.264,-43.312,3.397
19:18:22:996,21.260,0.008,-0.005,0.011,-8.264,-43.312,3.397
19:18:23:055,21.320,0.007,-0.003,0.007,-8.264,-43.312,3.397
19:18:23:055,21.320,0.011,-0.004,0.001,-8.264,-43.312,3.397
19:18:23:075,21.339,0.006,-0.003,0.005,-8.264,-43.312,3.397
19:18:23:101,21.365,0.007,-0.007,0.002,-8.264,-43.312,3.397
19:18:23:156,21.420,0.004,-0.007,0.012,-8.264,-43.312,3.397
19:18:23:157,21.421,0.012,-0.006,0.002,-8.284,-43.312,3.392
19:18:23:18,21.444,0.010,-0.003,0.009,-8.304,-43.318,3.393
19:18:23:236,21.500,0.012,-0.004,0.002,-8.305,-43.313,3.397
19:18:23:236,21.500,0.009,-0.005,0.008,-8.315,-43.313,3.395
19:18:23:258,21.522,0.012,-0.003,0.003,-8.315,-43.313,3.395
19:18:23:285,21.549,0.007,-0.003,0.010,-8.315,-43.313,3.395
19:18:23:311,21.575,0.008,-0.004,0.007,-8.315,-43.313,3.395
19:18:23:337,21.601,0.007,-0.005,0.010,-8.315,-43.313,3.395
19:18:23:363,21.627,0.010,-0.003,0.006,-8.315,-43.313,3.395
19:18:23:42,21.684,0.006,-0.005,0.013,-8.315,-43.313,3.395
19:18:23:42,21.684,0.010,-0.004,0.004,-8.315,-43.313,3.395
19:18:23:442,21.706,0.008,-0.003,0.009,-8.315,-43.313,3.395
19:18:23:498,21.762,0.006,-0.006,0.010,-8.315,-43.313,3.395
19:18:23:498,21.762,0.005,-0.007,0.012,-8.315,-43.313,3.395
19:18:23:521,21.785,0.010,-0.004,0.007,-8.315,-43.313,3.395
19:18:23:606,21.870,0.006,-0.004,0.008,-8.315,-43.313,3.395
19:18:23:606,21.870,0.011,-0.003,0.006,-8.315,-43.313,3.395
19:18:23:607,21.871,0.005,-0.006,0.008,-8.315,-43.313,3.395
19:18:23:685,21.949,0.008,-0.004,0.004,-8.315,-43.313,3.395
19:18:23:685,21.949,0.009,-0.006,0.007,-8.315,-43.313,3.395
19:18:23:687,21.951,0.008,-0.008,0.006,-8.315,-43.313,3.395
19:18:23:708,21.972,0.006,-0.006,0.008,-8.320,-43.312,3.394
19:18:23:708,21.972,0.009,-0.003,0.008,-8.320,-43.312,3.394
19:18:23:76,22.024,0.009,-0.004,0.008,-8.320,-43.312,3.394
19:18:23:761,22.025,0.007,-0.004,0.008,-8.320,-43.312,3.394
19:18:23:783,22.047,0.015,-0.004,0.004,-8.320,-43.312,3.394
19:18:23:87,22.134,0.009,-0.004,0.006,-8.320,-43.312,3.394
19:18:23:87,22.134,0.009,-0.003,0.005,-8.320,-43.312,3.394
19:18:23:87,22.134,0.007,-0.004,0.007,-8.320,-43.312,3.394
19:18:23:889,22.153,0.011,-0.005,-0.002,-8.320,-43.312,3.394
19:18:23:943,22.207,0.005,-0.004,0.009,-8.320,-43.312,3.394
19:18:23:944,22.208,0.010,-0.004,0.005,-8.320,-43.312,3.394
19:18:23:969,22.233,0.005,-0.004,0.009,-8.320,-43.312,3.394
19:18:24:023,22.287,0.012,-0.003,0.003,-8.320,-43.312,3.394
19:18:24:023,22.287,0.006,-0.006,0.007,-8.320,-43.312,3.394
19:18:24:073,22.337,0.012,-0.006,0.002,-8.320,-43.312,3.394
19:18:24:159,22.423,0.007,-0.003,0.006,-8.320,-43.312,3.394
19:18:24:16,22.424,0.008,-0.005,0.010,-8.320,-43.312,3.394
19:18:24:161,22.425,0.006,-0.003,0.008,-8.320,-43.312,3.394
19:18:24:162,22.426,0.010,-0.005,0.005,-8.320,-43.312,3.394
19:18:24:208,22.472,0.006,-0.005,0.010,-8.320,-43.312,3.394
19:18:24:208,22.472,0.009,-0.003,0.006,-8.320,-43.312,3.394
19:18:24:23,22.494,0.007,-0.005,0.008,-8.320,-43.312,3.394
19:18:24:285,22.549,0.008,-0.005,0.007,-8.320,-43.312,3.394
19:18:24:286,22.550,0.006,-0.008,0.006,-8.320,-43.312,3.394
19:18:24:309,22.573,0.009,-0.006,0.007,-8.320,-43.312,3.394
19:18:24:335,22.599,0.006,-0.005,0.008,-8.320,-43.312,3.394
19:18:24:39,22.654,0.008,-0.007,0.004,-8.320,-43.312,3.394
19:18:24:391,22.655,0.008,-0.004,0.008,-8.320,-43.312,3.394
19:18:24:415,22.679,0.006,-0.003,0.009,-8.320,-43.312,3.394
19:18:24:471,22.735,0.004,-0.004,0.010,-8.320,-43.312,3.394
19:18:24:471,22.735,0.005,-0.005,0.006,-8.320,-43.312,3.394
19:18:24:492,22.756,0.006,-0.003,0.007,-8.320,-43.312,3.394
19:18:24:518,22.782,0.005,-0.004,0.008,-8.320,-43.312,3.394
19:18:24:546,22.810,0.010,-0.003,0.005,-8.320,-43.312,3.394
19:18:24:573,22.837,0.006,-0.005,0.010,-8.320,-43.312,3.394
19:18:24:628,22.892,0.007,-0.003,0.006,-8.320,-43.312,3.394
19:18:24:628,22.892,0.003,-0.002,0.010,-8.320,-43.312,3.394
19:18:24:65,22.914,0.007,-0.002,0.007,-8.320,-43.312,3.394
19:18:24:676,22.940,0.005,-0.002,0.010,-8.320,-43.312,3.394
19:18:24:731,22.995,0.007,-0.006,0.004,-8.320,-43.312,3.394
19:18:24:732,22.996,-0.001,-0.002,0.014,-8.315,-43.313,3.395
19:18:24:756,23.020,0.010,-0.007,0.001,-8.304,-43.318,3.393
19:18:24:81,23.074,-0.001,-0.007,0.012,-8.304,-43.318,3.393
19:18:24:813,23.077,0.009,-0.005,0.006,-8.304,-43.318,3.393
19:18:24:864,23.128,0.004,-0.003,0.011,-8.304,-43.318,3.393
19:18:24:864,23.128,0.006,-0.003,0.008,-8.304,-43.318,3.393
19:18:24:886,23.150,0.003,-0.006,0.008,-8.304,-43.318,3.393
19:18:24:912,23.176,0.005,-0.004,0.007,-8.304,-43.318,3.393
19:18:24:997,23.261,-0.002,-0.004,0.015,-8.304,-43.318,3.393
19:18:24:998,23.262,0.003,-0.001,0.010,-8.304,-43.318,3.393
19:18:24:998,23.262,-0.003,-0.007,0.013,-8.304,-43.318,3.393
19:18:25:018,23.282,0.002,-0.007,0.007,-8.304,-43.318,3.393
19:18:25:073,23.337,0.002,-0.004,0.011,-8.304,-43.318,3.393
19:18:25:073,23.337,0.005,-0.005,0.006,-8.304,-43.318,3.393
19:18:25:097,23.361,0.001,-0.002,0.013,-8.304,-43.318,3.393
19:18:25:123,23.388,0.005,-0.004,0.007,-8.304,-43.318,3.393
19:18:25:179,23.443,-0.001,-0.003,0.012,-8.303,-43.313,3.388
19:18:25:18,23.444,-0.001,-0.004,0.012,-8.303,-43.313,3.388
19:18:25:201,23.465,-0.003,-0.005,0.014,-8.303,-43.313,3.388
19:18:25:257,23.521,0.000,-0.003,0.015,-8.303,-43.313,3.388
19:18:25:257,23.521,0.003,-0.003,0.009,-8.303,-43.313,3.388
19:18:25:279,23.543,0.001,-0.006,0.013,-8.303,-43.313,3.388
19:18:25:306,23.570,0.005,-0.004,0.008,-8.303,-43.313,3.388
19:18:25:332,23.596,0.003,-0.004,0.012,-8.303,-43.313,3.388
19:18:25:36,23.624,0.002,-0.006,0.009,-8.303,-43.313,3.388
19:18:25:385,23.649,0.001,-0.004,0.012,-8.303,-43.313,3.388
19:18:25:442,23.706,0.003,-0.004,0.008,-8.303,-43.313,3.388
19:18:25:442,23.706,0.002,-0.002,0.014,-8.303,-43.313,3.388
19:18:25:463,23.727,0.003,-0.002,0.010,-8.303,-43.313,3.388
19:18:25:489,23.753,0.000,-0.007,0.014,-8.303,-43.313,3.388
19:18:25:546,23.810,0.005,-0.002,0.010,-8.303,-43.313,3.388
19:18:25:547,23.811,-0.001,-0.006,0.012,-8.312,-43.313,3.385
19:18:25:568,23.832,0.005,-0.004,0.008,-8.328,-43.317,3.387
19:18:25:595,23.859,0.001,-0.009,0.010,-8.354,-43.319,3.391
19:18:25:622,23.886,0.004,-0.003,0.009,-8.379,-43.318,3.385
19:18:25:647,23.911,-0.007,-0.009,0.020,-8.410,-43.329,3.389
19:18:25:703,23.967,0.007,-0.001,0.008,-8.434,-43.355,3.390
19:18:25:703,23.968,0.002,-0.006,0.011,-8.476,-43.381,3.397
19:18:25:728,23.992,0.003,-0.005,0.010,-8.507,-43.382,3.400
19:18:25:752,24.016,0.002,-0.006,0.013,-8.526,-43.382,3.396
19:18:25:81,24.074,0.001,-0.007,0.010,-8.553,-43.382,3.400
19:18:25:81,24.074,0.002,-0.004,0.014,-8.562,-43.383,3.397
19:18:25:831,24.095,0.002,-0.006,0.011,-8.588,-43.377,3.396
19:18:25:857,24.121,0.001,-0.005,0.011,-8.608,-43.373,3.396
19:18:25:884,24.149,0.004,-0.004,0.010,-8.629,-43.378,3.397
19:18:25:91,24.174,-0.004,-0.007,0.016,-8.645,-43.373,3.398
19:18:25:936,24.200,0.001,-0.004,0.013,-8.665,-43.378,3.398
19:18:25:965,24.229,-0.001,-0.005,0.011,-8.696,-43.380,3.401
19:18:25:966,24.230,-0.001,-0.006,0.013,-8.720,-43.379,3.395
19:18:26:018,24.282,0.001,-0.002,0.012,-8.742,-43.380,3.400
19:18:26:019,24.283,0.002,-0.007,0.013,-8.767,-43.384,3.400
19:18:26:07,24.334,-0.004,-0.005,0.016,-8.781,-43.385,3.396
19:18:26:071,24.335,-0.001,-0.006,0.013,-8.797,-43.380,3.398
19:18:26:093,24.357,0.006,-0.003,0.009,-8.808,-43.385,3.401
19:18:26:149,24.413,-0.002,-0.004,0.015,-8.818,-43.386,3.398
19:18:26:15,24.414,0.002,-0.002,0.008,-8.839,-43.387,3.403
19:18:26:174,24.438,-0.002,-0.003,0.013,-8.854,-43.386,3.400
19:18:26:2,24.464,0.007,-0.003,0.007,-8.875,-43.381,3.400
19:18:26:225,24.489,-0.006,-0.004,0.013,-8.891,-43.376,3.401
19:18:26:277,24.541,0.005,-0.004,0.008,-8.900,-43.376,3.398
19:18:26:307,24.571,0.002,-0.006,0.013,-8.905,-43.377,3.397
19:18:26:308,24.572,0.002,-0.002,0.008,-8.903,-43.377,3.408
19:18:26:33,24.594,-0.001,-0.004,0.014,-8.905,-43.378,3.418
19:18:26:356,24.620,0.000,-0.003,0.010,-8.907,-43.378,3.428
19:18:26:412,24.676,0.006,-0.007,0.010,-8.904,-43.376,3.454
19:18:26:413,24.677,0.003,-0.002,0.007,-8.904,-43.376,3.474
19:18:26:435,24.699,-0.003,-0.006,0.013,-8.906,-43.377,3.484
19:18:26:461,24.725,0.000,-0.005,0.011,-8.909,-43.378,3.494
19:18:26:487,24.751,-0.003,-0.004,0.013,-8.909,-43.378,3.494
19:18:26:543,24.807,0.000,-0.002,0.010,-8.909,-43.378,3.494
19:18:26:544,24.808,-0.001,-0.003,0.011,-8.909,-43.378,3.494
19:18:26:595,24.859,0.000,-0.007,0.010,-8.909,-43.378,3.494
19:18:26:596,24.860,-0.004,-0.005,0.014,-8.909,-43.378,3.494
19:18:26:62,24.884,0.001,-0.004,0.009,-8.909,-43.378,3.494
19:18:26:674,24.938,-0.007,-0.008,0.014,-8.903,-43.398,3.497
19:18:26:674,24.938,-0.004,-0.005,0.014,-8.902,-43.420,3.498
19:18:26:697,24.961,-0.003,-0.006,0.016,-8.898,-43.455,3.507
19:18:26:723,24.987,-0.002,-0.004,0.014,-8.902,-43.476,3.507
19:18:26:75,25.014,-0.003,-0.005,0.014,-8.917,-43.502,3.511
19:18:26:776,25.040,-0.002,-0.002,0.011,-8.939,-43.537,3.503
19:18:26:86,25.124,-0.005,-0.004,0.015,-8.944,-43.562,3.488
19:18:26:861,25.125,-0.002,-0.002,0.013,-8.942,-43.596,3.466
19:18:26:862,25.126,0.005,-0.002,0.011,-8.939,-43.616,3.457
19:18:26:882,25.146,-0.002,-0.004,0.013,-8.938,-43.645,3.439
19:18:26:936,25.200,0.004,-0.002,0.007,-8.936,-43.654,3.430
19:18:26:937,25.201,0.001,-0.005,0.014,-8.936,-43.654,3.430
19:18:26:991,25.255,0.005,-0.002,0.008,-8.936,-43.654,3.430
19:18:26:991,25.255,-0.002,-0.004,0.014,-8.936,-43.654,3.430
19:18:27:072,25.336,0.002,-0.001,0.006,-8.936,-43.654,3.430
19:18:27:072,25.336,-0.003,-0.006,0.018,-8.936,-43.654,3.430
19:18:27:072,25.336,0.006,-0.006,0.005,-8.936,-43.654,3.430
19:18:27:12,25.384,-0.002,-0.003,0.013,-8.941,-43.634,3.428
19:18:27:12,25.384,0.005,-0.001,0.008,-8.940,-43.619,3.422
19:18:27:143,25.407,-0.003,-0.004,0.016,-8.941,-43.597,3.420
19:18:27:17,25.434,0.003,-0.004,0.010,-8.941,-43.577,3.418
19:18:27:196,25.460,-0.002,-0.003,0.014,-8.942,-43.546,3.416
19:18:27:224,25.488,-0.002,-0.005,0.010,-8.947,-43.511,3.407
19:18:27:338,25.602,-0.003,-0.005,0.013,-8.944,-43.495,3.412
19:18:27:338,25.602,0.001,-0.005,0.007,-8.951,-43.475,3.419
19:18:27:338,25.602,-0.002,-0.002,0.011,-8.944,-43.476,3.431
19:18:27:339,25.603,0.000,-0.003,0.009,-8.947,-43.477,3.441
19:18:27:383,25.647,-0.003,-0.004,0.013,-8.949,-43.478,3.450
19:18:27:383,25.647,0.003,-0.004,0.007,-8.949,-43.478,3.450
19:18:27:406,25.670,-0.003,-0.006,0.016,-8.949,-43.478,3.471
19:18:27:433,25.697,-0.004,-0.005,0.014,-8.948,-43.476,3.486
19:18:27:488,25.752,-0.004,-0.004,0.012,-8.936,-43.478,3.520
19:18:27:488,25.752,-0.004,-0.003,0.015,-8.916,-43.473,3.540
19:18:27:569,25.833,-0.004,-0.007,0.017,-8.894,-43.475,3.576
19:18:27:57,25.834,-0.003,-0.004,0.014,-8.864,-43.473,3.619
19:18:27:571,25.835,-0.007,-0.005,0.019,-8.848,-43.469,3.637
19:18:27:59,25.854,-0.004,-0.011,0.016,-8.817,-43.471,3.676
19:18:27:645,25.909,0.001,-0.002,0.012,-8.813,-43.468,3.702
19:18:27:646,25.910,-0.001,-0.008,0.016,-8.806,-43.481,3.735
19:18:27:668,25.932,0.003,-0.003,0.010,-8.803,-43.493,3.767
19:18:27:694,25.959,-0.001,-0.002,0.015,-8.803,-43.493,3.788
19:18:27:777,26.041,0.003,-0.002,0.015,-8.790,-43.517,3.823
19:18:27:777,26.041,-0.001,-0.003,0.018,-8.775,-43.528,3.848
19:18:27:832,26.096,0.003,-0.004,0.013,-8.745,-43.535,3.891
19:18:27:832,26.096,0.001,-0.005,0.016,-8.728,-43.539,3.926
19:18:27:833,26.097,0.006,-0.003,0.008,-8.698,-43.546,3.970
19:18:27:852,26.116,-0.004,-0.005,0.022,-8.674,-43.555,4.022
19:18:27:908,26.172,0.003,-0.006,0.017,-8.658,-43.565,4.057
19:18:27:909,26.173,-0.005,-0.006,0.024,-8.632,-43.564,4.099
19:18:27:964,26.228,0.004,-0.004,0.016,-8.614,-43.559,4.129
19:18:27:964,26.228,-0.005,-0.004,0.021,-8.594,-43.557,4.169
19:18:28:015,26.279,-0.004,-0.006,0.024,-8.556,-43.559,4.219
19:18:28:015,26.279,-0.003,-0.003,0.019,-8.525,-43.556,4.241
19:18:28:122,26.386,-0.003,-0.005,0.020,-8.498,-43.561,4.253
19:18:28:122,26.386,-0.001,-0.004,0.014,-8.481,-43.551,4.267
19:18:28:122,26.386,-0.004,-0.003,0.020,-8.452,-43.551,4.274
19:18:28:144,26.408,-0.003,-0.006,0.018,-8.420,-43.562,4.292
19:18:28:145,26.409,-0.007,-0.006,0.020,-8.374,-43.556,4.308
19:18:28:282,26.546,-0.005,-0.003,0.020,-8.357,-43.557,4.322
19:18:28:282,26.546,0.001,-0.004,0.016,-8.334,-43.553,4.332
19:18:28:283,26.547,0.001,-0.007,0.016,-8.324,-43.553,4.334
19:18:28:284,26.548,-0.002,-0.005,0.017,-8.314,-43.553,4.337
19:18:28:3,26.564,-0.004,-0.004,0.019,-8.302,-43.552,4.329
19:18:28:357,26.621,-0.003,-0.004,0.016,-8.290,-43.551,4.322
19:18:28:357,26.621,-0.008,-0.007,0.017,-8.279,-43.550,4.314
19:18:28:358,26.622,-0.001,-0.003,0.014,-8.261,-43.550,4.308
19:18:28:379,26.643,-0.008,-0.007,0.015,-8.249,-43.549,4.301
19:18:28:404,26.668,0.000,-0.005,0.010,-8.237,-43.548,4.293
19:18:28:432,26.696,-0.004,-0.005,0.019,-8.246,-43.543,4.286
19:18:28:458,26.722,0.000,-0.005,0.011,-8.254,-43.547,4.258
19:18:28:482,26.746,-0.005,-0.002,0.014,-8.270,-43.551,4.240
19:18:28:538,26.802,-0.002,-0.004,0.009,-8.287,-43.548,4.205
19:18:28:538,26.802,-0.006,-0.002,0.018,-8.302,-43.552,4.186
19:18:28:561,26.825,0.000,-0.004,0.009,-8.314,-43.550,4.153
19:18:28:617,26.881,-0.007,-0.002,0.013,-8.322,-43.554,4.125
19:18:28:617,26.881,-0.001,-0.003,0.010,-8.337,-43.553,4.101
19:18:28:669,26.933,-0.007,-0.006,0.017,-8.357,-43.556,4.061
19:18:28:67,26.934,-0.002,-0.006,0.011,-8.372,-43.555,4.037
19:18:28:807,27.072,-0.007,-0.004,0.015,-8.387,-43.558,3.998
19:18:28:808,27.072,-0.007,-0.002,0.013,-8.403,-43.560,3.958
19:18:28:808,27.072,-0.008,-0.005,0.014,-8.412,-43.559,3.935
19:18:28:808,27.073,-0.008,-0.006,0.012,-8.433,-43.562,3.895
19:18:28:827,27.092,-0.007,-0.004,0.016,-8.443,-43.560,3.872
19:18:28:828,27.092,-0.004,-0.005,0.011,-8.453,-43.564,3.834
19:18:28:879,27.143,-0.006,-0.005,0.012,-8.463,-43.562,3.811
19:18:28:88,27.144,-0.006,-0.005,0.009,-8.481,-43.566,3.782
19:18:28:905,27.169,-0.009,-0.004,0.014,-8.489,-43.568,3.734
19:18:28:93,27.194,-0.007,-0.006,0.013,-8.499,-43.565,3.711
19:18:28:985,27.249,-0.005,-0.003,0.010,-8.509,-43.570,3.673
19:18:28:986,27.250,-0.004,-0.005,0.011,-8.520,-43.567,3.650
19:18:29:067,27.331,-0.010,-0.006,0.013,-8.526,-43.566,3.617
19:18:29:067,27.331,-0.007,-0.004,0.011,-8.526,-43.568,3.592
19:18:29:067,27.331,-0.011,-0.004,0.016,-8.528,-43.568,3.582
19:18:29:087,27.351,-0.005,-0.004,0.011,-8.523,-43.557,3.561
19:18:29:113,27.377,-0.002,-0.002,0.008,-8.514,-43.554,3.543
19:18:29:138,27.402,-0.009,-0.005,0.011,-8.504,-43.554,3.525
19:18:29:165,27.429,-0.006,-0.003,0.006,-8.497,-43.554,3.516
19:18:29:191,27.455,-0.006,-0.005,0.011,-8.502,-43.553,3.515
19:18:29:246,27.510,-0.004,-0.002,0.008,-8.500,-43.552,3.505
19:18:29:247,27.511,-0.011,-0.004,0.014,-8.500,-43.552,3.505
19:18:29:27,27.534,-0.005,-0.001,0.008,-8.500,-43.552,3.505
19:18:29:325,27.589,-0.008,-0.006,0.013,-8.500,-43.552,3.505
19:18:29:326,27.590,-0.003,-0.003,0.006,-8.500,-43.552,3.505
19:18:29:348,27.612,-0.012,-0.006,0.014,-8.500,-43.552,3.505
19:18:29:376,27.640,-0.004,-0.005,0.007,-8.500,-43.552,3.505
19:18:29:458,27.722,-0.010,-0.004,0.015,-8.500,-43.552,3.505
19:18:29:459,27.723,-0.005,-0.004,0.008,-8.500,-43.552,3.505
19:18:29:506,27.770,-0.011,-0.005,0.015,-8.500,-43.552,3.505
19:18:29:538,27.802,-0.007,-0.002,0.009,-8.500,-43.552,3.505
19:18:29:539,27.803,-0.011,-0.005,0.017,-8.500,-43.552,3.505
19:18:29:539,27.803,-0.004,-0.002,0.008,-8.500,-43.552,3.505
19:18:29:59,27.854,-0.011,-0.003,0.016,-8.500,-43.552,3.505
19:18:29:59,27.854,-0.006,-0.006,0.011,-8.500,-43.552,3.505
19:18:29:64,27.904,-0.011,-0.004,0.015,-8.500,-43.552,3.505
19:18:29:641,27.905,-0.008,-0.004,0.012,-8.500,-43.552,3.505
19:18:29:664,27.928,-0.013,-0.008,0.016,-8.500,-43.552,3.505
19:18:29:689,27.953,-0.008,-0.005,0.012,-8.500,-43.552,3.505
19:18:29:716,27.980,-0.006,-0.008,0.009,-8.500,-43.552,3.505
19:18:29:771,28.035,-0.010,-0.004,0.015,-8.500,-43.552,3.505
19:18:29:772,28.036,-0.011,-0.003,0.014,-8.500,-43.552,3.505
19:18:29:797,28.061,-0.010,-0.006,0.014,-8.500,-43.552,3.505
19:18:29:85,28.114,-0.013,-0.005,0.017,-8.500,-43.552,3.505
19:18:29:851,28.115,-0.005,-0.003,0.010,-8.500,-43.552,3.505
19:18:29:874,28.138,-0.019,-0.004,0.020,-8.510,-43.548,3.508
19:18:29:899,28.164,-0.006,-0.001,0.012,-8.516,-43.547,3.507
19:18:29:956,28.220,-0.004,-0.008,0.009,-8.516,-43.547,3.507
19:18:29:956,28.220,-0.009,-0.003,0.011,-8.516,-43.547,3.507
19:18:29:981,28.245,-0.004,-0.004,0.005,-8.516,-43.547,3.507
19:18:30:036,28.300,-0.009,-0.005,0.015,-8.516,-43.547,3.507
19:18:30:036,28.300,-0.004,-0.005,0.009,-8.513,-43.546,3.497
19:18:30:087,28.351,-0.008,-0.006,0.013,-8.516,-43.552,3.491
19:18:30:087,28.351,-0.002,-0.003,0.006,-8.514,-43.551,3.481
19:18:30:11,28.374,-0.011,-0.003,0.018,-8.514,-43.551,3.481
19:18:30:163,28.427,-0.003,-0.003,0.009,-8.514,-43.551,3.481
19:18:30:19,28.454,-0.011,-0.006,0.014,-8.514,-43.551,3.481
19:18:30:217,28.481,-0.006,-0.006,0.014,-8.514,-43.551,3.481
19:18:30:218,28.482,-0.010,-0.007,0.018,-8.514,-43.551,3.481
19:18:30:241,28.505,-0.005,-0.003,0.010,-8.514,-43.551,3.481
19:18:30:297,28.561,-0.009,-0.003,0.017,-8.514,-43.541,3.481
19:18:30:297,28.561,-0.005,-0.002,0.012,-8.511,-43.526,3.486
19:18:30:323,28.587,-0.011,-0.004,0.017,-8.519,-43.506,3.493
19:18:30:323,28.587,-0.007,-0.002,0.013,-8.516,-43.472,3.516
19:18:30:347,28.611,-0.011,-0.004,0.017,-8.522,-43.442,3.534
19:18:30:402,28.666,-0.007,-0.003,0.012,-8.519,-43.402,3.552
19:18:30:402,28.666,-0.009,-0.006,0.017,-8.526,-43.368,3.574
19:18:30:484,28.748,-0.002,-0.003,0.010,-8.524,-43.339,3.582
19:18:30:484,28.748,-0.008,-0.002,0.009,-8.531,-43.323,3.585
19:18:30:485,28.749,-0.007,-0.005,0.013,-8.531,-43.323,3.585
19:18:30:504,28.768,-0.009,-0.004,0.014,-8.531,-43.323,3.585
19:18:30:559,28.823,-0.006,-0.005,0.014,-8.531,-43.323,3.585
19:18:30:56,28.824,-0.010,-0.008,0.016,-8.531,-43.323,3.585
19:18:30:582,28.846,-0.006,-0.004,0.015,-8.531,-43.323,3.585
19:18:30:61,28.874,-0.004,-0.006,0.013,-8.531,-43.323,3.585
19:18:30:693,28.957,-0.006,-0.004,0.013,-8.531,-43.323,3.585
19:18:30:694,28.958,-0.004,-0.002,0.013,-8.543,-43.324,3.592
19:18:30:695,28.959,-0.002,-0.003,0.010,-8.553,-43.315,3.610
19:18:30:746,29.010,-0.001,-0.004,0.005,-8.554,-43.292,3.633
19:18:30:746,29.010,-0.005,-0.002,0.013,-8.562,-43.282,3.641
19:18:30:768,29.032,0.001,-0.003,0.007,-8.559,-43.269,3.667
19:18:30:88,29.144,-0.006,-0.005,0.015,-8.558,-43.264,3.682
19:18:30:88,29.144,0.000,-0.001,0.006,-8.558,-43.264,3.703
19:18:30:881,29.145,-0.006,-0.004,0.015,-8.558,-43.264,3.703
19:18:30:882,29.146,0.001,-0.002,0.008,-8.563,-43.275,3.702
19:18:30:926,29.190,-0.005,-0.008,0.015,-8.563,-43.275,3.702
19:18:30:927,29.191,0.004,-0.001,0.005,-8.563,-43.275,3.702
19:18:30:951,29.215,-0.006,-0.004,0.017,-8.563,-43.275,3.702
19:18:31:005,29.269,-0.004,-0.004,0.014,-8.575,-43.276,3.709
19:18:31:006,29.270,-0.004,-0.005,0.012,-8.592,-43.276,3.716
19:18:31:028,29.293,0.003,-0.005,0.006,-8.613,-43.277,3.721
19:18:31:055,29.319,-0.007,-0.003,0.010,-8.633,-43.278,3.737
19:18:31:082,29.346,-0.001,-0.006,0.011,-8.657,-43.280,3.752
19:18:31:136,29.400,-0.004,-0.002,0.016,-8.659,-43.281,3.761
19:18:31:137,29.401,0.002,-0.006,0.011,-8.666,-43.283,3.790
19:18:31:189,29.453,-0.011,-0.004,0.012,-8.670,-43.279,3.805
19:18:31:189,29.453,-0.002,-0.002,0.011,-8.672,-43.280,3.814
19:18:31:212,29.477,-0.002,-0.004,0.009,-8.675,-43.281,3.824
19:18:31:268,29.532,0.000,-0.005,0.010,-8.679,-43.302,3.824
19:18:31:268,29.532,-0.003,-0.005,0.014,-8.680,-43.326,3.831
19:18:31:291,29.555,-0.003,-0.003,0.013,-8.674,-43.347,3.834
19:18:31:319,29.583,-0.004,-0.008,0.014,-8.674,-43.347,3.834
19:18:31:344,29.608,-0.004,-0.003,0.014,-8.684,-43.347,3.832
19:18:31:4,29.665,-0.004,-0.005,0.014,-8.695,-43.343,3.834
19:18:31:4,29.665,-0.004,-0.006,0.008,-8.715,-43.348,3.835
19:18:31:451,29.715,-0.004,-0.005,0.006,-8.730,-43.365,3.837
19:18:31:452,29.716,0.000,-0.004,0.013,-8.744,-43.410,3.842
19:18:31:475,29.739,-0.007,-0.002,0.010,-8.762,-43.451,3.841
19:18:31:53,29.794,-0.003,-0.001,0.008,-8.784,-43.486,3.833
19:18:31:531,29.795,0.004,-0.005,0.006,-8.808,-43.531,3.794
19:18:31:553,29.817,-0.004,-0.007,0.014,-8.830,-43.554,3.765
19:18:31:581,29.846,0.005,-0.001,0.010,-8.852,-43.588,3.737
19:18:31:634,29.898,-0.002,-0.007,0.013,-8.879,-43.593,3.726
19:18:31:663,29.927,0.006,-0.001,0.005,-8.895,-43.578,3.726
19:18:31:663,29.927,0.000,-0.008,0.014,-8.892,-43.573,3.732
19:18:31:714,29.978,0.007,-0.002,0.006,-8.892,-43.558,3.746
19:18:31:714,29.978,-0.004,-0.005,0.011,-8.899,-43.514,3.767
19:18:31:738,30.002,0.000,-0.005,0.010,-8.899,-43.495,3.786
19:18:31:794,30.058,-0.002,-0.003,0.012,-8.901,-43.472,3.809
19:18:31:795,30.059,0.001,-0.006,0.010,-8.901,-43.457,3.824
19:18:31:906,30.170,-0.002,-0.003,0.014,-8.901,-43.457,3.824
19:18:31:906,30.170,0.005,-0.006,0.005,-8.901,-43.457,3.824
19:18:31:906,30.170,0.000,-0.004,0.013,-8.901,-43.457,3.824
19:18:31:906,30.170,0.000,-0.003,0.013,-8.903,-43.458,3.833
19:18:31:922,30.186,-0.001,-0.004,0.014,-8.904,-43.454,3.838
19:18:31:979,30.243,0.001,-0.002,0.009,-8.899,-43.455,3.859
19:18:31:979,30.243,0.001,-0.006,0.011,-8.901,-43.460,3.865
19:18:32:,30.264,0.000,-0.003,0.012,-8.901,-43.460,3.865
19:18:32:026,30.290,-0.006,-0.004,0.015,-8.901,-43.460,3.865
19:18:32:055,30.319,0.001,-0.003,0.014,-8.901,-43.460,3.865
19:18:32:107,30.371,-0.002,-0.005,0.015,-8.901,-43.460,3.865
19:18:32:108,30.372,-0.004,-0.004,0.014,-8.901,-43.460,3.865
19:18:32:16,30.424,0.002,-0.002,0.013,-8.901,-43.460,3.865
19:18:32:161,30.425,0.002,-0.003,0.014,-8.901,-43.460,3.865
19:18:32:184,30.448,0.006,-0.001,0.007,-8.901,-43.460,3.865
19:18:32:239,30.503,-0.003,-0.006,0.013,-8.901,-43.460,3.865
19:18:32:24,30.504,0.003,-0.004,0.009,-8.901,-43.460,3.865
19:18:32:262,30.526,0.001,-0.003,0.014,-8.901,-43.460,3.865
19:18:32:288,30.552,0.006,-0.001,0.007,-8.901,-43.460,3.865
19:18:32:315,30.579,0.002,-0.006,0.015,-8.901,-43.460,3.865
19:18:32:341,30.605,0.005,-0.005,0.005,-8.901,-43.460,3.865
19:18:32:367,30.631,-0.005,-0.005,0.017,-8.907,-43.445,3.867
19:18:32:424,30.688,0.005,-0.003,0.011,-8.907,-43.445,3.867
19:18:32:424,30.688,-0.003,-0.007,0.017,-8.907,-43.445,3.867
19:18:32:446,30.710,0.006,-0.001,0.010,-8.907,-43.445,3.867
19:18:32:501,30.765,0.000,-0.005,0.014,-8.907,-43.445,3.867
19:18:32:502,30.766,0.003,-0.005,0.011,-8.907,-43.445,3.867
19:18:32:528,30.792,0.002,-0.006,0.015,-8.907,-43.445,3.867
19:18:32:528,30.792,0.004,-0.004,0.011,-8.907,-43.445,3.867
19:18:32:611,30.875,0.002,-0.005,0.013,-8.907,-43.445,3.867
19:18:32:611,30.875,0.004,-0.005,0.011,-8.907,-43.445,3.867
19:18:32:611,30.875,0.000,-0.003,0.016,-8.907,-43.445,3.867
19:18:32:631,30.895,0.003,-0.004,0.011,-8.907,-43.445,3.867
19:18:32:682,30.946,0.002,-0.003,0.014,-8.907,-43.445,3.867
19:18:32:713,30.977,0.008,-0.005,0.007,-8.907,-43.445,3.867
19:18:32:713,30.977,0.009,-0.001,0.003,-8.896,-43.440,3.864
19:18:32:764,31.028,0.002,-0.008,0.015,-8.896,-43.440,3.864
19:18:32:765,31.029,0.009,-0.007,0.007,-8.881,-43.408,3.856
19:18:32:816,31.080,-0.003,-0.011,0.021,-8.873,-43.382,3.861
19:18:32:817,31.081,-0.006,-0.004,0.019,-8.857,-43.354,3.873
19:18:32:841,31.105,-0.006,-0.005,0.021,-8.842,-43.328,3.890
19:18:32:895,31.159,-0.002,-0.005,0.018,-8.830,-43.312,3.897
19:18:32:896,31.160,0.000,-0.007,0.018,-8.816,-43.309,3.905
19:18:32:95,31.214,0.005,-0.001,0.010,-8.816,-43.309,3.905
19:18:32:95,31.214,-0.003,-0.003,0.015,-8.816,-43.309,3.905
19:18:32:971,31.235,0.003,-0.003,0.010,-8.816,-43.309,3.905
19:18:33:05,31.314,-0.003,-0.007,0.017,-8.816,-43.309,3.905
19:18:33:082,31.346,0.006,-0.004,0.012,-8.815,-43.323,3.881
19:18:33:082,31.346,0.000,-0.005,0.016,-8.819,-43.331,3.860
19:18:33:083,31.347,0.008,-0.004,0.008,-8.817,-43.330,3.829
19:18:33:131,31.395,0.001,-0.004,0.017,-8.812,-43.328,3.810
19:18:33:132,31.396,0.008,-0.003,0.012,-8.813,-43.330,3.795
19:18:33:155,31.419,0.001,-0.005,0.018,-8.818,-43.295,3.786
19:18:33:21,31.474,0.004,-0.005,0.013,-8.819,-43.264,3.784
19:18:33:211,31.475,-0.002,-0.003,0.020,-8.825,-43.197,3.772
19:18:33:233,31.497,0.001,-0.005,0.013,-8.825,-43.150,3.764
19:18:33:26,31.524,-0.001,-0.004,0.015,-8.832,-43.089,3.758
19:18:33:316,31.580,0.003,-0.004,0.010,-8.832,-43.042,3.750
19:18:33:317,31.581,0.001,-0.003,0.014,-8.838,-42.975,3.739
19:18:33:339,31.603,0.005,0.001,0.011,-8.813,-42.913,3.730
19:18:33:394,31.658,0.001,-0.005,0.012,-8.789,-42.867,3.727
19:18:33:395,31.659,-0.001,-0.007,0.011,-8.731,-42.815,3.728
19:18:33:419,31.683,-0.006,-0.006,0.019,-8.690,-42.794,3.726
19:18:33:472,31.737,0.000,-0.004,0.014,-8.633,-42.788,3.724
19:18:33:473,31.738,0.001,-0.007,0.015,-8.593,-42.787,3.723
19:18:33:496,31.760,0.004,-0.004,0.013,-8.571,-42.786,3.718
19:18:33:522,31.786,-0.002,-0.007,0.016,-8.541,-42.780,3.720
19:18:33:609,31.873,0.001,-0.005,0.013,-8.520,-42.796,3.721
19:18:33:61,31.874,-0.003,-0.008,0.015,-8.474,-42.815,3.724
19:18:33:61,31.874,-0.003,-0.005,0.017,-8.443,-42.841,3.728
19:18:33:627,31.891,0.001,-0.005,0.011,-8.397,-42.912,3.723
19:18:33:655,31.920,-0.004,-0.008,0.020,-8.352,-43.006,3.704
19:18:33:681,31.945,-0.001,-0.002,0.015,-8.343,-43.082,3.686
19:18:33:737,32.001,-0.005,-0.010,0.015,-8.331,-43.207,3.640
19:18:33:737,32.001,0.004,-0.003,0.009,-8.332,-43.297,3.605
19:18:33:79,32.054,-0.002,-0.005,0.015,-8.348,-43.451,3.534
19:18:33:79,32.054,0.000,-0.004,0.009,-8.378,-43.624,3.462
19:18:33:843,32.107,-0.003,-0.005,0.020,-8.410,-43.729,3.405
19:18:33:843,32.108,0.003,-0.006,0.013,-8.467,-43.901,3.317
19:18:33:865,32.129,0.001,-0.008,0.015,-8.517,-44.020,3.252
19:18:33:92,32.184,0.008,-0.005,0.006,-8.588,-44.188,3.155
19:18:33:92,32.184,-0.003,-0.007,0.017,-8.640,-44.301,3.095
19:18:33:943,32.207,0.004,-0.002,0.003,-8.729,-44.464,3.009
19:18:33:968,32.232,-0.002,-0.006,0.011,-8.810,-44.642,2.932
19:18:33:995,32.259,0.003,-0.003,0.011,-8.869,-44.756,2.881
19:18:34:05,32.314,-0.001,-0.005,0.011,-8.952,-44.930,2.809
19:18:34:051,32.315,0.002,-0.004,0.014,-8.998,-45.048,2.766
19:18:34:103,32.367,-0.004,-0.007,0.015,-9.057,-45.223,2.700
19:18:34:103,32.367,0.006,-0.003,0.004,-9.124,-45.392,2.647
19:18:34:126,32.390,0.008,0.000,0.008,-9.158,-45.512,2.618
19:18:34:181,32.445,0.009,-0.005,0.019,-9.189,-45.692,2.584
19:18:34:182,32.446,0.009,-0.008,0.029,-9.204,-45.766,2.551
19:18:34:206,32.470,0.018,-0.003,0.017,-9.236,-45.800,2.521
19:18:34:231,32.495,0.010,-0.006,0.013,-9.253,-45.726,2.491
19:18:34:26,32.524,0.003,-0.002,0.015,-9.255,-45.651,2.490
19:18:34:285,32.549,0.006,-0.004,0.012,-9.257,-45.494,2.493
19:18:34:31,32.574,0.009,-0.005,0.016,-9.260,-45.371,2.503
19:18:34:336,32.600,-0.003,-0.003,0.017,-9.261,-45.170,2.518
19:18:34:362,32.626,0.002,-0.003,0.008,-9.260,-44.959,2.564
19:18:34:388,32.652,0.007,-0.003,0.012,-9.238,-44.826,2.604
19:18:34:444,32.708,-0.003,-0.007,0.010,-9.202,-44.621,2.673
19:18:34:445,32.709,0.010,0.001,0.010,-9.168,-44.496,2.718
19:18:34:468,32.732,0.002,-0.006,0.002,-9.131,-44.313,2.789
19:18:34:494,32.758,0.003,-0.005,0.001,-9.077,-44.125,2.869
19:18:34:549,32.813,-0.002,-0.005,0.009,-9.041,-44.032,2.917
19:18:34:549,32.813,0.006,-0.005,0.005,-8.960,-43.915,2.999
19:18:34:601,32.865,-0.003,-0.005,0.009,-8.905,-43.848,3.057
19:18:34:602,32.866,0.001,-0.006,0.006,-8.832,-43.754,3.135
19:18:34:626,32.890,-0.003,-0.006,0.011,-8.786,-43.702,3.188
19:18:34:653,32.917,0.008,-0.008,0.009,-8.720,-43.619,3.254
19:18:34:708,32.972,0.000,-0.003,0.013,-8.653,-43.547,3.321
19:18:34:709,32.973,0.000,-0.005,0.011,-8.608,-43.509,3.359
19:18:34:73,32.994,-0.006,-0.004,0.019,-8.534,-43.455,3.419
19:18:34:756,33.020,0.005,-0.005,0.012,-8.487,-43.431,3.454
19:18:34:816,33.080,-0.002,-0.002,0.015,-8.412,-43.419,3.517
19:18:34:816,33.080,0.000,-0.002,0.012,-8.336,-43.417,3.581
19:18:34:816,33.080,-0.003,-0.006,0.016,-8.288,-43.409,3.612
19:18:34:836,33.100,0.006,-0.005,0.011,-8.222,-43.431,3.660
19:18:34:919,33.183,-0.001,-0.004,0.015,-8.179,-43.449,3.697
19:18:34:92,33.184,0.006,-0.006,0.014,-8.116,-43.491,3.756
19:18:34:92,33.184,-0.001,-0.005,0.017,-8.073,-43.509,3.792
19:18:34:97,33.235,0.003,-0.002,0.017,-8.016,-43.543,3.859
19:18:34:992,33.256,0.006,-0.006,0.014,-7.956,-43.571,3.931
19:18:35:021,33.285,0.002,-0.003,0.017,-7.925,-43.590,3.975
19:18:35:022,33.286,-0.002,-0.006,0.025,-7.883,-43.608,4.053
19:18:35:071,33.335,0.000,-0.004,0.020,-7.862,-43.615,4.094
19:18:35:101,33.365,0.004,-0.006,0.019,-7.853,-43.608,4.157
19:18:35:101,33.365,0.004,-0.007,0.017,-7.848,-43.612,4.220
19:18:35:152,33.417,0.010,-0.001,0.011,-7.842,-43.608,4.257
19:18:35:153,33.418,0.003,-0.005,0.021,-7.836,-43.607,4.315
19:18:35:176,33.440,0.006,-0.004,0.008,-7.813,-43.604,4.345
19:18:35:202,33.466,0.004,-0.004,0.020,-7.776,-43.635,4.387
19:18:35:258,33.522,0.010,-0.003,0.009,-7.738,-43.666,4.407
19:18:35:259,33.523,0.004,-0.008,0.016,-7.717,-43.702,4.409
19:18:35:281,33.545,0.002,-0.001,0.007,-7.696,-43.767,4.403
19:18:35:338,33.602,0.005,-0.004,0.015,-7.689,-43.818,4.407
19:18:35:338,33.602,0.012,-0.007,0.007,-7.682,-43.904,4.399
19:18:35:36,33.624,0.003,-0.003,0.019,-7.670,-43.949,4.378
19:18:35:415,33.679,0.015,-0.002,0.014,-7.660,-44.010,4.374
19:18:35:416,33.680,0.011,-0.003,0.016,-7.654,-44.040,4.357
19:18:35:441,33.705,0.017,-0.003,0.009,-7.657,-44.038,4.346
19:18:35:465,33.729,0.004,-0.004,0.019,-7.661,-44.034,4.360
19:18:35:55,33.814,0.011,-0.005,0.011,-7.655,-44.030,4.376
19:18:35:55,33.814,0.005,-0.006,0.014,-7.661,-44.027,4.400
19:18:35:551,33.815,0.012,-0.003,0.011,-7.688,-43.999,4.423
19:18:35:57,33.834,0.003,-0.005,0.013,-7.705,-43.984,4.444
19:18:35:596,33.860,0.012,-0.004,0.007,-7.727,-43.966,4.468
19:18:35:68,33.944,0.006,-0.003,0.017,-7.741,-43.951,4.480
19:18:35:681,33.945,0.012,-0.002,0.011,-7.753,-43.927,4.501
19:18:35:682,33.946,0.008,-0.008,0.009,-7.753,-43.918,4.521
19:18:35:701,33.965,0.006,-0.006,0.009,-7.752,-43.920,4.541
19:18:35:728,33.992,0.004,-0.003,0.016,-7.767,-43.919,4.538
19:18:35:783,34.047,0.008,-0.002,0.007,-7.787,-43.920,4.534
19:18:35:783,34.047,0.006,-0.009,0.011,-7.821,-43.920,4.526
19:18:35:806,34.070,0.005,-0.003,0.014,-7.840,-43.935,4.507
19:18:35:862,34.126,0.008,-0.006,0.013,-7.866,-43.963,4.472
19:18:35:863,34.127,0.006,-0.005,0.013,-7.886,-43.993,4.438
19:18:35:885,34.149,0.008,-0.006,0.013,-7.903,-44.012,4.405
19:18:35:911,34.175,0.009,-0.005,0.012,-7.931,-44.005,4.352
19:18:35:938,34.202,0.015,-0.003,0.006,-7.954,-44.008,4.321
19:18:35:994,34.258,0.010,-0.004,0.011,-7.982,-44.010,4.269
19:18:35:994,34.258,0.012,-0.004,0.006,-8.001,-44.008,4.224
19:18:36:016,34.280,0.004,-0.008,0.017,-8.014,-44.011,4.195
19:18:36:042,34.306,0.013,0.000,0.005,-8.048,-44.010,4.146
19:18:36:071,34.335,0.008,-0.007,0.012,-8.073,-44.015,4.125
19:18:36:124,34.388,0.007,-0.001,0.011,-8.115,-44.001,4.084
19:18:36:125,34.389,0.010,-0.003,0.010,-8.150,-43.986,4.060
19:18:36:148,34.412,0.008,-0.002,0.009,-8.197,-43.974,4.038
19:18:36:174,34.438,0.003,-0.006,0.017,-8.246,-43.981,4.032
19:18:36:23,34.494,0.012,-0.002,0.006,-8.275,-43.981,4.025
19:18:36:256,34.520,0.003,-0.004,0.013,-8.328,-43.981,4.013
19:18:36:256,34.520,0.006,-0.007,0.012,-8.353,-43.980,4.008
19:18:36:308,34.572,0.008,-0.002,0.007,-8.402,-43.986,4.002
19:18:36:309,34.573,0.011,-0.008,0.009,-8.444,-43.971,3.986
19:18:36:333,34.597,0.004,-0.005,0.013,-8.474,-43.950,3.978
19:18:36:388,34.652,0.009,-0.006,0.009,-8.513,-43.924,3.962
19:18:36:389,34.653,0.003,-0.007,0.013,-8.533,-43.910,3.961
19:18:36:41,34.674,0.009,-0.004,0.008,-8.566,-43.904,3.948
19:18:36:491,34.755,0.006,-0.006,0.012,-8.586,-43.904,3.943
19:18:36:523,34.787,0.009,-0.001,0.010,-8.604,-43.882,3.928
19:18:36:523,34.787,0.003,-0.007,0.012,-8.617,-43.842,3.912
19:18:36:524,34.788,0.010,-0.005,0.007,-8.633,-43.827,3.912
19:18:36:57,34.834,0.006,-0.005,0.012,-8.653,-43.796,3.905
19:18:36:571,34.835,0.004,-0.003,0.007,-8.675,-43.770,3.904
19:18:36:595,34.859,0.005,-0.001,0.015,-8.701,-43.755,3.902
19:18:36:649,34.914,0.008,-0.003,0.009,-8.699,-43.750,3.896
19:18:36:649,34.914,0.011,-0.007,0.008,-8.705,-43.729,3.894
19:18:36:673,34.937,0.004,-0.004,0.013,-8.720,-43.699,3.888
19:18:36:699,34.963,0.016,0.000,0.002,-8.753,-43.669,3.888
19:18:36:784,35.048,0.011,-0.003,0.003,-8.793,-43.607,3.875
19:18:36:784,35.048,0.012,0.000,0.005,-8.815,-43.561,3.871
19:18:36:784,35.048,0.010,-0.007,0.008,-8.826,-43.530,3.867
19:18:36:834,35.099,0.013,-0.004,0.005,-8.847,-43.480,3.858
19:18:36:834,35.099,0.005,-0.003,0.010,-8.852,-43.442,3.850
19:18:36:857,35.121,0.011,-0.003,0.007,-8.858,-43.402,3.845
19:18:36:962,35.226,0.012,-0.004,0.008,-8.859,-43.361,3.842
19:18:37:025,35.289,0.009,-0.001,0.006,-8.851,-43.329,3.842
19:18:37:025,35.289,0.009,-0.002,0.009,-8.822,-43.295,3.862
19:18:37:025,35.289,0.010,-0.006,0.008,-8.796,-43.276,3.877
19:18:37:025,35.289,0.004,-0.005,0.013,-8.758,-43.247,3.904
19:18:37:043,35.307,0.012,0.000,0.007,-8.733,-43.243,3.925
19:18:37:043,35.307,0.008,-0.007,0.013,-8.679,-43.238,3.953
19:18:37:098,35.362,0.011,-0.002,0.010,-8.636,-43.239,3.984
19:18:37:099,35.363,0.010,-0.005,0.015,-8.601,-43.225,4.007
19:18:37:099,35.363,0.010,-0.003,0.008,-8.561,-43.180,4.039
19:18:37:121,35.385,0.004,-0.004,0.018,-8.537,-43.171,4.065
19:18:37:176,35.440,0.010,-0.005,0.009,-8.500,-43.169,4.119
19:18:37:177,35.441,0.007,-0.005,0.002,-8.468,-43.166,4.153
19:18:37:286,35.550,0.011,-0.001,0.004,-8.437,-43.182,4.176
19:18:37:287,35.551,0.008,-0.006,0.013,-8.383,-43.233,4.213
19:18:37:287,35.551,0.007,-0.006,0.017,-8.349,-43.261,4.228
19:18:37:287,35.551,0.008,-0.004,0.013,-8.307,-43.291,4.250
19:18:37:302,35.566,0.011,-0.001,0.012,-8.282,-43.311,4.257
19:18:37:358,35.622,0.013,-0.006,0.011,-8.240,-43.334,4.279
19:18:37:359,35.623,0.009,-0.004,0.012,-8.193,-43.348,4.296
19:18:37:381,35.645,0.013,-0.005,0.011,-8.164,-43.364,4.309
19:18:37:408,35.672,0.013,-0.005,0.011,-8.113,-43.385,4.333
19:18:37:493,35.757,0.015,-0.003,0.006,-8.087,-43.399,4.335
19:18:37:493,35.757,0.009,-0.008,0.013,-8.037,-43.424,4.343
19:18:37:493,35.757,0.014,-0.003,0.011,-8.007,-43.455,4.352
19:18:37:513,35.778,0.012,-0.008,0.013,-7.990,-43.480,4.352
19:18:37:54,35.804,0.016,-0.004,0.010,-7.959,-43.505,4.356
19:18:37:566,35.830,0.012,-0.001,0.011,-7.944,-43.499,4.354
19:18:37:622,35.886,0.016,-0.003,0.009,-7.915,-43.506,4.366
19:18:37:622,35.886,0.012,-0.005,0.013,-7.896,-43.505,4.371
19:18:37:673,35.937,0.015,-0.002,0.013,-7.871,-43.501,4.392
19:18:37:673,35.937,0.009,-0.005,0.013,-7.836,-43.496,4.415
19:18:37:725,35.989,0.016,-0.006,0.006,-7.820,-43.497,4.429
19:18:37:726,35.990,0.012,-0.005,0.012,-7.789,-43.513,4.453
19:18:37:75,36.014,0.013,-0.003,0.012,-7.773,-43.518,4.472
19:18:37:806,36.070,0.009,-0.004,0.018,-7.768,-43.519,4.494
19:18:37:806,36.070,0.015,-0.001,0.010,-7.764,-43.518,4.495
19:18:37:827,36.091,0.006,-0.002,0.015,-7.750,-43.514,4.503
19:18:37:853,36.117,0.010,-0.004,0.010,-7.713,-43.509,4.517
19:18:37:881,36.146,0.011,-0.005,0.014,-7.695,-43.504,4.526
19:18:37:935,36.199,0.010,-0.005,0.011,-7.653,-43.500,4.540
19:18:37:936,36.200,0.008,-0.005,0.013,-7.629,-43.498,4.546
19:18:37:99,36.254,0.014,-0.007,0.012,-7.620,-43.513,4.534
19:18:37:99,36.254,0.009,-0.005,0.013,-7.620,-43.512,4.513
19:18:38:067,36.331,0.008,-0.004,0.016,-7.618,-43.509,4.483
19:18:38:067,36.332,0.010,-0.005,0.013,-7.620,-43.510,4.472
19:18:38:09,36.354,0.008,-0.004,0.017,-7.617,-43.504,4.457
19:18:38:116,36.380,0.010,-0.002,0.011,-7.612,-43.502,4.438
19:18:38:2,36.464,0.012,-0.005,0.010,-7.610,-43.501,4.428
19:18:38:201,36.465,0.009,-0.005,0.013,-7.616,-43.496,4.411
19:18:38:202,36.466,0.013,-0.005,0.009,-7.613,-43.495,4.401
19:18:38:25,36.514,0.009,-0.005,0.013,-7.611,-43.494,4.371
19:18:38:251,36.515,0.013,-0.005,0.007,-7.609,-43.491,4.341
19:18:38:273,36.538,0.004,-0.007,0.014,-7.608,-43.500,4.321
19:18:38:329,36.593,0.017,-0.004,0.007,-7.597,-43.529,4.284
19:18:38:33,36.594,0.010,-0.006,0.011,-7.613,-43.543,4.266
19:18:38:355,36.619,0.010,-0.001,0.000,-7.633,-43.572,4.232
19:18:38:38,36.644,0.012,-0.004,0.005,-7.625,-43.611,4.206
19:18:38:463,36.727,0.019,-0.006,0.010,-7.622,-43.681,4.170
19:18:38:464,36.728,0.012,-0.004,0.013,-7.628,-43.694,4.133
19:18:38:465,36.729,0.014,-0.002,0.006,-7.625,-43.684,4.123
19:18:38:513,36.777,0.007,-0.001,0.012,-7.607,-43.652,4.105
19:18:38:513,36.777,0.009,-0.003,0.008,-7.600,-43.625,4.090
19:18:38:539,36.803,0.005,-0.003,0.014,-7.573,-43.598,4.079
19:18:38:591,36.855,0.010,-0.005,0.008,-7.555,-43.576,4.062
19:18:38:592,36.856,0.008,-0.002,0.012,-7.548,-43.555,4.052
19:18:38:644,36.909,0.008,-0.005,0.010,-7.541,-43.528,4.037
19:18:38:644,36.909,0.006,-0.003,0.011,-7.545,-43.512,4.030
19:18:38:696,36.960,0.007,-0.001,0.009,-7.536,-43.508,4.016
19:18:38:697,36.961,0.008,-0.004,0.010,-7.524,-43.507,4.009
19:18:38:722,36.986,0.009,-0.003,0.008,-7.496,-43.521,4.001
19:18:38:775,37.039,-0.001,-0.001,0.016,-7.473,-43.551,3.998
19:18:38:776,37.040,0.008,0.000,0.005,-7.457,-43.576,3.998
19:18:38:798,37.062,0.007,-0.005,0.013,-7.419,-43.636,4.000
19:18:38:854,37.118,0.008,-0.002,0.013,-7.392,-43.682,4.004
19:18:38:88,37.144,0.006,-0.003,0.011,-7.366,-43.743,4.014
19:18:38:881,37.145,0.010,-0.003,0.010,-7.333,-43.819,4.020
19:18:38:905,37.169,0.010,-0.007,0.008,-7.316,-43.871,4.027
19:18:38:959,37.223,0.014,-0.006,0.007,-7.300,-43.942,4.035
19:18:38:96,37.224,0.014,-0.002,0.006,-7.287,-44.014,4.042
19:18:38:982,37.246,0.009,-0.009,0.013,-7.287,-44.060,4.049
19:18:39:04,37.304,0.012,-0.004,0.010,-7.281,-44.117,4.059
19:18:39:04,37.304,0.007,0.000,0.013,-7.275,-44.157,4.063
19:18:39:061,37.325,0.012,-0.004,0.008,-7.279,-44.214,4.070
19:18:39:088,37.352,0.010,-0.005,0.012,-7.268,-44.255,4.075
19:18:39:143,37.407,0.014,-0.003,0.006,-7.267,-44.311,4.083
19:18:39:171,37.435,0.011,-0.011,0.006,-7.232,-44.386,4.080
19:18:39:171,37.435,0.015,-0.012,0.007,-7.201,-44.431,4.064
19:18:39:223,37.487,0.007,-0.003,0.016,-7.189,-44.491,4.050
19:18:39:223,37.487,0.014,-0.006,0.007,-7.184,-44.526,4.058
19:18:39:245,37.509,0.012,-0.009,0.009,-7.176,-44.582,4.058
19:18:39:329,37.593,0.011,-0.006,0.011,-7.169,-44.644,4.062
19:18:39:33,37.594,0.008,-0.004,0.017,-7.173,-44.684,4.064
19:18:39:331,37.595,0.012,-0.004,0.011,-7.167,-44.731,4.073
19:18:39:35,37.614,0.007,-0.004,0.016,-7.166,-44.762,4.075
19:18:39:431,37.695,0.013,-0.004,0.012,-7.160,-44.812,4.079
19:18:39:462,37.726,0.005,-0.004,0.017,-7.160,-44.838,4.085
19:18:39:462,37.726,0.010,-0.002,0.012,-7.158,-44.889,4.089
19:18:39:488,37.752,0.012,-0.006,0.010,-7.158,-44.935,4.096
19:18:39:489,37.753,0.012,-0.001,0.013,-7.165,-44.971,4.091
19:18:39:489,37.753,0.009,-0.006,0.015,-7.180,-45.012,4.100
19:18:39:565,37.829,0.012,-0.005,0.015,-7.195,-45.038,4.104
19:18:39:566,37.830,0.004,-0.004,0.009,-7.208,-45.069,4.102
19:18:39:567,37.831,0.009,-0.007,0.013,-7.215,-45.124,4.078
19:18:39:615,37.879,0.012,-0.006,0.015,-7.225,-45.168,4.064
19:18:39:616,37.880,0.009,-0.008,0.017,-7.243,-45.219,4.042
19:18:39:666,37.930,0.014,0.000,0.007,-7.265,-45.244,4.033
19:18:39:696,37.960,0.012,-0.006,0.011,-7.293,-45.274,4.008
19:18:39:696,37.960,0.018,-0.005,0.006,-7.314,-45.304,3.995
19:18:39:748,38.012,0.007,-0.006,0.016,-7.336,-45.349,3.968
19:18:39:748,38.012,0.016,-0.001,0.011,-7.373,-45.410,3.943
19:18:39:77,38.035,0.013,-0.008,0.010,-7.398,-45.433,3.923
19:18:39:796,38.060,0.017,-0.002,0.007,-7.438,-45.473,3.907
19:18:39:822,38.086,0.012,-0.006,0.012,-7.459,-45.494,3.893
19:18:39:848,38.112,0.014,-0.003,0.010,-7.503,-45.520,3.890
19:18:39:875,38.139,0.010,-0.008,0.015,-7.543,-45.541,3.893
19:18:39:93,38.194,0.019,0.000,0.009,-7.575,-45.542,3.896
19:18:39:931,38.195,0.012,-0.003,0.016,-7.610,-45.547,3.894
19:18:39:955,38.219,0.015,-0.005,0.014,-7.640,-45.543,3.892
19:18:40:009,38.273,0.011,-0.004,0.012,-7.660,-45.549,3.893
19:18:40:01,38.274,0.014,-0.004,0.014,-7.686,-45.534,3.892
19:18:40:033,38.297,0.006,-0.003,0.016,-7.706,-45.530,3.892
19:18:40:059,38.323,0.016,-0.003,0.006,-7.732,-45.535,3.892
19:18:40:085,38.349,0.010,-0.007,0.016,-7.741,-45.535,3.890
19:18:40:14,38.404,0.016,-0.002,0.005,-7.763,-45.536,3.896
19:18:40:141,38.405,0.012,-0.004,0.012,-7.778,-45.535,3.892
19:18:40:193,38.457,0.016,-0.002,0.011,-7.792,-45.537,3.889
19:18:40:194,38.458,0.012,-0.004,0.012,-7.792,-45.537,3.889
19:18:40:217,38.481,0.013,-0.004,0.012,-7.792,-45.537,3.889
19:18:40:272,38.536,0.013,-0.008,0.012,-7.792,-45.537,3.889
19:18:40:273,38.537,0.010,-0.005,0.015,-7.792,-45.537,3.889
19:18:40:295,38.559,0.012,-0.002,0.012,-7.808,-45.541,3.891
19:18:40:321,38.585,0.016,-0.003,0.007,-7.828,-45.537,3.892
19:18:40:406,38.670,0.010,-0.002,0.013,-7.839,-45.542,3.895
19:18:40:406,38.670,0.013,-0.002,0.013,-7.840,-45.538,3.899
19:18:40:407,38.671,0.019,-0.004,0.006,-7.842,-45.539,3.909
19:18:40:426,38.690,0.010,-0.006,0.012,-7.842,-45.539,3.930
19:18:40:453,38.717,0.019,0.000,0.006,-7.839,-45.541,3.940
19:18:40:479,38.743,0.014,-0.006,0.013,-7.839,-45.541,3.961
19:18:40:505,38.769,0.015,-0.003,0.006,-7.846,-45.543,3.969
19:18:40:56,38.824,0.014,-0.004,0.009,-7.843,-45.542,3.980
19:18:40:561,38.825,0.019,-0.006,0.008,-7.854,-45.538,3.983
19:18:40:587,38.851,0.013,-0.006,0.012,-7.855,-45.543,3.988
19:18:40:639,38.903,0.016,-0.002,0.007,-7.851,-45.540,4.014
19:18:40:64,38.904,0.012,-0.008,0.010,-7.865,-45.542,4.031
19:18:40:662,38.926,0.019,-0.004,0.004,-7.865,-45.542,4.031
19:18:40:72,38.984,0.011,-0.006,0.017,-7.865,-45.542,4.031
19:18:40:741,39.005,0.011,-0.004,0.015,-7.865,-45.542,4.031
19:18:40:769,39.033,0.017,-0.004,0.007,-7.865,-45.542,4.031
19:18:40:796,39.060,0.011,-0.004,0.014,-7.865,-45.542,4.031
19:18:40:849,39.113,0.022,-0.005,0.004,-7.865,-45.542,4.031
19:18:40:85,39.114,0.016,-0.009,0.006,-7.865,-45.542,4.031
19:18:40:901,39.166,0.013,-0.005,0.009,-7.865,-45.542,4.031
19:18:40:902,39.166,0.010,-0.006,0.015,-7.865,-45.542,4.031
19:18:40:926,39.190,0.019,-0.005,0.008,-7.865,-45.542,4.031
19:18:40:98,39.244,0.013,-0.004,0.009,-7.865,-45.542,4.031
19:18:40:981,39.245,0.021,-0.001,0.006,-7.866,-45.547,4.037
19:18:41:003,39.267,0.010,-0.002,0.013,-7.866,-45.576,4.039
19:18:41:032,39.296,0.012,-0.006,0.011,-7.863,-45.592,4.035
19:18:41:113,39.377,0.011,-0.005,0.016,-7.857,-45.642,4.019
19:18:41:113,39.377,0.019,-0.004,0.005,-7.853,-45.711,3.994
19:18:41:136,39.400,0.019,-0.009,0.006,-7.847,-45.760,3.978
19:18:41:164,39.428,0.017,-0.004,0.012,-7.843,-45.820,3.952
19:18:41:165,39.429,0.021,-0.003,0.006,-7.847,-45.850,3.932
19:18:41:189,39.453,0.021,-0.005,0.000,-7.829,-45.893,3.903
19:18:41:243,39.507,0.024,-0.003,-0.003,-7.820,-45.917,3.871
19:18:41:243,39.507,0.015,-0.007,0.004,-7.816,-45.939,3.837
19:18:41:268,39.533,0.018,-0.007,0.001,-7.805,-45.972,3.796
19:18:41:345,39.609,0.016,-0.005,0.004,-7.813,-45.991,3.765
19:18:41:378,39.642,0.022,-0.001,-0.004,-7.824,-46.022,3.709
19:18:41:378,39.642,0.018,-0.006,0.001,-7.835,-46.047,3.672
19:18:41:379,39.643,0.021,-0.003,-0.002,-7.821,-46.098,3.622
19:18:41:426,39.690,0.013,-0.004,0.005,-7.807,-46.152,3.573
19:18:41:427,39.691,0.018,-0.002,0.004,-7.804,-46.194,3.541
19:18:41:45,39.715,0.009,-0.008,0.008,-7.785,-46.274,3.498
19:18:41:505,39.769,0.017,-0.008,0.007,-7.785,-46.322,3.461
19:18:41:506,39.770,0.013,-0.005,0.012,-7.789,-46.390,3.403
19:18:41:529,39.793,0.018,-0.004,0.006,-7.796,-46.432,3.348
19:18:41:555,39.819,0.008,-0.001,0.013,-7.794,-46.456,3.325
19:18:41:64,39.905,0.018,-0.003,-0.001,-7.804,-46.504,3.285
19:18:41:641,39.905,0.009,-0.008,0.008,-7.799,-46.534,3.268
19:18:41:641,39.905,0.013,-0.002,0.006,-7.800,-46.587,3.235
19:18:41:689,39.953,0.007,-0.004,0.012,-7.800,-46.616,3.217
19:18:41:69,39.954,0.019,-0.007,0.004,-7.800,-46.644,3.178
19:18:41:712,39.976,0.013,-0.004,0.004,-7.805,-46.672,3.138
19:18:41:738,40.002,0.016,-0.005,-0.005,-7.816,-46.687,3.121
19:18:41:765,40.029,0.009,-0.004,0.004,-7.814,-46.705,3.093
19:18:41:824,40.088,0.011,-0.003,0.006,-7.810,-46.713,3.074
19:18:41:824,40.088,0.010,-0.006,0.009,-7.809,-46.718,3.049
19:18:41:824,40.089,0.011,-0.004,0.009,-7.817,-46.717,3.037
19:18:41:875,40.139,0.008,-0.008,0.007,-7.816,-46.712,3.032
19:18:41:875,40.139,0.008,-0.005,0.007,-7.823,-46.711,3.020
19:18:41:954,40.218,0.014,-0.004,-0.001,-7.821,-46.710,3.010
19:18:41:955,40.219,0.009,-0.005,0.005,-7.830,-46.705,3.003
19:18:41:956,40.220,0.014,-0.004,0.000,-7.834,-46.699,2.997
19:18:41:975,40.239,0.006,-0.004,0.006,-7.843,-46.704,2.990
19:18:42:031,40.296,0.015,-0.006,-0.001,-7.842,-46.699,2.985
19:18:42:031,40.296,0.009,-0.004,0.004,-7.850,-46.703,2.978
19:18:42:084,40.348,0.012,-0.003,-0.001,-7.849,-46.698,2.973
19:18:42:084,40.348,0.007,-0.008,0.005,-7.848,-46.702,2.969
19:18:42:136,40.400,0.010,-0.005,-0.006,-7.857,-46.697,2.961
19:18:42:136,40.400,0.005,-0.005,0.006,-7.866,-46.697,2.959
19:18:42:158,40.422,0.012,-0.004,0.000,-7.881,-46.697,2.956
19:18:42:214,40.478,0.006,-0.002,0.004,-7.915,-46.698,2.949
19:18:42:214,40.479,0.007,-0.005,0.002,-7.934,-46.698,2.945
19:18:42:237,40.501,0.007,-0.005,0.004,-7.958,-46.707,2.941
19:18:42:264,40.528,0.009,-0.007,0.005,-7.989,-46.722,2.920
19:18:42:348,40.612,0.008,0.000,0.006,-8.015,-46.732,2.905
19:18:42:349,40.613,0.016,-0.007,-0.001,-8.046,-46.733,2.909
19:18:42:398,40.662,0.010,-0.005,0.004,-8.111,-46.737,2.901
19:18:42:398,40.663,0.010,-0.007,0.004,-8.136,-46.742,2.901
19:18:42:423,40.687,0.013,-0.002,-0.006,-8.163,-46.742,2.906
19:18:42:479,40.743,0.014,-0.006,-0.004,-8.162,-46.773,2.908
19:18:42:479,40.743,0.012,-0.008,0.007,-8.167,-46.799,2.914
19:18:42:501,40.765,0.020,-0.004,-0.002,-8.161,-46.829,2.917
19:18:42:527,40.791,0.009,-0.005,0.004,-8.161,-46.829,2.917
19:18:42:613,40.877,0.006,-0.007,0.002,-8.160,-46.861,2.919
19:18:42:613,40.877,0.016,-0.006,-0.002,-8.162,-46.891,2.931
19:18:42:613,40.877,0.013,-0.006,0.001,-8.159,-46.902,2.943
19:18:42:66,40.924,0.017,-0.005,0.003,-8.155,-46.904,2.974
19:18:42:661,40.925,0.014,-0.003,-0.004,-8.151,-46.901,3.000
19:18:42:684,40.948,0.008,-0.007,0.001,-8.136,-46.902,3.024
19:18:42:71,40.974,0.014,0.001,-0.005,-8.136,-46.893,3.023
19:18:42:736,41.000,0.011,-0.005,0.003,-8.131,-46.892,3.024
19:18:42:792,41.056,0.018,-0.003,0.002,-8.132,-46.887,3.028
19:18:42:792,41.056,0.014,-0.006,0.000,-8.134,-46.883,3.033
19:18:42:845,41.109,0.017,-0.004,-0.002,-8.134,-46.859,3.057
19:18:42:845,41.109,0.014,-0.004,0.004,-8.135,-46.845,3.081
19:18:42:868,41.132,0.010,0.000,-0.001,-8.099,-46.807,3.116
19:18:42:923,41.187,0.012,-0.005,0.005,-8.062,-46.367,3.162
19:18:42:923,41.187,0.018,-0.006,-0.005,-8.032,-46.360,3.188
19:18:42:948,41.212,0.003,0.000,0.004,-7.979,-46.322,3.237
19:18:43:,41.264,0.015,-0.006,0.001,-7.950,-46.317,3.268
19:18:43:057,41.321,0.012,-0.003,0.000,-7.907,-46.289,3.316
19:18:43:058,41.322,0.014,-0.007,-0.001,-7.878,-46.287,3.368
19:18:43:06,41.324,0.010,-0.004,0.004,-7.869,-46.273,3.394
19:18:43:107,41.371,0.021,-0.005,-0.002,-7.858,-46.276,3.438
19:18:43:107,41.371,0.014,-0.006,-0.001,-7.852,-46.089,3.463
19:18:43:13,41.394,0.019,-0.003,-0.002,-7.823,-46.097,3.515
19:18:43:186,41.450,0.013,-0.005,-0.001,-7.797,-46.073,3.555
19:18:43:186,41.450,0.017,-0.004,-0.001,-7.742,-46.113,3.614
19:18:43:209,41.473,0.020,-0.003,-0.003,-7.682,-46.156,3.671
19:18:43:235,41.499,0.014,-0.001,-0.001,-7.637,-46.187,3.702
19:18:43:319,41.583,0.013,-0.007,0.002,-7.571,-46.097,3.752
19:18:43:32,41.584,0.015,-0.007,0.001,-7.527,-46.124,3.788
19:18:43:369,41.633,0.011,-0.005,0.008,-7.409,-46.147,3.875
19:18:43:37,41.634,0.013,-0.003,0.010,-7.373,-46.118,3.912
19:18:43:394,41.658,0.011,-0.008,0.009,-7.319,-46.125,3.969
19:18:43:419,41.683,0.023,-0.003,-0.003,-7.286,-46.112,4.001
19:18:43:446,41.710,0.021,-0.003,0.002,-7.240,-46.109,4.066
19:18:43:472,41.736,0.019,-0.007,0.005,-7.210,-46.084,4.107
19:18:43:497,41.761,0.011,-0.004,0.004,-7.177,-46.051,4.158
19:18:43:553,41.817,0.019,-0.005,0.000,-7.142,-46.018,4.199
19:18:43:554,41.818,0.018,-0.004,0.002,-7.123,-46.017,4.224
19:18:43:578,41.842,0.020,-0.006,0.001,-7.091,-46.018,4.241
19:18:43:632,41.896,0.019,-0.007,0.004,-7.081,-46.018,4.243
19:18:43:632,41.896,0.025,-0.005,-0.004,-7.076,-45.800,4.237
19:18:43:655,41.919,0.014,-0.005,0.006,-7.089,-45.733,4.215
19:18:43:681,41.945,0.023,-0.003,0.000,-7.097,-45.732,4.204
19:18:43:707,41.972,0.014,-0.005,0.004,-7.114,-45.625,4.189
19:18:43:735,41.999,0.019,-0.005,0.002,-7.120,-45.624,4.168
19:18:43:761,42.025,0.017,-0.005,0.001,-7.131,-45.593,4.143
19:18:43:815,42.079,0.018,-0.006,0.001,-7.141,-45.590,4.100
19:18:43:816,42.080,0.011,-0.003,0.007,-7.155,-45.584,4.071
19:18:43:839,42.103,0.018,-0.002,0.001,-7.166,-45.582,4.028
19:18:43:895,42.159,0.014,-0.009,0.004,-7.170,-45.361,4.000
19:18:43:895,42.159,0.016,-0.004,0.001,-7.181,-45.359,3.957
19:18:43:918,42.182,0.012,-0.003,0.003,-7.187,-45.353,3.919
19:18:43:944,42.208,0.016,-0.004,-0.001,-7.195,-45.350,3.866
19:18:43:97,42.234,0.014,-0.006,0.001,-7.204,-45.328,3.812
19:18:44:025,42.289,0.017,-0.003,0.001,-7.212,-45.325,3.780
19:18:44:026,42.290,0.014,-0.007,0.002,-7.221,-45.293,3.725
19:18:44:081,42.345,0.012,-0.006,0.000,-7.231,-45.276,3.697
19:18:44:081,42.345,0.011,-0.007,0.004,-7.239,-45.253,3.663
19:18:44:082,42.346,0.014,-0.005,0.000,-7.250,-45.222,3.638
19:18:44:159,42.423,0.012,-0.007,0.000,-7.258,-45.120,3.631
19:18:44:16,42.424,0.013,-0.002,0.001,-7.267,-45.078,3.616
19:18:44:161,42.425,0.012,-0.010,-0.002,-7.275,-44.956,3.608
19:18:44:182,42.446,0.014,-0.008,-0.002,-7.287,-44.930,3.588
19:18:44:296,42.560,0.016,-0.004,-0.002,-7.295,-44.893,3.569
19:18:44:296,42.560,0.010,-0.006,0.001,-7.300,-44.873,3.546
19:18:44:296,42.560,0.016,-0.005,-0.005,-7.307,-44.855,3.508
19:18:44:296,42.560,0.004,-0.006,0.003,-7.312,-44.848,3.481
19:18:44:341,42.605,0.014,0.001,-0.001,-7.332,-44.800,3.428
19:18:44:342,42.606,0.015,-0.005,-0.003,-7.350,-44.787,3.393
19:18:44:364,42.628,0.015,-0.004,-0.006,-7.373,-44.754,3.335
19:18:44:42,42.684,0.014,0.000,-0.002,-7.383,-44.645,3.291
19:18:44:42,42.684,0.022,0.002,-0.006,-7.373,-44.618,3.266
19:18:44:472,42.736,0.010,-0.009,-0.005,-7.347,-44.567,3.258
19:18:44:472,42.736,0.007,-0.008,-0.005,-7.316,-44.556,3.254
19:18:44:524,42.788,0.006,-0.010,0.000,-7.270,-44.502,3.242
19:18:44:524,42.788,0.009,-0.007,-0.001,-7.256,-44.501,3.204
19:18:44:549,42.813,0.007,-0.005,0.000,-7.258,-44.275,3.170
19:18:44:604,42.868,0.009,-0.006,-0.005,-7.273,-44.308,3.113
19:18:44:604,42.868,0.003,-0.005,-0.004,-7.289,-44.300,3.073
19:18:44:627,42.891,0.008,-0.005,-0.006,-7.327,-44.394,3.013
19:18:44:683,42.947,0.002,-0.008,0.000,-7.355,-44.489,2.977
19:18:44:683,42.947,0.004,0.000,-0.004,-7.406,-44.665,2.920
19:18:44:734,42.998,0.011,-0.004,-0.001,-7.471,-44.895,2.847
19:18:44:734,42.998,0.008,-0.006,0.004,-7.519,-45.074,2.797
19:18:44:787,43.051,0.009,-0.004,0.001,-7.618,-45.335,2.719
19:18:44:787,43.051,0.007,-0.010,-0.001,-7.685,-45.496,2.664
19:18:44:81,43.074,0.006,-0.005,-0.006,-7.795,-45.725,2.583
19:18:44:866,43.130,0.015,-0.005,-0.005,-7.906,-45.954,2.502
19:18:44:866,43.130,0.011,-0.003,-0.004,-7.968,-46.099,2.463
19:18:44:888,43.152,0.023,-0.008,0.000,-8.068,-46.313,2.400
19:18:44:915,43.179,0.020,0.000,-0.008,-8.132,-46.443,2.365
19:18:44:943,43.207,0.019,0.000,-0.001,-8.250,-46.587,2.304
19:18:44:997,43.261,0.021,-0.005,-0.017,-8.364,-46.684,2.236
19:18:44:998,43.262,0.017,-0.005,-0.010,-8.433,-46.757,2.191
19:18:45:049,43.313,0.026,0.001,-0.009,-8.521,-46.843,2.118
19:18:45:05,43.314,0.023,-0.009,-0.002,-8.577,-46.871,2.078
19:18:45:072,43.336,0.014,-0.003,-0.009,-8.635,-46.883,2.021
19:18:45:128,43.392,0.013,-0.002,-0.006,-8.666,-46.886,2.000
19:18:45:128,43.393,0.021,-0.006,-0.007,-8.696,-46.873,1.973
19:18:45:181,43.445,0.006,-0.004,0.002,-8.714,-46.831,1.956
19:18:45:182,43.446,0.016,-0.003,-0.006,-8.724,-46.775,1.945
19:18:45:204,43.468,0.009,-0.003,-0.004,-8.728,-46.684,1.927
19:18:45:288,43.552,0.022,-0.007,-0.009,-8.741,-46.611,1.909
19:18:45:289,43.553,0.003,-0.005,-0.004,-8.747,-46.484,1.914
19:18:45:289,43.553,0.008,-0.002,-0.010,-8.748,-46.354,1.924
19:18:45:308,43.573,0.007,-0.009,-0.002,-8.742,-46.282,1.930
19:18:45:335,43.599,0.008,0.000,-0.002,-8.757,-46.177,1.935
19:18:45:39,43.654,0.011,-0.009,-0.001,-8.760,-46.095,1.938
19:18:45:391,43.655,0.014,-0.003,-0.002,-8.765,-45.980,1.944
19:18:45:416,43.680,-0.001,-0.007,-0.002,-8.766,-45.898,1.958
19:18:45:44,43.704,0.008,-0.003,-0.009,-8.759,-45.810,1.984
19:18:45:525,43.789,0.014,-0.008,-0.010,-8.754,-45.746,2.016
19:18:45:526,43.790,0.016,-0.005,-0.008,-8.750,-45.702,2.039
19:18:45:526,43.790,0.005,-0.005,-0.004,-8.725,-45.638,2.075
19:18:45:575,43.839,0.004,-0.007,-0.005,-8.715,-45.609,2.096
19:18:45:576,43.840,0.002,-0.012,0.000,-8.686,-45.571,2.140
19:18:45:598,43.862,0.008,-0.007,0.001,-8.670,-45.549,2.177
19:18:45:625,43.889,0.008,-0.006,-0.005,-8.654,-45.535,2.195
19:18:45:651,43.915,0.003,-0.006,-0.002,-8.636,-45.511,2.223
19:18:45:676,43.940,0.015,-0.003,-0.015,-8.622,-45.499,2.250
19:18:45:703,43.967,0.012,-0.007,-0.004,-8.605,-45.500,2.285
19:18:45:755,44.019,0.005,-0.005,-0.005,-8.570,-45.495,2.353
19:18:45:782,44.046,0.012,-0.005,-0.012,-8.542,-45.498,2.390
19:18:45:836,44.100,0.007,-0.005,-0.004,-8.527,-45.499,2.414
19:18:45:837,44.101,0.009,-0.006,-0.008,-8.503,-45.501,2.439
19:18:45:861,44.125,0.009,-0.002,0.001,-8.483,-45.523,2.466
19:18:45:886,44.151,0.015,-0.004,-0.009,-8.470,-45.534,2.479
19:18:45:943,44.207,0.007,-0.004,-0.006,-8.455,-45.536,2.503
19:18:45:943,44.207,0.008,-0.007,-0.005,-8.439,-45.532,2.522
19:18:45:965,44.229,0.011,-0.002,-0.005,-8.413,-45.528,2.542
19:18:46:021,44.285,0.007,-0.004,-0.006,-8.401,-45.530,2.576
19:18:46:021,44.285,0.007,-0.004,-0.001,-8.399,-45.525,2.591
19:18:46:043,44.307,0.006,-0.007,-0.007,-8.408,-45.528,2.630
19:18:46:098,44.362,0.008,-0.005,-0.004,-8.412,-45.530,2.649
19:18:46:127,44.391,0.005,-0.005,-0.004,-8.420,-45.528,2.683
19:18:46:127,44.391,0.009,-0.004,-0.003,-8.415,-45.529,2.705
19:18:46:149,44.413,0.014,-0.005,-0.009,-8.425,-45.506,2.747
19:18:46:175,44.439,0.006,-0.006,-0.001,-8.430,-45.489,2.785
19:18:46:232,44.496,0.012,-0.006,-0.002,-8.438,-45.477,2.818
19:18:46:232,44.496,0.015,-0.006,-0.002,-8.445,-45.438,2.865
19:18:46:254,44.518,0.012,0.000,-0.008,-8.451,-45.416,2.908
19:18:46:28,44.544,0.005,-0.003,-0.001,-8.438,-45.380,2.980
19:18:46:306,44.570,0.008,-0.003,-0.004,-8.399,-45.374,3.049
19:18:46:361,44.625,0.002,-0.007,0.000,-8.376,-45.368,3.104
19:18:46:362,44.626,0.007,-0.002,-0.005,-8.347,-45.357,3.176
19:18:46:414,44.678,0.013,-0.007,-0.010,-8.323,-45.349,3.222
19:18:46:415,44.679,0.008,-0.007,-0.007,-8.287,-45.348,3.286
19:18:46:469,44.733,0.015,-0.006,-0.009,-8.245,-45.367,3.352
19:18:46:47,44.734,0.007,-0.006,-0.002,-8.222,-45.410,3.391
19:18:46:471,44.735,0.015,-0.006,-0.007,-8.198,-45.444,3.449
19:18:46:49,44.754,0.008,-0.008,0.000,-8.180,-45.447,3.483
19:18:46:545,44.809,0.015,-0.007,-0.003,-8.177,-45.449,3.535
19:18:46:546,44.810,0.008,-0.008,0.000,-8.182,-45.441,3.575
19:18:46:623,44.887,0.010,-0.003,-0.001,-8.182,-45.449,3.621
19:18:46:685,44.949,0.011,-0.003,0.002,-8.180,-45.484,3.664
19:18:46:686,44.950,0.016,-0.004,-0.006,-8.182,-45.485,3.694
19:18:46:686,44.950,0.014,-0.006,-0.003,-8.180,-45.482,3.730
19:18:46:686,44.950,0.012,-0.003,-0.005,-8.181,-45.478,3.755
19:18:46:731,44.995,0.014,-0.006,0.001,-8.178,-45.480,3.787
19:18:46:731,44.995,0.013,-0.008,0.000,-8.185,-45.483,3.816
19:18:46:752,45.016,0.009,-0.006,0.001,-8.179,-45.484,3.837
19:18:46:808,45.072,0.014,-0.006,-0.005,-8.183,-45.480,3.852
19:18:46:809,45.073,0.014,-0.005,-0.003,-8.183,-45.480,3.852
19:18:46:831,45.095,0.014,-0.005,-0.005,-8.183,-45.480,3.852
19:18:46:858,45.122,0.011,-0.003,0.005,-8.183,-45.480,3.852
19:18:46:883,45.147,0.012,-0.008,-0.001,-8.183,-45.480,3.852
19:18:46:91,45.174,0.007,-0.007,0.004,-8.183,-45.480,3.852
19:18:46:994,45.258,0.016,-0.002,-0.004,-8.183,-45.480,3.852
19:18:46:995,45.259,0.015,-0.007,-0.005,-8.183,-45.480,3.852
19:18:46:996,45.260,0.012,-0.004,-0.005,-8.178,-45.470,3.852
19:18:47:015,45.279,0.010,-0.007,0.002,-8.184,-45.459,3.850
19:18:47:071,45.335,0.012,-0.007,0.000,-8.184,-45.459,3.850
19:18:47:071,45.335,0.010,-0.007,0.000,-8.184,-45.459,3.850
19:18:47:093,45.357,0.010,-0.006,-0.002,-8.184,-45.459,3.850
19:18:47:12,45.384,0.019,-0.001,-0.005,-8.184,-45.459,3.850
19:18:47:174,45.438,0.011,-0.003,0.000,-8.184,-45.459,3.850
19:18:47:202,45.466,0.018,-0.004,-0.007,-8.184,-45.459,3.850
19:18:47:203,45.467,0.013,-0.004,-0.002,-8.184,-45.459,3.850
19:18:47:254,45.518,0.016,-0.003,-0.003,-8.184,-45.459,3.850
19:18:47:255,45.519,0.015,-0.007,0.000,-8.182,-45.458,3.840
19:18:47:279,45.543,0.017,-0.005,-0.004,-8.184,-45.458,3.830
19:18:47:333,45.597,0.009,-0.003,0.000,-8.180,-45.462,3.815
19:18:47:334,45.598,0.016,-0.003,-0.006,-8.186,-45.461,3.794
19:18:47:357,45.621,0.012,-0.006,0.001,-8.179,-45.459,3.765
19:18:47:47,45.734,0.019,-0.005,-0.006,-8.181,-45.459,3.754
19:18:47:47,45.734,0.009,-0.006,-0.001,-8.181,-45.461,3.729
19:18:47:471,45.735,0.012,-0.005,-0.001,-8.181,-45.460,3.708
19:18:47:516,45.781,0.017,-0.009,-0.006,-8.178,-45.456,3.648
19:18:47:517,45.781,0.012,-0.002,-0.001,-8.179,-45.461,3.632
19:18:47:541,45.805,0.014,-0.005,-0.006,-8.182,-45.459,3.601
19:18:47:593,45.857,0.012,-0.004,-0.003,-8.177,-45.457,3.582
19:18:47:65,45.914,0.014,-0.004,-0.004,-8.180,-45.455,3.550
19:18:47:651,45.915,0.011,-0.004,-0.001,-8.181,-45.460,3.535
19:18:47:652,45.916,0.011,-0.008,-0.003,-8.180,-45.457,3.505
19:18:47:701,45.966,0.011,-0.003,0.001,-8.179,-45.461,3.480
19:18:47:701,45.966,0.013,-0.006,-0.004,-8.179,-45.460,3.459
19:18:47:724,45.988,0.013,-0.005,-0.005,-8.182,-45.459,3.448
19:18:47:779,46.043,0.012,-0.005,-0.003,-8.182,-45.459,3.448
19:18:47:78,46.044,0.012,-0.006,-0.003,-8.182,-45.459,3.448
19:18:47:803,46.067,0.012,-0.006,-0.003,-8.182,-45.459,3.448
19:18:47:829,46.093,0.010,-0.002,-0.002,-8.182,-45.459,3.448
19:18:47:882,46.147,0.015,-0.004,-0.004,-8.182,-45.459,3.448
19:18:47:909,46.173,0.020,-0.002,-0.010,-8.182,-45.459,3.448
19:18:47:936,46.200,0.015,-0.008,-0.005,-8.182,-45.459,3.448
19:18:47:937,46.201,0.021,-0.004,-0.010,-8.182,-45.459,3.448
19:18:47:96,46.224,0.017,-0.004,-0.006,-8.182,-45.459,3.448
19:18:47:986,46.250,0.018,-0.006,-0.007,-8.178,-45.465,3.454
19:18:48:042,46.306,0.015,-0.007,-0.005,-8.178,-45.475,3.455
19:18:48:065,46.329,0.011,-0.004,-0.001,-8.186,-45.516,3.456
19:18:48:151,46.415,0.019,-0.004,-0.005,-8.194,-45.530,3.450
19:18:48:151,46.415,0.013,-0.008,-0.001,-8.207,-45.536,3.442
19:18:48:151,46.415,0.016,-0.001,-0.006,-8.212,-45.545,3.442
19:18:48:228,46.492,0.009,-0.005,0.002,-8.221,-45.540,3.435
19:18:48:229,46.493,0.014,-0.002,-0.003,-8.225,-45.550,3.434
19:18:48:23,46.494,0.014,-0.005,0.003,-8.233,-45.560,3.423
19:18:48:248,46.512,0.013,-0.003,0.000,-8.236,-45.575,3.419
19:18:48:306,46.570,0.010,-0.009,0.000,-8.220,-45.580,3.417
19:18:48:307,46.571,0.016,-0.005,-0.002,-8.217,-45.589,3.408
19:18:48:329,46.593,0.014,-0.006,0.003,-8.207,-45.584,3.405
19:18:48:412,46.676,0.016,-0.003,0.001,-8.190,-45.594,3.399
19:18:48:413,46.677,0.015,-0.006,-0.001,-8.166,-45.592,3.384
19:18:48:413,46.677,0.015,-0.005,-0.004,-8.155,-45.587,3.381
19:18:48:435,46.699,0.008,-0.005,0.000,-8.124,-45.585,3.377
19:18:48:489,46.753,0.016,-0.003,0.000,-8.117,-45.586,3.369
19:18:48:489,46.753,0.012,-0.002,-0.001,-8.100,-45.578,3.357
19:18:48:512,46.776,0.014,-0.003,0.000,-8.092,-45.579,3.348
19:18:48:566,46.830,0.012,-0.005,0.002,-8.071,-45.578,3.343
19:18:48:567,46.831,0.009,-0.006,0.002,-8.043,-45.572,3.333
19:18:48:621,46.885,0.014,-0.005,0.001,-8.027,-45.570,3.326
19:18:48:621,46.885,0.010,-0.004,0.004,-8.000,-45.570,3.322
19:18:48:672,46.936,0.018,-0.007,-0.007,-7.979,-45.569,3.316
19:18:48:673,46.937,0.010,-0.007,0.002,-7.962,-45.569,3.310
19:18:48:695,46.959,0.018,-0.004,-0.006,-7.950,-45.569,3.302
19:18:48:754,47.018,0.008,-0.009,0.007,-7.948,-45.568,3.292
19:18:48:754,47.018,0.017,-0.004,-0.003,-7.936,-45.567,3.285
19:18:48:755,47.019,0.014,-0.007,0.004,-7.925,-45.562,3.282
19:18:48:774,47.038,0.025,-0.006,-0.013,-7.933,-45.552,3.290
19:18:48:826,47.090,0.013,-0.005,0.001,-7.943,-45.533,3.307
19:18:48:856,47.120,0.019,-0.005,0.001,-7.959,-45.489,3.326
19:18:48:856,47.120,0.009,-0.005,0.010,-7.968,-45.409,3.349
19:18:48:906,47.170,0.014,-0.001,0.003,-7.971,-45.344,3.370
19:18:48:934,47.198,0.006,-0.005,0.008,-7.978,-45.244,3.403
19:18:48:935,47.199,0.007,-0.004,0.007,-7.963,-45.180,3.417
19:18:48:957,47.221,0.004,-0.003,0.007,-7.963,-45.110,3.444
19:18:49:014,47.278,0.008,-0.003,0.004,-7.955,-45.049,3.462
19:18:49:014,47.279,0.010,-0.004,0.009,-7.954,-45.015,3.475
19:18:49:036,47.300,0.013,-0.009,0.002,-7.949,-44.970,3.489
19:18:49:063,47.327,0.007,-0.007,0.005,-7.942,-44.934,3.493
19:18:49:118,47.382,0.009,-0.001,0.005,-7.951,-44.900,3.504
19:18:49:119,47.383,0.007,-0.005,0.014,-7.946,-44.884,3.499
19:18:49:141,47.405,0.008,-0.003,0.004,-7.949,-44.853,3.487
19:18:49:167,47.431,0.003,-0.008,0.007,-7.948,-44.858,3.482
19:18:49:194,47.458,0.012,-0.004,0.002,-7.947,-44.853,3.477
19:18:49:22,47.484,0.007,-0.005,0.006,-7.950,-44.851,3.466
19:18:49:275,47.539,0.009,-0.005,0.007,-7.954,-44.852,3.465
19:18:49:276,47.540,0.005,-0.008,0.008,-7.952,-44.851,3.455
19:18:49:299,47.563,0.008,-0.007,0.008,-7.956,-44.845,3.449
19:18:49:325,47.589,0.007,-0.004,0.009,-7.954,-44.861,3.445
19:18:49:351,47.615,0.009,-0.005,0.008,-7.951,-44.880,3.437
19:18:49:407,47.671,0.015,-0.005,0.003,-7.955,-44.896,3.432
19:18:49:407,47.671,0.007,-0.005,0.011,-7.953,-44.900,3.427
19:18:49:461,47.725,0.012,-0.007,0.003,-7.952,-44.905,3.423
19:18:49:461,47.725,0.007,-0.009,0.008,-7.954,-44.915,3.413
19:18:49:482,47.746,0.014,-0.006,0.003,-7.953,-44.919,3.408
19:18:49:512,47.776,0.005,-0.006,0.010,-7.956,-44.925,3.403
19:18:49:535,47.799,0.010,-0.004,0.004,-7.954,-44.924,3.393
19:18:49:561,47.826,0.008,-0.006,0.010,-7.953,-44.938,3.389
19:18:49:59,47.854,0.013,-0.007,0.002,-7.957,-44.949,3.389
19:18:49:643,47.907,0.004,-0.004,0.009,-7.956,-44.944,3.384
19:18:49:644,47.908,0.012,-0.005,0.001,-7.960,-44.947,3.378
19:18:49:666,47.930,0.005,-0.005,0.009,-7.970,-44.948,3.376
19:18:49:722,47.986,0.013,-0.001,0.005,-7.978,-44.942,3.368
19:18:49:722,47.986,0.007,-0.002,0.006,-7.987,-44.947,3.362
19:18:49:747,48.011,0.012,-0.004,0.006,-7.994,-44.946,3.350
19:18:49:772,48.036,0.005,-0.004,0.011,-7.993,-44.941,3.345
19:18:49:799,48.063,0.010,-0.003,0.004,-7.992,-44.946,3.340
19:18:49:825,48.089,0.009,-0.007,0.008,-7.992,-44.946,3.340
19:18:49:852,48.116,0.011,-0.004,0.006,-8.007,-44.942,3.341
19:18:49:878,48.142,0.004,-0.004,0.014,-8.007,-44.942,3.341
19:18:49:903,48.167,0.012,-0.004,0.002,-8.012,-44.941,3.340
19:18:49:929,48.193,0.006,-0.006,0.008,-8.012,-44.941,3.340
19:18:49:984,48.248,0.014,-0.004,0.004,-8.012,-44.941,3.340
19:18:49:985,48.249,0.010,-0.005,0.006,-8.012,-44.941,3.340
19:18:50:008,48.272,0.010,-0.006,0.008,-8.012,-44.941,3.340
19:18:50:034,48.298,0.007,-0.005,0.006,-8.012,-44.941,3.340
19:18:50:09,48.354,0.008,-0.003,0.007,-8.012,-44.941,3.340
19:18:50:09,48.354,0.005,-0.005,0.006,-8.012,-44.941,3.340
19:18:50:112,48.376,0.008,-0.007,0.007,-8.012,-44.951,3.341
19:18:50:139,48.403,0.012,-0.003,0.001,-8.012,-44.951,3.341
19:18:50:165,48.429,0.008,-0.008,0.008,-8.012,-44.951,3.341
19:18:50:194,48.458,0.011,-0.002,0.004,-8.012,-44.951,3.341
19:18:50:218,48.482,0.007,-0.006,0.006,-8.012,-44.951,3.341
19:18:50:244,48.508,0.015,-0.003,0.000,-8.012,-44.951,3.341
19:18:50:325,48.589,0.009,-0.004,0.008,-8.012,-44.951,3.341
19:18:50:375,48.639,0.012,-0.005,0.002,-8.012,-44.951,3.341
19:18:50:437,48.701,0.008,-0.007,0.006,-8.012,-44.951,3.341
19:18:50:438,48.702,0.013,-0.003,0.004,-8.012,-44.951,3.341
19:18:50:439,48.703,0.005,-0.006,0.007,-8.012,-44.951,3.341
19:18:50:439,48.703,0.013,-0.003,-0.002,-8.012,-44.951,3.341
19:18:50:457,48.721,0.008,-0.003,0.006,-8.012,-44.951,3.341
19:18:50:457,48.721,0.015,-0.001,-0.001,-8.012,-44.951,3.341
19:18:50:48,48.744,0.004,-0.005,0.007,-8.013,-44.966,3.347
19:18:50:507,48.771,0.011,-0.004,0.003,-8.012,-44.988,3.348
19:18:50:533,48.797,0.008,-0.007,0.007,-8.012,-44.988,3.348
19:18:50:561,48.825,0.012,-0.004,0.005,-8.012,-44.988,3.348
19:18:50:586,48.850,0.006,-0.006,0.008,-8.012,-44.988,3.348
19:18:50:611,48.875,0.014,-0.004,0.003,-8.012,-44.988,3.348
19:18:50:638,48.902,0.007,-0.005,0.006,-8.012,-44.988,3.348
19:18:50:694,48.958,0.011,-0.004,0.004,-8.012,-44.988,3.348
19:18:50:694,48.958,0.006,-0.007,0.008,-8.012,-44.988,3.348
19:18:50:716,48.980,0.013,-0.004,0.002,-8.012,-44.988,3.348
19:18:50:743,49.007,0.008,-0.003,0.004,-8.012,-44.988,3.348
19:18:50:796,49.060,0.009,-0.004,0.003,-8.012,-44.988,3.348
19:18:50:826,49.090,0.006,-0.005,0.006,-8.012,-44.988,3.348
19:18:50:826,49.090,0.007,-0.002,0.006,-8.012,-44.988,3.348
19:18:50:877,49.141,0.005,-0.005,0.009,-8.012,-44.988,3.348
19:18:50:877,49.141,0.007,-0.005,0.004,-8.012,-44.988,3.348
19:18:50:902,49.166,0.012,-0.004,0.002,-8.012,-44.988,3.348
19:18:50:958,49.222,0.006,-0.005,0.008,-8.012,-44.988,3.348
19:18:50:959,49.223,0.010,-0.001,0.001,-8.012,-44.988,3.348
19:18:50:96,49.224,0.006,-0.004,0.007,-8.012,-44.988,3.348
19:18:50:979,49.243,0.010,-0.006,0.001,-8.012,-44.988,3.348
19:18:51:035,49.299,0.005,-0.007,0.008,-8.012,-44.988,3.348
19:18:51:06,49.325,0.013,-0.001,0.001,-8.012,-44.988,3.348
19:18:51:061,49.325,0.005,-0.006,0.006,-8.012,-44.988,3.348
19:18:51:139,49.403,0.009,-0.002,0.004,-8.012,-44.988,3.348
19:18:51:14,49.404,0.003,-0.007,0.012,-8.012,-44.988,3.348
19:18:51:165,49.429,0.012,-0.004,0.002,-8.012,-44.988,3.348
19:18:51:166,49.430,0.005,-0.006,0.007,-8.012,-44.988,3.348
19:18:51:215,49.479,0.006,-0.004,0.005,-8.012,-44.988,3.348
19:18:51:244,49.509,0.005,-0.006,0.007,-8.012,-44.988,3.348
19:18:51:245,49.509,0.006,-0.006,0.006,-8.012,-44.988,3.348
19:18:51:268,49.532,0.003,-0.004,0.009,-8.012,-44.988,3.348
19:18:51:353,49.617,0.008,-0.004,0.004,-8.012,-44.988,3.348
19:18:51:353,49.617,0.007,-0.007,0.008,-8.012,-44.988,3.348
19:18:51:354,49.618,0.012,-0.005,0.005,-8.012,-44.988,3.348
19:18:51:403,49.667,0.003,-0.007,0.009,-8.012,-44.988,3.348
19:18:51:403,49.667,0.007,-0.006,0.007,-8.012,-44.988,3.348
19:18:51:426,49.690,0.004,-0.003,0.010,-8.012,-44.988,3.348
19:18:51:451,49.716,0.008,-0.003,0.010,-8.012,-44.988,3.348
19:18:51:479,49.743,0.008,-0.009,0.007,-8.012,-44.988,3.348
19:18:51:504,49.768,0.009,-0.005,0.008,-8.017,-44.987,3.347
19:18:51:532,49.796,0.007,-0.005,0.007,-8.017,-44.987,3.347
19:18:51:586,49.850,0.002,-0.005,0.006,-8.017,-44.987,3.347
19:18:51:586,49.850,0.003,-0.006,0.013,-8.017,-44.987,3.347
19:18:51:609,49.873,0.003,-0.007,0.010,-8.017,-44.987,3.347
19:18:51:665,49.929,0.011,-0.002,0.004,-8.017,-44.987,3.347
19:18:51:665,49.929,0.005,-0.005,0.006,-8.017,-44.987,3.347
19:18:51:688,49.952,0.008,-0.004,0.003,-8.017,-44.987,3.347
19:18:51:714,49.978,0.001,-0.005,0.013,-8.016,-44.999,3.348
19:18:51:769,50.033,0.007,-0.002,0.006,-8.016,-44.999,3.348
19:18:51:77,50.034,0.003,-0.004,0.011,-8.016,-44.999,3.348
19:18:51:793,50.057,0.009,-0.001,0.005,-8.013,-45.022,3.335
19:18:51:849,50.113,0.005,-0.005,0.011,-8.016,-45.037,3.330
19:18:51:849,50.113,0.010,-0.005,0.007,-8.015,-45.061,3.307
19:18:51:871,50.135,0.002,-0.005,0.014,-8.011,-45.082,3.298
19:18:51:927,50.191,0.013,-0.003,0.007,-8.010,-45.086,3.294
19:18:51:927,50.191,0.004,-0.006,0.014,-8.010,-45.086,3.294
19:18:51:951,50.215,0.005,-0.005,0.009,-8.010,-45.086,3.294
19:18:52:064,50.328,0.004,-0.005,0.013,-8.010,-45.086,3.294
19:18:52:065,50.329,0.007,-0.005,0.009,-8.010,-45.086,3.294
19:18:52:065,50.329,0.007,-0.006,0.011,-8.010,-45.086,3.294
19:18:52:066,50.330,0.011,-0.004,0.007,-8.010,-45.086,3.294
19:18:52:112,50.376,0.009,-0.004,0.012,-8.010,-45.086,3.294
19:18:52:113,50.377,0.011,-0.005,0.006,-8.010,-45.086,3.294
19:18:52:134,50.398,0.007,-0.004,0.010,-8.010,-45.086,3.294
19:18:52:189,50.453,0.006,-0.005,0.008,-8.009,-45.081,3.309
19:18:52:189,50.454,0.004,-0.006,0.013,-8.012,-45.087,3.324
19:18:52:214,50.478,0.006,-0.004,0.008,-8.012,-45.087,3.324
19:18:52:239,50.503,0.007,-0.001,0.010,-8.012,-45.087,3.324
19:18:52:294,50.558,0.009,-0.006,0.008,-8.012,-45.087,3.324
19:18:52:295,50.559,0.009,-0.005,0.008,-8.012,-45.087,3.324
19:18:52:375,50.640,0.004,-0.004,0.009,-8.012,-45.087,3.324
19:18:52:376,50.641,0.004,-0.004,0.012,-8.012,-45.087,3.324
19:18:52:377,50.641,0.005,-0.005,0.009,-8.012,-45.087,3.324
19:18:52:397,50.661,0.011,-0.001,0.003,-8.012,-45.087,3.324
19:18:52:452,50.716,0.008,-0.006,0.010,-8.012,-45.087,3.324
19:18:52:452,50.716,0.010,-0.001,0.004,-8.012,-45.087,3.324
19:18:52:476,50.740,0.006,-0.004,0.009,-8.012,-45.087,3.324
19:18:52:558,50.822,0.009,-0.002,0.006,-8.012,-45.087,3.324
19:18:52:558,50.823,0.007,-0.003,0.012,-8.012,-45.087,3.324
19:18:52:583,50.847,0.009,-0.007,0.008,-8.007,-45.098,3.326
19:18:52:584,50.848,0.004,-0.003,0.010,-8.008,-45.103,3.331
19:18:52:637,50.901,0.013,-0.001,0.005,-8.011,-45.128,3.327
19:18:52:637,50.901,-0.001,-0.002,0.018,-8.002,-45.145,3.335
19:18:52:659,50.923,0.017,-0.004,-0.003,-7.997,-45.144,3.336
19:18:52:685,50.949,0.001,-0.004,0.010,-7.991,-45.169,3.334
19:18:52:713,50.977,0.014,-0.004,0.008,-7.980,-45.190,3.338
19:18:52:738,51.002,0.004,-0.004,0.013,-7.970,-45.210,3.341
19:18:52:764,51.028,0.007,-0.002,0.008,-7.970,-45.210,3.341
19:18:52:819,51.083,0.001,-0.006,0.014,-7.970,-45.210,3.341
19:18:52:82,51.084,0.009,-0.004,0.008,-7.976,-45.226,3.346
19:18:52:842,51.106,0.004,-0.004,0.012,-7.970,-45.237,3.348
19:18:52:899,51.163,0.008,-0.004,0.010,-7.954,-45.261,3.348
19:18:52:899,51.163,0.002,-0.004,0.014,-7.949,-45.282,3.351
19:18:52:921,51.185,0.004,-0.003,0.012,-7.924,-45.312,3.358
19:18:52:947,51.212,0.001,-0.002,0.018,-7.889,-44.870,3.364
19:18:53:004,51.268,0.004,-0.003,0.012,-7.867,-44.895,3.365
19:18:53:004,51.268,0.007,-0.003,0.013,-7.843,-44.906,3.371
19:18:53:026,51.290,0.004,-0.003,0.011,-7.828,-44.946,3.377
19:18:53:081,51.345,0.004,-0.003,0.015,-7.793,-44.956,3.385
19:18:53:082,51.346,0.004,-0.004,0.017,-7.777,-44.981,3.385
19:18:53:105,51.369,0.001,-0.006,0.014,-7.753,-44.860,3.393
19:18:53:131,51.396,-0.001,-0.004,0.017,-7.727,-44.894,3.396
19:18:53:16,51.424,0.002,-0.005,0.016,-7.719,-44.880,3.402
19:18:53:161,51.425,0.005,-0.004,0.016,-7.718,-44.921,3.405
19:18:53:211,51.475,0.010,-0.004,0.011,-7.716,-44.892,3.414
19:18:53:264,51.528,0.002,-0.003,0.019,-7.716,-44.930,3.416
19:18:53:296,51.560,0.009,-0.004,0.009,-7.710,-44.824,3.416
19:18:53:296,51.560,0.003,-0.003,0.017,-7.715,-44.840,3.421
19:18:53:296,51.560,0.008,-0.004,0.009,-7.705,-44.862,3.424
19:18:53:342,51.606,-0.003,-0.005,0.020,-7.704,-44.881,3.426
19:18:53:371,51.635,0.005,-0.005,0.013,-7.700,-44.907,3.434
19:18:53:371,51.635,-0.002,-0.006,0.021,-7.701,-44.893,3.437
19:18:53:424,51.688,0.010,-0.004,0.008,-7.701,-44.912,3.439
19:18:53:424,51.688,0.000,-0.003,0.017,-7.698,-44.868,3.441
19:18:53:475,51.739,0.004,-0.004,0.016,-7.698,-44.887,3.443
19:18:53:476,51.740,0.001,-0.005,0.019,-7.694,-44.903,3.450
19:18:53:528,51.792,0.004,-0.005,0.017,-7.698,-44.924,3.450
19:18:53:529,51.793,0.000,-0.007,0.019,-7.685,-44.898,3.457
19:18:53:554,51.818,0.006,-0.004,0.018,-7.684,-44.930,3.459
19:18:53:608,51.872,0.002,-0.003,0.022,-7.673,-44.897,3.449
19:18:53:608,51.872,0.009,-0.003,0.015,-7.659,-44.896,3.432
19:18:53:63,51.894,0.000,-0.004,0.018,-7.654,-44.753,3.424
19:18:53:656,51.920,0.002,-0.005,0.016,-7.640,-44.752,3.407
19:18:53:743,52.007,-0.002,-0.003,0.025,-7.620,-44.751,3.391
19:18:53:743,52.007,0.002,-0.009,0.019,-7.607,-44.755,3.379
19:18:53:743,52.007,0.000,-0.003,0.020,-7.587,-44.749,3.378
19:18:53:792,52.056,0.000,-0.010,0.021,-7.577,-44.749,3.380
19:18:53:793,52.057,-0.003,-0.005,0.020,-7.565,-44.631,3.371
19:18:53:814,52.078,-0.001,-0.006,0.022,-7.556,-44.631,3.373
19:18:53:869,52.133,-0.004,-0.008,0.020,-7.539,-44.585,3.359
19:18:53:87,52.134,0.000,-0.002,0.020,-7.525,-44.584,3.341
