Time,Second,AccelerationX,AccelerationY,AccelerationZ,EulerAnglesX,EulerAnglesY,EulerAnglesZ
19:24:07:568,0.000,-0.008,-0.004,0.011,-9.126,-37.295,1.358
19:24:07:568,0.000,-0.010,-0.014,0.013,-9.173,-37.251,1.319
19:24:07:569,0.001,-0.009,-0.009,0.012,-9.358,-37.276,1.267
19:24:07:569,0.001,-0.009,-0.007,0.018,-9.405,-37.280,1.269
19:24:07:614,0.046,-0.015,-0.003,0.016,-9.468,-37.280,1.271
19:24:07:615,0.047,-0.011,-0.005,0.013,-9.503,-37.284,1.266
19:24:07:673,0.104,-0.001,-0.009,0.008,-9.687,-37.401,1.289
19:24:07:674,0.105,-0.009,-0.005,0.015,-9.739,-37.453,1.298
19:24:07:674,0.106,-0.001,-0.008,0.004,-9.780,-37.487,1.284
19:24:07:675,0.107,-0.011,-0.003,0.010,-9.806,-37.518,1.268
19:24:07:825,0.257,-0.002,-0.005,0.013,-9.942,-37.639,1.202
19:24:07:825,0.257,0.004,-0.004,0.008,-9.964,-37.640,1.206
19:24:07:882,0.314,-0.007,-0.011,0.012,-9.969,-37.642,1.225
19:24:07:883,0.314,0.001,-0.003,0.002,-9.965,-37.639,1.263
19:24:07:884,0.315,-0.002,-0.001,0.007,-9.957,-37.604,1.335
19:24:07:885,0.316,-0.007,-0.007,0.004,-9.899,-37.606,1.419
19:24:08:013,0.445,-0.010,-0.007,0.020,-9.839,-37.612,1.479
19:24:08:013,0.445,-0.011,-0.011,0.021,-9.756,-37.641,1.568
19:24:08:014,0.446,-0.010,-0.005,0.009,-9.545,-37.758,1.778
19:24:08:015,0.447,-0.015,-0.010,0.024,-9.461,-37.820,1.834
19:24:08:145,0.577,0.000,-0.002,0.016,-9.322,-37.925,1.918
19:24:08:146,0.578,-0.002,-0.008,0.015,-9.205,-37.990,2.004
19:24:08:147,0.579,-0.008,-0.002,0.002,-9.124,-38.021,2.066
19:24:08:147,0.579,0.008,-0.002,0.015,-8.976,-38.097,2.171
19:24:08:197,0.629,-0.007,-0.003,0.004,-8.861,-38.139,2.243
19:24:08:197,0.629,-0.003,-0.012,0.012,-8.669,-38.220,2.356
19:24:08:198,0.630,-0.002,-0.008,0.020,-8.456,-38.300,2.484
19:24:08:199,0.631,-0.006,-0.004,0.025,-8.319,-38.336,2.567
19:24:08:276,0.707,-0.007,-0.002,0.011,-8.122,-38.357,2.707
19:24:08:276,0.708,-0.007,-0.008,0.012,-8.010,-38.352,2.801
19:24:08:278,0.709,-0.009,-0.009,0.011,-7.851,-38.342,2.923
19:24:08:279,0.710,-0.010,-0.012,0.013,-7.766,-38.342,3.004
19:24:08:381,0.813,-0.006,-0.006,0.014,-7.645,-38.332,3.116
19:24:08:382,0.814,-0.009,-0.003,0.015,-7.543,-38.300,3.221
19:24:08:382,0.814,-0.007,-0.012,0.017,-7.438,-38.280,3.317
19:24:08:383,0.815,-0.006,-0.004,0.016,-7.365,-38.277,3.384
19:24:08:454,0.886,0.000,-0.005,0.011,-7.249,-38.270,3.479
19:24:08:455,0.886,-0.005,-0.007,0.015,-7.170,-38.264,3.542
19:24:08:539,0.971,-0.008,-0.010,0.018,-7.053,-38.251,3.632
19:24:08:539,0.971,-0.008,-0.005,0.023,-6.938,-38.218,3.710
19:24:08:54,0.972,-0.004,-0.009,0.014,-6.857,-38.198,3.763
19:24:08:541,0.973,-0.002,-0.002,0.019,-6.750,-38.168,3.833
19:24:08:591,1.023,-0.001,-0.003,0.012,-6.552,-38.113,3.955
19:24:08:591,1.023,0.001,-0.006,0.016,-6.431,-38.094,4.030
19:24:08:591,1.023,0.000,0.004,0.008,-6.347,-38.091,4.080
19:24:08:663,1.095,0.000,-0.006,0.020,-6.214,-38.080,4.149
19:24:08:664,1.095,0.004,-0.010,0.010,-6.078,-38.065,4.213
19:24:08:698,1.130,0.000,-0.013,0.020,-6.004,-38.034,4.253
19:24:08:698,1.130,-0.004,-0.007,0.015,-5.896,-37.972,4.313
19:24:08:698,1.130,-0.015,-0.009,0.027,-5.810,-37.931,4.346
19:24:08:699,1.131,-0.005,-0.003,0.013,-5.696,-37.913,4.394
19:24:08:723,1.155,-0.008,-0.008,0.017,-5.603,-37.906,4.426
19:24:08:723,1.155,-0.006,-0.007,0.014,-5.551,-37.897,4.441
19:24:08:723,1.155,-0.008,-0.007,0.015,-5.476,-37.896,4.452
19:24:08:724,1.156,-0.006,-0.002,0.014,-5.430,-37.888,4.450
19:24:08:801,1.233,-0.008,-0.006,0.016,-5.361,-37.882,4.443
19:24:08:802,1.233,0.000,-0.001,0.014,-5.286,-37.878,4.434
19:24:08:803,1.234,-0.005,-0.013,0.020,-5.226,-37.872,4.425
19:24:08:803,1.235,0.006,-0.005,0.012,-5.125,-37.871,4.433
19:24:08:878,1.309,-0.004,-0.008,0.024,-5.052,-37.885,4.450
19:24:08:878,1.310,0.001,-0.004,0.013,-4.920,-37.901,4.478
19:24:08:879,1.311,0.005,-0.008,0.018,-4.768,-37.946,4.529
19:24:08:961,1.393,0.014,-0.004,0.017,-4.653,-37.976,4.583
19:24:08:961,1.393,-0.003,0.011,0.012,-4.439,-37.999,4.702
19:24:08:962,1.394,0.001,-0.002,0.010,-4.235,-38.027,4.803
19:24:08:985,1.417,0.023,0.009,0.028,-3.421,-38.278,5.119
19:24:08:986,1.417,0.002,0.033,0.012,-3.014,-38.389,5.268
19:24:08:987,1.418,-0.022,0.011,0.025,-2.239,-38.629,5.510
19:24:08:988,1.419,0.016,0.024,0.040,-1.676,-38.846,5.643
19:24:09:142,1.574,0.037,0.051,0.021,-0.662,-39.305,5.907
19:24:09:142,1.574,0.027,0.050,0.005,0.612,-39.778,6.249
19:24:09:143,1.575,0.069,0.165,0.065,1.531,-40.138,6.570
19:24:09:144,1.576,0.004,0.008,0.037,3.224,-40.540,7.150
19:24:09:167,1.598,0.097,0.156,0.106,4.016,-41.008,7.638
19:24:09:167,1.599,0.165,0.117,0.061,5.104,-41.502,8.748
19:24:09:168,1.600,0.235,0.178,0.033,5.720,-41.687,9.827
19:24:09:195,1.626,0.137,0.187,0.221,6.411,-41.172,12.232
19:24:09:195,1.627,0.134,0.149,0.128,6.932,-40.746,14.955
19:24:09:196,1.627,0.173,0.008,-0.038,7.522,-40.552,16.652
19:24:09:197,1.628,0.370,-0.380,0.228,8.342,-40.514,18.599
19:24:09:273,1.705,0.433,-0.576,0.353,8.707,-41.090,18.924
19:24:09:274,1.706,0.381,-0.599,0.327,9.075,-42.598,17.947
19:24:09:274,1.706,0.448,-0.319,0.462,8.363,-44.461,15.771
19:24:09:275,1.707,0.397,-0.299,0.436,7.653,-45.278,13.859
19:24:09:29,1.722,0.331,-0.066,0.386,5.923,-46.226,10.438
19:24:09:46,1.892,0.274,0.030,0.341,4.546,-46.481,7.981
19:24:09:46,1.892,0.153,0.208,0.178,2.383,-46.464,4.097
19:24:09:461,1.893,0.117,0.243,0.149,0.964,-46.288,1.247
19:24:09:461,1.893,-0.062,0.258,0.003,-0.909,-45.921,-2.893
19:24:09:48,1.912,-0.248,0.135,-0.180,-2.465,-45.315,-6.975
19:24:09:48,1.912,-0.286,0.113,-0.189,-3.492,-44.699,-9.625
19:24:09:481,1.913,-0.387,0.127,-0.199,-5.031,-43.370,-13.402
19:24:09:501,1.933,-0.559,-0.094,-0.368,-5.681,-42.381,-15.633
19:24:09:555,1.987,-0.625,-0.222,-0.461,-6.080,-41.276,-18.180
19:24:09:556,1.988,-0.661,-0.244,-0.471,-6.474,-41.046,-19.439
19:24:09:605,2.037,-0.654,-0.227,-0.428,-6.676,-41.419,-19.504
19:24:09:637,2.069,-0.335,0.199,-0.162,-6.605,-42.422,-18.669
19:24:09:638,2.070,0.976,0.301,0.318,-6.230,-43.204,-17.288
19:24:09:639,2.071,-0.315,-0.159,-0.353,-5.377,-44.169,-15.445
19:24:09:658,2.090,0.064,0.117,-0.055,-5.078,-44.375,-13.434
19:24:09:684,2.116,-0.202,0.090,0.074,-4.229,-44.231,-10.890
19:24:09:712,2.144,-0.300,0.048,-0.147,-3.491,-43.510,-7.939
19:24:09:738,2.169,-0.250,-0.054,-0.154,-3.163,-42.685,-6.339
19:24:09:764,2.195,-0.134,-0.052,0.042,-2.978,-42.716,-3.838
19:24:09:789,2.220,-0.098,-0.032,0.061,-2.840,-42.566,-2.480
19:24:09:815,2.246,-0.071,0.034,-0.013,-3.236,-42.227,-0.580
19:24:09:87,2.302,-0.040,-0.011,-0.010,-3.577,-41.990,0.628
19:24:09:871,2.303,0.002,0.001,-0.013,-3.960,-41.963,1.251
19:24:09:923,2.355,0.023,-0.010,-0.051,-4.470,-40.448,2.061
19:24:09:924,2.355,0.015,0.013,-0.016,-4.753,-40.446,2.519
19:24:09:977,2.409,0.012,-0.001,-0.019,-5.235,-39.156,3.843
19:24:09:999,2.430,-0.040,0.000,0.045,-5.288,-37.813,4.276
19:24:10:054,2.486,-0.025,0.012,0.033,-5.299,-37.764,4.835
19:24:10:055,2.487,-0.031,-0.004,0.024,-5.298,-36.443,5.238
19:24:10:077,2.509,-0.016,-0.006,0.002,-5.257,-36.579,5.842
19:24:10:104,2.536,-0.018,-0.012,0.023,-5.233,-36.699,6.253
19:24:10:13,2.562,-0.010,0.005,0.015,-5.186,-36.883,6.807
19:24:10:159,2.590,-0.019,-0.002,0.031,-5.097,-37.079,7.348
19:24:10:184,2.615,0.007,-0.004,0.024,-5.013,-37.198,7.740
19:24:10:238,2.670,0.029,0.021,0.006,-4.924,-36.127,8.357
19:24:10:238,2.670,0.015,0.026,0.028,-4.768,-36.230,8.823
19:24:10:261,2.693,0.013,0.033,0.041,-4.348,-35.414,9.551
19:24:10:287,2.719,0.007,0.021,0.027,-3.739,-35.656,10.378
19:24:10:316,2.747,0.028,0.030,0.038,-3.258,-34.927,10.945
19:24:10:342,2.773,0.085,0.132,0.093,-2.425,-35.351,11.896
19:24:10:366,2.798,0.083,0.081,0.036,-1.591,-34.902,12.680
19:24:10:393,2.825,0.089,0.123,0.092,-0.599,-35.456,14.125
19:24:10:42,2.851,0.134,0.127,0.124,0.106,-35.166,15.304
19:24:10:53,2.962,0.224,0.185,0.051,0.961,-35.804,17.491
19:24:10:531,2.963,0.328,0.192,0.167,1.834,-35.455,20.396
19:24:10:532,2.964,0.394,0.296,0.238,2.684,-35.358,22.711
19:24:10:638,3.070,0.450,0.288,0.117,5.127,-34.341,26.331
19:24:10:639,3.070,0.649,0.263,0.237,7.080,-34.277,28.609
19:24:10:64,3.071,0.835,0.208,0.220,10.471,-34.092,32.777
19:24:10:686,3.118,0.635,-0.047,0.090,15.210,-29.796,41.557
19:24:10:687,3.118,0.251,-0.269,0.135,18.470,-27.192,45.820
19:24:10:711,3.143,0.096,-0.680,-0.439,21.489,-27.099,47.726
19:24:10:712,3.143,0.688,-0.829,-0.028,24.990,-28.719,48.271
19:24:10:762,3.194,0.454,-0.801,0.145,24.668,-30.781,46.958
19:24:10:843,3.275,0.135,-0.950,0.025,24.870,-32.840,43.245
19:24:10:844,3.276,0.427,-0.754,0.010,23.416,-36.364,38.097
19:24:10:9,3.331,0.603,-0.578,0.112,21.181,-38.917,34.020
19:24:10:901,3.332,0.621,-0.375,0.167,17.110,-41.400,27.120
19:24:10:901,3.333,0.572,0.022,0.166,13.813,-42.431,22.253
19:24:10:902,3.334,0.431,0.190,0.143,8.701,-42.738,15.301
19:24:10:92,3.352,0.322,0.754,-0.168,3.330,-40.860,9.021
19:24:10:974,3.406,0.307,0.839,-0.230,-0.282,-38.212,4.877
19:24:10:975,3.407,-0.613,0.789,-0.472,-5.067,-32.750,-1.363
19:24:10:997,3.428,-0.695,0.398,-0.502,-7.243,-29.153,-5.642
19:24:11:11,3.542,-1.003,0.396,-0.517,-10.430,-24.333,-11.925
19:24:11:111,3.543,-1.463,-0.179,-0.378,-12.340,-22.039,-15.610
19:24:11:112,3.544,-1.464,-0.380,-0.126,-14.523,-21.057,-19.571
19:24:11:113,3.545,-1.399,-0.354,0.216,-16.763,-21.748,-20.870
19:24:11:156,3.588,-1.284,-0.411,0.173,-17.041,-22.387,-20.424
19:24:11:158,3.590,-0.854,0.499,0.271,-16.224,-22.609,-18.388
19:24:11:18,3.612,1.106,0.476,0.410,-14.002,-21.810,-15.959
19:24:11:234,3.665,-0.770,0.117,-0.223,-12.048,-20.458,-14.030
19:24:11:262,3.693,-0.477,-0.064,-0.096,-10.170,-18.075,-10.610
19:24:11:262,3.694,-1.095,0.154,1.006,-9.526,-16.856,-8.358
19:24:11:314,3.746,-0.469,-0.016,0.127,-8.327,-15.037,-5.543
19:24:11:315,3.747,-0.148,-0.430,0.053,-7.451,-14.940,-3.955
19:24:11:337,3.769,0.093,0.067,0.111,-6.803,-15.215,-1.551
19:24:11:364,3.796,-0.040,0.025,0.043,-7.035,-15.025,0.388
19:24:11:393,3.824,-0.015,-0.011,0.001,-6.995,-14.645,1.279
19:24:11:418,3.849,-0.041,0.007,-0.016,-7.166,-14.195,2.176
19:24:11:443,3.874,-0.011,0.011,0.038,-7.251,-14.038,2.630
19:24:11:469,3.901,-0.020,0.017,0.018,-7.351,-14.015,3.382
19:24:11:495,3.927,-0.002,-0.002,0.013,-7.264,-13.971,4.032
19:24:11:55,3.982,-0.038,0.005,0.027,-7.110,-13.936,4.424
19:24:11:551,3.983,-0.024,0.002,0.062,-6.894,-13.962,5.000
19:24:11:605,4.036,-0.011,-0.020,0.029,-6.803,-14.072,5.443
19:24:11:605,4.036,0.008,-0.003,0.022,-6.691,-14.321,6.129
19:24:11:626,4.058,-0.003,-0.010,0.028,-6.584,-14.478,6.575
19:24:11:653,4.084,-0.010,-0.013,0.033,-6.287,-14.686,7.189
19:24:11:711,4.143,-0.013,0.015,0.031,-6.000,-14.863,7.789
19:24:11:712,4.144,-0.004,0.006,0.055,-5.848,-14.989,8.216
19:24:11:713,4.145,-0.006,0.016,0.057,-5.714,-14.023,8.911
19:24:11:759,4.191,0.004,0.016,0.082,-5.702,-14.125,9.397
19:24:11:815,4.246,0.039,-0.002,0.058,-5.602,-13.147,10.145
19:24:11:815,4.246,0.034,0.081,-0.001,-5.478,-13.317,10.944
19:24:11:865,4.297,0.047,0.082,0.005,-5.193,-12.434,11.524
19:24:11:922,4.354,0.091,0.042,0.015,-4.134,-12.823,12.498
19:24:11:923,4.355,0.115,0.176,0.061,-3.452,-12.265,13.297
19:24:11:924,4.356,0.186,0.181,0.052,-2.191,-12.863,14.785
19:24:11:944,4.376,0.247,0.158,0.068,-1.351,-12.550,16.166
19:24:11:945,4.377,0.365,0.188,0.124,-0.147,-13.278,18.901
19:24:11:997,4.428,0.564,0.455,0.035,0.733,-13.076,22.766
19:24:11:997,4.429,0.504,0.437,-0.071,2.581,-12.843,25.699
19:24:12:021,4.452,0.691,0.165,-0.123,6.231,-12.504,29.559
19:24:12:046,4.478,0.794,0.194,-0.153,8.409,-12.469,32.738
19:24:12:131,4.563,0.701,0.037,-0.223,11.523,-10.382,38.057
19:24:12:132,4.563,0.518,-0.167,-0.026,14.849,-8.132,42.569
19:24:12:132,4.564,0.323,-0.225,0.030,17.700,-8.149,44.875
19:24:12:152,4.583,-0.240,-0.673,-0.358,23.109,-9.959,46.295
19:24:12:208,4.639,0.709,-0.625,-0.087,24.135,-12.806,46.093
19:24:12:208,4.639,0.583,-0.746,-0.028,23.903,-16.243,43.096
19:24:12:259,4.691,0.105,-0.967,-0.060,24.094,-18.291,39.976
19:24:12:26,4.692,0.407,-0.653,-0.115,22.179,-23.080,34.247
19:24:12:342,4.773,0.497,-0.527,-0.122,18.872,-28.446,27.219
19:24:12:342,4.773,0.650,-0.300,0.099,16.027,-31.529,22.335
19:24:12:342,4.774,0.539,0.175,0.316,10.873,-34.309,15.599
19:24:12:419,4.851,0.280,0.277,0.303,7.150,-34.541,11.633
19:24:12:42,4.852,0.074,0.730,0.044,1.072,-32.326,6.364
19:24:12:421,4.853,-0.155,0.710,-0.064,-4.397,-27.472,0.736
19:24:12:44,4.872,-0.472,0.732,-0.034,-7.495,-23.350,-3.244
19:24:12:466,4.898,-0.789,0.446,-0.045,-11.000,-16.569,-9.605
19:24:12:492,4.924,-0.904,0.207,-0.169,-12.578,-12.392,-13.819
19:24:12:607,5.039,-1.154,0.063,-0.090,-14.237,-6.905,-19.199
19:24:12:607,5.039,-1.243,-0.402,0.068,-15.267,-3.184,-22.894
19:24:12:608,5.040,-1.136,-0.345,0.307,-16.008,-1.742,-24.147
19:24:12:625,5.057,-0.999,-0.386,0.327,-15.584,0.522,-23.856
19:24:12:652,5.084,-0.305,0.082,-0.132,-14.127,2.124,-21.899
19:24:12:678,5.110,1.493,0.716,-0.293,-13.132,3.525,-20.436
19:24:12:704,5.135,-1.368,-0.431,0.229,-10.067,5.512,-18.181
19:24:12:73,5.162,-0.435,0.070,-0.140,-8.242,7.939,-14.995
19:24:12:784,5.216,-0.326,0.078,0.288,-7.340,9.221,-12.947
19:24:12:785,5.217,-0.389,-0.017,0.212,-6.399,10.395,-9.751
19:24:12:808,5.240,-0.222,-0.110,0.132,-6.307,10.926,-8.160
19:24:12:864,5.296,-0.134,-0.044,0.084,-6.213,11.632,-5.588
19:24:12:864,5.296,-0.001,0.155,-0.022,-6.652,11.895,-4.057
19:24:12:886,5.318,-0.044,-0.065,0.009,-6.457,12.249,-2.550
19:24:12:913,5.344,-0.075,0.003,0.033,-6.500,12.975,-1.317
19:24:12:939,5.370,-0.057,0.008,0.086,-6.449,13.379,-0.648
19:24:12:965,5.397,-0.023,-0.005,0.073,-6.393,13.710,0.148
19:24:12:991,5.423,-0.037,0.006,0.040,-6.430,13.863,0.601
19:24:13:017,5.449,-0.036,-0.016,0.070,-6.468,14.021,1.215
19:24:13:045,5.477,-0.011,-0.025,0.061,-6.321,13.994,1.980
19:24:13:129,5.561,-0.019,-0.008,0.057,-6.314,13.921,2.412
19:24:13:13,5.561,-0.008,-0.013,0.022,-6.396,13.787,2.953
19:24:13:13,5.561,-0.017,-0.017,0.030,-6.495,13.685,3.269
19:24:13:15,5.581,-0.041,0.001,0.022,-6.625,13.596,3.692
19:24:13:175,5.607,0.019,-0.004,0.045,-6.645,14.312,3.910
19:24:13:201,5.633,0.041,0.007,0.014,-6.595,14.216,4.331
19:24:13:228,5.660,-0.013,0.023,0.028,-6.453,14.688,4.885
19:24:13:256,5.687,-0.004,-0.008,0.052,-6.286,14.539,5.293
19:24:13:309,5.741,0.014,0.006,0.061,-6.087,14.775,5.909
19:24:13:31,5.742,0.006,0.013,0.031,-5.924,14.653,6.318
19:24:13:333,5.765,-0.020,0.030,0.013,-5.597,14.776,6.967
19:24:13:391,5.823,-0.003,0.021,-0.007,-5.117,14.522,7.705
19:24:13:391,5.823,0.029,0.055,0.026,-4.702,14.703,8.246
19:24:13:411,5.843,0.031,0.082,-0.007,-3.750,14.158,9.149
19:24:13:437,5.869,0.009,0.053,-0.025,-2.725,14.208,9.820
19:24:13:464,5.896,0.098,0.113,-0.052,-0.804,13.353,11.009
19:24:13:493,5.924,0.249,0.251,-0.026,0.890,12.825,12.663
19:24:13:546,5.978,0.348,0.163,-0.118,2.113,12.294,14.247
19:24:13:546,5.978,0.375,0.310,-0.194,3.326,11.954,17.639
19:24:13:569,6.001,0.520,0.441,-0.341,4.348,11.832,20.579
19:24:13:683,6.115,0.566,0.451,-0.313,7.753,12.739,25.629
19:24:13:684,6.115,0.646,0.118,-0.477,11.605,13.893,30.322
19:24:13:685,6.116,0.622,0.071,-0.618,13.678,15.703,33.999
19:24:13:686,6.117,0.293,-0.103,-0.210,16.778,20.142,38.947
19:24:13:759,6.191,0.170,-0.492,-0.110,18.874,21.967,41.515
19:24:13:759,6.191,-0.349,-0.680,-0.392,22.007,23.102,43.735
19:24:13:76,6.192,0.521,-0.802,-0.403,22.163,22.563,43.544
19:24:13:78,6.212,0.249,-0.701,-0.281,21.656,22.277,41.816
19:24:13:836,6.268,0.002,-0.880,-0.147,21.748,21.755,37.764
19:24:13:836,6.268,0.157,-0.819,-0.368,20.606,20.317,33.831
19:24:13:858,6.289,0.414,-0.499,-0.574,17.597,18.533,26.841
19:24:13:94,6.372,0.403,-0.102,-0.454,15.499,18.249,21.910
19:24:13:941,6.373,0.102,0.129,-0.406,11.927,18.797,14.795
19:24:13:966,6.398,0.019,0.650,-0.552,7.289,21.997,8.498
19:24:13:967,6.399,-0.211,0.668,-0.467,4.221,26.474,4.499
19:24:13:989,6.421,-0.611,0.751,-0.338,-0.034,35.662,-1.492
19:24:14:073,6.505,-1.010,0.701,-0.086,-1.836,42.466,-5.572
19:24:14:074,6.506,-1.232,0.487,0.309,-3.407,51.986,-11.165
19:24:14:075,6.506,-1.215,-0.070,0.916,-4.469,58.733,-15.872
19:24:14:098,6.529,-0.884,-0.116,0.800,-5.763,60.825,-18.572
19:24:14:098,6.530,-0.553,-0.103,0.956,-8.451,61.110,-21.462
19:24:14:149,6.581,-0.304,-0.296,0.861,-10.002,60.171,-22.827
19:24:14:15,6.582,-0.235,-0.335,0.916,-12.155,58.381,-23.806
19:24:14:175,6.607,-0.125,-0.312,0.853,-13.269,57.393,-23.678
19:24:14:2,6.632,-0.104,-0.296,0.890,-14.047,56.740,-22.533
19:24:14:225,6.657,0.338,0.413,0.230,-13.574,57.385,-20.694
19:24:14:251,6.683,1.224,0.730,-1.279,-12.197,58.794,-19.793
19:24:14:277,6.709,-0.758,-0.460,1.221,-8.807,63.329,-17.874
19:24:14:304,6.736,-0.328,0.324,0.343,-7.768,66.711,-15.574
19:24:14:359,6.791,0.602,0.198,0.704,-6.236,69.745,-12.857
19:24:14:36,6.792,-0.145,0.109,0.320,-6.270,71.601,-10.277
19:24:14:383,6.814,0.136,-0.305,0.370,-6.089,71.358,-8.954
19:24:14:409,6.841,0.164,-0.030,0.154,-6.028,70.099,-7.091
19:24:14:435,6.867,0.021,0.141,-0.134,-6.934,69.553,-5.694
19:24:14:461,6.893,-0.089,-0.096,-0.035,-7.356,69.944,-4.272
19:24:14:487,6.919,-0.068,-0.050,0.089,-7.654,70.770,-3.581
19:24:14:515,6.947,-0.045,0.024,0.128,-7.823,71.651,-2.636
19:24:14:54,6.972,0.023,-0.003,0.021,-7.915,71.831,-1.649
19:24:14:625,7.056,0.056,-0.029,0.026,-7.894,71.911,-1.037
19:24:14:625,7.057,-0.030,0.010,0.085,-8.100,72.260,-0.293
19:24:14:626,7.058,0.004,0.004,0.063,-8.176,72.777,0.130
19:24:14:645,7.077,0.007,-0.016,0.068,-8.308,72.783,0.738
19:24:14:672,7.104,0.011,-0.017,0.055,-8.448,72.863,1.337
19:24:14:697,7.129,-0.002,-0.019,0.049,-8.512,72.768,1.768
19:24:14:724,7.156,0.039,0.001,0.044,-8.608,72.886,2.401
19:24:14:779,7.211,-0.005,0.022,0.038,-8.701,72.772,2.791
19:24:14:78,7.212,0.030,0.009,0.016,-8.863,72.683,3.343
19:24:14:89,7.322,0.018,0.017,0.025,-8.940,72.549,3.766
19:24:14:891,7.323,0.012,0.004,0.004,-8.999,72.319,4.469
19:24:14:891,7.323,0.051,0.025,0.006,-8.930,71.989,5.201
19:24:14:892,7.324,0.003,-0.015,0.035,-8.818,71.839,5.744
19:24:14:936,7.368,0.007,0.006,0.027,-8.713,71.462,6.552
19:24:14:938,7.370,-0.017,0.034,0.008,-8.619,71.329,7.101
19:24:14:961,7.393,-0.003,0.032,-0.010,-8.305,70.884,7.984
19:24:15:045,7.477,0.024,0.063,0.012,-7.730,70.395,8.931
19:24:15:045,7.477,0.016,0.055,-0.005,-7.167,69.908,9.639
19:24:15:046,7.478,0.036,0.163,-0.049,-6.116,69.039,10.847
19:24:15:065,7.497,0.042,0.114,-0.052,-4.985,68.391,11.780
19:24:15:091,7.523,0.103,0.158,-0.160,-3.492,67.461,13.565
19:24:15:117,7.549,0.084,0.188,-0.243,-2.716,66.850,15.146
19:24:15:144,7.576,0.004,0.284,-0.373,-1.536,66.195,18.143
19:24:15:17,7.602,0.123,0.391,-0.496,0.252,66.184,21.916
19:24:15:196,7.628,0.087,0.224,-0.424,2.426,66.646,24.601
19:24:15:252,7.684,-0.179,0.283,-0.541,5.502,66.912,28.754
19:24:15:252,7.684,-0.210,0.083,-0.715,7.384,67.082,31.983
19:24:15:304,7.736,-0.070,0.078,-0.739,10.199,69.002,37.074
19:24:15:305,7.737,0.062,-0.314,-0.317,13.645,70.758,41.265
19:24:15:357,7.788,-0.061,-0.338,-0.063,16.556,70.248,43.458
19:24:15:358,7.789,-0.322,-0.884,-0.462,21.006,67.179,44.662
19:24:15:382,7.814,0.237,-0.811,-0.841,21.397,64.426,44.008
19:24:15:435,7.867,0.133,-0.796,-0.264,22.159,61.148,40.891
19:24:15:436,7.868,-0.062,-0.876,-0.389,22.091,57.650,36.168
19:24:15:459,7.891,0.016,-0.637,-0.744,19.642,54.890,32.296
19:24:15:515,7.947,0.392,-0.444,-0.606,15.936,52.448,25.949
19:24:15:515,7.947,0.083,0.016,-0.345,13.398,51.307,21.803
19:24:15:596,8.027,0.134,0.260,-0.516,8.502,50.416,15.800
19:24:15:597,8.028,-0.135,0.441,-0.103,5.202,51.437,11.823
19:24:15:597,8.029,-0.193,0.603,-0.053,-0.396,54.330,5.726
19:24:15:616,8.048,-0.262,0.696,0.237,-5.397,58.293,-0.638
19:24:15:643,8.075,-0.286,0.733,0.499,-8.322,60.936,-4.711
19:24:15:67,8.102,-0.287,-0.129,1.312,-11.522,63.890,-10.246
19:24:15:724,8.156,-0.121,0.361,1.038,-13.665,65.214,-13.682
19:24:15:725,8.157,-0.071,0.227,1.264,-18.359,66.902,-17.945
19:24:15:779,8.210,0.092,-0.526,1.309,-20.056,67.203,-20.825
19:24:15:779,8.210,0.165,-0.432,1.354,-20.945,67.598,-21.534
19:24:15:8,8.232,0.243,-0.423,1.221,-20.990,68.387,-20.898
19:24:15:826,8.258,0.072,0.217,-0.060,-20.223,69.280,-19.665
19:24:15:852,8.284,-0.084,0.600,-0.797,-18.289,71.086,-18.163
19:24:15:879,8.311,-0.049,0.511,0.200,-16.369,72.231,-16.135
19:24:15:905,8.337,0.230,-0.039,0.463,-14.217,73.426,-13.663
19:24:15:932,8.363,0.500,-0.034,0.359,-12.476,74.205,-10.828
19:24:15:958,8.389,-0.039,-0.076,0.273,-11.635,74.981,-9.262
19:24:15:984,8.416,0.113,-0.045,0.112,-11.069,75.235,-6.955
19:24:16:01,8.442,0.077,0.057,0.150,-10.693,75.755,-5.123
19:24:16:036,8.468,0.084,-0.008,0.090,-10.553,76.049,-4.076
19:24:16:092,8.523,-0.030,-0.014,0.073,-10.413,76.557,-2.759
19:24:16:092,8.524,-0.014,0.024,0.081,-10.411,76.922,-1.996
19:24:16:116,8.548,0.016,-0.029,0.074,-10.242,77.244,-1.073
19:24:16:141,8.573,0.002,0.012,0.068,-10.194,77.336,-0.463
19:24:16:168,8.600,0.030,-0.008,0.052,-10.194,77.370,0.320
19:24:16:195,8.627,0.023,-0.005,0.060,-10.183,77.293,1.047
19:24:16:221,8.653,0.015,-0.029,0.040,-10.256,77.166,1.503
19:24:16:247,8.679,0.019,-0.015,0.053,-10.391,75.861,2.102
19:24:16:273,8.704,0.024,-0.014,0.018,-10.516,75.568,2.479
19:24:16:299,8.731,0.022,-0.012,0.023,-10.673,74.302,2.997
19:24:16:325,8.757,0.010,0.019,0.019,-10.908,74.185,3.443
19:24:16:352,8.784,0.009,-0.011,0.028,-10.992,73.189,3.742
19:24:16:378,8.810,0.024,0.028,0.009,-11.164,73.045,4.283
19:24:16:404,8.836,0.015,0.000,0.011,-11.182,72.187,4.701
19:24:16:431,8.863,0.009,0.006,0.004,-11.202,71.935,5.388
19:24:16:459,8.891,-0.001,0.016,0.010,-11.185,71.109,6.150
19:24:16:46,8.892,0.016,0.005,0.003,-11.116,70.869,6.702
19:24:16:483,8.915,0.002,0.023,-0.020,-10.927,69.735,7.625
19:24:16:509,8.940,-0.005,0.040,-0.015,-10.671,69.297,8.291
19:24:16:565,8.997,0.002,0.110,-0.040,-9.975,68.011,9.347
19:24:16:566,8.998,0.038,0.123,-0.022,-9.158,67.412,10.105
19:24:16:615,9.047,0.073,0.156,-0.062,-7.277,65.819,11.476
19:24:16:672,9.104,0.061,0.137,-0.094,-4.658,64.090,13.054
19:24:16:673,9.104,0.190,0.333,-0.130,-3.505,63.227,14.444
19:24:16:674,9.105,0.255,0.179,-0.321,-1.780,61.888,17.349
19:24:16:779,9.211,0.150,0.433,-0.572,-0.936,61.377,19.986
19:24:16:779,9.211,0.107,0.424,-0.707,0.702,61.352,24.885
19:24:16:779,9.211,0.046,0.257,-0.616,4.511,62.110,29.839
19:24:16:861,9.293,0.008,0.256,-0.814,6.604,62.311,33.356
19:24:16:861,9.293,0.065,0.122,-0.668,9.049,64.048,38.863
19:24:16:861,9.293,0.053,-0.216,-0.287,11.384,65.582,41.875
19:24:16:862,9.293,-0.372,-0.351,0.108,15.929,65.150,45.330
19:24:16:876,9.308,-0.685,-0.628,0.032,19.574,63.074,46.260
19:24:16:933,9.365,0.335,-0.753,-0.975,21.077,58.364,45.440
19:24:16:934,9.366,0.195,-0.946,-0.100,22.536,55.083,42.159
19:24:16:956,9.388,0.143,-1.017,-0.075,23.296,53.053,39.142
19:24:16:982,9.414,0.206,-0.469,-0.557,20.682,48.847,34.190
19:24:17:037,9.469,0.293,-0.503,-0.482,17.947,47.206,30.320
19:24:17:122,9.554,0.224,-0.074,-0.504,12.914,45.802,24.064
19:24:17:122,9.554,0.285,0.090,-0.514,7.132,45.903,17.625
19:24:17:123,9.555,0.031,0.283,-0.193,3.592,46.947,13.321
19:24:17:123,9.555,-0.169,0.740,-0.086,-1.580,48.848,6.665
19:24:17:139,9.571,-0.255,0.787,0.305,-4.808,50.400,1.689
19:24:17:194,9.626,-0.298,0.672,0.600,-9.445,53.110,-5.685
19:24:17:195,9.627,-0.313,0.484,1.024,-13.917,56.332,-12.700
19:24:17:219,9.651,-0.296,0.088,1.310,-15.768,58.522,-16.852
19:24:17:303,9.735,-0.335,-0.388,1.518,-17.634,61.636,-21.420
19:24:17:304,9.736,-0.198,-0.520,1.608,-18.251,63.393,-23.012
19:24:17:304,9.736,-0.059,-0.424,1.404,-18.153,65.053,-22.943
19:24:17:41,9.842,-0.105,-0.358,1.159,-17.118,65.775,-21.626
19:24:17:411,9.843,-0.069,0.394,-0.512,-15.421,66.787,-18.856
19:24:17:412,9.843,-0.353,-0.234,1.097,-13.093,67.320,-16.797
19:24:17:413,9.844,0.139,0.370,0.059,-10.877,68.921,-14.208
19:24:17:457,9.888,-0.018,-0.075,0.404,-9.301,70.817,-11.581
19:24:17:458,9.889,0.189,-0.066,0.382,-8.313,71.896,-9.461
19:24:17:481,9.913,-0.066,-0.102,0.393,-7.378,73.266,-6.955
19:24:17:565,9.997,0.064,-0.014,0.201,-6.893,73.314,-4.528
19:24:17:566,9.998,0.123,0.093,0.112,-6.700,73.357,-3.164
19:24:17:567,9.999,0.024,-0.060,0.022,-6.556,73.471,-1.336
19:24:17:587,10.018,-0.014,-0.040,0.073,-6.470,73.933,-0.441
19:24:17:641,10.073,-0.030,0.008,0.012,-6.604,74.437,0.411
19:24:17:641,10.073,0.030,-0.006,0.037,-6.515,74.608,0.835
19:24:17:666,10.098,0.020,0.029,0.053,-6.640,74.772,1.477
19:24:17:719,10.151,0.029,-0.009,0.043,-6.766,74.849,2.077
19:24:17:72,10.152,0.009,-0.008,0.065,-6.811,74.840,2.537
19:24:17:742,10.174,0.037,-0.039,0.044,-6.986,74.679,3.101
19:24:17:769,10.201,0.012,-0.007,0.029,-7.092,74.506,3.494
19:24:17:795,10.227,0.009,0.002,0.010,-7.353,75.006,3.939
19:24:17:824,10.255,0.028,-0.009,0.015,-7.493,74.766,4.395
19:24:17:849,10.280,0.010,0.015,0.031,-7.550,74.640,4.697
19:24:17:903,10.335,0.005,0.015,-0.016,-7.613,74.446,5.183
19:24:17:904,10.336,0.003,0.048,-0.017,-7.603,74.289,5.596
19:24:17:926,10.358,0.063,0.011,0.010,-7.374,73.988,6.315
19:24:17:953,10.384,0.021,0.057,-0.025,-7.156,73.751,6.875
19:24:17:979,10.411,0.008,0.059,-0.037,-6.755,73.331,7.801
19:24:18:036,10.468,-0.006,0.089,-0.017,-5.782,73.504,8.784
19:24:18:036,10.468,-0.008,0.232,-0.094,-4.770,73.149,9.451
19:24:18:119,10.551,0.046,0.065,-0.027,-2.479,73.275,10.609
19:24:18:119,10.551,0.121,0.261,-0.112,-1.183,72.806,11.556
19:24:18:12,10.552,0.130,0.244,-0.255,0.515,72.562,13.522
19:24:18:166,10.598,0.001,0.228,-0.396,1.991,72.500,16.470
19:24:18:166,10.598,-0.009,0.405,-0.533,2.627,72.225,19.139
19:24:18:189,10.620,-0.072,0.562,-0.822,4.892,72.505,24.497
19:24:18:215,10.647,-0.181,0.275,-0.604,7.379,72.869,27.940
19:24:18:299,10.731,-0.175,0.105,-0.857,10.670,73.718,33.007
19:24:18:3,10.732,0.065,-0.021,-0.150,14.015,76.201,37.650
19:24:18:301,10.733,-0.030,-0.312,-0.130,16.420,76.571,40.007
19:24:18:377,10.808,-0.658,-0.593,0.146,20.288,73.780,41.602
19:24:18:377,10.809,-0.090,-0.812,-0.679,20.756,71.108,40.775
19:24:18:431,10.863,0.037,-0.799,-0.334,21.850,67.558,37.085
19:24:18:432,10.864,0.171,-0.860,-0.437,22.567,64.876,33.851
19:24:18:432,10.864,0.407,-0.549,-0.818,21.196,59.310,28.145
19:24:18:453,10.885,0.552,-0.495,-0.359,18.846,55.986,22.811
19:24:18:478,10.910,0.231,0.015,-0.266,15.831,55.187,19.830
19:24:18:67,11.102,0.037,0.097,-0.177,10.958,55.366,15.608
19:24:18:671,11.103,0.110,-0.006,-0.086,8.051,56.216,12.637
19:24:18:672,11.104,0.018,0.175,0.015,3.508,58.425,7.571
19:24:18:673,11.105,0.032,0.125,0.104,-0.749,60.642,1.815
19:24:18:697,11.129,0.036,0.290,0.146,-3.456,62.034,-2.175
19:24:18:697,11.129,0.035,0.351,0.317,-7.201,64.498,-8.214
19:24:18:698,11.130,-0.028,0.423,0.560,-9.585,66.686,-12.358
19:24:18:7,11.131,-0.122,0.306,0.769,-12.704,70.531,-18.570
19:24:18:719,11.151,-0.105,0.071,1.003,-14.306,72.822,-22.333
19:24:18:719,11.151,-0.067,-0.121,1.209,-15.972,75.536,-26.640
19:24:18:74,11.172,0.053,-0.457,1.318,-16.789,77.157,-28.779
19:24:18:793,11.225,0.133,-0.457,1.354,-16.820,77.576,-28.830
19:24:18:822,11.254,0.024,-0.398,1.228,-15.814,77.097,-26.964
19:24:18:823,11.255,0.106,1.026,-1.071,-15.169,76.642,-25.276
19:24:18:875,11.307,0.049,-0.047,0.281,-13.441,74.659,-22.687
19:24:18:875,11.307,-0.319,0.345,-0.161,-11.712,75.303,-18.601
19:24:18:926,11.357,0.170,-0.270,0.419,-10.029,76.077,-16.839
19:24:18:985,11.417,0.305,0.091,0.539,-8.136,77.074,-14.140
19:24:18:985,11.417,0.063,0.206,0.473,-7.992,77.765,-11.941
19:24:18:985,11.417,-0.045,-0.021,0.241,-7.281,78.166,-9.464
19:24:19:003,11.435,0.070,-0.026,0.101,-7.148,78.473,-7.800
19:24:19:03,11.462,0.102,-0.032,0.053,-6.724,78.925,-5.576
19:24:19:057,11.489,0.032,-0.013,0.112,-6.715,79.353,-3.938
19:24:19:111,11.542,0.065,-0.044,0.045,-6.668,79.503,-3.042
19:24:19:111,11.543,0.012,0.010,0.089,-6.844,79.684,-1.802
19:24:19:135,11.567,0.023,0.018,0.098,-6.928,79.768,-1.117
19:24:19:19,11.622,0.035,-0.002,0.058,-7.103,79.736,-0.375
19:24:19:191,11.623,0.050,-0.024,0.054,-7.104,78.985,0.406
19:24:19:24,11.672,0.033,0.003,0.046,-7.149,78.841,0.869
19:24:19:269,11.700,0.035,-0.005,0.030,-7.194,78.358,1.391
19:24:19:269,11.700,0.018,-0.016,0.035,-7.260,78.392,1.711
19:24:19:321,11.752,0.016,-0.010,0.038,-7.365,77.744,2.171
19:24:19:321,11.753,0.003,0.000,0.031,-7.461,77.723,2.473
19:24:19:345,11.776,0.005,0.005,-0.005,-7.502,77.467,2.930
19:24:19:37,11.802,0.011,0.016,0.007,-7.366,77.379,3.448
19:24:19:396,11.828,0.023,-0.003,-0.002,-7.189,77.006,3.876
19:24:19:422,11.854,0.021,0.008,0.028,-6.910,76.862,4.593
19:24:19:449,11.881,0.019,0.023,0.022,-6.679,76.276,5.097
19:24:19:475,11.907,0.031,0.015,0.010,-6.248,76.034,5.928
19:24:19:503,11.934,-0.003,0.054,-0.017,-5.726,75.487,6.834
19:24:19:528,11.960,0.023,0.068,-0.015,-5.197,75.262,7.487
19:24:19:554,11.986,0.003,0.097,-0.046,-3.897,74.674,8.563
19:24:19:58,12.012,0.000,-0.067,0.016,-2.313,74.393,9.288
19:24:19:635,12.067,0.056,0.198,-0.065,-0.477,73.640,10.569
19:24:19:636,12.068,0.058,0.233,-0.154,1.146,72.866,12.310
19:24:19:661,12.093,0.062,0.208,-0.205,2.239,72.431,13.838
19:24:19:685,12.117,0.072,0.257,-0.371,3.519,71.652,16.954
19:24:19:711,12.143,0.049,0.167,-0.450,4.323,71.492,19.703
19:24:19:739,12.171,-0.014,0.465,-0.659,6.292,71.835,24.539
19:24:19:764,12.196,-0.030,0.231,-0.617,8.744,72.348,27.508
19:24:19:898,12.329,-0.205,-0.015,-0.939,12.559,72.859,31.914
19:24:19:931,12.363,-0.261,-0.052,-0.689,15.575,75.764,37.275
19:24:19:931,12.363,-0.021,-0.157,-0.598,17.613,78.275,40.300
19:24:19:932,12.364,-0.137,-0.477,0.110,21.343,80.214,43.820
19:24:19:933,12.365,-0.429,-0.810,-0.106,23.502,80.182,44.701
19:24:19:951,12.383,-0.099,-0.697,-0.787,22.736,79.076,44.009
19:24:19:977,12.409,0.036,-0.890,-0.168,22.995,78.425,40.944
19:24:19:977,12.409,-0.144,-0.944,-0.091,22.706,77.626,37.841
19:24:20:032,12.464,-0.299,-0.431,-0.552,16.852,75.257,27.540
19:24:20:053,12.485,-0.179,-0.011,-0.595,12.975,75.443,20.298
19:24:20:079,12.510,-0.276,0.167,-0.267,10.533,75.775,15.422
19:24:20:106,12.537,-0.395,0.664,-0.263,6.190,77.701,8.784
19:24:20:134,12.566,-0.525,0.753,0.187,1.758,82.769,2.387
19:24:20:157,12.589,-0.466,0.700,0.490,-1.114,87.320,-1.605
19:24:20:184,12.616,-0.318,0.580,0.743,-4.685,94.266,-7.614
19:24:20:213,12.644,0.063,0.282,0.963,-6.459,98.405,-11.617
19:24:20:239,12.670,0.059,0.088,0.943,-8.470,102.838,-17.468
19:24:20:264,12.696,0.315,0.001,1.208,-10.636,105.950,-22.146
19:24:20:289,12.721,0.531,-0.348,1.094,-11.720,107.041,-24.489
19:24:20:372,12.804,0.726,-0.356,0.857,-13.311,107.873,-26.309
19:24:20:373,12.805,0.712,-0.356,0.877,-13.711,108.551,-26.578
19:24:20:397,12.828,0.577,-0.382,0.877,-13.159,109.818,-25.697
19:24:20:452,12.884,0.194,0.087,0.412,-12.395,110.769,-24.348
19:24:20:453,12.885,-0.349,0.620,-1.263,-10.710,112.617,-22.224
19:24:20:454,12.885,0.430,-0.088,0.949,-8.012,115.405,-19.759
19:24:20:745,13.177,0.101,0.366,0.311,-7.062,117.243,-17.564
19:24:20:745,13.177,0.418,0.082,0.188,-5.276,119.002,-14.863
19:24:20:746,13.178,0.331,0.020,0.128,-4.712,119.808,-12.864
19:24:20:747,13.179,0.102,-0.168,0.200,-4.501,120.323,-10.341
19:24:20:762,13.194,0.158,0.015,0.120,-4.614,120.491,-7.920
19:24:20:823,13.255,0.022,0.146,0.083,-4.997,120.925,-6.455
19:24:20:824,13.255,0.020,-0.051,0.068,-4.851,121.590,-4.775
19:24:20:825,13.256,0.072,-0.030,0.068,-4.777,122.139,-3.872
19:24:20:826,13.257,0.115,0.019,0.033,-4.763,122.712,-2.556
19:24:20:85,13.281,0.075,0.031,0.027,-4.745,122.917,-1.796
19:24:20:85,13.282,0.042,0.001,0.033,-4.942,123.118,-0.936
19:24:20:851,13.282,0.040,-0.016,0.053,-5.085,123.868,-0.279
19:24:20:93,13.362,0.053,-0.007,0.039,-5.351,124.601,0.847
19:24:20:931,13.363,0.047,-0.021,0.038,-5.491,124.518,1.352
19:24:20:931,13.363,0.025,-0.013,0.048,-5.706,124.814,2.010
19:24:20:932,13.364,0.025,-0.008,0.024,-6.001,124.690,2.437
19:24:21:007,13.439,0.018,-0.007,0.032,-6.194,125.152,2.748
19:24:21:008,13.439,0.033,0.015,0.027,-6.422,125.110,3.195
19:24:21:009,13.440,0.034,0.012,-0.002,-6.505,125.559,3.551
19:24:21:009,13.441,0.037,0.006,-0.003,-6.564,125.470,4.174
19:24:21:026,13.457,0.019,0.013,-0.005,-6.665,125.805,4.900
19:24:21:083,13.515,0.009,0.027,0.018,-6.713,125.748,5.388
19:24:21:083,13.515,-0.009,0.014,-0.012,-6.622,125.802,6.201
19:24:21:084,13.516,0.008,0.062,-0.037,-6.420,125.604,6.760
19:24:21:102,13.534,-0.063,0.080,0.020,-5.696,125.388,7.716
19:24:21:131,13.563,-0.061,0.130,-0.003,-4.872,124.915,8.384
19:24:21:186,13.618,-0.133,0.346,-0.104,-2.773,124.157,9.503
19:24:21:186,13.618,-0.091,0.262,-0.245,0.146,123.228,11.151
19:24:21:238,13.670,-0.098,0.344,-0.331,1.713,122.434,12.738
19:24:21:238,13.670,-0.493,0.310,-0.327,3.784,121.429,16.243
19:24:21:348,13.779,-0.576,0.773,-0.809,4.971,121.193,19.570
19:24:21:349,13.780,-0.609,0.597,-0.293,8.381,122.403,25.415
19:24:21:349,13.781,-0.971,-0.021,-0.412,13.111,124.234,30.541
19:24:21:35,13.782,-1.024,0.087,-0.495,15.417,126.173,34.633
19:24:21:526,13.957,-0.481,-0.264,-0.386,19.127,131.017,40.197
19:24:21:527,13.958,-0.032,-0.527,0.073,21.751,133.284,43.039
19:24:21:554,13.986,-0.202,-0.700,0.429,24.999,133.930,45.426
19:24:21:554,13.986,-0.819,-0.832,-0.327,24.424,133.468,45.557
19:24:21:585,14.016,-0.179,-0.848,-0.147,23.540,133.255,43.299
19:24:21:585,14.017,-0.053,-0.944,0.071,22.998,132.769,39.096
19:24:21:586,14.017,-0.499,-0.717,0.022,20.803,131.132,35.338
19:24:21:587,14.018,-0.610,-0.579,-0.098,16.648,129.542,28.654
19:24:21:605,14.037,-0.576,-0.003,-0.078,13.664,128.807,23.452
19:24:21:605,14.037,-0.684,0.124,-0.217,9.063,128.159,15.523
19:24:21:627,14.059,-0.226,0.609,0.119,4.631,128.456,8.037
19:24:21:684,14.116,-0.175,0.960,0.171,1.163,129.642,3.338
19:24:21:684,14.116,0.368,0.828,0.508,-3.791,133.616,-3.852
19:24:21:707,14.138,0.585,0.611,0.560,-6.801,137.126,-8.374
19:24:21:733,14.164,0.911,0.499,0.578,-10.452,142.666,-15.136
19:24:21:76,14.192,1.350,0.022,0.737,-11.893,146.183,-19.123
19:24:21:785,14.217,1.541,-0.427,0.709,-13.349,150.201,-23.628
19:24:21:811,14.243,1.477,-0.508,0.338,-14.552,151.870,-25.221
19:24:21:926,14.358,1.272,-0.337,0.193,-15.065,152.170,-24.773
19:24:21:927,14.359,1.039,0.320,-0.168,-14.426,152.657,-22.798
19:24:21:928,14.359,-0.709,0.339,-0.519,-12.604,153.374,-20.844
19:24:21:929,14.360,0.968,-0.177,0.155,-9.598,156.062,-18.540
19:24:21:944,14.376,0.300,-0.065,0.259,-7.871,159.045,-16.004
19:24:21:998,14.430,0.377,-0.086,0.171,-6.041,162.456,-12.927
19:24:21:999,14.431,0.451,0.013,-0.310,-5.036,164.136,-9.772
19:24:22:048,14.480,0.327,-0.099,-0.037,-4.814,164.555,-8.187
19:24:22:159,14.591,0.263,0.024,-0.136,-4.585,164.934,-5.712
19:24:22:16,14.591,-0.097,0.108,-0.093,-4.518,165.304,-4.341
19:24:22:161,14.592,0.137,-0.043,0.017,-4.546,165.891,-2.398
19:24:22:214,14.646,0.094,-0.014,-0.006,-4.715,166.644,-1.021
19:24:22:215,14.647,0.048,-0.033,0.007,-4.873,166.877,-0.374
19:24:22:215,14.647,0.016,0.028,-0.020,-5.226,167.079,0.490
19:24:22:216,14.648,0.063,-0.005,-0.002,-5.407,167.181,0.957
19:24:22:232,14.664,0.056,-0.004,0.020,-5.700,167.354,1.620
19:24:22:259,14.691,0.054,-0.003,0.012,-6.018,167.486,2.262
19:24:22:314,14.745,0.030,0.003,-0.009,-6.192,167.510,2.755
19:24:22:315,14.746,0.042,0.001,-0.006,-6.376,167.467,3.422
19:24:22:394,14.826,0.044,0.014,0.020,-6.499,167.380,3.892
19:24:22:395,14.827,0.028,0.005,0.002,-6.547,167.172,4.539
19:24:22:396,14.828,0.033,-0.001,-0.005,-6.452,166.899,5.214
19:24:22:415,14.847,0.028,0.000,-0.040,-6.382,166.723,5.661
19:24:22:441,14.873,0.029,-0.002,-0.013,-6.301,166.527,6.336
19:24:22:469,14.901,0.018,0.031,-0.008,-6.292,166.439,6.810
19:24:22:494,14.926,-0.012,0.032,-0.023,-6.309,166.290,7.594
19:24:22:52,14.952,-0.018,0.027,-0.007,-6.310,166.151,8.229
19:24:22:546,14.978,-0.050,0.117,0.045,-6.077,165.814,9.307
19:24:22:575,15.007,-0.036,0.120,-0.005,-5.155,165.378,10.458
19:24:22:625,15.057,-0.059,0.169,-0.009,-4.116,165.020,11.338
19:24:22:656,15.088,-0.116,0.250,-0.146,-2.370,164.565,13.055
19:24:22:656,15.088,-0.248,0.266,-0.078,-1.566,164.128,14.522
19:24:22:678,15.109,-0.347,0.233,-0.143,-0.275,163.487,17.477
19:24:22:793,15.225,-0.557,0.354,-0.016,0.615,163.057,20.072
19:24:22:793,15.225,-0.745,0.410,-0.009,2.660,162.887,24.922
19:24:22:793,15.225,-0.683,0.395,0.236,6.326,163.455,30.147
19:24:22:793,15.225,-1.192,0.223,0.294,9.019,163.103,33.574
19:24:22:809,15.241,-0.971,-0.047,0.214,12.821,164.151,39.527
19:24:22:892,15.323,-0.676,-0.351,0.046,16.958,166.298,44.765
19:24:22:892,15.324,0.309,-0.172,0.262,20.174,166.546,47.413
19:24:22:949,15.381,-0.285,-0.958,0.456,26.468,164.184,48.873
19:24:22:949,15.381,-0.801,-0.641,-0.044,26.880,160.950,48.319
19:24:22:949,15.381,-0.170,-1.174,-0.286,26.725,157.501,44.684
19:24:22:966,15.398,-0.246,-1.019,-0.095,26.019,153.870,39.369
19:24:23:081,15.513,-0.627,-0.648,-0.144,23.315,151.071,35.485
19:24:23:082,15.513,-0.573,-0.667,-0.130,18.580,148.583,28.519
19:24:23:082,15.514,-0.628,-0.313,-0.021,14.753,147.291,23.567
19:24:23:083,15.515,-0.773,0.184,-0.273,8.642,146.177,15.902
19:24:23:13,15.562,-0.047,0.765,0.084,5.167,146.354,10.668
19:24:23:131,15.563,-0.142,1.097,0.058,-0.368,147.371,3.314
19:24:23:131,15.563,0.596,0.989,0.161,-5.764,150.925,-4.396
19:24:23:209,15.640,0.930,0.703,0.204,-8.812,154.844,-9.172
19:24:23:209,15.641,1.165,0.424,0.308,-12.066,161.261,-16.318
19:24:23:21,15.642,1.802,-0.273,0.489,-13.182,165.490,-20.464
19:24:23:229,15.661,1.803,-0.651,0.192,-14.202,169.297,-24.709
19:24:23:284,15.716,1.394,-0.388,-0.179,-15.516,170.105,-25.415
19:24:23:285,15.716,1.153,-0.323,-0.228,-15.521,170.350,-24.521
19:24:23:368,15.800,0.745,0.431,-0.220,-13.907,171.576,-22.322
19:24:23:368,15.800,-1.263,0.595,-0.228,-12.272,172.970,-20.246
19:24:23:368,15.800,1.158,-0.040,-0.083,-9.018,175.819,-17.431
19:24:23:445,15.877,0.362,0.181,0.222,-7.160,178.186,-14.881
19:24:23:445,15.877,0.445,0.265,-0.602,-5.950,-179.429,-11.502
19:24:23:447,15.878,0.307,-0.229,-0.103,-4.851,-177.516,-8.470
19:24:23:465,15.897,0.329,-0.210,-0.034,-4.781,-176.867,-6.784
19:24:23:491,15.923,0.085,0.185,-0.141,-4.827,-176.493,-4.217
19:24:23:52,15.952,0.000,-0.060,-0.052,-4.858,-176.552,-2.918
19:24:23:544,15.976,0.017,-0.057,-0.025,-4.659,-176.359,-1.390
19:24:23:599,16.031,0.059,0.026,0.036,-4.881,-175.979,-0.211
19:24:23:6,16.032,0.072,-0.015,-0.068,-4.884,-175.743,0.298
19:24:23:623,16.054,0.030,0.009,-0.041,-4.942,-175.495,1.005
19:24:23:737,16.169,0.060,-0.004,-0.018,-4.999,-175.457,1.459
19:24:23:737,16.169,0.043,-0.013,-0.011,-5.098,-175.564,2.293
19:24:23:738,16.170,0.047,-0.009,-0.010,-5.222,-176.190,2.810
19:24:23:738,16.170,0.051,-0.009,-0.002,-5.445,-176.412,3.538
19:24:23:754,16.186,0.010,-0.020,-0.007,-5.557,-176.615,4.169
19:24:23:782,16.213,0.020,-0.002,0.003,-5.672,-176.724,4.584
19:24:23:807,16.239,0.000,0.002,-0.001,-5.778,-176.852,5.211
19:24:23:833,16.264,-0.015,0.031,-0.001,-5.793,-176.940,5.682
19:24:23:859,16.291,-0.010,0.032,-0.019,-5.697,-177.119,6.442
19:24:23:885,16.317,-0.024,0.063,-0.006,-5.380,-177.381,7.308
19:24:23:969,16.401,-0.027,0.053,-0.018,-5.001,-177.999,7.963
19:24:23:969,16.401,-0.057,0.108,0.027,-4.071,-178.451,9.033
19:24:23:993,16.425,-0.050,0.099,0.022,-3.059,-179.177,9.834
19:24:23:994,16.425,-0.092,0.064,0.000,-0.739,-179.669,11.181
19:24:24:016,16.448,-0.188,0.299,-0.068,0.531,179.399,12.341
19:24:24:101,16.533,-0.293,0.246,0.007,2.322,178.805,14.627
19:24:24:101,16.533,-0.434,0.307,0.143,3.857,178.012,18.022
19:24:24:102,16.534,-0.712,0.446,0.180,4.869,177.724,21.080
19:24:24:149,16.580,-0.772,0.557,0.376,7.428,177.953,26.829
19:24:24:179,16.610,-0.710,0.485,0.425,10.507,178.437,30.625
19:24:24:179,16.611,-0.981,0.014,0.402,15.160,179.585,36.375
19:24:24:23,16.662,-0.334,-0.311,0.028,19.325,-176.663,42.030
19:24:24:23,16.662,-0.189,-0.407,-0.018,22.106,-175.269,44.873
19:24:24:253,16.685,-0.076,-0.882,0.587,26.738,-175.556,47.007
19:24:24:279,16.711,-0.641,-0.776,0.412,27.191,-176.810,47.171
19:24:24:335,16.766,-0.321,-0.834,0.002,26.038,-178.210,44.502
19:24:24:335,16.767,-0.058,-1.033,0.097,26.066,-179.205,40.091
19:24:24:447,16.879,-0.473,-0.676,0.343,24.006,178.847,36.379
19:24:24:447,16.879,-0.497,-0.649,0.319,19.366,177.264,29.921
19:24:24:448,16.880,-0.465,-0.442,0.404,15.965,177.032,24.909
19:24:24:448,16.880,-0.676,0.269,0.444,10.111,177.046,17.140
19:24:24:463,16.895,-0.101,0.412,0.272,6.693,178.015,11.955
19:24:24:489,16.921,0.033,1.214,0.266,1.633,-179.691,4.542
19:24:24:574,17.005,0.471,0.934,-0.020,-3.240,-174.958,-3.024
19:24:24:574,17.006,0.849,0.739,-0.219,-6.038,-170.405,-7.719
19:24:24:575,17.007,0.988,0.430,-0.325,-8.919,-163.355,-14.418
19:24:24:598,17.030,1.595,-0.097,-0.614,-9.408,-158.739,-18.113
19:24:24:621,17.053,1.469,-0.503,-0.841,-9.260,-153.609,-22.043
19:24:24:646,17.078,1.001,-0.238,-0.955,-9.316,-151.194,-22.548
19:24:24:702,17.134,0.921,-0.246,-0.880,-8.522,-150.013,-21.775
19:24:24:702,17.134,0.693,0.171,-0.409,-6.896,-148.399,-19.631
19:24:24:753,17.184,-0.736,0.457,0.851,-5.997,-147.631,-17.526
19:24:24:781,17.212,0.630,-0.070,-0.422,-4.266,-146.477,-14.654
19:24:24:781,17.213,0.105,0.344,-0.045,-3.253,-145.582,-12.363
19:24:24:806,17.238,0.054,0.136,-0.692,-1.786,-144.325,-9.228
19:24:24:83,17.262,0.121,-0.109,-0.297,-1.391,-143.226,-6.665
19:24:24:858,17.290,0.022,-0.064,-0.290,-1.824,-143.197,-4.975
19:24:24:991,17.423,-0.039,0.028,0.029,-2.525,-142.963,-2.911
19:24:24:992,17.424,0.092,0.115,0.011,-3.372,-142.381,-1.077
19:24:25:023,17.455,0.036,-0.075,-0.036,-3.223,-141.944,-0.316
19:24:25:023,17.455,0.010,0.005,-0.031,-3.423,-141.480,0.844
19:24:25:024,17.456,0.039,0.080,0.010,-3.665,-141.268,1.645
19:24:25:025,17.457,-0.054,-0.016,-0.049,-3.654,-141.012,2.517
19:24:25:04,17.472,0.041,0.009,-0.007,-3.766,-140.850,2.969
19:24:25:066,17.498,0.013,0.006,-0.033,-3.922,-140.742,3.587
19:24:25:093,17.524,-0.029,-0.022,-0.021,-4.136,-140.855,4.197
19:24:25:12,17.552,-0.010,0.030,-0.035,-4.368,-140.957,4.620
19:24:25:175,17.607,-0.032,-0.029,0.001,-4.535,-141.095,5.194
19:24:25:175,17.607,0.008,0.004,0.005,-4.692,-140.574,5.531
19:24:25:227,17.659,-0.010,-0.013,0.036,-4.742,-140.579,6.036
19:24:25:228,17.660,-0.029,0.025,0.010,-4.710,-139.931,6.431
19:24:25:25,17.682,-0.040,0.024,0.017,-4.481,-140.027,7.078
19:24:25:277,17.708,-0.046,0.015,0.013,-4.025,-139.670,7.856
19:24:25:304,17.736,-0.025,0.026,0.018,-3.621,-139.850,8.422
19:24:25:36,17.792,-0.049,0.039,0.013,-2.818,-139.689,9.234
19:24:25:36,17.792,-0.048,0.076,0.028,-2.227,-139.826,9.832
19:24:25:442,17.874,-0.059,0.077,0.011,-1.111,-139.786,10.941
19:24:25:443,17.875,-0.056,0.071,0.019,0.641,-140.187,12.142
19:24:25:445,17.876,-0.095,0.035,0.132,1.775,-140.228,13.095
19:24:25:445,17.877,-0.256,0.239,0.079,3.310,-140.813,14.946
19:24:25:547,17.979,-0.201,0.230,0.308,4.357,-140.983,16.569
19:24:25:548,17.980,-0.267,0.228,0.413,5.729,-141.132,20.058
19:24:25:549,17.981,-0.456,0.580,0.727,7.589,-140.843,24.840
19:24:25:55,17.982,-0.345,0.521,0.911,10.367,-140.139,28.099
19:24:25:681,18.112,-0.259,0.081,1.210,15.243,-138.800,33.155
19:24:25:681,18.113,-0.469,0.065,1.305,18.209,-136.637,37.523
19:24:25:682,18.114,-0.279,-0.406,0.829,22.524,-131.690,43.697
19:24:25:683,18.114,-0.116,-0.189,0.138,25.416,-129.442,46.899
19:24:25:7,18.132,0.462,-0.679,0.188,29.663,-128.449,49.407
19:24:25:701,18.132,-0.083,-0.832,0.788,28.666,-129.614,48.966
19:24:25:723,18.154,-0.118,-0.753,0.332,28.166,-129.961,47.263
19:24:25:829,18.260,0.125,-1.059,0.019,27.508,-131.009,42.934
19:24:25:855,18.287,0.017,-0.775,0.597,25.030,-133.097,39.145
19:24:25:889,18.321,-0.086,-0.647,0.638,19.939,-135.598,32.405
19:24:25:889,18.321,-0.070,-0.336,0.627,14.367,-137.268,24.575
19:24:25:889,18.321,-0.173,0.175,0.664,10.316,-137.931,19.220
19:24:25:91,18.341,-0.132,0.370,0.444,4.577,-137.480,11.243
19:24:25:91,18.342,0.196,1.006,0.092,0.583,-136.517,6.297
19:24:25:935,18.367,0.299,1.252,-0.345,-5.345,-133.494,-1.653
19:24:25:988,18.420,0.481,0.732,-0.881,-8.764,-130.433,-6.701
19:24:25:989,18.421,0.455,0.508,-0.972,-13.403,-125.961,-13.964
19:24:26:041,18.473,0.481,-0.047,-1.515,-16.352,-121.670,-20.069
19:24:26:042,18.474,0.430,-0.445,-1.603,-17.790,-119.743,-22.900
19:24:26:066,18.497,0.053,-0.527,-1.501,-19.465,-118.175,-24.207
19:24:26:121,18.553,-0.014,-0.380,-1.201,-19.613,-117.855,-23.617
19:24:26:121,18.553,0.048,-0.276,-1.093,-18.119,-116.846,-21.582
19:24:26:143,18.575,-0.136,0.581,0.995,-16.665,-115.385,-19.001
19:24:26:169,18.601,-0.528,0.644,0.872,-15.318,-115.220,-17.782
19:24:26:195,18.627,0.033,0.392,-0.358,-12.254,-114.006,-13.950
19:24:26:252,18.684,-0.120,0.165,-0.547,-11.529,-113.295,-12.035
19:24:26:252,18.684,-0.595,0.015,-0.316,-9.871,-112.333,-8.801
19:24:26:304,18.736,0.081,-0.201,-0.266,-9.343,-111.439,-7.151
19:24:26:304,18.736,-0.092,-0.019,-0.173,-9.032,-110.508,-4.669
19:24:26:326,18.758,-0.096,0.139,-0.116,-9.160,-110.008,-2.387
19:24:26:383,18.815,-0.067,0.015,-0.010,-8.943,-110.049,-1.146
19:24:26:383,18.815,0.004,-0.025,0.040,-8.907,-109.883,0.411
19:24:26:406,18.837,0.004,0.065,-0.095,-9.093,-109.673,1.193
19:24:26:489,18.921,-0.010,-0.012,-0.033,-9.097,-109.382,1.968
19:24:26:489,18.921,-0.032,-0.012,-0.040,-9.247,-109.251,2.761
19:24:26:594,19.025,-0.026,-0.024,-0.031,-9.384,-109.247,3.255
19:24:26:653,19.084,-0.021,0.009,-0.036,-9.634,-109.379,3.990
19:24:26:653,19.084,0.004,-0.004,-0.030,-9.768,-109.545,4.479
19:24:26:653,19.085,-0.021,0.015,0.008,-9.951,-110.035,5.197
19:24:26:653,19.085,-0.041,-0.010,0.019,-10.002,-110.441,5.908
19:24:26:73,19.162,-0.029,0.010,0.003,-9.992,-110.872,6.355
19:24:26:731,19.163,-0.011,0.016,-0.007,-9.851,-111.218,7.054
19:24:26:732,19.164,-0.070,-0.012,-0.011,-9.728,-111.518,7.576
19:24:26:732,19.164,-0.024,0.025,0.006,-9.598,-111.851,8.427
19:24:26:749,19.181,-0.037,0.042,0.038,-9.458,-112.107,9.017
19:24:26:75,19.182,-0.031,0.032,0.060,-8.978,-112.518,10.012
19:24:26:8,19.232,-0.022,0.119,0.068,-8.078,-113.140,11.062
19:24:26:83,19.262,-0.099,0.234,0.169,-6.976,-113.560,11.925
19:24:26:831,19.262,-0.074,0.084,0.086,-4.715,-114.208,13.489
19:24:26:932,19.363,-0.134,0.274,0.205,-3.540,-114.758,14.779
19:24:27:177,19.609,-0.040,0.262,0.350,-1.899,-115.677,17.299
19:24:27:177,19.609,-0.106,0.278,0.486,-0.357,-116.347,20.910
19:24:27:177,19.609,-0.183,0.371,0.799,0.623,-116.688,24.086
19:24:27:178,19.610,-0.104,0.506,1.057,3.229,-116.140,30.159
19:24:27:224,19.656,0.004,0.365,0.932,6.073,-115.586,34.258
19:24:27:224,19.656,-0.070,0.016,1.012,10.050,-115.084,40.230
19:24:27:307,19.738,-0.073,-0.264,0.585,12.868,-113.733,43.927
19:24:27:308,19.739,-0.210,-0.233,0.102,17.638,-113.182,48.125
19:24:27:309,19.740,0.487,-0.872,0.298,23.857,-115.682,49.839
19:24:27:31,19.741,-0.235,-1.005,0.930,24.209,-118.724,49.471
19:24:27:333,19.765,-0.271,-0.912,0.245,23.352,-122.181,46.137
19:24:27:334,19.765,-0.249,-1.216,0.026,23.209,-123.075,43.184
19:24:27:335,19.766,-0.306,-0.739,0.561,19.157,-125.418,38.532
19:24:27:336,19.767,-0.136,-0.514,0.378,13.505,-126.076,33.395
19:24:27:438,19.870,-0.076,-0.443,0.366,9.663,-126.166,29.314
19:24:27:438,19.870,-0.079,0.145,0.530,3.672,-126.043,22.297
19:24:27:438,19.870,-0.080,0.205,0.262,0.559,-125.451,17.116
19:24:27:458,19.890,-0.079,0.434,0.164,-3.499,-124.537,9.266
19:24:27:57,20.001,-0.054,0.863,-0.077,-6.545,-123.720,4.057
19:24:27:571,20.002,0.035,0.817,-0.470,-10.590,-121.044,-4.084
19:24:27:571,20.003,0.013,0.612,-0.998,-14.418,-116.889,-11.630
19:24:27:572,20.004,0.172,0.291,-1.268,-16.156,-114.022,-16.183
19:24:27:622,20.054,0.316,-0.318,-1.881,-17.455,-110.517,-21.409
19:24:27:623,20.054,0.004,-0.643,-1.819,-17.696,-109.538,-23.257
19:24:27:624,20.055,-0.093,-0.357,-1.564,-17.688,-109.603,-23.230
19:24:27:624,20.056,0.576,-0.068,-0.291,-16.297,-110.426,-20.662
19:24:27:677,20.109,0.112,0.779,1.267,-15.638,-111.512,-18.927
19:24:27:677,20.109,-0.091,0.185,-0.548,-13.799,-114.505,-15.027
19:24:27:677,20.109,-0.132,-0.103,-0.484,-12.602,-114.876,-13.004
19:24:27:677,20.109,-0.400,0.091,-0.343,-10.758,-114.636,-10.069
19:24:27:754,20.185,0.083,0.045,-0.441,-9.861,-113.504,-8.300
19:24:27:755,20.186,-0.003,-0.064,-0.129,-9.669,-112.138,-5.941
19:24:27:755,20.187,-0.054,-0.084,-0.157,-9.399,-111.626,-3.916
19:24:27:756,20.188,-0.016,0.129,-0.091,-9.623,-111.252,-2.645
19:24:27:772,20.204,-0.020,-0.089,-0.031,-9.579,-111.049,-1.100
19:24:27:829,20.261,0.004,-0.017,-0.013,-9.518,-110.973,-0.265
19:24:27:829,20.261,-0.035,0.061,-0.021,-9.711,-110.841,0.911
19:24:27:83,20.262,-0.018,-0.033,-0.031,-9.714,-110.794,1.874
19:24:27:88,20.312,-0.019,-0.010,-0.049,-9.779,-110.796,2.426
19:24:27:88,20.312,-0.043,-0.008,-0.032,-9.923,-110.855,3.191
19:24:27:931,20.363,-0.059,-0.004,-0.031,-9.922,-110.927,3.714
19:24:27:931,20.363,-0.023,-0.007,-0.029,-9.970,-111.082,4.458
19:24:27:954,20.385,-0.032,-0.008,-0.001,-10.030,-111.197,4.914
19:24:28:01,20.442,-0.008,-0.009,-0.030,-10.127,-111.413,5.594
19:24:28:01,20.442,-0.045,0.006,-0.004,-10.154,-111.619,6.227
19:24:28:033,20.465,-0.014,0.015,0.008,-10.118,-111.761,6.681
19:24:28:085,20.517,-0.016,0.005,0.014,-10.020,-112.184,7.418
19:24:28:115,20.547,-0.054,0.032,0.016,-9.890,-112.375,7.927
19:24:28:115,20.547,-0.062,0.016,0.016,-9.600,-112.909,8.803
19:24:28:194,20.625,-0.027,0.037,0.054,-9.168,-113.333,9.706
19:24:28:194,20.626,-0.023,0.069,0.036,-8.665,-113.735,10.399
19:24:28:249,20.681,0.001,0.215,0.111,-7.368,-114.332,11.553
19:24:28:249,20.681,-0.044,0.054,0.013,-5.880,-114.801,12.509
19:24:28:25,20.682,-0.133,0.213,0.097,-3.877,-115.751,14.227
19:24:28:27,20.702,-0.028,0.232,0.338,-2.184,-116.931,16.445
19:24:28:324,20.756,-0.105,0.297,0.299,-1.152,-117.443,18.415
19:24:28:325,20.757,-0.181,0.260,0.536,0.502,-118.304,22.290
19:24:28:348,20.780,-0.154,0.558,0.864,1.756,-118.280,25.647
19:24:28:374,20.805,-0.061,0.422,0.834,5.541,-117.335,31.148
19:24:28:4,20.832,0.137,0.135,1.123,8.372,-116.898,34.764
19:24:28:455,20.887,0.053,-0.110,0.840,11.767,-114.965,40.807
19:24:28:482,20.914,-0.131,-0.361,0.541,15.566,-112.305,45.741
19:24:28:483,20.914,0.293,-0.408,-0.207,19.018,-112.045,48.212
19:24:28:594,21.026,0.112,-0.984,0.675,24.043,-114.151,49.623
19:24:28:594,21.026,-0.017,-0.664,0.794,23.596,-116.991,48.897
19:24:28:594,21.026,-0.125,-0.995,0.125,23.313,-119.579,45.368
19:24:28:595,21.027,-0.119,-0.952,0.332,22.454,-122.188,40.273
19:24:28:67,21.101,-0.221,-0.620,0.679,19.425,-124.531,36.639
19:24:28:67,21.101,-0.128,-0.479,0.457,14.356,-125.726,30.635
19:24:28:67,21.102,-0.085,-0.334,0.490,10.673,-125.925,26.172
19:24:28:719,21.150,-0.022,0.295,0.572,4.530,-125.573,19.127
19:24:28:72,21.151,0.004,0.320,0.321,1.066,-124.194,14.172
19:24:28:857,21.288,0.184,0.774,-0.050,-3.768,-121.813,6.652
19:24:28:857,21.289,0.159,0.957,-0.217,-8.357,-118.985,-1.309
19:24:28:858,21.289,0.217,0.687,-0.725,-11.068,-116.509,-6.574
19:24:28:858,21.290,0.221,0.502,-0.876,-14.763,-112.489,-13.961
19:24:28:905,21.336,0.244,0.088,-1.471,-16.637,-109.650,-18.147
19:24:28:906,21.337,0.107,-0.427,-1.558,-18.621,-106.626,-22.764
19:24:28:906,21.338,-0.144,-0.470,-1.409,-19.933,-105.662,-24.468
19:24:28:954,21.386,-0.211,-0.390,-1.285,-20.181,-105.548,-24.149
19:24:28:955,21.387,-0.085,-0.281,-1.080,-19.028,-105.469,-22.190
19:24:28:98,21.412,0.021,-0.263,-0.727,-17.769,-105.226,-20.195
19:24:29:062,21.494,-0.056,0.705,1.789,-16.266,-104.332,-17.746
19:24:29:063,21.495,-0.113,-0.088,-1.152,-13.109,-103.700,-15.140
19:24:29:064,21.495,0.221,0.347,-0.033,-11.869,-102.723,-13.113
19:24:29:083,21.514,-0.547,0.191,-0.326,-10.274,-101.947,-10.333
19:24:29:138,21.570,-0.099,-0.181,-0.447,-8.950,-100.887,-8.621
19:24:29:139,21.571,-0.027,-0.043,-0.194,-8.862,-99.870,-6.286
19:24:29:161,21.593,-0.135,0.011,-0.187,-8.625,-99.618,-4.847
19:24:29:217,21.649,-0.108,0.074,-0.006,-8.832,-99.312,-2.998
19:24:29:217,21.649,0.008,-0.050,-0.032,-9.022,-99.042,-1.434
19:24:29:241,21.673,0.052,-0.003,-0.004,-9.153,-98.718,-0.627
19:24:29:325,21.757,-0.011,0.008,-0.043,-9.164,-98.292,0.391
19:24:29:326,21.758,-0.016,0.005,-0.029,-9.163,-98.182,0.990
19:24:29:326,21.758,-0.028,-0.009,-0.037,-9.209,-98.274,1.770
19:24:29:345,21.777,-0.031,-0.010,-0.029,-9.272,-98.330,2.290
19:24:29:43,21.862,-0.039,-0.013,-0.029,-9.380,-98.503,3.093
19:24:29:431,21.862,-0.036,-0.005,-0.020,-9.474,-99.209,3.844
19:24:29:431,21.863,-0.029,-0.002,0.005,-9.530,-99.232,4.224
19:24:29:509,21.941,-0.040,0.002,-0.014,-9.544,-99.763,4.737
19:24:29:509,21.941,-0.037,-0.003,-0.012,-9.533,-99.750,5.116
19:24:29:51,21.941,-0.027,0.006,0.005,-9.628,-100.308,5.783
19:24:29:588,22.020,-0.017,0.021,0.035,-9.634,-100.893,6.517
19:24:29:589,22.021,-0.050,0.062,0.028,-9.619,-101.012,7.052
19:24:29:589,22.021,-0.051,-0.009,0.012,-9.364,-101.651,8.054
19:24:29:609,22.041,0.015,0.071,0.061,-9.158,-101.960,8.775
19:24:29:663,22.095,-0.019,0.112,0.078,-8.505,-102.788,9.901
19:24:29:664,22.095,-0.010,0.162,0.086,-7.051,-103.596,11.252
19:24:29:687,22.118,-0.113,0.152,0.122,-5.546,-104.827,12.306
19:24:29:74,22.172,-0.074,0.160,0.235,-2.836,-105.942,14.111
19:24:29:768,22.200,0.057,0.313,0.409,-1.424,-107.294,15.716
19:24:29:769,22.201,0.011,0.271,0.556,0.608,-108.037,19.202
19:24:29:824,22.255,-0.046,0.659,0.967,1.961,-108.329,22.407
19:24:29:825,22.256,0.093,0.619,0.915,5.143,-107.855,28.379
19:24:29:825,22.257,0.260,0.047,1.098,10.077,-107.208,34.036
19:24:29:873,22.304,0.268,-0.076,0.974,12.664,-106.202,38.065
19:24:29:874,22.305,-0.005,-0.301,0.569,16.870,-102.881,43.446
19:24:29:924,22.356,0.416,-0.521,-0.432,20.437,-102.054,46.090
19:24:29:954,22.386,0.254,-1.034,0.688,25.362,-103.467,48.019
19:24:29:954,22.386,0.135,-0.675,0.808,24.628,-106.019,46.932
19:24:30:006,22.438,-0.106,-1.010,0.081,24.932,-106.993,45.034
19:24:30:006,22.438,0.079,-0.947,0.297,24.543,-108.660,40.458
19:24:30:054,22.486,0.036,-0.596,0.541,17.057,-112.148,30.395
19:24:30:08,22.512,0.277,-0.044,0.695,11.680,-112.769,22.899
19:24:30:107,22.539,0.131,0.362,0.727,7.643,-112.559,17.844
19:24:30:133,22.565,0.240,0.600,0.069,2.772,-110.308,10.132
19:24:30:159,22.591,0.337,1.022,-0.088,-0.575,-108.090,5.205
19:24:30:215,22.646,0.325,1.046,-0.498,-5.295,-103.248,-2.535
19:24:30:215,22.647,0.262,0.566,-0.915,-7.738,-98.905,-7.236
19:24:30:269,22.701,0.135,0.353,-1.052,-11.115,-92.302,-13.917
19:24:30:269,22.701,-0.031,0.074,-1.525,-13.250,-86.721,-19.904
19:24:30:29,22.722,-0.090,-0.455,-1.577,-14.146,-84.054,-23.082
19:24:30:316,22.748,-0.412,-0.470,-1.304,-15.936,-82.206,-25.680
19:24:30:343,22.775,-0.568,-0.353,-1.009,-17.206,-81.751,-25.964
19:24:30:398,22.830,-0.474,-0.351,-0.954,-17.444,-81.076,-25.030
19:24:30:399,22.831,-0.135,-0.070,-0.386,-16.496,-80.037,-22.591
19:24:30:482,22.914,-0.162,0.867,1.435,-15.673,-78.782,-20.687
19:24:30:482,22.914,-0.478,-0.556,-1.638,-12.046,-75.744,-18.703
19:24:30:482,22.914,-0.329,0.480,-0.548,-9.847,-71.948,-16.314
19:24:30:529,22.961,-0.601,0.072,-0.367,-8.242,-69.599,-13.268
19:24:30:53,22.962,-0.521,-0.118,-0.379,-7.382,-68.734,-11.089
19:24:30:553,22.984,-0.151,-0.225,-0.324,-7.170,-67.616,-8.000
19:24:30:579,23.011,-0.299,0.044,-0.078,-7.200,-67.155,-5.286
19:24:30:605,23.037,-0.137,0.060,0.004,-7.382,-67.200,-3.840
19:24:30:632,23.064,0.040,-0.044,0.063,-7.309,-67.233,-2.224
19:24:30:658,23.090,-0.022,0.039,-0.036,-7.359,-66.788,-1.337
19:24:30:714,23.146,-0.110,-0.029,-0.099,-7.210,-65.934,-0.286
19:24:30:714,23.146,-0.076,0.001,-0.064,-7.040,-65.423,0.497
19:24:30:736,23.168,-0.077,-0.016,-0.010,-7.087,-65.108,1.012
19:24:30:792,23.223,-0.062,-0.017,-0.020,-7.184,-65.161,1.695
19:24:30:793,23.224,-0.027,-0.020,-0.042,-7.304,-64.860,2.182
19:24:30:815,23.247,-0.037,-0.005,0.000,-7.508,-64.885,2.745
19:24:30:842,23.273,0.003,-0.004,-0.002,-7.597,-64.767,3.116
19:24:30:868,23.300,-0.020,0.013,-0.037,-7.670,-64.575,3.656
19:24:30:894,23.326,-0.067,0.015,-0.002,-7.578,-64.251,4.216
19:24:30:92,23.352,-0.085,0.017,0.022,-7.484,-64.189,4.630
19:24:30:976,23.407,-0.029,0.032,0.010,-7.462,-64.102,5.481
19:24:30:976,23.408,-0.029,0.015,0.023,-7.314,-64.303,6.107
19:24:30:999,23.431,0.015,0.032,0.032,-6.923,-64.644,7.041
19:24:31:054,23.486,-0.014,0.105,0.013,-6.101,-65.181,8.134
19:24:31:055,23.487,0.009,0.114,0.031,-5.170,-65.754,8.997
19:24:31:079,23.511,0.044,0.115,0.111,-3.143,-66.856,10.499
19:24:31:106,23.538,0.070,0.180,0.180,-1.491,-67.549,11.651
19:24:31:189,23.620,0.316,0.323,0.227,0.398,-68.463,13.989
19:24:31:19,23.621,0.270,0.258,0.371,1.851,-68.799,16.109
19:24:31:19,23.622,0.359,0.399,0.591,3.722,-68.969,20.506
19:24:31:24,23.672,0.585,0.575,0.489,6.906,-67.924,26.309
19:24:31:24,23.672,0.595,0.396,0.377,9.821,-66.974,29.814
19:24:31:291,23.723,0.877,0.064,0.792,13.417,-64.526,35.616
19:24:31:291,23.723,0.292,-0.285,0.382,15.835,-61.535,39.209
19:24:31:314,23.746,0.067,-0.436,0.077,19.915,-59.033,43.422
19:24:31:399,23.830,0.479,-0.772,-0.144,23.249,-59.907,45.409
19:24:31:399,23.831,0.694,-0.801,0.611,22.853,-60.773,45.049
19:24:31:4,23.832,0.196,-0.739,0.178,23.164,-61.094,42.811
19:24:31:419,23.851,0.170,-1.009,-0.020,23.311,-61.457,40.207
19:24:31:504,23.936,0.569,-0.663,0.232,20.074,-63.454,35.271
19:24:31:505,23.936,0.536,-0.530,0.250,15.931,-64.058,29.112
19:24:31:506,23.937,0.558,-0.411,0.109,12.963,-64.206,24.394
19:24:31:524,23.956,0.579,0.087,0.222,8.213,-64.077,17.034
19:24:31:579,24.011,0.252,0.270,-0.135,5.295,-63.883,12.098
19:24:31:58,24.012,0.194,0.903,-0.180,0.099,-63.073,4.938
19:24:31:633,24.065,-0.263,0.872,-0.410,-4.911,-60.827,-2.315
19:24:31:634,24.066,-0.537,0.769,-0.512,-8.057,-58.649,-6.762
19:24:31:656,24.088,-0.831,0.488,-0.622,-12.079,-54.812,-13.302
19:24:31:769,24.201,-0.972,0.219,-0.733,-13.871,-51.894,-17.314
19:24:31:77,24.201,-1.172,-0.165,-0.857,-15.795,-47.556,-22.148
19:24:31:771,24.202,-1.348,-0.417,-0.773,-16.694,-45.310,-23.984
19:24:31:771,24.203,-1.268,-0.516,-0.518,-17.063,-42.912,-24.600
19:24:31:815,24.247,-1.171,-0.361,-0.473,-16.033,-40.600,-23.380
19:24:31:816,24.248,-0.699,-0.097,-0.101,-14.578,-39.356,-21.682
19:24:31:898,24.330,-0.166,0.137,-0.209,-11.924,-37.181,-19.494
19:24:31:898,24.330,-0.560,0.268,-0.377,-10.023,-34.775,-16.849
19:24:31:899,24.330,-0.430,0.041,0.159,-8.076,-32.905,-13.760
19:24:31:948,24.380,-0.458,-0.040,-0.134,-6.828,-31.509,-10.440
19:24:31:948,24.380,-0.305,0.006,-0.123,-7.025,-30.470,-8.756
19:24:31:97,24.402,-0.182,-0.065,-0.030,-6.755,-30.106,-6.295
19:24:31:998,24.430,-0.118,0.108,0.063,-6.869,-29.810,-4.862
19:24:32:025,24.457,-0.085,-0.081,0.065,-6.559,-29.701,-3.376
19:24:32:05,24.482,-0.085,0.010,-0.077,-6.515,-29.510,-2.523
19:24:32:075,24.507,-0.075,0.087,-0.057,-6.753,-29.133,-1.438
19:24:32:102,24.533,-0.086,-0.049,0.003,-6.721,-28.881,-0.712
19:24:32:157,24.589,-0.075,0.009,0.010,-6.800,-28.759,-0.283
19:24:32:158,24.590,-0.066,-0.009,0.016,-6.872,-28.696,0.391
19:24:32:208,24.640,-0.062,0.009,-0.026,-6.900,-28.711,0.938
19:24:32:24,24.672,-0.084,-0.027,0.004,-6.919,-28.664,1.618
19:24:32:241,24.673,-0.065,-0.009,0.008,-6.889,-28.849,2.388
19:24:32:241,24.673,-0.039,-0.021,0.010,-6.877,-28.959,2.865
19:24:32:259,24.691,-0.051,0.010,0.001,-6.962,-29.165,3.609
19:24:32:287,24.718,-0.049,0.007,0.031,-7.053,-29.199,4.055
19:24:32:312,24.743,-0.047,-0.001,0.040,-7.131,-29.392,4.838
19:24:32:338,24.770,-0.005,0.032,0.015,-7.204,-29.550,5.643
19:24:32:364,24.796,-0.001,0.047,0.002,-7.229,-29.680,6.183
19:24:32:42,24.852,0.004,0.067,0.002,-7.048,-29.991,7.108
19:24:32:42,24.852,0.009,0.074,-0.004,-6.709,-30.319,7.806
19:24:32:443,24.874,0.054,0.107,0.007,-5.638,-30.981,8.981
19:24:32:471,24.903,0.070,0.118,-0.002,-4.458,-31.485,9.845
19:24:32:495,24.927,0.085,0.232,0.022,-2.269,-32.341,11.320
19:24:32:523,24.955,0.210,0.283,0.232,-0.071,-32.978,13.460
19:24:32:549,24.981,0.352,0.290,0.257,1.221,-33.289,15.506
19:24:32:689,25.120,0.662,0.470,0.181,2.857,-33.308,19.822
19:24:32:689,25.121,0.710,0.500,-0.052,4.571,-32.846,23.406
19:24:32:69,25.122,0.803,0.415,-0.032,8.481,-32.395,28.585
19:24:32:691,25.122,0.959,-0.005,0.137,12.770,-31.413,34.011
19:24:32:738,25.170,0.600,-0.192,-0.065,15.671,-29.457,37.754
19:24:32:738,25.170,0.163,-0.310,0.019,19.818,-28.205,41.933
19:24:32:739,25.171,-0.061,-0.513,-0.202,23.218,-28.937,43.592
19:24:32:816,25.248,0.732,-0.942,0.110,25.464,-31.786,43.945
19:24:32:817,25.249,0.471,-0.718,0.205,25.345,-33.685,42.282
19:24:32:817,25.249,0.006,-1.075,0.138,25.874,-36.093,38.573
19:24:32:895,25.326,0.450,-0.828,0.143,22.831,-39.410,33.321
19:24:32:895,25.327,0.552,-0.609,0.118,19.611,-41.167,29.260
19:24:32:92,25.352,0.526,-0.302,0.133,14.321,-43.022,22.456
19:24:32:92,25.352,0.449,0.104,0.351,10.679,-43.571,17.789
19:24:32:941,25.373,0.096,0.425,-0.010,5.590,-43.923,11.037
19:24:32:967,25.399,0.210,0.861,0.028,0.154,-43.068,4.134
19:24:32:994,25.426,-0.365,0.858,-0.163,-3.404,-41.249,-0.469
19:24:33:051,25.482,-0.528,0.708,-0.161,-8.293,-37.554,-7.219
19:24:33:051,25.482,-0.933,0.542,-0.365,-11.125,-34.673,-11.730
19:24:33:103,25.535,-0.934,0.106,-0.265,-14.029,-30.589,-18.032
19:24:33:103,25.535,-1.199,-0.066,-0.436,-15.866,-28.177,-21.503
19:24:33:183,25.615,-1.208,-0.323,-0.315,-17.858,-25.769,-24.931
19:24:33:184,25.616,-1.044,-0.379,-0.017,-19.131,-24.995,-26.012
19:24:33:185,25.617,-0.971,-0.329,0.030,-19.274,-24.656,-25.799
19:24:33:205,25.636,-0.898,-0.325,-0.008,-18.185,-23.965,-24.649
19:24:33:231,25.662,-0.827,-0.298,-0.029,-17.018,-23.349,-23.299
19:24:33:257,25.688,0.265,0.004,-0.296,-15.007,-22.054,-20.618
19:24:33:283,25.714,1.998,0.721,0.116,-13.521,-20.153,-18.811
19:24:33:311,25.743,-2.050,-0.496,-0.571,-11.730,-19.367,-17.137
19:24:33:337,25.769,-0.253,0.435,-0.060,-9.898,-17.391,-13.795
19:24:33:391,25.822,-0.444,-0.065,0.521,-8.540,-16.772,-12.096
19:24:33:391,25.823,-0.505,-0.289,-0.005,-6.851,-14.998,-9.585
19:24:33:444,25.875,-0.055,0.106,0.082,-7.266,-14.786,-7.069
19:24:33:444,25.876,-0.099,-0.090,0.118,-6.997,-14.288,-5.833
19:24:33:467,25.898,-0.044,0.135,0.014,-7.418,-13.875,-4.104
19:24:33:494,25.926,-0.014,-0.022,0.011,-7.440,-13.208,-3.110
19:24:33:52,25.952,-0.086,0.046,-0.059,-7.601,-12.620,-1.949
19:24:33:547,25.979,-0.048,0.026,0.017,-7.660,-11.975,-1.465
19:24:33:573,26.004,-0.080,-0.042,0.016,-7.567,-11.894,-0.727
19:24:33:598,26.030,-0.070,0.016,0.049,-7.676,-11.450,-0.023
19:24:33:625,26.056,-0.053,-0.036,0.046,-7.694,-11.471,0.383
19:24:33:711,26.143,-0.058,-0.012,0.028,-7.879,-11.172,0.978
19:24:33:711,26.143,-0.047,-0.023,0.013,-8.003,-11.267,1.353
19:24:33:711,26.143,-0.060,-0.020,0.001,-8.165,-11.217,1.921
19:24:33:729,26.161,-0.036,-0.004,0.014,-8.344,-11.388,2.529
19:24:33:755,26.187,-0.032,0.003,0.044,-8.427,-11.310,2.934
19:24:33:782,26.213,-0.034,0.031,0.014,-8.534,-11.426,3.529
19:24:33:808,26.239,-0.006,0.015,0.010,-8.574,-11.562,4.002
19:24:33:834,26.266,-0.014,0.033,0.014,-8.509,-11.832,4.787
19:24:33:86,26.292,0.016,0.021,0.013,-8.157,-11.982,5.622
19:24:33:889,26.321,0.005,0.089,-0.012,-7.841,-12.180,6.213
19:24:33:914,26.346,0.023,0.034,-0.030,-6.890,-12.520,7.242
19:24:33:939,26.371,-0.050,0.112,-0.094,-5.991,-12.965,7.971
19:24:33:965,26.397,0.070,0.092,-0.059,-3.891,-13.811,9.238
19:24:33:992,26.423,0.088,0.136,0.101,-2.367,-14.593,10.320
19:24:34:018,26.450,0.226,0.326,0.089,-0.192,-15.600,12.255
19:24:34:044,26.476,0.364,0.367,0.118,1.565,-16.528,15.156
19:24:34:071,26.503,0.519,0.332,0.061,2.708,-16.878,17.830
19:24:34:098,26.530,1.074,0.678,0.085,4.365,-16.728,23.294
19:24:34:124,26.556,0.618,0.656,-0.245,6.692,-15.657,27.752
19:24:34:149,26.581,1.042,0.192,-0.207,10.662,-14.114,33.974
19:24:34:205,26.637,0.467,-0.304,-0.099,14.400,-11.639,39.290
19:24:34:255,26.687,0.224,-0.417,0.103,17.154,-10.230,42.080
19:24:34:286,26.718,-0.167,-0.677,-0.512,22.038,-11.121,44.537
19:24:34:287,26.719,0.581,-0.935,-0.214,23.340,-12.707,44.809
19:24:34:287,26.719,0.454,-0.733,-0.108,22.886,-14.860,42.315
19:24:34:307,26.738,0.108,-1.090,-0.068,23.382,-16.673,38.092
19:24:34:413,26.845,0.329,-0.871,-0.100,21.810,-18.670,34.567
19:24:34:473,26.905,0.587,-0.612,-0.124,17.652,-20.162,28.488
19:24:34:474,26.906,0.499,-0.139,-0.169,14.564,-20.158,23.879
19:24:34:475,26.907,0.669,0.105,-0.205,9.577,-19.441,16.911
19:24:34:475,26.907,0.151,0.439,-0.233,6.664,-18.425,12.218
19:24:34:493,26.925,0.214,0.791,-0.237,2.106,-15.297,5.198
19:24:34:494,26.926,-0.311,0.909,-0.208,-2.183,-9.472,-2.205
19:24:34:52,26.951,-0.520,0.740,-0.271,-4.586,-4.271,-6.932
19:24:34:52,26.952,-1.151,0.539,-0.073,-7.035,4.562,-13.544
19:24:34:543,26.974,-1.676,-0.038,0.095,-7.590,10.341,-17.432
19:24:34:57,27.001,-1.809,-0.402,0.313,-7.405,17.203,-22.047
19:24:34:597,27.029,-1.602,-0.508,0.664,-7.985,20.422,-24.441
19:24:34:622,27.054,-1.264,-0.433,0.687,-8.843,20.666,-24.604
19:24:34:679,27.110,-0.826,-0.208,0.335,-9.199,20.351,-23.221
19:24:34:679,27.110,0.634,0.293,-0.204,-8.489,20.209,-21.453
19:24:34:701,27.132,-0.131,-0.020,-0.348,-6.293,21.013,-19.603
19:24:34:727,27.158,-0.527,0.262,0.258,-4.877,23.641,-16.950
19:24:34:755,27.186,-0.244,0.126,0.466,-3.194,26.350,-13.992
19:24:34:78,27.212,-0.174,0.083,0.473,-2.125,28.558,-10.796
19:24:34:835,27.267,-0.245,-0.239,0.125,-2.194,29.219,-9.369
19:24:34:836,27.268,-0.025,0.000,0.182,-2.141,29.247,-7.177
19:24:34:858,27.290,-0.027,0.169,0.006,-2.795,29.274,-5.940
19:24:34:886,27.317,-0.066,0.000,0.063,-3.523,29.392,-4.341
19:24:34:912,27.344,-0.107,-0.029,-0.058,-3.797,29.834,-3.235
19:24:34:938,27.369,-0.084,0.046,0.012,-4.046,30.275,-2.490
19:24:34:963,27.395,-0.075,-0.017,0.026,-4.024,30.800,-1.604
19:24:34:992,27.424,-0.064,0.029,-0.010,-4.051,31.028,-1.088
19:24:35:044,27.476,-0.010,0.014,0.127,-4.059,31.450,-0.397
19:24:35:045,27.477,-0.072,-0.042,0.106,-3.989,31.684,-0.060
19:24:35:068,27.499,-0.047,0.005,0.058,-4.217,31.778,0.496
19:24:35:124,27.555,-0.026,-0.016,0.039,-4.490,32.387,1.025
19:24:35:124,27.556,-0.048,-0.006,-0.004,-4.684,32.363,1.346
19:24:35:174,27.606,-0.027,0.001,0.023,-4.915,32.970,1.782
19:24:35:201,27.633,0.005,0.019,0.032,-4.987,33.078,2.065
19:24:35:229,27.661,0.003,0.012,0.016,-4.996,33.700,2.606
19:24:35:229,27.661,-0.017,0.030,0.004,-4.895,33.612,3.272
19:24:35:252,27.684,0.002,0.020,0.022,-4.669,34.040,3.774
19:24:35:307,27.739,0.008,0.044,0.034,-4.145,33.835,4.612
19:24:35:308,27.739,-0.041,0.059,0.012,-3.656,34.115,5.226
19:24:35:332,27.764,-0.006,0.066,0.020,-2.628,33.836,6.175
19:24:35:523,27.955,-0.010,0.178,0.010,-1.356,33.844,7.239
19:24:35:524,27.956,0.008,-0.069,-0.017,-0.025,33.435,8.010
19:24:35:525,27.957,0.061,0.166,-0.081,1.472,32.699,9.324
19:24:35:577,28.009,0.171,0.237,-0.219,4.258,31.392,12.719
19:24:35:577,28.009,0.176,0.206,-0.287,5.281,31.116,14.835
19:24:35:577,28.009,0.483,0.651,-0.545,6.464,31.479,19.032
19:24:35:578,28.010,0.284,0.418,-0.604,10.209,32.615,23.535
19:24:35:593,28.025,0.460,0.298,-0.779,13.110,33.516,26.437
19:24:35:681,28.112,0.347,0.035,-0.810,17.047,36.449,32.173
19:24:35:682,28.113,0.356,-0.331,-0.576,19.583,39.731,36.057
19:24:35:683,28.114,-0.026,-0.477,-0.065,22.793,44.285,40.988
19:24:35:683,28.115,-0.168,-0.737,-0.375,26.107,45.608,43.707
19:24:35:698,28.129,0.208,-0.865,-0.721,26.178,45.981,44.219
19:24:35:803,28.235,0.094,-0.762,-0.386,24.516,45.546,42.237
19:24:35:84,28.271,0.001,-0.946,-0.265,24.201,45.549,39.830
19:24:35:84,28.272,-0.056,-0.759,-0.437,22.024,44.119,34.815
19:24:35:84,28.272,0.020,-0.552,-0.570,19.654,42.749,30.874
19:24:35:84,28.272,-0.027,-0.489,-0.631,15.779,41.142,23.708
19:24:35:856,28.287,0.149,0.159,-0.651,11.082,40.009,16.037
19:24:35:882,28.313,0.040,0.241,-0.320,8.240,39.730,10.920
19:24:35:937,28.369,-0.246,0.740,-0.152,3.282,40.407,3.981
19:24:35:938,28.370,-0.340,0.975,0.152,-0.390,42.175,-0.673
19:24:35:96,28.392,-0.568,0.645,0.664,-5.380,46.614,-7.271
19:24:36:016,28.447,-0.509,0.460,0.880,-9.563,51.616,-13.899
19:24:36:017,28.448,-0.689,0.257,1.387,-11.500,54.879,-18.010
19:24:36:039,28.471,-0.649,-0.465,1.581,-13.224,58.663,-22.810
19:24:36:095,28.527,-0.274,-0.473,1.577,-14.203,59.954,-24.493
19:24:36:095,28.527,-0.185,-0.352,1.445,-15.592,60.447,-24.317
19:24:36:147,28.579,-0.255,-0.154,0.730,-15.547,60.474,-22.987
19:24:36:148,28.580,0.277,0.418,-0.341,-14.133,61.391,-20.327
19:24:36:171,28.603,-0.158,-0.025,0.308,-11.449,63.192,-18.501
19:24:36:226,28.657,-0.129,0.175,0.529,-9.072,65.993,-16.209
19:24:36:226,28.658,-0.302,-0.013,0.485,-7.184,69.326,-13.268
19:24:36:249,28.681,0.472,0.345,0.676,-6.621,70.979,-11.014
19:24:36:305,28.737,-0.103,-0.318,0.272,-5.673,72.148,-8.486
19:24:36:305,28.737,0.045,-0.072,0.221,-5.058,72.124,-6.274
19:24:36:328,28.760,0.115,0.207,0.185,-5.195,72.072,-4.834
19:24:36:354,28.786,0.054,-0.080,0.063,-5.153,72.076,-3.195
19:24:36:382,28.814,-0.080,0.004,0.050,-5.168,72.452,-2.204
19:24:36:408,28.840,-0.073,0.011,0.070,-5.494,73.186,-1.159
19:24:36:435,28.867,-0.020,-0.006,0.077,-5.482,73.550,-0.549
19:24:36:461,28.892,-0.006,0.025,0.045,-5.625,73.663,-0.101
19:24:36:485,28.917,0.025,-0.020,0.059,-5.744,73.803,0.555
19:24:36:512,28.944,0.017,-0.012,0.071,-5.840,73.872,0.967
19:24:36:565,28.997,-0.027,-0.029,0.083,-6.068,73.891,1.555
19:24:36:596,29.028,-0.015,-0.007,0.055,-6.251,73.792,1.911
19:24:36:597,29.028,-0.017,-0.011,0.035,-6.491,73.583,2.480
19:24:36:598,29.029,-0.015,0.003,0.042,-6.716,73.391,3.081
19:24:36:672,29.104,-0.002,0.006,0.039,-6.848,73.279,3.512
19:24:36:673,29.105,0.021,0.011,0.024,-6.947,73.070,4.174
19:24:36:696,29.128,-0.008,0.026,0.008,-7.033,72.908,4.667
19:24:36:751,29.183,-0.007,0.038,-0.012,-7.048,72.614,5.496
19:24:36:752,29.183,-0.012,0.079,-0.038,-6.712,72.322,6.374
19:24:36:777,29.209,-0.014,0.098,-0.020,-6.240,72.116,7.006
19:24:36:778,29.209,-0.003,0.169,-0.074,-4.964,71.746,8.090
19:24:36:801,29.232,0.017,0.066,0.012,-3.746,71.403,8.885
19:24:36:856,29.288,0.040,0.136,-0.056,-1.685,70.751,10.302
19:24:36:856,29.288,0.055,0.256,-0.152,-0.487,70.166,11.483
19:24:36:881,29.313,-0.055,0.233,-0.273,1.054,69.309,13.718
19:24:36:935,29.367,-0.006,0.180,-0.329,2.474,68.654,16.851
19:24:36:935,29.367,0.001,0.412,-0.539,3.135,68.405,19.611
19:24:36:959,29.391,-0.032,0.465,-0.813,5.078,68.520,24.551
19:24:37:014,29.445,-0.243,0.513,-0.653,7.514,69.154,28.129
19:24:37:014,29.446,-0.120,0.223,-0.993,11.216,69.724,33.406
19:24:37:065,29.497,-0.167,-0.289,-0.569,15.316,71.473,38.769
19:24:37:066,29.498,0.100,-0.271,-0.259,18.082,72.306,41.706
19:24:37:09,29.522,-0.377,-0.493,0.269,22.840,71.073,44.682
19:24:37:115,29.547,-0.027,-0.991,-0.655,26.036,68.923,45.125
19:24:37:142,29.574,0.131,-0.756,-0.703,26.307,64.915,43.348
19:24:37:17,29.601,0.111,-1.051,-0.144,26.229,63.003,40.957
19:24:37:223,29.655,0.068,-0.885,-0.310,24.848,61.079,36.280
19:24:37:224,29.656,-0.071,-0.493,-0.674,20.312,58.783,30.538
19:24:37:277,29.709,0.028,-0.324,-0.583,17.524,57.420,26.041
19:24:37:277,29.709,0.250,-0.049,-0.440,13.192,55.380,19.001
19:24:37:328,29.760,0.097,0.341,-0.406,9.908,54.213,14.528
19:24:37:329,29.761,0.032,0.477,-0.233,4.899,54.115,8.121
19:24:37:353,29.784,-0.051,0.749,0.067,-0.614,56.293,1.565
19:24:37:378,29.809,0.011,0.655,0.285,-4.074,58.574,-2.843
19:24:37:404,29.836,-0.107,0.747,0.662,-8.783,63.337,-9.801
19:24:37:43,29.862,-0.185,0.268,1.246,-10.965,66.821,-14.391
19:24:37:457,29.889,-0.236,-0.136,1.655,-13.034,71.230,-20.213
19:24:37:484,29.916,0.040,-0.538,1.772,-14.458,74.002,-23.647
19:24:37:509,29.941,0.164,-0.542,1.687,-14.903,74.559,-24.433
19:24:37:565,29.997,0.342,0.116,1.391,-14.563,74.417,-23.351
19:24:37:565,29.997,0.153,0.310,-0.568,-13.061,74.162,-21.071
19:24:37:588,30.019,-0.011,-0.278,1.458,-11.277,74.407,-18.725
19:24:37:643,30.075,-0.060,-0.080,0.125,-9.994,75.019,-15.887
19:24:37:644,30.076,0.511,-0.014,0.567,-7.803,75.871,-12.994
19:24:37:668,30.100,-0.081,0.156,0.374,-7.081,77.298,-9.774
19:24:37:694,30.126,0.190,-0.127,0.354,-6.795,77.493,-7.936
19:24:37:719,30.151,0.101,-0.058,0.098,-5.983,77.344,-5.561
19:24:37:746,30.177,0.081,0.150,-0.018,-5.969,77.328,-4.244
19:24:37:772,30.204,0.027,-0.061,0.024,-5.590,77.518,-2.878
19:24:37:856,30.288,-0.038,0.032,0.076,-5.687,77.850,-2.086
19:24:37:857,30.289,-0.053,-0.039,0.103,-5.791,78.235,-1.301
19:24:37:857,30.289,0.016,0.016,0.082,-5.981,78.443,-0.625
19:24:37:906,30.338,0.037,0.002,0.067,-6.118,78.448,-0.144
19:24:37:907,30.338,0.018,-0.005,0.054,-6.358,78.405,0.563
19:24:37:929,30.361,-0.016,-0.028,0.064,-6.486,78.355,1.121
19:24:37:985,30.416,-0.025,-0.013,0.082,-6.799,78.237,1.720
19:24:37:985,30.417,-0.011,0.003,0.052,-7.093,77.970,2.314
19:24:38:008,30.440,0.012,-0.015,0.025,-7.237,76.706,2.773
19:24:38:035,30.467,-0.018,0.005,0.047,-7.531,76.435,3.468
19:24:38:061,30.493,0.011,0.006,0.036,-7.680,75.569,3.935
19:24:38:086,30.518,0.006,0.011,0.026,-7.894,75.364,4.679
19:24:38:172,30.603,-0.017,0.023,0.009,-8.048,74.303,5.494
19:24:38:172,30.604,-0.005,0.053,-0.005,-7.996,74.123,6.063
19:24:38:173,30.604,-0.046,0.065,-0.018,-7.629,73.102,7.017
19:24:38:192,30.624,-0.041,0.087,-0.021,-7.072,72.756,7.714
19:24:38:25,30.682,-0.048,0.137,-0.037,-5.561,71.560,8.819
19:24:38:25,30.682,0.004,0.136,-0.019,-4.195,71.036,9.685
19:24:38:301,30.733,0.072,0.056,-0.063,-1.845,69.576,11.253
19:24:38:302,30.734,0.178,0.253,-0.177,-0.493,68.516,13.448
19:24:38:323,30.755,0.115,0.133,-0.279,0.461,67.328,15.378
19:24:38:35,30.781,-0.005,0.238,-0.371,1.459,66.656,19.128
19:24:38:376,30.807,-0.094,0.421,-0.643,3.306,66.286,23.750
19:24:38:46,30.892,-0.078,0.399,-0.608,5.691,66.531,26.760
19:24:38:46,30.892,-0.151,0.139,-0.929,9.362,66.669,31.537
19:24:38:461,30.893,-0.129,0.230,-0.839,11.532,67.534,35.332
19:24:38:48,30.912,-0.098,-0.153,-0.584,15.255,69.407,40.434
19:24:38:534,30.966,0.134,-0.230,-0.324,18.216,69.482,43.018
19:24:38:562,30.994,-0.503,-0.604,0.199,23.835,67.385,45.181
19:24:38:563,30.994,0.056,-0.941,-0.766,25.392,62.893,44.754
19:24:38:585,31.017,0.164,-0.680,-0.655,24.912,60.474,42.520
19:24:38:612,31.044,0.158,-1.131,-0.049,24.955,57.841,38.022
19:24:38:638,31.070,0.185,-0.792,-0.525,22.739,55.247,34.474
19:24:38:694,31.126,0.144,-0.463,-0.662,17.648,51.939,28.515
19:24:38:694,31.126,0.164,-0.217,-0.507,12.640,49.733,21.600
19:24:38:717,31.149,0.286,0.079,-0.497,8.803,48.601,16.927
19:24:38:773,31.204,0.163,0.338,-0.150,3.336,47.620,9.861
19:24:38:773,31.204,0.019,0.661,-0.003,-0.408,47.476,5.284
19:24:38:824,31.256,0.093,1.022,0.208,-6.104,48.860,-1.900
19:24:38:825,31.257,-0.130,0.760,0.827,-9.755,50.834,-6.348
19:24:38:849,31.281,-0.179,0.404,0.960,-14.258,55.207,-13.108
19:24:38:875,31.307,-0.303,0.232,1.388,-17.336,60.364,-19.757
19:24:38:901,31.332,-0.492,-0.363,1.580,-18.363,62.998,-23.155
19:24:38:954,31.385,-0.093,-0.623,1.573,-19.489,64.876,-25.521
19:24:39:016,31.448,0.087,-0.419,1.359,-19.881,65.157,-25.293
19:24:39:016,31.448,-0.022,-0.322,1.182,-18.699,65.480,-23.319
19:24:39:016,31.448,-0.144,0.412,-0.974,-16.932,66.445,-20.596
19:24:39:017,31.449,0.499,0.743,-1.130,-15.715,66.880,-19.450
19:24:39:033,31.465,0.049,0.258,0.428,-12.318,68.079,-15.879
19:24:39:059,31.491,0.195,0.109,0.647,-11.190,69.132,-14.215
19:24:39:114,31.545,0.612,0.212,0.524,-9.419,70.254,-11.037
19:24:39:114,31.546,-0.109,-0.239,0.347,-8.584,71.199,-9.694
19:24:39:137,31.568,0.044,-0.110,0.188,-8.234,71.760,-7.276
19:24:39:193,31.625,0.021,0.074,0.180,-8.204,72.446,-5.258
19:24:39:193,31.625,0.013,0.072,0.060,-8.091,72.657,-4.171
19:24:39:217,31.649,-0.013,-0.093,0.060,-7.764,73.011,-2.879
19:24:39:273,31.704,-0.023,0.003,0.083,-7.768,73.241,-2.101
19:24:39:273,31.704,-0.001,-0.011,0.051,-7.742,73.386,-1.319
19:24:39:323,31.755,0.002,-0.031,0.066,-7.705,73.443,-0.583
19:24:39:324,31.755,-0.015,0.003,0.058,-7.784,73.443,-0.140
19:24:39:349,31.780,0.011,-0.032,0.059,-7.873,73.517,0.640
19:24:39:402,31.834,-0.017,-0.009,0.066,-8.022,73.363,1.185
19:24:39:403,31.835,0.018,-0.002,0.042,-8.181,73.023,1.909
19:24:39:425,31.857,-0.020,-0.002,0.037,-8.266,72.645,2.473
19:24:39:481,31.912,-0.013,0.004,0.028,-8.315,72.392,2.786
19:24:39:482,31.913,-0.028,0.005,0.017,-8.326,72.111,3.293
19:24:39:506,31.938,-0.022,0.010,0.016,-8.323,72.007,3.666
19:24:39:532,31.964,0.051,0.009,0.026,-8.195,71.959,4.258
19:24:39:588,32.020,0.014,-0.009,0.025,-8.084,72.017,4.664
19:24:39:588,32.020,0.005,0.014,0.019,-7.986,71.962,5.376
19:24:39:609,32.041,-0.008,0.011,0.014,-7.742,71.884,6.212
19:24:39:666,32.097,-0.006,0.061,0.000,-7.456,71.737,6.799
19:24:39:666,32.097,-0.029,0.075,-0.016,-6.474,71.412,7.755
19:24:39:688,32.119,-0.033,0.225,-0.066,-5.427,71.137,8.427
19:24:39:715,32.146,-0.015,0.004,0.006,-3.043,70.684,9.510
19:24:39:769,32.201,0.001,0.159,-0.035,-0.760,70.020,10.783
19:24:39:77,32.202,0.087,0.215,-0.123,0.754,69.521,11.822
19:24:39:793,32.225,0.100,0.366,-0.246,2.620,68.765,13.919
19:24:39:82,32.252,0.117,0.191,-0.473,4.058,68.407,15.918
19:24:39:874,32.306,-0.055,0.319,-0.525,5.391,68.370,20.295
19:24:39:875,32.307,-0.444,0.757,-1.041,5.776,68.421,24.306
19:24:39:9,32.332,-0.591,0.790,-0.824,9.026,68.747,30.616
19:24:39:924,32.356,0.059,-0.141,-0.878,14.365,69.224,35.057
19:24:39:951,32.383,-0.109,-0.026,-0.271,17.347,69.515,38.437
19:24:40:065,32.496,-0.459,-0.149,-0.202,21.477,67.209,41.928
19:24:40:065,32.497,0.155,-0.929,-0.620,23.939,65.060,42.035
19:24:40:066,32.498,0.365,-0.774,-0.167,25.380,61.924,40.341
19:24:40:067,32.499,0.326,-1.098,-0.171,25.359,59.222,37.665
19:24:40:082,32.514,0.383,-0.893,-0.212,23.669,57.108,35.444
19:24:40:192,32.624,0.123,-0.420,-0.218,15.796,55.343,29.040
19:24:40:192,32.624,0.106,-0.310,-0.257,11.343,54.641,23.871
19:24:40:275,32.706,0.154,0.086,-0.204,8.885,53.887,19.768
19:24:40:275,32.706,0.179,0.165,-0.259,5.318,53.142,12.904
19:24:40:276,32.707,0.030,0.520,-0.150,1.140,53.956,5.933
19:24:40:276,32.708,-0.143,0.638,-0.103,-1.812,55.765,1.327
19:24:40:292,32.723,-0.359,0.719,0.272,-6.060,59.988,-5.208
19:24:40:344,32.776,-0.346,0.568,0.570,-8.458,63.476,-9.455
19:24:40:371,32.803,-0.316,0.304,0.710,-11.217,68.620,-15.560
19:24:40:429,32.860,-0.307,0.068,0.987,-13.155,72.485,-20.532
19:24:40:429,32.861,-0.246,-0.126,1.115,-14.243,73.814,-22.946
19:24:40:431,32.862,0.041,-0.290,0.917,-15.734,74.052,-24.899
19:24:40:449,32.881,0.173,-0.218,0.896,-16.480,73.695,-25.317
19:24:40:475,32.907,0.110,-0.301,0.821,-16.383,73.362,-24.565
19:24:40:502,32.934,0.106,-0.224,0.706,-15.486,73.631,-22.601
19:24:40:528,32.960,0.362,0.371,0.410,-14.496,74.315,-21.008
19:24:40:556,32.988,-0.075,0.181,-0.374,-12.159,75.781,-18.789
19:24:40:582,33.014,-0.090,-0.009,0.980,-10.616,77.223,-16.650
19:24:40:608,33.040,-0.192,-0.093,0.391,-8.436,77.981,-13.511
19:24:40:633,33.064,0.502,0.278,0.632,-7.197,79.110,-9.862
19:24:40:661,33.092,0.083,0.138,0.203,-6.849,80.121,-8.187
19:24:40:686,33.118,0.109,-0.260,0.199,-6.226,80.696,-5.943
19:24:40:713,33.145,0.098,0.095,0.153,-6.233,80.854,-4.561
19:24:40:738,33.170,0.018,0.099,0.031,-6.323,80.690,-2.894
19:24:40:765,33.196,-0.055,-0.060,-0.030,-6.147,80.717,-1.706
19:24:40:79,33.222,-0.126,0.097,0.084,-6.373,80.981,-0.970
19:24:40:817,33.248,0.030,-0.029,0.061,-6.098,81.413,-0.388
19:24:40:843,33.274,0.010,-0.012,0.058,-5.910,81.612,-0.037
19:24:40:869,33.301,0.065,-0.008,0.045,-5.834,81.442,0.580
19:24:40:895,33.327,0.051,-0.037,0.036,-5.770,81.387,0.981
19:24:40:949,33.381,-0.002,-0.013,0.044,-5.930,80.954,1.545
19:24:41:008,33.440,-0.017,-0.024,0.030,-6.111,80.889,2.045
19:24:41:008,33.440,-0.005,-0.005,0.044,-6.219,80.439,2.355
19:24:41:008,33.440,0.000,-0.002,0.028,-6.214,80.392,2.796
19:24:41:029,33.460,-0.006,0.002,0.037,-6.123,80.217,3.125
19:24:41:054,33.486,0.022,0.023,-0.015,-5.974,80.193,3.706
19:24:41:081,33.513,0.017,0.046,0.017,-5.606,80.036,4.405
19:24:41:106,33.538,0.039,0.048,-0.007,-5.157,80.000,4.912
19:24:41:132,33.564,0.029,0.081,-0.039,-4.179,79.803,5.818
19:24:41:188,33.619,-0.008,-0.003,-0.024,-3.057,79.597,6.520
19:24:41:188,33.620,-0.059,0.120,-0.030,-1.107,78.915,7.678
19:24:41:211,33.642,-0.002,0.134,-0.016,0.895,78.294,9.122
19:24:41:298,33.730,0.039,0.184,-0.106,2.369,77.703,10.252
19:24:41:298,33.730,-0.030,0.332,-0.367,4.141,76.572,12.474
19:24:41:299,33.731,0.042,0.254,-0.490,5.426,76.002,14.626
19:24:41:3,33.732,-0.151,0.402,-0.800,6.284,75.523,19.342
19:24:41:403,33.834,-0.429,0.653,-0.686,7.447,75.909,23.339
19:24:41:403,33.835,-0.275,0.333,-0.708,12.375,77.698,28.648
19:24:41:404,33.836,-0.302,-0.090,-0.919,16.867,80.176,34.365
19:24:41:405,33.837,-0.292,-0.215,-0.593,19.307,83.030,38.125
19:24:41:475,33.907,-0.064,-0.535,0.095,23.440,85.913,42.500
19:24:41:476,33.908,-0.494,-0.788,0.025,26.074,86.164,43.908
19:24:41:502,33.934,-0.286,-0.827,-0.843,26.041,85.237,44.147
19:24:41:503,33.935,0.004,-0.842,-0.230,25.334,85.530,41.739
19:24:41:586,34.018,-0.086,-1.022,-0.009,24.892,86.001,39.083
19:24:41:587,34.018,-0.394,-0.749,-0.484,20.904,85.117,33.991
19:24:41:587,34.018,-0.443,-0.491,-0.474,17.555,85.429,30.002
19:24:41:604,34.036,-0.444,-0.057,-0.346,13.048,86.663,23.001
19:24:41:63,34.062,-0.434,0.122,-0.303,10.237,87.394,18.004
19:24:41:686,34.118,-0.418,0.447,-0.114,6.254,88.600,10.583
19:24:41:686,34.118,-0.374,0.803,0.131,2.009,91.721,3.274
19:24:41:738,34.170,-0.272,0.799,0.453,-0.917,95.201,-1.484
19:24:41:739,34.171,-0.124,0.635,0.837,-5.050,101.811,-8.124
19:24:41:793,34.224,0.174,0.473,1.063,-7.070,106.574,-12.497
19:24:41:793,34.224,0.418,0.194,1.438,-8.879,112.993,-18.614
19:24:41:844,34.275,0.749,-0.315,1.453,-9.977,117.285,-23.198
19:24:41:844,34.276,0.987,-0.501,1.154,-10.761,118.657,-24.935
19:24:41:925,34.357,1.017,-0.356,0.906,-11.725,119.573,-25.341
19:24:41:925,34.357,0.792,-0.402,0.831,-11.488,120.069,-24.512
19:24:41:926,34.358,0.227,0.468,-0.001,-10.276,121.017,-22.149
19:24:42:06,34.492,-0.606,0.620,-1.439,-8.395,122.570,-19.863
19:24:42:061,34.493,0.844,-0.433,1.124,-6.496,124.369,-18.236
19:24:42:061,34.493,0.138,0.129,0.380,-4.884,127.784,-14.761
19:24:42:062,34.494,0.581,0.121,0.279,-3.958,129.472,-12.917
19:24:42:08,34.512,0.241,-0.075,0.058,-3.014,130.673,-10.014
19:24:42:08,34.512,0.261,-0.173,0.142,-2.953,130.992,-8.525
19:24:42:132,34.564,0.128,0.074,-0.034,-2.990,130.944,-6.092
19:24:42:133,34.565,0.020,0.138,-0.004,-3.554,131.249,-4.005
19:24:42:156,34.587,0.092,-0.019,-0.003,-3.383,131.558,-2.936
19:24:42:182,34.613,0.077,-0.002,0.128,-3.450,132.341,-1.574
19:24:42:208,34.639,0.043,0.054,0.075,-3.528,132.787,-0.999
19:24:42:321,34.753,0.060,-0.047,0.016,-3.178,133.108,-0.411
19:24:42:322,34.754,0.077,0.017,-0.003,-3.240,133.825,0.177
19:24:42:323,34.755,0.055,-0.049,0.023,-3.303,133.986,0.534
19:24:42:34,34.772,0.058,-0.035,0.039,-3.905,134.603,1.433
19:24:42:366,34.797,0.038,-0.017,-0.001,-4.214,134.965,1.916
19:24:42:392,34.823,0.009,0.003,0.037,-4.456,134.898,2.204
19:24:42:447,34.879,-0.025,0.025,0.033,-4.753,135.179,2.600
19:24:42:448,34.880,0.051,0.019,0.013,-4.839,135.372,3.006
19:24:42:55,34.982,0.029,-0.002,-0.012,-4.858,135.944,3.342
19:24:42:586,35.017,0.076,0.054,-0.049,-5.087,136.102,4.052
19:24:42:586,35.017,0.000,0.001,-0.019,-5.197,136.222,4.604
19:24:42:586,35.018,-0.065,0.084,0.031,-5.143,136.112,5.488
19:24:42:586,35.018,-0.060,0.104,0.019,-4.203,136.029,6.427
19:24:42:632,35.064,-0.095,0.244,0.016,-2.946,135.650,7.094
19:24:42:633,35.065,-0.020,0.061,0.038,-0.005,134.826,8.164
19:24:42:654,35.086,-0.132,0.331,-0.143,1.914,133.976,8.975
19:24:42:68,35.112,-0.227,0.421,-0.286,4.348,132.788,10.922
19:24:42:709,35.140,-0.390,0.306,-0.291,6.102,132.146,12.986
19:24:42:791,35.223,-0.727,0.650,-0.356,7.797,131.629,17.605
19:24:42:792,35.223,-0.907,0.621,0.070,10.870,132.081,23.710
19:24:42:793,35.224,-0.958,0.348,-0.050,14.446,133.112,27.335
19:24:42:87,35.302,-0.962,-0.131,-0.175,19.646,135.570,33.259
19:24:42:87,35.302,-0.281,-0.236,-0.030,22.592,138.388,37.260
19:24:42:871,35.303,0.160,-0.489,0.217,27.020,141.477,41.830
19:24:42:949,35.380,-0.757,-1.004,-0.080,28.942,142.702,43.735
19:24:42:949,35.381,-0.724,-0.874,-0.077,27.838,142.665,43.433
19:24:42:95,35.382,-0.061,-0.978,-0.037,26.651,143.496,41.558
19:24:43:027,35.459,-0.110,-0.936,0.105,25.658,143.431,39.103
19:24:43:028,35.460,-0.496,-0.675,0.088,21.629,142.262,34.338
19:24:43:029,35.461,-0.657,-0.570,0.005,16.621,141.231,28.039
19:24:43:134,35.566,-0.652,-0.221,0.057,13.150,140.846,23.249
19:24:43:135,35.566,-0.549,0.204,0.220,8.068,140.656,15.411
19:24:43:136,35.567,-0.568,0.330,0.140,4.763,140.699,9.945
19:24:43:156,35.588,0.044,0.966,0.285,-0.467,141.279,2.068
19:24:43:183,35.615,0.390,1.280,0.232,-4.264,142.128,-2.935
19:24:43:183,35.615,1.141,0.699,0.281,-9.791,144.913,-10.306
19:24:43:347,35.779,1.274,0.292,0.204,-14.105,148.527,-16.953
19:24:43:348,35.780,1.861,0.215,0.249,-16.532,151.472,-20.705
19:24:43:349,35.780,1.913,-0.858,0.277,-17.725,154.973,-24.893
19:24:43:35,35.781,1.795,-0.574,-0.016,-18.160,156.022,-25.419
19:24:43:479,35.910,1.536,-0.411,-0.073,-17.923,156.425,-23.460
19:24:43:479,35.910,-1.462,0.677,-0.014,-16.360,157.086,-20.482
19:24:43:479,35.911,1.614,-0.218,-0.052,-15.243,157.258,-19.266
19:24:43:48,35.911,-0.140,0.210,0.032,-11.927,157.549,-15.435
19:24:43:524,35.955,0.474,0.105,-0.160,-10.822,158.125,-13.928
19:24:43:55,35.982,0.615,-0.012,0.069,-9.424,159.430,-10.500
19:24:43:551,35.983,0.311,0.041,0.173,-9.039,160.676,-8.886
19:24:43:688,36.119,0.226,-0.073,-0.088,-8.674,161.121,-6.517
19:24:43:688,36.120,0.131,0.071,-0.009,-8.524,161.054,-4.571
19:24:43:689,36.121,-0.034,0.035,0.048,-8.573,160.927,-3.428
19:24:43:69,36.121,0.004,-0.054,0.047,-8.401,160.940,-2.273
19:24:43:742,36.174,0.079,0.034,-0.002,-8.397,161.082,-1.614
19:24:43:742,36.174,0.080,0.005,0.017,-8.349,161.267,-0.770
19:24:43:742,36.174,0.036,-0.023,-0.011,-8.402,161.063,0.018
19:24:43:743,36.175,0.041,-0.029,0.013,-8.444,161.032,0.429
19:24:43:794,36.226,0.047,0.000,0.063,-8.605,161.015,1.058
19:24:43:795,36.227,0.048,0.004,0.013,-8.665,160.907,1.533
19:24:43:795,36.227,0.013,-0.013,0.012,-8.645,161.114,2.263
19:24:43:796,36.228,0.002,0.030,0.029,-8.610,160.905,2.757
19:24:43:813,36.245,0.063,0.005,0.056,-8.385,160.681,3.553
19:24:43:814,36.246,0.049,0.010,-0.012,-7.989,160.396,4.414
19:24:43:865,36.296,0.032,0.023,0.003,-7.740,160.105,5.020
19:24:43:866,36.297,0.030,0.019,-0.025,-7.293,159.652,5.927
19:24:43:916,36.348,-0.055,0.052,-0.028,-7.019,159.234,6.615
19:24:43:945,36.377,-0.062,0.118,-0.020,-6.471,158.759,7.749
19:24:43:945,36.377,-0.149,0.229,-0.031,-5.172,158.068,9.009
19:24:43:995,36.427,-0.031,0.142,0.096,-3.651,157.704,9.992
19:24:43:996,36.428,-0.153,0.239,-0.068,-1.199,156.886,11.822
19:24:44:019,36.451,-0.291,0.275,-0.006,-0.117,156.265,13.426
19:24:44:133,36.565,-0.419,0.252,-0.074,1.612,155.498,16.646
19:24:44:134,36.566,-0.802,0.538,-0.215,3.159,155.233,21.200
19:24:44:134,36.566,-0.850,0.592,-0.023,5.004,155.645,24.990
19:24:44:135,36.567,-0.777,0.341,0.104,9.397,156.685,30.692
19:24:44:152,36.584,-1.188,0.215,0.111,11.760,157.347,34.677
19:24:44:205,36.637,-0.518,-0.338,-0.017,15.456,160.598,40.351
19:24:44:262,36.693,0.155,-0.354,0.141,18.653,162.114,43.265
19:24:44:262,36.694,-0.180,-0.759,0.568,24.461,161.521,45.946
19:24:44:263,36.694,-0.947,-0.752,0.024,25.665,158.264,45.709
19:24:44:312,36.744,-0.342,-0.732,-0.055,25.984,156.593,43.940
19:24:44:312,36.744,-0.152,-1.094,0.054,27.518,154.797,39.931
19:24:44:527,36.959,-0.538,-0.559,0.072,26.261,152.421,36.392
19:24:44:528,36.960,-0.505,-0.549,0.037,22.257,149.678,30.462
19:24:44:529,36.961,-0.580,-0.377,0.068,17.875,148.108,23.207
19:24:44:529,36.961,-0.584,0.013,0.156,14.113,147.508,18.392
19:24:44:579,37.011,-0.564,0.176,0.058,8.364,149.031,11.382
19:24:44:58,37.012,-0.217,0.685,0.333,4.557,151.313,6.953
19:24:44:581,37.013,0.141,1.056,0.553,-1.355,156.948,0.519
19:24:44:633,37.064,0.949,0.450,0.540,-8.359,168.152,-11.314
19:24:44:633,37.064,1.513,0.116,0.322,-11.260,173.006,-17.574
19:24:44:633,37.065,1.520,-0.245,0.184,-13.056,175.248,-21.161
19:24:44:634,37.066,1.478,-0.341,-0.385,-16.276,176.320,-23.918
19:24:44:649,37.081,1.208,-0.410,-0.577,-17.705,176.468,-24.305
19:24:44:811,37.243,1.155,-0.416,-0.535,-17.870,177.059,-23.148
19:24:44:812,37.243,-0.335,0.583,-0.623,-16.434,178.680,-20.630
19:24:44:843,37.274,-1.695,0.687,-0.321,-14.138,-179.880,-19.589
19:24:44:843,37.275,1.229,0.140,-0.233,-10.783,-176.192,-15.901
19:24:44:844,37.276,0.305,0.067,-0.338,-9.094,-175.611,-13.981
19:24:44:862,37.294,0.437,-0.069,-0.032,-7.423,-173.473,-8.425
19:24:44:863,37.295,0.096,0.002,-0.054,-7.375,-173.357,-5.766
19:24:44:887,37.319,0.104,0.011,-0.071,-7.420,-173.320,-3.748
19:24:44:912,37.344,0.018,0.048,0.020,-7.545,-173.258,-2.650
19:24:44:938,37.370,-0.025,-0.050,0.046,-7.497,-173.076,-1.365
19:24:44:965,37.396,-0.010,0.000,0.016,-7.443,-172.800,-0.620
19:24:45:05,37.482,0.035,0.026,0.025,-7.416,-172.359,0.361
19:24:45:05,37.482,0.027,-0.035,0.004,-7.253,-172.163,1.183
19:24:45:05,37.482,0.020,-0.029,-0.011,-7.170,-172.262,1.699
19:24:45:101,37.533,-0.010,0.007,-0.021,-7.177,-172.486,2.439
19:24:45:101,37.533,-0.001,-0.011,0.057,-7.177,-172.615,2.913
19:24:45:122,37.554,-0.007,0.007,0.069,-7.246,-172.632,3.608
19:24:45:149,37.580,0.029,-0.031,0.098,-7.126,-172.462,4.271
19:24:45:177,37.608,0.007,0.027,-0.059,-6.984,-172.261,4.689
19:24:45:23,37.661,-0.057,0.003,-0.048,-6.522,-172.122,5.307
19:24:45:23,37.662,-0.043,0.038,0.060,-6.287,-172.168,5.926
19:24:45:311,37.743,-0.051,0.014,0.130,-5.671,-172.231,6.970
19:24:45:312,37.744,-0.055,0.077,-0.076,-4.620,-172.226,8.094
19:24:45:312,37.744,-0.077,0.062,-0.022,-3.659,-172.329,8.867
19:24:45:364,37.796,-0.056,0.084,-0.015,-1.955,-172.670,10.223
19:24:45:384,37.816,-0.108,0.102,-0.075,2.087,-173.427,12.785
19:24:45:41,37.842,-0.272,0.223,0.052,3.333,-173.892,14.017
19:24:45:466,37.898,-0.377,0.202,0.145,5.406,-174.538,16.387
19:24:45:467,37.899,-0.436,0.354,0.289,7.263,-174.729,19.908
19:24:45:49,37.922,-0.704,0.131,0.296,8.568,-174.587,23.257
19:24:45:516,37.948,-0.780,0.578,0.328,11.600,-173.709,29.289
19:24:45:602,38.033,-0.619,0.114,0.474,14.683,-173.092,32.500
19:24:45:602,38.034,-0.992,-0.198,0.477,19.015,-170.957,37.848
19:24:45:602,38.034,-0.489,-0.120,0.339,22.573,-166.591,43.242
19:24:45:676,38.108,-0.032,-0.594,0.164,25.422,-164.936,45.767
19:24:45:705,38.137,0.149,-0.652,0.356,28.513,-163.686,47.487
19:24:45:705,38.137,-0.441,-0.777,0.479,28.099,-164.074,47.115
19:24:45:707,38.138,-0.235,-0.800,0.208,27.509,-164.695,44.516
19:24:45:815,38.247,0.011,-0.814,0.243,27.303,-165.076,41.826
19:24:45:815,38.247,-0.357,-0.741,0.483,24.599,-166.889,36.503
19:24:45:815,38.247,-0.412,-0.470,0.551,20.475,-167.842,30.259
19:24:45:816,38.248,-0.253,-0.228,0.552,17.600,-168.023,25.744
19:24:45:866,38.298,-0.311,0.031,0.504,13.161,-167.802,18.921
19:24:45:866,38.298,-0.138,0.393,0.571,9.996,-166.774,14.726
19:24:45:866,38.298,0.117,0.661,0.506,5.104,-163.054,8.645
19:24:45:942,38.373,0.551,0.678,0.366,0.433,-157.286,2.569
19:24:45:942,38.374,0.717,0.615,0.121,-2.356,-153.030,-1.366
19:24:45:943,38.375,0.975,0.518,-0.167,-5.957,-146.869,-7.442
19:24:46:015,38.447,1.060,0.250,-0.343,-7.820,-143.539,-11.544
19:24:46:043,38.475,1.064,0.055,-0.771,-10.489,-140.115,-16.933
19:24:46:069,38.501,1.025,-0.125,-1.011,-12.529,-138.897,-19.710
19:24:46:1,38.531,0.614,-0.346,-1.249,-15.064,-138.353,-22.219
19:24:46:1,38.532,0.502,-0.379,-1.283,-16.535,-137.868,-22.440
19:24:46:1,38.532,0.229,0.133,-0.844,-16.458,-137.227,-21.564
19:24:46:121,38.552,-1.074,0.352,0.277,-14.264,-135.261,-19.194
19:24:46:146,38.577,1.268,-0.245,-1.305,-12.236,-132.967,-18.042
19:24:46:172,38.603,0.211,0.467,-0.433,-9.857,-128.632,-13.964
19:24:46:198,38.630,-0.070,-0.152,-0.437,-7.839,-127.114,-10.900
19:24:46:224,38.656,-0.124,0.007,-0.326,-7.196,-126.212,-8.772
19:24:46:251,38.683,0.051,0.065,-0.430,-7.188,-125.090,-5.897
19:24:46:277,38.709,-0.112,0.028,-0.188,-6.816,-124.826,-4.435
19:24:46:332,38.764,-0.012,-0.004,-0.099,-6.983,-124.705,-2.512
19:24:46:333,38.764,-0.027,-0.011,0.005,-7.337,-124.098,-0.725
19:24:46:358,38.789,0.091,-0.028,0.017,-7.388,-123.601,0.052
19:24:46:383,38.815,0.042,0.029,-0.018,-7.354,-122.742,1.067
19:24:46:409,38.841,-0.035,-0.002,-0.042,-7.277,-122.475,1.656
19:24:46:434,38.866,-0.068,-0.022,-0.071,-7.269,-121.868,2.438
19:24:46:461,38.892,-0.050,-0.011,-0.047,-7.384,-121.813,2.934
19:24:46:487,38.918,0.024,0.012,-0.031,-7.678,-121.622,3.690
19:24:46:514,38.946,-0.022,-0.011,0.008,-7.849,-121.849,4.404
19:24:46:54,38.972,-0.024,-0.006,-0.023,-7.961,-121.687,4.898
19:24:46:594,39.026,-0.023,-0.008,-0.002,-8.045,-121.728,5.603
19:24:46:595,39.027,-0.011,0.025,0.011,-8.102,-121.586,6.081
19:24:46:618,39.050,-0.024,0.016,-0.029,-8.119,-121.615,6.883
19:24:46:644,39.076,-0.059,0.023,-0.015,-8.127,-121.659,7.813
19:24:46:671,39.102,-0.069,0.030,-0.005,-8.128,-121.811,8.510
19:24:46:697,39.128,-0.070,0.049,0.047,-7.926,-121.985,9.523
19:24:46:725,39.157,-0.037,0.063,0.037,-7.729,-122.303,10.297
19:24:46:75,39.182,-0.031,0.129,0.106,-7.043,-122.942,11.687
19:24:46:776,39.208,-0.098,0.147,0.120,-6.172,-123.564,12.779
19:24:46:802,39.234,-0.073,0.241,0.173,-4.507,-124.719,14.751
19:24:46:828,39.260,-0.032,0.192,0.326,-2.339,-125.626,17.183
19:24:46:856,39.287,-0.182,0.314,0.352,-0.957,-126.041,19.263
19:24:47:049,39.480,-0.385,0.361,0.660,1.741,-126.184,23.290
19:24:47:049,39.481,-0.264,0.488,0.753,4.385,-125.647,26.649
19:24:47:049,39.481,-0.065,0.379,0.898,8.328,-124.889,32.145
19:24:47:05,39.481,-0.166,0.058,1.176,12.038,-123.007,38.279
19:24:47:228,39.660,-0.012,-0.178,0.899,14.234,-120.203,42.316
19:24:47:229,39.660,-0.184,-0.442,0.197,18.208,-117.380,46.932
19:24:47:309,39.741,0.643,-0.384,-0.293,21.942,-117.461,48.878
19:24:47:309,39.741,-0.078,-0.984,0.828,23.968,-120.303,49.465
19:24:47:309,39.741,-0.096,-0.732,0.299,23.345,-122.133,47.824
19:24:47:364,39.796,-0.019,-1.142,0.039,24.395,-123.928,43.782
19:24:47:364,39.796,-0.096,-0.837,0.370,22.229,-127.689,38.450
19:24:47:365,39.797,-0.226,-0.543,0.643,19.187,-129.868,34.509
19:24:47:365,39.797,-0.151,-0.404,0.508,14.285,-131.395,27.672
19:24:47:442,39.874,-0.056,0.021,0.607,10.466,-132.013,22.882
19:24:47:443,39.874,-0.105,0.295,0.606,4.589,-131.377,15.462
19:24:47:443,39.874,0.220,0.786,0.052,-0.681,-129.009,8.084
19:24:47:443,39.875,0.264,0.974,0.009,-4.277,-126.902,3.176
19:24:47:485,39.916,0.431,0.845,-0.706,-9.109,-122.523,-4.696
19:24:47:575,40.007,0.407,0.463,-0.971,-11.764,-119.420,-9.726
19:24:47:575,40.007,0.436,0.342,-1.299,-15.438,-115.402,-16.406
19:24:47:575,40.007,0.275,-0.306,-1.787,-17.896,-112.917,-21.321
19:24:47:575,40.007,-0.040,-0.586,-1.731,-19.097,-112.565,-22.871
19:24:47:679,40.111,-0.134,-0.463,-1.579,-19.915,-112.765,-22.501
19:24:47:68,40.112,-0.103,-0.349,-1.330,-19.221,-112.783,-20.988
19:24:47:681,40.113,-0.218,0.636,1.572,-17.519,-111.879,-18.193
19:24:47:682,40.113,0.093,-0.246,-1.453,-16.081,-111.310,-17.079
19:24:47:81,40.242,0.016,0.279,-0.173,-12.783,-109.093,-13.296
19:24:47:811,40.242,-0.122,0.110,-0.485,-11.473,-107.560,-10.490
19:24:47:812,40.243,-0.474,0.170,-0.251,-10.491,-106.631,-8.324
19:24:47:812,40.244,0.033,-0.145,-0.343,-9.657,-105.265,-6.014
19:24:47:887,40.319,-0.153,0.110,-0.287,-9.240,-104.903,-4.477
19:24:47:888,40.320,-0.151,0.119,-0.002,-9.047,-104.862,-2.197
19:24:47:889,40.321,0.038,-0.083,0.033,-8.458,-104.902,-0.624
19:24:47:89,40.322,0.044,-0.046,-0.041,-8.409,-104.582,0.127
19:24:48:02,40.452,-0.038,-0.017,-0.046,-8.458,-104.047,0.926
19:24:48:02,40.452,-0.018,0.004,-0.065,-8.512,-103.803,1.358
19:24:48:02,40.452,-0.039,-0.002,-0.023,-8.597,-103.633,2.120
19:24:48:021,40.452,-0.031,-0.004,-0.034,-8.618,-103.635,2.653
19:24:48:071,40.503,-0.028,-0.030,-0.029,-8.685,-103.583,3.407
19:24:48:072,40.504,0.001,0.009,-0.017,-8.901,-103.674,4.099
19:24:48:073,40.505,-0.009,0.003,-0.031,-9.024,-103.752,4.535
19:24:48:074,40.506,-0.022,-0.005,-0.007,-9.082,-104.254,5.172
19:24:48:149,40.581,-0.019,0.027,-0.002,-9.103,-104.415,5.611
19:24:48:15,40.582,-0.051,0.031,0.001,-9.079,-104.851,6.353
19:24:48:151,40.583,-0.082,0.005,0.011,-8.964,-105.261,7.256
19:24:48:152,40.584,-0.066,0.020,0.006,-8.893,-105.876,7.909
19:24:48:169,40.601,-0.039,0.090,0.047,-8.707,-106.221,8.971
19:24:48:2,40.631,-0.028,0.115,0.085,-8.258,-106.717,9.714
19:24:48:2,40.631,0.011,0.091,0.094,-6.910,-107.111,10.938
19:24:48:23,40.661,-0.014,0.116,0.139,-4.744,-107.895,12.384
19:24:48:23,40.661,-0.115,0.209,0.129,-3.403,-108.341,13.645
19:24:48:23,40.662,-0.176,0.194,0.214,-1.708,-109.144,16.064
19:24:48:23,40.662,-0.011,0.225,0.360,-0.803,-109.483,18.112
19:24:48:246,40.677,-0.245,0.304,0.534,0.165,-109.802,22.238
19:24:48:492,40.924,-0.083,0.342,0.582,1.322,-109.543,25.502
19:24:48:493,40.925,0.187,0.221,0.650,4.483,-109.063,29.909
19:24:48:493,40.925,0.336,0.283,1.260,7.931,-109.681,34.690
19:24:48:545,40.976,-0.001,-0.248,0.726,14.659,-106.524,43.973
19:24:48:545,40.977,0.244,-0.347,0.022,17.896,-106.146,47.101
19:24:48:545,40.977,0.414,-0.436,-0.435,24.814,-107.219,49.740
19:24:48:546,40.978,-0.009,-0.646,0.661,26.703,-110.986,49.646
19:24:48:57,41.001,-0.045,-0.734,0.434,26.133,-113.354,47.650
19:24:48:571,41.002,-0.166,-1.167,0.211,25.119,-116.656,43.057
19:24:48:571,41.003,-0.230,-0.810,0.477,22.699,-119.426,39.573
19:24:48:572,41.004,-0.228,-0.633,0.557,17.529,-122.546,33.676
19:24:48:587,41.018,-0.234,-0.439,0.590,13.579,-123.891,29.108
19:24:48:673,41.105,-0.270,0.130,0.682,6.753,-125.652,22.018
19:24:48:673,41.105,-0.237,0.329,0.287,1.036,-126.313,14.289
19:24:48:673,41.105,-0.079,0.738,-0.021,-2.459,-126.702,9.243
19:24:48:721,41.152,-0.320,1.352,-0.179,-8.260,-126.667,1.382
19:24:48:722,41.153,0.014,0.689,-0.867,-11.852,-125.410,-3.851
19:24:48:745,41.176,0.034,0.488,-0.957,-16.456,-121.644,-11.208
19:24:48:801,41.233,0.240,0.071,-1.612,-19.839,-116.583,-17.808
19:24:48:801,41.233,0.304,-0.452,-1.713,-20.620,-113.868,-21.133
19:24:48:852,41.284,-0.033,-0.541,-1.589,-21.342,-112.165,-22.938
19:24:48:853,41.285,-0.159,-0.316,-1.277,-21.129,-112.010,-22.305
19:24:48:99,41.422,-0.080,-0.281,-1.038,-19.148,-111.699,-20.066
19:24:48:991,41.422,0.582,0.596,1.215,-18.110,-111.378,-18.234
19:24:48:992,41.423,-0.108,-0.072,-1.263,-17.092,-112.396,-15.617
19:24:48:992,41.424,0.174,0.272,-0.044,-14.342,-112.831,-11.800
19:24:49:04,41.472,-0.208,0.214,-0.580,-13.515,-111.902,-10.075
19:24:49:04,41.472,-0.199,-0.164,-0.302,-11.320,-110.841,-7.328
19:24:49:04,41.472,0.110,-0.184,-0.323,-10.889,-109.929,-5.953
19:24:49:059,41.491,-0.159,0.023,-0.224,-10.743,-109.512,-3.635
19:24:49:085,41.517,0.024,0.064,-0.073,-10.907,-109.192,-1.810
19:24:49:112,41.544,0.030,0.018,-0.057,-10.916,-109.154,-0.781
19:24:49:195,41.627,0.003,-0.030,0.007,-10.710,-108.947,0.244
19:24:49:195,41.627,-0.025,0.037,-0.052,-10.646,-108.790,0.885
19:24:49:251,41.683,-0.058,-0.006,-0.041,-10.650,-108.720,1.714
19:24:49:251,41.683,-0.034,-0.028,-0.041,-10.660,-108.759,2.414
19:24:49:251,41.683,-0.046,-0.005,-0.025,-10.771,-108.829,2.848
19:24:49:328,41.759,-0.022,-0.003,-0.011,-10.892,-108.978,3.493
19:24:49:328,41.760,-0.020,-0.015,-0.033,-10.958,-109.558,3.908
19:24:49:329,41.761,-0.039,-0.004,-0.029,-11.079,-109.657,4.513
19:24:49:378,41.810,-0.035,-0.025,0.002,-11.096,-110.061,4.863
19:24:49:378,41.810,-0.020,0.015,-0.003,-11.082,-110.151,5.382
19:24:49:459,41.891,-0.027,0.008,-0.026,-11.051,-110.642,5.978
19:24:49:459,41.891,-0.040,0.011,0.001,-11.022,-110.756,6.443
19:24:49:46,41.892,-0.064,0.024,0.037,-11.020,-111.270,7.264
19:24:49:51,41.941,-0.015,0.040,0.062,-10.912,-111.494,7.817
19:24:49:51,41.942,0.001,0.091,0.081,-10.509,-112.383,8.838
19:24:49:592,42.024,-0.046,0.163,0.063,-9.505,-113.055,10.017
19:24:49:592,42.024,-0.044,0.202,0.085,-8.357,-114.208,11.080
19:24:49:592,42.024,-0.171,0.113,0.059,-5.955,-115.451,12.921
19:24:49:64,42.072,-0.127,0.217,0.203,-4.326,-116.467,14.242
19:24:49:64,42.072,-0.110,0.285,0.364,-2.119,-117.540,17.015
19:24:49:692,42.124,-0.203,0.379,0.606,-0.895,-118.311,19.494
19:24:49:693,42.125,-0.313,0.439,0.922,1.343,-118.445,24.376
19:24:49:716,42.148,-0.075,0.325,0.721,5.208,-117.074,30.457
19:24:49:772,42.204,0.091,0.259,0.946,7.472,-116.338,34.508
19:24:49:772,42.204,0.000,-0.191,0.772,10.452,-114.587,40.306
19:24:49:795,42.227,-0.051,-0.317,0.576,13.020,-113.048,43.579
19:24:49:821,42.253,0.506,-0.400,-0.227,18.115,-112.518,47.080
19:24:49:847,42.279,-0.112,-1.056,0.738,22.196,-114.543,48.305
19:24:49:873,42.305,-0.057,-0.756,0.972,21.289,-116.495,47.247
19:24:49:929,42.360,0.013,-1.014,0.048,21.776,-117.964,43.928
19:24:49:929,42.361,0.087,-0.914,0.383,22.096,-119.403,40.518
19:24:49:952,42.384,-0.032,-0.628,0.673,18.671,-123.026,34.809
19:24:49:978,42.410,-0.078,-0.543,0.628,15.558,-124.245,30.343
19:24:50:035,42.467,0.123,-0.126,0.633,10.676,-125.068,22.846
19:24:50:036,42.468,0.051,0.267,0.607,5.114,-125.627,15.137
19:24:50:057,42.489,0.031,0.490,0.355,1.631,-125.294,9.946
19:24:50:085,42.517,0.070,1.091,0.107,-3.978,-123.655,2.761
19:24:50:11,42.542,0.057,1.271,-0.318,-8.005,-121.457,-2.290
19:24:50:141,42.573,0.100,0.463,-0.929,-13.018,-116.559,-9.911
19:24:50:217,42.649,0.264,-0.137,-1.887,-17.803,-106.784,-21.103
19:24:50:218,42.650,-0.216,-0.698,-1.722,-18.321,-103.209,-24.610
19:24:50:241,42.672,-0.224,-0.393,-1.535,-18.714,-102.221,-24.661
19:24:50:273,42.705,-0.179,-0.315,-1.284,-17.533,-101.331,-22.758
19:24:50:273,42.705,0.129,0.583,1.408,-15.677,-100.412,-19.838
19:24:50:324,42.756,-0.086,0.351,0.396,-14.278,-100.152,-18.605
19:24:50:324,42.756,-0.134,0.321,-0.131,-11.022,-98.168,-14.742
19:24:50:373,42.805,-0.253,0.146,-0.651,-9.981,-97.236,-12.812
19:24:50:401,42.833,-0.459,0.250,-0.344,-8.767,-95.339,-9.264
19:24:50:403,42.835,-0.015,-0.341,-0.275,-8.340,-94.174,-7.600
19:24:50:425,42.856,-0.142,-0.036,-0.111,-7.610,-93.612,-5.347
19:24:50:451,42.882,-0.057,0.296,-0.076,-7.977,-93.062,-2.998
19:24:50:479,42.910,-0.131,-0.073,0.005,-7.533,-92.993,-1.971
19:24:50:505,42.937,0.027,-0.023,-0.056,-6.725,-92.587,-0.725
19:24:50:531,42.963,-0.033,0.110,-0.118,-6.762,-92.083,0.056
19:24:50:557,42.989,-0.056,-0.029,-0.054,-6.486,-91.628,0.803
19:24:50:582,43.014,-0.072,-0.006,-0.026,-6.482,-91.453,1.341
19:24:50:608,43.040,-0.068,-0.034,-0.045,-6.293,-91.314,2.134
19:24:50:634,43.066,-0.043,-0.013,-0.045,-6.323,-91.576,2.734
19:24:50:661,43.092,-0.061,-0.008,-0.002,-6.364,-91.595,3.090
19:24:50:687,43.118,-0.051,0.002,-0.024,-6.413,-92.207,3.757
19:24:50:715,43.147,-0.028,-0.011,-0.001,-6.473,-92.393,4.198
19:24:50:74,43.172,-0.050,0.020,0.009,-6.565,-92.993,4.810
19:24:50:765,43.197,-0.056,0.011,0.003,-6.408,-93.170,5.420
19:24:50:792,43.223,-0.040,0.025,-0.010,-6.300,-93.433,5.905
19:24:50:818,43.250,-0.045,0.017,0.001,-6.153,-93.678,6.718
19:24:50:844,43.276,-0.075,0.050,0.015,-5.990,-94.306,7.286
19:24:50:928,43.360,-0.053,0.059,0.040,-5.698,-94.634,8.251
19:24:50:929,43.361,0.016,0.075,0.038,-5.276,-94.953,8.964
19:24:50:93,43.362,-0.004,0.126,0.045,-4.149,-95.437,10.046
19:24:50:949,43.381,-0.034,0.148,0.093,-2.195,-96.244,11.237
19:24:51:034,43.465,-0.047,0.305,0.265,-0.938,-96.727,12.267
19:24:51:035,43.466,-0.167,0.267,0.266,0.954,-97.607,14.422
19:24:51:035,43.467,0.069,0.219,0.535,2.252,-98.000,16.385
19:24:51:055,43.486,0.043,0.425,0.755,3.775,-98.573,20.431
19:24:51:08,43.512,0.282,0.509,0.618,6.813,-97.842,25.371
19:24:51:166,43.597,0.381,0.177,0.887,9.859,-97.802,28.153
19:24:51:166,43.598,0.389,0.114,0.987,14.024,-96.074,33.679
19:24:51:167,43.599,0.294,-0.129,0.721,16.723,-93.433,37.679
19:24:51:245,43.676,0.105,-0.388,0.122,20.379,-90.114,42.547
19:24:51:245,43.676,0.479,-0.630,-0.253,24.891,-89.885,45.364
19:24:51:245,43.677,0.432,-0.903,0.881,25.494,-91.223,45.926
19:24:51:292,43.724,0.010,-0.787,0.319,24.758,-93.246,43.896
19:24:51:429,43.860,-0.018,-1.035,-0.003,25.325,-93.683,41.804
19:24:51:429,43.861,0.259,-0.820,0.421,22.784,-96.530,37.058
19:24:51:43,43.862,0.236,-0.650,0.502,19.723,-98.581,33.317
19:24:51:457,43.889,0.280,-0.551,0.473,14.762,-100.523,26.308
19:24:51:457,43.889,0.128,0.015,0.780,8.992,-101.532,18.935
19:24:51:458,43.890,0.138,0.219,0.224,5.471,-101.493,14.150
19:24:51:459,43.891,0.075,0.955,0.287,-0.268,-99.646,7.077
19:24:51:474,43.906,0.013,1.069,-0.246,-4.012,-96.509,2.092
19:24:51:5,43.932,0.001,0.767,-0.890,-9.067,-89.140,-5.015
19:24:51:585,44.016,-0.256,0.460,-1.143,-12.407,-80.187,-12.322
19:24:51:586,44.017,-0.412,0.368,-1.827,-13.539,-74.667,-16.487
19:24:51:587,44.018,-0.827,-0.618,-1.691,-13.553,-69.187,-20.810
19:24:51:606,44.037,-1.082,-0.612,-1.433,-13.901,-67.362,-21.639
19:24:51:661,44.093,-0.981,-0.273,-1.068,-13.665,-65.667,-20.618
19:24:51:662,44.094,0.293,-0.105,-0.024,-11.937,-64.271,-17.943
19:24:51:684,44.116,0.864,0.566,1.153,-11.015,-63.577,-16.761
19:24:51:71,44.142,-0.561,0.294,-0.493,-8.792,-62.050,-12.981
19:24:51:766,44.198,-0.371,0.073,-0.226,-7.787,-61.497,-11.169
19:24:51:767,44.198,-0.370,0.143,-0.132,-6.925,-59.881,-7.965
19:24:51:79,44.221,-0.244,-0.291,-0.188,-6.500,-58.927,-6.397
19:24:51:844,44.276,-0.119,-0.191,-0.174,-6.525,-58.016,-4.230
19:24:51:845,44.277,-0.048,0.165,-0.009,-7.261,-57.613,-2.155
19:24:51:897,44.329,-0.066,0.021,-0.014,-7.298,-57.640,-1.111
19:24:51:898,44.330,0.033,-0.016,-0.035,-7.452,-57.489,0.278
19:24:51:921,44.352,-0.073,0.039,-0.056,-7.472,-57.208,1.026
19:24:51:948,44.380,-0.093,-0.014,0.078,-7.246,-56.795,1.690
19:24:51:973,44.405,-0.070,0.003,0.016,-7.177,-56.519,2.326
19:24:52:,44.431,-0.085,0.000,0.030,-7.189,-56.378,2.731
19:24:52:025,44.457,-0.056,-0.036,-0.024,-7.230,-56.266,3.284
19:24:52:11,44.541,-0.059,-0.004,0.000,-7.382,-56.302,3.648
19:24:52:111,44.543,-0.053,-0.016,0.055,-7.529,-56.423,4.183
19:24:52:112,44.543,-0.029,0.001,0.013,-7.640,-56.499,4.555
19:24:52:131,44.563,-0.005,0.013,0.011,-7.660,-56.573,5.098
19:24:52:157,44.589,-0.037,0.005,0.029,-7.443,-57.426,5.634
19:24:52:183,44.615,-0.071,0.005,0.043,-7.273,-57.452,6.035
19:24:52:209,44.641,-0.067,0.014,0.074,-7.141,-58.070,6.759
19:24:52:299,44.730,-0.023,0.037,0.043,-7.025,-58.133,7.304
19:24:52:299,44.730,0.004,0.047,0.069,-6.552,-58.872,8.155
19:24:52:299,44.731,0.062,0.084,0.041,-5.602,-59.237,9.110
19:24:52:299,44.731,0.004,0.152,0.012,-4.486,-60.269,9.840
19:24:52:371,44.803,0.000,0.139,0.096,-2.224,-61.122,11.058
19:24:52:371,44.803,0.044,0.223,0.185,-0.916,-62.535,12.107
19:24:52:422,44.854,0.222,0.211,0.295,1.134,-63.219,14.252
19:24:52:423,44.855,0.101,0.224,0.336,2.304,-63.968,16.327
19:24:52:535,44.967,0.414,0.458,0.481,3.514,-63.948,20.542
19:24:52:535,44.967,0.548,0.471,0.428,6.806,-62.867,25.573
19:24:52:536,44.968,0.735,0.270,0.353,9.690,-61.928,28.595
19:24:52:537,44.969,0.989,0.077,0.662,13.729,-59.608,34.118
19:24:52:631,45.062,0.547,-0.273,0.293,16.529,-56.832,37.891
19:24:52:693,45.125,0.269,-0.245,0.191,20.259,-54.066,42.423
19:24:52:693,45.125,0.126,-0.584,-0.222,24.360,-53.596,44.885
19:24:52:693,45.125,0.595,-0.897,0.267,24.924,-54.816,45.398
19:24:52:693,45.125,0.330,-0.773,0.242,23.742,-55.933,43.475
19:24:52:714,45.146,0.057,-0.970,-0.057,23.465,-56.234,41.324
19:24:52:714,45.146,0.315,-0.906,0.066,21.097,-57.954,36.482
19:24:52:715,45.147,0.641,-0.531,0.228,16.473,-60.379,30.471
19:24:52:875,45.307,0.584,-0.375,0.169,13.361,-61.502,25.767
19:24:52:876,45.308,0.482,-0.019,0.429,8.678,-63.049,18.253
19:24:52:876,45.308,0.289,0.145,0.306,5.402,-63.918,13.378
19:24:52:877,45.309,0.182,0.774,0.134,-0.162,-63.801,6.573
19:24:52:897,45.329,-0.036,0.981,0.031,-4.047,-62.049,1.881
19:24:52:897,45.329,-0.476,0.873,-0.338,-9.699,-57.476,-4.951
19:24:52:921,45.353,-0.934,0.542,-0.542,-14.091,-51.946,-12.010
19:24:52:921,45.353,-1.171,0.245,-0.846,-15.989,-48.290,-16.455
19:24:52:974,45.405,-1.521,-0.222,-1.010,-17.800,-43.808,-21.602
19:24:52:974,45.406,-1.552,-0.564,-0.560,-18.409,-42.247,-23.254
19:24:52:997,45.429,-1.440,-0.330,-0.383,-18.547,-41.204,-22.945
19:24:53:053,45.484,-1.151,-0.258,-0.359,-16.503,-40.174,-20.815
19:24:53:053,45.485,-0.208,0.359,0.015,-15.148,-39.281,-19.005
19:24:53:163,45.595,1.004,0.444,0.620,-13.198,-38.486,-16.761
19:24:53:164,45.595,-1.376,-0.554,-0.418,-11.411,-37.941,-14.752
19:24:53:165,45.596,-0.073,0.362,-0.009,-10.026,-36.060,-12.063
19:24:53:165,45.597,-0.459,0.121,0.114,-9.086,-34.663,-10.128
19:24:53:181,45.612,-0.162,-0.164,0.073,-7.798,-33.193,-8.201
19:24:53:209,45.641,-0.224,-0.179,0.028,-7.758,-32.964,-6.371
19:24:53:235,45.667,-0.072,0.009,0.121,-8.148,-32.711,-5.452
19:24:53:261,45.693,-0.099,0.058,0.036,-8.839,-32.599,-4.221
19:24:53:344,45.775,-0.027,-0.027,-0.018,-9.206,-32.631,-3.477
19:24:53:345,45.776,-0.055,0.050,-0.082,-9.887,-32.327,-2.458
19:24:53:345,45.777,-0.041,0.034,-0.069,-10.171,-32.089,-1.719
19:24:53:364,45.796,-0.012,-0.005,-0.024,-10.229,-30.833,-1.211
19:24:53:391,45.822,0.002,-0.016,-0.002,-10.335,-30.791,-0.472
19:24:53:446,45.878,-0.205,0.020,0.133,-10.383,-29.511,0.043
19:24:53:447,45.879,-0.093,-0.051,0.097,-10.318,-29.198,0.617
19:24:53:469,45.901,-0.042,0.010,0.002,-10.576,-28.072,1.138
19:24:53:522,45.954,-0.033,-0.035,0.029,-10.804,-28.131,1.808
19:24:53:579,46.011,-0.051,0.019,0.073,-11.104,-27.185,2.388
19:24:53:579,46.011,-0.118,0.020,0.134,-11.274,-27.088,2.726
19:24:53:604,46.035,-0.101,0.038,0.034,-11.614,-26.253,3.258
19:24:53:604,46.036,-0.055,0.007,0.076,-11.832,-26.186,3.676
19:24:53:629,46.061,0.005,0.002,-0.006,-11.977,-25.422,4.344
19:24:53:654,46.086,0.037,0.028,0.091,-11.875,-24.761,5.139
19:24:53:68,46.112,0.093,0.089,-0.014,-11.582,-24.995,5.820
19:24:53:706,46.138,-0.024,0.143,0.017,-10.415,-24.825,6.941
19:24:53:762,46.194,-0.010,0.094,-0.010,-8.962,-25.375,7.729
19:24:53:763,46.194,0.108,0.223,-0.097,-6.312,-25.817,8.893
19:24:53:785,46.216,0.066,0.212,0.074,-2.971,-27.145,10.397
19:24:53:84,46.272,0.241,0.300,0.224,-1.055,-27.544,11.894
19:24:53:84,46.272,0.508,0.331,0.130,1.249,-28.753,15.012
19:24:53:979,46.411,0.621,0.457,0.309,2.404,-29.038,18.110
19:24:53:979,46.411,0.919,0.487,0.036,5.235,-28.215,24.084
19:24:53:979,46.411,0.712,0.588,-0.185,8.123,-26.845,28.334
19:24:53:98,46.412,0.976,0.142,-0.022,11.942,-24.680,33.650
19:24:54:11,46.542,0.195,-0.371,-0.043,15.965,-22.109,38.400
19:24:54:111,46.542,-0.179,-0.491,-0.238,18.601,-22.135,40.821
19:24:54:111,46.542,0.644,-0.970,-0.178,21.182,-24.434,41.766
19:24:54:111,46.543,0.416,-0.765,0.095,21.475,-26.612,40.667
19:24:54:162,46.594,0.036,-1.130,0.120,22.558,-28.647,37.909
19:24:54:162,46.594,0.358,-0.894,0.091,20.974,-32.073,33.580
19:24:54:163,46.595,0.510,-0.577,0.043,18.158,-34.040,30.405
19:24:54:163,46.595,0.570,-0.561,0.098,13.534,-36.063,24.400
19:24:54:178,46.610,0.550,-0.050,-0.001,9.700,-37.219,20.064
19:24:54:291,46.722,0.538,0.185,0.140,3.777,-37.972,13.114
19:24:54:291,46.723,0.127,0.679,0.016,0.103,-37.717,8.384
19:24:54:292,46.724,0.007,1.002,-0.005,-5.726,-36.363,1.668
19:24:54:313,46.745,-0.698,1.144,-0.215,-11.678,-32.967,-5.472
19:24:54:313,46.745,-1.100,0.557,-0.292,-14.951,-30.145,-10.179
19:24:54:365,46.797,-1.110,0.346,-0.108,-19.208,-26.128,-16.883
19:24:54:365,46.797,-1.637,-0.165,-0.242,-21.093,-23.366,-20.617
19:24:54:388,46.820,-1.618,-0.657,0.030,-22.618,-20.877,-23.829
19:24:54:444,46.875,-1.366,-0.436,0.292,-23.439,-20.277,-23.837
19:24:54:444,46.876,-1.203,-0.265,0.255,-22.789,-19.328,-22.196
19:24:54:555,46.987,-0.263,0.010,-0.183,-20.571,-17.656,-19.608
19:24:54:556,46.988,1.738,0.721,0.455,-19.262,-16.419,-17.685
19:24:54:556,46.988,-1.859,-0.497,-0.005,-16.265,-14.497,-15.678
19:24:54:557,46.989,-0.113,0.209,-0.301,-14.118,-12.407,-13.477
19:24:54:604,47.036,-0.694,0.276,0.512,-13.215,-10.049,-10.929
19:24:54:604,47.036,-0.279,-0.435,0.325,-11.290,-9.099,-8.506
19:24:54:605,47.037,-0.281,-0.344,-0.021,-11.021,-9.021,-7.190
19:24:54:625,47.057,-0.125,0.199,0.091,-11.240,-9.178,-4.735
19:24:54:677,47.109,-0.038,-0.031,0.067,-11.213,-9.172,-3.622
19:24:54:756,47.188,-0.100,-0.020,-0.019,-10.915,-9.076,-2.346
19:24:54:818,47.250,-0.088,-0.032,0.017,-10.878,-8.590,-1.477
19:24:54:819,47.250,-0.070,0.033,0.042,-10.743,-8.290,-1.103
19:24:54:819,47.251,-0.089,-0.010,0.069,-10.657,-8.132,-0.563
19:24:54:82,47.252,-0.034,-0.010,0.051,-10.677,-8.188,-0.158
19:24:54:839,47.271,-0.062,-0.023,0.065,-10.677,-8.136,0.365
19:24:54:839,47.271,-0.052,-0.027,0.064,-10.437,-8.007,0.771
19:24:54:861,47.292,-0.068,0.016,0.066,-10.165,-7.628,1.370
19:24:54:887,47.318,-0.045,-0.022,0.035,-10.284,-7.679,1.833
19:24:54:942,47.374,-0.058,-0.020,0.029,-10.353,-7.419,2.161
19:24:54:943,47.375,-0.036,0.006,0.056,-10.486,-7.609,2.651
19:24:54:965,47.397,-0.018,0.003,0.064,-10.459,-7.726,3.045
19:24:54:991,47.423,0.009,0.020,0.063,-10.598,-7.978,3.735
19:24:55:019,47.450,0.024,0.057,0.031,-10.589,-8.176,4.528
19:24:55:044,47.476,0.026,0.047,0.066,-10.321,-8.423,5.135
19:24:55:071,47.502,0.044,0.067,0.040,-9.443,-8.473,6.104
19:24:55:126,47.558,0.056,0.085,0.005,-8.458,-8.805,6.742
19:24:55:126,47.558,0.015,0.134,-0.026,-6.304,-9.265,7.910
19:24:55:15,47.582,0.014,0.054,0.100,-3.607,-9.468,9.374
19:24:55:175,47.607,0.091,0.270,0.158,-2.204,-9.966,10.547
19:24:55:202,47.634,0.293,0.241,0.112,-0.455,-10.769,12.920
19:24:55:259,47.690,0.432,0.244,0.001,0.548,-11.175,15.063
19:24:55:259,47.690,0.733,0.605,-0.071,1.345,-11.499,19.637
19:24:55:28,47.712,0.850,0.589,-0.184,2.597,-11.489,23.432
19:24:55:336,47.768,0.584,0.283,-0.146,7.204,-10.507,28.836
19:24:55:336,47.768,0.948,0.018,-0.224,10.950,-8.817,34.449
19:24:55:361,47.793,0.554,-0.017,-0.276,13.033,-6.238,38.113
19:24:55:386,47.817,0.170,-0.537,0.067,16.917,-3.492,42.282
19:24:55:412,47.843,-0.333,-0.542,-0.481,19.647,-3.333,44.104
19:24:55:498,47.930,0.897,-0.935,-0.241,20.451,-4.898,44.671
19:24:55:498,47.930,0.255,-0.737,0.011,20.075,-5.875,42.307
19:24:55:498,47.930,-0.051,-1.090,-0.033,20.923,-6.104,39.740
19:24:55:518,47.950,0.471,-0.758,-0.248,18.667,-8.594,34.545
19:24:55:572,48.004,0.528,-0.550,-0.242,15.879,-9.802,30.506
19:24:55:573,48.005,0.403,-0.274,-0.319,12.012,-10.308,23.174
19:24:55:596,48.027,0.658,0.068,-0.260,8.976,-10.474,18.109
19:24:55:623,48.054,0.138,0.376,-0.221,4.612,-10.104,10.598
19:24:55:65,48.082,0.154,0.956,-0.189,0.004,-7.829,3.474
19:24:55:674,48.106,-0.302,0.964,-0.137,-3.029,-4.639,-1.384
19:24:55:729,48.161,-0.771,0.668,-0.066,-7.205,2.341,-8.142
19:24:55:73,48.162,-1.215,0.429,0.120,-9.345,7.688,-12.569
19:24:55:783,48.214,-1.700,0.066,0.306,-10.847,14.726,-18.744
19:24:55:783,48.215,-1.675,-0.592,0.606,-11.688,18.607,-22.971
19:24:55:806,48.237,-1.441,-0.579,0.821,-12.756,19.205,-24.158
19:24:55:832,48.264,-1.088,-0.271,0.829,-14.131,18.948,-23.704
19:24:55:858,48.290,-0.856,0.245,0.942,-13.729,18.991,-22.668
19:24:55:884,48.316,1.054,0.302,-0.568,-11.202,19.855,-20.123
19:24:55:91,48.342,-0.874,-0.037,0.484,-9.926,21.236,-18.568
19:24:55:939,48.371,-0.367,-0.014,-0.024,-7.118,24.657,-15.011
19:24:55:966,48.397,-0.411,0.165,0.402,-6.114,27.965,-11.874
19:24:56:018,48.449,0.030,-0.085,0.394,-5.380,28.854,-9.757
19:24:56:045,48.477,-0.222,-0.142,0.357,-4.554,29.540,-7.585
19:24:56:045,48.477,0.049,0.156,0.189,-4.825,29.688,-5.675
19:24:56:068,48.500,0.095,-0.014,0.036,-4.831,29.528,-3.915
19:24:56:094,48.526,-0.113,0.079,0.092,-4.839,29.893,-2.389
19:24:56:121,48.553,-0.079,0.002,0.048,-5.012,30.171,-1.690
19:24:56:147,48.579,-0.056,-0.080,0.089,-4.708,30.639,-1.158
19:24:56:173,48.605,-0.044,0.064,0.056,-4.754,30.857,-0.806
19:24:56:202,48.633,-0.028,0.013,0.101,-4.757,31.107,-0.314
19:24:56:227,48.659,-0.037,-0.023,0.095,-4.643,31.343,0.184
19:24:56:252,48.684,-0.037,0.005,0.068,-4.772,31.453,0.514
19:24:56:278,48.710,-0.009,-0.021,0.072,-4.951,31.582,1.029
19:24:56:305,48.737,-0.031,-0.013,0.066,-4.979,31.666,1.543
19:24:56:331,48.762,-0.071,-0.003,0.034,-5.059,32.718,2.206
19:24:56:357,48.788,-0.016,0.026,0.037,-5.129,32.838,2.701
19:24:56:383,48.815,0.008,0.000,0.059,-5.039,33.677,3.079
19:24:56:409,48.841,-0.025,0.016,0.060,-4.812,33.686,3.727
19:24:56:436,48.868,-0.021,0.024,0.055,-4.620,34.490,4.192
19:24:56:462,48.894,0.043,0.047,0.057,-4.188,34.392,4.925
19:24:56:488,48.920,0.003,0.106,-0.002,-3.777,34.990,5.495
19:24:56:515,48.946,0.002,0.077,0.012,-2.628,34.726,6.448
19:24:56:541,48.972,-0.046,0.169,-0.018,-0.969,34.981,7.537
19:24:56:569,49.000,0.076,0.224,0.057,0.161,34.540,8.447
19:24:56:594,49.025,0.076,0.294,-0.066,1.906,34.438,10.353
19:24:56:62,49.052,0.163,0.285,-0.170,2.938,34.020,12.027
19:24:56:646,49.078,0.276,0.304,-0.306,4.196,34.319,15.478
19:24:56:672,49.104,0.365,0.602,-0.611,5.096,34.276,18.493
19:24:56:7,49.132,0.187,0.389,-0.790,8.713,35.146,23.217
19:24:56:725,49.156,0.440,0.165,-0.966,13.311,36.308,28.049
19:24:56:751,49.182,0.138,-0.149,-0.558,16.315,38.323,31.914
19:24:56:777,49.208,0.268,-0.190,-0.451,20.091,42.529,37.346
19:24:56:803,49.235,-0.219,-0.618,0.114,22.318,44.584,40.344
19:24:56:861,49.293,-0.244,-0.788,-0.388,25.485,46.481,42.462
19:24:56:862,49.294,0.070,-0.589,-0.697,23.645,46.382,42.137
19:24:56:863,49.295,0.100,-0.760,-0.305,22.426,46.776,40.452
19:24:56:883,49.314,-0.117,-1.049,-0.156,21.327,47.338,36.197
19:24:56:908,49.340,-0.017,-0.656,-0.641,18.830,46.725,32.794
19:24:56:966,49.397,-0.088,-0.434,-0.597,14.332,46.523,27.020
19:24:56:966,49.398,-0.228,-0.089,-0.521,10.132,46.796,19.870
19:24:57:016,49.448,-0.109,0.168,-0.615,7.065,46.932,14.918
19:24:57:017,49.449,-0.214,0.447,-0.187,2.802,47.623,7.418
19:24:57:039,49.471,-0.148,0.870,-0.176,-0.290,48.636,2.605
19:24:57:095,49.526,-0.286,0.900,0.406,-5.438,51.733,-4.698
19:24:57:096,49.527,-0.275,0.654,0.835,-10.106,56.606,-11.720
19:24:57:149,49.581,-0.413,0.449,1.057,-12.526,59.987,-16.307
19:24:57:149,49.581,-0.584,-0.239,1.781,-14.572,65.068,-22.199
19:24:57:171,49.603,-0.334,-0.722,1.845,-15.119,67.292,-24.979
19:24:57:199,49.631,-0.046,-0.452,1.670,-16.182,68.293,-26.113
19:24:57:224,49.656,-0.230,-0.055,0.960,-16.301,68.103,-25.235
19:24:57:279,49.710,-0.214,0.092,-0.107,-14.870,67.536,-22.528
19:24:57:279,49.711,0.046,-0.099,0.704,-12.972,67.199,-20.402
19:24:57:333,49.764,0.063,0.185,0.271,-10.883,68.212,-17.935
19:24:57:333,49.764,-0.046,-0.078,0.446,-9.008,69.970,-15.290
19:24:57:354,49.786,0.397,0.262,0.501,-8.301,71.184,-13.158
19:24:57:41,49.842,-0.047,-0.216,0.422,-7.460,72.729,-10.752
19:24:57:41,49.842,0.020,-0.073,0.211,-6.933,73.131,-8.600
19:24:57:462,49.894,0.069,0.109,0.226,-7.082,72.870,-7.319
19:24:57:463,49.895,0.016,-0.029,0.016,-7.259,72.473,-5.727
19:24:57:486,49.917,-0.076,-0.025,0.062,-7.350,72.619,-4.789
19:24:57:512,49.943,-0.072,-0.012,0.068,-7.494,73.106,-3.665
19:24:57:619,50.051,-0.047,0.029,0.112,-7.461,73.400,-3.027
19:24:57:654,50.085,-0.036,0.007,0.050,-7.477,73.544,-2.267
19:24:57:654,50.085,0.030,-0.014,0.089,-7.510,73.578,-1.600
19:24:57:654,50.086,0.010,-0.009,0.081,-7.582,73.597,-1.187
19:24:57:655,50.086,-0.003,-0.003,0.082,-7.767,73.507,-0.395
19:24:57:728,50.160,-0.008,-0.019,0.067,-7.816,73.298,0.219
19:24:57:729,50.161,-0.019,0.001,0.052,-7.917,73.023,1.039
19:24:57:729,50.161,-0.014,-0.013,0.059,-8.010,72.793,1.781
19:24:57:776,50.208,-0.012,-0.009,0.077,-8.049,72.716,2.207
19:24:57:803,50.235,0.016,0.015,0.069,-8.174,72.512,2.833
19:24:57:804,50.236,-0.012,0.023,0.052,-8.254,72.396,3.308
19:24:57:857,50.288,0.008,0.026,0.012,-8.329,72.025,4.189
19:24:57:857,50.289,0.011,0.034,-0.022,-8.284,71.771,4.795
19:24:57:879,50.311,0.007,0.075,-0.031,-7.962,71.207,5.777
19:24:57:906,50.337,-0.053,0.127,-0.015,-7.130,70.529,6.859
19:24:57:99,50.422,0.034,0.220,-0.063,-6.056,69.910,7.630
19:24:57:99,50.422,0.004,0.134,-0.068,-3.656,68.859,9.031
19:24:57:991,50.423,0.037,0.357,-0.207,-2.145,68.089,10.289
19:24:58:011,50.442,0.113,0.276,-0.245,0.000,67.142,12.785
19:24:58:038,50.469,-0.082,0.279,-0.490,1.852,66.583,16.373
19:24:58:063,50.495,0.282,0.692,-0.904,2.874,66.495,19.929
19:24:58:089,50.521,-0.010,0.429,-0.726,6.949,67.685,25.905
19:24:58:175,50.607,-0.147,0.241,-0.806,9.546,68.415,29.821
19:24:58:175,50.607,-0.225,-0.112,-0.839,12.816,70.467,35.522
19:24:58:175,50.607,0.048,-0.306,-0.461,15.580,72.307,38.684
19:24:58:194,50.626,-0.231,-0.496,0.120,20.457,72.656,41.840
19:24:58:25,50.682,-0.177,-0.908,-0.558,23.171,70.571,42.920
19:24:58:25,50.682,-0.082,-0.680,-0.694,22.181,68.917,41.698
19:24:58:273,50.705,0.078,-1.012,-0.119,22.207,67.333,38.354
19:24:58:301,50.733,-0.061,-0.973,-0.271,21.520,65.678,34.990
19:24:58:327,50.759,-0.106,-0.701,-0.571,17.406,62.470,29.407
19:24:58:441,50.872,-0.036,-0.505,-0.595,12.715,60.968,22.560
19:24:58:441,50.873,-0.118,-0.308,-0.506,9.347,60.223,17.580
19:24:58:441,50.873,0.041,0.200,-0.615,3.949,59.487,9.900
19:24:58:442,50.873,-0.126,0.606,0.026,0.369,59.353,4.993
19:24:58:457,50.889,-0.127,1.097,-0.028,-5.521,60.660,-2.343
19:24:58:483,50.915,-0.215,0.925,0.936,-11.248,63.943,-9.559
19:24:58:54,50.972,-0.053,0.407,1.159,-14.628,66.407,-14.185
19:24:58:54,50.972,-0.027,0.226,1.308,-18.768,69.936,-20.572
19:24:58:562,50.994,0.068,-0.234,1.745,-20.412,71.935,-23.815
