Time,Second,AccelerationX,AccelerationY,AccelerationZ,EulerAnglesX,EulerAnglesY,EulerAnglesZ
19:39:54:022,0.000,-0.003,-0.016,-0.004,9.141,-5.913,-17.008
19:39:54:023,0.001,-0.004,-0.004,0.003,9.154,-5.797,-17.049
19:39:54:024,0.001,-0.010,-0.013,-0.009,9.128,-5.472,-17.260
19:39:54:024,0.002,-0.011,-0.009,0.003,9.130,-5.360,-17.333
19:39:54:074,0.052,-0.014,-0.006,0.001,9.126,-5.306,-17.378
19:39:54:075,0.053,-0.014,-0.006,0.007,9.120,-5.217,-17.434
19:39:54:076,0.054,-0.018,-0.006,-0.004,9.096,-5.153,-17.479
19:39:54:077,0.055,-0.014,-0.007,0.001,9.069,-5.143,-17.499
19:39:54:416,0.394,-0.012,-0.009,0.000,9.043,-5.119,-17.517
19:39:54:417,0.395,-0.018,-0.005,0.004,9.035,-5.075,-17.506
19:39:54:418,0.396,-0.016,-0.007,0.001,9.021,-5.064,-17.484
19:39:54:419,0.397,-0.003,-0.007,0.005,9.011,-5.117,-17.452
19:39:54:47,0.448,-0.004,-0.009,0.004,9.004,-5.132,-17.428
19:39:54:471,0.449,-0.009,-0.004,0.004,9.010,-5.105,-17.381
19:39:54:471,0.449,0.004,-0.006,-0.002,9.005,-5.102,-17.199
19:39:54:471,0.449,0.006,-0.005,0.004,9.018,-5.068,-17.197
19:39:54:652,0.630,0.004,-0.006,-0.002,9.033,-5.021,-17.201
19:39:54:653,0.631,0.002,-0.007,0.004,9.053,-4.963,-17.193
19:39:54:654,0.632,-0.004,-0.008,0.003,9.136,-4.807,-17.325
19:39:54:655,0.633,-0.003,-0.006,-0.002,9.146,-4.779,-17.362
19:39:54:837,0.815,-0.001,-0.007,0.005,9.164,-4.722,-17.407
19:39:54:838,0.816,-0.013,-0.010,0.003,9.184,-4.673,-17.428
19:39:54:838,0.816,-0.008,-0.013,-0.013,9.482,-4.151,-17.609
19:39:54:838,0.816,-0.023,-0.018,-0.002,9.532,-3.989,-17.572
19:39:54:994,0.972,0.005,-0.006,0.005,9.543,-3.952,-17.527
19:39:54:995,0.973,0.001,-0.006,0.012,9.566,-3.880,-17.512
19:39:54:996,0.974,-0.014,-0.010,-0.001,9.606,-3.748,-17.479
19:39:54:996,0.974,-0.008,-0.009,-0.006,9.625,-3.714,-17.456
19:39:55:046,1.024,0.001,-0.002,0.003,9.650,-3.686,-17.419
19:39:55:047,1.025,-0.003,-0.008,-0.006,9.663,-3.636,-17.379
19:39:55:047,1.025,0.003,-0.011,0.001,9.631,-3.306,-17.051
19:39:55:048,1.026,0.000,-0.006,0.004,9.582,-3.292,-17.010
19:39:55:177,1.155,0.000,-0.004,-0.002,9.560,-3.280,-16.981
19:39:55:178,1.156,-0.002,-0.007,0.003,9.521,-3.238,-16.969
19:39:55:178,1.156,0.013,-0.005,-0.001,9.474,-3.193,-16.930
19:39:55:179,1.157,0.003,-0.015,0.010,9.453,-3.132,-16.911
19:39:55:384,1.362,0.001,-0.006,-0.005,9.436,-3.044,-16.904
19:39:55:385,1.363,0.003,-0.009,0.002,9.396,-3.033,-16.879
19:39:55:385,1.363,0.002,-0.007,0.004,9.414,-2.940,-16.836
19:39:55:808,1.786,0.004,-0.002,-0.003,9.436,-2.893,-16.825
19:39:55:808,1.786,0.000,-0.004,-0.001,9.443,-2.869,-16.827
19:39:55:808,1.786,0.002,-0.011,-0.002,9.447,-2.857,-16.854
19:39:55:809,1.787,-0.002,-0.007,0.001,9.465,-2.807,-16.960
19:39:55:94,1.918,-0.005,-0.009,-0.007,9.476,-2.779,-16.991
19:39:55:94,1.918,-0.009,-0.007,0.004,9.486,-2.768,-17.010
19:39:55:94,1.918,-0.006,-0.005,-0.004,9.479,-2.784,-17.054
19:39:55:941,1.919,-0.007,-0.006,0.007,9.464,-2.832,-17.158
19:39:55:966,1.944,-0.005,-0.009,0.005,9.461,-2.878,-17.171
19:39:55:966,1.944,-0.005,-0.006,0.006,9.458,-2.907,-17.181
19:39:55:967,1.945,-0.005,-0.008,-0.001,9.456,-2.937,-17.166
19:39:55:967,1.945,-0.003,-0.014,0.002,9.463,-2.956,-17.156
19:39:55:992,1.970,-0.001,-0.015,-0.004,9.453,-2.983,-17.120
19:39:55:992,1.970,0.000,-0.010,-0.003,9.447,-3.008,-17.086
19:39:55:992,1.970,0.003,-0.010,-0.005,9.440,-3.016,-17.055
19:39:55:993,1.971,0.001,-0.005,-0.004,9.420,-3.016,-16.991
19:39:56:017,1.995,0.016,-0.005,-0.003,9.387,-2.973,-16.898
19:39:56:018,1.996,0.008,-0.011,-0.008,9.370,-2.916,-16.830
19:39:56:018,1.996,0.011,-0.008,-0.005,9.318,-2.865,-16.719
19:39:56:148,2.126,0.027,0.002,-0.002,8.949,-2.296,-16.247
19:39:56:149,2.127,0.037,-0.004,0.012,8.774,-1.387,-15.827
19:39:56:15,2.128,-0.021,0.017,0.106,8.554,2.402,-14.943
19:39:56:151,2.129,-0.015,0.047,0.138,8.353,2.545,-15.521
19:39:56:167,2.145,0.002,0.039,0.177,8.247,2.675,-15.904
19:39:56:203,2.181,-0.020,0.026,0.197,8.340,3.211,-16.312
19:39:56:203,2.181,-0.064,-0.016,0.230,8.961,3.844,-16.521
19:39:56:203,2.181,-0.084,-0.087,0.236,9.404,3.261,-16.475
19:39:56:203,2.181,-0.083,-0.096,0.202,9.673,2.345,-16.458
19:39:56:306,2.284,-0.077,-0.088,0.190,9.979,-0.200,-16.418
19:39:56:307,2.285,-0.038,-0.084,0.173,10.250,-3.320,-16.232
19:39:56:308,2.286,-0.039,-0.077,0.167,10.521,-5.455,-15.926
19:39:56:309,2.287,-0.044,-0.071,0.172,11.029,-8.554,-15.165
19:39:56:411,2.389,-0.033,-0.046,0.178,11.419,-10.445,-14.494
19:39:56:411,2.389,-0.015,0.017,0.131,12.156,-12.866,-13.198
19:39:56:412,2.390,0.002,0.072,0.113,13.001,-14.915,-11.462
19:39:56:413,2.391,0.027,0.088,0.101,13.587,-16.256,-10.047
19:39:56:517,2.495,0.075,0.121,0.059,14.430,-18.665,-7.759
19:39:56:517,2.495,0.176,0.209,0.015,14.942,-20.751,-6.241
19:39:56:517,2.495,0.260,0.254,0.020,15.632,-24.733,-4.008
19:39:56:518,2.496,0.378,0.240,0.042,16.350,-29.169,-1.702
19:39:56:533,2.511,0.437,0.234,0.054,16.849,-32.014,-0.133
19:39:56:753,2.731,0.502,0.161,0.106,17.546,-35.674,2.269
19:39:56:753,2.731,0.534,0.064,0.148,17.953,-37.413,3.859
19:39:56:754,2.732,0.614,-0.108,0.160,18.378,-38.404,6.260
19:39:56:754,2.732,0.607,-0.316,0.069,18.604,-37.295,8.520
19:39:56:779,2.757,0.632,-0.302,0.016,18.447,-35.633,9.717
19:39:56:78,2.758,0.627,-0.194,-0.071,17.541,-32.291,10.788
19:39:56:78,2.758,0.526,-0.150,-0.138,16.624,-29.785,10.816
19:39:56:78,2.758,0.470,-0.186,-0.123,14.950,-26.150,9.701
19:39:56:936,2.914,0.403,-0.224,-0.084,13.043,-23.183,7.318
19:39:56:936,2.914,0.331,-0.198,-0.088,11.733,-21.023,5.206
19:39:56:937,2.915,0.272,-0.164,-0.054,9.822,-18.344,1.523
19:39:56:938,2.916,0.231,-0.100,-0.025,8.623,-16.755,-1.210
19:39:56:989,2.967,0.168,-0.031,-0.054,7.056,-14.235,-5.721
19:39:56:99,2.968,0.026,0.002,-0.067,6.186,-12.449,-8.895
19:39:56:99,2.968,-0.093,0.086,-0.072,5.281,-9.675,-13.907
19:39:57:277,3.255,-0.400,0.263,-0.100,5.083,-5.708,-22.384
19:39:57:278,3.256,-0.579,0.498,-0.116,5.655,-4.378,-26.668
19:39:57:279,3.257,-0.653,0.327,0.036,6.279,-3.904,-28.968
19:39:57:279,3.257,-0.636,0.271,0.104,7.359,-3.616,-31.076
19:39:57:321,3.299,-0.542,0.331,0.206,8.653,-3.371,-31.210
19:39:57:382,3.360,-0.420,0.249,0.282,9.304,-3.086,-30.316
19:39:57:383,3.361,-0.394,0.107,0.251,10.527,-2.428,-28.186
19:39:57:383,3.361,-0.511,-0.027,0.162,11.617,-1.811,-26.601
19:39:57:385,3.363,-0.562,-0.142,0.096,12.937,-1.901,-24.403
19:39:57:488,3.466,-0.381,-0.236,-0.009,13.467,-4.819,-22.938
19:39:57:488,3.466,-0.236,-0.273,-0.028,13.500,-8.244,-22.380
19:39:57:489,3.467,-0.040,-0.316,-0.032,13.515,-14.528,-21.988
19:39:57:49,3.468,0.067,-0.314,-0.039,13.647,-18.922,-21.951
19:39:57:566,3.544,0.096,-0.293,-0.054,14.177,-24.973,-21.892
19:39:57:566,3.544,0.120,-0.192,-0.095,15.116,-29.815,-21.580
19:39:57:567,3.545,0.150,-0.135,-0.107,15.931,-32.261,-21.159
19:39:57:568,3.546,0.209,-0.129,-0.098,17.348,-34.713,-20.051
19:39:57:725,3.703,0.256,-0.125,-0.135,18.395,-35.555,-18.955
19:39:57:725,3.703,0.288,-0.036,-0.211,19.866,-35.901,-16.804
19:39:57:725,3.703,0.389,0.132,-0.276,20.627,-35.758,-15.063
19:39:57:726,3.704,0.456,0.117,-0.260,21.395,-35.094,-11.883
19:39:57:752,3.730,0.538,0.040,-0.157,21.785,-33.862,-8.017
19:39:57:753,3.731,0.638,0.142,-0.085,21.780,-32.512,-5.223
19:39:57:753,3.731,0.700,0.203,-0.117,21.466,-28.998,-1.076
19:39:57:753,3.731,0.660,0.096,-0.240,20.754,-23.380,2.366
19:39:57:907,3.885,0.583,0.051,-0.292,19.820,-18.865,3.903
19:39:57:908,3.886,0.358,0.078,-0.391,17.827,-11.745,4.477
19:39:57:908,3.886,0.196,-0.003,-0.304,16.360,-7.281,3.731
19:39:57:909,3.887,0.167,-0.180,-0.160,14.371,-1.549,1.217
19:39:57:933,3.911,0.076,-0.219,-0.104,12.941,3.295,-2.670
19:39:57:934,3.912,0.036,-0.210,-0.088,12.351,5.994,-5.848
19:39:57:935,3.913,0.035,-0.110,-0.092,11.876,9.077,-11.227
19:39:57:961,3.939,-0.126,0.052,-0.131,12.237,12.664,-20.570
19:39:57:961,3.939,-0.310,0.320,-0.182,12.743,13.590,-24.192
19:39:57:961,3.939,-0.504,0.441,-0.146,14.041,14.656,-29.162
19:39:57:962,3.940,-0.704,0.387,-0.066,16.041,15.098,-33.625
19:39:58:091,4.069,-0.646,0.223,-0.020,17.453,14.980,-36.270
19:39:58:092,4.070,-0.613,0.172,0.005,19.486,14.497,-39.665
19:39:58:092,4.070,-0.418,-0.054,0.096,20.793,14.224,-41.307
19:39:58:093,4.071,-0.199,-0.258,0.150,22.459,14.373,-42.729
19:39:58:119,4.097,-0.239,-0.162,0.188,23.647,15.119,-43.076
19:39:58:119,4.097,-0.280,-0.082,0.152,24.297,15.822,-42.639
19:39:58:119,4.097,-0.278,-0.130,0.092,25.188,17.312,-40.953
19:39:58:119,4.097,-0.217,-0.265,0.123,25.508,18.563,-39.115
19:39:58:144,4.122,-0.186,-0.284,0.107,25.513,20.078,-35.702
19:39:58:144,4.122,-0.114,-0.248,0.041,25.039,20.789,-31.897
19:39:58:145,4.123,-0.066,-0.187,0.077,24.693,21.005,-29.156
19:39:58:145,4.123,-0.047,-0.072,0.080,24.529,21.396,-24.696
19:39:58:169,4.147,-0.128,0.113,0.093,24.765,21.827,-21.592
19:39:58:169,4.147,-0.059,0.086,0.110,25.481,22.318,-17.222
19:39:58:169,4.147,0.068,0.031,0.004,26.478,22.323,-13.338
19:39:58:275,4.253,0.038,0.221,-0.164,27.266,21.996,-10.778
19:39:58:276,4.254,0.033,0.337,-0.398,28.476,20.988,-7.051
19:39:58:276,4.254,0.144,0.230,-0.495,29.304,19.226,-4.910
19:39:58:277,4.255,0.304,-0.032,-0.620,30.774,15.361,-2.433
19:39:58:295,4.273,0.476,0.024,-0.784,31.628,13.010,-0.962
19:39:58:295,4.273,0.607,-0.059,-0.855,32.727,12.101,1.794
19:39:58:537,4.515,0.415,-0.479,-0.906,33.403,16.556,6.008
19:39:58:538,4.516,0.051,-0.359,-1.023,33.142,21.785,9.047
19:39:58:539,4.517,-0.089,-0.269,-0.975,31.349,29.222,11.725
19:39:58:539,4.517,-0.146,-0.231,-0.771,28.937,34.984,11.974
19:39:58:694,4.672,-0.108,-0.147,-0.617,26.920,38.021,10.857
19:39:58:695,4.673,-0.041,-0.173,-0.429,23.612,41.479,7.455
19:39:58:696,4.674,-0.039,-0.170,-0.359,21.407,43.286,4.209
19:39:58:697,4.675,-0.060,-0.054,-0.335,18.201,45.143,-1.976
19:39:58:878,4.856,-0.095,0.123,-0.290,15.047,46.172,-9.273
19:39:58:879,4.857,-0.173,0.269,-0.202,12.974,47.058,-14.331
19:39:58:88,4.858,-0.288,0.406,-0.018,10.389,49.483,-21.895
19:39:58:881,4.859,-0.395,0.434,0.125,9.442,51.994,-26.749
19:39:58:904,4.882,-0.459,0.432,0.291,9.543,56.980,-33.551
19:39:58:905,4.883,-0.435,0.321,0.432,10.722,60.783,-37.493
19:39:58:906,4.884,-0.360,0.299,0.428,13.766,66.582,-42.158
19:39:58:907,4.885,-0.321,0.190,0.413,17.603,71.984,-45.450
19:39:58:931,4.909,-0.356,0.191,0.363,20.039,74.984,-47.181
19:39:58:932,4.910,-0.380,0.082,0.325,23.112,78.881,-49.593
19:39:58:932,4.910,-0.386,0.079,0.297,24.819,81.380,-51.141
19:39:58:933,4.911,-0.367,0.149,0.326,25.736,84.936,-53.597
19:39:58:95,4.928,-0.291,0.157,0.219,25.347,88.769,-55.738
19:39:59:037,5.014,-0.220,-0.053,0.180,25.981,91.797,-56.966
19:39:59:037,5.015,-0.163,-0.261,0.135,28.208,96.738,-59.099
19:39:59:038,5.015,-0.074,-0.356,0.038,29.659,99.893,-60.697
19:39:59:038,5.016,-0.002,-0.383,-0.035,31.988,104.244,-63.167
19:39:59:062,5.040,0.007,-0.419,-0.025,35.433,107.698,-65.829
19:39:59:063,5.041,-0.001,-0.412,-0.019,37.947,109.491,-67.794
19:39:59:064,5.042,0.053,-0.246,0.002,41.028,111.850,-70.817
19:39:59:064,5.042,0.090,-0.147,0.034,42.860,113.409,-72.853
19:39:59:082,5.060,0.085,-0.127,-0.029,45.805,115.694,-75.720
19:39:59:083,5.061,0.095,-0.033,-0.024,47.771,117.964,-78.370
19:39:59:185,5.163,0.088,0.073,-0.023,48.030,119.528,-79.816
19:39:59:219,5.197,0.020,0.182,0.003,48.230,121.802,-81.402
19:39:59:22,5.197,0.048,0.153,0.086,48.837,123.365,-82.053
19:39:59:221,5.198,0.248,0.142,-0.008,47.705,125.843,-82.261
19:39:59:221,5.199,0.090,0.265,-0.081,42.851,127.362,-81.608
19:39:59:237,5.214,-0.177,0.282,-0.052,37.708,127.771,-81.114
19:39:59:264,5.242,-0.395,0.220,0.024,30.304,128.454,-80.314
19:39:59:289,5.267,-0.361,0.129,0.054,26.991,128.971,-79.680
19:39:59:318,5.296,-0.280,-0.092,0.036,27.148,129.608,-78.410
19:39:59:341,5.319,-0.104,-0.351,0.002,29.608,130.662,-76.926
19:39:59:396,5.374,-0.018,-0.428,-0.013,29.964,131.067,-75.903
19:39:59:397,5.375,0.008,-0.495,-0.023,28.240,132.085,-74.375
19:39:59:422,5.400,0.033,-0.487,-0.062,26.992,132.726,-73.352
19:39:59:505,5.483,0.053,-0.445,-0.060,26.356,133.952,-71.589
19:39:59:505,5.483,0.083,-0.330,-0.016,26.746,134.948,-69.283
19:39:59:506,5.484,0.140,-0.201,0.005,26.504,135.590,-67.566
19:39:59:579,5.557,0.184,-0.040,0.105,24.863,135.833,-64.842
19:39:59:61,5.588,0.166,0.042,0.120,23.531,135.455,-62.742
19:39:59:611,5.589,0.131,0.213,0.178,22.270,134.438,-59.089
19:39:59:612,5.589,0.120,0.372,0.277,21.990,133.502,-56.245
19:39:59:661,5.639,0.080,0.391,0.363,21.834,131.510,-51.332
19:39:59:661,5.639,0.034,0.309,0.476,20.794,127.934,-45.983
19:39:59:683,5.661,-0.074,0.185,0.492,19.489,124.366,-42.408
19:39:59:815,5.793,-0.146,0.146,0.440,16.793,117.409,-37.317
19:39:59:852,5.830,-0.168,0.377,0.455,14.794,111.726,-34.213
19:39:59:852,5.830,-0.266,0.431,0.378,12.719,102.407,-30.048
19:39:59:852,5.830,-0.296,0.302,0.210,11.519,92.647,-26.749
19:39:59:852,5.830,-0.245,0.112,0.071,10.993,85.989,-25.212
19:39:59:869,5.847,-0.187,-0.087,-0.018,10.766,76.732,-23.708
19:39:59:87,5.848,-0.179,-0.219,-0.078,11.116,71.308,-22.950
19:39:59:894,5.872,-0.195,-0.251,-0.136,12.344,64.405,-21.920
19:40:00:033,6.011,-0.202,-0.295,-0.183,14.097,59.044,-20.916
19:40:00:034,6.012,-0.218,-0.319,-0.187,15.447,56.282,-20.260
19:40:00:035,6.013,-0.258,-0.293,-0.196,17.393,52.675,-19.236
19:40:00:035,6.013,-0.203,-0.121,-0.261,18.425,50.421,-18.463
19:40:00:192,6.170,-0.150,-0.072,-0.302,19.781,47.713,-16.920
19:40:00:192,6.170,-0.073,-0.043,-0.356,20.595,46.418,-15.463
19:40:00:193,6.171,-0.003,0.001,-0.401,21.646,45.151,-12.634
19:40:00:193,6.171,0.096,0.110,-0.513,22.345,45.014,-8.781
19:40:00:217,6.195,0.148,0.278,-0.637,22.618,45.966,-5.432
19:40:00:219,6.197,0.207,0.213,-0.690,22.888,49.500,0.607
19:40:00:219,6.197,0.202,0.086,-0.725,22.720,55.172,7.314
19:40:00:219,6.197,0.189,0.125,-0.780,22.098,59.649,11.655
19:40:00:29,6.268,0.190,0.013,-0.720,20.368,66.575,17.324
19:40:00:291,6.269,0.090,0.147,-0.716,18.906,70.817,19.798
19:40:00:372,6.350,-0.096,0.119,-0.567,16.991,76.602,20.719
19:40:00:373,6.351,-0.289,0.042,-0.446,15.415,82.304,18.699
19:40:00:374,6.352,-0.391,0.134,-0.308,14.545,86.104,16.112
19:40:00:395,6.373,-0.341,0.147,-0.069,14.058,90.442,10.544
19:40:00:395,6.373,-0.279,0.085,0.026,14.301,91.437,5.660
19:40:00:418,6.396,-0.268,-0.007,-0.031,14.699,89.893,-2.957
19:40:00:584,6.562,-0.292,-0.135,-0.030,14.265,86.723,-12.325
19:40:00:585,6.563,-0.330,-0.132,0.062,13.558,84.928,-18.681
19:40:00:586,6.564,-0.417,-0.102,0.258,11.753,83.037,-27.876
19:40:00:587,6.565,-0.368,-0.093,0.317,9.921,82.344,-33.559
19:40:00:636,6.614,-0.287,-0.017,0.384,7.152,82.674,-41.044
19:40:00:637,6.615,-0.239,0.010,0.447,6.126,83.757,-45.255
19:40:00:638,6.616,-0.206,-0.047,0.494,6.918,86.298,-50.426
19:40:00:639,6.617,-0.170,-0.091,0.599,10.592,89.412,-54.193
19:40:00:657,6.635,-0.125,-0.102,0.673,14.450,91.579,-55.906
19:40:00:658,6.636,-0.019,-0.174,0.640,21.536,94.737,-57.125
19:40:00:843,6.821,0.047,-0.177,0.573,25.865,96.691,-56.940
19:40:00:843,6.821,0.033,-0.188,0.566,30.510,99.212,-55.162
19:40:00:875,6.853,0.085,-0.258,0.484,31.391,101.092,-51.502
19:40:00:875,6.853,0.174,-0.186,0.484,29.633,101.715,-48.231
19:40:00:875,6.853,0.308,0.035,0.619,25.113,101.293,-42.421
19:40:00:875,6.853,0.227,0.218,0.650,22.018,100.226,-38.112
19:40:00:979,6.957,0.132,0.268,0.580,17.899,97.356,-31.417
19:40:00:979,6.957,-0.022,0.131,0.228,14.984,92.397,-25.182
19:40:00:98,6.958,-0.060,0.043,0.071,13.908,87.934,-21.842
19:40:00:981,6.959,-0.117,0.025,-0.053,13.410,79.829,-18.062
19:40:01:001,6.979,-0.114,0.040,-0.141,13.666,73.600,-16.342
19:40:01:002,6.980,-0.116,0.094,-0.334,15.060,64.821,-14.553
19:40:01:003,6.981,-0.121,0.134,-0.442,17.773,59.041,-12.821
19:40:01:188,7.166,-0.139,0.064,-0.543,20.210,57.451,-11.126
19:40:01:189,7.167,-0.269,-0.028,-0.604,24.346,58.425,-7.316
19:40:01:19,7.168,-0.465,0.050,-0.736,26.958,60.586,-4.032
19:40:01:191,7.169,-0.544,-0.016,-0.837,30.385,64.485,1.281
19:40:01:214,7.192,-0.555,-0.291,-0.805,33.295,67.939,6.054
19:40:01:215,7.193,-0.544,-0.325,-0.856,34.665,69.514,8.108
19:40:01:215,7.193,-0.401,-0.408,-0.817,35.131,69.503,8.432
19:40:01:216,7.194,-0.309,-0.277,-0.722,34.215,69.547,7.295
19:40:01:26,7.238,-0.367,-0.272,-0.781,31.938,73.148,6.800
19:40:01:261,7.239,-0.684,-0.123,-0.588,28.668,82.026,7.770
19:40:01:371,7.349,-0.860,0.030,-0.414,26.019,89.075,7.771
19:40:01:372,7.350,-0.886,0.224,0.023,21.922,99.319,5.839
19:40:01:373,7.351,-0.682,0.119,0.208,19.492,105.161,3.210
19:40:01:374,7.352,-0.578,0.208,0.306,16.612,112.175,-2.482
19:40:01:391,7.369,-0.371,0.247,0.528,14.381,117.452,-9.571
19:40:01:444,7.422,-0.273,0.191,0.477,13.201,119.869,-14.977
19:40:01:445,7.423,-0.180,0.170,0.476,11.673,122.222,-23.318
19:40:01:525,7.503,-0.086,0.218,0.492,10.620,123.466,-28.606
19:40:01:525,7.503,0.014,0.117,0.512,9.691,125.752,-35.922
19:40:01:61,7.588,0.131,0.081,0.581,9.735,127.587,-40.349
19:40:01:61,7.588,0.256,0.058,0.628,11.070,130.573,-46.181
19:40:01:61,7.588,0.399,0.052,0.671,14.507,133.731,-50.992
19:40:01:61,7.588,0.464,-0.005,0.653,18.201,135.854,-53.515
19:40:01:625,7.603,0.441,-0.085,0.582,25.082,139.065,-56.065
19:40:01:766,7.744,0.449,-0.138,0.545,29.854,141.301,-56.866
19:40:01:767,7.745,0.487,-0.246,0.425,35.468,144.899,-56.314
19:40:01:768,7.746,0.548,-0.239,0.274,37.849,148.390,-53.760
19:40:01:768,7.746,0.549,-0.222,0.226,37.679,150.215,-51.226
19:40:01:787,7.765,0.495,-0.153,0.220,35.470,151.823,-46.880
19:40:01:787,7.765,0.391,-0.148,0.179,33.042,152.152,-43.729
19:40:01:809,7.787,0.300,-0.160,0.210,28.801,151.326,-38.891
19:40:01:835,7.813,0.203,-0.145,0.126,24.653,148.794,-34.101
19:40:01:941,7.919,0.155,-0.117,0.048,22.280,146.505,-30.782
19:40:01:973,7.951,0.063,-0.085,-0.029,19.915,142.939,-25.655
19:40:01:974,7.952,-0.033,0.044,-0.021,19.202,140.829,-22.089
19:40:01:975,7.953,-0.092,0.069,-0.030,19.207,138.427,-16.419
19:40:01:996,7.974,-0.175,0.111,-0.034,20.084,136.780,-10.439
19:40:01:997,7.975,-0.260,0.141,-0.037,20.962,135.803,-6.477
19:40:02:02,7.998,-0.400,0.217,-0.056,22.596,134.331,-0.859
19:40:02:133,8.111,-0.528,0.254,-0.020,23.866,133.211,2.500
19:40:02:133,8.111,-0.625,0.216,-0.049,25.895,130.992,6.571
19:40:02:134,8.112,-0.680,0.067,-0.151,27.786,128.161,9.238
19:40:02:182,8.160,-0.836,0.024,-0.315,29.640,124.460,11.675
19:40:02:182,8.160,-0.713,-0.318,-0.430,29.728,125.461,12.601
19:40:02:423,8.401,-0.678,-0.409,-0.408,29.232,127.316,14.472
19:40:02:423,8.401,-0.810,-0.232,-0.194,27.748,132.475,15.977
19:40:02:424,8.402,-0.848,-0.124,-0.079,26.340,135.119,16.176
19:40:02:425,8.403,-0.758,-0.111,0.032,23.840,139.059,15.032
19:40:02:494,8.472,-0.634,-0.034,0.166,21.968,141.950,13.409
19:40:02:58,8.558,-0.446,-0.015,0.221,19.057,146.377,9.772
19:40:02:581,8.559,-0.319,-0.074,0.188,17.279,148.975,6.505
19:40:02:581,8.559,-0.246,-0.051,0.188,14.849,152.433,0.486
19:40:02:582,8.560,-0.200,0.064,0.204,12.849,155.623,-6.461
19:40:02:606,8.584,-0.063,0.218,0.256,11.760,157.787,-11.381
19:40:02:606,8.584,0.122,0.146,0.284,11.109,161.814,-18.575
19:40:02:607,8.585,0.170,-0.002,0.283,11.361,164.580,-23.267
19:40:02:608,8.586,0.291,0.042,0.244,12.223,167.822,-30.081
19:40:02:816,8.794,0.436,0.307,0.266,13.018,169.516,-36.363
19:40:02:816,8.794,0.544,0.343,0.295,14.145,170.311,-39.816
19:40:02:817,8.795,0.588,0.129,0.243,17.301,171.777,-43.882
19:40:02:818,8.796,0.571,-0.028,0.159,19.894,172.723,-45.887
19:40:02:921,8.899,0.555,-0.178,0.081,23.936,173.793,-47.922
19:40:02:922,8.900,0.596,-0.275,0.059,27.351,174.403,-48.824
19:40:02:923,8.901,0.567,-0.249,0.023,28.416,174.540,-48.575
19:40:02:923,8.901,0.530,-0.064,-0.008,27.643,174.507,-47.077
19:40:02:947,8.925,0.400,0.048,-0.012,26.082,174.343,-45.439
19:40:02:948,8.926,0.268,0.036,0.038,23.433,174.002,-42.138
19:40:02:949,8.927,0.130,-0.124,-0.136,21.287,173.896,-37.700
19:40:02:949,8.927,0.036,-0.183,-0.146,20.494,174.192,-34.197
19:40:02:97,8.948,-0.006,-0.109,-0.108,20.218,175.170,-28.126
19:40:02:971,8.949,0.000,0.054,-0.079,20.263,176.108,-23.563
19:40:02:991,8.969,-0.043,0.116,-0.031,20.516,177.269,-16.365
19:40:03:131,9.109,-0.107,0.071,0.072,21.156,177.337,-9.553
19:40:03:132,9.110,-0.142,0.022,0.090,21.847,176.476,-5.767
19:40:03:133,9.111,-0.250,0.013,0.120,23.361,173.697,-1.658
19:40:03:133,9.111,-0.342,-0.012,0.108,24.688,171.160,-0.090
19:40:03:157,9.135,-0.494,-0.052,0.149,26.926,167.265,0.755
19:40:03:158,9.136,-0.561,-0.071,0.221,28.410,165.254,0.703
19:40:03:158,9.136,-0.624,-0.081,0.318,30.273,164.011,0.632
19:40:03:159,9.137,-0.680,-0.127,0.361,31.484,165.394,1.435
19:40:03:209,9.187,-0.602,-0.060,0.513,31.912,167.941,2.706
19:40:03:21,9.188,-0.509,-0.032,0.564,31.851,173.189,5.052
19:40:03:211,9.189,-0.471,-0.207,0.477,31.192,177.897,6.881
19:40:03:212,9.190,-0.514,-0.058,0.634,30.534,-179.439,7.481
19:40:03:28,9.258,-0.359,-0.002,0.759,29.049,-175.100,7.634
19:40:03:312,9.290,-0.241,-0.066,0.734,27.858,-171.768,7.458
19:40:03:313,9.291,-0.067,-0.016,0.731,25.764,-166.563,6.359
19:40:03:313,9.291,0.133,-0.074,0.554,24.296,-163.309,4.869
19:40:03:385,9.363,0.142,-0.136,0.440,22.151,-159.841,1.219
19:40:03:551,9.529,-0.009,-0.188,0.326,19.801,-158.183,-3.614
19:40:03:551,9.529,0.020,-0.124,0.320,18.175,-157.115,-7.066
19:40:03:552,9.530,0.178,-0.025,0.283,16.012,-154.991,-12.506
19:40:03:553,9.531,0.248,0.041,0.214,14.693,-153.373,-16.169
19:40:03:581,9.559,0.316,0.192,0.130,12.961,-150.425,-21.584
19:40:03:581,9.559,0.446,0.322,-0.020,12.101,-146.560,-26.811
19:40:03:581,9.559,0.480,0.271,-0.138,12.523,-143.515,-30.180
19:40:03:581,9.559,0.542,0.345,-0.279,14.409,-138.878,-34.984
19:40:03:709,9.687,0.614,0.401,-0.374,16.817,-135.979,-37.635
19:40:03:709,9.687,0.587,0.231,-0.448,21.483,-132.045,-40.388
19:40:03:71,9.688,0.457,-0.085,-0.483,25.422,-129.231,-41.556
19:40:03:711,9.689,0.299,-0.290,-0.490,26.638,-128.528,-41.869
19:40:03:731,9.709,0.150,-0.363,-0.388,25.662,-129.394,-42.120
19:40:03:732,9.710,0.124,-0.209,-0.294,23.597,-130.746,-41.961
19:40:03:733,9.711,0.148,0.024,-0.276,19.934,-132.598,-40.481
19:40:03:78,9.758,0.112,0.073,-0.259,16.827,-133.721,-37.366
19:40:03:781,9.759,0.059,0.026,-0.198,15.406,-134.066,-34.517
19:40:03:919,9.897,0.026,-0.106,-0.134,14.396,-134.188,-29.598
19:40:03:92,9.898,0.040,-0.215,-0.101,14.183,-134.159,-26.054
19:40:03:921,9.899,0.023,-0.248,-0.095,14.085,-134.423,-20.663
19:40:03:921,9.899,-0.015,-0.222,-0.061,14.129,-135.569,-15.643
19:40:03:94,9.918,-0.055,-0.123,-0.016,14.279,-136.964,-12.673
19:40:03:94,9.918,-0.105,-0.052,0.080,14.780,-139.635,-8.731
19:40:04:076,10.054,-0.161,0.040,0.169,15.408,-141.423,-6.280
19:40:04:076,10.054,-0.189,0.167,0.315,16.732,-143.589,-2.585
19:40:04:077,10.055,-0.211,0.192,0.402,18.257,-145.225,1.218
19:40:04:078,10.056,-0.208,0.243,0.503,19.267,-146.329,3.619
19:40:04:125,10.102,-0.282,0.268,0.600,20.605,-147.774,6.960
19:40:04:126,10.103,-0.400,0.194,0.657,21.385,-149.006,8.957
19:40:04:126,10.104,-0.491,0.139,0.682,22.233,-149.628,11.673
19:40:04:174,10.152,-0.550,-0.157,0.596,22.566,-149.766,13.376
19:40:04:175,10.153,-0.516,-0.196,0.623,22.428,-147.577,15.466
19:40:04:364,10.342,-0.336,-0.185,0.629,21.159,-144.471,16.200
19:40:04:365,10.343,-0.186,-0.137,0.540,19.708,-141.145,15.723
19:40:04:366,10.344,-0.116,-0.101,0.488,17.044,-136.831,13.659
19:40:04:367,10.345,-0.072,-0.158,0.376,15.244,-133.808,11.533
19:40:04:55,10.528,-0.062,-0.194,0.317,12.853,-129.511,7.333
19:40:04:55,10.528,-0.051,-0.176,0.259,10.949,-125.700,2.144
19:40:04:551,10.529,-0.010,-0.138,0.190,10.030,-123.381,-1.812
19:40:04:552,10.530,0.043,-0.090,0.130,9.085,-120.532,-8.172
19:40:04:681,10.658,0.047,-0.008,0.090,8.614,-119.030,-12.436
19:40:04:681,10.659,0.118,0.116,-0.010,8.311,-116.965,-18.619
19:40:04:682,10.660,0.152,0.253,-0.153,8.804,-114.826,-24.297
19:40:04:683,10.660,0.209,0.359,-0.331,9.786,-113.095,-27.676
19:40:04:706,10.684,0.329,0.313,-0.587,12.777,-110.046,-32.152
19:40:04:707,10.685,0.362,0.107,-0.757,15.315,-108.304,-34.536
19:40:04:707,10.685,0.309,0.065,-0.767,18.233,-107.099,-37.140
19:40:04:708,10.686,0.231,-0.130,-0.743,19.684,-107.416,-38.541
19:40:04:732,10.710,0.179,-0.225,-0.657,19.583,-108.438,-38.776
19:40:04:733,10.711,0.095,-0.114,-0.434,17.500,-111.262,-38.157
19:40:04:734,10.712,0.088,0.078,-0.400,15.554,-113.435,-37.077
19:40:04:735,10.713,0.034,0.161,-0.388,13.344,-115.957,-34.388
19:40:04:89,10.868,0.038,0.115,-0.327,12.315,-117.287,-30.493
19:40:04:89,10.868,0.046,-0.015,-0.241,12.124,-117.824,-27.480
19:40:04:891,10.869,0.024,-0.138,-0.132,12.026,-118.746,-22.661
19:40:04:892,10.870,-0.004,-0.218,-0.006,12.007,-119.785,-19.315
19:40:04:915,10.893,-0.008,-0.240,0.049,12.320,-121.918,-14.198
19:40:04:916,10.894,-0.030,-0.203,0.119,12.971,-124.712,-9.076
19:40:04:917,10.895,-0.084,-0.128,0.158,13.569,-127.020,-5.872
19:40:04:917,10.895,-0.222,0.031,0.302,14.833,-130.389,-1.426
19:40:04:933,10.911,-0.297,0.099,0.382,15.944,-131.923,1.416
19:40:05:042,11.020,-0.329,-0.002,0.399,17.766,-132.611,5.567
19:40:05:042,11.020,-0.254,-0.006,0.460,19.420,-131.756,9.539
19:40:05:07,11.047,-0.237,0.064,0.526,20.260,-130.848,12.004
19:40:05:071,11.048,-0.255,0.133,0.661,21.161,-129.667,15.176
19:40:05:071,11.049,-0.330,-0.031,0.668,21.580,-129.148,16.994
19:40:05:151,11.129,-0.343,0.067,0.777,21.772,-128.147,19.175
19:40:05:152,11.130,-0.329,-0.196,0.654,21.598,-127.471,20.172
19:40:05:153,11.131,-0.245,-0.336,0.647,21.250,-126.268,20.819
19:40:05:153,11.131,-0.085,-0.090,0.822,20.194,-124.208,19.981
19:40:05:227,11.205,0.069,-0.025,0.769,19.015,-122.326,18.742
19:40:05:228,11.206,0.182,0.088,0.588,16.551,-118.587,15.915
19:40:05:228,11.206,0.098,0.009,0.397,14.811,-116.044,13.288
19:40:05:336,11.314,0.090,-0.015,0.290,12.390,-112.516,8.189
19:40:05:336,11.314,0.056,-0.097,0.171,10.500,-109.659,1.913
19:40:05:337,11.315,0.009,-0.121,0.177,9.476,-108.354,-2.812
19:40:05:338,11.316,0.056,-0.016,0.074,8.201,-106.313,-10.412
19:40:05:444,11.422,0.175,0.071,-0.141,7.843,-104.346,-15.401
19:40:05:444,11.422,0.222,0.085,-0.212,7.883,-101.688,-22.961
19:40:05:445,11.423,0.222,0.192,-0.302,7.926,-100.209,-30.468
19:40:05:445,11.423,0.278,0.326,-0.491,8.301,-99.279,-35.041
19:40:05:517,11.495,0.256,0.223,-0.756,9.899,-97.920,-40.972
19:40:05:517,11.495,0.149,-0.039,-0.690,11.462,-97.246,-44.214
19:40:05:518,11.495,0.127,-0.087,-0.712,13.935,-96.651,-47.839
19:40:05:679,11.657,0.073,-0.069,-0.649,15.756,-96.480,-49.626
19:40:05:679,11.657,-0.006,-0.137,-0.538,16.175,-96.356,-49.725
19:40:05:679,11.657,-0.181,-0.177,-0.356,15.632,-95.750,-48.305
19:40:05:68,11.657,-0.190,0.007,-0.419,15.011,-95.133,-46.537
19:40:05:7,11.678,-0.137,0.021,-0.433,14.745,-93.669,-42.799
19:40:05:701,11.679,-0.116,0.023,-0.452,14.772,-91.289,-37.690
19:40:05:701,11.679,-0.128,-0.020,-0.423,14.509,-89.769,-33.680
19:40:05:721,11.699,-0.085,-0.074,-0.266,13.529,-88.866,-27.535
19:40:05:861,11.839,-0.083,-0.073,-0.117,12.680,-89.513,-23.625
19:40:05:862,11.839,-0.052,-0.055,-0.015,11.876,-91.595,-17.767
19:40:05:863,11.840,-0.025,0.009,0.079,11.785,-94.717,-12.083
19:40:05:863,11.841,-0.059,0.026,0.154,12.153,-97.360,-8.671
19:40:05:881,11.858,-0.097,0.010,0.340,13.435,-100.953,-4.043
19:40:05:881,11.859,-0.041,0.005,0.423,14.770,-102.486,-1.258
19:40:06:071,12.049,0.029,0.023,0.500,17.058,-103.010,2.793
19:40:06:072,12.050,0.102,0.048,0.527,18.522,-102.256,5.495
19:40:06:073,12.051,0.144,0.027,0.564,20.381,-100.613,9.061
19:40:06:073,12.051,0.185,-0.065,0.638,21.899,-99.378,11.603
19:40:06:123,12.101,0.204,-0.097,0.662,22.633,-98.685,12.716
19:40:06:124,12.102,0.267,-0.048,0.697,23.168,-97.650,13.584
19:40:06:125,12.103,0.253,-0.125,0.676,23.112,-96.796,13.670
19:40:06:125,12.103,0.354,-0.023,0.711,22.590,-95.160,13.165
19:40:06:2,12.178,0.499,0.062,0.632,21.469,-92.292,11.913
19:40:06:201,12.179,0.522,-0.003,0.475,20.481,-89.831,10.779
19:40:06:202,12.180,0.543,0.107,0.328,18.605,-85.607,8.168
19:40:06:221,12.199,0.449,0.077,0.118,17.219,-82.605,5.762
19:40:06:222,12.200,0.350,-0.016,0.036,15.186,-78.166,1.108
19:40:06:246,12.223,0.276,-0.034,0.019,13.282,-74.137,-4.575
19:40:06:301,12.279,0.256,-0.009,-0.031,12.239,-71.498,-8.743
19:40:06:301,12.279,0.236,-0.012,-0.125,11.289,-67.547,-15.239
19:40:06:491,12.469,0.189,0.105,-0.222,11.035,-65.008,-19.546
19:40:06:492,12.470,0.123,0.167,-0.352,11.338,-61.237,-25.815
19:40:06:492,12.470,0.032,0.069,-0.515,12.801,-57.783,-31.872
19:40:06:493,12.471,-0.025,-0.002,-0.553,14.228,-55.861,-35.769
19:40:06:622,12.600,-0.109,0.030,-0.716,16.963,-53.502,-41.244
19:40:06:623,12.600,-0.207,0.080,-0.894,19.047,-52.387,-44.515
19:40:06:624,12.601,-0.293,0.033,-0.931,21.529,-51.660,-48.693
19:40:06:625,12.602,-0.278,-0.089,-0.712,22.425,-51.965,-51.830
19:40:06:703,12.681,-0.258,-0.053,-0.509,22.040,-52.169,-53.088
19:40:06:703,12.681,-0.243,-0.146,-0.272,20.536,-52.225,-53.323
19:40:06:703,12.681,-0.250,-0.251,-0.049,19.592,-51.778,-52.468
19:40:06:703,12.681,-0.291,-0.202,-0.013,18.489,-50.301,-49.938
19:40:06:833,12.811,-0.313,-0.052,-0.048,17.745,-47.850,-45.740
19:40:06:834,12.812,-0.317,0.041,-0.073,17.579,-45.474,-41.881
19:40:06:834,12.812,-0.382,0.083,-0.159,17.433,-40.946,-34.613
19:40:06:835,12.813,-0.439,0.016,-0.138,16.828,-38.188,-29.374
19:40:06:887,12.865,-0.163,-0.033,0.034,13.258,-37.642,-15.425
19:40:06:887,12.865,-0.114,-0.080,0.069,12.561,-39.623,-11.692
19:40:06:887,12.865,-0.013,-0.121,0.156,12.342,-43.835,-6.978
19:40:07:043,13.021,0.139,-0.086,0.238,12.766,-47.047,-4.484
19:40:07:044,13.022,0.251,0.006,0.291,14.086,-51.068,-1.469
19:40:07:044,13.022,0.384,0.103,0.283,15.845,-52.993,1.140
19:40:07:045,13.023,0.425,0.119,0.262,17.016,-53.151,2.864
19:40:07:199,13.177,0.466,0.084,0.226,18.539,-52.578,5.351
19:40:07:2,13.178,0.515,0.048,0.242,19.333,-52.266,6.805
19:40:07:201,13.179,0.531,0.013,0.283,20.148,-52.246,8.539
19:40:07:202,13.180,0.635,0.074,0.374,20.482,-52.660,9.740
19:40:07:28,13.258,0.618,-0.024,0.419,20.424,-52.622,10.355
19:40:07:28,13.258,0.603,-0.185,0.343,20.031,-51.170,11.189
19:40:07:28,13.258,0.694,-0.032,0.203,19.458,-49.218,11.365
19:40:07:281,13.259,0.665,0.029,-0.006,18.028,-45.169,10.565
19:40:07:438,13.416,0.500,0.148,-0.176,16.097,-40.003,8.273
19:40:07:438,13.416,0.381,0.184,-0.215,14.765,-36.344,5.863
19:40:07:439,13.417,0.208,0.077,-0.155,13.121,-31.414,1.042
19:40:07:439,13.417,0.093,0.012,-0.135,12.267,-28.778,-2.879
19:40:07:62,13.598,0.037,-0.025,-0.137,11.395,-25.913,-9.702
19:40:07:62,13.598,-0.014,0.001,-0.169,10.928,-24.743,-14.705
19:40:07:621,13.599,-0.089,0.001,-0.237,10.348,-23.674,-22.685
19:40:07:622,13.600,-0.172,-0.010,-0.308,9.876,-23.052,-30.618
19:40:07:646,13.624,-0.243,0.015,-0.318,9.525,-22.584,-35.637
19:40:07:647,13.625,-0.434,0.021,-0.360,9.514,-21.365,-42.629
19:40:07:647,13.625,-0.559,0.011,-0.389,10.157,-20.362,-46.899
19:40:07:777,13.755,-0.701,0.006,-0.310,14.420,-17.377,-56.155
19:40:07:778,13.756,-0.627,-0.098,-0.223,16.690,-16.334,-57.691
19:40:07:778,13.756,-0.560,-0.159,-0.113,20.408,-14.506,-58.535
19:40:07:779,13.757,-0.458,-0.286,-0.025,22.551,-13.227,-58.007
19:40:07:988,13.966,-0.398,-0.289,0.057,23.976,-11.042,-55.608
19:40:07:988,13.966,-0.453,-0.151,0.133,22.873,-8.702,-51.766
19:40:07:989,13.967,-0.566,0.022,0.101,21.524,-7.221,-48.521
19:40:08:066,14.044,-0.536,0.065,0.156,17.901,-3.476,-37.670
19:40:08:067,14.045,-0.347,0.048,0.214,15.389,-2.618,-30.297
19:40:08:068,14.046,-0.031,0.029,0.240,13.635,-3.704,-23.311
19:40:08:068,14.046,0.060,0.036,0.243,13.218,-4.628,-18.917
19:40:08:137,14.115,0.162,0.098,0.223,13.548,-6.318,-12.827
19:40:08:25,14.228,0.218,0.086,0.185,14.432,-7.716,-9.496
19:40:08:251,14.229,0.336,-0.080,0.127,16.411,-9.548,-5.919
19:40:08:251,14.229,0.343,-0.058,0.051,18.535,-9.246,-3.473
19:40:08:252,14.230,0.266,-0.014,-0.086,19.919,-8.296,-2.475
19:40:08:329,14.307,0.323,0.047,-0.217,21.839,-7.262,-1.646
19:40:08:329,14.307,0.399,0.085,-0.335,22.995,-7.162,-1.513
19:40:08:33,14.308,0.434,0.014,-0.376,24.516,-8.317,-1.791
19:40:08:331,14.309,0.451,-0.137,-0.361,25.448,-9.595,-2.341
19:40:08:407,14.385,0.469,-0.105,-0.365,25.672,-11.077,-2.840
19:40:08:408,14.386,0.515,-0.004,-0.394,25.467,-11.516,-3.560
19:40:08:409,14.387,0.530,-0.032,-0.384,25.182,-10.973,-3.678
19:40:08:409,14.387,0.436,0.049,-0.574,24.656,-7.373,-3.359
19:40:08:435,14.413,0.279,0.083,-0.644,24.081,-4.041,-3.062
19:40:08:436,14.414,0.148,0.072,-0.653,23.000,1.520,-3.153
19:40:08:436,14.414,-0.004,0.113,-0.618,21.659,7.090,-4.389
19:40:08:436,14.414,-0.105,-0.039,-0.453,20.753,10.621,-5.879
19:40:08:452,14.430,-0.139,-0.103,-0.368,19.407,15.434,-9.183
19:40:08:566,14.544,-0.181,-0.129,-0.294,18.588,18.339,-12.017
19:40:08:566,14.544,-0.234,-0.109,-0.262,17.610,22.364,-16.954
19:40:08:567,14.545,-0.325,-0.061,-0.237,17.121,26.078,-22.376
19:40:08:568,14.546,-0.433,-0.016,-0.199,17.099,28.450,-26.079
19:40:08:591,14.569,-0.539,0.025,-0.121,17.631,31.794,-31.585
19:40:08:592,14.570,-0.728,0.101,-0.027,18.334,33.669,-35.169
19:40:08:593,14.571,-0.754,0.034,0.074,19.532,35.650,-40.340
19:40:08:593,14.571,-0.748,0.027,0.176,20.326,36.838,-45.044
19:40:08:617,14.595,-0.755,0.115,0.279,20.641,37.382,-47.615
19:40:08:618,14.596,-0.564,0.118,0.285,21.243,38.198,-50.259
19:40:08:619,14.597,-0.483,0.084,0.275,22.173,39.052,-51.064
19:40:08:619,14.597,-0.333,-0.075,0.268,24.203,40.996,-50.608
19:40:08:643,14.621,-0.115,-0.221,0.339,25.505,43.799,-48.146
19:40:08:643,14.621,-0.084,-0.259,0.395,25.764,45.860,-45.654
19:40:08:644,14.622,-0.197,-0.054,0.500,25.216,48.713,-40.715
19:40:08:645,14.623,-0.312,0.122,0.447,24.527,50.246,-36.921
19:40:08:749,14.727,-0.308,0.068,0.419,23.230,51.535,-31.365
19:40:08:749,14.727,-0.254,-0.069,0.295,21.549,50.515,-26.475
19:40:08:749,14.727,-0.171,-0.090,0.150,20.563,48.816,-23.576
19:40:08:75,14.728,-0.098,-0.108,0.046,19.782,45.733,-19.521
19:40:08:766,14.744,-0.045,-0.110,-0.028,19.720,43.354,-17.200
19:40:08:792,14.770,0.024,-0.056,-0.141,20.220,39.594,-14.316
19:40:08:82,14.798,0.078,-0.003,-0.229,21.347,36.507,-11.820
19:40:08:958,14.936,0.081,0.010,-0.249,22.399,35.257,-10.159
19:40:08:959,14.937,0.049,0.009,-0.326,24.225,34.602,-7.359
19:40:08:96,14.938,-0.005,0.060,-0.450,25.432,34.556,-5.418
19:40:09:113,15.090,-0.010,0.072,-0.618,28.221,33.787,0.058
19:40:09:114,15.091,0.058,-0.048,-0.588,28.714,33.001,1.480
19:40:09:114,15.092,0.145,-0.109,-0.583,28.992,31.729,3.126
19:40:09:143,15.121,0.208,-0.093,-0.621,28.842,31.134,4.079
19:40:09:144,15.122,0.288,-0.276,-0.569,28.327,31.381,5.516
19:40:09:144,15.122,0.266,-0.199,-0.712,27.797,32.512,6.449
19:40:09:145,15.123,0.091,-0.010,-0.825,26.328,36.305,7.485
19:40:09:218,15.196,-0.158,0.045,-0.695,23.993,42.030,7.533
19:40:09:219,15.197,-0.247,0.134,-0.580,22.112,46.298,6.611
19:40:09:22,15.198,-0.214,0.098,-0.382,19.364,52.566,3.876
19:40:09:327,15.305,-0.157,0.031,-0.281,17.817,56.560,1.225
19:40:09:327,15.305,-0.169,-0.017,-0.144,16.149,61.998,-3.945
19:40:09:328,15.306,-0.154,-0.024,-0.071,15.275,66.398,-10.355
19:40:09:328,15.306,-0.233,0.015,0.035,15.152,69.206,-14.885
19:40:09:379,15.357,-0.315,-0.019,0.189,15.802,72.719,-22.016
19:40:09:379,15.357,-0.342,-0.027,0.247,16.349,73.826,-27.086
19:40:09:379,15.357,-0.363,-0.007,0.283,17.041,74.421,-34.719
19:40:09:38,15.358,-0.440,-0.004,0.415,18.167,74.732,-41.708
19:40:09:453,15.431,-0.455,0.035,0.535,18.996,74.825,-45.757
19:40:09:453,15.431,-0.486,0.165,0.777,20.168,74.734,-50.647
19:40:09:532,15.510,-0.342,0.028,0.727,20.964,74.656,-52.955
19:40:09:533,15.511,-0.233,-0.054,0.668,22.320,74.833,-55.062
19:40:09:585,15.563,-0.058,-0.240,0.483,24.086,75.791,-53.379
19:40:09:586,15.564,0.082,-0.162,0.459,22.626,76.881,-49.444
19:40:09:586,15.564,0.089,0.172,0.595,21.027,77.531,-45.975
19:40:09:716,15.694,-0.033,0.251,0.688,19.917,78.885,-39.783
19:40:09:716,15.694,-0.102,0.061,0.708,19.758,80.953,-32.733
19:40:09:746,15.724,-0.078,-0.035,0.590,19.239,81.413,-28.112
19:40:09:747,15.725,-0.082,-0.110,0.292,17.973,79.053,-22.631
19:40:09:747,15.725,-0.104,-0.196,0.090,17.137,75.734,-19.894
19:40:09:748,15.726,-0.104,-0.232,0.006,16.305,68.694,-16.774
19:40:09:763,15.741,-0.091,-0.203,-0.180,16.166,60.063,-14.817
19:40:09:903,15.881,-0.074,-0.124,-0.268,16.594,54.376,-13.885
19:40:09:904,15.882,-0.089,0.003,-0.345,17.881,47.114,-12.727
19:40:09:905,15.883,-0.087,0.098,-0.420,19.066,43.379,-11.906
19:40:09:906,15.884,-0.047,0.068,-0.534,21.181,39.216,-10.148
19:40:09:924,15.902,-0.080,0.103,-0.618,23.411,36.656,-7.515
19:40:09:924,15.902,-0.118,0.154,-0.680,24.675,36.218,-5.381
19:40:09:948,15.926,0.005,0.128,-0.703,25.962,35.027,-2.054
19:40:09:974,15.952,0.135,0.127,-0.728,26.436,34.943,0.106
19:40:09:999,15.977,0.205,0.027,-0.698,26.605,35.910,3.196
19:40:10:082,16.059,0.273,-0.308,-0.571,26.380,37.585,5.210
19:40:10:082,16.060,0.190,-0.290,-0.620,25.468,41.557,7.655
19:40:10:107,16.085,-0.012,-0.039,-0.702,23.521,46.895,8.692
19:40:10:108,16.086,-0.119,0.016,-0.601,21.802,50.805,8.503
19:40:10:189,16.167,-0.194,0.127,-0.441,19.094,56.877,6.659
19:40:10:189,16.167,-0.170,0.070,-0.239,17.471,60.790,4.465
19:40:10:19,16.168,-0.129,-0.016,-0.106,15.701,65.755,-0.238
19:40:10:297,16.275,-0.068,-0.075,-0.021,14.579,69.059,-6.432
19:40:10:297,16.275,-0.076,-0.056,0.027,14.129,70.424,-11.211
19:40:10:298,16.276,-0.093,0.053,0.090,13.652,71.323,-19.108
19:40:10:299,16.277,-0.111,0.156,0.143,13.462,71.623,-24.394
19:40:10:374,16.352,-0.179,0.123,0.238,14.296,72.727,-31.797
19:40:10:374,16.352,-0.259,0.111,0.531,16.513,74.453,-38.905
19:40:10:374,16.352,-0.214,0.130,0.513,18.111,75.060,-43.281
19:40:10:534,16.512,-0.227,0.079,0.610,21.604,76.114,-48.432
19:40:10:535,16.513,-0.191,-0.066,0.677,24.792,77.124,-50.858
19:40:10:535,16.513,-0.152,-0.146,0.667,29.024,78.393,-52.809
19:40:10:54,16.518,-0.154,-0.240,0.595,31.519,79.024,-53.255
19:40:10:692,16.670,-0.144,-0.291,0.565,32.086,79.000,-52.889
19:40:10:692,16.670,-0.184,-0.202,0.582,30.968,78.149,-51.585
19:40:10:693,16.671,-0.199,-0.085,0.609,29.117,77.099,-50.183
19:40:10:693,16.671,-0.186,0.085,0.585,25.783,75.474,-47.012
19:40:10:718,16.696,-0.135,0.032,0.476,23.041,74.193,-42.618
19:40:10:718,16.696,-0.124,-0.093,0.333,21.504,73.235,-39.307
19:40:10:719,16.697,-0.096,-0.196,0.179,19.566,71.074,-34.253
19:40:10:719,16.697,-0.137,-0.259,0.105,18.631,69.274,-30.868
19:40:10:74,16.718,-0.167,-0.196,0.060,17.644,66.046,-25.713
19:40:10:74,16.718,-0.178,-0.111,-0.058,17.226,62.195,-20.572
19:40:10:761,16.739,-0.159,-0.042,-0.111,17.280,59.283,-17.433
19:40:10:874,16.852,-0.085,0.092,-0.288,17.887,54.658,-13.213
19:40:10:875,16.853,-0.042,0.106,-0.365,18.722,52.051,-10.509
19:40:10:876,16.854,-0.003,0.044,-0.408,20.411,49.676,-6.394
19:40:10:876,16.854,-0.024,0.159,-0.481,21.598,48.983,-3.555
19:40:10:892,16.870,-0.009,0.202,-0.574,23.191,48.655,0.578
19:40:10:919,16.897,0.062,0.166,-0.620,24.410,48.754,4.473
19:40:10:972,16.950,0.211,0.104,-0.615,24.989,48.896,6.806
19:40:11:025,17.003,0.284,0.260,-0.710,25.382,49.461,9.749
19:40:11:164,17.142,0.416,0.060,-0.638,25.322,50.342,11.348
19:40:11:164,17.142,0.418,-0.051,-0.600,24.870,52.947,13.419
19:40:11:165,17.143,0.166,0.054,-0.621,24.067,57.021,14.494
19:40:11:166,17.144,0.059,0.031,-0.595,23.564,60.047,14.391
19:40:11:184,17.162,-0.150,0.074,-0.631,22.982,64.563,13.183
19:40:11:313,17.291,-0.437,0.148,-0.445,22.711,67.701,11.798
19:40:11:347,17.325,-0.485,0.130,-0.269,22.516,71.803,8.424
19:40:11:348,17.326,-0.421,-0.018,-0.092,22.651,74.405,2.952
19:40:11:348,17.326,-0.352,-0.082,-0.017,22.835,75.571,-1.642
19:40:11:349,17.327,-0.341,-0.121,0.044,23.332,76.428,-9.502
19:40:11:374,17.352,-0.368,-0.113,-0.042,23.674,76.031,-15.346
19:40:11:374,17.352,-0.457,-0.050,-0.021,23.824,74.227,-24.771
19:40:11:375,17.353,-0.508,-0.042,0.135,23.247,72.235,-33.999
19:40:11:376,17.354,-0.507,-0.085,0.237,22.504,71.346,-39.623
19:40:11:479,17.457,-0.477,-0.081,0.407,21.452,71.088,-47.028
19:40:11:48,17.458,-0.481,-0.042,0.564,21.377,71.663,-51.243
19:40:11:481,17.459,-0.446,-0.081,0.635,23.222,73.359,-56.486
19:40:11:481,17.459,-0.374,-0.116,0.648,27.777,75.777,-60.276
19:40:11:525,17.503,-0.250,-0.183,0.591,31.928,77.714,-61.857
19:40:11:526,17.504,-0.149,-0.214,0.542,38.054,80.986,-62.595
19:40:11:662,17.640,-0.066,-0.254,0.481,40.998,83.350,-61.884
19:40:11:663,17.641,0.118,-0.281,0.312,42.533,87.360,-58.869
19:40:11:664,17.642,0.176,-0.191,0.287,41.022,91.585,-54.076
19:40:11:665,17.643,0.132,-0.105,0.358,39.071,94.172,-50.227
19:40:11:688,17.666,0.061,0.040,0.463,35.287,97.489,-43.812
19:40:11:689,17.667,0.033,0.128,0.454,32.414,99.139,-39.190
19:40:11:689,17.667,0.007,0.155,0.348,28.185,100.140,-32.184
19:40:11:69,17.668,-0.058,0.100,0.177,25.781,99.859,-27.783
19:40:11:76,17.738,-0.089,0.070,0.081,23.442,97.973,-21.974
19:40:11:849,17.827,-0.148,0.033,-0.026,22.613,95.903,-16.854
19:40:11:849,17.827,-0.222,0.001,-0.089,22.640,94.689,-13.765
19:40:11:849,17.827,-0.233,0.007,-0.165,23.115,92.962,-9.892
19:40:11:849,17.827,-0.267,0.055,-0.254,23.610,91.669,-7.963
19:40:11:866,17.844,-0.282,0.083,-0.355,24.597,90.039,-5.778
19:40:11:866,17.844,-0.309,0.010,-0.454,25.732,89.730,-3.639
19:40:11:89,17.868,-0.334,0.001,-0.475,26.435,90.451,-2.040
19:40:11:944,17.922,-0.370,-0.044,-0.473,27.226,92.763,0.765
19:40:11:945,17.923,-0.354,-0.086,-0.486,27.517,94.784,2.720
19:40:12:025,18.003,-0.378,-0.121,-0.493,27.617,98.518,5.431
19:40:12:026,18.004,-0.457,-0.081,-0.444,27.375,102.429,7.531
19:40:12:051,18.029,-0.527,-0.078,-0.410,27.125,104.880,8.387
19:40:12:051,18.029,-0.669,-0.058,-0.356,26.812,108.973,8.849
19:40:12:131,18.109,-0.815,0.021,-0.216,26.589,111.728,8.706
19:40:12:132,18.110,-0.830,0.052,-0.056,26.149,116.319,7.805
19:40:12:133,18.111,-0.728,0.066,0.139,25.569,120.424,5.662
19:40:12:319,18.297,-0.610,-0.004,0.185,25.064,122.806,3.461
19:40:12:32,18.298,-0.476,-0.119,0.194,24.113,126.244,-0.733
19:40:12:321,18.299,-0.423,-0.132,0.266,23.501,128.641,-4.000
19:40:12:322,18.300,-0.360,-0.152,0.358,22.778,131.798,-9.578
19:40:12:45,18.428,-0.313,-0.105,0.388,22.170,134.332,-15.710
19:40:12:451,18.429,-0.247,-0.060,0.462,22.000,135.989,-19.858
19:40:12:452,18.429,-0.128,0.006,0.553,22.041,138.249,-25.965
19:40:12:453,18.430,0.020,0.164,0.608,22.190,139.672,-29.852
19:40:12:477,18.455,0.173,0.222,0.697,22.918,142.066,-35.308
19:40:12:477,18.455,0.310,0.098,0.675,24.710,144.578,-40.203
19:40:12:477,18.455,0.360,0.151,0.649,26.275,146.271,-42.888
19:40:12:478,18.456,0.432,0.165,0.594,29.532,149.297,-45.311
19:40:12:496,18.474,0.444,-0.081,0.502,32.285,151.705,-45.782
19:40:12:497,18.475,0.442,-0.191,0.392,35.279,155.078,-44.834
19:40:12:549,18.527,0.336,-0.243,0.188,35.616,156.756,-43.297
19:40:12:55,18.528,0.307,-0.200,0.123,34.089,158.181,-40.251
19:40:12:632,18.610,0.281,-0.083,0.106,31.259,158.627,-36.655
19:40:12:632,18.610,0.227,0.024,0.102,29.061,158.656,-33.835
19:40:12:633,18.610,0.182,0.109,0.127,26.027,158.781,-28.772
19:40:12:651,18.629,0.141,0.074,0.107,24.397,158.915,-25.018
19:40:12:677,18.655,0.056,-0.054,0.093,22.497,158.764,-19.340
19:40:12:705,18.683,-0.031,-0.133,0.035,21.280,157.930,-13.915
19:40:12:817,18.794,-0.076,-0.174,0.028,20.849,157.132,-10.511
19:40:12:817,18.795,-0.116,-0.197,-0.008,20.661,155.700,-5.859
19:40:12:818,18.796,-0.185,-0.124,0.012,20.760,154.525,-3.197
19:40:12:819,18.796,-0.225,-0.061,0.004,21.080,152.233,-0.052
19:40:12:837,18.815,-0.429,-0.044,-0.108,21.856,149.324,2.100
19:40:12:862,18.840,-0.560,0.011,-0.131,22.511,148.700,3.269
19:40:12:916,18.894,-0.603,-0.012,-0.139,23.503,147.877,5.342
19:40:12:916,18.894,-0.594,-0.015,-0.111,24.078,149.073,7.017
19:40:13:026,19.004,-0.634,0.078,-0.089,24.590,150.071,9.640
19:40:13:027,19.005,-0.647,-0.005,-0.128,24.810,151.899,12.098
19:40:13:028,19.006,-0.685,-0.026,-0.140,24.861,152.330,13.538
19:40:13:029,19.007,-0.746,0.024,-0.110,24.682,154.056,15.381
19:40:13:103,19.081,-0.654,-0.238,-0.090,24.496,154.848,16.380
19:40:13:103,19.081,-0.701,-0.176,0.012,24.079,157.145,17.035
19:40:13:104,19.082,-0.810,0.083,0.245,23.118,159.560,16.234
19:40:13:255,19.233,-0.734,0.127,0.357,22.080,162.563,15.080
19:40:13:447,19.425,-0.416,0.152,0.428,20.143,167.730,12.484
19:40:13:448,19.426,-0.234,0.089,0.326,18.972,171.088,9.920
19:40:13:449,19.427,-0.147,0.017,0.215,17.660,175.091,4.876
19:40:13:449,19.427,-0.066,-0.053,0.178,16.937,177.737,-1.379
19:40:13:475,19.453,-0.071,-0.097,0.155,16.679,178.636,-6.151
19:40:13:475,19.453,-0.009,-0.129,0.199,16.401,179.017,-13.895
19:40:13:475,19.453,0.064,-0.114,0.247,16.240,178.923,-19.171
19:40:13:475,19.453,0.121,-0.028,0.318,15.980,178.720,-26.609
19:40:13:5,19.478,0.161,-0.008,0.249,16.023,178.929,-31.059
19:40:13:5,19.478,0.317,0.020,0.206,17.115,-179.930,-36.865
19:40:13:501,19.479,0.471,0.047,0.186,19.543,-178.372,-41.547
19:40:13:502,19.480,0.506,0.065,0.160,21.602,-177.295,-43.931
19:40:13:605,19.583,0.480,0.034,0.110,25.026,-175.551,-46.173
19:40:13:606,19.584,0.428,-0.081,0.069,27.316,-174.211,-46.622
19:40:13:606,19.584,0.423,-0.158,0.040,30.303,-171.870,-45.735
19:40:13:607,19.585,0.377,-0.265,0.037,31.808,-169.668,-43.129
19:40:13:627,19.605,0.309,-0.277,0.018,31.435,-168.588,-40.699
19:40:13:628,19.606,0.278,-0.097,0.069,28.977,-168.025,-36.506
19:40:13:629,19.607,0.294,0.173,0.180,26.772,-168.256,-33.310
19:40:13:648,19.626,0.279,0.327,0.209,23.434,-168.844,-27.579
19:40:13:674,19.652,0.153,0.337,0.191,20.946,-169.398,-20.795
19:40:13:79,19.768,0.080,0.156,0.219,20.071,-169.625,-16.218
19:40:13:79,19.768,0.052,-0.051,0.211,19.637,-169.976,-9.989
19:40:13:79,19.768,0.004,-0.229,0.147,19.558,-170.665,-6.528
19:40:13:791,19.769,-0.107,-0.278,0.104,19.525,-172.966,-2.728
19:40:13:806,19.784,-0.283,-0.267,0.023,19.673,-176.531,-0.695
19:40:13:97,19.948,-0.373,-0.226,0.002,19.894,-178.950,-0.060
19:40:13:971,19.949,-0.521,-0.054,0.012,20.478,178.662,0.676
19:40:13:972,19.950,-0.602,0.106,0.027,20.997,178.521,1.500
19:40:14:,19.978,-0.596,0.120,0.055,21.859,-179.136,3.870
19:40:14:,19.978,-0.534,0.084,0.132,22.692,-174.756,7.431
19:40:14:,19.978,-0.506,0.111,0.182,23.181,-171.848,9.921
19:40:14:001,19.979,-0.539,0.064,0.240,23.911,-168.759,13.033
19:40:14:26,20.238,-0.576,0.037,0.285,24.435,-167.505,14.451
19:40:14:263,20.241,-0.564,-0.036,0.352,25.215,-166.138,15.635
19:40:14:263,20.241,-0.544,-0.121,0.382,25.840,-164.661,15.827
19:40:14:263,20.241,-0.493,-0.019,0.619,26.134,-163.138,15.557
19:40:14:384,20.362,-0.297,-0.011,0.875,26.274,-159.843,14.781
19:40:14:42,20.398,-0.186,-0.125,0.870,26.079,-157.142,14.115
19:40:14:42,20.398,-0.074,-0.113,0.828,25.392,-152.848,12.580
19:40:14:42,20.398,0.072,-0.174,0.617,24.317,-148.889,9.847
19:40:14:421,20.399,0.104,-0.228,0.537,23.436,-146.650,7.288
19:40:14:445,20.423,0.142,-0.272,0.450,21.871,-143.694,2.626
19:40:14:445,20.423,0.189,-0.241,0.402,20.812,-141.908,-0.977
19:40:14:446,20.424,0.229,-0.134,0.380,19.233,-139.834,-6.977
19:40:14:447,20.425,0.305,-0.014,0.322,18.191,-138.752,-11.213
19:40:14:471,20.449,0.387,0.134,0.252,16.678,-137.068,-17.557
19:40:14:472,20.450,0.478,0.275,0.082,15.345,-134.977,-23.680
19:40:14:472,20.450,0.529,0.361,-0.070,14.697,-133.228,-27.607
19:40:14:473,20.451,0.572,0.430,-0.244,14.540,-130.013,-33.148
19:40:14:576,20.554,0.541,0.398,-0.385,15.291,-127.531,-36.503
19:40:14:577,20.555,0.489,0.313,-0.468,17.783,-123.476,-40.534
19:40:14:577,20.555,0.394,0.079,-0.534,21.700,-119.156,-42.978
19:40:14:578,20.556,0.233,-0.214,-0.520,24.253,-116.623,-43.740
19:40:14:598,20.576,0.009,-0.380,-0.485,25.633,-113.973,-43.746
19:40:14:599,20.577,-0.151,-0.331,-0.496,24.635,-113.169,-43.185
19:40:14:6,20.578,-0.138,-0.112,-0.467,21.192,-113.139,-41.197
19:40:14:62,20.598,-0.079,0.018,-0.378,17.241,-113.770,-37.608
19:40:14:647,20.625,-0.075,-0.039,-0.350,14.984,-114.263,-34.327
19:40:14:759,20.737,-0.037,-0.047,-0.239,12.163,-115.543,-28.299
19:40:14:76,20.738,-0.072,-0.002,-0.139,10.704,-117.025,-23.705
19:40:14:761,20.739,-0.107,0.014,-0.005,9.466,-119.936,-16.475
19:40:14:761,20.739,-0.142,-0.062,0.043,9.368,-123.032,-9.625
19:40:14:777,20.755,-0.149,-0.124,0.076,9.821,-125.182,-5.574
19:40:14:861,20.839,-0.193,-0.157,0.178,11.101,-128.404,-0.411
19:40:14:862,20.839,-0.248,-0.083,0.322,12.227,-130.229,2.493
19:40:14:863,20.840,-0.235,-0.046,0.377,14.070,-131.536,6.212
19:40:14:969,20.947,-0.190,0.061,0.476,15.627,-131.094,9.409
19:40:14:97,20.948,-0.169,0.132,0.551,16.396,-130.343,11.308
19:40:14:97,20.948,-0.178,0.225,0.655,17.194,-129.329,13.767
19:40:14:971,20.949,-0.197,0.288,0.688,17.484,-128.941,15.136
19:40:15:045,21.023,-0.295,0.135,0.681,17.648,-128.891,16.650
19:40:15:046,21.024,-0.470,-0.070,0.661,17.367,-128.991,17.792
19:40:15:046,21.024,-0.464,-0.237,0.602,16.909,-128.426,18.530
19:40:15:232,21.210,-0.250,-0.225,0.577,15.944,-126.381,19.138
19:40:15:233,21.211,-0.131,-0.047,0.627,15.081,-124.709,18.771
19:40:15:234,21.212,-0.057,0.009,0.560,13.400,-121.839,17.085
19:40:15:235,21.213,-0.003,0.041,0.340,12.084,-119.607,15.282
19:40:15:39,21.368,-0.080,-0.098,0.250,10.327,-116.889,11.557
19:40:15:39,21.368,-0.134,-0.221,0.224,9.005,-115.405,6.639
19:40:15:391,21.369,-0.095,-0.218,0.179,8.262,-114.550,2.802
19:40:15:392,21.370,-0.066,-0.151,0.187,7.347,-113.072,-3.460
19:40:15:416,21.394,0.026,-0.094,0.032,6.915,-111.823,-7.780
19:40:15:417,21.394,0.063,-0.072,-0.006,6.693,-109.529,-14.105
19:40:15:418,21.395,0.083,0.006,-0.065,6.800,-107.820,-20.205
19:40:15:419,21.396,0.104,0.123,-0.127,6.914,-107.079,-24.022
19:40:15:55,21.528,0.186,0.193,-0.279,7.422,-106.238,-29.268
19:40:15:55,21.528,0.240,0.245,-0.417,7.941,-105.973,-32.366
19:40:15:55,21.528,0.233,0.202,-0.537,8.496,-106.121,-36.319
19:40:15:55,21.528,0.146,0.051,-0.487,8.779,-106.477,-39.514
19:40:15:573,21.551,0.060,0.091,-0.449,8.829,-106.530,-40.958
19:40:15:573,21.551,0.005,0.111,-0.470,9.537,-106.022,-41.706
19:40:15:574,21.552,-0.074,-0.131,-0.348,10.445,-105.321,-41.110
19:40:15:575,21.553,-0.146,-0.101,-0.358,10.867,-104.241,-38.934
19:40:15:59,21.568,-0.220,0.084,-0.404,10.104,-103.481,-35.525
19:40:15:731,21.709,-0.220,0.140,-0.384,9.675,-102.872,-32.555
19:40:15:732,21.710,-0.125,0.078,-0.390,9.186,-101.957,-27.660
19:40:15:733,21.711,-0.049,-0.114,-0.293,8.661,-102.205,-24.342
19:40:15:734,21.712,-0.006,-0.181,-0.160,7.804,-104.257,-19.574
19:40:15:752,21.730,-0.016,-0.199,-0.012,7.509,-107.896,-14.963
19:40:15:752,21.730,-0.008,-0.195,0.040,7.731,-110.443,-11.993
19:40:15:832,21.810,-0.034,-0.194,0.103,8.398,-114.725,-8.131
19:40:15:834,21.812,-0.090,-0.120,0.213,9.008,-117.886,-6.070
19:40:15:834,21.812,-0.125,-0.047,0.268,10.209,-122.057,-3.566
19:40:15:914,21.892,-0.134,-0.031,0.318,11.629,-124.799,-1.500
19:40:15:914,21.892,-0.147,-0.014,0.364,12.560,-125.750,-0.085
19:40:15:914,21.892,-0.128,0.117,0.437,13.770,-126.083,2.242
19:40:15:935,21.913,-0.132,0.190,0.502,14.426,-126.000,3.920
19:40:15:958,21.936,-0.176,0.154,0.539,15.250,-126.100,6.576
19:40:16:013,21.991,-0.231,0.095,0.604,15.991,-126.643,9.265
19:40:16:014,21.992,-0.279,0.176,0.687,16.412,-127.067,10.974
19:40:16:096,22.074,-0.340,-0.160,0.652,16.979,-127.077,13.287
19:40:16:096,22.074,-0.321,-0.185,0.669,17.155,-126.274,14.481
19:40:16:119,22.096,-0.131,-0.029,0.721,16.643,-123.793,15.102
19:40:16:119,22.097,0.043,-0.011,0.534,15.221,-119.941,14.017
19:40:16:171,22.149,0.109,0.042,0.448,13.945,-116.902,12.435
19:40:16:171,22.149,0.122,0.040,0.288,12.048,-112.354,8.904
19:40:16:197,22.175,0.046,-0.068,0.205,11.022,-109.708,5.816
19:40:16:198,22.176,0.038,-0.094,0.163,9.879,-106.376,0.297
19:40:16:336,22.314,0.031,-0.149,0.089,9.211,-103.779,-6.067
19:40:16:336,22.314,0.001,-0.111,0.107,8.910,-102.508,-10.599
19:40:16:337,22.315,0.045,0.005,-0.028,8.922,-100.242,-17.249
19:40:16:338,22.316,0.118,-0.099,-0.206,9.467,-98.589,-21.387
19:40:16:355,22.333,0.152,-0.039,-0.225,9.840,-97.713,-27.731
19:40:16:38,22.358,0.215,0.137,-0.339,10.036,-97.547,-33.581
19:40:16:519,22.497,0.254,0.164,-0.492,10.534,-97.332,-37.068
19:40:16:519,22.497,0.221,0.150,-0.592,11.450,-97.325,-41.415
19:40:16:52,22.498,0.095,0.089,-0.525,12.039,-97.356,-43.572
19:40:16:521,22.499,0.056,0.032,-0.481,13.517,-96.877,-45.543
19:40:16:542,22.520,0.014,-0.069,-0.436,14.766,-96.215,-45.848
19:40:16:542,22.520,-0.092,-0.210,-0.251,15.815,-94.958,-44.689
19:40:16:543,22.521,-0.199,-0.215,-0.152,15.289,-93.563,-41.920
19:40:16:592,22.570,-0.194,-0.018,-0.190,14.583,-92.554,-39.336
19:40:16:592,22.570,-0.186,0.079,-0.203,13.723,-90.549,-34.415
19:40:16:757,22.735,-0.141,0.181,-0.231,13.305,-88.783,-30.472
19:40:16:757,22.735,-0.124,0.175,-0.248,12.805,-86.033,-23.970
19:40:16:758,22.736,-0.129,-0.053,-0.098,12.340,-84.308,-17.670
19:40:16:758,22.736,-0.137,-0.127,-0.020,12.171,-84.030,-13.975
19:40:16:778,22.756,-0.128,-0.173,0.021,12.254,-84.671,-9.274
19:40:16:778,22.756,-0.108,-0.165,0.097,12.475,-85.634,-6.772
19:40:16:779,22.757,-0.090,-0.111,0.177,13.081,-88.156,-4.051
19:40:16:884,22.862,-0.008,-0.032,0.382,14.711,-91.799,-1.527
19:40:16:909,22.887,0.040,-0.012,0.421,15.834,-92.758,-0.252
19:40:16:909,22.887,0.101,0.032,0.494,16.503,-92.751,0.703
19:40:16:91,22.888,0.196,0.094,0.547,17.342,-92.234,2.350
19:40:16:959,22.937,0.286,-0.004,0.602,18.012,-90.718,4.553
19:40:16:959,22.937,0.305,-0.066,0.639,18.322,-89.521,6.335
19:40:16:982,22.960,0.365,0.000,0.674,18.464,-87.239,9.030
19:40:17:308,23.286,0.361,-0.102,0.631,18.320,-85.521,10.450
19:40:17:308,23.286,0.498,-0.068,0.617,17.583,-81.743,11.416
19:40:17:308,23.286,0.660,0.138,0.356,16.078,-76.648,10.551
19:40:17:309,23.287,0.660,0.200,0.090,14.833,-72.604,9.172
19:40:17:36,23.338,0.544,0.224,-0.044,13.119,-66.733,6.093
19:40:17:36,23.338,0.346,0.073,-0.061,12.197,-63.452,3.247
19:40:17:361,23.339,0.229,-0.031,-0.041,10.990,-59.565,-2.025
19:40:17:362,23.340,0.184,-0.085,-0.029,9.986,-56.679,-8.270
19:40:17:385,23.363,0.153,-0.072,-0.069,9.397,-55.063,-12.831
19:40:17:385,23.363,0.112,-0.067,-0.143,8.700,-52.722,-19.868
19:40:17:386,23.364,0.055,0.001,-0.253,8.432,-51.052,-24.492
19:40:17:387,23.365,-0.021,0.046,-0.324,8.544,-48.333,-30.974
19:40:17:49,23.468,-0.159,0.134,-0.419,9.536,-45.524,-36.719
19:40:17:491,23.469,-0.266,0.237,-0.490,10.859,-43.628,-40.106
19:40:17:492,23.470,-0.399,0.208,-0.582,14.498,-40.644,-44.442
19:40:17:493,23.470,-0.486,0.115,-0.617,18.047,-38.723,-46.820
19:40:17:516,23.494,-0.578,0.035,-0.649,23.562,-36.346,-49.420
19:40:17:517,23.495,-0.576,-0.053,-0.581,26.755,-35.025,-50.452
19:40:17:517,23.495,-0.486,-0.260,-0.451,29.828,-34.191,-50.767
19:40:17:518,23.496,-0.358,-0.348,-0.230,29.547,-34.320,-49.761
19:40:17:562,23.540,-0.322,-0.258,-0.184,27.513,-34.776,-48.498
19:40:17:563,23.541,-0.307,-0.036,-0.186,23.556,-36.593,-45.725
19:40:17:702,23.680,-0.284,0.010,-0.190,21.215,-37.267,-43.241
19:40:17:703,23.681,-0.271,0.051,-0.195,18.424,-37.775,-38.465
19:40:17:704,23.682,-0.240,0.047,-0.142,16.325,-37.788,-32.788
19:40:17:705,23.683,-0.184,-0.037,-0.071,15.293,-37.795,-28.815
19:40:17:721,23.699,-0.076,-0.160,-0.030,14.302,-38.054,-22.825
19:40:17:721,23.699,-0.007,-0.197,0.003,13.895,-38.464,-18.838
19:40:17:772,23.750,0.005,-0.174,0.017,13.473,-39.657,-13.037
19:40:17:773,23.751,0.072,-0.089,0.088,13.368,-41.517,-7.711
19:40:17:885,23.863,0.138,-0.032,0.141,13.494,-42.814,-4.536
19:40:17:885,23.863,0.258,0.039,0.262,14.003,-44.951,-0.314
19:40:17:885,23.863,0.370,0.124,0.303,14.476,-45.459,2.248
19:40:17:886,23.864,0.403,0.128,0.310,15.192,-45.933,5.774
19:40:17:959,23.937,0.451,0.131,0.324,15.712,-45.493,8.743
19:40:17:959,23.937,0.473,0.104,0.360,15.892,-45.506,10.367
19:40:17:96,23.938,0.481,-0.001,0.425,15.881,-45.049,12.315
19:40:18:094,24.072,0.565,0.049,0.486,15.690,-45.071,13.277
19:40:18:095,24.073,0.511,-0.145,0.474,15.188,-43.946,14.232
19:40:18:096,24.074,0.658,0.007,0.363,14.629,-42.339,14.415
19:40:18:097,24.075,0.749,0.203,0.255,14.133,-40.553,13.816
19:40:18:305,24.283,0.661,0.234,-0.042,13.230,-36.821,11.799
19:40:18:305,24.283,0.526,0.248,-0.165,12.551,-33.717,9.715
19:40:18:306,24.284,0.275,0.206,-0.244,11.715,-29.130,5.326
19:40:18:306,24.284,0.063,0.022,-0.191,11.307,-25.543,-0.445
19:40:18:463,24.441,0.020,-0.073,-0.142,11.187,-23.975,-4.983
19:40:18:463,24.441,0.012,-0.092,-0.111,10.978,-22.893,-12.655
19:40:18:463,24.441,-0.104,-0.080,-0.184,10.778,-22.489,-18.109
19:40:18:464,24.442,-0.145,-0.172,-0.257,10.656,-21.673,-26.259
19:40:18:645,24.623,-0.128,-0.128,-0.287,10.334,-21.563,-31.612
19:40:18:645,24.623,-0.132,-0.014,-0.282,9.275,-21.479,-39.107
19:40:18:646,24.624,-0.416,0.081,-0.372,9.560,-20.129,-45.641
19:40:18:647,24.625,-0.595,0.082,-0.390,10.969,-18.895,-49.304
19:40:18:671,24.649,-0.727,-0.002,-0.386,14.454,-17.239,-53.614
19:40:18:671,24.649,-0.739,-0.084,-0.355,16.997,-16.371,-55.614
19:40:18:672,24.650,-0.716,-0.089,-0.324,19.507,-15.377,-57.428
19:40:18:673,24.651,-0.672,-0.092,-0.241,20.871,-14.402,-57.714
19:40:18:697,24.675,-0.520,-0.183,-0.082,21.017,-13.581,-56.735
19:40:18:698,24.676,-0.449,-0.141,0.108,19.606,-11.930,-53.743
19:40:18:699,24.677,-0.451,0.018,0.176,18.344,-10.555,-51.021
19:40:18:699,24.677,-0.513,0.075,0.178,17.511,-7.867,-46.033
19:40:18:881,24.859,-0.619,-0.032,0.151,17.563,-4.202,-39.955
19:40:18:882,24.860,-0.601,-0.088,0.163,17.251,-1.946,-35.574
19:40:18:883,24.861,-0.405,-0.095,0.150,15.827,-0.644,-29.341
19:40:18:884,24.862,-0.153,-0.067,0.165,14.533,-1.454,-25.636
19:40:19:118,25.096,-0.049,-0.070,0.188,12.682,-4.631,-20.660
19:40:19:118,25.096,0.133,-0.053,0.177,11.758,-9.172,-16.320
19:40:19:118,25.096,0.191,0.003,0.127,11.991,-11.963,-13.680
19:40:19:119,25.097,0.245,0.026,0.086,13.287,-14.593,-10.015
19:40:19:249,25.227,0.318,-0.045,0.098,14.460,-14.913,-7.820
19:40:19:249,25.227,0.348,-0.042,0.046,16.288,-14.108,-4.980
19:40:19:25,25.228,0.400,0.158,-0.097,17.994,-11.478,-2.492
19:40:19:251,25.229,0.455,0.181,-0.178,18.998,-9.531,-0.999
19:40:19:276,25.254,0.526,0.029,-0.176,20.290,-6.852,1.122
19:40:19:276,25.254,0.565,0.063,-0.260,20.939,-5.263,2.472
19:40:19:276,25.254,0.562,0.097,-0.352,21.626,-3.296,4.075
19:40:19:277,25.255,0.514,0.086,-0.423,21.880,-1.383,4.825
19:40:19:301,25.279,0.528,0.009,-0.434,21.842,-0.375,4.847
19:40:19:302,25.280,0.440,0.073,-0.608,21.580,2.730,4.371
19:40:19:302,25.280,0.305,0.053,-0.675,21.302,5.438,3.785
19:40:19:303,25.281,0.168,0.065,-0.700,20.772,9.797,2.362
19:40:19:327,25.305,0.071,0.039,-0.633,20.355,12.612,0.928
19:40:19:328,25.306,-0.035,-0.056,-0.532,19.611,16.885,-1.925
19:40:19:329,25.306,-0.104,-0.129,-0.430,18.740,21.169,-5.677
19:40:19:33,25.307,-0.157,-0.145,-0.388,18.190,24.022,-8.639
19:40:19:432,25.410,-0.249,-0.127,-0.315,17.623,28.178,-13.704
19:40:19:433,25.411,-0.306,-0.042,-0.259,17.462,30.720,-17.423
19:40:19:434,25.412,-0.415,-0.024,-0.196,17.645,34.204,-23.321
19:40:19:434,25.412,-0.537,0.088,-0.065,18.307,37.026,-29.279
19:40:19:459,25.437,-0.629,0.150,0.039,18.971,38.440,-33.243
19:40:19:459,25.437,-0.735,0.163,0.186,20.234,39.848,-39.168
19:40:19:46,25.438,-0.804,0.168,0.286,21.170,40.410,-43.059
19:40:19:461,25.439,-0.746,0.115,0.358,22.766,40.995,-48.406
19:40:19:481,25.459,-0.596,-0.015,0.340,25.267,41.773,-52.521
19:40:19:482,25.460,-0.538,-0.095,0.334,27.484,42.503,-54.225
19:40:19:482,25.460,-0.279,-0.264,0.288,29.897,43.708,-54.978
19:40:19:502,25.479,-0.075,-0.239,0.287,30.021,44.576,-54.342
19:40:19:528,25.506,0.021,-0.201,0.272,28.821,45.927,-51.998
19:40:19:609,25.587,-0.078,-0.117,0.282,27.418,47.616,-47.958
19:40:19:638,25.616,-0.218,-0.052,0.337,26.372,48.968,-44.484
19:40:19:639,25.617,-0.355,-0.017,0.366,24.473,50.886,-38.018
19:40:19:64,25.618,-0.409,0.040,0.321,22.974,51.420,-33.342
19:40:19:659,25.637,-0.322,0.055,0.195,20.858,50.178,-26.773
19:40:19:715,25.693,-0.149,-0.128,0.064,19.706,47.739,-21.395
19:40:19:715,25.693,-0.105,-0.189,0.040,19.410,45.819,-18.498
19:40:19:825,25.803,-0.099,-0.118,-0.057,19.367,42.625,-14.894
19:40:19:826,25.804,-0.041,-0.054,-0.147,19.555,40.353,-12.925
19:40:19:827,25.805,0.039,0.004,-0.267,20.285,37.577,-10.492
19:40:19:827,25.805,0.025,-0.011,-0.319,21.411,36.091,-8.034
19:40:19:901,25.879,-0.044,0.023,-0.341,22.185,35.549,-6.384
19:40:19:902,25.880,-0.087,0.124,-0.381,23.067,34.840,-4.083
19:40:19:903,25.881,-0.020,0.102,-0.437,23.491,34.328,-2.571
19:40:20:064,26.042,0.054,0.064,-0.461,23.935,33.800,-0.107
19:40:20:064,26.042,0.165,0.118,-0.506,24.002,33.736,1.754
19:40:20:065,26.043,0.301,0.064,-0.532,23.833,34.409,4.782
19:40:20:065,26.043,0.341,-0.114,-0.523,23.400,36.650,7.683
19:40:20:081,26.059,0.204,-0.154,-0.582,22.935,39.098,9.212
19:40:20:247,26.225,0.104,-0.082,-0.611,21.691,44.174,10.334
19:40:20:247,26.225,-0.100,0.046,-0.502,20.506,48.390,10.174
19:40:20:248,26.226,-0.187,0.109,-0.381,18.664,54.742,8.409
19:40:20:248,26.226,-0.139,0.041,-0.242,17.359,59.376,4.742
19:40:20:272,26.250,-0.115,-0.032,-0.164,16.857,61.311,1.238
19:40:20:273,26.251,-0.114,-0.082,-0.142,16.356,62.791,-5.101
19:40:20:274,26.252,-0.146,-0.071,-0.102,16.110,63.213,-9.851
19:40:20:275,26.253,-0.250,-0.061,-0.023,15.850,63.651,-17.364
19:40:20:293,26.271,-0.313,0.008,0.050,15.588,63.938,-24.843
19:40:20:293,26.271,-0.354,0.049,0.116,15.539,64.315,-29.617
19:40:20:399,26.377,-0.420,0.062,0.272,16.326,65.530,-36.226
19:40:20:4,26.378,-0.556,0.137,0.498,17.443,66.402,-40.182
19:40:20:426,26.404,-0.598,0.040,0.636,19.398,67.082,-45.319
19:40:20:427,26.405,-0.495,-0.032,0.631,20.404,66.874,-48.852
19:40:20:428,26.406,-0.422,0.134,0.667,20.398,66.548,-50.153
19:40:20:447,26.425,-0.295,-0.049,0.655,20.932,66.414,-50.918
19:40:20:475,26.453,-0.209,-0.270,0.634,21.252,66.617,-50.476
19:40:20:587,26.565,-0.088,-0.160,0.515,20.443,67.032,-48.106
19:40:20:588,26.566,-0.089,0.038,0.597,19.203,67.609,-44.426
19:40:20:589,26.567,-0.089,0.030,0.601,18.627,68.310,-41.485
19:40:20:59,26.568,-0.088,0.002,0.554,17.883,69.696,-36.327
19:40:20:606,26.584,-0.083,-0.121,0.421,17.431,70.473,-32.694
19:40:20:692,26.670,-0.084,-0.192,0.331,16.596,70.400,-27.411
19:40:20:692,26.670,-0.081,-0.209,0.142,15.572,68.201,-22.613
19:40:20:693,26.671,-0.084,-0.185,0.077,14.980,65.708,-19.740
19:40:20:694,26.672,-0.068,-0.191,-0.018,14.414,60.582,-16.147
19:40:20:798,26.776,-0.057,-0.136,-0.130,14.358,56.715,-14.193
19:40:20:798,26.776,-0.054,-0.039,-0.184,14.811,51.360,-11.703
19:40:20:798,26.776,-0.031,0.034,-0.282,15.748,47.067,-9.514
19:40:20:799,26.777,-0.026,0.096,-0.368,16.560,45.311,-8.050
19:40:20:814,26.792,-0.058,0.170,-0.484,17.800,43.247,-5.631
19:40:20:869,26.847,-0.059,0.212,-0.576,18.514,42.898,-3.818
19:40:20:87,26.848,-0.038,0.225,-0.687,19.393,42.138,-0.688
19:40:20:973,26.951,0.109,0.131,-0.668,19.760,42.495,1.653
19:40:21:007,26.985,0.148,0.166,-0.717,19.753,43.471,5.254
19:40:21:008,26.986,0.061,-0.051,-0.500,19.109,46.058,8.019
19:40:21:009,26.987,0.088,-0.211,-0.345,18.245,47.783,8.862
19:40:21:01,26.988,0.227,0.060,-0.405,16.711,49.835,7.884
19:40:21:026,27.004,0.212,0.145,-0.383,15.695,51.267,5.912
19:40:21:052,27.030,0.149,0.254,-0.324,14.118,53.272,1.465
19:40:21:217,27.195,0.057,0.275,-0.170,12.493,55.152,-4.152
19:40:21:218,27.196,0.046,0.185,-0.115,11.498,56.945,-8.150
19:40:21:219,27.197,-0.012,0.053,-0.073,10.786,61.370,-14.027
19:40:21:22,27.198,-0.117,-0.054,0.014,11.012,65.283,-18.310
19:40:21:269,27.247,-0.199,-0.127,0.095,12.484,71.015,-24.493
19:40:21:27,27.248,-0.189,-0.162,0.106,14.556,75.063,-30.444
19:40:21:27,27.248,-0.236,-0.219,0.128,16.323,77.100,-34.148
19:40:21:271,27.249,-0.277,-0.278,0.244,19.518,79.439,-39.104
19:40:21:287,27.265,-0.361,-0.233,0.345,21.669,80.311,-41.912
19:40:21:374,27.351,-0.423,-0.097,0.474,24.315,80.725,-45.015
19:40:21:374,27.351,-0.469,0.039,0.660,26.101,80.439,-46.552
19:40:21:374,27.351,-0.430,-0.034,0.656,26.887,79.895,-46.932
19:40:21:392,27.370,-0.372,-0.015,0.647,26.805,78.468,-46.815
19:40:21:556,27.534,-0.372,0.019,0.717,26.096,77.268,-46.258
19:40:21:557,27.534,-0.292,-0.078,0.632,24.421,75.413,-44.572
19:40:21:558,27.535,-0.176,-0.034,0.516,21.707,73.300,-42.285
19:40:21:586,27.564,-0.126,0.106,0.543,19.956,71.932,-40.458
19:40:21:586,27.564,-0.077,0.159,0.553,18.302,70.776,-36.956
19:40:21:587,27.565,-0.025,0.097,0.515,17.746,70.613,-34.177
19:40:21:588,27.566,-0.020,-0.060,0.385,17.380,70.700,-29.650
19:40:21:632,27.610,-0.037,-0.181,0.237,17.210,69.923,-25.128
19:40:21:632,27.610,-0.064,-0.233,0.138,17.057,68.512,-22.358
19:40:21:654,27.632,-0.069,-0.226,0.070,16.840,64.982,-18.727
19:40:21:68,27.658,-0.098,-0.192,-0.044,16.791,61.676,-16.795
19:40:21:736,27.713,-0.096,-0.147,-0.102,16.967,55.663,-14.711
19:40:21:737,27.714,-0.042,0.002,-0.228,17.284,51.493,-13.650
19:40:21:761,27.739,-0.002,0.056,-0.283,18.315,46.495,-12.039
19:40:21:844,27.822,-0.018,0.105,-0.375,19.998,43.858,-9.968
19:40:21:844,27.822,-0.010,0.109,-0.422,21.245,43.368,-8.132
19:40:21:845,27.823,-0.009,0.086,-0.465,23.000,43.968,-4.752
19:40:21:952,27.930,-0.005,0.087,-0.522,24.004,44.823,-2.260
19:40:21:952,27.930,0.019,0.031,-0.556,25.174,46.009,1.491
19:40:21:953,27.931,0.056,0.002,-0.626,25.993,46.906,4.816
19:40:21:954,27.932,0.048,0.058,-0.688,26.324,47.271,6.631
19:40:21:999,27.977,0.116,-0.093,-0.639,26.493,48.015,8.550
19:40:22:,27.978,0.080,-0.061,-0.668,26.340,48.672,9.105
19:40:22:022,28.000,-0.011,0.011,-0.651,25.448,50.401,8.485
19:40:22:189,28.167,-0.198,0.065,-0.543,23.836,53.350,6.496
19:40:22:189,28.167,-0.274,0.155,-0.515,22.529,56.056,4.618
19:40:22:19,28.168,-0.324,0.198,-0.402,20.583,60.582,0.790
19:40:22:212,28.190,-0.309,0.099,-0.116,18.095,67.190,-8.700
19:40:22:213,28.191,-0.291,-0.048,-0.005,17.361,70.523,-15.675
19:40:22:213,28.191,-0.316,-0.021,0.099,17.230,72.708,-20.586
19:40:22:347,28.325,-0.344,0.015,0.163,17.336,75.283,-28.311
19:40:22:347,28.325,-0.391,0.029,0.221,17.888,76.804,-33.098
19:40:22:348,28.326,-0.443,-0.009,0.416,19.771,79.235,-39.800
19:40:22:349,28.327,-0.481,-0.182,0.651,22.843,80.865,-45.950
19:40:22:366,28.344,-0.449,-0.343,0.678,24.591,81.299,-49.383
19:40:22:366,28.344,-0.360,-0.384,0.629,25.791,81.085,-53.260
19:40:22:392,28.370,-0.331,-0.167,0.695,25.894,80.771,-54.973
19:40:22:417,28.395,-0.239,-0.005,0.698,25.160,79.874,-56.332
19:40:22:531,28.509,-0.128,-0.081,0.607,25.459,79.776,-56.578
19:40:22:531,28.509,-0.131,-0.160,0.599,26.642,80.242,-56.054
19:40:22:531,28.509,-0.012,-0.124,0.532,28.207,82.006,-53.954
19:40:22:532,28.510,0.052,-0.033,0.502,29.002,84.131,-51.577
19:40:22:605,28.583,0.113,0.022,0.575,30.376,88.527,-46.563
19:40:22:606,28.584,0.106,0.063,0.608,30.451,93.453,-39.911
19:40:22:607,28.585,0.101,0.118,0.510,29.240,96.017,-34.961
19:40:22:625,28.603,0.030,0.076,0.336,26.747,98.064,-27.770
19:40:22:818,28.796,-0.036,-0.054,0.201,25.203,97.940,-23.570
19:40:22:819,28.797,-0.086,-0.038,0.061,23.302,95.499,-18.224
19:40:22:82,28.798,-0.109,-0.018,-0.085,22.580,92.873,-15.201
19:40:22:821,28.799,-0.129,0.002,-0.153,22.519,88.361,-11.584
19:40:22:925,28.903,-0.120,-0.010,-0.257,23.527,84.358,-8.778
19:40:22:925,28.903,-0.107,0.024,-0.271,24.608,82.707,-6.987
19:40:22:926,28.903,-0.144,0.067,-0.309,26.467,81.920,-4.216
19:40:22:927,28.904,-0.212,-0.052,-0.321,27.772,82.262,-2.422
19:40:22:951,28.929,-0.251,-0.111,-0.343,29.703,83.017,-0.108
19:40:22:951,28.929,-0.381,-0.094,-0.401,31.417,83.453,1.408
19:40:22:952,28.930,-0.492,-0.032,-0.428,32.397,82.953,1.767
19:40:22:953,28.931,-0.570,-0.015,-0.453,33.489,81.344,1.306
19:40:22:967,28.945,-0.547,-0.067,-0.480,33.904,79.732,0.540
19:40:22:994,28.972,-0.543,-0.056,-0.586,33.986,77.475,-0.839
19:40:23:022,29.000,-0.457,-0.047,-0.757,33.402,77.807,-1.122
19:40:23:136,29.114,-0.506,-0.065,-0.785,32.751,81.263,0.307
19:40:23:136,29.114,-0.765,-0.122,-0.527,31.485,91.701,4.691
19:40:23:136,29.114,-0.899,-0.076,-0.249,30.271,99.930,7.649
19:40:23:137,29.115,-0.883,-0.043,-0.069,28.208,110.111,9.698
19:40:23:153,29.131,-0.779,-0.029,0.067,26.482,116.604,8.344
19:40:23:154,29.132,-0.646,-0.063,0.182,25.491,120.117,6.218
19:40:23:207,29.185,-0.507,-0.113,0.271,24.275,125.286,1.954
19:40:23:207,29.185,-0.427,-0.108,0.300,23.728,128.698,-1.437
19:40:23:319,29.297,-0.347,-0.073,0.385,23.605,133.543,-7.262
19:40:23:319,29.297,-0.288,-0.009,0.439,24.178,137.037,-13.965
19:40:23:319,29.297,-0.238,0.084,0.501,24.741,138.611,-18.806
19:40:23:319,29.297,-0.098,0.092,0.606,25.972,140.434,-26.158
19:40:23:334,29.312,-0.002,0.066,0.653,26.897,141.158,-30.939
19:40:23:361,29.339,0.079,0.043,0.658,27.920,141.614,-37.724
19:40:23:388,29.366,0.248,0.101,0.768,28.840,142.395,-43.517
19:40:23:501,29.479,0.342,0.073,0.794,29.621,143.316,-46.536
19:40:23:502,29.479,0.378,-0.029,0.687,30.960,145.070,-49.728
19:40:23:502,29.480,0.370,-0.053,0.546,31.730,146.465,-50.886
19:40:23:503,29.481,0.350,-0.111,0.383,32.366,148.904,-50.915
19:40:23:518,29.496,0.313,-0.134,0.183,32.252,150.799,-49.801
19:40:23:576,29.554,0.308,-0.092,0.026,31.302,154.076,-46.777
19:40:23:576,29.554,0.322,-0.016,-0.002,30.186,159.102,-42.130
19:40:23:683,29.661,0.356,0.015,0.001,29.461,162.284,-38.198
19:40:23:683,29.661,0.456,0.014,0.036,27.880,167.095,-31.551
19:40:23:684,29.662,0.477,-0.038,0.031,26.347,169.500,-27.079
19:40:23:734,29.712,0.351,-0.047,0.037,23.639,170.522,-20.931
19:40:23:734,29.712,0.148,-0.033,0.044,21.494,168.615,-15.382
19:40:23:735,29.713,0.029,-0.039,0.050,20.643,166.759,-11.814
19:40:24:131,30.109,-0.100,-0.023,0.012,20.369,163.826,-6.919
19:40:24:132,30.110,-0.236,-0.004,-0.016,20.584,161.985,-3.956
19:40:24:133,30.111,-0.367,0.047,-0.079,21.378,159.654,-0.057
19:40:24:133,30.111,-0.740,0.099,-0.306,22.416,158.365,4.010
19:40:24:16,30.138,-0.829,0.028,-0.316,23.434,159.151,7.261
19:40:24:16,30.138,-0.803,0.078,-0.122,24.821,162.435,13.151
19:40:24:161,30.139,-0.811,0.005,-0.089,25.692,164.500,16.922
19:40:24:161,30.139,-0.861,-0.137,-0.135,26.919,166.912,21.319
19:40:24:183,30.161,-0.902,-0.254,-0.096,27.428,169.766,24.237
19:40:24:184,30.162,-0.958,-0.191,0.070,27.264,172.027,25.282
19:40:24:185,30.163,-0.912,-0.265,0.209,26.583,176.828,25.739
19:40:24:368,30.346,-0.942,-0.009,0.686,25.177,-176.199,23.264
19:40:24:368,30.346,-0.702,0.135,0.758,24.205,-172.615,19.233
19:40:24:369,30.347,-0.587,0.216,0.736,23.531,-170.012,15.616
19:40:24:37,30.348,-0.394,0.349,0.689,22.837,-166.217,8.229
19:40:24:473,30.451,-0.315,0.412,0.657,22.646,-163.869,1.921
19:40:24:473,30.451,-0.163,0.499,0.715,22.892,-159.731,-8.545
19:40:24:474,30.452,0.213,0.599,0.777,24.723,-153.543,-19.360
19:40:24:525,30.502,0.754,0.452,0.435,34.216,-141.993,-37.560
19:40:24:526,30.503,0.799,0.266,0.237,40.625,-138.230,-44.823
19:40:24:527,30.504,0.747,0.090,0.088,52.181,-134.407,-56.011
19:40:24:527,30.505,0.712,0.064,-0.008,60.564,-132.652,-63.383
19:40:24:57,30.548,0.621,-0.090,-0.111,73.257,-130.746,-73.761
19:40:24:656,30.634,0.459,-0.201,-0.195,84.173,-130.217,-83.531
19:40:24:657,30.635,0.436,-0.154,-0.199,89.797,-130.585,-89.749
19:40:24:658,30.636,0.365,-0.132,-0.236,95.963,-132.002,-98.677
19:40:24:658,30.636,0.144,-0.231,-0.229,98.934,-133.689,-104.714
19:40:24:682,30.660,0.041,-0.246,-0.203,101.718,-136.614,-113.251
19:40:24:683,30.661,-0.035,-0.199,-0.112,102.999,-138.693,-120.408
19:40:24:684,30.662,0.014,-0.165,-0.052,103.234,-139.412,-124.253
19:40:24:685,30.663,0.100,-0.154,-0.051,102.885,-140.621,-129.220
19:40:24:735,30.713,0.057,-0.169,-0.031,102.588,-142.226,-132.892
19:40:24:736,30.714,-0.055,-0.227,0.005,102.401,-144.319,-137.822
19:40:24:737,30.715,-0.074,-0.249,0.075,102.317,-143.865,-139.913
19:40:24:738,30.716,-0.037,-0.258,0.095,102.253,-143.305,-140.866
19:40:24:754,30.732,-0.077,-0.293,0.131,102.252,-143.981,-143.757
19:40:24:755,30.733,-0.143,-0.283,0.160,102.276,-144.765,-145.896
19:40:24:894,30.871,-0.106,-0.257,0.165,102.255,-144.975,-147.976
19:40:24:894,30.871,-0.023,-0.212,0.111,102.298,-145.571,-150.403
19:40:24:895,30.872,-0.051,-0.179,0.127,102.339,-147.471,-153.573
19:40:24:895,30.873,-0.118,-0.118,0.144,102.210,-152.261,-160.356
19:40:24:944,30.922,-0.194,-0.054,0.160,102.045,-155.920,-165.290
19:40:24:945,30.923,-0.175,-0.017,0.176,101.783,-159.922,-171.205
19:40:24:946,30.924,-0.136,0.015,0.183,101.545,-160.858,-174.234
19:40:24:946,30.924,-0.109,0.049,0.203,101.458,-161.007,-175.734
19:40:25:127,31.105,-0.010,0.082,0.240,101.466,-160.602,-177.629
19:40:25:127,31.105,0.001,0.107,0.233,101.567,-160.532,-179.261
19:40:25:128,31.106,-0.033,0.107,0.288,101.869,-160.913,177.472
19:40:25:155,31.133,0.085,0.099,0.405,102.305,-158.827,176.524
19:40:25:156,31.134,0.161,0.082,0.434,102.639,-155.720,177.732
19:40:25:156,31.134,0.294,0.068,0.420,103.219,-149.259,-178.905
19:40:25:157,31.135,0.234,0.014,0.315,103.665,-144.756,-176.272
19:40:25:234,31.212,0.150,-0.028,0.266,104.442,-138.176,-172.645
19:40:25:235,31.213,0.125,-0.066,0.203,105.212,-131.573,-169.273
19:40:25:236,31.214,0.106,-0.096,0.115,105.648,-127.558,-167.703
19:40:25:236,31.214,0.077,-0.152,0.048,106.261,-123.439,-167.140
19:40:25:25,31.228,0.067,-0.161,0.013,106.692,-121.078,-167.265
19:40:25:277,31.254,0.018,-0.154,-0.032,107.386,-117.718,-167.167
19:40:25:334,31.311,0.000,-0.047,0.010,107.802,-115.823,-167.297
19:40:25:334,31.312,0.007,0.008,0.027,108.185,-114.357,-168.651
19:40:25:443,31.421,0.004,0.057,0.100,108.397,-114.527,-171.764
19:40:25:444,31.422,-0.036,0.090,0.089,108.428,-115.165,-173.919
19:40:25:444,31.422,-0.051,0.111,0.054,108.307,-115.128,-176.102
19:40:25:445,31.423,-0.083,0.119,0.008,108.137,-115.448,-177.270
19:40:25:46,31.438,-0.117,0.128,-0.026,107.673,-116.510,-179.463
19:40:25:488,31.466,-0.176,0.136,0.027,107.059,-119.522,177.014
19:40:25:542,31.520,-0.118,0.119,0.049,106.753,-121.506,174.576
19:40:25:543,31.521,-0.011,0.084,-0.060,106.224,-122.435,173.431
19:40:25:619,31.597,-0.037,0.071,-0.168,105.790,-122.619,173.414
19:40:25:65,31.628,-0.039,0.075,-0.187,105.148,-123.757,172.770
19:40:25:65,31.628,-0.076,0.015,-0.029,104.671,-125.524,171.028
19:40:25:651,31.629,-0.103,-0.036,0.105,104.438,-126.788,169.709
19:40:25:67,31.648,-0.040,-0.143,0.117,104.329,-125.514,170.906
19:40:25:726,31.704,0.036,-0.195,0.035,104.392,-122.763,173.766
19:40:25:727,31.705,-0.008,-0.215,0.069,104.558,-120.045,176.601
19:40:25:831,31.809,-0.051,-0.207,0.152,104.851,-120.433,176.422
19:40:25:832,31.810,-0.062,-0.207,0.172,105.057,-120.856,176.063
19:40:25:86,31.838,-0.089,-0.152,0.152,105.273,-121.040,175.835
19:40:25:861,31.839,-0.084,-0.118,0.140,105.362,-121.326,175.559
19:40:25:862,31.840,-0.075,-0.069,0.131,105.359,-121.895,174.954
19:40:25:881,31.859,-0.114,0.016,0.145,105.276,-123.082,173.671
19:40:25:909,31.887,-0.123,0.041,0.183,105.310,-124.144,172.489
19:40:26:048,32.025,-0.066,0.096,0.224,105.394,-124.866,171.439
19:40:26:048,32.026,-0.040,0.184,0.178,105.276,-124.809,171.097
19:40:26:049,32.026,-0.042,0.228,0.138,104.790,-126.128,168.869
19:40:26:05,32.027,0.021,0.186,0.178,104.348,-128.770,165.153
19:40:26:096,32.074,0.165,0.113,0.156,104.189,-128.392,164.805
19:40:26:097,32.075,0.307,0.145,0.070,104.172,-123.554,168.751
19:40:26:098,32.076,0.262,0.130,0.101,104.348,-119.265,172.570
19:40:26:233,32.211,0.182,0.105,0.106,104.835,-113.121,177.985
19:40:26:233,32.211,0.027,0.050,0.097,105.351,-107.157,-177.202
19:40:26:233,32.211,-0.015,0.004,0.112,105.694,-104.067,-175.118
19:40:26:234,32.212,-0.039,-0.105,0.073,106.150,-99.302,-172.487
19:40:26:251,32.229,-0.045,-0.208,-0.035,106.403,-96.348,-171.013
19:40:26:252,32.230,-0.083,-0.259,-0.071,106.762,-93.464,-170.615
19:40:26:275,32.253,-0.131,-0.361,-0.027,107.137,-93.011,-171.670
19:40:26:301,32.279,-0.142,-0.395,0.023,107.805,-92.670,-173.302
19:40:26:406,32.384,-0.136,-0.367,0.028,108.283,-91.623,-173.967
19:40:26:467,32.445,-0.164,-0.321,0.030,108.472,-91.325,-174.427
19:40:26:468,32.446,-0.173,-0.142,0.056,108.734,-91.621,-175.005
19:40:26:469,32.447,-0.174,0.045,0.041,108.633,-90.845,-174.031
19:40:26:47,32.448,-0.204,0.278,0.096,107.651,-89.376,-171.531
19:40:26:488,32.466,-0.291,0.316,0.194,105.959,-89.653,-170.361
19:40:26:489,32.467,-0.219,0.209,0.184,104.822,-88.899,-168.498
19:40:26:51,32.488,-0.178,0.059,-0.184,103.254,-82.146,-159.577
19:40:26:678,32.656,-0.319,-0.170,-0.449,102.373,-76.395,-151.840
19:40:26:679,32.657,-0.536,-0.365,-0.170,101.312,-72.098,-143.528
19:40:26:679,32.657,-0.607,-0.603,0.016,100.589,-66.961,-133.502
19:40:26:702,32.680,-0.288,-0.656,-0.598,98.675,-54.365,-109.606
19:40:26:702,32.680,-0.154,-0.452,-0.623,97.215,-53.340,-103.199
19:40:26:703,32.681,-0.086,-0.286,-0.588,94.159,-55.151,-95.978
19:40:26:836,32.814,-0.057,-0.181,-0.423,89.816,-58.892,-89.780
19:40:26:836,32.814,-0.035,-0.186,-0.371,86.167,-62.076,-85.826
19:40:26:837,32.815,0.092,-0.071,-0.312,78.899,-67.527,-79.258
19:40:26:838,32.816,0.189,0.291,-0.044,72.557,-71.133,-74.083
19:40:26:884,32.862,0.160,0.407,0.184,62.332,-75.413,-65.357
19:40:26:884,32.862,0.129,0.316,0.274,53.924,-77.567,-55.287
19:40:27:047,33.025,0.252,0.326,0.198,43.168,-78.055,-35.436
19:40:27:047,33.025,0.447,0.639,0.355,39.125,-79.668,-28.264
19:40:27:047,33.025,0.621,0.909,0.656,34.256,-84.288,-19.903
19:40:27:047,33.025,0.435,0.555,0.943,30.975,-89.766,-13.878
19:40:27:068,33.046,0.264,0.320,1.077,29.236,-93.360,-11.320
19:40:27:068,33.046,0.195,0.178,1.160,26.697,-97.228,-9.689
19:40:27:069,33.047,0.134,0.099,0.983,24.897,-97.659,-9.172
19:40:27:091,33.069,0.110,0.013,0.762,22.240,-96.149,-9.006
19:40:27:255,33.233,0.054,-0.061,0.602,19.678,-94.757,-10.241
19:40:27:256,33.234,-0.004,-0.133,0.570,17.874,-94.277,-11.844
19:40:27:257,33.235,-0.082,-0.221,0.510,15.142,-93.095,-14.896
19:40:27:258,33.236,-0.091,-0.235,0.383,13.500,-91.220,-17.150
19:40:27:28,33.258,-0.059,-0.228,0.270,11.887,-86.458,-20.774
19:40:27:281,33.259,-0.049,-0.126,0.098,11.630,-80.127,-24.637
19:40:27:282,33.260,-0.097,-0.080,-0.042,12.265,-75.746,-27.228
19:40:27:283,33.261,-0.121,0.009,-0.226,14.300,-70.350,-31.030
19:40:27:413,33.390,-0.088,0.013,-0.300,16.034,-68.125,-33.334
19:40:27:413,33.391,-0.076,0.059,-0.331,17.881,-66.930,-36.423
19:40:27:414,33.392,-0.137,0.273,-0.480,18.441,-67.009,-38.187
19:40:27:415,33.392,-0.152,0.229,-0.567,19.178,-67.754,-39.958
19:40:27:432,33.410,-0.143,0.036,-0.486,19.488,-69.234,-40.651
19:40:27:433,33.411,-0.185,0.001,-0.482,19.013,-70.512,-40.678
19:40:27:57,33.548,-0.207,-0.120,-0.384,17.551,-72.402,-39.652
19:40:27:571,33.549,-0.215,-0.020,-0.206,16.018,-73.666,-38.180
19:40:27:572,33.550,-0.215,0.187,-0.233,13.167,-75.981,-35.150
19:40:27:573,33.551,-0.161,0.294,-0.284,11.430,-78.048,-31.454
19:40:27:591,33.569,-0.116,0.198,-0.294,11.119,-78.850,-28.810
19:40:27:591,33.569,-0.102,0.062,-0.281,10.850,-79.538,-24.424
19:40:27:671,33.649,-0.014,-0.029,-0.085,10.752,-80.173,-21.455
19:40:27:672,33.650,0.020,-0.096,0.027,10.976,-81.606,-17.333
19:40:27:696,33.674,0.013,-0.177,0.105,11.525,-83.373,-13.589
19:40:27:697,33.675,-0.001,-0.189,0.149,11.958,-84.843,-11.351
19:40:27:776,33.754,0.011,-0.175,0.204,12.795,-87.516,-8.436
19:40:27:777,33.755,-0.017,-0.132,0.250,13.415,-89.567,-6.797
19:40:27:777,33.755,-0.027,-0.084,0.379,14.428,-92.418,-4.732
19:40:27:857,33.835,0.030,-0.074,0.441,15.733,-93.957,-2.680
19:40:27:857,33.835,0.095,-0.057,0.464,16.695,-94.041,-1.119
19:40:27:858,33.836,0.189,0.036,0.478,18.045,-93.623,1.508
19:40:27:992,33.970,0.223,0.010,0.505,18.784,-93.141,3.369
19:40:27:992,33.970,0.204,-0.088,0.524,19.692,-92.751,6.176
19:40:27:993,33.971,0.239,-0.041,0.574,20.258,-92.648,8.719
19:40:27:993,33.971,0.222,0.119,0.666,20.288,-92.978,10.095
19:40:28:012,33.990,0.178,0.049,0.727,19.877,-92.848,11.569
19:40:28:013,33.991,0.250,-0.004,0.692,19.405,-91.871,12.044
19:40:28:033,34.011,0.419,0.105,0.624,18.307,-89.067,12.083
19:40:28:252,34.230,0.444,0.011,0.448,17.123,-85.937,11.368
19:40:28:253,34.231,0.455,0.057,0.338,15.193,-80.529,9.635
19:40:28:254,34.232,0.340,0.083,0.209,13.234,-74.782,6.549
19:40:28:255,34.233,0.209,-0.057,0.129,12.181,-71.192,3.847
19:40:28:379,34.357,0.173,-0.115,0.071,11.195,-66.302,-0.989
19:40:28:38,34.358,0.159,-0.126,0.040,10.845,-62.272,-6.519
19:40:28:411,34.388,0.172,-0.063,-0.014,10.929,-59.909,-10.346
19:40:28:411,34.388,0.152,0.003,-0.146,11.668,-56.967,-16.125
19:40:28:412,34.389,0.168,0.060,-0.259,12.459,-55.599,-19.873
19:40:28:413,34.390,0.096,0.110,-0.369,13.812,-54.352,-25.241
19:40:28:437,34.415,0.021,0.147,-0.545,14.846,-54.006,-28.761
19:40:28:438,34.416,-0.050,0.075,-0.621,16.421,-54.251,-34.025
19:40:28:439,34.417,-0.120,0.055,-0.669,17.535,-55.099,-39.012
19:40:28:44,34.418,-0.154,0.105,-0.730,18.018,-55.792,-41.984
19:40:28:457,34.435,-0.156,0.070,-0.669,18.198,-56.894,-45.565
19:40:28:457,34.435,-0.179,0.065,-0.527,17.836,-57.371,-47.178
19:40:28:567,34.545,-0.179,0.040,-0.459,16.729,-57.877,-48.022
19:40:28:568,34.546,-0.182,-0.123,-0.108,15.288,-57.234,-46.944
19:40:28:568,34.546,-0.179,-0.222,0.052,14.545,-56.185,-45.381
19:40:28:569,34.547,-0.259,-0.179,0.077,14.426,-53.604,-41.983
19:40:28:643,34.621,-0.285,-0.073,0.003,14.882,-51.083,-38.872
19:40:28:643,34.621,-0.353,0.036,-0.089,15.572,-46.345,-33.076
19:40:28:644,34.622,-0.410,-0.007,-0.110,15.243,-42.126,-26.864
19:40:28:779,34.757,-0.343,-0.068,-0.048,14.271,-41.053,-23.132
19:40:28:779,34.757,-0.143,-0.136,0.103,12.512,-42.270,-18.388
19:40:28:78,34.757,-0.104,-0.183,0.170,11.675,-44.027,-15.641
19:40:28:78,34.758,-0.103,-0.170,0.188,11.096,-47.157,-11.944
19:40:28:826,34.804,-0.037,-0.077,0.249,11.281,-50.398,-8.904
19:40:28:827,34.805,0.042,-0.026,0.289,11.782,-51.910,-7.107
19:40:28:828,34.806,0.120,0.037,0.312,12.924,-53.130,-4.494
19:40:28:963,34.941,0.232,0.088,0.264,13.794,-52.755,-2.706
19:40:28:963,34.941,0.340,0.152,0.185,15.073,-51.660,0.015
19:40:28:963,34.941,0.517,0.271,0.188,16.097,-50.808,2.859
19:40:28:964,34.942,0.558,0.148,0.233,16.695,-50.636,4.892
19:40:29:039,35.017,0.585,-0.025,0.302,17.378,-50.779,7.880
19:40:29:039,35.017,0.725,0.130,0.341,17.599,-51.095,9.622
19:40:29:04,35.018,0.698,-0.070,0.422,17.678,-50.940,11.781
19:40:29:041,35.019,0.744,-0.281,0.491,17.130,-48.794,13.336
19:40:29:145,35.123,0.862,-0.057,0.316,16.026,-45.465,13.793
19:40:29:145,35.123,0.745,0.112,-0.008,13.484,-38.123,12.966
19:40:29:146,35.124,0.558,0.223,-0.167,11.661,-32.669,11.401
19:40:29:162,35.140,0.135,0.152,-0.187,8.772,-20.545,4.037
19:40:29:188,35.166,0.015,0.004,-0.085,8.483,-15.604,-2.316
19:40:29:214,35.192,-0.018,-0.034,-0.064,8.905,-12.214,-9.421
19:40:29:356,35.334,-0.124,-0.079,-0.101,9.424,-10.751,-14.479
19:40:29:356,35.334,-0.104,-0.056,-0.108,9.881,-10.540,-22.707
19:40:29:357,35.335,-0.157,0.113,-0.195,9.919,-10.965,-27.983
19:40:29:358,35.336,-0.310,0.169,-0.243,10.002,-11.263,-35.438
19:40:29:377,35.355,-0.557,0.194,-0.310,10.652,-10.970,-41.922
19:40:29:379,35.357,-0.717,0.135,-0.342,11.637,-10.592,-45.782
19:40:29:427,35.405,-0.818,-0.010,-0.348,13.899,-9.986,-51.003
19:40:29:428,35.406,-0.766,-0.128,-0.288,15.720,-9.594,-53.924
19:40:29:618,35.595,-0.707,-0.155,-0.178,18.467,-8.931,-57.027
19:40:29:618,35.596,-0.581,-0.205,-0.110,20.661,-8.342,-58.137
19:40:29:619,35.597,-0.454,-0.274,-0.067,21.335,-7.977,-57.706
19:40:29:62,35.598,-0.315,-0.292,0.086,20.467,-7.435,-55.747
19:40:29:689,35.667,-0.404,-0.165,0.174,18.934,-7.085,-53.609
19:40:29:723,35.701,-0.411,-0.104,0.187,16.467,-6.329,-49.107
19:40:29:723,35.701,-0.460,-0.086,0.200,14.410,-4.860,-43.217
19:40:29:724,35.702,-0.438,-0.086,0.181,13.147,-3.803,-38.695
19:40:29:725,35.703,-0.301,-0.024,0.127,11.353,-3.168,-31.518
19:40:29:748,35.726,-0.168,-0.008,0.110,10.337,-3.469,-26.654
19:40:29:749,35.727,-0.118,-0.034,0.145,9.112,-4.964,-19.629
19:40:29:75,35.728,0.124,-0.105,0.345,8.295,-7.775,-13.499
19:40:29:751,35.729,0.374,-0.001,0.481,7.997,-9.439,-9.801
19:40:29:765,35.743,0.619,0.021,0.362,8.959,-7.377,-4.370
19:40:29:96,35.938,0.462,-0.067,0.170,9.997,-1.932,-0.851
19:40:29:96,35.938,0.261,-0.018,0.006,10.597,7.874,4.320
19:40:29:96,35.938,0.297,0.181,-0.050,10.612,14.918,8.413
19:40:29:961,35.939,0.394,0.154,-0.083,10.689,17.395,10.529
19:40:30:011,35.989,0.489,0.108,-0.131,11.308,17.776,12.614
19:40:30:012,35.990,0.644,0.075,-0.274,12.001,16.592,13.223
19:40:30:013,35.990,0.712,0.118,-0.328,12.958,14.470,13.271
19:40:30:013,35.991,0.662,0.047,-0.310,13.170,14.099,12.598
19:40:30:142,36.120,0.551,0.031,-0.322,13.006,14.974,11.757
19:40:30:143,36.121,0.434,0.167,-0.413,12.582,17.317,9.717
19:40:30:144,36.122,0.367,0.182,-0.425,12.350,19.405,7.916
19:40:30:144,36.122,0.180,0.224,-0.422,12.217,23.172,4.675
19:40:30:165,36.143,0.011,0.242,-0.355,12.547,26.853,0.712
19:40:30:165,36.143,-0.058,0.179,-0.301,13.013,28.820,-2.396
19:40:30:166,36.144,-0.124,0.021,-0.204,13.911,31.179,-7.687
19:40:30:189,36.166,-0.204,-0.090,-0.136,14.648,32.524,-11.580
19:40:30:327,36.305,-0.237,-0.125,-0.121,15.954,34.004,-17.811
19:40:30:327,36.305,-0.291,-0.122,-0.126,16.915,34.593,-22.090
19:40:30:328,36.306,-0.348,-0.104,-0.108,18.532,35.024,-28.479
19:40:30:328,36.306,-0.420,-0.083,-0.070,20.302,35.065,-34.518
19:40:30:348,36.326,-0.567,0.011,-0.012,21.603,35.023,-38.232
19:40:30:348,36.326,-0.721,0.076,0.069,23.884,34.888,-43.163
19:40:30:4,36.378,-0.805,0.030,0.155,25.498,34.636,-45.997
19:40:30:4,36.378,-0.728,-0.077,0.207,27.622,34.043,-49.618
19:40:30:537,36.515,-0.573,-0.133,0.243,29.265,33.617,-52.463
19:40:30:537,36.515,-0.518,-0.088,0.218,30.332,33.654,-53.663
19:40:30:538,36.516,-0.484,-0.155,0.207,32.083,34.475,-54.004
19:40:30:538,36.516,-0.294,-0.294,0.208,32.729,35.509,-53.214
19:40:30:585,36.563,-0.200,-0.215,0.227,32.009,37.331,-50.862
19:40:30:586,36.564,-0.247,-0.048,0.265,30.170,39.355,-47.205
19:40:30:587,36.565,-0.243,-0.042,0.234,29.016,41.034,-44.072
19:40:30:693,36.671,-0.255,-0.063,0.211,27.228,43.850,-38.547
19:40:30:693,36.671,-0.248,-0.137,0.206,25.980,45.529,-34.644
19:40:30:694,36.672,-0.216,-0.157,0.188,24.059,47.052,-29.066
19:40:30:741,36.718,-0.111,-0.143,0.112,21.155,46.576,-20.929
19:40:30:741,36.718,-0.014,-0.043,0.078,19.970,45.381,-16.636
19:40:30:763,36.741,0.048,0.035,0.035,19.503,44.545,-14.074
19:40:30:872,36.850,0.120,0.123,-0.069,19.326,43.563,-10.627
19:40:30:903,36.881,0.142,0.143,-0.139,19.679,43.326,-7.442
19:40:30:904,36.882,0.069,0.201,-0.157,20.079,43.559,-5.347
19:40:30:904,36.882,0.058,0.125,-0.186,20.761,43.708,-2.516
19:40:30:905,36.883,0.065,0.145,-0.311,21.209,43.254,-0.951
19:40:30:95,36.928,0.087,0.154,-0.378,21.699,42.138,1.028
19:40:30:95,36.928,0.233,0.127,-0.508,21.848,40.201,2.807
19:40:30:973,36.951,0.318,0.120,-0.584,21.847,39.090,4.110
19:40:31:089,37.067,0.447,-0.031,-0.622,21.763,38.793,6.557
19:40:31:089,37.067,0.369,-0.057,-0.714,21.686,40.070,8.471
19:40:31:089,37.067,0.260,-0.022,-0.765,21.279,43.950,11.080
19:40:31:089,37.067,0.044,-0.050,-0.706,20.259,49.597,12.249
19:40:31:104,37.082,-0.144,0.010,-0.551,19.252,53.895,11.863
19:40:31:131,37.108,-0.247,-0.032,-0.271,17.750,60.246,9.553
19:40:31:157,37.135,-0.225,-0.091,-0.184,17.030,63.862,7.018
19:40:31:183,37.161,-0.185,-0.153,-0.105,16.519,68.188,2.023
19:40:31:267,37.245,-0.182,-0.154,-0.047,16.566,70.403,-1.964
19:40:31:268,37.246,-0.188,-0.131,-0.029,17.071,72.529,-8.730
19:40:31:269,37.247,-0.212,0.006,-0.032,17.705,73.075,-16.298
19:40:31:288,37.266,-0.294,0.134,-0.011,18.074,72.814,-21.584
19:40:31:315,37.293,-0.391,0.132,0.126,18.588,71.983,-29.463
19:40:31:37,37.348,-0.388,0.029,0.231,18.811,71.364,-34.331
19:40:31:37,37.348,-0.368,0.169,0.402,19.010,70.733,-40.161
19:40:31:454,37.431,-0.446,0.088,0.766,20.696,71.066,-43.689
19:40:31:454,37.431,-0.375,-0.100,0.830,22.368,71.580,-44.829
19:40:31:454,37.432,-0.239,-0.089,0.718,23.489,71.995,-45.527
19:40:31:473,37.451,-0.258,-0.094,0.805,23.560,72.248,-45.459
19:40:31:499,37.477,-0.212,-0.173,0.800,23.704,73.206,-44.501
19:40:31:556,37.534,-0.138,0.007,0.769,22.742,74.217,-42.516
19:40:31:557,37.535,-0.139,0.133,0.797,21.717,74.775,-40.559
19:40:31:558,37.536,-0.055,0.020,0.731,20.345,75.723,-36.913
19:40:31:662,37.640,-0.013,-0.047,0.618,19.336,76.277,-34.120
19:40:31:662,37.640,-0.030,-0.022,0.462,17.640,76.436,-29.649
19:40:31:663,37.641,-0.023,-0.086,0.299,16.159,75.242,-25.310
19:40:31:712,37.690,-0.039,-0.201,0.174,15.438,73.553,-22.635
19:40:31:74,37.718,-0.041,-0.237,0.067,14.852,70.253,-18.726
19:40:31:741,37.719,-0.068,-0.198,0.023,14.788,67.996,-16.221
19:40:31:742,37.720,-0.071,-0.146,-0.009,15.018,64.637,-12.870
19:40:31:871,37.848,-0.047,-0.024,-0.106,15.471,60.617,-9.914
19:40:31:871,37.849,-0.017,0.042,-0.182,15.923,58.617,-8.028
19:40:31:901,37.879,0.008,0.029,-0.309,16.911,56.353,-5.131
19:40:31:901,37.879,-0.009,0.044,-0.380,17.711,55.346,-3.170
19:40:31:902,37.880,-0.023,0.115,-0.473,18.824,54.105,-0.208
19:40:31:903,37.881,0.019,0.197,-0.548,19.682,52.061,2.676
19:40:31:918,37.896,0.083,0.107,-0.563,20.128,51.193,4.532
19:40:31:946,37.924,0.182,0.171,-0.640,20.570,49.265,7.160
19:40:32:086,38.064,0.279,0.073,-0.650,20.643,48.871,8.785
19:40:32:087,38.065,0.309,-0.171,-0.578,20.531,48.607,10.921
19:40:32:087,38.065,0.163,-0.016,-0.648,20.291,49.434,11.871
19:40:32:088,38.066,0.064,0.072,-0.637,19.345,51.083,11.967
19:40:32:134,38.112,-0.029,0.077,-0.514,17.705,54.758,10.617
19:40:32:135,38.113,-0.057,0.131,-0.420,16.419,58.011,8.926
19:40:32:136,38.114,-0.079,0.149,-0.277,14.671,63.123,5.032
19:40:32:242,38.220,-0.046,0.051,-0.123,13.810,66.172,1.530
19:40:32:243,38.220,-0.037,-0.026,-0.064,13.019,69.761,-4.897
19:40:32:244,38.221,-0.075,-0.006,-0.011,12.683,72.350,-12.449
19:40:32:245,38.222,-0.120,-0.001,0.045,12.641,73.765,-17.770
19:40:32:259,38.237,-0.194,-0.002,0.102,13.115,75.742,-25.614
19:40:32:286,38.264,-0.241,-0.039,0.168,13.870,76.959,-30.525
19:40:32:426,38.404,-0.262,-0.055,0.267,15.691,78.590,-37.119
19:40:32:427,38.404,-0.336,-0.031,0.436,18.277,79.657,-42.802
19:40:32:428,38.406,-0.363,-0.019,0.539,20.201,80.082,-46.024
19:40:32:428,38.406,-0.400,0.042,0.776,23.201,80.327,-49.967
19:40:32:446,38.424,-0.384,-0.015,0.885,25.139,80.164,-52.040
19:40:32:447,38.425,-0.275,-0.112,0.857,27.388,79.620,-54.269
19:40:32:47,38.448,-0.256,-0.141,0.881,28.515,78.924,-55.167
19:40:32:525,38.503,-0.162,-0.252,0.761,28.000,78.429,-54.817
19:40:32:525,38.503,0.072,-0.227,0.578,24.563,77.740,-52.851
19:40:32:664,38.642,0.174,-0.058,0.528,21.520,77.354,-50.642
19:40:32:664,38.642,0.191,0.221,0.493,18.906,77.308,-45.938
19:40:32:665,38.643,0.056,0.121,0.495,19.115,79.080,-40.008
19:40:32:665,38.643,-0.033,-0.013,0.525,19.351,80.465,-35.811
19:40:32:712,38.690,-0.104,-0.163,0.489,18.188,80.170,-29.843
19:40:32:712,38.690,-0.110,-0.115,0.224,16.865,78.136,-26.187
19:40:32:713,38.691,-0.119,-0.115,0.122,15.554,74.246,-20.708
19:40:32:82,38.798,-0.169,-0.131,-0.026,15.213,69.845,-15.484
19:40:32:821,38.798,-0.155,-0.094,-0.140,15.253,66.299,-12.533
19:40:32:821,38.799,-0.110,-0.045,-0.252,15.729,60.467,-8.978
19:40:32:822,38.800,-0.063,0.006,-0.313,16.299,56.702,-7.121
19:40:32:866,38.844,0.029,0.094,-0.408,17.463,52.145,-4.779
19:40:32:867,38.845,0.095,0.060,-0.473,18.825,49.500,-2.331
19:40:32:891,38.869,0.102,0.030,-0.511,19.746,48.629,-0.488
19:40:32:916,38.894,0.130,0.026,-0.594,20.939,48.064,2.583
19:40:33:029,39.007,0.184,0.080,-0.679,21.569,47.876,4.803
19:40:33:03,39.008,0.232,0.041,-0.691,22.265,48.053,8.309
19:40:33:031,39.009,0.290,-0.042,-0.682,22.539,48.488,10.590
19:40:33:032,39.010,0.303,0.055,-0.733,22.411,49.706,13.446
19:40:33:105,39.083,0.320,-0.107,-0.638,21.552,51.706,15.257
19:40:33:106,39.084,0.267,-0.105,-0.588,20.512,53.647,15.667
19:40:33:106,39.084,0.113,0.055,-0.542,18.467,56.954,14.725
19:40:33:217,39.194,-0.027,0.099,-0.544,17.034,59.582,13.147
19:40:33:217,39.194,-0.120,0.151,-0.485,15.058,64.315,9.741
19:40:33:217,39.194,-0.222,0.260,-0.324,13.662,69.370,5.484
19:40:33:217,39.195,-0.222,0.285,-0.226,13.219,72.222,2.184
19:40:33:26,39.238,-0.169,0.199,-0.110,13.147,75.370,-3.557
19:40:33:26,39.238,-0.133,0.099,-0.023,13.402,76.873,-7.954
19:40:33:398,39.376,-0.141,0.013,0.058,14.148,78.439,-15.312
19:40:33:399,39.376,-0.231,0.019,0.155,15.289,79.746,-23.096
19:40:33:4,39.377,-0.323,0.002,0.283,16.285,80.401,-28.232
19:40:33:401,39.378,-0.351,-0.058,0.320,17.992,80.936,-35.612
19:40:33:418,39.396,-0.395,-0.047,0.384,19.197,81.168,-40.135
19:40:33:418,39.396,-0.400,-0.102,0.494,21.624,81.658,-46.121
19:40:33:61,39.588,-0.396,-0.199,0.569,24.313,81.850,-51.331
19:40:33:61,39.588,-0.386,-0.236,0.593,26.051,81.651,-54.353
19:40:33:61,39.588,-0.377,-0.214,0.724,28.061,81.675,-57.841
19:40:33:61,39.588,-0.350,-0.211,0.743,28.896,81.462,-59.475
19:40:33:635,39.613,-0.282,-0.265,0.679,29.410,81.690,-60.942
19:40:33:636,39.614,-0.184,-0.202,0.627,28.802,81.782,-61.155
19:40:33:636,39.614,-0.125,-0.180,0.533,27.768,82.227,-60.393
19:40:33:636,39.614,0.005,-0.128,0.358,25.810,83.323,-57.719
19:40:33:651,39.629,0.027,0.022,0.351,24.776,84.519,-55.012
19:40:33:677,39.655,0.038,0.000,0.325,24.119,86.995,-49.587
19:40:34:002,39.980,0.133,-0.012,0.292,23.172,90.438,-42.555
19:40:34:002,39.980,0.198,0.028,0.245,22.178,93.011,-36.958
19:40:34:002,39.980,0.189,0.072,0.208,21.177,97.022,-27.846
19:40:34:027,40.005,0.108,0.156,0.129,19.723,99.805,-13.843
19:40:34:028,40.006,0.041,0.196,-0.066,19.160,97.532,-7.268
19:40:34:029,40.007,0.042,0.173,-0.259,19.376,94.817,-3.873
19:40:34:03,40.007,0.057,0.105,-0.541,20.612,90.798,0.060
19:40:34:054,40.032,0.003,0.076,-0.646,21.864,89.768,2.559
19:40:34:055,40.033,-0.176,0.016,-0.643,23.877,91.104,6.442
19:40:34:056,40.034,-0.309,-0.017,-0.609,25.591,94.405,10.010
19:40:34:081,40.059,-0.483,-0.041,-0.604,27.486,100.855,14.488
19:40:34:081,40.059,-0.549,-0.095,-0.655,28.024,102.965,15.688
19:40:34:082,40.060,-0.598,-0.124,-0.645,28.623,106.020,16.685
19:40:34:082,40.060,-0.613,-0.127,-0.596,28.787,108.266,16.578
19:40:34:185,40.163,-0.562,-0.233,-0.536,28.705,109.913,15.975
19:40:34:185,40.163,-0.770,-0.135,-0.422,28.407,112.736,14.323
19:40:34:186,40.164,-1.006,0.002,-0.290,28.079,115.117,12.761
19:40:34:187,40.165,-0.975,-0.065,-0.093,27.453,119.205,9.912
19:40:34:231,40.209,-0.880,-0.119,0.031,26.744,123.894,6.295
19:40:34:232,40.209,-0.802,-0.104,0.103,26.149,127.107,3.080
19:40:34:368,40.346,-0.893,-0.011,0.198,25.298,132.168,-2.938
19:40:34:369,40.347,-1.075,0.203,0.369,24.911,135.974,-7.639
19:40:34:37,40.348,-0.989,0.369,0.622,24.999,142.614,-15.451
19:40:34:371,40.349,-0.868,0.526,0.816,26.030,147.742,-20.918
19:40:34:388,40.366,-0.575,0.583,1.024,29.572,155.609,-29.609
19:40:34:389,40.367,-0.257,0.741,1.144,35.671,162.868,-39.133
19:40:34:472,40.449,0.195,0.660,1.150,41.647,167.538,-45.683
19:40:34:472,40.449,0.460,0.418,0.961,53.150,173.264,-55.693
19:40:34:472,40.450,0.577,0.297,0.807,61.455,175.921,-62.561
19:40:34:579,40.557,0.683,0.218,0.557,73.118,179.213,-72.086
19:40:34:58,40.558,0.641,0.031,0.254,82.810,-178.511,-80.932
19:40:34:581,40.559,0.590,-0.084,0.114,87.798,-177.937,-86.786
19:40:34:582,40.560,0.475,-0.218,-0.011,93.377,-178.656,-96.214
19:40:34:655,40.632,0.429,-0.277,-0.050,96.001,-179.702,-102.770
19:40:34:655,40.632,0.403,-0.304,-0.067,98.410,178.312,-112.043
19:40:34:656,40.633,0.391,-0.264,0.044,99.729,174.826,-121.078
19:40:34:815,40.793,0.270,-0.347,-0.024,100.525,171.206,-127.836
19:40:34:815,40.793,0.157,-0.391,-0.106,101.507,166.867,-136.284
19:40:34:816,40.794,0.132,-0.361,-0.053,101.944,166.322,-139.169
19:40:34:817,40.795,0.145,-0.342,-0.041,102.380,165.574,-142.677
19:40:34:836,40.814,0.007,-0.379,-0.096,102.859,161.488,-149.097
19:40:34:837,40.815,-0.044,-0.366,-0.113,103.121,157.816,-154.177
19:40:34:861,40.839,-0.012,-0.307,-0.084,103.363,152.381,-161.443
19:40:34:862,40.840,-0.014,-0.267,-0.057,103.457,148.835,-166.974
19:40:34:972,40.950,-0.075,-0.185,-0.047,103.308,139.633,-177.939
19:40:34:972,40.950,-0.148,-0.112,-0.021,102.667,128.127,168.064
19:40:34:973,40.951,-0.122,-0.063,0.053,102.117,118.795,157.671
19:40:34:974,40.952,-0.121,0.045,0.009,101.136,105.235,141.795
19:40:34:989,40.967,-0.292,0.178,-0.092,100.562,98.148,133.529
19:40:35:016,40.994,-0.295,0.158,-0.025,100.258,94.888,127.833
19:40:35:211,41.189,-0.193,0.078,0.056,100.327,96.981,127.929
19:40:35:211,41.189,-0.123,0.059,0.123,100.563,100.871,129.788
19:40:35:211,41.189,-0.084,0.029,0.247,100.936,105.807,132.286
19:40:35:211,41.189,-0.194,0.007,0.285,101.214,108.815,132.909
19:40:35:263,41.241,-0.182,0.001,0.387,101.774,113.292,134.656
19:40:35:263,41.241,-0.085,-0.063,0.527,102.237,118.601,137.599
19:40:35:263,41.241,-0.025,-0.070,0.492,102.974,127.919,144.140
19:40:35:263,41.241,-0.016,-0.121,0.355,103.641,138.511,151.461
19:40:35:393,41.371,0.007,-0.143,0.252,103.966,145.120,156.062
19:40:35:394,41.372,0.040,-0.178,0.122,104.166,154.128,161.456
19:40:35:394,41.372,0.041,-0.205,0.064,104.073,158.063,162.992
19:40:35:395,41.373,0.066,-0.197,0.015,103.693,160.430,161.629
19:40:35:444,41.422,0.022,-0.176,-0.011,103.118,158.951,156.650
19:40:35:445,41.423,-0.016,-0.200,-0.009,102.655,157.194,152.726
19:40:35:446,41.424,-0.104,-0.275,-0.043,101.914,155.396,148.034
19:40:35:447,41.425,-0.287,-0.344,-0.025,101.367,154.426,145.556
19:40:35:577,41.555,-0.331,-0.368,-0.054,100.261,153.132,143.318
19:40:35:577,41.555,-0.294,-0.364,-0.138,98.832,154.689,145.294
19:40:35:578,41.556,-0.231,-0.356,-0.275,97.681,160.163,152.000
19:40:35:579,41.557,-0.163,-0.347,-0.402,95.782,-169.532,-174.132
19:40:35:597,41.574,-0.066,-0.424,-0.475,94.449,-133.158,-134.119
19:40:35:597,41.575,0.101,-0.529,-0.379,92.291,-107.863,-101.558
19:40:35:619,41.597,0.405,-0.433,-0.406,88.939,-102.318,-86.690
19:40:35:735,41.713,0.551,-0.263,-0.419,85.501,-102.063,-78.885
19:40:35:735,41.713,0.747,0.017,-0.403,78.693,-104.193,-67.870
19:40:35:735,41.713,0.683,0.042,-0.428,73.582,-106.866,-61.108
19:40:35:736,41.714,0.747,0.143,-0.400,64.852,-111.940,-50.781
19:40:35:78,41.758,1.115,0.420,-0.338,55.257,-119.190,-40.610
19:40:35:781,41.758,1.145,0.715,0.069,48.817,-126.295,-34.946
19:40:35:996,41.974,0.754,0.808,0.576,40.340,-139.811,-28.389
19:40:35:997,41.975,0.447,0.643,0.719,36.058,-149.452,-24.595
19:40:35:998,41.976,0.143,0.636,0.829,31.922,-163.130,-18.792
19:40:36:024,42.002,-0.676,0.727,0.836,30.846,177.902,-9.083
19:40:36:024,42.002,-0.760,0.140,0.749,33.888,171.760,-3.518
19:40:36:024,42.002,-0.821,-0.035,0.667,36.308,170.104,0.204
19:40:36:025,42.003,-0.944,-0.215,0.513,39.394,170.030,5.953
19:40:36:156,42.134,-0.910,-0.331,0.478,40.867,171.660,9.942
19:40:36:156,42.134,-0.876,-0.419,0.422,42.062,175.259,15.616
19:40:36:157,42.135,-1.055,-0.349,0.404,41.980,178.390,19.605
19:40:36:157,42.135,-1.025,-0.499,0.287,41.359,-179.264,21.866
19:40:36:179,42.157,-1.057,-0.390,0.494,39.463,-174.837,24.667
19:40:36:18,42.158,-0.951,-0.351,0.648,37.419,-171.338,25.803
19:40:36:181,42.159,-0.727,-0.328,0.779,33.560,-165.512,26.168
19:40:36:182,42.160,-0.454,-0.058,0.900,28.856,-159.333,24.379
19:40:36:228,42.206,-0.257,0.062,0.846,25.513,-154.946,22.085
19:40:36:228,42.206,-0.004,0.154,0.572,21.061,-148.232,16.964
19:40:36:337,42.315,0.056,0.068,0.352,18.901,-144.507,12.340
19:40:36:338,42.316,0.064,0.046,0.299,17.042,-141.456,3.755
19:40:36:339,42.317,0.070,0.205,0.356,15.971,-141.096,-5.949
19:40:36:339,42.317,0.227,0.261,0.356,15.139,-140.947,-12.813
19:40:36:415,42.393,0.470,0.363,0.200,14.084,-140.772,-22.508
19:40:36:415,42.393,0.568,0.369,0.130,13.325,-140.842,-28.646
19:40:36:416,42.394,0.650,0.383,-0.053,11.998,-140.563,-36.621
19:40:36:522,42.500,0.721,0.278,-0.245,11.878,-139.106,-43.262
19:40:36:522,42.500,0.687,0.109,-0.347,12.814,-137.534,-47.136
19:40:36:522,42.500,0.589,0.013,-0.440,15.983,-134.721,-52.063
19:40:36:523,42.501,0.475,0.023,-0.417,19.429,-132.548,-54.509
19:40:36:569,42.546,0.424,-0.023,-0.410,26.368,-128.799,-56.391
19:40:36:569,42.547,0.335,-0.267,-0.409,32.808,-124.590,-55.886
19:40:36:591,42.569,0.262,-0.344,-0.402,34.933,-122.020,-54.561
19:40:36:733,42.711,0.228,-0.271,-0.507,33.925,-119.343,-51.562
19:40:36:733,42.711,0.236,-0.128,-0.522,31.317,-118.498,-49.017
19:40:36:733,42.711,0.193,-0.051,-0.414,26.018,-117.977,-44.117
19:40:36:734,42.712,0.100,-0.016,-0.358,20.377,-117.903,-37.832
19:40:36:751,42.729,0.037,0.039,-0.287,17.176,-118.042,-33.062
19:40:36:752,42.730,-0.051,0.063,-0.074,13.993,-118.317,-25.386
19:40:36:775,42.753,-0.024,-0.068,0.024,12.914,-118.439,-20.052
19:40:36:801,42.779,-0.018,-0.089,0.045,12.029,-118.884,-12.153
19:40:36:915,42.893,-0.035,-0.094,0.125,11.700,-120.127,-4.768
19:40:36:915,42.893,-0.013,-0.079,0.126,11.773,-121.473,-0.328
19:40:36:916,42.894,-0.145,0.068,0.323,12.326,-125.212,5.089
19:40:36:917,42.895,-0.345,0.077,0.471,13.241,-128.597,7.456
19:40:36:991,42.969,-0.428,0.009,0.524,16.210,-133.592,12.341
19:40:36:992,42.970,-0.414,0.144,0.661,16.941,-133.731,13.826
19:40:37:093,43.071,-0.385,0.132,0.662,17.772,-133.267,16.004
19:40:37:094,43.072,-0.412,-0.027,0.647,18.335,-133.361,17.315
19:40:37:121,43.099,-0.475,0.066,0.740,18.954,-133.319,18.933
19:40:37:122,43.100,-0.552,-0.172,0.698,19.227,-133.423,19.832
19:40:37:123,43.101,-0.533,-0.276,0.696,19.342,-132.371,20.959
19:40:37:202,43.180,-0.355,-0.119,0.825,18.605,-129.411,21.440
19:40:37:202,43.180,-0.188,-0.057,0.800,17.603,-126.319,21.066
19:40:37:202,43.180,-0.028,0.025,0.728,15.480,-120.556,19.340
19:40:37:309,43.287,0.101,0.138,0.504,13.854,-116.012,17.453
19:40:37:309,43.287,0.110,0.060,0.329,11.998,-109.230,13.536
19:40:37:31,43.288,0.114,-0.009,0.200,11.263,-103.592,8.307
19:40:37:311,43.289,0.113,-0.053,0.093,11.384,-100.651,4.191
19:40:37:384,43.362,0.131,-0.130,0.021,12.263,-98.012,-2.747
19:40:37:385,43.363,0.136,-0.116,-0.008,13.038,-97.709,-7.880
19:40:37:385,43.363,0.210,-0.047,-0.020,14.082,-99.109,-16.143
19:40:37:493,43.471,0.270,-0.041,-0.014,14.526,-101.831,-24.454
19:40:37:494,43.472,0.293,0.003,-0.060,14.409,-103.755,-29.724
19:40:37:494,43.472,0.369,0.151,-0.260,14.181,-106.175,-37.021
19:40:37:494,43.472,0.387,0.108,-0.509,14.346,-107.281,-41.307
19:40:37:696,43.674,0.340,0.049,-0.595,15.289,-108.132,-46.350
19:40:37:729,43.707,0.314,0.101,-0.624,16.778,-108.266,-49.652
19:40:37:73,43.708,0.195,0.074,-0.553,17.914,-107.927,-50.898
19:40:37:731,43.709,0.071,-0.015,-0.569,19.736,-106.616,-51.233
19:40:37:731,43.709,-0.049,-0.139,-0.489,20.532,-105.364,-50.321
19:40:37:754,43.732,-0.167,-0.218,-0.366,20.088,-103.238,-47.524
19:40:37:755,43.733,-0.205,-0.096,-0.316,17.848,-101.232,-43.533
19:40:37:756,43.734,-0.213,-0.003,-0.322,15.966,-99.964,-40.403
19:40:37:757,43.735,-0.179,-0.009,-0.339,13.512,-98.104,-35.080
19:40:37:775,43.752,-0.148,-0.079,-0.353,11.953,-97.049,-31.141
19:40:37:776,43.753,-0.143,-0.130,-0.292,9.689,-96.696,-24.878
19:40:37:885,43.863,-0.118,-0.096,-0.145,8.428,-97.474,-20.538
19:40:37:886,43.864,-0.087,-0.097,-0.069,7.430,-99.776,-14.046
19:40:37:887,43.865,-0.010,-0.060,-0.005,7.484,-103.324,-7.950
19:40:37:888,43.866,-0.018,0.001,0.203,7.881,-106.608,-4.153
19:40:37:904,43.882,-0.097,0.104,0.359,9.034,-112.170,0.875
19:40:37:93,43.908,-0.150,0.113,0.563,10.260,-115.486,3.780
19:40:38:07,44.048,-0.173,0.053,0.607,12.404,-118.784,7.767
19:40:38:071,44.049,-0.170,0.019,0.653,14.334,-120.308,11.428
19:40:38:072,44.050,-0.174,0.066,0.697,15.358,-120.696,13.699
19:40:38:072,44.050,-0.193,0.078,0.781,16.287,-120.302,17.098
19:40:38:119,44.097,-0.226,0.019,0.784,16.525,-119.634,19.327
19:40:38:119,44.097,-0.255,0.004,0.831,16.461,-118.655,22.264
19:40:38:12,44.098,-0.355,-0.138,0.816,16.135,-118.507,24.253
19:40:38:17,44.148,-0.359,-0.327,0.721,15.820,-117.974,25.057
19:40:38:17,44.148,-0.303,-0.156,0.771,14.663,-116.517,25.126
19:40:38:257,44.235,-0.166,-0.069,0.758,13.547,-114.923,24.247
19:40:38:257,44.235,-0.050,0.060,0.718,11.391,-111.355,21.468
19:40:38:258,44.236,0.079,0.229,0.509,9.130,-106.769,17.218
19:40:38:258,44.236,0.064,0.208,0.364,8.049,-103.851,13.541
19:40:38:271,44.249,0.034,0.075,0.210,7.281,-100.243,7.004
19:40:38:323,44.301,0.061,-0.026,0.010,7.037,-98.390,1.866
19:40:38:353,44.331,0.027,-0.053,0.036,7.114,-96.331,-6.245
19:40:38:353,44.331,0.057,-0.065,-0.075,7.489,-95.058,-14.614
19:40:38:544,44.522,0.126,-0.071,-0.066,7.907,-94.677,-20.148
19:40:38:544,44.522,0.143,-0.022,-0.096,8.258,-95.007,-27.996
19:40:38:545,44.523,0.151,0.101,-0.217,8.259,-95.378,-32.770
19:40:38:545,44.523,0.201,0.138,-0.396,8.957,-95.439,-39.007
19:40:38:567,44.545,0.239,0.001,-0.558,10.823,-95.317,-44.148
19:40:38:568,44.546,0.228,-0.032,-0.573,12.165,-95.343,-46.878
19:40:38:568,44.546,0.205,0.004,-0.668,14.402,-95.248,-49.814
19:40:38:642,44.620,0.148,-0.082,-0.588,15.958,-95.052,-50.840
19:40:38:643,44.621,0.124,-0.083,-0.567,17.498,-94.570,-51.053
19:40:38:67,44.648,0.058,-0.150,-0.446,17.420,-93.837,-49.562
19:40:38:671,44.649,-0.035,-0.185,-0.330,16.351,-93.218,-47.698
19:40:38:672,44.650,-0.090,-0.022,-0.297,13.821,-92.199,-43.764
19:40:38:691,44.669,-0.098,0.086,-0.282,12.275,-91.385,-40.434
19:40:38:717,44.695,-0.045,0.141,-0.234,10.708,-89.564,-34.515
19:40:38:885,44.863,-0.010,0.149,-0.176,9.847,-87.826,-30.116
19:40:38:885,44.863,-0.027,0.160,-0.083,8.428,-84.531,-23.196
19:40:38:885,44.863,-0.042,0.098,0.228,6.990,-80.020,-16.348
19:40:38:886,44.864,0.106,-0.201,0.183,6.353,-75.581,-12.213
19:40:38:906,44.884,0.118,-0.282,0.027,5.088,-67.296,-6.736
19:40:38:907,44.885,-0.056,-0.209,0.018,3.660,-62.497,-3.607
19:40:38:908,44.886,-0.079,-0.125,0.241,0.968,-58.173,0.106
19:40:38:927,44.904,-0.135,-0.110,0.323,-1.738,-55.942,2.779
19:40:39:147,45.125,-0.200,-0.087,0.437,-3.497,-55.268,4.574
19:40:39:147,45.125,-0.118,-0.090,0.702,-5.549,-55.528,7.686
19:40:39:148,45.126,-0.092,-0.070,0.835,-6.554,-56.047,9.698
19:40:39:149,45.127,-0.098,-0.036,0.871,-7.820,-56.103,12.419
19:40:39:222,45.200,-0.122,0.010,0.893,-8.893,-55.770,14.388
19:40:39:222,45.200,-0.074,-0.019,0.904,-9.434,-55.112,15.135
19:40:39:435,45.413,-0.008,0.021,0.886,-10.091,-53.170,15.068
19:40:39:435,45.413,-0.075,-0.021,0.672,-10.396,-50.905,14.378
19:40:39:436,45.414,0.092,-0.078,0.628,-9.853,-47.183,12.764
19:40:39:437,45.415,0.202,0.183,0.536,-8.414,-42.992,10.315
19:40:39:463,45.441,0.327,0.435,0.331,-7.085,-39.432,8.507
19:40:39:464,45.442,0.430,0.610,0.011,-4.241,-34.393,6.159
19:40:39:464,45.442,0.355,0.324,-0.186,-1.774,-31.828,4.731
19:40:39:464,45.442,0.246,0.077,-0.253,1.902,-28.961,2.437
19:40:39:514,45.492,0.065,-0.112,-0.260,5.282,-27.532,-0.066
19:40:39:514,45.492,0.087,-0.183,-0.206,7.419,-27.910,-1.999
19:40:39:515,45.493,0.147,-0.259,-0.133,10.417,-29.665,-5.617
19:40:39:516,45.494,0.105,-0.251,-0.165,12.217,-31.528,-8.571
19:40:39:646,45.624,0.127,-0.232,-0.237,14.263,-35.892,-13.889
19:40:39:646,45.624,0.204,-0.158,-0.239,14.883,-41.983,-19.944
19:40:39:646,45.624,0.201,-0.129,-0.263,14.623,-45.927,-23.880
19:40:39:671,45.649,0.117,-0.041,-0.367,13.905,-50.361,-29.058
19:40:39:672,45.650,0.061,0.089,-0.488,13.545,-52.150,-31.894
19:40:39:673,45.651,0.013,0.134,-0.566,13.623,-53.060,-35.184
19:40:39:674,45.652,-0.072,0.087,-0.527,14.468,-52.423,-37.215
19:40:39:697,45.675,-0.103,0.129,-0.506,14.982,-51.423,-37.834
19:40:39:698,45.676,-0.157,0.065,-0.366,15.767,-48.907,-37.528
19:40:39:699,45.677,-0.223,0.002,-0.282,16.188,-46.671,-36.577
19:40:39:7,45.678,-0.244,-0.087,-0.208,16.456,-43.041,-34.466
19:40:39:715,45.692,-0.217,-0.207,-0.166,16.311,-40.612,-32.808
19:40:39:829,45.807,-0.309,-0.157,-0.209,15.456,-36.896,-29.908
19:40:39:83,45.808,-0.351,0.027,-0.203,13.679,-33.234,-25.806
19:40:39:83,45.808,-0.288,0.190,-0.123,12.007,-31.062,-22.530
19:40:39:831,45.809,-0.231,0.095,-0.003,9.282,-28.352,-17.416
19:40:39:875,45.853,-0.130,0.061,0.121,7.495,-26.748,-14.044
19:40:39:875,45.853,-0.061,-0.004,0.185,5.124,-24.623,-9.033
19:40:40:065,46.043,-0.003,-0.159,0.166,3.279,-22.363,-4.514
19:40:40:065,46.043,-0.033,-0.170,0.230,2.180,-21.123,-1.819
19:40:40:066,46.044,0.027,-0.112,0.294,0.607,-20.113,1.718
19:40:40:067,46.045,0.052,-0.135,0.318,-0.171,-20.940,3.631
19:40:40:093,46.071,0.148,-0.120,0.421,-0.931,-22.424,6.134
19:40:40:093,46.071,0.280,-0.154,0.501,-1.143,-25.192,8.366
19:40:40:094,46.072,0.297,-0.100,0.485,-1.023,-26.161,9.656
19:40:40:094,46.072,0.355,0.064,0.470,-0.715,-27.144,11.206
19:40:40:109,46.086,0.399,0.131,0.496,-0.495,-27.405,11.997
19:40:40:217,46.195,0.393,0.082,0.494,-0.239,-27.736,12.808
19:40:40:218,46.196,0.431,0.134,0.531,-0.085,-27.269,13.070
19:40:40:406,46.384,0.471,0.133,0.519,0.039,-26.600,12.896
19:40:40:407,46.385,0.418,0.043,0.358,0.449,-24.587,11.981
19:40:40:408,46.386,0.410,0.157,0.166,0.967,-22.635,10.879
19:40:40:409,46.387,0.425,0.233,0.051,2.105,-19.329,8.626
19:40:40:453,46.431,0.298,0.411,-0.103,3.664,-15.458,5.881
19:40:40:485,46.463,0.124,0.354,-0.186,5.093,-12.887,3.882
19:40:40:486,46.464,0.114,0.048,-0.180,7.622,-10.949,0.762
19:40:40:487,46.465,0.086,-0.111,-0.128,9.217,-11.276,-1.765
19:40:40:487,46.465,0.065,-0.206,-0.127,11.112,-12.711,-6.510
19:40:40:609,46.587,-0.004,-0.265,-0.177,12.614,-14.464,-12.268
19:40:40:643,46.621,-0.010,-0.264,-0.208,13.284,-15.864,-16.514
19:40:40:643,46.621,-0.009,-0.163,-0.263,13.639,-17.979,-23.084
19:40:40:644,46.622,-0.091,-0.057,-0.346,13.729,-19.049,-27.331
19:40:40:645,46.623,-0.159,-0.023,-0.392,14.135,-19.766,-33.089
19:40:40:663,46.641,-0.323,0.013,-0.467,15.018,-19.833,-38.244
19:40:40:663,46.641,-0.440,0.049,-0.503,15.775,-19.727,-41.255
19:40:40:852,46.830,-0.566,0.039,-0.462,16.691,-19.572,-44.939
19:40:40:853,46.831,-0.609,0.023,-0.399,17.208,-19.425,-46.895
19:40:40:854,46.832,-0.611,0.017,-0.295,17.536,-18.986,-48.949
19:40:40:879,46.857,-0.487,-0.008,-0.089,17.374,-17.388,-49.233
19:40:40:879,46.857,-0.325,-0.162,0.105,16.882,-15.568,-47.155
19:40:40:88,46.858,-0.288,-0.167,0.192,16.172,-14.039,-44.920
19:40:41:089,47.067,-0.428,0.054,0.240,12.817,-8.526,-34.693
19:40:41:089,47.067,-0.476,0.053,0.250,11.213,-6.838,-30.509
19:40:41:09,47.068,-0.421,-0.021,0.238,8.939,-5.211,-23.753
19:40:41:091,47.069,-0.208,-0.035,0.170,7.752,-5.158,-18.993
19:40:41:16,47.138,-0.124,-0.047,0.158,6.655,-6.655,-12.005
19:40:41:195,47.173,-0.018,-0.062,0.131,6.593,-9.136,-5.350
19:40:41:195,47.173,0.090,-0.080,0.167,7.010,-10.960,-1.514
19:40:41:195,47.173,0.203,-0.086,0.172,8.037,-12.735,3.345
19:40:41:196,47.174,0.314,-0.036,0.170,8.773,-13.292,5.874
19:40:41:248,47.226,0.377,0.006,0.120,9.820,-13.353,8.872
19:40:41:248,47.226,0.404,0.070,0.087,10.376,-13.084,10.688
19:40:41:248,47.226,0.453,0.071,0.065,11.200,-12.546,13.143
19:40:41:249,47.227,0.600,0.048,0.087,11.874,-11.944,15.451
19:40:41:273,47.251,0.657,0.006,0.125,12.169,-11.467,16.726
19:40:41:273,47.251,0.698,0.008,0.127,12.288,-10.472,18.194
19:40:41:274,47.252,0.792,0.034,0.132,12.046,-9.231,18.977
19:40:41:275,47.253,0.718,-0.069,0.119,11.307,-6.709,19.577
19:40:41:378,47.356,0.684,-0.039,0.005,10.398,-2.989,19.297
19:40:41:378,47.356,0.668,0.067,-0.091,9.861,-0.187,18.367
19:40:41:381,47.359,0.519,0.152,-0.242,9.226,4.941,16.039
19:40:41:381,47.359,0.331,0.220,-0.328,9.007,8.901,14.046
19:40:41:43,47.408,0.179,0.255,-0.340,9.298,14.770,10.379
19:40:41:43,47.408,0.012,0.177,-0.333,10.449,19.524,5.910
19:40:41:431,47.409,-0.123,0.072,-0.337,11.644,21.622,2.532
19:40:41:432,47.410,-0.237,-0.166,-0.298,13.777,22.286,-3.186
19:40:41:448,47.426,-0.105,-0.274,-0.402,15.014,20.895,-7.466
19:40:41:588,47.566,-0.060,-0.066,-0.481,16.053,18.215,-14.459
19:40:41:588,47.566,-0.287,0.117,-0.432,17.020,17.842,-21.385
19:40:41:589,47.567,-0.473,0.104,-0.390,18.179,18.728,-25.759
19:40:41:59,47.568,-0.719,0.179,-0.319,20.182,20.109,-32.341
19:40:41:607,47.585,-0.949,0.196,-0.222,21.485,20.894,-36.739
19:40:41:608,47.586,-0.986,0.042,-0.085,23.399,21.923,-43.201
19:40:41:631,47.609,-0.923,-0.055,0.081,24.433,22.740,-49.262
19:40:41:657,47.635,-0.847,-0.087,0.176,24.396,23.399,-52.807
19:40:41:742,47.720,-0.509,0.047,0.290,24.208,25.032,-56.541
19:40:41:743,47.721,-0.464,0.066,0.289,26.073,26.666,-57.857
19:40:41:744,47.722,-0.439,-0.331,0.262,31.807,29.839,-58.565
19:40:41:762,47.740,-0.307,-0.691,0.367,35.207,33.442,-57.816
19:40:41:789,47.767,-0.221,-0.761,0.485,34.401,35.606,-56.283
19:40:41:816,47.794,-0.339,-0.124,0.445,29.232,38.264,-51.949
19:40:41:841,47.819,-0.277,0.120,0.367,25.269,39.752,-48.260
19:40:41:955,47.933,-0.147,0.046,0.289,21.128,42.373,-42.019
19:40:41:955,47.933,-0.114,0.054,0.098,19.245,45.790,-35.199
19:40:41:956,47.934,-0.162,-0.043,0.004,18.902,48.662,-30.465
19:40:41:957,47.935,-0.259,-0.176,0.081,18.473,53.850,-23.284
19:40:41:972,47.950,-0.213,-0.175,0.074,17.674,56.803,-18.662
19:40:42:,47.978,-0.174,-0.104,0.085,15.746,59.185,-12.673
19:40:42:166,48.144,-0.084,0.054,0.098,14.220,59.473,-9.026
19:40:42:166,48.144,0.128,0.128,-0.035,12.018,58.368,-3.863
19:40:42:166,48.144,0.344,0.149,-0.235,10.287,56.620,0.158
19:40:42:167,48.145,0.374,0.153,-0.237,9.449,55.810,2.272
19:40:42:187,48.165,0.392,0.235,-0.350,8.536,54.892,4.754
19:40:42:187,48.165,0.402,0.262,-0.321,8.033,54.729,6.057
19:40:42:24,48.218,0.429,0.186,-0.301,7.245,55.036,7.744
19:40:42:241,48.219,0.509,0.134,-0.333,6.596,55.294,9.230
19:40:42:241,48.219,0.578,0.094,-0.417,6.354,55.585,10.006
19:40:42:429,48.407,0.574,-0.041,-0.434,6.303,57.008,10.819
19:40:42:43,48.408,0.413,-0.026,-0.512,6.574,58.684,10.996
19:40:42:43,48.408,0.254,0.229,-0.757,7.430,62.285,10.692
19:40:42:431,48.409,-0.088,0.216,-0.665,8.714,67.802,9.656
19:40:42:56,48.538,-0.265,0.128,-0.551,9.714,71.949,8.695
19:40:42:56,48.538,-0.316,0.047,-0.448,11.497,76.997,6.740
19:40:42:561,48.539,-0.389,-0.056,-0.312,12.861,79.713,4.735
19:40:42:562,48.540,-0.427,-0.102,-0.203,15.097,82.971,0.689
19:40:42:585,48.563,-0.482,-0.141,-0.122,17.439,84.981,-4.481
19:40:42:585,48.563,-0.537,-0.144,-0.016,18.956,85.883,-8.359
19:40:42:586,48.564,-0.558,-0.146,0.137,21.199,86.182,-14.798
19:40:42:587,48.565,-0.538,-0.093,0.180,22.503,85.413,-19.514
19:40:42:604,48.582,-0.515,-0.003,0.231,23.958,83.330,-27.103
19:40:42:605,48.583,-0.501,0.087,0.405,24.977,81.116,-35.016
19:40:42:629,48.607,-0.485,0.137,0.546,25.515,79.749,-40.348
19:40:42:743,48.721,-0.472,0.184,0.740,26.168,78.257,-47.890
19:40:42:744,48.722,-0.474,0.105,0.951,27.075,78.073,-51.998
19:40:42:745,48.723,-0.234,-0.219,0.822,30.065,79.234,-55.969
19:40:42:745,48.723,-0.134,-0.151,0.756,33.691,81.813,-57.440
19:40:42:762,48.740,-0.063,-0.181,0.706,35.805,83.865,-57.365
19:40:42:763,48.741,0.066,-0.323,0.678,37.245,87.034,-55.994
19:40:42:787,48.765,0.133,-0.402,0.766,36.576,88.723,-54.143
19:40:42:891,48.869,0.077,-0.314,0.782,32.948,89.808,-49.777
19:40:42:926,48.904,0.031,-0.022,0.722,29.046,89.776,-46.132
19:40:42:926,48.904,0.230,0.150,0.645,23.330,89.517,-39.992
19:40:42:927,48.905,0.181,0.027,0.523,20.099,90.077,-32.753
19:40:42:928,48.906,0.048,-0.013,0.283,18.609,90.172,-27.718
19:40:42:943,48.921,-0.046,-0.012,0.144,16.674,88.870,-20.572
19:40:42:971,48.949,-0.094,-0.030,0.029,15.897,87.747,-15.986
19:40:43:027,49.004,-0.135,-0.092,0.037,15.319,86.672,-8.993
19:40:43:027,49.004,-0.183,-0.041,-0.090,15.089,85.435,-2.452
19:40:43:214,49.192,-0.194,0.056,-0.425,15.101,83.643,1.202
19:40:43:215,49.193,-0.113,0.088,-0.611,15.617,79.674,5.464
19:40:43:216,49.194,-0.060,0.028,-0.664,16.336,77.130,7.940
19:40:43:217,49.195,0.025,-0.013,-0.741,17.487,74.289,11.437
19:40:43:319,49.297,0.129,-0.025,-0.779,18.352,71.425,14.841
19:40:43:32,49.298,0.213,-0.047,-0.782,18.767,70.633,17.061
19:40:43:321,49.299,0.438,-0.118,-0.865,18.940,69.173,20.253
19:40:43:322,49.300,0.471,-0.096,-0.856,18.521,69.938,22.192
19:40:43:505,49.483,0.439,-0.138,-0.827,16.907,72.220,24.380
19:40:43:505,49.483,0.263,-0.212,-0.736,14.856,76.205,24.857
19:40:43:506,49.484,0.115,0.001,-0.761,13.815,78.635,23.692
19:40:43:507,49.485,-0.188,0.370,-0.911,13.125,82.102,20.010
19:40:43:53,49.508,-0.241,0.502,-0.794,12.923,84.699,16.755
19:40:43:53,49.508,-0.135,0.623,-0.724,13.077,89.127,11.022
19:40:43:53,49.508,-0.040,0.762,-0.509,14.445,92.139,3.034
19:40:43:556,49.534,-0.074,0.820,-0.252,16.112,92.418,-3.962
19:40:43:557,49.535,-0.498,0.805,-0.179,19.053,88.964,-17.299
19:40:43:559,49.537,-0.662,0.908,-0.131,20.608,85.899,-27.324
19:40:43:559,49.537,-0.929,0.973,0.419,25.211,85.253,-42.160
19:40:43:576,49.554,-0.899,0.758,0.975,38.450,89.160,-55.599
19:40:43:576,49.554,-0.840,0.366,1.363,52.654,91.959,-64.073
19:40:43:599,49.577,-0.663,-0.222,1.419,74.762,93.812,-77.244
19:40:43:715,49.693,-0.533,-0.492,1.386,86.440,93.609,-86.510
19:40:43:715,49.693,-0.273,-0.805,1.249,98.472,91.265,-100.936
19:40:43:715,49.693,0.001,-0.967,0.846,105.758,85.410,-117.256
19:40:43:716,49.694,0.144,-0.808,0.601,108.784,79.791,-129.061
19:40:43:731,49.709,0.212,-0.627,0.447,111.346,69.132,-147.943
19:40:43:757,49.735,0.319,-0.550,0.267,112.333,60.345,-161.571
19:40:43:783,49.761,0.363,-0.292,-0.017,113.189,49.138,-179.267
19:40:43:811,49.789,0.129,-0.154,0.198,113.348,45.937,173.580
19:40:43:894,49.872,0.149,-0.160,0.221,113.115,44.524,167.266
19:40:43:895,49.873,0.256,-0.139,0.148,112.692,42.514,161.857
19:40:43:895,49.873,0.246,-0.135,0.084,112.352,41.830,159.538
19:40:43:915,49.893,0.222,-0.138,0.065,111.629,42.833,158.488
19:40:43:941,49.919,0.179,-0.135,0.092,110.954,43.672,158.247
19:40:44:076,50.054,0.125,-0.154,0.022,109.972,42.004,155.844
19:40:44:109,50.087,0.083,-0.170,-0.012,109.097,39.199,152.737
19:40:44:11,50.088,0.068,-0.206,0.027,108.504,38.295,151.695
19:40:44:11,50.088,0.033,-0.233,0.041,107.910,37.328,150.727
19:40:44:111,50.089,0.014,-0.169,-0.027,107.662,36.095,149.536
19:40:44:129,50.107,0.008,-0.119,-0.036,107.363,33.618,147.199
19:40:44:13,50.108,-0.098,-0.074,-0.054,107.197,31.039,144.790
19:40:44:18,50.158,-0.118,-0.034,-0.045,107.071,29.393,143.131
19:40:44:18,50.158,-0.113,0.049,-0.113,106.815,26.539,140.027
19:40:44:345,50.323,-0.156,0.132,-0.126,106.580,24.767,137.891
19:40:44:345,50.323,-0.184,0.215,-0.077,106.000,22.593,134.979
19:40:44:345,50.323,-0.218,0.273,-0.012,105.193,20.803,131.849
19:40:44:346,50.324,-0.217,0.256,-0.005,104.786,20.174,129.964
19:40:44:366,50.344,-0.289,0.152,0.110,104.361,20.170,128.444
19:40:44:367,50.345,-0.392,0.066,0.160,104.173,21.168,128.258
19:40:44:368,50.346,-0.427,0.011,0.156,104.171,22.948,128.601
19:40:44:501,50.479,-0.356,-0.035,0.161,104.464,24.965,129.558
19:40:44:502,50.480,-0.324,-0.038,0.174,104.767,26.831,130.921
19:40:44:503,50.481,-0.266,-0.037,0.136,105.003,30.427,133.385
19:40:44:503,50.481,-0.216,-0.063,0.081,104.888,32.592,134.550
19:40:44:521,50.499,-0.174,-0.129,0.052,104.356,35.274,135.185
19:40:44:521,50.499,-0.144,-0.207,0.089,103.829,36.681,135.059
19:40:44:546,50.524,-0.114,-0.263,0.119,103.011,38.722,134.557
19:40:44:571,50.549,-0.086,-0.240,0.134,102.402,40.588,133.873
19:40:44:687,50.665,-0.065,-0.099,0.140,102.104,41.497,133.139
19:40:44:688,50.666,-0.050,-0.001,0.125,101.543,41.205,130.441
19:40:44:689,50.667,-0.101,0.066,0.140,100.852,38.736,125.891
19:40:44:689,50.667,-0.092,0.072,0.152,100.345,37.015,123.079
19:40:44:703,50.681,-0.013,0.103,0.160,99.668,34.942,119.622
19:40:44:729,50.707,-0.032,0.086,0.064,99.357,33.655,117.644
19:40:44:896,50.874,-0.023,0.077,0.081,99.010,32.138,115.504
19:40:44:896,50.874,-0.028,0.169,0.136,98.786,31.309,114.565
19:40:44:896,50.874,-0.099,0.155,0.246,98.172,29.860,112.825
19:40:44:897,50.875,-0.080,0.063,0.292,97.412,27.655,110.411
19:40:44:918,50.896,-0.042,0.020,0.244,97.031,26.174,108.952
19:40:44:918,50.896,-0.013,-0.032,0.297,96.645,24.725,107.686
19:40:44:919,50.897,-0.006,-0.021,0.290,96.501,24.412,107.403
19:40:44:968,50.945,-0.035,0.027,0.154,96.417,24.433,107.197
19:40:44:968,50.946,-0.117,-0.015,0.113,96.475,25.326,107.768
19:40:45:158,51.135,-0.093,-0.071,0.143,96.510,26.367,108.572
19:40:45:158,51.136,-0.086,-0.131,0.155,96.594,28.162,109.602
19:40:45:159,51.137,-0.105,-0.181,0.086,96.662,29.091,109.976
19:40:45:23,51.208,-0.131,-0.205,0.049,96.846,31.746,110.393
19:40:45:291,51.269,-0.136,-0.161,0.091,96.859,32.578,110.212
19:40:45:291,51.269,-0.138,-0.078,0.084,96.915,33.618,109.827
19:40:45:291,51.269,-0.151,-0.042,0.078,96.984,34.792,109.743
19:40:45:292,51.270,-0.175,0.004,0.070,97.055,36.590,109.719
19:40:45:307,51.285,-0.222,0.070,0.114,97.131,38.909,109.709
19:40:45:342,51.319,-0.249,0.104,0.119,97.220,40.540,109.787
19:40:45:342,51.320,-0.289,0.185,0.137,97.297,43.567,110.060
19:40:45:343,51.320,-0.295,0.212,0.185,97.231,45.505,110.142
19:40:45:344,51.321,-0.331,0.170,0.206,97.169,49.201,110.388
19:40:45:473,51.451,-0.400,0.025,0.250,97.396,53.911,112.035
19:40:45:473,51.451,-0.387,-0.096,0.325,97.737,58.481,114.361
19:40:45:474,51.452,-0.318,-0.171,0.330,98.377,66.115,119.152
19:40:45:474,51.452,-0.292,-0.206,0.282,98.757,71.742,122.562
19:40:45:495,51.473,-0.232,-0.226,0.272,99.145,79.927,127.630
