Time,Second,AccelerationX,AccelerationY,AccelerationZ,EulerAnglesX,EulerAnglesY,EulerAnglesZ
19:08:47:995,0.000,-0.001,-0.005,0.000,11.696,13.387,-16.362
19:08:47:996,0.001,-0.005,-0.007,0.005,11.707,13.324,-16.377
19:08:47:997,0.002,0.010,-0.001,-0.001,11.701,13.231,-16.385
19:08:47:997,0.002,0.006,-0.007,0.001,11.683,13.184,-16.370
19:08:48:077,0.082,-0.006,0.003,-0.002,11.686,13.200,-16.338
19:08:48:077,0.082,-0.002,0.005,-0.001,11.681,13.187,-16.279
19:08:48:077,0.082,0.007,-0.008,-0.003,11.669,13.150,-16.218
19:08:48:077,0.082,0.010,-0.011,0.005,11.651,13.159,-16.180
19:08:48:224,0.229,0.011,-0.004,-0.005,11.619,13.173,-16.125
19:08:48:257,0.262,0.011,-0.001,-0.001,11.608,13.214,-16.080
19:08:48:258,0.263,0.016,-0.008,-0.002,11.591,13.289,-16.000
19:08:48:259,0.264,0.019,-0.012,-0.002,11.558,13.410,-15.919
19:08:48:283,0.288,0.017,-0.002,0.001,11.516,13.695,-15.823
19:08:48:284,0.289,0.015,0.000,0.000,11.504,13.792,-15.803
19:08:48:285,0.290,0.018,0.000,0.000,11.487,13.903,-15.829
19:08:48:38,0.385,0.007,-0.005,-0.001,11.483,14.235,-15.935
19:08:48:441,0.446,0.007,0.001,-0.001,11.484,14.432,-16.046
19:08:48:442,0.447,0.013,-0.002,-0.005,11.498,14.559,-16.126
19:08:48:443,0.448,0.006,-0.005,0.001,11.525,14.768,-16.281
19:08:48:444,0.449,0.004,-0.005,-0.010,11.555,14.973,-16.486
19:08:48:467,0.472,-0.004,0.000,-0.002,11.567,15.133,-16.622
19:08:48:468,0.473,0.018,-0.006,-0.011,11.585,15.228,-16.904
19:08:48:469,0.474,0.030,0.004,-0.008,11.608,15.234,-17.206
19:08:48:47,0.475,0.021,0.004,-0.016,11.674,15.351,-17.672
19:08:48:572,0.577,0.022,0.007,-0.009,11.715,15.434,-17.982
19:08:48:573,0.578,0.019,-0.006,-0.012,11.710,15.573,-18.377
19:08:48:574,0.579,-0.008,-0.019,-0.002,11.684,15.759,-18.649
19:08:48:575,0.580,-0.003,-0.007,-0.006,11.618,15.872,-18.748
19:08:48:651,0.656,-0.005,-0.014,0.010,11.533,16.055,-18.853
19:08:48:652,0.657,-0.002,0.001,0.015,11.478,16.222,-19.052
19:08:48:653,0.658,-0.012,0.002,0.022,11.461,16.351,-19.196
19:08:48:653,0.658,-0.026,-0.007,0.014,11.450,16.511,-19.349
19:08:48:785,0.790,0.001,0.005,0.005,11.399,16.523,-19.447
19:08:48:785,0.790,0.006,0.007,-0.007,11.308,16.567,-19.584
19:08:48:785,0.790,-0.006,-0.001,-0.005,11.255,16.630,-19.624
19:08:48:786,0.791,-0.013,-0.014,-0.007,11.173,16.725,-19.657
19:08:48:835,0.840,-0.004,0.001,-0.006,11.076,16.809,-19.689
19:08:48:836,0.841,-0.006,0.002,-0.007,11.009,16.930,-19.663
19:08:48:836,0.841,-0.016,-0.017,0.010,10.972,17.163,-19.610
19:08:48:837,0.842,-0.040,-0.014,0.030,10.966,17.272,-19.550
19:08:48:861,0.866,-0.032,0.000,0.027,10.934,17.323,-19.439
19:08:48:862,0.867,-0.017,-0.001,0.018,10.914,17.288,-19.311
19:08:48:863,0.868,-0.024,-0.006,0.016,10.946,17.295,-19.225
19:08:48:863,0.868,-0.036,-0.006,0.019,11.011,17.324,-19.052
19:08:48:96,0.965,-0.027,-0.012,-0.001,11.048,17.280,-18.945
19:08:49:012,1.017,-0.015,-0.008,0.004,11.059,17.107,-18.841
19:08:49:013,1.018,-0.014,-0.002,-0.007,11.040,16.905,-18.717
19:08:49:045,1.050,-0.009,-0.008,-0.003,11.032,16.815,-18.596
19:08:49:045,1.050,-0.012,-0.013,-0.010,11.016,16.710,-18.367
19:08:49:046,1.051,-0.008,-0.011,-0.003,10.984,16.612,-18.185
19:08:49:171,1.176,0.005,-0.007,0.000,10.860,16.350,-17.600
19:08:49:172,1.177,0.010,-0.005,-0.016,10.820,16.317,-17.421
19:08:49:228,1.233,0.026,0.004,-0.005,10.774,16.230,-17.227
19:08:49:229,1.234,0.031,-0.004,-0.001,10.747,16.149,-17.178
19:08:49:23,1.235,0.052,0.006,0.007,10.718,15.975,-17.197
19:08:49:231,1.236,0.070,-0.002,-0.003,10.672,15.794,-17.395
19:08:49:248,1.253,0.094,-0.013,0.001,10.637,15.620,-17.662
19:08:49:361,1.366,0.099,-0.005,-0.010,10.672,15.441,-18.130
19:08:49:361,1.366,0.111,0.028,-0.015,10.759,15.394,-18.467
19:08:49:361,1.366,0.095,0.015,-0.021,10.969,15.515,-19.021
19:08:49:362,1.367,0.111,0.012,-0.023,11.141,15.657,-19.549
19:08:49:439,1.443,0.132,0.028,-0.026,11.334,15.896,-20.308
19:08:49:44,1.444,0.118,0.013,-0.035,11.555,16.280,-21.026
19:08:49:44,1.445,0.104,0.016,-0.023,11.752,16.654,-21.581
19:08:49:441,1.446,0.094,0.025,-0.025,12.171,17.194,-23.021
19:08:49:545,1.550,0.065,0.049,-0.018,12.668,17.647,-24.453
19:08:49:545,1.550,0.049,0.034,-0.017,13.046,17.874,-25.419
19:08:49:545,1.550,0.013,0.016,0.008,13.638,18.037,-26.978
19:08:49:546,1.551,-0.027,-0.015,0.024,13.996,17.990,-28.175
19:08:49:57,1.575,-0.039,-0.049,0.053,14.550,17.574,-30.298
19:08:49:571,1.576,-0.080,-0.052,0.082,14.972,17.043,-31.923
19:08:49:571,1.576,-0.122,0.028,0.184,15.596,15.759,-34.497
19:08:49:572,1.577,-0.170,0.053,0.192,16.507,13.751,-37.143
19:08:49:591,1.596,-0.189,0.020,0.200,17.142,12.011,-38.944
19:08:49:591,1.596,-0.216,0.150,0.302,17.626,8.887,-41.471
19:08:49:614,1.619,-0.244,0.250,0.320,17.884,6.675,-43.024
19:08:49:64,1.644,-0.213,0.143,0.285,18.769,3.215,-45.404
19:08:49:753,1.758,-0.133,0.108,0.270,20.059,-0.420,-47.798
19:08:49:754,1.759,-0.098,0.148,0.196,21.259,-2.983,-49.337
19:08:49:754,1.759,-0.055,0.072,0.120,23.850,-6.971,-51.637
19:08:49:755,1.760,0.044,0.079,0.013,25.864,-9.972,-53.187
19:08:49:83,1.834,0.089,0.019,-0.030,29.219,-14.636,-55.587
19:08:49:83,1.835,0.119,-0.105,-0.052,32.692,-18.874,-57.292
19:08:49:938,1.943,0.162,-0.173,-0.031,34.311,-21.591,-57.865
19:08:49:939,1.944,0.369,-0.254,0.000,34.782,-26.026,-58.229
19:08:49:939,1.944,0.521,-0.259,-0.008,33.882,-29.123,-58.226
19:08:49:94,1.945,0.734,-0.286,-0.039,31.507,-33.542,-57.616
19:08:49:96,1.965,0.947,-0.479,-0.018,28.718,-37.009,-56.382
19:08:49:961,1.966,1.022,-0.584,0.085,26.460,-38.626,-55.242
19:08:49:961,1.966,1.010,-0.519,0.198,22.534,-39.675,-53.666
19:08:50:007,2.012,0.870,-0.280,0.146,19.939,-39.364,-52.899
19:08:50:175,2.180,1.002,-0.191,0.006,16.768,-37.786,-52.690
19:08:50:175,2.180,1.101,0.183,-0.081,12.232,-35.028,-54.212
19:08:50:175,2.180,1.209,0.643,-0.075,7.578,-32.576,-55.973
19:08:50:176,2.181,0.888,1.358,-0.300,-0.540,-27.352,-60.153
19:08:50:2,2.204,0.340,1.443,-0.361,-6.500,-22.695,-64.082
19:08:50:201,2.205,-0.022,1.229,-0.389,-15.780,-14.422,-71.109
19:08:50:201,2.206,-0.371,0.845,-0.394,-28.567,-5.533,-78.521
19:08:50:219,2.223,-0.997,0.074,-0.289,-80.665,8.791,-89.156
19:08:50:358,2.363,-0.973,-0.409,-0.164,-121.587,13.604,-92.340
19:08:50:358,2.363,-0.950,-0.759,0.071,-159.841,19.734,-96.307
19:08:50:359,2.364,-0.795,-0.917,0.332,-167.317,23.148,-98.184
19:08:50:36,2.365,-0.696,-1.020,0.427,-173.634,26.924,-99.923
19:08:50:377,2.382,-0.585,-1.075,0.573,176.130,28.554,-100.806
19:08:50:378,2.383,-0.544,-1.061,0.640,166.212,28.191,-100.830
19:08:50:403,2.407,-0.483,-1.014,0.667,147.691,25.292,-99.777
19:08:50:509,2.514,-0.711,-0.488,0.627,135.756,22.066,-98.111
19:08:50:568,2.572,-0.737,0.101,0.489,114.433,16.349,-93.762
19:08:50:569,2.573,-0.891,1.877,0.211,77.553,10.220,-88.911
19:08:50:569,2.574,-0.345,1.915,-0.034,50.439,5.425,-86.418
19:08:50:57,2.575,0.283,0.686,-0.306,53.937,-2.288,-83.428
19:08:50:586,2.590,0.459,0.489,-0.341,53.693,-7.164,-81.924
19:08:50:613,2.618,0.540,0.232,-0.319,50.126,-14.091,-80.750
19:08:50:614,2.619,0.759,-0.551,-0.356,53.188,-20.714,-80.911
19:08:50:726,2.731,0.993,-0.864,-0.263,55.872,-24.622,-81.124
19:08:50:726,2.731,1.300,-0.979,-0.057,53.266,-28.440,-80.842
19:08:50:726,2.731,1.139,-1.053,0.060,48.259,-29.333,-80.309
19:08:50:726,2.731,1.073,-1.191,0.093,41.621,-28.865,-79.263
19:08:50:742,2.747,0.942,-1.378,0.035,34.603,-26.627,-78.238
19:08:50:768,2.773,1.086,-0.778,-0.222,25.253,-24.363,-77.618
19:08:50:901,2.906,1.560,1.147,-0.794,6.469,-20.271,-76.805
19:08:50:929,2.934,1.109,2.005,-1.065,-4.222,-16.947,-76.984
19:08:50:93,2.935,0.293,2.574,-0.847,-25.798,-9.934,-80.793
19:08:50:961,2.965,-0.206,2.095,-0.948,-76.704,-2.253,-88.550
19:08:50:961,2.966,-1.290,1.669,-0.574,-119.812,3.853,-94.467
19:08:50:962,2.967,-1.229,0.283,-0.288,-146.620,13.205,-101.103
19:08:50:963,2.968,-1.141,-0.108,-0.036,-154.282,18.844,-104.285
19:08:50:98,2.985,-0.956,-0.740,0.183,-161.973,27.484,-108.068
19:08:51:118,3.123,-0.966,-1.263,0.335,-167.299,33.071,-109.449
19:08:51:12,3.125,-0.849,-1.489,0.672,-174.304,41.053,-109.988
19:08:51:12,3.125,-0.544,-1.286,0.813,179.483,47.520,-109.134
19:08:51:121,3.126,-0.415,-1.171,0.736,173.352,49.864,-107.982
19:08:51:197,3.202,-0.144,-1.163,0.766,156.842,49.166,-105.001
19:08:51:198,3.203,-0.398,-0.205,0.637,139.330,45.426,-100.313
19:08:51:198,3.203,-0.742,0.761,0.418,127.694,41.564,-96.330
19:08:51:199,3.204,-0.911,2.011,0.312,92.690,33.983,-90.287
19:08:51:302,3.307,-0.493,2.294,0.009,69.664,28.050,-87.925
19:08:51:303,3.308,0.139,0.848,-0.416,68.636,18.870,-86.122
19:08:51:303,3.308,0.504,0.453,-0.492,66.663,13.592,-85.090
19:08:51:304,3.309,0.552,0.075,-0.466,63.247,6.949,-84.177
19:08:51:35,3.354,0.794,-0.528,-0.638,66.804,1.682,-84.154
19:08:51:35,3.355,1.153,-1.037,-0.761,68.088,-0.277,-83.936
19:08:51:372,3.377,1.276,-1.150,-0.851,66.741,-0.131,-83.457
19:08:51:485,3.490,1.187,-1.232,-0.845,63.903,1.758,-82.910
19:08:51:486,3.491,0.825,-1.162,-0.874,54.608,7.394,-81.362
19:08:51:487,3.492,0.571,-0.379,-1.138,42.722,14.886,-80.451
19:08:51:488,3.493,0.344,0.496,-1.506,35.730,20.398,-80.324
19:08:51:533,3.538,-0.565,1.609,-1.576,35.064,29.178,-82.720
19:08:51:534,3.538,-1.333,1.850,-0.796,46.322,35.243,-85.965
19:08:51:556,3.561,-1.520,1.176,-0.434,109.280,42.772,-91.743
19:08:51:698,3.703,-1.298,0.708,0.014,159.012,49.305,-97.565
19:08:51:698,3.703,-0.977,0.601,0.350,177.796,53.908,-100.706
19:08:51:699,3.703,-0.687,-0.253,0.696,-175.827,61.213,-104.101
19:08:51:699,3.703,-0.523,-0.526,0.722,-176.937,66.159,-105.608
19:08:51:718,3.723,-0.351,-0.738,0.832,179.180,73.700,-106.929
19:08:51:718,3.723,-0.145,-0.951,0.738,172.300,79.709,-106.809
19:08:51:74,3.744,0.005,-1.116,0.763,166.503,82.407,-106.231
19:08:51:766,3.771,0.349,-1.118,0.828,157.685,84.129,-105.097
19:08:51:88,3.884,0.569,-0.647,0.863,152.897,83.468,-104.088
19:08:51:88,3.885,0.260,-0.130,0.854,145.822,78.831,-102.364
19:08:51:881,3.886,-0.001,0.582,0.661,132.705,71.302,-98.436
19:08:51:882,3.886,-0.351,1.619,0.717,124.830,66.761,-95.481
19:08:51:925,3.929,-0.694,2.141,0.262,110.991,59.530,-93.101
19:08:51:952,3.957,-0.569,0.723,-0.330,101.665,54.191,-92.539
19:08:51:953,3.958,-0.406,0.255,-0.526,96.142,46.954,-91.844
19:08:52:09,4.095,-0.274,-0.067,-0.671,93.361,40.895,-91.087
19:08:52:091,4.095,-0.135,-0.381,-0.779,92.965,37.318,-91.017
19:08:52:092,4.096,0.155,-1.075,-1.131,92.329,33.525,-90.913
19:08:52:092,4.097,0.446,-1.481,-1.603,90.420,32.680,-90.177
19:08:52:11,4.114,0.472,-1.614,-1.514,84.235,34.581,-87.487
19:08:52:111,4.115,0.214,-1.628,-1.101,73.508,39.923,-83.225
19:08:52:134,4.139,0.010,-1.361,-1.011,64.383,44.524,-80.423
19:08:52:159,4.164,-0.313,-0.641,-1.252,47.249,51.902,-77.294
19:08:52:269,4.273,-0.907,1.112,-1.847,34.927,56.913,-76.254
19:08:52:269,4.274,-1.241,1.795,-1.293,24.714,65.137,-77.033
19:08:52:292,4.297,-1.323,2.144,-0.486,16.526,74.042,-82.286
19:08:52:323,4.328,-1.083,2.126,0.044,-11.925,80.464,-86.806
19:08:52:324,4.329,-0.691,1.526,1.019,-140.358,91.031,-93.589
19:08:52:325,4.330,-0.506,1.059,1.138,-159.608,97.518,-97.471
19:08:52:346,4.351,-0.007,0.269,1.199,-172.266,106.127,-102.165
19:08:52:347,4.352,0.365,-0.594,1.094,179.372,112.818,-105.561
19:08:52:457,4.461,0.435,-0.856,0.961,175.328,116.003,-107.220
19:08:52:458,4.462,0.574,-1.113,0.955,171.094,118.961,-109.085
19:08:52:458,4.463,0.526,-1.376,0.803,168.336,119.348,-109.534
19:08:52:459,4.464,0.650,-1.428,0.650,165.017,118.467,-108.793
19:08:52:476,4.480,0.752,-0.999,0.719,163.695,116.164,-106.811
19:08:52:502,4.506,0.489,-0.452,0.838,160.190,112.574,-104.622
19:08:52:528,4.533,-0.150,0.477,0.874,141.816,104.098,-99.167
19:08:52:553,4.558,-0.363,0.897,0.806,122.525,98.401,-94.857
19:08:52:607,4.612,-0.506,2.110,0.495,86.804,90.354,-89.738
19:08:52:695,4.699,-0.699,1.312,-0.227,65.841,84.418,-87.854
19:08:52:695,4.699,-0.655,0.802,-0.587,66.670,76.197,-86.425
19:08:52:695,4.700,-0.396,0.148,-0.412,69.224,69.260,-86.070
19:08:52:695,4.700,-0.344,-0.258,-0.329,71.867,64.954,-86.467
19:08:52:711,4.716,-0.284,-0.585,-0.516,78.730,58.434,-87.733
19:08:52:851,4.856,-0.246,-0.922,-0.935,83.443,54.358,-88.643
19:08:52:852,4.857,0.008,-1.117,-1.127,87.923,49.527,-89.546
19:08:52:853,4.858,0.239,-1.287,-1.057,86.890,47.412,-89.305
19:08:52:854,4.858,0.233,-1.318,-1.043,83.714,47.393,-88.669
19:08:52:872,4.876,0.140,-1.162,-0.919,74.232,49.456,-87.421
19:08:52:872,4.877,0.056,-0.580,-1.067,60.730,52.065,-86.577
19:08:52:895,4.900,-0.177,0.010,-1.252,20.403,56.918,-85.439
19:08:53:088,5.093,-0.618,1.525,-1.214,-12.941,62.780,-85.390
19:08:53:089,5.094,-0.718,1.545,-0.346,-104.489,76.173,-91.486
19:08:53:09,5.095,-0.697,1.681,-0.043,-118.310,82.469,-94.569
19:08:53:14,5.145,-0.430,1.882,0.739,-127.471,92.215,-98.696
19:08:53:14,5.145,-0.109,0.494,1.199,-143.704,100.654,-101.794
19:08:53:141,5.146,-0.008,-0.213,1.151,-160.230,105.275,-103.499
19:08:53:142,5.147,0.293,-0.828,1.014,-178.283,111.216,-105.410
19:08:53:245,5.250,0.761,-1.116,1.228,177.110,115.231,-105.819
19:08:53:246,5.250,0.882,-1.134,1.044,173.470,119.015,-105.781
19:08:53:247,5.251,0.777,-1.346,0.755,164.984,118.417,-105.058
19:08:53:247,5.252,0.727,-1.367,0.681,157.859,116.551,-103.598
19:08:53:265,5.270,0.790,-0.725,0.916,154.842,113.232,-100.109
19:08:53:266,5.271,0.130,0.267,1.285,163.407,109.903,-96.902
19:08:53:289,5.294,-0.825,1.217,0.786,-103.403,103.435,-90.777
19:08:53:317,5.322,-0.636,1.569,0.279,-56.898,97.442,-85.331
19:08:53:428,5.433,-0.727,1.058,0.014,-39.499,93.808,-81.844
19:08:53:429,5.434,-0.675,0.397,-0.292,-22.707,89.071,-77.547
19:08:53:43,5.434,-0.504,0.360,-0.506,-22.207,85.923,-75.019
19:08:53:431,5.435,-0.298,0.261,-0.667,-26.430,81.497,-71.608
19:08:53:446,5.450,-0.248,-0.310,-0.884,-27.665,79.215,-70.462
19:08:53:474,5.479,-0.241,-0.619,-0.892,-26.482,76.811,-69.752
19:08:53:499,5.504,-0.058,-0.823,-0.813,-26.925,75.541,-69.835
19:08:53:524,5.529,0.045,-1.143,-0.770,-27.733,75.471,-70.449
19:08:53:638,5.643,0.123,-1.152,-0.928,-31.880,75.780,-71.898
19:08:53:639,5.644,0.084,-1.090,-0.955,-36.928,76.271,-73.240
19:08:53:639,5.644,-0.169,-0.546,-1.015,-46.191,77.770,-75.618
19:08:53:656,5.661,-1.192,0.627,-0.827,-57.267,83.471,-80.330
19:08:53:682,5.687,-1.208,1.264,-0.154,-66.163,89.774,-82.849
19:08:53:71,5.715,-1.417,1.659,0.052,-72.526,94.970,-84.593
19:08:53:822,5.827,-1.313,1.510,0.610,-82.830,103.217,-87.882
19:08:53:823,5.827,-0.633,0.818,1.163,-93.375,112.098,-90.956
19:08:53:823,5.828,-0.166,0.173,1.312,-98.881,118.334,-92.523
19:08:53:824,5.829,0.013,-0.173,0.953,-103.647,126.960,-93.901
19:08:53:897,5.902,0.206,-0.504,0.752,-105.123,132.001,-94.186
19:08:53:898,5.903,0.446,-0.678,0.643,-104.299,138.403,-93.646
19:08:53:899,5.904,0.615,-0.866,0.440,-101.008,143.300,-92.599
19:08:54:035,6.040,0.661,-0.909,0.427,-99.300,145.471,-92.102
19:08:54:035,6.040,0.601,-0.857,0.410,-97.796,146.512,-91.633
19:08:54:035,6.040,0.465,-0.368,0.479,-96.281,145.814,-91.262
19:08:54:035,6.040,0.269,0.176,0.654,-88.725,142.433,-89.747
19:08:54:055,6.060,-0.149,1.129,0.651,-76.380,137.043,-87.186
19:08:54:055,6.060,-0.313,1.558,0.186,-67.932,133.583,-85.151
19:08:54:076,6.081,-0.507,1.257,-0.276,-57.724,128.920,-83.153
19:08:54:271,6.276,-0.415,0.372,-0.280,-51.583,127.165,-82.522
19:08:54:271,6.276,-0.303,0.106,-0.309,-50.114,126.432,-82.273
19:08:54:272,6.277,-0.292,-0.335,-0.294,-50.159,126.702,-82.718
19:08:54:272,6.277,-0.286,-0.611,-0.316,-50.364,126.964,-83.182
19:08:54:294,6.299,-0.369,-0.784,-0.377,-51.692,127.134,-83.638
19:08:54:295,6.300,-0.447,-0.984,-0.406,-51.818,127.102,-83.630
19:08:54:296,6.301,-0.481,-0.969,-0.404,-53.058,127.611,-83.317
19:08:54:297,6.302,-0.520,-0.874,-0.449,-55.512,129.370,-82.696
19:08:54:396,6.400,-0.601,-0.763,-0.463,-56.395,131.484,-82.190
19:08:54:396,6.401,-1.325,0.112,-0.499,-56.789,135.726,-81.158
19:08:54:505,6.510,-1.713,1.242,-0.264,-54.863,139.495,-79.925
19:08:54:506,6.511,-1.184,1.343,0.630,-52.475,148.134,-79.933
19:08:54:507,6.512,-1.141,1.340,1.105,-55.335,157.178,-82.276
19:08:54:585,6.590,-0.024,0.552,1.019,-78.009,169.560,-87.622
19:08:54:585,6.590,0.363,0.128,0.684,-87.614,173.967,-89.512
19:08:54:586,6.591,0.567,-0.273,0.579,-99.004,179.558,-91.756
19:08:54:587,6.592,0.455,-0.582,0.519,-110.481,-176.150,-93.268
19:08:54:607,6.612,0.598,-0.585,0.330,-115.513,-173.661,-93.698
19:08:54:607,6.612,0.739,-0.750,-0.019,-117.824,-170.832,-93.258
19:08:54:608,6.613,0.689,-0.876,-0.246,-120.132,-169.983,-92.489
19:08:54:682,6.687,0.603,-0.960,-0.332,165.187,-170.386,-91.304
19:08:54:683,6.688,0.550,-0.911,-0.703,88.625,-172.233,-89.866
19:08:54:795,6.800,0.630,-0.078,-0.461,75.726,-174.461,-88.368
19:08:54:795,6.800,0.623,1.647,0.087,38.335,-179.313,-85.285
19:08:54:795,6.800,0.201,1.976,0.272,26.561,176.944,-83.078
19:08:54:796,6.801,0.000,1.312,0.400,39.951,171.300,-79.655
19:08:54:815,6.820,-0.469,0.748,0.523,48.188,167.836,-78.147
19:08:54:815,6.820,-0.773,0.678,0.493,51.218,161.810,-76.644
19:08:54:837,6.842,-0.914,-0.159,0.419,55.021,155.751,-76.469
19:08:54:863,6.868,-0.958,-0.908,0.150,58.962,151.983,-76.902
19:08:54:891,6.896,-0.934,-0.984,-0.011,62.258,147.084,-77.931
19:08:54:974,6.979,-1.089,-1.117,-0.106,62.382,145.307,-78.655
19:08:54:975,6.980,-1.117,-1.269,-0.201,60.939,142.972,-79.507
19:08:54:975,6.980,-0.993,-1.287,-0.166,55.719,144.240,-79.408
19:08:55:024,7.029,-0.890,-1.072,-0.119,48.990,145.752,-78.963
19:08:55:024,7.029,-0.927,-0.706,0.174,36.176,149.585,-78.041
19:08:55:076,7.081,-1.173,-0.267,0.549,28.043,152.799,-77.234
19:08:55:077,7.081,-1.479,1.141,1.356,19.740,158.650,-76.394
19:08:55:24,7.245,-0.633,1.501,1.520,11.298,166.533,-77.979
19:08:55:24,7.245,-0.438,1.647,1.532,-2.741,171.871,-80.816
19:08:55:241,7.246,0.135,1.562,1.263,-48.496,-179.830,-85.953
19:08:55:242,7.247,0.693,0.930,0.711,-82.428,-174.072,-89.173
19:08:55:263,7.267,0.984,0.176,0.251,-114.773,-165.270,-93.384
19:08:55:263,7.268,0.958,-0.317,-0.046,-131.327,-156.181,-97.152
19:08:55:264,7.269,1.011,-0.568,-0.418,-137.694,-149.984,-99.039
19:08:55:398,7.403,1.275,-1.034,-0.988,-145.862,-141.099,-100.492
19:08:55:398,7.403,1.023,-1.206,-0.906,-152.759,-137.527,-100.189
19:08:55:399,7.404,0.720,-1.405,-0.927,-167.558,-134.945,-98.907
19:08:55:4,7.405,0.343,-1.046,-1.045,177.830,-135.313,-96.174
19:08:55:447,7.451,0.287,-0.645,-0.908,163.394,-138.000,-93.472
19:08:55:447,7.452,0.512,0.788,-0.162,52.702,-144.451,-87.435
19:08:55:448,7.453,0.377,1.505,0.131,38.716,-149.411,-83.000
19:08:55:467,7.472,-0.016,1.779,0.280,28.744,-156.834,-77.374
19:08:55:608,7.613,-0.426,1.244,0.586,30.903,-164.783,-74.293
19:08:55:608,7.613,-0.614,0.585,0.720,35.087,-169.931,-73.210
19:08:55:609,7.614,-0.738,-0.278,0.619,40.217,-176.965,-72.350
19:08:55:61,7.615,-0.827,-0.734,0.576,41.892,178.796,-72.205
19:08:55:659,7.664,-1.071,-0.856,0.545,42.224,173.299,-72.412
19:08:55:659,7.664,-1.207,-1.085,0.432,42.600,170.970,-72.478
19:08:55:659,7.664,-1.201,-1.153,0.403,43.699,171.384,-72.498
19:08:55:792,7.797,-1.032,-1.236,0.429,43.167,174.283,-71.971
19:08:55:792,7.797,-0.924,-1.067,0.525,39.825,177.438,-71.430
19:08:55:793,7.798,-0.915,-0.409,0.956,31.706,-176.494,-70.913
19:08:55:793,7.798,-0.907,1.316,1.983,26.599,-171.553,-70.699
19:08:55:811,7.816,-0.270,1.494,1.900,25.481,-162.240,-72.516
19:08:55:812,7.817,1.095,1.298,1.166,28.799,-152.926,-76.843
19:08:55:837,7.841,0.972,1.011,1.047,30.751,-147.749,-79.902
19:08:55:975,7.980,1.131,0.929,0.424,25.136,-140.388,-84.664
19:08:55:976,7.981,0.933,0.440,0.010,8.910,-135.406,-87.460
19:08:55:976,7.981,0.945,0.097,-0.302,-148.338,-127.916,-91.202
19:08:55:977,7.982,0.776,-0.476,-0.476,-172.269,-120.696,-94.153
19:08:56:054,8.058,0.646,-0.603,-0.629,-171.821,-115.875,-95.569
19:08:56:054,8.059,0.389,-0.691,-0.873,-167.117,-108.933,-96.876
19:08:56:055,8.059,0.027,-0.769,-0.980,-168.393,-105.336,-97.246
19:08:56:056,8.060,-0.147,-0.920,-0.900,173.740,-102.712,-97.721
19:08:56:177,8.182,-0.408,-0.834,-0.904,145.196,-102.787,-97.634
19:08:56:204,8.208,-0.484,-0.104,-0.964,126.500,-104.365,-96.610
19:08:56:369,8.374,-0.294,0.540,-0.719,96.669,-109.254,-91.911
19:08:56:369,8.374,0.148,1.339,-0.541,82.615,-112.743,-87.239
19:08:56:37,8.375,0.446,1.810,-0.218,69.584,-117.609,-80.621
19:08:56:397,8.402,0.061,0.310,0.779,62.188,-126.058,-72.911
19:08:56:398,8.402,0.014,-0.092,0.848,60.165,-131.832,-70.552
19:08:56:398,8.402,-0.150,-1.020,0.945,59.330,-136.055,-69.786
19:08:56:398,8.403,-0.466,-1.207,1.169,55.528,-142.186,-69.311
19:08:56:421,8.425,-0.799,-1.258,1.341,47.825,-145.416,-68.220
19:08:56:422,8.426,-0.691,-1.180,1.440,43.712,-145.328,-66.946
19:08:56:422,8.427,-0.385,-1.345,1.369,40.249,-142.520,-65.141
19:08:56:423,8.428,-0.292,-1.361,1.271,37.670,-139.460,-64.688
19:08:56:52,8.525,0.105,-0.715,1.530,30.231,-134.508,-65.240
19:08:56:521,8.526,0.527,1.192,2.144,17.477,-129.348,-67.719
19:08:56:549,8.554,0.980,1.863,1.711,7.665,-124.609,-71.075
19:08:56:549,8.554,1.260,2.353,0.399,-11.304,-115.923,-78.694
19:08:56:55,8.555,1.479,1.564,-0.052,-36.143,-110.265,-84.359
19:08:56:6,8.605,1.111,1.476,-0.755,-108.402,-102.093,-92.868
19:08:56:6,8.605,0.337,0.683,-0.897,-128.183,-93.821,-99.876
19:08:56:622,8.627,0.103,-0.086,-0.873,-135.930,-88.302,-103.654
19:08:56:736,8.741,-0.195,-0.498,-0.963,-144.018,-79.789,-108.029
19:08:56:737,8.742,-0.340,-0.773,-1.184,-148.549,-74.265,-109.787
19:08:56:738,8.743,-0.468,-1.295,-1.247,-155.159,-67.857,-110.117
19:08:56:738,8.743,-0.506,-1.578,-0.974,-162.348,-64.267,-109.231
19:08:56:782,8.787,-0.632,-1.471,-0.989,-165.035,-62.787,-107.896
19:08:56:783,8.788,-0.915,-0.893,-0.792,-160.928,-62.598,-104.044
19:08:56:806,8.810,-0.577,0.361,-0.890,-154.595,-64.823,-100.355
19:08:56:938,8.943,-0.151,1.466,-0.877,-147.949,-72.523,-92.459
19:08:56:999,9.004,0.195,1.872,-0.413,39.073,-81.667,-84.561
19:08:57:,9.005,0.258,1.967,0.060,36.187,-87.697,-81.126
19:08:57:001,9.006,0.440,1.129,0.622,43.558,-97.655,-78.711
19:08:57:002,9.007,0.277,0.151,0.772,49.606,-103.783,-78.023
19:08:57:025,9.030,0.168,-0.219,0.569,54.780,-111.616,-77.999
19:08:57:025,9.030,0.252,-0.850,0.553,58.133,-116.138,-78.704
19:08:57:026,9.031,0.139,-1.146,0.770,62.126,-122.466,-79.993
19:08:57:027,9.032,0.046,-1.399,1.155,58.849,-126.984,-80.344
19:08:57:098,9.103,-0.040,-1.430,1.112,49.069,-128.472,-79.783
19:08:57:099,9.104,-0.045,-1.242,0.988,15.427,-129.167,-78.243
19:08:57:124,9.129,-0.068,-0.870,0.972,-11.512,-128.684,-77.031
19:08:57:124,9.129,-0.006,-0.479,1.089,-32.513,-126.289,-75.319
19:08:57:176,9.181,0.311,0.180,1.400,-37.016,-121.443,-74.551
19:08:57:177,9.181,0.664,1.212,1.679,-38.397,-117.311,-75.023
19:08:57:202,9.207,0.658,2.045,0.666,-51.668,-108.817,-78.617
19:08:57:314,9.319,0.622,2.134,0.075,-66.901,-102.387,-82.667
19:08:57:314,9.319,0.562,1.931,-0.251,-87.326,-92.374,-89.055
19:08:57:315,9.320,0.038,1.188,-0.929,-104.933,-82.126,-95.700
19:08:57:315,9.320,-0.101,0.373,-1.059,-116.081,-76.063,-99.644
19:08:57:358,9.363,-0.278,-0.532,-0.906,-132.180,-68.456,-104.613
19:08:57:386,9.391,-0.460,-0.718,-1.052,-141.156,-63.848,-107.427
19:08:57:387,9.391,-0.713,-0.995,-1.173,-151.040,-58.754,-110.370
19:08:57:41,9.415,-0.720,-1.127,-1.139,-159.569,-57.701,-111.876
19:08:57:519,9.523,-0.674,-1.262,-0.984,-167.828,-59.547,-112.305
19:08:57:552,9.556,-0.796,-1.197,-0.549,177.285,-64.706,-112.061
19:08:57:552,9.557,-0.726,-0.786,-0.469,168.793,-69.074,-111.256
19:08:57:552,9.557,-0.115,0.180,-0.893,160.177,-76.925,-108.045
19:08:57:552,9.557,0.546,1.162,-0.715,148.074,-85.934,-101.802
19:08:57:597,9.602,0.550,1.629,-0.479,135.572,-91.151,-97.959
19:08:57:598,9.603,0.367,1.446,0.345,106.111,-98.695,-93.049
19:08:57:702,9.707,0.315,0.567,0.599,91.362,-103.616,-90.332
19:08:57:703,9.708,0.294,0.259,0.626,80.581,-110.085,-87.123
19:08:57:731,9.735,0.268,-0.526,0.662,76.487,-115.874,-85.254
19:08:57:731,9.736,0.174,-1.030,0.913,74.565,-119.601,-84.347
19:08:57:732,9.737,0.022,-1.134,1.142,68.048,-124.093,-82.694
19:08:57:781,9.786,-0.085,-1.233,1.127,59.487,-125.755,-81.215
19:08:57:781,9.786,0.033,-1.226,1.106,39.547,-126.597,-78.984
19:08:57:919,9.924,0.153,-0.884,1.093,9.837,-125.237,-75.895
19:08:57:919,9.924,0.158,-0.583,1.117,-6.884,-122.921,-73.527
19:08:57:919,9.924,0.386,0.052,1.210,-18.901,-116.854,-70.887
19:08:57:92,9.925,0.960,0.988,1.548,-21.355,-111.587,-70.015
19:08:57:967,9.972,1.193,1.559,0.995,-28.165,-102.253,-70.951
19:08:57:968,9.973,0.945,2.405,0.244,-39.324,-95.061,-73.888
19:08:57:968,9.973,0.902,1.939,-0.505,-57.153,-84.702,-79.988
19:08:57:987,9.992,0.459,1.165,-1.029,-79.493,-75.042,-86.905
19:08:58:154,10.159,0.160,0.646,-0.812,-94.157,-69.091,-91.332
19:08:58:155,10.160,-0.128,0.056,-0.888,-111.526,-60.313,-97.783
19:08:58:155,10.160,-0.266,-0.528,-1.044,-121.399,-54.901,-101.567
19:08:58:156,10.161,-0.320,-0.833,-0.939,-135.123,-48.538,-105.945
19:08:58:365,10.370,-0.388,-1.075,-0.747,-145.857,-43.898,-109.009
19:08:58:366,10.371,-0.502,-1.140,-0.735,-151.181,-41.401,-110.459
19:08:58:366,10.371,-0.602,-1.267,-0.624,-158.237,-39.292,-111.618
19:08:58:367,10.372,-0.790,-0.959,-0.342,-162.296,-38.879,-111.914
19:08:58:391,10.396,-0.858,-0.326,-0.317,-168.182,-39.723,-111.682
19:08:58:391,10.396,-0.531,0.171,-0.218,-179.063,-44.628,-109.460
19:08:58:391,10.396,-0.351,0.451,-0.015,166.491,-48.975,-105.339
19:08:58:392,10.397,-0.561,1.640,-0.321,138.016,-52.638,-97.278
19:08:58:495,10.500,-0.197,1.612,-0.029,110.910,-54.541,-92.887
19:08:58:496,10.500,0.182,0.694,0.229,76.636,-58.335,-86.881
19:08:58:497,10.501,0.293,-0.043,0.122,68.204,-61.866,-82.640
19:08:58:498,10.502,0.417,-0.278,0.189,64.076,-64.528,-80.477
19:08:58:514,10.518,0.761,-0.765,0.426,57.300,-69.004,-77.832
19:08:58:547,10.552,0.759,-1.043,0.699,50.891,-71.953,-76.149
19:08:58:547,10.552,0.940,-0.832,0.880,36.213,-75.164,-73.188
19:08:58:548,10.553,0.920,-0.721,0.966,27.969,-75.805,-71.319
19:08:58:568,10.573,0.941,-0.767,0.821,23.897,-73.563,-69.592
19:08:58:568,10.573,1.072,-0.758,0.506,25.711,-67.848,-68.504
19:08:58:706,10.710,1.513,0.051,0.332,24.245,-63.196,-68.203
19:08:58:707,10.712,1.775,1.050,-0.083,15.868,-56.184,-69.182
19:08:58:707,10.712,1.197,1.824,-0.829,6.008,-48.132,-72.554
19:08:58:708,10.713,0.715,1.751,-1.060,1.203,-42.542,-75.650
19:08:58:861,10.865,0.062,1.127,-1.124,-7.336,-35.206,-80.891
19:08:58:861,10.865,-0.184,0.699,-0.909,-26.996,-31.152,-84.440
19:08:58:918,10.923,-0.328,0.356,-0.658,-82.815,-25.223,-89.243
19:08:58:918,10.923,-0.469,-0.019,-0.457,-105.341,-20.913,-92.124
19:08:58:918,10.923,-0.625,-0.323,-0.361,-123.164,-14.038,-95.845
19:08:58:918,10.923,-0.728,-0.568,-0.287,-135.480,-7.200,-98.701
19:08:58:943,10.948,-0.891,-0.729,-0.164,-141.571,-3.003,-99.976
19:08:58:943,10.948,-0.920,-0.850,0.026,-149.446,2.082,-100.980
19:08:58:944,10.949,-0.811,-0.867,0.223,-155.250,4.016,-101.186
19:08:58:944,10.949,-0.800,-0.807,0.312,-166.002,4.859,-101.305
19:08:59:039,11.043,-0.735,-0.507,0.225,-177.812,3.401,-100.803
19:08:59:074,11.079,-0.677,-0.342,0.118,174.626,1.200,-99.374
19:08:59:074,11.079,-0.587,0.692,-0.124,169.304,-2.795,-94.872
19:08:59:074,11.079,-0.454,1.690,-0.118,-165.411,-5.640,-91.369
19:08:59:075,11.079,0.011,1.410,-0.070,13.874,-10.479,-86.250
19:08:59:251,11.256,0.448,0.833,-0.049,39.483,-15.254,-82.053
19:08:59:252,11.256,0.469,0.369,0.021,43.771,-18.132,-79.929
19:08:59:335,11.340,0.517,-0.149,0.017,44.483,-22.458,-77.952
19:08:59:336,11.341,0.577,-0.385,-0.002,44.047,-25.427,-77.287
19:08:59:336,11.341,0.846,-0.813,-0.034,42.904,-29.723,-76.616
19:08:59:337,11.342,1.030,-1.069,0.140,37.814,-33.544,-75.843
19:08:59:361,11.366,1.049,-1.085,0.171,29.914,-35.309,-75.204
19:08:59:362,11.367,0.986,-1.105,0.281,13.679,-36.236,-74.249
19:08:59:363,11.368,0.985,-0.718,0.211,1.737,-35.833,-73.899
19:08:59:363,11.368,0.984,-0.316,0.033,-18.415,-33.548,-73.911
19:08:59:495,11.500,1.767,0.813,-0.504,-37.079,-30.771,-74.762
19:08:59:495,11.500,1.083,1.874,-0.849,-51.008,-26.233,-77.296
19:08:59:495,11.500,0.191,2.067,-0.877,-70.758,-17.456,-83.266
19:08:59:495,11.500,-0.038,1.990,-1.130,-84.963,-11.474,-88.398
19:08:59:518,11.523,-0.751,1.209,-0.908,-109.215,-2.318,-95.905
19:08:59:519,11.524,-1.019,0.248,-0.452,-126.752,7.155,-102.291
19:08:59:519,11.524,-0.966,-0.144,-0.295,-135.575,13.377,-105.922
19:08:59:52,11.525,-0.908,-0.654,-0.110,-146.617,22.453,-110.037
19:08:59:652,11.657,-1.056,-1.090,0.005,-152.888,28.033,-111.593
19:08:59:652,11.657,-1.038,-1.322,0.247,-160.233,35.943,-112.446
19:08:59:653,11.658,-0.830,-1.348,0.558,-163.694,40.574,-112.227
19:08:59:654,11.659,-0.636,-1.121,0.893,-168.822,45.335,-110.837
19:08:59:699,11.704,-0.480,-0.710,1.066,-176.721,45.793,-108.544
19:08:59:7,11.705,-0.575,-0.161,0.758,176.317,42.930,-106.710
19:08:59:7,11.705,-0.609,0.527,0.306,171.746,34.891,-101.860
19:08:59:719,11.724,-0.803,1.891,0.260,-171.747,29.384,-98.412
19:08:59:886,11.891,-0.436,2.113,0.095,-139.217,19.870,-95.686
19:08:59:887,11.892,0.211,0.718,-0.345,-158.491,9.497,-93.989
19:08:59:888,11.893,0.431,0.290,-0.308,173.362,3.600,-93.326
19:09:00:046,12.051,0.677,-0.653,-0.551,125.780,-7.280,-92.395
19:09:00:046,12.051,1.257,-0.993,-0.681,99.935,-11.379,-90.828
19:09:00:046,12.051,1.318,-1.005,-0.601,69.006,-11.440,-88.414
19:09:00:046,12.051,1.280,-1.122,-0.646,47.057,-9.787,-86.661
19:09:00:071,12.076,1.015,-1.087,-0.805,21.291,-5.034,-83.607
19:09:00:072,12.077,0.893,-0.073,-1.086,5.199,-0.383,-82.008
19:09:00:072,12.077,0.706,0.852,-1.486,-10.942,8.285,-80.570
19:09:00:073,12.078,0.208,1.528,-1.631,-23.255,17.387,-82.446
19:09:00:09,12.095,-0.610,1.779,-1.209,-45.358,24.661,-85.195
19:09:00:091,12.096,-1.177,1.477,-0.819,-93.364,34.062,-90.310
19:09:00:116,12.121,-1.235,0.934,-0.384,-123.048,39.718,-93.722
19:09:00:28,12.285,-0.919,0.585,0.082,-137.772,47.298,-98.556
19:09:00:281,12.286,-0.838,-0.133,0.380,-148.515,54.147,-102.858
19:09:00:282,12.287,-0.734,-0.503,0.411,-154.440,58.378,-105.315
19:09:00:282,12.287,-0.740,-0.830,0.619,-160.923,64.724,-108.309
19:09:00:304,12.309,-0.633,-0.930,0.796,-163.957,68.866,-109.494
19:09:00:304,12.309,-0.352,-1.063,1.009,-167.575,74.133,-109.453
19:09:00:305,12.310,0.105,-1.060,1.076,-172.459,77.176,-107.927
19:09:00:323,12.328,0.274,-0.826,1.090,-178.539,77.466,-106.469
19:09:00:408,12.413,0.324,-0.351,0.875,169.269,73.907,-102.697
19:09:00:409,12.414,0.034,0.680,0.703,155.065,70.160,-98.660
19:09:00:41,12.415,-0.457,1.419,0.537,106.543,63.867,-91.816
19:09:00:428,12.433,-0.409,1.965,-0.026,65.620,57.239,-85.774
19:09:00:455,12.460,-0.194,1.215,-0.479,63.047,53.258,-82.792
19:09:00:482,12.487,-0.143,0.498,-0.554,64.443,48.505,-79.386
19:09:00:508,12.513,-0.179,0.151,-0.582,65.208,45.959,-77.361
19:09:00:62,12.625,-0.094,-0.645,-0.606,65.484,42.512,-74.220
19:09:00:621,12.626,0.070,-0.884,-0.635,64.637,39.992,-72.804
19:09:00:622,12.627,0.307,-1.101,-1.096,59.537,36.704,-71.259
19:09:00:623,12.628,0.457,-1.264,-1.268,48.232,35.546,-67.945
19:09:00:667,12.672,0.425,-1.028,-1.126,38.762,36.186,-65.492
19:09:00:668,12.673,0.546,-0.892,-1.152,25.961,38.997,-62.435
19:09:00:692,12.697,0.363,-0.694,-1.275,20.653,42.255,-61.358
19:09:00:804,12.809,0.034,-0.073,-1.582,17.497,48.919,-61.479
19:09:00:805,12.810,-0.499,0.836,-1.796,18.773,56.625,-64.040
19:09:00:806,12.811,-0.994,1.604,-0.848,20.103,63.430,-66.499
19:09:00:807,12.812,-1.185,1.209,-0.627,23.180,70.206,-73.303
19:09:00:822,12.827,-1.192,1.985,0.085,25.057,73.425,-80.343
19:09:00:85,12.855,-1.057,1.685,0.634,50.709,80.288,-88.356
19:09:00:876,12.881,-0.543,0.382,1.020,164.043,85.753,-95.818
19:09:00:903,12.907,-0.338,-0.177,1.058,173.205,89.676,-100.133
19:09:00:985,12.990,-0.158,-0.576,1.131,-179.212,96.622,-105.539
19:09:00:986,12.991,0.102,-1.184,1.530,-179.123,101.216,-108.091
19:09:00:987,12.992,0.313,-1.547,1.164,177.542,106.537,-109.428
19:09:01:006,13.011,0.393,-1.507,0.948,175.774,110.443,-109.109
19:09:01:032,13.037,0.503,-1.387,0.977,174.200,112.185,-107.752
19:09:01:058,13.063,0.623,-1.032,0.837,169.368,112.600,-103.595
19:09:01:087,13.092,0.257,-0.116,0.948,161.898,110.880,-99.791
19:09:01:199,13.204,-0.437,1.183,0.894,109.497,104.649,-91.859
19:09:01:2,13.205,-0.285,1.756,0.585,50.351,97.050,-84.061
19:09:01:2,13.205,-0.502,2.061,0.204,35.938,90.768,-80.395
19:09:01:201,13.206,-0.652,1.278,-0.535,31.560,79.838,-77.519
19:09:01:215,13.220,-0.323,0.619,-0.809,30.929,72.869,-76.467
19:09:01:248,13.253,-0.031,-0.065,-0.909,31.071,63.415,-76.069
19:09:01:248,13.253,0.047,-0.535,-0.877,33.411,58.124,-76.779
19:09:01:378,13.383,-0.031,-0.866,-0.976,39.716,51.923,-78.014
19:09:01:379,13.384,0.150,-1.020,-1.001,44.783,48.035,-78.281
19:09:01:409,13.414,0.239,-1.140,-0.922,46.041,46.583,-78.208
19:09:01:409,13.414,0.276,-1.168,-0.777,43.448,45.886,-77.885
19:09:01:409,13.414,0.245,-1.060,-0.690,38.986,46.476,-77.650
19:09:01:41,13.415,0.169,-0.922,-0.762,29.698,48.991,-77.345
19:09:01:425,13.430,-0.318,0.012,-1.168,16.519,53.098,-77.165
19:09:01:453,13.458,-0.447,1.501,-1.690,6.239,56.302,-77.169
19:09:01:478,13.483,-0.715,1.884,-0.830,-4.195,63.257,-80.094
19:09:01:56,13.565,-0.836,1.722,-0.567,-10.540,68.599,-83.700
19:09:01:59,13.595,-0.723,2.346,0.098,-90.191,76.293,-90.009
19:09:01:59,13.595,-0.586,1.017,1.380,-144.811,87.552,-93.184
19:09:01:59,13.595,-0.298,0.606,0.438,-171.321,90.815,-95.881
19:09:01:64,13.645,0.009,-0.163,0.947,-175.786,98.353,-101.399
19:09:01:64,13.645,0.330,-0.462,0.960,-173.714,104.292,-105.011
19:09:01:662,13.667,0.567,-0.691,1.112,-172.343,112.378,-108.142
19:09:01:69,13.695,0.439,-1.254,0.822,177.150,116.365,-109.155
19:09:01:801,13.806,0.535,-1.448,0.725,168.715,116.792,-109.585
19:09:01:801,13.806,0.673,-1.321,0.759,161.875,115.750,-109.591
19:09:01:802,13.807,0.743,-1.077,0.604,158.875,113.251,-108.905
19:09:01:852,13.856,0.705,-0.789,0.741,151.694,106.878,-106.825
19:09:01:853,13.857,0.152,-0.097,1.001,140.517,97.125,-102.675
19:09:01:853,13.858,-0.236,0.839,1.049,125.549,89.628,-98.045
19:09:01:872,13.877,-0.611,2.203,0.919,101.438,79.246,-92.272
19:09:01:958,13.963,-0.742,2.175,0.247,87.133,72.410,-89.395
19:09:01:958,13.963,-0.610,1.006,-0.347,78.425,63.188,-86.495
19:09:01:958,13.963,-0.412,0.465,-0.484,75.908,55.583,-84.615
19:09:01:977,13.982,-0.403,0.112,-0.628,75.832,50.566,-83.903
19:09:02:003,14.008,-0.268,-0.471,-0.889,76.435,43.381,-83.173
19:09:02:031,14.036,-0.164,-0.482,-1.062,75.963,39.855,-82.290
19:09:02:057,14.062,0.042,-0.878,-1.290,74.600,36.379,-80.558
19:09:02:164,14.169,0.306,-1.396,-1.444,72.829,35.498,-78.552
19:09:02:196,14.201,0.531,-1.542,-1.334,70.431,36.107,-76.979
19:09:02:196,14.201,0.562,-1.322,-1.327,64.701,39.694,-74.782
19:09:02:197,14.202,0.442,-1.193,-1.310,59.916,42.940,-73.278
19:09:02:217,14.222,0.099,-0.694,-1.298,51.986,48.801,-71.039
19:09:02:217,14.222,-0.683,1.071,-1.787,47.001,53.464,-70.241
19:09:02:24,14.244,-1.026,1.801,-1.431,42.133,62.906,-70.513
19:09:02:266,14.270,-1.756,2.540,0.046,49.386,71.815,-75.209
19:09:02:38,14.385,-1.350,1.036,0.877,57.501,78.228,-78.399
19:09:02:38,14.385,-1.075,0.919,0.740,71.008,85.364,-84.173
19:09:02:381,14.386,-0.894,1.208,0.944,82.568,89.865,-88.302
19:09:02:382,14.387,-0.492,0.453,1.395,109.430,96.900,-93.802
19:09:02:399,14.404,-0.043,-0.526,1.222,125.288,103.411,-98.453
19:09:02:424,14.429,0.122,-0.732,1.103,132.784,107.376,-101.195
19:09:02:45,14.454,0.430,-0.853,1.130,144.588,113.417,-104.713
19:09:02:564,14.569,0.439,-1.111,0.792,149.809,116.776,-106.367
19:09:02:564,14.569,0.521,-1.179,0.676,154.482,120.373,-108.446
19:09:02:565,14.570,0.811,-1.015,0.662,157.946,123.295,-109.488
19:09:02:566,14.571,0.876,-0.888,0.308,158.599,124.127,-109.612
19:09:02:582,14.587,0.971,-0.606,0.201,158.056,124.165,-109.369
19:09:02:608,14.612,0.649,0.105,0.542,157.114,122.859,-108.558
19:09:02:634,14.638,-0.103,0.438,0.622,147.731,117.730,-104.901
19:09:02:776,14.781,-0.435,1.241,0.682,126.554,112.753,-97.621
19:09:02:776,14.781,-0.266,1.419,0.404,109.085,110.422,-93.135
19:09:02:777,14.782,-0.214,0.685,-0.366,71.396,106.387,-87.361
19:09:02:777,14.782,-0.256,0.062,-0.159,53.888,103.172,-84.607
19:09:02:794,14.798,-0.402,-0.153,-0.194,37.654,98.000,-81.597
19:09:02:795,14.799,-0.768,-0.635,-0.633,30.074,94.242,-79.924
19:09:02:817,14.822,-0.719,-0.930,-0.919,17.301,88.594,-77.546
19:09:02:843,14.848,-0.647,-0.722,-1.174,-5.802,84.233,-74.699
19:09:02:956,14.961,-0.390,-0.437,-1.224,-19.277,82.695,-73.233
19:09:02:957,14.962,-0.513,-0.325,-1.160,-24.896,83.430,-72.414
19:09:02:958,14.963,-1.140,-0.071,-1.071,-14.571,87.764,-72.328
19:09:02:959,14.964,-1.599,0.312,-0.762,-8.095,91.886,-72.887
19:09:02:976,14.980,-1.399,1.206,0.078,-10.475,100.071,-74.316
19:09:03:001,15.006,-1.547,1.069,0.332,-15.779,105.624,-76.141
19:09:03:027,15.032,-1.064,1.460,0.989,-33.038,113.548,-81.233
19:09:03:167,15.172,-0.194,0.250,0.880,-71.136,127.618,-87.797
19:09:03:168,15.172,-0.194,-0.308,0.642,-113.545,135.411,-92.785
19:09:03:169,15.173,0.308,-0.298,0.829,-130.663,140.859,-96.470
19:09:03:169,15.174,0.502,-0.487,0.744,-142.665,149.251,-100.076
19:09:03:186,15.191,0.510,-0.806,0.648,-151.653,153.660,-101.652
19:09:03:213,15.218,0.526,-0.842,0.503,-162.334,158.617,-102.889
19:09:03:38,15.384,0.910,-0.818,0.315,-168.239,162.890,-102.895
19:09:03:38,15.385,1.061,-0.734,0.062,-172.347,165.525,-102.122
19:09:03:38,15.385,0.998,-0.223,-0.140,173.764,167.830,-99.622
19:09:03:38,15.385,0.831,-0.119,-0.105,151.459,167.849,-97.148
19:09:03:403,15.408,0.540,0.374,-0.075,92.837,166.367,-90.422
19:09:03:404,15.409,0.470,1.542,0.162,49.908,163.896,-82.678
19:09:03:405,15.409,0.022,1.846,0.193,38.972,161.346,-78.306
19:09:03:406,15.410,-0.667,1.161,0.199,42.291,157.334,-73.159
19:09:03:448,15.453,-0.621,0.145,0.065,44.918,154.977,-70.329
19:09:03:536,15.540,-0.653,-0.113,0.020,44.598,149.855,-67.976
19:09:03:536,15.540,-0.800,-0.541,-0.010,43.811,143.675,-67.673
19:09:03:536,15.541,-0.891,-0.886,-0.045,44.336,139.614,-68.146
19:09:03:537,15.542,-1.120,-1.214,-0.281,42.274,134.098,-68.892
19:09:03:552,15.557,-1.203,-1.104,-0.373,38.142,131.589,-68.915
19:09:03:607,15.612,-1.187,-0.775,-0.268,32.211,130.427,-68.983
19:09:03:608,15.613,-0.974,-0.973,-0.149,29.862,132.764,-69.255
19:09:03:659,15.664,-1.039,-0.974,-0.055,27.823,135.526,-69.366
19:09:03:715,15.720,-1.429,-0.094,0.417,19.620,140.631,-70.081
19:09:03:716,15.721,-1.390,0.776,0.826,10.191,144.518,-71.379
19:09:03:716,15.721,-1.053,1.593,0.984,-19.340,151.030,-75.120
19:09:03:736,15.740,-0.237,2.509,0.815,-52.386,159.931,-80.222
19:09:03:763,15.767,0.386,1.883,1.070,-65.015,166.716,-83.983
19:09:03:788,15.793,0.656,0.858,0.748,-89.167,176.166,-89.805
19:09:03:815,15.820,1.069,0.236,-0.038,-102.694,-177.149,-93.618
19:09:03:901,15.906,1.020,-0.124,-0.342,-115.165,-167.232,-98.668
19:09:03:901,15.906,1.075,-0.748,-0.255,-123.877,-161.803,-101.352
19:09:03:901,15.906,1.135,-1.117,-0.262,-139.073,-156.365,-103.795
19:09:03:92,15.924,1.133,-1.435,-0.360,-147.363,-152.835,-104.282
19:09:03:946,15.951,0.937,-1.353,-0.409,-148.135,-151.676,-103.733
19:09:04:001,16.006,0.771,-1.052,-0.675,-146.446,-152.174,-101.878
19:09:04:002,16.007,0.674,-0.683,-0.647,-146.103,-154.583,-100.275
19:09:04:113,16.117,0.616,0.248,-0.055,-154.059,-161.886,-96.561
19:09:04:113,16.117,0.573,0.757,0.469,97.972,-170.973,-90.284
19:09:04:114,16.118,0.459,1.192,0.255,30.562,-176.029,-86.188
19:09:04:114,16.119,-0.166,1.731,-0.142,-0.337,175.010,-81.326
19:09:04:13,16.134,-0.527,1.000,0.278,3.465,169.721,-78.979
19:09:04:185,16.190,-0.644,0.421,0.217,18.478,162.386,-76.705
19:09:04:186,16.191,-0.572,-0.202,0.160,26.430,156.990,-75.668
19:09:04:208,16.213,-0.809,-0.638,0.181,30.672,153.626,-75.510
19:09:04:295,16.299,-1.149,-1.076,0.111,34.162,149.272,-74.950
19:09:04:295,16.300,-1.384,-1.160,-0.060,32.664,147.447,-74.288
19:09:04:296,16.300,-1.457,-0.998,-0.109,28.161,147.103,-73.560
19:09:04:315,16.319,-1.338,-1.030,0.151,27.554,149.851,-72.901
19:09:04:34,16.344,-1.288,-0.903,0.372,26.732,153.396,-72.459
19:09:04:367,16.372,-1.578,0.381,1.088,20.789,160.311,-72.513
19:09:04:392,16.397,-1.198,1.299,1.805,14.926,165.464,-73.588
19:09:04:506,16.510,-0.360,1.819,1.743,-1.807,174.751,-77.794
19:09:04:507,16.511,0.377,2.085,1.578,-30.739,-175.268,-83.908
19:09:04:507,16.512,1.198,1.463,1.180,-64.840,-168.942,-88.224
19:09:04:508,16.513,1.527,0.387,0.391,-135.379,-159.884,-93.989
19:09:04:524,16.528,0.955,-0.249,0.110,-147.699,-154.219,-97.238
19:09:04:55,16.555,0.965,-0.576,0.001,-155.353,-145.335,-101.657
19:09:04:576,16.581,1.195,-0.771,-0.259,-160.133,-136.408,-104.727
19:09:04:717,16.722,1.202,-1.091,-0.589,-162.093,-130.900,-105.551
19:09:04:718,16.722,0.838,-1.277,-0.783,-163.692,-124.123,-105.162
19:09:04:719,16.723,0.636,-1.267,-0.913,-164.869,-120.647,-104.191
19:09:04:719,16.724,0.226,-0.928,-1.141,-166.992,-117.269,-101.716
19:09:04:738,16.743,0.230,-0.454,-1.089,-171.220,-117.081,-99.472
19:09:04:738,16.743,0.344,0.053,-0.693,155.238,-120.689,-94.000
19:09:04:76,16.765,0.571,1.639,-0.297,36.825,-125.699,-86.021
19:09:04:786,16.791,-0.154,2.828,-0.002,15.605,-129.502,-81.478
19:09:04:899,16.904,-0.229,1.383,0.489,35.261,-134.762,-76.343
19:09:04:9,16.905,-0.347,-0.084,0.563,47.425,-136.637,-73.405
19:09:04:901,16.906,-0.229,-0.345,0.512,49.437,-140.531,-69.923
19:09:04:902,16.906,-0.338,-0.338,0.770,44.528,-145.455,-68.597
19:09:04:918,16.923,-0.592,-0.593,0.825,41.526,-148.958,-68.390
19:09:04:945,16.950,-0.843,-1.088,0.828,37.640,-153.750,-68.732
19:09:04:971,16.976,-0.772,-1.182,0.791,33.553,-156.126,-69.117
19:09:05:162,17.167,-0.734,-1.083,0.792,27.039,-157.514,-70.381
19:09:05:163,17.168,-0.580,-1.155,0.773,23.513,-155.682,-71.802
19:09:05:164,17.169,-0.450,-1.076,0.898,20.125,-153.302,-72.366
19:09:05:165,17.170,-0.210,-0.323,1.306,7.903,-148.424,-72.727
19:09:05:188,17.193,-0.024,1.605,2.252,-2.780,-145.730,-74.396
19:09:05:189,17.194,0.657,1.892,1.287,-20.793,-137.769,-78.255
19:09:05:19,17.195,1.114,2.107,1.019,-50.122,-128.638,-84.604
19:09:05:191,17.196,1.342,1.922,0.445,-84.101,-122.935,-89.298
19:09:05:263,17.268,1.127,0.662,-0.549,-131.297,-114.795,-95.523
19:09:05:263,17.268,0.657,-0.116,-0.621,-147.074,-109.711,-99.070
19:09:05:288,17.293,0.531,-0.369,-0.781,-159.099,-102.218,-104.056
19:09:05:289,17.293,0.446,-0.720,-1.094,-166.275,-94.651,-107.668
19:09:05:311,17.316,0.243,-1.067,-1.370,-170.891,-90.294,-108.865
19:09:05:337,17.342,-0.114,-1.318,-1.454,-177.987,-85.452,-109.133
19:09:05:363,17.368,-0.390,-1.193,-1.335,176.303,-83.752,-108.865
19:09:05:688,17.693,-0.451,-0.860,-0.998,163.320,-84.401,-108.043
19:09:05:689,17.694,-0.260,-0.260,-0.729,151.246,-86.894,-107.182
19:09:05:69,17.695,-0.120,-0.019,-0.510,131.147,-92.876,-104.081
19:09:05:714,17.719,0.299,1.763,-0.193,94.594,-102.927,-92.058
19:09:05:714,17.719,0.123,1.111,0.331,83.857,-107.944,-86.140
19:09:05:715,17.720,0.180,0.530,0.613,77.512,-112.740,-80.902
19:09:05:74,17.745,0.079,-0.348,0.936,72.548,-122.546,-78.465
19:09:05:741,17.746,-0.098,-0.834,1.010,71.804,-126.358,-78.183
19:09:05:741,17.746,-0.330,-1.069,0.907,68.833,-131.665,-77.778
19:09:05:743,17.748,-0.378,-1.092,0.833,64.985,-134.782,-77.679
19:09:05:766,17.771,-0.390,-1.115,0.900,56.075,-138.254,-77.766
19:09:05:766,17.771,-0.279,-0.972,0.887,40.082,-139.338,-77.792
19:09:05:767,17.772,-0.184,-0.724,0.950,22.328,-138.581,-77.434
19:09:05:768,17.773,0.267,0.321,1.219,-7.679,-134.742,-76.547
19:09:05:871,17.876,0.597,1.218,1.835,-22.273,-131.445,-76.572
19:09:05:872,17.877,0.690,1.916,0.868,-49.818,-124.785,-79.485
19:09:05:872,17.877,0.438,2.334,0.125,-73.961,-115.537,-84.155
19:09:05:873,17.878,0.549,1.901,0.125,-86.821,-109.408,-88.768
19:09:05:917,17.922,0.594,0.842,-0.501,-106.959,-100.262,-96.581
19:09:05:918,17.923,0.416,0.175,-0.614,-117.448,-95.046,-100.682
19:09:05:941,17.946,0.245,-0.409,-0.745,-132.504,-86.953,-106.767
19:09:06:053,18.058,0.115,-0.679,-0.801,-144.105,-79.438,-111.357
19:09:06:054,18.059,0.033,-0.925,-1.062,-150.988,-74.778,-113.354
19:09:06:054,18.059,-0.144,-1.414,-1.272,-160.714,-69.276,-114.258
19:09:06:075,18.080,-0.353,-1.409,-1.172,-166.266,-67.121,-113.756
19:09:06:076,18.081,-0.623,-1.220,-1.120,-174.191,-65.795,-111.859
19:09:06:099,18.104,-0.538,-0.929,-0.677,176.163,-68.561,-108.992
19:09:06:124,18.129,-0.388,-0.419,-0.916,167.809,-71.946,-106.716
19:09:06:151,18.156,0.143,0.359,-0.669,150.677,-79.074,-101.284
19:09:06:265,18.270,0.618,1.600,-0.573,133.913,-84.552,-95.650
19:09:06:266,18.271,0.113,2.363,0.102,64.071,-92.639,-89.321
19:09:06:266,18.271,0.148,1.234,0.518,16.301,-101.907,-85.033
19:09:06:267,18.272,0.133,0.775,0.638,23.714,-107.734,-83.299
19:09:06:283,18.288,0.102,-0.064,0.410,31.429,-115.155,-82.298
19:09:06:31,18.315,0.094,-0.453,0.539,36.432,-119.573,-82.250
19:09:06:335,18.340,0.156,-0.920,0.812,38.920,-125.386,-82.251
19:09:06:444,18.449,0.090,-0.968,1.139,32.561,-129.184,-81.714
19:09:06:476,18.481,0.000,-1.141,1.119,26.039,-129.957,-81.105
19:09:06:477,18.482,-0.116,-1.180,0.959,10.662,-128.848,-79.425
19:09:06:477,18.482,-0.206,-1.063,0.806,-2.300,-127.014,-78.313
19:09:06:477,18.482,-0.135,-0.923,0.928,-18.604,-123.204,-77.398
19:09:06:492,18.497,0.014,-0.159,1.116,-25.798,-120.112,-77.128
19:09:06:518,18.523,0.403,1.641,1.781,-29.147,-115.191,-76.738
19:09:06:66,18.665,0.657,2.032,0.920,-35.164,-108.520,-79.030
19:09:06:66,18.665,0.854,2.586,0.207,-52.238,-103.544,-82.937
19:09:06:66,18.665,0.777,1.955,-0.039,-81.630,-93.469,-88.517
19:09:06:661,18.666,0.617,1.794,-0.619,-108.381,-88.323,-93.285
19:09:06:68,18.685,0.047,0.619,-1.717,-140.836,-80.969,-102.728
19:09:06:681,18.686,0.078,-0.586,-0.742,-161.822,-74.390,-106.898
19:09:06:844,18.849,0.030,-1.181,-0.891,-173.425,-71.499,-110.003
19:09:06:844,18.849,-0.134,-1.048,-1.007,-177.472,-65.433,-113.835
19:09:06:845,18.850,-0.325,-1.100,-1.091,-176.117,-61.314,-115.500
19:09:06:846,18.851,-0.451,-1.339,-0.872,-175.869,-57.620,-116.471
19:09:06:895,18.900,-0.617,-1.146,-0.626,-177.890,-57.271,-116.328
19:09:06:896,18.901,-0.754,-0.999,-0.618,-179.888,-58.084,-115.705
19:09:06:897,18.902,-0.524,-0.331,-0.625,175.485,-62.111,-113.838
19:09:06:898,18.903,-0.016,0.293,-0.519,170.906,-66.688,-111.779
19:09:06:912,18.917,0.191,0.648,-0.531,158.497,-74.275,-105.164
19:09:07:024,19.028,0.054,2.074,-0.612,147.125,-79.496,-97.259
19:09:07:024,19.028,0.328,1.510,0.181,118.713,-83.412,-93.062
19:09:07:05,19.055,0.404,0.537,0.711,77.045,-89.414,-87.496
19:09:07:05,19.055,0.352,0.131,0.445,68.043,-93.025,-84.848
19:09:07:051,19.056,0.406,-0.420,0.619,58.317,-98.073,-81.646
19:09:07:07,19.075,0.374,-0.963,0.900,51.448,-103.230,-79.118
19:09:07:096,19.101,0.403,-0.925,1.179,45.383,-106.445,-77.548
19:09:07:124,19.129,0.415,-0.720,1.515,34.414,-109.600,-75.006
19:09:07:291,19.296,0.359,-0.601,1.342,29.411,-109.665,-73.537
19:09:07:291,19.296,0.443,-0.626,1.205,27.095,-105.985,-71.779
19:09:07:291,19.296,0.784,-0.206,0.946,26.395,-98.389,-70.989
19:09:07:292,19.297,1.190,0.648,1.132,23.884,-92.510,-71.290
19:09:07:499,19.504,1.549,1.326,0.459,23.186,-82.927,-73.764
19:09:07:5,19.505,1.461,1.199,-0.487,28.889,-76.205,-76.941
19:09:07:501,19.506,0.755,1.947,-1.246,38.715,-67.196,-81.956
19:09:07:501,19.506,0.977,1.092,-0.454,54.811,-63.096,-85.570
19:09:07:632,19.637,0.036,0.440,-1.289,113.718,-57.675,-91.446
19:09:07:632,19.637,-0.016,-0.332,-0.712,163.244,-52.484,-95.673
19:09:07:632,19.637,-0.082,-0.574,-0.714,172.010,-48.704,-98.109
19:09:07:633,19.638,-0.363,-0.742,-0.750,-177.490,-42.320,-101.140
19:09:07:659,19.664,-0.566,-0.865,-0.823,-171.250,-37.826,-102.489
19:09:07:659,19.664,-0.735,-0.992,-0.711,-163.238,-31.267,-103.319
19:09:07:659,19.664,-0.983,-0.934,-0.331,-159.537,-26.560,-103.199
19:09:07:659,19.664,-1.108,-0.625,-0.026,-160.567,-24.966,-102.458
19:09:07:683,19.688,-0.785,0.280,-0.062,-178.235,-26.556,-100.734
19:09:07:683,19.688,-0.345,0.182,-0.321,145.190,-29.918,-98.554
19:09:07:684,19.689,-0.055,0.264,-0.179,99.772,-35.821,-92.464
19:09:07:685,19.690,-0.264,1.719,-0.370,73.971,-39.515,-85.905
19:09:07:815,19.820,0.012,1.887,-0.175,64.542,-41.932,-82.082
19:09:07:815,19.820,0.326,0.293,0.266,60.706,-45.880,-76.376
19:09:07:815,19.820,0.481,0.135,0.135,56.100,-49.084,-73.544
19:09:07:816,19.821,0.627,-0.102,0.210,48.423,-55.793,-71.402
19:09:07:84,19.845,0.696,-0.718,0.410,41.240,-62.705,-70.754
19:09:07:841,19.846,0.730,-0.899,0.549,34.252,-66.802,-70.380
19:09:07:842,19.847,0.959,-0.882,0.852,22.620,-71.895,-69.971
19:09:07:842,19.847,0.884,-0.789,0.849,17.907,-73.231,-69.717
19:09:07:887,19.892,0.877,-0.796,0.783,20.929,-71.567,-69.518
19:09:07:887,19.892,1.023,-0.908,0.438,28.666,-66.894,-69.621
19:09:08:042,20.047,1.309,-0.517,0.269,29.930,-63.307,-69.811
19:09:08:076,20.081,1.879,0.814,-0.147,26.001,-57.590,-71.242
19:09:08:077,20.082,1.567,1.570,-0.826,23.034,-52.994,-73.217
19:09:08:078,20.083,1.125,1.626,-1.117,23.724,-44.960,-77.223
19:09:08:078,20.083,0.398,1.646,-1.359,27.590,-37.335,-82.114
19:09:08:1,20.104,-0.200,0.991,-1.158,31.242,-32.484,-85.500
19:09:08:101,20.105,-0.508,0.326,-0.797,-170.647,-24.791,-90.444
19:09:08:101,20.106,-0.533,-0.013,-0.510,-149.521,-19.126,-93.508
19:09:08:208,20.213,-0.929,-0.210,-0.115,-152.925,-10.017,-97.638
19:09:08:208,20.213,-1.112,-0.581,0.024,-159.438,-4.798,-99.974
19:09:08:209,20.214,-1.073,-0.897,0.130,-173.002,0.578,-103.053
19:09:08:209,20.214,-1.042,-1.170,0.215,176.563,3.440,-105.451
19:09:08:225,20.230,-0.835,-1.118,0.447,172.423,4.179,-106.466
19:09:08:28,20.285,-0.716,-0.919,0.525,172.601,4.214,-107.622
19:09:08:444,20.449,-0.671,-0.171,0.213,176.512,3.368,-107.845
19:09:08:444,20.449,-0.368,0.156,-0.095,-177.243,0.059,-105.274
19:09:08:445,20.450,-0.223,0.814,-0.344,-166.159,-4.173,-99.625
19:09:08:593,20.598,0.112,1.151,-0.379,-94.073,-11.987,-90.288
19:09:08:63,20.635,0.559,0.793,-0.160,-63.480,-15.780,-87.213
19:09:08:631,20.636,0.415,0.359,0.148,-53.003,-21.018,-84.183
19:09:08:631,20.636,0.347,-0.244,0.082,-44.416,-25.668,-83.578
19:09:08:632,20.637,0.594,-0.571,-0.022,-26.920,-29.082,-83.609
19:09:08:68,20.685,0.939,-1.101,0.032,2.944,-34.163,-83.099
19:09:08:681,20.686,1.038,-1.108,0.093,2.871,-37.068,-82.362
19:09:08:682,20.686,1.062,-0.939,0.152,-14.783,-40.083,-81.399
19:09:08:683,20.687,0.955,-0.695,0.363,-27.959,-40.202,-81.055
19:09:08:786,20.791,0.873,-0.499,0.310,-29.600,-38.346,-81.008
19:09:08:786,20.791,1.051,0.184,-0.174,-21.897,-34.104,-81.363
19:09:08:786,20.791,1.273,0.857,-0.729,-12.196,-30.510,-81.858
19:09:08:787,20.792,0.793,1.545,-0.979,-10.888,-23.457,-82.934
19:09:08:812,20.817,0.174,1.634,-1.060,-27.041,-14.872,-85.308
19:09:08:813,20.818,0.305,1.388,-1.114,-43.522,-9.598,-87.398
19:09:08:814,20.819,-0.419,-0.007,-0.696,-59.938,0.417,-88.291
19:09:08:815,20.820,-0.100,0.214,-0.636,-119.452,3.158,-92.124
19:09:08:828,20.833,-0.723,-0.221,-0.324,-131.616,12.620,-94.451
19:09:08:97,20.975,-0.756,-0.850,0.032,-151.363,30.892,-99.428
19:09:08:989,20.994,-0.764,-0.875,0.570,-156.977,37.575,-100.656
19:09:08:99,20.995,-0.757,-0.443,0.748,-169.516,38.411,-101.318
19:09:09:013,21.017,-0.753,-0.186,0.685,-179.459,37.234,-101.089
19:09:09:039,21.043,-0.407,0.131,0.354,161.906,33.266,-97.405
19:09:09:065,21.069,-0.440,0.960,0.319,155.867,30.948,-93.711
19:09:09:329,21.334,-0.214,1.938,0.481,-11.507,27.473,-88.892
19:09:09:364,21.369,0.370,1.165,-0.064,19.517,24.591,-85.740
19:09:09:364,21.369,0.239,0.684,-0.158,43.696,20.718,-83.088
19:09:09:365,21.370,0.326,-0.157,-0.317,57.852,17.177,-82.063
19:09:09:365,21.370,0.383,-0.604,-0.409,61.113,14.000,-81.723
19:09:09:391,21.395,0.625,-1.025,-0.684,61.035,9.183,-81.482
19:09:09:391,21.395,0.910,-1.074,-0.672,56.366,6.270,-81.110
19:09:09:391,21.396,1.022,-1.067,-0.750,40.612,3.539,-80.203
19:09:09:391,21.396,0.959,-0.924,-0.567,17.938,3.256,-78.962
19:09:09:415,21.419,0.864,-0.729,-0.537,2.431,4.491,-78.474
19:09:09:416,21.420,0.827,-0.171,-0.802,-12.365,8.540,-78.823
19:09:09:416,21.421,0.782,0.891,-1.859,-15.362,12.314,-79.490
19:09:09:417,21.422,0.192,1.221,-2.056,-19.766,19.190,-81.343
19:09:09:434,21.438,-0.851,2.016,-1.161,-43.356,29.311,-85.585
19:09:09:54,21.545,-1.077,1.899,-0.978,-75.301,35.628,-89.128
19:09:09:572,21.577,-1.504,0.663,-0.108,-169.005,43.402,-94.600
19:09:09:573,21.578,-1.235,0.022,0.304,-174.776,48.613,-97.706
19:09:09:574,21.578,-0.663,-0.310,0.335,-168.505,56.210,-101.601
19:09:09:574,21.579,-0.639,-0.649,0.545,-166.365,64.197,-104.793
19:09:09:591,21.596,-0.651,-0.799,0.732,-166.649,69.440,-106.261
19:09:09:646,21.651,-0.595,-1.061,1.205,-168.052,76.566,-107.093
19:09:09:647,21.652,-0.182,-1.112,1.338,-169.652,80.129,-106.979
19:09:09:783,21.787,0.080,-0.965,1.194,-172.528,82.636,-105.885
19:09:09:784,21.788,0.304,-0.550,0.932,177.349,81.802,-103.655
19:09:09:784,21.789,0.123,0.162,0.699,160.205,79.519,-102.122
19:09:09:785,21.790,-0.050,0.321,0.316,116.590,74.646,-97.623
19:09:09:803,21.807,0.328,0.573,-0.293,96.988,71.373,-92.761
19:09:09:803,21.808,-0.048,1.786,0.058,79.257,69.696,-84.451
19:09:09:994,21.999,0.071,0.952,-0.425,72.755,66.983,-78.026
19:09:09:995,21.999,0.172,0.573,-0.551,70.413,65.370,-73.769
19:09:09:995,21.999,0.067,0.153,-0.611,67.484,61.379,-69.641
19:09:09:995,22.000,-0.005,-0.332,-0.787,66.307,57.501,-68.716
19:09:10:02,22.024,0.097,-0.590,-0.844,66.059,51.368,-68.910
19:09:10:02,22.024,0.328,-0.801,-0.744,65.747,47.650,-69.180
19:09:10:021,22.025,0.397,-0.848,-0.843,64.762,42.389,-70.048
19:09:10:022,22.026,0.440,-0.979,-0.922,65.089,38.091,-71.812
19:09:10:122,22.127,0.422,-1.095,-0.839,65.895,36.854,-73.071
19:09:10:123,22.128,0.396,-0.920,-0.842,66.913,37.915,-74.523
19:09:10:123,22.128,0.223,-0.251,-0.995,67.402,40.384,-75.232
19:09:10:147,22.152,-0.081,0.475,-1.316,67.846,45.693,-76.505
19:09:10:147,22.152,-0.804,1.575,-1.394,70.638,51.391,-79.533
19:09:10:148,22.153,-1.108,1.712,-1.091,76.073,55.357,-82.897
19:09:10:167,22.172,-1.308,1.841,-0.253,87.109,61.858,-88.687
19:09:10:194,22.199,-1.088,1.276,0.387,96.577,66.315,-92.630
19:09:10:307,22.312,-0.614,0.223,0.576,115.787,73.253,-98.424
19:09:10:308,22.313,-0.301,-0.271,0.730,140.680,81.800,-103.688
19:09:10:308,22.313,-0.074,-0.491,0.881,158.126,88.719,-106.542
19:09:10:309,22.314,0.116,-0.756,1.023,179.188,99.238,-109.792
19:09:10:325,22.330,0.318,-1.086,0.979,-171.465,105.385,-111.486
19:09:10:351,22.356,0.601,-1.298,1.040,-162.875,112.741,-113.249
19:09:10:377,22.382,0.710,-1.292,0.990,-160.041,116.197,-113.900
19:09:10:403,22.408,0.642,-1.255,0.823,-160.570,115.645,-113.409
19:09:10:431,22.436,0.526,-0.688,0.861,-161.372,112.188,-110.908
19:09:10:456,22.461,0.118,0.199,1.152,-161.094,108.310,-107.830
19:09:10:511,22.516,-0.556,1.115,0.752,-163.334,99.537,-100.166
19:09:10:512,22.517,-0.146,1.621,0.296,164.137,92.563,-92.142
19:09:10:536,22.541,0.033,1.667,0.045,49.039,88.630,-87.298
19:09:10:59,22.595,-0.162,0.870,-0.204,38.617,80.987,-81.349
19:09:10:591,22.595,-0.132,0.280,-0.414,36.044,76.821,-78.941
19:09:10:613,22.618,-0.122,-0.106,-0.470,33.919,70.699,-76.758
19:09:10:695,22.700,-0.175,-0.771,-0.663,38.070,64.800,-75.862
19:09:10:725,22.730,-0.095,-1.042,-0.848,40.100,61.018,-75.499
19:09:10:725,22.730,0.074,-1.126,-0.924,35.257,55.516,-74.852
19:09:10:726,22.731,0.164,-0.865,-1.003,25.790,52.238,-74.263
19:09:10:745,22.749,0.246,-0.806,-1.004,8.805,48.568,-73.574
19:09:10:8,22.805,0.206,-0.728,-1.101,-1.040,47.694,-73.523
19:09:10:801,22.805,-0.021,-0.316,-1.261,-12.658,49.366,-74.285
19:09:10:911,22.916,-0.212,0.632,-1.547,-22.858,54.222,-75.998
19:09:10:911,22.916,-0.530,1.447,-1.361,-32.001,58.568,-78.077
19:09:10:912,22.917,-0.621,1.867,-0.533,-57.744,67.021,-83.272
19:09:10:913,22.918,-0.634,1.883,-0.312,-82.987,73.782,-88.317
19:09:10:929,22.933,-0.590,1.877,0.292,-109.470,84.097,-96.211
19:09:10:956,22.960,-0.295,0.804,1.010,-126.157,94.650,-103.874
19:09:11:011,23.016,-0.086,0.197,1.030,-135.420,100.844,-108.350
19:09:11:011,23.016,0.185,-0.513,0.861,-147.574,108.585,-113.967
19:09:11:174,23.178,0.231,-0.979,1.046,-155.075,112.658,-116.863
19:09:11:175,23.180,0.498,-1.387,1.255,-165.430,117.468,-119.487
19:09:11:175,23.180,0.687,-1.481,1.235,-173.672,120.037,-120.254
19:09:11:176,23.181,0.636,-1.396,1.117,-178.823,119.271,-120.034
19:09:11:197,23.202,0.663,-1.329,0.714,171.506,114.088,-118.832
19:09:11:306,23.311,-0.554,1.383,0.850,155.325,91.895,-105.820
19:09:11:306,23.311,-0.459,1.647,0.445,144.411,85.760,-101.180
19:09:11:306,23.311,-0.677,1.294,-0.179,117.619,76.304,-95.793
19:09:11:307,23.312,-0.403,0.599,-0.539,103.094,70.603,-93.015
19:09:11:322,23.327,-0.254,0.335,-0.584,88.090,63.348,-89.532
19:09:11:349,23.353,-0.315,-0.246,-0.602,80.435,56.736,-87.446
19:09:11:375,23.380,-0.299,-0.613,-0.767,76.986,52.626,-86.243
19:09:11:489,23.493,-0.143,-0.983,-0.986,69.259,47.815,-83.538
19:09:11:489,23.494,-0.046,-0.996,-1.226,62.511,45.772,-81.501
19:09:11:49,23.494,0.100,-1.027,-1.418,52.279,45.009,-79.134
19:09:11:491,23.495,0.193,-1.039,-1.447,40.787,47.952,-76.569
19:09:11:507,23.512,0.084,-0.904,-1.295,32.290,51.770,-74.786
19:09:11:533,23.537,-0.269,-0.188,-1.256,20.581,59.531,-73.083
19:09:11:558,23.563,-0.825,1.454,-1.103,13.299,66.818,-72.612
19:09:11:585,23.590,-0.949,1.633,-0.869,12.674,74.923,-74.420
19:09:11:611,23.616,-1.081,1.861,0.068,8.072,80.365,-77.722
19:09:11:696,23.701,-0.841,1.916,0.439,-27.306,87.488,-84.239
19:09:11:697,23.701,-0.547,1.399,0.927,-96.808,94.902,-90.562
19:09:11:697,23.701,-0.274,0.340,1.138,-136.590,99.449,-94.888
19:09:11:717,23.721,-0.042,-0.381,1.182,-155.194,106.214,-100.869
19:09:11:772,23.777,0.096,-0.682,1.143,-157.526,111.180,-104.359
19:09:11:772,23.777,0.308,-0.930,1.234,-161.633,118.715,-108.744
19:09:11:988,23.993,0.330,-1.392,1.097,-167.757,124.462,-111.513
19:09:11:988,23.993,0.338,-1.376,0.847,-169.034,127.902,-112.780
19:09:11:989,23.994,0.610,-1.062,0.660,-169.762,132.525,-113.817
19:09:11:99,23.995,0.884,-0.709,0.470,-171.947,134.315,-113.514
19:09:12:065,24.070,0.617,-0.116,0.284,-178.956,133.053,-111.463
19:09:12:066,24.071,0.338,0.170,0.179,167.455,129.133,-105.624
19:09:12:066,24.071,0.270,0.829,0.367,158.496,126.547,-99.956
19:09:12:092,24.097,0.569,2.207,0.458,137.238,123.117,-92.220
19:09:12:093,24.098,-0.279,0.924,-0.137,73.331,120.652,-88.600
19:09:12:094,24.099,-0.333,0.327,-0.315,61.715,114.369,-84.132
19:09:12:095,24.100,-0.475,-0.233,-0.298,59.694,109.339,-81.333
19:09:12:113,24.117,-0.640,-0.493,-0.520,57.910,105.940,-79.629
19:09:12:113,24.118,-0.543,-0.990,-0.959,52.541,101.583,-76.887
19:09:12:138,24.143,-0.578,-1.011,-1.262,47.601,99.524,-75.509
19:09:12:162,24.167,-0.656,-1.043,-1.279,43.341,98.199,-74.743
19:09:12:305,24.309,-1.026,-0.846,-1.024,43.438,100.230,-74.399
19:09:12:305,24.309,-1.555,-0.166,-0.845,43.875,103.179,-74.153
19:09:12:305,24.309,-2.158,0.863,-0.235,46.071,109.304,-74.869
19:09:12:305,24.310,-2.082,1.088,0.347,49.883,114.213,-76.638
19:09:12:323,24.327,-1.684,1.378,1.195,59.649,121.796,-81.639
19:09:12:323,24.328,-1.118,1.382,1.429,70.110,126.410,-85.769
19:09:12:351,24.355,-0.307,1.018,1.552,104.295,133.952,-91.865
19:09:12:351,24.356,0.323,0.164,1.062,149.563,141.869,-97.315
19:09:12:487,24.492,0.811,-0.242,0.830,165.080,147.632,-100.567
19:09:12:488,24.492,1.008,-0.479,0.656,173.556,156.288,-104.976
19:09:12:488,24.493,1.336,-0.871,0.632,173.773,163.775,-107.671
19:09:12:489,24.493,1.391,-1.093,0.535,172.329,167.858,-108.314
19:09:12:508,24.513,1.399,-1.247,0.037,170.617,172.891,-107.689
19:09:12:508,24.513,1.410,-0.997,-0.310,169.535,175.144,-106.386
19:09:12:53,24.534,1.067,-0.387,-0.351,165.682,174.879,-104.133
19:09:12:556,24.561,0.825,0.551,0.082,157.654,172.321,-101.813
19:09:12:67,24.675,0.272,1.112,0.295,127.667,166.482,-95.790
19:09:12:671,24.675,0.058,1.590,0.355,89.660,158.743,-89.930
19:09:12:671,24.676,-0.751,1.283,0.157,79.010,153.605,-86.880
19:09:12:672,24.677,-0.875,0.581,-0.031,76.281,145.956,-83.900
19:09:12:688,24.692,-0.534,-0.218,-0.180,75.977,141.987,-82.515
19:09:12:713,24.718,-0.543,-0.488,-0.164,75.105,137.166,-81.420
19:09:12:74,24.745,-0.651,-0.692,-0.141,74.453,132.964,-81.448
19:09:12:856,24.860,-0.779,-0.980,-0.222,73.179,130.632,-81.209
19:09:12:856,24.860,-0.919,-1.237,-0.202,68.870,128.224,-80.242
19:09:12:856,24.861,-0.958,-1.037,-0.267,63.736,127.542,-79.519
19:09:12:856,24.861,-0.929,-0.896,-0.238,51.518,127.891,-79.064
19:09:12:871,24.876,-1.121,-0.518,-0.018,30.977,129.654,-79.308
19:09:12:898,24.902,-1.272,-0.121,0.180,10.777,131.943,-80.275
19:09:12:954,24.959,-1.450,1.096,0.555,-31.032,137.573,-83.630
19:09:12:955,24.960,-1.097,1.261,0.786,-61.354,142.544,-86.910
19:09:13:064,25.068,-0.287,1.368,0.945,-107.766,151.202,-92.312
19:09:13:064,25.069,0.329,1.518,0.953,-130.396,161.513,-98.042
19:09:13:065,25.070,0.387,1.333,0.905,-137.540,168.354,-101.283
19:09:13:111,25.116,0.588,-0.573,0.092,-163.761,-169.660,-111.066
19:09:13:134,25.139,0.834,-0.826,0.014,-168.528,-163.781,-113.573
19:09:13:266,25.271,0.972,-1.022,-0.102,-170.536,-160.378,-114.548
19:09:13:3,25.305,0.891,-1.280,-0.242,-172.479,-156.767,-114.778
19:09:13:301,25.306,0.851,-1.182,-0.338,-172.437,-155.151,-114.332
19:09:13:302,25.307,0.894,-0.883,-0.661,-171.850,-153.561,-112.810
19:09:13:303,25.308,0.815,0.005,-0.532,-173.629,-155.357,-110.519
19:09:13:321,25.326,0.607,0.497,0.015,179.845,-159.451,-107.929
19:09:13:321,25.326,0.481,1.074,0.261,150.784,-166.494,-102.351
19:09:13:458,25.462,0.419,1.351,0.153,124.949,-170.468,-98.887
19:09:13:459,25.463,-0.041,0.804,0.154,100.959,-176.468,-94.507
19:09:13:459,25.464,-0.021,0.206,-0.069,93.663,-179.653,-91.877
19:09:13:46,25.465,-0.018,0.364,0.250,86.453,175.940,-88.266
19:09:13:477,25.482,-0.509,-0.077,0.328,82.271,170.669,-86.995
19:09:13:478,25.483,-0.804,-0.781,0.195,79.759,167.030,-86.572
19:09:13:504,25.509,-0.936,-0.890,0.228,71.163,162.171,-85.541
19:09:13:611,25.615,-1.414,-0.560,0.307,57.049,159.464,-84.842
19:09:13:612,25.616,-1.784,-0.438,-0.065,14.810,157.577,-85.027
19:09:13:638,25.643,-1.310,-0.610,-0.193,-0.289,159.863,-86.383
19:09:13:639,25.643,-1.105,-0.738,0.053,37.205,162.749,-87.105
19:09:13:64,25.644,-1.346,0.019,1.019,74.613,168.502,-88.429
19:09:13:687,25.692,-1.381,0.861,1.497,93.258,171.900,-90.323
19:09:13:688,25.693,-0.029,2.022,1.825,154.751,-178.387,-93.734
19:09:13:711,25.716,0.774,1.899,1.753,173.516,-167.774,-98.744
19:09:13:823,25.828,1.115,1.128,1.607,165.247,-162.464,-102.520
19:09:13:824,25.829,1.401,0.018,0.689,163.848,-154.180,-107.808
19:09:13:825,25.829,1.155,-0.444,0.067,166.386,-148.437,-110.726
19:09:13:845,25.850,0.927,-0.740,-0.070,168.208,-140.483,-114.238
19:09:13:846,25.850,0.906,-0.987,-0.169,167.576,-135.595,-115.767
19:09:13:87,25.875,1.008,-1.287,-0.601,165.641,-127.922,-116.353
19:09:13:897,25.902,0.732,-1.361,-0.930,162.206,-121.118,-114.215
19:09:13:922,25.927,0.289,-1.122,-0.935,159.885,-117.726,-111.617
19:09:14:062,26.067,-0.046,-0.613,-1.275,156.279,-113.909,-106.722
19:09:14:062,26.067,0.252,0.340,-0.911,145.090,-114.549,-101.523
19:09:14:063,26.068,0.307,0.518,-0.472,127.359,-118.161,-98.393
19:09:14:064,26.069,0.289,0.990,0.038,102.025,-123.970,-92.909
19:09:14:083,26.088,0.212,2.065,0.194,87.022,-127.737,-89.331
19:09:14:083,26.088,-0.017,1.849,0.628,74.482,-133.427,-85.071
19:09:14:104,26.109,-0.598,0.274,0.534,73.381,-137.524,-80.834
19:09:14:185,26.190,-0.423,-0.071,0.273,72.889,-139.621,-78.781
19:09:14:247,26.252,-0.253,-0.431,0.524,72.260,-143.496,-77.540
19:09:14:247,26.252,-0.407,-0.893,0.850,72.200,-146.280,-77.291
19:09:14:247,26.252,-0.737,-1.243,0.831,71.418,-149.761,-76.873
19:09:14:247,26.252,-0.500,-1.115,1.079,67.902,-151.553,-76.163
19:09:14:262,26.267,-0.532,-1.039,1.241,64.992,-151.838,-75.927
19:09:14:455,26.460,-0.579,-1.037,1.113,61.675,-150.289,-76.736
19:09:14:456,26.461,-0.408,-0.747,0.962,58.517,-148.246,-77.970
19:09:14:457,26.462,-0.050,0.142,1.283,47.321,-144.306,-80.602
19:09:14:458,26.463,0.553,1.361,1.727,34.326,-138.779,-84.926
19:09:14:481,26.486,0.913,1.384,1.288,43.551,-133.743,-87.999
19:09:14:482,26.487,1.142,1.648,0.529,-149.045,-124.995,-93.408
19:09:14:483,26.488,1.218,1.416,0.027,-143.991,-118.678,-97.101
19:09:14:484,26.489,0.948,0.676,-0.307,-151.653,-110.163,-102.496
19:09:14:527,26.532,0.575,-0.051,-0.509,-159.484,-102.059,-107.380
19:09:14:639,26.644,0.430,-0.307,-0.725,-162.840,-96.526,-110.358
19:09:14:64,26.645,0.217,-0.732,-1.055,-167.083,-88.481,-113.577
19:09:14:64,26.645,0.119,-1.146,-1.159,-169.821,-84.004,-114.625
19:09:14:662,26.667,-0.548,-1.038,-0.988,-171.214,-74.250,-113.330
19:09:14:663,26.668,-0.722,-0.774,-0.954,-172.350,-73.038,-111.418
19:09:14:663,26.668,-0.537,0.056,-1.038,178.867,-74.966,-107.633
19:09:14:877,26.882,0.052,0.824,-0.595,156.689,-79.528,-104.335
19:09:14:878,26.883,-0.172,0.518,-0.155,108.218,-88.982,-97.945
19:09:14:879,26.884,0.254,0.709,-0.665,93.419,-94.089,-92.185
19:09:14:902,26.907,0.486,1.279,0.969,76.353,-110.369,-83.514
19:09:14:902,26.907,0.067,-0.149,0.891,74.273,-116.682,-82.827
19:09:14:903,26.908,0.075,-0.538,0.605,75.153,-124.732,-82.655
19:09:14:904,26.909,0.087,-0.873,0.774,75.972,-129.291,-83.065
19:09:15:009,27.014,-0.108,-0.997,1.136,75.354,-135.111,-83.626
19:09:15:009,27.014,-0.216,-1.043,1.133,70.602,-138.439,-83.193
19:09:15:009,27.014,-0.170,-1.063,0.977,64.722,-139.097,-82.214
19:09:15:01,27.015,-0.172,-1.097,0.822,53.813,-138.061,-80.234
19:09:15:026,27.031,-0.091,-0.990,0.845,44.877,-136.009,-78.893
19:09:15:027,27.032,0.025,-0.283,1.095,28.187,-131.106,-77.124
19:09:15:079,27.084,0.530,1.071,1.755,14.719,-125.301,-75.748
19:09:15:079,27.084,0.779,1.385,1.389,6.867,-121.005,-76.784
19:09:15:189,27.194,0.755,1.950,0.585,-22.684,-113.249,-81.616
19:09:15:19,27.195,0.764,1.669,0.520,-51.793,-107.493,-85.255
19:09:15:191,27.196,0.702,1.802,-0.141,-98.460,-99.883,-91.304
19:09:15:192,27.197,0.280,0.711,-0.844,-127.253,-92.193,-97.392
19:09:15:208,27.213,0.054,-0.154,-0.790,-142.085,-87.659,-101.003
19:09:15:235,27.240,-0.020,-0.762,-0.841,-156.670,-81.336,-105.701
19:09:15:261,27.266,-0.134,-0.917,-1.004,-160.989,-76.916,-108.001
19:09:15:452,27.457,-0.333,-1.082,-1.117,-163.902,-71.584,-110.022
19:09:15:453,27.458,-0.383,-1.261,-1.010,-169.548,-69.805,-110.467
19:09:15:454,27.459,-0.445,-1.249,-0.955,-174.809,-70.296,-110.047
19:09:15:455,27.460,-0.522,-0.776,-0.746,178.040,-72.900,-108.403
19:09:15:478,27.483,-0.058,0.162,-0.686,171.318,-76.513,-106.454
19:09:15:479,27.484,0.271,0.682,-0.527,146.847,-84.507,-100.806
19:09:15:48,27.484,0.403,1.321,-0.330,109.399,-92.327,-94.665
19:09:15:483,27.488,0.358,1.647,0.246,93.392,-97.576,-91.054
19:09:15:583,27.588,0.375,1.103,0.329,84.890,-103.720,-87.649
19:09:15:584,27.589,0.143,0.129,0.558,81.828,-108.207,-85.758
19:09:15:585,27.590,0.267,-0.015,0.418,77.170,-114.059,-83.714
19:09:15:586,27.591,0.187,-0.563,0.640,74.699,-117.853,-82.881
19:09:15:66,27.665,0.060,-0.902,0.782,71.709,-123.548,-81.730
19:09:15:661,27.665,-0.067,-1.170,0.913,66.233,-128.722,-80.465
19:09:15:661,27.665,-0.018,-1.060,0.984,59.200,-131.413,-79.283
19:09:15:734,27.739,-0.116,-1.119,0.878,45.772,-134.184,-77.169
19:09:15:765,27.770,-0.177,-1.185,0.763,35.160,-135.126,-75.677
19:09:15:766,27.771,-0.038,-0.705,0.952,16.422,-134.864,-73.347
19:09:15:767,27.772,0.215,0.179,1.429,4.359,-131.800,-71.165
19:09:15:785,27.790,0.480,1.116,1.908,3.909,-128.960,-70.775
19:09:15:811,27.816,0.884,1.672,1.288,1.251,-122.728,-72.438
19:09:15:837,27.842,1.031,2.226,0.966,-11.560,-118.348,-75.353
19:09:15:996,28.001,0.799,2.071,0.296,-40.086,-110.230,-80.695
19:09:16:19,28.195,0.525,0.973,-0.321,-71.271,-100.603,-86.883
19:09:16:19,28.195,0.399,0.548,-0.554,-97.264,-93.767,-91.201
19:09:16:19,28.195,0.051,-0.174,-1.028,-127.293,-83.126,-97.157
19:09:16:19,28.195,-0.042,-0.645,-1.023,-140.226,-76.743,-100.270
19:09:16:215,28.220,-0.220,-1.053,-1.057,-155.405,-68.625,-104.076
19:09:16:216,28.221,-0.532,-1.368,-1.154,-167.818,-62.332,-106.742
19:09:16:216,28.221,-0.478,-1.400,-0.999,-175.576,-60.293,-107.720
19:09:16:217,28.222,-0.410,-1.378,-0.659,175.997,-58.777,-107.619
19:09:16:242,28.247,-0.587,-0.671,-0.605,173.934,-58.764,-106.530
19:09:16:242,28.247,-0.212,0.186,-0.603,167.225,-61.643,-103.358
19:09:16:243,28.247,0.398,0.496,-0.140,129.261,-68.670,-96.355
19:09:16:243,28.247,0.307,0.860,-0.049,96.536,-72.125,-91.065
19:09:16:346,28.351,0.339,1.492,0.190,51.623,-77.814,-83.940
19:09:16:346,28.351,0.299,1.249,0.552,32.608,-81.981,-80.154
19:09:16:347,28.352,0.251,0.564,0.545,30.914,-86.854,-76.523
19:09:16:347,28.352,0.124,-0.143,0.599,34.966,-91.286,-73.769
19:09:16:368,28.373,0.178,-0.425,0.649,36.654,-93.212,-72.268
19:09:16:369,28.374,0.108,-0.975,1.061,38.597,-95.710,-70.398
19:09:16:369,28.374,0.114,-0.979,1.020,36.515,-96.749,-69.056
19:09:16:388,28.393,0.216,-0.573,1.050,31.261,-97.169,-67.790
19:09:16:444,28.448,0.229,-0.556,1.000,30.238,-95.929,-67.714
19:09:16:445,28.449,0.342,-0.791,0.874,34.303,-91.906,-68.125
19:09:16:601,28.605,0.764,-0.370,0.813,38.966,-86.484,-68.943
19:09:16:634,28.639,1.411,0.778,1.006,40.961,-83.365,-70.389
19:09:16:635,28.639,1.541,1.255,0.596,42.795,-77.659,-73.131
19:09:16:635,28.640,1.474,1.390,0.003,47.045,-73.030,-75.148
19:09:16:636,28.641,1.202,1.098,-0.273,57.745,-65.582,-78.424
19:09:16:765,28.770,0.904,0.818,-0.463,68.850,-58.370,-82.196
19:09:16:766,28.771,0.602,0.383,-0.614,76.248,-53.738,-84.861
19:09:16:767,28.772,0.228,-0.232,-0.748,86.083,-47.023,-88.512
19:09:16:814,28.819,-0.384,-0.633,-0.995,100.249,-36.683,-93.463
19:09:16:815,28.819,-0.497,-0.866,-0.791,108.999,-31.772,-95.532
19:09:17:003,29.007,-0.505,-0.978,-0.666,115.768,-29.281,-96.729
19:09:17:003,29.007,-0.837,-0.893,-0.462,127.056,-26.063,-98.080
19:09:17:003,29.008,-1.078,-0.140,-0.251,135.363,-24.784,-99.086
19:09:17:004,29.008,-1.010,0.289,-0.343,140.534,-25.864,-100.956
19:09:17:028,29.032,-0.324,0.321,-0.256,128.605,-31.106,-100.936
19:09:17:029,29.033,0.172,0.681,0.135,120.492,-34.589,-99.345
19:09:17:029,29.034,0.487,1.813,0.837,109.099,-36.763,-95.590
19:09:17:03,29.035,0.985,1.407,1.101,100.732,-37.183,-93.659
19:09:17:212,29.216,0.679,0.527,0.769,95.614,-36.955,-92.912
19:09:17:212,29.217,0.354,-0.231,0.549,97.711,-37.282,-95.046
19:09:17:213,29.218,0.528,-0.276,0.481,101.294,-37.600,-97.526
19:09:17:396,29.401,0.759,-0.497,0.242,112.475,-36.452,-105.225
19:09:17:396,29.401,0.666,-0.727,0.207,115.664,-34.806,-109.241
19:09:17:397,29.401,0.503,-0.767,0.134,116.862,-32.461,-112.046
19:09:17:398,29.402,0.466,-0.654,-0.050,117.274,-30.740,-113.725
19:09:17:555,29.559,0.680,-0.315,-0.325,118.223,-27.985,-116.802
19:09:17:555,29.559,0.814,0.065,-0.767,118.875,-25.916,-119.525
19:09:17:555,29.560,0.486,0.425,-1.247,118.397,-24.242,-124.188
19:09:17:555,29.560,0.355,0.146,-0.847,116.697,-26.568,-130.636
19:09:17:582,29.586,0.401,0.144,-0.754,115.980,-27.470,-135.059
19:09:17:582,29.587,0.234,0.472,-0.796,115.647,-23.893,-137.573
19:09:17:583,29.587,0.133,0.561,-0.621,115.373,-20.407,-137.933
19:09:17:583,29.587,-0.016,0.526,-0.412,114.016,-14.678,-138.002
19:09:17:607,29.612,-0.275,0.250,-0.132,112.665,-11.027,-138.661
19:09:17:607,29.612,-0.499,0.025,-0.006,110.168,-8.349,-142.478
19:09:17:607,29.612,-0.617,-0.191,0.109,107.301,-12.707,-152.273
19:09:17:608,29.613,-0.481,-0.384,0.376,105.539,-20.208,-162.764
19:09:17:739,29.743,-0.342,-0.438,0.551,103.397,-33.298,-179.545
19:09:17:739,29.743,-0.435,-0.486,0.384,102.532,-40.439,171.405
19:09:17:739,29.744,-0.519,-0.514,0.344,101.907,-49.730,160.406
19:09:17:74,29.744,-0.186,-0.338,0.480,102.017,-62.889,146.843
19:09:17:764,29.768,-0.072,-0.161,0.389,102.257,-70.201,139.602
19:09:17:764,29.768,-0.106,0.094,0.091,102.330,-77.625,133.228
19:09:17:764,29.769,0.011,0.301,0.012,102.193,-81.933,130.002
19:09:17:765,29.770,0.097,0.484,0.242,101.410,-87.314,126.299
19:09:17:816,29.821,0.233,0.451,0.371,99.939,-91.656,122.867
19:09:17:816,29.821,0.081,0.273,0.278,98.597,-94.444,121.088
19:09:17:817,29.822,-0.203,-0.016,0.020,96.339,-96.557,119.460
19:09:17:817,29.822,-0.109,-0.098,0.015,95.181,-98.551,117.725
19:09:17:946,29.951,0.284,-0.259,-0.013,94.385,-101.061,114.679
19:09:17:947,29.952,0.209,-0.454,-0.224,94.443,-98.424,116.142
19:09:17:948,29.953,0.161,-0.510,-0.205,94.811,-96.050,117.896
19:09:17:97,29.975,0.409,-0.414,-0.332,96.253,-94.211,116.278
19:09:17:971,29.976,0.281,-0.334,-0.373,96.979,-91.838,115.483
19:09:17:972,29.976,0.018,0.105,-0.350,97.408,-90.278,114.514
19:09:17:994,29.999,0.145,0.475,-0.355,97.651,-88.801,113.612
19:09:17:994,29.999,0.094,0.450,-0.611,97.914,-84.009,114.180
19:09:18:13,30.135,-0.065,0.412,-0.510,98.084,-79.306,115.684
19:09:18:132,30.136,0.048,0.563,-0.064,98.542,-74.948,116.369
19:09:18:132,30.137,-0.030,0.433,0.127,98.738,-72.709,116.417
19:09:18:133,30.137,-0.136,0.182,0.201,98.738,-66.821,118.784
19:09:18:15,30.155,-0.176,-0.178,0.246,98.981,-60.076,122.217
19:09:18:151,30.155,-0.154,-0.351,0.166,99.325,-57.441,123.032
19:09:18:175,30.180,-0.166,-0.412,0.243,100.003,-55.172,123.855
19:09:18:284,30.289,-0.148,-0.459,0.491,100.560,-53.799,125.361
19:09:18:284,30.289,-0.119,-0.477,0.425,101.410,-51.173,128.312
19:09:18:311,30.316,-0.074,-0.432,0.322,102.183,-50.695,128.890
19:09:18:311,30.316,0.079,-0.166,0.262,102.751,-51.701,128.386
19:09:18:312,30.317,0.137,0.090,0.177,103.618,-52.675,128.170
19:09:18:332,30.337,-0.080,0.280,0.197,104.183,-52.607,129.126
19:09:18:358,30.363,-0.206,0.332,0.143,104.881,-51.686,132.078
19:09:18:384,30.389,0.027,0.483,0.035,105.000,-51.768,133.747
19:09:18:526,30.530,0.206,0.537,0.020,104.626,-52.780,133.327
19:09:18:526,30.531,0.036,0.275,-0.044,103.182,-53.677,133.010
19:09:18:526,30.531,-0.087,0.093,-0.077,102.003,-53.591,133.378
19:09:18:526,30.531,0.226,-0.122,-0.224,100.565,-54.504,131.954
19:09:18:544,30.549,0.299,-0.293,-0.451,99.731,-56.517,128.383
19:09:18:545,30.550,0.225,-0.423,-0.562,99.518,-56.344,127.333
19:09:18:708,30.712,0.007,-0.529,-0.685,99.551,-53.879,127.447
19:09:18:708,30.713,-0.090,-0.494,-0.719,99.578,-53.030,126.061
19:09:18:709,30.714,-0.260,-0.366,-0.562,99.637,-53.699,121.958
19:09:18:71,30.715,-0.224,0.271,-0.299,99.637,-54.169,118.206
19:09:18:76,30.765,-0.187,0.572,-0.389,99.649,-53.227,116.622
19:09:18:761,30.766,-0.578,0.494,-0.433,99.579,-48.839,116.315
19:09:18:762,30.767,-0.280,0.655,-0.227,99.785,-45.309,116.720
19:09:18:778,30.783,-0.341,0.448,0.070,100.159,-36.494,116.726
19:09:18:858,30.863,-0.354,0.207,0.257,99.742,-33.020,116.966
19:09:18:889,30.894,-0.140,-0.009,0.335,99.329,-29.894,115.630
19:09:18:89,30.895,-0.125,-0.151,0.457,99.347,-28.412,114.546
19:09:18:891,30.896,-0.014,-0.298,0.565,99.969,-25.344,114.674
19:09:18:909,30.914,0.169,-0.383,0.407,100.930,-21.592,115.969
19:09:18:937,30.942,0.118,-0.399,0.343,101.398,-19.550,116.294
19:09:18:938,30.943,0.122,-0.433,0.397,101.655,-19.293,114.774
19:09:19:042,31.047,0.533,-0.207,0.053,101.811,-20.418,112.973
19:09:19:073,31.077,0.351,-0.059,-0.113,102.162,-20.656,111.323
19:09:19:074,31.078,0.068,0.002,0.148,101.821,-21.301,110.175
19:09:19:074,31.079,0.076,0.046,0.226,102.001,-21.852,110.128
19:09:19:094,31.098,0.141,0.135,0.027,102.413,-21.713,110.746
19:09:19:123,31.128,0.269,0.351,-0.128,102.661,-21.363,111.127
19:09:19:123,31.128,0.079,0.344,0.037,102.262,-21.264,111.355
19:09:19:145,31.150,0.021,0.252,0.102,101.487,-21.709,110.870
19:09:19:255,31.259,0.124,0.072,-0.052,100.517,-23.478,109.276
19:09:19:255,31.259,0.124,-0.112,-0.126,100.193,-24.214,108.786
19:09:19:282,31.286,-0.012,-0.246,-0.082,100.230,-24.014,109.207
19:09:19:284,31.288,-0.189,-0.438,-0.072,100.488,-23.179,110.010
19:09:19:284,31.288,-0.122,-0.484,-0.088,100.641,-22.591,110.245
19:09:19:302,31.307,-0.221,-0.487,-0.068,100.666,-22.315,109.924
19:09:19:328,31.333,-0.335,-0.438,-0.069,100.156,-22.654,108.138
19:09:19:356,31.361,-0.053,-0.236,-0.121,99.788,-23.094,106.675
19:09:19:442,31.446,0.108,0.140,-0.225,99.573,-22.232,105.825
19:09:19:442,31.446,-0.084,0.201,-0.181,99.324,-21.088,105.871
19:09:19:442,31.446,-0.232,0.305,-0.276,98.870,-18.895,105.652
19:09:19:46,31.464,-0.180,0.579,-0.205,98.450,-17.456,105.385
19:09:19:486,31.491,-0.165,0.606,0.006,97.870,-16.628,105.120
19:09:19:512,31.517,-0.005,0.403,0.257,96.575,-16.268,103.566
19:09:19:655,31.659,0.140,0.144,0.229,95.909,-16.153,102.460
19:09:19:655,31.659,0.106,-0.025,0.287,95.848,-14.912,102.633
19:09:19:655,31.659,0.097,-0.287,0.420,96.892,-12.230,105.087
19:09:19:655,31.660,0.210,-0.347,0.321,97.828,-10.473,107.114
19:09:19:675,31.680,0.079,-0.425,0.306,98.832,-8.306,109.336
19:09:19:675,31.680,-0.021,-0.428,0.379,99.102,-8.718,109.582
19:09:19:698,31.703,0.235,-0.323,0.198,99.141,-11.116,108.125
19:09:19:722,31.727,0.217,0.009,-0.166,99.042,-13.680,106.680
19:09:19:748,31.753,-0.078,0.090,0.083,98.741,-14.887,106.206
19:09:19:834,31.839,-0.050,0.188,0.281,98.795,-17.285,106.299
19:09:19:834,31.839,0.127,0.325,-0.021,98.749,-18.496,105.983
19:09:19:835,31.839,0.080,0.373,-0.073,98.081,-20.654,105.027
19:09:19:854,31.859,0.081,0.297,0.115,97.426,-21.513,104.453
19:09:19:88,31.885,0.281,0.228,0.058,96.516,-23.126,103.485
19:09:19:906,31.911,0.195,0.018,-0.190,96.128,-23.621,103.144
19:09:19:932,31.937,-0.021,-0.175,-0.128,96.281,-23.196,103.961
19:09:19:958,31.963,-0.166,-0.237,-0.020,96.555,-22.352,105.404
19:09:20:045,32.050,-0.095,-0.300,-0.027,96.360,-22.693,105.059
19:09:20:045,32.050,-0.125,-0.362,0.018,95.780,-23.994,103.312
19:09:20:045,32.050,-0.304,-0.475,0.110,95.405,-24.730,101.770
19:09:20:065,32.070,-0.183,-0.351,-0.004,95.233,-25.174,100.595
19:09:20:09,32.095,0.017,-0.126,-0.034,95.392,-24.620,99.690
19:09:20:116,32.121,0.017,0.083,-0.055,95.980,-23.354,100.313
19:09:20:23,32.235,-0.078,0.161,-0.133,96.876,-20.095,101.698
19:09:20:231,32.236,-0.129,0.273,-0.233,97.605,-17.163,102.713
19:09:20:231,32.236,-0.161,0.438,-0.134,98.013,-15.209,103.612
19:09:20:232,32.237,-0.002,0.494,0.207,97.742,-12.973,104.256
19:09:20:248,32.253,0.177,0.354,0.150,97.057,-12.450,103.528
19:09:20:275,32.280,0.140,0.166,0.250,96.069,-12.304,102.346
19:09:20:3,32.305,0.086,-0.265,0.622,95.977,-11.562,102.642
19:09:20:326,32.331,0.216,-0.389,0.536,96.647,-11.021,103.686
19:09:20:381,32.386,0.362,-0.490,0.281,98.325,-8.701,106.546
19:09:20:437,32.442,0.053,-0.710,0.494,99.288,-7.024,108.721
19:09:20:437,32.442,0.332,-0.673,0.307,100.340,-6.236,110.307
19:09:20:438,32.443,0.523,-0.292,-0.030,101.546,-6.471,111.427
19:09:20:459,32.464,0.186,-0.051,0.238,101.874,-6.467,112.571
19:09:20:513,32.518,0.111,0.211,0.360,101.740,-7.680,113.734
19:09:20:513,32.518,0.112,0.443,0.222,101.252,-9.436,113.433
19:09:20:537,32.542,0.178,0.774,0.203,99.899,-12.903,112.078
19:09:20:621,32.626,0.181,0.642,0.428,98.573,-16.134,111.258
19:09:20:621,32.626,0.182,0.514,0.342,98.019,-17.557,111.133
19:09:20:622,32.627,0.267,0.238,-0.025,97.966,-19.144,111.273
19:09:20:641,32.646,0.122,-0.075,-0.238,98.617,-18.683,112.882
19:09:20:668,32.673,-0.148,-0.336,-0.260,100.488,-15.304,118.098
19:09:20:723,32.727,-0.295,-0.544,-0.395,103.082,-11.432,123.463
19:09:20:723,32.728,-0.529,-0.560,-0.585,104.817,-9.187,125.903
19:09:20:835,32.840,-1.045,-0.492,-0.655,106.746,-6.418,127.291
19:09:20:836,32.841,-1.054,-0.395,-0.488,107.451,-5.402,126.412
19:09:20:836,32.841,-0.463,-0.151,0.094,108.030,-4.119,124.464
19:09:20:836,32.841,0.103,0.140,-0.062,107.955,-1.796,123.480
19:09:20:851,32.856,0.005,0.119,-0.048,107.043,5.343,123.370
19:09:20:879,32.884,0.055,0.267,0.300,105.943,13.413,124.462
19:09:20:904,32.909,0.530,0.618,0.237,105.138,17.531,124.645
19:09:21:02,33.025,0.744,0.705,0.119,103.504,23.501,125.618
19:09:21:02,33.025,0.956,0.693,0.408,102.280,27.845,127.796
19:09:21:02,33.025,0.890,0.465,0.510,101.011,33.661,132.556
19:09:21:02,33.025,0.578,-0.120,0.554,101.746,40.963,141.136
19:09:21:035,33.040,0.409,-0.812,0.709,103.659,46.469,149.155
19:09:21:063,33.068,0.029,-1.476,1.061,108.610,52.451,161.073
19:09:21:09,33.095,-0.101,-1.370,0.939,112.742,53.833,167.091
19:09:21:09,33.095,-0.235,-1.204,0.770,119.152,51.342,171.468
19:09:21:255,33.260,-0.109,-0.962,0.552,124.548,45.949,173.828
19:09:21:255,33.260,-0.106,-0.665,0.413,127.012,43.375,176.199
19:09:21:256,33.261,-0.070,0.160,-0.021,128.044,43.497,-176.123
19:09:21:257,33.262,-0.958,0.514,0.238,127.165,47.733,-166.099
19:09:21:275,33.280,-0.657,0.757,0.680,124.108,54.622,-147.411
19:09:21:275,33.280,-0.470,1.139,0.117,118.448,57.114,-133.042
19:09:21:301,33.305,-0.095,0.863,-0.164,113.831,57.558,-124.509
19:09:21:301,33.306,0.038,0.267,-0.295,105.759,58.982,-110.682
19:09:21:439,33.444,-0.020,0.049,-0.804,99.685,60.636,-101.516
19:09:21:439,33.444,0.241,-0.077,-1.117,89.080,63.409,-89.064
19:09:21:439,33.444,0.507,-0.522,-1.623,78.603,66.721,-80.298
19:09:21:44,33.445,0.405,-0.644,-1.724,72.256,69.158,-76.827
19:09:21:487,33.491,-0.136,-0.410,-1.722,62.145,73.588,-72.555
19:09:21:488,33.492,-0.435,-0.335,-1.472,57.353,77.951,-70.671
19:09:21:488,33.493,-0.876,-0.058,-1.207,54.406,86.189,-68.755
19:09:21:648,33.652,-1.741,1.151,-0.770,55.667,95.688,-68.140
19:09:21:649,33.653,-1.811,1.589,0.006,59.834,101.880,-69.983
19:09:21:65,33.654,-1.650,1.729,1.252,69.352,109.332,-75.202
19:09:21:65,33.655,-1.058,0.949,1.575,76.610,112.372,-79.727
19:09:21:671,33.675,-0.519,0.288,1.458,86.814,114.232,-87.528
19:09:21:671,33.676,-0.163,-0.082,0.986,93.320,115.263,-92.379
19:09:21:672,33.677,0.072,-0.206,0.827,102.806,119.023,-97.787
19:09:21:806,33.811,0.247,-0.486,0.682,111.599,124.749,-101.544
19:09:21:806,33.811,0.491,-0.871,0.736,115.894,129.335,-103.283
19:09:21:807,33.812,0.572,-0.996,0.594,119.119,137.194,-104.712
19:09:21:808,33.813,0.698,-1.001,0.543,119.826,142.741,-105.110
19:09:21:826,33.831,1.092,-0.756,0.400,117.155,151.791,-103.846
19:09:21:826,33.831,1.198,-0.203,0.098,111.013,160.278,-101.177
19:09:21:849,33.853,1.060,-0.066,0.025,106.227,164.491,-99.169
19:09:21:877,33.882,0.608,-0.066,-0.047,96.828,168.561,-94.332
19:09:21:903,33.908,0.549,0.196,0.033,89.067,170.551,-89.376
19:09:21:987,33.992,0.372,1.211,0.672,77.539,172.234,-81.185
19:09:21:987,33.992,-0.071,0.824,0.373,71.057,173.146,-73.597
19:09:21:987,33.992,-0.121,0.413,0.111,68.457,173.423,-68.477
19:09:22:064,34.069,-0.130,0.006,0.126,65.139,170.466,-63.935
19:09:22:065,34.069,-0.521,-0.402,0.163,62.836,166.214,-62.796
19:09:22:066,34.070,-0.985,-0.682,-0.049,59.263,158.564,-62.400
19:09:22:174,34.179,-1.283,-0.890,-0.383,54.887,150.517,-62.718
19:09:22:174,34.179,-1.305,-0.806,-0.337,51.246,145.337,-63.092
19:09:22:175,34.179,-1.404,-0.859,-0.350,46.358,138.766,-64.490
19:09:22:175,34.179,-1.513,-0.794,-0.458,44.482,136.263,-66.169
19:09:22:219,34.224,-1.565,-0.233,-0.209,45.694,137.098,-68.811
19:09:22:219,34.224,-1.497,0.787,-0.026,52.411,141.973,-71.756
19:09:22:409,34.414,-0.967,1.010,0.471,57.941,146.412,-74.814
19:09:22:41,34.415,-0.777,1.438,1.101,68.229,150.793,-81.609
19:09:22:435,34.440,0.945,0.413,0.531,114.595,173.279,-95.208
19:09:22:435,34.440,0.826,-0.182,0.316,123.403,179.126,-97.190
19:09:22:436,34.441,0.856,-0.498,0.010,132.634,-172.621,-99.443
19:09:22:437,34.442,1.113,-0.726,-0.099,137.831,-167.899,-100.915
19:09:22:593,34.598,1.222,-1.146,-0.197,141.910,-163.867,-102.766
19:09:22:594,34.599,0.914,-1.196,-0.110,144.473,-163.358,-103.715
19:09:22:594,34.599,0.877,-1.057,-0.159,150.933,-164.299,-104.422
19:09:22:595,34.600,1.076,-0.690,-0.563,155.965,-165.809,-103.485
19:09:22:616,34.621,0.777,0.050,-0.207,160.335,-168.620,-102.232
19:09:22:616,34.621,0.641,0.480,0.163,167.990,-174.340,-98.233
19:09:22:617,34.622,0.354,1.338,0.512,-176.791,-178.654,-94.055
19:09:22:636,34.641,-0.091,1.006,0.550,-19.619,175.400,-88.308
19:09:22:662,34.667,-0.356,0.479,0.262,11.375,170.614,-82.809
19:09:22:777,34.782,-0.356,0.336,0.261,13.853,168.306,-78.986
19:09:22:777,34.782,-0.473,0.051,0.364,12.311,165.585,-73.285
19:09:22:778,34.783,-0.779,-0.055,0.269,7.477,164.057,-70.550
19:09:22:778,34.783,-0.824,-0.343,0.223,2.028,162.319,-67.803
19:09:22:794,34.799,-0.791,-0.684,0.106,-0.608,161.667,-65.689
19:09:22:849,34.854,-0.735,-0.816,0.048,-2.320,161.891,-65.087
19:09:22:849,34.854,-0.666,-0.954,0.067,-4.107,163.225,-64.670
19:09:22:96,34.965,-0.545,-0.848,-0.023,-6.472,164.596,-64.464
19:09:22:96,34.965,-0.793,-0.667,0.073,-11.548,166.822,-64.313
19:09:22:961,34.966,-0.945,-0.273,0.213,-17.657,169.244,-64.632
19:09:22:962,34.967,-1.038,0.442,0.689,-21.173,170.953,-64.917
19:09:22:979,34.984,-0.636,1.137,0.941,-25.258,174.728,-65.955
19:09:23:005,35.010,-0.654,1.029,1.197,-26.032,178.388,-67.557
19:09:23:03,35.035,-0.437,1.240,1.319,-24.074,-175.620,-70.065
19:09:23:056,35.061,0.111,1.179,1.148,-23.560,-168.160,-73.335
19:09:23:136,35.141,0.441,0.649,0.961,-21.808,-162.230,-75.892
19:09:23:172,35.177,0.747,-0.211,0.410,-22.653,-153.573,-79.630
19:09:23:172,35.177,0.752,-0.289,0.164,-34.642,-148.028,-81.572
19:09:23:172,35.177,0.736,-0.163,0.088,-51.191,-139.647,-83.975
19:09:23:214,35.219,0.935,-0.705,-0.491,-57.607,-128.155,-88.361
19:09:23:355,35.360,0.666,-0.995,-0.552,101.128,-124.371,-90.281
19:09:23:355,35.360,0.613,-0.877,-0.672,118.908,-122.949,-91.727
19:09:23:356,35.361,0.844,-0.626,-0.821,124.516,-122.870,-93.136
19:09:23:356,35.361,0.925,-0.042,-0.292,132.121,-124.883,-92.816
19:09:23:375,35.380,0.884,0.552,-0.234,169.947,-126.598,-92.033
19:09:23:376,35.381,0.667,0.978,-0.078,-83.934,-130.970,-89.780
19:09:23:397,35.402,0.352,0.778,0.324,-44.385,-134.929,-87.440
19:09:23:426,35.431,0.073,0.838,0.400,-35.047,-140.817,-83.409
19:09:23:427,35.432,-0.405,0.405,0.346,-33.925,-144.627,-80.876
19:09:23:565,35.570,-0.674,-0.149,0.454,-28.012,-150.262,-77.735
19:09:23:566,35.571,-1.045,-0.592,0.751,-22.107,-155.534,-75.398
19:09:23:566,35.571,-1.202,-0.683,0.673,-21.097,-158.045,-74.290
19:09:23:567,35.572,-1.276,-0.879,0.585,-19.810,-159.897,-73.321
19:09:23:585,35.590,-1.090,-0.835,0.559,-17.884,-159.620,-73.131
19:09:23:585,35.590,-0.966,-0.662,0.581,-15.060,-156.230,-73.767
19:09:23:607,35.612,-0.667,-0.113,0.847,-11.327,-149.781,-75.566
19:09:23:634,35.638,-0.522,0.951,1.497,-7.025,-144.560,-77.156
19:09:23:776,35.781,0.275,1.499,1.748,16.767,-135.523,-80.572
19:09:23:776,35.781,1.138,1.095,1.135,46.500,-129.038,-83.068
19:09:23:776,35.781,1.325,0.887,0.932,78.048,-121.817,-87.484
19:09:23:777,35.782,1.323,0.795,0.389,96.289,-115.635,-91.318
19:09:23:795,35.800,1.072,0.258,0.021,106.816,-112.143,-93.592
19:09:23:796,35.801,0.682,-0.332,-0.036,119.030,-108.072,-96.667
19:09:23:818,35.822,0.543,-0.610,-0.418,125.800,-104.877,-98.449
19:09:23:932,35.937,0.487,-0.719,-0.559,133.180,-99.773,-100.364
19:09:23:933,35.938,0.288,-0.982,-0.856,138.487,-95.029,-101.378
19:09:23:933,35.938,0.075,-1.002,-0.931,142.993,-92.386,-101.578
19:09:23:933,35.938,-0.241,-1.037,-1.031,147.385,-90.157,-101.405
19:09:23:949,35.954,-0.242,-0.989,-0.980,145.277,-90.091,-101.047
19:09:24:003,36.008,-0.010,-0.344,-0.847,133.121,-92.378,-99.456
19:09:24:111,36.116,0.142,0.176,-0.509,118.765,-95.510,-96.571
19:09:24:112,36.117,0.344,1.192,-0.356,89.360,-100.051,-89.862
19:09:24:196,36.200,0.458,2.213,0.042,61.082,-104.480,-83.903
19:09:24:196,36.200,0.317,1.308,0.737,54.756,-107.848,-80.421
19:09:24:196,36.201,0.009,0.741,1.049,49.389,-112.898,-76.044
19:09:24:197,36.201,0.018,0.239,0.692,46.677,-117.235,-73.960
19:09:24:351,36.356,-0.053,-0.225,0.723,48.679,-120.094,-73.413
19:09:24:352,36.357,-0.064,-0.960,0.794,52.962,-124.701,-73.331
19:09:24:353,36.358,-0.148,-1.301,0.855,52.754,-127.748,-73.110
19:09:24:354,36.359,-0.305,-1.211,0.945,46.394,-131.473,-72.741
19:09:24:378,36.382,-0.536,-1.169,0.833,40.260,-132.705,-72.541
19:09:24:379,36.383,-0.496,-1.125,0.830,33.995,-132.342,-72.673
19:09:24:38,36.384,-0.320,-1.020,0.904,30.532,-129.813,-73.026
19:09:24:38,36.385,-0.047,-0.406,1.255,26.477,-127.468,-73.463
19:09:24:399,36.403,0.261,1.268,1.983,16.897,-122.920,-74.365
19:09:24:399,36.403,0.602,1.675,1.250,14.941,-118.170,-76.274
19:09:24:509,36.514,0.802,1.733,0.882,25.005,-110.309,-81.639
19:09:24:509,36.514,1.208,1.547,0.583,67.729,-103.578,-88.431
19:09:24:51,36.515,1.085,1.291,-0.245,139.976,-99.317,-92.655
19:09:24:511,36.516,0.568,0.629,-0.691,176.875,-92.729,-98.040
19:09:24:528,36.533,0.274,-0.233,-0.686,175.086,-88.881,-101.257
19:09:24:553,36.558,0.123,-0.745,-0.797,169.229,-83.582,-105.349
19:09:24:579,36.583,-0.029,-0.967,-0.858,168.157,-78.447,-108.071
19:09:24:605,36.609,-0.238,-1.088,-1.034,169.590,-75.240,-108.998
19:09:24:72,36.725,-0.403,-1.122,-1.097,170.869,-72.307,-109.262
19:09:24:72,36.725,-0.444,-1.144,-1.058,168.486,-72.317,-108.711
19:09:24:72,36.725,-0.440,-1.012,-0.883,160.536,-74.612,-106.544
19:09:24:721,36.726,-0.137,-0.383,-0.839,149.218,-78.877,-102.348
19:09:24:736,36.741,0.145,0.227,-0.767,134.581,-82.515,-97.459
19:09:24:764,36.769,0.517,1.663,-0.425,81.293,-87.883,-89.005
19:09:24:929,36.934,0.554,2.050,0.357,50.857,-91.801,-84.169
19:09:24:93,36.935,0.491,0.995,0.875,49.246,-97.326,-78.460
19:09:24:931,36.936,0.323,0.610,0.910,48.120,-101.929,-74.491
19:09:24:931,36.936,0.177,0.238,0.770,47.742,-105.026,-73.256
19:09:24:953,36.958,0.040,-0.598,0.736,50.750,-109.858,-72.971
19:09:24:953,36.958,0.008,-0.886,0.682,52.874,-113.120,-73.429
19:09:24:954,36.958,-0.083,-1.138,0.801,52.859,-118.276,-74.542
19:09:24:973,36.978,-0.235,-0.987,0.879,49.580,-121.525,-75.202
19:09:25:142,37.147,-0.329,-0.937,0.847,41.547,-124.901,-76.167
19:09:25:143,37.147,-0.368,-0.988,0.691,35.052,-126.186,-77.295
19:09:25:143,37.147,-0.254,-0.995,0.692,32.180,-125.810,-78.034
19:09:25:143,37.148,-0.139,-0.820,0.941,25.819,-123.906,-79.122
19:09:25:164,37.168,0.372,1.311,1.578,10.208,-119.970,-80.151
19:09:25:164,37.168,0.608,1.654,1.373,8.728,-116.171,-81.819
19:09:25:164,37.168,0.813,1.356,0.664,32.804,-109.706,-86.523
19:09:25:185,37.189,0.963,1.523,0.591,109.254,-105.262,-90.642
19:09:25:326,37.331,0.920,1.354,-0.331,-168.329,-97.992,-96.406
19:09:25:326,37.331,0.430,0.526,-0.506,-161.162,-93.347,-99.473
19:09:25:326,37.331,0.184,0.113,-0.602,-161.709,-86.050,-103.359
19:09:25:327,37.331,-0.078,-0.566,-0.622,-167.309,-78.804,-106.472
19:09:25:343,37.347,-0.216,-0.781,-0.773,-169.844,-74.198,-108.042
19:09:25:344,37.348,-0.298,-0.996,-0.822,-173.914,-68.844,-109.512
19:09:25:366,37.371,-0.209,-1.235,-0.797,-177.955,-67.043,-109.930
19:09:25:478,37.483,-0.276,-1.393,-0.894,176.511,-66.625,-109.616
19:09:25:478,37.483,-0.417,-0.960,-0.836,174.338,-67.901,-107.515
19:09:25:479,37.484,-0.354,-0.379,-0.959,174.592,-69.798,-105.347
19:09:25:503,37.508,-0.039,0.941,-1.156,162.777,-74.580,-99.611
19:09:25:504,37.509,0.013,1.668,-0.518,125.349,-78.671,-94.340
19:09:25:505,37.510,0.124,1.741,-0.282,71.253,-83.529,-86.207
19:09:25:524,37.528,0.284,1.503,0.189,52.265,-86.986,-79.049
19:09:25:55,37.554,0.245,0.918,0.859,46.475,-88.929,-75.198
19:09:25:578,37.582,0.204,0.086,0.687,42.243,-91.634,-71.605
19:09:25:66,37.665,0.104,-0.638,0.758,41.739,-94.296,-70.211
19:09:25:661,37.666,0.077,-0.944,0.851,40.180,-98.373,-68.481
19:09:25:662,37.667,0.014,-1.180,1.064,37.604,-102.680,-67.790
19:09:25:71,37.715,-0.036,-1.226,1.235,34.806,-104.654,-67.828
19:09:25:711,37.716,-0.043,-1.129,1.039,30.628,-105.293,-68.341
19:09:25:734,37.739,0.120,-1.060,1.120,29.331,-104.694,-68.786
19:09:25:76,37.764,0.291,-0.915,1.070,26.883,-102.641,-69.938
19:09:25:902,37.906,0.649,0.043,1.214,20.000,-98.754,-71.680
19:09:25:902,37.906,1.049,0.871,1.191,14.947,-95.116,-73.397
19:09:25:902,37.906,1.367,1.427,0.691,10.163,-90.414,-78.034
19:09:25:903,37.907,1.168,1.466,0.042,3.824,-86.259,-81.821
19:09:25:919,37.923,1.123,1.458,-0.018,-44.405,-80.703,-88.212
19:09:25:949,37.953,0.742,1.190,-0.702,-135.629,-75.764,-94.173
19:09:25:949,37.953,0.328,0.645,-0.642,-143.614,-72.340,-97.730
19:09:26:051,38.056,0.018,-0.041,-0.507,-150.256,-66.843,-102.503
19:09:26:084,38.088,-0.054,-0.345,-0.536,-155.138,-62.950,-105.378
19:09:26:084,38.089,-0.201,-0.807,-0.791,-161.762,-56.445,-108.933
19:09:26:085,38.090,-0.512,-1.092,-0.982,-166.068,-49.373,-111.067
19:09:26:086,38.090,-0.569,-1.132,-0.885,-167.754,-45.314,-111.681
19:09:26:132,38.137,-0.677,-1.150,-0.646,-169.405,-41.355,-111.631
19:09:26:132,38.137,-0.883,-0.926,-0.436,-170.407,-39.879,-110.657
19:09:26:32,38.325,-0.909,-0.583,-0.346,-175.173,-40.030,-108.392
19:09:26:321,38.326,-0.414,0.177,-0.462,175.344,-42.504,-106.265
19:09:26:322,38.327,-0.036,0.684,-0.254,142.072,-48.476,-99.995
19:09:26:323,38.327,0.013,1.702,-0.167,96.297,-52.151,-91.395
19:09:26:346,38.351,0.182,1.814,0.181,74.570,-54.023,-86.043
19:09:26:347,38.352,0.521,1.380,0.608,58.733,-57.390,-78.564
19:09:26:348,38.353,0.324,0.202,0.504,57.461,-57.749,-74.717
19:09:26:348,38.353,0.226,-0.222,0.510,57.591,-57.900,-69.118
19:09:26:477,38.481,0.218,-0.593,0.506,56.480,-58.796,-65.116
19:09:26:477,38.481,0.464,-0.798,0.725,55.534,-60.189,-63.723
19:09:26:478,38.482,0.640,-1.144,0.883,53.748,-61.504,-62.157
19:09:26:499,38.503,0.527,-1.262,0.884,51.543,-61.391,-61.080
19:09:26:5,38.504,0.633,-1.197,0.934,46.024,-60.645,-60.282
19:09:26:553,38.558,0.762,-0.954,0.886,39.183,-58.512,-59.933
19:09:26:554,38.559,0.970,-0.616,0.753,35.510,-56.143,-60.142
19:09:26:555,38.560,1.711,0.213,0.636,32.475,-51.510,-61.364
19:09:26:63,38.635,1.871,1.239,0.144,31.588,-48.217,-62.961
19:09:26:631,38.636,1.589,1.430,-0.352,32.832,-42.540,-67.613
19:09:26:655,38.660,0.963,1.284,-0.997,38.436,-37.926,-73.597
19:09:26:682,38.686,0.612,1.031,-1.106,43.240,-36.259,-77.706
19:09:26:682,38.687,0.360,0.835,-0.783,42.540,-34.694,-83.705
19:09:26:708,38.712,0.088,0.555,-0.512,13.546,-33.352,-87.354
19:09:26:731,38.736,-0.400,-0.142,-0.464,-108.333,-29.950,-92.212
19:09:26:872,38.877,-0.526,-0.484,-0.447,-114.776,-26.634,-95.243
19:09:26:873,38.878,-0.786,-0.591,-0.491,-118.036,-20.196,-99.794
19:09:26:873,38.878,-1.081,-0.889,-0.312,-117.310,-12.768,-102.811
19:09:26:874,38.879,-0.983,-1.020,-0.151,-115.548,-8.301,-103.429
19:09:26:892,38.897,-1.127,-0.945,0.058,-112.340,-3.977,-102.529
19:09:26:892,38.897,-1.187,-0.192,0.476,-107.404,-2.835,-99.543
19:09:27:084,39.088,-0.896,0.368,0.393,-102.536,-5.181,-96.306
19:09:27:084,39.088,-0.244,0.987,0.113,-88.310,-11.917,-89.408
19:09:27:084,39.088,0.032,1.426,0.102,-69.056,-16.379,-84.821
19:09:27:084,39.089,0.341,1.637,0.156,-24.238,-22.273,-79.205
19:09:27:109,39.114,0.809,0.805,-0.042,1.341,-25.208,-76.787
19:09:27:109,39.114,0.844,0.207,0.074,23.107,-30.559,-74.195
19:09:27:109,39.114,0.459,-0.395,0.107,33.260,-34.609,-73.447
19:09:27:109,39.114,0.492,-0.739,0.110,39.726,-37.260,-73.661
19:09:27:125,39.130,0.760,-1.299,0.148,46.862,-41.599,-74.404
19:09:27:266,39.270,0.905,-1.237,0.222,46.545,-44.383,-74.742
19:09:27:266,39.271,0.841,-1.186,0.257,37.382,-47.206,-74.725
19:09:27:267,39.272,0.703,-1.203,0.349,21.485,-48.201,-74.294
19:09:27:268,39.273,0.731,-1.197,0.320,7.555,-47.817,-73.808
19:09:27:285,39.290,0.872,-0.764,0.204,-15.989,-46.361,-72.818
19:09:27:286,39.291,1.362,0.535,-0.113,-26.961,-44.340,-71.945
19:09:27:423,39.428,1.828,1.597,-0.129,-36.483,-39.555,-71.954
19:09:27:424,39.428,1.026,2.164,-0.489,-47.652,-31.717,-75.428
19:09:27:424,39.429,0.567,2.351,-0.760,-56.856,-25.438,-79.790
19:09:27:425,39.430,0.124,1.170,-1.009,-74.959,-16.867,-86.539
19:09:27:444,39.448,-0.218,0.948,-0.739,-93.859,-11.370,-90.902
19:09:27:444,39.449,-0.611,0.418,-0.333,-115.327,-2.875,-97.078
19:09:27:468,39.473,-0.805,-0.301,-0.179,-130.896,5.275,-102.560
19:09:27:492,39.497,-0.804,-0.605,-0.172,-139.116,10.025,-105.486
19:09:27:52,39.525,-0.871,-0.947,0.007,-147.027,16.585,-108.801
19:09:27:659,39.664,-1.016,-1.149,0.274,-150.041,20.641,-110.191
19:09:27:66,39.665,-0.965,-1.236,0.353,-154.506,24.353,-111.213
19:09:27:661,39.666,-0.963,-1.150,0.540,-158.643,25.439,-110.982
19:09:27:661,39.666,-0.879,-0.692,0.764,-161.151,24.978,-110.401
19:09:27:679,39.684,-0.733,0.182,0.430,-170.141,20.885,-108.323
19:09:27:68,39.685,-0.480,0.543,0.044,172.737,15.977,-105.197
19:09:27:707,39.712,0.103,0.981,-0.104,123.826,9.797,-98.236
19:09:27:707,39.712,0.246,1.104,0.244,91.393,6.743,-90.530
19:09:27:845,39.850,0.225,1.029,0.212,80.507,4.748,-85.815
19:09:27:845,39.850,0.240,0.694,0.056,69.720,1.008,-80.685
19:09:27:845,39.850,0.315,-0.015,-0.241,66.761,-1.737,-79.069
19:09:27:846,39.851,0.506,-0.430,-0.247,64.659,-6.379,-77.313
19:09:27:893,39.898,0.896,-0.939,-0.219,60.604,-10.610,-75.792
19:09:27:893,39.898,1.129,-0.983,-0.073,54.993,-12.537,-74.791
19:09:27:894,39.899,1.149,-0.777,-0.059,44.020,-13.973,-73.329
19:09:27:993,39.997,1.112,-0.778,-0.136,38.691,-13.541,-72.421
19:09:28:026,40.031,1.007,-0.695,-0.174,33.735,-11.138,-71.899
19:09:28:044,40.049,0.517,1.516,-1.247,27.849,6.403,-79.021
19:09:28:07,40.075,-0.018,1.672,-1.159,33.927,12.595,-83.722
19:09:28:096,40.101,-0.332,1.331,-0.940,53.540,15.992,-87.198
19:09:28:211,40.216,-0.585,0.857,-0.500,149.476,20.908,-92.760
19:09:28:211,40.216,-0.580,0.360,-0.188,-177.153,26.473,-98.305
19:09:28:212,40.217,-0.601,-0.140,-0.040,-175.912,30.629,-101.742
19:09:28:212,40.217,-0.772,-0.591,0.172,-177.304,37.604,-106.150
19:09:28:257,40.262,-0.950,-0.949,0.487,-178.336,42.644,-108.349
19:09:28:257,40.262,-0.810,-1.069,0.621,-179.232,49.656,-110.471
19:09:28:28,40.285,-0.548,-1.127,0.735,-179.442,54.867,-111.337
19:09:28:392,40.396,-0.458,-1.171,0.810,-179.988,57.082,-111.202
19:09:28:392,40.396,-0.237,-1.019,0.818,178.377,58.032,-110.243
19:09:28:393,40.397,-0.366,-0.594,0.769,176.250,57.028,-108.682
19:09:28:414,40.419,-0.386,0.197,0.461,167.585,53.491,-102.915
19:09:28:415,40.420,-0.331,1.513,0.202,129.133,50.244,-93.226
19:09:28:438,40.443,-0.094,2.186,0.607,59.944,48.773,-86.974
19:09:28:463,40.468,0.440,1.265,0.147,42.034,46.963,-79.016
19:09:28:49,40.495,0.243,0.796,-0.091,39.478,45.740,-75.359
19:09:28:576,40.580,0.323,0.261,-0.562,36.035,42.610,-71.776
19:09:28:576,40.581,0.413,-0.323,-0.764,32.330,39.357,-69.636
19:09:28:576,40.581,0.507,-0.529,-0.823,30.416,37.090,-68.766
19:09:28:624,40.629,0.649,-0.860,-0.781,26.478,34.441,-67.925
19:09:28:625,40.630,0.842,-0.925,-0.777,22.438,33.985,-67.776
19:09:28:647,40.652,0.854,-0.832,-0.810,16.451,33.251,-68.147
19:09:28:673,40.678,0.604,-0.733,-0.821,14.925,35.110,-69.389
19:09:28:816,40.821,0.490,-0.708,-0.777,15.381,37.202,-70.786
19:09:28:816,40.821,0.263,-0.327,-0.870,16.228,42.301,-73.297
19:09:28:817,40.822,0.100,0.360,-1.084,13.410,45.726,-75.192
19:09:28:818,40.823,-0.388,1.483,-1.074,5.960,51.893,-78.862
19:09:28:834,40.839,-1.089,1.780,-0.175,24.456,56.889,-85.570
19:09:28:834,40.839,-1.349,1.165,0.373,79.006,60.528,-89.157
19:09:28:859,40.864,-0.707,0.492,0.140,122.367,63.112,-93.848
19:09:28:972,40.977,-0.329,0.331,0.132,143.312,64.950,-96.574
19:09:28:973,40.978,-0.258,0.137,0.242,162.537,69.049,-100.017
19:09:28:973,40.978,-0.240,-0.329,0.564,164.155,72.745,-101.681
19:09:28:973,40.978,-0.112,-0.608,0.671,158.218,78.796,-103.256
19:09:28:989,40.994,0.001,-0.794,0.837,149.113,84.387,-104.129
19:09:29:015,41.020,0.044,-0.953,0.978,143.359,86.932,-104.337
19:09:29:043,41.048,-0.069,-1.211,0.979,136.478,88.304,-104.137
19:09:29:068,41.073,0.033,-1.162,1.057,134.362,88.443,-103.609
19:09:29:152,41.157,-0.096,-0.896,1.046,133.250,87.798,-101.735
19:09:29:153,41.158,-0.285,0.215,0.729,123.328,85.303,-96.944
19:09:29:153,41.158,-0.281,0.938,0.458,103.997,83.334,-92.432
19:09:29:172,41.177,0.106,1.779,0.146,60.935,80.764,-84.993
19:09:29:199,41.204,0.138,1.165,-0.200,49.362,79.836,-80.547
19:09:29:225,41.230,0.007,0.576,-0.399,43.925,78.999,-74.767
19:09:29:254,41.259,0.008,0.325,-0.575,34.301,77.747,-71.800
19:09:29:28,41.284,0.142,-0.041,-0.692,27.477,75.939,-70.856
19:09:29:362,41.367,0.237,-0.622,-0.681,21.145,73.541,-70.698
19:09:29:363,41.368,0.234,-0.846,-0.701,18.507,71.719,-71.229
19:09:29:363,41.368,0.241,-0.825,-0.740,13.246,68.646,-72.627
19:09:29:382,41.387,0.225,-0.887,-0.724,9.368,66.742,-73.655
19:09:29:408,41.413,0.271,-0.938,-0.715,2.644,64.724,-75.310
19:09:29:435,41.440,0.277,-0.870,-0.735,-10.218,64.141,-77.079
19:09:29:548,41.553,0.251,-0.575,-0.679,-25.013,65.224,-78.450
19:09:29:549,41.554,0.015,0.205,-0.892,-50.353,68.099,-81.271
19:09:29:55,41.555,-0.221,2.256,-0.885,-76.568,72.559,-86.443
19:09:29:551,41.556,-0.390,1.691,-0.069,-95.423,77.601,-91.378
19:09:29:567,41.572,-0.590,1.312,0.178,-127.230,84.111,-98.968
19:09:29:592,41.597,-0.801,1.381,0.486,-140.536,87.814,-103.804
19:09:29:618,41.623,-0.646,0.746,0.900,-148.715,93.229,-110.150
19:09:29:645,41.649,-0.194,-0.180,0.686,-152.910,98.312,-114.692
19:09:29:731,41.736,-0.082,-0.478,0.570,-155.083,101.402,-116.895
19:09:29:731,41.736,0.025,-0.829,0.580,-157.163,106.572,-119.204
19:09:29:732,41.737,0.254,-1.047,0.760,-157.481,110.557,-119.994
19:09:29:75,41.755,0.368,-1.214,0.785,-158.261,115.986,-119.861
19:09:29:776,41.781,0.244,-1.280,0.699,-159.903,117.914,-117.766
19:09:29:802,41.807,0.419,-1.285,0.787,-160.561,118.117,-115.367
19:09:29:83,41.835,0.609,-0.987,0.740,-159.914,117.326,-110.809
19:09:29:856,41.860,0.499,0.051,0.744,-159.704,115.200,-107.348
19:09:29:937,41.942,0.067,0.870,0.546,-172.661,108.966,-100.862
19:09:29:938,41.943,0.054,1.308,-0.309,116.018,102.962,-93.522
19:09:29:962,41.967,0.181,1.816,-0.481,85.887,101.176,-89.180
19:09:29:963,41.968,0.109,1.516,-0.735,75.948,98.913,-85.724
19:09:29:99,41.995,0.000,0.917,-0.879,77.066,97.446,-85.330
19:09:29:99,41.995,-0.009,0.768,-0.608,84.346,95.596,-87.735
19:09:30:042,42.046,0.030,0.104,-0.501,94.685,93.414,-92.333
19:09:30:042,42.047,0.059,-0.295,-0.362,99.907,91.115,-95.985
19:09:30:122,42.127,-0.035,-0.488,-0.302,106.104,86.663,-102.508
19:09:30:205,42.210,-0.195,-0.480,-0.312,109.254,83.776,-106.980
19:09:30:206,42.211,-0.156,-0.566,-0.194,112.376,80.433,-113.455
19:09:30:207,42.211,-0.069,-0.677,-0.270,113.771,78.187,-118.214
19:09:30:208,42.212,-0.197,-0.583,-0.356,115.331,74.724,-126.109
19:09:30:225,42.230,-0.617,-0.085,-0.226,116.121,71.472,-134.768
19:09:30:226,42.231,-0.621,0.279,0.052,116.238,67.052,-143.087
19:09:30:338,42.343,-0.531,0.340,0.306,115.955,55.678,-158.765
19:09:30:338,42.343,-0.320,0.297,0.332,116.013,48.021,-169.186
19:09:30:339,42.344,-0.322,0.334,0.317,115.979,41.771,177.876
19:09:30:339,42.344,-0.190,0.460,0.263,116.019,37.699,168.377
19:09:30:354,42.359,-0.007,0.331,0.393,115.894,37.277,165.107
19:09:30:38,42.385,0.225,-0.040,0.479,114.723,38.580,161.121
19:09:30:406,42.411,0.344,-0.200,0.290,113.750,37.169,156.546
19:09:30:433,42.437,0.182,-0.315,0.284,112.176,34.513,149.509
19:09:30:517,42.522,0.028,-0.541,0.498,110.765,33.169,144.638
19:09:30:517,42.522,0.146,-0.670,0.534,110.074,32.136,142.023
19:09:30:518,42.523,0.319,-0.697,0.346,109.621,29.966,137.967
19:09:30:538,42.542,0.245,-0.520,0.380,109.521,28.325,135.237
19:09:30:565,42.570,0.299,-0.434,0.292,109.530,24.874,130.897
19:09:30:593,42.597,0.366,0.016,0.027,109.955,21.618,127.506
19:09:30:616,42.621,0.150,0.227,0.231,109.809,20.123,126.146
19:09:30:644,42.649,0.055,0.333,0.223,109.059,17.259,124.237
19:09:30:697,42.702,0.132,0.294,0.169,108.413,15.541,123.370
19:09:30:698,42.703,0.305,0.383,0.126,107.171,13.230,122.490
19:09:30:721,42.726,0.223,0.219,0.146,105.727,10.882,121.613
19:09:30:748,42.752,0.110,0.013,0.206,104.731,10.238,121.850
19:09:30:827,42.832,0.102,-0.180,0.028,103.716,9.618,122.441
19:09:30:941,42.945,0.123,-0.207,-0.145,103.269,7.823,121.285
19:09:30:941,42.946,-0.093,-0.334,-0.249,102.674,5.062,119.275
19:09:30:942,42.947,-0.231,-0.454,0.033,101.877,4.875,118.861
19:09:30:943,42.947,-0.211,-0.457,-0.041,101.169,3.909,117.498
19:09:31:019,43.024,-0.259,-0.375,-0.169,99.965,0.773,112.677
19:09:31:021,43.026,-0.246,-0.041,0.002,98.115,-1.928,106.711
19:09:31:023,43.028,-0.262,0.187,-0.129,97.081,-2.600,103.887
19:09:31:124,43.129,-0.351,0.134,0.020,96.292,-1.436,102.566
19:09:31:125,43.129,-0.172,0.101,0.138,95.462,0.437,101.519
19:09:31:126,43.130,-0.042,0.159,0.138,95.364,3.330,101.655
19:09:31:127,43.131,0.267,0.029,0.202,95.440,7.708,103.464
19:09:31:203,43.208,0.322,-0.337,0.263,95.588,12.356,106.349
19:09:31:203,43.208,0.279,-0.447,0.275,96.334,25.021,116.524
19:09:31:204,43.209,0.157,-0.632,0.244,97.916,54.920,144.247
19:09:31:204,43.209,0.092,-0.760,0.364,99.310,89.957,178.371
19:09:31:309,43.314,0.187,-0.760,0.569,101.622,131.277,-140.398
19:09:31:309,43.314,0.298,-0.716,0.482,103.293,143.261,-127.712
19:09:31:309,43.314,0.319,-0.586,0.598,106.232,150.641,-118.567
19:09:31:31,43.314,0.435,-0.326,0.612,109.787,152.950,-113.902
19:09:31:326,43.330,0.469,-0.194,0.566,112.507,152.459,-111.953
19:09:31:352,43.357,0.311,0.143,0.484,116.275,150.721,-107.660
19:09:31:377,43.382,0.160,1.184,1.062,118.790,149.459,-103.085
19:09:31:404,43.409,0.022,1.870,0.826,124.240,144.732,-96.253
19:09:31:485,43.490,-0.363,1.626,0.426,80.774,138.682,-89.670
19:09:31:515,43.519,-0.479,1.103,-0.262,-0.162,134.992,-85.420
19:09:31:515,43.520,-0.192,0.610,-0.324,0.758,130.763,-79.884
19:09:31:516,43.520,-0.133,0.084,-0.225,7.237,128.012,-77.196
19:09:31:537,43.541,-0.724,-0.549,-0.494,11.632,123.389,-74.267
19:09:31:563,43.568,-1.000,-0.856,-0.795,1.010,118.567,-71.605
19:09:31:587,43.592,-0.998,-0.785,-0.836,-12.295,115.276,-69.926
19:09:31:613,43.618,-0.841,-0.512,-1.155,-28.904,111.936,-68.236
19:09:31:698,43.703,-0.876,-0.481,-1.233,-34.363,112.217,-68.486
19:09:31:699,43.703,-1.025,-0.368,-0.967,-35.277,116.376,-70.503
19:09:31:7,43.704,-1.527,0.736,-0.463,-37.360,122.266,-73.498
19:09:31:719,43.724,-1.715,1.607,0.178,-44.138,127.190,-76.593
19:09:31:745,43.750,-0.925,2.239,1.187,-62.948,137.223,-83.631
19:09:31:771,43.776,-0.735,1.873,1.602,-85.132,143.038,-89.127
19:09:31:878,43.882,-0.072,0.980,1.773,-129.422,150.926,-97.893
19:09:31:938,43.943,0.454,0.517,1.363,-141.492,156.643,-103.622
19:09:31:939,43.944,0.627,-0.221,0.970,-154.138,164.799,-111.546
19:09:31:939,43.944,0.790,-0.925,0.660,-164.730,171.905,-117.445
19:09:31:94,43.945,0.763,-1.232,0.431,-170.400,176.113,-119.916
19:09:31:958,43.963,0.897,-1.353,0.143,-177.248,-177.324,-120.772
19:09:31:958,43.963,0.889,-1.051,-0.276,178.948,-173.069,-119.312
19:09:32:095,44.100,0.934,-0.843,-0.516,171.665,-167.762,-114.416
19:09:32:096,44.101,0.933,-0.238,-0.539,154.021,-164.694,-107.345
19:09:32:097,44.101,0.711,0.453,0.061,130.908,-164.394,-102.605
19:09:32:098,44.102,0.072,-0.006,0.257,99.775,-165.727,-95.307
19:09:32:119,44.124,-0.222,-0.322,-0.128,89.039,-165.531,-89.279
19:09:32:119,44.124,0.246,0.144,0.195,77.534,-164.232,-79.973
19:09:32:12,44.125,0.363,1.044,0.986,68.300,-167.774,-74.810
19:09:32:17,44.175,-0.060,0.844,1.119,66.941,-172.129,-73.362
19:09:32:17,44.175,-0.381,-0.242,0.557,68.283,-178.794,-72.119
19:09:32:305,44.310,-0.265,-0.344,0.401,67.828,176.641,-71.824
19:09:32:306,44.311,-0.428,-0.329,0.354,65.849,168.969,-72.530
19:09:32:307,44.312,-0.667,-0.603,0.219,64.600,161.644,-73.846
19:09:32:308,44.313,-0.876,-0.959,0.172,63.552,157.219,-74.507
19:09:32:384,44.389,-1.103,-0.906,0.101,58.843,151.622,-75.028
19:09:32:385,44.390,-1.138,-0.600,0.042,53.005,149.311,-75.154
19:09:32:385,44.390,-1.106,-0.499,0.004,45.575,148.209,-75.563
19:09:32:386,44.391,-1.182,-0.590,0.243,43.662,149.563,-76.240
19:09:32:459,44.464,-1.289,-0.189,0.505,40.782,151.598,-76.813
19:09:32:46,44.465,-1.341,1.212,1.029,29.782,156.492,-78.279
19:09:32:461,44.465,-0.850,1.623,1.235,21.755,161.500,-80.161
19:09:32:48,44.484,-0.039,1.679,1.232,9.222,170.738,-84.216
19:09:32:506,44.511,0.416,1.644,1.180,-46.746,-179.164,-88.526
19:09:32:535,44.540,0.994,1.440,0.647,-109.384,-171.753,-91.226
19:09:32:56,44.565,1.154,0.449,0.108,-149.089,-160.575,-94.679
19:09:32:639,44.644,0.952,-0.427,-0.057,-177.347,-154.035,-96.641
19:09:32:752,44.757,0.851,-0.754,-0.334,157.397,-145.100,-99.134
19:09:32:752,44.757,0.804,-0.925,-0.600,147.774,-137.794,-100.797
19:09:32:753,44.758,0.792,-0.994,-0.731,144.533,-134.539,-101.604
19:09:32:754,44.759,0.648,-1.165,-0.674,141.653,-132.931,-102.964
19:09:32:885,44.890,0.625,-1.052,-0.860,140.173,-133.314,-103.561
19:09:32:886,44.891,0.586,-0.750,-0.872,137.295,-135.390,-103.645
19:09:32:886,44.891,0.962,0.167,-0.446,129.360,-140.563,-102.990
19:09:32:886,44.891,0.941,0.401,-0.004,119.090,-145.921,-101.453
19:09:32:908,44.913,0.503,1.139,0.676,102.654,-153.350,-96.564
19:09:32:909,44.914,0.366,1.651,0.799,94.232,-156.519,-92.642
19:09:32:91,44.915,-0.525,0.930,0.844,87.442,-161.435,-87.749
19:09:32:911,44.916,-0.220,0.442,0.348,84.805,-162.330,-84.422
19:09:32:926,44.931,0.056,-0.136,0.035,82.703,-164.333,-80.169
19:09:32:952,44.957,-0.272,-0.616,0.122,81.203,-166.439,-76.614
19:09:33:093,45.098,-0.673,-0.892,0.465,80.427,-168.374,-75.714
19:09:33:094,45.099,-1.058,-0.972,0.616,78.070,-170.509,-74.141
19:09:33:095,45.100,-1.248,-0.934,0.634,75.969,-170.838,-72.933
19:09:33:096,45.101,-1.182,-0.884,0.643,73.141,-169.701,-71.771
19:09:33:113,45.118,-0.950,-0.900,0.510,71.827,-166.709,-71.651
19:09:33:113,45.118,-0.791,-0.805,0.514,71.674,-163.875,-72.194
19:09:33:136,45.141,-0.790,-0.441,0.818,71.820,-159.299,-73.799
19:09:33:25,45.255,-0.650,1.063,1.998,71.835,-156.536,-75.337
19:09:33:25,45.255,0.130,1.365,1.738,74.702,-151.573,-78.860
19:09:33:25,45.255,0.461,1.177,1.391,81.894,-147.269,-84.515
19:09:33:271,45.276,0.935,1.358,1.101,87.841,-145.181,-88.687
19:09:33:323,45.328,0.920,-0.012,0.159,104.783,-139.954,-97.507
19:09:33:323,45.328,0.820,-0.354,-0.088,113.177,-135.139,-101.090
19:09:33:346,45.351,0.670,-0.654,-0.412,119.014,-128.538,-102.443
19:09:33:434,45.439,0.647,-0.650,-0.588,122.911,-123.588,-102.737
19:09:33:434,45.439,0.614,-0.694,-0.731,129.688,-117.075,-102.926
19:09:33:435,45.440,0.260,-1.017,-0.782,137.586,-113.556,-103.010
19:09:33:48,45.485,0.096,-1.058,-0.883,164.828,-109.006,-102.823
19:09:33:481,45.486,0.070,-0.605,-1.014,-155.253,-105.964,-101.494
19:09:33:532,45.537,0.027,0.560,-1.004,-139.654,-106.348,-100.055
19:09:33:533,45.538,0.244,0.551,-0.233,-133.545,-110.927,-96.196
19:09:33:671,45.676,0.307,0.888,0.096,-111.145,-114.715,-91.496
19:09:33:671,45.676,0.250,1.718,0.305,16.891,-119.349,-84.620
19:09:33:672,45.677,0.361,1.172,0.763,50.030,-122.247,-78.703
19:09:33:673,45.678,0.004,0.410,1.088,56.052,-123.826,-74.860
19:09:33:691,45.696,-0.123,-0.227,0.615,56.755,-125.243,-70.284
19:09:33:691,45.696,-0.146,-0.557,0.529,56.245,-127.314,-68.880
19:09:33:713,45.718,-0.173,-0.720,0.596,55.840,-132.018,-68.452
19:09:33:828,45.833,-0.347,-1.243,0.824,56.320,-138.235,-69.322
19:09:33:828,45.833,-0.428,-1.482,0.829,55.991,-142.829,-70.501
19:09:33:829,45.834,-0.631,-1.436,0.995,52.750,-149.019,-72.971
19:09:33:83,45.835,-0.726,-1.369,1.101,49.040,-151.686,-74.680
19:09:33:903,45.908,-0.608,-0.916,1.291,39.897,-152.314,-76.333
19:09:33:904,45.909,-0.157,-0.060,1.821,29.651,-150.624,-76.694
19:09:33:904,45.909,0.396,0.794,2.368,3.696,-145.865,-77.570
19:09:33:924,45.928,1.231,2.123,1.769,-38.500,-137.640,-80.809
19:09:34:039,46.044,1.227,1.818,1.112,-63.601,-129.731,-84.442
19:09:34:039,46.044,1.607,1.812,0.506,-93.291,-117.519,-90.871
19:09:34:04,46.045,1.252,1.140,-0.542,-106.164,-109.236,-95.296
19:09:34:04,46.045,0.607,0.311,-0.723,-118.610,-96.708,-101.369
19:09:34:055,46.060,0.319,-0.321,-0.863,-129.686,-85.340,-106.594
19:09:34:081,46.086,0.079,-0.714,-1.122,-135.727,-78.285,-109.387
19:09:34:107,46.112,-0.329,-1.098,-1.358,-141.658,-69.050,-111.824
19:09:34:216,46.221,-0.583,-1.158,-1.220,-144.527,-64.645,-112.369
19:09:34:217,46.222,-0.721,-1.203,-1.199,-149.117,-61.407,-111.931
19:09:34:245,46.250,-0.621,-1.118,-0.963,-155.343,-62.464,-109.793
19:09:34:245,46.250,-0.529,-0.860,-0.859,-161.068,-65.107,-107.665
19:09:34:246,46.251,-0.078,-0.017,-0.915,-176.911,-71.071,-103.038
19:09:34:265,46.270,0.525,0.661,-0.590,158.172,-76.402,-97.973
19:09:34:291,46.296,0.541,1.457,-0.048,75.874,-83.635,-88.542
19:09:34:318,46.322,0.304,1.811,0.371,24.251,-90.230,-79.385
19:09:34:401,46.406,0.176,1.569,1.012,18.865,-94.751,-74.342
19:09:34:401,46.406,0.204,0.369,0.841,25.987,-100.784,-68.651
19:09:34:428,46.433,0.327,0.065,0.767,28.704,-103.982,-66.088
19:09:34:429,46.434,0.241,-0.496,0.834,32.438,-108.974,-64.313
19:09:34:429,46.434,-0.012,-0.999,1.008,34.058,-114.084,-63.484
19:09:34:501,46.506,-0.388,-1.299,0.908,32.243,-123.998,-64.797
19:09:34:613,46.618,-0.416,-1.293,0.978,29.811,-126.145,-67.097
19:09:34:613,46.618,-0.194,-0.867,1.061,23.494,-125.778,-68.956
19:09:34:614,46.619,0.148,0.111,1.454,16.974,-124.201,-69.948
19:09:34:663,46.668,0.785,1.121,1.893,4.166,-119.897,-72.279
19:09:34:663,46.668,1.066,2.010,1.067,-8.386,-116.378,-76.009
19:09:34:689,46.693,1.084,1.993,0.571,-38.840,-108.523,-81.400
19:09:34:689,46.694,1.122,1.405,-0.122,-68.462,-100.438,-86.805
19:09:34:8,46.805,0.860,1.034,-0.462,-91.351,-95.161,-90.210
19:09:34:8,46.805,0.527,0.048,-0.811,-119.492,-87.158,-95.101
19:09:34:801,46.806,0.269,-0.526,-0.962,-133.544,-82.151,-97.667
19:09:34:802,46.807,-0.006,-0.671,-1.021,-147.088,-74.751,-100.768
19:09:34:816,46.821,-0.492,-0.843,-1.150,-150.758,-70.166,-102.675
19:09:34:842,46.847,-0.563,-1.117,-1.077,-155.736,-65.369,-104.881
19:09:34:87,46.875,-0.396,-1.221,-0.915,-164.654,-64.477,-105.810
19:09:35:036,47.041,-0.409,-1.143,-0.826,-169.917,-65.106,-105.966
19:09:35:037,47.042,-0.364,-0.636,-0.707,-174.741,-67.356,-105.016
19:09:35:037,47.042,0.105,0.080,-0.429,-177.064,-70.190,-103.710
19:09:35:038,47.043,0.393,0.421,-0.193,-178.906,-76.368,-98.965
19:09:35:06,47.065,0.469,1.578,-0.072,-162.580,-82.543,-91.670
19:09:35:06,47.065,0.431,1.819,0.130,10.233,-86.312,-87.111
19:09:35:061,47.065,0.286,1.232,0.888,25.691,-92.550,-80.760
19:09:35:08,47.085,0.188,0.265,0.741,26.947,-95.010,-77.694
19:09:35:189,47.194,0.075,-0.037,0.395,27.154,-98.707,-74.557
19:09:35:189,47.194,0.124,-0.590,0.563,33.297,-101.489,-72.393
19:09:35:216,47.221,-0.005,-0.991,0.824,35.673,-103.575,-71.313
19:09:35:216,47.221,-0.060,-1.020,0.853,31.484,-107.128,-69.914
19:09:35:217,47.222,-0.133,-1.021,0.851,25.027,-109.560,-68.984
19:09:35:238,47.243,-0.170,-1.043,0.944,14.294,-112.760,-67.888
19:09:35:265,47.269,-0.096,-0.856,1.041,4.738,-114.535,-67.049
19:09:35:29,47.295,-0.018,-0.647,1.045,-1.098,-114.468,-66.605
19:09:35:403,47.408,0.194,0.048,1.323,-7.931,-112.159,-66.600
19:09:35:404,47.409,0.842,1.262,1.476,-12.521,-109.485,-67.578
19:09:35:404,47.409,1.179,1.093,1.333,-23.584,-103.891,-70.269
19:09:35:449,47.454,1.219,1.882,0.184,-55.537,-91.381,-79.546
19:09:35:45,47.454,0.652,0.812,-0.884,-72.862,-83.581,-85.366
19:09:35:473,47.477,0.319,0.007,-0.666,-86.372,-78.618,-89.097
19:09:35:587,47.592,0.218,-0.423,-0.564,-108.655,-72.417,-94.262
19:09:35:588,47.593,0.147,-0.819,-0.689,-127.228,-66.415,-98.653
19:09:35:588,47.593,0.006,-0.929,-0.839,-133.549,-62.193,-100.750
19:09:35:588,47.593,-0.361,-1.123,-1.068,-136.837,-55.686,-102.882
19:09:35:604,47.609,-0.543,-1.147,-1.005,-136.919,-51.918,-103.624
19:09:35:771,47.776,-0.813,-0.924,-0.712,-136.702,-48.764,-103.451
19:09:35:771,47.776,-0.958,-0.186,-0.496,-137.355,-48.070,-102.689
19:09:35:772,47.777,-0.459,0.833,-0.499,-148.721,-51.997,-100.292
19:09:35:773,47.778,0.360,1.015,-0.123,131.111,-59.188,-95.715
19:09:35:793,47.798,0.188,0.640,0.453,95.762,-62.141,-91.690
19:09:35:794,47.799,-0.681,0.669,0.372,78.484,-63.216,-84.131
19:09:35:794,47.799,-0.281,0.744,0.054,71.235,-64.222,-79.216
19:09:35:814,47.818,0.151,0.248,0.335,63.777,-68.149,-73.815
19:09:35:841,47.846,0.480,-0.370,0.408,58.041,-72.983,-70.500
19:09:35:867,47.871,0.562,-0.633,0.577,53.753,-76.555,-68.816
19:09:35:951,47.956,0.500,-0.992,0.992,44.159,-81.883,-66.388
19:09:35:951,47.956,0.591,-0.941,1.075,36.768,-85.123,-65.091
19:09:35:976,47.981,0.702,-0.990,1.124,27.871,-88.566,-63.378
19:09:35:976,47.981,1.081,-0.944,1.116,20.563,-88.988,-62.289
19:09:35:998,48.003,1.251,-0.575,1.001,15.276,-87.245,-61.859
19:09:36:024,48.028,1.685,-0.038,0.843,5.010,-82.644,-62.844
19:09:36:079,48.084,2.021,0.717,0.370,-13.001,-77.465,-66.009
19:09:36:08,48.085,1.692,1.549,-0.204,-34.041,-73.498,-69.317
19:09:36:192,48.196,1.037,2.002,-0.594,-62.314,-66.367,-74.491
19:09:36:192,48.196,0.016,2.064,-0.498,-74.764,-59.834,-78.823
19:09:36:192,48.197,-0.495,1.385,-0.469,-87.862,-46.726,-88.075
19:09:36:192,48.197,-0.450,-0.043,-0.609,-98.691,-34.207,-97.105
19:09:36:209,48.214,-0.393,-0.445,-0.562,-105.885,-27.531,-101.676
19:09:36:235,48.240,-0.492,-0.893,-0.556,-115.685,-18.888,-106.651
19:09:36:339,48.344,-0.652,-1.089,-0.547,-120.326,-13.771,-108.530
19:09:36:401,48.405,-0.656,-0.980,-0.338,-123.474,-7.558,-109.080
19:09:36:401,48.406,-0.886,-0.970,-0.279,-123.592,-4.684,-107.978
19:09:36:402,48.407,-1.066,-0.892,-0.094,-121.696,-2.131,-104.732
19:09:36:403,48.407,-0.854,-0.288,0.110,-117.573,-2.363,-100.496
19:09:36:556,48.561,-0.609,-0.022,-0.022,-111.669,-4.198,-96.885
19:09:36:557,48.562,-0.455,0.644,-0.060,-91.887,-8.659,-90.469
19:09:36:558,48.563,-0.064,1.734,-0.102,-74.782,-12.765,-86.503
19:09:36:584,48.589,0.207,1.705,-0.151,-44.149,-19.568,-81.954
19:09:36:585,48.590,0.602,0.671,-0.015,4.080,-25.986,-78.715
19:09:36:586,48.590,0.582,0.077,0.216,19.170,-30.045,-76.738
19:09:36:587,48.591,0.479,-0.070,0.347,19.889,-35.736,-74.804
19:09:36:633,48.638,0.676,-0.517,0.347,20.013,-39.386,-74.144
19:09:36:634,48.638,0.817,-0.976,0.359,24.065,-44.339,-73.262
19:09:36:635,48.639,0.913,-1.198,0.430,22.196,-48.292,-71.996
19:09:36:77,48.774,0.885,-1.189,0.461,16.400,-50.053,-71.164
19:09:36:77,48.774,0.764,-1.249,0.416,5.116,-51.016,-69.998
19:09:36:77,48.775,0.844,-0.903,0.318,-3.411,-50.539,-69.031
19:09:36:771,48.775,0.970,-0.540,0.245,-17.452,-48.125,-67.611
19:09:36:791,48.796,1.555,0.729,0.124,-27.836,-43.280,-67.281
19:09:36:791,48.796,1.660,1.425,-0.097,-32.469,-38.133,-68.394
19:09:36:792,48.797,1.081,2.051,-0.425,-43.134,-28.673,-73.105
19:09:36:842,48.847,0.248,1.996,-0.786,-53.084,-21.798,-77.359
19:09:36:842,48.847,0.478,0.263,-0.841,-67.239,-12.131,-83.155
19:09:37:031,49.036,-0.863,0.786,-0.550,-97.517,-6.275,-92.377
19:09:37:031,49.036,-0.751,0.084,-0.198,-108.003,-0.870,-96.191
19:09:37:032,49.037,-0.702,-0.316,-0.343,-121.547,5.271,-101.947
19:09:37:033,49.038,-0.947,-0.602,-0.205,-128.244,10.193,-105.294
19:09:37:164,49.168,-0.933,-0.950,0.025,-132.695,16.725,-108.653
19:09:37:164,49.169,-0.953,-1.097,0.259,-133.640,22.205,-110.226
19:09:37:165,49.169,-1.040,-1.160,0.459,-134.377,24.778,-110.342
19:09:37:165,49.169,-1.099,-0.997,0.833,-135.959,25.787,-108.974
19:09:37:188,49.193,-0.831,-0.065,0.582,-137.196,23.839,-107.187
19:09:37:189,49.193,-0.873,0.492,0.405,-143.069,18.326,-102.528
19:09:37:19,49.194,0.008,1.220,0.140,-175.687,11.433,-95.499
19:09:37:19,49.195,-0.067,1.800,0.351,102.113,8.616,-91.098
19:09:37:208,49.213,0.420,0.886,-0.081,77.168,4.681,-86.415
19:09:37:209,49.214,0.629,0.180,0.065,74.095,2.208,-83.614
19:09:37:231,49.236,0.393,-0.006,-0.002,69.106,-1.496,-80.577
19:09:37:346,49.350,0.575,-0.582,-0.223,66.718,-4.364,-79.622
19:09:37:347,49.351,0.796,-0.880,-0.126,63.908,-8.564,-78.510
19:09:37:347,49.352,1.030,-0.914,-0.233,58.976,-11.833,-77.762
19:09:37:348,49.352,0.879,-1.051,-0.221,55.019,-12.970,-77.336
19:09:37:363,49.367,0.885,-1.114,-0.245,48.705,-13.366,-76.590
19:09:37:531,49.536,0.882,-1.006,-0.268,42.638,-12.661,-76.078
19:09:37:532,49.536,0.933,-0.542,-0.410,28.963,-10.349,-75.347
19:09:37:532,49.536,0.953,0.318,-0.652,16.198,-5.665,-75.181
19:09:37:533,49.537,1.029,1.109,-0.882,15.270,-1.826,-75.982
19:09:37:581,49.586,0.045,1.460,-0.918,28.938,4.275,-80.228
19:09:37:582,49.587,-0.220,1.172,-0.868,41.227,8.665,-83.311
19:09:37:583,49.588,-0.534,1.190,-0.695,62.101,13.908,-88.061
19:09:37:583,49.588,-0.569,1.182,-0.288,-161.997,19.139,-92.601
19:09:37:707,49.711,-0.594,0.777,-0.059,-154.287,22.789,-95.400
19:09:37:739,49.744,-0.552,-0.120,0.044,-158.493,28.552,-99.201
19:09:37:74,49.745,-0.483,-0.443,0.122,-158.002,32.915,-101.313
19:09:37:741,49.745,-0.501,-0.636,0.381,-155.233,40.479,-104.035
19:09:37:742,49.746,-0.531,-0.768,0.703,-155.071,48.405,-106.066
19:09:37:759,49.764,-0.493,-0.858,0.700,-157.562,52.517,-106.998
19:09:37:76,49.764,-0.405,-0.911,0.705,-164.909,56.045,-107.941
19:09:37:783,49.788,-0.358,-0.857,0.834,-170.527,57.217,-108.145
19:09:37:809,49.814,-0.361,-0.501,0.751,-178.263,56.827,-107.984
19:09:37:924,49.928,-0.379,0.115,0.479,172.104,53.766,-105.877
19:09:37:924,49.929,-0.340,0.496,0.329,162.181,51.201,-102.837
19:09:37:924,49.929,-0.200,1.632,0.275,135.294,48.028,-97.245
19:09:37:925,49.929,0.088,1.694,0.014,108.479,45.723,-93.820
