Time,Second,AccelerationX,AccelerationY,AccelerationZ,EulerAnglesX,EulerAnglesY,EulerAnglesZ
15:15:45:295,0.000,0.003,0.000,-0.017,-0.427,5.779,2.170
15:15:45:321,0.026,-0.005,-0.005,-0.010,-0.455,5.783,2.216
15:15:45:347,0.052,-0.008,-0.002,-0.005,-0.468,5.783,2.247
15:15:45:375,0.080,-0.006,0.003,-0.011,-0.491,5.777,2.292
15:15:45:4,0.105,-0.006,-0.004,-0.014,-0.504,5.781,2.318
15:15:45:426,0.131,-0.011,-0.001,-0.006,-0.522,5.776,2.363
15:15:45:452,0.157,-0.008,0.001,-0.008,-0.554,5.760,2.400
15:15:45:479,0.184,-0.010,0.000,-0.007,-0.573,5.740,2.421
15:15:45:505,0.210,0.000,0.000,-0.024,-0.615,5.694,2.448
15:15:45:531,0.236,-0.007,0.000,-0.012,-0.633,5.674,2.469
15:15:45:558,0.263,-0.010,0.004,-0.014,-0.661,5.658,2.505
15:15:45:584,0.289,-0.017,0.002,-0.009,-0.685,5.638,2.516
15:15:45:61,0.314,-0.002,0.004,-0.014,-0.690,5.638,2.516
15:15:45:636,0.341,0.003,0.002,-0.015,-0.705,5.657,2.527
15:15:45:662,0.367,-0.003,-0.003,-0.010,-0.709,5.662,2.542
15:15:45:689,0.394,-0.013,-0.002,-0.005,-0.707,5.681,2.581
15:15:45:716,0.421,-0.014,-0.001,-0.009,-0.706,5.657,2.606
15:15:45:742,0.447,-0.014,0.002,-0.004,-0.728,5.616,2.627
15:15:45:768,0.473,-0.003,-0.001,-0.004,-0.771,5.551,2.635
15:15:45:795,0.499,-0.014,0.000,-0.006,-0.804,5.490,2.637
15:15:45:82,0.525,-0.003,0.007,-0.011,-0.852,5.405,2.635
15:15:45:847,0.552,-0.002,0.000,-0.019,-0.886,5.355,2.638
15:15:45:872,0.577,-0.005,-0.002,-0.016,-0.919,5.299,2.635
15:15:45:899,0.604,-0.009,-0.002,-0.019,-0.957,5.234,2.643
15:15:45:926,0.630,-0.006,0.004,-0.017,-0.981,5.189,2.640
15:15:45:951,0.656,-0.009,0.001,-0.024,-1.015,5.148,2.642
15:15:45:978,0.683,-0.006,0.003,-0.019,-1.043,5.113,2.649
15:15:46:003,0.708,-0.008,-0.002,-0.020,-1.092,5.102,2.652
15:15:46:03,0.735,-0.010,0.005,-0.007,-1.127,5.111,2.663
15:15:46:057,0.762,0.001,0.000,-0.017,-1.141,5.111,2.664
15:15:46:083,0.788,-0.001,-0.004,-0.013,-1.181,5.115,2.661
15:15:46:109,0.814,-0.011,0.001,-0.023,-1.192,5.134,2.662
15:15:46:135,0.840,-0.016,-0.004,-0.008,-1.210,5.134,2.683
15:15:46:161,0.866,-0.020,0.002,-0.013,-1.239,5.098,2.689
15:15:46:188,0.893,0.002,0.006,-0.012,-1.283,5.028,2.663
15:15:46:215,0.920,-0.004,0.000,-0.015,-1.318,4.993,2.651
15:15:46:269,0.974,-0.009,-0.003,-0.008,-1.347,4.962,2.653
15:15:46:27,0.975,-0.010,0.001,-0.020,-1.390,4.892,2.646
15:15:46:293,0.997,0.011,0.007,-0.018,-1.401,4.882,2.627
15:15:46:318,1.023,0.012,0.005,-0.023,-1.433,4.897,2.594
15:15:46:345,1.050,-0.005,0.001,-0.022,-1.444,4.921,2.589
15:15:46:371,1.076,-0.013,-0.001,-0.016,-1.449,4.970,2.609
15:15:46:426,1.131,-0.020,0.005,-0.004,-1.439,5.020,2.627
15:15:46:427,1.132,0.003,0.000,-0.005,-1.429,5.030,2.627
15:15:46:45,1.155,-0.010,0.001,-0.004,-1.431,5.030,2.607
15:15:46:477,1.181,-0.014,0.001,0.001,-1.436,5.030,2.597
15:15:46:529,1.234,0.001,0.001,-0.010,-1.469,4.932,2.502
15:15:46:558,1.263,0.006,-0.004,-0.002,-1.486,4.898,2.448
15:15:46:558,1.263,-0.010,0.007,0.004,-1.529,4.853,2.377
15:15:46:611,1.316,-0.015,0.001,-0.029,-1.565,4.828,2.345
15:15:46:611,1.316,0.031,-0.002,-0.026,-1.621,4.729,2.281
15:15:46:633,1.338,0.012,0.009,-0.018,-1.648,4.713,2.248
15:15:46:661,1.366,0.007,0.002,-0.014,-1.653,4.728,2.253
15:15:46:687,1.392,-0.007,-0.002,-0.029,-1.671,4.723,2.269
15:15:46:717,1.422,-0.018,0.003,-0.005,-1.690,4.742,2.299
15:15:46:74,1.445,-0.004,0.007,-0.019,-1.685,4.751,2.309
15:15:46:791,1.496,-0.002,0.000,-0.013,-1.680,4.766,2.313
15:15:46:821,1.526,-0.015,0.001,-0.018,-1.666,4.821,2.316
15:15:46:821,1.526,-0.008,0.000,-0.013,-1.646,4.836,2.320
15:15:46:844,1.549,-0.016,0.005,-0.016,-1.627,4.847,2.309
15:15:46:872,1.577,0.023,0.008,-0.010,-1.608,4.847,2.298
15:15:46:897,1.602,0.005,0.000,-0.021,-1.582,4.863,2.321
15:15:46:922,1.627,-0.001,-0.006,-0.012,-1.539,4.902,2.397
15:15:46:949,1.654,-0.017,-0.002,-0.003,-1.479,4.912,2.493
15:15:46:975,1.680,-0.019,0.004,-0.011,-1.456,4.902,2.551
15:15:47:001,1.706,-0.009,-0.002,-0.014,-1.431,4.857,2.624
15:15:47:028,1.733,-0.008,0.004,-0.011,-1.408,4.847,2.663
15:15:47:055,1.760,-0.023,0.001,-0.003,-1.372,4.847,2.700
15:15:47:08,1.785,-0.015,0.008,-0.006,-1.351,4.852,2.714
15:15:47:106,1.811,-0.001,0.002,-0.016,-1.333,4.848,2.688
15:15:47:132,1.837,-0.002,-0.001,-0.006,-1.305,4.849,2.647
15:15:47:161,1.865,0.000,-0.010,-0.013,-1.287,4.840,2.616
15:15:47:186,1.891,-0.003,0.000,-0.012,-1.255,4.842,2.565
15:15:47:211,1.916,0.012,0.007,-0.007,-1.237,4.823,2.534
15:15:47:237,1.942,-0.004,-0.001,-0.017,-1.213,4.784,2.504
15:15:47:264,1.969,-0.009,0.001,-0.010,-1.188,4.775,2.502
15:15:47:292,1.996,-0.005,0.000,-0.003,-1.168,4.780,2.506
15:15:47:316,2.021,0.000,0.002,-0.003,-1.128,4.781,2.504
15:15:47:343,2.048,-0.004,0.005,-0.028,-1.108,4.771,2.502
15:15:47:368,2.073,-0.006,0.000,-0.015,-1.080,4.787,2.486
15:15:47:424,2.129,0.007,0.000,-0.012,-1.031,4.818,2.483
15:15:47:447,2.152,-0.015,0.004,-0.022,-0.977,4.829,2.479
15:15:47:474,2.178,-0.010,0.004,-0.019,-0.966,4.829,2.489
15:15:47:501,2.206,0.001,0.000,-0.015,-0.937,4.864,2.492
15:15:47:527,2.232,0.002,0.000,0.002,-0.909,4.905,2.490
15:15:47:552,2.257,-0.014,-0.003,-0.018,-0.875,4.950,2.492
15:15:47:579,2.284,-0.012,0.003,-0.006,-0.851,4.976,2.486
15:15:47:605,2.310,-0.004,0.004,-0.012,-0.842,4.981,2.460
15:15:47:631,2.336,0.010,0.000,-0.005,-0.825,5.001,2.420
15:15:47:66,2.365,-0.005,-0.001,-0.011,-0.807,5.031,2.408
15:15:47:685,2.390,-0.019,-0.001,-0.009,-0.787,5.052,2.407
15:15:47:711,2.416,0.012,0.004,-0.010,-0.784,5.052,2.377
15:15:47:736,2.441,0.001,-0.005,-0.002,-0.774,5.057,2.372
15:15:47:762,2.467,0.000,-0.003,-0.013,-0.765,5.067,2.371
15:15:47:789,2.494,-0.008,-0.001,-0.010,-0.755,5.068,2.370
15:15:47:815,2.520,-0.015,0.004,-0.004,-0.740,5.078,2.379
15:15:47:841,2.546,0.000,0.006,-0.001,-0.745,5.073,2.375
15:15:47:868,2.573,0.002,0.000,-0.015,-0.745,5.063,2.375
15:15:47:894,2.599,-0.004,-0.001,-0.009,-0.720,5.074,2.373
15:15:47:92,2.625,-0.003,-0.005,-0.009,-0.705,5.078,2.378
15:15:47:946,2.651,-0.003,0.000,0.000,-0.675,5.059,2.376
15:15:47:972,2.677,-0.003,0.002,-0.008,-0.664,5.035,2.380
15:15:48:,2.705,-0.001,0.006,-0.011,-0.644,5.030,2.384
15:15:48:026,2.731,0.000,-0.001,-0.008,-0.625,5.031,2.383
15:15:48:051,2.756,0.000,-0.006,-0.003,-0.610,5.031,2.382
15:15:48:077,2.782,-0.010,0.000,-0.009,-0.585,5.027,2.386
15:15:48:104,2.809,-0.001,0.003,-0.010,-0.570,5.017,2.385
15:15:48:13,2.835,0.008,0.000,-0.006,-0.548,4.987,2.404
15:15:48:156,2.861,-0.001,-0.002,-0.011,-0.537,4.993,2.428
15:15:48:184,2.889,-0.011,0.000,-0.008,-0.536,4.983,2.448
15:15:48:209,2.914,-0.011,-0.001,-0.019,-0.539,4.943,2.458
15:15:48:235,2.940,-0.004,-0.003,-0.004,-0.548,4.918,2.464
15:15:48:261,2.966,-0.002,-0.006,-0.008,-0.547,4.859,2.464
15:15:48:288,2.993,-0.008,0.000,-0.003,-0.542,4.824,2.449
15:15:48:314,3.019,-0.005,0.001,-0.017,-0.547,4.769,2.425
15:15:48:341,3.046,-0.004,0.002,-0.008,-0.554,4.720,2.386
15:15:48:366,3.071,0.006,-0.004,-0.013,-0.559,4.705,2.372
15:15:48:393,3.098,-0.005,0.002,-0.001,-0.560,4.700,2.347
15:15:48:419,3.123,-0.001,0.001,-0.013,-0.570,4.700,2.348
15:15:48:445,3.150,-0.001,0.001,-0.010,-0.581,4.720,2.348
15:15:48:473,3.178,0.000,-0.002,-0.002,-0.585,4.754,2.363
15:15:48:498,3.203,-0.009,-0.002,-0.005,-0.584,4.764,2.383
15:15:48:524,3.229,-0.009,-0.003,-0.016,-0.584,4.759,2.388
15:15:48:579,3.284,-0.013,0.004,-0.007,-0.584,4.759,2.388
15:15:48:58,3.285,0.001,0.001,-0.009,-0.584,4.744,2.383
15:15:48:603,3.307,-0.002,-0.002,-0.015,-0.578,4.729,2.387
15:15:48:658,3.363,-0.002,-0.001,-0.015,-0.578,4.714,2.392
15:15:48:659,3.364,-0.008,0.002,-0.005,-0.578,4.714,2.392
15:15:48:681,3.386,0.001,0.003,-0.002,-0.577,4.709,2.397
15:15:48:708,3.413,0.005,0.005,-0.010,-0.600,4.679,2.419
15:15:48:733,3.438,-0.009,-0.006,-0.008,-0.613,4.679,2.449
15:15:48:76,3.465,-0.015,0.000,-0.010,-0.626,4.663,2.485
15:15:48:788,3.492,-0.014,0.004,-0.012,-0.655,4.643,2.487
15:15:48:815,3.520,-0.004,0.000,-0.010,-0.675,4.642,2.488
15:15:48:816,3.521,-0.005,-0.001,-0.009,-0.709,4.641,2.490
15:15:48:869,3.574,-0.009,0.003,-0.011,-0.729,4.641,2.491
15:15:48:869,3.574,-0.012,0.001,-0.014,-0.759,4.601,2.483
15:15:48:891,3.596,-0.011,0.007,-0.020,-0.789,4.551,2.456
15:15:48:917,3.622,0.007,0.002,-0.015,-0.814,4.506,2.443
15:15:48:945,3.650,-0.001,0.000,-0.017,-0.813,4.501,2.448
15:15:48:97,3.675,-0.011,0.000,-0.004,-0.813,4.501,2.448
15:15:48:996,3.701,-0.015,0.003,-0.012,-0.823,4.476,2.444
15:15:49:023,3.728,-0.005,0.003,-0.017,-0.837,4.431,2.440
15:15:49:078,3.783,0.000,0.003,-0.017,-0.856,4.406,2.446
15:15:49:079,3.784,-0.007,-0.001,-0.003,-0.861,4.391,2.442
15:15:49:101,3.806,-0.014,0.004,-0.011,-0.861,4.391,2.442
15:15:49:127,3.832,-0.012,0.005,-0.015,-0.856,4.391,2.432
15:15:49:154,3.859,-0.003,0.000,-0.019,-0.858,4.391,2.412
15:15:49:18,3.885,0.009,0.002,-0.013,-0.869,4.411,2.402
15:15:49:208,3.913,-0.004,-0.001,-0.019,-0.870,4.445,2.397
15:15:49:263,3.968,-0.020,0.002,-0.005,-0.870,4.455,2.397
15:15:49:263,3.968,-0.008,0.003,-0.019,-0.870,4.455,2.397
15:15:49:285,3.990,0.000,0.001,-0.018,-0.865,4.456,2.387
15:15:49:34,4.045,-0.007,0.003,-0.013,-0.866,4.456,2.377
15:15:49:341,4.046,-0.007,-0.004,0.000,-0.867,4.476,2.377
15:15:49:364,4.069,-0.014,0.003,-0.004,-0.867,4.495,2.377
15:15:49:39,4.095,-0.006,0.000,-0.011,-0.877,4.490,2.372
15:15:49:416,4.121,0.006,-0.004,-0.018,-0.897,4.490,2.364
15:15:49:443,4.148,-0.002,-0.003,-0.012,-0.922,4.499,2.365
15:15:49:495,4.200,-0.022,-0.002,-0.006,-0.943,4.534,2.361
15:15:49:521,4.226,-0.023,0.002,-0.015,-0.997,4.527,2.370
15:15:49:547,4.252,0.008,0.009,-0.017,-1.037,4.507,2.352
15:15:49:574,4.279,-0.007,-0.003,-0.019,-1.070,4.482,2.300
15:15:49:602,4.306,-0.014,-0.003,-0.018,-1.096,4.471,2.272
15:15:49:656,4.361,-0.013,0.006,-0.006,-1.137,4.407,2.231
15:15:49:656,4.361,0.019,0.001,-0.025,-1.173,4.313,2.180
15:15:49:679,4.384,0.001,-0.002,-0.014,-1.188,4.278,2.166
15:15:49:705,4.410,-0.004,-0.005,-0.016,-1.217,4.223,2.163
15:15:49:733,4.438,-0.026,-0.005,-0.007,-1.240,4.168,2.171
15:15:49:758,4.463,0.005,0.008,-0.021,-1.293,4.038,2.166
15:15:49:784,4.488,-0.001,-0.003,-0.016,-1.313,3.978,2.148
15:15:49:81,4.515,-0.003,-0.006,-0.024,-1.321,3.914,2.154
15:15:49:836,4.541,-0.022,-0.001,-0.011,-1.344,3.824,2.157
15:15:49:862,4.567,0.016,0.004,-0.021,-1.369,3.774,2.149
15:15:49:89,4.595,0.007,-0.003,-0.007,-1.393,3.724,2.142
15:15:49:915,4.620,-0.004,-0.001,-0.020,-1.392,3.699,2.147
15:15:49:941,4.646,-0.017,0.001,-0.016,-1.411,3.684,2.153
15:15:49:968,4.673,0.000,0.003,-0.017,-1.430,3.674,2.165
15:15:49:994,4.699,0.000,0.000,-0.012,-1.436,3.678,2.160
15:15:50:022,4.727,-0.004,0.001,-0.022,-1.456,3.712,2.156
15:15:50:047,4.752,-0.018,0.002,-0.012,-1.471,3.737,2.162
15:15:50:073,4.778,-0.001,0.004,-0.014,-1.496,3.776,2.173
15:15:50:1,4.805,0.001,0.002,-0.004,-1.507,3.815,2.173
15:15:50:125,4.830,0.009,0.000,-0.011,-1.512,3.840,2.168
15:15:50:151,4.856,-0.019,-0.004,-0.015,-1.523,3.914,2.173
15:15:50:178,4.883,-0.014,-0.002,-0.015,-1.538,3.954,2.183
15:15:50:204,4.909,-0.011,0.005,-0.010,-1.560,4.003,2.174
15:15:50:231,4.935,0.001,-0.002,-0.014,-1.571,4.017,2.159
15:15:50:257,4.962,0.000,0.002,-0.015,-1.588,4.067,2.130
15:15:50:283,4.988,-0.009,-0.003,0.003,-1.576,4.132,2.103
15:15:50:308,5.013,-0.008,-0.001,-0.007,-1.573,4.177,2.088
15:15:50:336,5.041,0.008,0.000,-0.019,-1.591,4.227,2.058
15:15:50:361,5.066,-0.004,-0.004,-0.011,-1.601,4.261,2.053
15:15:50:388,5.093,-0.003,-0.002,0.003,-1.607,4.311,2.053
15:15:50:414,5.119,-0.010,-0.004,-0.017,-1.612,4.301,2.054
15:15:50:44,5.145,-0.007,0.006,-0.014,-1.621,4.291,2.064
15:15:50:467,5.172,0.001,0.004,-0.013,-1.621,4.276,2.059
15:15:50:492,5.197,-0.001,-0.001,-0.013,-1.631,4.276,2.060
15:15:50:519,5.224,-0.008,-0.004,-0.014,-1.641,4.275,2.061
15:15:50:546,5.250,-0.001,0.002,-0.012,-1.660,4.260,2.067
15:15:50:571,5.276,-0.003,0.002,-0.025,-1.674,4.235,2.073
15:15:50:598,5.303,-0.012,0.004,-0.009,-1.714,4.234,2.076
15:15:50:624,5.329,-0.003,-0.003,-0.019,-1.723,4.219,2.082
15:15:50:65,5.355,-0.008,0.000,-0.007,-1.733,4.219,2.082
15:15:50:676,5.381,-0.001,0.005,-0.023,-1.743,4.219,2.083
15:15:50:703,5.408,0.006,0.002,-0.016,-1.752,4.199,2.084
15:15:50:729,5.434,0.006,-0.002,-0.013,-1.777,4.203,2.081
15:15:50:755,5.460,-0.008,-0.002,-0.004,-1.781,4.213,2.100
15:15:50:782,5.487,-0.010,0.001,-0.014,-1.789,4.207,2.126
15:15:50:837,5.542,-0.015,0.002,-0.015,-1.799,4.207,2.136
15:15:50:838,5.543,0.008,0.001,-0.012,-1.808,4.202,2.142
15:15:50:861,5.566,-0.008,-0.005,-0.007,-1.799,4.232,2.141
15:15:50:886,5.591,-0.003,-0.004,-0.009,-1.799,4.232,2.141
15:15:50:912,5.617,-0.001,0.003,-0.006,-1.799,4.232,2.141
15:15:50:939,5.644,-0.001,0.001,-0.013,-1.808,4.226,2.146
15:15:50:965,5.670,0.000,-0.001,-0.014,-1.808,4.226,2.146
15:15:50:992,5.697,-0.006,-0.002,-0.007,-1.789,4.237,2.145
15:15:51:018,5.723,-0.012,0.001,-0.001,-1.788,4.232,2.150
15:15:51:044,5.748,-0.002,0.002,-0.012,-1.792,4.197,2.156
15:15:51:07,5.775,0.001,0.000,-0.010,-1.797,4.187,2.156
15:15:51:098,5.803,-0.003,0.002,-0.011,-1.802,4.187,2.157
15:15:51:125,5.830,-0.015,0.001,-0.015,-1.787,4.187,2.156
15:15:51:126,5.831,-0.006,0.000,-0.005,-1.777,4.207,2.165
15:15:51:149,5.854,-0.002,-0.001,-0.011,-1.762,4.197,2.164
15:15:51:175,5.880,-0.002,0.000,-0.009,-1.762,4.192,2.169
15:15:51:201,5.906,-0.011,0.002,-0.019,-1.762,4.197,2.174
15:15:51:228,5.933,-0.005,-0.005,-0.007,-1.752,4.197,2.173
15:15:51:254,5.959,-0.006,-0.002,-0.006,-1.732,4.202,2.177
15:15:51:281,5.986,0.000,0.000,-0.005,-1.727,4.208,2.171
15:15:51:337,6.042,-0.001,0.001,-0.019,-1.737,4.208,2.172
15:15:51:337,6.042,-0.003,-0.002,-0.006,-1.732,4.207,2.172
15:15:51:359,6.064,-0.006,0.001,-0.006,-1.717,4.203,2.176
15:15:51:386,6.091,0.009,0.005,-0.004,-1.687,4.213,2.174
15:15:51:413,6.118,0.002,-0.002,-0.015,-1.668,4.238,2.177
15:15:51:439,6.144,-0.006,-0.007,-0.009,-1.653,4.278,2.195
15:15:51:464,6.169,-0.015,0.001,-0.003,-1.632,4.298,2.213
15:15:51:49,6.195,-0.004,0.006,-0.005,-1.621,4.283,2.218
15:15:51:516,6.221,0.006,-0.002,-0.015,-1.607,4.283,2.217
15:15:51:543,6.248,0.000,-0.001,-0.006,-1.591,4.309,2.231
15:15:51:568,6.273,-0.013,0.005,-0.014,-1.566,4.344,2.253
15:15:51:596,6.301,-0.017,-0.001,-0.007,-1.554,4.343,2.292
15:15:51:622,6.327,-0.004,0.006,-0.012,-1.558,4.338,2.297
15:15:51:677,6.382,0.007,-0.002,-0.016,-1.558,4.328,2.298
15:15:51:677,6.382,-0.007,-0.003,-0.007,-1.548,4.348,2.307
15:15:51:729,6.434,-0.007,-0.001,0.004,-1.522,4.373,2.329
15:15:51:73,6.435,-0.017,0.003,-0.007,-1.507,4.373,2.329
15:15:51:782,6.487,-0.010,0.000,-0.005,-1.502,4.364,2.328
15:15:51:782,6.487,-0.003,0.001,-0.012,-1.492,4.359,2.333
15:15:51:806,6.511,-0.003,0.001,-0.002,-1.472,4.359,2.331
15:15:51:831,6.536,-0.006,-0.002,-0.001,-1.452,4.360,2.330
15:15:51:858,6.563,-0.001,0.000,-0.016,-1.443,4.345,2.315
15:15:51:883,6.588,-0.001,0.000,-0.009,-1.443,4.345,2.315
15:15:51:91,6.615,-0.001,0.001,-0.014,-1.443,4.345,2.315
15:15:51:936,6.641,-0.007,-0.003,-0.008,-1.438,4.345,2.315
15:15:51:962,6.667,-0.013,0.002,-0.012,-1.439,4.350,2.310
15:15:51:989,6.693,-0.011,0.003,-0.002,-1.439,4.350,2.310
15:15:52:015,6.720,-0.001,0.002,-0.012,-1.439,4.360,2.310
15:15:52:041,6.746,-0.005,-0.002,-0.007,-1.434,4.365,2.314
15:15:52:067,6.772,-0.005,-0.002,-0.013,-1.434,4.365,2.314
15:15:52:094,6.799,-0.001,0.002,-0.004,-1.434,4.365,2.314
15:15:52:12,6.825,-0.003,0.000,-0.009,-1.434,4.375,2.314
15:15:52:148,6.853,-0.005,-0.004,-0.002,-1.434,4.385,2.314
15:15:52:173,6.878,-0.007,-0.002,-0.019,-1.434,4.385,2.314
15:15:52:231,6.936,-0.001,0.002,-0.005,-1.434,4.385,2.314
15:15:52:231,6.936,0.003,-0.008,-0.003,-1.439,4.390,2.309
15:15:52:252,6.957,-0.008,0.000,-0.007,-1.440,4.400,2.309
15:15:52:278,6.983,-0.001,0.003,-0.012,-1.434,4.380,2.309
15:15:52:304,7.009,-0.009,0.003,-0.013,-1.439,4.350,2.310
15:15:52:33,7.035,-0.010,-0.001,-0.001,-1.438,4.330,2.310
15:15:52:357,7.062,0.009,0.002,-0.013,-1.437,4.306,2.315
15:15:52:382,7.087,-0.001,-0.006,-0.019,-1.437,4.276,2.315
15:15:52:409,7.114,0.002,0.005,-0.006,-1.432,4.261,2.310
15:15:52:436,7.141,0.000,0.000,-0.008,-1.431,4.256,2.315
15:15:52:461,7.166,-0.003,-0.003,-0.004,-1.436,4.271,2.330
15:15:52:488,7.192,-0.022,-0.001,-0.009,-1.436,4.290,2.340
15:15:52:543,7.248,0.000,0.007,-0.005,-1.436,4.315,2.335
15:15:52:544,7.249,0.002,-0.002,-0.011,-1.437,4.350,2.339
15:15:52:567,7.272,0.002,0.000,-0.008,-1.423,4.380,2.338
15:15:52:593,7.298,-0.012,-0.003,-0.003,-1.398,4.445,2.350
15:15:52:62,7.325,-0.006,0.009,-0.011,-1.379,4.455,2.349
15:15:52:646,7.351,0.009,0.005,-0.003,-1.359,4.456,2.348
15:15:52:704,7.409,-0.003,0.006,-0.014,-1.330,4.486,2.346
15:15:52:705,7.410,-0.011,-0.005,-0.003,-1.310,4.511,2.349
15:15:52:725,7.430,-0.017,0.000,-0.017,-1.296,4.521,2.338
15:15:52:75,7.455,0.004,-0.003,-0.013,-1.292,4.497,2.314
15:15:52:777,7.482,-0.004,0.001,-0.018,-1.270,4.518,2.282
15:15:52:803,7.508,0.000,-0.002,-0.009,-1.252,4.538,2.261
15:15:52:829,7.534,-0.005,-0.002,-0.013,-1.229,4.583,2.234
15:15:52:856,7.561,0.011,0.002,-0.018,-1.217,4.604,2.204
15:15:52:881,7.586,0.008,-0.002,-0.025,-1.197,4.634,2.202
15:15:52:908,7.613,0.000,-0.001,-0.003,-1.163,4.704,2.219
15:15:52:934,7.639,-0.005,0.003,-0.004,-1.138,4.754,2.237
15:15:52:96,7.665,-0.006,0.003,-0.005,-1.112,4.764,2.265
15:15:52:987,7.692,-0.006,0.004,-0.011,-1.091,4.794,2.293
15:15:53:013,7.718,-0.007,0.001,-0.005,-1.075,4.799,2.307
15:15:53:068,7.773,-0.012,-0.005,-0.002,-1.045,4.799,2.325
15:15:53:069,7.774,-0.010,-0.003,-0.002,-1.045,4.799,2.325
15:15:53:093,7.798,-0.003,0.003,-0.018,-1.045,4.799,2.325
15:15:53:176,7.881,0.000,-0.005,-0.009,-1.040,4.799,2.325
15:15:53:176,7.881,-0.010,-0.005,-0.007,-1.034,4.795,2.329
15:15:53:177,7.882,-0.005,0.000,-0.008,-1.034,4.785,2.329
15:15:53:196,7.901,-0.001,-0.001,-0.009,-1.034,4.775,2.330
15:15:53:224,7.929,0.000,0.001,-0.007,-1.034,4.775,2.330
15:15:53:249,7.954,-0.006,-0.009,-0.007,-1.029,4.775,2.329
15:15:53:276,7.981,-0.002,0.000,-0.004,-1.029,4.770,2.334
15:15:53:301,8.006,0.000,0.006,-0.009,-1.028,4.784,2.359
15:15:53:327,8.032,0.011,-0.004,-0.020,-1.031,4.814,2.388
15:15:53:354,8.058,-0.002,-0.007,-0.013,-1.010,4.883,2.446
15:15:53:383,8.088,-0.012,-0.002,-0.009,-1.004,4.952,2.485
15:15:53:384,8.089,0.014,0.008,-0.001,-0.993,5.016,2.538
15:15:53:436,8.141,0.023,0.003,0.003,-0.983,5.155,2.595
15:15:53:436,8.141,-0.016,0.001,0.004,-0.978,5.323,2.653
15:15:53:459,8.164,-0.028,-0.003,-0.013,-0.988,5.510,2.731
15:15:53:487,8.192,-0.016,-0.004,-0.021,-0.998,5.564,2.756
15:15:53:541,8.245,0.026,0.013,-0.042,-1.042,5.597,2.792
15:15:53:542,8.246,0.009,-0.002,-0.019,-1.021,5.642,2.845
15:15:53:623,8.328,-0.042,0.005,-0.003,-0.995,5.712,2.893
15:15:53:624,8.329,-0.044,0.003,-0.017,-0.959,5.717,2.916
15:15:53:624,8.329,-0.044,-0.009,-0.016,-0.937,5.713,2.870
15:15:53:644,8.349,-0.029,-0.015,-0.003,-0.932,5.629,2.826
15:15:53:669,8.374,-0.119,0.036,-0.014,-0.867,5.538,2.699
15:15:53:695,8.400,-0.040,0.027,-0.060,-0.776,5.336,2.171
15:15:53:721,8.426,-0.065,0.015,-0.030,-0.609,5.066,1.510
15:15:53:748,8.453,-0.082,0.014,-0.005,-0.459,4.888,0.973
15:15:53:775,8.480,-0.108,0.026,0.043,-0.248,4.471,-0.084
15:15:53:801,8.506,-0.166,0.115,0.057,-0.147,4.090,-1.056
15:15:53:826,8.531,-0.083,0.179,0.021,-0.153,3.684,-2.830
15:15:53:853,8.557,0.111,0.027,0.036,-0.227,3.457,-4.512
15:15:53:879,8.584,0.523,-0.032,-0.252,-0.383,3.493,-5.603
15:15:53:907,8.612,0.138,-0.333,-0.159,-0.834,4.742,-7.224
15:15:53:932,8.637,-0.096,-0.798,0.108,-0.968,5.299,-7.745
15:15:53:958,8.663,0.009,-0.513,0.004,-0.777,5.192,-6.296
15:15:53:984,8.688,1.093,1.107,-0.139,-0.598,5.204,-3.480
15:15:54:01,8.715,-1.176,-0.170,0.691,-0.240,4.494,-3.841
15:15:54:065,8.770,0.447,0.148,0.120,-0.045,3.463,-2.838
15:15:54:066,8.771,0.015,-0.045,0.127,-0.174,3.005,-2.487
15:15:54:089,8.794,0.139,-0.017,-0.056,-0.136,3.406,-1.572
15:15:54:115,8.820,-0.010,0.017,-0.173,-0.339,3.501,-0.948
15:15:54:141,8.846,0.072,0.011,-0.047,-0.439,3.088,0.027
15:15:54:168,8.872,-0.240,-0.042,0.055,-0.456,3.579,0.859
15:15:54:195,8.900,-0.137,-0.012,-0.007,-0.550,3.637,1.163
15:15:54:22,8.925,0.032,0.026,-0.091,-0.769,3.311,1.324
15:15:54:246,8.951,0.045,0.019,-0.014,-0.869,3.116,1.348
15:15:54:273,8.978,0.003,0.009,0.033,-0.958,3.060,1.409
15:15:54:299,9.004,-0.025,-0.004,-0.053,-1.027,2.919,1.465
15:15:54:325,9.030,0.091,0.023,-0.108,-1.130,2.753,1.579
15:15:54:352,9.056,0.034,-0.006,-0.033,-1.092,2.905,1.847
15:15:54:378,9.083,0.049,-0.007,0.035,-1.031,3.022,2.100
15:15:54:404,9.109,0.021,-0.001,0.023,-0.983,3.029,2.562
15:15:54:43,9.135,-0.024,-0.012,-0.036,-0.994,3.094,2.900
15:15:54:515,9.220,-0.067,-0.017,-0.032,-1.003,3.302,3.409
15:15:54:516,9.221,-0.037,0.008,-0.029,-0.989,3.362,3.779
15:15:54:516,9.221,-0.077,-0.005,0.005,-0.955,3.506,3.919
15:15:54:537,9.242,-0.079,-0.004,0.020,-0.913,3.810,3.948
15:15:54:561,9.266,-0.019,0.002,0.025,-0.929,3.944,3.853
15:15:54:59,9.295,0.003,0.004,-0.012,-0.977,4.093,3.637
15:15:54:616,9.320,0.020,-0.009,-0.026,-1.048,4.232,3.442
15:15:54:641,9.346,0.004,0.000,-0.010,-1.087,4.312,3.344
15:15:54:667,9.372,0.053,0.005,-0.023,-1.131,4.336,3.272
15:15:54:693,9.398,0.022,-0.006,-0.007,-1.147,4.370,3.278
15:15:54:719,9.424,0.014,-0.001,-0.005,-1.184,4.408,3.339
15:15:54:745,9.450,0.000,0.013,-0.007,-1.210,4.411,3.405
15:15:54:771,9.476,0.008,-0.001,-0.019,-1.269,4.438,3.517
15:15:54:798,9.502,-0.009,-0.002,-0.012,-1.316,4.435,3.639
15:15:54:825,9.530,-0.002,-0.001,-0.004,-1.344,4.393,3.721
15:15:54:852,9.557,-0.012,-0.005,-0.009,-1.371,4.336,3.817
15:15:54:877,9.582,-0.012,0.012,-0.018,-1.393,4.315,3.869
15:15:54:903,9.608,-0.001,0.000,-0.012,-1.431,4.308,3.886
15:15:54:929,9.634,-0.011,-0.004,-0.009,-1.461,4.312,3.883
15:15:54:955,9.660,0.016,0.004,-0.007,-1.491,4.302,3.875
15:15:54:982,9.687,0.006,-0.001,-0.020,-1.553,4.235,3.875
15:15:55:008,9.713,0.015,0.006,-0.015,-1.596,4.189,3.883
15:15:55:034,9.739,-0.017,0.000,-0.017,-1.638,4.137,3.907
15:15:55:06,9.765,-0.003,0.001,-0.001,-1.667,4.136,3.909
15:15:55:086,9.791,-0.001,0.000,-0.005,-1.707,4.120,3.897
15:15:55:113,9.817,0.002,0.007,-0.017,-1.760,4.124,3.845
15:15:55:139,9.844,-0.007,0.001,-0.017,-1.798,4.139,3.803
15:15:55:165,9.870,0.000,0.001,-0.007,-1.853,4.182,3.741
15:15:55:193,9.898,0.022,-0.006,-0.017,-1.903,4.207,3.670
15:15:55:218,9.923,0.005,0.003,-0.003,-1.946,4.250,3.637
15:15:55:244,9.949,-0.006,0.001,-0.027,-2.008,4.279,3.611
15:15:55:27,9.975,-0.002,-0.001,-0.024,-2.045,4.318,3.592
15:15:55:297,10.001,0.025,-0.002,-0.002,-2.093,4.386,3.574
15:15:55:324,10.029,-0.015,0.003,-0.009,-2.100,4.450,3.568
15:15:55:349,10.054,-0.014,0.001,-0.023,-2.123,4.509,3.559
15:15:55:375,10.080,0.024,-0.002,-0.021,-2.174,4.474,3.508
15:15:55:402,10.107,0.021,-0.002,-0.015,-2.176,4.474,3.478
15:15:55:427,10.132,-0.013,-0.004,-0.014,-2.174,4.505,3.448
15:15:55:454,10.159,0.022,0.022,0.013,-2.149,4.456,3.427
15:15:55:481,10.186,0.000,-0.010,-0.010,-2.131,4.423,3.373
15:15:55:506,10.211,0.004,0.000,-0.022,-2.142,4.389,3.339
15:15:55:533,10.238,0.009,0.002,-0.021,-2.141,4.335,3.325
15:15:55:559,10.264,0.006,0.004,-0.011,-2.115,4.296,3.325
15:15:55:585,10.290,-0.005,0.001,-0.013,-2.081,4.307,3.322
15:15:55:612,10.316,-0.019,0.001,-0.006,-2.031,4.313,3.324
15:15:55:638,10.343,-0.009,0.008,-0.021,-2.002,4.314,3.322
15:15:55:668,10.373,0.014,0.000,-0.013,-1.974,4.316,3.290
15:15:55:668,10.373,0.001,-0.001,-0.012,-1.912,4.348,3.266
15:15:55:69,10.395,0.000,0.000,-0.002,-1.873,4.374,3.268
15:15:55:717,10.422,-0.017,-0.003,-0.020,-1.808,4.391,3.269
15:15:55:743,10.448,-0.005,0.008,-0.014,-1.780,4.401,3.257
15:15:55:798,10.503,0.022,0.002,-0.013,-1.718,4.443,3.233
15:15:55:799,10.503,-0.003,-0.002,-0.005,-1.637,4.555,3.226
15:15:55:851,10.556,-0.006,0.001,-0.016,-1.593,4.601,3.227
15:15:55:851,10.556,-0.009,0.008,0.000,-1.540,4.671,3.233
15:15:55:874,10.579,0.011,0.004,-0.005,-1.502,4.697,3.225
15:15:55:9,10.605,0.012,-0.010,-0.006,-1.452,4.723,3.247
15:15:55:926,10.631,0.007,-0.003,-0.010,-1.408,4.674,3.294
15:15:55:953,10.658,-0.020,-0.005,-0.010,-1.381,4.640,3.318
15:15:55:979,10.684,-0.006,-0.003,-0.008,-1.339,4.597,3.331
15:15:56:005,10.710,0.008,-0.003,-0.004,-1.323,4.577,3.330
15:15:56:033,10.738,0.000,-0.010,-0.008,-1.298,4.558,3.329
15:15:56:058,10.763,-0.003,0.003,-0.015,-1.299,4.539,3.309
15:15:56:085,10.790,-0.007,0.008,-0.008,-1.301,4.539,3.270
15:15:56:11,10.815,0.027,0.003,-0.007,-1.313,4.559,3.241
15:15:56:137,10.842,0.014,-0.005,-0.013,-1.310,4.599,3.230
15:15:56:163,10.868,-0.001,-0.004,-0.008,-1.289,4.644,3.263
15:15:56:19,10.895,-0.007,0.004,-0.009,-1.269,4.678,3.296
15:15:56:217,10.922,0.016,-0.001,-0.012,-1.241,4.709,3.353
15:15:56:241,10.946,0.007,-0.001,-0.011,-1.220,4.782,3.426
15:15:56:268,10.973,0.000,0.000,-0.011,-1.188,4.832,3.483
15:15:56:294,10.999,-0.028,0.001,-0.003,-1.146,4.897,3.564
15:15:56:32,11.025,-0.011,0.003,-0.004,-1.120,4.942,3.596
15:15:56:348,11.053,0.001,0.000,-0.003,-1.090,4.992,3.634
15:15:56:373,11.078,-0.011,-0.002,-0.008,-1.070,5.027,3.657
15:15:56:399,11.104,-0.008,0.001,-0.005,-1.070,5.047,3.667
15:15:56:425,11.130,-0.013,0.009,-0.010,-1.075,5.047,3.677
15:15:56:453,11.158,0.021,0.007,-0.010,-1.080,5.051,3.672
15:15:56:507,11.212,0.010,-0.002,-0.016,-1.085,5.101,3.692
15:15:56:507,11.212,0.002,-0.003,-0.003,-1.084,5.125,3.726
15:15:56:53,11.235,-0.008,0.002,-0.004,-1.081,5.125,3.785
15:15:56:556,11.261,-0.020,0.008,-0.006,-1.083,5.119,3.830
15:15:56:583,11.288,-0.008,0.002,-0.016,-1.083,5.104,3.835
15:15:56:609,11.314,-0.004,0.000,-0.006,-1.094,5.133,3.836
15:15:56:636,11.341,-0.012,0.002,-0.009,-1.090,5.154,3.825
15:15:56:662,11.367,-0.008,0.001,0.001,-1.072,5.169,3.789
15:15:56:688,11.393,0.013,-0.001,-0.008,-1.081,5.170,3.730
15:15:56:714,11.419,0.013,0.006,-0.011,-1.082,5.170,3.701
15:15:56:74,11.445,-0.002,0.003,-0.009,-1.088,5.185,3.686
15:15:56:767,11.472,-0.022,-0.002,0.003,-1.084,5.200,3.681
15:15:56:793,11.498,-0.031,0.009,0.005,-1.081,5.225,3.655
15:15:56:819,11.524,0.007,0.009,-0.002,-1.077,5.201,3.621
15:15:56:845,11.550,-0.010,0.001,-0.014,-1.081,5.231,3.571
15:15:56:901,11.606,-0.020,-0.007,0.002,-1.072,5.292,3.491
15:15:56:902,11.607,-0.037,-0.004,0.000,-1.075,5.312,3.441
15:15:56:925,11.629,0.002,0.008,0.000,-1.102,5.288,3.299
15:15:56:95,11.655,0.031,-0.002,-0.015,-1.131,5.254,3.197
15:15:56:977,11.681,0.018,-0.007,-0.018,-1.147,5.240,3.074
15:15:57:003,11.708,-0.010,0.001,-0.002,-1.151,5.211,2.986
15:15:57:029,11.734,0.009,0.004,-0.001,-1.153,5.181,2.946
15:15:57:056,11.761,0.029,-0.001,-0.010,-1.153,5.132,2.917
15:15:57:11,11.815,-0.003,-0.002,-0.019,-1.151,5.117,2.942
15:15:57:111,11.816,-0.021,-0.004,-0.003,-1.154,5.126,2.982
15:15:57:134,11.839,-0.014,0.009,-0.004,-1.160,5.151,2.987
15:15:57:16,11.865,-0.001,0.000,-0.008,-1.161,5.156,2.972
15:15:57:186,11.891,0.001,-0.004,-0.017,-1.162,5.176,2.952
15:15:57:214,11.919,-0.011,-0.004,-0.001,-1.163,5.176,2.932
15:15:57:27,11.975,-0.026,0.004,-0.002,-1.166,5.187,2.893
15:15:57:27,11.975,0.012,0.005,-0.009,-1.188,5.162,2.840
15:15:57:291,11.996,0.005,-0.002,-0.021,-1.213,5.157,2.747
15:15:57:318,12.023,-0.005,-0.005,-0.004,-1.212,5.163,2.672
15:15:57:344,12.049,-0.022,-0.001,-0.012,-1.219,5.164,2.623
15:15:57:371,12.076,0.003,0.004,-0.004,-1.244,5.164,2.525
15:15:57:397,12.102,0.000,-0.003,-0.007,-1.268,5.160,2.453
15:15:57:423,12.128,-0.005,-0.008,-0.002,-1.294,5.165,2.350
15:15:57:449,12.154,-0.003,0.002,-0.018,-1.334,5.141,2.238
15:15:57:476,12.180,0.021,0.010,-0.020,-1.352,5.112,2.161
15:15:57:557,12.262,0.005,-0.006,-0.001,-1.375,5.143,2.023
15:15:57:557,12.262,0.008,0.000,-0.016,-1.383,5.144,1.974
15:15:57:581,12.286,0.004,0.002,-0.007,-1.389,5.144,1.954
15:15:57:607,12.312,0.001,0.003,-0.010,-1.394,5.144,1.954
15:15:57:633,12.338,-0.003,-0.001,-0.001,-1.379,5.144,1.954
15:15:57:66,12.365,-0.011,0.001,-0.005,-1.384,5.144,1.954
15:15:57:685,12.390,-0.025,0.003,-0.003,-1.389,5.124,1.945
15:15:57:711,12.416,-0.001,0.003,-0.007,-1.400,5.104,1.926
15:15:57:74,12.444,0.001,-0.002,-0.001,-1.398,5.056,1.857
15:15:57:765,12.470,-0.004,-0.003,-0.014,-1.401,4.997,1.788
15:15:57:79,12.495,-0.008,0.001,-0.005,-1.402,4.958,1.749
15:15:57:816,12.521,0.015,0.000,-0.014,-1.415,4.909,1.681
15:15:57:843,12.548,0.010,-0.001,-0.017,-1.416,4.910,1.661
15:15:57:869,12.574,0.001,-0.006,-0.004,-1.407,4.910,1.661
15:15:57:895,12.600,0.005,0.000,-0.016,-1.384,4.905,1.704
15:15:57:922,12.626,0.030,0.004,-0.032,-1.387,4.889,1.739
15:15:57:952,12.656,0.013,-0.009,-0.009,-1.383,4.928,1.818
15:15:57:952,12.656,-0.012,-0.005,0.008,-1.358,4.981,1.920
15:15:58:003,12.708,-0.006,-0.004,0.003,-1.326,4.990,2.066
15:15:58:004,12.709,-0.036,-0.005,0.012,-1.326,4.984,2.151
15:15:58:056,12.761,-0.011,-0.001,-0.027,-1.336,4.914,2.212
15:15:58:057,12.762,-0.010,0.007,-0.007,-1.344,4.859,2.218
15:15:58:109,12.814,-0.027,0.008,-0.007,-1.344,4.859,2.218
15:15:58:11,12.815,-0.028,0.004,0.007,-1.331,4.835,2.193
15:15:58:132,12.837,0.000,-0.008,-0.017,-1.333,4.791,2.129
15:15:58:158,12.863,0.027,-0.011,-0.022,-1.330,4.733,2.001
15:15:58:184,12.889,0.032,-0.001,-0.016,-1.335,4.719,1.917
15:15:58:21,12.915,0.027,0.009,0.001,-1.316,4.739,1.906
15:15:58:237,12.942,-0.007,0.009,-0.002,-1.295,4.774,1.929
15:15:58:263,12.968,-0.007,0.000,-0.007,-1.273,4.774,1.967
15:15:58:289,12.994,-0.023,-0.012,-0.011,-1.241,4.774,2.005
15:15:58:316,13.021,-0.006,0.000,-0.007,-1.220,4.730,2.019
15:15:58:371,13.076,0.008,0.005,-0.016,-1.195,4.681,2.008
15:15:58:372,13.077,0.018,0.007,-0.012,-1.169,4.627,2.002
15:15:58:394,13.099,0.016,0.014,-0.019,-1.155,4.652,2.006
15:15:58:422,13.127,-0.024,-0.012,0.008,-1.119,4.741,2.052
15:15:58:448,13.152,-0.008,-0.009,0.008,-1.109,4.766,2.067
15:15:58:473,13.178,-0.007,-0.001,-0.007,-1.118,4.766,2.067
15:15:58:499,13.204,0.011,0.011,-0.025,-1.148,4.755,2.069
15:15:58:526,13.231,0.009,0.004,-0.023,-1.163,4.795,2.079
15:15:58:554,13.259,0.004,0.000,-0.002,-1.176,4.883,2.138
15:15:58:578,13.283,-0.008,-0.007,-0.006,-1.159,4.927,2.192
15:15:58:604,13.309,-0.026,-0.007,0.003,-1.150,4.971,2.275
15:15:58:63,13.335,0.001,0.011,-0.017,-1.158,5.010,2.324
15:15:58:657,13.362,0.000,0.009,-0.006,-1.161,5.054,2.369
15:15:58:683,13.388,0.015,-0.009,-0.012,-1.162,5.068,2.453
15:15:58:71,13.415,-0.004,-0.002,0.004,-1.169,5.116,2.532
15:15:58:736,13.441,-0.045,0.004,-0.005,-1.171,5.210,2.625
15:15:58:761,13.466,-0.026,0.006,-0.020,-1.178,5.189,2.655
15:15:58:788,13.493,0.000,0.001,-0.010,-1.181,5.144,2.681
15:15:58:814,13.519,0.002,-0.005,-0.002,-1.194,5.109,2.707
15:15:58:841,13.546,-0.003,-0.004,-0.012,-1.202,5.084,2.732
15:15:58:867,13.572,-0.020,-0.007,-0.001,-1.220,5.078,2.748
15:15:58:893,13.598,-0.002,0.007,-0.016,-1.243,5.028,2.770
15:15:58:919,13.624,0.002,0.003,-0.001,-1.277,4.953,2.748
15:15:58:945,13.650,-0.003,0.003,-0.015,-1.297,4.918,2.735
15:15:58:973,13.678,0.000,0.001,-0.023,-1.307,4.898,2.726
15:15:58:998,13.703,-0.016,-0.002,-0.016,-1.327,4.893,2.722
15:15:59:024,13.729,-0.012,0.002,-0.004,-1.338,4.897,2.707
15:15:59:05,13.755,0.014,0.001,-0.004,-1.340,4.868,2.658
15:15:59:076,13.781,0.009,-0.004,-0.001,-1.336,4.854,2.634
15:15:59:104,13.809,-0.008,-0.006,-0.005,-1.335,4.814,2.624
15:15:59:129,13.834,-0.006,0.006,-0.013,-1.340,4.760,2.610
15:15:59:155,13.860,0.016,0.009,-0.021,-1.350,4.720,2.592
15:15:59:182,13.887,0.008,0.000,-0.009,-1.370,4.705,2.578
15:15:59:208,13.913,-0.001,-0.002,-0.005,-1.371,4.710,2.573
15:15:59:235,13.940,-0.014,0.001,-0.009,-1.380,4.705,2.589
15:15:59:26,13.965,0.003,0.006,-0.010,-1.389,4.709,2.594
15:15:59:287,13.992,-0.001,-0.002,-0.007,-1.389,4.709,2.594
15:15:59:313,14.018,-0.001,-0.007,0.000,-1.399,4.739,2.604
15:15:59:339,14.044,-0.013,-0.004,-0.014,-1.399,4.758,2.614
15:15:59:366,14.071,-0.001,0.006,-0.009,-1.408,4.748,2.624
15:15:59:422,14.127,-0.001,-0.002,-0.010,-1.409,4.773,2.619
15:15:59:422,14.127,-0.006,0.000,0.003,-1.414,4.793,2.629
15:15:59:444,14.149,-0.002,-0.001,-0.017,-1.413,4.807,2.654
15:15:59:472,14.177,-0.005,0.000,-0.013,-1.422,4.822,2.669
15:15:59:497,14.202,0.002,0.005,-0.019,-1.432,4.866,2.684
15:15:59:523,14.228,0.005,-0.005,-0.001,-1.437,4.900,2.698
15:15:59:549,14.254,-0.011,0.001,-0.006,-1.436,4.954,2.742
15:15:59:575,14.280,0.000,0.003,-0.014,-1.444,4.943,2.782
15:15:59:602,14.307,-0.010,0.001,-0.024,-1.452,4.948,2.808
15:15:59:629,14.334,0.000,0.003,0.001,-1.460,4.967,2.857
15:15:59:654,14.359,-0.008,-0.003,-0.001,-1.463,4.966,2.897
15:15:59:681,14.385,-0.009,0.001,-0.006,-1.469,4.955,2.957
15:15:59:706,14.411,0.001,0.009,-0.021,-1.486,4.929,2.993
15:15:59:733,14.438,0.008,0.005,-0.007,-1.495,4.949,3.023
15:15:59:76,14.465,-0.013,-0.005,0.000,-1.498,4.987,3.082
15:15:59:785,14.490,-0.010,-0.006,0.001,-1.501,5.006,3.122
15:15:59:811,14.516,-0.012,0.004,-0.005,-1.504,5.006,3.162
15:15:59:838,14.543,0.009,0.002,-0.013,-1.508,5.001,3.167
15:15:59:864,14.569,0.003,-0.002,-0.012,-1.517,5.010,3.187
15:15:59:891,14.596,-0.011,-0.005,0.000,-1.521,5.009,3.217
15:15:59:917,14.622,-0.013,0.001,-0.006,-1.520,5.009,3.227
15:15:59:973,14.678,0.008,0.005,-0.016,-1.530,5.014,3.232
15:15:59:973,14.678,-0.005,-0.001,-0.008,-1.536,5.039,3.227
15:15:59:995,14.700,-0.005,-0.004,-0.003,-1.541,5.043,3.232
15:16:00:021,14.726,-0.014,-0.004,-0.004,-1.560,5.033,3.234
15:16:00:077,14.782,-0.008,0.003,-0.009,-1.574,4.992,3.235
15:16:00:078,14.783,0.001,0.005,-0.017,-1.601,4.922,3.238
15:16:00:1,14.805,0.001,-0.007,-0.021,-1.621,4.897,3.234
15:16:00:127,14.832,0.000,0.005,-0.007,-1.643,4.852,3.261
15:16:00:153,14.858,-0.009,0.008,-0.014,-1.666,4.840,3.292
15:16:00:18,14.884,-0.001,0.000,-0.008,-1.665,4.840,3.312
15:16:00:205,14.910,-0.003,0.009,-0.019,-1.663,4.830,3.332
15:16:00:233,14.938,-0.011,0.000,-0.004,-1.661,4.810,3.362
15:16:00:261,14.966,-0.014,-0.004,-0.011,-1.683,4.779,3.393
15:16:00:261,14.966,-0.012,0.000,-0.007,-1.706,4.743,3.410
15:16:00:313,15.018,-0.015,0.006,-0.015,-1.737,4.657,3.438
15:16:00:314,15.019,-0.001,0.000,-0.011,-1.768,4.557,3.442
15:16:00:366,15.070,-0.004,0.001,-0.012,-1.797,4.537,3.444
15:16:00:367,15.071,-0.003,0.000,0.001,-1.832,4.540,3.441
15:16:00:389,15.094,-0.001,0.003,-0.011,-1.851,4.510,3.443
15:16:00:416,15.121,-0.003,0.012,-0.024,-1.894,4.454,3.442
15:16:00:471,15.176,0.005,0.002,-0.029,-1.936,4.408,3.470
15:16:00:472,15.177,0.007,0.003,-0.007,-1.954,4.407,3.501
15:16:00:496,15.200,-0.012,0.001,-0.006,-1.959,4.405,3.580
15:16:00:521,15.226,-0.010,-0.002,-0.002,-1.961,4.379,3.625
15:16:00:547,15.252,-0.001,0.005,-0.010,-1.966,4.343,3.681
15:16:00:573,15.278,0.000,-0.001,-0.005,-1.969,4.323,3.711
15:16:00:599,15.304,-0.015,-0.001,-0.001,-1.971,4.287,3.737
15:16:00:625,15.330,-0.043,0.008,0.001,-1.985,4.148,3.760
15:16:00:653,15.358,-0.010,0.006,-0.014,-2.000,4.049,3.714
15:16:00:678,15.383,-0.012,0.002,-0.019,-2.023,3.986,3.622
15:16:00:704,15.409,-0.001,-0.003,-0.017,-2.062,3.956,3.556
15:16:00:731,15.436,0.002,0.000,-0.005,-2.085,3.873,3.465
15:16:00:757,15.462,0.000,0.004,-0.007,-2.111,3.749,3.385
15:16:00:785,15.490,-0.005,0.005,-0.017,-2.138,3.685,3.333
15:16:00:81,15.515,0.004,0.006,-0.028,-2.182,3.665,3.258
15:16:00:836,15.541,0.013,-0.001,-0.027,-2.195,3.656,3.209
15:16:00:862,15.566,0.012,0.000,-0.011,-2.209,3.712,3.164
15:16:00:888,15.593,-0.001,0.001,-0.015,-2.220,3.756,3.159
15:16:00:914,15.619,-0.010,0.001,-0.009,-2.220,3.780,3.173
15:16:00:94,15.645,-0.008,0.006,-0.011,-2.217,3.869,3.181
15:16:00:967,15.672,-0.016,0.005,0.005,-2.223,3.929,3.190
15:16:00:994,15.699,-0.012,0.002,-0.020,-2.229,3.998,3.199
15:16:01:019,15.724,-0.008,0.003,-0.014,-2.220,4.047,3.208
15:16:01:045,15.750,-0.007,0.002,-0.013,-2.203,4.142,3.209
15:16:01:071,15.776,-0.010,0.003,-0.008,-2.174,4.173,3.207
15:16:01:098,15.803,-0.023,0.009,-0.008,-2.175,4.193,3.197
15:16:01:126,15.830,0.006,0.004,-0.011,-2.163,4.243,3.165
15:16:01:151,15.856,0.013,-0.002,-0.013,-2.151,4.289,3.148
15:16:01:177,15.882,-0.003,0.000,-0.013,-2.118,4.359,3.145
15:16:01:203,15.908,-0.005,0.005,-0.015,-2.085,4.424,3.147
15:16:01:229,15.934,0.005,0.000,-0.013,-2.051,4.480,3.148
15:16:01:255,15.960,0.011,0.003,-0.007,-1.998,4.590,3.173
15:16:01:281,15.986,0.000,0.000,-0.007,-1.963,4.674,3.214
15:16:01:309,16.013,-0.002,0.001,-0.021,-1.906,4.764,3.298
15:16:01:334,16.039,-0.001,0.000,-0.011,-1.830,4.878,3.395
15:16:01:36,16.065,0.010,-0.002,-0.008,-1.778,4.948,3.470
15:16:01:387,16.092,0.001,0.008,0.008,-1.694,5.047,3.613
15:16:01:413,16.118,-0.018,-0.004,-0.004,-1.645,5.092,3.723
15:16:01:44,16.145,-0.044,0.001,-0.002,-1.583,5.146,3.892
15:16:01:466,16.171,-0.024,0.003,-0.007,-1.550,5.185,3.969
15:16:01:492,16.197,-0.013,0.000,0.009,-1.507,5.235,4.065
15:16:01:518,16.223,-0.013,-0.004,-0.003,-1.495,5.274,4.133
15:16:01:545,16.250,-0.022,0.004,-0.007,-1.494,5.269,4.158
15:16:01:57,16.275,-0.011,0.000,-0.006,-1.513,5.292,4.184
15:16:01:597,16.302,-0.005,0.000,0.001,-1.520,5.317,4.169
15:16:01:623,16.328,-0.012,-0.003,-0.002,-1.522,5.318,4.129
15:16:01:649,16.354,-0.004,0.008,-0.017,-1.522,5.264,4.085
15:16:01:677,16.382,0.002,0.005,-0.009,-1.524,5.264,4.056
15:16:01:703,16.408,0.003,0.001,-0.012,-1.534,5.254,4.037
15:16:01:73,16.435,-0.001,-0.003,-0.009,-1.533,5.235,4.037
15:16:01:754,16.459,-0.013,0.003,-0.007,-1.537,5.200,4.043
15:16:01:81,16.515,-0.004,0.001,-0.006,-1.537,5.190,4.033
15:16:01:811,16.516,0.005,0.002,-0.014,-1.538,5.180,4.013
15:16:01:833,16.538,0.000,0.000,-0.011,-1.539,5.185,3.988
15:16:01:859,16.564,-0.007,0.001,-0.016,-1.530,5.191,3.973
15:16:01:885,16.590,0.005,0.005,0.004,-1.536,5.216,3.968
15:16:01:914,16.619,-0.010,0.000,0.001,-1.536,5.216,3.968
15:16:01:939,16.643,-0.004,0.001,-0.005,-1.541,5.205,3.968
15:16:01:964,16.669,0.004,0.000,-0.015,-1.539,5.185,3.988
15:16:01:991,16.696,0.000,-0.005,-0.017,-1.528,5.171,4.013
15:16:02:016,16.721,-0.013,-0.003,0.002,-1.530,5.165,4.058
15:16:02:043,16.748,-0.018,0.001,0.013,-1.528,5.145,4.087
15:16:02:069,16.774,-0.001,0.007,-0.013,-1.524,5.085,4.118
15:16:02:097,16.802,-0.006,-0.004,-0.008,-1.517,5.080,4.152
15:16:02:123,16.828,-0.013,-0.011,-0.007,-1.506,5.080,4.162
15:16:02:149,16.854,-0.019,-0.001,0.006,-1.507,5.080,4.152
15:16:02:174,16.879,-0.050,0.003,-0.008,-1.517,5.075,4.147
15:16:02:2,16.905,0.062,0.034,-0.001,-1.523,5.031,4.094
15:16:02:228,16.933,-0.038,-0.017,-0.007,-1.529,5.135,4.048
15:16:02:254,16.959,-0.006,-0.007,-0.010,-1.531,5.116,3.999
15:16:02:279,16.984,-0.018,0.001,-0.005,-1.530,5.112,3.925
15:16:02:306,17.011,0.004,0.007,-0.007,-1.538,5.133,3.885
15:16:02:362,17.067,0.003,0.008,0.004,-1.543,5.188,3.820
15:16:02:363,17.068,-0.016,-0.003,-0.005,-1.542,5.233,3.785
15:16:02:384,17.089,-0.012,-0.008,-0.005,-1.550,5.239,3.720
15:16:02:411,17.116,0.000,0.004,-0.005,-1.563,5.175,3.628
15:16:02:437,17.141,0.028,0.000,-0.003,-1.579,5.116,3.580
15:16:02:463,17.168,0.022,-0.001,-0.015,-1.602,5.061,3.568
15:16:02:489,17.194,0.012,-0.003,-0.015,-1.599,5.006,3.593
15:16:02:519,17.224,-0.012,-0.001,-0.012,-1.603,4.911,3.659
15:16:02:519,17.224,0.011,0.019,-0.012,-1.605,4.815,3.745
15:16:02:571,17.276,0.028,0.008,-0.019,-1.600,4.770,3.810
15:16:02:571,17.276,-0.002,-0.001,0.000,-1.602,4.782,3.954
15:16:02:623,17.328,-0.017,0.006,-0.002,-1.601,4.771,4.053
15:16:02:624,17.329,-0.034,0.004,0.002,-1.597,4.719,4.173
15:16:02:647,17.352,-0.040,0.004,-0.004,-1.594,4.679,4.212
15:16:02:674,17.379,-0.014,0.007,0.001,-1.601,4.590,4.205
15:16:02:699,17.404,-0.010,0.007,-0.014,-1.600,4.492,4.156
15:16:02:726,17.431,-0.007,0.012,-0.011,-1.596,4.428,4.103
15:16:02:752,17.456,-0.026,0.008,0.002,-1.611,4.409,4.015
15:16:02:778,17.483,-0.027,-0.014,-0.004,-1.616,4.425,3.940
15:16:02:804,17.509,0.021,-0.011,-0.030,-1.642,4.452,3.768
15:16:02:832,17.537,0.041,-0.006,-0.015,-1.635,4.454,3.629
15:16:02:857,17.562,0.036,-0.003,-0.005,-1.638,4.465,3.589
15:16:02:883,17.588,0.018,0.019,0.004,-1.646,4.459,3.605
15:16:02:909,17.614,0.028,-0.005,-0.004,-1.667,4.433,3.671
15:16:02:936,17.640,-0.001,-0.015,-0.001,-1.710,4.408,3.852
15:16:02:962,17.667,-0.014,-0.010,0.000,-1.760,4.378,4.079
15:16:02:988,17.693,-0.047,0.002,0.004,-1.805,4.334,4.212
15:16:03:014,17.719,-0.064,-0.004,0.013,-1.886,4.279,4.327
15:16:03:042,17.747,-0.001,0.051,-0.025,-1.966,4.202,4.348
15:16:03:066,17.771,-0.030,0.007,-0.077,-2.050,3.927,4.275
15:16:03:094,17.799,-0.043,-0.003,-0.022,-2.073,3.873,4.203
15:16:03:121,17.825,-0.008,-0.007,-0.004,-2.073,3.812,4.011
15:16:03:147,17.852,0.025,-0.003,-0.026,-2.064,3.703,3.789
15:16:03:172,17.877,0.031,-0.003,-0.025,-2.055,3.646,3.661
15:16:03:198,17.903,0.005,0.003,-0.027,-2.030,3.670,3.530
15:16:03:225,17.930,0.018,0.005,-0.004,-2.010,3.711,3.478
15:16:03:25,17.955,0.025,0.007,-0.002,-1.967,3.772,3.474
15:16:03:278,17.983,-0.011,-0.006,-0.011,-1.935,3.807,3.526
15:16:03:304,18.009,-0.027,-0.003,-0.013,-1.894,3.885,3.650
15:16:03:329,18.034,-0.039,0.003,0.007,-1.862,3.959,3.721
15:16:03:384,18.089,-0.009,0.001,-0.005,-1.859,4.009,3.720
15:16:03:385,18.090,-0.013,0.001,-0.011,-1.868,4.103,3.704
15:16:03:408,18.113,0.000,-0.001,-0.018,-1.886,4.153,3.675
15:16:03:435,18.139,-0.010,-0.002,-0.009,-1.886,4.213,3.634
15:16:03:462,18.167,-0.004,0.000,-0.010,-1.894,4.278,3.608
15:16:03:487,18.192,-0.005,0.002,-0.003,-1.904,4.287,3.609
15:16:03:513,18.218,-0.012,-0.003,-0.017,-1.903,4.262,3.614
15:16:03:539,18.244,-0.012,-0.001,-0.019,-1.917,4.237,3.621
15:16:03:566,18.271,0.014,0.006,-0.010,-1.912,4.227,3.620
15:16:03:592,18.297,-0.005,-0.012,-0.006,-1.893,4.297,3.638
15:16:03:618,18.323,-0.005,-0.006,-0.007,-1.883,4.336,3.656
15:16:03:644,18.349,-0.013,0.018,0.009,-1.881,4.356,3.695
15:16:03:672,18.377,-0.002,0.001,-0.026,-1.890,4.345,3.716
15:16:03:697,18.402,-0.003,0.000,-0.022,-1.868,4.350,3.749
15:16:03:723,18.428,0.000,0.000,0.005,-1.832,4.405,3.800
15:16:03:75,18.454,-0.018,0.001,0.008,-1.801,4.440,3.842
15:16:03:776,18.481,-0.010,0.002,-0.011,-1.782,4.440,3.901
15:16:03:802,18.507,-0.004,0.002,-0.016,-1.771,4.454,3.935
15:16:03:828,18.533,-0.009,0.001,-0.005,-1.748,4.498,4.007
15:16:03:854,18.559,-0.026,-0.003,0.002,-1.732,4.543,4.050
15:16:03:88,18.585,-0.018,0.003,0.006,-1.722,4.582,4.088
15:16:03:908,18.613,-0.005,0.004,-0.025,-1.733,4.577,4.064
15:16:03:934,18.638,0.003,0.005,-0.019,-1.739,4.588,4.044
15:16:03:959,18.664,0.000,-0.001,-0.011,-1.761,4.627,4.035
15:16:03:986,18.691,-0.004,0.000,-0.010,-1.762,4.641,4.030
15:16:04:012,18.717,-0.022,0.004,-0.023,-1.761,4.641,4.040
15:16:04:038,18.743,-0.003,0.000,-0.014,-1.757,4.666,4.044
15:16:04:065,18.770,-0.007,0.004,0.003,-1.738,4.716,4.052
15:16:04:092,18.797,0.004,0.006,0.001,-1.718,4.707,4.051
15:16:04:117,18.822,-0.028,-0.002,-0.022,-1.717,4.678,4.051
15:16:04:143,18.848,-0.031,0.005,0.001,-1.731,4.672,4.067
15:16:04:169,18.874,0.013,-0.001,-0.011,-1.742,4.676,4.053
15:16:04:195,18.900,0.014,0.002,0.003,-1.742,4.676,4.043
15:16:04:222,18.927,-0.002,0.000,-0.026,-1.731,4.637,4.043
15:16:04:25,18.955,-0.032,-0.005,-0.013,-1.720,4.623,4.057
15:16:04:275,18.980,-0.006,0.003,0.001,-1.692,4.605,4.016
15:16:04:301,19.006,0.006,0.011,0.006,-1.693,4.590,3.982
15:16:04:327,19.032,0.014,-0.002,-0.010,-1.688,4.531,3.953
15:16:04:353,19.058,-0.015,-0.004,-0.013,-1.689,4.527,3.928
15:16:04:38,19.085,-0.016,0.002,-0.008,-1.700,4.546,3.919
15:16:04:406,19.111,0.017,0.003,-0.004,-1.706,4.551,3.904
15:16:04:431,19.136,0.001,0.000,-0.003,-1.707,4.546,3.899
15:16:04:458,19.163,-0.009,-0.004,-0.011,-1.710,4.531,3.925
15:16:04:484,19.189,-0.034,0.003,0.000,-1.689,4.536,3.938
15:16:04:512,19.217,-0.017,0.004,-0.003,-1.684,4.522,3.923
15:16:04:537,19.242,0.000,0.001,-0.011,-1.676,4.508,3.888
15:16:04:563,19.268,-0.005,-0.003,-0.007,-1.667,4.514,3.873
15:16:04:589,19.294,-0.009,0.000,-0.004,-1.650,4.525,3.842
15:16:04:616,19.321,-0.012,0.003,-0.018,-1.636,4.526,3.811
15:16:04:642,19.347,-0.002,-0.001,-0.007,-1.628,4.526,3.781
15:16:04:668,19.373,0.005,-0.002,-0.008,-1.621,4.527,3.741
15:16:04:698,19.403,0.001,0.000,0.006,-1.622,4.527,3.721
15:16:04:75,19.455,-0.009,0.001,-0.012,-1.622,4.493,3.697
15:16:04:75,19.455,-0.004,-0.001,0.000,-1.627,4.483,3.687
15:16:04:773,19.478,-0.002,-0.001,-0.004,-1.629,4.478,3.663
15:16:04:799,19.504,-0.001,0.003,0.001,-1.624,4.440,3.633
15:16:04:829,19.534,-0.001,0.008,-0.021,-1.630,4.420,3.614
15:16:04:829,19.534,-0.014,0.000,-0.013,-1.646,4.435,3.600
15:16:04:878,19.583,-0.012,0.001,-0.004,-1.658,4.459,3.585
15:16:04:908,19.613,0.001,0.004,-0.004,-1.659,4.474,3.561
15:16:04:908,19.613,0.001,-0.002,-0.002,-1.667,4.514,3.541
15:16:04:96,19.665,-0.010,0.002,0.003,-1.677,4.534,3.541
15:16:04:96,19.665,-0.004,0.006,-0.020,-1.717,4.552,3.543
15:16:04:984,19.689,0.003,0.009,-0.016,-1.743,4.576,3.539
15:16:05:01,19.715,0.003,-0.003,-0.025,-1.778,4.599,3.556
15:16:05:035,19.740,-0.017,-0.003,0.003,-1.792,4.638,3.586
15:16:05:091,19.795,-0.005,0.002,0.000,-1.796,4.687,3.625
15:16:05:092,19.796,-0.004,0.009,-0.005,-1.800,4.696,3.645
15:16:05:115,19.820,0.000,-0.001,-0.013,-1.800,4.711,3.669
15:16:05:199,19.904,-0.014,-0.005,-0.003,-1.808,4.754,3.714
15:16:05:2,19.905,-0.011,0.000,0.001,-1.813,4.769,3.728
15:16:05:201,19.906,-0.005,0.000,-0.002,-1.818,4.793,3.733
15:16:05:219,19.924,-0.002,-0.005,-0.010,-1.829,4.803,3.734
15:16:05:246,19.951,-0.003,-0.004,-0.002,-1.843,4.803,3.734
15:16:05:272,19.976,-0.002,0.003,0.000,-1.873,4.802,3.736
15:16:05:299,20.004,0.002,0.000,-0.010,-1.886,4.771,3.748
15:16:05:324,20.029,0.002,0.000,-0.015,-1.914,4.745,3.764
15:16:05:41,20.115,-0.018,0.009,-0.016,-1.924,4.779,3.789
15:16:05:41,20.115,-0.005,0.003,-0.003,-1.943,4.822,3.824
15:16:05:41,20.115,-0.003,0.003,-0.016,-1.942,4.831,3.864
15:16:05:429,20.134,0.002,0.000,-0.015,-1.950,4.826,3.889
15:16:05:457,20.162,-0.027,-0.002,-0.016,-1.962,4.829,3.944
15:16:05:482,20.187,-0.014,0.002,-0.007,-1.969,4.813,3.980
15:16:05:508,20.213,-0.001,0.012,-0.012,-1.973,4.783,3.990
15:16:05:534,20.239,0.013,-0.003,-0.002,-1.966,4.759,4.005
15:16:05:56,20.265,-0.011,-0.005,-0.010,-1.970,4.773,4.030
15:16:05:587,20.292,-0.022,0.000,0.004,-1.967,4.747,4.075
15:16:05:613,20.318,-0.003,0.012,0.001,-1.966,4.718,4.075
15:16:05:641,20.346,0.005,0.002,-0.008,-1.970,4.707,4.076
15:16:05:696,20.401,-0.014,0.003,-0.008,-1.971,4.732,4.071
15:16:05:696,20.401,-0.010,-0.001,-0.005,-1.981,4.742,4.081
15:16:05:718,20.423,-0.006,0.000,-0.014,-1.992,4.761,4.081
15:16:05:744,20.449,-0.007,0.002,-0.008,-1.999,4.796,4.066
15:16:05:771,20.476,0.000,0.001,-0.005,-2.001,4.821,4.041
15:16:05:797,20.502,-0.008,0.005,0.000,-2.002,4.826,4.026
15:16:05:823,20.528,0.001,0.008,-0.012,-2.003,4.836,4.016
15:16:05:849,20.554,-0.001,0.000,-0.006,-2.009,4.846,4.006
15:16:05:877,20.582,-0.008,-0.004,-0.016,-1.998,4.866,4.025
15:16:05:902,20.607,-0.005,-0.002,-0.003,-1.979,4.867,4.024
15:16:05:928,20.633,-0.016,0.006,0.000,-1.953,4.868,4.032
15:16:05:954,20.659,-0.004,0.005,-0.002,-1.927,4.839,4.041
15:16:05:98,20.685,-0.007,0.001,-0.005,-1.916,4.819,4.041
15:16:06:007,20.712,-0.003,0.000,0.005,-1.916,4.824,4.046
15:16:06:033,20.738,-0.012,0.004,-0.001,-1.918,4.819,4.021
15:16:06:06,20.765,-0.005,0.001,-0.023,-1.923,4.809,4.002
15:16:06:085,20.790,0.006,0.002,-0.011,-1.909,4.815,3.996
15:16:06:112,20.817,-0.003,0.002,-0.004,-1.889,4.816,3.995
15:16:06:167,20.872,-0.010,-0.002,0.004,-1.868,4.802,3.999
15:16:06:168,20.873,-0.014,0.005,-0.016,-1.857,4.777,4.003
15:16:06:191,20.896,0.000,0.006,-0.010,-1.862,4.777,4.004
15:16:06:246,20.951,0.001,-0.001,-0.004,-1.859,4.802,3.998
15:16:06:247,20.952,-0.012,0.000,0.004,-1.859,4.822,3.998
15:16:06:269,20.974,-0.008,0.002,-0.010,-1.859,4.827,4.003
15:16:06:296,21.001,-0.001,0.002,-0.009,-1.859,4.827,4.003
15:16:06:324,21.028,0.001,-0.001,-0.008,-1.864,4.827,4.003
15:16:06:349,21.054,-0.005,0.004,-0.002,-1.864,4.817,4.003
15:16:06:374,21.079,-0.005,0.002,-0.025,-1.868,4.812,4.008
15:16:06:4,21.105,-0.001,0.000,-0.009,-1.889,4.840,4.009
15:16:06:427,21.132,-0.010,0.001,0.006,-1.876,4.891,4.007
15:16:06:453,21.158,-0.004,0.003,0.005,-1.876,4.895,4.012
15:16:06:48,21.185,-0.009,0.000,-0.015,-1.879,4.860,4.018
15:16:06:51,21.214,-0.005,0.003,-0.012,-1.880,4.870,4.018
15:16:06:532,21.237,0.001,0.000,0.004,-1.870,4.895,4.022
15:16:06:559,21.264,-0.001,0.000,-0.001,-1.870,4.895,4.022
15:16:06:584,21.289,-0.014,-0.002,-0.011,-1.875,4.885,4.022
15:16:06:611,21.316,-0.014,0.006,-0.005,-1.879,4.885,4.033
15:16:06:638,21.343,0.003,-0.001,0.002,-1.884,4.885,4.033
15:16:06:665,21.370,-0.003,0.000,-0.002,-1.866,4.915,4.031
15:16:06:691,21.396,-0.015,0.003,-0.006,-1.866,4.920,4.036
15:16:06:72,21.425,-0.007,0.002,-0.003,-1.865,4.915,4.041
15:16:06:742,21.447,0.002,0.005,0.000,-1.870,4.915,4.051
15:16:06:768,21.473,0.007,-0.002,-0.005,-1.875,4.910,4.047
15:16:06:795,21.500,-0.004,-0.003,-0.003,-1.874,4.920,4.056
15:16:06:823,21.527,-0.015,-0.001,-0.010,-1.874,4.924,4.061
15:16:06:851,21.556,0.001,0.004,-0.005,-1.879,4.919,4.067
15:16:06:874,21.579,0.002,0.000,-0.016,-1.879,4.924,4.072
15:16:06:899,21.604,-0.003,-0.002,-0.005,-1.884,4.929,4.067
15:16:06:926,21.631,-0.017,0.001,-0.003,-1.884,4.949,4.076
15:16:06:952,21.657,-0.006,-0.001,0.002,-1.884,4.943,4.081
15:16:06:979,21.684,0.001,0.002,-0.014,-1.898,4.928,4.087
15:16:07:005,21.710,0.005,0.000,-0.014,-1.903,4.933,4.082
15:16:07:031,21.736,-0.010,0.002,-0.011,-1.913,4.947,4.088
15:16:07:059,21.764,-0.017,-0.001,0.007,-1.924,4.986,4.108
15:16:07:084,21.789,-0.008,-0.003,-0.007,-1.924,4.986,4.108
15:16:07:109,21.814,0.000,0.001,-0.004,-1.923,4.986,4.117
15:16:07:135,21.840,-0.012,-0.003,-0.003,-1.923,4.986,4.117
15:16:07:165,21.870,-0.012,0.001,0.000,-1.932,4.981,4.123
15:16:07:166,21.871,-0.010,0.001,-0.007,-1.931,4.956,4.128
15:16:07:215,21.920,0.000,0.000,-0.006,-1.936,4.940,4.134
15:16:07:244,21.949,0.003,0.002,-0.011,-1.935,4.916,4.129
15:16:07:244,21.949,-0.009,0.001,-0.018,-1.934,4.911,4.134
15:16:07:267,21.972,-0.022,0.002,-0.012,-1.954,4.905,4.140
15:16:07:293,21.998,0.001,0.005,0.003,-1.967,4.875,4.152
15:16:07:353,22.058,0.017,0.001,-0.005,-1.969,4.810,4.158
15:16:07:353,22.058,-0.004,0.000,-0.003,-1.969,4.805,4.153
15:16:07:374,22.079,-0.014,0.002,-0.004,-1.974,4.800,4.158
15:16:07:398,22.103,-0.015,0.003,-0.007,-1.974,4.800,4.158
15:16:07:425,22.130,0.001,0.003,0.000,-1.974,4.800,4.158
15:16:07:451,22.156,0.000,0.001,0.003,-1.965,4.820,4.158
15:16:07:478,22.183,-0.016,0.000,-0.005,-1.965,4.820,4.158
15:16:07:56,22.265,0.010,0.001,-0.005,-1.965,4.820,4.158
15:16:07:561,22.266,-0.005,0.001,-0.008,-1.956,4.850,4.157
15:16:07:583,22.288,-0.008,0.001,-0.006,-1.938,4.890,4.155
15:16:07:608,22.313,-0.016,-0.003,-0.013,-1.923,4.901,4.154
15:16:07:635,22.340,-0.009,0.001,0.000,-1.923,4.901,4.154
15:16:07:663,22.368,0.000,0.001,-0.004,-1.923,4.896,4.159
15:16:07:687,22.392,-0.005,0.003,-0.005,-1.923,4.896,4.159
15:16:07:713,22.418,-0.008,0.001,-0.011,-1.923,4.896,4.159
15:16:07:739,22.444,-0.006,0.000,0.001,-1.923,4.901,4.154
15:16:07:766,22.471,-0.008,0.002,-0.009,-1.923,4.901,4.154
15:16:07:792,22.497,-0.010,0.003,-0.008,-1.923,4.901,4.154
15:16:07:818,22.523,-0.008,0.006,-0.016,-1.923,4.896,4.159
15:16:07:845,22.550,0.000,0.004,0.000,-1.922,4.881,4.154
15:16:07:871,22.576,-0.003,0.001,-0.012,-1.922,4.881,4.154
15:16:07:897,22.602,-0.006,0.000,0.003,-1.922,4.881,4.154
15:16:07:923,22.628,-0.006,0.001,-0.007,-1.922,4.881,4.154
15:16:07:949,22.654,-0.005,0.003,0.001,-1.922,4.881,4.154
15:16:07:976,22.681,-0.001,0.002,-0.006,-1.922,4.881,4.154
15:16:08:002,22.707,-0.001,0.000,-0.007,-1.922,4.881,4.154
15:16:08:028,22.733,-0.008,-0.001,-0.002,-1.922,4.881,4.154
15:16:08:055,22.760,-0.009,0.002,-0.004,-1.922,4.881,4.154
15:16:08:08,22.785,-0.010,0.003,-0.007,-1.922,4.867,4.149
15:16:08:108,22.813,0.001,0.003,-0.006,-1.923,4.877,4.139
15:16:08:133,22.838,0.000,0.005,-0.005,-1.923,4.881,4.144
15:16:08:159,22.864,-0.005,0.001,-0.006,-1.913,4.892,4.143
15:16:08:186,22.891,-0.013,0.005,-0.009,-1.904,4.902,4.143
15:16:08:212,22.917,0.002,0.002,-0.006,-1.904,4.897,4.128
15:16:08:238,22.943,0.001,0.000,-0.004,-1.900,4.917,4.127
15:16:08:264,22.969,-0.001,0.000,0.000,-1.895,4.917,4.127
15:16:08:291,22.996,-0.019,0.001,0.005,-1.895,4.922,4.132
15:16:08:317,23.022,-0.012,0.005,-0.007,-1.895,4.922,4.132
15:16:08:343,23.048,-0.001,0.000,-0.011,-1.895,4.917,4.127
15:16:08:37,23.075,-0.004,0.002,-0.014,-1.895,4.917,4.127
15:16:08:396,23.101,-0.005,0.001,-0.007,-1.895,4.917,4.127
15:16:08:422,23.127,-0.004,-0.001,-0.014,-1.895,4.917,4.127
15:16:08:448,23.153,-0.013,0.002,-0.002,-1.896,4.917,4.117
15:16:08:474,23.179,-0.001,0.006,-0.012,-1.892,4.923,4.102
15:16:08:501,23.206,-0.011,0.002,-0.001,-1.891,4.913,4.102
15:16:08:527,23.232,-0.006,0.003,-0.010,-1.891,4.913,4.102
15:16:08:554,23.259,-0.006,0.001,-0.007,-1.891,4.913,4.102
15:16:08:609,23.314,-0.007,0.004,-0.009,-1.887,4.923,4.102
15:16:08:609,23.314,0.000,0.000,-0.004,-1.872,4.924,4.101
15:16:08:632,23.337,-0.013,0.003,-0.004,-1.868,4.934,4.100
15:16:08:66,23.365,-0.010,0.005,-0.001,-1.873,4.944,4.100
15:16:08:684,23.389,-0.006,0.005,-0.009,-1.873,4.944,4.100
15:16:08:712,23.417,0.001,0.000,-0.009,-1.873,4.944,4.100
15:16:08:768,23.473,-0.012,-0.001,-0.003,-1.873,4.963,4.100
15:16:08:768,23.473,-0.003,0.000,-0.001,-1.873,4.963,4.100
15:16:08:789,23.494,-0.003,0.004,-0.008,-1.873,4.963,4.100
15:16:08:816,23.520,0.000,0.002,-0.007,-1.873,4.963,4.100
15:16:08:842,23.547,-0.002,0.004,-0.017,-1.873,4.963,4.100
15:16:08:869,23.574,-0.009,0.000,-0.005,-1.873,4.963,4.100
15:16:08:894,23.599,-0.009,0.001,-0.001,-1.873,4.963,4.100
15:16:08:921,23.626,0.000,0.002,-0.006,-1.873,4.963,4.100
15:16:08:947,23.652,-0.007,0.007,-0.004,-1.873,4.963,4.100
15:16:08:975,23.680,0.000,0.003,-0.006,-1.873,4.963,4.100
15:16:09:,23.704,-0.006,0.001,-0.009,-1.874,4.973,4.100
15:16:09:025,23.730,-0.004,0.001,-0.007,-1.874,4.978,4.105
15:16:09:052,23.757,-0.001,0.000,-0.002,-1.874,4.978,4.105
15:16:09:078,23.783,-0.001,0.003,-0.013,-1.874,4.973,4.100
15:16:09:106,23.811,-0.005,0.004,-0.012,-1.873,4.963,4.100
15:16:09:131,23.836,-0.005,0.003,-0.006,-1.864,4.978,4.104
15:16:09:157,23.862,-0.002,-0.001,-0.001,-1.854,4.979,4.104
15:16:09:184,23.889,-0.012,0.000,-0.009,-1.844,4.984,4.108
15:16:09:209,23.914,-0.001,0.003,-0.003,-1.844,4.984,4.108
15:16:09:236,23.941,-0.002,0.000,-0.012,-1.844,4.984,4.108
15:16:09:263,23.968,-0.011,-0.002,-0.002,-1.844,4.984,4.108
15:16:09:288,23.993,-0.009,0.004,-0.010,-1.844,4.984,4.108
15:16:09:315,24.019,0.000,0.000,-0.010,-1.844,4.984,4.108
15:16:09:341,24.046,-0.007,0.002,-0.008,-1.844,4.974,4.108
15:16:09:367,24.072,-0.010,-0.002,-0.001,-1.844,4.974,4.108
15:16:09:394,24.099,-0.003,-0.001,-0.003,-1.844,4.974,4.108
15:16:09:422,24.127,-0.005,0.001,-0.010,-1.844,4.974,4.108
15:16:09:423,24.128,-0.002,-0.001,-0.005,-1.844,4.974,4.108
15:16:09:475,24.180,-0.009,0.002,0.001,-1.844,4.989,4.103
15:16:09:475,24.180,-0.013,0.001,0.001,-1.845,4.999,4.103
15:16:09:5,24.204,-0.008,0.002,-0.005,-1.845,4.999,4.103
15:16:09:554,24.259,-0.002,0.000,-0.012,-1.845,4.999,4.103
15:16:09:555,24.260,-0.001,0.003,-0.009,-1.845,4.999,4.103
15:16:09:607,24.312,-0.007,0.001,-0.010,-1.845,5.004,4.108
15:16:09:608,24.313,-0.010,0.004,-0.005,-1.850,5.014,4.108
15:16:09:629,24.334,-0.009,0.001,0.000,-1.850,5.014,4.108
15:16:09:658,24.363,-0.015,0.007,0.002,-1.850,5.014,4.108
15:16:09:683,24.388,0.000,0.001,-0.007,-1.850,5.014,4.108
15:16:09:708,24.413,-0.004,-0.001,-0.007,-1.850,5.014,4.108
15:16:09:735,24.440,-0.007,0.001,-0.007,-1.850,5.014,4.108
15:16:09:76,24.465,-0.013,0.002,-0.001,-1.850,5.014,4.108
15:16:09:787,24.492,-0.007,0.003,-0.008,-1.850,5.014,4.108
15:16:09:813,24.518,-0.003,0.004,-0.014,-1.850,5.014,4.108
15:16:09:841,24.546,0.002,0.001,-0.004,-1.850,5.024,4.108
15:16:09:867,24.572,-0.013,-0.001,-0.008,-1.850,5.048,4.122
15:16:09:892,24.597,-0.012,0.002,0.001,-1.850,5.048,4.122
15:16:09:918,24.623,-0.002,0.002,-0.017,-1.850,5.038,4.122
15:16:09:944,24.649,-0.002,0.002,-0.006,-1.850,5.038,4.122
15:16:09:971,24.676,-0.006,0.002,-0.013,-1.850,5.048,4.122
15:16:10:026,24.731,-0.013,0.000,-0.003,-1.850,5.053,4.127
15:16:10:027,24.732,-0.016,0.001,-0.006,-1.851,5.063,4.127
15:16:10:05,24.755,-0.016,0.007,0.004,-1.851,5.063,4.127
15:16:10:075,24.780,0.003,-0.001,-0.017,-1.851,5.063,4.127
15:16:10:102,24.807,-0.014,0.001,-0.003,-1.851,5.063,4.127
15:16:10:129,24.834,-0.015,-0.002,-0.007,-1.851,5.063,4.127
15:16:10:154,24.859,-0.024,0.002,0.004,-1.850,5.053,4.127
15:16:10:181,24.885,-0.006,0.009,-0.012,-1.873,5.002,4.129
15:16:10:207,24.912,0.010,0.000,-0.017,-1.892,4.967,4.136
15:16:10:235,24.940,-0.002,0.006,-0.007,-1.900,4.961,4.161
15:16:10:26,24.965,-0.007,0.001,-0.006,-1.904,4.946,4.177
15:16:10:286,24.991,-0.018,0.004,-0.006,-1.912,4.940,4.202
15:16:10:312,25.017,0.002,0.002,-0.006,-1.911,4.940,4.212
15:16:10:338,25.043,-0.001,0.003,-0.009,-1.901,4.945,4.216
15:16:10:365,25.070,-0.009,0.000,0.002,-1.891,4.960,4.230
15:16:10:393,25.098,-0.022,0.002,0.000,-1.891,4.965,4.245
15:16:10:417,25.122,-0.019,0.001,-0.005,-1.895,4.954,4.255
15:16:10:443,25.148,0.005,0.003,-0.017,-1.905,4.940,4.241
15:16:10:5,25.205,0.003,-0.001,-0.003,-1.911,4.950,4.231
15:16:10:5,25.205,-0.014,0.000,0.005,-1.909,4.959,4.261
15:16:10:522,25.227,-0.017,0.006,0.004,-1.909,4.944,4.266
15:16:10:548,25.253,-0.009,0.003,-0.007,-1.913,4.939,4.271
15:16:10:575,25.280,0.000,0.003,-0.011,-1.908,4.949,4.271
15:16:10:601,25.306,-0.009,-0.001,0.001,-1.920,4.993,4.276
15:16:10:657,25.362,-0.017,0.001,-0.008,-1.920,5.003,4.285
15:16:10:657,25.362,-0.011,0.004,-0.004,-1.920,5.008,4.290
15:16:10:68,25.384,-0.005,0.004,-0.014,-1.929,5.012,4.296
15:16:10:77,25.475,-0.001,0.000,-0.005,-1.929,5.017,4.301
15:16:10:77,25.475,-0.015,0.000,-0.006,-1.930,5.037,4.300
15:16:10:77,25.475,-0.004,0.001,0.003,-1.921,5.062,4.304
15:16:10:796,25.501,-0.003,0.004,-0.013,-1.916,5.062,4.304
15:16:10:811,25.516,-0.002,-0.003,-0.009,-1.921,5.062,4.304
15:16:10:837,25.542,-0.017,-0.001,-0.011,-1.926,5.072,4.314
15:16:10:864,25.568,-0.011,0.002,0.003,-1.930,5.071,4.324
15:16:10:919,25.624,-0.004,0.004,-0.007,-1.934,5.071,4.334
15:16:10:919,25.624,-0.007,0.001,-0.007,-1.934,5.071,4.334
15:16:10:942,25.647,-0.001,0.000,-0.012,-1.939,5.070,4.335
15:16:10:97,25.675,-0.005,0.000,-0.002,-1.925,5.086,4.339
15:16:10:994,25.699,-0.012,0.000,-0.006,-1.920,5.096,4.338
15:16:11:021,25.726,0.001,0.006,-0.010,-1.920,5.096,4.338
15:16:11:047,25.752,0.005,0.004,-0.006,-1.916,5.092,4.323
15:16:11:102,25.807,-0.005,0.000,-0.003,-1.907,5.112,4.322
15:16:11:103,25.808,-0.012,-0.003,-0.001,-1.878,5.137,4.325
15:16:11:125,25.830,-0.020,0.000,0.009,-1.862,5.138,4.334
15:16:11:152,25.857,0.006,0.003,-0.003,-1.863,5.133,4.319
15:16:11:179,25.884,0.005,0.005,-0.008,-1.864,5.114,4.290
15:16:11:205,25.910,-0.004,0.000,-0.004,-1.869,5.114,4.290
15:16:11:238,25.943,-0.011,0.002,0.003,-1.859,5.114,4.290
15:16:11:266,25.971,-0.017,0.003,0.004,-1.858,5.104,4.290
15:16:11:311,26.016,0.000,0.002,-0.011,-1.858,5.085,4.280
15:16:11:311,26.016,0.003,0.003,-0.008,-1.858,5.070,4.276
15:16:11:336,26.041,-0.001,0.000,-0.009,-1.858,5.070,4.276
15:16:11:373,26.078,-0.018,0.003,-0.002,-1.858,5.089,4.295
15:16:11:394,26.099,-0.013,0.003,-0.015,-1.847,5.080,4.295
15:16:11:445,26.150,-0.008,0.001,0.001,-1.847,5.080,4.295
15:16:11:446,26.151,0.000,0.002,-0.001,-1.847,5.080,4.295
15:16:11:467,26.172,-0.012,-0.002,-0.003,-1.847,5.080,4.295
15:16:11:493,26.198,-0.014,0.003,-0.008,-1.847,5.080,4.295
15:16:11:525,26.230,-0.006,-0.002,-0.001,-1.848,5.065,4.280
15:16:11:546,26.251,-0.004,0.001,-0.006,-1.848,5.065,4.270
15:16:11:575,26.280,-0.004,0.000,-0.007,-1.849,5.061,4.256
15:16:11:599,26.304,-0.012,0.001,-0.005,-1.849,5.061,4.256
15:16:11:633,26.338,0.000,0.001,0.001,-1.849,5.061,4.246
15:16:11:651,26.356,-0.006,0.001,-0.005,-1.845,5.066,4.230
15:16:11:684,26.389,-0.004,0.003,-0.006,-1.846,5.067,4.211
15:16:11:684,26.389,-0.005,0.004,-0.005,-1.846,5.067,4.211
15:16:11:737,26.442,-0.002,-0.001,-0.002,-1.846,5.067,4.211
15:16:11:737,26.442,-0.010,0.001,-0.002,-1.846,5.067,4.211
15:16:11:756,26.461,0.005,0.001,-0.008,-1.846,5.067,4.211
15:16:11:811,26.516,-0.001,0.004,-0.013,-1.846,5.062,4.216
15:16:11:812,26.517,0.000,0.001,-0.003,-1.841,5.061,4.216
15:16:11:863,26.568,-0.013,0.001,-0.005,-1.841,5.061,4.216
15:16:11:864,26.569,-0.025,0.008,0.000,-1.840,5.061,4.225
15:16:11:89,26.595,0.004,-0.001,-0.003,-1.840,5.042,4.226
15:16:11:914,26.619,-0.007,-0.002,-0.006,-1.840,5.042,4.226
15:16:11:939,26.644,-0.007,0.000,-0.002,-1.840,5.051,4.226
15:16:11:966,26.671,-0.012,0.002,-0.004,-1.841,5.052,4.216
15:16:11:992,26.697,0.005,0.007,0.000,-1.841,5.052,4.206
15:16:12:019,26.724,-0.007,0.001,-0.006,-1.841,5.052,4.206
15:16:12:045,26.749,-0.008,0.000,-0.007,-1.831,5.047,4.210
15:16:12:074,26.779,-0.014,0.004,-0.007,-1.826,5.052,4.215
15:16:12:097,26.802,-0.007,0.004,0.000,-1.821,5.033,4.195
15:16:12:123,26.828,0.000,0.000,-0.010,-1.801,5.024,4.194
15:16:12:15,26.855,-0.004,0.002,0.004,-1.791,5.024,4.194
15:16:12:206,26.911,-0.011,-0.002,-0.011,-1.761,5.005,4.192
15:16:12:206,26.911,-0.013,0.002,0.001,-1.760,4.986,4.182
15:16:12:229,26.933,0.001,0.001,-0.006,-1.761,4.952,4.148
15:16:12:256,26.961,0.011,-0.001,-0.003,-1.762,4.937,4.114
15:16:12:282,26.987,0.002,0.004,-0.015,-1.743,4.933,4.098
15:16:12:307,27.012,-0.005,-0.001,0.001,-1.723,4.939,4.102
15:16:12:333,27.038,-0.015,0.005,0.002,-1.713,4.934,4.106
15:16:12:359,27.064,-0.002,0.000,-0.004,-1.713,4.905,4.087
15:16:12:386,27.091,-0.002,0.000,-0.001,-1.717,4.885,4.088
15:16:12:412,27.117,-0.005,-0.005,-0.002,-1.716,4.860,4.093
15:16:12:438,27.143,-0.006,0.001,-0.004,-1.714,4.801,4.094
15:16:12:524,27.229,-0.019,0.004,-0.001,-1.707,4.756,4.099
15:16:12:524,27.229,-0.001,0.000,-0.010,-1.711,4.692,4.086
15:16:12:574,27.279,0.005,0.005,-0.002,-1.669,4.605,4.074
15:16:12:574,27.279,-0.012,-0.001,-0.011,-1.633,4.561,4.068
15:16:12:596,27.301,-0.009,-0.001,-0.012,-1.613,4.542,4.047
15:16:12:631,27.336,0.007,0.002,0.000,-1.584,4.514,4.016
15:16:12:648,27.353,0.013,0.000,-0.002,-1.551,4.526,4.004
15:16:12:675,27.380,0.000,0.001,0.001,-1.492,4.572,4.015
15:16:12:716,27.421,-0.021,0.001,0.008,-1.452,4.598,4.037
15:16:12:727,27.432,-0.015,0.006,0.002,-1.411,4.594,4.049
15:16:12:753,27.458,-0.002,0.000,0.000,-1.395,4.545,4.049
15:16:12:781,27.486,-0.004,0.000,0.000,-1.394,4.535,4.049
15:16:12:806,27.511,-0.003,-0.003,-0.010,-1.374,4.516,4.048
15:16:12:833,27.538,-0.009,0.001,-0.011,-1.354,4.512,4.052
15:16:12:858,27.563,0.001,-0.002,-0.002,-1.315,4.538,4.054
15:16:12:886,27.591,0.002,-0.005,-0.006,-1.271,4.560,4.051
15:16:12:911,27.616,0.000,0.001,-0.002,-1.240,4.561,4.069
15:16:12:94,27.645,-0.013,0.003,-0.006,-1.209,4.571,4.097
15:16:12:964,27.669,-0.008,0.005,0.002,-1.184,4.602,4.115
15:16:12:989,27.694,-0.013,0.004,-0.006,-1.160,4.632,4.113
15:16:13:045,27.750,-0.002,0.006,-0.001,-1.137,4.673,4.111
15:16:13:045,27.750,-0.011,0.001,-0.004,-1.124,4.713,4.110
15:16:13:068,27.773,0.000,0.002,-0.001,-1.094,4.724,4.108
15:16:13:095,27.799,-0.004,0.000,-0.007,-1.089,4.724,4.108
15:16:13:121,27.826,0.009,0.000,-0.001,-1.089,4.714,4.108
15:16:13:147,27.852,-0.013,0.001,-0.001,-1.088,4.699,4.123
15:16:13:173,27.878,-0.017,0.001,0.002,-1.087,4.694,4.138
15:16:13:201,27.906,-0.009,0.008,-0.007,-1.085,4.655,4.138
15:16:13:225,27.930,0.005,0.000,-0.008,-1.085,4.655,4.138
15:16:13:257,27.962,-0.010,-0.007,-0.003,-1.086,4.674,4.138
15:16:13:278,27.983,-0.017,0.001,0.004,-1.086,4.679,4.143
15:16:13:305,28.010,-0.015,0.006,0.000,-1.086,4.660,4.123
15:16:13:331,28.036,-0.002,0.000,-0.008,-1.086,4.620,4.094
15:16:13:357,28.062,-0.003,0.003,-0.004,-1.087,4.611,4.074
15:16:13:384,28.089,-0.006,-0.003,-0.013,-1.088,4.611,4.054
15:16:13:41,28.115,-0.015,0.001,-0.002,-1.090,4.611,4.035
15:16:13:436,28.141,-0.002,0.003,-0.002,-1.087,4.636,3.999
15:16:13:462,28.167,-0.006,0.001,-0.004,-1.090,4.661,3.965
15:16:13:488,28.193,-0.005,0.002,-0.004,-1.092,4.676,3.940
15:16:13:515,28.220,-0.016,0.000,-0.002,-1.090,4.682,3.895
15:16:13:541,28.246,-0.016,0.003,-0.010,-1.093,4.682,3.846
15:16:13:567,28.272,0.008,0.003,-0.001,-1.082,4.698,3.780
15:16:13:594,28.298,0.005,0.000,-0.004,-1.066,4.734,3.744
15:16:13:619,28.324,-0.005,0.000,0.000,-1.034,4.780,3.717
15:16:13:646,28.351,-0.019,0.000,-0.005,-1.015,4.781,3.696
15:16:13:672,28.377,-0.014,0.001,0.002,-1.012,4.776,3.671
15:16:13:699,28.404,0.007,0.003,-0.008,-1.014,4.772,3.627
15:16:13:724,28.429,-0.001,-0.001,-0.004,-1.015,4.787,3.612
15:16:13:751,28.456,-0.013,-0.003,-0.011,-1.017,4.802,3.597
15:16:13:777,28.482,-0.013,0.005,0.004,-1.018,4.821,3.577
15:16:13:803,28.508,-0.010,0.004,-0.011,-1.015,4.837,3.562
15:16:13:83,28.535,0.004,-0.002,-0.009,-1.016,4.842,3.547
15:16:13:856,28.561,-0.011,-0.001,-0.008,-1.022,4.872,3.547
15:16:13:882,28.587,-0.014,-0.001,0.001,-1.023,4.901,3.547
15:16:13:908,28.613,-0.013,0.003,-0.005,-1.026,4.936,3.512
15:16:13:936,28.641,0.002,0.000,-0.009,-1.022,4.937,3.492
15:16:13:993,28.698,-0.005,-0.005,-0.009,-1.025,4.971,3.457
15:16:13:993,28.698,-0.017,0.000,-0.014,-1.026,4.991,3.437
15:16:13:994,28.699,-0.016,0.002,-0.012,-1.025,5.007,3.382
15:16:14:014,28.719,0.002,0.005,0.002,-1.023,5.022,3.337
15:16:14:069,28.774,0.000,0.000,-0.002,-1.026,5.057,3.292
15:16:14:069,28.774,-0.008,-0.004,-0.001,-1.023,5.063,3.257
15:16:14:122,28.827,-0.015,-0.002,-0.005,-1.026,5.068,3.223
15:16:14:122,28.827,0.006,0.003,-0.003,-1.028,5.064,3.169
15:16:14:145,28.850,-0.005,-0.002,0.000,-1.020,5.074,3.138
15:16:14:2,28.905,-0.005,-0.003,0.000,-1.018,5.094,3.098
15:16:14:201,28.906,-0.010,0.000,-0.002,-1.020,5.095,3.059
15:16:14:223,28.928,-0.006,0.004,-0.010,-1.026,5.080,3.035
15:16:14:25,28.955,0.000,0.000,-0.008,-1.043,5.065,3.001
15:16:14:277,28.981,-0.010,-0.002,-0.008,-1.043,5.065,2.991
15:16:14:302,29.007,-0.012,0.001,0.003,-1.045,5.065,2.961
15:16:14:328,29.033,-0.006,0.001,-0.011,-1.045,5.041,2.937
15:16:14:354,29.059,-0.009,0.008,-0.002,-1.045,5.006,2.922
15:16:14:381,29.086,-0.018,-0.001,-0.014,-1.051,4.937,2.884
15:16:14:407,29.112,-0.029,0.007,-0.013,-1.056,4.888,2.855
15:16:14:433,29.138,-0.017,-0.004,-0.010,-1.083,4.863,2.802
15:16:14:46,29.165,-0.019,-0.005,-0.001,-1.097,4.863,2.734
15:16:14:486,29.191,0.006,-0.001,-0.012,-1.099,4.815,2.596
15:16:14:512,29.217,0.009,-0.011,-0.005,-1.100,4.792,2.482
15:16:14:539,29.244,0.012,-0.003,-0.014,-1.093,4.792,2.432
15:16:14:565,29.270,0.013,-0.003,-0.002,-1.096,4.827,2.397
15:16:14:59,29.295,0.006,0.001,-0.003,-1.102,4.882,2.392
15:16:14:617,29.322,0.001,0.001,0.003,-1.107,4.990,2.431
15:16:14:644,29.349,0.003,-0.002,-0.005,-1.110,5.083,2.494
15:16:14:669,29.374,-0.002,-0.001,-0.003,-1.113,5.142,2.553
15:16:14:696,29.401,-0.019,0.005,-0.001,-1.129,5.215,2.657
15:16:14:722,29.427,-0.022,-0.001,-0.003,-1.156,5.244,2.718
15:16:14:749,29.454,-0.019,-0.002,-0.007,-1.198,5.251,2.790
15:16:14:775,29.480,-0.017,0.005,-0.007,-1.226,5.250,2.821
15:16:14:801,29.506,-0.002,0.001,-0.012,-1.254,5.230,2.832
15:16:14:827,29.532,-0.013,0.003,0.001,-1.273,5.229,2.843
15:16:14:853,29.558,-0.007,0.003,-0.009,-1.272,5.190,2.844
15:16:14:88,29.585,-0.005,0.006,-0.014,-1.275,5.130,2.855
15:16:14:906,29.611,-0.013,0.000,-0.008,-1.285,5.120,2.855
15:16:14:933,29.638,-0.003,0.005,-0.010,-1.290,5.119,2.866
15:16:14:959,29.663,-0.007,-0.005,0.000,-1.275,5.120,2.865
15:16:14:984,29.689,-0.013,-0.006,-0.001,-1.265,5.125,2.869
15:16:15:011,29.716,-0.017,0.001,0.000,-1.258,5.071,2.874
15:16:15:037,29.742,-0.006,0.007,-0.014,-1.258,5.031,2.865
15:16:15:064,29.769,-0.004,0.002,-0.009,-1.259,5.022,2.835
15:16:15:09,29.795,-0.007,-0.002,-0.008,-1.250,5.022,2.815
15:16:15:116,29.821,-0.006,-0.006,-0.007,-1.232,5.013,2.774
15:16:15:142,29.847,0.002,0.005,-0.013,-1.245,4.994,2.726
15:16:15:168,29.873,0.003,0.004,-0.009,-1.237,4.984,2.686
15:16:15:195,29.900,-0.005,-0.004,-0.012,-1.209,4.985,2.645
15:16:15:221,29.926,-0.007,-0.006,0.000,-1.200,4.986,2.624
15:16:15:247,29.952,-0.004,0.007,-0.014,-1.202,4.966,2.585
15:16:15:273,29.978,0.006,0.005,-0.009,-1.204,4.937,2.536
15:16:15:3,30.005,0.003,-0.005,-0.011,-1.205,4.937,2.516
15:16:15:326,30.031,-0.015,-0.007,0.001,-1.187,4.943,2.500
15:16:15:352,30.057,-0.008,0.010,-0.013,-1.193,4.943,2.481
15:16:15:378,30.083,0.010,0.013,-0.011,-1.194,4.929,2.456
15:16:15:434,30.139,-0.003,-0.003,-0.009,-1.205,4.943,2.442
15:16:15:434,30.139,-0.004,-0.004,-0.010,-1.200,4.948,2.446
15:16:15:486,30.191,-0.010,-0.002,-0.003,-1.184,4.949,2.455
15:16:15:487,30.192,-0.002,0.003,-0.002,-1.185,4.954,2.450
15:16:15:51,30.215,0.000,-0.001,-0.012,-1.185,4.973,2.450
15:16:15:565,30.270,-0.001,0.000,-0.001,-1.176,5.013,2.449
15:16:15:566,30.271,-0.014,0.001,-0.002,-1.152,5.058,2.452
15:16:15:589,30.294,-0.004,0.000,-0.006,-1.162,5.073,2.458
15:16:15:615,30.320,0.007,0.000,-0.009,-1.162,5.093,2.457
15:16:15:641,30.346,-0.002,0.000,-0.010,-1.168,5.137,2.462
15:16:15:67,30.375,-0.014,-0.002,-0.006,-1.172,5.167,2.482
15:16:15:694,30.399,-0.011,0.003,-0.005,-1.172,5.221,2.516
15:16:15:719,30.424,-0.003,0.003,-0.003,-1.181,5.250,2.536
15:16:15:746,30.451,0.006,0.003,-0.009,-1.186,5.264,2.551
15:16:15:775,30.480,-0.007,-0.001,-0.001,-1.190,5.309,2.585
15:16:15:799,30.504,-0.011,0.001,-0.013,-1.189,5.333,2.610
15:16:15:825,30.529,-0.006,0.000,-0.006,-1.188,5.353,2.639
15:16:15:851,30.556,-0.004,0.003,-0.010,-1.192,5.377,2.664
15:16:15:877,30.582,-0.003,-0.002,0.000,-1.191,5.382,2.688
15:16:15:904,30.609,-0.010,-0.002,-0.005,-1.194,5.386,2.723
15:16:15:93,30.635,-0.014,0.001,0.001,-1.193,5.361,2.738
15:16:15:957,30.662,-0.014,0.006,-0.013,-1.192,5.317,2.744
15:16:15:982,30.687,-0.007,0.002,-0.003,-1.185,5.272,2.749
15:16:16:009,30.713,-0.014,-0.003,-0.008,-1.185,5.243,2.749
15:16:16:034,30.739,-0.013,-0.004,-0.004,-1.184,5.213,2.740
15:16:16:061,30.766,-0.006,0.001,-0.013,-1.186,5.208,2.715
15:16:16:089,30.794,0.008,0.000,-0.019,-1.183,5.208,2.675
15:16:16:114,30.819,0.001,0.001,-0.004,-1.179,5.239,2.665
15:16:16:139,30.844,0.001,0.001,0.014,-1.169,5.244,2.669
15:16:16:168,30.873,-0.010,-0.003,0.000,-1.158,5.214,2.669
15:16:16:194,30.899,-0.012,0.003,-0.009,-1.153,5.175,2.669
15:16:16:221,30.926,0.008,0.004,-0.011,-1.149,5.120,2.704
15:16:16:245,30.950,-0.009,-0.010,-0.011,-1.147,5.115,2.739
15:16:16:271,30.976,-0.008,-0.014,-0.019,-1.129,5.085,2.788
15:16:16:298,31.003,-0.017,0.009,-0.002,-1.102,5.060,2.821
15:16:16:328,31.033,-0.009,0.003,-0.002,-1.086,5.066,2.835
15:16:16:328,31.033,-0.007,0.003,0.004,-1.070,5.070,2.869
15:16:16:381,31.085,-0.013,-0.004,0.003,-1.069,5.065,2.884
15:16:16:381,31.085,-0.019,-0.002,0.004,-1.068,5.026,2.884
15:16:16:402,31.107,-0.016,0.002,0.007,-1.100,4.941,2.892
15:16:16:457,31.162,-0.004,0.001,0.005,-1.133,4.871,2.884
15:16:16:458,31.163,0.007,-0.001,-0.016,-1.196,4.780,2.879
15:16:16:51,31.215,-0.010,-0.004,-0.018,-1.240,4.744,2.877
15:16:16:511,31.216,-0.008,0.010,-0.004,-1.298,4.693,2.881
15:16:16:533,31.238,-0.001,0.001,-0.018,-1.322,4.677,2.888
15:16:16:56,31.265,0.005,0.000,-0.008,-1.372,4.706,2.891
15:16:16:586,31.291,-0.001,-0.002,-0.031,-1.399,4.789,2.896
15:16:16:612,31.317,-0.009,-0.007,-0.011,-1.419,4.868,2.926
15:16:16:638,31.343,-0.018,-0.004,-0.007,-1.419,4.966,2.974
15:16:16:666,31.371,-0.018,0.010,0.008,-1.419,5.005,2.983
15:16:16:692,31.396,-0.015,0.008,-0.007,-1.423,5.015,3.003
15:16:16:718,31.423,-0.017,-0.008,0.005,-1.428,5.015,3.013
15:16:16:744,31.449,-0.004,-0.006,-0.005,-1.427,4.985,3.014
15:16:16:769,31.474,-0.008,0.004,0.001,-1.426,4.911,2.990
15:16:16:797,31.502,-0.003,0.002,-0.010,-1.440,4.851,2.982
15:16:16:822,31.527,-0.007,0.000,-0.004,-1.463,4.791,2.984
15:16:16:848,31.553,-0.012,0.000,-0.008,-1.468,4.766,2.980
15:16:16:875,31.580,-0.011,0.003,-0.006,-1.473,4.732,2.965
15:16:16:901,31.606,0.003,-0.001,-0.021,-1.479,4.712,2.936
15:16:16:927,31.632,-0.001,-0.001,-0.014,-1.490,4.722,2.917
15:16:16:954,31.659,-0.009,0.001,-0.003,-1.501,4.766,2.922
15:16:16:98,31.685,-0.009,-0.002,0.003,-1.507,4.801,2.917
15:16:17:006,31.711,-0.015,0.004,-0.010,-1.504,4.826,2.892
15:16:17:033,31.738,-0.001,0.004,-0.017,-1.516,4.826,2.853
15:16:17:059,31.764,-0.004,-0.002,-0.009,-1.523,4.852,2.828
15:16:17:085,31.790,-0.003,-0.002,0.004,-1.526,4.896,2.803
15:16:17:111,31.816,-0.010,0.003,0.001,-1.527,4.906,2.793
15:16:17:137,31.842,0.000,0.005,-0.008,-1.527,4.911,2.788
15:16:17:164,31.869,0.001,-0.003,-0.014,-1.537,4.946,2.793
15:16:17:19,31.894,0.001,0.000,-0.004,-1.537,4.965,2.812
15:16:17:218,31.923,-0.007,0.006,-0.005,-1.520,5.010,2.865
15:16:17:242,31.947,-0.025,0.007,-0.007,-1.509,5.044,2.899
15:16:17:27,31.975,-0.012,0.001,0.002,-1.494,5.103,2.936
15:16:17:297,32.002,0.005,0.001,-0.005,-1.494,5.133,2.936
15:16:17:35,32.055,-0.006,-0.002,-0.009,-1.495,5.143,2.936
15:16:17:351,32.056,-0.011,-0.001,-0.015,-1.504,5.148,2.941
15:16:17:375,32.079,-0.021,-0.002,-0.006,-1.514,5.167,2.952
15:16:17:401,32.106,0.007,0.004,-0.013,-1.524,5.176,2.962
15:16:17:427,32.132,-0.004,0.000,0.002,-1.524,5.181,2.957
15:16:17:452,32.157,-0.004,-0.005,-0.011,-1.523,5.191,2.977
15:16:17:479,32.184,-0.026,-0.005,-0.003,-1.511,5.171,3.006
15:16:17:506,32.211,-0.017,0.008,-0.009,-1.520,5.161,3.026
15:16:17:557,32.262,-0.002,0.000,-0.005,-1.506,5.137,3.001
15:16:17:583,32.288,-0.007,-0.003,-0.003,-1.486,5.132,3.005
15:16:17:611,32.316,-0.006,0.001,-0.004,-1.481,5.138,3.000
15:16:17:637,32.342,-0.004,0.003,0.000,-1.487,5.132,2.985
15:16:17:664,32.369,0.002,-0.001,-0.010,-1.492,5.133,2.976
15:16:17:689,32.393,-0.005,0.000,-0.009,-1.492,5.133,2.976
15:16:17:715,32.420,-0.018,-0.002,0.002,-1.492,5.137,2.981
15:16:17:741,32.446,-0.002,0.003,-0.003,-1.492,5.128,2.971
15:16:17:767,32.472,0.010,0.004,-0.010,-1.494,5.099,2.932
15:16:17:822,32.527,0.005,0.000,-0.004,-1.500,5.098,2.912
15:16:17:823,32.528,-0.001,-0.001,-0.005,-1.500,5.098,2.912
15:16:17:846,32.551,-0.019,-0.004,0.004,-1.504,5.098,2.922
15:16:17:872,32.577,0.005,0.006,-0.005,-1.509,5.083,2.928
15:16:17:9,32.605,-0.001,0.000,-0.004,-1.509,5.083,2.928
15:16:17:926,32.631,-0.003,0.000,-0.007,-1.509,5.093,2.928
15:16:17:951,32.656,-0.015,-0.005,-0.002,-1.514,5.098,2.933
15:16:17:977,32.682,-0.003,0.001,-0.007,-1.518,5.088,2.933
15:16:18:003,32.708,0.003,0.006,-0.007,-1.519,5.073,2.919
15:16:18:03,32.735,0.000,-0.001,0.000,-1.529,5.078,2.914
15:16:18:057,32.762,-0.011,0.002,-0.008,-1.509,5.088,2.923
15:16:18:082,32.787,-0.014,-0.002,-0.002,-1.514,5.088,2.923
15:16:18:109,32.814,0.002,0.005,-0.010,-1.518,5.088,2.933
15:16:18:135,32.840,0.004,0.000,-0.001,-1.519,5.098,2.933
15:16:18:161,32.866,-0.007,0.000,-0.006,-1.524,5.118,2.933
15:16:18:187,32.892,-0.012,0.001,-0.005,-1.524,5.118,2.933
15:16:18:214,32.919,-0.004,0.004,-0.011,-1.523,5.117,2.943
15:16:18:24,32.945,0.002,0.001,0.001,-1.534,5.147,2.943
15:16:18:266,32.971,-0.004,-0.001,-0.008,-1.535,5.167,2.943
15:16:18:292,32.997,-0.010,0.001,-0.002,-1.535,5.181,2.948
15:16:18:348,33.053,-0.022,0.003,-0.004,-1.535,5.181,2.948
15:16:18:348,33.053,0.004,-0.003,-0.007,-1.544,5.181,2.958
15:16:18:371,33.076,0.000,-0.001,0.000,-1.544,5.196,2.963
15:16:18:398,33.103,-0.009,-0.004,0.002,-1.549,5.201,2.958
15:16:18:424,33.129,-0.018,0.003,-0.008,-1.554,5.200,2.968
15:16:18:451,33.156,0.000,0.004,0.002,-1.559,5.205,2.973
15:16:18:476,33.181,0.012,-0.001,-0.010,-1.564,5.205,2.964
15:16:18:502,33.207,-0.007,-0.005,-0.008,-1.549,5.206,2.963
15:16:18:528,33.233,-0.011,-0.004,-0.007,-1.535,5.206,2.962
15:16:18:555,33.259,-0.012,0.005,0.008,-1.530,5.187,2.952
15:16:18:581,33.286,0.007,0.005,-0.006,-1.524,5.162,2.947
15:16:18:609,33.314,-0.006,-0.001,-0.007,-1.524,5.162,2.947
15:16:18:635,33.340,-0.017,-0.002,-0.005,-1.524,5.162,2.947
15:16:18:663,33.368,-0.012,0.001,-0.002,-1.525,5.167,2.932
15:16:18:664,33.369,0.006,0.000,0.000,-1.525,5.142,2.918
15:16:18:715,33.420,-0.001,-0.001,-0.007,-1.525,5.142,2.918
15:16:18:716,33.421,-0.008,-0.004,-0.010,-1.525,5.142,2.918
15:16:18:768,33.473,-0.010,0.001,-0.004,-1.526,5.137,2.913
15:16:18:771,33.476,-0.002,0.000,0.000,-1.527,5.143,2.888
15:16:18:792,33.497,0.001,0.000,-0.015,-1.528,5.143,2.878
15:16:18:817,33.522,-0.003,0.000,-0.007,-1.528,5.143,2.878
15:16:18:844,33.549,-0.008,0.001,-0.006,-1.528,5.143,2.878
15:16:18:869,33.574,-0.011,0.000,-0.005,-1.528,5.143,2.878
15:16:18:898,33.603,-0.001,0.003,-0.011,-1.528,5.143,2.869
15:16:18:923,33.628,-0.001,-0.003,-0.001,-1.528,5.143,2.869
15:16:18:948,33.653,-0.006,0.004,-0.013,-1.528,5.143,2.869
15:16:18:975,33.680,-0.008,-0.001,-0.001,-1.529,5.138,2.854
15:16:19:001,33.706,0.003,0.000,-0.012,-1.525,5.144,2.839
15:16:19:029,33.734,0.004,-0.002,0.000,-1.525,5.139,2.834
15:16:19:055,33.759,-0.007,-0.001,-0.007,-1.525,5.149,2.834
15:16:19:08,33.785,-0.007,0.002,-0.005,-1.525,5.149,2.834
15:16:19:107,33.812,-0.004,0.000,-0.007,-1.525,5.149,2.834
15:16:19:132,33.837,-0.006,0.001,-0.006,-1.525,5.149,2.834
15:16:19:159,33.864,-0.007,-0.002,-0.008,-1.525,5.149,2.834
15:16:19:184,33.889,-0.007,0.000,0.001,-1.525,5.149,2.834
15:16:19:211,33.916,-0.005,0.002,-0.012,-1.526,5.149,2.824
15:16:19:237,33.942,0.004,0.000,-0.004,-1.526,5.149,2.824
15:16:19:263,33.968,-0.001,-0.003,-0.006,-1.526,5.149,2.824
15:16:19:29,33.995,-0.007,0.001,-0.006,-1.526,5.149,2.824
15:16:19:317,34.022,-0.011,0.000,-0.005,-1.526,5.149,2.824
15:16:19:342,34.047,-0.005,0.003,-0.004,-1.526,5.149,2.824
15:16:19:368,34.073,-0.003,0.000,-0.004,-1.526,5.149,2.824
15:16:19:395,34.100,-0.004,-0.002,-0.009,-1.526,5.164,2.819
15:16:19:421,34.126,-0.003,-0.004,-0.006,-1.526,5.164,2.819
15:16:19:448,34.153,-0.005,0.001,-0.008,-1.526,5.164,2.819
15:16:19:474,34.179,-0.002,0.000,-0.006,-1.526,5.164,2.819
15:16:19:499,34.204,-0.002,0.002,-0.013,-1.526,5.164,2.819
15:16:19:526,34.231,-0.009,0.002,-0.004,-1.526,5.164,2.819
15:16:19:553,34.258,-0.002,0.002,-0.018,-1.526,5.164,2.819
15:16:19:579,34.284,-0.002,-0.001,-0.012,-1.517,5.184,2.818
15:16:19:605,34.310,0.001,-0.004,-0.009,-1.493,5.249,2.820
15:16:19:631,34.336,-0.008,-0.002,-0.002,-1.474,5.289,2.839
15:16:19:657,34.362,0.001,0.004,-0.004,-1.449,5.348,2.856
15:16:19:685,34.390,-0.002,-0.001,-0.004,-1.430,5.388,2.875
15:16:19:711,34.416,-0.003,0.001,-0.020,-1.410,5.438,2.903
15:16:19:736,34.441,-0.014,0.004,-0.011,-1.385,5.478,2.920
15:16:19:762,34.467,-0.004,0.002,-0.016,-1.350,5.548,2.947
15:16:19:789,34.494,-0.004,0.004,0.006,-1.307,5.643,2.979
15:16:19:815,34.520,-0.007,-0.007,0.004,-1.287,5.688,3.002
15:16:19:841,34.546,-0.010,-0.005,0.002,-1.257,5.752,3.034
15:16:19:867,34.572,-0.004,0.000,-0.002,-1.256,5.752,3.054
15:16:19:895,34.600,-0.002,0.008,0.003,-1.254,5.727,3.089
15:16:19:92,34.625,-0.009,0.000,0.003,-1.280,5.681,3.125
15:16:19:946,34.651,-0.024,-0.004,0.009,-1.314,5.651,3.137
15:16:19:973,34.678,-0.020,-0.001,0.002,-1.376,5.589,3.151
15:16:19:998,34.703,-0.007,0.003,0.008,-1.450,5.533,3.121
15:16:20:025,34.730,0.023,0.012,-0.021,-1.564,5.436,3.074
15:16:20:051,34.756,-0.006,-0.002,-0.027,-1.648,5.399,3.064
15:16:20:083,34.788,-0.004,0.004,-0.019,-1.693,5.393,3.062
15:16:20:104,34.808,-0.005,0.001,-0.002,-1.745,5.352,3.085
15:16:20:13,34.835,-0.010,-0.001,-0.003,-1.778,5.296,3.103
15:16:20:161,34.866,-0.006,-0.002,-0.014,-1.823,5.151,3.113
15:16:20:182,34.887,-0.004,0.002,-0.015,-1.854,5.046,3.121
15:16:20:209,34.914,0.005,0.006,-0.017,-1.869,4.882,3.130
15:16:20:235,34.940,-0.004,-0.001,-0.016,-1.866,4.743,3.132
15:16:20:262,34.967,0.002,0.002,-0.025,-1.853,4.649,3.138
15:16:20:288,34.993,0.000,0.003,-0.011,-1.814,4.551,3.167
15:16:20:313,35.018,0.000,0.000,-0.016,-1.781,4.501,3.196
15:16:20:34,35.045,0.000,-0.003,-0.008,-1.717,4.453,3.242
15:16:20:366,35.071,-0.004,0.003,-0.012,-1.654,4.424,3.298
15:16:20:392,35.097,-0.002,0.002,-0.009,-1.607,4.430,3.340
15:16:20:419,35.124,0.000,0.003,-0.004,-1.539,4.461,3.405
15:16:20:445,35.150,-0.007,0.003,-0.004,-1.497,4.486,3.456
15:16:20:471,35.176,-0.014,0.000,-0.008,-1.425,4.532,3.516
15:16:20:497,35.202,-0.002,0.009,0.000,-1.380,4.597,3.557
15:16:20:524,35.229,-0.002,0.001,-0.009,-1.341,4.638,3.573
15:16:20:55,35.255,-0.016,-0.002,-0.004,-1.307,4.693,3.586
15:16:20:604,35.308,-0.024,0.002,0.002,-1.268,4.724,3.583
15:16:20:629,35.334,0.002,0.002,-0.020,-1.251,4.696,3.523
15:16:20:655,35.360,0.008,0.003,-0.016,-1.220,4.722,3.476
15:16:20:681,35.386,-0.005,-0.001,-0.010,-1.177,4.843,3.422
15:16:20:708,35.413,-0.010,0.000,-0.004,-1.137,4.939,3.384
15:16:20:734,35.439,-0.012,0.001,-0.003,-1.085,5.065,3.315
15:16:20:791,35.495,-0.036,0.003,0.007,-1.051,5.176,3.263
15:16:20:791,35.495,0.014,-0.001,-0.002,-1.035,5.281,3.157
15:16:20:812,35.517,0.041,-0.012,-0.005,-1.016,5.313,3.066
15:16:20:868,35.573,0.024,-0.004,0.000,-1.022,5.367,3.061
15:16:20:868,35.573,-0.005,-0.001,0.003,-1.024,5.347,3.111
15:16:20:893,35.598,0.004,0.009,-0.001,-1.045,5.316,3.172
15:16:20:92,35.625,0.008,0.005,0.005,-1.092,5.229,3.279
15:16:20:921,35.626,-0.028,-0.001,-0.011,-1.139,5.197,3.391
15:16:20:974,35.678,-0.020,-0.007,-0.021,-1.171,5.175,3.433
15:16:20:974,35.678,-0.025,0.000,-0.014,-1.229,5.173,3.456
15:16:21:025,35.730,-0.013,0.015,-0.007,-1.251,5.178,3.432
15:16:21:026,35.731,-0.001,0.008,0.001,-1.259,5.183,3.378
15:16:21:049,35.754,-0.022,0.009,-0.012,-1.260,5.179,3.344
15:16:21:075,35.780,-0.035,-0.001,-0.006,-1.272,5.135,3.290
15:16:21:101,35.806,-0.023,-0.001,-0.028,-1.300,5.065,3.194
15:16:21:157,35.861,0.026,-0.004,-0.026,-1.311,5.022,3.071
15:16:21:158,35.862,0.044,-0.003,-0.019,-1.289,5.034,2.931
15:16:21:181,35.886,0.040,-0.002,-0.005,-1.257,5.080,2.894
15:16:21:206,35.911,0.007,-0.006,-0.007,-1.207,5.116,2.915
15:16:21:232,35.937,-0.012,0.001,-0.008,-1.163,5.126,3.002
15:16:21:258,35.963,-0.009,0.007,-0.013,-1.150,5.116,3.061
15:16:21:285,35.989,-0.011,0.000,0.000,-1.126,5.101,3.134
15:16:21:311,36.016,-0.029,0.002,-0.001,-1.109,5.101,3.173
15:16:21:338,36.043,-0.016,0.004,-0.002,-1.091,5.066,3.197
15:16:21:364,36.069,-0.001,-0.003,-0.007,-1.083,5.032,3.152
15:16:21:39,36.095,-0.004,-0.002,-0.001,-1.080,5.028,3.107
15:16:21:416,36.121,0.009,-0.003,-0.009,-1.082,4.994,3.053
15:16:21:469,36.173,0.010,0.003,-0.021,-1.097,4.895,3.016
15:16:21:496,36.201,0.015,0.005,-0.020,-1.111,4.879,3.032
15:16:21:522,36.227,-0.003,0.001,-0.002,-1.087,4.874,3.095
15:16:21:547,36.252,-0.018,0.011,0.000,-1.054,4.909,3.167
15:16:21:602,36.307,-0.018,0.005,-0.004,-1.043,4.924,3.201
15:16:21:603,36.308,-0.013,-0.003,0.001,-1.023,4.969,3.224
15:16:21:627,36.332,0.017,-0.003,-0.009,-1.009,5.009,3.223
15:16:21:653,36.357,0.017,-0.001,-0.019,-0.981,5.074,3.225
15:16:21:678,36.383,0.004,0.005,0.002,-0.961,5.149,3.268
15:16:21:705,36.410,0.007,0.006,-0.005,-0.949,5.193,3.331
15:16:21:731,36.436,0.003,-0.004,-0.004,-0.917,5.203,3.458
15:16:21:759,36.464,-0.021,-0.006,-0.011,-0.896,5.178,3.562
15:16:21:784,36.489,-0.023,0.009,0.002,-0.897,5.131,3.706
15:16:21:81,36.515,-0.029,0.009,-0.006,-0.893,5.101,3.765
15:16:21:836,36.541,-0.016,-0.002,-0.005,-0.899,5.096,3.830
15:16:21:862,36.567,-0.001,-0.003,-0.013,-0.904,5.100,3.835
15:16:21:891,36.596,-0.005,-0.003,-0.007,-0.905,5.100,3.806
15:16:21:915,36.620,0.000,0.003,-0.015,-0.912,5.091,3.766
15:16:21:942,36.647,0.005,0.004,-0.006,-0.913,5.091,3.747
15:16:21:967,36.672,0.007,0.001,-0.019,-0.923,5.086,3.742
15:16:21:994,36.699,-0.006,-0.003,-0.011,-0.933,5.081,3.738
15:16:22:02,36.725,-0.021,0.003,-0.008,-0.938,5.085,3.743
15:16:22:046,36.751,-0.006,-0.002,0.000,-0.943,5.065,3.724
15:16:22:072,36.777,0.007,0.004,-0.010,-0.945,5.061,3.689
15:16:22:1,36.805,0.006,0.000,-0.006,-0.948,5.076,3.645
15:16:22:126,36.831,-0.011,0.002,-0.010,-0.955,5.096,3.615
15:16:22:152,36.857,-0.011,0.002,-0.006,-0.957,5.086,3.576
15:16:22:177,36.882,-0.001,0.005,-0.012,-0.969,5.057,3.527
15:16:22:205,36.910,0.008,0.001,-0.008,-0.970,5.047,3.498
15:16:22:23,36.935,0.003,0.000,-0.007,-0.972,5.032,3.463
15:16:22:285,36.990,-0.012,0.002,-0.008,-0.972,5.023,3.443
15:16:22:286,36.991,-0.014,0.002,-0.011,-0.984,5.023,3.414
15:16:22:308,37.013,-0.002,0.003,-0.002,-0.987,5.023,3.365
15:16:22:335,37.040,0.006,0.002,-0.011,-0.988,5.018,3.340
15:16:22:361,37.066,-0.006,-0.002,-0.007,-0.990,5.018,3.311
15:16:22:387,37.092,-0.001,-0.001,-0.013,-0.995,5.009,3.291
15:16:22:414,37.118,0.003,0.001,-0.011,-1.001,5.008,3.282
15:16:22:441,37.146,0.012,-0.003,-0.006,-1.011,5.003,3.277
15:16:22:467,37.172,0.002,-0.001,-0.001,-1.005,5.018,3.292
15:16:22:492,37.197,-0.005,0.003,-0.005,-1.009,5.023,3.317
15:16:22:518,37.223,-0.011,0.002,-0.019,-1.013,5.018,3.332
15:16:22:545,37.250,-0.002,0.000,-0.009,-1.023,5.042,3.347
15:16:22:571,37.276,-0.001,-0.001,-0.007,-1.029,5.061,3.347
15:16:22:599,37.303,-0.004,0.000,-0.004,-1.033,5.061,3.357
15:16:22:626,37.331,-0.007,0.001,-0.013,-1.033,5.061,3.357
15:16:22:651,37.356,-0.002,0.001,-0.004,-1.043,5.061,3.358
15:16:22:676,37.381,-0.007,-0.001,-0.010,-1.042,5.076,3.382
15:16:22:702,37.407,-0.012,0.000,-0.005,-1.046,5.075,3.393
15:16:22:73,37.435,-0.008,0.001,-0.015,-1.056,5.075,3.403
15:16:22:755,37.460,-0.001,0.002,-0.009,-1.061,5.075,3.403
15:16:22:781,37.486,0.000,0.001,-0.015,-1.061,5.095,3.403
15:16:22:836,37.541,-0.004,0.001,-0.003,-1.072,5.119,3.408
15:16:22:837,37.542,-0.012,0.004,-0.007,-1.072,5.119,3.408
15:16:22:861,37.566,-0.005,0.003,-0.005,-1.081,5.114,3.414
15:16:22:886,37.591,0.000,0.004,-0.006,-1.081,5.114,3.414
15:16:22:913,37.618,-0.004,-0.002,-0.002,-1.081,5.114,3.414
15:16:22:938,37.643,-0.009,0.001,-0.012,-1.081,5.114,3.414
15:16:22:965,37.670,-0.013,0.002,0.000,-1.081,5.114,3.414
15:16:22:993,37.697,-0.002,0.004,-0.007,-1.072,5.109,3.398
15:16:23:018,37.723,0.001,0.000,-0.007,-1.072,5.104,3.394
15:16:23:044,37.749,-0.004,0.003,-0.008,-1.072,5.104,3.394
15:16:23:07,37.775,-0.010,0.002,-0.006,-1.072,5.104,3.394
15:16:23:096,37.801,-0.009,-0.001,-0.007,-1.072,5.104,3.394
15:16:23:122,37.827,-0.003,0.005,-0.010,-1.073,5.100,3.379
15:16:23:149,37.854,0.002,0.001,-0.005,-1.073,5.100,3.369
15:16:23:18,37.885,-0.003,0.003,-0.001,-1.073,5.100,3.369
15:16:23:21,37.915,-0.007,0.001,-0.007,-1.073,5.090,3.369
15:16:23:231,37.936,-0.007,0.001,-0.007,-1.073,5.080,3.359
15:16:23:231,37.936,0.000,0.001,-0.010,-1.073,5.065,3.345
15:16:23:313,38.018,-0.003,-0.001,-0.010,-1.074,5.065,3.335
15:16:23:313,38.018,-0.001,0.002,-0.001,-1.074,5.070,3.340
15:16:23:314,38.019,-0.011,0.005,-0.015,-1.074,5.070,3.340
15:16:23:333,38.038,-0.004,0.000,-0.007,-1.074,5.070,3.340
15:16:23:359,38.064,0.003,0.000,-0.010,-1.075,5.085,3.335
15:16:23:385,38.090,0.001,0.002,-0.008,-1.075,5.085,3.335
15:16:23:411,38.116,-0.008,-0.002,-0.013,-1.074,5.090,3.349
15:16:23:439,38.144,-0.006,0.002,-0.007,-1.074,5.090,3.349
15:16:23:492,38.197,-0.007,0.002,-0.014,-1.074,5.090,3.349
15:16:23:493,38.198,0.005,-0.002,-0.003,-1.069,5.090,3.349
15:16:23:517,38.222,-0.007,-0.001,-0.011,-1.063,5.085,3.364
15:16:23:543,38.248,-0.011,0.001,-0.003,-1.062,5.075,3.374
15:16:23:569,38.274,-0.012,0.006,-0.013,-1.062,5.065,3.374
15:16:23:595,38.300,0.002,0.000,-0.007,-1.053,5.066,3.363
15:16:23:652,38.357,-0.003,-0.001,-0.007,-1.034,5.096,3.362
15:16:23:652,38.357,-0.002,-0.002,-0.006,-1.009,5.107,3.360
15:16:23:732,38.437,-0.016,0.003,-0.007,-0.989,5.112,3.364
15:16:23:733,38.437,-0.003,0.002,-0.007,-0.994,5.102,3.365
15:16:23:733,38.438,-0.003,0.003,-0.005,-0.994,5.092,3.365
15:16:23:752,38.457,-0.003,-0.001,-0.008,-0.994,5.092,3.365
15:16:23:779,38.484,-0.007,0.000,-0.007,-0.994,5.092,3.365
15:16:23:805,38.510,-0.008,0.001,-0.004,-0.984,5.093,3.364
15:16:23:831,38.536,-0.006,0.000,-0.006,-0.974,5.093,3.364
15:16:23:859,38.563,0.002,0.000,-0.001,-0.974,5.093,3.364
15:16:23:885,38.590,-0.007,-0.002,-0.004,-0.974,5.098,3.368
15:16:23:91,38.615,-0.009,0.003,-0.008,-0.974,5.098,3.368
15:16:23:936,38.641,-0.011,-0.003,-0.008,-0.974,5.103,3.363
15:16:23:962,38.667,-0.006,0.003,-0.003,-0.974,5.103,3.363
15:16:23:989,38.694,0.002,0.001,-0.001,-0.974,5.117,3.368
15:16:24:015,38.720,-0.006,-0.001,-0.014,-0.974,5.117,3.368
15:16:24:042,38.747,-0.013,0.001,-0.003,-0.974,5.117,3.368
15:16:24:067,38.772,-0.011,0.001,-0.011,-0.974,5.117,3.368
15:16:24:094,38.799,0.000,0.002,-0.004,-0.974,5.117,3.368
15:16:24:12,38.825,-0.004,0.000,-0.015,-0.975,5.122,3.363
15:16:24:148,38.853,-0.004,-0.001,-0.006,-0.975,5.122,3.363
15:16:24:173,38.878,-0.009,0.001,-0.013,-0.975,5.122,3.363
15:16:24:199,38.904,-0.006,0.002,-0.007,-0.975,5.122,3.363
15:16:24:225,38.930,-0.006,0.001,-0.020,-0.974,5.117,3.368
15:16:24:251,38.956,0.001,0.001,-0.002,-0.975,5.122,3.363
15:16:24:279,38.984,-0.008,0.000,-0.012,-0.960,5.133,3.362
15:16:24:305,39.010,-0.009,0.000,-0.004,-0.936,5.133,3.361
15:16:24:33,39.035,-0.001,0.002,-0.011,-0.931,5.134,3.361
15:16:24:356,39.061,0.000,0.000,-0.004,-0.930,5.139,3.366
15:16:24:383,39.088,-0.007,0.000,-0.007,-0.930,5.144,3.370
15:16:24:409,39.114,-0.012,-0.001,-0.005,-0.929,5.139,3.385
15:16:24:435,39.140,-0.011,0.001,-0.003,-0.929,5.139,3.385
15:16:24:463,39.168,-0.007,0.003,-0.008,-0.929,5.139,3.385
15:16:24:488,39.193,-0.001,0.005,-0.012,-0.929,5.139,3.385
15:16:24:514,39.219,-0.005,-0.001,-0.007,-0.915,5.149,3.385
15:16:24:54,39.245,-0.009,0.000,-0.005,-0.900,5.159,3.384
15:16:24:566,39.271,-0.011,0.003,0.000,-0.900,5.159,3.384
15:16:24:592,39.297,-0.008,0.001,-0.004,-0.900,5.149,3.384
15:16:24:62,39.325,0.000,0.004,-0.007,-0.900,5.149,3.384
15:16:24:647,39.352,-0.010,0.001,-0.009,-0.900,5.149,3.384
15:16:24:671,39.376,-0.010,0.000,0.001,-0.900,5.149,3.384
15:16:24:697,39.402,-0.009,0.001,-0.003,-0.900,5.149,3.384
15:16:24:724,39.429,-0.008,0.005,-0.010,-0.901,5.149,3.374
15:16:24:751,39.456,-0.008,0.002,-0.001,-0.900,5.154,3.379
15:16:24:776,39.481,-0.004,0.000,-0.010,-0.901,5.164,3.379
15:16:24:832,39.537,-0.010,-0.002,-0.010,-0.901,5.164,3.379
15:16:24:832,39.537,-0.007,-0.001,-0.008,-0.901,5.174,3.378
15:16:24:855,39.560,-0.009,0.003,-0.006,-0.901,5.174,3.378
15:16:24:882,39.587,-0.005,0.004,-0.009,-0.902,5.194,3.378
15:16:24:908,39.613,-0.010,0.001,-0.001,-0.907,5.204,3.378
15:16:24:963,39.668,-0.010,-0.001,-0.008,-0.907,5.204,3.378
15:16:24:964,39.669,-0.009,0.001,-0.005,-0.907,5.204,3.378
15:16:24:988,39.693,-0.015,0.001,-0.009,-0.907,5.204,3.369
15:16:25:013,39.718,0.005,-0.001,-0.009,-0.908,5.204,3.359
15:16:25:039,39.743,-0.011,-0.002,-0.006,-0.908,5.224,3.359
15:16:25:065,39.770,-0.009,0.001,0.000,-0.909,5.239,3.354
15:16:25:091,39.796,-0.010,0.001,-0.007,-0.909,5.219,3.344
15:16:25:119,39.824,0.004,0.004,-0.003,-0.904,5.199,3.344
15:16:25:144,39.849,-0.003,0.001,-0.008,-0.909,5.209,3.344
15:16:25:17,39.875,-0.003,-0.001,-0.005,-0.909,5.209,3.344
15:16:25:196,39.901,-0.007,0.000,-0.008,-0.909,5.229,3.344
15:16:25:223,39.927,-0.008,0.002,-0.002,-0.909,5.229,3.344
15:16:25:249,39.954,-0.008,0.002,-0.008,-0.909,5.219,3.344
15:16:25:275,39.980,0.000,0.000,-0.004,-0.909,5.209,3.344
15:16:25:301,40.006,-0.006,0.000,-0.008,-0.909,5.209,3.344
15:16:25:328,40.033,-0.007,0.000,-0.005,-0.909,5.209,3.344
15:16:25:354,40.059,-0.002,0.000,-0.009,-0.909,5.209,3.344
15:16:25:38,40.085,-0.003,0.003,-0.007,-0.910,5.224,3.339
15:16:25:406,40.111,-0.004,-0.001,-0.008,-0.900,5.239,3.343
15:16:25:434,40.139,-0.010,-0.002,-0.001,-0.900,5.254,3.338
15:16:25:46,40.165,-0.014,0.001,-0.006,-0.900,5.254,3.338
15:16:25:514,40.219,-0.002,0.004,-0.019,-0.900,5.254,3.338
15:16:25:515,40.220,-0.006,0.000,-0.009,-0.900,5.254,3.338
15:16:25:537,40.242,-0.008,0.001,-0.010,-0.900,5.259,3.343
15:16:25:566,40.271,-0.012,-0.002,-0.004,-0.906,5.279,3.343
15:16:25:567,40.272,-0.004,0.001,-0.014,-0.906,5.279,3.343
15:16:25:591,40.296,-0.007,0.006,-0.005,-0.906,5.279,3.343
15:16:25:617,40.322,-0.004,0.002,-0.012,-0.906,5.279,3.343
15:16:25:668,40.373,-0.014,-0.001,-0.003,-0.906,5.279,3.343
15:16:25:698,40.403,-0.009,0.000,-0.014,-0.901,5.278,3.343
15:16:25:698,40.403,-0.006,0.000,0.001,-0.902,5.269,3.313
15:16:25:75,40.455,-0.006,0.007,-0.017,-0.903,5.269,3.294
15:16:25:751,40.456,0.000,-0.002,-0.008,-0.905,5.284,3.279
15:16:25:803,40.508,-0.009,0.001,-0.008,-0.905,5.304,3.278
15:16:25:804,40.509,-0.006,0.000,-0.003,-0.905,5.314,3.278
15:16:25:826,40.531,-0.017,0.004,-0.003,-0.905,5.314,3.278
15:16:25:852,40.557,-0.013,0.001,-0.001,-0.906,5.314,3.268
15:16:25:879,40.584,-0.011,0.000,-0.009,-0.922,5.279,3.235
15:16:25:905,40.610,-0.014,0.001,-0.001,-0.936,5.234,3.211
15:16:25:932,40.637,-0.014,0.003,-0.017,-0.967,5.150,3.149
15:16:25:958,40.663,0.006,0.003,-0.013,-0.988,5.090,3.112
15:16:25:984,40.689,-0.001,-0.004,-0.014,-1.013,5.030,3.064
15:16:26:01,40.715,-0.002,-0.003,-0.008,-1.034,4.981,3.026
15:16:26:036,40.741,-0.002,0.002,-0.019,-1.044,4.951,3.007
15:16:26:064,40.769,-0.007,-0.001,-0.009,-1.039,4.911,2.988
15:16:26:118,40.823,-0.005,0.000,-0.008,-1.040,4.892,2.968
15:16:26:118,40.823,-0.012,0.001,-0.010,-1.041,4.872,2.938
15:16:26:141,40.846,-0.004,0.002,-0.014,-1.042,4.858,2.914
15:16:26:167,40.872,-0.007,0.002,-0.008,-1.035,4.858,2.874
15:16:26:195,40.900,-0.002,0.000,-0.008,-1.043,4.883,2.829
15:16:26:22,40.925,0.000,-0.001,-0.007,-1.044,4.898,2.805
15:16:26:276,40.980,-0.006,0.001,-0.015,-1.042,4.939,2.774
15:16:26:276,40.981,-0.012,0.006,-0.014,-1.044,4.973,2.759
15:16:26:299,41.004,-0.006,0.004,-0.009,-1.045,5.018,2.764
15:16:26:326,41.031,-0.005,-0.003,-0.021,-1.051,5.062,2.759
15:16:26:351,41.056,-0.016,0.001,-0.014,-1.052,5.087,2.754
15:16:26:377,41.082,-0.014,0.005,-0.025,-1.054,5.122,2.729
15:16:26:404,41.109,-0.008,0.000,-0.015,-1.050,5.137,2.713
15:16:26:43,41.135,-0.005,0.000,-0.021,-1.033,5.158,2.672
15:16:26:457,41.162,-0.001,0.000,-0.009,-1.019,5.168,2.652
15:16:26:484,41.189,-0.009,0.000,-0.014,-0.991,5.169,2.630
15:16:26:509,41.214,-0.006,-0.003,-0.010,-0.962,5.170,2.609
15:16:26:535,41.240,0.005,0.005,-0.013,-0.943,5.166,2.593
15:16:26:561,41.266,0.008,0.002,-0.009,-0.924,5.171,2.587
15:16:26:616,41.321,-0.007,-0.007,-0.010,-0.910,5.211,2.586
15:16:26:617,41.322,-0.013,0.001,0.001,-0.881,5.246,2.589
15:16:26:641,41.346,-0.007,0.007,-0.009,-0.852,5.282,2.592
15:16:26:666,41.371,-0.007,0.001,-0.002,-0.857,5.306,2.597
15:16:26:693,41.398,-0.008,0.000,-0.005,-0.857,5.326,2.597
15:16:26:719,41.424,-0.010,-0.002,-0.010,-0.867,5.341,2.602
15:16:26:745,41.450,-0.015,-0.001,-0.010,-0.877,5.365,2.608
15:16:26:772,41.477,-0.010,0.000,-0.003,-0.887,5.365,2.618
15:16:26:798,41.503,-0.007,-0.001,-0.007,-0.887,5.380,2.613
15:16:26:824,41.529,-0.009,0.000,-0.011,-0.898,5.394,2.599
15:16:26:85,41.555,-0.005,0.002,-0.010,-0.904,5.395,2.579
15:16:26:876,41.581,0.002,-0.002,-0.017,-0.915,5.390,2.555
15:16:26:904,41.609,0.002,-0.001,-0.010,-0.921,5.389,2.545
15:16:26:929,41.634,0.002,0.000,-0.010,-0.926,5.380,2.546
15:16:26:955,41.660,-0.011,-0.001,-0.007,-0.935,5.384,2.551
15:16:26:981,41.686,-0.013,0.004,-0.009,-0.940,5.379,2.556
15:16:27:008,41.713,-0.002,-0.002,-0.009,-0.954,5.374,2.562
15:16:27:034,41.739,-0.014,-0.004,-0.020,-0.959,5.378,2.567
15:16:27:061,41.766,-0.011,-0.002,-0.011,-0.978,5.378,2.578
15:16:27:087,41.791,-0.007,0.005,-0.013,-0.988,5.363,2.574
15:16:27:112,41.817,-0.001,0.000,-0.008,-0.998,5.343,2.565
15:16:27:139,41.844,-0.008,0.001,-0.015,-0.998,5.318,2.560
15:16:27:165,41.870,-0.007,-0.002,-0.010,-1.002,5.288,2.560
15:16:27:194,41.899,-0.015,0.004,-0.013,-1.027,5.263,2.557
15:16:27:247,41.952,-0.004,0.002,-0.012,-1.036,5.248,2.553
15:16:27:247,41.952,0.003,0.001,-0.017,-1.043,5.258,2.523
15:16:27:27,41.975,-0.002,-0.003,-0.012,-1.053,5.253,2.519
15:16:27:296,42.001,-0.012,0.000,-0.016,-1.063,5.253,2.520
15:16:27:323,42.028,-0.006,0.003,-0.006,-1.074,5.253,2.510
15:16:27:349,42.054,0.003,0.002,-0.016,-1.084,5.253,2.491
15:16:27:375,42.080,-0.006,-0.002,-0.003,-1.075,5.253,2.490
15:16:27:401,42.106,-0.009,0.000,-0.005,-1.065,5.243,2.490
15:16:27:428,42.133,0.000,0.007,-0.007,-1.059,5.223,2.490
15:16:27:455,42.160,0.001,0.002,-0.010,-1.059,5.203,2.490
15:16:27:48,42.185,0.000,-0.002,-0.014,-1.059,5.203,2.490
15:16:27:506,42.211,-0.010,-0.001,-0.006,-1.059,5.203,2.490
15:16:27:533,42.238,-0.007,0.000,-0.004,-1.059,5.223,2.490
15:16:27:559,42.264,-0.001,0.002,-0.014,-1.059,5.223,2.490
15:16:27:585,42.290,-0.002,0.002,-0.019,-1.059,5.218,2.495
15:16:27:638,42.343,-0.013,0.000,-0.004,-1.061,5.243,2.549
15:16:27:667,42.372,-0.015,0.003,-0.006,-1.061,5.247,2.564
15:16:27:69,42.395,-0.002,0.003,-0.010,-1.061,5.247,2.564
15:16:27:716,42.421,0.002,-0.004,-0.013,-1.060,5.223,2.559
15:16:27:744,42.449,-0.024,-0.005,-0.013,-1.060,5.223,2.559
15:16:27:769,42.474,-0.011,0.000,-0.010,-1.059,5.203,2.569
15:16:27:795,42.500,-0.007,0.002,-0.020,-1.054,5.183,2.569
15:16:27:821,42.526,-0.002,-0.001,-0.007,-1.054,5.183,2.569
15:16:27:85,42.555,-0.008,0.001,-0.011,-1.054,5.173,2.569
15:16:27:851,42.556,-0.015,0.000,-0.009,-1.053,5.168,2.574
15:16:27:874,42.579,-0.010,0.006,-0.018,-1.054,5.139,2.555
15:16:27:928,42.633,0.003,-0.002,-0.014,-1.054,5.139,2.555
15:16:27:955,42.660,-0.005,0.000,-0.019,-1.054,5.144,2.560
15:16:27:956,42.661,-0.011,-0.001,-0.005,-1.054,5.144,2.560
15:16:28:008,42.713,-0.017,0.001,-0.012,-1.054,5.144,2.560
15:16:28:009,42.714,-0.007,0.003,-0.006,-1.054,5.144,2.560
15:16:28:032,42.736,0.005,0.002,-0.017,-1.054,5.144,2.560
15:16:28:059,42.764,-0.004,-0.002,-0.008,-1.054,5.144,2.560
15:16:28:084,42.789,-0.006,-0.001,-0.013,-1.054,5.144,2.560
15:16:28:139,42.844,-0.012,0.001,-0.006,-1.054,5.139,2.555
15:16:28:14,42.845,0.001,0.002,-0.012,-1.068,5.099,2.556
15:16:28:162,42.867,-0.007,-0.003,-0.010,-1.068,5.089,2.556
15:16:28:19,42.895,-0.012,-0.001,-0.029,-1.077,5.079,2.557
15:16:28:216,42.920,-0.007,0.005,-0.017,-1.106,5.078,2.578
15:16:28:241,42.946,0.000,0.002,-0.014,-1.126,5.077,2.569
15:16:28:269,42.974,-0.004,-0.003,-0.008,-1.131,5.082,2.575
15:16:28:294,42.999,-0.006,0.000,-0.015,-1.136,5.092,2.575
15:16:28:349,43.054,-0.008,0.001,-0.015,-1.155,5.091,2.586
15:16:28:35,43.055,-0.007,-0.001,-0.013,-1.165,5.091,2.586
15:16:28:373,43.078,0.004,0.003,-0.012,-1.174,5.091,2.597
15:16:28:399,43.103,-0.010,0.002,-0.010,-1.185,5.101,2.597
15:16:28:425,43.130,-0.008,0.000,-0.005,-1.194,5.105,2.613
15:16:28:451,43.156,-0.011,0.002,-0.011,-1.203,5.105,2.623
15:16:28:478,43.183,-0.008,0.006,-0.019,-1.213,5.100,2.629
15:16:28:504,43.209,-0.003,-0.002,-0.014,-1.213,5.114,2.633
15:16:28:53,43.235,0.003,0.002,-0.020,-1.193,5.139,2.637
15:16:28:556,43.261,-0.011,0.001,-0.011,-1.163,5.189,2.664
15:16:28:583,43.288,-0.018,-0.004,-0.017,-1.129,5.259,2.691
15:16:28:638,43.343,-0.017,0.000,-0.011,-1.114,5.294,2.705
15:16:28:639,43.344,-0.005,0.010,-0.004,-1.074,5.340,2.717
15:16:28:661,43.366,-0.009,-0.010,0.001,-1.055,5.375,2.731
15:16:28:688,43.393,-0.010,-0.002,-0.008,-1.044,5.384,2.760
15:16:28:714,43.419,-0.008,0.002,-0.004,-1.043,5.360,2.765
15:16:28:742,43.447,0.010,0.005,-0.018,-1.051,5.325,2.781
15:16:28:767,43.472,0.013,-0.006,-0.006,-1.063,5.334,2.831
15:16:28:792,43.497,-0.005,-0.006,-0.014,-1.066,5.348,2.885
15:16:28:819,43.524,-0.006,-0.002,-0.007,-1.075,5.347,2.995
15:16:28:874,43.579,-0.006,-0.007,-0.013,-1.076,5.351,3.069
15:16:28:875,43.580,-0.001,0.012,-0.015,-1.090,5.354,3.184
15:16:28:898,43.603,0.005,0.008,-0.008,-1.088,5.362,3.322
15:16:28:953,43.658,-0.030,-0.001,0.000,-1.073,5.411,3.440
15:16:28:954,43.659,-0.046,-0.005,-0.006,-1.043,5.440,3.567
15:16:28:976,43.681,-0.046,0.002,-0.009,-1.030,5.401,3.596
15:16:29:003,43.708,-0.019,0.012,-0.016,-1.050,5.281,3.618
15:16:29:029,43.734,0.009,0.003,-0.009,-1.055,5.168,3.555
15:16:29:056,43.761,-0.003,-0.001,-0.007,-1.037,5.139,3.505
15:16:29:082,43.787,-0.013,0.001,-0.012,-1.011,5.106,3.420
15:16:29:108,43.813,-0.005,0.003,-0.004,-1.004,5.107,3.370
15:16:29:134,43.839,0.015,-0.001,-0.003,-0.989,5.108,3.280
15:16:29:16,43.865,0.005,0.000,-0.003,-0.982,5.124,3.235
15:16:29:187,43.892,-0.006,-0.002,-0.006,-0.984,5.159,3.210
15:16:29:213,43.917,-0.013,0.001,-0.001,-0.990,5.193,3.205
15:16:29:239,43.944,-0.009,0.000,-0.001,-0.991,5.213,3.195
15:16:29:265,43.970,-0.012,0.000,-0.004,-1.023,5.213,3.157
15:16:29:291,43.996,-0.001,0.005,-0.009,-1.055,5.232,3.129
15:16:29:319,44.024,-0.003,0.008,-0.014,-1.117,5.270,3.092
15:16:29:344,44.049,-0.013,-0.001,-0.022,-1.174,5.308,3.075
15:16:29:37,44.075,-0.016,-0.006,0.002,-1.205,5.332,3.071
15:16:29:397,44.101,-0.009,-0.001,-0.013,-1.245,5.297,3.039
15:16:29:452,44.157,-0.007,0.002,-0.013,-1.279,5.227,3.012
15:16:29:453,44.158,-0.003,0.006,-0.038,-1.327,5.077,2.977
15:16:29:476,44.181,-0.005,-0.003,-0.020,-1.321,4.998,2.958
15:16:29:502,44.207,-0.004,-0.001,-0.013,-1.316,4.940,2.939
15:16:29:528,44.232,0.009,0.004,-0.001,-1.281,4.896,2.912
15:16:29:554,44.259,-0.001,-0.001,-0.017,-1.261,4.877,2.911
15:16:29:58,44.285,-0.001,0.000,-0.018,-1.235,4.828,2.921
15:16:29:606,44.311,-0.003,0.000,-0.004,-1.192,4.814,2.963
15:16:29:634,44.339,-0.005,0.000,0.000,-1.161,4.839,2.995
15:16:29:659,44.364,-0.005,-0.002,-0.008,-1.119,4.859,3.042
15:16:29:685,44.390,-0.003,-0.002,-0.012,-1.098,4.879,3.080
15:16:29:712,44.416,-0.009,0.002,-0.007,-1.061,4.939,3.137
15:16:29:739,44.444,-0.012,0.004,0.000,-1.041,4.974,3.170
15:16:29:764,44.469,-0.009,0.001,-0.003,-1.020,5.019,3.203
15:16:29:79,44.495,-0.010,0.002,-0.007,-1.020,5.058,3.223
15:16:29:816,44.521,-0.005,0.001,-0.016,-1.025,5.058,3.223
15:16:29:843,44.548,-0.007,-0.001,-0.008,-1.030,5.058,3.223
15:16:29:869,44.574,-0.014,0.005,-0.002,-1.040,5.057,3.234
15:16:29:896,44.600,-0.002,0.007,-0.011,-1.045,5.082,3.229
15:16:29:921,44.626,0.000,-0.001,-0.010,-1.037,5.132,3.228
15:16:29:948,44.653,-0.003,0.002,-0.007,-1.023,5.162,3.227
15:16:29:974,44.679,-0.015,-0.006,-0.004,-1.014,5.217,3.231
15:16:30:056,44.761,-0.003,0.000,-0.016,-1.010,5.237,3.220
15:16:30:057,44.762,-0.001,0.001,-0.012,-1.003,5.272,3.195
15:16:30:086,44.791,-0.003,0.000,-0.007,-0.994,5.302,3.184
15:16:30:086,44.791,-0.002,0.003,0.000,-0.991,5.342,3.184
15:16:30:086,44.791,-0.009,0.003,-0.011,-0.972,5.377,3.167
15:16:30:135,44.840,-0.004,0.001,-0.007,-0.979,5.392,3.153
15:16:30:135,44.840,0.000,0.000,-0.010,-0.980,5.417,3.147
15:16:30:184,44.889,-0.004,-0.002,-0.007,-0.989,5.417,3.148
15:16:30:213,44.918,-0.009,0.001,-0.011,-0.989,5.417,3.148
15:16:30:213,44.918,-0.014,0.005,-0.004,-1.000,5.416,3.139
15:16:30:266,44.970,0.000,0.001,-0.011,-1.000,5.407,3.129
15:16:30:266,44.971,-0.009,0.000,-0.005,-1.001,5.402,3.104
15:16:30:289,44.994,-0.007,0.001,-0.011,-1.001,5.382,3.094
15:16:30:315,45.020,-0.004,-0.002,-0.011,-1.012,5.357,3.070
15:16:30:341,45.046,0.007,0.002,-0.010,-1.013,5.363,3.046
15:16:30:397,45.102,0.007,-0.003,-0.004,-1.024,5.362,3.036
15:16:30:397,45.102,-0.003,-0.007,-0.009,-1.019,5.362,3.036
15:16:30:421,45.126,-0.010,0.001,-0.006,-1.013,5.343,3.036
15:16:30:447,45.152,-0.011,0.001,-0.009,-1.017,5.333,3.046
15:16:30:472,45.177,0.010,0.003,-0.009,-1.022,5.338,3.051
15:16:30:499,45.204,0.000,0.002,-0.006,-1.017,5.342,3.056
15:16:30:526,45.231,-0.006,-0.003,-0.002,-1.001,5.348,3.090
15:16:30:552,45.257,-0.017,0.001,-0.004,-0.995,5.347,3.109
15:16:30:578,45.282,-0.011,0.003,-0.009,-0.993,5.308,3.110
15:16:30:604,45.309,0.000,0.004,-0.007,-0.987,5.268,3.110
15:16:30:63,45.335,-0.002,0.000,-0.001,-0.986,5.229,3.110
15:16:30:657,45.362,-0.008,0.003,-0.003,-0.985,5.194,3.115
15:16:30:683,45.388,-0.013,0.001,0.001,-0.984,5.165,3.116
15:16:30:709,45.414,0.001,0.002,-0.011,-0.980,5.120,3.091
15:16:30:735,45.440,0.006,0.000,-0.016,-0.974,5.095,3.096
15:16:30:762,45.466,0.001,0.000,-0.009,-0.958,5.071,3.090
15:16:30:789,45.494,-0.008,0.000,-0.013,-0.933,5.072,3.099
15:16:30:815,45.520,-0.011,0.004,-0.013,-0.894,5.088,3.102
15:16:30:84,45.545,-0.001,0.000,-0.014,-0.840,5.119,3.098
15:16:30:866,45.571,0.004,-0.004,-0.006,-0.796,5.160,3.105
15:16:30:892,45.597,0.002,0.010,-0.004,-0.727,5.250,3.140
15:16:30:919,45.624,-0.011,0.002,-0.001,-0.682,5.306,3.172
15:16:30:946,45.651,-0.020,-0.005,-0.015,-0.623,5.372,3.213
15:16:30:971,45.676,0.005,0.002,-0.003,-0.568,5.413,3.240
15:16:30:998,45.703,0.006,0.001,-0.005,-0.537,5.443,3.268
15:16:31:025,45.730,0.000,0.008,0.012,-0.501,5.504,3.325
15:16:31:051,45.756,-0.022,0.006,-0.003,-0.495,5.538,3.379
15:16:31:077,45.781,-0.017,0.001,-0.001,-0.497,5.577,3.448
15:16:31:103,45.808,-0.013,-0.001,-0.006,-0.501,5.587,3.478
15:16:31:129,45.834,-0.001,-0.008,-0.007,-0.516,5.626,3.508
15:16:31:155,45.860,-0.002,0.000,-0.008,-0.555,5.659,3.535
15:16:31:182,45.887,-0.006,0.019,-0.001,-0.578,5.668,3.566
15:16:31:208,45.913,-0.019,0.017,-0.004,-0.626,5.671,3.613
15:16:31:234,45.939,-0.042,-0.010,0.003,-0.663,5.670,3.654
15:16:31:262,45.966,-0.009,-0.005,-0.017,-0.698,5.595,3.602
15:16:31:289,45.994,-0.009,-0.001,-0.011,-0.750,5.490,3.501
15:16:31:315,46.020,0.004,0.007,-0.013,-0.777,5.435,3.429
15:16:31:34,46.045,0.023,-0.007,-0.001,-0.819,5.365,3.343
15:16:31:367,46.072,0.007,0.000,-0.007,-0.839,5.320,3.319
15:16:31:393,46.098,-0.003,0.005,-0.014,-0.877,5.255,3.317
15:16:31:418,46.123,-0.012,0.005,-0.007,-0.901,5.229,3.314
15:16:31:444,46.149,-0.008,0.004,-0.005,-0.940,5.228,3.326
15:16:31:47,46.175,-0.013,-0.001,-0.009,-0.979,5.212,3.333
15:16:31:497,46.202,-0.017,-0.007,-0.013,-1.003,5.191,3.344
15:16:31:523,46.228,-0.019,-0.001,-0.008,-1.033,5.171,3.326
15:16:31:549,46.254,-0.013,0.007,-0.006,-1.045,5.190,3.297
15:16:31:575,46.280,0.007,0.004,-0.002,-1.054,5.211,3.238
15:16:31:601,46.306,0.009,0.000,-0.016,-1.052,5.216,3.183
15:16:31:628,46.333,0.006,-0.001,-0.016,-1.062,5.211,3.169
15:16:31:654,46.359,-0.006,0.000,-0.010,-1.072,5.216,3.164
15:16:31:682,46.387,-0.013,0.001,0.001,-1.077,5.235,3.175
15:16:31:706,46.411,-0.011,0.001,-0.005,-1.077,5.240,3.189
15:16:31:733,46.438,-0.005,0.002,-0.005,-1.106,5.239,3.201
15:16:31:759,46.464,-0.003,0.002,-0.024,-1.136,5.238,3.193
15:16:31:785,46.490,-0.005,-0.001,-0.008,-1.152,5.263,3.188
15:16:31:84,46.545,-0.004,-0.003,-0.007,-1.153,5.293,3.188
15:16:31:841,46.546,-0.004,0.000,0.001,-1.153,5.293,3.188
15:16:31:864,46.569,-0.004,0.007,-0.014,-1.172,5.267,3.194
15:16:31:89,46.595,0.007,0.002,-0.017,-1.174,5.247,3.224
15:16:31:917,46.622,-0.012,0.001,-0.014,-1.196,5.266,3.285
15:16:31:943,46.647,-0.015,-0.002,0.001,-1.200,5.285,3.324
15:16:31:969,46.674,-0.016,0.001,0.001,-1.208,5.314,3.374
15:16:31:995,46.700,-0.021,0.006,-0.012,-1.207,5.304,3.384
15:16:32:021,46.726,0.005,0.005,-0.012,-1.225,5.264,3.395
15:16:32:048,46.753,-0.006,-0.002,-0.012,-1.230,5.268,3.400
15:16:32:075,46.780,-0.011,0.001,-0.006,-1.240,5.273,3.396
15:16:32:13,46.834,-0.009,-0.003,-0.002,-1.247,5.278,3.371
15:16:32:13,46.835,0.004,0.005,-0.009,-1.247,5.273,3.357
15:16:32:153,46.858,0.008,0.000,-0.014,-1.253,5.273,3.347
15:16:32:179,46.884,-0.001,-0.001,-0.011,-1.258,5.273,3.347
15:16:32:205,46.910,-0.016,0.001,-0.002,-1.248,5.298,3.352
15:16:32:26,46.965,-0.014,0.005,-0.003,-1.259,5.298,3.342
15:16:32:261,46.966,-0.004,0.002,-0.001,-1.259,5.298,3.332
15:16:32:284,46.989,-0.002,-0.004,-0.007,-1.266,5.298,3.303
15:16:32:31,47.015,-0.012,-0.001,-0.013,-1.266,5.298,3.293
15:16:32:339,47.044,-0.013,0.001,-0.008,-1.278,5.298,3.264
15:16:32:34,47.045,0.006,0.004,-0.017,-1.285,5.288,3.225
15:16:32:363,47.068,0.006,-0.001,-0.006,-1.291,5.284,3.200
15:16:32:39,47.095,-0.003,-0.001,-0.010,-1.292,5.289,3.185
15:16:32:416,47.121,-0.010,0.000,-0.003,-1.292,5.294,3.190
15:16:32:442,47.146,-0.007,0.002,-0.015,-1.297,5.288,3.186
15:16:32:468,47.173,0.005,0.001,-0.001,-1.302,5.294,3.181
15:16:32:524,47.229,-0.001,0.000,-0.009,-1.303,5.323,3.181
15:16:32:524,47.229,-0.005,-0.002,-0.006,-1.293,5.333,3.180
15:16:32:547,47.252,-0.013,-0.002,-0.013,-1.293,5.343,3.180
15:16:32:602,47.307,-0.001,0.000,-0.003,-1.288,5.344,3.189
15:16:32:603,47.308,0.004,-0.001,-0.008,-1.288,5.344,3.189
15:16:32:625,47.330,-0.002,-0.002,-0.003,-1.282,5.348,3.204
15:16:32:652,47.357,-0.014,0.000,0.000,-1.271,5.343,3.228
15:16:32:678,47.383,-0.013,0.003,-0.004,-1.271,5.348,3.233
15:16:32:704,47.409,-0.001,0.002,-0.012,-1.280,5.343,3.239
15:16:32:731,47.436,-0.005,0.000,-0.001,-1.280,5.343,3.239
15:16:32:756,47.461,-0.008,0.001,-0.002,-1.270,5.353,3.258
15:16:32:783,47.488,-0.012,0.000,0.001,-1.259,5.353,3.267
15:16:32:809,47.514,-0.004,0.007,-0.010,-1.269,5.348,3.273
15:16:32:836,47.541,-0.003,-0.001,-0.010,-1.259,5.353,3.277
15:16:32:861,47.566,-0.004,0.001,-0.010,-1.259,5.358,3.282
15:16:32:889,47.594,-0.008,-0.001,0.001,-1.238,5.368,3.301
15:16:32:914,47.619,-0.009,0.001,0.001,-1.228,5.373,3.305
15:16:32:94,47.645,-0.011,0.004,-0.002,-1.203,5.374,3.303
15:16:32:966,47.671,-0.002,0.002,-0.002,-1.189,5.374,3.303
15:16:33:022,47.727,0.000,-0.003,0.000,-1.189,5.374,3.303
15:16:33:022,47.727,-0.009,-0.004,-0.001,-1.189,5.374,3.303
15:16:33:046,47.751,-0.005,0.001,-0.008,-1.188,5.370,3.308
15:16:33:072,47.777,-0.007,0.003,-0.004,-1.188,5.365,3.303
15:16:33:098,47.803,-0.001,0.000,-0.012,-1.188,5.365,3.303
15:16:33:125,47.829,-0.006,0.000,-0.001,-1.189,5.374,3.303
15:16:33:15,47.855,-0.008,0.001,-0.008,-1.189,5.384,3.303
15:16:33:177,47.882,-0.004,0.000,-0.002,-1.189,5.384,3.303
15:16:33:202,47.907,-0.003,0.002,-0.013,-1.189,5.384,3.303
15:16:33:23,47.935,0.000,0.002,-0.005,-1.189,5.399,3.308
15:16:33:255,47.960,-0.003,-0.004,-0.011,-1.195,5.424,3.302
15:16:33:282,47.987,-0.013,0.000,-0.001,-1.196,5.444,3.302
15:16:33:309,48.013,-0.008,0.001,-0.010,-1.196,5.444,3.302
15:16:33:334,48.039,-0.005,0.000,-0.002,-1.196,5.444,3.302
15:16:33:36,48.065,0.007,-0.003,-0.007,-1.196,5.444,3.302
15:16:33:386,48.091,-0.007,-0.004,-0.004,-1.197,5.473,3.302
15:16:33:413,48.118,-0.002,-0.001,-0.004,-1.196,5.483,3.322
15:16:33:439,48.144,-0.017,0.001,-0.001,-1.196,5.483,3.322
15:16:33:466,48.171,-0.004,0.003,-0.008,-1.195,5.473,3.322
15:16:33:492,48.197,-0.009,0.003,-0.004,-1.195,5.463,3.322
15:16:33:518,48.223,-0.009,0.000,-0.008,-1.195,5.453,3.322
15:16:33:544,48.249,-0.010,0.001,-0.004,-1.195,5.453,3.322
15:16:33:57,48.275,-0.009,0.002,-0.007,-1.195,5.444,3.322
15:16:33:597,48.302,0.000,0.003,-0.001,-1.195,5.444,3.322
15:16:33:623,48.328,-0.001,-0.001,-0.010,-1.195,5.444,3.322
15:16:33:649,48.354,-0.007,-0.001,-0.007,-1.185,5.444,3.322
15:16:33:675,48.380,-0.005,0.000,-0.006,-1.185,5.444,3.322
15:16:33:701,48.406,-0.012,0.003,-0.001,-1.175,5.444,3.321
15:16:33:728,48.433,-0.002,0.002,-0.001,-1.175,5.444,3.321
15:16:33:754,48.459,-0.006,-0.002,0.000,-1.175,5.454,3.321
15:16:33:783,48.488,-0.011,-0.002,-0.001,-1.175,5.454,3.321
15:16:33:807,48.511,-0.011,0.002,-0.006,-1.175,5.444,3.321
15:16:33:834,48.539,-0.001,0.004,-0.011,-1.174,5.429,3.326
15:16:33:859,48.564,-0.004,-0.001,-0.012,-1.174,5.429,3.326
15:16:33:885,48.590,-0.010,0.003,0.000,-1.174,5.429,3.326
15:16:33:912,48.617,-0.013,0.002,-0.008,-1.174,5.429,3.326
15:16:33:938,48.643,-0.011,0.005,-0.003,-1.175,5.434,3.321
15:16:33:964,48.669,-0.006,0.001,-0.009,-1.175,5.434,3.321
15:16:33:991,48.695,-0.009,0.001,-0.001,-1.175,5.444,3.321
15:16:34:017,48.722,-0.012,0.000,-0.007,-1.175,5.444,3.321
15:16:34:043,48.748,-0.007,0.002,0.000,-1.175,5.444,3.321
15:16:34:069,48.774,-0.006,0.002,-0.013,-1.175,5.434,3.321
15:16:34:096,48.801,0.000,0.000,-0.004,-1.175,5.434,3.321
15:16:34:121,48.826,-0.005,0.000,-0.009,-1.175,5.434,3.321
15:16:34:148,48.853,-0.009,0.002,0.001,-1.175,5.434,3.321
15:16:34:176,48.880,-0.008,0.002,-0.008,-1.174,5.424,3.321
15:16:34:229,48.934,-0.001,0.001,-0.005,-1.174,5.424,3.321
15:16:34:23,48.935,-0.008,0.002,-0.008,-1.174,5.429,3.326
15:16:34:253,48.958,-0.007,0.000,0.000,-1.170,5.444,3.321
15:16:34:279,48.984,-0.011,0.001,-0.008,-1.165,5.444,3.320
15:16:34:305,49.010,-0.002,0.001,-0.009,-1.165,5.444,3.320
15:16:34:331,49.036,-0.004,0.002,-0.007,-1.165,5.444,3.320
15:16:34:358,49.063,-0.007,0.000,-0.006,-1.164,5.444,3.330
15:16:34:415,49.120,-0.008,-0.001,-0.005,-1.164,5.444,3.330
15:16:34:415,49.120,-0.012,0.004,-0.003,-1.164,5.444,3.330
15:16:34:436,49.141,-0.002,0.000,-0.002,-1.164,5.444,3.330
15:16:34:463,49.168,-0.005,0.000,0.000,-1.164,5.444,3.330
15:16:34:489,49.194,-0.009,-0.001,-0.003,-1.164,5.444,3.330
15:16:34:516,49.221,-0.013,0.001,-0.007,-1.164,5.444,3.330
15:16:34:542,49.247,-0.006,0.001,-0.004,-1.164,5.444,3.330
15:16:34:571,49.276,-0.001,0.002,-0.009,-1.164,5.444,3.330
15:16:34:572,49.277,-0.005,-0.001,-0.004,-1.165,5.459,3.325
15:16:34:594,49.299,-0.003,-0.007,-0.009,-1.165,5.459,3.325
15:16:34:62,49.325,-0.019,0.004,-0.002,-1.165,5.459,3.325
15:16:34:648,49.353,-0.005,0.004,-0.007,-1.164,5.444,3.330
15:16:34:674,49.378,-0.005,0.001,-0.010,-1.164,5.444,3.330
15:16:34:699,49.404,-0.011,-0.004,-0.010,-1.164,5.444,3.330
15:16:34:725,49.430,-0.011,0.001,-0.002,-1.164,5.444,3.330
15:16:34:781,49.486,-0.005,0.001,-0.015,-1.164,5.444,3.330
15:16:34:782,49.487,-0.003,0.000,-0.005,-1.165,5.459,3.325
15:16:34:833,49.538,0.000,0.003,-0.011,-1.165,5.469,3.325
15:16:34:834,49.539,-0.009,0.000,0.001,-1.159,5.489,3.354
15:16:34:857,49.561,-0.011,0.000,-0.004,-1.164,5.493,3.369
15:16:34:883,49.588,-0.016,0.001,0.000,-1.164,5.498,3.374
15:16:34:909,49.614,-0.008,0.005,-0.007,-1.164,5.498,3.374
15:16:34:935,49.640,-0.012,0.002,-0.005,-1.163,5.488,3.374
15:16:34:962,49.667,-0.016,0.001,-0.009,-1.163,5.488,3.374
15:16:34:988,49.693,-0.014,0.001,-0.004,-1.164,5.484,3.370
15:16:35:014,49.719,-0.015,0.001,-0.006,-1.154,5.454,3.340
15:16:35:042,49.747,-0.001,-0.002,-0.010,-1.155,5.440,3.325
15:16:35:067,49.772,0.010,0.000,-0.005,-1.154,5.410,3.315
15:16:35:093,49.798,-0.019,0.003,0.008,-1.154,5.415,3.320
15:16:35:119,49.824,-0.016,-0.001,0.001,-1.153,5.371,3.326
15:16:35:145,49.850,-0.025,0.004,0.002,-1.166,5.316,3.332
15:16:35:172,49.876,-0.004,-0.002,-0.009,-1.190,5.270,3.319
15:16:35:198,49.903,-0.007,0.005,-0.005,-1.210,5.230,3.291
15:16:35:225,49.930,-0.008,-0.002,-0.007,-1.225,5.195,3.277
15:16:35:251,49.956,-0.017,-0.004,-0.009,-1.235,5.175,3.258
15:16:35:277,49.982,-0.001,0.003,-0.007,-1.246,5.161,3.234
15:16:35:303,50.008,-0.002,0.001,-0.008,-1.246,5.161,3.224
15:16:35:329,50.034,-0.001,0.000,-0.008,-1.246,5.156,3.229
15:16:35:355,50.060,-0.023,-0.003,-0.017,-1.256,5.165,3.230
15:16:35:381,50.086,-0.029,0.002,-0.008,-1.276,5.194,3.250
15:16:35:409,50.114,-0.011,0.003,-0.014,-1.292,5.194,3.231
15:16:35:434,50.139,-0.002,0.000,-0.004,-1.303,5.224,3.212
15:16:35:46,50.165,-0.012,-0.001,-0.012,-1.286,5.259,3.186
15:16:35:487,50.191,-0.017,-0.002,-0.007,-1.282,5.260,3.165
15:16:35:513,50.218,-0.011,0.004,-0.018,-1.265,5.261,3.115
15:16:35:539,50.244,0.009,0.000,-0.020,-1.247,5.247,3.070
15:16:35:566,50.271,0.000,0.000,-0.013,-1.231,5.268,3.009
15:16:35:592,50.297,-0.002,-0.003,0.000,-1.189,5.314,2.982
15:16:35:617,50.322,-0.012,-0.003,0.001,-1.160,5.339,2.985
15:16:35:644,50.349,-0.018,-0.003,-0.006,-1.115,5.355,2.987
15:16:35:67,50.375,-0.001,0.000,-0.008,-1.096,5.356,2.976
15:16:35:726,50.431,0.001,-0.005,-0.007,-1.057,5.362,2.959
15:16:35:726,50.431,-0.009,0.000,-0.012,-1.023,5.368,2.962
15:16:35:749,50.454,-0.009,0.000,0.000,-0.998,5.364,2.966
15:16:35:775,50.480,-0.006,0.003,-0.005,-0.973,5.394,2.974
15:16:35:802,50.507,-0.001,0.003,-0.001,-0.944,5.420,2.977
15:16:35:829,50.534,-0.007,-0.002,-0.011,-0.915,5.440,2.975
15:16:35:854,50.559,-0.012,0.000,-0.003,-0.885,5.446,2.979
15:16:35:88,50.585,-0.017,0.001,-0.004,-0.885,5.475,2.988
15:16:35:906,50.611,-0.009,-0.001,-0.007,-0.890,5.495,2.998
15:16:35:933,50.638,-0.002,0.003,0.000,-0.881,5.505,2.988
15:16:35:96,50.665,-0.009,0.000,0.001,-0.862,5.516,2.967
15:16:35:986,50.691,-0.016,-0.001,-0.006,-0.854,5.516,2.947
15:16:36:011,50.716,-0.006,0.000,-0.007,-0.855,5.516,2.917
15:16:36:038,50.743,-0.001,0.002,-0.008,-0.862,5.512,2.873
15:16:36:064,50.769,0.001,-0.002,-0.003,-0.863,5.512,2.853
15:16:36:09,50.795,-0.008,0.001,-0.003,-0.864,5.512,2.833
15:16:36:118,50.823,-0.010,0.002,-0.008,-0.865,5.512,2.823
15:16:36:143,50.848,-0.012,0.002,-0.004,-0.871,5.512,2.804
15:16:36:169,50.874,-0.003,-0.003,-0.014,-0.877,5.512,2.784
15:16:36:195,50.900,-0.008,0.000,-0.005,-0.877,5.517,2.780
15:16:36:222,50.927,-0.012,-0.001,-0.005,-0.887,5.512,2.775
15:16:36:249,50.954,-0.018,0.001,0.000,-0.888,5.512,2.765
15:16:36:274,50.979,-0.015,0.007,-0.012,-0.889,5.517,2.741
15:16:36:301,51.006,0.000,0.000,-0.008,-0.896,5.513,2.706
15:16:36:327,51.031,-0.005,-0.004,-0.012,-0.896,5.513,2.696
15:16:36:353,51.058,-0.010,0.000,-0.003,-0.902,5.488,2.672
15:16:36:379,51.084,-0.012,0.007,-0.010,-0.902,5.468,2.662
15:16:36:405,51.110,0.001,0.000,-0.001,-0.903,5.458,2.643
15:16:36:432,51.137,-0.007,-0.002,-0.003,-0.903,5.473,2.648
15:16:36:459,51.164,-0.008,-0.004,-0.003,-0.903,5.473,2.648
15:16:36:484,51.189,-0.008,0.002,-0.007,-0.903,5.473,2.648
15:16:36:511,51.216,-0.009,0.000,-0.001,-0.903,5.473,2.648
15:16:36:537,51.242,-0.003,-0.001,-0.009,-0.903,5.473,2.648
15:16:36:563,51.268,-0.006,-0.001,-0.006,-0.903,5.473,2.648
15:16:36:589,51.294,-0.011,0.002,-0.008,-0.903,5.473,2.648
15:16:36:615,51.320,-0.002,0.000,-0.010,-0.903,5.473,2.648
15:16:36:642,51.347,0.000,-0.002,-0.009,-0.903,5.473,2.648
15:16:36:668,51.373,-0.004,-0.003,-0.005,-0.903,5.473,2.648
15:16:36:694,51.399,-0.012,0.000,-0.007,-0.903,5.473,2.648
15:16:36:72,51.425,-0.009,0.004,-0.006,-0.903,5.468,2.643
15:16:36:747,51.452,-0.001,0.000,-0.010,-0.903,5.468,2.643
15:16:36:802,51.507,-0.005,-0.001,-0.008,-0.903,5.478,2.643
15:16:36:803,51.508,-0.003,0.000,-0.004,-0.903,5.488,2.642
15:16:36:857,51.562,-0.008,0.000,0.000,-0.903,5.488,2.642
15:16:36:858,51.563,-0.013,0.001,-0.008,-0.903,5.488,2.642
15:16:36:859,51.564,-0.003,0.000,-0.014,-0.903,5.488,2.642
15:16:36:878,51.583,-0.002,-0.001,-0.009,-0.908,5.503,2.657
15:16:36:933,51.638,-0.010,0.001,-0.014,-0.896,5.518,2.701
15:16:36:934,51.639,-0.005,0.002,-0.014,-0.879,5.493,2.725
15:16:36:956,51.661,0.001,0.000,-0.014,-0.847,5.488,2.768
15:16:36:983,51.688,-0.009,-0.004,0.001,-0.826,5.513,2.812
15:16:37:01,51.715,-0.012,-0.003,-0.002,-0.784,5.534,2.869
15:16:37:035,51.740,-0.024,0.001,0.002,-0.782,5.538,2.893
15:16:37:062,51.766,-0.017,0.005,-0.009,-0.781,5.519,2.913
15:16:37:088,51.793,-0.005,0.000,-0.001,-0.795,5.518,2.924
15:16:37:114,51.819,-0.001,-0.001,-0.015,-0.810,5.518,2.925
15:16:37:14,51.845,-0.009,0.000,-0.006,-0.815,5.517,2.925
15:16:37:167,51.872,-0.011,0.001,-0.006,-0.825,5.517,2.925
15:16:37:194,51.899,0.000,0.000,-0.004,-0.845,5.502,2.912
15:16:37:219,51.924,0.000,0.000,-0.019,-0.875,5.472,2.894
15:16:37:247,51.952,-0.002,-0.001,-0.004,-0.885,5.471,2.894
15:16:37:272,51.977,-0.011,0.001,-0.009,-0.895,5.476,2.900
15:16:37:298,52.003,-0.008,0.002,-0.008,-0.914,5.461,2.906
15:16:37:324,52.029,-0.004,0.001,-0.011,-0.944,5.455,2.902
15:16:37:35,52.055,-0.004,0.003,-0.008,-0.949,5.455,2.903
15:16:37:378,52.083,-0.006,-0.003,-0.012,-0.963,5.459,2.908
15:16:37:404,52.109,-0.012,-0.001,-0.010,-0.973,5.454,2.914
15:16:37:46,52.165,-0.009,0.004,-0.010,-0.992,5.434,2.915
15:16:37:46,52.165,0.005,0.004,-0.009,-0.997,5.424,2.915
15:16:37:482,52.187,-0.007,-0.001,-0.006,-1.007,5.423,2.916
15:16:37:508,52.213,-0.008,-0.003,-0.003,-1.007,5.433,2.916
15:16:37:535,52.240,-0.006,0.000,-0.007,-1.016,5.428,2.921
15:16:37:561,52.265,-0.010,0.002,-0.010,-1.026,5.423,2.927
15:16:37:587,52.292,0.002,0.003,-0.010,-1.035,5.413,2.928
15:16:37:639,52.344,-0.010,-0.002,-0.007,-1.055,5.427,2.933
15:16:37:668,52.373,-0.006,0.001,-0.014,-1.055,5.432,2.938
15:16:37:691,52.396,0.002,0.003,-0.012,-1.065,5.422,2.939
15:16:37:747,52.452,0.004,0.002,-0.014,-1.069,5.421,2.949
15:16:37:748,52.452,-0.004,-0.003,-0.009,-1.073,5.426,2.974
15:16:37:77,52.475,-0.016,0.001,-0.004,-1.081,5.430,3.019
15:16:37:797,52.502,-0.004,0.003,-0.010,-1.084,5.410,3.049
15:16:37:823,52.528,-0.004,0.004,-0.018,-1.091,5.380,3.079
15:16:37:849,52.554,-0.003,0.002,-0.009,-1.099,5.379,3.119
15:16:37:877,52.582,-0.009,-0.001,-0.019,-1.107,5.379,3.150
15:16:37:902,52.607,-0.022,0.002,-0.007,-1.121,5.378,3.180
15:16:37:928,52.633,-0.001,0.007,-0.014,-1.130,5.378,3.191
15:16:37:954,52.659,0.005,0.004,-0.008,-1.130,5.397,3.200
15:16:37:98,52.685,-0.003,-0.003,-0.007,-1.129,5.412,3.225
15:16:38:006,52.711,-0.017,-0.005,-0.006,-1.128,5.412,3.245
15:16:38:034,52.739,-0.016,0.004,-0.010,-1.146,5.386,3.271
15:16:38:059,52.764,0.005,0.008,-0.007,-1.150,5.366,3.281
15:16:38:085,52.790,-0.006,0.000,-0.006,-1.150,5.366,3.281
15:16:38:112,52.817,-0.009,-0.008,0.000,-1.150,5.366,3.281
15:16:38:138,52.843,-0.016,0.002,-0.010,-1.150,5.356,3.271
15:16:38:164,52.869,-0.001,0.003,-0.012,-1.151,5.342,3.247
15:16:38:19,52.895,0.001,0.000,-0.009,-1.151,5.351,3.247
15:16:38:216,52.921,-0.001,-0.003,-0.004,-1.147,5.381,3.246
15:16:38:243,52.947,-0.015,0.002,-0.002,-1.147,5.381,3.246
15:16:38:269,52.974,-0.009,0.001,-0.010,-1.148,5.377,3.221
15:16:38:296,53.001,0.001,-0.001,-0.008,-1.144,5.372,3.216
15:16:38:322,53.027,0.001,-0.003,-0.009,-1.144,5.372,3.216
15:16:38:348,53.053,-0.008,0.003,-0.004,-1.139,5.382,3.216
15:16:38:374,53.079,-0.007,0.001,-0.016,-1.129,5.382,3.215
15:16:38:4,53.105,-0.001,0.001,-0.008,-1.119,5.383,3.215
15:16:38:427,53.132,-0.006,-0.001,-0.012,-1.119,5.383,3.215
15:16:38:453,53.158,-0.008,0.001,-0.004,-1.119,5.383,3.215
15:16:38:479,53.184,-0.011,0.002,-0.011,-1.119,5.383,3.215
15:16:38:505,53.210,0.001,0.001,-0.006,-1.119,5.383,3.215
15:16:38:532,53.237,-0.006,-0.001,-0.019,-1.119,5.383,3.215
15:16:38:558,53.263,0.002,0.000,-0.002,-1.119,5.383,3.215
15:16:38:585,53.290,-0.010,0.001,-0.011,-1.119,5.383,3.215
15:16:38:611,53.316,-0.005,-0.001,-0.005,-1.119,5.383,3.215
