Time,Second,AccelerationX,AccelerationY,AccelerationZ,EulerAnglesX,EulerAnglesY,EulerAnglesZ
15:12:05:532,0.000,0.011,-0.005,-0.007,-9.943,-24.790,2.607
15:12:05:533,0.001,0.013,-0.009,-0.003,-9.986,-24.866,2.617
15:12:05:585,0.052,0.012,-0.006,-0.006,-9.996,-24.881,2.624
15:12:05:585,0.053,0.011,0.002,-0.007,-10.001,-24.886,2.619
15:12:05:609,0.076,0.010,-0.002,0.000,-10.011,-24.906,2.620
15:12:05:692,0.160,0.004,-0.007,0.000,-10.034,-24.931,2.617
15:12:05:693,0.161,0.004,-0.008,0.006,-10.074,-24.935,2.592
15:12:05:694,0.161,0.004,-0.003,-0.012,-10.102,-24.948,2.567
15:12:05:767,0.234,0.003,-0.005,-0.001,-10.123,-25.029,2.519
15:12:05:828,0.295,0.013,-0.004,0.012,-10.150,-25.076,2.483
15:12:05:828,0.296,0.015,0.001,-0.001,-10.224,-25.047,2.424
15:12:05:828,0.296,0.014,0.001,-0.010,-10.259,-25.017,2.410
15:12:05:829,0.296,0.016,-0.001,-0.015,-10.323,-25.007,2.398
15:12:05:844,0.312,0.009,-0.005,-0.005,-10.368,-25.018,2.398
15:12:05:87,0.338,0.009,-0.001,-0.015,-10.378,-25.055,2.426
15:12:05:928,0.396,0.010,-0.003,0.000,-10.358,-25.155,2.490
15:12:05:928,0.396,0.012,-0.008,0.002,-10.333,-25.218,2.536
15:12:05:95,0.418,0.000,-0.006,-0.005,-10.295,-25.264,2.611
15:12:05:978,0.445,0.000,-0.012,-0.001,-10.251,-25.302,2.660
15:12:06:084,0.552,-0.008,-0.011,0.007,-10.225,-25.326,2.657
15:12:06:084,0.552,-0.001,-0.007,0.005,-10.200,-25.330,2.653
15:12:06:142,0.609,0.000,-0.003,-0.004,-10.199,-25.328,2.623
15:12:06:143,0.610,-0.003,-0.007,0.006,-10.196,-25.335,2.539
15:12:06:143,0.611,0.020,0.004,-0.010,-10.187,-25.325,2.429
15:12:06:144,0.612,0.007,-0.002,-0.005,-10.166,-25.299,2.358
15:12:06:214,0.682,0.007,-0.005,-0.003,-10.129,-25.250,2.265
15:12:06:245,0.713,0.016,-0.008,-0.003,-10.113,-25.210,2.207
15:12:06:246,0.713,0.018,0.002,-0.009,-10.075,-25.081,2.162
15:12:06:246,0.713,0.008,0.010,-0.011,-10.047,-24.986,2.159
15:12:06:264,0.732,0.012,-0.002,-0.023,-10.010,-24.909,2.193
15:12:06:29,0.758,0.004,-0.011,-0.004,-9.952,-24.891,2.233
15:12:06:317,0.785,0.001,-0.008,-0.010,-9.899,-24.862,2.252
15:12:06:344,0.812,0.003,-0.009,0.002,-9.845,-24.822,2.250
15:12:06:369,0.837,0.000,0.000,0.001,-9.816,-24.776,2.242
15:12:06:398,0.865,0.001,-0.002,0.005,-9.772,-24.694,2.226
15:12:06:423,0.890,0.003,-0.001,-0.007,-9.727,-24.666,2.200
15:12:06:448,0.916,0.007,-0.007,-0.001,-9.697,-24.660,2.185
15:12:06:474,0.941,0.005,-0.007,0.001,-9.652,-24.669,2.187
15:12:06:501,0.968,0.006,-0.001,0.007,-9.632,-24.663,2.182
15:12:06:556,1.023,0.012,-0.003,-0.002,-9.613,-24.638,2.176
15:12:06:557,1.024,0.010,-0.002,0.001,-9.613,-24.602,2.168
15:12:06:58,1.047,0.012,-0.001,-0.005,-9.620,-24.539,2.187
15:12:06:606,1.073,0.007,-0.005,-0.003,-9.623,-24.504,2.244
15:12:06:661,1.128,0.014,-0.001,-0.010,-9.630,-24.493,2.287
15:12:06:661,1.129,0.011,0.004,0.023,-9.660,-24.457,2.388
15:12:06:684,1.152,0.018,0.000,-0.006,-9.699,-24.410,2.467
15:12:06:711,1.178,0.015,0.001,-0.002,-9.727,-24.351,2.645
15:12:06:767,1.235,0.013,-0.006,-0.008,-9.703,-24.309,2.861
15:12:06:767,1.235,0.015,0.002,0.007,-9.656,-24.308,3.036
15:12:06:789,1.257,-0.007,0.007,-0.002,-9.599,-24.269,3.303
15:12:06:816,1.283,-0.001,-0.016,-0.005,-9.591,-24.267,3.457
15:12:06:843,1.311,-0.002,-0.028,0.001,-9.577,-24.271,3.701
15:12:06:868,1.336,0.005,0.001,-0.002,-9.553,-24.265,3.935
15:12:06:894,1.362,-0.020,-0.011,-0.002,-9.554,-24.267,4.074
15:12:06:921,1.388,-0.026,-0.002,-0.023,-9.526,-24.287,4.216
15:12:06:947,1.414,-0.026,-0.008,0.010,-9.515,-24.338,4.241
15:12:06:973,1.440,-0.031,-0.011,0.025,-9.582,-24.423,4.156
15:12:06:999,1.467,-0.001,0.001,-0.007,-9.724,-24.467,4.027
15:12:07:057,1.525,0.061,0.005,-0.023,-10.000,-24.466,3.855
15:12:07:057,1.525,0.042,-0.005,-0.002,-10.198,-24.465,3.834
15:12:07:078,1.546,0.030,-0.002,-0.013,-10.281,-24.469,3.907
15:12:07:104,1.572,0.007,-0.007,-0.004,-10.363,-24.486,4.066
15:12:07:133,1.600,-0.020,-0.018,0.031,-10.383,-24.536,4.224
15:12:07:186,1.653,-0.021,-0.024,0.027,-10.413,-24.584,4.481
15:12:07:186,1.654,0.192,0.002,0.004,-10.378,-24.610,4.902
15:12:07:209,1.677,-0.047,-0.006,0.029,-10.361,-24.628,5.387
15:12:07:235,1.703,-0.054,0.002,-0.007,-10.401,-24.666,6.026
15:12:07:292,1.759,0.085,0.022,0.015,-10.502,-24.643,6.380
15:12:07:292,1.760,0.064,0.031,-0.038,-10.682,-24.575,7.012
15:12:07:316,1.783,0.029,0.020,-0.028,-10.640,-24.655,7.827
15:12:07:341,1.809,0.038,0.025,0.010,-10.491,-24.777,8.430
15:12:07:366,1.834,0.026,0.022,-0.008,-10.116,-24.927,9.468
15:12:07:393,1.860,0.027,0.030,-0.016,-9.807,-25.018,10.224
15:12:07:422,1.890,-0.014,0.020,0.002,-9.286,-25.205,11.391
15:12:07:475,1.942,0.042,0.027,0.049,-8.716,-25.452,12.521
15:12:07:476,1.943,0.040,0.012,0.015,-8.321,-25.551,13.227
15:12:07:498,1.966,0.025,0.039,-0.052,-7.760,-25.732,14.295
15:12:07:524,1.992,0.063,0.002,0.023,-7.358,-25.960,15.048
15:12:07:55,2.018,0.047,0.030,0.025,-6.717,-26.202,16.193
15:12:07:635,2.103,0.057,0.070,-0.005,-6.081,-26.291,17.350
15:12:07:636,2.103,0.119,0.111,0.001,-5.601,-26.403,18.139
15:12:07:637,2.104,0.234,0.136,0.073,-4.845,-26.518,19.448
15:12:07:656,2.123,0.272,0.145,0.105,-4.157,-26.623,20.537
15:12:07:769,2.237,0.339,0.147,0.097,-2.749,-26.821,22.545
15:12:07:77,2.237,0.504,0.061,0.103,-1.477,-26.988,24.125
15:12:07:771,2.238,0.724,0.138,0.139,0.904,-26.900,27.061
15:12:08:032,2.500,0.995,0.358,-0.039,6.206,-26.539,33.630
15:12:08:033,2.501,0.701,0.610,-0.282,10.701,-25.964,39.102
15:12:08:034,2.502,1.068,-0.055,-0.108,14.908,-25.597,42.554
15:12:08:034,2.502,0.802,-0.617,0.038,21.236,-25.193,46.979
15:12:08:13,2.598,0.396,-0.413,0.057,27.658,-27.600,48.388
15:12:08:16,2.628,0.778,-1.047,0.175,29.563,-29.442,47.736
15:12:08:16,2.628,0.407,-0.816,0.299,29.276,-31.693,45.149
15:12:08:19,2.658,0.147,-0.648,0.385,27.898,-32.804,42.530
15:12:08:19,2.658,0.328,-0.683,0.176,23.460,-34.019,37.390
15:12:08:191,2.659,0.381,-0.435,-0.021,17.633,-34.974,30.890
15:12:08:192,2.659,0.303,-0.284,0.033,14.027,-35.787,25.935
15:12:08:322,2.790,0.281,-0.113,0.100,8.818,-37.139,17.823
15:12:08:322,2.790,0.360,0.120,0.174,5.194,-37.739,12.283
15:12:08:323,2.790,-0.061,0.548,0.038,-0.776,-37.001,4.299
15:12:08:324,2.791,-0.532,0.769,-0.295,-4.935,-35.390,-0.936
15:12:08:4,2.867,-1.225,0.684,-0.309,-10.970,-32.020,-8.549
15:12:08:4,2.868,-1.856,0.307,-0.045,-15.372,-28.706,-15.512
15:12:08:401,2.869,-1.740,-0.061,-0.260,-16.956,-26.872,-19.312
15:12:08:402,2.870,-1.960,-0.370,-0.352,-17.200,-24.820,-21.683
15:12:08:427,2.895,-0.396,0.676,-0.323,-16.424,-24.568,-20.256
15:12:08:428,2.895,1.645,0.506,0.564,-13.572,-24.780,-16.404
15:12:08:429,2.896,-0.495,-0.109,-0.094,-11.721,-24.607,-12.241
15:12:08:429,2.897,-0.932,-0.257,-0.440,-10.989,-23.659,-9.892
15:12:08:504,2.972,-0.376,-0.107,0.155,-10.646,-21.647,-6.893
15:12:08:505,2.973,-0.259,0.029,-0.013,-10.359,-20.061,-5.656
15:12:08:506,2.974,-0.300,-0.019,-0.057,-10.103,-19.132,-4.299
15:12:08:507,2.974,-0.055,0.007,0.143,-10.096,-19.980,-3.460
15:12:08:529,2.996,0.079,0.037,-0.105,-10.435,-20.954,-2.260
15:12:08:529,2.997,0.093,-0.003,-0.072,-10.586,-21.011,-1.235
15:12:08:529,2.997,-0.046,0.031,-0.192,-10.557,-21.207,-0.528
15:12:08:577,3.045,0.110,-0.020,0.064,-10.184,-22.450,0.714
15:12:08:578,3.045,0.011,-0.019,-0.033,-9.865,-23.035,1.634
15:12:08:601,3.069,0.087,0.021,0.013,-9.299,-23.590,3.044
15:12:08:714,3.182,0.056,0.021,-0.009,-8.680,-24.070,4.558
15:12:08:715,3.182,0.032,0.026,0.019,-8.210,-24.344,5.605
15:12:08:715,3.182,0.009,0.037,0.014,-7.492,-24.622,7.178
15:12:08:735,3.202,0.013,0.044,-0.014,-7.005,-24.822,8.227
15:12:08:736,3.203,0.121,0.106,0.057,-6.214,-25.322,9.772
15:12:08:787,3.255,0.156,0.090,0.099,-5.260,-25.820,11.454
15:12:08:788,3.255,0.175,0.135,0.075,-4.512,-26.031,12.747
15:12:08:812,3.280,0.207,0.158,0.012,-3.112,-26.168,14.912
15:12:08:837,3.305,0.291,0.156,0.033,-1.913,-26.277,16.528
15:12:08:921,3.389,0.317,0.152,0.014,0.322,-26.353,19.181
15:12:08:922,3.390,0.561,0.244,-0.075,2.169,-26.485,21.146
15:12:08:923,3.391,0.818,0.178,-0.176,5.682,-27.012,24.371
15:12:08:942,3.410,1.085,0.071,-0.144,10.248,-28.054,28.281
15:12:08:999,3.466,0.549,0.624,-0.260,13.412,-28.212,31.598
15:12:08:999,3.467,1.005,0.214,-0.224,20.035,-28.237,36.703
15:12:09:108,3.575,0.711,-0.603,-0.013,24.389,-27.483,39.969
15:12:09:109,3.576,0.404,-0.537,0.056,29.570,-26.578,43.466
15:12:09:109,3.577,0.366,-0.922,0.169,33.688,-28.489,44.095
15:12:09:11,3.578,0.451,-0.996,0.216,33.699,-29.416,43.086
15:12:09:126,3.593,0.115,-0.788,0.246,31.616,-30.525,40.131
15:12:09:181,3.648,0.185,-0.661,0.268,29.013,-31.288,37.451
15:12:09:182,3.649,0.342,-0.569,0.136,23.315,-31.864,32.719
15:12:09:235,3.702,0.386,-0.393,0.079,19.270,-32.131,28.862
15:12:09:235,3.702,0.351,-0.177,0.142,13.776,-32.939,22.260
15:12:09:286,3.754,0.358,-0.031,0.189,8.354,-33.245,15.227
15:12:09:286,3.754,0.287,0.189,0.190,4.663,-32.722,10.412
15:12:09:309,3.777,0.072,0.521,0.021,-0.932,-30.548,3.083
15:12:09:336,3.803,-0.334,0.873,-0.245,-4.632,-28.228,-1.936
15:12:09:362,3.829,-1.158,0.645,-0.271,-9.577,-23.764,-9.586
15:12:09:388,3.855,-1.264,0.256,0.218,-12.852,-18.392,-16.872
15:12:09:473,3.940,-1.508,-0.104,-0.023,-13.966,-14.870,-21.225
15:12:09:473,3.941,-2.058,-0.312,-0.118,-15.057,-11.978,-24.451
15:12:09:474,3.942,-1.239,0.002,0.069,-14.733,-12.725,-23.288
15:12:09:493,3.961,0.920,0.620,-0.665,-12.245,-13.118,-19.011
15:12:09:58,4.047,-0.185,-0.082,0.579,-10.508,-13.593,-15.286
15:12:09:58,4.048,-0.080,-0.116,0.034,-9.407,-12.402,-12.891
15:12:09:58,4.048,-1.273,-0.437,-0.498,-8.711,-10.289,-9.709
15:12:09:598,4.065,-0.427,0.007,0.359,-9.104,-8.650,-7.618
15:12:09:653,4.121,0.146,-0.001,0.063,-8.890,-7.126,-5.658
15:12:09:654,4.122,-0.207,0.021,-0.016,-9.073,-6.640,-4.727
15:12:09:679,4.146,0.103,-0.012,-0.026,-9.020,-7.636,-3.178
15:12:09:732,4.199,-0.021,-0.005,0.027,-8.936,-7.913,-1.932
15:12:09:733,4.200,-0.058,0.015,-0.096,-8.851,-7.920,-1.166
15:12:09:872,4.339,-0.023,0.001,0.030,-8.603,-8.288,-0.193
15:12:09:872,4.339,0.012,0.004,-0.026,-8.371,-8.675,0.444
15:12:09:872,4.340,0.039,-0.002,-0.046,-8.016,-9.061,1.411
15:12:09:873,4.340,0.007,-0.010,-0.016,-7.504,-9.361,2.435
15:12:09:89,4.357,0.041,-0.008,0.010,-7.107,-9.560,3.155
15:12:09:891,4.358,0.045,0.007,-0.005,-6.506,-9.698,4.314
15:12:09:914,4.381,-0.021,0.009,0.004,-6.122,-9.674,5.119
15:12:09:969,4.437,0.007,0.009,0.005,-5.637,-9.710,6.309
15:12:09:969,4.437,0.046,0.019,-0.026,-5.322,-9.806,7.117
15:12:09:992,4.459,0.019,0.039,-0.023,-4.910,-9.892,8.383
15:12:10:018,4.486,0.028,0.068,0.002,-4.452,-10.053,9.814
15:12:10:079,4.547,0.080,0.094,0.020,-4.082,-10.259,10.757
15:12:10:079,4.547,0.189,0.124,0.049,-3.349,-10.610,12.188
15:12:10:08,4.547,0.196,0.095,-0.010,-2.699,-10.746,13.278
15:12:10:097,4.565,0.178,0.102,-0.051,-1.515,-5.300,15.185
15:12:10:123,4.591,0.165,0.161,-0.075,0.043,-5.110,17.315
15:12:10:178,4.646,0.229,0.191,-0.087,1.319,-0.137,18.806
15:12:10:179,4.647,0.393,0.228,-0.206,3.779,-0.228,21.129
15:12:10:202,4.670,0.570,0.189,-0.435,5.910,3.813,22.838
15:12:10:258,4.725,0.925,0.040,-0.689,10.014,2.891,25.872
15:12:10:258,4.726,0.314,0.409,-0.537,13.149,6.845,28.519
15:12:10:31,4.777,0.360,0.541,-0.667,18.503,7.616,33.038
15:12:10:31,4.778,0.431,-0.260,-0.474,23.610,9.896,38.183
15:12:10:359,4.827,0.448,-0.521,-0.393,26.506,10.970,40.495
15:12:10:39,4.858,-0.515,-0.299,0.155,31.146,13.579,41.582
15:12:10:39,4.858,0.473,-0.909,-0.211,32.553,12.652,41.027
15:12:10:412,4.880,0.219,-0.742,0.076,32.167,14.884,38.814
15:12:10:497,4.964,0.343,-0.613,0.124,29.489,15.056,35.602
15:12:10:497,4.964,0.305,-0.456,0.075,26.442,18.696,33.124
15:12:10:498,4.965,0.072,-0.395,-0.152,21.405,20.314,28.776
15:12:10:546,5.014,0.036,-0.172,-0.204,18.114,21.335,25.347
15:12:10:546,5.014,0.145,-0.075,-0.188,13.664,22.797,19.370
15:12:10:569,5.037,0.113,0.065,-0.214,9.552,24.818,12.910
15:12:10:596,5.064,0.037,0.169,-0.177,6.990,26.654,8.460
15:12:10:651,5.118,-0.232,0.392,-0.106,3.237,30.304,1.703
15:12:10:707,5.174,-0.396,0.532,-0.051,0.765,33.267,-2.853
15:12:10:707,5.174,-0.458,1.263,0.450,-2.658,38.988,-9.244
15:12:10:707,5.175,-0.592,0.268,0.661,-4.466,43.352,-12.538
15:12:10:728,5.196,-0.739,0.049,0.697,-5.572,50.339,-17.242
15:12:10:782,5.250,-0.983,-0.137,1.211,-5.321,57.176,-19.843
15:12:10:783,5.250,-0.761,-0.185,1.090,-4.841,59.221,-19.965
15:12:10:806,5.273,-0.559,0.309,-0.252,-4.251,58.750,-17.418
15:12:10:832,5.299,0.074,0.005,0.233,-3.501,57.828,-15.384
15:12:10:858,5.326,0.053,-0.085,0.105,-3.043,57.358,-11.871
15:12:10:884,5.352,-0.054,0.025,0.477,-3.000,57.892,-9.071
15:12:10:912,5.380,0.156,-0.096,0.261,-3.350,58.477,-7.341
15:12:10:938,5.405,-0.027,0.037,0.044,-3.880,60.320,-5.604
15:12:10:963,5.431,-0.188,0.010,0.159,-4.437,61.309,-4.461
15:12:10:989,5.457,-0.069,0.059,0.055,-5.311,61.940,-3.040
15:12:11:016,5.483,-0.162,0.011,0.033,-6.166,61.924,-1.799
15:12:11:043,5.511,-0.070,-0.002,-0.020,-6.568,61.496,-1.200
15:12:11:069,5.536,0.146,0.021,-0.067,-7.050,61.044,-0.319
15:12:11:095,5.562,-0.050,0.023,-0.029,-7.308,61.294,0.336
15:12:11:121,5.588,-0.074,0.030,-0.066,-7.453,61.405,1.311
15:12:11:147,5.615,-0.030,-0.001,-0.102,-7.299,61.239,2.018
15:12:11:173,5.641,0.017,0.013,-0.023,-6.809,61.131,3.223
15:12:11:229,5.697,0.019,-0.005,-0.035,-6.253,61.215,4.531
15:12:11:229,5.697,-0.012,-0.008,0.008,-5.850,61.390,5.415
15:12:11:252,5.719,0.002,0.016,0.021,-5.286,61.671,6.664
15:12:11:279,5.747,0.016,0.018,-0.002,-4.939,61.796,7.431
15:12:11:364,5.832,0.073,-0.013,-0.019,-4.416,61.915,8.526
15:12:11:364,5.832,0.027,-0.009,-0.042,-3.945,62.015,9.619
15:12:11:364,5.832,-0.001,0.026,-0.012,-3.653,62.129,10.360
15:12:11:384,5.852,-0.002,0.037,0.018,-3.242,62.254,11.406
15:12:11:409,5.877,0.044,0.054,-0.031,-2.965,62.195,12.047
15:12:11:435,5.903,0.067,0.073,-0.102,-2.491,62.092,12.964
15:12:11:462,5.930,0.017,0.090,-0.111,-2.119,62.114,13.667
15:12:11:488,5.956,0.001,0.085,-0.109,-1.406,64.791,14.898
15:12:11:546,6.013,0.006,0.068,-0.106,-0.429,67.346,16.300
15:12:11:546,6.014,0.004,0.044,-0.146,0.390,67.222,17.349
15:12:11:567,6.034,-0.046,0.116,-0.209,1.737,69.340,18.779
15:12:11:62,6.088,-0.027,0.185,-0.267,2.952,69.487,20.028
15:12:11:648,6.116,-0.024,0.181,-0.363,5.180,71.713,22.073
15:12:11:649,6.117,-0.123,0.204,-0.662,8.110,71.688,24.377
15:12:11:673,6.140,-0.138,0.118,-0.705,10.637,73.276,26.103
15:12:11:729,6.196,-0.173,0.140,-0.661,15.465,72.311,28.978
15:12:11:729,6.197,-0.137,0.302,-0.608,19.226,72.941,31.192
15:12:11:751,6.218,-0.340,0.084,-0.399,23.688,75.077,35.784
15:12:11:777,6.245,-0.152,-0.549,-0.094,27.372,79.276,39.905
15:12:11:803,6.271,-0.053,-0.504,-0.541,29.434,79.992,41.084
15:12:11:829,6.297,0.027,-0.684,-0.404,31.188,81.847,41.145
15:12:11:885,6.352,-0.028,-0.800,-0.286,29.999,82.655,40.452
15:12:11:886,6.353,0.010,-0.604,-0.147,26.869,85.069,37.930
15:12:11:91,6.377,-0.077,-0.486,-0.201,24.352,85.730,35.397
15:12:11:935,6.403,-0.201,-0.368,-0.270,20.258,86.595,30.474
15:12:11:962,6.430,-0.257,-0.103,-0.134,16.054,87.483,24.753
15:12:11:988,6.455,-0.251,0.069,-0.133,13.277,88.055,20.681
15:12:12:013,6.481,-0.256,0.209,-0.118,9.060,88.989,14.496
15:12:12:039,6.507,-0.139,0.325,0.092,6.286,89.850,10.533
15:12:12:065,6.533,-0.193,0.327,0.226,2.178,91.774,5.167
15:12:12:092,6.560,-0.166,0.321,0.351,-1.924,94.365,0.054
15:12:12:147,6.615,-0.022,0.322,0.460,-4.521,96.071,-3.173
15:12:12:148,6.615,0.256,0.233,0.601,-8.409,98.192,-7.824
15:12:12:2,6.668,0.338,0.233,0.643,-10.728,98.808,-10.878
15:12:12:2,6.668,0.391,0.033,0.509,-13.652,98.475,-14.837
15:12:12:223,6.691,0.513,0.041,0.636,-15.282,98.004,-16.896
15:12:12:252,6.720,0.479,-0.125,0.735,-17.275,97.270,-18.767
15:12:12:253,6.720,0.589,-0.073,0.544,-18.340,96.144,-18.797
15:12:12:305,6.772,0.589,0.139,0.309,-18.057,95.543,-17.653
15:12:12:306,6.773,-0.428,0.064,-0.783,-16.039,96.070,-15.129
15:12:12:33,6.797,0.383,0.119,0.207,-15.275,97.174,-14.459
15:12:12:355,6.823,0.188,0.077,0.121,-13.943,98.137,-12.375
15:12:12:38,6.848,0.094,-0.070,0.252,-13.138,98.208,-9.967
15:12:12:407,6.874,0.042,0.025,0.073,-13.002,98.784,-8.437
15:12:12:462,6.930,0.065,-0.048,0.168,-12.607,99.980,-6.604
15:12:12:463,6.931,0.056,-0.015,0.116,-12.477,100.773,-5.662
15:12:12:516,6.984,0.105,0.002,0.052,-12.282,101.154,-4.343
15:12:12:516,6.984,0.040,0.002,-0.029,-12.281,100.825,-3.091
15:12:12:538,7.006,-0.010,0.014,-0.035,-12.426,100.822,-2.388
15:12:12:566,7.034,-0.036,0.012,0.049,-12.643,101.212,-1.527
15:12:12:591,7.059,-0.002,0.011,0.044,-12.665,101.306,-1.024
15:12:12:617,7.084,-0.013,0.006,0.014,-12.569,101.368,-0.288
15:12:12:643,7.111,-0.016,0.001,-0.046,-12.411,100.777,0.214
15:12:12:67,7.137,-0.009,-0.005,-0.048,-12.073,100.249,0.980
15:12:12:696,7.163,-0.030,-0.008,-0.031,-11.706,99.695,1.761
15:12:12:749,7.217,-0.023,-0.009,-0.058,-11.447,99.616,2.327
15:12:12:777,7.245,0.033,-0.013,0.001,-11.025,99.223,3.126
15:12:12:778,7.245,0.024,-0.005,-0.028,-10.777,99.062,3.748
15:12:12:8,7.268,0.018,-0.004,-0.084,-10.464,98.908,4.629
15:12:12:829,7.296,-0.039,0.021,0.033,-10.185,99.066,5.568
15:12:12:882,7.350,-0.019,0.006,0.007,-9.891,99.146,6.204
15:12:12:883,7.351,-0.018,0.005,-0.065,-9.363,99.148,7.112
15:12:12:906,7.373,-0.023,0.005,-0.056,-8.976,99.127,7.758
15:12:12:959,7.426,-0.036,0.013,-0.037,-8.347,99.238,8.768
15:12:12:988,7.456,0.006,0.032,0.016,-7.848,99.332,9.544
15:12:12:988,7.456,0.024,0.041,-0.038,-7.030,99.361,10.687
15:12:13:01,7.478,0.023,0.043,-0.084,-6.166,99.272,11.816
15:12:13:066,7.534,-0.032,0.100,-0.101,-5.551,99.246,12.651
15:12:13:067,7.534,0.010,0.089,-0.137,-4.516,99.154,13.986
15:12:13:091,7.558,-0.069,0.115,-0.116,-3.751,99.166,14.983
15:12:13:116,7.584,-0.065,0.172,-0.118,-2.430,99.302,16.612
15:12:13:172,7.640,-0.044,0.146,-0.199,-0.857,99.336,18.322
15:12:13:172,7.640,-0.086,0.155,-0.262,0.385,99.351,19.551
15:12:13:194,7.662,-0.191,0.230,-0.279,2.687,99.416,21.524
15:12:13:223,7.690,-0.253,0.176,-0.357,4.645,99.171,22.947
15:12:13:334,7.802,-0.477,-0.026,-0.550,8.315,97.984,25.295
15:12:13:335,7.802,-0.273,0.251,-0.221,12.327,97.244,28.345
15:12:13:336,7.803,-0.396,0.341,-0.241,15.080,97.363,30.921
15:12:13:336,7.804,-0.393,0.076,-0.218,19.391,98.090,35.094
15:12:13:352,7.819,-0.293,-0.537,-0.069,22.230,98.529,37.661
15:12:13:379,7.847,-0.330,-0.596,-0.341,25.935,97.901,39.694
15:12:13:405,7.873,-0.080,-0.594,-0.238,28.315,96.570,39.831
15:12:13:431,7.898,-0.078,-0.750,-0.361,29.496,94.124,38.394
15:12:13:457,7.925,-0.001,-0.581,-0.310,28.241,92.266,35.558
15:12:13:483,7.951,0.009,-0.452,-0.359,26.412,91.276,33.112
15:12:13:51,7.977,-0.096,-0.334,-0.391,22.643,90.155,28.765
15:12:13:565,8.032,-0.127,-0.163,-0.314,19.702,89.546,25.510
15:12:13:566,8.033,-0.116,0.002,-0.339,14.747,88.862,20.421
15:12:13:588,8.056,-0.084,0.088,-0.402,9.596,88.453,15.161
15:12:13:672,8.140,0.052,0.122,-0.391,6.185,88.444,11.657
15:12:13:673,8.141,0.048,0.303,-0.180,1.033,89.420,6.459
15:12:13:674,8.142,0.032,0.388,-0.160,-2.426,90.826,2.892
15:12:13:754,8.221,0.183,0.491,0.291,-7.139,93.667,-2.855
15:12:13:754,8.221,0.528,0.363,0.517,-9.798,95.752,-6.855
15:12:13:754,8.221,0.571,0.135,0.767,-13.044,99.125,-12.719
15:12:13:772,8.240,0.606,-0.085,1.206,-15.331,102.709,-18.100
15:12:13:856,8.324,0.535,-0.096,1.143,-16.327,104.268,-20.638
15:12:13:859,8.327,0.541,-0.087,0.896,-16.612,104.677,-21.316
15:12:13:86,8.327,-0.196,-0.070,0.460,-15.635,104.160,-19.576
15:12:13:877,8.344,-0.448,0.390,-0.983,-13.869,103.287,-16.453
15:12:13:963,8.430,0.198,-0.033,0.233,-11.728,103.444,-12.453
15:12:13:963,8.430,0.022,0.206,0.291,-11.357,104.260,-9.980
15:12:13:984,8.451,0.193,-0.012,0.048,-11.582,105.288,-8.037
15:12:14:01,8.478,0.199,0.049,0.089,-11.781,106.224,-7.220
15:12:14:064,8.531,0.043,0.045,0.180,-12.300,106.812,-6.220
15:12:14:064,8.532,0.062,-0.013,0.001,-12.562,106.001,-5.373
15:12:14:087,8.554,0.030,-0.006,-0.039,-13.023,105.082,-4.328
15:12:14:114,8.582,-0.032,0.008,-0.044,-13.585,105.109,-3.617
15:12:14:14,8.607,-0.049,0.024,-0.036,-13.897,105.437,-3.141
15:12:14:195,8.663,-0.129,0.050,0.099,-14.048,105.787,-2.232
15:12:14:196,8.663,-0.028,0.002,-0.036,-13.845,105.186,-1.536
15:12:14:218,8.686,-0.042,0.007,-0.073,-13.335,104.530,-0.354
15:12:14:246,8.714,0.003,0.000,-0.014,-12.881,104.146,0.904
15:12:14:272,8.739,-0.001,-0.005,0.046,-12.543,104.313,1.712
15:12:14:325,8.792,-0.006,0.002,0.023,-11.956,103.985,2.849
15:12:14:383,8.850,-0.008,-0.001,-0.025,-11.521,103.859,3.579
15:12:14:383,8.851,0.046,0.002,0.011,-10.933,103.927,4.639
15:12:14:384,8.851,0.046,0.001,0.009,-10.604,104.027,5.318
15:12:14:49,8.958,-0.015,0.014,-0.001,-10.139,104.036,6.334
15:12:14:49,8.958,-0.015,0.007,-0.035,-9.588,103.906,7.418
15:12:14:491,8.959,0.020,0.025,-0.003,-9.187,103.850,8.166
15:12:14:492,8.960,0.026,0.043,-0.026,-8.608,103.763,9.340
15:12:14:537,9.004,0.029,0.034,-0.021,-8.220,103.667,10.110
15:12:14:537,9.005,0.089,0.037,-0.088,-7.622,103.391,11.183
15:12:14:56,9.027,0.016,0.027,-0.011,-7.025,103.280,12.175
15:12:14:644,9.112,-0.016,0.038,0.023,-6.628,103.093,12.796
15:12:14:644,9.112,-0.025,0.057,-0.037,-5.947,102.924,13.646
15:12:14:645,9.113,-0.048,0.058,-0.095,-5.385,102.600,14.225
15:12:14:665,9.132,-0.099,0.082,-0.092,-4.335,102.462,15.258
15:12:14:692,9.160,-0.121,0.126,-0.132,-2.910,101.954,16.524
15:12:14:719,9.186,-0.060,0.135,-0.189,-1.739,101.803,17.484
15:12:14:744,9.211,-0.038,0.124,-0.265,0.448,101.517,19.112
15:12:14:769,9.237,-0.233,0.103,-0.273,2.222,101.418,20.321
15:12:14:795,9.263,-0.302,0.086,-0.228,5.179,101.238,22.482
15:12:14:822,9.289,-0.439,0.042,-0.390,8.463,100.905,25.077
15:12:14:852,9.319,-0.451,0.069,-0.376,10.616,101.097,27.306
15:12:14:852,9.319,-0.382,0.376,-0.089,13.726,102.102,31.407
15:12:14:934,9.402,-0.402,0.229,-0.178,16.292,102.591,34.100
15:12:14:935,9.402,-0.344,-0.032,-0.133,20.751,102.876,37.554
15:12:14:935,9.402,-0.440,-0.380,-0.188,23.537,102.398,39.120
15:12:14:953,9.421,0.113,-0.859,0.258,27.501,99.899,39.386
15:12:14:981,9.448,-0.103,-0.806,-0.617,29.518,96.049,37.294
15:12:15:008,9.475,0.042,-0.744,-0.433,29.273,94.213,35.424
15:12:15:033,9.500,0.165,-0.530,-0.286,27.114,92.035,32.041
15:12:15:087,9.555,0.063,-0.483,-0.339,24.601,91.356,29.494
15:12:15:088,9.556,-0.035,-0.352,-0.347,19.632,91.118,25.239
15:12:15:169,9.637,-0.067,-0.060,-0.249,14.213,91.197,20.421
15:12:15:17,9.637,-0.057,0.099,-0.298,10.708,91.269,17.042
15:12:15:171,9.638,0.020,0.128,-0.289,5.822,91.540,11.793
15:12:15:218,9.686,0.009,0.285,-0.050,2.618,92.114,8.269
15:12:15:219,9.686,-0.032,0.332,-0.005,-2.106,93.446,2.966
15:12:15:302,9.770,0.159,0.437,0.276,-5.162,94.511,-0.594
15:12:15:302,9.770,0.289,0.387,0.463,-9.393,96.488,-5.863
15:12:15:302,9.770,0.475,0.511,0.505,-13.099,98.720,-11.234
15:12:15:323,9.790,0.441,-0.044,0.515,-15.247,99.808,-14.803
15:12:15:375,9.842,0.387,-0.070,0.883,-17.997,100.333,-19.494
15:12:15:402,9.870,0.471,-0.229,1.000,-19.535,99.616,-21.580
15:12:15:403,9.870,0.439,-0.125,0.749,-21.405,97.008,-22.197
15:12:15:425,9.893,0.366,-0.126,0.392,-21.348,94.691,-20.151
15:12:15:452,9.920,0.282,-0.060,0.192,-20.091,94.299,-18.161
15:12:15:508,9.976,-0.207,0.144,-0.644,-17.976,95.698,-15.921
15:12:15:509,9.976,0.503,0.165,0.031,-16.904,97.537,-15.532
15:12:15:56,10.027,0.074,-0.025,0.310,-15.512,100.227,-14.091
15:12:15:56,10.028,0.150,-0.184,0.852,-15.147,100.409,-11.984
15:12:15:585,10.052,0.427,0.086,0.053,-15.104,100.737,-10.520
15:12:15:642,10.109,0.037,-0.073,0.158,-14.925,101.693,-8.993
15:12:15:642,10.109,-0.078,-0.004,0.099,-15.062,102.164,-8.158
15:12:15:693,10.160,0.044,-0.012,0.035,-14.894,101.932,-6.638
15:12:15:693,10.161,0.041,-0.036,-0.014,-14.763,101.609,-5.646
15:12:15:829,10.296,0.043,-0.008,0.038,-14.728,101.593,-4.476
15:12:15:829,10.297,-0.014,0.004,-0.022,-14.792,101.986,-3.616
15:12:15:83,10.298,-0.026,0.014,0.005,-14.793,102.286,-3.035
15:12:15:831,10.298,-0.006,0.012,0.072,-14.610,102.550,-2.271
15:12:15:878,10.346,0.003,0.000,0.043,-14.438,102.591,-1.887
15:12:15:878,10.346,-0.018,-0.008,0.000,-14.205,103.209,-1.412
15:12:15:879,10.347,0.018,-0.008,-0.013,-13.933,103.199,-0.892
15:12:15:927,10.395,0.000,0.001,-0.019,-13.742,103.305,-0.536
15:12:15:928,10.396,-0.008,-0.007,-0.003,-13.461,103.571,-0.033
15:12:15:951,10.418,0.007,0.002,0.009,-13.259,103.768,0.311
15:12:15:977,10.444,0.027,-0.008,0.004,-12.946,103.910,0.841
15:12:16:032,10.500,0.038,-0.009,-0.013,-12.754,103.902,1.202
15:12:16:033,10.500,0.041,-0.005,0.009,-12.564,103.846,1.765
15:12:16:085,10.553,0.011,0.001,-0.017,-12.431,103.652,2.315
15:12:16:085,10.553,-0.025,0.007,-0.018,-12.324,103.443,2.698
15:12:16:137,10.605,-0.011,0.006,-0.016,-12.008,102.967,3.376
15:12:16:138,10.605,0.017,-0.013,-0.022,-11.736,103.055,3.877
15:12:16:19,10.658,-0.006,-0.002,-0.008,-11.378,102.544,4.636
15:12:16:191,10.658,-0.002,-0.007,-0.057,-11.010,102.662,5.419
15:12:16:214,10.681,-0.030,0.001,-0.023,-10.779,102.633,5.994
15:12:16:241,10.709,-0.016,-0.002,0.001,-10.297,102.660,6.907
15:12:16:266,10.734,0.001,0.037,-0.053,-9.919,102.594,7.542
15:12:16:321,10.789,-0.031,0.046,-0.028,-9.250,102.688,8.551
15:12:16:322,10.789,-0.064,0.049,-0.035,-8.701,102.778,9.285
15:12:16:374,10.842,-0.025,0.038,-0.040,-7.649,102.807,10.540
15:12:16:374,10.842,0.022,0.100,-0.025,-6.393,102.747,11.981
15:12:16:397,10.864,0.054,0.096,-0.049,-5.518,102.621,12.966
15:12:16:423,10.891,0.016,0.097,-0.144,-4.245,102.082,14.307
15:12:16:539,11.006,-0.030,0.112,-0.150,-3.387,101.759,15.193
15:12:16:539,11.006,-0.075,0.089,-0.168,-1.921,101.320,16.667
15:12:16:539,11.006,-0.153,0.112,-0.190,0.009,100.887,18.357
15:12:16:539,11.007,-0.187,0.124,-0.211,1.600,100.598,19.659
15:12:16:554,11.022,-0.349,0.233,-0.361,4.449,99.826,21.908
15:12:16:61,11.078,-0.454,0.197,-0.514,6.696,98.955,23.630
15:12:16:636,11.104,-0.371,0.094,-0.441,10.545,97.907,26.661
15:12:16:692,11.160,-0.393,0.398,-0.236,13.383,97.667,29.110
15:12:16:693,11.160,-0.412,0.165,-0.232,17.614,98.157,33.225
15:12:16:693,11.160,-0.354,-0.218,-0.170,21.527,98.571,36.774
15:12:16:713,11.181,-0.231,-0.549,-0.337,23.745,97.740,37.756
15:12:16:74,11.208,0.000,-0.583,-0.169,26.898,95.083,37.309
15:12:16:765,11.232,-0.085,-0.828,-0.440,27.390,93.363,36.045
15:12:16:79,11.258,0.093,-0.651,-0.402,26.783,90.855,32.854
15:12:16:817,11.285,0.121,-0.442,-0.305,24.726,88.739,28.816
15:12:16:843,11.311,0.055,-0.420,-0.349,22.355,87.842,25.807
15:12:16:869,11.337,0.037,-0.209,-0.369,17.663,87.496,21.078
15:12:16:896,11.363,-0.009,0.062,-0.265,14.139,87.855,17.894
15:12:16:983,11.451,-0.036,0.102,-0.201,9.128,88.874,12.898
15:12:16:986,11.454,0.016,0.183,-0.097,4.675,90.094,7.480
15:12:16:986,11.454,-0.041,0.292,0.000,1.882,91.169,3.774
15:12:16:987,11.454,0.016,0.400,0.140,-2.161,93.541,-1.875
15:12:17:028,11.495,0.156,0.415,0.291,-4.614,95.591,-5.595
15:12:17:058,11.525,0.260,0.374,0.389,-7.877,99.409,-10.997
15:12:17:058,11.526,0.288,0.330,0.397,-9.612,102.399,-14.510
15:12:17:108,11.576,0.327,0.091,0.515,-11.294,106.930,-19.512
15:12:17:109,11.577,0.248,-0.219,0.977,-11.954,110.635,-23.747
15:12:17:19,11.658,0.353,-0.268,0.969,-12.588,111.592,-25.623
15:12:17:191,11.658,0.245,-0.139,0.544,-13.787,110.454,-26.222
15:12:17:192,11.659,0.371,-0.183,0.436,-14.232,108.991,-25.542
15:12:17:211,11.678,0.382,-0.190,0.385,-13.903,107.214,-23.587
15:12:17:237,11.704,0.303,-0.117,-0.009,-12.972,105.908,-20.510
15:12:17:263,11.731,-0.015,0.126,-0.183,-11.921,105.847,-18.460
15:12:17:29,11.757,-0.132,0.285,-0.351,-10.450,106.776,-16.991
15:12:17:347,11.814,0.472,-0.041,0.504,-9.776,107.304,-15.404
15:12:17:347,11.814,0.217,0.106,0.103,-9.210,107.949,-12.946
15:12:17:368,11.835,-0.096,-0.031,-0.023,-9.306,108.506,-11.344
15:12:17:394,11.862,0.158,-0.041,0.171,-9.412,110.195,-9.444
15:12:17:477,11.945,0.169,-0.009,0.155,-9.318,111.621,-7.653
15:12:17:478,11.945,0.098,0.027,0.175,-9.224,111.835,-6.518
15:12:17:502,11.970,0.079,-0.003,-0.061,-9.220,110.085,-5.033
15:12:17:503,11.970,-0.052,-0.002,-0.078,-9.287,109.533,-4.254
15:12:17:613,12.081,-0.052,-0.007,0.012,-9.416,109.096,-3.236
15:12:17:614,12.081,0.021,-0.008,0.062,-9.524,109.677,-2.295
15:12:17:615,12.082,0.074,-0.008,0.114,-9.599,109.496,-1.750
15:12:17:615,12.083,0.064,0.003,0.019,-9.707,109.184,-1.096
15:12:17:661,12.129,-0.019,-0.006,-0.077,-9.787,108.547,-0.777
15:12:17:662,12.129,-0.039,0.020,0.013,-9.972,108.707,-0.251
15:12:17:683,12.151,-0.054,0.007,0.012,-9.964,108.778,0.343
15:12:17:74,12.207,-0.021,0.004,-0.031,-9.800,108.563,0.894
15:12:17:74,12.208,-0.041,0.008,-0.071,-9.435,108.332,1.900
15:12:17:818,12.286,0.043,-0.012,0.055,-9.195,108.406,2.602
15:12:17:819,12.286,0.049,-0.007,0.027,-8.906,108.514,3.536
15:12:17:844,12.311,0.013,0.002,-0.015,-8.777,108.455,4.101
15:12:17:844,12.312,-0.007,0.003,-0.021,-8.634,108.323,4.981
15:12:17:896,12.364,-0.001,0.009,-0.008,-8.461,108.244,5.901
15:12:17:897,12.364,0.000,0.013,-0.007,-8.331,108.180,6.541
15:12:17:977,12.445,0.021,0.018,-0.011,-8.085,108.039,7.533
15:12:17:978,12.446,-0.030,0.001,-0.039,-7.867,107.739,8.207
15:12:17:979,12.447,-0.021,0.025,-0.053,-7.478,107.581,9.218
15:12:18:028,12.495,0.014,0.045,-0.005,-6.990,107.420,10.323
15:12:18:028,12.496,-0.021,0.071,-0.002,-6.646,107.309,11.141
15:12:18:051,12.518,-0.028,0.062,-0.077,-6.038,106.700,12.300
15:12:18:135,12.603,-0.036,0.069,-0.078,-5.546,106.474,13.112
15:12:18:136,12.603,-0.060,0.080,-0.049,-4.683,106.089,14.432
15:12:18:137,12.604,-0.051,0.115,-0.072,-4.000,105.915,15.364
15:12:18:156,12.624,-0.045,0.117,-0.141,-2.747,105.578,16.823
15:12:18:211,12.679,-0.075,0.112,-0.184,-1.201,105.329,18.459
15:12:18:212,12.680,-0.130,0.163,-0.195,0.052,105.172,19.644
15:12:18:234,12.702,-0.226,0.182,-0.239,2.553,104.652,21.535
15:12:18:29,12.757,-0.381,0.112,-0.365,4.558,104.038,22.967
15:12:18:29,12.758,-0.449,-0.035,-0.450,8.060,102.798,25.421
15:12:18:313,12.781,-0.244,0.351,-0.191,11.447,102.310,28.760
15:12:18:339,12.807,-0.316,0.400,-0.188,13.950,102.229,31.342
15:12:18:425,12.892,-0.330,0.140,-0.187,18.184,102.278,35.161
15:12:18:425,12.893,-0.214,-0.358,-0.045,21.132,102.043,37.429
15:12:18:425,12.893,-0.290,-0.676,-0.259,24.912,100.519,38.833
15:12:18:445,12.913,0.056,-0.664,-0.325,28.020,97.578,37.894
15:12:18:501,12.968,-0.021,-0.734,-0.373,28.213,96.233,36.572
15:12:18:501,12.968,0.131,-0.556,-0.283,26.856,94.521,33.453
15:12:18:552,13.019,-0.005,-0.368,-0.285,25.137,94.010,30.972
15:12:18:553,13.020,-0.149,-0.267,-0.313,21.463,93.925,26.645
15:12:18:576,13.044,-0.070,-0.056,-0.238,18.643,94.231,23.540
15:12:18:602,13.070,-0.066,0.198,-0.174,13.946,95.736,19.139
15:12:18:628,13.096,-0.098,0.172,-0.065,9.852,98.076,14.810
15:12:18:714,13.182,-0.058,0.215,0.072,7.561,100.076,11.866
15:12:18:715,13.182,-0.140,0.189,0.148,4.228,103.870,7.399
15:12:18:715,13.182,-0.143,0.199,0.177,2.091,106.816,4.390
15:12:18:821,13.288,-0.102,0.200,0.210,-0.804,111.336,-0.177
15:12:18:822,13.289,0.082,0.264,0.391,-2.526,114.149,-3.220
15:12:18:822,13.289,0.279,0.230,0.476,-4.814,117.928,-7.934
15:12:18:841,13.308,0.204,0.151,0.493,-6.835,120.822,-12.960
15:12:18:842,13.309,0.247,0.110,0.467,-8.213,122.118,-16.170
15:12:18:864,13.332,0.322,0.015,0.470,-10.450,122.839,-20.373
15:12:18:891,13.358,0.440,-0.065,0.515,-12.098,122.712,-22.590
15:12:18:917,13.384,0.491,-0.127,0.460,-14.522,121.782,-24.690
15:12:18:945,13.413,0.429,-0.152,0.408,-15.999,120.438,-25.082
15:12:18:998,13.466,0.384,-0.129,0.342,-16.358,119.517,-24.444
15:12:19:102,13.570,0.258,0.264,0.135,-16.270,118.281,-22.400
15:12:19:155,13.622,0.257,-0.057,-0.083,-15.780,117.528,-20.523
15:12:19:209,13.677,-0.145,0.063,-0.344,-14.490,117.859,-17.938
15:12:19:312,13.780,0.048,0.204,-0.310,-13.325,119.591,-16.672
15:12:19:348,13.815,0.520,-0.004,0.236,-13.012,120.502,-16.067
15:12:19:348,13.816,0.250,0.060,-0.063,-12.955,120.260,-14.701
15:12:19:348,13.816,-0.021,-0.020,-0.176,-13.308,119.268,-13.927
15:12:19:349,13.817,-0.162,-0.070,0.313,-13.758,119.055,-12.671
15:12:19:453,13.920,0.011,-0.005,0.030,-13.849,120.785,-11.238
15:12:19:453,13.920,0.081,-0.038,0.133,-13.748,121.554,-10.195
15:12:19:453,13.920,0.106,-0.023,0.099,-13.590,121.908,-8.310
15:12:19:454,13.921,0.004,-0.010,-0.052,-13.424,121.356,-7.134
15:12:19:496,13.963,-0.036,-0.022,-0.030,-13.240,120.896,-5.582
15:12:19:554,14.022,-0.059,0.013,-0.021,-13.145,120.900,-4.640
15:12:19:554,14.022,0.064,-0.014,0.085,-12.954,122.108,-3.448
15:12:19:555,14.022,0.042,0.006,0.070,-12.778,122.825,-2.573
15:12:19:583,14.051,0.036,-0.011,0.033,-12.616,123.063,-2.129
15:12:19:584,14.052,0.008,0.001,0.017,-12.410,123.164,-1.606
15:12:19:585,14.052,-0.021,0.000,0.017,-12.254,123.215,-1.291
15:12:19:586,14.053,-0.044,-0.003,-0.023,-11.933,123.193,-0.769
15:12:19:604,14.071,-0.034,-0.001,0.005,-11.497,122.871,-0.084
15:12:19:605,14.072,-0.041,-0.021,0.012,-11.246,122.756,0.361
15:12:19:689,14.157,-0.032,-0.016,0.015,-10.914,122.748,1.029
15:12:19:689,14.157,0.046,0.003,-0.025,-10.561,122.858,1.500
15:12:19:689,14.157,0.056,-0.001,-0.049,-10.034,123.023,2.203
15:12:19:69,14.157,-0.009,0.007,-0.005,-9.735,123.161,2.681
15:12:19:74,14.208,-0.011,-0.002,-0.034,-9.313,123.381,3.421
15:12:19:741,14.208,-0.006,0.003,-0.007,-8.774,123.636,4.175
15:12:19:742,14.209,0.017,0.006,0.001,-8.354,123.758,4.721
15:12:19:743,14.210,0.015,-0.007,-0.028,-7.727,123.814,5.593
15:12:19:846,14.314,-0.022,0.008,-0.015,-7.336,123.876,6.193
15:12:19:846,14.314,-0.003,0.010,-0.016,-6.775,124.007,7.117
15:12:19:846,14.314,-0.017,0.017,-0.030,-6.170,124.146,8.127
15:12:19:847,14.314,-0.021,0.024,-0.032,-5.704,124.188,8.854
15:12:20:082,14.549,-0.025,0.035,-0.007,-4.900,124.309,10.033
15:12:20:083,14.550,-0.021,0.036,-0.030,-4.245,124.433,10.906
15:12:20:083,14.551,-0.035,0.127,-0.021,-3.181,124.629,12.208
15:12:20:084,14.552,-0.061,0.142,-0.126,-2.393,124.644,12.993
15:12:20:18,14.648,-0.099,0.141,-0.157,-1.097,124.658,14.235
15:12:20:181,14.649,-0.144,0.134,-0.070,0.361,124.942,15.684
15:12:20:371,14.839,-0.179,0.096,-0.089,1.457,125.221,16.768
15:12:20:372,14.839,-0.222,0.164,-0.124,3.394,125.460,18.567
15:12:20:372,14.839,-0.291,0.198,-0.201,4.948,125.369,19.905
15:12:20:372,14.840,-0.393,0.107,-0.236,7.945,124.585,22.069
15:12:20:397,14.865,-0.399,0.150,-0.164,11.904,123.052,24.384
15:12:20:397,14.865,-0.441,0.145,-0.259,15.055,121.913,25.975
15:12:20:398,14.866,-0.380,0.138,0.039,19.217,121.968,29.415
15:12:20:399,14.867,-0.313,-0.208,-0.020,21.730,122.595,31.716
15:12:20:423,14.891,-0.197,-0.631,-0.074,25.104,122.943,34.188
15:12:20:424,14.891,0.025,-0.761,0.005,27.051,123.308,35.049
15:12:20:424,14.892,-0.134,-0.601,-0.126,27.487,123.100,34.286
15:12:20:425,14.893,-0.282,-0.648,-0.154,25.875,123.873,32.264
15:12:20:444,14.911,-0.136,-0.401,-0.218,24.286,124.507,30.263
15:12:20:444,14.911,-0.201,-0.253,-0.092,21.581,125.922,26.580
15:12:20:473,14.940,-0.343,-0.185,-0.069,19.402,127.321,23.805
15:12:20:473,14.941,-0.242,0.058,0.106,15.861,130.324,19.441
15:12:20:524,14.992,-0.211,0.106,0.231,10.260,136.027,11.906
15:12:20:525,14.992,-0.032,0.157,0.312,7.139,139.643,7.428
15:12:20:525,14.993,-0.022,0.175,0.359,5.047,142.033,4.472
15:12:20:544,15.012,0.090,0.207,0.332,1.912,145.498,0.005
15:12:20:571,15.038,0.188,0.235,0.232,-1.032,148.734,-4.459
15:12:20:684,15.152,0.275,0.205,0.210,-2.981,151.136,-7.414
15:12:20:685,15.153,0.306,0.217,0.196,-5.761,155.549,-11.857
15:12:20:686,15.154,0.349,0.204,0.182,-7.268,158.954,-14.901
15:12:20:687,15.154,0.496,0.097,0.178,-8.833,164.222,-19.245
15:12:20:76,15.227,0.829,-0.108,0.167,-9.665,167.597,-21.776
15:12:20:761,15.228,0.925,-0.227,0.141,-10.910,170.829,-24.810
15:12:20:761,15.229,0.608,-0.131,0.017,-12.091,172.194,-25.759
15:12:20:811,15.279,0.570,0.019,-0.173,-12.309,172.458,-25.089
15:12:20:812,15.279,0.243,-0.051,-0.328,-11.590,172.337,-22.339
15:12:20:947,15.415,-0.485,0.178,-0.101,-10.492,172.393,-20.314
15:12:20:948,15.416,-0.035,0.068,-0.269,-8.934,173.302,-18.470
15:12:20:949,15.416,0.291,0.006,-0.107,-8.125,173.812,-16.644
15:12:20:95,15.417,0.290,0.074,-0.074,-7.984,173.559,-15.337
15:12:20:969,15.437,-0.059,-0.007,-0.022,-8.251,173.082,-13.362
15:12:20:969,15.437,-0.050,-0.076,0.089,-8.232,173.550,-12.252
15:12:21:05,15.518,0.122,-0.092,0.158,-8.097,174.771,-10.832
15:12:21:05,15.518,0.089,-0.004,0.017,-8.101,175.911,-9.792
15:12:21:051,15.518,0.142,0.006,-0.015,-7.887,177.012,-8.306
15:12:21:099,15.566,0.041,0.012,-0.012,-7.688,177.687,-6.777
15:12:21:099,15.567,0.001,-0.007,0.001,-7.552,177.951,-5.843
15:12:21:263,15.730,0.051,0.001,-0.063,-7.508,178.638,-4.529
15:12:21:264,15.731,0.095,0.006,-0.090,-7.459,178.873,-3.666
15:12:21:264,15.732,0.055,0.013,-0.031,-7.416,178.976,-2.498
15:12:21:265,15.733,0.023,0.001,0.032,-7.396,178.890,-1.560
15:12:21:289,15.756,0.039,0.004,-0.024,-7.281,178.876,-1.074
15:12:21:289,15.756,0.031,0.005,0.013,-7.181,179.017,-0.448
15:12:21:289,15.756,0.012,-0.002,-0.014,-7.147,179.035,-0.104
15:12:21:335,15.803,0.021,-0.009,-0.015,-7.103,179.214,0.359
15:12:21:336,15.804,-0.013,-0.011,-0.029,-7.093,179.191,0.740
15:12:21:392,15.860,-0.025,-0.011,-0.009,-7.091,179.224,0.958
15:12:21:393,15.860,0.018,0.001,0.011,-7.135,179.398,1.304
15:12:21:393,15.860,0.008,0.003,0.009,-7.144,179.521,1.535
15:12:21:44,15.907,-0.005,0.005,0.014,-7.090,179.594,1.860
15:12:21:44,15.908,-0.012,0.007,0.006,-7.014,179.545,2.091
15:12:21:493,15.960,-0.019,0.006,0.046,-6.847,179.653,2.469
15:12:21:493,15.961,0.007,0.000,0.000,-6.513,179.622,2.930
15:12:21:547,16.015,-0.031,-0.001,0.008,-6.205,179.552,3.279
15:12:21:548,16.016,-0.022,0.003,-0.010,-5.682,179.384,3.823
15:12:21:626,16.094,0.001,-0.008,0.002,-5.326,179.342,4.222
15:12:21:627,16.095,-0.028,0.006,-0.006,-4.775,179.233,4.859
15:12:21:628,16.095,-0.019,0.002,0.007,-4.219,179.093,5.527
15:12:21:735,16.202,-0.008,0.000,0.012,-3.781,179.110,6.040
15:12:21:736,16.203,-0.030,0.023,0.013,-3.028,179.128,6.878
15:12:21:736,16.204,-0.018,0.044,0.018,-2.480,179.179,7.463
15:12:21:737,16.205,-0.023,0.053,0.034,-1.482,179.352,8.402
15:12:21:782,16.250,-0.075,0.134,0.076,-0.668,179.826,9.043
15:12:21:783,16.250,-0.117,0.125,0.128,0.765,-179.820,10.068
15:12:21:835,16.302,-0.173,0.194,0.095,2.424,-179.565,11.288
15:12:21:835,16.303,-0.154,0.146,0.072,3.656,-179.514,12.227
15:12:21:915,16.383,-0.183,0.137,0.146,5.751,-179.430,13.841
15:12:21:916,16.384,-0.170,0.109,0.188,7.331,-179.429,15.096
15:12:21:917,16.385,-0.214,0.089,0.277,9.995,-179.712,17.145
15:12:21:965,16.433,-0.158,0.069,0.248,13.115,179.367,19.421
15:12:21:965,16.433,-0.258,0.092,0.269,15.500,178.372,20.889
15:12:21:988,16.456,-0.199,0.058,0.234,19.332,176.951,23.076
15:12:22:073,16.541,-0.172,0.098,0.205,21.585,176.309,24.671
15:12:22:073,16.541,-0.089,-0.360,0.070,24.385,175.541,26.741
15:12:22:074,16.542,-0.108,-0.538,-0.126,26.024,174.235,27.124
15:12:22:123,16.590,-0.318,-0.612,0.038,25.702,174.209,26.861
15:12:22:123,16.591,-0.214,-0.496,0.032,23.644,174.477,25.568
15:12:22:235,16.703,-0.117,-0.366,0.017,21.583,174.835,24.274
15:12:22:235,16.703,-0.366,-0.159,-0.018,18.124,174.895,21.653
15:12:22:236,16.703,-0.227,-0.036,-0.008,16.132,175.026,19.710
15:12:22:236,16.703,-0.089,0.060,-0.025,13.552,175.286,16.227
15:12:22:309,16.777,-0.169,0.054,0.083,10.797,176.271,12.486
15:12:22:31,16.777,-0.168,0.099,0.120,8.901,177.275,10.133
15:12:22:311,16.778,-0.102,0.120,0.042,5.976,179.633,6.969
15:12:22:33,16.797,-0.004,0.153,0.086,3.828,-178.075,5.102
15:12:22:385,16.853,0.093,0.204,0.036,0.733,-173.923,2.201
15:12:22:386,16.853,0.160,0.200,0.084,-1.890,-169.530,-1.026
15:12:22:409,16.877,0.201,0.204,0.047,-3.391,-166.586,-3.374
15:12:22:435,16.902,0.372,0.025,-0.031,-5.302,-162.683,-7.011
15:12:22:46,16.928,0.395,0.109,-0.144,-6.583,-160.312,-9.389
15:12:22:518,16.985,0.403,0.039,-0.208,-8.189,-158.039,-12.906
15:12:22:518,16.986,0.392,0.003,-0.174,-9.247,-156.824,-15.046
15:12:22:54,17.007,0.418,-0.045,-0.196,-10.870,-155.983,-17.907
15:12:22:568,17.036,0.425,-0.084,-0.211,-12.533,-155.686,-20.163
15:12:22:593,17.060,0.448,-0.127,-0.228,-13.719,-156.050,-21.226
15:12:22:618,17.086,0.464,-0.158,-0.248,-15.632,-157.352,-22.128
15:12:22:701,17.169,0.430,-0.157,-0.243,-16.960,-158.823,-22.208
15:12:22:702,17.169,0.357,-0.117,-0.238,-18.931,-161.970,-21.471
15:12:22:756,17.223,0.259,-0.115,-0.294,-20.379,-165.783,-19.812
15:12:22:757,17.224,0.232,-0.085,-0.311,-20.911,-168.367,-18.348
15:12:22:757,17.225,0.232,-0.031,-0.310,-21.220,-171.981,-15.750
15:12:22:805,17.272,-0.119,0.279,-0.027,-21.079,-174.148,-13.709
15:12:22:805,17.273,-0.179,0.154,-0.123,-20.136,-177.082,-10.426
15:12:22:858,17.326,-0.634,0.185,0.284,-18.612,-178.217,-7.815
15:12:22:859,17.326,-1.461,0.219,0.653,-17.957,-177.228,-7.234
15:12:22:881,17.348,0.551,-0.130,-0.639,-17.026,-175.339,-6.959
15:12:22:907,17.375,0.434,-0.038,-0.214,-16.687,-174.685,-6.117
15:12:22:934,17.401,0.011,-0.055,-0.044,-16.413,-173.630,-4.885
15:12:22:961,17.428,0.090,-0.002,0.043,-16.315,-172.366,-4.213
15:12:22:986,17.453,0.198,0.035,-0.037,-16.086,-170.546,-3.494
15:12:23:042,17.510,0.089,0.022,-0.075,-15.424,-170.537,-2.709
15:12:23:042,17.510,-0.016,-0.026,-0.123,-15.018,-171.438,-2.101
15:12:23:065,17.532,-0.051,-0.039,-0.049,-14.727,-171.457,-1.614
15:12:23:091,17.558,0.028,0.003,0.011,-14.778,-170.693,-1.493
15:12:23:146,17.613,0.097,0.056,0.014,-14.948,-169.284,-1.283
15:12:23:147,17.614,0.060,0.044,0.076,-14.708,-169.364,-0.897
15:12:23:171,17.638,-0.004,0.014,0.049,-14.283,-169.772,-0.554
15:12:23:226,17.694,0.000,-0.009,-0.009,-13.537,-170.521,0.046
15:12:23:227,17.694,-0.014,-0.028,-0.035,-12.871,-170.880,0.717
15:12:23:248,17.716,-0.016,0.004,0.021,-12.515,-171.079,1.194
15:12:23:274,17.742,0.013,-0.007,-0.021,-11.844,-171.126,1.984
15:12:23:33,17.797,-0.004,0.009,0.006,-11.353,-171.487,2.507
15:12:23:331,17.798,-0.084,-0.001,0.004,-10.634,-171.688,3.317
15:12:23:353,17.821,-0.020,-0.004,-0.005,-10.187,-171.714,3.927
15:12:23:44,17.907,0.039,0.012,0.025,-9.547,-172.043,4.857
15:12:23:44,17.908,-0.034,-0.001,-0.024,-8.801,-172.213,5.758
15:12:23:44,17.908,-0.045,-0.010,0.022,-8.295,-172.265,6.384
15:12:23:489,17.956,0.025,0.012,-0.034,-7.640,-172.136,7.359
15:12:23:489,17.956,0.006,0.017,-0.034,-7.260,-172.093,7.994
15:12:23:511,17.978,-0.040,0.021,-0.014,-6.690,-172.211,8.915
15:12:23:537,18.004,-0.031,0.039,0.027,-6.114,-172.171,9.916
15:12:23:563,18.030,-0.051,0.046,0.017,-5.658,-172.174,10.671
15:12:23:59,18.057,-0.018,0.074,0.039,-4.782,-172.162,11.869
15:12:23:618,18.085,-0.074,0.094,0.011,-4.071,-172.269,12.698
15:12:23:643,18.110,-0.160,0.153,0.055,-2.748,-172.572,13.984
15:12:23:727,18.195,-0.117,0.151,0.059,-1.698,-172.603,14.890
15:12:23:728,18.195,-0.178,0.163,0.090,0.076,-172.601,16.426
15:12:23:728,18.196,-0.177,0.140,0.134,2.143,-172.581,18.154
15:12:23:861,18.329,-0.190,0.154,0.201,3.542,-172.650,19.217
15:12:23:862,18.329,-0.178,0.107,0.236,6.252,-173.272,21.319
15:12:23:863,18.330,-0.268,0.033,0.319,8.353,-174.225,22.774
15:12:23:864,18.331,-0.164,0.096,0.256,11.737,-175.948,25.209
15:12:23:886,18.353,-0.124,0.165,0.282,15.271,-177.560,27.995
15:12:23:886,18.353,-0.147,0.052,0.316,17.737,-178.575,29.868
15:12:23:886,18.353,-0.120,-0.257,0.227,21.258,179.757,32.286
15:12:24:072,18.539,-0.335,-0.706,0.098,23.315,177.977,32.810
15:12:24:072,18.540,-0.234,-0.522,-0.008,25.597,174.539,32.081
15:12:24:073,18.540,-0.447,-0.601,-0.045,25.963,171.517,29.934
15:12:24:074,18.541,-0.311,-0.495,-0.153,25.177,170.183,28.089
15:12:24:123,18.591,-0.343,-0.313,-0.056,22.708,169.199,25.035
15:12:24:124,18.592,-0.385,-0.248,-0.026,20.289,169.224,22.863
15:12:24:125,18.593,-0.280,0.017,-0.101,16.227,170.152,19.598
15:12:24:143,18.611,-0.172,0.178,-0.011,10.146,172.090,13.528
15:12:24:144,18.612,-0.113,0.163,-0.037,7.303,173.057,9.527
15:12:24:254,18.722,-0.113,0.121,-0.011,5.481,173.696,6.893
15:12:24:255,18.722,-0.058,0.144,-0.056,2.631,175.017,3.044
15:12:24:256,18.723,-0.077,0.151,-0.041,0.668,176.286,0.447
15:12:24:256,18.724,-0.005,0.198,-0.061,-2.263,179.001,-3.498
15:12:24:272,18.739,0.177,0.195,-0.102,-4.846,-177.507,-7.618
15:12:24:327,18.795,0.255,0.204,-0.133,-6.503,-174.929,-10.325
15:12:24:328,18.796,0.408,0.060,-0.135,-8.191,-170.672,-14.755
15:12:24:351,18.818,0.495,0.079,-0.195,-8.857,-167.731,-17.628
15:12:24:435,18.903,0.654,-0.061,-0.174,-9.584,-163.417,-21.358
15:12:24:436,18.904,0.904,-0.197,-0.273,-9.882,-161.147,-23.391
15:12:24:437,18.904,0.858,-0.255,-0.338,-10.773,-160.031,-24.929
15:12:24:543,19.011,0.573,-0.199,-0.299,-11.459,-160.797,-24.655
15:12:24:544,19.012,0.456,0.364,-0.333,-11.386,-161.243,-23.434
15:12:24:545,19.012,-0.110,-0.018,0.038,-10.090,-161.817,-20.509
15:12:24:546,19.013,-0.567,0.234,0.063,-9.221,-161.681,-19.014
15:12:24:619,19.086,0.105,0.177,-0.289,-8.155,-161.292,-16.872
15:12:24:62,19.087,0.198,0.026,0.017,-7.269,-161.280,-14.436
15:12:24:621,19.088,0.404,-0.375,-0.291,-7.141,-162.146,-12.696
15:12:24:727,19.195,0.067,0.265,-0.455,-7.728,-160.761,-10.105
15:12:24:728,19.195,0.210,-0.074,-0.152,-7.346,-159.640,-9.159
15:12:24:729,19.196,0.182,-0.014,-0.086,-7.420,-158.674,-7.823
15:12:24:729,19.197,-0.019,0.017,-0.064,-7.657,-159.108,-6.380
15:12:24:747,19.214,-0.005,0.010,-0.020,-7.973,-159.228,-5.555
15:12:24:772,19.239,0.063,0.014,0.063,-8.475,-159.093,-4.511
15:12:24:798,19.266,0.022,-0.005,0.039,-8.737,-158.898,-3.933
15:12:24:823,19.291,0.046,-0.010,0.005,-9.004,-158.398,-3.172
15:12:24:85,19.317,0.081,0.005,-0.014,-9.193,-158.117,-2.702
15:12:24:876,19.343,0.029,-0.010,-0.090,-9.442,-158.263,-2.151
15:12:24:902,19.370,-0.007,0.005,-0.029,-9.826,-158.591,-1.856
15:12:24:957,19.425,-0.014,0.005,0.021,-10.042,-158.584,-1.733
15:12:24:958,19.426,-0.010,0.012,0.037,-10.218,-158.350,-1.515
15:12:24:981,19.448,0.013,0.017,0.076,-10.261,-158.297,-1.256
15:12:25:007,19.475,-0.067,0.011,0.049,-10.014,-158.501,-0.648
15:12:25:033,19.501,-0.024,-0.002,0.032,-9.455,-158.473,0.214
15:12:25:061,19.529,0.028,-0.004,-0.027,-8.989,-158.664,0.772
15:12:25:144,19.612,-0.006,-0.011,-0.043,-8.302,-158.473,1.495
15:12:25:149,19.616,0.035,-0.004,-0.067,-7.455,-158.822,2.655
15:12:25:165,19.633,0.033,-0.005,-0.064,-7.244,-159.030,3.036
15:12:25:193,19.661,-0.063,-0.009,-0.021,-7.039,-159.276,3.551
15:12:25:218,19.686,-0.022,0.009,0.049,-6.912,-159.479,4.175
15:12:25:244,19.711,0.022,0.011,0.074,-6.777,-159.406,4.675
15:12:25:269,19.737,-0.059,0.017,0.023,-6.414,-159.469,5.558
15:12:25:296,19.763,-0.033,0.036,0.005,-6.139,-159.479,6.234
15:12:25:322,19.790,-0.014,0.038,0.009,-5.636,-159.503,7.396
15:12:25:349,19.817,-0.035,0.052,0.005,-4.883,-159.561,8.631
15:12:25:375,19.842,-0.087,0.047,-0.006,-4.249,-159.531,9.489
15:12:25:401,19.868,-0.016,0.092,0.095,-3.190,-159.355,10.860
15:12:25:427,19.894,-0.126,0.161,0.091,-2.402,-159.277,11.749
15:12:25:453,19.921,-0.152,0.177,0.104,-0.937,-159.208,13.200
15:12:25:509,19.976,-0.149,0.190,0.156,0.256,-159.016,14.290
15:12:25:509,19.977,-0.175,0.064,0.146,2.336,-158.674,16.161
15:12:25:561,20.029,-0.157,0.122,0.246,4.817,-158.411,18.357
15:12:25:562,20.030,-0.125,0.116,0.232,6.735,-158.472,19.946
15:12:25:615,20.083,-0.271,0.086,0.373,10.089,-159.326,22.345
15:12:25:616,20.083,-0.208,0.118,0.251,13.990,-160.471,24.975
15:12:25:695,20.163,-0.120,0.223,0.293,16.727,-160.926,27.067
15:12:25:696,20.163,-0.078,0.047,0.341,20.665,-160.983,30.520
15:12:25:697,20.164,-0.108,-0.544,0.360,22.995,-161.205,32.501
15:12:25:716,20.183,-0.232,-0.726,0.316,25.944,-162.725,33.486
15:12:25:742,20.210,-0.308,-0.617,0.190,27.803,-165.301,32.438
15:12:25:768,20.236,-0.414,-0.592,0.237,27.632,-166.601,31.039
15:12:25:795,20.262,-0.301,-0.508,0.111,26.080,-167.896,28.023
15:12:25:85,20.318,-0.326,-0.384,0.181,24.263,-168.338,25.569
15:12:25:851,20.318,-0.356,-0.167,0.145,20.394,-167.932,21.588
15:12:25:932,20.400,-0.230,0.058,0.112,17.412,-166.662,19.023
15:12:25:932,20.400,-0.131,0.111,0.186,13.030,-163.714,15.145
15:12:25:933,20.401,-0.015,0.150,0.195,9.102,-159.657,10.961
15:12:25:953,20.421,0.049,0.168,0.200,6.676,-156.338,8.051
15:12:25:978,20.446,0.181,0.233,0.171,3.305,-150.804,3.523
15:12:26:004,20.472,0.245,0.302,0.161,1.303,-146.813,0.391
15:12:26:06,20.527,0.291,0.333,0.015,-1.167,-140.883,-4.494
15:12:26:06,20.528,0.517,-0.031,-0.324,-3.213,-135.704,-9.261
15:12:26:084,20.551,0.497,0.355,-0.539,-4.548,-132.295,-12.414
15:12:26:11,20.577,0.631,-0.031,-0.458,-5.557,-128.060,-17.530
15:12:26:136,20.603,0.619,-0.095,-0.749,-6.388,-125.988,-20.404
15:12:26:196,20.664,0.557,-0.184,-0.806,-7.952,-125.162,-23.309
15:12:26:197,20.664,0.331,-0.204,-0.723,-9.287,-125.923,-24.216
15:12:26:197,20.664,0.311,0.046,-0.708,-9.531,-126.442,-23.743
15:12:26:216,20.684,0.008,-0.155,-0.461,-9.181,-126.749,-21.092
15:12:26:242,20.710,-0.200,0.046,0.028,-8.181,-126.203,-19.074
15:12:26:298,20.766,-0.301,0.156,0.436,-6.455,-123.611,-16.904
15:12:26:299,20.766,-0.068,0.245,-0.232,-5.390,-121.349,-15.647
15:12:26:379,20.847,0.161,0.077,-0.268,-4.300,-118.309,-13.310
15:12:26:379,20.847,0.258,0.268,-0.576,-4.910,-117.574,-11.043
15:12:26:38,20.847,-0.287,0.039,-0.190,-5.535,-116.742,-9.749
15:12:26:399,20.867,-0.004,-0.022,-0.213,-5.966,-115.848,-8.584
15:12:26:484,20.951,0.105,0.000,0.017,-6.266,-115.931,-8.126
15:12:26:484,20.951,0.019,-0.020,0.090,-6.866,-116.773,-7.130
15:12:26:484,20.952,-0.051,0.017,-0.001,-7.451,-117.461,-5.900
15:12:26:534,21.002,-0.043,-0.026,0.071,-7.776,-117.426,-5.186
15:12:26:535,21.002,0.040,0.018,0.040,-8.431,-116.602,-4.189
15:12:26:585,21.053,0.101,0.002,-0.028,-8.793,-115.908,-3.507
15:12:26:585,21.053,0.009,0.011,0.008,-8.981,-115.365,-2.480
15:12:26:639,21.106,0.010,0.016,-0.018,-8.959,-115.041,-1.782
15:12:26:639,21.106,0.033,0.015,-0.048,-8.833,-114.429,-0.791
15:12:26:661,21.128,0.057,0.023,0.013,-8.640,-113.361,0.103
15:12:26:687,21.155,0.032,0.002,-0.035,-8.395,-113.404,0.730
15:12:26:793,21.261,-0.029,-0.010,0.006,-7.992,-113.194,1.612
15:12:26:828,21.295,-0.027,-0.014,0.023,-7.746,-113.325,2.196
15:12:26:828,21.295,0.010,-0.015,0.015,-7.411,-112.808,3.089
15:12:26:829,21.296,-0.001,0.003,-0.016,-7.017,-112.524,3.963
15:12:26:83,21.297,-0.032,-0.007,-0.032,-6.719,-112.063,4.547
15:12:26:874,21.341,-0.012,0.001,-0.023,-6.340,-111.878,5.368
15:12:26:874,21.342,0.014,0.002,0.024,-6.091,-111.824,5.912
15:12:26:926,21.393,0.006,0.005,-0.017,-5.681,-111.814,6.740
15:12:26:927,21.394,-0.025,0.016,-0.036,-5.311,-111.901,7.554
15:12:26:95,21.418,-0.020,0.022,0.016,-5.138,-112.030,8.060
15:12:26:976,21.444,-0.028,0.008,0.046,-4.892,-112.166,8.833
15:12:27:06,21.528,-0.030,0.031,0.066,-4.681,-112.168,9.438
15:12:27:061,21.529,-0.029,0.041,0.039,-4.234,-112.042,10.500
15:12:27:062,21.529,-0.025,0.038,0.055,-3.861,-111.952,11.291
15:12:27:081,21.548,0.004,0.095,0.087,-3.152,-111.795,12.573
15:12:27:166,21.633,0.002,0.195,0.159,-2.184,-111.802,13.946
15:12:27:166,21.634,-0.015,0.200,0.188,-1.375,-111.753,14.947
15:12:27:167,21.635,-0.025,0.125,0.195,0.115,-111.688,16.577
15:12:27:186,21.653,0.031,0.151,0.220,1.342,-111.643,17.778
15:12:27:213,21.681,0.004,0.105,0.226,3.522,-111.688,19.830
15:12:27:294,21.762,-0.005,0.114,0.358,6.324,-112.306,22.040
15:12:27:295,21.763,0.065,0.085,0.495,8.596,-113.104,23.594
15:12:27:458,21.925,0.119,0.113,0.359,12.506,-114.400,26.210
15:12:27:458,21.926,0.106,0.223,0.415,15.387,-114.914,28.283
15:12:27:459,21.927,0.190,0.194,0.330,19.301,-114.339,32.200
15:12:27:46,21.927,0.153,-0.286,0.346,21.657,-113.646,34.869
15:12:27:476,21.943,0.111,-0.546,0.292,24.770,-113.531,37.771
15:12:27:616,22.083,-0.049,-0.610,0.279,27.124,-113.523,38.377
15:12:27:617,22.084,-0.194,-0.788,0.556,27.575,-113.893,37.566
15:12:27:617,22.085,-0.324,-0.580,0.276,27.400,-114.523,34.816
15:12:27:618,22.086,-0.163,-0.539,0.302,26.685,-115.532,32.236
15:12:27:668,22.135,-0.174,-0.485,0.421,24.238,-116.769,27.273
15:12:27:668,22.136,-0.275,-0.218,0.434,20.463,-118.077,21.745
15:12:27:669,22.137,-0.206,-0.031,0.378,17.447,-118.294,18.096
15:12:27:67,22.138,-0.100,0.096,0.310,12.763,-117.467,12.621
15:12:27:72,22.187,0.059,0.206,0.148,9.704,-116.030,8.800
15:12:27:72,22.188,0.268,0.306,0.063,5.244,-113.124,2.487
15:12:27:721,22.189,0.344,0.581,-0.153,2.407,-110.955,-2.014
15:12:27:722,22.189,0.193,0.030,-0.832,-1.537,-107.633,-8.415
15:12:27:738,22.206,0.235,0.171,-0.943,-4.652,-103.632,-13.696
15:12:27:878,22.346,0.130,0.211,-0.834,-6.067,-99.840,-16.755
15:12:27:879,22.347,-0.007,-0.182,-1.128,-6.616,-93.135,-19.962
15:12:27:88,22.347,0.035,-0.202,-1.300,-6.237,-88.919,-20.899
15:12:27:88,22.348,-0.070,-0.113,-0.860,-5.682,-85.487,-19.887
15:12:27:897,22.365,-0.028,0.106,0.208,-4.909,-84.093,-17.084
15:12:27:898,22.366,0.074,0.172,0.465,-4.050,-82.826,-15.357
15:12:27:921,22.389,-0.290,0.007,-0.284,-3.314,-81.575,-12.810
15:12:27:978,22.446,-0.134,-0.012,-0.382,-3.291,-80.763,-11.042
15:12:27:979,22.446,-0.198,-0.285,-0.159,-3.814,-81.144,-8.829
15:12:28:057,22.524,-0.046,0.071,-0.186,-5.140,-79.662,-6.887
15:12:28:057,22.525,-0.084,0.015,-0.197,-5.309,-78.720,-5.889
15:12:28:14,22.608,-0.051,-0.008,0.061,-5.958,-78.872,-4.320
15:12:28:14,22.608,0.151,-0.005,0.029,-6.327,-79.044,-3.135
15:12:28:141,22.608,-0.080,-0.011,-0.075,-6.771,-78.735,-1.398
15:12:28:142,22.609,0.008,0.020,-0.066,-7.041,-78.185,-0.485
15:12:28:24,22.708,0.038,-0.003,-0.067,-7.506,-77.609,0.608
15:12:28:241,22.708,0.002,0.011,-0.037,-7.800,-77.419,1.493
15:12:28:292,22.760,-0.019,-0.004,-0.011,-7.963,-77.392,1.974
15:12:28:344,22.811,0.025,-0.004,0.018,-8.191,-77.456,2.617
15:12:28:534,23.002,0.003,-0.010,-0.038,-8.328,-77.384,3.028
15:12:28:535,23.003,-0.010,-0.011,0.008,-8.462,-76.786,3.640
15:12:28:536,23.003,0.019,0.008,0.042,-8.496,-77.085,4.289
15:12:28:537,23.004,0.008,-0.009,0.028,-8.507,-76.610,4.754
15:12:28:605,23.073,-0.002,0.001,-0.007,-8.556,-76.521,5.433
15:12:28:641,23.108,0.021,0.004,0.016,-8.572,-75.842,5.877
15:12:28:641,23.109,0.032,0.012,0.013,-8.521,-75.853,6.560
15:12:28:641,23.109,-0.008,0.000,0.005,-8.424,-75.668,7.059
15:12:28:642,23.109,-0.019,-0.008,0.022,-8.254,-75.840,7.835
15:12:28:718,23.185,-0.012,-0.001,0.033,-8.059,-75.754,8.617
15:12:28:718,23.186,-0.004,-0.008,0.033,-7.902,-75.901,9.155
15:12:28:719,23.187,0.019,0.003,0.034,-7.619,-75.835,10.002
15:12:28:72,23.187,0.005,0.001,0.019,-7.404,-75.967,10.675
15:12:28:744,23.211,-0.003,0.021,-0.002,-7.036,-75.819,11.821
15:12:28:745,23.212,-0.015,0.032,0.038,-6.603,-75.908,12.959
15:12:28:746,23.213,0.010,0.061,0.075,-6.277,-76.091,13.736
15:12:28:746,23.213,-0.011,0.098,0.059,-5.746,-76.196,14.934
15:12:28:763,23.231,0.031,0.116,0.080,-5.346,-76.414,15.772
15:12:29:111,23.579,0.034,0.118,0.097,-4.556,-76.529,17.082
15:12:29:112,23.580,0.068,0.124,0.147,-3.521,-76.873,18.437
15:12:29:113,23.580,0.073,0.084,0.155,-2.737,-76.940,19.120
15:12:29:114,23.581,0.068,0.095,0.134,-1.271,-77.309,20.472
15:12:29:14,23.607,0.113,0.164,0.219,0.010,-77.760,21.669
15:12:29:14,23.607,0.176,0.133,0.335,2.490,-78.958,23.653
15:12:29:14,23.607,0.235,0.058,0.454,4.541,-80.123,25.137
15:12:29:14,23.608,0.200,0.214,0.367,8.068,-81.671,27.847
15:12:29:165,23.633,0.283,0.276,0.177,12.033,-82.291,31.143
15:12:29:166,23.633,0.349,0.136,0.117,14.589,-81.981,33.637
15:12:29:166,23.633,0.233,-0.180,0.131,18.013,-81.260,37.228
15:12:29:166,23.633,0.224,-0.650,0.227,20.201,-81.031,38.883
15:12:29:216,23.684,0.081,-0.794,0.242,22.782,-81.642,39.582
15:12:29:217,23.685,0.014,-0.566,0.176,24.039,-82.490,38.703
15:12:29:218,23.685,-0.002,-0.567,0.285,23.400,-82.679,37.454
15:12:29:219,23.686,-0.196,-0.383,0.221,21.581,-82.679,34.442
15:12:29:366,23.834,0.094,-0.280,0.235,20.397,-82.921,31.738
15:12:29:401,23.868,0.191,-0.165,0.285,18.002,-83.414,27.028
15:12:29:402,23.869,0.137,0.062,0.249,15.938,-83.189,23.891
15:12:29:403,23.870,0.182,0.129,0.223,12.603,-82.129,19.361
15:12:29:403,23.871,0.164,0.115,0.216,9.547,-80.683,14.860
15:12:29:445,23.913,0.130,0.066,0.171,7.623,-79.280,11.840
15:12:29:5,23.968,0.196,0.128,0.041,4.594,-76.515,7.330
15:12:29:501,23.968,0.192,0.147,-0.035,2.412,-74.420,4.239
15:12:29:557,24.025,0.080,0.276,-0.101,-1.035,-71.120,-0.559
15:12:29:558,24.026,-0.118,0.519,-0.329,-4.309,-68.233,-5.150
15:12:29:559,24.027,-0.250,0.059,-0.556,-6.125,-66.473,-8.313
15:12:29:56,24.027,-0.579,-0.007,-0.809,-8.478,-64.515,-12.978
15:12:29:611,24.078,-0.533,0.042,-0.615,-9.893,-63.605,-15.938
15:12:29:611,24.079,-0.804,-0.132,-0.802,-11.857,-63.150,-19.302
15:12:29:612,24.080,-0.646,-0.030,-0.730,-13.163,-64.587,-20.038
15:12:29:613,24.080,-0.563,-0.148,-0.680,-13.133,-66.617,-19.019
15:12:29:69,24.157,0.677,0.074,0.602,-12.488,-70.045,-17.012
15:12:29:69,24.157,-0.309,0.242,0.131,-12.505,-72.267,-15.839
15:12:29:69,24.158,-0.034,0.012,-0.127,-11.771,-73.250,-13.691
15:12:29:691,24.159,-0.130,-0.041,0.093,-11.489,-73.378,-12.439
15:12:29:794,24.261,-0.077,-0.013,-0.152,-11.400,-73.048,-10.501
15:12:29:794,24.262,-0.066,0.024,0.017,-11.544,-71.737,-8.685
15:12:29:795,24.262,-0.027,0.002,-0.133,-11.525,-71.000,-7.502
15:12:29:819,24.287,0.037,0.007,-0.137,-11.420,-70.521,-5.747
15:12:29:82,24.287,-0.003,0.006,-0.016,-11.170,-70.439,-4.596
15:12:29:82,24.287,-0.101,-0.023,-0.052,-10.941,-70.403,-3.099
15:12:29:84,24.307,-0.045,-0.002,0.031,-10.880,-70.304,-1.890
15:12:29:841,24.308,-0.020,0.003,-0.039,-10.982,-70.090,-1.240
15:12:29:923,24.391,-0.045,-0.008,-0.079,-11.239,-69.618,-0.499
15:12:29:923,24.391,-0.004,0.006,-0.028,-11.400,-69.410,-0.134
15:12:29:924,24.391,0.006,0.002,-0.009,-11.573,-69.135,0.339
15:12:30:049,24.517,0.038,0.005,-0.048,-11.657,-69.054,0.648
15:12:30:085,24.552,0.020,0.002,-0.008,-11.701,-69.128,1.091
15:12:30:085,24.552,0.056,0.016,0.040,-11.605,-69.446,1.630
15:12:30:085,24.552,0.043,0.012,0.014,-11.488,-69.614,2.070
15:12:30:085,24.553,0.032,-0.003,-0.004,-11.219,-69.904,2.835
15:12:30:371,24.839,0.022,0.002,0.010,-10.996,-70.100,3.369
15:12:30:372,24.840,0.032,-0.002,0.009,-10.631,-70.311,4.136
15:12:30:373,24.841,0.030,-0.002,0.014,-10.265,-70.567,4.873
15:12:30:374,24.841,0.050,0.008,0.018,-10.038,-70.701,5.391
15:12:30:445,24.912,0.054,-0.001,0.048,-9.653,-71.084,6.202
15:12:30:445,24.913,-0.013,0.010,0.001,-9.340,-71.210,6.828
15:12:30:478,24.945,-0.022,0.009,0.007,-8.745,-71.628,7.965
15:12:30:478,24.945,-0.001,0.004,0.028,-8.306,-71.921,8.716
15:12:30:478,24.945,-0.011,0.006,0.024,-7.627,-72.303,9.851
15:12:30:479,24.946,0.007,0.006,-0.014,-6.885,-72.656,10.984
15:12:30:495,24.962,-0.011,0.031,0.027,-6.344,-72.980,11.738
15:12:30:527,24.995,-0.026,0.068,0.052,-5.453,-73.444,12.800
15:12:30:527,24.995,-0.017,0.064,0.057,-4.845,-73.768,13.505
15:12:30:528,24.996,0.032,0.077,0.078,-3.865,-74.125,14.587
15:12:30:556,25.023,0.113,0.094,0.087,-2.719,-74.403,15.628
15:12:30:557,25.024,0.160,0.140,0.129,-1.779,-74.520,16.493
15:12:30:558,25.025,0.105,0.109,0.154,-0.065,-74.594,18.000
15:12:30:558,25.026,0.136,0.136,0.219,1.269,-74.719,19.190
15:12:30:66,25.128,0.224,0.124,0.281,3.579,-74.996,21.275
15:12:30:661,25.128,0.449,0.121,0.408,6.456,-75.590,23.769
15:12:30:661,25.129,0.501,0.090,0.468,8.729,-76.037,25.767
15:12:30:662,25.130,0.383,0.279,0.304,12.228,-76.274,29.511
15:12:30:684,25.151,0.474,0.367,0.232,14.988,-76.355,32.273
15:12:30:684,25.151,0.480,0.121,0.293,19.803,-76.058,36.219
15:12:30:684,25.152,0.227,-0.324,0.036,22.860,-75.956,38.546
15:12:30:704,25.171,0.424,-0.474,0.464,26.530,-76.632,40.503
15:12:30:788,25.255,-0.036,-0.378,0.019,29.459,-79.167,39.620
15:12:30:788,25.256,0.093,-0.812,0.420,29.359,-80.575,38.175
15:12:30:789,25.257,-0.107,-0.648,0.437,27.485,-82.478,35.048
15:12:30:834,25.302,-0.159,-0.475,0.380,25.364,-83.098,32.626
15:12:30:914,25.382,0.039,-0.335,0.254,20.892,-83.045,28.694
15:12:31:107,25.574,0.079,-0.114,0.156,15.620,-82.266,24.222
15:12:31:108,25.575,0.089,0.022,0.101,12.060,-81.578,20.987
15:12:31:109,25.576,0.063,0.065,0.079,7.473,-80.752,15.828
15:12:31:109,25.577,-0.078,0.129,0.004,4.952,-80.466,12.224
15:12:31:202,25.670,-0.118,0.159,-0.065,1.590,-80.313,6.513
15:12:31:283,25.750,-0.016,0.227,-0.061,-0.596,-80.297,2.535
15:12:31:341,25.808,-0.040,0.207,-0.110,-4.058,-79.856,-3.308
15:12:31:341,25.809,-0.226,0.431,-0.186,-8.160,-78.531,-8.516
15:12:31:342,25.809,-0.456,0.378,-0.427,-10.834,-76.814,-11.849
15:12:31:369,25.836,-0.482,0.284,-0.599,-13.611,-72.730,-17.042
15:12:31:369,25.837,-0.586,0.167,-0.344,-14.688,-69.437,-20.352
15:12:31:37,25.838,-0.609,-0.281,-0.857,-14.971,-64.807,-24.311
15:12:31:371,25.838,-0.647,-0.287,-0.989,-14.739,-62.844,-25.522
15:12:31:395,25.862,-0.227,0.259,-0.562,-14.173,-63.268,-24.353
15:12:31:395,25.863,0.118,-0.112,-0.116,-13.140,-64.947,-21.116
15:12:31:396,25.864,0.408,0.160,0.405,-12.363,-65.619,-19.407
15:12:31:397,25.865,-0.291,0.182,0.225,-11.487,-66.347,-17.823
15:12:31:477,25.945,-0.028,0.046,-0.110,-10.519,-66.588,-15.634
15:12:31:478,25.945,-0.128,0.082,-0.153,-10.238,-66.865,-14.272
15:12:31:478,25.945,-0.056,-0.246,-0.487,-10.106,-67.123,-12.179
15:12:31:478,25.945,-0.183,-0.052,0.056,-10.260,-66.107,-10.972
15:12:31:499,25.967,-0.316,-0.029,-0.085,-10.309,-64.136,-9.671
15:12:31:5,25.967,-0.022,0.028,-0.221,-10.488,-63.594,-8.950
15:12:31:501,25.968,-0.015,-0.048,0.072,-10.659,-64.461,-7.582
15:12:31:502,25.969,0.009,-0.004,0.101,-10.903,-65.367,-6.153
15:12:31:631,26.099,0.074,0.040,0.082,-11.032,-65.024,-5.407
15:12:31:632,26.100,0.128,0.051,-0.174,-11.057,-64.013,-4.302
15:12:31:633,26.100,0.042,0.023,-0.113,-10.742,-63.899,-3.505
15:12:31:634,26.101,-0.003,0.004,0.073,-10.067,-64.157,-2.312
15:12:31:651,26.119,0.018,0.008,-0.002,-9.513,-63.861,-1.218
15:12:31:652,26.119,-0.024,-0.012,-0.066,-9.201,-63.521,-0.516
15:12:31:702,26.169,-0.093,-0.032,-0.038,-8.878,-63.361,0.415
15:12:31:732,26.199,0.014,0.001,0.022,-8.770,-63.460,0.909
15:12:31:732,26.199,0.041,0.010,0.018,-8.645,-63.381,1.585
15:12:31:753,26.221,0.058,0.008,-0.014,-8.509,-63.269,2.084
15:12:31:81,26.277,0.042,0.011,0.017,-8.137,-63.219,2.979
15:12:31:81,26.278,0.019,-0.005,0.036,-7.653,-63.186,3.943
15:12:31:833,26.300,0.004,0.002,-0.014,-7.335,-63.124,4.594
15:12:31:859,26.327,-0.011,-0.001,-0.022,-6.827,-63.052,5.531
15:12:31:943,26.410,-0.012,-0.017,0.011,-6.478,-63.145,6.152
15:12:31:943,26.411,-0.018,0.003,-0.012,-5.988,-63.106,7.046
15:12:32:109,26.577,-0.018,0.003,-0.004,-5.534,-63.358,7.894
15:12:32:109,26.577,0.000,0.016,-0.001,-5.259,-63.367,8.465
15:12:32:109,26.577,0.016,0.019,-0.011,-4.825,-63.677,9.380
15:12:32:11,26.577,0.033,0.033,0.010,-4.534,-63.674,10.029
15:12:32:124,26.591,0.015,0.072,-0.017,-4.011,-63.752,11.062
15:12:32:209,26.677,-0.020,0.070,0.036,-3.376,-63.927,12.129
15:12:32:21,26.678,-0.024,0.058,0.060,-2.883,-64.394,12.766
15:12:32:211,26.678,0.003,0.096,0.096,-2.138,-64.738,13.706
15:12:32:212,26.679,0.093,0.104,0.054,-1.568,-64.939,14.334
15:12:32:315,26.782,0.094,0.117,0.063,-0.568,-65.134,15.311
15:12:32:315,26.782,0.085,0.097,0.111,0.698,-65.439,16.433
15:12:32:315,26.783,0.151,0.085,0.150,1.778,-65.667,17.272
15:12:32:316,26.784,0.242,0.097,0.122,3.712,-65.988,18.636
15:12:32:366,26.834,0.280,0.051,0.112,5.189,-65.988,19.715
15:12:32:366,26.834,0.322,0.041,0.109,7.664,-66.241,21.638
15:12:32:367,26.835,0.393,0.057,0.134,9.522,-66.637,23.058
15:12:32:368,26.836,0.362,0.107,0.099,12.645,-67.704,25.566
15:12:32:413,26.880,0.334,0.276,0.050,15.787,-68.404,28.767
15:12:32:414,26.881,0.353,0.161,0.112,18.249,-68.789,30.928
15:12:32:604,27.072,0.272,0.027,0.022,22.170,-69.672,33.835
15:12:32:604,27.072,0.232,-0.490,0.054,24.605,-70.394,35.315
15:12:32:605,27.072,-0.099,-0.735,-0.019,27.409,-72.798,35.781
15:12:32:605,27.072,0.131,-0.633,0.443,28.330,-74.886,34.764
15:12:32:628,27.096,0.105,-0.583,0.390,27.478,-75.508,33.738
15:12:32:629,27.096,-0.054,-0.366,0.204,25.156,-75.265,32.089
15:12:32:63,27.097,0.016,-0.209,0.100,22.834,-74.611,30.875
15:12:32:646,27.113,0.138,-0.081,0.074,15.807,-72.307,26.534
15:12:32:672,27.140,0.153,-0.022,0.061,11.889,-71.078,23.042
15:12:32:7,27.168,0.122,-0.019,0.077,8.772,-70.441,19.048
15:12:32:725,27.193,0.113,-0.024,0.060,6.925,-70.260,16.206
15:12:32:812,27.279,0.114,0.022,0.054,4.117,-70.199,11.696
15:12:32:813,27.280,0.104,0.081,0.058,2.050,-70.166,8.537
15:12:32:814,27.281,0.063,0.028,0.004,-1.573,-69.826,3.709
15:12:32:815,27.282,-0.037,0.415,0.008,-5.729,-68.871,-1.214
15:12:32:86,27.327,-0.164,0.255,-0.092,-8.109,-67.776,-4.821
15:12:32:946,27.413,-0.389,0.160,-0.197,-11.505,-66.044,-9.835
15:12:32:946,27.413,-0.572,0.054,-0.554,-13.425,-65.056,-13.032
15:12:32:946,27.413,-0.633,0.024,-0.668,-16.026,-63.284,-17.400
15:12:32:946,27.414,-0.524,-0.069,-0.511,-18.117,-62.733,-20.660
15:12:33:075,27.542,-0.582,-0.131,-0.441,-19.226,-63.102,-21.759
15:12:33:076,27.543,-0.473,-0.024,-0.405,-20.019,-64.676,-21.116
15:12:33:076,27.544,-0.538,-0.012,-0.256,-19.663,-66.155,-19.484
15:12:33:077,27.545,-0.181,-0.079,0.051,-18.002,-67.500,-16.604
15:12:33:124,27.592,0.307,0.089,0.775,-17.045,-67.238,-15.276
15:12:33:125,27.592,-0.090,0.017,0.090,-15.998,-64.965,-14.596
15:12:33:126,27.593,-0.081,0.015,-0.216,-15.309,-62.587,-13.577
15:12:33:175,27.643,-0.349,-0.127,-0.730,-15.253,-62.006,-12.609
15:12:33:176,27.643,-0.231,-0.021,0.053,-15.118,-60.773,-10.874
15:12:33:226,27.694,0.036,-0.047,-0.078,-14.919,-60.121,-9.969
15:12:33:227,27.694,0.026,0.008,-0.086,-14.902,-60.108,-8.365
15:12:33:28,27.748,0.010,-0.022,0.020,-14.507,-60.770,-6.535
15:12:33:28,27.748,-0.008,-0.007,0.032,-14.150,-60.802,-5.485
15:12:33:355,27.823,-0.064,0.020,-0.067,-13.703,-60.280,-4.337
15:12:33:434,27.901,-0.030,0.014,-0.083,-13.555,-59.995,-3.769
15:12:33:47,27.938,0.050,0.005,-0.038,-13.324,-59.935,-3.023
15:12:33:47,27.938,0.024,-0.005,-0.003,-12.804,-60.637,-2.337
15:12:33:471,27.939,0.007,-0.010,0.007,-12.398,-60.589,-1.894
15:12:33:472,27.940,-0.023,-0.008,0.010,-11.770,-61.130,-1.161
15:12:33:487,27.955,-0.011,0.000,-0.020,-11.389,-61.278,-0.636
15:12:33:515,27.983,0.005,-0.007,0.010,-10.859,-62.326,0.156
15:12:33:516,27.984,0.009,-0.003,0.017,-10.536,-62.641,0.673
15:12:33:567,28.035,0.008,-0.001,0.011,-10.022,-63.286,1.444
15:12:33:568,28.035,0.005,-0.006,-0.004,-9.450,-63.407,2.193
15:12:33:646,28.113,-0.021,-0.016,0.012,-9.046,-63.738,2.690
15:12:33:705,28.172,-0.038,-0.005,0.008,-8.548,-63.907,3.375
15:12:33:705,28.173,-0.023,-0.009,0.002,-8.322,-64.395,3.815
15:12:33:706,28.174,-0.012,0.002,-0.014,-8.143,-64.475,4.475
15:12:33:707,28.175,0.058,0.003,0.034,-8.085,-64.940,5.124
15:12:33:725,28.192,0.098,0.010,0.022,-8.015,-64.801,5.584
15:12:33:748,28.216,0.071,0.019,0.022,-7.653,-65.319,6.407
15:12:33:835,28.302,0.046,0.040,0.025,-7.306,-65.303,7.059
15:12:33:835,28.302,0.047,0.034,0.004,-6.674,-65.366,8.178
15:12:33:835,28.302,0.047,0.021,0.033,-6.153,-65.310,8.999
15:12:33:853,28.321,0.041,0.045,0.034,-5.176,-65.473,10.293
15:12:33:909,28.376,0.113,0.101,0.015,-4.015,-65.800,11.639
15:12:33:91,28.377,0.043,0.227,0.091,-3.178,-65.749,12.551
15:12:33:934,28.401,0.107,0.160,0.208,-1.782,-66.404,13.899
15:12:33:959,28.426,0.139,0.090,0.170,-0.772,-66.380,14.931
15:12:33:984,28.452,0.142,0.072,0.133,0.927,-66.552,16.755
15:12:34:041,28.508,0.200,0.060,0.095,2.954,-66.314,18.876
15:12:34:096,28.563,0.201,0.058,0.048,4.553,-66.606,20.398
15:12:34:097,28.564,0.371,0.015,0.181,9.619,-68.803,24.300
15:12:34:145,28.613,0.319,0.104,0.198,13.265,-70.988,27.018
15:12:34:146,28.613,0.372,0.232,0.104,15.784,-72.649,29.016
15:12:34:17,28.638,0.404,0.111,0.058,19.978,-74.770,31.952
15:12:34:195,28.663,0.376,-0.328,0.114,24.013,-77.639,34.292
15:12:34:251,28.718,0.210,-0.711,0.222,26.275,-80.117,34.539
15:12:34:251,28.718,0.007,-0.645,0.300,28.872,-85.338,32.792
15:12:34:274,28.741,0.009,-0.621,0.545,29.083,-88.723,30.926
15:12:34:302,28.770,-0.231,-0.441,0.455,27.172,-91.954,28.036
15:12:34:355,28.822,-0.117,-0.274,0.488,23.243,-92.498,25.665
15:12:34:356,28.824,0.030,-0.106,0.323,19.849,-91.597,24.224
15:12:34:378,28.846,0.081,0.060,0.137,14.828,-89.962,21.551
15:12:34:435,28.902,0.042,0.060,0.096,11.883,-89.162,19.256
15:12:34:435,28.902,-0.015,0.064,0.069,8.096,-88.443,15.196
15:12:34:457,28.925,-0.033,0.009,0.135,4.637,-88.079,10.625
15:12:34:483,28.951,0.003,0.025,0.172,2.198,-87.675,7.425
15:12:34:598,29.066,-0.008,0.161,0.165,-1.501,-86.741,2.621
15:12:34:598,29.066,-0.064,0.280,0.066,-3.920,-85.925,-0.505
15:12:34:599,29.066,-0.276,0.333,-0.267,-7.540,-84.210,-5.301
15:12:34:6,29.067,-0.245,0.177,-0.390,-9.799,-82.704,-8.558
15:12:34:615,29.082,-0.371,0.154,-0.352,-12.687,-79.730,-13.563
15:12:34:672,29.139,-0.424,0.037,-0.471,-14.851,-76.729,-18.394
15:12:34:672,29.139,-0.381,-0.060,-0.649,-15.944,-75.152,-21.226
15:12:34:723,29.191,-0.494,-0.081,-0.823,-17.262,-74.175,-23.854
15:12:34:724,29.191,-0.321,-0.052,-0.450,-17.651,-74.754,-23.801
15:12:34:774,29.241,-0.224,-0.123,-0.523,-16.733,-75.765,-21.763
15:12:34:8,29.268,0.291,0.036,-0.036,-15.339,-76.492,-19.067
15:12:34:887,29.354,0.167,0.234,0.444,-14.739,-76.968,-17.794
15:12:34:887,29.355,-0.181,0.021,0.049,-13.474,-76.981,-16.308
15:12:34:887,29.355,-0.220,0.043,-0.166,-12.793,-76.550,-15.326
15:12:34:888,29.355,-0.320,0.036,-0.227,-12.240,-76.570,-13.630
15:12:34:934,29.401,-0.258,0.079,0.072,-12.457,-76.847,-11.669
15:12:34:934,29.401,0.001,-0.054,0.082,-12.773,-76.696,-10.746
15:12:34:987,29.454,0.189,-0.031,0.004,-13.578,-75.371,-9.872
15:12:34:987,29.455,-0.038,0.018,-0.141,-13.995,-74.056,-9.278
15:12:35:008,29.476,0.009,0.034,-0.152,-14.315,-73.218,-8.156
15:12:35:035,29.502,0.037,0.008,-0.016,-14.414,-73.514,-7.337
15:12:35:064,29.531,-0.006,-0.003,0.055,-14.317,-74.302,-6.098
15:12:35:065,29.532,-0.018,0.000,0.027,-14.251,-74.569,-4.839
15:12:35:117,29.585,0.048,0.028,-0.058,-14.286,-74.261,-4.030
15:12:35:117,29.585,0.036,0.020,-0.101,-14.196,-73.771,-3.004
15:12:35:227,29.695,0.043,0.012,-0.050,-13.997,-73.807,-2.442
15:12:35:228,29.695,0.016,-0.014,0.033,-13.420,-74.392,-1.658
15:12:35:229,29.696,0.008,-0.028,0.059,-12.747,-75.014,-0.803
15:12:35:23,29.697,-0.043,-0.012,0.004,-12.417,-75.143,-0.232
15:12:35:274,29.741,-0.014,-0.013,-0.042,-12.068,-75.116,0.480
15:12:35:274,29.742,-0.010,-0.017,-0.027,-11.922,-75.135,0.868
15:12:35:299,29.766,0.006,-0.019,0.005,-11.700,-75.062,1.365
15:12:35:325,29.793,0.004,-0.012,0.007,-11.549,-75.155,1.671
15:12:35:351,29.819,0.041,0.003,-0.006,-11.347,-75.175,2.169
15:12:35:377,29.844,0.010,0.006,0.004,-11.095,-75.301,2.688
15:12:35:433,29.900,-0.007,0.001,0.019,-10.881,-75.433,3.040
15:12:35:433,29.901,-0.014,-0.012,0.003,-10.496,-75.693,3.529
15:12:35:513,29.980,0.018,-0.002,0.022,-10.179,-75.795,3.848
15:12:35:513,29.981,0.010,-0.007,0.017,-9.720,-76.029,4.397
15:12:35:514,29.982,0.020,-0.006,0.011,-9.279,-76.190,5.022
15:12:35:561,30.029,0.043,-0.003,0.077,-8.992,-76.309,5.407
15:12:35:589,30.057,0.027,0.011,0.010,-8.408,-76.428,6.319
15:12:35:592,30.059,0.010,-0.002,-0.006,-7.950,-76.487,6.967
15:12:35:612,30.080,0.072,-0.009,0.043,-7.176,-76.649,8.001
15:12:35:667,30.135,-0.014,0.011,0.057,-6.672,-76.647,8.790
15:12:35:668,30.135,-0.010,0.059,0.026,-6.054,-76.295,10.070
15:12:35:721,30.189,0.049,0.064,-0.032,-5.408,-76.095,11.380
15:12:35:721,30.189,0.026,0.107,0.031,-4.796,-76.118,12.258
15:12:35:773,30.240,0.002,0.139,-0.004,-3.690,-76.103,13.532
15:12:35:773,30.241,-0.048,0.173,0.227,-2.938,-76.262,14.362
15:12:35:823,30.291,-0.010,0.137,0.217,-1.698,-76.493,15.549
15:12:35:851,30.318,0.131,0.083,0.104,-0.257,-76.524,16.962
15:12:35:852,30.319,0.166,0.080,0.093,0.904,-76.558,18.025
15:12:35:874,30.342,0.182,0.062,0.151,3.183,-76.978,19.731
15:12:35:9,30.368,0.430,0.108,0.373,5.059,-77.598,20.962
15:12:35:956,30.424,0.455,0.094,0.409,8.375,-78.547,23.277
15:12:35:957,30.425,0.359,0.281,0.322,11.976,-78.596,26.530
15:12:35:98,30.447,0.427,0.324,0.271,14.514,-77.973,29.160
15:12:36:091,30.559,0.409,0.126,0.247,18.524,-76.585,33.314
15:12:36:092,30.560,0.281,-0.140,0.151,21.261,-75.626,35.840
15:12:36:093,30.561,0.233,-0.447,0.100,24.615,-74.607,38.812
15:12:36:143,30.610,-0.051,-0.547,-0.014,26.433,-74.423,39.675
15:12:36:144,30.611,0.142,-0.812,0.381,28.254,-75.567,38.697
15:12:36:144,30.612,0.118,-0.621,0.402,27.488,-76.629,35.844
15:12:36:163,30.631,0.066,-0.441,0.392,26.199,-77.258,33.332
15:12:36:19,30.657,0.202,-0.359,0.370,23.232,-77.946,28.992
15:12:36:323,30.790,0.137,-0.245,0.297,20.783,-78.282,25.762
15:12:36:357,30.824,0.157,-0.046,0.286,16.549,-78.550,20.646
15:12:36:357,30.825,0.205,-0.013,0.333,12.194,-78.513,15.156
15:12:36:358,30.826,0.118,0.062,0.230,9.336,-77.860,11.406
15:12:36:359,30.826,0.151,0.206,0.099,5.115,-76.045,5.533
15:12:36:376,30.844,0.176,0.302,0.027,2.260,-74.296,1.347
15:12:36:377,30.844,-0.047,0.566,-0.392,-2.008,-70.851,-5.254
15:12:36:4,30.868,-0.348,0.601,-0.776,-4.612,-68.059,-9.574
15:12:36:426,30.893,-0.485,0.189,-0.740,-7.791,-63.651,-15.327
15:12:36:482,30.950,-0.959,0.164,-0.466,-10.145,-59.092,-20.209
15:12:36:482,30.950,-0.786,-0.134,-1.008,-10.402,-55.657,-22.806
15:12:36:505,30.973,-0.863,-0.210,-1.120,-9.787,-50.604,-24.192
15:12:36:532,31.000,0.722,0.206,0.006,-8.971,-49.352,-22.897
15:12:36:588,31.055,-0.098,0.177,0.087,-7.255,-48.357,-20.552
15:12:36:588,31.056,-0.339,-0.052,-0.199,-6.285,-47.559,-18.196
15:12:36:609,31.077,-0.324,0.045,-0.196,-5.897,-47.126,-16.569
15:12:36:665,31.133,-0.198,-0.133,-0.044,-6.068,-48.359,-14.390
15:12:36:666,31.134,-0.080,0.046,0.008,-6.647,-49.137,-12.913
15:12:36:718,31.185,0.037,-0.011,-0.038,-7.454,-48.396,-11.031
15:12:36:718,31.186,-0.085,-0.028,-0.039,-7.939,-46.949,-9.760
15:12:36:772,31.239,-0.161,0.011,0.012,-8.285,-46.430,-9.015
15:12:36:772,31.240,-0.076,0.014,0.014,-8.880,-46.491,-7.983
15:12:36:793,31.261,0.090,0.035,0.061,-9.268,-46.918,-7.391
15:12:36:819,31.287,0.325,-0.007,0.080,-9.677,-47.061,-6.328
15:12:36:846,31.314,0.072,0.003,-0.057,-9.839,-46.433,-5.359
15:12:36:874,31.341,-0.007,0.036,-0.158,-9.803,-44.758,-3.915
15:12:36:899,31.366,-0.086,0.025,-0.149,-9.626,-43.861,-2.626
15:12:36:952,31.420,0.005,-0.009,-0.052,-9.422,-43.893,-1.879
15:12:36:981,31.449,-0.034,-0.013,0.044,-9.057,-43.987,-0.940
15:12:36:981,31.449,-0.052,-0.013,0.022,-8.860,-43.787,-0.421
15:12:37:062,31.530,-0.006,0.001,0.003,-8.657,-43.515,0.306
15:12:37:063,31.530,0.001,-0.006,-0.017,-8.494,-43.227,1.033
15:12:37:063,31.531,0.019,-0.004,-0.026,-8.380,-42.729,1.500
15:12:37:083,31.550,0.000,0.000,0.007,-8.200,-42.482,2.128
15:12:37:139,31.607,-0.005,-0.001,0.016,-8.036,-42.067,2.536
15:12:37:139,31.607,-0.016,0.005,-0.007,-7.818,-41.883,3.070
15:12:37:161,31.628,-0.018,0.005,-0.011,-7.688,-41.670,3.368
15:12:37:187,31.655,-0.001,-0.001,-0.001,-7.468,-41.660,3.779
15:12:37:243,31.710,0.040,-0.011,0.050,-7.197,-41.851,4.193
15:12:37:269,31.736,0.043,-0.002,0.022,-7.000,-42.000,4.533
15:12:37:27,31.737,-0.012,-0.003,0.022,-6.689,-42.145,5.162
15:12:37:322,31.790,0.040,0.006,0.017,-6.520,-42.172,5.591
15:12:37:323,31.790,0.094,0.007,0.005,-6.191,-42.261,6.298
15:12:37:346,31.814,0.033,0.014,-0.002,-5.671,-42.210,7.197
15:12:37:373,31.841,-0.015,0.028,0.023,-5.252,-42.331,7.864
15:12:37:374,31.842,0.038,0.044,0.015,-4.532,-42.256,8.877
15:12:37:426,31.894,0.037,0.040,-0.003,-3.957,-42.229,9.553
15:12:37:427,31.895,0.033,0.066,-0.019,-2.954,-41.907,10.535
15:12:37:45,31.917,0.118,0.112,0.010,-1.767,-41.563,11.541
15:12:37:476,31.943,0.161,0.140,0.057,-0.871,-41.441,12.190
15:12:37:56,32.028,0.167,0.149,0.075,0.705,-41.249,13.354
15:12:37:561,32.028,0.139,0.025,0.061,1.884,-41.050,14.262
15:12:37:562,32.029,0.212,0.118,-0.011,3.814,-40.947,15.918
15:12:37:611,32.078,0.251,0.143,-0.056,5.321,-40.792,17.098
15:12:37:611,32.078,0.278,0.219,0.019,8.040,-41.141,19.096
15:12:37:634,32.101,0.481,0.117,0.082,11.562,-42.906,21.114
15:12:37:661,32.129,0.598,0.043,0.011,14.502,-44.352,22.412
15:12:37:712,32.180,0.396,0.241,-0.047,18.923,-45.240,25.386
15:12:37:772,32.240,0.434,0.091,-0.102,21.624,-44.810,27.788
15:12:37:772,32.240,0.351,-0.087,-0.084,25.221,-44.486,31.011
15:12:37:772,32.240,0.230,-0.505,0.121,27.640,-43.713,33.393
15:12:37:849,32.317,0.117,-0.501,0.214,28.701,-43.217,33.845
15:12:37:85,32.317,0.430,-0.651,0.296,27.875,-41.750,33.499
15:12:37:851,32.318,0.365,-0.677,0.070,26.000,-40.154,32.678
15:12:37:927,32.394,0.216,-0.388,-0.060,22.789,-38.274,30.232
15:12:37:927,32.395,0.350,-0.330,-0.047,20.538,-37.407,27.771
15:12:37:952,32.420,0.361,-0.205,0.010,16.890,-36.048,23.377
15:12:37:952,32.420,0.236,0.057,0.086,13.340,-34.219,18.585
15:12:38:033,32.500,0.270,0.046,0.054,11.085,-32.714,15.257
15:12:38:034,32.501,0.259,0.052,0.010,7.623,-29.365,10.259
15:12:38:035,32.502,0.121,0.091,-0.141,5.287,-26.518,6.770
15:12:38:108,32.575,0.083,0.253,-0.289,1.479,-21.705,1.131
15:12:38:14,32.608,-0.248,0.405,-0.361,-2.435,-16.463,-4.950
15:12:38:14,32.608,-0.676,0.432,-0.316,-4.852,-13.035,-8.999
15:12:38:14,32.608,-1.083,0.233,-0.127,-8.109,-8.425,-14.614
15:12:38:188,32.655,-0.772,0.106,0.107,-10.032,-6.253,-17.995
15:12:38:188,32.656,-1.034,-0.043,0.281,-12.050,-3.138,-22.186
15:12:38:211,32.679,-1.261,-0.070,0.097,-12.645,-0.643,-24.146
15:12:38:266,32.734,-0.869,-0.005,0.044,-12.267,-0.154,-23.217
15:12:38:267,32.734,-0.155,0.060,-0.033,-10.757,0.014,-19.911
15:12:38:291,32.758,0.690,0.245,0.005,-9.703,0.673,-18.305
15:12:38:316,32.783,0.062,0.060,0.452,-8.548,1.652,-16.850
15:12:38:372,32.840,-0.139,-0.036,0.047,-8.045,2.581,-15.501
15:12:38:373,32.840,-0.552,-0.093,0.244,-8.152,2.154,-13.456
15:12:38:395,32.862,-0.125,0.145,0.055,-9.127,2.726,-11.063
15:12:38:45,32.917,-0.046,0.037,0.156,-9.521,4.164,-10.091
15:12:38:451,32.918,-0.182,-0.019,0.010,-10.317,5.835,-9.214
15:12:38:504,32.971,-0.086,0.033,-0.115,-10.757,5.956,-8.450
15:12:38:504,32.971,0.050,0.004,-0.032,-11.139,4.875,-6.990
15:12:38:526,32.994,0.186,-0.002,0.004,-11.197,4.401,-5.456
15:12:38:553,33.021,0.101,0.001,0.015,-11.152,4.988,-4.451
15:12:38:579,33.047,-0.098,0.022,-0.089,-10.983,6.529,-2.965
15:12:38:605,33.072,-0.148,0.012,-0.017,-10.699,7.363,-2.088
15:12:38:824,33.292,-0.016,0.015,0.014,-10.088,7.843,-0.984
15:12:38:825,33.292,-0.020,0.016,-0.007,-9.733,8.439,-0.316
15:12:38:826,33.293,-0.061,-0.001,0.000,-9.247,8.796,0.709
15:12:38:826,33.294,-0.034,-0.018,0.019,-8.769,9.044,1.714
15:12:38:879,33.347,-0.003,-0.020,0.004,-8.466,9.023,2.346
15:12:38:879,33.347,0.009,-0.001,0.011,-8.065,9.186,3.225
15:12:38:879,33.347,0.001,-0.002,0.021,-7.808,9.333,3.776
15:12:38:88,33.347,-0.008,-0.001,0.016,-7.466,9.527,4.575
15:12:38:899,33.367,-0.005,0.001,0.014,-7.139,9.655,5.332
15:12:38:9,33.367,0.018,0.005,0.018,-6.909,9.658,5.851
15:12:38:901,33.368,0.017,0.002,0.024,-6.601,9.593,6.696
15:12:39:112,33.580,-0.006,0.016,0.026,-6.433,9.538,7.282
15:12:39:113,33.581,0.020,0.012,0.035,-6.205,9.414,8.174
15:12:39:114,33.582,0.018,0.009,-0.015,-5.916,9.348,9.032
15:12:39:115,33.583,0.011,0.010,-0.023,-5.660,9.288,9.604
15:12:39:139,33.607,0.016,0.047,-0.018,-5.162,9.252,10.514
15:12:39:14,33.607,0.031,0.071,0.047,-4.815,9.167,11.125
15:12:39:141,33.608,0.071,0.059,0.005,-4.223,9.034,11.927
15:12:39:141,33.609,0.086,0.083,-0.011,-3.777,8.975,12.447
15:12:39:157,33.624,0.108,0.110,-0.099,-2.936,8.989,13.305
15:12:39:243,33.711,0.123,0.108,-0.066,-1.820,9.050,14.413
15:12:39:244,33.711,0.150,0.103,-0.065,-0.910,9.089,15.252
15:12:39:245,33.712,0.127,0.056,-0.029,0.727,9.203,16.618
15:12:39:245,33.713,0.134,0.050,-0.028,1.999,9.172,17.610
15:12:39:319,33.787,0.172,0.070,-0.130,4.306,8.912,19.124
15:12:39:32,33.787,0.300,0.036,-0.336,7.133,8.301,20.858
15:12:39:321,33.788,0.360,0.008,-0.355,9.255,8.125,22.282
15:12:39:454,33.922,0.212,0.134,-0.420,12.319,8.422,25.254
15:12:39:455,33.923,0.211,0.238,-0.369,14.419,8.683,27.729
15:12:39:456,33.924,0.234,0.195,-0.354,18.126,9.009,31.714
15:12:39:457,33.925,0.163,0.106,-0.374,20.598,9.168,34.330
15:12:39:505,33.973,0.032,-0.333,-0.272,24.385,8.415,37.281
15:12:39:506,33.974,0.003,-0.628,-0.054,27.561,5.618,37.745
15:12:39:507,33.975,0.434,-0.729,-0.139,28.692,2.992,36.568
15:12:39:508,33.975,0.484,-0.747,-0.044,28.543,-0.975,33.455
15:12:39:55,34.017,0.453,-0.509,0.076,27.602,-3.773,30.705
15:12:39:605,34.073,0.577,-0.379,0.027,24.503,-7.373,26.227
15:12:39:606,34.073,0.562,-0.221,0.153,19.648,-8.990,21.999
15:12:39:631,34.099,0.407,-0.093,0.113,15.922,-9.081,19.204
15:12:39:632,34.099,0.390,-0.024,-0.031,10.098,-8.499,14.638
15:12:39:654,34.122,0.237,0.115,0.112,6.279,-7.899,11.336
15:12:39:71,34.178,0.090,0.213,0.075,0.558,-6.280,6.173
15:12:39:711,34.178,-0.081,0.504,0.115,-5.083,-3.353,0.414
15:12:39:736,34.203,-0.300,0.536,0.218,-8.306,-1.020,-3.735
15:12:39:76,34.227,-0.724,0.282,0.517,-12.167,2.816,-9.750
15:12:39:817,34.284,-1.043,0.175,0.754,-14.034,5.314,-13.298
15:12:39:817,34.284,-0.938,-0.050,0.621,-15.488,10.043,-17.953
15:12:39:868,34.335,-1.188,-0.177,0.497,-15.482,13.017,-20.067
15:12:39:868,34.336,-1.156,-0.257,0.389,-14.485,15.214,-20.311
15:12:39:945,34.412,0.301,0.436,-0.884,-13.023,15.356,-18.108
15:12:39:976,34.443,-0.209,0.272,0.713,-12.706,14.396,-17.041
15:12:39:976,34.444,-0.115,0.078,0.220,-12.189,13.303,-14.690
15:12:39:977,34.444,0.136,-0.093,0.120,-12.237,12.310,-13.466
15:12:40:086,34.553,-0.041,-0.044,-0.005,-12.400,12.012,-11.725
15:12:40:086,34.553,0.000,0.033,-0.037,-12.802,13.404,-10.040
15:12:40:086,34.553,-0.191,0.007,-0.058,-12.953,14.844,-9.329
15:12:40:086,34.554,-0.120,0.016,0.019,-13.162,15.458,-8.205
15:12:40:13,34.598,-0.057,0.022,0.113,-13.162,14.891,-7.343
15:12:40:131,34.598,0.061,0.000,0.022,-13.111,14.003,-6.105
15:12:40:153,34.621,0.043,0.003,0.014,-13.169,14.081,-5.403
15:12:40:18,34.647,-0.037,0.019,-0.061,-13.288,15.150,-4.557
15:12:40:206,34.673,-0.095,0.007,-0.085,-13.149,16.907,-3.790
15:12:40:232,34.699,-0.021,0.006,-0.034,-12.911,16.904,-3.231
15:12:40:478,34.945,0.038,-0.011,0.013,-12.413,17.501,-2.291
15:12:40:479,34.946,-0.010,-0.025,0.017,-12.074,17.233,-1.587
15:12:40:479,34.947,-0.044,-0.008,0.055,-11.649,17.758,-0.610
15:12:40:48,34.948,-0.021,-0.009,0.061,-11.319,17.458,0.174
15:12:40:574,35.042,0.005,-0.005,0.038,-11.148,18.254,0.590
15:12:40:63,35.098,0.042,-0.009,-0.003,-10.908,18.110,1.166
15:12:40:631,35.098,-0.027,-0.004,0.025,-10.802,19.073,1.564
15:12:40:688,35.155,-0.027,-0.005,0.044,-10.698,19.015,2.130
15:12:40:688,35.156,0.020,-0.003,0.006,-10.613,19.357,2.612
15:12:40:688,35.156,0.029,-0.002,0.013,-10.558,19.162,2.952
15:12:40:715,35.182,0.002,0.004,-0.038,-10.433,19.494,3.586
15:12:40:715,35.183,0.016,0.006,-0.056,-10.322,19.207,4.071
15:12:40:716,35.184,0.056,-0.009,-0.060,-9.995,19.244,4.932
15:12:40:717,35.185,0.007,0.011,-0.019,-9.690,19.163,5.600
15:12:40:735,35.202,-0.020,-0.005,-0.027,-9.112,19.437,6.690
15:12:40:736,35.203,0.026,0.003,0.066,-8.507,19.411,7.728
15:12:40:768,35.235,0.012,0.009,0.058,-8.163,19.316,8.359
15:12:40:768,35.235,-0.024,-0.008,0.024,-7.760,19.457,9.265
15:12:40:768,35.236,-0.002,0.014,-0.060,-7.494,19.337,9.801
15:12:40:768,35.236,0.042,0.049,-0.024,-6.976,19.426,10.628
15:12:40:815,35.282,0.033,0.080,-0.076,-6.291,19.229,11.635
15:12:40:815,35.282,0.060,0.060,-0.064,-5.692,19.246,12.401
15:12:40:836,35.304,0.171,0.160,0.035,-4.745,19.031,13.545
15:12:40:862,35.330,0.220,0.114,-0.013,-4.051,18.819,14.356
15:12:40:891,35.358,0.154,0.075,-0.082,-2.860,18.611,15.772
15:12:40:974,35.441,0.093,0.042,-0.098,-1.907,18.641,16.847
15:12:40:974,35.442,0.109,0.035,-0.104,-0.263,18.551,18.603
15:12:40:975,35.443,0.165,0.072,-0.132,1.587,18.400,20.582
15:12:40:993,35.461,0.207,0.075,-0.207,2.948,18.132,22.032
15:12:41:049,35.517,0.264,0.067,-0.273,5.277,17.548,24.512
15:12:41:05,35.518,0.310,0.095,-0.198,7.004,16.953,26.413
15:12:41:073,35.540,0.238,0.267,-0.146,10.060,15.776,29.453
15:12:41:129,35.596,0.161,0.314,-0.186,13.728,14.703,32.561
15:12:41:129,35.596,0.130,0.143,-0.227,16.210,14.221,34.646
15:12:41:184,35.651,0.011,-0.295,-0.193,19.974,13.448,37.094
15:12:41:184,35.651,0.301,-0.635,-0.214,22.165,12.396,37.613
15:12:41:205,35.673,0.105,-0.734,0.073,25.024,10.497,36.797
15:12:41:23,35.697,0.402,-0.694,-0.132,25.078,9.408,34.620
15:12:41:258,35.726,0.353,-0.607,-0.134,23.703,9.569,32.856
15:12:41:284,35.752,0.205,-0.307,-0.137,20.615,10.803,29.742
15:12:41:367,35.835,0.225,-0.282,-0.197,18.249,11.890,27.120
15:12:41:368,35.835,0.229,-0.025,-0.212,14.349,14.034,22.698
15:12:41:368,35.835,0.078,0.149,-0.196,10.931,16.261,17.974
15:12:41:445,35.913,0.060,0.121,-0.199,9.165,17.620,14.692
15:12:41:446,35.913,-0.090,0.125,-0.037,6.636,19.962,9.874
15:12:41:555,36.023,-0.094,0.132,-0.126,4.739,21.831,6.842
15:12:41:556,36.024,-0.210,0.179,-0.054,1.689,25.045,2.434
15:12:41:557,36.024,-0.345,0.237,0.079,-1.097,28.345,-2.018
15:12:41:558,36.025,-0.382,0.248,0.218,-2.768,30.160,-5.145
15:12:41:572,36.040,-0.356,0.534,0.379,-5.333,31.913,-9.911
15:12:41:658,36.126,-0.510,0.106,0.476,-7.010,32.630,-12.887
15:12:41:659,36.127,-0.332,0.063,0.385,-9.510,33.639,-17.082
15:12:41:66,36.127,-0.349,0.002,0.473,-11.462,34.776,-20.581
15:12:41:661,36.128,-0.401,-0.056,0.520,-12.239,35.721,-22.296
15:12:41:704,36.171,-0.549,-0.177,0.588,-12.843,36.600,-23.256
15:12:41:731,36.199,-0.395,-0.066,0.571,-13.022,36.356,-22.598
15:12:41:733,36.200,0.137,-0.018,0.007,-12.087,35.518,-20.366
15:12:41:813,36.281,0.351,0.152,-0.100,-11.399,35.349,-19.306
15:12:41:813,36.281,-0.078,0.052,0.327,-10.582,35.639,-18.268
15:12:41:814,36.282,-0.014,0.047,0.070,-10.008,35.858,-16.729
15:12:41:839,36.306,-0.005,-0.027,0.077,-9.986,35.757,-15.680
15:12:41:839,36.307,-0.041,-0.004,-0.030,-10.070,36.033,-14.162
15:12:41:92,36.387,-0.106,0.080,0.085,-10.325,36.474,-13.081
15:12:41:92,36.388,-0.026,0.011,0.132,-10.654,37.211,-11.547
15:12:41:92,36.388,-0.014,-0.010,0.100,-11.018,37.223,-10.046
15:12:41:94,36.408,-0.020,-0.017,0.055,-11.272,36.967,-9.135
15:12:41:966,36.434,0.053,-0.030,-0.009,-11.637,36.595,-7.889
15:12:42:02,36.488,0.051,-0.014,-0.036,-11.872,36.534,-7.109
15:12:42:021,36.488,-0.069,-0.013,0.053,-12.272,36.820,-5.939
15:12:42:071,36.538,-0.037,0.008,0.048,-12.502,36.965,-5.174
15:12:42:097,36.565,-0.041,0.020,-0.007,-12.902,36.887,-4.129
15:12:42:127,36.595,-0.008,-0.002,-0.008,-13.143,36.293,-3.124
15:12:42:127,36.595,-0.011,0.002,-0.012,-13.310,36.304,-2.566
15:12:42:15,36.617,-0.045,0.016,-0.016,-13.498,36.462,-1.868
15:12:42:176,36.644,-0.016,0.004,-0.003,-13.527,36.555,-1.423
15:12:42:233,36.701,-0.024,0.009,0.011,-13.436,36.383,-0.770
15:12:42:233,36.701,-0.001,-0.008,-0.001,-13.257,36.308,-0.184
15:12:42:254,36.721,0.010,-0.019,0.011,-13.135,35.958,0.215
15:12:42:31,36.778,0.018,-0.015,0.013,-13.025,35.801,0.818
15:12:42:31,36.778,0.012,-0.015,0.017,-12.982,35.552,1.184
15:12:42:332,36.800,-0.004,-0.005,0.012,-12.965,35.612,1.664
15:12:42:358,36.826,-0.007,0.006,0.005,-12.965,35.664,2.083
15:12:42:414,36.882,-0.004,0.007,-0.015,-12.940,35.575,2.355
15:12:42:415,36.882,0.004,0.001,-0.017,-12.823,35.393,2.806
15:12:42:466,36.934,0.023,0.006,-0.033,-12.698,35.263,3.149
15:12:42:467,36.935,0.017,0.002,-0.005,-12.404,35.064,3.732
15:12:42:491,36.959,0.030,-0.006,-0.014,-12.160,34.903,4.156
15:12:42:63,37.098,0.033,-0.008,0.011,-11.716,34.710,4.898
15:12:42:631,37.099,0.002,-0.004,0.012,-11.286,34.584,5.736
15:12:42:632,37.100,-0.013,0.010,0.020,-10.992,34.106,6.341
15:12:42:633,37.100,0.017,-0.003,-0.006,-10.562,33.927,7.300
15:12:42:708,37.176,0.003,0.010,-0.030,-10.242,33.725,7.975
15:12:42:709,37.177,0.017,0.011,0.006,-9.745,33.605,9.003
15:12:42:71,37.178,0.042,0.025,-0.020,-9.234,33.327,10.100
15:12:42:711,37.178,-0.010,0.035,-0.011,-8.867,33.266,10.873
15:12:42:78,37.247,0.009,0.047,-0.005,-8.254,33.048,12.045
15:12:42:811,37.279,0.043,0.072,-0.017,-7.795,32.950,12.845
15:12:42:812,37.279,0.150,0.133,-0.076,-6.999,32.709,14.012
15:12:42:812,37.279,0.165,0.099,-0.065,-6.376,32.585,14.792
15:12:42:833,37.300,0.121,0.104,-0.096,-5.317,32.420,16.137
15:12:42:857,37.325,0.076,0.109,-0.117,-4.016,32.278,17.712
15:12:42:884,37.352,0.114,0.079,-0.125,-2.961,32.107,18.872
15:12:42:91,37.378,0.145,0.075,-0.156,-0.972,31.406,20.796
15:12:42:936,37.404,0.199,0.104,-0.169,0.621,30.881,22.224
15:12:42:962,37.430,0.291,0.093,-0.308,3.466,29.488,24.539
15:12:42:989,37.456,0.293,0.151,-0.303,6.819,27.989,27.364
15:12:43:017,37.484,0.216,0.345,-0.277,9.250,27.333,29.686
15:12:43:041,37.508,0.159,0.200,-0.413,13.555,26.753,33.363
15:12:43:096,37.564,0.228,0.079,-0.388,16.329,26.625,35.851
15:12:43:097,37.565,-0.017,-0.352,-0.247,20.042,26.977,39.145
15:12:43:149,37.617,0.108,-0.660,-0.343,22.147,26.198,40.064
15:12:43:15,37.617,0.102,-0.661,-0.158,24.960,24.855,39.531
15:12:43:172,37.640,0.333,-0.619,-0.198,25.631,22.934,37.090
15:12:43:2,37.667,0.250,-0.550,-0.105,25.073,21.969,34.546
15:12:43:283,37.751,0.252,-0.344,-0.223,23.151,20.522,29.725
15:12:43:284,37.752,0.369,-0.247,-0.239,21.295,19.722,26.004
15:12:43:285,37.752,0.344,-0.083,-0.186,17.536,19.511,20.500
15:12:43:333,37.800,0.191,0.117,-0.232,13.038,21.061,15.477
15:12:43:333,37.801,0.080,0.136,-0.203,10.120,22.842,12.305
15:12:43:414,37.882,-0.233,0.215,-0.123,5.902,26.490,7.387
15:12:43:415,37.882,-0.363,0.302,-0.226,3.276,29.100,3.767
15:12:43:416,37.883,-0.545,0.355,-0.071,-0.235,32.737,-1.966
15:12:43:435,37.902,-0.749,0.350,0.186,-3.420,35.391,-7.607
15:12:43:461,37.929,-0.849,0.230,0.522,-5.629,36.757,-10.924
15:12:43:488,37.955,-0.583,0.050,0.598,-9.039,38.225,-14.924
15:12:43:513,37.981,-0.382,0.042,0.485,-11.316,39.203,-17.197
15:12:43:541,38.009,-0.243,-0.043,0.485,-14.130,41.319,-20.025
15:12:43:567,38.034,-0.244,-0.070,0.598,-15.354,43.418,-21.467
15:12:43:592,38.060,-0.321,-0.211,0.809,-16.022,47.562,-23.003
15:12:43:618,38.086,0.034,0.175,0.614,-15.836,51.793,-23.269
15:12:43:675,38.143,0.347,-0.024,0.468,-15.034,53.985,-21.998
15:12:43:675,38.143,0.121,0.091,-0.414,-12.782,58.428,-19.844
15:12:43:698,38.165,0.116,0.085,0.323,-11.660,61.498,-19.008
15:12:43:724,38.191,0.177,0.069,0.476,-10.702,64.750,-17.410
15:12:43:749,38.217,0.055,-0.006,0.134,-10.227,65.297,-15.431
15:12:43:776,38.243,-0.155,-0.016,-0.121,-10.321,64.958,-14.132
15:12:43:805,38.272,-0.330,-0.075,0.177,-10.501,65.155,-12.212
15:12:43:858,38.325,0.030,0.017,0.099,-10.583,66.252,-10.971
15:12:43:858,38.326,0.199,-0.012,0.246,-10.366,66.954,-9.287
15:12:43:882,38.349,0.116,0.009,0.154,-10.330,66.841,-8.272
15:12:43:907,38.375,0.068,-0.036,-0.023,-10.479,66.418,-7.110
15:12:43:933,38.401,0.034,-0.031,-0.163,-10.863,66.717,-6.098
15:12:43:96,38.427,-0.114,-0.006,-0.014,-11.168,67.538,-5.328
15:12:44:015,38.483,-0.006,0.025,0.136,-11.518,68.825,-4.233
15:12:44:015,38.483,-0.049,0.025,0.065,-11.674,69.048,-3.597
15:12:44:041,38.509,-0.017,0.009,0.000,-11.912,68.807,-2.834
15:12:44:042,38.510,-0.027,0.008,-0.079,-12.042,68.677,-2.236
15:12:44:123,38.591,-0.058,0.012,-0.022,-12.006,69.149,-1.848
15:12:44:124,38.592,-0.015,-0.011,0.016,-11.774,69.317,-1.202
15:12:44:125,38.593,0.007,-0.009,0.021,-11.554,69.246,-0.712
15:12:44:257,38.724,0.009,-0.004,0.000,-10.975,69.096,0.589
15:12:44:258,38.725,0.032,-0.011,0.004,-10.796,68.960,0.947
15:12:44:259,38.726,0.011,-0.008,0.014,-10.625,68.921,1.415
15:12:44:259,38.727,0.005,-0.006,0.005,-10.576,69.001,1.660
15:12:44:304,38.771,0.026,0.002,0.012,-10.499,69.138,1.980
15:12:44:304,38.772,0.011,0.001,0.022,-10.457,69.199,2.167
15:12:44:386,38.853,-0.006,0.003,-0.017,-10.421,69.188,2.445
15:12:44:387,38.854,0.023,-0.004,-0.004,-10.378,69.576,2.765
15:12:44:387,38.855,0.012,-0.004,-0.016,-10.326,69.504,2.989
15:12:44:406,38.874,-0.004,0.004,-0.026,-10.253,69.431,3.399
15:12:44:432,38.900,0.020,-0.001,-0.026,-10.184,69.290,3.701
15:12:44:512,38.980,0.001,0.002,-0.005,-10.052,69.250,4.251
15:12:44:543,39.010,-0.009,0.005,-0.030,-9.870,69.032,4.876
15:12:44:543,39.011,0.018,-0.005,-0.055,-9.692,68.935,5.320
15:12:44:544,39.012,-0.012,0.014,-0.034,-9.308,68.629,6.074
15:12:44:566,39.034,-0.004,0.007,-0.003,-8.998,68.714,6.602
15:12:44:649,39.116,0.010,0.010,-0.038,-8.500,68.542,7.377
15:12:44:649,39.116,-0.011,0.033,-0.040,-8.135,68.433,7.869
15:12:44:649,39.117,0.017,0.045,-0.004,-7.528,68.375,8.671
15:12:44:697,39.165,0.029,0.064,-0.044,-6.818,68.352,9.526
15:12:44:698,39.166,0.031,0.039,-0.038,-6.269,68.348,10.075
15:12:44:723,39.191,0.006,0.106,-0.119,-5.347,68.784,10.932
15:12:44:749,39.216,0.023,0.062,-0.074,-4.686,68.804,11.518
15:12:44:803,39.270,0.014,0.063,-0.077,-3.549,68.860,12.499
15:12:44:803,39.271,0.003,0.023,-0.091,-2.164,68.747,13.601
15:12:44:828,39.295,0.006,0.035,-0.130,-1.062,68.693,14.450
15:12:44:852,39.320,-0.014,0.062,-0.144,0.628,68.494,15.549
15:12:44:88,39.347,0.009,0.101,-0.160,2.014,68.474,16.670
15:12:44:934,39.401,0.034,0.114,-0.193,4.370,68.101,18.521
15:12:44:935,39.402,-0.022,0.066,-0.431,7.116,67.513,20.539
15:12:44:958,39.425,0.002,0.151,-0.411,9.188,66.981,22.148
15:12:44:984,39.451,-0.042,0.221,-0.400,12.599,66.947,25.101
15:12:45:01,39.477,-0.033,0.259,-0.335,15.012,67.260,27.380
15:12:45:036,39.503,-0.132,0.059,-0.360,18.684,68.460,30.988
15:12:45:062,39.530,-0.106,-0.078,-0.269,20.998,69.339,33.269
15:12:45:088,39.556,-0.145,-0.333,-0.251,23.777,71.196,36.209
15:12:45:144,39.611,-0.039,-0.750,-0.079,25.432,72.890,37.413
15:12:45:145,39.612,-0.064,-0.653,-0.305,25.980,73.055,36.825
15:12:45:197,39.664,-0.199,-0.516,-0.204,24.659,73.649,34.955
15:12:45:197,39.665,-0.101,-0.323,-0.164,23.313,73.708,32.858
15:12:45:22,39.687,-0.152,-0.338,-0.239,20.969,73.220,28.609
15:12:45:246,39.714,-0.112,-0.216,-0.384,17.814,72.659,23.526
15:12:45:272,39.740,-0.057,-0.070,-0.254,15.453,72.544,19.958
15:12:45:357,39.824,-0.095,-0.017,-0.318,11.588,72.813,14.558
15:12:45:357,39.825,-0.070,0.113,-0.304,8.694,73.750,11.098
15:12:45:378,39.846,-0.241,0.366,0.067,-0.263,80.536,0.482
15:12:45:403,39.871,-0.218,0.439,0.379,-3.093,83.575,-3.502
15:12:45:459,39.927,0.178,0.803,0.729,-6.765,87.525,-9.553
15:12:45:459,39.927,0.203,0.111,0.826,-8.899,89.726,-13.240
15:12:45:482,39.950,0.296,0.147,0.713,-11.960,92.629,-18.236
15:12:45:51,39.977,0.646,0.001,0.891,-13.627,94.531,-21.080
15:12:45:535,40.003,0.345,-0.177,1.068,-14.820,97.425,-24.040
15:12:45:561,40.028,0.378,-0.147,0.823,-14.146,99.865,-23.945
15:12:45:587,40.055,-0.059,-0.056,0.338,-12.721,100.647,-22.081
15:12:45:613,40.081,-0.457,0.146,-0.752,-11.029,101.126,-19.010
15:12:45:639,40.107,0.377,0.076,0.231,-10.149,101.637,-18.146
15:12:45:666,40.134,0.140,-0.052,0.150,-9.291,102.019,-16.010
15:12:45:694,40.161,0.080,-0.022,-0.030,-8.977,101.249,-13.893
15:12:45:719,40.186,0.072,-0.160,0.404,-8.975,100.377,-12.587
15:12:45:746,40.214,0.101,0.040,-0.009,-9.571,101.200,-10.563
15:12:45:773,40.240,0.113,0.028,0.039,-9.554,102.489,-9.533
15:12:45:798,40.266,0.010,-0.030,0.035,-9.789,103.531,-8.274
15:12:45:824,40.291,-0.014,0.011,0.042,-9.907,103.463,-6.804
15:12:45:851,40.318,-0.011,-0.029,-0.004,-9.842,103.145,-5.804
15:12:45:878,40.346,0.135,-0.040,-0.002,-9.838,103.361,-4.620
15:12:45:904,40.372,0.155,-0.031,0.050,-9.990,103.800,-4.083
15:12:45:93,40.397,0.094,0.004,0.078,-10.625,104.597,-3.519
15:12:45:955,40.423,-0.107,0.006,0.042,-11.421,105.067,-3.217
15:12:45:982,40.450,-0.125,0.019,0.025,-11.843,105.797,-3.052
15:12:46:008,40.475,-0.089,0.037,-0.027,-12.103,105.904,-2.615
15:12:46:033,40.501,-0.033,0.019,-0.034,-12.047,106.257,-2.141
15:12:46:06,40.527,0.039,-0.002,0.036,-11.826,106.227,-1.333
15:12:46:086,40.554,0.037,-0.009,0.053,-11.731,106.231,-0.908
15:12:46:113,40.580,0.005,-0.012,0.017,-11.598,106.074,-0.413
15:12:46:138,40.606,0.003,-0.012,-0.010,-11.405,105.758,0.033
15:12:46:165,40.632,0.018,-0.018,0.005,-11.277,105.609,0.334
15:12:46:192,40.659,0.012,-0.005,0.009,-11.188,105.732,0.699
15:12:46:247,40.715,-0.006,0.002,-0.011,-11.169,105.779,0.892
15:12:46:247,40.715,0.002,0.009,0.002,-11.136,105.826,1.196
15:12:46:269,40.737,0.004,0.005,0.019,-11.008,105.706,1.547
15:12:46:296,40.764,-0.006,0.001,0.003,-10.880,105.497,1.788
15:12:46:323,40.791,-0.013,0.002,-0.026,-10.650,105.139,2.157
15:12:46:353,40.821,-0.030,0.004,-0.056,-10.467,105.352,2.412
15:12:46:354,40.821,0.001,-0.007,-0.011,-10.059,105.132,2.974
15:12:46:375,40.842,0.009,-0.001,0.004,-9.782,105.627,3.339
15:12:46:401,40.868,0.023,-0.005,-0.007,-9.332,105.518,3.898
15:12:46:427,40.894,-0.051,0.000,-0.061,-8.851,105.624,4.547
15:12:46:453,40.921,0.009,0.004,0.019,-8.500,105.617,5.041
15:12:46:482,40.949,-0.010,-0.003,-0.006,-7.889,105.807,5.766
15:12:46:507,40.974,-0.025,-0.002,-0.053,-7.424,105.790,6.298
15:12:46:592,41.060,-0.076,0.005,-0.047,-6.631,106.091,7.249
15:12:46:593,41.060,-0.011,0.033,0.014,-5.776,106.817,8.324
15:12:46:593,41.060,-0.030,0.021,-0.016,-5.135,107.062,9.072
15:12:46:613,41.080,-0.026,0.056,-0.050,-4.095,107.574,10.383
15:12:46:638,41.105,-0.016,0.070,0.021,-3.309,107.942,11.376
15:12:46:663,41.131,0.003,0.077,-0.023,-1.968,108.495,12.878
15:12:46:69,41.157,0.042,0.222,-0.147,-0.586,108.655,14.230
15:12:46:716,41.184,0.021,0.158,-0.196,0.330,108.684,15.095
15:12:46:742,41.210,-0.130,0.180,-0.171,1.822,108.839,16.517
15:12:46:77,41.238,-0.161,0.186,-0.164,2.910,108.973,17.638
15:12:46:824,41.292,-0.211,0.148,-0.156,4.898,108.802,19.538
15:12:46:824,41.292,-0.266,0.089,-0.172,6.515,108.373,20.961
15:12:46:879,41.346,-0.272,0.066,-0.177,9.285,107.323,23.358
15:12:46:879,41.346,-0.224,0.088,-0.198,12.386,105.989,26.011
15:12:46:9,41.367,-0.218,0.168,-0.105,14.612,105.071,27.991
15:12:46:926,41.393,-0.275,0.004,-0.145,18.175,103.766,30.839
15:12:47:013,41.481,-0.284,-0.236,-0.100,20.352,102.966,32.471
15:12:47:013,41.481,-0.282,-0.588,-0.182,23.065,101.165,33.713
15:12:47:013,41.481,-0.078,-0.529,-0.125,24.955,98.637,33.109
15:12:47:031,41.499,-0.146,-0.606,-0.322,25.352,96.613,31.684
15:12:47:059,41.526,-0.015,-0.425,-0.238,24.008,94.501,28.716
15:12:47:084,41.552,-0.085,-0.217,-0.473,21.923,93.955,26.567
15:12:47:111,41.578,-0.102,-0.087,-0.323,18.382,93.888,23.321
15:12:47:137,41.604,-0.083,0.061,-0.123,16.260,94.245,21.211
15:12:47:162,41.630,-0.079,0.053,-0.100,12.874,95.443,17.708
15:12:47:188,41.656,-0.137,0.032,-0.070,9.359,97.085,14.072
15:12:47:215,41.682,-0.133,0.002,-0.125,7.119,98.284,11.557
15:12:47:241,41.709,-0.132,0.034,-0.088,3.576,100.439,7.804
15:12:47:267,41.735,-0.108,0.111,-0.063,1.074,102.157,5.259
15:12:47:294,41.762,-0.016,0.303,0.284,-2.719,104.928,1.265
15:12:47:32,41.787,0.027,0.249,0.105,-6.107,108.172,-3.456
15:12:47:373,41.841,0.251,0.207,0.344,-8.197,110.125,-6.753
15:12:47:403,41.871,0.355,0.097,0.449,-11.354,112.809,-11.637
15:12:47:403,41.871,0.511,0.039,0.506,-13.233,114.542,-14.954
15:12:47:425,41.892,0.499,-0.026,0.573,-15.755,116.906,-19.691
15:12:47:451,41.918,0.717,-0.121,0.714,-17.729,117.800,-23.110
15:12:47:506,41.974,0.781,-0.064,0.682,-18.360,117.279,-23.489
15:12:47:507,41.974,0.607,-0.280,0.513,-17.523,115.574,-21.447
15:12:47:531,41.999,-0.076,0.078,0.001,-16.521,114.535,-19.221
15:12:47:556,42.024,-0.008,0.256,-0.694,-15.672,113.228,-17.354
15:12:47:583,42.050,0.238,0.010,0.073,-14.988,112.700,-16.137
15:12:47:609,42.076,0.289,0.090,0.056,-14.294,112.957,-14.415
15:12:47:635,42.102,-0.025,0.001,-0.042,-14.106,112.158,-12.503
15:12:47:661,42.129,-0.025,-0.028,0.462,-14.144,112.522,-11.243
15:12:47:687,42.155,-0.056,-0.031,0.025,-13.929,114.194,-9.793
15:12:47:743,42.211,0.049,-0.006,0.113,-13.719,114.888,-8.946
15:12:47:744,42.211,0.067,-0.057,0.098,-13.186,114.177,-7.427
15:12:47:766,42.234,0.132,-0.033,-0.022,-12.779,113.422,-6.049
15:12:47:795,42.262,0.090,-0.027,-0.058,-12.718,112.735,-5.339
15:12:47:848,42.315,0.009,-0.002,-0.014,-12.993,113.178,-4.540
15:12:47:848,42.316,-0.048,0.018,0.057,-13.238,113.387,-4.092
15:12:47:871,42.339,-0.044,0.023,0.118,-13.414,114.027,-3.389
15:12:47:899,42.366,0.007,0.003,0.045,-13.349,113.775,-2.944
15:12:47:924,42.392,-0.001,-0.004,-0.008,-13.180,113.407,-2.337
15:12:47:95,42.418,0.010,-0.004,-0.022,-12.982,112.639,-1.730
15:12:47:978,42.446,0.005,0.003,-0.004,-12.846,112.634,-1.327
15:12:48:004,42.471,0.003,-0.003,0.023,-12.588,112.300,-0.717
15:12:48:029,42.496,0.009,-0.001,0.010,-12.387,112.073,-0.299
15:12:48:054,42.522,0.021,-0.010,-0.009,-12.057,111.127,0.339
15:12:48:081,42.548,0.024,-0.011,-0.002,-11.787,110.835,0.894
15:12:48:136,42.604,0.025,-0.007,-0.006,-11.644,110.701,1.215
15:12:48:137,42.605,0.000,-0.007,-0.016,-11.510,110.504,1.689
15:12:48:161,42.629,0.000,-0.004,-0.013,-11.452,110.436,2.008
15:12:48:187,42.655,0.002,-0.001,0.011,-11.373,110.404,2.496
15:12:48:241,42.709,-0.034,0.012,0.001,-11.277,110.221,3.035
15:12:48:242,42.709,-0.020,-0.004,-0.033,-11.188,109.823,3.415
15:12:48:264,42.732,-0.020,0.000,-0.025,-10.994,109.704,4.110
15:12:48:321,42.788,-0.024,0.011,0.024,-10.834,109.683,4.612
15:12:48:322,42.789,-0.059,0.016,-0.019,-10.445,109.517,5.431
15:12:48:345,42.812,-0.007,0.005,-0.027,-9.895,109.183,6.406
15:12:48:37,42.837,-0.002,0.013,-0.014,-9.531,109.170,7.096
15:12:48:396,42.864,-0.026,0.026,-0.036,-8.929,109.029,8.139
15:12:48:422,42.890,-0.036,0.026,-0.003,-8.447,108.940,8.917
15:12:48:448,42.916,-0.035,0.053,-0.020,-7.619,108.718,10.128
15:12:48:475,42.943,0.016,0.087,-0.036,-6.978,108.733,10.965
15:12:48:501,42.969,-0.060,0.230,-0.122,-5.954,108.576,12.207
15:12:48:588,43.056,-0.005,0.133,-0.148,-4.884,108.421,13.380
15:12:48:589,43.057,-0.060,0.098,-0.149,-4.066,108.223,14.286
15:12:48:59,43.057,-0.077,0.075,-0.083,-2.617,108.170,15.781
15:12:48:591,43.058,-0.113,0.070,-0.110,-1.463,107.967,16.872
15:12:48:635,43.102,-0.115,0.068,-0.136,0.689,107.455,18.604
15:12:48:636,43.103,-0.182,0.060,-0.159,3.190,106.781,20.476
15:12:48:717,43.184,-0.258,0.064,-0.199,5.024,106.242,21.920
15:12:48:718,43.185,-0.376,0.042,-0.323,8.054,105.186,24.426
15:12:48:718,43.186,-0.286,0.097,-0.279,10.056,104.679,26.531
15:12:48:766,43.234,-0.279,0.298,-0.135,13.444,104.020,30.034
15:12:48:767,43.235,-0.314,0.143,-0.164,16.134,103.615,32.345
15:12:48:819,43.287,-0.265,-0.038,-0.054,20.205,103.095,35.551
15:12:48:82,43.287,-0.282,-0.487,0.028,23.602,101.595,37.325
15:12:48:871,43.339,0.000,-0.822,-0.036,25.489,99.963,37.158
15:12:48:872,43.340,-0.032,-0.674,-0.321,27.354,95.964,34.985
15:12:48:895,43.363,-0.049,-0.628,-0.332,26.998,94.048,32.836
15:12:48:921,43.389,0.068,-0.357,-0.354,25.174,91.421,28.874
15:12:48:949,43.416,-0.004,-0.301,-0.433,22.218,89.692,24.614
15:12:49:031,43.499,-0.001,-0.184,-0.369,19.535,89.380,21.915
15:12:49:032,43.500,-0.019,0.115,-0.197,14.824,90.150,18.223
15:12:49:033,43.501,-0.053,0.140,-0.120,11.800,91.022,15.812
15:12:49:053,43.520,-0.046,0.133,0.049,7.799,92.502,11.971
15:12:49:108,43.576,-0.041,0.123,0.107,4.073,93.984,7.850
15:12:49:108,43.576,-0.047,0.137,0.101,1.630,95.077,4.996
15:12:49:131,43.599,-0.040,0.189,0.094,-1.928,96.756,0.540
15:12:49:187,43.654,0.046,0.271,0.208,-4.250,97.725,-2.406
15:12:49:187,43.654,0.135,0.255,0.299,-7.744,98.835,-6.731
15:12:49:24,43.707,0.368,0.185,0.461,-11.206,99.740,-10.978
15:12:49:24,43.707,0.351,0.090,0.463,-13.342,100.450,-13.666
15:12:49:292,43.759,0.368,0.002,0.345,-16.137,101.772,-17.573
15:12:49:293,43.760,0.355,-0.034,0.411,-17.550,102.780,-19.996
15:12:49:315,43.782,0.457,-0.180,0.700,-18.743,104.453,-22.606
15:12:49:341,43.809,0.407,0.156,0.604,-19.026,105.223,-23.233
15:12:49:367,43.835,0.379,-0.080,0.297,-18.778,105.082,-21.806
15:12:49:395,43.862,0.085,-0.114,0.167,-17.384,105.279,-19.535
15:12:49:42,43.888,-0.092,0.084,-0.097,-16.664,105.758,-18.198
15:12:49:447,43.915,0.091,0.180,-0.384,-15.586,107.155,-17.073
15:12:49:472,43.940,0.237,0.029,0.016,-14.991,108.222,-16.409
15:12:49:499,43.966,0.118,0.041,0.106,-14.347,108.947,-15.043
15:12:49:525,43.993,0.020,0.008,0.080,-14.061,108.342,-13.473
15:12:49:551,44.018,-0.047,-0.076,0.222,-14.132,108.538,-12.254
15:12:49:577,44.045,0.133,-0.009,0.033,-13.935,110.039,-10.667
15:12:49:603,44.071,0.061,-0.032,0.075,-13.783,110.701,-9.608
15:12:49:659,44.127,0.142,-0.016,0.056,-13.725,111.185,-7.971
15:12:49:66,44.127,0.013,-0.054,-0.001,-13.662,111.224,-6.929
15:12:49:684,44.151,-0.067,-0.002,-0.006,-13.692,111.548,-5.573
15:12:49:709,44.177,0.049,0.004,0.091,-13.675,112.167,-4.310
15:12:49:793,44.260,-0.005,0.016,0.034,-13.660,112.212,-3.600
15:12:49:794,44.261,-0.019,0.016,0.086,-13.551,112.598,-2.648
15:12:49:794,44.262,-0.040,0.004,0.029,-13.398,112.295,-2.085
15:12:49:843,44.310,0.032,0.000,0.012,-13.063,112.428,-1.296
15:12:49:843,44.311,0.013,-0.006,-0.005,-12.715,111.953,-0.473
15:12:49:867,44.334,0.021,-0.016,-0.002,-12.488,111.931,0.093
15:12:49:893,44.360,0.016,0.000,0.031,-12.199,111.619,0.873
15:12:49:919,44.386,-0.006,-0.004,0.008,-12.035,111.525,1.320
15:12:50:024,44.492,-0.021,-0.008,-0.008,-11.737,110.927,1.899
15:12:50:051,44.518,0.018,-0.006,-0.007,-11.364,110.907,2.470
15:12:50:084,44.552,0.025,0.008,0.032,-11.156,110.968,2.819
15:12:50:085,44.553,0.026,-0.004,0.012,-10.856,110.916,3.235
15:12:50:086,44.554,0.004,-0.006,-0.015,-10.673,110.783,3.508
15:12:50:087,44.555,-0.023,0.003,-0.004,-10.361,110.558,3.941
15:12:50:132,44.599,0.012,0.000,0.012,-10.102,110.265,4.285
15:12:50:132,44.600,-0.008,-0.004,-0.015,-9.679,109.888,4.790
15:12:50:155,44.623,-0.022,-0.003,-0.039,-9.254,109.298,5.266
15:12:50:181,44.649,-0.029,0.009,-0.023,-9.033,109.188,5.592
15:12:50:236,44.704,-0.008,0.004,-0.028,-8.705,109.100,6.245
15:12:50:237,44.704,0.006,0.025,0.027,-8.511,109.102,6.720
15:12:50:319,44.786,-0.044,0.012,-0.042,-8.109,109.039,7.473
15:12:50:32,44.787,-0.033,0.019,-0.015,-7.497,108.978,8.377
15:12:50:32,44.788,-0.046,0.025,0.009,-6.964,109.010,9.008
15:12:50:339,44.806,-0.014,0.039,0.015,-6.027,108.973,9.948
15:12:50:365,44.832,-0.064,0.069,-0.050,-5.287,109.028,10.551
15:12:50:421,44.888,-0.096,0.134,-0.029,-4.031,109.227,11.529
15:12:50:421,44.889,-0.068,0.142,-0.144,-3.138,109.270,12.213
15:12:50:443,44.911,-0.055,0.114,-0.163,-1.682,109.201,13.369
15:12:50:499,44.967,-0.096,0.070,-0.162,-0.034,109.263,14.818
15:12:50:5,44.967,-0.138,0.067,-0.142,1.180,109.412,15.979
15:12:50:525,44.992,-0.168,0.056,-0.082,3.254,109.625,17.941
15:12:50:549,45.017,-0.163,0.080,-0.048,4.772,109.611,19.386
15:12:50:605,45.072,-0.306,0.044,-0.134,7.343,109.067,21.635
15:12:50:605,45.072,-0.287,0.066,-0.202,10.345,107.787,24.120
15:12:50:656,45.124,-0.295,0.107,-0.236,12.532,106.670,25.996
15:12:50:657,45.125,-0.249,0.273,-0.133,16.043,104.831,29.071
15:12:50:68,45.148,-0.319,0.074,-0.174,18.762,103.466,31.063
15:12:50:707,45.175,-0.292,0.042,-0.084,22.856,101.795,33.772
15:12:50:732,45.200,-0.187,-0.492,0.014,26.223,99.774,35.387
15:12:50:759,45.226,0.230,-0.886,0.281,28.019,97.717,35.179
15:12:50:785,45.253,0.005,-0.841,-0.361,29.175,93.657,32.782
15:12:50:814,45.281,-0.056,-0.629,-0.313,28.165,91.359,30.510
15:12:50:815,45.282,0.114,-0.351,-0.398,25.148,88.856,26.559
15:12:50:868,45.335,0.116,-0.140,-0.573,22.291,88.094,24.126
15:12:50:868,45.335,-0.080,0.165,-0.158,17.340,88.802,21.217
15:12:50:919,45.387,-0.030,0.203,-0.091,13.364,89.777,18.110
15:12:50:946,45.413,0.009,0.196,-0.072,10.998,90.610,15.708
15:12:50:946,45.414,-0.070,0.128,-0.041,7.688,91.704,12.188
15:12:50:969,45.436,-0.003,0.125,-0.080,5.613,92.368,9.881
15:12:51:053,45.520,0.038,0.120,-0.005,2.355,94.028,6.649
15:12:51:054,45.521,0.030,0.128,0.054,-0.923,96.536,3.318
15:12:51:055,45.522,0.022,0.125,0.102,-2.954,98.429,0.921
15:12:51:103,45.571,0.048,0.142,0.228,-5.850,101.142,-2.907
15:12:51:103,45.571,0.136,0.145,0.300,-7.770,102.516,-5.551
15:12:51:126,45.594,0.243,0.119,0.367,-10.733,103.754,-9.564
15:12:51:181,45.649,0.301,0.084,0.369,-12.737,104.025,-12.219
15:12:51:182,45.650,0.301,0.031,0.438,-15.649,103.604,-15.969
15:12:51:205,45.673,0.206,-0.076,0.520,-18.343,102.854,-19.148
15:12:51:313,45.781,0.259,-0.117,0.560,-20.000,102.248,-20.837
15:12:51:314,45.782,0.357,-0.145,0.521,-22.058,100.602,-21.978
15:12:51:4,45.867,0.392,-0.135,0.395,-22.892,99.182,-21.704
15:12:51:4,45.867,0.393,-0.105,0.369,-23.086,97.408,-20.087
15:12:51:4,45.868,0.304,-0.195,-0.041,-22.209,95.779,-16.890
15:12:51:401,45.868,0.015,-0.120,-0.192,-21.171,95.370,-14.952
15:12:51:447,45.914,-0.556,0.192,-0.652,-20.211,96.550,-13.529
15:12:51:448,45.915,0.531,0.016,0.066,-20.064,97.908,-13.530
15:12:51:448,45.916,0.323,0.014,-0.289,-19.158,99.418,-12.981
15:12:51:495,45.963,-0.016,-0.082,0.468,-18.609,99.126,-11.891
15:12:51:547,46.014,0.194,0.108,-0.088,-18.615,98.954,-10.642
15:12:51:634,46.102,0.097,-0.070,-0.170,-17.821,99.670,-9.144
15:12:51:635,46.102,-0.123,-0.072,0.249,-17.514,100.535,-8.232
15:12:51:636,46.103,-0.081,-0.044,0.080,-17.044,101.474,-6.780
15:12:51:636,46.104,0.020,-0.024,0.146,-16.670,101.467,-5.799
15:12:51:654,46.121,0.107,-0.034,0.059,-16.168,101.283,-4.576
15:12:51:655,46.122,-0.026,-0.025,-0.029,-15.935,100.699,-3.635
15:12:51:735,46.203,0.007,-0.018,0.001,-15.903,100.796,-3.147
15:12:51:736,46.204,-0.003,0.006,0.030,-15.925,101.228,-2.623
15:12:51:737,46.204,0.005,0.012,0.065,-15.905,101.484,-2.299
15:12:51:756,46.224,0.023,0.009,0.044,-15.808,101.324,-1.763
15:12:51:812,46.280,-0.005,0.004,0.020,-15.674,100.784,-1.261
15:12:51:813,46.281,-0.028,0.006,-0.001,-15.596,100.456,-0.960
15:12:51:836,46.303,-0.024,0.005,-0.015,-15.395,99.960,-0.464
15:12:51:921,46.389,-0.014,-0.014,0.006,-15.217,99.720,-0.113
15:12:51:922,46.389,0.016,-0.011,0.023,-14.942,99.209,0.431
15:12:51:922,46.389,0.016,-0.015,-0.019,-14.762,98.982,0.778
15:12:51:942,46.409,-0.005,-0.012,0.020,-14.507,98.229,1.295
15:12:52:025,46.492,0.016,-0.002,0.025,-14.289,97.997,1.777
15:12:52:025,46.493,0.021,-0.005,-0.017,-14.164,97.267,2.072
15:12:52:026,46.494,-0.004,0.005,-0.041,-14.012,96.969,2.530
15:12:52:045,46.512,-0.023,0.009,-0.037,-13.902,96.716,2.886
15:12:52:131,46.598,-0.007,0.003,0.000,-13.680,96.478,3.471
15:12:52:131,46.598,-0.006,0.002,-0.026,-13.406,96.209,4.078
15:12:52:131,46.599,0.003,-0.003,-0.050,-13.206,95.973,4.523
15:12:52:208,46.676,0.007,0.004,-0.040,-12.867,95.636,5.308
15:12:52:209,46.676,0.017,0.001,0.018,-12.630,95.498,5.859
15:12:52:21,46.677,0.042,-0.018,0.017,-12.328,95.192,6.737
15:12:52:229,46.696,0.003,-0.005,-0.026,-12.025,94.770,7.585
15:12:52:313,46.780,-0.012,0.024,-0.027,-11.798,94.482,8.149
15:12:52:313,46.781,-0.012,0.033,-0.009,-11.406,94.063,9.138
15:12:52:314,46.782,0.017,0.044,-0.062,-11.073,93.667,9.849
15:12:52:363,46.831,0.014,0.034,-0.121,-10.414,92.851,11.027
15:12:52:364,46.832,-0.023,0.037,-0.151,-9.852,92.341,11.920
15:12:52:415,46.883,-0.096,0.145,0.002,-8.907,91.993,13.369
15:12:52:416,46.883,-0.049,0.117,-0.133,-7.919,91.767,14.814
15:12:52:439,46.907,-0.008,0.084,-0.175,-7.151,91.416,15.818
15:12:52:465,46.932,-0.056,0.051,-0.178,-5.828,91.121,17.497
15:12:52:52,46.988,-0.072,0.048,-0.163,-4.828,91.041,18.822
15:12:52:521,46.989,-0.068,0.107,-0.235,-3.039,90.783,21.031
15:12:52:545,47.012,-0.155,0.115,-0.459,-0.765,89.760,23.433
15:12:52:6,47.068,-0.127,0.045,-0.541,1.241,88.418,25.214
15:12:52:6,47.068,-0.060,0.310,-0.430,4.419,86.914,28.714
15:12:52:622,47.090,-0.191,0.330,-0.309,6.750,86.451,31.551
15:12:52:65,47.118,-0.299,0.289,-0.287,10.889,85.920,35.850
15:12:52:704,47.172,-0.195,-0.047,-0.339,15.730,85.260,39.664
15:12:52:705,47.173,-0.294,-0.459,-0.128,18.913,84.889,41.642
15:12:52:728,47.195,-0.050,-0.640,0.140,23.059,84.081,42.498
15:12:52:754,47.221,0.214,-0.821,-0.410,24.749,82.871,41.568
15:12:52:81,47.277,0.177,-0.598,-0.389,24.771,82.125,38.906
15:12:52:81,47.277,0.201,-0.359,-0.301,24.067,81.779,36.623
15:12:52:891,47.358,-0.121,-0.121,-0.159,21.756,82.915,33.110
15:12:52:891,47.359,-0.127,-0.133,-0.149,19.083,84.050,28.933
15:12:52:892,47.360,-0.094,-0.092,-0.222,17.219,84.559,25.901
15:12:52:911,47.379,-0.045,0.069,-0.066,14.158,85.581,21.500
15:12:52:995,47.463,0.035,-0.065,-0.130,12.459,86.146,18.531
15:12:52:996,47.464,0.008,-0.120,-0.121,10.066,87.098,14.011
15:12:52:997,47.464,-0.087,-0.107,0.008,7.332,88.838,9.470
15:12:53:045,47.513,-0.129,-0.084,0.097,5.338,89.995,6.307
15:12:53:046,47.514,-0.174,0.036,0.021,2.073,91.561,1.220
15:12:53:069,47.536,-0.052,0.241,0.236,-0.247,92.796,-2.266
15:12:53:095,47.563,0.102,0.332,0.550,-3.856,94.725,-7.438
15:12:53:124,47.591,0.208,0.183,0.878,-7.602,95.896,-12.461
15:12:53:125,47.592,0.180,0.128,0.765,-10.144,96.408,-15.565
15:12:53:148,47.616,0.679,-0.279,0.455,-13.624,97.411,-19.491
15:12:53:173,47.641,0.787,0.136,0.867,-14.959,98.133,-21.135
15:12:53:23,47.698,0.421,-0.248,1.420,-14.650,100.486,-22.177
15:12:53:23,47.698,-0.700,0.446,-1.236,-13.660,100.972,-20.761
15:12:53:311,47.778,0.569,0.205,0.200,-12.444,101.108,-19.634
15:12:53:311,47.779,0.031,0.015,0.191,-11.350,101.008,-16.906
15:12:53:312,47.780,0.073,-0.014,0.111,-11.051,100.582,-15.281
15:12:53:331,47.799,0.285,0.202,0.160,-11.138,101.163,-12.639
15:12:53:386,47.854,0.362,-0.026,0.110,-10.882,102.250,-11.132
15:12:53:387,47.854,0.013,-0.024,0.072,-11.101,104.066,-9.575
15:12:53:441,47.909,-0.102,-0.006,0.114,-11.486,105.181,-8.307
15:12:53:441,47.909,-0.003,-0.011,0.063,-11.529,105.114,-7.265
15:12:53:462,47.930,-0.080,0.003,0.058,-11.590,105.045,-5.855
15:12:53:516,47.983,0.009,0.012,0.016,-11.608,104.882,-5.082
15:12:53:545,48.012,0.073,-0.001,0.026,-11.531,105.204,-4.196
15:12:53:545,48.012,0.025,0.008,0.048,-11.499,105.539,-3.432
15:12:53:567,48.035,0.004,0.012,0.050,-11.465,105.814,-2.970
15:12:53:595,48.063,-0.001,0.008,0.025,-11.335,105.688,-2.346
15:12:53:621,48.089,0.010,-0.001,0.010,-11.171,105.693,-1.885
15:12:53:674,48.141,0.034,-0.007,0.026,-10.916,105.219,-1.105
15:12:53:7,48.167,0.020,-0.008,0.000,-10.806,105.031,-0.621
15:12:53:729,48.197,-0.013,0.000,0.013,-10.727,104.736,0.023
15:12:53:729,48.197,-0.005,-0.008,-0.060,-10.673,104.695,0.648
15:12:53:751,48.218,-0.037,0.003,0.005,-10.608,104.305,1.075
15:12:53:778,48.245,0.090,-0.020,0.034,-10.430,104.461,1.685
15:12:53:834,48.301,0.023,-0.006,-0.018,-10.374,104.359,2.044
15:12:53:834,48.301,-0.008,0.000,-0.015,-10.424,104.316,2.508
15:12:53:856,48.324,-0.037,0.015,0.011,-10.534,104.367,2.957
15:12:53:882,48.350,-0.044,0.010,-0.004,-10.540,104.375,3.283
15:12:53:968,48.436,-0.060,0.018,-0.003,-10.376,104.285,3.857
15:12:53:968,48.436,-0.046,0.012,-0.025,-10.207,104.199,4.266
15:12:53:969,48.436,-0.012,0.014,-0.013,-9.697,103.830,5.071
15:12:53:989,48.457,0.030,0.016,0.003,-9.345,103.797,5.695
15:12:54:016,48.483,-0.016,0.002,-0.013,-8.857,103.641,6.631
15:12:54:042,48.509,0.009,0.029,-0.001,-8.274,103.397,7.609
15:12:54:124,48.591,-0.032,-0.006,-0.045,-7.830,103.283,8.241
15:12:54:124,48.592,0.043,0.071,-0.015,-7.064,103.175,9.317
15:12:54:148,48.615,-0.056,0.135,-0.013,-6.531,103.211,10.074
15:12:54:148,48.616,-0.018,0.161,-0.087,-5.652,103.057,11.176
15:12:54:281,48.748,-0.050,0.099,-0.152,-3.715,102.669,13.137
15:12:54:362,48.830,-0.064,0.099,-0.122,-2.209,102.645,14.678
15:12:54:362,48.830,-0.082,0.070,-0.119,-1.064,102.736,15.826
15:12:54:362,48.830,-0.052,0.076,-0.141,0.972,102.868,17.690
15:12:54:389,48.856,-0.113,0.079,-0.163,3.402,102.981,19.651
15:12:54:389,48.856,-0.102,0.082,-0.167,5.206,102.879,21.024
15:12:54:39,48.857,-0.324,0.055,-0.386,8.385,102.112,23.148
15:12:54:41,48.878,-0.319,0.083,-0.334,10.782,101.521,24.748
15:12:54:411,48.879,-0.243,0.328,-0.177,14.354,101.388,28.000
15:12:54:464,48.932,-0.307,0.217,-0.218,16.862,101.869,30.642
15:12:54:465,48.932,-0.320,0.139,-0.119,20.565,103.179,34.680
15:12:54:515,48.983,-0.281,-0.569,-0.040,23.990,104.173,37.989
15:12:54:516,48.984,-0.231,-0.673,-0.214,25.831,104.254,38.790
15:12:54:73,49.197,-0.086,-0.638,-0.271,27.669,103.523,38.433
15:12:54:73,49.198,-0.121,-0.567,-0.249,27.375,103.306,37.436
15:12:54:731,49.199,-0.077,-0.427,-0.251,26.069,102.566,34.496
15:12:54:811,49.278,-0.223,-0.328,-0.251,23.921,101.544,30.356
15:12:54:812,49.279,-0.190,-0.231,-0.338,21.803,101.174,27.229
15:12:54:812,49.279,-0.153,0.034,-0.254,17.777,101.549,22.574
15:12:54:813,49.280,-0.171,0.110,-0.141,15.100,102.107,19.543
15:12:54:943,49.410,-0.209,0.125,-0.118,11.351,103.297,14.794
15:12:54:943,49.410,-0.163,0.112,-0.047,8.911,104.561,11.603
15:12:54:943,49.411,-0.179,0.118,0.058,5.137,107.025,6.950
15:12:54:944,49.411,-0.140,0.202,0.131,1.203,110.047,2.113
15:12:55:048,49.515,-0.042,0.251,0.262,-1.374,112.142,-1.307
15:12:55:048,49.516,0.203,0.305,0.494,-5.012,114.983,-6.791
15:12:55:049,49.517,0.329,0.176,0.486,-7.329,116.469,-10.655
15:12:55:05,49.517,0.422,0.030,0.594,-10.888,118.049,-16.406
15:12:55:065,49.532,0.757,0.006,0.512,-14.463,119.091,-21.371
15:12:55:152,49.620,0.848,-0.159,0.701,-16.001,120.111,-23.815
15:12:55:155,49.623,1.012,0.039,0.887,-17.179,122.034,-25.936
15:12:55:155,49.623,0.660,-0.136,0.319,-16.400,122.903,-24.864
15:12:55:156,49.623,-0.028,0.146,0.105,-14.032,124.340,-21.749
15:12:55:258,49.725,-0.824,0.199,-0.743,-11.785,126.763,-19.481
15:12:55:258,49.726,0.399,-0.009,0.051,-10.846,128.807,-18.602
15:12:55:259,49.727,0.084,-0.012,0.063,-9.786,131.774,-16.923
15:12:55:26,49.727,0.112,-0.038,0.066,-9.700,132.211,-15.871
15:12:55:283,49.751,0.302,0.146,0.294,-10.213,131.995,-13.658
15:12:55:284,49.752,0.151,0.028,-0.045,-10.187,132.653,-12.704
15:12:55:285,49.753,0.054,-0.043,0.030,-10.595,133.251,-11.770
15:12:55:286,49.754,-0.016,0.006,-0.009,-10.970,133.121,-10.617
15:12:55:335,49.802,-0.027,-0.032,-0.033,-11.223,132.885,-9.758
15:12:55:336,49.803,-0.020,-0.031,-0.061,-11.531,133.059,-8.473
15:12:55:337,49.804,-0.009,-0.018,-0.003,-11.782,133.497,-7.660
15:12:55:338,49.805,0.000,-0.005,0.022,-12.136,134.270,-6.463
15:12:55:382,49.849,-0.014,0.019,0.051,-12.412,134.903,-5.266
15:12:55:382,49.850,-0.005,0.027,0.072,-12.506,135.295,-4.535
15:12:55:625,50.093,0.028,0.012,0.062,-12.508,135.736,-3.552
15:12:55:626,50.093,0.000,0.015,0.041,-12.446,135.839,-2.962
15:12:55:626,50.093,-0.021,0.003,0.029,-12.251,136.136,-2.119
15:12:55:626,50.094,0.032,-0.017,-0.015,-12.064,136.106,-1.594
15:12:55:678,50.146,0.006,-0.022,-0.016,-11.809,136.546,-0.835
15:12:55:678,50.146,-0.009,-0.012,0.001,-11.617,136.614,-0.105
15:12:55:679,50.146,0.007,-0.016,0.014,-11.507,136.773,0.325
15:12:55:679,50.146,0.030,-0.005,-0.011,-11.372,137.014,0.889
15:12:55:913,50.381,-0.023,-0.002,0.025,-11.315,137.097,1.219
15:12:55:913,50.381,-0.030,-0.008,0.018,-11.205,137.152,1.700
15:12:55:914,50.382,-0.008,-0.014,0.027,-11.051,137.169,2.179
15:12:55:915,50.383,0.060,0.008,-0.009,-10.961,137.135,2.461
15:12:56:064,50.531,0.027,0.007,-0.039,-10.803,137.120,2.771
15:12:56:126,50.593,-0.024,0.002,0.010,-10.724,137.335,2.960
15:12:56:126,50.593,-0.037,0.002,0.005,-10.517,137.368,3.275
15:12:56:126,50.594,-0.046,-0.008,0.029,-10.342,137.533,3.517
15:12:56:127,50.595,-0.002,-0.010,-0.005,-10.118,137.508,3.890
15:12:56:172,50.640,0.001,0.001,-0.007,-9.866,137.672,4.247
15:12:56:173,50.641,-0.012,-0.003,-0.017,-9.702,137.623,4.495
15:12:56:174,50.641,-0.022,0.006,-0.005,-9.403,137.522,4.905
15:12:56:229,50.697,-0.020,0.012,0.031,-9.139,137.425,5.214
15:12:56:23,50.697,-0.036,0.013,-0.006,-8.660,137.172,5.766
15:12:56:231,50.698,-0.048,0.011,-0.026,-8.123,137.146,6.461
15:12:56:231,50.699,-0.011,0.028,0.011,-7.698,137.295,6.992
15:12:56:254,50.722,-0.064,0.039,-0.029,-6.952,137.368,7.848
15:12:56:255,50.722,-0.057,0.068,-0.028,-6.370,137.755,8.511
15:12:56:256,50.723,0.016,0.091,-0.024,-5.383,138.007,9.540
15:12:56:256,50.724,-0.011,0.080,-0.089,-4.266,138.469,10.538
15:12:56:309,50.776,-0.062,0.195,-0.119,-3.555,138.532,11.150
15:12:56:309,50.776,-0.067,0.084,-0.088,-2.424,138.639,12.077
15:12:56:309,50.777,-0.095,0.024,-0.020,-1.582,138.790,12.746
15:12:56:31,50.777,-0.127,0.044,0.044,-0.155,139.248,13.785
15:12:56:334,50.802,-0.138,0.016,-0.013,0.965,139.269,14.541
15:12:56:334,50.802,-0.147,0.033,-0.008,3.023,139.164,15.755
15:12:56:334,50.802,-0.169,0.058,-0.084,5.505,138.965,17.078
15:12:56:335,50.802,-0.225,0.054,-0.099,7.461,138.333,18.037
15:12:56:379,50.847,-0.454,0.066,-0.103,10.676,137.328,19.742
15:12:56:38,50.847,-0.438,0.157,-0.004,12.916,136.922,21.292
15:12:56:404,50.872,-0.438,0.209,0.039,16.370,137.395,24.328
15:12:56:43,50.897,-0.326,0.207,0.035,19.561,138.999,28.217
15:12:56:456,50.923,-0.323,0.035,0.109,21.547,140.442,30.814
15:12:56:534,51.002,-0.373,-0.360,0.023,24.110,141.404,33.952
15:12:56:561,51.029,-0.288,-0.687,-0.018,25.376,142.218,34.948
15:12:56:594,51.061,-0.185,-0.602,-0.056,26.321,142.213,34.707
15:12:56:594,51.061,-0.280,-0.606,-0.086,25.785,142.520,33.685
15:12:56:594,51.061,-0.187,-0.520,0.030,23.853,142.846,30.971
15:12:56:614,51.081,-0.332,-0.359,0.068,21.179,142.911,26.790
15:12:56:668,51.135,-0.315,-0.246,-0.096,19.049,142.999,23.605
15:12:56:669,51.136,-0.242,0.139,-0.103,15.623,143.718,19.045
15:12:56:691,51.159,-0.218,0.226,0.034,13.539,144.596,16.195
15:12:56:776,51.243,-0.180,0.254,0.110,10.627,147.149,11.909
15:12:56:777,51.244,-0.155,0.170,0.253,7.888,150.741,7.802
15:12:56:777,51.245,-0.071,0.180,0.287,6.183,153.290,5.157
