Time,Second,AccelerationX,AccelerationY,AccelerationZ,EulerAnglesX,EulerAnglesY,EulerAnglesZ
15:31:31:739,0.000,-0.534,-0.279,0.192,-97.775,59.648,-92.332
15:31:31:74,0.001,-0.372,-0.569,0.292,-106.321,64.102,-94.705
15:31:31:899,0.160,-0.224,-0.666,0.425,-109.794,66.840,-95.923
15:31:31:899,0.160,-0.169,-0.653,0.434,-112.042,70.291,-97.213
15:31:31:947,0.208,-0.155,-0.505,0.490,-112.396,72.794,-97.848
15:31:31:982,0.244,-0.151,-0.401,0.449,-111.789,73.706,-97.895
15:31:31:982,0.244,-0.250,-0.263,0.345,-108.841,73.530,-96.934
15:31:31:983,0.244,-0.329,0.018,0.262,-105.166,72.500,-95.704
15:31:31:984,0.245,-0.309,0.721,0.116,-96.481,69.926,-92.617
15:31:32:005,0.266,-0.053,0.857,0.134,-88.484,66.696,-89.311
15:31:32:005,0.266,0.169,0.656,0.043,-84.709,64.621,-87.439
15:31:32:006,0.267,0.143,0.088,-0.023,-81.917,61.951,-85.841
15:31:32:026,0.287,0.182,-0.019,-0.236,-81.003,60.323,-85.016
15:31:32:053,0.314,0.235,-0.059,-0.314,-79.817,57.587,-83.632
15:31:32:165,0.426,0.251,-0.243,-0.407,-78.474,55.191,-82.061
15:31:32:166,0.427,0.311,-0.337,-0.457,-77.535,53.687,-80.884
15:31:32:167,0.428,0.395,-0.403,-0.605,-76.382,52.798,-79.301
15:31:32:167,0.429,0.442,-0.325,-0.652,-76.082,53.439,-78.883
15:31:32:183,0.444,0.230,-0.159,-0.692,-76.424,57.121,-79.514
15:31:32:238,0.499,-0.099,0.233,-0.752,-77.901,62.634,-81.274
15:31:32:238,0.499,-0.293,0.298,-0.626,-79.857,67.207,-82.952
15:31:32:263,0.524,-0.459,0.633,-0.578,-83.367,74.213,-85.581
15:31:32:318,0.580,-0.532,0.761,-0.414,-85.799,78.819,-87.232
15:31:32:319,0.580,-0.603,0.921,-0.123,-88.970,84.968,-89.336
15:31:32:34,0.601,-0.384,0.455,0.179,-91.874,90.480,-91.160
15:31:32:366,0.627,-0.253,0.195,0.170,-93.623,93.876,-92.152
15:31:32:395,0.656,-0.097,-0.268,0.328,-97.068,99.002,-93.789
15:31:32:421,0.682,-0.070,-0.635,0.466,-99.711,102.261,-94.743
15:31:32:503,0.765,-0.001,-0.762,0.511,-103.678,106.719,-95.782
15:31:32:504,0.765,0.117,-0.890,0.515,-105.887,109.245,-96.228
15:31:32:504,0.766,0.170,-0.874,0.464,-108.120,111.787,-96.608
15:31:32:525,0.787,-0.056,-0.397,0.527,-108.215,111.889,-96.243
15:31:32:58,0.841,-0.250,0.393,0.630,-105.401,110.352,-95.136
15:31:32:58,0.841,-0.055,1.004,0.256,-95.036,106.221,-91.613
15:31:32:603,0.864,0.108,1.446,-0.246,-85.221,103.278,-88.709
15:31:32:656,0.917,-0.184,1.168,-0.199,-50.446,101.167,-86.689
15:31:32:684,0.945,-0.209,-0.263,-0.104,72.748,101.635,-86.052
15:31:32:685,0.946,0.203,-0.781,-0.120,77.061,102.505,-84.936
15:31:32:77,1.031,0.353,-0.445,-0.314,74.711,102.452,-82.892
15:31:32:77,1.031,0.065,-0.200,-0.477,70.990,101.666,-81.799
15:31:32:77,1.031,-0.104,-0.264,-0.597,62.528,100.544,-80.224
15:31:32:816,1.077,-0.178,-0.294,-0.817,50.760,99.604,-79.476
15:31:32:816,1.077,-0.276,-0.256,-0.928,41.708,99.728,-79.674
15:31:32:839,1.100,-0.398,0.100,-0.890,23.739,101.368,-81.261
15:31:32:893,1.154,-0.642,0.203,-0.531,4.756,103.429,-83.225
15:31:32:951,1.212,-0.678,0.257,-0.360,-59.962,107.621,-87.584
15:31:32:951,1.212,-0.743,0.608,-0.071,-103.844,112.704,-92.331
15:31:32:951,1.212,-0.680,0.822,0.174,-113.451,116.234,-95.379
15:31:32:971,1.232,-0.471,0.751,0.599,-123.224,120.907,-99.373
15:31:33:026,1.287,-0.231,0.424,0.644,-128.885,123.364,-101.393
15:31:33:026,1.287,0.043,-0.082,0.486,-136.756,126.472,-103.414
15:31:33:048,1.310,0.165,-0.320,0.435,-142.538,128.510,-104.344
15:31:33:137,1.398,0.328,-0.667,0.345,-151.433,131.804,-105.298
15:31:33:137,1.398,0.450,-0.935,0.270,-158.003,135.301,-105.765
15:31:33:137,1.398,0.446,-1.122,0.258,-159.949,137.442,-105.752
15:31:33:154,1.415,0.446,-1.091,0.226,-158.045,139.910,-105.320
15:31:33:209,1.470,0.282,-0.740,0.353,-149.656,140.574,-104.257
15:31:33:209,1.470,0.230,-0.032,0.633,-138.603,139.414,-102.427
15:31:33:232,1.494,0.154,1.380,0.614,-114.679,135.115,-97.635
15:31:33:288,1.549,0.160,1.677,0.017,-102.330,131.317,-94.158
15:31:33:289,1.550,0.033,1.178,-0.127,-92.897,126.409,-90.958
15:31:33:311,1.572,0.033,0.563,-0.009,-91.160,123.603,-90.387
15:31:33:365,1.626,-0.199,0.184,-0.217,-89.458,119.642,-89.805
15:31:33:392,1.653,-0.220,-0.124,-0.475,-88.202,116.163,-89.327
15:31:33:393,1.654,-0.216,-0.409,-0.693,-86.689,114.269,-88.802
15:31:33:478,1.739,-0.165,-0.560,-0.726,-85.326,112.408,-88.469
15:31:33:478,1.739,-0.228,-0.756,-0.709,-85.748,112.049,-88.727
15:31:33:479,1.740,-0.255,-0.766,-0.700,-88.881,112.815,-89.708
15:31:33:48,1.741,-0.302,-0.549,-0.528,-97.422,115.383,-91.739
15:31:33:553,1.814,-0.570,-0.113,-0.434,-104.846,117.693,-93.232
15:31:33:554,1.815,-0.799,0.991,-0.113,-114.916,122.047,-94.825
15:31:33:555,1.816,-0.749,1.148,0.274,-126.934,125.483,-96.121
15:31:33:574,1.835,-0.517,0.966,0.411,-156.421,130.107,-98.178
15:31:33:6,1.861,-0.248,0.737,0.489,-177.329,133.833,-100.530
15:31:33:628,1.889,-0.080,0.339,0.521,174.887,135.802,-102.268
15:31:33:653,1.914,0.217,-0.290,0.418,172.374,138.310,-104.476
15:31:33:679,1.940,0.397,-0.439,0.326,176.946,139.939,-105.686
15:31:33:732,1.993,0.707,-0.606,0.214,-175.370,142.310,-107.069
15:31:33:79,2.051,0.699,-1.002,0.034,-177.720,143.732,-107.781
15:31:33:79,2.051,0.499,-1.136,-0.075,177.315,143.779,-107.119
15:31:33:791,2.052,0.382,-0.947,0.101,167.932,142.971,-106.453
15:31:33:811,2.072,0.198,-0.530,0.093,163.796,142.082,-106.956
15:31:33:836,2.097,0.151,0.187,0.461,154.849,139.158,-104.110
15:31:33:863,2.124,0.170,0.864,0.820,140.417,135.235,-99.210
15:31:33:889,2.150,0.191,0.980,0.622,126.984,132.288,-96.574
15:31:33:915,2.176,-0.273,1.160,0.396,110.912,128.143,-93.201
15:31:33:941,2.202,-0.342,1.009,0.280,104.315,125.002,-91.375
15:31:33:998,2.260,-0.317,0.475,-0.098,-75.999,119.806,-89.766
15:31:33:998,2.260,-0.234,-0.119,-0.350,-79.310,116.524,-89.194
15:31:34:02,2.281,-0.219,-0.345,-0.434,-76.982,112.008,-88.396
15:31:34:105,2.366,-0.165,-0.525,-0.565,-71.977,107.572,-87.334
15:31:34:106,2.367,-0.128,-0.741,-0.745,-68.893,105.104,-86.623
15:31:34:107,2.368,-0.106,-0.933,-0.744,-65.109,102.258,-86.044
15:31:34:183,2.444,-0.114,-0.919,-0.589,-64.941,101.699,-86.189
15:31:34:184,2.446,-0.207,-0.657,-0.517,-69.124,102.608,-87.086
15:31:34:185,2.446,-0.617,1.382,-0.577,-73.636,104.962,-87.988
15:31:34:204,2.465,-0.738,2.034,-0.354,-71.589,107.439,-88.448
15:31:34:259,2.520,-0.682,1.175,0.194,89.629,111.496,-89.960
15:31:34:26,2.521,-0.291,0.127,0.451,98.428,113.090,-91.860
15:31:34:311,2.572,-0.414,0.324,0.276,114.441,113.349,-95.134
15:31:34:312,2.573,-0.361,0.544,-0.170,165.646,114.233,-96.976
15:31:34:336,2.597,-0.086,0.197,-0.076,-157.943,116.020,-98.188
15:31:34:362,2.623,0.101,-0.391,0.073,-144.074,119.888,-100.125
15:31:34:446,2.707,0.271,-0.944,0.205,-143.472,123.205,-101.345
15:31:34:446,2.707,0.308,-1.331,0.297,-146.668,128.767,-102.710
15:31:34:447,2.708,0.162,-1.649,0.258,-152.635,133.377,-103.243
15:31:34:466,2.727,0.154,-1.410,0.270,-148.528,135.455,-102.630
15:31:34:522,2.783,0.201,-0.207,0.598,-128.992,137.305,-100.393
15:31:34:523,2.784,0.468,1.272,0.855,-116.969,137.080,-98.589
15:31:34:546,2.808,0.290,1.363,0.572,-102.058,134.523,-94.222
15:31:34:573,2.835,0.294,1.567,0.229,-89.173,131.281,-89.729
15:31:34:627,2.888,0.242,1.187,0.114,-83.729,128.917,-87.953
15:31:34:628,2.889,0.101,0.808,-0.261,-82.496,123.148,-87.317
15:31:34:652,2.913,0.300,0.445,-0.062,-85.119,119.022,-88.105
15:31:34:705,2.966,-0.185,-0.305,-0.142,-78.141,114.754,-85.289
15:31:34:706,2.967,-0.119,-0.584,0.022,-75.146,109.207,-84.403
15:31:34:758,3.019,-0.218,-0.697,-0.299,-73.668,106.238,-83.904
15:31:34:758,3.020,-0.354,-0.825,-0.727,-67.240,102.612,-81.458
15:31:34:841,3.102,-0.457,-0.916,-0.745,-64.347,101.451,-80.784
15:31:34:841,3.102,-0.440,-0.928,-0.767,-60.156,102.025,-79.912
15:31:34:841,3.102,-0.703,-0.713,-0.800,-60.638,104.553,-80.136
15:31:34:889,3.150,-1.080,0.084,-0.882,-65.870,107.177,-81.360
15:31:34:89,3.151,-1.218,1.725,-0.786,-79.340,114.004,-85.454
15:31:34:913,3.175,-0.907,1.343,-0.369,-90.838,119.805,-90.383
15:31:34:968,3.229,-0.468,1.541,0.219,-110.798,128.330,-100.732
15:31:34:969,3.230,0.091,1.159,0.761,-120.919,133.593,-107.437
15:31:35:185,3.446,0.618,0.309,0.927,-131.334,140.570,-115.606
15:31:35:185,3.446,1.063,-0.706,0.940,-137.741,146.061,-119.825
15:31:35:186,3.447,1.139,-1.195,0.789,-141.803,148.709,-119.435
15:31:35:187,3.448,0.639,-1.566,0.264,-147.710,151.551,-115.618
15:31:35:237,3.498,0.400,-1.901,0.288,-149.877,153.223,-113.123
15:31:35:238,3.499,0.282,-1.835,0.383,-141.931,154.842,-108.427
15:31:35:238,3.499,0.355,-1.237,0.555,-119.922,154.534,-101.904
15:31:35:239,3.500,0.481,-0.129,0.732,-105.952,152.576,-97.285
15:31:35:26,3.521,0.505,2.250,0.453,-90.670,145.921,-90.328
15:31:35:26,3.521,-0.044,1.763,0.416,-77.788,140.394,-84.665
15:31:35:261,3.522,-0.031,1.740,-0.003,-64.763,133.018,-78.863
15:31:35:339,3.600,-0.372,1.052,0.013,-63.409,127.248,-77.158
15:31:35:339,3.600,-0.303,0.730,-0.221,-63.093,123.756,-76.293
15:31:35:34,3.601,-0.083,0.302,-0.330,-62.455,118.885,-75.149
15:31:35:386,3.647,-0.127,0.086,-0.313,-60.769,116.490,-74.697
15:31:35:417,3.678,-0.233,-0.446,-0.405,-56.572,114.346,-74.365
15:31:35:418,3.679,-0.311,-0.782,-0.661,-53.243,112.882,-73.869
15:31:35:438,3.699,-0.321,-0.864,-0.772,-51.470,112.569,-73.699
15:31:35:464,3.725,-0.468,-1.133,-0.788,-46.206,113.860,-73.834
15:31:35:49,3.751,-0.666,-1.326,-0.784,-42.486,115.647,-74.287
15:31:35:517,3.778,-0.912,-0.852,-0.744,-42.735,119.520,-75.318
15:31:35:63,3.891,-1.714,1.064,-0.687,-46.795,123.675,-75.669
15:31:35:631,3.892,-1.614,2.349,-0.691,-51.417,128.503,-76.928
15:31:35:632,3.893,-0.965,1.926,0.634,-57.080,138.385,-84.046
15:31:35:633,3.894,-0.184,1.287,0.930,-94.960,144.134,-90.496
15:31:35:765,4.026,0.488,0.672,1.140,-160.056,151.060,-99.634
15:31:35:765,4.026,0.886,-0.484,0.726,-169.757,156.830,-106.381
15:31:35:765,4.026,1.010,-0.966,0.482,-169.841,160.707,-109.708
15:31:35:765,4.026,1.299,-1.660,0.350,-167.976,166.228,-112.568
15:31:35:782,4.043,0.806,-1.567,0.058,-160.554,167.858,-111.228
15:31:35:783,4.044,0.715,-1.444,0.013,-138.618,170.896,-108.030
15:31:35:867,4.129,0.620,-1.006,-0.014,-126.078,171.016,-105.999
15:31:35:867,4.129,0.608,-0.718,0.133,-111.996,169.034,-101.256
15:31:35:867,4.129,0.159,-0.121,0.223,-97.610,164.336,-93.776
15:31:35:868,4.130,0.107,0.582,0.343,-91.010,160.524,-90.465
15:31:35:883,4.145,-0.241,1.519,0.665,-74.594,154.404,-83.768
15:31:35:94,4.201,-0.074,1.785,0.517,-64.174,149.974,-79.557
15:31:35:94,4.201,-0.341,1.696,0.109,-59.514,143.297,-75.880
15:31:35:964,4.225,-0.556,0.745,-0.155,-58.326,137.848,-73.915
15:31:36:018,4.279,-0.518,0.223,-0.148,-58.221,134.830,-73.344
15:31:36:019,4.280,-0.424,0.010,-0.318,-58.000,130.837,-72.308
15:31:36:128,4.389,-0.321,-0.352,-0.487,-57.330,128.763,-71.680
15:31:36:129,4.390,-0.342,-0.620,-0.564,-55.280,126.934,-71.145
15:31:36:13,4.391,-0.356,-0.842,-0.590,-53.026,126.775,-71.320
15:31:36:131,4.392,-0.387,-0.961,-0.518,-51.823,127.675,-71.948
15:31:36:146,4.407,-0.648,-1.158,-0.479,-51.154,130.310,-73.405
15:31:36:201,4.462,-0.922,-0.827,-0.324,-52.299,132.921,-74.585
15:31:36:202,4.463,-1.143,-0.308,-0.102,-55.634,138.058,-76.127
15:31:36:225,4.486,-1.495,1.568,0.315,-57.620,145.192,-77.045
15:31:36:311,4.572,-1.316,1.442,0.880,-57.329,151.024,-78.386
15:31:36:311,4.572,-0.512,1.296,1.503,-62.767,158.690,-82.694
15:31:36:312,4.573,0.370,1.204,1.058,-76.609,162.667,-86.222
15:31:36:548,4.809,0.357,0.715,0.417,-91.571,167.629,-90.615
15:31:36:548,4.809,0.515,0.232,-0.182,-99.397,173.849,-94.702
15:31:36:549,4.810,0.933,-0.547,-0.240,-102.797,178.964,-96.858
15:31:36:575,4.836,1.218,-0.922,-0.798,-105.560,-174.265,-99.052
15:31:36:576,4.837,0.715,-1.182,-0.584,-106.832,-171.303,-99.067
15:31:36:577,4.838,0.506,-1.416,-0.235,-102.784,-169.259,-95.972
15:31:36:578,4.839,0.542,-1.605,0.014,-95.982,-169.273,-92.477
15:31:36:601,4.862,0.535,-1.464,0.132,-85.759,-171.378,-88.586
15:31:36:602,4.863,0.534,-0.046,0.489,-69.612,-175.579,-83.095
15:31:36:602,4.864,0.390,1.668,0.366,-61.504,179.721,-78.664
15:31:36:603,4.865,-0.376,1.971,0.509,-47.758,171.267,-70.837
15:31:36:65,4.911,-0.804,1.796,0.213,-43.268,166.770,-67.393
15:31:36:65,4.911,-0.693,1.025,0.267,-42.248,162.655,-65.661
15:31:36:732,4.993,-0.406,0.113,0.205,-43.606,160.899,-65.917
15:31:36:733,4.994,-0.395,-0.107,0.129,-45.369,159.917,-66.292
15:31:36:733,4.994,-0.417,-0.384,-0.006,-47.715,158.621,-66.874
15:31:36:75,5.011,-0.502,-0.643,-0.104,-48.150,158.112,-67.088
15:31:36:806,5.067,-0.577,-0.697,-0.188,-48.369,157.795,-67.346
15:31:36:807,5.068,-0.694,-0.850,-0.262,-48.689,158.749,-68.234
15:31:36:856,5.117,-0.711,-0.916,-0.192,-49.275,160.429,-69.442
15:31:36:911,5.172,-0.628,-0.820,-0.126,-51.889,164.559,-71.919
15:31:36:912,5.173,-0.563,-0.273,0.077,-54.708,168.306,-73.784
15:31:36:937,5.198,-0.778,1.200,0.348,-58.661,174.841,-76.023
15:31:36:937,5.198,-0.396,1.639,0.640,-61.973,-177.435,-78.197
15:31:37:128,5.389,-0.063,1.557,0.993,-62.116,-172.260,-80.242
15:31:37:128,5.389,0.462,1.009,0.800,-67.030,-166.633,-83.937
15:31:37:128,5.389,0.236,0.352,0.349,-74.990,-164.086,-86.200
15:31:37:129,5.390,0.219,0.014,0.261,-86.053,-160.634,-88.973
15:31:37:179,5.440,0.350,-0.372,-0.062,-95.128,-156.324,-91.619
15:31:37:18,5.441,0.413,-0.564,-0.283,-98.138,-152.937,-93.022
15:31:37:181,5.442,0.392,-0.968,-0.296,-98.743,-147.736,-93.709
15:31:37:182,5.443,0.363,-1.248,-0.258,-97.547,-144.468,-93.296
15:31:37:196,5.458,0.388,-1.434,-0.324,-93.482,-140.486,-91.615
15:31:37:285,5.546,0.403,-1.083,-0.357,-87.317,-138.616,-88.643
15:31:37:285,5.546,0.470,-0.673,-0.218,-82.238,-139.148,-85.971
15:31:37:286,5.547,0.479,1.592,-0.051,-74.291,-142.677,-81.722
15:31:37:287,5.548,-0.064,1.419,0.084,-69.658,-147.350,-78.761
15:31:37:361,5.622,-0.263,1.426,0.134,-65.026,-154.552,-76.482
15:31:37:361,5.622,-0.335,1.187,0.150,-66.030,-159.506,-77.330
15:31:37:361,5.622,-0.580,0.610,0.172,-67.489,-162.197,-78.621
15:31:37:381,5.643,-0.304,0.135,0.125,-71.092,-165.686,-81.322
15:31:37:466,5.727,-0.394,-0.173,0.126,-73.019,-167.978,-82.503
15:31:37:466,5.727,0.765,0.064,0.321,-73.739,-170.136,-82.913
15:31:37:466,5.727,-1.726,-0.840,0.249,-56.532,-171.038,-73.045
15:31:37:653,5.914,-0.661,-0.741,-0.097,-54.288,-172.652,-71.113
15:31:37:653,5.914,-0.514,-0.865,0.044,-58.871,-171.686,-74.368
15:31:37:654,5.915,-0.586,-0.757,0.094,-57.628,-169.839,-73.536
15:31:37:655,5.916,-0.327,-0.717,0.242,-62.421,-165.215,-76.932
15:31:37:696,5.957,-0.323,-0.136,0.758,-64.999,-161.170,-78.894
15:31:37:888,6.149,-0.229,0.934,1.114,-66.910,-155.939,-80.004
15:31:37:889,6.150,0.442,1.577,1.029,-68.195,-152.182,-80.285
15:31:37:89,6.151,0.430,1.203,0.816,-67.849,-149.904,-80.954
15:31:37:89,6.151,0.154,0.812,0.335,-70.561,-146.707,-82.927
15:31:38:037,6.298,0.340,0.343,0.028,-74.901,-144.008,-84.710
15:31:38:073,6.334,-0.065,-0.033,-0.343,-80.749,-138.713,-86.725
15:31:38:073,6.334,-0.342,0.100,-1.114,-87.254,-131.979,-88.936
15:31:38:074,6.335,0.176,-0.744,-0.887,-90.623,-126.485,-90.203
15:31:38:283,6.544,0.103,-0.840,-0.569,-98.223,-121.931,-92.892
15:31:38:283,6.544,0.282,-1.039,-0.497,-90.670,-122.039,-90.267
15:31:38:284,6.545,0.712,-1.162,-0.223,-87.362,-123.321,-89.086
15:31:38:285,6.546,1.149,0.569,0.017,-82.416,-126.511,-87.420
15:31:38:336,6.598,0.730,1.828,0.131,-70.897,-133.908,-82.208
15:31:38:337,6.598,-0.092,1.582,0.415,-63.606,-138.989,-78.916
15:31:38:337,6.598,-0.137,0.906,0.363,-46.293,-142.547,-75.565
15:31:38:337,6.598,-0.102,0.457,0.176,-41.260,-145.016,-74.418
15:31:38:364,6.625,-0.225,0.254,0.271,-43.735,-147.116,-74.009
15:31:38:364,6.626,-0.643,0.102,0.202,-48.082,-150.744,-73.026
15:31:38:364,6.626,-0.847,-0.008,0.057,-50.180,-153.295,-72.586
15:31:38:365,6.626,-0.572,-0.406,-0.010,-52.379,-156.377,-73.104
15:31:38:408,6.669,-0.438,-0.769,0.204,-53.161,-158.281,-74.589
15:31:38:409,6.670,-0.488,-0.888,0.487,-53.347,-158.695,-75.779
15:31:38:441,6.702,-0.567,-0.905,0.640,-53.915,-157.556,-77.769
15:31:38:442,6.703,-0.435,-0.906,0.553,-54.865,-155.224,-79.444
15:31:38:442,6.703,-0.417,-0.448,0.571,-59.467,-149.774,-82.409
15:31:38:442,6.703,-0.350,1.386,1.012,-67.829,-143.104,-84.863
15:31:38:495,6.756,0.108,1.966,0.727,-75.626,-137.666,-86.724
15:31:38:496,6.757,0.779,1.068,0.085,-91.928,-129.627,-90.286
15:31:38:497,6.758,0.555,0.634,-0.122,-117.171,-125.471,-93.132
15:31:38:497,6.758,0.293,0.523,-0.169,-122.850,-120.297,-95.592
15:31:38:519,6.781,0.162,0.075,-0.261,-119.641,-115.073,-97.386
15:31:38:519,6.781,0.120,-0.204,-0.475,-118.866,-111.095,-98.490
15:31:38:52,6.781,0.022,-0.677,-0.616,-117.699,-105.585,-99.618
15:31:38:52,6.782,0.038,-1.120,-0.575,-116.785,-102.632,-99.602
15:31:38:538,6.799,0.205,-1.301,-0.531,-116.076,-100.048,-98.980
15:31:38:591,6.852,0.300,-1.054,-0.120,-113.340,-101.464,-97.026
15:31:38:592,6.853,0.600,0.913,-0.058,-105.330,-105.988,-94.218
15:31:38:701,6.963,0.240,1.101,-0.233,-96.052,-109.500,-91.613
15:31:38:702,6.963,-0.207,1.283,-0.069,-73.321,-114.780,-86.354
15:31:38:703,6.964,-0.012,1.356,-0.131,-60.634,-117.350,-84.164
15:31:38:704,6.965,-0.062,1.212,-0.087,-59.628,-120.158,-82.809
15:31:38:772,7.033,-0.178,0.233,0.086,-62.357,-122.613,-82.260
15:31:38:859,7.120,-0.174,-0.146,0.189,-63.296,-124.229,-81.866
15:31:38:86,7.121,-0.186,-0.313,0.193,-64.857,-126.783,-81.422
15:31:38:861,7.122,-0.367,-0.501,0.263,-64.551,-128.298,-81.025
15:31:38:862,7.123,-0.363,-0.827,0.353,-61.012,-129.767,-80.422
15:31:38:879,7.140,-0.372,-1.076,0.615,-56.666,-130.166,-80.121
15:31:38:88,7.141,-0.417,-1.056,0.714,-55.605,-129.613,-80.052
15:31:38:99,7.251,-0.331,-0.907,0.840,-58.807,-126.907,-80.945
15:31:38:991,7.252,-0.031,-0.001,1.191,-62.333,-123.872,-82.016
15:31:38:991,7.252,0.333,1.596,1.635,-66.714,-118.234,-82.960
15:31:38:992,7.253,0.777,2.246,0.883,-76.398,-110.763,-86.037
15:31:39:036,7.297,0.943,1.621,0.364,-85.063,-105.695,-88.824
15:31:39:037,7.298,0.735,1.001,-0.157,-107.407,-99.186,-93.531
15:31:39:119,7.380,0.366,0.049,-0.511,-120.139,-94.868,-96.556
15:31:39:119,7.380,-0.133,-0.366,-0.520,-125.613,-87.760,-99.873
15:31:39:12,7.381,-0.637,-0.669,-0.626,-125.913,-79.851,-101.929
15:31:39:14,7.401,-0.720,-0.808,-0.495,-127.003,-75.420,-102.266
15:31:39:223,7.484,-0.400,-1.235,-0.399,-132.330,-71.654,-101.748
15:31:39:224,7.485,-0.254,-1.446,-0.440,-135.223,-70.773,-100.199
15:31:39:224,7.486,0.119,-1.562,-0.559,-135.437,-71.261,-96.830
15:31:39:384,7.645,0.433,-0.621,-0.625,-126.529,-72.558,-93.983
15:31:39:385,7.646,0.640,0.952,-0.687,-76.835,-75.752,-88.840
15:31:39:386,7.647,0.741,1.793,-0.413,-20.882,-79.517,-83.250
15:31:39:386,7.648,0.511,1.454,-0.287,0.680,-80.854,-80.765
15:31:39:46,7.721,0.163,1.014,0.040,-3.501,-82.600,-78.672
15:31:39:46,7.721,-0.102,0.328,0.139,-21.409,-84.728,-77.772
15:31:39:568,7.830,-0.093,0.017,0.284,-31.694,-86.326,-77.114
15:31:39:569,7.831,-0.447,-0.254,0.568,-38.319,-90.069,-75.974
15:31:39:57,7.831,-0.411,-0.319,0.627,-38.633,-92.696,-75.367
15:31:39:571,7.832,-0.267,-0.442,0.532,-40.931,-96.659,-75.812
15:31:39:594,7.855,-0.004,-0.851,0.675,-40.280,-98.669,-76.351
15:31:39:595,7.857,0.056,-0.972,0.746,-36.650,-99.872,-77.496
15:31:39:596,7.857,0.192,-0.896,0.783,-36.287,-98.586,-79.488
15:31:39:642,7.903,0.477,0.117,0.931,-49.063,-91.274,-83.747
15:31:39:643,7.904,1.172,1.550,0.824,-59.316,-87.113,-85.590
15:31:39:664,7.925,1.312,1.575,-0.144,-92.569,-79.820,-90.274
15:31:39:748,8.010,0.856,1.102,-0.410,-137.539,-73.335,-95.246
15:31:39:749,8.010,0.469,1.054,-0.440,-144.095,-69.421,-98.350
15:31:39:749,8.011,0.076,0.339,-0.491,-147.870,-63.359,-102.963
15:31:39:769,8.030,-0.412,-0.176,-0.469,-147.113,-58.760,-105.480
15:31:39:796,8.057,-0.750,-0.518,-0.385,-145.658,-51.102,-108.476
15:31:39:821,8.082,-0.966,-1.079,-0.227,-145.748,-43.957,-109.716
15:31:39:848,8.109,-0.705,-1.205,-0.215,-146.780,-40.272,-109.919
15:31:39:932,8.194,-0.522,-1.327,-0.390,-144.845,-37.104,-109.695
15:31:39:933,8.195,-0.442,-1.262,-0.356,-138.213,-36.285,-108.213
15:31:39:934,8.195,-0.275,-1.005,-0.421,-129.981,-37.940,-105.078
15:31:40:011,8.272,-0.078,0.862,-1.048,-124.345,-43.356,-101.551
15:31:40:011,8.272,0.027,1.214,-0.916,-114.830,-47.937,-97.465
15:31:40:013,8.274,0.216,1.679,-0.085,-88.851,-54.843,-89.803
15:31:40:031,8.292,0.516,1.432,0.410,1.345,-57.530,-86.639
15:31:40:086,8.347,0.156,0.736,-0.160,72.354,-56.783,-83.154
15:31:40:087,8.348,-0.393,-0.126,-0.187,72.715,-55.348,-78.860
15:31:40:277,8.538,-0.191,-0.110,-0.011,70.045,-57.332,-77.451
15:31:40:277,8.538,0.292,-0.054,0.215,64.519,-62.741,-77.676
15:31:40:278,8.539,0.290,-0.380,0.449,58.038,-65.808,-77.004
15:31:40:279,8.540,0.270,-0.554,0.644,45.856,-70.134,-76.334
15:31:40:296,8.558,0.224,-0.635,0.717,33.929,-73.463,-76.665
15:31:40:382,8.643,0.233,-0.846,0.712,31.463,-74.404,-77.285
15:31:40:383,8.644,0.163,-0.995,0.498,38.729,-73.746,-79.072
15:31:40:383,8.644,0.151,-0.559,0.577,45.690,-72.550,-80.599
15:31:40:384,8.645,0.351,0.283,0.742,55.538,-69.990,-83.024
15:31:40:463,8.724,0.647,1.625,0.513,63.320,-67.856,-84.459
15:31:40:463,8.724,0.676,1.699,-0.120,80.440,-65.888,-87.702
15:31:40:463,8.724,0.548,1.147,-0.617,98.565,-64.943,-92.212
15:31:40:463,8.724,0.419,0.968,-0.201,110.634,-64.294,-94.736
15:31:40:484,8.746,-0.005,0.484,-0.315,131.881,-61.179,-97.904
15:31:40:484,8.746,-0.455,0.254,-0.333,146.517,-57.761,-99.791
15:31:40:485,8.746,-0.693,-0.218,-0.333,158.212,-51.801,-102.234
15:31:40:532,8.794,-0.562,-1.257,-0.356,147.465,-46.378,-103.512
15:31:40:533,8.795,-0.574,-1.602,-0.351,138.055,-43.330,-103.922
15:31:40:612,8.873,-0.627,-1.732,-0.438,129.466,-40.609,-102.596
15:31:40:613,8.874,-0.383,-1.514,-0.165,126.139,-39.547,-100.909
15:31:40:638,8.899,-0.365,-1.218,-0.199,122.329,-38.686,-98.459
15:31:40:638,8.899,-0.289,0.307,-0.539,110.251,-40.397,-93.749
15:31:40:768,9.029,0.041,1.189,-0.628,86.867,-43.204,-89.621
15:31:40:847,9.108,0.116,1.364,-0.276,41.191,-49.117,-83.818
15:31:40:98,9.241,0.280,1.579,-0.109,35.953,-52.552,-81.386
15:31:40:98,9.241,0.314,1.208,-0.280,39.106,-56.667,-79.238
15:31:41:065,9.326,0.171,0.413,0.178,38.637,-61.335,-78.320
15:31:41:065,9.327,0.079,0.208,0.322,31.277,-65.458,-78.435
15:31:41:065,9.327,0.083,-0.315,0.321,20.662,-71.205,-79.093
15:31:41:066,9.328,0.046,-0.437,0.372,17.695,-74.343,-79.511
15:31:41:136,9.397,0.038,-0.641,0.611,20.633,-78.159,-79.904
15:31:41:248,9.509,0.079,-0.955,0.732,32.349,-80.553,-80.079
15:31:41:249,9.510,0.074,-1.072,0.782,38.646,-81.387,-80.200
15:31:41:249,9.511,0.127,-0.866,0.738,44.832,-81.239,-81.020
15:31:41:25,9.512,0.177,-0.059,0.746,49.944,-80.065,-82.102
15:31:41:274,9.536,0.697,1.073,0.800,60.535,-77.190,-83.799
15:31:41:275,9.536,1.033,1.644,0.289,76.176,-74.264,-86.772
15:31:41:276,9.537,0.938,1.546,-0.460,86.680,-72.468,-89.135
15:31:41:276,9.538,0.533,0.744,-0.711,100.888,-70.026,-93.066
15:31:41:321,9.582,0.190,0.269,-0.404,109.945,-68.186,-95.141
15:31:41:322,9.583,-0.149,0.155,-0.420,130.798,-63.938,-97.528
15:31:41:458,9.719,-0.594,-0.282,-0.395,150.649,-60.169,-98.679
15:31:41:459,9.720,-0.738,-0.662,-0.289,170.380,-54.020,-99.879
15:31:41:459,9.721,-0.639,-1.336,-0.202,165.017,-48.344,-100.290
15:31:41:46,9.722,-0.534,-1.555,-0.332,158.065,-45.304,-100.350
15:31:41:512,9.773,-0.588,-1.313,-0.424,159.381,-42.755,-99.885
15:31:41:512,9.773,-0.558,-1.220,-0.331,165.439,-42.668,-98.063
15:31:41:512,9.773,-0.392,-0.661,-0.467,164.276,-44.675,-93.894
15:31:41:513,9.774,-0.064,1.682,-0.965,-18.096,-48.871,-88.941
15:31:41:538,9.799,0.287,1.738,-0.394,7.122,-52.634,-84.280
15:31:41:538,9.799,-0.070,1.359,0.010,22.757,-55.835,-78.904
15:31:41:539,9.800,0.118,0.977,-0.094,23.843,-57.571,-77.326
15:31:41:539,9.800,0.313,0.612,0.010,18.168,-60.657,-75.698
15:31:41:589,9.850,0.390,0.047,0.180,5.989,-65.196,-75.174
15:31:41:59,9.851,0.301,-0.200,0.396,-3.054,-68.281,-74.702
15:31:41:591,9.852,0.198,-0.444,0.556,-12.022,-71.974,-74.291
15:31:41:591,9.852,0.071,-0.775,0.777,-15.289,-73.707,-74.285
15:31:41:612,9.873,0.051,-0.965,0.860,-16.918,-75.054,-74.475
15:31:41:612,9.873,0.125,-0.927,0.752,-17.104,-74.862,-75.683
15:31:41:691,9.952,0.180,-0.830,0.674,-17.764,-73.845,-77.099
15:31:41:692,9.953,0.329,-0.402,0.594,-19.481,-70.935,-80.017
15:31:41:692,9.953,0.658,1.081,0.601,-24.457,-68.191,-82.421
15:31:41:712,9.973,0.757,1.658,0.295,-44.670,-63.096,-86.401
15:31:41:766,10.027,0.581,1.810,-0.641,142.397,-57.602,-90.896
15:31:41:961,10.222,0.304,1.244,-0.943,126.439,-55.090,-93.846
15:31:41:961,10.222,0.126,0.442,-0.739,131.069,-53.248,-98.042
15:31:41:961,10.222,-0.039,-0.155,-0.357,139.185,-52.063,-100.410
15:31:41:962,10.223,-0.264,-0.359,-0.249,161.889,-48.527,-102.623
15:31:41:983,10.244,-0.597,-0.695,-0.108,-168.350,-42.620,-103.850
15:31:41:984,10.245,-0.637,-1.009,-0.004,-156.635,-38.094,-104.041
15:31:41:984,10.245,-0.393,-1.065,-0.187,-152.073,-32.311,-104.076
15:31:41:985,10.246,-0.550,-1.114,-0.285,-153.149,-29.834,-104.277
15:31:42:032,10.294,-0.450,-1.388,-0.212,-152.049,-28.872,-102.677
15:31:42:032,10.294,-0.421,-1.006,-0.350,-153.822,-29.737,-101.046
15:31:42:033,10.295,-0.402,-0.068,-0.608,-150.434,-32.835,-99.290
15:31:42:3,10.561,-0.378,1.248,-0.814,-131.056,-37.960,-95.696
15:31:42:3,10.561,-0.184,1.381,-0.512,-105.157,-42.096,-91.688
15:31:42:3,10.561,-0.091,1.385,-0.101,-61.380,-47.128,-87.163
15:31:42:3,10.561,0.014,1.059,-0.117,-40.761,-49.347,-85.189
15:31:42:322,10.583,0.230,0.522,-0.088,-23.020,-52.343,-83.129
15:31:42:322,10.583,0.387,0.025,0.164,-18.819,-56.006,-81.407
15:31:42:323,10.584,0.392,-0.104,0.283,-19.168,-58.613,-80.266
15:31:42:369,10.630,0.400,-0.415,0.422,-19.515,-62.257,-78.711
15:31:42:395,10.656,0.330,-0.535,0.751,-19.577,-64.417,-77.768
15:31:42:423,10.685,0.237,-0.590,0.851,-21.382,-67.069,-76.698
15:31:42:424,10.685,0.267,-0.757,0.858,-20.242,-68.275,-77.025
15:31:42:508,10.769,0.395,-0.775,0.801,-15.991,-67.965,-78.064
15:31:42:509,10.770,0.526,-0.640,0.677,-6.519,-65.889,-80.419
15:31:42:51,10.771,0.761,0.348,0.584,-2.017,-63.601,-82.289
15:31:42:51,10.771,1.058,1.537,0.324,-4.935,-59.018,-84.576
15:31:42:587,10.848,0.793,1.428,-0.556,44.699,-52.874,-88.158
15:31:42:587,10.849,0.520,1.006,-0.857,101.183,-48.588,-91.002
15:31:42:588,10.849,0.081,0.587,-0.805,125.918,-43.125,-94.966
15:31:42:589,10.850,-0.080,0.205,-0.549,137.073,-39.593,-96.901
15:31:42:666,10.927,-0.280,0.006,-0.448,149.018,-34.041,-99.005
15:31:42:666,10.927,-0.635,-0.531,-0.251,155.825,-28.728,-100.785
15:31:42:667,10.928,-0.754,-1.026,-0.114,158.228,-25.701,-101.529
15:31:42:668,10.929,-0.632,-1.229,-0.057,164.045,-22.336,-101.822
15:31:42:688,10.949,-0.565,-1.186,-0.062,170.889,-21.171,-101.664
15:31:42:689,10.950,-0.466,-1.232,-0.088,-179.834,-20.881,-100.533
15:31:42:69,10.951,-0.362,-1.149,-0.082,-176.911,-21.779,-99.336
15:31:42:954,11.216,-0.240,-0.303,-0.268,-173.381,-24.411,-96.635
15:31:42:955,11.216,-0.305,1.244,-0.574,-138.781,-28.296,-91.782
15:31:42:956,11.217,-0.071,1.373,-0.246,-21.680,-31.087,-88.237
15:31:42:956,11.218,0.084,1.332,-0.136,9.264,-33.969,-85.384
15:31:43:077,11.338,0.101,0.871,-0.131,6.704,-35.361,-84.280
15:31:43:138,11.399,0.163,0.553,-0.035,-10.044,-37.917,-83.423
15:31:43:139,11.400,0.270,0.143,0.187,-30.349,-41.308,-82.732
15:31:43:139,11.401,0.301,-0.057,0.283,-38.416,-43.672,-82.333
15:31:43:14,11.402,0.295,-0.297,0.339,-43.964,-46.979,-82.057
15:31:43:193,11.454,0.332,-0.587,0.409,-44.527,-48.860,-81.931
15:31:43:193,11.454,0.372,-0.767,0.472,-43.684,-50.783,-81.981
15:31:43:194,11.455,0.385,-0.823,0.463,-43.005,-51.193,-82.388
15:31:43:194,11.455,0.399,-0.846,0.386,-44.516,-50.577,-83.112
15:31:43:218,11.479,0.446,-0.844,0.220,-50.638,-47.951,-84.682
15:31:43:218,11.479,0.725,-0.209,0.022,-56.145,-45.846,-85.509
15:31:43:219,11.480,0.904,0.890,-0.219,-65.295,-42.147,-85.983
15:31:43:22,11.481,0.743,1.921,-0.699,-68.995,-37.849,-86.618
15:31:43:374,11.636,0.365,1.283,-0.837,-70.406,-34.694,-87.794
15:31:43:375,11.636,0.245,0.943,-0.579,-89.611,-30.197,-89.972
15:31:43:376,11.637,0.048,0.589,-0.366,-107.530,-26.831,-91.451
15:31:43:377,11.638,-0.159,0.365,-0.277,-117.465,-20.994,-93.420
15:31:43:401,11.662,-0.474,-0.272,-0.069,-124.481,-13.930,-95.300
15:31:43:401,11.662,-0.552,-0.551,0.131,-129.859,-9.216,-96.315
15:31:43:402,11.663,-0.613,-1.016,0.214,-139.796,-3.517,-97.540
15:31:43:403,11.664,-0.623,-1.154,0.196,-145.288,-1.159,-98.133
15:31:43:453,11.714,-0.542,-1.459,0.100,-145.425,-0.122,-98.448
15:31:43:454,11.715,-0.401,-1.334,0.004,-139.249,-0.881,-98.050
15:31:43:454,11.715,-0.373,-0.827,-0.147,-128.985,-3.718,-96.895
15:31:43:455,11.716,-0.407,1.307,-0.586,-124.035,-8.787,-95.319
15:31:43:549,11.810,-0.017,1.548,-0.496,-111.993,-12.886,-92.313
15:31:43:637,11.898,0.014,1.006,0.068,-18.013,-17.329,-86.420
15:31:43:637,11.898,0.065,0.984,0.054,7.743,-18.768,-83.944
15:31:43:638,11.899,0.242,0.800,0.001,7.259,-18.733,-82.762
15:31:43:639,11.900,0.372,0.292,-0.142,0.876,-19.158,-81.780
15:31:43:716,11.977,0.434,0.081,-0.117,-3.877,-20.050,-81.017
15:31:43:716,11.977,0.516,-0.137,-0.064,-8.322,-21.549,-79.706
15:31:43:717,11.978,0.550,-0.444,0.067,-8.543,-22.482,-78.967
15:31:43:718,11.979,0.593,-0.534,0.191,-11.326,-23.747,-78.051
15:31:43:812,12.073,0.624,-0.691,0.331,-16.876,-24.275,-77.833
15:31:43:899,12.161,0.572,-0.837,0.291,-22.194,-23.922,-78.411
15:31:43:9,12.161,0.611,-0.782,0.192,-34.553,-22.201,-80.325
15:31:43:901,12.162,0.660,-0.432,0.025,-45.110,-19.748,-82.160
15:31:43:901,12.163,0.801,0.497,-0.268,-63.274,-14.458,-85.445
15:31:43:925,12.187,0.652,1.694,-0.877,-81.016,-7.977,-88.692
15:31:43:926,12.187,0.157,1.587,-1.192,-103.417,-3.648,-91.263
15:31:43:926,12.188,-0.430,0.838,-1.052,-177.359,1.825,-95.040
15:31:43:927,12.189,-0.469,0.376,-0.593,173.949,4.754,-97.299
15:31:43:972,12.233,-0.393,0.148,-0.385,-176.166,9.257,-100.400
15:31:44:05,12.311,-0.363,-0.059,-0.012,-159.423,15.327,-102.393
15:31:44:082,12.344,-0.473,-0.351,0.423,-151.924,20.196,-103.471
15:31:44:083,12.344,-0.336,-0.831,0.675,-149.105,27.033,-104.158
15:31:44:084,12.345,-0.190,-1.277,0.517,-150.454,30.608,-103.887
15:31:44:085,12.346,-0.288,-1.556,0.351,-147.655,34.318,-103.014
15:31:44:101,12.363,-0.317,-1.370,0.324,-131.033,35.616,-100.628
15:31:44:241,12.503,-0.438,-1.082,0.244,-119.302,34.959,-98.070
15:31:44:242,12.504,-0.593,0.775,0.056,-107.478,31.750,-94.693
15:31:44:243,12.504,-0.488,1.593,-0.097,-99.667,29.074,-92.231
15:31:44:243,12.505,-0.419,1.297,-0.246,-57.599,25.768,-86.562
15:31:44:31,12.571,-0.219,1.067,0.081,-10.253,24.248,-83.852
15:31:44:345,12.606,-0.065,0.787,-0.072,-3.944,24.070,-82.645
15:31:44:346,12.607,-0.054,0.549,-0.226,-10.270,22.949,-81.484
15:31:44:346,12.607,0.084,0.257,-0.263,-17.516,21.650,-80.646
15:31:44:347,12.608,0.357,-0.115,-0.165,-25.923,18.964,-79.073
15:31:44:363,12.624,0.780,-0.259,0.081,-31.093,15.375,-77.529
15:31:44:418,12.679,0.720,-0.442,0.075,-35.856,12.864,-77.241
15:31:44:418,12.679,0.734,-0.803,-0.062,-39.709,9.718,-77.649
15:31:44:499,12.761,0.732,-0.837,-0.087,-41.597,8.556,-78.276
15:31:44:5,12.761,0.632,-0.789,-0.059,-44.798,8.720,-80.065
15:31:44:501,12.762,0.487,-0.555,-0.159,-48.038,10.923,-82.499
15:31:44:522,12.783,0.512,-0.187,-0.236,-50.857,13.340,-84.271
15:31:44:633,12.894,0.465,1.197,-0.620,-54.072,17.713,-86.651
15:31:44:634,12.895,-0.086,1.332,-0.863,-53.322,21.230,-88.601
15:31:44:634,12.895,-0.558,1.303,-0.955,116.916,26.630,-91.437
15:31:44:713,12.975,-0.862,1.017,-0.660,133.579,31.243,-94.133
15:31:44:713,12.975,-0.657,0.379,-0.361,144.499,34.115,-95.903
15:31:44:714,12.975,-0.352,0.051,-0.190,160.772,38.617,-98.015
15:31:44:757,13.018,-0.296,-0.002,-0.040,171.376,42.083,-99.156
15:31:44:791,13.052,-0.226,-0.450,0.325,177.139,47.567,-100.511
15:31:44:792,13.053,-0.190,-1.292,0.690,174.759,50.919,-101.333
15:31:44:793,13.054,-0.106,-1.397,0.761,172.673,55.200,-101.869
15:31:44:793,13.054,-0.018,-1.332,0.621,178.239,58.056,-102.185
15:31:44:896,13.157,-0.095,-1.285,0.565,-174.490,58.789,-102.137
15:31:44:896,13.158,-0.196,-1.191,0.518,-155.782,57.800,-100.588
15:31:44:897,13.159,-0.766,0.312,0.275,-129.844,54.121,-97.954
15:31:44:898,13.159,-0.957,1.273,0.246,-114.515,50.452,-95.599
15:31:44:945,13.206,-0.527,0.953,-0.046,-84.934,44.241,-88.948
15:31:44:945,13.206,-0.049,1.446,0.053,-68.525,40.598,-84.468
15:31:44:966,13.227,0.147,1.667,0.094,-67.216,35.762,-81.572
15:31:45:052,13.313,0.013,0.391,-0.164,-65.910,33.094,-80.848
15:31:45:052,13.313,0.025,0.088,-0.280,-65.902,29.149,-81.028
15:31:45:052,13.314,0.182,-0.163,-0.189,-69.223,24.759,-81.634
15:31:45:072,13.334,0.258,-0.436,-0.163,-70.870,21.939,-81.980
15:31:45:097,13.359,0.376,-0.679,-0.200,-71.596,18.039,-82.188
15:31:45:124,13.385,0.576,-0.712,-0.223,-71.664,15.809,-82.251
15:31:45:15,13.411,0.672,-0.656,-0.276,-72.156,13.134,-82.534
15:31:45:207,13.468,0.783,-0.888,-0.464,-72.371,12.541,-83.148
15:31:45:207,13.468,0.834,-0.955,-0.877,-72.716,13.444,-83.801
15:31:45:316,13.577,0.641,0.264,-1.256,-77.852,17.606,-85.852
15:31:45:317,13.578,0.379,1.203,-1.392,-80.863,22.169,-86.984
15:31:45:318,13.579,-0.141,1.301,-1.234,-90.597,31.496,-90.196
15:31:45:319,13.580,-0.579,1.599,-0.472,-105.831,41.940,-95.694
15:31:45:334,13.595,-0.690,1.389,-0.168,-115.757,48.838,-99.636
15:31:45:39,13.651,-0.641,0.527,0.447,-129.858,58.238,-105.207
15:31:45:391,13.652,-0.707,-0.244,0.975,-137.590,64.229,-108.320
15:31:45:412,13.673,-0.225,-0.945,1.376,-144.795,71.567,-111.333
15:31:45:467,13.729,0.164,-1.084,0.977,-148.151,76.966,-111.170
15:31:45:468,13.730,0.074,-1.158,0.672,-149.411,78.968,-109.975
15:31:45:492,13.753,-0.101,-1.201,0.541,-146.862,79.471,-107.635
15:31:45:517,13.778,-0.226,-1.249,0.394,-141.690,78.233,-105.127
15:31:45:545,13.806,-0.325,-0.986,0.340,-132.682,74.843,-101.206
15:31:45:57,13.831,-0.621,0.055,0.190,-123.185,70.071,-98.144
15:31:45:596,13.857,-0.897,0.821,0.055,-112.410,66.064,-95.637
15:31:45:65,13.912,-0.864,1.704,-0.282,-89.546,58.767,-89.853
15:31:45:678,13.939,-0.209,1.795,-0.297,-81.625,54.036,-86.654
15:31:45:679,13.940,0.192,1.105,-0.303,-76.762,48.651,-83.859
15:31:45:728,13.989,0.267,0.306,-0.176,-75.482,44.903,-82.914
15:31:45:817,14.079,0.323,0.113,-0.179,-75.338,42.867,-82.670
15:31:45:817,14.079,0.352,-0.177,-0.290,-74.376,39.756,-82.320
15:31:45:818,14.079,0.385,-0.301,-0.374,-72.782,37.688,-81.900
15:31:45:818,14.079,0.507,-0.395,-0.391,-69.715,34.861,-81.058
15:31:45:832,14.094,0.720,-0.441,-0.399,-67.916,33.403,-80.535
15:31:45:859,14.120,0.715,-0.465,-0.462,-66.287,32.866,-80.406
15:31:45:944,14.205,0.687,-0.561,-0.788,-65.600,34.949,-81.363
15:31:45:944,14.205,0.329,-0.175,-0.952,-67.451,37.980,-82.798
15:31:45:945,14.206,0.102,0.253,-1.138,-75.462,44.475,-85.971
15:31:45:964,14.225,-0.433,1.058,-1.199,-82.662,49.624,-88.126
15:31:45:991,14.252,-0.808,1.024,-0.733,-98.463,58.726,-91.933
15:31:46:017,14.279,-1.093,1.142,-0.411,-119.280,68.359,-95.949
15:31:46:043,14.304,-1.250,0.752,-0.115,-135.637,74.133,-98.361
15:31:46:069,14.330,-0.927,0.093,0.294,-157.149,81.978,-101.533
15:31:46:095,14.356,-0.709,-0.084,0.456,-165.420,86.849,-103.362
15:31:46:121,14.382,-0.317,-0.624,0.684,-175.499,93.300,-105.955
15:31:46:178,14.440,0.056,-1.101,0.663,177.613,98.535,-108.016
15:31:46:178,14.440,0.154,-1.145,0.593,176.389,101.287,-109.078
15:31:46:2,14.461,0.286,-1.168,0.491,178.060,104.162,-109.759
15:31:46:258,14.519,0.365,-1.094,0.494,-179.593,105.346,-109.439
15:31:46:258,14.519,0.352,-0.746,0.416,-174.828,106.039,-108.041
15:31:46:28,14.541,0.062,0.019,0.526,-170.027,104.692,-105.518
15:31:46:305,14.566,-0.227,0.912,0.744,-169.287,102.442,-102.910
15:31:46:447,14.708,-0.236,1.150,0.479,-177.118,98.333,-98.241
15:31:46:447,14.708,-0.170,1.247,0.307,171.612,95.885,-95.137
15:31:46:448,14.709,-0.049,1.102,0.069,132.793,92.609,-91.190
15:31:46:449,14.710,-0.003,0.501,-0.152,24.148,89.556,-88.209
15:31:46:576,14.838,-0.039,0.306,-0.281,3.167,87.359,-86.672
15:31:46:577,14.839,-0.076,0.062,-0.460,-1.160,84.149,-84.591
15:31:46:578,14.839,-0.012,-0.171,-0.612,1.951,82.293,-83.335
15:31:46:579,14.840,0.063,-0.318,-0.663,7.648,80.751,-81.822
15:31:46:629,14.890,0.193,-0.537,-0.805,9.317,79.495,-80.954
15:31:46:629,14.890,0.223,-0.659,-0.897,7.622,79.958,-80.942
15:31:46:63,14.891,0.095,-0.775,-0.847,3.761,81.083,-82.163
15:31:46:631,14.892,-0.081,-0.765,-0.772,0.714,83.524,-83.714
15:31:46:647,14.908,-0.261,-0.392,-0.767,-16.295,87.965,-86.700
15:31:46:699,14.960,-1.009,1.311,-0.858,-46.104,91.584,-88.258
15:31:46:729,14.990,-1.126,1.570,-0.355,-116.042,97.936,-91.196
15:31:46:729,14.990,-1.112,0.934,0.492,169.425,104.266,-94.686
15:31:46:78,15.042,-0.823,0.514,0.589,162.700,107.842,-97.142
15:31:46:781,15.042,-0.530,0.395,0.651,174.601,112.788,-100.366
15:31:46:804,15.065,-0.347,0.114,0.548,-177.508,116.258,-101.932
15:31:46:83,15.091,0.143,-0.362,0.576,-166.807,122.286,-103.586
15:31:46:857,15.118,0.547,-0.548,0.469,-156.662,128.292,-104.274
15:31:46:883,15.144,0.631,-0.646,0.295,-152.090,131.556,-104.019
15:31:46:909,15.170,0.568,-0.898,0.248,-150.500,134.771,-102.820
15:31:46:938,15.199,0.511,-1.243,0.404,-151.476,135.782,-101.543
15:31:46:964,15.225,0.465,-1.340,0.431,-151.342,135.857,-98.962
15:31:46:965,15.226,0.243,-0.984,0.463,-138.135,134.164,-95.366
15:31:46:988,15.249,0.215,-0.223,0.568,-113.096,132.107,-92.299
15:31:47:014,15.275,-0.007,1.405,0.466,-53.260,127.560,-86.291
15:31:47:068,15.329,-0.200,1.867,-0.059,-12.547,124.867,-81.841
15:31:47:095,15.356,-0.390,1.663,-0.144,32.931,123.244,-78.521
15:31:47:096,15.357,-0.164,0.621,0.128,54.301,124.198,-76.422
15:31:47:15,15.412,-0.051,0.043,0.055,57.107,123.356,-75.610
15:31:47:15,15.412,-0.134,0.066,-0.258,52.823,118.445,-75.543
15:31:47:173,15.434,-0.221,-0.117,-0.452,47.819,114.594,-75.851
15:31:47:251,15.512,-0.163,-0.481,-0.378,44.124,109.886,-76.904
15:31:47:283,15.544,-0.154,-0.871,-0.412,38.915,105.623,-78.101
15:31:47:283,15.544,-0.125,-0.968,-0.473,30.292,102.971,-78.934
15:31:47:283,15.544,-0.005,-0.900,-0.595,-2.439,99.638,-80.514
15:31:47:332,15.593,-0.234,-0.471,-0.662,-32.601,98.277,-81.972
15:31:47:332,15.594,-0.399,-0.302,-0.673,-60.899,98.655,-85.245
15:31:47:357,15.618,-0.666,0.101,-0.778,-82.324,101.346,-88.980
15:31:47:41,15.671,-1.128,1.207,-0.830,-95.556,103.434,-90.655
15:31:47:411,15.672,-0.663,1.521,0.174,-121.339,108.283,-93.974
15:31:47:435,15.696,-0.566,1.281,0.399,-142.422,111.849,-96.258
15:31:47:46,15.721,-0.313,0.717,0.524,-166.161,117.249,-99.758
15:31:47:487,15.749,-0.114,0.437,0.481,-168.647,121.260,-101.871
15:31:47:512,15.774,0.244,0.068,0.421,-165.147,128.074,-104.116
15:31:47:539,15.800,0.518,-0.446,0.394,-161.442,134.866,-105.362
15:31:47:596,15.857,0.569,-0.887,0.340,-159.696,138.680,-105.777
15:31:47:597,15.858,0.542,-1.026,0.313,-157.525,142.570,-105.890
15:31:47:617,15.878,0.487,-1.260,0.460,-155.116,143.718,-105.595
15:31:47:644,15.905,0.417,-1.355,0.576,-148.453,143.356,-105.049
15:31:47:67,15.931,0.269,-1.124,0.515,-137.068,140.662,-104.230
15:31:47:696,15.958,0.144,-0.391,0.613,-128.368,137.610,-103.231
15:31:47:722,15.984,0.132,1.056,0.546,-113.478,131.127,-99.574
15:31:47:749,16.010,0.042,1.384,-0.013,-103.047,126.253,-95.567
15:31:47:775,16.036,-0.079,1.548,-0.080,-91.615,120.008,-90.637
15:31:47:803,16.064,-0.164,1.324,0.033,-83.011,115.682,-87.643
15:31:47:857,16.118,-0.210,1.007,-0.017,-78.443,113.511,-86.300
15:31:47:857,16.118,-0.216,0.332,-0.195,-75.254,110.266,-85.405
15:31:47:88,16.141,-0.215,-0.152,-0.181,-74.619,108.203,-85.208
15:31:47:936,16.197,-0.221,-0.400,-0.195,-74.903,104.751,-85.150
15:31:47:936,16.197,-0.156,-0.592,-0.320,-75.857,101.153,-85.115
15:31:47:99,16.251,-0.076,-0.765,-0.437,-76.729,98.769,-85.197
15:31:47:99,16.251,0.023,-0.913,-0.593,-78.531,96.608,-85.751
15:31:48:011,16.272,-0.067,-0.943,-0.709,-80.253,95.585,-86.452
15:31:48:039,16.300,-0.093,-0.878,-0.743,-84.891,96.083,-88.146
15:31:48:065,16.326,-0.306,-0.065,-0.763,-90.372,98.461,-90.138
15:31:48:148,16.409,-0.462,1.265,-0.771,-92.735,100.913,-91.023
15:31:48:149,16.410,-0.472,1.712,-0.128,-100.267,106.190,-93.535
15:31:48:15,16.411,-0.546,1.128,0.215,-110.027,109.835,-95.467
15:31:48:199,16.460,-0.505,0.776,0.361,-132.513,114.927,-98.731
15:31:48:199,16.460,-0.306,0.622,0.432,-142.167,118.316,-100.598
15:31:48:222,16.483,-0.106,0.328,0.532,-148.500,123.556,-102.822
15:31:48:276,16.538,0.273,-0.195,0.491,-151.809,129.025,-104.430
15:31:48:277,16.539,0.475,-0.643,0.502,-154.723,132.485,-105.422
15:31:48:301,16.562,0.562,-1.023,0.450,-160.081,136.734,-106.829
15:31:48:326,16.587,0.380,-1.111,0.292,-163.535,139.377,-108.077
15:31:48:353,16.614,0.301,-1.138,0.228,-164.227,140.155,-108.839
15:31:48:433,16.694,0.215,-1.111,0.170,-162.898,140.072,-109.452
15:31:48:493,16.754,0.191,-0.909,0.163,-160.964,139.102,-109.155
15:31:48:494,16.755,0.110,-0.268,0.488,-154.822,135.990,-107.439
15:31:48:494,16.755,-0.004,0.758,0.912,-145.563,132.761,-104.922
15:31:48:495,16.756,0.186,1.241,0.490,-124.173,127.274,-99.936
15:31:48:51,16.771,0.154,1.501,-0.057,-103.954,121.913,-94.747
15:31:48:565,16.827,0.153,1.264,-0.023,-97.815,118.641,-92.951
15:31:48:566,16.827,-0.060,0.616,-0.325,-95.402,112.996,-92.177
15:31:48:589,16.850,-0.084,0.050,-0.148,-98.827,108.970,-93.589
15:31:48:641,16.902,-0.302,-0.519,-0.687,-87.062,104.056,-88.981
15:31:48:668,16.929,-0.006,-0.834,-0.180,-83.397,100.569,-87.842
15:31:48:723,16.984,0.008,-0.927,-0.367,-90.238,98.526,-90.072
15:31:48:723,16.985,-0.099,-0.946,-0.825,-84.412,96.551,-88.327
15:31:48:746,17.008,-0.231,-0.866,-0.824,-86.672,96.290,-88.970
15:31:48:772,17.034,-0.423,-0.133,-0.883,-88.796,98.064,-89.591
15:31:48:828,17.089,-0.686,1.518,-0.842,-90.744,100.641,-90.257
15:31:48:829,17.090,-0.910,1.645,-0.174,-99.408,106.859,-92.824
15:31:48:971,17.232,-0.936,1.114,0.379,-123.477,112.771,-96.370
15:31:48:971,17.233,-0.705,0.764,0.624,-147.325,116.131,-99.003
15:31:48:971,17.233,-0.452,0.327,0.626,-166.483,120.281,-102.502
15:31:48:971,17.233,-0.128,-0.113,0.614,-170.365,122.982,-104.429
15:31:49:014,17.275,0.151,-0.359,0.612,-171.569,128.150,-106.583
15:31:49:017,17.278,0.890,-0.699,0.517,-171.604,132.326,-107.515
15:31:49:017,17.278,1.033,-0.909,0.327,-173.779,138.051,-108.242
15:31:49:093,17.354,0.799,-1.147,0.186,-178.494,142.113,-108.394
15:31:49:094,17.355,0.674,-1.405,0.289,179.569,143.635,-108.404
15:31:49:095,17.356,0.455,-1.324,0.219,-175.781,143.868,-107.558
15:31:49:194,17.455,0.376,-0.996,0.168,-166.319,142.796,-106.100
15:31:49:228,17.489,0.215,0.412,0.747,-146.242,139.188,-102.937
15:31:49:229,17.490,0.025,1.702,0.592,-124.953,132.958,-98.223
15:31:49:23,17.491,-0.174,1.716,0.363,-108.717,128.129,-93.676
15:31:49:23,17.491,-0.162,1.494,-0.079,-82.422,122.620,-88.885
15:31:49:245,17.506,-0.243,0.804,0.036,-67.442,120.047,-87.258
15:31:49:275,17.536,-0.364,0.409,-0.009,-48.411,116.538,-85.717
15:31:49:276,17.537,-0.385,-0.189,-0.165,-41.926,112.956,-84.807
15:31:49:356,17.617,-0.415,-0.362,-0.352,-40.846,110.556,-84.001
15:31:49:357,17.618,-0.347,-0.413,-0.511,-41.821,107.132,-82.697
15:31:49:357,17.618,-0.232,-0.489,-0.628,-42.255,105.251,-81.935
15:31:49:377,17.638,-0.182,-0.668,-0.711,-40.826,103.289,-81.205
15:31:49:404,17.665,-0.194,-0.873,-0.758,-42.168,103.152,-81.613
15:31:49:458,17.719,-0.221,-0.905,-0.776,-45.982,104.170,-82.554
15:31:49:459,17.720,-0.420,-0.684,-0.670,-57.493,107.629,-84.733
15:31:49:481,17.743,-0.640,-0.152,-0.678,-68.100,110.745,-86.217
15:31:49:537,17.798,-1.086,1.684,-0.696,-77.577,116.336,-87.518
15:31:49:538,17.799,-1.251,1.949,0.215,-90.016,123.876,-90.002
15:31:49:854,18.115,-0.984,1.663,0.630,-153.296,129.402,-92.237
15:31:49:911,18.172,-0.397,0.924,1.157,136.126,136.889,-96.276
15:31:49:911,18.173,0.263,-0.453,1.204,133.273,140.976,-99.400
15:31:49:912,18.174,0.497,-1.059,0.917,138.375,145.899,-103.386
15:31:49:913,18.174,0.600,-1.019,0.429,156.243,150.911,-105.749
15:31:49:937,18.198,0.672,-0.784,0.153,171.829,154.640,-106.698
15:31:49:937,18.199,0.926,-0.896,0.017,-175.710,159.153,-108.090
15:31:49:938,18.200,0.923,-0.952,-0.089,-173.636,160.797,-108.949
15:31:49:939,18.200,0.602,-1.112,-0.170,-174.955,161.175,-109.125
15:31:49:964,18.225,0.318,-0.994,-0.021,-179.523,160.233,-108.471
15:31:49:965,18.226,0.249,-0.637,0.114,170.763,157.756,-106.306
15:31:49:965,18.226,0.320,1.211,0.736,160.898,154.626,-100.969
15:31:49:966,18.227,-0.076,1.752,0.338,149.721,152.178,-96.228
15:31:49:989,18.250,-0.261,1.646,0.334,101.135,148.917,-91.196
15:31:49:99,18.251,-0.268,1.275,0.456,83.293,147.562,-89.007
15:31:49:99,18.251,-0.278,0.514,0.227,74.711,145.220,-87.214
15:31:49:991,18.252,-0.411,0.021,-0.099,67.255,142.125,-86.152
15:31:50:008,18.269,-0.366,-0.080,-0.283,60.277,139.929,-85.495
15:31:50:062,18.323,-0.251,-0.288,-0.562,52.774,136.649,-84.763
15:31:50:062,18.323,-0.286,-0.715,-0.621,53.807,134.523,-84.697
15:31:50:173,18.434,-0.372,-0.861,-0.726,58.705,131.315,-85.043
15:31:50:173,18.434,-0.627,-1.016,-0.725,63.445,128.824,-85.849
15:31:50:174,18.435,-0.793,-0.942,-0.618,69.074,128.336,-86.808
15:31:50:175,18.436,-0.948,-0.611,-0.405,81.883,130.243,-88.704
15:31:50:248,18.509,-1.313,0.272,0.038,90.360,133.073,-90.061
15:31:50:249,18.510,-1.515,1.199,0.908,101.561,138.736,-92.000
15:31:50:25,18.511,-0.789,0.541,1.552,112.646,145.567,-95.099
15:31:50:465,18.726,-0.535,0.487,1.568,118.360,150.158,-97.107
15:31:50:465,18.726,-0.140,0.757,1.202,133.382,156.950,-99.200
15:31:50:466,18.727,0.237,0.326,0.634,145.997,161.756,-100.361
15:31:50:466,18.727,0.489,0.276,0.206,161.522,169.684,-101.138
15:31:50:54,18.801,0.789,-0.148,-0.590,170.857,177.700,-101.639
15:31:50:541,18.802,0.923,-0.371,-1.101,166.659,-177.561,-102.150
15:31:50:542,18.803,0.577,-0.962,-1.038,151.075,-172.431,-102.910
15:31:50:543,18.804,0.626,-1.344,-1.031,147.661,-170.704,-103.136
15:31:50:62,18.881,0.621,-1.390,-0.399,152.563,-170.988,-101.749
15:31:50:62,18.882,0.600,-0.887,0.264,160.058,-174.747,-100.435
15:31:50:621,18.883,1.102,1.214,1.290,157.926,-178.595,-99.588
15:31:50:622,18.884,-0.142,1.030,1.130,120.967,174.757,-94.347
15:31:50:698,18.959,-0.331,0.826,0.625,97.638,171.820,-91.476
15:31:50:699,18.960,-0.242,0.592,0.629,86.287,169.787,-88.970
15:31:50:7,18.961,-0.374,0.356,0.558,76.993,169.382,-86.160
15:31:50:701,18.962,-0.480,0.276,0.432,69.743,169.475,-84.474
15:31:50:718,18.979,-0.683,0.219,0.094,55.248,170.122,-81.973
15:31:50:719,18.980,-0.625,-0.058,-0.229,46.611,170.837,-80.594
15:31:50:743,19.004,-0.585,-0.250,-0.290,37.687,171.537,-79.659
15:31:50:769,19.030,-0.602,-0.628,-0.327,28.509,171.651,-79.766
15:31:50:794,19.055,-0.652,-0.661,-0.413,20.887,171.895,-80.258
15:31:50:849,19.110,-0.606,-0.858,-0.277,13.021,173.400,-81.668
15:31:50:85,19.111,-0.572,-0.840,-0.167,8.644,175.287,-82.966
15:31:50:873,19.134,-0.583,-0.327,0.035,-2.253,179.439,-85.514
15:31:50:899,19.160,-0.763,1.343,0.726,-5.318,-175.205,-87.472
15:31:50:954,19.215,-0.526,1.536,0.946,29.399,-171.501,-89.279
15:31:50:955,19.216,0.395,1.496,1.190,121.319,-166.110,-92.376
15:31:50:979,19.241,0.569,0.733,0.787,126.700,-163.237,-94.589
15:31:51:144,19.406,0.591,0.195,0.560,135.366,-160.074,-97.681
15:31:51:145,19.406,0.322,-0.135,0.334,154.175,-157.122,-100.067
15:31:51:146,19.407,0.293,-0.183,0.014,172.386,-154.409,-101.256
15:31:51:147,19.408,0.326,-0.393,-0.429,-170.791,-149.689,-102.906
15:31:51:168,19.430,0.330,-0.888,-0.628,-171.436,-146.788,-103.718
15:31:51:168,19.430,0.329,-1.193,-0.705,-177.788,-143.444,-104.639
15:31:51:169,19.430,0.281,-1.315,-0.568,179.221,-142.183,-105.239
15:31:51:246,19.507,0.256,-1.364,-0.447,178.753,-142.760,-104.599
15:31:51:246,19.507,0.191,-1.158,-0.271,178.719,-145.490,-102.316
15:31:51:247,19.508,0.943,1.011,0.278,-176.526,-148.377,-99.805
15:31:51:324,19.585,0.985,1.698,0.486,-141.665,-154.137,-94.079
15:31:51:325,19.587,0.139,1.626,0.122,-34.166,-159.926,-87.527
15:31:51:326,19.587,0.072,1.531,0.103,1.277,-162.281,-84.965
15:31:51:375,19.636,-0.001,1.115,0.170,3.790,-165.136,-83.510
15:31:51:375,19.637,-0.261,0.165,0.420,-0.930,-167.193,-82.985
15:31:51:398,19.659,-0.311,-0.078,0.374,-17.570,-170.421,-82.187
15:31:51:426,19.687,-0.451,-0.193,0.254,-30.160,-173.356,-80.855
15:31:51:509,19.770,-0.529,-0.425,0.215,-32.750,-175.001,-80.082
15:31:51:509,19.770,-0.761,-0.668,0.087,-33.322,-176.972,-78.815
15:31:51:51,19.771,-0.832,-0.726,0.027,-34.063,-177.796,-78.180
15:31:51:556,19.817,-0.864,-0.833,0.058,-37.535,-177.723,-78.573
15:31:51:587,19.848,-0.846,-0.938,0.177,-44.173,-175.377,-80.486
15:31:51:588,19.849,-0.729,-0.853,0.286,-52.183,-172.519,-82.406
15:31:51:589,19.850,-0.670,0.168,0.648,-67.843,-167.205,-85.354
15:31:51:664,19.925,-0.486,1.842,1.044,-77.123,-163.161,-87.068
15:31:51:665,19.926,0.429,1.679,0.976,-92.385,-155.355,-90.403
15:31:51:775,20.036,0.826,1.005,0.754,-142.045,-148.201,-93.943
15:31:51:775,20.036,0.839,0.561,0.297,-171.510,-144.324,-96.108
15:31:51:776,20.037,0.564,0.085,0.095,-172.796,-139.110,-98.988
15:31:51:777,20.038,0.468,-0.037,-0.001,-163.444,-135.291,-100.381
15:31:51:852,20.113,0.261,-0.247,-0.529,-150.471,-128.632,-102.313
15:31:51:853,20.114,0.054,-0.653,-0.785,-147.564,-124.279,-103.445
15:31:51:854,20.115,-0.057,-0.827,-0.803,-150.430,-119.069,-104.843
15:31:51:855,20.116,-0.003,-1.115,-0.726,-157.336,-116.418,-106.082
15:31:51:87,20.131,0.166,-1.323,-0.575,-160.439,-116.263,-106.653
15:31:51:926,20.187,0.246,-1.228,-0.481,-158.886,-117.928,-107.007
15:31:51:926,20.187,0.595,-0.627,-0.182,-154.737,-120.550,-106.280
15:31:51:949,20.210,1.088,1.001,-0.051,-144.736,-126.534,-102.775
15:31:52:005,20.266,0.167,1.449,0.176,-125.094,-132.546,-96.071
15:31:52:005,20.266,-0.229,1.330,0.285,-110.504,-135.454,-92.020
15:31:52:028,20.289,0.025,1.118,0.103,11.560,-137.350,-88.450
15:31:52:113,20.374,0.165,0.349,0.184,42.074,-137.950,-86.951
15:31:52:113,20.374,0.009,0.109,0.275,18.881,-139.985,-85.399
15:31:52:114,20.375,-0.313,0.037,0.364,-33.107,-143.323,-84.039
15:31:52:135,20.396,-0.477,-0.179,0.398,-47.859,-145.690,-83.187
15:31:52:189,20.450,-0.824,-0.382,0.330,-58.467,-149.160,-82.151
15:31:52:189,20.450,-1.135,-0.515,0.341,-62.131,-150.721,-81.713
15:31:52:378,20.639,-0.895,-0.817,0.414,-66.141,-150.598,-82.644
15:31:52:379,20.640,-0.637,-0.915,0.520,-70.933,-147.728,-84.685
15:31:52:38,20.641,-0.405,-0.679,0.611,-76.913,-144.535,-86.611
15:31:52:381,20.642,-0.229,0.195,0.856,-87.878,-138.631,-89.498
15:31:52:404,20.665,0.259,1.836,1.150,-93.571,-134.367,-90.803
15:31:52:404,20.665,0.839,1.748,0.924,-109.488,-127.163,-93.401
15:31:52:405,20.666,1.150,0.790,0.387,-145.233,-120.833,-96.573
15:31:52:406,20.667,0.998,0.590,0.114,-156.319,-117.367,-98.734
15:31:52:451,20.712,0.681,0.096,-0.154,-157.794,-112.590,-101.767
15:31:52:562,20.823,0.432,-0.216,-0.246,-155.666,-109.215,-103.320
15:31:52:563,20.824,-0.056,-0.595,-0.720,-150.824,-103.706,-105.422
15:31:52:563,20.824,-0.274,-0.848,-0.846,-149.806,-98.720,-106.718
15:31:52:564,20.825,-0.332,-1.147,-0.754,-150.991,-96.432,-106.971
15:31:52:642,20.903,-0.246,-1.285,-0.506,-151.129,-94.676,-106.543
15:31:52:643,20.904,-0.169,-1.065,-0.382,-147.167,-94.509,-105.451
15:31:52:643,20.905,0.001,-0.836,-0.274,-139.456,-95.825,-102.979
15:31:52:644,20.906,0.362,0.066,-0.155,-133.340,-98.903,-99.818
15:31:52:716,20.977,0.638,1.251,-0.188,-122.972,-101.454,-96.854
15:31:52:717,20.978,0.370,1.782,0.168,-98.292,-105.690,-91.411
15:31:52:718,20.979,0.204,1.447,0.100,-82.555,-107.671,-89.104
15:31:52:736,20.997,0.204,1.088,0.075,-59.601,-109.405,-87.891
15:31:52:821,21.082,0.027,0.381,0.149,-49.569,-110.611,-87.773
15:31:52:821,21.082,-0.112,0.153,0.214,-56.254,-113.090,-87.744
15:31:52:822,21.083,-0.213,-0.070,0.282,-64.058,-115.742,-87.421
15:31:52:841,21.103,-0.257,-0.214,0.295,-66.015,-118.336,-87.243
15:31:52:897,21.158,-0.384,-0.558,0.480,-61.236,-121.398,-86.891
15:31:52:898,21.159,-0.459,-0.754,0.541,-52.318,-123.370,-86.546
15:31:53:,21.261,-0.574,-0.889,0.649,-37.191,-124.154,-86.189
15:31:53:088,21.349,-0.490,-0.781,0.757,-27.660,-122.105,-86.598
15:31:53:088,21.349,-0.217,-0.708,0.735,-20.146,-119.517,-87.474
15:31:53:089,21.350,0.066,-0.505,0.838,28.265,-113.896,-89.467
15:31:53:09,21.351,0.834,1.030,1.375,156.294,-109.777,-90.603
15:31:53:111,21.372,1.158,1.481,0.689,-155.640,-102.817,-92.463
15:31:53:111,21.372,1.394,1.256,0.076,161.712,-95.359,-95.050
15:31:53:112,21.373,1.245,0.816,-0.395,150.365,-91.531,-97.064
15:31:53:159,21.420,0.692,0.256,-0.554,156.125,-86.933,-99.649
15:31:53:16,21.421,0.160,0.064,-0.461,168.825,-83.938,-100.896
15:31:53:184,21.445,-0.265,0.018,-0.488,-166.000,-78.429,-102.450
15:31:53:268,21.529,-0.709,-0.383,-0.577,-151.104,-72.121,-103.678
15:31:53:268,21.530,-0.825,-0.543,-0.577,-148.242,-68.150,-104.420
15:31:53:27,21.531,-0.716,-0.901,-0.349,-150.747,-63.892,-105.109
15:31:53:348,21.609,-0.383,-1.493,-0.357,-154.621,-62.646,-105.493
15:31:53:348,21.609,-0.223,-1.464,-0.381,-155.875,-62.895,-105.479
15:31:53:348,21.609,0.009,-1.147,-0.325,-148.732,-65.568,-103.438
15:31:53:368,21.629,0.228,0.078,-0.640,-139.494,-68.737,-100.937
15:31:53:45,21.712,0.102,2.061,-0.568,-116.296,-74.416,-95.262
15:31:53:451,21.713,0.105,1.614,0.114,-97.918,-78.383,-91.034
15:31:53:452,21.713,0.024,1.265,-0.004,2.713,-81.658,-87.713
15:31:53:613,21.875,0.073,0.196,-0.094,58.070,-83.317,-86.055
15:31:53:614,21.875,0.124,0.018,0.125,54.224,-85.029,-85.134
15:31:53:614,21.875,0.100,0.017,0.477,25.865,-88.720,-83.740
15:31:53:615,21.876,0.068,-0.200,0.607,3.792,-91.169,-82.711
15:31:53:634,21.896,0.007,-0.417,0.734,-15.439,-94.538,-81.611
15:31:53:635,21.897,-0.115,-0.646,0.947,-24.873,-97.114,-80.734
15:31:53:636,21.897,-0.134,-0.769,0.934,-26.951,-97.798,-80.633
15:31:53:792,22.054,-0.026,-0.848,0.787,-26.078,-96.877,-81.702
15:31:53:793,22.054,0.102,-0.702,0.683,-25.222,-95.078,-83.067
15:31:53:794,22.055,0.359,0.179,0.757,-27.833,-91.082,-85.183
15:31:53:813,22.074,0.813,1.575,0.490,-39.875,-85.801,-87.316
15:31:53:873,22.134,0.958,1.464,0.032,-21.891,-81.626,-89.697
15:31:53:873,22.134,0.759,0.909,-0.601,130.099,-75.712,-93.176
15:31:53:874,22.135,0.486,0.894,-0.625,151.321,-72.490,-95.459
15:31:53:954,22.216,0.249,0.453,-0.404,-177.621,-68.101,-98.614
15:31:53:955,22.216,-0.077,-0.077,-0.339,-164.457,-63.216,-101.265
15:31:53:955,22.216,-0.390,-0.373,-0.356,-160.128,-59.729,-102.988
15:31:53:955,22.217,-0.624,-0.745,-0.350,-159.302,-54.841,-105.270
15:31:53:978,22.239,-0.700,-1.157,-0.308,-161.223,-52.285,-106.342
15:31:53:978,22.239,-0.576,-1.340,-0.273,-164.254,-50.189,-107.000
15:31:53:978,22.240,-0.398,-1.402,-0.314,-163.996,-50.214,-106.923
15:31:54:024,22.285,-0.276,-1.333,-0.276,-161.867,-51.394,-106.069
15:31:54:053,22.314,-0.067,-0.643,-0.401,-153.532,-54.821,-102.978
15:31:54:053,22.314,0.180,1.190,-0.977,-138.013,-58.016,-99.266
15:31:54:075,22.336,0.019,1.495,-0.514,-100.232,-63.425,-92.173
15:31:54:154,22.416,0.009,1.615,-0.159,-77.915,-67.042,-87.437
15:31:54:397,22.658,0.037,1.723,-0.281,-50.987,-70.810,-82.246
15:31:54:398,22.659,0.150,1.132,0.091,-39.395,-74.074,-79.184
15:31:54:399,22.660,0.146,0.414,0.307,-36.616,-76.365,-77.783
15:31:54:426,22.687,0.106,-0.209,0.470,-36.915,-80.080,-76.502
15:31:54:427,22.688,0.090,-0.412,0.635,-37.589,-82.674,-75.736
15:31:54:427,22.688,0.015,-0.614,0.838,-38.989,-86.282,-75.019
15:31:54:428,22.689,0.021,-0.914,0.875,-38.288,-88.632,-74.975
15:31:54:496,22.757,0.053,-1.059,0.838,-36.416,-89.230,-75.508
15:31:54:583,22.844,0.100,-0.997,0.677,-35.120,-88.851,-77.227
15:31:54:584,22.845,0.246,-0.549,0.588,-35.855,-87.809,-78.647
15:31:54:585,22.846,0.431,0.081,0.654,-38.291,-84.999,-81.036
15:31:54:586,22.847,0.738,1.597,0.521,-39.735,-80.720,-83.217
15:31:54:612,22.873,0.850,1.531,-0.117,-29.870,-77.153,-85.160
15:31:54:612,22.873,0.535,0.825,-0.664,61.150,-72.322,-88.596
15:31:54:612,22.873,0.377,0.522,-0.695,105.103,-70.215,-90.915
15:31:54:612,22.873,0.231,0.176,-0.257,173.539,-67.605,-93.834
15:31:54:664,22.925,-0.159,-0.002,-0.311,-139.897,-63.588,-95.930
15:31:54:664,22.925,-0.405,-0.189,-0.337,-132.475,-60.162,-97.403
15:31:54:664,22.925,-0.598,-0.645,-0.215,-133.959,-54.721,-99.121
15:31:54:664,22.925,-0.428,-1.049,-0.167,-139.410,-51.533,-100.041
15:31:54:68,22.942,-0.370,-1.218,-0.176,-148.512,-47.855,-101.196
15:31:54:872,23.133,-0.315,-1.404,-0.317,-151.833,-45.817,-101.816
15:31:54:872,23.134,-0.274,-1.154,-0.321,-149.404,-45.530,-101.448
15:31:54:873,23.135,-0.222,-0.057,-0.535,-138.701,-47.329,-99.328
15:31:54:874,23.135,-0.241,1.165,-0.780,-127.077,-49.894,-96.862
15:31:54:924,23.186,-0.231,1.059,-0.298,-103.574,-54.505,-92.057
15:31:54:925,23.186,-0.189,1.297,-0.069,-82.657,-58.447,-88.956
15:31:54:926,23.187,-0.114,1.301,-0.153,-73.408,-61.028,-87.557
15:31:54:949,23.210,0.231,0.266,0.075,-58.665,-68.999,-84.678
15:31:54:95,23.211,0.176,-0.174,0.318,-54.524,-73.829,-82.762
15:31:54:95,23.211,0.074,-0.539,0.535,-52.889,-76.793,-81.632
15:31:55:022,23.283,0.005,-0.707,0.747,-50.572,-80.694,-79.945
15:31:55:126,23.387,0.049,-0.833,0.913,-47.798,-83.428,-78.826
15:31:55:242,23.503,0.229,-0.914,1.096,-47.842,-84.283,-78.933
15:31:55:242,23.504,0.373,-0.588,1.168,-55.383,-83.313,-80.657
15:31:55:242,23.504,0.605,0.087,1.127,-64.655,-81.150,-83.012
15:31:55:243,23.504,0.928,0.863,0.899,-82.615,-75.809,-88.023
15:31:55:321,23.582,0.939,1.067,0.151,-108.984,-68.677,-94.805
15:31:55:321,23.582,0.783,1.059,-0.266,-127.035,-63.552,-99.524
15:31:55:322,23.583,0.519,1.069,-0.715,-144.439,-56.659,-105.660
15:31:55:322,23.583,0.172,0.729,-1.017,-150.552,-52.465,-108.908
15:31:55:373,23.634,-0.135,0.134,-1.001,-156.436,-46.817,-112.564
15:31:55:373,23.634,-0.432,-0.475,-0.635,-159.888,-41.390,-114.744
15:31:55:373,23.634,-0.747,-0.622,-0.304,-160.756,-37.531,-115.486
15:31:55:373,23.634,-0.847,-0.910,-0.134,-163.842,-32.853,-115.592
15:31:55:388,23.649,-0.717,-1.218,-0.134,-167.816,-31.079,-115.292
15:31:55:555,23.816,-0.628,-1.415,-0.143,-173.241,-30.119,-114.216
15:31:55:555,23.816,-0.446,-1.409,-0.120,-174.294,-30.244,-112.827
15:31:55:556,23.817,-0.355,-1.234,-0.158,-170.203,-31.848,-109.422
15:31:55:557,23.818,-0.329,0.340,-0.822,-157.569,-35.690,-103.739
15:31:55:581,23.842,-0.076,1.698,-0.701,-140.693,-39.418,-98.568
15:31:55:582,23.843,0.248,1.531,-0.179,-91.616,-45.703,-90.134
15:31:55:584,23.845,0.104,1.521,-0.204,-33.171,-49.773,-85.470
15:31:55:584,23.845,0.209,1.104,-0.095,-30.034,-52.316,-83.654
15:31:55:755,24.016,0.362,0.414,0.072,-38.023,-56.650,-82.182
15:31:55:913,24.174,0.375,0.021,0.253,-44.183,-59.852,-81.308
15:31:56:027,24.288,0.248,-0.195,0.553,-49.277,-64.414,-79.756
15:31:56:028,24.289,0.174,-0.348,0.620,-50.408,-67.006,-78.988
15:31:56:029,24.290,0.143,-0.615,0.771,-49.771,-70.050,-78.169
15:31:56:03,24.291,0.212,-0.831,0.914,-47.934,-71.359,-78.104
15:31:56:073,24.334,0.325,-0.916,0.811,-47.056,-70.876,-78.855
15:31:56:098,24.359,0.362,-0.859,0.713,-50.135,-68.283,-81.206
15:31:56:178,24.439,0.580,-0.421,0.532,-57.713,-65.663,-83.474
15:31:56:264,24.525,0.945,0.798,0.392,-76.027,-61.175,-86.905
15:31:56:265,24.526,0.962,1.871,0.011,-93.668,-55.257,-91.040
15:31:56:265,24.526,0.946,1.734,-0.527,-104.759,-50.981,-94.258
15:31:56:266,24.527,0.570,1.103,-0.927,-120.749,-45.571,-99.320
15:31:56:29,24.551,0.203,0.628,-0.694,-126.710,-42.184,-102.480
15:31:56:291,24.552,0.069,0.166,-0.596,-132.347,-36.992,-106.765
15:31:56:291,24.552,-0.193,-0.226,-0.486,-135.276,-30.781,-110.362
15:31:56:292,24.553,-0.533,-0.299,-0.332,-137.325,-25.888,-112.186
15:31:56:343,24.604,-1.101,-0.619,-0.125,-148.183,-20.298,-113.145
15:31:56:343,24.605,-0.770,-1.518,-0.087,-164.035,-18.934,-112.840
15:31:56:343,24.605,-0.649,-1.697,0.065,170.553,-18.196,-113.338
15:31:56:344,24.605,-0.497,-1.884,0.020,161.403,-18.095,-113.112
15:31:56:364,24.625,-0.407,-1.501,-0.006,163.246,-18.397,-111.357
15:31:56:364,24.626,-0.605,0.462,-0.873,175.550,-20.217,-106.547
15:31:56:525,24.787,-0.415,1.509,-0.805,-171.827,-23.079,-101.934
15:31:56:526,24.788,-0.185,1.606,-0.100,-139.724,-28.351,-93.228
15:31:56:527,24.789,0.075,1.661,0.272,-56.406,-31.802,-87.592
15:31:56:528,24.790,0.147,1.170,0.184,-38.616,-33.300,-85.541
15:31:56:604,24.865,0.307,0.341,0.136,-28.610,-35.666,-83.733
15:31:56:605,24.866,0.459,0.081,0.089,-23.917,-37.506,-82.875
15:31:56:606,24.867,0.555,-0.249,0.199,-16.711,-40.471,-81.344
15:31:56:607,24.868,0.555,-0.528,0.342,-11.617,-43.140,-79.983
15:31:56:727,24.989,0.605,-0.682,0.558,-10.462,-44.729,-79.077
15:31:56:806,25.067,0.570,-0.749,0.699,-12.920,-46.270,-78.305
15:31:56:868,25.129,0.586,-0.750,0.617,-14.493,-46.464,-78.363
15:31:56:868,25.129,0.526,-0.711,0.430,-15.457,-44.842,-79.744
15:31:56:868,25.129,0.617,-0.369,0.191,-15.293,-41.099,-82.394
15:31:56:869,25.130,0.906,0.492,0.043,-13.858,-37.947,-83.980
15:31:56:974,25.235,1.155,1.714,-0.597,-12.656,-32.994,-86.004
15:31:56:974,25.235,0.924,1.715,-1.140,33.739,-29.872,-87.633
15:31:56:974,25.235,0.173,0.695,-1.179,97.408,-25.674,-90.837
15:31:56:974,25.235,0.076,0.145,-0.705,111.440,-23.572,-92.997
15:31:56:998,25.259,0.023,0.050,-0.519,138.553,-20.140,-95.737
15:31:56:999,25.260,-0.266,0.057,-0.277,-173.670,-14.710,-97.736
15:31:57:,25.261,-0.688,-0.266,0.143,-153.864,-10.106,-99.110
15:31:57:,25.261,-0.741,-0.623,0.382,-146.971,-3.040,-100.933
15:31:57:05,25.311,-0.771,-0.799,0.347,-149.104,0.828,-101.762
15:31:57:051,25.312,-0.737,-0.999,0.210,-158.063,4.067,-102.567
15:31:57:052,25.313,-0.641,-1.204,0.091,-167.584,4.399,-102.677
15:31:57:263,25.524,-0.262,-0.617,-0.141,179.655,0.345,-99.402
15:31:57:263,25.524,-0.396,1.461,-0.436,169.779,-1.912,-96.644
15:31:57:263,25.524,0.234,1.529,-0.153,98.883,-5.212,-90.568
15:31:57:264,25.525,0.157,1.362,0.076,66.568,-6.200,-86.218
15:31:57:523,25.785,0.037,0.858,-0.059,65.566,-5.697,-84.488
15:31:57:524,25.786,0.262,0.220,-0.174,61.119,-5.255,-82.602
15:31:57:525,25.786,0.370,0.101,-0.101,54.584,-5.968,-81.845
15:31:57:526,25.787,0.488,-0.152,-0.005,40.252,-7.565,-80.738
15:31:57:576,25.837,0.516,-0.335,0.195,27.754,-9.185,-79.947
15:31:57:576,25.837,0.540,-0.456,0.248,21.902,-10.287,-79.715
15:31:57:577,25.838,0.570,-0.752,0.301,16.835,-11.616,-79.867
15:31:57:578,25.839,0.633,-0.920,0.241,12.098,-12.231,-80.325
15:31:57:602,25.863,0.657,-0.887,0.150,0.192,-12.135,-81.697
15:31:57:603,25.864,0.601,-0.799,-0.055,-12.912,-9.894,-83.963
15:31:57:603,25.864,0.663,-0.375,-0.129,-25.804,-7.315,-85.613
15:31:57:604,25.865,0.908,1.360,-0.706,-54.532,-2.895,-87.124
15:31:57:759,26.020,0.432,1.804,-0.936,-76.083,0.360,-88.752
15:31:57:76,26.021,-0.362,1.126,-1.268,-134.376,4.271,-91.661
15:31:57:761,26.022,-0.221,0.838,-0.780,-174.186,6.546,-94.651
15:31:57:762,26.023,-0.146,0.725,-0.530,-159.750,8.101,-96.397
15:31:57:831,26.092,-0.180,0.307,-0.244,-147.333,11.855,-98.941
15:31:57:866,26.128,-0.485,-0.204,0.309,-142.769,15.719,-100.478
15:31:57:866,26.128,-0.573,-0.539,0.655,-142.950,22.859,-102.812
15:31:57:867,26.129,-0.516,-1.093,0.797,-150.079,29.412,-104.232
15:31:57:868,26.129,-0.392,-1.371,0.644,-157.211,32.377,-104.954
15:31:57:97,26.231,-0.556,-1.671,0.452,-162.530,34.702,-105.714
15:31:57:97,26.231,-0.598,-0.886,0.063,-143.188,32.126,-101.883
15:31:57:971,26.232,-1.107,1.568,-0.256,-115.556,27.060,-96.524
15:31:57:972,26.233,-0.194,2.282,0.088,-95.933,22.748,-91.870
15:31:58:022,26.283,0.280,1.830,-0.081,-77.866,16.886,-86.255
15:31:58:023,26.284,0.027,0.711,-0.067,-70.026,14.712,-85.014
15:31:58:024,26.285,0.125,0.250,-0.256,-57.531,12.220,-84.504
15:31:58:025,26.286,0.312,-0.046,-0.291,-55.420,9.043,-84.303
15:31:58:041,26.302,0.450,-0.237,-0.255,-58.233,6.804,-83.937
15:31:58:127,26.388,0.530,-0.337,-0.205,-60.543,3.846,-83.168
15:31:58:128,26.389,0.688,-0.581,-0.089,-61.040,1.836,-82.538
15:31:58:129,26.390,0.809,-0.806,-0.047,-60.638,1.104,-82.262
15:31:58:13,26.391,0.774,-0.826,-0.038,-63.126,1.146,-82.706
15:31:58:173,26.434,0.716,-0.761,-0.176,-69.060,3.131,-84.430
15:31:58:205,26.466,0.655,-0.613,-0.349,-75.013,5.526,-86.256
15:31:58:206,26.467,0.609,0.269,-0.592,-88.239,10.411,-89.570
15:31:58:207,26.468,0.364,1.789,-0.871,-96.657,14.439,-91.695
15:31:58:208,26.469,-0.275,1.525,-0.966,-114.731,21.320,-95.650
15:31:58:232,26.494,-0.671,0.868,-0.614,-140.707,27.390,-100.113
15:31:58:233,26.494,-0.647,0.594,-0.386,-149.494,30.972,-102.943
15:31:58:234,26.495,-0.494,0.147,-0.169,-153.696,36.440,-106.840
15:31:58:312,26.573,-0.396,-0.488,0.548,-153.057,47.678,-111.560
15:31:58:312,26.573,-0.325,-1.066,1.044,-155.499,54.640,-113.043
15:31:58:313,26.574,-0.181,-1.332,0.920,-159.347,57.860,-113.091
15:31:58:314,26.575,-0.163,-1.485,0.698,-164.761,60.417,-112.891
15:31:58:381,26.642,-0.284,-1.472,0.630,-164.243,60.849,-112.233
15:31:58:469,26.730,-0.429,-0.937,0.302,-156.596,59.407,-109.852
15:31:58:469,26.730,-0.719,-0.194,0.181,-149.581,56.679,-107.483
15:31:58:469,26.731,-0.789,1.425,0.082,-135.265,50.884,-102.225
15:31:58:47,26.732,0.164,1.229,-0.076,-114.851,44.824,-94.376
15:31:58:496,26.757,-0.092,1.219,0.132,-100.427,42.294,-91.127
15:31:58:497,26.758,-0.075,1.113,-0.073,-42.729,39.653,-88.089
15:31:58:497,26.758,0.136,0.462,-0.344,10.316,37.096,-86.027
15:31:58:497,26.758,0.286,0.243,-0.289,14.160,35.163,-85.114
15:31:58:547,26.808,0.328,-0.398,-0.387,14.693,32.427,-83.931
15:31:58:548,26.809,0.599,-0.578,-0.461,9.705,30.523,-83.174
15:31:58:548,26.809,0.881,-0.510,-0.282,-7.095,27.772,-82.224
15:31:58:549,26.810,0.786,-0.721,-0.264,-10.207,26.902,-82.165
15:31:58:652,26.913,0.710,-0.900,-0.313,-2.432,26.877,-82.977
15:31:58:653,26.914,0.563,-0.800,-0.275,10.871,28.972,-85.156
15:31:58:654,26.915,0.496,-0.596,-0.305,31.439,31.684,-87.044
15:31:58:655,26.916,0.406,0.927,-0.704,82.536,37.017,-89.592
15:31:58:731,26.992,-0.180,1.570,-0.895,109.717,41.159,-91.588
15:31:58:731,26.992,-0.821,1.284,-0.685,118.481,47.482,-94.884
15:31:58:733,26.994,-0.904,0.523,-0.196,130.337,55.844,-99.166
15:31:58:749,27.010,-0.676,0.245,-0.066,139.947,60.362,-100.612
15:31:58:914,27.175,-0.386,-0.182,0.208,147.077,63.551,-101.298
15:31:58:915,27.176,-0.163,-0.407,0.413,159.172,68.526,-102.131
15:31:58:916,27.177,-0.007,-0.722,0.564,167.723,73.207,-102.829
15:31:58:917,27.178,0.039,-0.795,0.626,171.307,75.809,-103.226
15:31:58:94,27.201,0.153,-1.194,0.628,172.280,78.294,-103.757
15:31:58:941,27.202,0.165,-1.418,0.525,171.238,78.784,-103.960
15:31:58:942,27.203,0.073,-1.374,0.184,171.700,77.870,-103.393
15:31:58:942,27.203,-0.225,-0.371,0.172,178.172,75.238,-100.309
15:31:58:987,27.248,-0.868,1.818,0.308,178.964,72.861,-96.557
15:31:58:988,27.249,-0.543,1.717,-0.255,97.305,69.422,-91.127
15:31:59:013,27.275,-0.072,1.305,-0.024,85.729,69.219,-88.688
15:31:59:118,27.379,-0.066,0.519,0.340,80.273,71.025,-85.019
15:31:59:119,27.380,0.097,0.122,0.031,76.061,70.068,-82.981
15:31:59:176,27.437,0.098,0.188,-0.253,71.845,67.644,-82.639
15:31:59:177,27.438,0.176,0.003,-0.665,60.281,63.918,-81.111
15:31:59:178,27.439,0.266,-0.173,-0.796,55.210,61.753,-80.506
15:31:59:178,27.440,0.413,-0.610,-0.839,53.875,59.635,-79.769
15:31:59:248,27.509,0.394,-1.090,-0.660,56.169,59.349,-79.488
15:31:59:273,27.534,0.381,-1.129,-0.671,57.843,59.499,-80.021
15:31:59:328,27.589,0.334,-0.822,-0.721,61.740,61.670,-82.196
15:31:59:353,27.615,0.167,-0.244,-0.769,67.452,63.847,-84.397
15:31:59:44,27.701,-0.145,0.509,-0.987,82.648,68.418,-88.446
15:31:59:441,27.702,-0.929,1.615,-0.817,98.003,72.018,-91.543
15:31:59:441,27.702,-1.251,1.151,0.155,118.001,77.731,-96.470
15:31:59:442,27.703,-1.009,0.790,0.414,127.867,82.834,-100.326
15:31:59:462,27.723,-0.671,0.500,0.451,134.399,86.026,-102.002
15:31:59:463,27.724,-0.345,0.070,0.487,143.887,91.564,-103.572
15:31:59:464,27.725,0.205,-0.078,0.563,150.293,96.006,-103.841
15:31:59:512,27.773,0.438,-0.118,0.456,158.810,102.796,-103.674
15:31:59:513,27.774,0.483,-0.652,0.319,156.055,108.239,-103.338
15:31:59:536,27.797,0.520,-1.033,0.324,151.838,110.804,-103.169
15:31:59:561,27.823,0.471,-1.348,0.305,147.922,112.561,-102.510
15:31:59:644,27.905,0.276,-1.501,0.257,146.395,112.344,-101.565
15:31:59:701,27.963,-0.036,-1.165,0.232,143.236,110.569,-99.240
15:31:59:702,27.963,-0.519,1.364,0.718,134.281,107.680,-95.759
15:31:59:703,27.964,-0.432,1.605,0.784,113.858,105.373,-92.895
15:31:59:703,27.965,-0.249,1.312,0.156,81.890,101.986,-88.368
15:31:59:719,27.980,-0.220,1.068,0.212,78.143,100.601,-86.971
15:31:59:745,28.007,-0.274,0.717,0.016,71.605,99.860,-84.888
15:31:59:771,28.032,-0.131,0.323,-0.222,61.169,97.939,-83.703
15:31:59:798,28.059,-0.058,0.211,-0.338,49.834,96.459,-82.852
15:31:59:853,28.114,-0.017,-0.037,-0.456,37.436,94.060,-81.800
15:31:59:939,28.201,0.003,-0.299,-0.408,36.421,92.792,-81.469
15:31:59:94,28.201,0.069,-0.707,-0.475,39.542,90.836,-81.201
15:31:59:94,28.202,0.137,-0.868,-0.555,41.543,89.291,-81.160
15:31:59:941,28.202,0.112,-0.909,-0.637,40.886,88.705,-81.521
15:31:59:955,28.216,0.010,-0.747,-0.775,37.306,88.945,-82.871
15:31:59:982,28.243,-0.229,-0.339,-0.761,35.783,90.286,-84.216
15:32:00:039,28.300,-0.629,0.360,-0.811,20.189,93.748,-86.410
15:32:00:039,28.300,-1.042,1.941,-0.449,-87.291,98.308,-89.811
15:32:00:06,28.321,-1.031,1.653,0.157,-124.701,102.204,-92.769
15:32:00:086,28.348,-0.849,0.825,0.309,-177.482,107.257,-97.169
15:32:00:114,28.376,-0.453,0.527,0.532,174.811,110.213,-99.728
15:32:00:139,28.401,-0.176,0.330,0.585,174.529,114.926,-102.966
15:32:00:166,28.427,0.419,-0.182,0.514,174.109,120.575,-104.787
15:32:00:192,28.453,0.721,-0.533,0.346,172.464,124.673,-105.213
15:32:00:218,28.479,0.622,-0.988,0.161,168.012,130.336,-105.037
15:32:00:244,28.505,0.588,-1.162,0.196,166.542,133.286,-104.764
15:32:00:298,28.560,0.498,-1.447,0.353,167.941,135.587,-103.535
15:32:00:325,28.587,0.259,-1.526,0.351,169.162,135.552,-101.819
15:32:00:326,28.588,0.166,-1.301,0.423,172.540,133.476,-98.801
15:32:00:349,28.610,0.053,0.170,0.704,-175.288,129.369,-94.711
15:32:00:435,28.696,-0.038,1.516,0.814,-104.541,125.775,-90.366
15:32:00:435,28.696,-0.265,1.654,0.277,-8.661,120.078,-84.141
15:32:00:435,28.696,-0.102,1.518,0.080,1.579,117.415,-81.925
15:32:00:455,28.716,-0.212,1.012,0.110,7.597,115.067,-79.931
15:32:00:48,28.741,-0.213,0.503,-0.303,-8.234,111.694,-79.185
15:32:00:506,28.768,-0.146,0.269,-0.390,-20.509,109.022,-79.022
15:32:00:591,28.852,-0.118,-0.134,-0.381,-29.672,105.399,-79.288
15:32:00:592,28.853,-0.104,-0.330,-0.390,-31.289,102.903,-79.707
15:32:00:593,28.854,-0.080,-0.681,-0.491,-30.150,100.081,-80.419
15:32:00:612,28.873,-0.035,-0.969,-0.537,-27.270,97.779,-81.458
15:32:00:637,28.899,-0.049,-1.051,-0.544,-26.550,97.144,-82.397
15:32:00:664,28.926,-0.132,-0.984,-0.590,-33.216,97.146,-84.224
15:32:00:691,28.952,-0.284,-0.571,-0.616,-44.761,97.992,-85.751
15:32:00:746,29.007,-0.573,0.446,-0.731,-67.032,100.705,-88.120
15:32:00:747,29.008,-0.903,1.905,-0.580,-89.785,104.747,-89.985
15:32:00:771,29.032,-0.920,1.669,0.191,-161.770,108.025,-92.181
15:32:00:827,29.088,-0.574,0.935,0.535,134.056,112.489,-95.895
15:32:00:827,29.088,-0.243,0.462,0.510,134.598,114.614,-98.279
15:32:00:848,29.110,-0.094,0.234,0.405,142.049,117.816,-101.287
15:32:00:877,29.138,0.269,-0.045,0.370,153.544,122.352,-103.423
15:32:00:9,29.161,0.496,-0.283,0.362,160.470,126.229,-104.444
15:32:00:927,29.188,0.671,-0.706,0.303,167.519,132.241,-105.378
15:32:00:955,29.216,0.615,-0.904,0.213,170.826,135.637,-105.768
15:32:01:067,29.328,0.538,-0.995,0.181,175.002,138.930,-105.993
15:32:01:068,29.329,0.436,-1.071,0.211,177.198,139.686,-105.816
15:32:01:069,29.330,0.305,-1.152,0.258,176.853,138.996,-105.119
15:32:01:069,29.330,0.128,-0.651,0.478,174.663,136.500,-104.156
15:32:01:116,29.377,0.017,0.908,1.006,176.611,133.916,-102.805
15:32:01:117,29.378,-0.052,1.151,0.580,-170.992,128.856,-98.422
15:32:01:117,29.378,0.065,1.314,0.324,-153.108,125.432,-95.244
15:32:01:137,29.398,0.012,1.235,0.323,-113.722,121.165,-92.175
15:32:01:195,29.457,-0.036,0.906,0.028,-91.393,117.171,-90.263
15:32:01:195,29.457,-0.098,0.499,-0.258,-86.934,114.220,-89.174
15:32:01:295,29.556,-0.052,0.190,-0.370,-84.421,109.731,-87.986
15:32:01:383,29.644,0.008,-0.139,-0.395,-83.607,106.712,-87.505
15:32:01:383,29.645,-0.062,-0.587,-0.532,-82.419,102.659,-87.051
15:32:01:383,29.645,-0.075,-0.884,-0.738,-80.729,99.007,-86.687
15:32:01:384,29.645,-0.015,-0.990,-0.798,-79.893,97.570,-86.633
15:32:01:645,29.906,-0.079,-0.986,-0.758,-81.058,97.019,-87.318
15:32:01:645,29.906,-0.206,-0.715,-0.686,-84.152,97.972,-88.337
15:32:01:646,29.907,-0.400,-0.283,-0.713,-91.036,100.977,-90.280
15:32:01:647,29.908,-1.006,1.590,-0.609,-97.991,105.230,-92.057
15:32:01:671,29.932,-0.902,1.531,-0.179,-106.901,109.339,-94.063
15:32:01:671,29.932,-0.764,1.064,0.505,-129.478,115.523,-97.282
15:32:01:672,29.933,-0.387,0.687,0.608,-143.696,119.022,-99.812
15:32:01:673,29.934,-0.223,0.357,0.493,-151.635,123.947,-103.133
15:32:01:698,29.959,-0.023,0.040,0.496,-154.248,129.059,-105.695
15:32:01:698,29.959,0.382,-0.217,0.401,-154.469,132.982,-106.969
15:32:01:699,29.960,0.854,-0.551,0.237,-156.028,138.732,-108.431
15:32:01:7,29.961,0.852,-0.769,0.200,-160.174,141.505,-108.947
15:32:01:72,29.981,0.584,-1.289,0.279,-168.965,143.704,-109.066
15:32:01:72,29.981,0.426,-1.495,0.246,-170.303,143.951,-108.656
15:32:01:721,29.982,0.308,-1.384,0.148,-164.588,143.253,-107.459
15:32:01:74,30.001,0.068,-0.760,0.290,-149.675,140.641,-104.599
15:32:01:766,30.028,0.316,1.561,0.979,-137.221,137.743,-102.109
15:32:01:821,30.083,0.165,1.592,0.554,-120.665,132.453,-97.505
15:32:01:822,30.084,0.072,1.520,0.310,-105.083,127.297,-92.335
15:32:01:845,30.106,0.107,1.274,0.444,-97.509,124.611,-90.941
15:32:01:9,30.161,-0.276,0.696,0.031,-88.549,121.297,-89.783
15:32:01:985,30.246,-0.272,0.400,-0.087,-84.907,119.207,-89.078
15:32:01:986,30.247,-0.086,0.134,-0.268,-80.786,116.463,-87.862
15:32:01:986,30.248,-0.035,-0.212,-0.302,-78.074,114.720,-86.979
15:32:01:987,30.249,-0.036,-0.487,-0.269,-74.303,111.863,-86.148
15:32:02:004,30.265,-0.127,-0.997,-0.301,-68.756,108.856,-85.279
15:32:02:087,30.348,-0.037,-0.985,-0.459,-65.749,106.893,-84.642
15:32:02:088,30.349,0.015,-0.806,-0.574,-65.191,104.722,-84.124
15:32:02:089,30.350,-0.147,-0.891,-0.728,-65.790,103.922,-84.300
15:32:02:11,30.371,-0.260,-0.856,-0.828,-68.520,104.971,-85.252
15:32:02:136,30.397,-0.527,-0.308,-0.836,-74.299,108.241,-86.576
15:32:02:162,30.423,-1.291,1.851,-0.711,-77.376,111.356,-87.126
15:32:02:267,30.528,-1.132,1.932,0.163,-82.060,116.854,-88.322
15:32:02:38,30.641,-0.706,1.117,0.620,-87.976,120.968,-89.714
15:32:02:38,30.641,-0.527,0.888,0.581,-122.905,126.301,-92.627
15:32:02:381,30.642,-0.320,0.351,0.534,-149.321,131.429,-96.131
15:32:02:382,30.643,-0.138,0.157,0.536,-151.186,135.370,-98.195
15:32:02:426,30.687,0.550,-0.284,0.439,-149.248,142.693,-100.939
15:32:02:459,30.720,0.927,-0.684,0.211,-151.447,147.819,-102.476
15:32:02:459,30.720,0.832,-1.058,0.032,-159.879,154.315,-104.070
15:32:02:46,30.721,0.752,-1.442,0.111,-170.341,157.673,-105.279
15:32:02:461,30.722,0.619,-1.645,0.126,-175.467,158.397,-105.578
15:32:02:536,30.798,0.333,-1.381,0.149,-175.132,157.064,-104.840
15:32:02:537,30.798,0.309,-0.617,0.350,-168.753,154.755,-103.482
15:32:02:538,30.799,0.388,1.805,0.944,-151.119,148.971,-98.204
15:32:02:538,30.800,0.008,1.561,0.146,151.018,142.574,-91.356
15:32:02:554,30.815,0.057,1.578,0.226,64.977,140.422,-87.470
15:32:02:64,30.901,-0.025,1.297,0.260,49.517,137.878,-84.064
15:32:02:64,30.901,-0.454,0.587,-0.069,39.156,136.442,-82.588
15:32:02:64,30.901,-0.429,0.266,-0.156,27.051,134.694,-80.737
15:32:02:712,30.974,-0.402,-0.118,-0.291,16.843,132.932,-79.108
15:32:02:743,31.005,-0.383,-0.356,-0.359,12.637,131.783,-78.208
15:32:02:744,31.005,-0.368,-0.619,-0.512,8.803,130.319,-77.394
15:32:02:745,31.006,-0.411,-0.847,-0.659,6.028,129.521,-77.187
15:32:02:764,31.025,-0.569,-0.940,-0.643,0.288,128.963,-78.073
15:32:02:791,31.052,-0.763,-0.760,-0.427,-5.203,130.365,-80.320
15:32:02:816,31.077,-0.852,-0.316,-0.218,-8.752,132.576,-82.185
15:32:02:87,31.132,-1.031,0.297,-0.003,-19.229,137.278,-84.967
15:32:02:896,31.158,-1.283,1.356,0.654,-33.075,140.826,-86.769
15:32:02:981,31.242,-0.927,1.236,1.208,163.401,146.898,-90.620
15:32:02:981,31.242,-0.361,0.823,1.384,157.305,152.682,-94.430
15:32:02:982,31.243,-0.043,0.897,0.971,179.292,156.555,-96.612
15:32:03:004,31.265,0.274,0.486,0.702,-166.150,163.322,-99.561
15:32:03:004,31.265,0.561,0.033,0.313,-161.539,168.672,-100.917
15:32:03:055,31.316,1.036,-0.211,-0.516,-158.384,177.003,-102.096
15:32:03:056,31.318,0.540,-0.739,-0.668,-168.497,-176.248,-102.278
15:32:03:08,31.341,0.349,-0.987,-0.508,179.552,-173.124,-102.423
15:32:03:196,31.457,0.326,-1.313,-0.342,166.685,-170.475,-102.333
15:32:03:196,31.457,0.237,-1.525,-0.097,161.283,-169.902,-101.558
15:32:03:196,31.457,0.245,-1.452,-0.016,153.929,-170.230,-100.006
15:32:03:196,31.457,0.373,-0.735,0.261,149.454,-172.578,-97.571
15:32:03:211,31.472,0.850,1.652,1.083,146.381,-175.208,-93.919
15:32:03:237,31.498,0.308,2.295,0.660,8.655,178.789,-88.459
15:32:03:323,31.584,0.010,1.725,0.732,51.385,175.961,-86.824
15:32:03:324,31.585,0.069,0.650,0.465,60.829,173.858,-85.081
15:32:03:324,31.585,-0.076,0.439,0.164,51.582,171.674,-84.002
15:32:03:368,31.629,-0.365,-0.090,-0.132,21.305,168.054,-81.361
15:32:03:394,31.655,-0.432,-0.446,-0.094,15.247,166.023,-80.363
15:32:03:424,31.686,-0.522,-0.656,-0.152,8.916,163.154,-78.795
15:32:03:424,31.686,-0.775,-0.938,-0.338,1.219,160.452,-77.013
15:32:03:475,31.737,-0.894,-0.939,-0.419,-5.885,159.277,-76.150
15:32:03:476,31.737,-1.109,-0.689,-0.330,-14.792,159.534,-76.156
15:32:03:5,31.761,-0.955,-0.535,-0.008,-16.801,161.520,-77.004
15:32:03:525,31.786,-1.017,0.154,0.308,-15.844,166.571,-79.229
15:32:03:551,31.812,-1.047,1.134,0.784,-10.449,172.882,-81.607
15:32:03:578,31.839,-0.618,1.402,1.096,14.052,177.802,-83.773
15:32:03:604,31.865,0.006,1.399,1.397,71.048,-174.836,-86.917
15:32:03:657,31.919,0.367,1.414,1.362,85.352,-170.979,-88.892
15:32:03:797,32.058,0.790,0.470,0.892,96.529,-166.495,-92.448
15:32:03:797,32.059,0.611,-0.322,0.389,99.931,-163.934,-94.631
15:32:03:798,32.060,0.595,-0.508,0.169,103.876,-160.000,-97.276
15:32:03:799,32.061,0.687,-0.677,-0.206,109.283,-155.166,-99.310
15:32:03:877,32.138,0.564,-0.907,-0.564,113.943,-151.466,-100.213
15:32:03:877,32.138,0.570,-0.983,-0.766,124.233,-145.884,-101.206
15:32:03:878,32.139,0.506,-0.744,-0.660,132.616,-143.054,-101.955
15:32:03:879,32.140,0.319,-0.986,-0.550,135.627,-140.778,-103.459
15:32:03:924,32.185,0.177,-1.071,-0.357,131.448,-141.231,-104.176
15:32:03:925,32.186,0.230,-0.674,-0.292,126.167,-142.668,-102.667
15:32:03:926,32.187,0.632,1.281,0.180,111.698,-146.144,-97.437
15:32:03:945,32.206,0.161,1.520,0.079,101.074,-148.616,-93.891
15:32:04:059,32.320,0.239,1.488,0.304,89.878,-151.782,-89.950
15:32:04:06,32.321,0.167,0.971,0.542,84.954,-154.220,-87.871
15:32:04:061,32.322,-0.145,0.371,0.443,82.564,-155.994,-87.154
15:32:04:062,32.323,-0.340,0.021,0.267,78.741,-158.639,-86.661
15:32:04:182,32.443,-0.537,-0.203,0.127,75.126,-160.402,-86.489
15:32:04:217,32.479,-0.726,-0.315,0.036,67.879,-163.340,-86.411
15:32:04:218,32.480,-0.830,-0.519,-0.011,64.418,-166.231,-86.749
15:32:04:219,32.480,-0.898,-0.806,0.030,66.858,-167.885,-87.297
15:32:04:22,32.481,-0.959,-0.966,0.149,79.372,-169.085,-88.945
15:32:04:267,32.528,-0.739,-0.574,0.347,94.663,-168.470,-90.429
15:32:04:267,32.528,-0.591,-0.243,0.423,123.037,-165.277,-93.366
15:32:04:29,32.551,-0.234,1.038,0.847,134.332,-160.457,-96.095
15:32:04:29,32.551,0.077,1.397,0.984,130.233,-157.041,-97.956
15:32:04:314,32.575,0.792,1.135,0.874,117.983,-152.693,-101.343
15:32:04:368,32.630,0.737,0.717,0.816,113.176,-151.111,-104.450
15:32:04:369,32.630,0.670,-0.078,0.024,108.955,-149.786,-109.067
15:32:04:391,32.653,0.445,-0.141,-0.185,107.460,-148.242,-110.384
15:32:04:418,32.679,0.472,-0.170,-0.122,106.990,-143.277,-109.665
15:32:04:504,32.765,0.395,-0.409,-0.220,107.527,-136.692,-107.494
15:32:04:505,32.766,0.180,-0.674,-0.413,108.237,-132.465,-105.965
15:32:04:505,32.766,0.057,-0.810,-0.514,110.850,-127.406,-104.081
15:32:04:552,32.813,0.059,-0.663,-0.404,114.188,-125.262,-103.263
15:32:04:552,32.814,0.063,-0.674,-0.301,121.427,-124.112,-103.374
15:32:04:575,32.837,0.008,-0.678,-0.201,125.659,-125.405,-104.346
15:32:04:631,32.892,0.095,-0.444,-0.105,124.432,-127.379,-104.604
15:32:04:631,32.892,0.383,0.285,-0.050,117.653,-131.793,-103.039
15:32:04:654,32.915,0.296,1.068,-0.109,112.083,-134.883,-101.189
15:32:04:767,33.029,0.379,1.091,-0.079,105.687,-138.861,-99.085
15:32:04:768,33.030,0.416,0.794,0.052,101.194,-141.234,-97.134
15:32:04:769,33.031,0.203,0.542,0.103,99.842,-142.288,-96.083
15:32:04:77,33.032,-0.080,0.113,0.101,98.257,-143.797,-94.350
15:32:04:845,33.106,-0.366,-0.055,0.163,97.012,-145.199,-93.148
15:32:04:845,33.106,-0.499,-0.078,0.216,95.275,-148.337,-91.701
15:32:04:846,33.107,-0.672,-0.231,0.336,94.461,-152.042,-91.011
15:32:04:891,33.152,-0.761,-0.562,0.347,94.766,-154.296,-90.946
15:32:05:005,33.266,-0.827,-0.856,0.449,96.887,-156.428,-91.283
15:32:05:006,33.267,-0.764,-0.938,0.510,101.238,-156.608,-92.020
15:32:05:006,33.267,-0.712,-0.703,0.614,113.001,-154.429,-93.783
15:32:05:007,33.268,-0.473,0.198,0.859,125.966,-149.756,-95.366
15:32:05:024,33.285,-0.177,1.319,1.174,134.369,-145.937,-96.051
15:32:05:025,33.286,0.545,1.138,0.936,133.981,-139.611,-98.816
15:32:05:077,33.338,0.819,0.887,0.644,127.863,-135.037,-100.783
15:32:05:078,33.339,0.916,0.639,0.141,123.763,-128.619,-102.907
15:32:05:1,33.362,0.732,-0.055,-0.246,121.290,-122.346,-103.811
15:32:05:267,33.528,0.596,-0.176,-0.315,120.970,-118.031,-103.759
15:32:05:268,33.529,0.331,-0.432,-0.391,122.428,-111.793,-103.020
15:32:05:269,33.530,0.173,-0.715,-0.474,124.248,-108.286,-102.240
15:32:05:269,33.530,0.068,-0.689,-0.506,129.140,-104.392,-100.912
15:32:05:289,33.551,-0.014,-0.692,-0.494,133.338,-102.438,-99.448
15:32:05:29,33.552,-0.088,-0.939,-0.459,131.751,-101.742,-98.567
15:32:05:291,33.552,-0.111,-1.065,-0.313,125.672,-102.027,-97.315
15:32:05:34,33.601,-0.040,-0.889,-0.198,121.271,-102.644,-96.302
15:32:05:341,33.602,0.609,1.041,-0.143,108.602,-104.537,-93.541
15:32:05:445,33.706,0.352,1.160,-0.008,92.026,-106.528,-90.440
15:32:05:445,33.706,0.374,1.041,-0.074,77.682,-108.774,-85.928
15:32:05:478,33.740,0.302,1.418,0.020,72.551,-110.986,-83.635
15:32:05:478,33.740,0.176,0.725,0.161,69.623,-112.718,-83.171
15:32:05:479,33.740,0.022,0.377,0.220,64.791,-115.488,-83.273
15:32:05:479,33.741,-0.155,-0.082,0.361,60.916,-117.675,-83.556
15:32:05:52,33.782,-0.321,-0.304,0.472,52.965,-121.022,-83.593
15:32:05:547,33.808,-0.499,-0.575,0.586,45.908,-124.134,-83.518
15:32:05:606,33.867,-0.551,-0.713,0.576,43.194,-125.835,-83.417
15:32:05:606,33.867,-0.613,-0.935,0.565,41.200,-127.321,-83.532
15:32:05:606,33.867,-0.528,-1.024,0.617,41.042,-127.500,-84.145
15:32:05:627,33.888,-0.438,-0.916,0.663,44.070,-125.846,-85.933
15:32:05:709,33.971,-0.208,-0.219,0.854,62.630,-121.391,-88.350
15:32:05:71,33.972,0.431,2.015,1.360,77.504,-117.304,-89.273
15:32:05:711,33.973,1.098,2.047,0.975,98.447,-110.416,-90.799
15:32:05:733,33.994,1.456,1.021,-0.016,103.750,-105.571,-92.616
15:32:05:784,34.045,1.025,0.126,-0.350,111.150,-99.856,-96.202
15:32:05:87,34.131,0.696,-0.034,-0.211,125.005,-95.710,-99.231
15:32:05:871,34.132,0.580,0.035,-0.139,139.385,-92.740,-100.550
15:32:05:872,34.133,0.268,-0.124,-0.423,162.718,-87.050,-101.613
15:32:05:872,34.134,-0.161,-0.678,-0.624,171.335,-83.174,-101.792
15:32:05:889,34.150,-0.260,-1.025,-0.583,172.442,-78.404,-101.060
15:32:06:055,34.317,-0.490,-1.245,-0.538,169.640,-74.513,-99.137
15:32:06:055,34.317,-0.563,-1.347,-0.520,169.802,-72.628,-97.391
15:32:06:056,34.317,-0.430,-1.414,-0.585,-164.129,-71.638,-94.030
15:32:06:057,34.318,-0.145,-0.698,-0.582,-100.635,-72.714,-90.871
15:32:06:24,34.501,0.052,2.024,-0.365,-66.859,-77.113,-85.802
15:32:06:24,34.501,0.092,1.651,0.132,-55.086,-83.232,-82.222
15:32:06:24,34.502,0.178,1.444,0.415,-43.297,-86.064,-79.746
15:32:06:24,34.502,0.289,1.145,0.447,-35.035,-89.022,-78.442
15:32:06:262,34.523,1.571,1.246,-1.024,-33.605,-90.410,-78.515
15:32:06:263,34.524,0.596,-0.440,0.926,-5.573,-86.188,-70.211
15:32:06:263,34.525,0.181,0.173,0.179,-4.978,-89.438,-73.786
15:32:06:343,34.604,0.129,-0.127,0.517,-10.181,-92.008,-73.194
15:32:06:344,34.605,0.079,-0.524,0.502,-8.563,-94.732,-73.745
15:32:06:345,34.606,-0.061,-0.570,0.854,-8.696,-96.304,-73.819
15:32:06:346,34.607,-0.071,-0.582,0.827,-10.676,-97.681,-74.044
15:32:06:423,34.685,0.026,-0.752,0.660,-9.707,-97.259,-74.945
15:32:06:423,34.685,0.120,-0.698,0.572,-6.719,-95.159,-76.796
15:32:06:423,34.685,0.415,-0.490,0.418,3.588,-90.509,-79.777
15:32:06:424,34.686,0.570,-0.119,0.369,16.815,-86.627,-81.713
15:32:06:44,34.701,0.969,0.706,0.254,35.607,-81.194,-83.622
15:32:06:468,34.730,1.016,0.833,-0.021,46.851,-77.961,-84.963
15:32:06:494,34.755,0.767,1.151,-0.224,59.226,-73.396,-87.389
15:32:06:495,34.756,0.393,1.180,-0.067,77.156,-68.678,-89.626
15:32:06:547,34.808,0.204,0.849,-0.129,174.620,-65.298,-91.398
15:32:06:573,34.834,-0.211,0.341,-0.150,-154.737,-60.163,-94.421
15:32:06:574,34.835,-0.539,-0.281,-0.141,-154.484,-56.727,-96.487
15:32:06:625,34.887,-0.846,-0.807,-0.281,-158.711,-52.040,-99.371
15:32:06:626,34.888,-0.970,-1.282,-0.444,-165.007,-48.942,-100.696
15:32:06:649,34.910,-0.878,-1.499,-0.472,-168.626,-47.290,-100.983
15:32:06:676,34.938,-0.570,-1.402,-0.442,-169.207,-48.256,-100.169
15:32:06:761,35.022,-0.468,-1.143,-0.541,-168.513,-49.901,-98.262
15:32:06:762,35.023,-0.101,0.352,-0.971,-152.877,-54.518,-93.733
15:32:06:762,35.023,0.360,1.268,-0.463,-36.521,-60.551,-87.436
15:32:06:78,35.041,0.536,1.095,-0.194,13.288,-63.412,-83.740
15:32:06:863,35.125,0.642,1.150,-0.096,19.383,-66.506,-79.971
15:32:06:863,35.125,0.591,0.817,0.319,11.571,-69.044,-78.358
15:32:06:939,35.200,0.433,0.403,0.425,4.394,-72.658,-77.171
15:32:07:026,35.288,0.171,-0.012,0.644,-4.234,-76.444,-76.444
15:32:07:027,35.289,0.038,-0.139,0.720,-9.952,-79.074,-76.422
15:32:07:028,35.289,-0.029,-0.455,0.787,-14.877,-82.779,-77.092
15:32:07:029,35.290,-0.037,-0.717,0.844,-16.768,-85.019,-77.838
15:32:07:096,35.357,-0.031,-0.832,0.915,-20.365,-87.656,-79.201
15:32:07:21,35.472,0.026,-0.787,0.859,-26.981,-88.667,-81.072
15:32:07:21,35.472,0.096,-0.637,0.777,-34.570,-88.106,-82.780
15:32:07:211,35.472,0.261,-0.037,0.719,-50.819,-85.374,-85.709
15:32:07:212,35.473,0.525,1.161,0.651,-62.775,-82.375,-87.495
15:32:07:236,35.497,0.777,1.345,0.184,-136.351,-76.461,-91.105
15:32:07:237,35.498,0.802,1.045,-0.376,141.694,-72.386,-93.652
15:32:07:237,35.499,0.526,0.753,-0.566,142.283,-67.166,-97.159
15:32:07:238,35.500,0.235,0.251,-0.553,153.882,-62.285,-100.021
15:32:07:288,35.549,0.109,-0.005,-0.468,161.751,-59.028,-101.553
15:32:07:288,35.549,-0.387,-0.297,-0.308,176.953,-53.635,-103.203
15:32:07:288,35.549,-0.838,-0.609,-0.204,-174.969,-49.960,-103.864
15:32:07:42,35.682,-0.954,-0.686,-0.090,-171.986,-45.073,-103.998
15:32:07:421,35.682,-0.952,-1.035,-0.183,172.633,-42.173,-103.256
15:32:07:421,35.683,-0.932,-1.313,-0.282,154.815,-41.415,-102.340
15:32:07:422,35.684,-0.712,-1.582,-0.282,132.374,-41.933,-99.669
15:32:07:497,35.758,-0.460,-1.101,-0.434,118.181,-43.209,-96.424
15:32:07:497,35.758,0.081,1.734,-1.298,88.388,-46.628,-89.660
15:32:07:498,35.759,0.572,1.676,-0.392,65.191,-51.717,-83.105
15:32:07:545,35.806,0.707,1.492,-0.365,62.282,-54.066,-80.142
15:32:07:546,35.807,0.708,0.924,-0.149,59.631,-57.781,-77.420
15:32:07:571,35.832,0.517,0.338,0.204,56.826,-60.623,-76.576
15:32:07:573,35.834,0.355,0.151,0.394,50.604,-64.966,-76.113
15:32:07:62,35.882,0.121,-0.174,0.518,43.206,-68.744,-75.913
15:32:07:65,35.911,0.036,-0.307,0.528,39.183,-71.141,-76.073
15:32:07:65,35.911,-0.046,-0.583,0.624,34.871,-74.806,-76.486
15:32:07:673,35.934,-0.102,-0.799,0.800,33.009,-77.104,-76.729
15:32:07:726,35.987,-0.117,-0.881,0.841,31.800,-79.872,-77.522
15:32:07:842,36.103,0.005,-0.870,0.877,32.361,-81.174,-79.204
15:32:07:842,36.103,0.130,-0.715,0.831,33.657,-80.934,-80.874
15:32:07:843,36.104,0.510,0.380,0.854,39.250,-78.516,-83.677
15:32:07:843,36.104,0.905,1.441,0.855,46.137,-76.039,-85.171
15:32:07:92,36.181,1.072,1.555,0.226,85.609,-70.911,-89.358
15:32:07:92,36.181,0.800,1.133,-0.378,104.233,-65.034,-93.915
15:32:07:92,36.181,0.610,1.063,-0.603,110.067,-61.576,-96.944
15:32:07:92,36.181,0.107,0.248,-0.779,114.902,-56.666,-100.974
15:32:08:015,36.276,-0.310,-0.293,-0.611,117.598,-53.364,-103.111
15:32:08:096,36.357,-0.568,-0.494,-0.499,123.299,-47.862,-105.651
15:32:08:097,36.358,-0.887,-0.777,-0.396,127.493,-43.892,-106.640
15:32:08:181,36.442,-0.761,-0.890,-0.253,133.178,-38.959,-107.470
15:32:08:182,36.443,-0.719,-1.104,-0.291,136.306,-36.148,-108.177
15:32:08:182,36.443,-0.603,-1.242,-0.258,137.945,-35.877,-108.356
15:32:08:183,36.444,-0.407,-1.225,-0.259,137.406,-37.668,-107.470
15:32:08:207,36.468,-0.236,-0.447,-0.461,136.312,-39.973,-106.484
15:32:08:208,36.469,-0.106,0.365,-0.765,132.544,-44.697,-103.487
15:32:08:209,36.470,0.062,1.122,-0.369,122.225,-50.168,-98.675
15:32:08:209,36.470,0.125,1.335,-0.236,111.508,-53.415,-95.398
15:32:08:258,36.519,0.310,1.560,0.044,95.242,-57.317,-91.165
15:32:08:258,36.519,0.244,0.896,0.124,86.432,-59.335,-89.262
15:32:08:258,36.519,0.228,0.365,0.279,76.093,-61.952,-87.384
15:32:08:278,36.539,0.218,0.005,0.357,65.192,-65.034,-85.994
15:32:08:362,36.623,0.220,-0.259,0.334,56.635,-67.420,-85.277
15:32:08:362,36.623,0.211,-0.508,0.460,39.574,-71.233,-84.401
15:32:08:362,36.624,0.109,-0.757,0.753,24.716,-73.717,-83.837
15:32:08:382,36.643,0.132,-0.845,0.859,6.113,-76.621,-83.237
15:32:08:548,36.810,0.251,-0.989,1.047,-2.545,-77.405,-83.938
15:32:08:549,36.810,0.322,-0.922,1.020,-7.710,-76.351,-85.345
15:32:08:55,36.811,0.604,-0.258,0.796,-10.709,-72.734,-87.926
15:32:08:55,36.812,1.170,1.135,0.627,-7.664,-69.555,-89.385
15:32:08:628,36.889,1.133,1.402,0.114,148.988,-63.666,-92.596
15:32:08:629,36.890,0.954,1.066,-0.621,133.873,-59.510,-95.197
15:32:08:629,36.890,0.642,0.992,-0.864,134.780,-54.066,-99.016
15:32:08:629,36.890,0.204,0.456,-0.804,142.903,-48.957,-102.177
15:32:08:647,36.908,-0.107,-0.069,-0.597,146.847,-45.400,-103.971
15:32:08:647,36.908,-0.496,-0.384,-0.320,153.319,-39.220,-105.792
15:32:08:699,36.961,-0.874,-0.565,0.069,158.498,-32.482,-106.423
15:32:08:89,37.152,-0.821,-0.587,0.190,159.680,-28.340,-106.416
15:32:08:892,37.153,-0.434,-1.363,0.082,149.787,-22.242,-105.193
15:32:08:892,37.154,-0.366,-1.231,-0.104,143.590,-21.895,-103.754
15:32:08:916,37.177,-0.358,-0.318,-0.572,140.043,-22.891,-102.541
15:32:08:916,37.178,-0.364,0.753,-0.972,135.226,-26.287,-100.566
15:32:08:917,37.179,-0.120,1.038,-0.576,120.521,-31.037,-96.830
15:32:08:918,37.180,-0.070,1.268,-0.221,110.465,-33.725,-94.388
15:32:09:17,37.431,0.089,1.050,-0.079,99.350,-36.767,-91.731
15:32:09:222,37.483,0.148,0.458,0.091,91.937,-37.934,-90.318
15:32:09:598,37.860,0.200,0.240,0.214,78.423,-39.336,-88.458
15:32:09:599,37.861,0.194,-0.005,0.363,61.385,-40.988,-86.663
15:32:09:6,37.862,0.156,-0.118,0.419,52.963,-42.460,-85.654
15:32:09:601,37.863,0.189,-0.377,0.460,49.495,-45.383,-84.638
15:32:09:624,37.886,0.383,-0.746,0.494,52.248,-47.649,-84.400
15:32:09:625,37.887,0.549,-0.945,0.609,56.575,-50.894,-84.339
15:32:09:626,37.887,0.607,-0.925,0.769,58.229,-52.555,-84.918
15:32:09:627,37.888,0.799,-0.683,0.627,61.846,-52.134,-85.992
15:32:09:68,37.941,1.432,-0.389,0.373,80.394,-49.006,-88.792
15:32:09:68,37.941,2.349,0.915,0.152,95.336,-46.588,-90.569
15:32:09:68,37.941,1.878,2.281,-0.904,129.702,-41.648,-94.686
15:32:09:68,37.941,0.443,1.086,-1.347,129.809,-34.601,-101.537
15:32:09:705,37.966,0.077,0.976,-1.261,131.544,-30.832,-106.646
15:32:09:705,37.966,-1.103,0.134,-1.075,137.788,-24.256,-113.473
15:32:09:705,37.966,-1.088,-0.500,-0.372,142.591,-18.978,-116.592
15:32:09:706,37.967,-1.034,-0.545,0.105,150.259,-9.379,-118.765
15:32:09:783,38.045,-1.012,-0.707,0.614,156.009,0.198,-119.376
15:32:09:784,38.046,-0.835,-0.858,0.645,157.259,4.834,-119.437
15:32:09:785,38.046,-0.628,-1.211,0.583,156.148,8.533,-118.763
15:32:09:785,38.047,-0.483,-1.320,0.505,154.786,9.175,-117.428
15:32:09:799,38.061,-0.384,-1.319,0.258,150.879,8.221,-114.536
15:32:09:889,38.150,-0.589,-0.513,-0.045,147.112,6.041,-111.103
15:32:09:889,38.150,0.713,0.691,-0.288,83.335,-9.154,-88.760
15:32:09:889,38.150,0.924,0.459,0.077,58.253,-11.008,-85.873
15:32:09:889,38.150,0.985,0.216,0.305,23.732,-12.639,-84.119
15:32:10:123,38.384,0.734,-0.113,0.390,8.506,-13.587,-83.773
15:32:10:124,38.385,0.597,-0.439,0.394,1.094,-14.802,-84.381
15:32:10:125,38.386,0.510,-0.872,0.321,2.846,-15.494,-85.410
15:32:10:125,38.386,0.538,-1.004,0.272,12.478,-15.963,-87.226
15:32:10:305,38.566,0.592,-1.026,0.180,7.699,-14.950,-89.195
15:32:10:306,38.567,0.638,-0.919,0.089,-136.434,-13.130,-90.734
15:32:10:306,38.567,0.807,-0.496,-0.153,-151.626,-8.438,-93.421
15:32:10:335,38.596,1.042,1.778,-0.888,-155.616,-4.472,-95.203
15:32:10:335,38.597,0.343,2.183,-1.272,-170.770,2.104,-97.534
15:32:10:335,38.597,-0.727,1.005,-1.247,151.361,8.823,-102.036
15:32:10:336,38.597,-0.715,0.639,-0.889,146.885,12.442,-105.134
15:32:10:385,38.647,-0.636,-0.034,-0.474,154.960,17.720,-109.412
15:32:10:386,38.648,-0.495,-0.182,-0.256,163.551,21.507,-111.844
15:32:10:387,38.649,-0.530,-0.171,0.329,177.736,28.710,-114.354
15:32:10:388,38.649,-0.411,-0.558,0.741,-173.753,35.769,-116.046
15:32:10:493,38.754,-0.362,-0.878,0.810,-174.372,39.173,-116.778
15:32:10:493,38.754,-0.228,-1.138,0.703,-179.716,42.492,-117.274
15:32:10:493,38.754,-0.051,-1.255,0.437,176.601,43.768,-116.997
15:32:10:494,38.755,-0.029,-1.197,0.334,174.012,44.493,-115.955
15:32:10:513,38.774,-0.174,-0.763,0.194,172.333,43.621,-113.857
15:32:10:513,38.774,-0.920,0.476,0.268,170.727,42.019,-111.742
15:32:10:595,38.857,-0.775,1.308,0.207,171.264,38.078,-107.000
15:32:10:596,38.858,-0.489,1.475,0.045,168.083,34.585,-103.806
15:32:10:597,38.858,-0.309,1.231,-0.058,155.971,29.589,-100.200
15:32:10:598,38.859,-0.113,0.629,-0.138,159.338,25.269,-97.923
15:32:10:675,38.936,0.058,0.445,-0.265,-178.979,22.541,-96.750
15:32:10:675,38.936,0.489,0.120,-0.254,-127.898,18.283,-94.616
15:32:10:676,38.937,0.704,-0.097,-0.135,-109.530,15.562,-93.513
15:32:10:677,38.938,0.749,-0.243,-0.065,-99.504,11.735,-92.385
15:32:10:832,39.093,0.867,-0.639,-0.071,-96.771,9.631,-91.784
15:32:10:833,39.094,0.873,-0.951,-0.072,-96.777,8.154,-91.610
15:32:10:834,39.095,0.857,-1.173,-0.217,-103.463,9.220,-92.708
15:32:10:834,39.095,0.926,-1.226,-0.375,-110.244,11.411,-94.029
15:32:10:858,39.119,0.942,-0.486,-0.606,-114.254,16.225,-96.131
15:32:10:859,39.120,0.778,2.881,-1.300,-111.831,19.412,-96.638
15:32:10:86,39.121,0.119,3.128,-1.054,-116.564,25.291,-99.071
15:32:10:861,39.122,-1.390,1.469,-0.730,-150.202,32.109,-103.725
15:32:10:878,39.139,-1.302,0.689,-0.443,-170.384,35.371,-106.930
15:32:10:937,39.198,-1.037,-0.081,0.074,-173.400,40.564,-111.680
15:32:10:938,39.199,-0.681,-0.231,0.318,-168.990,45.009,-114.270
15:32:10:938,39.200,-0.489,-0.723,0.608,-165.912,53.204,-116.693
15:32:10:939,39.201,-0.304,-0.959,0.848,-166.595,60.825,-117.727
15:32:11:008,39.269,-0.135,-1.087,0.831,-168.472,64.588,-118.295
15:32:11:122,39.384,0.116,-1.188,0.670,-170.818,67.937,-118.360
15:32:11:122,39.384,0.114,-1.285,0.488,-172.447,68.564,-117.501
15:32:11:123,39.384,0.039,-1.293,0.383,-175.327,67.361,-116.392
15:32:11:123,39.385,-0.302,-0.967,0.253,-174.262,64.373,-114.525
15:32:11:278,39.539,-0.705,-0.362,0.274,-169.647,61.359,-112.313
15:32:11:279,39.540,-0.928,1.270,0.318,-150.053,55.936,-106.727
15:32:11:28,39.541,-0.269,1.971,-0.040,-134.434,51.596,-102.333
15:32:11:281,39.542,-0.114,1.752,-0.196,-124.317,45.317,-97.535
15:32:11:357,39.618,-0.060,1.109,-0.077,-122.876,40.919,-94.238
15:32:11:357,39.619,0.061,0.277,-0.173,-133.172,38.595,-92.920
15:32:11:358,39.620,0.353,-0.271,-0.407,-161.245,35.451,-90.519
15:32:11:359,39.621,0.530,-0.238,-0.495,-22.304,33.350,-88.752
15:32:11:41,39.671,0.658,-0.284,-0.478,-35.897,30.599,-86.649
15:32:11:41,39.671,0.852,-0.533,-0.434,-40.696,28.858,-85.312
15:32:11:411,39.672,0.898,-0.631,-0.424,-47.350,28.590,-85.385
15:32:11:412,39.673,0.716,-0.791,-0.475,-62.900,30.116,-87.184
15:32:11:436,39.697,0.529,-0.670,-0.528,-82.323,32.342,-89.242
15:32:11:436,39.697,0.377,-0.060,-0.660,-114.665,36.966,-92.785
15:32:11:437,39.698,0.036,1.351,-0.919,-127.616,40.800,-94.832
15:32:11:438,39.699,-0.555,1.163,-0.607,-155.168,47.563,-99.169
15:32:11:462,39.723,-0.882,0.766,-0.422,-179.317,54.437,-103.085
15:32:11:463,39.724,-0.984,0.728,-0.117,177.246,59.156,-105.040
15:32:11:463,39.724,-0.959,0.392,0.160,-179.643,66.018,-107.122
15:32:11:464,39.725,-0.672,-0.134,0.328,-176.778,70.234,-108.081
15:32:11:482,39.744,-0.419,-0.356,0.465,-173.190,76.334,-108.776
15:32:11:483,39.744,0.066,-0.644,0.604,-168.980,81.885,-108.927
15:32:11:566,39.827,0.212,-0.714,0.654,-166.595,84.726,-108.911
15:32:11:566,39.827,0.265,-1.046,0.621,-165.511,87.152,-108.870
15:32:11:566,39.827,0.283,-1.156,0.460,-164.457,87.749,-108.681
15:32:11:613,39.874,0.184,-1.214,0.326,-160.839,87.175,-107.894
15:32:11:614,39.875,0.101,-1.235,0.232,-153.448,84.545,-105.936
15:32:11:636,39.897,-0.707,0.016,0.465,-139.539,81.581,-103.225
15:32:11:692,39.953,-0.756,2.001,0.957,-109.563,75.941,-97.505
15:32:11:693,39.954,-0.232,2.272,0.156,-90.987,68.484,-90.421
15:32:11:717,39.978,-0.240,1.352,-0.148,-82.585,65.441,-87.403
15:32:11:802,40.063,-0.245,0.421,0.092,-73.005,62.607,-85.171
15:32:11:802,40.063,-0.106,0.143,-0.356,-69.390,60.388,-84.050
15:32:11:802,40.063,0.000,0.089,-0.430,-66.424,56.644,-82.367
15:32:11:822,40.084,0.129,-0.155,-0.530,-63.640,54.358,-81.116
15:32:11:877,40.138,0.209,-0.292,-0.529,-58.426,51.893,-79.464
15:32:11:877,40.138,0.326,-0.552,-0.496,-52.728,50.700,-78.319
15:32:11:9,40.161,0.470,-0.835,-0.581,-48.661,50.555,-77.810
15:32:11:984,40.245,0.616,-0.958,-0.792,-46.425,51.557,-77.759
15:32:11:984,40.245,0.513,-0.832,-0.832,-49.174,53.609,-78.672
15:32:11:985,40.246,0.136,-0.451,-0.780,-55.788,58.957,-80.972
15:32:12:062,40.324,-0.554,1.299,-1.324,-62.470,65.489,-83.364
15:32:12:063,40.324,-0.950,1.278,-1.081,-67.171,70.200,-84.868
15:32:12:063,40.325,-1.508,1.159,0.112,-75.809,77.881,-87.449
15:32:12:085,40.346,-1.330,1.020,0.048,-83.746,81.954,-89.032
15:32:12:138,40.399,-1.058,0.906,0.348,-98.087,87.379,-91.335
15:32:12:139,40.400,-0.592,0.605,0.265,-107.807,93.320,-93.537
15:32:12:161,40.422,-0.257,0.222,0.493,-113.050,98.255,-94.830
15:32:12:188,40.449,0.342,-0.130,0.605,-122.007,106.360,-96.553
15:32:12:217,40.478,0.768,-0.443,0.602,-131.694,111.567,-97.401
15:32:12:242,40.504,0.883,-0.926,0.490,-163.011,117.795,-98.550
15:32:12:268,40.529,0.643,-1.668,0.327,154.675,121.265,-99.356
15:32:12:324,40.585,0.586,-1.700,0.303,141.254,122.240,-99.568
15:32:12:325,40.586,0.384,-1.214,0.331,135.223,122.080,-98.834
15:32:12:345,40.606,-0.004,0.137,0.669,129.900,120.793,-97.631
15:32:12:374,40.635,-0.603,1.810,1.304,114.769,117.218,-94.744
15:32:12:375,40.636,-0.259,1.373,0.333,90.175,111.781,-90.038
15:32:12:429,40.691,-0.296,1.316,0.242,84.537,108.708,-88.694
15:32:12:429,40.691,-0.364,0.934,0.160,84.682,104.547,-88.832
15:32:12:509,40.770,-0.316,0.419,-0.158,86.163,101.903,-89.312
15:32:12:51,40.771,-0.205,0.161,-0.296,94.686,98.238,-90.553
15:32:12:51,40.771,-0.134,-0.060,-0.359,106.279,95.626,-91.564
15:32:12:585,40.847,-0.123,-0.332,-0.355,112.338,94.122,-92.297
15:32:12:586,40.848,-0.227,-0.745,-0.538,116.429,91.983,-93.147
15:32:12:61,40.872,-0.215,-0.856,-0.692,119.705,90.848,-93.453
15:32:12:611,40.873,-0.247,-0.587,-0.949,132.938,90.790,-94.271
15:32:12:664,40.925,-0.225,-0.347,-0.957,140.527,92.174,-95.400
15:32:12:665,40.926,-0.318,-0.271,-0.836,145.751,95.780,-98.629
15:32:12:687,40.948,-0.680,0.348,-0.585,147.865,100.195,-102.664
15:32:12:715,40.976,-0.992,1.296,-0.066,147.362,103.129,-104.888
15:32:12:77,41.031,-0.746,1.104,0.401,144.666,107.418,-109.166
15:32:12:77,41.031,-0.703,1.071,0.290,140.362,109.586,-112.004
15:32:12:882,41.143,-0.541,1.045,0.417,135.510,112.243,-116.177
15:32:12:882,41.143,-0.262,0.563,0.513,131.072,114.713,-120.591
15:32:12:882,41.143,-0.126,0.260,0.563,128.132,115.816,-124.002
15:32:12:882,41.143,0.108,-0.246,0.541,124.379,116.293,-130.095
15:32:12:896,41.157,0.173,-0.644,0.479,122.171,115.540,-134.797
15:32:12:978,41.239,0.550,-0.869,0.383,115.726,108.850,-151.759
15:32:12:978,41.240,0.562,-0.643,0.333,113.266,104.503,-159.161
15:32:13:002,41.264,0.451,-0.489,0.395,109.401,91.070,-176.070
15:32:13:028,41.289,0.277,-0.473,0.350,107.419,76.395,168.193
15:32:13:054,41.315,0.158,-0.353,0.307,105.972,59.039,150.469
15:32:13:109,41.370,0.122,-0.117,0.022,105.973,50.670,143.141
15:32:13:11,41.371,0.179,0.000,-0.010,106.540,46.327,140.342
15:32:13:134,41.395,0.237,0.234,0.041,107.460,40.702,137.273
15:32:13:19,41.451,0.106,0.313,0.095,107.927,38.893,136.844
15:32:13:19,41.451,0.020,0.251,0.105,108.468,40.761,140.250
15:32:13:212,41.473,-0.079,0.099,0.101,109.335,45.748,146.749
15:32:13:238,41.499,-0.080,-0.024,0.040,110.061,48.070,150.075
15:32:13:293,41.554,-0.086,-0.137,-0.068,111.192,49.581,152.941
15:32:13:294,41.555,-0.083,-0.222,-0.100,111.789,49.792,153.662
15:32:13:317,41.578,-0.082,-0.398,-0.159,112.237,48.796,152.582
15:32:13:345,41.606,-0.197,-0.476,-0.148,112.313,47.732,151.022
15:32:13:37,41.631,-0.317,-0.423,-0.082,112.206,46.400,148.349
15:32:13:424,41.685,-0.333,-0.057,0.081,112.015,44.558,145.124
15:32:13:425,41.686,-0.279,0.176,0.055,112.021,43.496,143.097
15:32:13:45,41.711,-0.349,0.255,0.041,112.362,43.268,141.403
15:32:13:475,41.736,-0.320,0.461,-0.118,112.789,43.859,140.067
15:32:13:501,41.762,-0.295,0.533,-0.081,113.070,44.629,139.983
15:32:13:526,41.788,-0.238,0.469,0.149,113.494,49.144,142.189
15:32:13:553,41.814,-0.080,0.241,0.245,113.709,52.534,144.215
15:32:13:579,41.841,0.147,-0.089,0.287,113.569,56.425,145.910
15:32:13:605,41.866,0.343,-0.246,0.316,113.215,57.684,145.907
15:32:13:633,41.894,0.469,-0.371,0.259,112.618,58.135,144.615
15:32:13:687,41.948,0.390,-0.464,0.146,112.074,57.045,142.365
15:32:13:688,41.949,0.284,-0.512,0.132,111.637,56.032,140.579
15:32:13:71,41.972,0.204,-0.488,0.168,110.811,53.049,137.519
15:32:13:738,42.000,0.065,-0.190,0.194,110.362,50.867,135.789
15:32:13:764,42.026,-0.006,-0.082,0.181,109.918,47.345,133.886
15:32:13:789,42.050,0.001,0.080,0.235,109.353,43.025,131.644
15:32:13:818,42.079,0.105,0.303,0.324,109.137,39.599,130.222
15:32:13:843,42.104,0.216,0.639,0.063,108.918,34.109,126.913
15:32:13:899,42.160,0.206,0.597,-0.114,108.586,30.666,125.392
15:32:13:899,42.161,0.100,0.353,0.039,108.100,30.994,127.347
15:32:13:92,42.182,-0.005,0.027,0.110,107.663,32.919,131.104
15:32:13:949,42.211,-0.054,-0.132,0.110,107.254,33.445,132.569
15:32:14:002,42.263,-0.083,-0.470,0.035,106.391,31.357,131.564
15:32:14:003,42.264,-0.049,-0.614,-0.121,105.245,26.381,127.271
15:32:14:027,42.288,-0.107,-0.607,-0.165,104.557,23.893,124.754
15:32:14:082,42.344,-0.343,-0.420,-0.058,103.794,21.753,122.400
15:32:14:082,42.344,-0.329,-0.130,0.007,103.445,21.213,121.095
15:32:14:158,42.419,-0.222,0.036,0.014,103.710,21.491,120.432
15:32:14:189,42.450,-0.389,0.427,-0.151,105.351,25.550,123.512
15:32:14:189,42.450,-0.412,0.567,-0.069,106.270,28.484,125.356
15:32:14:19,42.451,-0.407,0.635,-0.022,106.991,32.913,127.653
15:32:14:209,42.470,-0.281,0.519,0.148,107.033,35.697,128.828
15:32:14:264,42.525,0.068,0.196,0.308,106.892,38.936,130.077
15:32:14:265,42.526,0.200,-0.126,0.232,106.500,40.444,130.072
15:32:14:288,42.549,0.189,-0.262,0.260,106.142,41.699,130.362
15:32:14:481,42.743,0.217,-0.389,0.282,105.572,43.433,130.964
15:32:14:482,42.743,0.217,-0.425,0.166,105.098,43.965,130.915
15:32:14:482,42.743,0.211,-0.456,0.155,104.190,43.299,129.595
15:32:14:483,42.744,0.102,-0.444,0.115,103.207,40.351,126.706
15:32:14:528,42.789,0.083,-0.358,0.082,102.901,38.683,125.700
15:32:14:56,42.821,0.091,0.008,0.103,103.103,38.696,126.972
15:32:14:56,42.821,0.052,0.239,0.414,103.048,38.080,127.349
15:32:14:561,42.822,0.156,0.439,0.280,103.112,35.890,127.086
15:32:14:562,42.823,0.166,0.578,0.113,103.562,36.024,128.518
15:32:14:614,42.875,0.051,0.602,0.178,104.617,40.787,135.045
15:32:14:614,42.875,-0.060,0.413,0.203,105.246,45.520,140.979
15:32:14:614,42.875,-0.106,0.295,0.097,105.425,46.134,142.107
15:32:14:615,42.876,-0.099,0.002,-0.138,105.456,44.499,141.369
15:32:14:691,42.953,-0.100,-0.237,-0.140,105.517,44.216,141.755
15:32:14:691,42.953,-0.088,-0.459,-0.093,105.428,44.338,142.507
15:32:14:691,42.953,-0.154,-0.623,0.000,105.092,45.220,142.888
15:32:14:739,43.000,-0.180,-0.669,0.075,104.873,45.574,143.091
15:32:14:739,43.000,-0.149,-0.578,0.159,104.606,46.350,142.544
15:32:14:76,43.021,-0.190,-0.376,0.163,104.427,45.819,141.082
15:32:14:787,43.048,-0.127,-0.061,0.131,104.253,44.237,137.152
15:32:14:842,43.103,-0.093,0.333,-0.262,104.992,45.169,136.726
15:32:14:843,43.104,-0.389,0.547,-0.275,105.569,49.367,139.042
15:32:14:866,43.128,-0.570,0.720,0.005,105.430,54.428,141.679
15:32:14:922,43.183,-0.460,0.728,0.087,104.939,56.207,141.498
15:32:14:923,43.184,-0.191,0.534,0.194,103.945,55.784,138.844
15:32:14:944,43.205,0.098,0.251,0.165,102.797,53.629,134.315
15:32:14:973,43.234,0.298,0.036,0.185,101.816,51.302,130.622
15:32:15:055,43.316,0.449,-0.222,0.227,99.915,46.486,123.667
15:32:15:055,43.317,0.465,-0.415,0.085,98.576,41.862,118.046
15:32:15:056,43.318,0.404,-0.467,-0.057,96.799,35.409,110.424
15:32:15:075,43.336,0.278,-0.524,0.049,95.654,30.952,105.860
15:32:15:268,43.530,0.234,-0.509,0.162,95.261,28.856,104.167
15:32:15:269,43.530,0.083,-0.194,0.257,95.618,26.812,103.990
15:32:15:27,43.531,-0.176,0.089,0.307,96.451,27.054,105.450
15:32:15:27,43.532,-0.204,0.178,0.304,98.013,27.961,108.296
15:32:15:321,43.582,-0.074,0.448,0.384,99.405,28.439,110.678
15:32:15:321,43.582,0.041,0.588,0.219,100.230,28.680,112.035
15:32:15:322,43.583,0.031,0.553,0.102,101.058,30.725,114.897
15:32:15:339,43.600,0.008,0.051,-0.140,101.534,37.409,122.055
15:32:15:425,43.686,0.026,-0.205,-0.110,101.401,43.621,128.466
15:32:15:426,43.687,0.014,-0.439,-0.056,101.132,47.675,132.699
15:32:15:426,43.688,-0.188,-0.576,0.007,100.446,50.740,135.601
15:32:15:427,43.689,-0.489,-0.638,0.024,99.800,48.463,133.248
15:32:15:444,43.705,-0.644,-0.623,0.043,98.982,42.189,126.495
15:32:15:61,43.872,-0.751,-0.508,0.225,98.713,38.142,121.681
15:32:15:61,43.872,-0.589,-0.445,0.307,99.105,34.388,116.088
15:32:15:611,43.873,-0.713,-0.021,-0.179,101.001,36.080,115.308
15:32:15:612,43.874,-1.000,0.388,-0.325,102.898,40.664,117.513
15:32:15:632,43.893,-0.799,0.480,0.187,106.090,53.698,128.006
15:32:15:633,43.894,-0.374,0.638,0.908,107.273,63.379,135.746
15:32:15:634,43.895,-0.088,0.545,0.837,107.683,74.090,143.583
15:32:15:684,43.945,0.246,0.182,0.588,106.832,79.467,145.366
15:32:15:684,43.945,0.479,0.059,0.460,105.501,79.133,142.553
15:32:15:705,43.966,0.658,-0.106,0.040,102.957,76.188,135.051
15:32:15:84,44.101,0.503,-0.289,-0.127,101.379,74.907,130.700
15:32:15:841,44.102,0.415,-0.376,-0.131,99.974,76.567,127.811
15:32:15:871,44.132,0.291,-0.401,0.030,99.749,79.526,127.537
15:32:15:872,44.133,0.167,-0.390,0.150,100.028,80.844,127.092
15:32:15:873,44.134,0.028,-0.130,0.339,101.223,82.319,127.783
15:32:15:874,44.135,-0.219,0.245,0.542,102.181,83.957,128.512
15:32:15:918,44.179,0.221,0.340,0.381,103.432,84.538,128.944
15:32:15:919,44.180,0.304,0.536,-0.021,104.332,83.149,127.451
15:32:15:942,44.203,0.136,0.665,-0.300,104.598,82.839,126.821
15:32:15:968,44.229,0.077,0.373,-0.295,105.182,87.846,130.855
15:32:16:023,44.284,0.018,0.218,-0.197,105.707,93.260,135.787
15:32:16:024,44.285,-0.153,-0.038,0.049,106.238,100.726,142.193
15:32:16:134,44.395,-0.246,-0.256,0.114,106.312,104.482,145.451
15:32:16:135,44.396,-0.263,-0.381,0.131,106.232,105.819,146.945
15:32:16:135,44.396,-0.237,-0.592,0.243,106.130,108.048,148.785
15:32:16:136,44.397,-0.235,-0.732,0.289,106.027,107.558,147.918
15:32:16:151,44.413,-0.265,-0.613,0.387,106.077,105.779,144.498
15:32:16:178,44.439,-0.211,-0.317,0.508,106.966,104.022,140.290
15:32:16:204,44.465,-0.267,-0.097,0.335,108.163,103.983,138.366
15:32:16:259,44.520,-0.594,0.388,0.579,111.294,111.112,143.018
15:32:16:26,44.521,-0.417,0.550,0.724,113.338,118.790,148.657
15:32:16:286,44.547,-0.107,0.755,0.845,115.302,130.319,157.025
15:32:16:503,44.764,0.073,0.612,0.613,115.790,136.256,160.696
15:32:16:503,44.764,0.102,0.437,0.413,115.303,141.050,162.424
15:32:16:504,44.765,0.226,0.064,0.087,113.672,143.092,161.030
15:32:16:505,44.766,0.303,-0.231,-0.115,112.203,143.258,158.580
15:32:16:66,44.921,0.404,-0.465,-0.179,110.120,142.743,153.975
15:32:16:661,44.922,0.438,-0.580,-0.227,108.872,141.215,149.721
15:32:16:661,44.922,0.360,-0.650,-0.254,107.183,136.208,141.150
15:32:16:662,44.923,0.367,-0.707,-0.297,105.693,130.522,132.677
15:32:16:685,44.946,0.244,-0.725,-0.408,105.026,127.289,128.236
15:32:16:686,44.947,0.040,-0.521,-0.470,105.312,128.230,128.031
15:32:16:687,44.948,0.316,-0.248,-0.431,105.863,133.027,132.149
15:32:16:688,44.949,0.353,0.021,-0.383,106.529,141.849,140.856
15:32:16:738,44.999,0.348,0.462,-0.316,107.052,151.756,150.830
15:32:16:739,45.000,0.109,0.758,-0.045,107.622,159.196,158.743
15:32:16:74,45.001,-0.164,1.021,0.485,109.717,172.473,173.714
15:32:16:74,45.002,-0.308,0.864,0.459,112.048,179.110,-178.203
15:32:16:812,45.073,-0.341,0.424,0.256,116.450,-176.316,-171.451
15:32:16:813,45.074,-0.399,0.141,0.252,120.692,-174.887,-170.010
15:32:16:842,45.103,-0.410,-0.170,0.231,123.193,-175.702,-170.900
15:32:16:843,45.104,-0.322,-0.481,0.239,126.225,-176.225,-172.942
15:32:16:844,45.105,-0.129,-0.574,0.354,127.731,-176.573,-174.067
15:32:16:845,45.106,-0.042,-0.528,0.411,129.382,-174.542,-174.704
15:32:16:918,45.180,-0.073,-0.343,0.633,130.398,-170.884,-174.274
15:32:16:919,45.181,0.005,-0.276,0.748,130.829,-167.669,-173.584
15:32:16:92,45.181,0.144,-0.414,0.676,131.464,-161.241,-170.972
15:32:16:939,45.200,0.089,-0.322,0.740,132.167,-155.629,-168.221
15:32:17:024,45.285,0.220,0.144,0.942,133.532,-146.384,-163.362
15:32:17:024,45.285,0.491,0.218,0.363,134.447,-136.027,-155.891
15:32:17:103,45.364,0.602,0.205,-0.376,134.891,-129.401,-150.106
15:32:17:103,45.365,0.039,0.014,-0.803,133.838,-123.525,-144.191
15:32:17:104,45.366,-0.482,-0.286,-1.168,131.091,-121.452,-140.771
15:32:17:128,45.389,-0.491,-0.378,-1.220,126.662,-116.560,-133.548
15:32:17:128,45.390,-0.189,-0.645,-0.930,124.536,-111.904,-127.611
15:32:17:179,45.440,-0.084,-0.691,-0.759,122.796,-106.901,-119.535
15:32:17:179,45.440,0.165,-0.637,-0.427,123.174,-105.348,-113.200
15:32:17:201,45.462,0.445,-0.353,-0.185,124.142,-106.128,-109.761
15:32:17:255,45.516,0.615,-0.071,-0.053,124.038,-110.024,-105.368
15:32:17:284,45.545,0.744,0.338,0.091,120.703,-113.852,-101.635
15:32:17:284,45.545,0.766,1.361,0.405,107.983,-120.399,-94.305
15:32:17:365,45.626,0.271,2.057,0.992,74.425,-128.142,-88.138
15:32:17:366,45.627,0.029,1.877,0.972,56.198,-132.682,-85.494
15:32:17:367,45.628,-0.236,0.744,0.830,60.326,-136.859,-82.909
15:32:17:385,45.646,-0.290,0.175,0.800,66.506,-138.186,-82.119
15:32:17:47,45.731,-0.496,-0.471,0.625,70.051,-138.703,-80.597
15:32:17:47,45.731,-0.741,-0.549,0.467,68.815,-138.594,-78.571
15:32:17:471,45.732,-0.789,-0.575,0.401,67.555,-138.609,-77.675
15:32:17:549,45.810,-0.882,-0.708,0.306,66.099,-138.549,-77.311
15:32:17:55,45.811,-0.827,-0.837,0.353,66.041,-138.119,-77.848
15:32:17:55,45.811,-0.652,-0.798,0.504,67.740,-135.919,-79.601
15:32:17:628,45.889,-0.591,-0.330,0.799,71.491,-131.898,-82.407
15:32:17:628,45.889,-0.359,1.060,1.570,73.675,-128.546,-84.083
15:32:17:629,45.890,0.270,1.549,1.614,82.637,-123.149,-87.503
15:32:17:648,45.909,0.995,1.368,1.229,91.980,-118.825,-90.853
15:32:17:703,45.964,1.130,0.783,0.213,101.593,-112.772,-97.397
15:32:17:704,45.965,0.834,0.082,-0.397,108.021,-108.935,-104.192
15:32:17:789,46.050,0.724,-0.183,-0.465,111.648,-106.746,-107.803
15:32:17:789,46.050,0.477,-0.570,-0.494,117.278,-102.636,-111.309
15:32:17:789,46.050,0.036,-0.855,-0.693,121.372,-99.102,-112.552
15:32:17:805,46.066,-0.291,-0.947,-0.702,128.191,-92.934,-112.826
15:32:17:89,46.151,-0.465,-0.962,-0.719,136.528,-86.558,-111.772
15:32:17:89,46.152,-0.519,-0.944,-0.705,143.331,-83.081,-111.001
15:32:17:891,46.153,-0.349,-1.111,-0.482,153.755,-79.986,-109.739
15:32:17:91,46.172,-0.016,-1.095,-0.354,159.991,-79.723,-108.612
15:32:17:966,46.227,0.287,-0.453,-0.558,167.168,-82.076,-106.152
15:32:17:966,46.227,0.777,1.200,-0.770,173.702,-85.474,-103.094
15:32:17:991,46.252,0.290,1.985,-0.189,-150.473,-91.951,-95.095
15:32:18:074,46.335,0.055,1.748,0.331,-37.931,-98.270,-88.271
15:32:18:074,46.335,0.090,1.291,0.351,21.316,-100.811,-85.528
15:32:18:182,46.443,0.117,0.388,0.618,47.596,-102.771,-83.191
15:32:18:183,46.444,0.093,-0.218,0.613,54.300,-103.074,-81.816
15:32:18:183,46.444,-0.149,-0.494,0.607,55.836,-103.283,-79.686
15:32:18:184,46.445,-0.311,-0.664,0.610,54.164,-103.257,-77.674
15:32:18:232,46.494,-0.393,-0.764,0.643,52.479,-103.199,-76.419
15:32:18:232,46.494,-0.545,-0.983,0.829,48.047,-103.455,-75.278
15:32:18:233,46.494,-0.355,-0.960,0.974,44.670,-103.541,-75.188
15:32:18:34,46.601,-0.109,-0.816,1.062,40.173,-102.314,-76.881
15:32:18:341,46.602,0.258,0.711,1.488,36.614,-99.114,-79.523
15:32:18:341,46.602,0.669,1.522,1.398,40.693,-95.616,-81.648
15:32:18:341,46.602,1.188,1.399,0.608,75.049,-89.257,-86.959
15:32:18:357,46.618,1.125,0.717,-0.214,93.827,-85.172,-91.012
15:32:18:524,46.785,0.903,0.830,-0.380,110.991,-80.341,-96.052
15:32:18:525,46.786,0.679,0.618,-0.549,125.254,-75.463,-99.957
15:32:18:526,46.787,0.405,-0.025,-0.757,132.087,-72.052,-102.180
15:32:18:527,46.788,-0.228,-0.563,-0.715,141.642,-67.086,-104.718
15:32:18:544,46.805,-0.679,-0.859,-0.453,147.851,-64.078,-105.792
15:32:18:545,46.806,-0.668,-0.995,-0.394,152.742,-60.565,-106.507
15:32:18:699,46.960,-0.509,-1.214,-0.480,153.765,-58.722,-106.825
15:32:18:753,47.014,-0.439,-1.270,-0.512,154.152,-58.448,-106.405
15:32:18:807,47.069,-0.274,-1.203,-0.375,154.012,-59.597,-104.346
15:32:18:808,47.069,0.008,-0.289,-0.487,153.448,-61.265,-102.267
15:32:18:865,47.126,0.357,0.970,-0.780,156.611,-65.243,-97.165
15:32:18:865,47.126,0.268,1.223,-0.125,104.995,-70.420,-90.177
15:32:18:866,47.127,0.176,1.485,0.016,-7.594,-73.144,-85.803
15:32:18:867,47.128,0.174,1.463,0.377,-23.347,-77.275,-80.854
15:32:18:891,47.152,0.148,0.997,0.466,-27.941,-79.983,-78.572
15:32:18:892,47.153,0.093,0.214,0.595,-31.351,-84.047,-76.049
15:32:18:893,47.154,0.086,-0.126,0.775,-32.377,-86.873,-74.581
15:32:18:894,47.155,0.096,-0.256,0.827,-32.168,-91.044,-72.921
15:32:18:965,47.226,-0.064,-0.709,0.761,-28.841,-95.566,-72.095
15:32:19:043,47.304,-0.102,-0.826,0.635,-25.446,-95.841,-73.251
15:32:19:044,47.305,0.001,-0.994,0.412,-21.929,-95.204,-74.580
15:32:19:075,47.336,0.082,-0.990,0.372,-16.304,-93.358,-76.932
15:32:19:076,47.337,0.177,-0.525,0.585,-15.191,-90.519,-78.980
15:32:19:077,47.338,0.490,0.630,0.901,-17.823,-88.081,-79.510
15:32:19:077,47.338,0.927,1.265,0.701,-21.821,-83.285,-80.292
15:32:19:127,47.388,1.094,1.164,-0.235,-12.716,-79.293,-81.518
15:32:19:127,47.388,0.899,1.038,-0.217,-5.010,-72.894,-83.992
15:32:19:127,47.388,0.526,0.725,-0.018,-29.568,-66.503,-86.384
15:32:19:148,47.409,0.312,0.479,-0.197,-62.140,-61.740,-88.259
15:32:19:148,47.409,0.023,0.273,-0.354,-107.304,-54.078,-91.424
15:32:19:196,47.458,-0.339,-0.381,-0.314,-129.751,-49.032,-93.382
15:32:19:226,47.487,-0.620,-1.006,-0.250,-162.067,-42.676,-96.069
15:32:19:226,47.488,-0.704,-1.396,-0.266,179.432,-38.204,-97.785
15:32:19:392,47.653,-0.545,-1.458,-0.241,178.256,-36.646,-98.628
15:32:19:392,47.654,-0.690,-1.376,-0.346,-165.890,-36.184,-98.992
15:32:19:392,47.654,-0.435,-0.791,-0.428,-150.782,-37.095,-97.632
15:32:19:393,47.654,-0.402,0.607,-0.768,-124.225,-40.584,-94.486
15:32:19:47,47.731,-0.264,1.177,-0.224,-76.674,-46.016,-88.858
15:32:19:47,47.731,-0.117,1.236,0.055,-4.022,-48.733,-84.452
15:32:19:471,47.732,-0.033,1.417,-0.204,13.956,-51.912,-80.566
15:32:19:472,47.733,0.406,1.094,0.058,8.525,-54.065,-78.486
15:32:19:575,47.837,0.424,0.199,0.086,5.525,-56.956,-76.220
15:32:19:575,47.837,0.400,-0.004,0.267,2.111,-59.092,-74.742
15:32:19:576,47.837,0.334,-0.203,0.610,-3.751,-62.854,-72.297
15:32:19:576,47.838,0.108,-0.355,0.837,-7.887,-66.964,-70.807
15:32:19:678,47.939,0.054,-0.537,0.791,-8.233,-69.194,-70.426
15:32:19:679,47.940,0.136,-0.895,0.813,-3.138,-71.519,-71.013
15:32:19:68,47.941,0.297,-1.159,0.886,3.000,-72.875,-72.569
15:32:19:681,47.942,0.343,-1.128,0.893,3.979,-72.966,-73.925
15:32:19:755,48.016,0.430,-0.507,0.772,2.064,-71.121,-76.084
15:32:19:755,48.017,0.794,1.180,0.979,1.186,-68.501,-77.163
15:32:19:756,48.018,0.800,1.320,0.567,10.369,-62.754,-80.104
15:32:19:864,48.125,0.790,1.436,-0.158,34.505,-58.111,-82.438
15:32:19:864,48.125,0.686,1.156,-0.486,71.856,-51.337,-86.751
15:32:19:865,48.126,0.242,0.396,-0.748,94.737,-46.072,-91.023
15:32:19:865,48.126,0.117,0.052,-0.677,106.249,-43.294,-93.687
15:32:19:912,48.174,-0.138,-0.418,-0.585,123.542,-39.280,-97.188
15:32:19:912,48.174,-0.478,-0.768,-0.406,137.885,-36.535,-99.253
15:32:19:912,48.174,-0.586,-0.865,-0.255,164.495,-32.377,-101.525
15:32:19:933,48.194,-0.598,-1.080,-0.135,-177.417,-28.680,-102.646
15:32:19:987,48.248,-0.617,-1.149,-0.134,-172.019,-26.724,-103.172
15:32:19:988,48.249,-0.596,-1.318,-0.046,-167.514,-25.463,-103.127
15:32:20:01,48.271,-0.393,-1.276,-0.061,-164.491,-26.061,-101.556
15:32:20:127,48.389,-0.703,-0.127,-0.576,-138.428,-28.827,-96.570
15:32:20:127,48.389,-0.862,1.604,-0.884,-90.833,-33.912,-90.155
15:32:20:127,48.389,-0.142,1.947,-0.032,-66.647,-38.239,-85.042
15:32:20:128,48.389,0.029,1.976,0.071,-51.573,-43.661,-79.398
15:32:20:276,48.537,0.049,1.431,0.166,-50.928,-47.591,-77.206
15:32:20:308,48.570,0.347,0.338,0.386,-48.685,-52.265,-73.540
15:32:20:309,48.571,0.315,-0.085,0.458,-48.333,-56.891,-71.721
15:32:20:31,48.571,0.284,-0.205,0.506,-46.849,-59.259,-70.750
15:32:20:311,48.572,0.197,-0.535,0.559,-41.716,-61.908,-69.820
15:32:20:356,48.617,0.290,-0.783,0.562,-37.008,-63.381,-69.528
15:32:20:356,48.617,0.351,-1.010,0.542,-29.552,-65.391,-69.782
15:32:20:382,48.643,0.430,-1.214,0.612,-23.889,-66.934,-70.786
15:32:20:382,48.643,0.384,-1.150,0.743,-23.973,-67.098,-72.003
15:32:20:458,48.719,0.472,-0.420,0.869,-28.156,-65.132,-74.692
15:32:20:572,48.833,0.821,0.706,0.918,-32.568,-62.700,-76.678
15:32:20:573,48.834,1.015,1.906,0.492,-39.000,-57.823,-80.671
15:32:20:573,48.834,0.557,1.446,-0.656,-6.298,-51.578,-85.386
15:32:20:574,48.835,0.352,1.089,-0.644,66.589,-48.302,-88.376
15:32:20:624,48.885,-0.003,0.366,-0.743,113.466,-44.737,-92.795
15:32:20:625,48.886,-0.197,-0.214,-0.631,134.428,-42.444,-95.389
15:32:20:625,48.886,-0.549,-0.271,-0.430,179.053,-37.975,-98.323
15:32:20:625,48.886,-0.812,-0.410,0.065,-160.969,-34.657,-99.687
15:32:20:643,48.904,-0.707,-1.057,0.125,-161.771,-30.092,-100.442
15:32:20:644,48.905,-0.586,-1.790,-0.034,-178.145,-27.665,-100.050
15:32:20:727,48.988,-0.584,-1.785,-0.175,172.358,-27.158,-98.821
15:32:20:728,48.989,-0.445,-1.472,-0.360,168.921,-28.082,-96.131
15:32:20:728,48.989,-0.397,-0.449,-0.345,173.789,-29.756,-93.451
15:32:20:804,49.065,-0.215,1.954,-0.718,-43.402,-33.582,-88.162
15:32:20:805,49.066,0.015,1.922,-0.203,-21.262,-38.641,-82.879
15:32:20:806,49.067,0.172,1.774,-0.101,-11.177,-41.135,-79.467
15:32:20:826,49.087,0.244,1.318,0.235,-13.523,-44.422,-76.846
15:32:20:879,49.141,0.202,0.613,0.189,-16.986,-46.244,-75.819
15:32:20:88,49.141,0.247,0.067,0.331,-23.206,-49.677,-74.646
15:32:20:903,49.164,0.262,-0.084,0.513,-29.064,-53.689,-73.734
15:32:20:985,49.246,0.284,-0.310,0.444,-28.712,-56.006,-73.642
15:32:20:986,49.247,0.275,-0.701,0.447,-24.035,-58.958,-73.531
15:32:21:013,49.274,0.325,-0.819,0.671,-21.596,-60.821,-73.416
15:32:21:013,49.274,0.395,-0.785,0.773,-20.879,-62.946,-73.739
15:32:21:095,49.356,0.713,-0.780,1.006,-21.712,-63.198,-75.206
15:32:21:095,49.356,0.957,-0.806,1.016,-23.405,-61.954,-77.038
15:32:21:095,49.356,1.305,-0.059,0.860,-32.298,-57.961,-81.099
15:32:21:255,49.517,1.537,1.880,0.516,-46.533,-53.910,-84.044
15:32:21:255,49.517,0.918,1.917,-0.462,-94.543,-45.615,-90.367
15:32:21:255,49.517,0.020,1.157,-1.220,161.036,-37.350,-96.913
15:32:21:256,49.517,-0.400,0.537,-1.168,151.413,-32.957,-100.865
15:32:21:281,49.542,-0.473,-0.207,-0.784,153.695,-27.118,-105.587
15:32:21:281,49.542,-0.685,-0.227,-0.420,159.059,-22.957,-107.579
15:32:21:281,49.542,-0.651,-0.351,0.017,163.163,-16.575,-109.312
