Time,Second,AccelerationX,AccelerationY,AccelerationZ,EulerAnglesX,EulerAnglesY,EulerAnglesZ
14:34:46:973,0,-0.043,0.156,-0.052,7.687,6.63,-20.821
14:34:47:028,0.055,0.013,0.189,-0.029,7.231,7.434,-18.756
14:34:47:028,0.056,0.132,0.106,0.017,6.92,7.698,-17.144
14:34:47:051,0.078,0.16,0.033,0.064,6.489,9.045,-14.694
14:34:47:105,0.132,0.079,-0.021,0.093,5.967,10.161,-12.633
14:34:47:134,0.161,0.094,-0.088,0.26,5.678,10.211,-11.737
14:34:47:134,0.161,0.36,-0.062,0.259,5.295,7.281,-11.076
14:34:47:156,0.184,0.43,-0.054,0.218,5.098,5.933,-10.785
14:34:47:211,0.239,0.595,-0.081,0.206,5.38,6.84,-10.085
14:34:47:212,0.24,0.471,-0.05,0.046,5.993,10.319,-9.381
14:34:47:236,0.264,0.425,-0.06,-0.008,6.561,12.634,-9.033
14:34:47:29,0.317,0.269,-0.051,0.002,7.458,16.21,-9.086
14:34:47:291,0.318,0.369,0.11,-0.084,8.095,17.598,-9.525
14:34:47:315,0.342,0.309,0.161,-0.117,9.102,19.278,-11.139
14:34:47:341,0.368,0.192,0.126,-0.101,10.124,19.655,-13.95
14:34:47:395,0.422,0.188,0.096,-0.091,10.73,19.487,-16.331
14:34:47:396,0.423,0.176,0.11,-0.126,11.386,18.624,-20.496
14:34:47:418,0.446,0.088,0.116,-0.116,11.634,17.911,-23.604
14:34:47:503,0.531,0.06,0.164,-0.068,11.786,16.983,-28.474
14:34:47:504,0.532,0.046,0.186,-0.097,12.078,16.74,-33.363
14:34:47:505,0.533,-0.025,0.16,-0.076,12.61,17.099,-36.62
14:34:47:582,0.609,-0.146,0.104,-0.046,14.132,18.235,-41.325
14:34:47:582,0.609,-0.166,0.029,-0.01,15.665,19.23,-44.284
14:34:47:583,0.61,-0.231,-0.053,0.03,18.628,20.869,-48.43
14:34:47:737,0.764,-0.239,-0.238,0.148,24.157,23.362,-54.129
14:34:47:738,0.765,-0.242,-0.263,0.169,26.784,24.435,-56.503
14:34:47:795,0.822,-0.203,-0.271,0.211,27.836,24.923,-57.53
14:34:47:796,0.823,-0.156,-0.345,0.231,28.498,25.302,-58.334
14:34:47:797,0.824,-0.148,-0.428,0.201,28.236,25.444,-58.312
14:34:47:817,0.844,-0.18,-0.381,0.208,25.281,25.063,-56.094
14:34:47:817,0.844,-0.177,-0.285,0.221,23.18,24.675,-54.357
14:34:47:868,0.895,-0.236,-0.147,0.263,18.8,23.39,-51.035
14:34:47:869,0.896,-0.306,-0.04,0.145,14.684,21.288,-48.504
14:34:47:891,0.918,-0.292,0.163,-0.132,5.739,14.57,-44.666
14:34:47:917,0.944,0.192,0.556,-0.196,-3.502,4.267,-40.614
14:34:47:944,0.971,0.56,0.402,0.02,-6.28,-1.469,-38.088
14:34:48:05,1.077,0.241,0.162,0.028,-6.127,-4.968,-35.922
14:34:48:136,1.164,0.105,0.078,-0.027,-5.096,-5.777,-35.047
14:34:48:137,1.164,0.174,0.023,-0.013,-3.902,-7.227,-33.889
14:34:48:138,1.165,0.111,-0.061,0.011,-2.9,-8.569,-32.99
14:34:48:139,1.166,0.107,-0.081,0.015,-2.218,-9.274,-32.344
14:34:48:188,1.216,0.111,-0.046,-0.023,-0.968,-9.692,-31.209
14:34:48:189,1.216,0.096,0.004,-0.057,0.143,-9.406,-30.245
14:34:48:19,1.217,0.091,0.012,-0.102,2.192,-8.297,-28.502
14:34:48:207,1.234,0.114,-0.022,-0.044,5.683,-5.332,-24.711
14:34:48:261,1.289,0.071,0.017,-0.041,7.437,-3.044,-22.01
14:34:48:262,1.289,0.097,0.038,-0.02,8.363,-1.375,-20.05
14:34:48:4,1.427,0.167,0.055,-0.022,9.363,1.164,-17.054
14:34:48:4,1.427,0.193,0.066,-0.013,9.988,3.824,-14.295
14:34:48:401,1.428,0.204,0.053,-0.037,10.262,5.563,-12.721
14:34:48:401,1.428,0.189,0.033,-0.04,10.448,7.902,-10.885
14:34:48:47,1.497,0.221,0.005,-0.059,10.481,9.168,-10.029
14:34:48:527,1.554,0.209,0.002,-0.063,10.384,10.908,-9.244
14:34:48:528,1.555,0.197,0.034,-0.065,10.078,12.33,-9.617
14:34:48:528,1.556,0.176,-0.037,-0.063,9.848,12.989,-10.225
14:34:48:601,1.629,0.216,-0.027,-0.103,9.547,13.991,-10.409
14:34:48:636,1.663,0.213,-0.009,-0.09,9.311,14.887,-10.56
14:34:48:636,1.663,0.225,-0.016,-0.098,8.936,16.786,-10.89
14:34:48:637,1.664,0.157,-0.017,-0.1,8.541,19.355,-12.072
14:34:48:638,1.665,0.125,-0.009,-0.098,8.363,21.388,-12.412
14:34:48:658,1.685,0.085,0.006,-0.077,8.14,25.003,-13.035
14:34:48:659,1.686,0.101,0.022,-0.061,8.046,27.162,-13.504
14:34:48:659,1.687,0.122,0.04,-0.08,8.108,30.696,-14.253
14:34:48:705,1.732,-0.028,0.022,0.108,8.561,34.958,-14.897
14:34:48:734,1.761,-0.037,0.03,0.18,8.996,38.162,-15.237
14:34:48:734,1.762,-0.065,0.008,0.278,9.793,41.524,-15.627
14:34:48:758,1.785,-0.08,-0.004,0.246,10.256,42.948,-15.843
14:34:48:784,1.811,0.001,0.055,0.124,10.738,43.148,-16.437
14:34:48:81,1.837,-0.05,0.055,0.093,10.906,42.651,-17.025
14:34:48:836,1.863,-0.038,0.041,0.041,10.787,41.242,-18.293
14:34:48:863,1.89,-0.097,0,0.063,10.537,39.564,-19.727
14:34:48:889,1.916,-0.112,-0.027,0.079,10.319,38.458,-20.638
14:34:48:914,1.942,-0.058,-0.024,0.034,9.925,36.657,-21.951
14:34:48:942,1.969,-0.079,-0.048,0.035,9.727,35.696,-22.643
14:34:48:967,1.995,-0.067,-0.053,0.015,9.406,34.353,-23.419
14:34:48:994,2.021,-0.04,-0.05,0.035,9.061,33.049,-23.743
14:34:49:02,2.047,-0.034,-0.041,0.027,8.85,32.341,-23.733
14:34:49:048,2.075,-0.024,-0.03,0.042,8.572,31.551,-23.321
14:34:49:073,2.1,-0.043,-0.006,0.047,8.451,31.171,-22.857
14:34:49:156,2.184,-0.039,0.018,0.062,8.202,30.613,-22.06
14:34:49:157,2.185,0.012,0.011,0.042,7.992,29.859,-21.313
14:34:49:158,2.186,0.003,0.003,0.055,7.973,29.359,-20.841
14:34:49:178,2.205,0.04,0.015,0.044,7.955,28.397,-20.256
14:34:49:233,2.26,0.078,0.01,0.093,7.865,27.67,-19.975
14:34:49:233,2.261,0.06,0.005,0.103,7.73,26.561,-19.582
14:34:49:257,2.284,0.049,0.016,0.055,7.652,25.204,-19.288
14:34:49:283,2.31,0.123,0.043,0.12,7.772,24.064,-19.113
14:34:49:309,2.336,0.07,0.006,0.079,8.126,22.153,-18.83
14:34:49:422,2.449,0.027,-0.002,-0.019,8.439,20.616,-18.689
14:34:49:423,2.45,0.07,-0.015,-0.029,8.773,17.944,-18.458
14:34:49:423,2.451,0.093,-0.004,0.009,8.972,15.327,-18.11
14:34:49:424,2.452,0.086,0.001,-0.011,9.155,13.872,-17.935
14:34:49:44,2.468,0.092,0.011,-0.06,9.482,11.917,-17.702
14:34:49:466,2.493,0.135,0.009,-0.058,9.688,10.807,-17.562
14:34:49:522,2.549,0.12,-0.005,-0.045,9.963,9.519,-17.369
14:34:49:522,2.549,0.073,0.008,0.021,10.227,8.918,-17.228
14:34:49:575,2.602,0.025,-0.01,-0.013,10.393,8.545,-17.221
14:34:49:575,2.602,0.067,-0.019,-0.111,10.529,7.41,-17.402
14:34:49:597,2.625,0.087,-0.008,-0.078,10.559,6.4,-17.511
14:34:49:653,2.68,0.087,-0.033,-0.063,10.641,5.358,-17.613
14:34:49:654,2.681,0.079,-0.023,-0.029,10.647,5.129,-17.794
14:34:49:677,2.705,0.084,0.019,-0.018,10.711,5.536,-17.833
14:34:49:731,2.759,0.021,0.007,0.005,10.695,6.157,-17.899
14:34:49:732,2.76,0.007,-0.012,0.002,10.67,6.24,-18.023
14:34:49:755,2.783,0.016,-0.034,0,10.605,6.408,-18.244
14:34:49:839,2.866,0.034,-0.015,-0.017,10.42,6.148,-18.37
14:34:49:84,2.867,0.07,0.013,0.027,10.024,5.531,-18.545
14:34:49:841,2.868,0.05,0,0.072,9.846,5.371,-18.612
14:34:49:86,2.887,0.01,-0.031,0.038,9.792,5.602,-18.602
14:34:49:944,2.971,0.054,0.039,0.048,9.564,5.656,-18.511
14:34:49:945,2.972,0.027,0.002,0.066,9.463,5.869,-18.426
14:34:49:946,2.973,0.033,-0.003,0.071,9.356,5.929,-18.302
14:34:49:965,2.992,0.032,0.008,0.04,9.387,5.888,-18.304
14:34:50:021,3.048,0.02,0.019,0.037,9.394,5.755,-18.309
14:34:50:021,3.048,0.025,0.001,0.08,9.526,5.552,-18.278
14:34:50:044,3.071,0.024,0.006,0.062,9.541,5.402,-18.234
14:34:50:099,3.126,0.011,0.026,0.034,9.657,5.288,-18.219
14:34:50:1,3.127,0.028,0.006,0.046,9.699,4.964,-18.129
14:34:50:122,3.15,0.019,-0.006,0.053,9.855,4.78,-18.117
14:34:50:178,3.205,0.015,-0.011,0.012,9.938,4.402,-18.056
14:34:50:178,3.206,0.042,-0.007,0.004,9.931,4.174,-17.943
14:34:50:201,3.229,0.006,-0.017,0.039,10.012,4.026,-17.743
14:34:50:255,3.282,-0.017,-0.018,0.008,10.112,3.973,-17.468
14:34:50:283,3.31,0.016,-0.003,-0.021,10.08,3.736,-17.255
14:34:50:284,3.311,0.031,0.01,-0.005,10.014,3.224,-16.953
14:34:50:306,3.333,-0.004,-0.003,0.014,9.992,2.9,-16.737
14:34:50:334,3.361,0.009,0.008,-0.02,9.918,2.211,-16.451
14:34:50:359,3.386,0.007,-0.008,0.004,9.788,1.233,-16.23
14:34:50:385,3.413,0.001,-0.005,-0.014,9.645,0.454,-16.061
14:34:50:411,3.438,0.065,0,0.015,9.423,-0.71,-15.708
14:34:50:437,3.465,0.009,-0.016,-0.004,9.365,-1.189,-15.36
14:34:50:492,3.52,0.047,0.008,-0.019,9.296,-1.993,-14.748
14:34:50:493,3.52,0.045,0.033,0.042,9.305,-2.668,-14.011
14:34:50:545,3.572,-0.028,0.007,0.036,9.379,-2.862,-13.448
14:34:50:546,3.573,0.064,0.012,0.017,9.407,-3.605,-12.679
14:34:50:569,3.596,0.068,0.02,0.036,9.397,-4.134,-12.241
14:34:50:624,3.652,-0.042,-0.015,0.008,9.448,-4.638,-11.781
14:34:50:625,3.652,0.066,0.019,0.027,9.464,-5.268,-11.646
14:34:50:647,3.674,0.076,0.014,0.017,9.431,-6.349,-11.735
14:34:50:703,3.73,0.017,0.005,0.018,9.379,-7.152,-11.963
14:34:50:703,3.731,0.002,-0.02,0.003,9.325,-7.671,-12.147
14:34:50:727,3.754,0.08,0.006,-0.005,9.191,-8.711,-12.333
14:34:50:784,3.811,0.074,-0.011,-0.019,9.16,-9.355,-12.32
14:34:50:785,3.812,0.026,-0.013,-0.004,9.238,-9.842,-12.223
14:34:50:786,3.813,0.073,0.015,0.027,9.315,-10.118,-12.147
14:34:50:864,3.891,0.045,0.024,0.008,9.332,-10.187,-12.147
14:34:50:865,3.892,-0.002,0.032,-0.023,9.24,-10.19,-12.218
14:34:50:866,3.893,0.041,0.044,0.013,9.109,-10.234,-12.277
14:34:50:913,3.94,0.028,0.028,0.026,8.991,-10.245,-12.242
14:34:50:914,3.941,0.022,-0.011,0.002,8.954,-9.951,-12.033
14:34:50:995,4.022,0.013,-0.028,-0.002,8.872,-9.818,-11.846
14:34:50:995,4.022,0.09,-0.029,-0.056,8.607,-9.924,-11.487
14:34:50:996,4.023,0.135,-0.032,-0.042,8.417,-10.055,-11.209
14:34:51:073,4.101,0.081,-0.042,-0.016,8.304,-9.685,-10.748
14:34:51:074,4.102,0.069,-0.029,0.012,8.326,-8.633,-10.251
14:34:51:075,4.102,0.04,-0.018,0.026,8.346,-7.803,-9.963
14:34:51:152,4.179,-0.028,0.002,0.019,8.329,-6.629,-9.671
14:34:51:153,4.18,-0.03,0.001,0.031,8.263,-6.243,-9.637
14:34:51:154,4.181,-0.022,0.008,0.09,8.181,-6.339,-9.816
14:34:51:173,4.2,-0.067,0.029,0.099,8.169,-6.867,-10.126
14:34:51:228,4.255,-0.053,0.021,0.104,8.213,-7.378,-10.323
14:34:51:228,4.255,-0.002,0.008,0.069,8.358,-8.41,-10.557
14:34:51:252,4.28,0.026,0.004,0.033,8.479,-9.072,-10.673
14:34:51:278,4.305,0.058,-0.007,0.003,8.698,-9.925,-10.88
14:34:51:304,4.331,0.079,-0.016,-0.018,8.969,-10.564,-11.132
14:34:51:36,4.387,0.088,-0.015,-0.023,9.146,-10.748,-11.324
14:34:51:361,4.388,0.127,-0.009,-0.012,9.36,-10.556,-11.543
14:34:51:438,4.466,0.145,-0.01,-0.005,9.473,-10.136,-11.666
14:34:51:439,4.467,0.139,-0.006,-0.008,9.597,-8.865,-11.892
14:34:51:517,4.545,0.089,0,0.003,9.581,-7.352,-12.648
14:34:51:518,4.546,0.055,-0.001,0.015,9.588,-6.245,-12.975
14:34:51:602,4.629,-0.003,0.005,0.084,9.611,-5.117,-13.53
14:34:51:603,4.63,0.003,-0.012,0.107,9.642,-4.688,-13.875
14:34:51:603,4.63,-0.001,-0.023,0.092,9.767,-4.438,-14.231
14:34:51:604,4.631,0.021,-0.02,0.026,9.891,-4.278,-14.388
14:34:51:623,4.65,0.063,-0.003,0.01,9.96,-4.227,-14.423
14:34:51:623,4.65,0.078,0,-0.007,10.039,-4.002,-14.386
14:34:51:674,4.701,0.07,0.003,-0.01,10.09,-3.707,-14.335
14:34:51:675,4.702,0.042,0.005,-0.023,10.1,-3.157,-14.416
14:34:51:697,4.724,0.022,0.004,0.016,10.119,-2.735,-14.392
14:34:51:753,4.78,0.017,-0.009,0.019,10.162,-2.048,-14.34
14:34:51:753,4.781,-0.006,-0.007,0.028,10.217,-1.328,-14.273
14:34:51:776,4.803,-0.006,-0.009,0.019,10.241,-0.927,-14.203
14:34:51:803,4.83,0.008,-0.002,0.016,10.232,-0.536,-14.102
14:34:51:83,4.857,0.042,-0.001,0.014,10.208,-0.378,-14.03
14:34:51:855,4.882,0.052,-0.002,0.017,10.146,-0.11,-13.932
14:34:51:881,4.908,0.062,-0.008,0.006,10.113,0.314,-13.928
14:34:51:907,4.934,0.05,-0.004,0.02,10.161,0.65,-14.022
14:34:51:933,4.961,0.028,-0.008,0.009,10.229,1.192,-14.175
14:34:51:961,4.989,0.025,-0.011,0.016,10.282,1.537,-14.293
14:34:52:044,5.071,0.013,-0.018,0.011,10.329,1.942,-14.517
14:34:52:045,5.072,-0.012,-0.005,0.004,10.323,2.229,-14.744
14:34:52:046,5.073,-0.004,0.005,0.004,10.267,2.337,-14.865
14:34:52:065,5.092,0.015,0.001,0.035,10.166,2.517,-14.968
14:34:52:091,5.118,0.035,-0.004,0.05,10.107,2.638,-14.986
14:34:52:117,5.144,0.058,-0.004,0.055,10.054,2.84,-14.977
14:34:52:143,5.171,0.08,0.002,0.036,9.978,3.154,-14.889
14:34:52:172,5.199,0.067,0.015,0.021,10.003,3.567,-14.831
14:34:52:197,5.224,0.031,0.006,0.013,10.158,4.316,-14.804
14:34:52:222,5.25,0.007,0.001,-0.004,10.273,4.924,-14.774
14:34:52:278,5.305,0.008,0.003,0.003,10.435,5.581,-14.804
14:34:52:278,5.306,-0.001,-0.002,-0.003,10.563,6.042,-14.918
14:34:52:301,5.328,0.004,-0.005,0.007,10.638,6.259,-15.018
14:34:52:357,5.384,-0.004,0,0.01,10.733,6.583,-15.184
14:34:52:357,5.384,-0.003,0.002,0.018,10.804,6.781,-15.289
14:34:52:38,5.407,-0.015,-0.006,0.017,10.945,7.12,-15.394
14:34:52:406,5.433,-0.026,-0.014,0.022,11.105,7.422,-15.435
14:34:52:435,5.462,-0.019,-0.011,0.011,11.188,7.576,-15.439
14:34:52:458,5.486,-0.019,-0.009,0.017,11.291,7.717,-15.441
14:34:52:486,5.513,-0.01,-0.007,0.007,11.335,7.77,-15.434
14:34:52:569,5.597,-0.003,-0.007,0.013,11.367,7.82,-15.426
14:34:52:57,5.597,0.003,-0.012,0.009,11.369,7.696,-15.45
14:34:52:618,5.645,0.017,-0.005,0.014,11.342,7.294,-15.536
14:34:52:647,5.674,0.017,0.002,0.018,11.328,7.091,-15.586
14:34:52:647,5.674,0.023,-0.003,0.017,11.326,6.754,-15.671
14:34:52:727,5.754,0.029,-0.003,0.019,11.34,6.438,-15.751
14:34:52:728,5.755,0.027,0,0.005,11.375,6.024,-15.928
14:34:52:728,5.755,0.016,-0.002,0.014,11.428,5.674,-16.135
14:34:52:775,5.803,0.007,-0.006,0.012,11.451,5.474,-16.27
14:34:52:803,5.83,0.003,0.001,0.013,11.478,5.126,-16.467
14:34:52:803,5.83,-0.002,0.001,0.014,11.484,4.918,-16.594
14:34:52:826,5.853,-0.009,0,0.015,11.49,4.692,-16.719
14:34:52:852,5.879,0.004,0.003,0.018,11.489,4.436,-16.775
14:34:52:879,5.906,0.005,-0.003,0.022,11.502,4.23,-16.786
14:34:52:905,5.932,-0.008,-0.001,0.009,11.5,4.05,-16.785
14:34:52:933,5.96,0.008,0.002,-0.001,11.487,3.864,-16.788
14:34:52:959,5.986,0.008,0.002,0.005,11.47,3.564,-16.793
14:34:52:984,6.011,0.005,-0.004,-0.002,11.447,3.182,-16.786
14:34:53:012,6.04,0.017,0.005,0.005,11.423,2.85,-16.798
14:34:53:013,6.041,0.018,-0.004,0.002,11.388,2.318,-16.828
14:34:53:063,6.09,0.017,-0.006,0.01,11.369,1.974,-16.851
14:34:53:092,6.12,0.022,-0.008,0,11.327,1.516,-16.892
14:34:53:092,6.12,0.023,-0.008,0.014,11.293,1.146,-16.905
14:34:53:144,6.172,0.027,-0.006,0.006,11.262,0.917,-16.911
14:34:53:145,6.172,0.02,0.004,0.003,11.217,0.668,-16.888
14:34:53:167,6.194,0.029,-0.01,0.015,11.205,0.53,-16.86
14:34:53:194,6.221,0.026,-0.012,0.016,11.204,0.403,-16.825
14:34:53:249,6.276,0.011,-0.007,0.007,11.182,0.269,-16.8
14:34:53:25,6.277,0.027,-0.011,0.011,11.166,0.108,-16.803
14:34:53:331,6.358,0.02,-0.003,0.007,11.136,-0.176,-16.831
14:34:53:332,6.359,0.021,0.004,0.015,11.108,-0.368,-16.848
14:34:53:333,6.36,0.026,0.001,0.011,11.045,-0.662,-16.874
14:34:53:351,6.379,0.038,-0.004,0.013,11.004,-0.868,-16.909
14:34:53:377,6.404,0.038,-0.007,0.016,10.962,-1.075,-16.973
14:34:53:405,6.433,0.033,-0.003,0.016,10.939,-1.104,-17.022
14:34:53:459,6.486,0.038,-0.007,0.014,10.916,-1.078,-17.049
14:34:53:46,6.487,0.04,-0.007,0.014,10.89,-0.98,-17.101
14:34:53:512,6.539,0.032,-0.006,0.012,10.872,-0.721,-17.152
14:34:53:513,6.54,0.029,-0.006,0.012,10.867,-0.483,-17.174
14:34:53:536,6.564,0.021,-0.008,0.009,10.846,-0.12,-17.198
14:34:53:59,6.617,0.028,-0.013,-0.006,10.833,0.101,-17.218
14:34:53:591,6.618,0.029,-0.003,0.001,10.783,0.439,-17.303
14:34:53:614,6.641,0.019,-0.003,-0.001,10.769,0.716,-17.365
14:34:53:671,6.698,0.016,-0.004,0.006,10.75,1.177,-17.471
14:34:53:671,6.698,0.019,-0.012,0.003,10.752,1.642,-17.589
14:34:53:693,6.72,0.02,-0.012,0.002,10.75,1.975,-17.675
14:34:53:747,6.774,0.004,-0.006,0.003,10.755,2.546,-17.798
14:34:53:774,6.801,0.003,0,0.018,10.745,2.922,-17.867
14:34:53:775,6.802,0.006,0.002,0,10.734,3.45,-17.963
14:34:53:798,6.825,0.025,-0.006,-0.012,10.736,4.04,-18.051
14:34:53:824,6.851,-0.015,-0.015,-0.016,10.738,4.545,-18.085
14:34:53:85,6.878,-0.009,-0.003,-0.008,10.71,5.302,-18.141
14:34:53:905,6.932,-0.008,0.005,-0.001,10.677,5.776,-18.201
14:34:53:906,6.933,-0.018,0.012,0.006,10.639,6.552,-18.277
14:34:53:929,6.956,-0.023,0.006,0.007,10.639,7.392,-18.268
14:34:53:982,7.01,-0.024,-0.002,0.009,10.644,7.996,-18.237
14:34:54:011,7.038,-0.03,-0.001,-0.002,10.669,8.981,-18.151
14:34:54:012,7.039,-0.03,0,0.004,10.688,9.608,-18.062
14:34:54:063,7.09,-0.028,-0.007,-0.018,10.72,10.473,-17.969
14:34:54:063,7.09,-0.023,0.001,-0.013,10.712,11.241,-17.861
14:34:54:086,7.114,-0.03,-0.002,-0.008,10.709,11.696,-17.787
14:34:54:142,7.169,-0.039,0.001,-0.01,10.66,12.236,-17.681
14:34:54:142,7.169,-0.013,0.002,-0.002,10.596,12.421,-17.634
14:34:54:165,7.192,-0.01,-0.01,0.006,10.492,12.572,-17.599
14:34:54:22,7.248,-0.006,-0.015,0.021,10.388,12.643,-17.584
14:34:54:221,7.248,-0.006,-0.005,0.02,10.321,12.654,-17.575
14:34:54:274,7.302,0.018,0.002,0.016,10.209,12.556,-17.572
14:34:54:274,7.302,0.018,0.003,-0.009,10.151,12.505,-17.567
14:34:54:296,7.324,0.024,0.006,-0.007,10.074,12.556,-17.552
14:34:54:351,7.379,0.014,-0.005,-0.006,10.037,12.773,-17.52
14:34:54:352,7.38,0.012,-0.004,-0.001,10.018,12.969,-17.495
14:34:54:376,7.403,0.001,-0.003,-0.001,9.995,13.265,-17.453
14:34:54:43,7.457,0.009,-0.008,0.002,9.977,13.439,-17.421
14:34:54:431,7.458,0.007,-0.021,-0.011,9.939,13.635,-17.398
14:34:54:541,7.568,0.011,0.003,-0.006,9.861,13.742,-17.434
14:34:54:542,7.569,0.016,-0.007,-0.022,9.8,13.793,-17.473
14:34:54:543,7.57,0.008,-0.011,-0.011,9.695,13.932,-17.536
14:34:54:589,7.616,0.011,0.002,-0.012,9.496,14.236,-17.565
14:34:54:589,7.617,0.012,-0.005,-0.01,9.399,14.405,-17.534
14:34:54:611,7.638,0.012,-0.004,-0.001,9.238,14.703,-17.436
14:34:54:637,7.665,0.03,0.004,-0.005,9.063,15.002,-17.294
14:34:54:664,7.691,0.04,0.003,0.002,8.967,15.227,-17.229
14:34:54:69,7.718,0.041,0,0,8.867,15.656,-17.161
14:34:54:716,7.743,0.032,0.002,0.007,8.842,16.139,-17.111
14:34:54:742,7.769,0.031,-0.004,-0.004,8.854,16.445,-17.099
14:34:54:799,7.826,0.021,-0.017,-0.018,8.892,16.842,-17.12
14:34:54:799,7.826,0.023,-0.017,-0.028,8.902,17.068,-17.168
14:34:54:821,7.848,0.013,-0.005,-0.016,8.963,17.478,-17.219
14:34:54:847,7.874,-0.016,-0.008,-0.021,9.019,17.805,-17.273
14:34:54:902,7.93,-0.017,-0.009,-0.022,9.088,17.991,-17.392
14:34:54:903,7.931,-0.046,-0.009,-0.007,9.076,17.869,-17.529
14:34:54:926,7.954,0,0.021,-0.009,9.022,17.575,-17.617
14:34:54:981,8.009,-0.02,0.009,-0.003,8.987,16.891,-17.92
14:34:54:982,8.01,-0.055,-0.023,-0.002,8.999,16.025,-18.252
14:34:55:063,8.091,-0.015,0,0.024,8.936,15.298,-18.474
14:34:55:064,8.091,0.013,0.019,0.047,8.837,14.196,-18.843
14:34:55:065,8.092,-0.039,0.021,0.047,8.807,13.61,-19.096
14:34:55:113,8.14,-0.024,0.01,0.067,8.733,12.823,-19.41
14:34:55:114,8.141,-0.008,0.023,0.091,8.613,12.408,-19.575
14:34:55:136,8.163,-0.018,0.02,0.111,8.435,12.202,-19.756
14:34:55:194,8.222,-0.024,-0.012,0.153,8.311,12.793,-19.854
14:34:55:195,8.222,-0.069,-0.006,0.17,8.268,13.45,-19.889
14:34:55:196,8.223,-0.093,0.003,0.166,8.266,14.684,-19.894
14:34:55:244,8.271,-0.044,0.033,0.083,8.245,15.377,-19.877
14:34:55:245,8.272,-0.012,0.059,0.056,8.125,15.86,-19.839
14:34:55:267,8.295,-0.026,0.061,0.047,8.071,16.362,-19.695
14:34:55:294,8.321,-0.009,-0.009,0.048,8.123,16.801,-19.533
14:34:55:349,8.376,0.012,-0.084,0.007,8.315,17.518,-19.293
14:34:55:35,8.377,-0.001,-0.092,0.001,8.484,18.082,-19.178
14:34:55:428,8.456,-0.019,-0.051,-0.021,8.726,18.974,-18.972
14:34:55:428,8.456,-0.011,-0.009,-0.037,8.941,19.843,-18.703
14:34:55:485,8.512,-0.001,0.004,-0.025,9.077,20.421,-18.484
14:34:55:485,8.512,-0.032,-0.012,-0.026,9.301,21.131,-18.134
14:34:55:486,8.513,-0.017,-0.023,-0.043,9.432,21.308,-17.913
14:34:55:505,8.532,0.013,-0.028,-0.044,9.438,21.026,-17.571
14:34:55:53,8.557,0.04,-0.011,-0.053,9.412,20.64,-17.171
14:34:55:557,8.584,0.055,0.006,-0.065,9.368,20.479,-16.884
14:34:55:582,8.61,0.069,0.004,-0.063,9.301,20.433,-16.469
14:34:55:609,8.636,0.049,-0.003,-0.056,9.233,20.602,-16.389
14:34:55:635,8.663,0.045,0.002,-0.041,9.088,21.034,-16.469
14:34:55:661,8.688,0.033,0.003,-0.036,8.989,21.443,-16.6
14:34:55:687,8.715,0.026,0.005,-0.03,8.935,21.748,-16.733
14:34:55:714,8.741,0.019,0.006,-0.037,8.85,22.103,-17.034
14:34:55:769,8.796,0.018,0.008,-0.024,8.798,22.305,-17.268
14:34:55:77,8.797,0.011,0.009,-0.026,8.734,22.542,-17.673
14:34:55:794,8.821,0.007,0.006,-0.012,8.66,22.886,-18.102
14:34:55:876,8.904,-0.003,-0.003,-0.017,8.616,23.188,-18.379
14:34:55:877,8.905,-0.005,-0.003,-0.004,8.555,23.882,-18.785
14:34:55:878,8.906,-0.019,-0.001,0.003,8.513,24.449,-19.064
14:34:55:897,8.925,-0.03,0.004,0.016,8.477,25.424,-19.457
14:34:55:952,8.98,-0.032,0.014,0.02,8.49,26.498,-19.813
14:34:55:953,8.981,-0.035,0.001,0.053,8.614,27.412,-19.967
14:34:55:976,9.003,-0.051,-0.009,0.071,8.903,28.857,-20.222
14:34:56:032,9.059,-0.064,-0.014,0.107,9.14,29.83,-20.314
14:34:56:032,9.059,-0.072,-0.017,0.161,9.457,31.039,-20.408
14:34:56:055,9.082,-0.084,-0.019,0.151,9.585,31.506,-20.443
14:34:56:081,9.109,-0.083,-0.015,0.102,9.652,31.552,-20.396
14:34:56:138,9.165,-0.054,-0.01,0.058,9.546,31.057,-20.31
14:34:56:139,9.166,-0.04,-0.004,0.021,9.406,30.564,-20.262
14:34:56:16,9.187,-0.027,-0.004,-0.002,9.207,29.814,-20.182
14:34:56:187,9.214,-0.022,-0.003,-0.015,9.093,29.39,-20.112
14:34:56:214,9.241,-0.014,-0.004,-0.016,8.997,28.911,-19.996
14:34:56:24,9.267,-0.009,-0.01,-0.005,8.917,28.679,-19.869
14:34:56:265,9.293,-0.01,-0.004,-0.004,8.888,28.626,-19.776
14:34:56:292,9.319,-0.008,-0.005,-0.003,8.825,28.6,-19.626
14:34:56:317,9.345,-0.003,-0.004,0.002,8.776,28.539,-19.538
14:34:56:402,9.429,0.004,-0.001,0.012,8.685,28.356,-19.435
14:34:56:402,9.43,0.012,0.003,0.022,8.575,28.02,-19.387
14:34:56:403,9.431,0.03,0.005,0.026,8.519,27.689,-19.405
14:34:56:424,9.451,0.033,0.005,0.018,8.489,27.188,-19.466
14:34:56:478,9.505,0.036,0.005,0.023,8.516,27.003,-19.522
14:34:56:479,9.506,0.011,0.001,0.018,8.622,26.95,-19.574
14:34:56:501,9.529,-0.001,-0.002,0.022,8.723,27.089,-19.593
14:34:56:557,9.585,-0.01,-0.006,0.013,8.778,27.196,-19.599
14:34:56:557,9.585,-0.011,-0.004,0.015,8.85,27.451,-19.601
14:34:56:58,9.607,-0.024,-0.009,0.013,8.916,27.602,-19.594
14:34:56:606,9.633,-0.025,-0.008,0.015,8.997,27.784,-19.557
14:34:56:664,9.691,-0.023,-0.003,0.013,9.037,27.909,-19.513
14:34:56:664,9.691,-0.018,-0.008,0.024,9.057,27.923,-19.476
14:34:56:685,9.712,-0.022,-0.009,0.021,9.075,27.953,-19.421
14:34:56:711,9.738,-0.012,0.001,0.021,9.088,27.975,-19.391
14:34:56:737,9.765,-0.016,-0.003,0.026,9.101,27.979,-19.353
14:34:56:765,9.792,-0.005,0,0.02,9.102,27.877,-19.304
14:34:56:791,9.818,0.002,0.001,0.006,9.09,27.786,-19.318
14:34:56:845,9.872,-0.002,-0.005,0.013,9.085,27.716,-19.32
14:34:56:846,9.873,-0.008,-0.002,0.012,9.092,27.722,-19.317
14:34:56:868,9.896,-0.001,-0.006,0.012,9.092,27.7,-19.309
14:34:56:925,9.952,-0.007,-0.004,0.01,9.101,27.715,-19.306
14:34:56:925,9.952,-0.013,-0.004,0.015,9.115,27.742,-19.291
14:34:56:947,9.975,-0.012,-0.003,0.021,9.12,27.745,-19.261
14:34:57:003,10.03,-0.013,-0.004,0.008,9.125,27.724,-19.254
14:34:57:003,10.031,-0.012,-0.004,0.021,9.131,27.724,-19.236
14:34:57:027,10.054,-0.013,-0.005,0.012,9.138,27.674,-19.23
14:34:57:052,10.08,-0.004,-0.003,0.015,9.124,27.612,-19.244
14:34:57:079,10.106,-0.006,-0.004,0.006,9.118,27.519,-19.27
14:34:57:105,10.132,-0.002,-0.002,0.008,9.114,27.469,-19.291
14:34:57:131,10.159,-0.006,-0.003,0.007,9.105,27.353,-19.32
14:34:57:157,10.184,0.008,-0.004,0.008,9.092,27.288,-19.345
14:34:57:213,10.241,0.004,-0.003,0.002,9.077,27.22,-19.391
14:34:57:214,10.241,-0.001,-0.001,0.018,9.09,27.223,-19.437
14:34:57:236,10.263,-0.004,-0.004,0.009,9.095,27.218,-19.471
14:34:57:292,10.319,-0.004,0.001,0.011,9.103,27.207,-19.529
14:34:57:292,10.319,-0.008,-0.011,0.015,9.12,27.227,-19.569
14:34:57:315,10.342,-0.017,-0.004,0.019,9.123,27.26,-19.592
14:34:57:342,10.369,-0.015,-0.005,0.019,9.146,27.283,-19.602
14:34:57:367,10.394,-0.01,0,0.019,9.142,27.261,-19.604
14:34:57:394,10.421,-0.01,-0.003,0.009,9.136,27.218,-19.618
14:34:57:449,10.476,-0.016,0,0.01,9.134,27.12,-19.631
14:34:57:449,10.477,-0.013,0,0.011,9.143,27.072,-19.651
14:34:57:474,10.501,-0.007,-0.002,0.011,9.146,26.977,-19.681
14:34:57:531,10.558,-0.01,-0.006,0.016,9.158,26.93,-19.693
14:34:57:531,10.559,-0.011,-0.002,0.016,9.175,26.861,-19.698
14:34:57:532,10.559,-0.005,-0.001,0.011,9.175,26.785,-19.699
14:34:57:552,10.579,-0.006,-0.004,0.006,9.173,26.682,-19.707
14:34:57:58,10.607,-0.006,-0.004,0.012,9.18,26.599,-19.716
14:34:57:633,10.66,-0.007,-0.002,0.006,9.172,26.542,-19.715
14:34:57:656,10.683,-0.003,-0.006,0.006,9.182,26.392,-19.735
14:34:57:682,10.709,-0.002,-0.002,0.01,9.189,26.325,-19.736
14:34:57:709,10.736,-0.005,-0.002,0.005,9.207,26.266,-19.742
14:34:57:735,10.762,-0.004,-0.004,0.008,9.214,26.221,-19.75
14:34:57:761,10.789,-0.004,-0.001,0.001,9.22,26.143,-19.764
14:34:57:817,10.844,-0.001,-0.007,0.012,9.23,26.102,-19.768
14:34:57:817,10.844,-0.005,-0.004,0.008,9.233,26.036,-19.779
14:34:57:84,10.867,0.005,-0.004,0.013,9.224,25.945,-19.783
14:34:57:896,10.923,-0.002,-0.003,0.005,9.208,25.903,-19.793
14:34:57:896,10.924,0.003,-0.002,0.009,9.199,25.851,-19.797
14:34:57:919,10.946,0.006,-0.004,0.004,9.186,25.809,-19.798
14:34:57:974,11.001,0.001,-0.002,0.011,9.186,25.793,-19.806
14:34:57:975,11.002,-0.002,-0.002,0.01,9.194,25.799,-19.802
14:34:57:998,11.025,0.003,-0.002,0.012,9.199,25.796,-19.805
14:34:58:024,11.051,0,-0.002,0.004,9.198,25.794,-19.789
14:34:58:05,11.077,0,-0.001,0.009,9.198,25.794,-19.789
14:34:58:076,11.103,-0.001,-0.002,0.008,9.201,25.799,-19.784
14:34:58:103,11.13,0.001,-0.004,0.012,9.211,25.797,-19.788
14:34:58:128,11.156,-0.004,-0.007,0.013,9.22,25.811,-19.784
14:34:58:156,11.183,0.002,-0.004,0.016,9.233,25.81,-19.779
14:34:58:181,11.209,-0.001,-0.001,0.012,9.236,25.814,-19.774
14:34:58:207,11.234,-0.003,-0.002,0.009,9.234,25.855,-19.762
14:34:58:233,11.261,0,-0.002,0.01,9.222,25.869,-19.755
14:34:58:26,11.287,-0.002,-0.002,0.015,9.224,25.878,-19.755
14:34:58:286,11.313,-0.002,-0.004,0.011,9.234,25.888,-19.747
14:34:58:342,11.369,-0.002,-0.005,0.004,9.239,25.889,-19.748
14:34:58:342,11.369,0,-0.005,0.01,9.241,25.898,-19.748
14:34:58:366,11.393,-0.012,-0.002,0.004,9.252,25.91,-19.756
14:34:58:42,11.447,-0.013,-0.004,0.011,9.253,25.901,-19.747
14:34:58:421,11.448,-0.011,-0.004,0.007,9.241,25.872,-19.737
14:34:58:443,11.471,-0.011,0,0.013,9.243,25.846,-19.735
14:34:58:499,11.527,-0.019,-0.005,0.01,9.254,25.775,-19.723
14:34:58:5,11.527,-0.023,-0.002,0.019,9.267,25.652,-19.698
14:34:58:523,11.55,-0.028,-0.007,0.015,9.285,25.527,-19.676
14:34:58:549,11.576,-0.029,-0.004,0.013,9.275,25.269,-19.63
14:34:58:575,11.602,-0.028,0,0.013,9.257,25.052,-19.59
14:34:58:602,11.629,-0.015,-0.004,0.011,9.208,24.618,-19.532
14:34:58:627,11.655,-0.009,0.003,0.009,9.172,24.276,-19.519
14:34:58:654,11.681,-0.009,0.004,0.011,9.144,23.787,-19.51
14:34:58:709,11.736,-0.014,0.002,0.006,9.133,23.297,-19.486
14:34:58:71,11.737,-0.01,0.001,0.01,9.13,22.926,-19.458
14:34:58:732,11.759,-0.02,-0.003,0.01,9.148,22.326,-19.425
14:34:58:787,11.815,-0.025,0,0.01,9.168,21.893,-19.406
14:34:58:788,11.816,-0.035,0.003,0.008,9.192,21.174,-19.378
14:34:58:838,11.866,-0.036,-0.006,0.008,9.202,20.353,-19.296
14:34:58:868,11.895,-0.032,-0.004,0.002,9.194,19.715,-19.254
14:34:58:868,11.895,-0.022,-0.003,0.011,9.177,18.676,-19.181
14:34:58:919,11.946,-0.011,-0.01,0.005,9.159,17.909,-19.155
14:34:58:92,11.947,-0.004,-0.004,0.015,9.109,16.667,-19.106
14:34:58:943,11.97,0.014,-0.008,0.014,9.051,15.304,-19.071
14:34:58:998,12.025,0.02,-0.007,0.005,9.016,14.246,-19.044
14:34:58:998,12.025,0.033,-0.004,-0.003,8.956,12.786,-18.998
14:34:59:08,12.107,0.042,-0.01,-0.011,8.933,11.875,-18.982
14:34:59:08,12.107,0.038,-0.006,-0.001,8.924,10.722,-18.964
14:34:59:081,12.108,0.031,-0.009,-0.003,8.921,9.616,-18.948
14:34:59:128,12.155,0.035,-0.005,0.004,8.907,8.909,-18.95
14:34:59:155,12.183,0.047,0.001,-0.004,8.866,7.789,-18.995
14:34:59:156,12.183,0.05,0,0.009,8.848,7.08,-19.07
14:34:59:209,12.236,0.041,-0.003,-0.004,8.867,6.177,-19.189
14:34:59:209,12.236,0.03,-0.002,0.006,8.893,5.379,-19.285
14:34:59:231,12.258,0.033,-0.006,0.009,8.899,4.857,-19.339
14:34:59:287,12.314,0.037,-0.004,0.018,8.916,4.104,-19.442
14:34:59:287,12.314,0.017,-0.006,0.01,8.945,3.668,-19.496
14:34:59:31,12.338,0.011,-0.002,0.015,8.983,3.091,-19.571
14:34:59:366,12.393,0.023,0.003,0.007,8.998,2.416,-19.638
14:34:59:366,12.393,0.022,-0.004,0.016,9.022,1.932,-19.683
14:34:59:388,12.416,0.022,-0.001,0.011,9.048,1.298,-19.746
14:34:59:444,12.471,0.02,0.009,0.016,9.054,0.866,-19.806
14:34:59:445,12.472,0.034,0.004,0.016,9.083,0.245,-19.906
14:34:59:468,12.495,0.024,0,0.015,9.146,-0.276,-20.021
14:34:59:494,12.521,0.024,0.006,0.004,9.18,-0.549,-20.083
14:34:59:52,12.547,0.016,-0.011,0.012,9.258,-0.821,-20.168
14:34:59:575,12.603,0.018,-0.005,0.002,9.306,-0.964,-20.215
14:34:59:576,12.603,0.003,-0.012,0.001,9.376,-1.071,-20.276
14:34:59:6,12.628,0.001,-0.012,0.012,9.421,-1.032,-20.285
14:34:59:626,12.653,0.001,-0.003,0.007,9.421,-0.846,-20.273
14:34:59:651,12.679,-0.012,-0.004,0.013,9.428,-0.708,-20.221
14:34:59:678,12.705,0.001,-0.003,0.012,9.431,-0.67,-20.175
14:34:59:703,12.731,0.014,0,0.016,9.414,-0.691,-20.109
14:34:59:73,12.757,0.018,0,0.004,9.404,-0.734,-20.058
14:34:59:756,12.783,0.021,0.006,0.009,9.388,-0.651,-20.02
14:34:59:815,12.842,0.031,0.002,0.01,9.386,-0.442,-19.984
14:34:59:815,12.842,0.026,-0.007,0.011,9.393,-0.203,-19.943
14:34:59:816,12.843,0.017,-0.003,0,9.437,0.289,-19.894
14:34:59:895,12.922,0.009,-0.007,0.015,9.501,0.871,-19.814
14:34:59:895,12.923,-0.001,-0.009,-0.007,9.562,1.313,-19.768
14:34:59:895,12.923,-0.015,-0.008,0.002,9.659,2.035,-19.71
14:34:59:972,12.999,-0.02,-0.005,0.002,9.716,2.524,-19.671
14:34:59:973,13,-0.021,-0.008,0.009,9.799,3.238,-19.612
14:34:59:973,13.001,-0.026,-0.007,0.003,9.86,3.838,-19.544
14:35:00:051,13.078,-0.028,-0.006,0.004,9.887,4.174,-19.497
14:35:00:051,13.078,-0.02,-0.005,-0.002,9.891,4.589,-19.452
14:35:00:052,13.079,-0.018,-0.006,0.006,9.883,4.858,-19.439
14:35:00:1,13.127,-0.023,-0.003,-0.001,9.855,5.184,-19.414
14:35:00:101,13.128,-0.019,-0.005,0.005,9.814,5.492,-19.38
14:35:00:124,13.151,-0.016,-0.002,0.004,9.783,5.669,-19.353
14:35:00:176,13.204,-0.015,0,0.009,9.736,5.963,-19.313
14:35:00:206,13.233,-0.013,-0.003,0.004,9.702,6.134,-19.28
14:35:00:206,13.233,-0.01,-0.004,0.005,9.657,6.369,-19.258
14:35:00:287,13.314,-0.013,0.001,0.003,9.624,6.521,-19.252
14:35:00:288,13.315,-0.016,-0.001,0.003,9.59,6.75,-19.232
14:35:00:336,13.363,-0.013,-0.004,0.007,9.533,7.08,-19.153
14:35:00:337,13.364,-0.015,-0.001,0.004,9.497,7.24,-19.11
14:35:00:36,13.387,-0.012,0,-0.003,9.482,7.317,-19.088
14:35:00:416,13.443,-0.012,-0.004,0.004,9.456,7.404,-19.064
14:35:00:416,13.443,-0.008,0.002,-0.001,9.425,7.469,-19.047
14:35:00:439,13.467,-0.001,0.001,0.004,9.404,7.487,-19.043
14:35:00:494,13.521,-0.004,-0.003,-0.003,9.378,7.609,-19.03
14:35:00:495,13.522,-0.002,0,0,9.366,7.666,-19.02
14:35:00:576,13.603,-0.005,-0.002,-0.004,9.363,7.721,-19.014
14:35:00:576,13.604,0.005,-0.001,-0.007,9.371,7.747,-19.009
14:35:00:577,13.605,-0.002,0.003,-0.01,9.38,7.787,-19.001
14:35:00:625,13.652,-0.015,0.008,-0.008,9.372,7.784,-18.992
14:35:00:626,13.653,-0.002,-0.002,-0.018,9.351,7.685,-18.986
14:35:00:649,13.676,0.013,-0.004,-0.009,9.286,7.461,-18.982
14:35:00:675,13.702,0.011,0.002,-0.021,9.232,7.342,-19.005
14:35:00:701,13.729,-0.001,0.008,-0.024,9.204,7.314,-18.994
14:35:00:728,13.755,-0.001,0.012,-0.028,9.159,7.285,-18.968
14:35:00:783,13.81,-0.001,-0.006,-0.022,9.163,7.278,-18.938
14:35:00:783,13.81,-0.022,-0.003,-0.036,9.129,7.252,-18.883
14:35:00:807,13.834,-0.013,-0.011,-0.026,9.037,7.079,-18.809
14:35:00:862,13.889,-0.011,-0.014,-0.029,8.952,6.905,-18.756
14:35:00:862,13.889,-0.002,-0.031,-0.02,8.829,6.572,-18.691
14:35:00:885,13.912,0.006,-0.019,-0.007,8.753,6.379,-18.64
14:35:00:94,13.967,0.006,-0.009,0,8.67,6.185,-18.527
14:35:00:941,13.968,0.021,0.009,0.007,8.621,6.062,-18.354
14:35:01:022,14.049,0.019,0.009,0.001,8.626,5.968,-18.252
14:35:01:023,14.05,0.02,0.004,-0.002,8.651,5.803,-18.146
14:35:01:024,14.051,0.017,-0.02,-0.011,8.676,5.633,-18.133
14:35:01:177,14.204,0.012,-0.024,-0.014,8.681,5.382,-18.177
14:35:01:178,14.205,0.009,-0.011,-0.025,8.68,5.235,-18.212
14:35:01:305,14.333,0.001,-0.016,-0.017,8.686,5.051,-18.247
14:35:01:34,14.367,0.004,-0.053,-0.027,8.681,4.846,-18.277
14:35:01:341,14.368,0.003,-0.039,-0.014,8.682,4.711,-18.301
14:35:01:342,14.369,-0.011,0.028,0.006,8.655,4.532,-18.298
14:35:01:343,14.37,0.011,0.061,0.027,8.621,4.374,-18.293
14:35:01:395,14.422,0.017,0.06,0.037,8.578,4.221,-18.31
14:35:01:396,14.423,0.003,0.035,0.079,8.591,4.349,-18.377
14:35:01:396,14.424,-0.027,0.01,0.099,8.631,4.648,-18.454
14:35:01:397,14.425,-0.044,-0.013,0.144,8.711,5.22,-18.582
14:35:01:419,14.446,-0.03,-0.027,0.147,8.771,5.546,-18.677
14:35:01:419,14.446,-0.024,-0.028,0.14,8.863,5.865,-18.778
14:35:01:42,14.447,-0.035,-0.022,0.099,9.131,5.967,-18.678
14:35:01:421,14.448,-0.022,-0.006,0.08,9.12,5.891,-18.564
14:35:01:496,14.523,0.001,0.019,0.049,9.03,5.696,-18.254
14:35:01:496,14.523,0.046,0.042,0.025,8.972,5.648,-17.966
14:35:01:496,14.523,0.039,0.053,0.006,9,5.956,-17.486
14:35:01:708,14.735,0.017,0.043,0.036,9.139,6.508,-17.05
14:35:01:709,14.736,0.031,-0.003,0.033,9.263,6.799,-16.893
14:35:01:71,14.737,-0.008,-0.03,0.023,9.465,7.239,-16.846
14:35:01:711,14.738,0.006,-0.009,0.003,9.577,7.402,-16.929
14:35:01:726,14.753,-0.006,-0.009,0.009,9.751,7.558,-17.137
14:35:01:787,14.814,-0.008,-0.03,0.015,9.945,7.606,-17.358
14:35:01:787,14.814,-0.014,-0.038,0.02,10.083,7.551,-17.497
14:35:01:788,14.815,0.003,-0.045,0.021,10.268,7.35,-17.687
14:35:01:789,14.816,0.025,-0.036,-0.004,10.35,7.191,-17.829
14:35:01:866,14.893,0.017,-0.026,-0.007,10.413,7.232,-17.965
14:35:01:866,14.893,-0.007,-0.006,-0.021,10.514,7.662,-17.992
14:35:01:945,14.972,-0.033,0.008,0.021,10.765,9.138,-17.846
14:35:01:945,14.972,-0.042,-0.009,0.025,10.939,9.553,-17.712
14:35:01:948,14.975,-0.024,-0.016,0.01,11.115,9.312,-17.666
14:35:01:994,15.021,0.001,-0.015,-0.001,11.103,8.72,-17.832
14:35:01:994,15.021,0.005,-0.015,-0.008,11.078,8.32,-17.956
14:35:01:995,15.022,0.013,-0.014,-0.003,11.043,7.765,-18.097
14:35:02:072,15.099,0.008,-0.011,0.001,10.985,7.299,-18.188
14:35:02:073,15.1,0.01,-0.001,0.01,10.923,6.977,-18.244
14:35:02:074,15.101,0.017,0.003,0.008,10.807,6.441,-18.354
14:35:02:152,15.179,0.028,0.004,0.014,10.734,6.077,-18.429
14:35:02:152,15.179,0.044,-0.008,0.017,10.667,5.593,-18.569
14:35:02:152,15.179,0.037,-0.006,0.012,10.654,5.426,-18.688
14:35:02:23,15.257,0.017,-0.005,0.003,10.649,5.45,-18.829
14:35:02:231,15.258,0.007,-0.011,0.005,10.661,5.65,-18.89
14:35:02:232,15.259,0.007,-0.007,0.003,10.642,5.766,-18.914
14:35:02:308,15.335,0.005,-0.004,0.007,10.613,5.952,-18.926
14:35:02:309,15.336,0.005,-0.001,0.018,10.587,6.084,-18.943
14:35:02:31,15.337,0.001,0.003,0.017,10.561,6.291,-18.975
14:35:02:388,15.416,0.002,0.002,0.02,10.534,6.488,-18.997
14:35:02:388,15.416,-0.004,0.005,0.016,10.537,6.628,-19.013
14:35:02:388,15.416,-0.006,-0.009,0.011,10.557,6.831,-19.022
14:35:02:437,15.464,-0.008,-0.008,0.002,10.549,6.926,-19.033
14:35:02:438,15.465,0.012,-0.008,0.008,10.498,6.992,-19.049
14:35:02:46,15.487,0.007,-0.012,0.001,10.438,7.12,-19.059
14:35:02:515,15.542,0.005,-0.009,0.007,10.405,7.224,-19.073
14:35:02:516,15.543,0.007,-0.003,0.001,10.353,7.384,-19.122
14:35:02:597,15.624,-0.002,-0.003,0.006,10.323,7.53,-19.163
14:35:02:598,15.625,-0.013,-0.005,0.003,10.279,7.734,-19.209
14:35:02:598,15.626,-0.012,0.006,0.015,10.227,7.879,-19.244
14:35:02:677,15.704,-0.01,0.002,0.012,10.192,7.937,-19.243
14:35:02:677,15.704,-0.001,-0.001,0.012,10.148,8.001,-19.235
14:35:02:678,15.705,-0.001,0.006,0.012,10.119,8.051,-19.233
14:35:02:755,15.782,0.007,-0.005,0.018,10.096,8.124,-19.223
14:35:02:756,15.783,0.002,-0.003,0.003,10.074,8.219,-19.228
14:35:02:756,15.783,0.004,-0.002,0.016,10.064,8.283,-19.239
14:35:02:833,15.861,0.012,0.001,0.002,10.061,8.378,-19.243
14:35:02:834,15.861,0.011,0.002,0.002,10.061,8.459,-19.24
14:35:02:835,15.862,-0.003,-0.001,0.001,10.078,8.657,-19.243
14:35:02:881,15.908,-0.008,-0.006,0.001,10.103,8.804,-19.242
14:35:02:909,15.936,-0.018,-0.006,0.004,10.115,9.009,-19.246
14:35:02:91,15.937,-0.017,-0.005,0.012,10.12,9.15,-19.224
14:35:02:961,15.989,-0.02,0.003,0.007,10.114,9.21,-19.193
14:35:02:962,15.989,-0.014,-0.001,0.01,10.101,9.217,-19.163
14:35:03:043,16.07,-0.007,-0.004,0.002,10.072,9.139,-19.126
14:35:03:044,16.071,-0.004,-0.006,-0.002,10.04,9.063,-19.123
14:35:03:045,16.072,-0.002,-0.003,0.001,10,8.951,-19.114
14:35:03:123,16.15,0.003,-0.001,-0.002,9.966,8.849,-19.108
14:35:03:123,16.15,0.007,0.005,0.003,9.932,8.684,-19.107
14:35:03:123,16.15,0.001,-0.002,0.001,9.932,8.585,-19.107
14:35:03:201,16.228,0.003,-0.006,0.012,9.914,8.425,-19.103
14:35:03:201,16.228,0.008,-0.01,0,9.901,8.212,-19.145
14:35:03:202,16.229,0.01,-0.005,0.006,9.885,8.078,-19.165
14:35:03:279,16.307,0.009,-0.003,-0.001,9.867,7.87,-19.197
14:35:03:28,16.307,0.007,-0.005,0.003,9.849,7.746,-19.22
14:35:03:281,16.308,0.011,0.004,0.004,9.819,7.532,-19.246
14:35:03:358,16.385,0.019,-0.01,0.014,9.789,7.36,-19.26
14:35:03:359,16.386,0.006,-0.006,0.002,9.773,7.307,-19.277
14:35:03:36,16.387,0.011,-0.002,0.016,9.753,7.232,-19.296
14:35:03:408,16.435,0.016,0.006,0.009,9.737,7.159,-19.316
14:35:03:408,16.436,0.014,0.004,0.009,9.727,7.09,-19.34
14:35:03:432,16.46,0.008,-0.002,0.004,9.737,7.106,-19.348
14:35:03:487,16.515,0.005,-0.005,0.007,9.74,7.107,-19.356
14:35:03:488,16.515,0.013,-0.003,0.006,9.747,7.1,-19.395
14:35:03:568,16.595,0.007,-0.012,0.016,9.769,7.133,-19.418
14:35:03:569,16.596,0.003,-0.004,0.004,9.773,7.227,-19.443
14:35:03:57,16.597,0.007,-0.003,0.013,9.778,7.321,-19.469
14:35:03:647,16.674,0.003,-0.001,0.004,9.77,7.415,-19.471
14:35:03:648,16.675,-0.004,-0.002,0.005,9.78,7.594,-19.473
14:35:03:648,16.675,-0.003,-0.002,0.007,9.782,7.727,-19.468
14:35:03:726,16.753,-0.006,-0.005,0.011,9.79,7.898,-19.447
14:35:03:726,16.753,0.001,-0.004,0.008,9.789,8.054,-19.419
14:35:03:727,16.754,0.003,-0.006,0.009,9.787,8.151,-19.401
14:35:03:804,16.832,-0.006,-0.01,0.009,9.77,8.339,-19.376
14:35:03:805,16.833,-0.002,-0.002,0.008,9.756,8.467,-19.352
14:35:03:806,16.833,-0.002,0.004,0.006,9.724,8.626,-19.323
14:35:03:854,16.881,0,0.002,0.005,9.724,8.777,-19.29
14:35:03:855,16.882,-0.001,0.003,0.01,9.724,8.886,-19.261
14:35:03:877,16.905,-0.006,-0.004,0.002,9.733,9.03,-19.235
14:35:03:933,16.96,-0.003,0.002,0.006,9.737,9.099,-19.22
14:35:03:934,16.961,-0.004,-0.003,0.002,9.752,9.213,-19.187
14:35:04:097,17.124,-0.013,-0.005,0.007,9.77,9.344,-19.162
14:35:04:097,17.125,-0.013,-0.01,0.006,9.802,9.421,-19.144
14:35:04:098,17.125,-0.007,-0.003,0.012,9.823,9.501,-19.091
14:35:04:099,17.126,-0.006,0.001,0.001,9.826,9.535,-19.048
14:35:04:141,17.168,-0.004,0.004,0.004,9.812,9.598,-18.973
14:35:04:177,17.204,0.003,-0.002,0.006,9.815,9.618,-18.916
14:35:04:177,17.205,0.009,0.002,0.007,9.822,9.645,-18.842
14:35:04:177,17.205,0.009,-0.005,0.009,9.841,9.689,-18.784
14:35:04:178,17.205,-0.001,0,0.014,9.853,9.765,-18.744
14:35:04:223,17.25,-0.003,0,0.006,9.878,9.86,-18.696
14:35:04:223,17.25,-0.001,-0.007,0.003,9.884,9.879,-18.669
14:35:04:248,17.275,-0.009,-0.008,0.002,9.904,9.874,-18.63
14:35:04:248,17.276,-0.004,-0.01,0.004,9.911,9.833,-18.596
14:35:04:3,17.328,-0.005,-0.007,0.002,9.901,9.804,-18.584
14:35:04:301,17.329,0,-0.004,0.006,9.869,9.725,-18.547
14:35:04:324,17.351,0.013,-0.008,0.008,9.841,9.644,-18.522
14:35:04:379,17.406,0.008,-0.009,0.006,9.813,9.561,-18.488
14:35:04:38,17.407,0.016,-0.006,0.011,9.792,9.52,-18.473
14:35:04:461,17.488,0.016,-0.008,0.004,9.785,9.489,-18.48
14:35:04:462,17.489,0.002,-0.004,0.004,9.788,9.497,-18.496
14:35:04:54,17.567,-0.004,0.001,0.004,9.785,9.41,-18.571
14:35:04:54,17.567,0.003,-0.004,0.002,9.782,9.244,-18.598
14:35:04:542,17.569,0.004,-0.009,0.01,9.791,9.14,-18.615
14:35:04:591,17.618,0,0,0.011,9.777,8.998,-18.643
14:35:04:591,17.618,0.014,0.001,0.018,9.774,8.912,-18.65
14:35:04:613,17.64,0.017,-0.001,0.005,9.779,8.845,-18.659
14:35:04:668,17.695,0.009,-0.002,0.007,9.824,8.86,-18.67
14:35:04:669,17.696,0.008,-0.007,-0.006,9.851,8.892,-18.684
14:35:04:691,17.719,0.001,-0.001,0.004,9.89,8.939,-18.726
14:35:04:746,17.774,-0.003,-0.004,0.002,9.906,8.979,-18.75
14:35:04:747,17.775,-0.009,-0.007,0.013,9.932,8.992,-18.784
14:35:04:77,17.797,-0.003,-0.003,0.012,9.939,8.947,-18.83
14:35:04:826,17.853,-0.001,-0.002,0.013,9.953,8.918,-18.854
14:35:04:826,17.854,-0.004,-0.003,0.006,9.949,8.889,-18.879
14:35:04:849,17.876,-0.004,-0.005,0.01,9.941,8.863,-18.885
14:35:04:904,17.931,0.003,-0.008,0.001,9.922,8.844,-18.906
14:35:04:905,17.932,0.003,-0.004,0.006,9.896,8.858,-18.923
14:35:04:986,18.013,0,-0.004,0.004,9.865,8.876,-18.936
14:35:04:988,18.016,0.003,-0.006,0.009,9.824,8.896,-18.961
14:35:04:988,18.016,0.003,-0.004,0.008,9.788,8.914,-18.982
14:35:05:123,18.15,-0.003,-0.005,0.013,9.742,8.976,-19.003
14:35:05:123,18.15,-0.001,-0.004,0.01,9.719,8.994,-19.016
14:35:05:123,18.15,-0.001,-0.004,0.007,9.68,9.008,-19.042
14:35:05:123,18.151,0,0.006,0.008,9.641,9.022,-19.052
14:35:05:141,18.168,-0.004,-0.013,0.003,9.626,9.05,-19.05
14:35:05:141,18.169,-0.003,-0.008,0.006,9.576,9.075,-19.058
14:35:05:193,18.221,-0.002,-0.006,0.005,9.541,9.091,-19.069
14:35:05:193,18.221,0.002,-0.002,0.012,9.507,9.106,-19.065
14:35:05:216,18.243,-0.006,-0.002,0.001,9.47,9.112,-19.067
14:35:05:272,18.299,-0.005,-0.002,0.003,9.452,9.092,-19.071
14:35:05:272,18.299,-0.009,-0.005,0.002,9.424,9.034,-19.1
14:35:05:295,18.322,-0.004,0.001,0.012,9.404,8.978,-19.131
14:35:05:35,18.377,0.007,-0.004,0.012,9.374,8.889,-19.152
14:35:05:351,18.378,-0.006,-0.003,0.015,9.36,8.863,-19.172
14:35:05:432,18.459,-0.006,-0.003,0.002,9.352,8.857,-19.175
14:35:05:432,18.46,-0.005,-0.001,0.011,9.341,8.807,-19.172
14:35:05:433,18.461,0.002,-0.001,0.005,9.327,8.753,-19.173
14:35:05:511,18.538,0.003,-0.002,0.01,9.33,8.678,-19.181
14:35:05:511,18.539,0.004,-0.004,0.01,9.332,8.602,-19.196
14:35:05:512,18.54,0.003,-0.002,0.017,9.333,8.556,-19.204
14:35:05:59,18.617,0.003,-0.006,0.009,9.339,8.489,-19.213
14:35:05:59,18.617,0.003,-0.005,0.014,9.348,8.444,-19.22
14:35:05:591,18.618,0.001,-0.003,0.005,9.359,8.387,-19.231
14:35:05:638,18.666,0.003,-0.005,0.006,9.367,8.326,-19.246
14:35:05:665,18.692,0.004,-0.003,0.006,9.377,8.275,-19.271
14:35:05:666,18.693,-0.004,-0.003,0.011,9.399,8.205,-19.306
14:35:05:718,18.745,-0.002,-0.005,0.007,9.407,8.144,-19.321
14:35:05:719,18.746,0.001,0.004,0.011,9.4,8.05,-19.333
14:35:05:741,18.769,0.007,-0.011,0.017,9.392,7.981,-19.341
14:35:05:797,18.824,-0.003,-0.007,0.006,9.39,7.967,-19.343
14:35:05:797,18.824,0.004,-0.005,0.016,9.377,7.923,-19.354
14:35:05:878,18.905,0.007,0.002,0.008,9.366,7.896,-19.358
14:35:05:879,18.906,0.008,0.001,0.005,9.366,7.87,-19.363
14:35:05:88,18.907,0.004,-0.001,-0.001,9.395,7.859,-19.364
14:35:05:957,18.984,0.005,-0.004,0.008,9.415,7.851,-19.37
14:35:05:958,18.985,-0.005,-0.002,0.006,9.43,7.87,-19.403
14:35:05:958,18.985,-0.003,-0.006,0.014,9.435,7.888,-19.398
14:35:06:036,19.063,-0.007,-0.004,0.005,9.444,7.906,-19.4
14:35:06:036,19.063,0.001,0,0.011,9.442,7.898,-19.4
14:35:06:037,19.064,0.002,0,0.002,9.419,7.835,-19.415
14:35:06:085,19.112,0.003,-0.004,0.01,9.41,7.816,-19.413
14:35:06:086,19.113,0.003,-0.004,0.009,9.41,7.816,-19.413
14:35:06:109,19.136,0.005,-0.003,0.014,9.404,7.819,-19.415
14:35:06:164,19.191,0.004,-0.004,0.01,9.403,7.827,-19.408
14:35:06:165,19.192,0.004,-0.002,0.017,9.409,7.862,-19.405
14:35:06:187,19.215,0.005,-0.003,0.008,9.393,7.908,-19.422
14:35:06:243,19.27,0.001,-0.003,0.011,9.394,7.944,-19.427
14:35:06:243,19.271,-0.003,-0.006,0.005,9.395,8.015,-19.444
14:35:06:267,19.294,-0.011,-0.011,0.008,9.387,8.052,-19.444
14:35:06:323,19.35,-0.009,-0.009,0.009,9.363,7.997,-19.452
14:35:06:323,19.35,-0.05,0.005,-0.011,9.283,7.731,-19.475
14:35:06:404,19.431,-0.048,0.031,-0.019,9.198,7.308,-19.524
14:35:06:404,19.431,0.018,-0.002,0.027,9.001,6.514,-19.549
14:35:06:405,19.433,-0.003,0.011,0.022,8.822,6.185,-19.521
14:35:06:485,19.512,-0.006,-0.009,0.034,8.581,5.845,-19.423
14:35:06:486,19.513,0.039,0.009,0.038,8.487,5.625,-19.321
14:35:06:486,19.513,0.026,0.016,0.016,8.406,5.717,-19.184
14:35:06:487,19.514,0.003,-0.009,0.015,8.405,6.132,-18.942
14:35:06:532,19.559,-0.005,-0.035,-0.002,8.434,6.435,-18.811
14:35:06:532,19.56,-0.02,-0.035,-0.017,8.473,6.646,-18.747
14:35:06:555,19.582,-0.003,-0.026,-0.016,8.443,6.529,-18.783
14:35:06:61,19.638,-0.002,0.005,-0.001,8.384,6.383,-18.808
14:35:06:611,19.639,0.004,0,0.017,8.31,6.24,-18.806
14:35:06:634,19.661,0.01,0.01,0.033,8.275,6.124,-18.799
14:35:06:689,19.716,0.008,0.016,0.033,8.273,5.879,-18.833
14:35:06:689,19.717,0.033,0.001,0.037,8.343,5.674,-18.88
14:35:06:712,19.74,0.022,-0.007,0.017,8.458,5.504,-18.997
14:35:06:768,19.795,0.008,-0.006,-0.001,8.544,5.529,-19.101
14:35:06:768,19.796,-0.009,-0.018,-0.006,8.605,5.607,-19.152
14:35:06:85,19.877,-0.015,-0.011,-0.005,8.685,5.707,-19.209
14:35:06:85,19.877,-0.03,0.011,-0.015,8.691,5.689,-19.228
14:35:06:851,19.878,-0.009,0.005,0.007,8.679,5.565,-19.219
14:35:06:929,19.956,0.005,-0.011,0.021,8.668,5.414,-19.205
14:35:06:929,19.956,0.002,-0.007,0.024,8.65,5.362,-19.192
14:35:06:93,19.957,0.014,0.007,0.019,8.65,5.295,-19.208
14:35:06:976,20.003,0.017,0.004,0.019,8.684,5.316,-19.219
14:35:07:09,20.117,0.013,-0.002,0.002,8.712,5.46,-19.194
14:35:07:091,20.118,0.007,-0.003,0.001,8.742,5.639,-19.175
14:35:07:091,20.119,0.002,-0.011,-0.001,8.779,5.758,-19.17
14:35:07:092,20.12,-0.018,-0.005,0.002,8.846,5.931,-19.18
14:35:07:138,20.165,-0.015,0.003,0.006,8.854,5.969,-19.195
14:35:07:139,20.166,-0.016,-0.004,0.008,8.853,5.973,-19.199
14:35:07:14,20.167,-0.019,-0.003,0.023,8.869,5.976,-19.162
14:35:07:159,20.186,-0.006,-0.004,0.016,8.879,5.96,-19.131
14:35:07:214,20.241,0.005,-0.004,0.01,8.902,5.906,-19.113
14:35:07:215,20.242,-0.004,-0.01,-0.006,8.929,5.899,-19.119
14:35:07:296,20.323,-0.01,-0.005,-0.005,8.962,5.886,-19.135
14:35:07:296,20.323,-0.008,-0.004,-0.009,8.976,5.824,-19.171
14:35:07:297,20.324,-0.013,0.002,0.003,8.972,5.759,-19.174
14:35:07:372,20.4,-0.005,-0.003,0.01,8.973,5.612,-19.172
14:35:07:373,20.401,-0.002,0.001,0.018,8.97,5.493,-19.151
14:35:07:456,20.484,0.011,0.002,0.015,8.989,5.33,-19.138
14:35:07:457,20.484,0.026,0.004,0.016,9.017,5.219,-19.14
14:35:07:458,20.485,0.027,-0.002,0.005,9.042,5.218,-19.16
14:35:07:504,20.531,0.007,-0.007,0.001,9.118,5.489,-19.146
14:35:07:504,20.531,0.005,-0.002,0.005,9.136,5.718,-19.122
14:35:07:526,20.554,0.001,-0.005,0.002,9.159,5.954,-19.083
14:35:07:581,20.609,-0.006,-0.006,0.011,9.167,6.108,-19.061
14:35:07:582,20.61,-0.009,-0.006,0.007,9.181,6.29,-19.044
14:35:07:605,20.632,-0.012,0,0.013,9.184,6.388,-19.028
14:35:07:663,20.69,-0.003,-0.012,0.005,9.181,6.492,-19.003
14:35:07:664,20.691,-0.001,-0.008,0.003,9.147,6.527,-18.995
14:35:07:742,20.769,0.005,-0.01,-0.002,9.128,6.533,-18.994
14:35:07:743,20.77,0.012,-0.004,0,9.068,6.568,-18.988
14:35:07:822,20.849,0.013,0.001,0.009,9.033,6.63,-18.985
14:35:07:822,20.849,0.013,0.003,0.013,9.017,6.761,-18.988
14:35:07:822,20.85,0.006,0.007,0.012,9.021,6.884,-18.997
14:35:07:899,20.926,-0.003,-0.007,0.013,9.041,7.087,-19.008
14:35:07:9,20.927,-0.006,-0.004,0.001,9.064,7.221,-19.01
14:35:07:901,20.928,-0.004,-0.004,0.004,9.081,7.38,-19.016
14:35:07:947,20.975,-0.021,-0.004,-0.003,9.105,7.475,-19.018
14:35:07:975,21.002,-0.017,-0.001,0.003,9.12,7.573,-18.993
14:35:07:976,21.003,-0.008,0.001,-0.001,9.118,7.565,-18.993
14:35:08:029,21.056,-0.028,-0.002,0.012,9.104,7.542,-19.001
14:35:08:029,21.056,-0.025,-0.005,0.008,9.109,7.471,-18.976
14:35:08:051,21.078,0,0.002,0.011,9.095,7.331,-18.981
14:35:08:107,21.134,-0.004,-0.008,0.004,9.08,7.133,-19.005
14:35:08:107,21.134,0.003,-0.004,0.008,9.071,6.954,-19.002
14:35:08:13,21.157,0.009,-0.003,-0.002,9.061,6.836,-19.006
14:35:08:271,21.298,0.004,-0.001,0.006,9.052,6.708,-19.023
14:35:08:271,21.298,0.01,-0.004,0.011,9.049,6.628,-19.012
14:35:08:272,21.299,0.005,-0.009,0.013,9.065,6.596,-19.009
14:35:08:348,21.375,-0.004,-0.006,0.017,9.094,6.536,-19.031
14:35:08:349,21.376,-0.005,-0.003,0.002,9.129,6.406,-19.051
14:35:08:35,21.377,0,0,-0.002,9.149,6.269,-19.063
14:35:08:351,21.378,-0.002,0,-0.002,9.179,6.049,-19.124
14:35:08:394,21.421,-0.002,0,0.003,9.214,5.796,-19.188
14:35:08:423,21.45,0.008,-0.001,0.015,9.218,5.624,-19.221
14:35:08:423,21.45,0.008,-0.004,0.015,9.24,5.425,-19.257
14:35:08:445,21.472,0.004,-0.004,0.017,9.261,5.362,-19.269
14:35:08:472,21.499,0.003,-0.005,0.013,9.307,5.331,-19.273
14:35:08:498,21.525,0.001,0.001,0.005,9.334,5.36,-19.254
14:35:08:553,21.58,0,-0.005,-0.004,9.35,5.395,-19.235
14:35:08:553,21.581,0.001,-0.005,0.002,9.374,5.459,-19.198
14:35:08:576,21.604,0.002,-0.008,0,9.386,5.498,-19.175
14:35:08:633,21.661,0.002,-0.006,0.007,9.394,5.529,-19.168
14:35:08:633,21.661,-0.011,-0.005,0.003,9.409,5.561,-19.161
14:35:08:713,21.74,-0.007,0.001,0.008,9.407,5.547,-19.162
14:35:08:714,21.741,-0.004,-0.005,0,9.42,5.479,-19.147
14:35:08:715,21.742,-0.012,-0.005,-0.004,9.42,5.439,-19.137
14:35:08:795,21.822,-0.015,-0.006,-0.005,9.413,5.335,-19.118
14:35:08:796,21.823,0.007,-0.019,0.006,9.364,5.15,-19.087
14:35:08:796,21.824,0.005,-0.014,-0.001,9.317,5.053,-19.07
14:35:08:872,21.899,0.025,0.003,0.01,9.23,4.881,-19.032
14:35:08:872,21.899,0.037,0.004,0.008,9.204,4.749,-19.046
14:35:08:872,21.9,0.014,-0.003,0,9.208,4.785,-19.059
14:35:08:92,21.948,0.015,-0.008,0.007,9.217,4.816,-19.082
14:35:08:921,21.948,0.018,-0.005,0.002,9.203,4.857,-19.124
14:35:08:944,21.971,0.016,-0.005,0.011,9.199,4.9,-19.16
14:35:08:97,21.997,0.002,0,0.007,9.213,5.046,-19.199
14:35:08:996,22.023,-0.001,-0.001,0.002,9.222,5.194,-19.224
14:35:09:023,22.05,-0.004,-0.003,0.006,9.231,5.288,-19.242
14:35:09:079,22.106,-0.008,-0.002,0.006,9.237,5.414,-19.268
14:35:09:079,22.106,-0.003,-0.002,0.008,9.244,5.474,-19.29
14:35:09:101,22.128,-0.005,-0.003,0.011,9.263,5.533,-19.325
14:35:09:158,22.185,-0.007,-0.003,0.004,9.28,5.584,-19.36
14:35:09:158,22.185,-0.004,-0.002,0.003,9.292,5.601,-19.376
14:35:09:32,22.348,-0.005,-0.008,0.006,9.303,5.616,-19.414
14:35:09:321,22.349,-0.009,0.007,0.001,9.304,5.615,-19.444
14:35:09:322,22.35,-0.002,-0.008,0.01,9.326,5.61,-19.468
14:35:09:323,22.35,-0.008,-0.003,0.001,9.346,5.578,-19.503
14:35:09:399,22.426,-0.003,0.002,0.007,9.357,5.544,-19.521
14:35:09:4,22.427,0.001,-0.011,0.001,9.371,5.525,-19.555
14:35:09:401,22.428,-0.009,-0.006,0.006,9.383,5.544,-19.581
14:35:09:402,22.429,-0.004,-0.005,0.002,9.394,5.514,-19.611
14:35:09:475,22.502,-0.007,0.001,0.011,9.414,5.48,-19.622
14:35:09:476,22.503,-0.009,0.001,0,9.444,5.435,-19.637
14:35:09:477,22.504,-0.011,-0.004,0.005,9.473,5.346,-19.675
14:35:09:528,22.555,-0.005,-0.002,0.006,9.49,5.25,-19.708
14:35:09:528,22.555,-0.014,0,0.006,9.505,5.105,-19.737
14:35:09:529,22.556,-0.017,-0.006,-0.002,9.509,4.994,-19.748
14:35:09:548,22.575,-0.03,0,0.003,9.506,4.749,-19.763
14:35:09:603,22.63,-0.034,-0.006,0.004,9.461,4.35,-19.739
14:35:09:603,22.631,-0.033,-0.001,0,9.395,3.967,-19.701
14:35:09:626,22.654,-0.002,-0.002,0.006,9.275,3.253,-19.661
14:35:09:684,22.711,0.027,-0.01,0.014,9.188,2.797,-19.633
14:35:09:684,22.711,0.019,-0.025,0.008,9.091,2.402,-19.553
14:35:09:765,22.792,0.033,-0.005,0.012,9.037,2.219,-19.477
14:35:09:765,22.792,0.029,-0.003,0.01,9.005,2.168,-19.426
14:35:09:765,22.792,0.039,-0.005,0.014,8.996,2.178,-19.384
14:35:09:842,22.869,0.024,0.003,-0.001,9.003,2.249,-19.387
14:35:09:843,22.87,0.005,0.012,-0.007,9.017,2.346,-19.384
14:35:09:844,22.871,0.012,-0.005,0.001,9.006,2.335,-19.42
14:35:09:862,22.89,0.014,-0.007,0.004,8.962,2.272,-19.456
14:35:09:889,22.916,0.007,-0.004,0.017,8.911,2.26,-19.491
14:35:09:915,22.943,0.017,-0.012,0.014,8.89,2.292,-19.501
14:35:09:969,22.996,0.011,-0.005,0.017,8.866,2.448,-19.499
14:35:09:996,23.024,0.024,0.001,0.002,8.86,2.712,-19.483
14:35:09:997,23.025,0.004,0.002,0.007,8.871,2.976,-19.459
14:35:10:049,23.076,0.012,-0.006,-0.005,8.869,3.324,-19.413
14:35:10:05,23.077,0.003,-0.001,0,8.857,3.538,-19.385
14:35:10:073,23.1,0.016,-0.002,0.008,8.843,3.833,-19.348
14:35:10:128,23.155,0.004,-0.004,0.018,8.866,4.224,-19.299
14:35:10:129,23.156,-0.006,-0.007,0.004,8.887,4.474,-19.267
14:35:10:152,23.179,0.001,0.005,0.009,8.906,4.804,-19.255
14:35:10:208,23.235,-0.008,-0.003,0.005,8.922,5.039,-19.247
14:35:10:208,23.235,-0.013,-0.005,0.006,8.969,5.421,-19.231
14:35:10:289,23.316,-0.012,-0.004,-0.002,9.007,5.748,-19.207
14:35:10:289,23.316,-0.015,-0.001,0.006,9.027,5.944,-19.197
14:35:10:29,23.317,-0.018,-0.006,0.003,9.05,6.213,-19.175
14:35:10:367,23.394,-0.018,-0.005,0.007,9.072,6.365,-19.15
14:35:10:367,23.395,-0.017,-0.002,0.002,9.094,6.56,-19.123
14:35:10:368,23.396,-0.017,-0.002,0.006,9.124,6.648,-19.103
14:35:10:416,23.444,-0.014,-0.002,0.002,9.141,6.705,-19.074
14:35:10:417,23.445,-0.013,-0.004,-0.002,9.154,6.71,-19.064
14:35:10:441,23.468,-0.013,-0.003,0.005,9.163,6.694,-19.054
14:35:10:497,23.524,-0.009,-0.003,0.001,9.178,6.605,-19.056
14:35:10:497,23.524,-0.016,-0.008,0.005,9.193,6.514,-19.063
14:35:10:519,23.546,-0.009,-0.007,0.009,9.19,6.427,-19.059
14:35:10:574,23.601,-0.006,-0.007,0.002,9.173,6.304,-19.059
14:35:10:575,23.602,-0.005,-0.002,-0.001,9.156,6.244,-19.054
14:35:10:597,23.625,0.004,-0.001,0.006,9.142,6.138,-19.024
14:35:10:653,23.68,0.009,0,-0.006,9.144,6.061,-18.993
14:35:10:654,23.681,0.004,-0.001,-0.001,9.139,5.971,-18.972
14:35:10:676,23.704,0.002,-0.006,-0.003,9.147,5.916,-18.969
14:35:10:733,23.76,0.001,-0.004,0.009,9.145,5.882,-18.974
14:35:10:733,23.76,-0.003,-0.007,0.005,9.131,5.837,-18.945
14:35:10:815,23.842,0.003,-0.003,0.013,9.117,5.774,-18.913
14:35:10:815,23.842,0.001,-0.001,0.004,9.108,5.744,-18.891
14:35:10:817,23.844,0.005,0.001,0.008,9.097,5.71,-18.85
14:35:10:863,23.89,0.007,-0.008,0.007,9.088,5.68,-18.828
14:35:10:863,23.891,0.011,-0.008,0.012,9.079,5.637,-18.801
14:35:10:886,23.913,0.013,-0.005,0.009,9.073,5.601,-18.803
14:35:10:942,23.969,0.012,-0.003,0.014,9.078,5.59,-18.815
14:35:10:942,23.969,0.01,-0.001,0.006,9.088,5.592,-18.808
14:35:10:966,23.993,0.014,-0.003,0.013,9.107,5.604,-18.811
14:35:11:022,24.049,0.015,-0.005,0.009,9.123,5.646,-18.814
14:35:11:022,24.049,0.005,-0.007,0.016,9.126,5.719,-18.803
14:35:11:047,24.075,0.006,-0.005,0.005,9.132,5.839,-18.786
14:35:11:047,24.075,0.002,-0.002,0.007,9.136,5.971,-18.765
14:35:11:099,24.126,-0.007,-0.006,0.001,9.151,6.071,-18.751
14:35:11:099,24.127,0.001,0.004,0.009,9.159,6.174,-18.739
14:35:11:123,24.15,0.002,-0.009,0.009,9.157,6.25,-18.724
14:35:11:178,24.206,-0.002,-0.01,0.015,9.16,6.379,-18.715
14:35:11:181,24.209,-0.007,-0.006,0.012,9.171,6.487,-18.731
14:35:11:26,24.287,-0.001,0,0.007,9.178,6.53,-18.728
14:35:11:26,24.287,-0.004,-0.001,0.005,9.204,6.599,-18.719
14:35:11:261,24.288,-0.009,-0.002,0.001,9.215,6.649,-18.723
14:35:11:338,24.365,-0.004,-0.004,0.005,9.231,6.68,-18.745
14:35:11:339,24.366,-0.009,-0.003,-0.001,9.245,6.713,-18.769
14:35:11:339,24.367,-0.01,-0.004,0.012,9.251,6.737,-18.785
14:35:11:387,24.414,-0.015,-0.006,0.004,9.264,6.757,-18.789
14:35:11:414,24.441,-0.009,-0.002,0.009,9.256,6.734,-18.789
14:35:11:415,24.442,-0.007,-0.004,0,9.237,6.68,-18.798
14:35:11:466,24.494,-0.005,-0.003,0.007,9.209,6.615,-18.811
14:35:11:467,24.494,-0.007,-0.002,0.001,9.192,6.557,-18.816
14:35:11:491,24.518,0.002,-0.004,0.007,9.175,6.443,-18.832
14:35:11:547,24.575,-0.003,-0.004,0.005,9.148,6.384,-18.844
14:35:11:548,24.575,0.003,-0.002,0.008,9.133,6.284,-18.858
14:35:11:569,24.596,0.004,-0.002,0.006,9.094,6.179,-18.87
14:35:11:624,24.651,0.001,-0.004,0.011,9.084,6.139,-18.877
14:35:11:625,24.652,0.003,-0.003,0.01,9.067,6.094,-18.886
14:35:11:706,24.733,0.004,0,0.009,9.058,6.054,-18.893
14:35:11:707,24.734,0.002,-0.003,0.003,9.039,6.017,-18.895
14:35:11:707,24.734,0.002,-0.003,0.003,9.026,5.993,-18.903
14:35:11:784,24.812,0.001,0.003,0.013,9.007,5.999,-18.902
14:35:11:785,24.812,0.002,-0.008,0.015,8.978,6.01,-18.901
14:35:11:786,24.813,-0.005,-0.006,0.014,8.968,6.016,-18.899
14:35:11:862,24.89,0.004,-0.003,0.006,8.95,5.979,-18.901
14:35:11:862,24.89,0.005,0.003,0.008,8.934,5.947,-18.909
14:35:11:911,24.938,0.005,-0.002,0.007,8.929,5.929,-18.914
14:35:11:943,24.97,0.009,0,0.008,8.922,5.919,-18.912
14:35:11:944,24.971,0.001,-0.003,0.002,8.922,5.919,-18.912
14:35:11:944,24.971,0.002,-0.002,0.012,8.921,5.97,-18.902
14:35:11:994,25.021,-0.002,-0.005,0.004,8.92,6.016,-18.895
14:35:11:994,25.021,-0.004,-0.001,0.006,8.93,6.073,-18.891
14:35:12:015,25.042,-0.005,-0.006,-0.003,8.939,6.138,-18.879
14:35:12:07,25.097,-0.006,-0.004,0.009,8.932,6.191,-18.872
14:35:12:071,25.098,-0.008,-0.005,0.006,8.915,6.236,-18.865
14:35:12:094,25.122,0.001,-0.003,0.009,8.915,6.236,-18.865
14:35:12:149,25.176,-0.004,-0.003,0.001,8.909,6.238,-18.867
14:35:12:149,25.177,-0.006,-0.001,0.009,8.9,6.22,-18.865
14:35:12:231,25.258,-0.001,-0.005,0.002,8.885,6.183,-18.875
14:35:12:231,25.259,0.004,-0.006,0.009,8.874,6.135,-18.881
14:35:12:232,25.26,0.003,-0.004,0.008,8.864,6.116,-18.885
14:35:12:278,25.306,0.01,-0.003,0.011,8.848,6.066,-18.89
14:35:12:307,25.334,0.005,0.001,0.006,8.842,6.074,-18.89
14:35:12:307,25.334,0,-0.003,0.016,8.839,6.111,-18.882
14:35:12:36,25.388,0,0,0.003,8.836,6.166,-18.877
14:35:12:36,25.388,-0.004,-0.002,0.01,8.835,6.212,-18.869
14:35:12:383,25.41,0.002,-0.009,0.009,8.832,6.267,-18.864
14:35:12:438,25.465,-0.008,-0.011,0.009,8.818,6.336,-18.85
14:35:12:439,25.466,-0.009,-0.003,0.004,8.812,6.369,-18.846
14:35:12:461,25.489,0.003,-0.002,0.003,8.787,6.377,-18.848
14:35:12:547,25.574,-0.005,-0.005,0.003,8.784,6.414,-18.84
14:35:12:547,25.575,-0.008,-0.007,0.007,8.775,6.485,-18.828
14:35:12:547,25.575,-0.003,-0.004,0.007,8.767,6.488,-18.862
14:35:12:596,25.623,-0.002,-0.007,0.006,8.766,6.481,-18.886
14:35:12:596,25.624,-0.006,-0.007,0.009,8.768,6.479,-18.921
14:35:12:678,25.705,-0.005,-0.002,-0.004,8.761,6.454,-18.951
14:35:12:678,25.705,-0.012,0.004,0.001,8.754,6.409,-19.005
14:35:12:678,25.705,-0.014,-0.005,-0.002,8.762,6.352,-19.053
14:35:12:756,25.783,-0.011,-0.002,0.002,8.747,6.309,-19.08
14:35:12:757,25.784,-0.02,-0.002,0.003,8.734,6.201,-19.132
14:35:12:757,25.784,-0.019,-0.002,0.016,8.729,6.109,-19.162
14:35:12:835,25.863,-0.014,-0.003,0.006,8.722,5.923,-19.195
14:35:12:836,25.863,-0.009,0.001,0.009,8.721,5.779,-19.218
14:35:12:836,25.863,-0.002,-0.001,-0.001,8.721,5.537,-19.249
14:35:12:884,25.911,-0.006,-0.002,0.005,8.734,5.315,-19.284
14:35:12:885,25.912,0,0,0.003,8.745,5.174,-19.308
14:35:12:907,25.935,-0.003,-0.001,0.003,8.747,4.946,-19.338
14:35:12:992,26.019,-0.002,0,0.007,8.754,4.732,-19.373
14:35:12:993,26.02,-0.002,-0.002,0.01,8.757,4.583,-19.39
14:35:12:994,26.021,0.003,0.002,0.009,8.757,4.358,-19.423
14:35:13:042,26.069,0.008,0.006,0.015,8.759,4.222,-19.431
14:35:13:042,26.07,0.003,-0.013,0.009,8.77,4.072,-19.423
14:35:13:065,26.092,0.001,-0.01,0.008,8.775,3.979,-19.437
14:35:13:121,26.148,0.01,-0.002,0.004,8.79,3.856,-19.456
14:35:13:121,26.148,0.002,-0.002,0.008,8.808,3.776,-19.452
14:35:13:202,26.229,0.008,-0.002,0.005,8.824,3.699,-19.442
14:35:13:203,26.23,0.006,-0.001,0.014,8.85,3.559,-19.452
14:35:13:203,26.231,0.007,-0.002,0.01,8.867,3.469,-19.467
14:35:13:284,26.311,-0.002,-0.009,0.017,8.893,3.351,-19.492
14:35:13:284,26.312,0,-0.009,0.016,8.925,3.233,-19.51
14:35:13:285,26.313,0.009,-0.001,0.014,8.934,3.125,-19.522
14:35:13:286,26.313,0.008,-0.002,0.01,8.949,2.995,-19.544
14:35:13:33,26.358,0.005,-0.005,0.005,8.961,2.934,-19.551
14:35:13:331,26.358,0.007,-0.006,0.014,8.985,2.843,-19.587
14:35:13:408,26.436,0.008,-0.004,0.005,8.998,2.756,-19.629
14:35:13:439,26.466,0.008,0,0.016,9.002,2.703,-19.652
14:35:13:439,26.466,0.018,-0.002,0.011,9.013,2.628,-19.69
14:35:13:44,26.467,0.008,-0.004,0.019,9.04,2.604,-19.733
14:35:13:489,26.516,0.008,0,0.011,9.084,2.64,-19.783
14:35:13:489,26.516,0.008,-0.003,0.012,9.121,2.691,-19.825
14:35:13:511,26.539,0.007,-0.006,0.005,9.146,2.753,-19.841
14:35:13:567,26.594,-0.001,-0.007,0.008,9.201,2.889,-19.855
14:35:13:568,26.595,-0.004,0.001,0.003,9.219,2.992,-19.859
14:35:13:59,26.617,0.001,0.001,0.011,9.245,3.124,-19.845
14:35:13:645,26.673,-0.007,-0.008,0.011,9.271,3.295,-19.818
14:35:13:646,26.673,-0.011,-0.004,0.011,9.28,3.425,-19.811
14:35:13:728,26.755,-0.006,-0.002,0.01,9.302,3.568,-19.786
14:35:13:728,26.755,0.004,0.002,0.014,9.318,3.625,-19.774
14:35:13:729,26.756,-0.001,-0.003,-0.001,9.335,3.734,-19.76
14:35:13:806,26.833,-0.004,-0.002,0.014,9.366,3.812,-19.746
14:35:13:807,26.834,-0.001,-0.002,0.004,9.376,3.851,-19.739
14:35:13:808,26.835,0,-0.003,0.015,9.391,3.934,-19.722
14:35:13:855,26.882,-0.008,-0.004,0.01,9.397,3.995,-19.714
14:35:13:856,26.883,-0.004,-0.003,0.012,9.416,4.05,-19.715
14:35:13:88,26.907,-0.002,0,0.012,9.442,4.09,-19.724
14:35:13:934,26.961,-0.003,0,0.01,9.45,4.11,-19.736
14:35:13:957,26.985,-0.013,-0.012,-0.003,9.454,4.094,-19.811
14:35:14:013,27.04,-0.014,-0.014,-0.001,9.439,4.062,-19.848
14:35:14:014,27.041,-0.019,-0.009,0,9.429,4.03,-19.847
14:35:14:038,27.065,-0.017,-0.002,0.01,9.399,3.952,-19.815
14:35:14:093,27.12,-0.003,0,0.009,9.365,3.823,-19.772
14:35:14:093,27.12,0.005,0.003,0.015,9.33,3.745,-19.748
14:35:14:115,27.142,0.012,-0.002,0.012,9.334,3.679,-19.728
14:35:14:17,27.197,0.007,-0.006,0.01,9.337,3.665,-19.721
14:35:14:171,27.198,0.009,0,-0.004,9.342,3.665,-19.713
14:35:14:252,27.279,0.004,-0.009,0.007,9.343,3.668,-19.701
14:35:14:252,27.28,-0.001,-0.009,-0.002,9.343,3.668,-19.701
14:35:14:253,27.281,-0.008,-0.004,0.013,9.338,3.643,-19.714
14:35:14:331,27.358,-0.01,-0.002,0.012,9.344,3.591,-19.716
14:35:14:331,27.359,-0.002,-0.002,0.016,9.346,3.448,-19.732
14:35:14:332,27.36,0.011,-0.004,0.008,9.333,3.284,-19.759
14:35:14:378,27.405,0.013,0,0.014,9.342,3.214,-19.772
14:35:14:408,27.435,0.012,0.001,0.012,9.352,3.179,-19.79
14:35:14:408,27.436,0.007,-0.01,0.013,9.358,3.189,-19.792
14:35:14:46,27.487,0.009,-0.005,0.005,9.386,3.217,-19.804
14:35:14:46,27.488,0.005,-0.002,0.007,9.391,3.3,-19.803
14:35:14:483,27.51,0.002,-0.005,0.006,9.39,3.373,-19.8
14:35:14:539,27.566,-0.002,-0.001,0.009,9.397,3.475,-19.78
14:35:14:54,27.567,-0.006,-0.005,0.009,9.403,3.536,-19.772
14:35:14:562,27.589,-0.001,-0.004,0.008,9.404,3.592,-19.775
14:35:14:617,27.644,-0.004,-0.004,0.01,9.403,3.65,-19.787
14:35:14:618,27.645,-0.009,-0.006,0.006,9.421,3.689,-19.796
14:35:14:698,27.725,-0.002,-0.001,0.008,9.428,3.699,-19.798
14:35:14:699,27.726,-0.001,-0.003,0.003,9.421,3.704,-19.81
14:35:14:7,27.727,-0.01,-0.007,0.012,9.435,3.734,-19.825
14:35:14:778,27.806,-0.003,-0.002,0.003,9.431,3.712,-19.826
14:35:14:778,27.806,0.002,0.002,0.008,9.414,3.683,-19.828
14:35:14:778,27.806,-0.002,-0.009,0.003,9.417,3.671,-19.831
14:35:14:827,27.854,0.002,-0.001,0.014,9.409,3.665,-19.833
14:35:14:827,27.855,0.004,-0.012,0.007,9.404,3.644,-19.834
14:35:14:85,27.877,-0.005,-0.003,0.012,9.399,3.644,-19.842
14:35:14:906,27.933,0,-0.003,0.007,9.397,3.63,-19.844
14:35:14:907,27.934,0.001,0.001,0.01,9.379,3.585,-19.853
14:35:14:93,27.957,0.005,0,0,9.375,3.538,-19.859
14:35:14:985,28.012,0.002,-0.004,0.012,9.353,3.496,-19.864
14:35:14:986,28.013,-0.002,-0.007,0.01,9.352,3.485,-19.884
14:35:15:008,28.035,0,0,0.015,9.344,3.462,-19.883
14:35:15:063,28.09,0.005,-0.004,0.011,9.326,3.417,-19.892
14:35:15:063,28.091,0.001,0,0.007,9.319,3.407,-19.89
14:35:15:145,28.172,0.002,0,0.008,9.319,3.407,-19.89
14:35:15:145,28.173,0.002,-0.005,0.008,9.313,3.389,-19.895
14:35:15:146,28.173,0.005,-0.004,0.003,9.301,3.362,-19.898
14:35:15:223,28.25,0.005,-0.003,0.012,9.309,3.367,-19.896
14:35:15:226,28.253,0.002,-0.002,0.012,9.321,3.395,-19.893
14:35:15:226,28.253,0.003,-0.003,0.008,9.34,3.44,-19.884
14:35:15:273,28.3,0.004,0.003,0.009,9.346,3.475,-19.881
14:35:15:273,28.301,0.003,0.001,0.011,9.37,3.53,-19.875
14:35:15:356,28.383,0.001,-0.001,0.012,9.395,3.611,-19.863
14:35:15:356,28.383,0.002,-0.002,0.012,9.407,3.664,-19.855
14:35:15:375,28.402,0.001,-0.003,0,9.449,3.772,-19.832
14:35:15:433,28.46,-0.004,-0.004,0.004,9.478,3.852,-19.812
14:35:15:434,28.461,0.003,0.001,0,9.491,3.898,-19.811
14:35:15:434,28.462,0.009,-0.005,0.013,9.487,3.932,-19.785
14:35:15:454,28.481,0.005,-0.011,0.001,9.479,4.062,-19.762
14:35:15:506,28.533,-0.006,-0.006,0.01,9.485,4.174,-19.745
14:35:15:534,28.561,-0.001,-0.002,0.003,9.486,4.29,-19.708
14:35:15:591,28.618,0.011,0.002,0.007,9.509,4.346,-19.671
14:35:15:591,28.618,0.008,0.001,-0.003,9.521,4.399,-19.663
14:35:15:592,28.619,-0.006,-0.001,0.008,9.551,4.478,-19.672
14:35:15:67,28.697,-0.002,-0.005,0.009,9.568,4.497,-19.69
14:35:15:67,28.697,-0.008,-0.009,0.012,9.577,4.527,-19.712
14:35:15:671,28.698,-0.007,-0.004,0.007,9.583,4.552,-19.729
14:35:15:72,28.747,-0.006,-0.001,0.011,9.583,4.552,-19.729
14:35:15:72,28.747,-0.001,-0.003,0.008,9.593,4.566,-19.727
14:35:15:742,28.77,-0.003,-0.005,0.009,9.599,4.583,-19.722
14:35:15:796,28.823,-0.003,-0.006,0.006,9.601,4.597,-19.72
14:35:15:826,28.853,0.002,-0.003,0.007,9.601,4.597,-19.72
14:35:15:826,28.853,-0.001,-0.001,0.004,9.605,4.619,-19.719
14:35:15:876,28.904,-0.001,-0.003,0.005,9.596,4.664,-19.711
14:35:15:877,28.905,0.004,-0.002,0.012,9.605,4.67,-19.709
14:35:15:9,28.927,0.002,-0.002,0.015,9.609,4.691,-19.707
14:35:15:955,28.983,-0.001,-0.004,0.013,9.629,4.725,-19.702
14:35:15:956,28.984,0.001,-0.002,0.009,9.629,4.725,-19.702
14:35:16:037,29.064,-0.002,-0.003,0.007,9.631,4.738,-19.7
14:35:16:038,29.065,-0.01,-0.01,-0.003,9.633,4.747,-19.7
14:35:16:039,29.066,-0.005,-0.002,0.003,9.623,4.733,-19.702
14:35:16:116,29.143,0.006,-0.003,0.005,9.609,4.695,-19.695
14:35:16:116,29.144,0.004,-0.009,0.009,9.601,4.697,-19.69
14:35:16:117,29.145,-0.007,-0.004,0.003,9.579,4.736,-19.693
14:35:16:164,29.191,-0.004,-0.005,0.008,9.576,4.725,-19.704
14:35:16:191,29.219,0.002,-0.007,-0.005,9.555,4.674,-19.707
14:35:16:192,29.22,0,0.001,0.004,9.544,4.638,-19.719
14:35:16:245,29.272,-0.002,-0.003,0.001,9.52,4.576,-19.733
14:35:16:245,29.272,0.004,-0.006,0.013,9.494,4.494,-19.767
14:35:16:267,29.295,0.002,-0.003,0.008,9.472,4.441,-19.792
14:35:16:324,29.351,0.003,-0.003,0.015,9.448,4.375,-19.818
14:35:16:324,29.351,-0.001,-0.003,0.005,9.445,4.356,-19.837
14:35:16:346,29.373,0.002,-0.004,0.007,9.438,4.325,-19.844
14:35:16:403,29.43,0.003,-0.007,0.001,9.425,4.297,-19.848
14:35:16:404,29.431,0,-0.002,0.008,9.411,4.299,-19.851
14:35:16:426,29.453,-0.002,-0.002,0.007,9.39,4.299,-19.844
14:35:16:51,29.537,0,-0.003,0.01,9.378,4.264,-19.855
14:35:16:51,29.538,-0.001,-0.008,0.007,9.361,4.211,-19.871
14:35:16:511,29.538,-0.004,-0.001,0.007,9.339,4.162,-19.884
14:35:16:559,29.586,-0.001,-0.001,0.003,9.319,4.103,-19.895
14:35:16:56,29.587,0.005,-0.002,0.011,9.294,4.005,-19.904
14:35:16:641,29.668,0.008,-0.001,0.008,9.266,3.946,-19.914
14:35:16:641,29.668,0.012,0.001,0.009,9.237,3.864,-19.924
14:35:16:642,29.669,0.005,0.003,0.013,9.227,3.839,-19.945
14:35:16:69,29.718,0,-0.004,0.011,9.23,3.837,-19.959
14:35:16:691,29.719,0.002,-0.004,0.015,9.224,3.827,-19.957
14:35:16:714,29.741,0,-0.014,0.003,9.224,3.827,-19.957
14:35:16:769,29.796,-0.01,-0.009,0.012,9.209,3.877,-19.962
14:35:16:77,29.797,-0.003,-0.002,0.006,9.187,3.877,-19.955
14:35:16:793,29.82,0.005,0.002,0.015,9.172,3.836,-19.93
14:35:16:848,29.875,0.009,0.001,0,9.158,3.809,-19.904
14:35:16:849,29.876,0.006,0,0.01,9.158,3.809,-19.904
14:35:16:871,29.899,0.007,-0.005,0.005,9.174,3.792,-19.916
14:35:16:926,29.954,0.005,-0.003,0.014,9.183,3.785,-19.923
14:35:16:927,29.955,0.005,-0.01,0.009,9.193,3.779,-19.925
14:35:16:95,29.978,0,0,0.011,9.205,3.806,-19.921
14:35:17:006,30.034,-0.002,0,0.006,9.218,3.834,-19.918
14:35:17:007,30.034,-0.003,-0.003,0.012,9.228,3.848,-19.916
14:35:17:087,30.114,0.002,-0.008,0.011,9.222,3.818,-19.917
14:35:17:088,30.115,0.003,-0.004,0.014,9.217,3.79,-19.92
14:35:17:088,30.115,0.006,-0.005,0.01,9.207,3.776,-19.922
14:35:17:166,30.193,0.004,-0.007,0.012,9.207,3.776,-19.922
14:35:17:166,30.194,0.008,-0.004,0.005,9.207,3.776,-19.922
14:35:17:167,30.194,0.004,-0.002,0.011,9.207,3.776,-19.922
14:35:17:244,30.272,0.003,-0.004,0.008,9.207,3.776,-19.922
14:35:17:245,30.273,0.005,-0.002,0.012,9.207,3.776,-19.922
14:35:17:246,30.273,0.007,-0.006,0.012,9.207,3.776,-19.922
14:35:17:296,30.323,0.008,-0.001,0.009,9.214,3.786,-19.924
14:35:17:297,30.324,0.001,-0.005,0.012,9.226,3.814,-19.921
14:35:17:318,30.345,0.008,0,0.013,9.236,3.853,-19.914
14:35:17:374,30.401,-0.005,0,0.015,9.254,3.898,-19.905
14:35:17:374,30.402,0.004,-0.005,0.02,9.261,3.919,-19.888
14:35:17:397,30.424,0.002,-0.006,0.007,9.253,3.957,-19.888
14:35:17:452,30.479,0,-0.009,0.007,9.238,3.992,-19.878
14:35:17:452,30.479,0.007,-0.003,0.016,9.211,3.992,-19.879
14:35:17:536,30.563,0.016,-0.002,0.006,9.19,3.952,-19.863
14:35:17:537,30.564,0.016,0.003,0.013,9.168,3.948,-19.867
14:35:17:538,30.565,0.01,-0.004,0.009,9.159,3.99,-19.872
14:35:17:538,30.566,0.005,-0.005,0.015,9.154,4.052,-19.88
14:35:17:609,30.636,0.004,-0.011,0.004,9.159,4.149,-19.894
14:35:17:61,30.637,-0.001,-0.003,0.008,9.154,4.224,-19.878
14:35:17:636,30.663,-0.003,-0.003,0,9.152,4.279,-19.872
14:35:17:636,30.663,-0.006,-0.004,0.011,9.141,4.354,-19.864
14:35:17:686,30.714,0.001,-0.003,0.014,9.122,4.38,-19.86
14:35:17:74,30.768,0.003,0,0.016,9.093,4.392,-19.858
14:35:17:741,30.768,0.006,-0.003,0.01,9.083,4.378,-19.86
14:35:17:767,30.794,0.009,-0.002,0.014,9.083,4.36,-19.857
14:35:17:816,30.844,0.004,-0.005,0.015,9.077,4.368,-19.858
14:35:17:846,30.873,0.012,-0.003,0.007,9.059,4.348,-19.862
14:35:17:846,30.873,0,-0.002,0.01,9.048,4.38,-19.856
14:35:17:898,30.925,-0.001,-0.003,0.014,9.048,4.397,-19.859
14:35:17:899,30.926,0.003,-0.005,0.011,9.049,4.39,-19.866
14:35:17:922,30.949,0.002,-0.002,0.01,9.043,4.372,-19.872
14:35:17:976,31.004,0,0.001,0.012,9.034,4.34,-19.901
14:35:17:977,31.005,0.005,-0.005,0.012,9.009,4.285,-19.907
14:35:18:058,31.086,0.009,-0.008,0.008,8.997,4.232,-19.915
14:35:18:059,31.086,0.008,0.001,0.011,8.979,4.136,-19.934
14:35:18:06,31.087,0.009,-0.007,0.011,8.961,4.091,-19.943
14:35:18:079,31.106,0.006,-0.005,0.012,8.945,4.056,-19.962
14:35:18:134,31.161,0.004,-0.008,0.01,8.947,4.051,-19.987
14:35:18:135,31.162,0.004,-0.008,0.013,8.944,4.029,-20.018
14:35:18:159,31.186,0.001,-0.001,-0.001,8.935,4.005,-20.017
14:35:18:211,31.238,0.002,-0.002,0.005,8.935,4.005,-20.017
14:35:18:269,31.296,-0.002,-0.002,0.011,8.938,3.994,-20.021
14:35:18:269,31.296,-0.001,-0.007,0.018,8.934,3.946,-20.027
14:35:18:27,31.297,0.002,-0.003,0.011,8.932,3.836,-20.046
14:35:18:289,31.316,0.008,-0.003,0.013,8.931,3.726,-20.065
14:35:18:345,31.372,0.008,-0.001,0.002,8.933,3.671,-20.07
14:35:18:345,31.373,0.007,-0.005,0.015,8.927,3.61,-20.077
14:35:18:367,31.395,0.013,-0.003,0.01,8.912,3.569,-20.082
14:35:18:423,31.45,0.014,0.003,0.013,8.904,3.544,-20.087
14:35:18:424,31.451,0.012,0,0.011,8.904,3.544,-20.087
14:35:18:447,31.474,0.01,-0.005,0.015,8.904,3.544,-20.087
14:35:18:502,31.529,0.003,-0.007,0.018,8.906,3.546,-20.105
14:35:18:503,31.53,0.003,-0.002,0.022,8.894,3.519,-20.108
14:35:18:583,31.61,0.012,-0.004,0.01,8.887,3.484,-20.111
14:35:18:584,31.611,0.011,-0.004,0.017,8.891,3.505,-20.11
14:35:18:585,31.612,0.01,-0.003,0.014,8.897,3.523,-20.104
14:35:18:604,31.631,0.015,-0.008,0.011,8.91,3.576,-20.096
14:35:18:63,31.657,0.011,-0.009,0.015,8.908,3.656,-20.086
14:35:18:656,31.684,0.003,-0.003,0.018,8.912,3.792,-20.07
14:35:18:712,31.739,0.003,-0.011,0.013,8.916,3.883,-20.062
14:35:18:713,31.74,0.002,-0.009,0.011,8.913,3.911,-20.084
14:35:18:735,31.763,-0.003,-0.013,0.011,8.873,3.931,-20.12
14:35:18:79,31.818,-0.009,-0.02,-0.001,8.845,3.919,-20.162
14:35:18:791,31.819,-0.002,-0.007,0.012,8.751,3.878,-20.2
14:35:18:814,31.841,0.012,-0.027,0.012,8.633,3.856,-20.22
14:35:18:871,31.898,0.008,-0.009,0.018,8.566,3.883,-20.25
14:35:18:871,31.898,0.017,0.004,0.021,8.473,3.957,-20.274
14:35:18:893,31.92,0.031,0.005,0.031,8.43,4.054,-20.283
14:35:18:948,31.975,0.008,0.025,0.013,8.408,4.291,-20.28
14:35:18:949,31.976,0.015,0.041,0.01,8.371,4.455,-20.264
14:35:18:972,31.999,0.023,0.022,0.006,8.344,4.759,-20.223
14:35:19:027,32.055,0.01,0,0.011,8.365,5.152,-20.178
14:35:19:027,32.055,0.019,-0.018,0.021,8.389,5.441,-20.141
14:35:19:08,32.107,0.01,-0.023,0.012,8.463,5.915,-20.091
14:35:19:081,32.108,0.004,-0.003,0.005,8.499,6.236,-20.033
14:35:19:102,32.13,0.009,0.002,0.01,8.536,6.707,-19.934
14:35:19:158,32.186,-0.007,-0.001,0.001,8.586,7.223,-19.834
14:35:19:159,32.187,-0.01,0.002,0.01,8.611,7.492,-19.791
14:35:19:181,32.209,-0.002,-0.006,0.006,8.646,7.845,-19.739
14:35:19:237,32.264,-0.016,-0.017,0.007,8.672,8.069,-19.704
14:35:19:237,32.265,-0.022,-0.019,0.002,8.697,8.31,-19.678
14:35:19:26,32.287,-0.014,-0.01,0.008,8.684,8.441,-19.643
14:35:19:315,32.342,-0.011,-0.014,0.005,8.663,8.507,-19.62
14:35:19:316,32.343,0.001,-0.002,0.01,8.629,8.574,-19.584
14:35:19:339,32.366,0,0.005,0.01,8.618,8.611,-19.561
14:35:19:394,32.421,0.002,0.002,0.015,8.604,8.66,-19.551
14:35:19:395,32.422,-0.001,0,0.01,8.618,8.721,-19.542
14:35:19:418,32.445,-0.017,-0.002,0.012,8.635,8.766,-19.533
14:35:19:473,32.501,-0.009,0.004,0.005,8.663,8.719,-19.528
14:35:19:474,32.501,-0.016,-0.005,0,8.687,8.667,-19.528
14:35:19:554,32.581,-0.013,-0.006,0.008,8.706,8.546,-19.518
14:35:19:555,32.582,-0.005,-0.014,0.006,8.722,8.332,-19.507
14:35:19:556,32.583,-0.007,-0.008,0.016,8.724,8.183,-19.51
14:35:19:604,32.632,0.009,0.001,0.012,8.738,7.938,-19.492
14:35:19:605,32.632,0.018,0.003,0.019,8.755,7.76,-19.486
14:35:19:628,32.655,0.023,0.007,0.011,8.818,7.549,-19.489
14:35:19:683,32.71,0.025,0,0.017,8.864,7.454,-19.498
14:35:19:684,32.711,0.019,-0.004,0.01,8.947,7.338,-19.542
14:35:19:707,32.734,0.017,-0.007,0.009,9.032,7.28,-19.577
14:35:19:766,32.793,0.011,-0.016,0.005,9.07,7.267,-19.583
14:35:19:766,32.793,0.018,-0.014,0.007,9.11,7.236,-19.595
14:35:19:766,32.793,0.016,-0.009,0.002,9.124,7.259,-19.587
14:35:19:843,32.87,0.029,-0.004,0.009,9.129,6.854,-19.569
14:35:19:844,32.871,0.033,0.001,0.01,9.152,6.995,-19.563
14:35:19:845,32.872,0.033,-0.001,0.018,9.179,7.027,-19.579
14:35:19:864,32.891,0.04,-0.005,0.015,9.221,7.321,-19.596
14:35:19:917,32.944,0.031,-0.005,0.015,9.259,7.566,-19.609
14:35:20:004,33.031,0.027,-0.009,0.003,9.306,8.059,-19.634
14:35:20:004,33.031,0.021,-0.004,0.006,9.347,8.495,-19.655
14:35:20:005,33.032,0.02,0.005,0.001,9.366,8.912,-19.667
14:35:20:006,33.033,0.011,-0.002,0.003,9.397,9.421,-19.669
14:35:20:08,33.107,0.002,-0.004,0.011,9.424,9.949,-19.66
14:35:20:08,33.107,-0.002,-0.009,0.008,9.471,10.77,-19.635
14:35:20:081,33.108,-0.012,-0.009,0.011,9.513,11.611,-19.598
14:35:20:128,33.155,-0.017,-0.006,0.005,9.537,12.148,-19.565
14:35:20:155,33.183,-0.022,-0.006,0.001,9.571,12.917,-19.526
14:35:20:156,33.183,-0.025,-0.004,0.001,9.588,13.393,-19.5
14:35:20:208,33.236,-0.023,-0.011,0.002,9.604,14.022,-19.459
14:35:20:209,33.237,-0.031,-0.005,-0.007,9.596,14.391,-19.444
14:35:20:232,33.259,-0.025,0.001,-0.003,9.592,14.703,-19.441
14:35:20:287,33.315,-0.045,-0.003,-0.002,9.594,15.107,-19.414
14:35:20:288,33.315,-0.04,-0.008,0.008,9.574,15.313,-19.377
14:35:20:311,33.338,-0.038,-0.001,0.003,9.534,15.317,-19.325
14:35:20:366,33.393,-0.029,-0.006,0.02,9.493,15.052,-19.281
14:35:20:366,33.393,-0.032,-0.003,0.013,9.481,15.066,-19.235
14:35:20:389,33.416,-0.015,-0.005,0.021,9.461,14.85,-19.167
14:35:20:444,33.471,-0.003,0.001,0.006,9.43,14.734,-19.149
14:35:20:445,33.472,-0.002,0.001,0.008,9.396,14.401,-19.136
14:35:20:527,33.554,0.006,-0.001,0,9.362,14.224,-19.109
14:35:20:527,33.555,0.011,0.002,0.001,9.34,14.051,-19.093
14:35:20:527,33.555,0.011,0,0,9.313,13.902,-19.07
14:35:20:574,33.601,0.017,-0.003,0.01,9.298,13.752,-19.06
14:35:20:603,33.63,0.019,0.005,0.01,9.269,13.629,-19.049
14:35:20:603,33.63,0.029,-0.004,0.021,9.27,13.528,-19.054
14:35:20:654,33.681,0.019,-0.006,0.012,9.304,13.514,-19.067
14:35:20:655,33.682,0.008,-0.003,0.005,9.336,13.504,-19.075
14:35:20:679,33.706,-0.006,-0.003,0.002,9.352,13.554,-19.069
14:35:20:735,33.762,-0.003,-0.003,-0.003,9.364,13.478,-19.06
14:35:20:735,33.762,-0.003,-0.002,-0.004,9.358,13.471,-19.047
14:35:20:756,33.783,-0.008,-0.004,-0.002,9.352,13.46,-19.029
14:35:20:812,33.839,-0.002,-0.01,0.009,9.325,13.443,-19.007
14:35:20:813,33.84,0,-0.01,0.002,9.295,13.328,-18.988
14:35:20:836,33.863,0.011,-0.001,0.01,9.268,13.232,-18.98
14:35:20:891,33.919,0.015,0,0.008,9.245,13.141,-18.977
14:35:20:891,33.919,0.013,-0.005,0.014,9.247,13.108,-18.989
14:35:20:914,33.941,0.002,-0.005,0.01,9.263,13.097,-19.015
14:35:20:969,33.996,-0.003,-0.01,0.015,9.28,13.098,-19.029
14:35:20:97,33.997,-0.001,-0.004,-0.001,9.278,13.024,-19.062
14:35:21:053,34.08,-0.001,-0.002,-0.004,9.275,12.937,-19.091
14:35:21:053,34.08,-0.006,-0.002,-0.01,9.276,12.69,-19.143
14:35:21:053,34.08,-0.008,-0.008,0,9.274,12.475,-19.188
14:35:21:187,34.214,-0.013,-0.005,-0.001,9.278,12.379,-19.2
14:35:21:187,34.214,-0.013,-0.005,0.011,9.264,12.188,-19.202
14:35:21:188,34.215,-0.002,0.002,0.011,9.241,12.029,-19.206
14:35:21:189,34.216,0.006,0.002,0.024,9.232,11.479,-19.208
14:35:21:207,34.235,0.018,0.007,0.014,9.256,11.272,-19.226
14:35:21:207,34.235,0.014,0.003,0.016,9.283,11.164,-19.253
14:35:21:258,34.285,0.008,-0.004,0.009,9.312,11.065,-19.28
14:35:21:258,34.286,0.011,0.001,0.007,9.324,10.987,-19.293
14:35:21:283,34.31,0.008,-0.004,-0.001,9.338,10.903,-19.314
14:35:21:338,34.365,0.004,-0.008,0,9.345,10.849,-19.321
14:35:21:338,34.365,0.008,-0.008,0.006,9.337,10.802,-19.336
14:35:21:36,34.387,0.008,-0.004,0.013,9.324,10.74,-19.345
14:35:21:415,34.442,0.013,-0.006,0.012,9.314,10.705,-19.356
14:35:21:416,34.443,0.008,-0.007,0.012,9.327,10.7,-19.365
14:35:21:497,34.524,0.009,0,0.016,9.34,10.72,-19.368
14:35:21:498,34.525,0.014,0.002,0.006,9.344,10.742,-19.367
14:35:21:499,34.526,-0.003,-0.009,0.006,9.363,10.839,-19.355
14:35:21:577,34.604,-0.003,-0.005,0.001,9.364,10.898,-19.345
14:35:21:577,34.604,0.002,-0.007,0.004,9.346,10.958,-19.338
14:35:21:578,34.605,-0.007,-0.009,0.001,9.309,11.048,-19.325
14:35:21:71,34.738,-0.005,-0.003,0.011,9.286,11.137,-19.309
14:35:21:711,34.739,-0.003,-0.001,0.002,9.261,11.237,-19.29
14:35:21:712,34.739,-0.002,-0.002,0.006,9.241,11.288,-19.283
14:35:21:713,34.74,-0.002,-0.002,-0.002,9.217,11.342,-19.272
14:35:21:73,34.757,-0.002,-0.006,0.004,9.192,11.389,-19.274
14:35:21:731,34.758,-0.005,-0.006,0,9.18,11.426,-19.283
14:35:21:785,34.812,-0.005,-0.01,0.007,9.166,11.47,-19.275
14:35:21:785,34.812,-0.004,-0.006,0.002,9.151,11.479,-19.271
14:35:21:806,34.833,-0.004,-0.001,0.007,9.137,11.481,-19.274
14:35:21:862,34.889,-0.007,-0.004,0.002,9.124,11.461,-19.271
14:35:21:863,34.89,-0.003,-0.001,0.002,9.116,11.417,-19.274
14:35:21:885,34.912,-0.007,-0.004,0.002,9.084,11.343,-19.28
14:35:21:941,34.968,-0.005,-0.003,0.009,9.065,11.289,-19.29
14:35:21:941,34.969,-0.002,-0.003,0.002,9.042,11.17,-19.303
14:35:22:022,35.049,0,-0.001,0.007,9.027,11.07,-19.318
14:35:22:023,35.05,-0.002,-0.002,0.007,9,10.913,-19.34
14:35:22:023,35.051,-0.002,-0.002,0.011,8.978,10.749,-19.361
14:35:22:069,35.097,-0.006,-0.005,0.006,8.974,10.642,-19.377
14:35:22:101,35.128,0.003,-0.002,0.009,8.965,10.484,-19.387
14:35:22:101,35.128,-0.009,0,0.006,8.963,10.392,-19.379
14:35:22:102,35.129,-0.011,0.005,0.005,8.958,10.215,-19.378
14:35:22:147,35.175,-0.012,0.004,0.015,8.944,9.962,-19.362
14:35:22:177,35.204,-0.031,-0.003,0.02,8.934,9.713,-19.342
14:35:22:178,35.205,-0.082,-0.012,0.012,8.874,8.908,-19.387
14:35:22:229,35.256,-0.038,-0.017,-0.031,8.774,7.866,-19.446
14:35:22:23,35.257,-0.005,-0.015,-0.021,8.564,5.809,-19.539
14:35:22:253,35.281,0.02,-0.001,-0.018,8.326,3.802,-19.574
14:35:22:309,35.336,0.019,0.001,-0.008,8.2,2.662,-19.597
14:35:22:31,35.337,0.022,0.003,0.015,8.057,1.328,-19.597
14:35:22:331,35.359,0.022,0.013,0.033,7.986,0.683,-19.591
14:35:22:386,35.414,0.054,0.021,0.066,7.908,-0.265,-19.574
14:35:22:387,35.415,0.027,0.001,0.056,7.936,-0.873,-19.596
14:35:22:468,35.495,0.035,0.01,0.06,8.093,-1.16,-19.685
14:35:22:469,35.496,0.01,-0.009,0.139,8.426,-1.548,-19.72
14:35:22:47,35.497,0.081,-0.012,0.135,8.6,-1.808,-19.689
14:35:22:518,35.546,0.126,-0.007,0.266,8.86,-2.826,-19.597
14:35:22:519,35.547,0.075,0.076,0.211,9.248,-4.422,-19.453
14:35:22:6,35.627,0.13,0.105,0.145,9.648,-6.113,-19.34
14:35:22:6,35.627,0.21,0.166,0.114,10.362,-8.856,-19.104
14:35:22:601,35.628,0.21,0.147,0.081,10.931,-10.797,-19.119
14:35:22:622,35.649,0.323,0.139,0.021,11.574,-14.387,-19.998
14:35:22:676,35.703,0.495,0.233,0.08,11.959,-16.663,-21.319
14:35:22:676,35.703,0.418,0.266,0.042,12.959,-17.52,-24.194
14:35:22:699,35.726,0.384,0.38,-0.09,15.243,-15.385,-28.057
14:35:22:725,35.752,0.185,0.436,-0.249,18.003,-12.129,-30.834
14:35:22:751,35.779,0.14,0.466,-0.406,24.693,-5.358,-35.047
14:35:22:778,35.805,-0.122,0.401,-0.465,34.898,4.109,-38.11
14:35:22:804,35.831,-0.413,0.157,-0.374,42.536,11.64,-38.993
14:35:22:83,35.857,-0.655,-0.144,-0.123,52.543,22.15,-39.145
14:35:22:857,35.884,-0.402,-0.064,0.079,58.058,26.918,-39.788
14:35:22:882,35.91,-0.209,0.134,-0.086,65.107,28.763,-43.933
14:35:22:909,35.936,-0.319,-0.072,-0.117,69.497,28.274,-47.803
14:35:22:965,35.992,-0.282,-0.215,0.035,75.466,27.826,-52.953
14:35:22:965,35.992,-0.228,-0.093,-0.017,80.6,25.754,-59.36
14:35:23:102,36.129,-0.227,-0.142,-0.05,83.65,22.672,-65.175
14:35:23:102,36.129,-0.15,-0.159,-0.07,87.607,14.443,-77.124
14:35:23:103,36.13,-0.126,-0.219,0.012,89.904,4.609,-89.338
14:35:23:104,36.131,-0.037,-0.253,0.067,92.836,-22.369,-119.682
14:35:23:207,36.235,-0.108,-0.167,-0.076,95.145,-60.778,-161.14
14:35:23:208,36.235,-0.099,-0.202,-0.013,96.421,-83.057,174.624
14:35:23:208,36.236,0.041,-0.217,0.194,98.018,-101.467,153.524
14:35:23:209,36.237,-0.025,-0.149,0.048,98.87,-105.992,147.368
14:35:23:283,36.31,-0.081,-0.155,-0.043,99.836,-109.714,141.347
14:35:23:284,36.311,0.03,-0.122,0.098,100.531,-113.426,135.458
14:35:23:285,36.312,0.011,-0.106,0.085,100.892,-114.857,132.755
14:35:23:306,36.333,-0.068,-0.064,0.003,101.321,-115.812,129.988
14:35:23:307,36.334,-0.037,-0.042,-0.005,101.574,-116.235,128.407
14:35:23:359,36.386,-0.02,-0.053,0.043,101.949,-116.754,126.314
14:35:23:359,36.386,-0.046,-0.04,0.027,102.391,-116.412,125.288
14:35:23:68,36.707,-0.053,-0.048,0.001,102.7,-115.978,124.867
14:35:23:68,36.708,0.009,-0.025,0.08,103.094,-115.927,123.997
14:35:23:681,36.709,-0.029,-0.019,0.039,103.428,-115.472,123.781
14:35:23:733,36.76,-0.001,-0.023,0.056,104.493,-114.259,123.422
14:35:23:733,36.76,-0.007,-0.033,0.053,104.866,-113.92,123.399
14:35:23:733,36.76,-0.032,-0.033,0.008,105.398,-113.129,123.58
14:35:23:734,36.761,-0.04,-0.032,0.024,105.723,-112.945,123.603
14:35:23:758,36.786,-0.021,-0.035,0.042,106.221,-112.478,123.611
14:35:23:759,36.786,-0.024,-0.031,0.039,106.661,-112.165,123.71
14:35:23:76,36.787,-0.056,-0.014,0.021,106.902,-111.834,123.743
14:35:23:76,36.788,-0.046,-0.015,0.007,107.034,-111.687,123.537
14:35:23:785,36.812,-0.033,-0.014,0.016,107.149,-111.506,123.442
14:35:23:786,36.813,-0.027,-0.02,0.034,107.392,-111.481,123.439
14:35:23:787,36.814,-0.034,-0.026,0.026,107.569,-111.143,123.556
14:35:23:787,36.814,-0.023,-0.035,0.023,107.726,-110.908,123.716
14:35:23:803,36.83,-0.042,-0.017,0,107.82,-110.66,123.77
14:35:23:828,36.855,-0.046,-0.022,0.008,107.808,-110.684,123.567
14:35:23:884,36.911,-0.03,0.001,0.052,107.814,-110.973,123.227
14:35:23:884,36.911,-0.046,-0.019,-0.007,107.829,-110.827,123.184
14:35:23:965,36.992,-0.037,-0.022,-0.009,107.789,-110.901,122.983
14:35:23:965,36.992,-0.019,-0.016,0.047,107.774,-110.963,122.735
14:35:23:966,36.993,-0.035,-0.02,0.043,107.802,-110.885,122.853
14:35:24:044,37.071,-0.049,-0.024,0.009,107.919,-110.422,123.32
14:35:24:044,37.071,-0.042,0.013,0.034,108.006,-110.657,123.52
14:35:24:045,37.072,-0.038,0.036,0.078,108.175,-110.531,123.772
14:35:24:122,37.149,-0.045,0.031,0.024,108.412,-110.411,124.339
14:35:24:123,37.15,-0.053,0.015,0.008,108.582,-110.169,124.727
14:35:24:123,37.151,-0.04,0.03,0.017,108.832,-110.201,125.041
14:35:24:201,37.229,-0.026,0.018,0.018,108.956,-110.26,125.154
14:35:24:202,37.229,-0.039,0.005,-0.004,109.03,-110.479,125.292
14:35:24:202,37.23,-0.051,-0.003,0.001,109.089,-110.626,125.268
14:35:24:253,37.28,-0.043,-0.003,0.012,109.119,-110.78,125.227
14:35:24:254,37.281,-0.038,-0.006,0.01,109.038,-110.927,125.113
14:35:24:255,37.282,-0.05,-0.04,-0.026,109,-111.048,125.203
14:35:24:274,37.301,-0.022,-0.009,-0.001,109.07,-110.972,125.35
14:35:24:329,37.356,-0.009,-0.003,0.035,109.139,-110.959,125.525
14:35:24:33,37.357,-0.032,-0.008,0.009,109.185,-110.683,125.854
14:35:24:408,37.435,-0.042,-0.008,-0.016,109.241,-110.351,126.286
14:35:24:409,37.436,-0.039,0.01,0.003,109.278,-110.32,126.373
14:35:24:492,37.52,-0.024,0.02,0.029,109.359,-110.332,126.493
14:35:24:493,37.52,-0.036,0.014,0.005,109.463,-110.207,126.819
14:35:24:494,37.521,-0.04,0.005,-0.007,109.491,-110.112,126.95
14:35:24:568,37.596,-0.024,0.003,0.017,109.612,-110.243,126.962
14:35:24:569,37.596,-0.037,-0.003,-0.017,109.685,-110.237,127.121
14:35:24:57,37.597,-0.026,0.01,0.011,109.686,-110.307,127.025
14:35:24:647,37.674,-0.027,0.017,0.022,109.68,-110.436,126.895
14:35:24:648,37.675,-0.029,-0.006,0.003,109.69,-110.36,126.913
14:35:24:649,37.676,-0.029,0.002,-0.003,109.661,-110.459,126.882
14:35:24:727,37.754,-0.031,0.003,0.007,109.613,-110.568,126.721
14:35:24:727,37.754,-0.014,0.001,0.013,109.603,-110.704,126.576
14:35:24:727,37.754,-0.013,-0.005,0.008,109.624,-110.652,126.618
14:35:24:774,37.801,-0.02,-0.01,-0.001,109.646,-110.618,126.643
14:35:24:802,37.83,-0.005,-0.028,0.01,109.652,-110.639,126.618
14:35:24:803,37.83,0.006,-0.038,0.019,109.671,-110.499,126.758
14:35:24:854,37.881,0,-0.023,0.014,109.658,-110.253,126.995
14:35:24:855,37.882,-0.019,-0.022,-0.005,109.605,-109.86,127.403
14:35:24:905,37.932,-0.018,-0.001,-0.011,109.553,-109.698,127.643
14:35:25:07,38.097,-0.004,0.021,0.006,109.529,-109.74,127.662
14:35:25:07,38.097,-0.014,0.022,-0.003,109.501,-109.701,127.773
14:35:25:071,38.098,-0.008,0.019,0.002,109.471,-109.662,127.821
14:35:25:142,38.169,-0.007,0.018,-0.005,109.42,-109.564,127.874
14:35:25:308,38.335,-0.014,0.008,-0.016,109.378,-109.326,128.034
14:35:25:308,38.336,-0.026,0.01,-0.028,109.336,-109.19,128.112
14:35:25:309,38.337,-0.013,0.012,0.003,109.247,-109.178,127.995
14:35:25:31,38.337,-0.014,0.023,0.029,109.192,-109.204,127.862
14:35:25:54,38.567,-0.027,0.01,-0.008,109.138,-108.957,127.93
14:35:25:54,38.568,-0.024,0.022,0.006,109.105,-108.844,127.892
14:35:25:541,38.569,-0.005,0.025,0.032,109.082,-108.905,127.727
14:35:25:622,38.649,-0.016,0.019,0.015,109.056,-108.83,127.627
14:35:25:622,38.65,-0.027,0.004,-0.006,109.028,-108.717,127.627
14:35:25:623,38.651,-0.02,0.012,0.001,109.01,-108.711,127.494
14:35:25:624,38.652,-0.009,0.005,0.018,108.993,-108.812,127.283
14:35:25:665,38.693,-0.016,-0.007,0.01,108.986,-108.803,127.224
14:35:25:701,38.728,-0.016,-0.009,-0.005,108.98,-108.715,127.234
14:35:25:701,38.728,-0.028,0.003,-0.016,108.961,-108.695,127.215
14:35:25:702,38.729,-0.017,0.01,0.021,108.899,-108.903,126.943
14:35:25:703,38.73,-0.024,0.011,0.01,108.876,-108.937,126.854
14:35:25:753,38.78,-0.028,0.003,-0.003,108.873,-108.893,126.859
14:35:25:754,38.781,-0.024,0.002,0.001,108.846,-108.941,126.759
14:35:25:755,38.782,-0.009,-0.018,0.021,108.851,-108.978,126.709
14:35:25:756,38.783,-0.012,-0.027,0.009,108.879,-108.77,126.895
14:35:25:832,38.859,-0.025,-0.021,-0.002,108.818,-108.607,127.022
14:35:25:833,38.86,-0.023,-0.011,0.006,108.731,-108.691,126.926
14:35:25:833,38.86,-0.005,0.008,0.025,108.598,-108.942,126.698
14:35:25:834,38.861,-0.013,0.005,0.01,108.513,-109.016,126.64
14:35:25:991,39.018,-0.02,0.019,0.002,108.373,-109.149,126.553
14:35:25:991,39.019,-0.015,0.017,0.001,108.239,-109.378,126.386
14:35:25:992,39.02,-0.007,0.029,0.009,108.163,-109.554,126.238
14:35:25:993,39.02,-0.012,0.009,-0.003,108.047,-109.721,126.091
14:35:26:07,39.097,-0.021,0.012,-0.007,107.97,-109.802,125.997
14:35:26:07,39.097,-0.009,0.01,0.01,107.861,-109.999,125.755
14:35:26:07,39.097,-0.007,0.007,-0.002,107.818,-110.048,125.677
14:35:26:071,39.098,-0.011,-0.002,-0.005,107.771,-110.013,125.628
14:35:26:122,39.15,-0.011,0.006,0.007,107.71,-110.087,125.464
14:35:26:123,39.15,-0.002,-0.005,0.012,107.68,-110.114,125.378
14:35:26:124,39.151,-0.013,0.003,-0.006,107.63,-110.037,125.349
14:35:26:124,39.152,-0.019,-0.002,-0.003,107.588,-110.014,125.311
14:35:26:148,39.175,-0.014,0.006,0.015,107.508,-110.131,125.113
14:35:26:149,39.176,-0.016,0.005,0.012,107.462,-110.15,125.03
14:35:26:15,39.177,-0.026,0.009,-0.005,107.425,-110.088,125.053
14:35:26:201,39.228,-0.021,0.014,0.02,107.331,-110.154,124.913
14:35:26:201,39.228,-0.015,-0.001,0.002,107.296,-110.151,124.907
14:35:26:201,39.228,-0.021,0.005,-0.007,107.232,-110.148,124.861
14:35:26:202,39.229,-0.018,0.011,0.015,107.16,-110.307,124.677
14:35:26:222,39.249,-0.015,0.001,0.018,107.035,-110.538,124.41
14:35:26:223,39.25,-0.023,-0.012,0.01,106.954,-110.62,124.32
14:35:26:223,39.251,-0.017,-0.024,0.011,106.823,-110.804,124.149
14:35:26:272,39.299,-0.004,-0.023,0.014,106.712,-110.975,124.039
14:35:26:273,39.3,-0.009,-0.044,0.015,106.595,-111.125,123.954
14:35:26:357,39.384,0.002,-0.023,0.016,106.325,-111.522,123.668
14:35:26:357,39.385,-0.022,-0.002,-0.002,106.071,-111.873,123.395
14:35:26:358,39.385,-0.016,-0.001,0.004,105.635,-112.599,122.815
14:35:26:359,39.386,-0.006,-0.014,0.013,105.105,-113.653,121.917
14:35:26:433,39.46,-0.014,0.002,0.005,104.681,-114.525,121.129
14:35:26:433,39.461,-0.021,0.008,-0.017,103.977,-116.076,119.691
14:35:26:567,39.594,-0.034,0.003,-0.018,103.449,-117.2,118.615
14:35:26:568,39.595,-0.013,0.017,0.044,102.51,-119.267,116.503
14:35:26:569,39.596,-0.013,0.043,0.076,101.8,-120.862,114.844
14:35:26:589,39.617,-0.011,0,0.004,99.855,-124.396,111.255
14:35:26:59,39.617,0.024,-0.002,0.04,99.266,-125.665,110.047
14:35:26:591,39.618,0.009,-0.023,0.019,98.491,-127.348,108.583
14:35:26:64,39.667,0.001,-0.062,-0.015,98.014,-128.348,107.802
14:35:26:641,39.668,0.017,-0.067,0.01,97.272,-130.067,106.474
14:35:26:663,39.69,0.024,-0.11,0.019,96.427,-132.155,104.837
14:35:26:718,39.745,0.015,-0.149,-0.008,95.712,-133.947,103.426
14:35:26:718,39.746,0.061,-0.178,0.031,94.161,-137.728,99.998
14:35:26:799,39.827,0.089,-0.245,0.091,92.781,-141.14,96.789
14:35:26:8,39.828,0.098,-0.352,0.12,90.284,-147.615,90.733
14:35:26:801,39.828,0.064,-0.475,0.13,87.331,-156.858,82.247
14:35:26:908,39.936,0.013,-0.501,0.092,85.086,-166.012,73.885
14:35:26:909,39.936,-0.07,-0.568,0.059,81.233,171.89,53.649
14:35:26:909,39.936,-0.096,-0.562,0.094,78.44,151.927,35.34
14:35:26:91,39.937,-0.194,-0.517,0.074,73.865,120.922,7.909
14:35:26:925,39.952,-0.344,-0.359,-0.052,68.83,98.094,-10.201
14:35:26:952,39.979,-0.357,-0.246,-0.074,65.205,86.359,-18.086
14:35:26:978,40.005,-0.326,0.056,-0.284,60.015,72.582,-24.732
14:35:27:004,40.031,-0.399,0.101,-0.169,56.673,67.13,-25.05
14:35:27:06,40.087,-0.566,0.037,-0.035,51.364,58.637,-25.656
14:35:27:06,40.087,-0.607,0.223,-0.222,45.075,46.161,-27.736
14:35:27:083,40.11,-0.513,0.42,-0.303,40.393,38.521,-27.404
14:35:27:109,40.136,-0.397,0.754,-0.257,32.821,28.408,-25.009
14:35:27:164,40.192,-0.313,0.859,-0.395,27.812,20.871,-23.353
14:35:27:165,40.192,0.484,0.813,-0.374,21.462,8.599,-21.087
14:35:27:188,40.215,0.732,0.434,0.144,17.738,0.33,-18.12
14:35:27:272,40.3,0.489,0.292,0.121,16.379,-1.737,-16.627
14:35:27:273,40.3,0.153,0.175,0.036,15.112,-1.327,-15.191
14:35:27:274,40.301,0.073,0.055,-0.031,14.552,0.238,-14.434
14:35:27:292,40.32,0.056,0.026,-0.077,13.924,2.9,-13.875
14:35:27:348,40.375,0.039,-0.025,-0.113,13.309,4.057,-13.729
14:35:27:348,40.376,0.083,-0.03,-0.088,12.782,3.508,-13.858
14:35:27:4,40.428,0.043,0.006,0.037,11.68,0.712,-14.095
14:35:27:401,40.428,0.119,0.015,0.071,10.83,-2.283,-14.234
14:35:27:453,40.48,0.295,0.021,0.087,9.637,-6.535,-14.314
14:35:27:454,40.481,0.245,-0.002,0.091,8.726,-9.607,-13.978
14:35:27:476,40.504,0.281,0.004,0.114,8.258,-11.24,-13.62
14:35:27:531,40.559,0.218,0.015,0.113,8.081,-12.531,-13.812
14:35:27:532,40.56,0.164,0.036,0.106,7.899,-12.706,-13.319
14:35:27:555,40.582,0.174,0.041,0.13,7.763,-12.621,-12.691
14:35:27:611,40.638,0.132,0.043,0.122,7.833,-12.034,-12.298
14:35:27:612,40.639,0.136,0.045,0.124,7.983,-11.234,-12.208
14:35:27:635,40.662,0.097,0.029,0.085,8.402,-9.195,-12.303
14:35:27:689,40.716,0.019,0.013,0.04,8.768,-7.483,-12.451
14:35:27:69,40.717,0.031,-0.004,0.017,9.37,-4.946,-12.774
14:35:27:713,40.74,0.018,0,-0.034,9.772,-3.286,-13.061
14:35:27:739,40.766,0.003,-0.003,-0.04,10.339,-0.999,-13.531
14:35:27:767,40.794,0.006,-0.02,-0.054,10.766,0.915,-14.075
14:35:27:822,40.849,0.01,-0.016,-0.055,10.86,1.593,-14.492
14:35:27:844,40.871,0.046,-0.008,-0.07,11.11,2.976,-15.596
14:35:27:899,40.926,0.03,-0.006,-0.077,11.294,3.733,-16.201
14:35:27:9,40.927,0.005,-0.009,-0.061,11.412,4.624,-16.798
14:35:27:922,40.95,-0.007,-0.008,-0.065,11.453,5.264,-17.155
14:35:28:008,41.035,-0.028,-0.006,-0.052,11.493,6.374,-17.649
14:35:28:008,41.035,-0.025,-0.008,-0.057,11.486,6.92,-17.979
14:35:28:009,41.036,-0.037,0.005,-0.057,11.422,7.778,-18.527
14:35:28:029,41.056,-0.058,-0.006,-0.043,11.311,8.616,-18.982
14:35:28:085,41.112,-0.031,0.004,-0.05,11.218,9.198,-19.365
14:35:28:087,41.114,-0.078,-0.006,-0.028,11.317,9.97,-20.016
14:35:28:106,41.134,-0.074,-0.008,-0.015,11.276,10.79,-20.258
14:35:28:162,41.189,-0.074,-0.016,-0.008,11.223,11.781,-20.566
14:35:28:162,41.19,-0.069,-0.021,0.02,11.243,12.94,-20.656
14:35:28:186,41.213,-0.09,-0.025,0.037,11.312,13.742,-20.609
14:35:28:211,41.239,-0.11,-0.019,0.041,11.397,14.866,-20.573
14:35:28:266,41.294,-0.096,-0.013,0.038,11.389,15.269,-20.595
14:35:28:267,41.295,-0.071,-0.018,0.026,11.252,15.186,-20.224
14:35:28:291,41.318,-0.039,-0.008,0,10.934,14.427,-20.181
14:35:28:346,41.374,-0.016,-0.01,-0.002,10.627,13.714,-20.155
14:35:28:346,41.374,0.03,-0.004,-0.022,10.17,12.701,-20.097
14:35:28:369,41.396,0.024,0.001,-0.035,9.947,12.294,-20.049
14:35:28:453,41.481,0.028,0.002,-0.024,9.766,12.082,-19.865
14:35:28:454,41.481,0.015,-0.006,-0.024,9.665,12.164,-19.689
14:35:28:455,41.482,0.003,-0.005,-0.008,9.622,12.326,-19.518
14:35:28:474,41.502,0.02,-0.003,-0.017,9.515,12.505,-19.295
14:35:28:529,41.557,0.018,-0.004,-0.002,9.434,12.512,-19.159
14:35:28:53,41.557,0.012,-0.001,0,9.311,12.4,-18.976
14:35:28:554,41.581,0.035,0.013,0,9.167,12.069,-18.839
14:35:28:579,41.606,0.047,0.015,-0.012,9.065,11.813,-18.772
14:35:28:605,41.632,0.05,0.002,-0.006,8.948,11.516,-18.665
14:35:28:663,41.691,0.04,0.003,-0.015,8.926,11.41,-18.714
14:35:28:664,41.691,0.039,0.009,-0.013,8.895,11.458,-18.774
14:35:28:665,41.692,0.02,0.003,-0.017,8.908,11.533,-18.802
14:35:28:713,41.74,0.025,0.002,-0.018,8.917,11.62,-18.843
14:35:28:713,41.741,0.009,-0.001,-0.017,8.949,11.741,-18.907
14:35:28:737,41.764,0.003,-0.006,-0.002,8.972,11.97,-18.92
14:35:28:793,41.82,-0.005,-0.002,0.001,9.02,12.042,-18.939
14:35:28:793,41.82,-0.008,-0.002,0.002,9.064,12.047,-18.939
14:35:28:904,41.931,-0.017,0.004,0.003,9.113,11.962,-18.939
14:35:28:904,41.931,-0.018,-0.002,0.004,9.143,11.751,-18.923
14:35:28:904,41.931,-0.011,-0.01,0.005,9.148,11.505,-18.898
14:35:28:905,41.932,-0.004,-0.007,0.001,9.116,11.072,-18.919
14:35:28:949,41.976,0.007,-0.005,0.004,9.075,10.744,-18.939
14:35:28:95,41.977,0.012,-0.004,0.005,9.027,10.325,-18.96
14:35:28:972,42,0.023,-0.001,-0.004,8.998,9.801,-18.964
14:35:29:028,42.055,0.015,-0.004,-0.008,8.99,9.503,-18.964
14:35:29:029,42.056,0.029,0.002,-0.007,8.975,9.014,-18.964
14:35:29:051,42.078,0.027,0.003,-0.011,8.975,8.731,-18.978
14:35:29:107,42.134,0.028,0,-0.003,8.987,8.249,-19.019
14:35:29:108,42.135,0.022,0.001,-0.008,9.019,7.845,-19.077
14:35:29:19,42.217,0.025,0.003,-0.001,9.058,7.548,-19.126
14:35:29:19,42.217,0.014,-0.001,-0.006,9.133,7.143,-19.187
14:35:29:19,42.217,0.01,-0.002,-0.001,9.19,6.887,-19.224
14:35:29:267,42.294,0.007,-0.002,-0.003,9.268,6.535,-19.261
14:35:29:268,42.295,0.009,-0.001,0.006,9.337,6.164,-19.297
14:35:29:268,42.296,0.014,-0.005,-0.005,9.377,5.846,-19.319
14:35:29:346,42.373,0.015,-0.009,0.004,9.435,5.413,-19.362
14:35:29:346,42.374,0.017,-0.008,0,9.457,5.093,-19.392
14:35:29:347,42.375,0.021,-0.004,0.004,9.478,4.558,-19.443
14:35:29:426,42.453,0.024,-0.001,-0.003,9.504,4.081,-19.498
14:35:29:427,42.454,0.02,-0.009,0.001,9.523,3.768,-19.526
14:35:29:427,42.454,0.022,-0.003,-0.001,9.523,3.317,-19.586
14:35:29:474,42.501,0.028,-0.005,-0.003,9.528,3.049,-19.615
14:35:29:475,42.502,0.021,-0.005,-0.002,9.515,2.699,-19.677
14:35:29:498,42.525,0.011,-0.001,0.003,9.507,2.637,-19.707
14:35:29:553,42.58,0.014,-0.004,0,9.494,2.464,-19.702
14:35:29:554,42.581,0.021,-0.001,0.011,9.444,2.444,-19.675
14:35:29:578,42.605,0.03,-0.003,0,9.418,2.354,-19.647
14:35:29:631,42.659,0.021,-0.008,0,9.402,2.446,-19.58
14:35:29:632,42.66,0.033,0.004,0.009,9.396,2.558,-19.509
14:35:29:714,42.742,0.035,0.002,0.006,9.424,2.878,-19.41
14:35:29:714,42.742,0.015,0,-0.006,9.485,3.332,-19.312
14:35:29:715,42.742,0.014,-0.001,-0.004,9.524,3.798,-19.252
14:35:29:793,42.82,0.019,-0.003,-0.009,9.581,4.285,-19.186
14:35:29:793,42.82,0.01,-0.01,-0.014,9.63,4.648,-19.15
14:35:29:794,42.821,-0.007,-0.008,-0.008,9.734,5.284,-19.069
14:35:29:842,42.87,-0.012,-0.009,-0.01,9.842,5.889,-19.001
14:35:29:843,42.871,-0.015,-0.008,-0.008,9.906,6.233,-18.965
14:35:29:866,42.893,-0.029,-0.016,-0.012,9.998,6.732,-18.913
14:35:29:922,42.949,-0.042,-0.007,-0.002,10.03,7.019,-18.875
14:35:29:922,42.949,-0.037,-0.002,-0.003,10.034,7.249,-18.797
14:35:29:944,42.971,-0.026,-0.005,0.003,10.019,7.221,-18.731
14:35:29:999,43.026,-0.027,-0.005,-0.006,10.002,7.114,-18.695
14:35:30,43.027,-0.017,-0.003,0.002,9.976,6.787,-18.669
14:35:30:022,43.05,-0.001,-0.005,-0.001,9.934,6.477,-18.677
14:35:30:078,43.106,0.006,-0.01,0.001,9.878,5.986,-18.704
14:35:30:079,43.106,0,-0.004,0,9.822,5.568,-18.734
14:35:30:102,43.129,0.001,-0.002,0.01,9.799,5.288,-18.747
14:35:30:157,43.184,0.012,-0.002,0.001,9.759,4.827,-18.754
14:35:30:157,43.184,0.014,-0.001,0.004,9.747,4.514,-18.763
14:35:30:238,43.265,0.009,-0.002,0,9.737,4.136,-18.768
14:35:30:239,43.266,0.011,0.001,0.007,9.739,3.785,-18.769
14:35:30:24,43.267,0.007,-0.003,0,9.758,3.579,-18.76
14:35:30:288,43.315,-0.001,-0.006,0.004,9.793,3.331,-18.74
14:35:30:289,43.316,0.002,-0.004,0.005,9.805,3.166,-18.72
14:35:30:312,43.34,0.008,-0.007,0.006,9.808,2.842,-18.694
14:35:30:367,43.394,0.015,-0.005,0.004,9.8,2.509,-18.674
14:35:30:367,43.394,0.013,-0.006,0.009,9.792,2.292,-18.657
14:35:30:39,43.418,0.014,-0.004,0.005,9.782,1.958,-18.643
14:35:30:473,43.5,0.02,-0.006,0.002,9.786,1.732,-18.646
14:35:30:474,43.501,0.014,-0.009,0.007,9.791,1.408,-18.65
14:35:30:527,43.555,0.015,-0.012,0.002,9.777,1.076,-18.662
14:35:30:528,43.555,0.016,-0.013,0.006,9.763,0.848,-18.672
14:35:30:529,43.556,0.024,-0.006,0.008,9.72,0.499,-18.698
14:35:30:548,43.575,0.029,0.001,0.013,9.688,0.288,-18.717
14:35:30:603,43.63,0.029,-0.011,0.002,9.651,0.053,-18.742
14:35:30:604,43.631,0.031,-0.008,0.013,9.634,-0.025,-18.763
14:35:30:688,43.715,0.032,-0.009,0.012,9.603,-0.048,-18.794
14:35:30:688,43.716,0.02,-0.006,0.013,9.57,0.122,-18.835
14:35:30:689,43.717,0.02,-0.004,0.008,9.572,0.296,-18.834
14:35:30:69,43.717,0.02,-0.004,0.01,9.574,0.547,-18.817
14:35:30:734,43.761,0.014,-0.007,0.001,9.569,0.726,-18.799
14:35:30:758,43.786,0.006,-0.005,0.004,9.573,1.036,-18.797
14:35:30:845,43.872,0.007,-0.008,-0.003,9.564,1.343,-18.799
14:35:30:846,43.873,0.008,-0.004,0.002,9.554,1.522,-18.818
14:35:30:846,43.873,0.003,-0.011,0.006,9.523,1.815,-18.838
14:35:30:847,43.874,0.001,-0.006,0.011,9.493,2.004,-18.86
14:35:30:892,43.919,0.002,0,0.003,9.448,2.278,-18.892
14:35:30:917,43.944,0.006,-0.005,0.004,9.408,2.575,-18.901
14:35:31:002,44.03,0.004,-0.002,0.002,9.381,2.801,-18.907
14:35:31:003,44.03,0.006,0.002,0.003,9.344,3.184,-18.896
14:35:31:004,44.031,0.007,-0.004,0.001,9.325,3.457,-18.888
14:35:31:005,44.032,-0.001,-0.005,0,9.315,3.939,-18.876
14:35:31:049,44.076,-0.007,-0.004,0.003,9.328,4.496,-18.854
14:35:31:05,44.077,-0.016,-0.003,0.002,9.346,4.868,-18.829
14:35:31:101,44.128,-0.009,0.002,-0.001,9.368,5.358,-18.807
14:35:31:128,44.156,-0.018,-0.006,-0.004,9.382,5.641,-18.8
14:35:31:129,44.156,-0.021,-0.002,-0.001,9.424,6.099,-18.774
14:35:31:18,44.208,-0.032,-0.006,-0.01,9.463,6.515,-18.73
14:35:31:181,44.208,-0.04,-0.001,-0.005,9.468,6.725,-18.702
14:35:31:204,44.232,-0.013,-0.007,-0.006,9.472,6.874,-18.683
14:35:31:258,44.286,-0.038,-0.007,0.004,9.481,6.988,-18.681
14:35:31:286,44.313,-0.031,-0.002,-0.002,9.459,7.015,-18.618
14:35:31:286,44.313,-0.011,-0.001,0.004,9.427,6.924,-18.599
14:35:31:367,44.394,-0.01,-0.002,-0.008,9.422,6.761,-18.573
14:35:31:368,44.395,-0.009,-0.004,-0.003,9.423,6.604,-18.561
14:35:31:368,44.396,-0.009,-0.003,-0.006,9.42,6.472,-18.582
14:35:31:388,44.415,-0.004,0,0,9.411,6.223,-18.608
14:35:31:414,44.441,-0.001,-0.012,0.002,9.396,5.964,-18.633
14:35:31:44,44.467,-0.007,-0.006,0.005,9.387,5.797,-18.657
14:35:31:467,44.494,-0.004,-0.001,0.007,9.376,5.493,-18.697
14:35:31:493,44.52,0.002,-0.001,0.005,9.371,5.269,-18.71
14:35:31:519,44.546,0.003,-0.005,-0.003,9.358,4.943,-18.72
14:35:31:574,44.602,0.009,-0.006,0.011,9.353,4.743,-18.718
14:35:31:575,44.602,0.021,-0.01,0.024,9.355,4.494,-18.728
14:35:31:599,44.626,0.044,0.023,0.018,9.391,4.385,-18.739
14:35:31:653,44.68,0.065,0.016,0.031,9.445,4.492,-18.713
14:35:31:654,44.681,0.053,0.01,0.04,9.643,5.022,-18.651
14:35:31:705,44.732,0.068,0.002,0.114,9.933,5.571,-18.668
14:35:31:706,44.733,0.076,0.026,0.109,10.43,6.609,-18.639
14:35:31:73,44.757,0.24,0.103,0.155,11.251,7.842,-18.71
14:35:31:786,44.813,0.247,0.111,0.14,11.986,8.959,-18.865
14:35:31:786,44.813,0.233,0.14,0.091,13.362,10.574,-19.399
14:35:31:808,44.835,0.34,0.201,-0.006,14.549,12.103,-19.906
14:35:31:921,44.949,0.192,0.158,0.024,17.011,15.682,-20.713
14:35:31:922,44.949,0.017,0.147,-0.01,19.987,19.865,-21.803
14:35:31:922,44.95,-0.059,0.102,0.054,22.042,21.888,-22.784
14:35:31:923,44.951,-0.006,0.116,0.027,25.031,22.855,-25.039
14:35:31:939,44.966,0.024,0.152,-0.021,27.023,22.405,-27.106
14:35:31:994,45.022,0.071,0.218,-0.088,30.25,21.224,-30.702
14:35:31:995,45.023,0.058,0.276,-0.045,34.161,20.235,-34.618
14:35:32:019,45.046,0.003,0.278,-0.074,37.251,19.784,-37.376
14:35:32:044,45.071,-0.027,0.308,-0.203,42.778,19.36,-41.72
14:35:32:1,45.127,-0.116,0.251,-0.173,47.096,19.475,-44.56
14:35:32:1,45.127,-0.188,0.216,-0.17,54.16,19.941,-48.805
14:35:32:152,45.179,-0.231,0.079,-0.259,61.659,20.642,-52.956
14:35:32:153,45.18,-0.239,-0.012,-0.159,66.62,21.38,-55.498
14:35:32:175,45.202,-0.253,-0.159,-0.083,73.458,22.107,-59.402
14:35:32:316,45.344,-0.251,-0.25,0.01,77.478,21.918,-62.381
14:35:32:317,45.345,-0.136,-0.255,0.119,82.695,18.991,-68.884
14:35:32:318,45.345,-0.103,-0.239,0.103,87.016,11.726,-79.097
14:35:32:319,45.346,-0.087,-0.227,0.07,89.501,4.657,-87.923
14:35:32:336,45.363,-0.066,-0.178,0.024,92.673,-8.11,-103.051
14:35:32:336,45.363,-0.082,-0.092,-0.084,94.495,-17.47,-113.901
14:35:32:359,45.386,-0.127,-0.12,-0.081,96.893,-33.249,-131.863
14:35:32:414,45.441,-0.01,-0.157,0.078,98.907,-50.988,-151.684
14:35:32:415,45.442,-0.048,-0.118,0.007,100.044,-61.653,-163.592
14:35:32:467,45.494,-0.065,-0.142,0.045,101.456,-74.396,-178.291
14:35:32:468,45.495,-0.017,-0.116,0.051,102.271,-80.775,174.116
14:35:32:491,45.519,-0.053,-0.084,-0.026,103.281,-87.26,165.818
14:35:32:545,45.573,-0.048,-0.1,-0.008,103.814,-90.943,160.965
14:35:32:546,45.574,-0.002,-0.093,0.045,104.476,-96.193,154.029
14:35:32:569,45.596,-0.021,-0.072,0.045,105.009,-99.753,149.015
14:35:32:622,45.649,-0.056,-0.051,0.007,105.286,-101.275,146.567
14:35:32:679,45.707,-0.023,-0.036,0.047,105.609,-103.586,143.034
14:35:32:679,45.707,-0.032,-0.022,0.039,105.803,-104.758,141.053
14:35:32:702,45.729,-0.035,-0.038,0.005,106.089,-106.25,138.6
14:35:32:788,45.815,-0.021,-0.023,0.013,106.308,-107.626,136.221
14:35:32:788,45.815,-0.03,-0.015,0.018,106.494,-108.289,134.915
14:35:32:789,45.816,0.001,-0.051,0.037,106.857,-108.96,133.474
14:35:32:79,45.817,0.017,-0.07,0.04,107.134,-109.184,132.766
14:35:32:863,45.891,-0.024,-0.048,0.008,107.493,-109.522,132.029
14:35:32:864,45.891,-0.017,-0.027,0.025,107.784,-109.763,131.213
14:35:32:865,45.892,-0.015,-0.029,0.024,107.978,-110.088,130.741
14:35:32:945,45.972,-0.024,-0.034,0.02,108.264,-110.162,130.285
14:35:32:946,45.973,-0.062,-0.011,-0.011,108.363,-110.359,129.942
14:35:32:947,45.974,-0.049,-0.016,0.022,108.648,-110.563,129.42
14:35:32:992,46.02,0.005,-0.047,0.032,109.236,-110.51,129.356
14:35:32:993,46.02,0.035,-0.016,0.102,109.517,-110.265,129.525
14:35:33:041,46.069,-0.007,0.012,0.053,109.65,-109.794,129.928
14:35:33:07,46.097,-0.075,-0.005,-0.066,109.753,-108.739,130.907
14:35:33:071,46.098,-0.044,0.008,0.015,109.813,-108.951,130.696
14:35:33:124,46.152,-0.026,0.015,0.052,109.862,-109.767,130.115
14:35:33:124,46.152,-0.051,-0.005,-0.016,109.881,-110.092,129.749
14:35:33:226,46.254,-0.054,0.01,-0.032,109.859,-110.326,129.56
14:35:33:279,46.306,-0.049,0.012,-0.007,109.839,-110.932,128.84
14:35:33:313,46.341,-0.032,0.005,0.013,109.831,-111.589,128.092
14:35:33:314,46.342,-0.052,0.012,-0.029,109.831,-111.769,127.786
14:35:33:315,46.342,-0.04,0.002,-0.003,109.77,-112.29,127.157
14:35:33:316,46.343,-0.033,0.007,0.034,109.751,-112.653,126.646
14:35:33:391,46.418,-0.029,-0.007,0.017,109.813,-112.988,126.287
14:35:33:392,46.419,-0.039,-0.011,-0.002,109.881,-112.928,126.208
14:35:33:393,46.42,-0.027,-0.019,0.028,109.94,-113.359,125.847
14:35:33:467,46.494,-0.053,-0.01,-0.001,110.183,-113.82,125.759
14:35:33:468,46.495,-0.051,-0.007,0,110.264,-114.116,125.614
14:35:33:469,46.496,-0.04,0,0.019,110.293,-114.358,125.422
14:35:33:487,46.515,-0.053,0.006,0.006,110.229,-114.817,125.178
14:35:33:515,46.542,-0.058,-0.017,-0.013,110.167,-114.962,125.014
14:35:33:54,46.567,-0.029,0.003,0.027,110.21,-115.143,124.87
14:35:33:566,46.593,-0.028,0.003,0.034,110.279,-115.15,124.854
14:35:33:593,46.62,-0.046,-0.002,0.008,110.324,-115.064,124.986
14:35:33:648,46.675,-0.024,0.002,0.025,110.326,-115.13,124.966
14:35:33:649,46.676,-0.016,0.014,0.045,110.499,-115.209,125.197
14:35:33:729,46.757,-0.028,-0.007,0.012,110.654,-115.004,125.582
14:35:33:73,46.758,-0.037,0.006,-0.005,110.886,-115.101,126.017
14:35:33:731,46.759,-0.03,0.006,0.008,111.04,-115.126,126.212
14:35:33:75,46.778,-0.029,-0.001,-0.012,111.182,-115.22,126.526
14:35:33:805,46.833,-0.038,-0.003,-0.017,111.316,-115.3,126.734
14:35:33:806,46.834,-0.028,0.007,0.004,111.363,-115.485,126.732
14:35:33:83,46.857,-0.029,0.006,-0.01,111.39,-115.604,126.806
14:35:33:914,46.942,-0.03,0,-0.004,111.383,-115.708,126.859
14:35:33:915,46.942,-0.03,0.008,0.002,111.374,-115.899,126.821
14:35:33:916,46.943,-0.016,0.009,0.009,111.378,-116.012,126.826
14:35:33:935,46.962,-0.032,0.004,-0.005,111.38,-116.008,126.892
14:35:33:989,47.017,-0.03,-0.007,-0.005,111.374,-116.071,126.977
14:35:33:99,47.017,-0.022,0.012,0.018,111.367,-116.19,126.895
14:35:34:013,47.04,-0.023,-0.005,0.012,111.409,-116.211,126.943
14:35:34:039,47.066,-0.031,-0.006,-0.011,111.434,-116.085,127.082
14:35:34:094,47.121,-0.02,-0.008,0.011,111.439,-116.128,127.042
14:35:34:095,47.122,-0.017,-0.001,0.026,111.41,-116.218,126.959
14:35:34:118,47.145,-0.025,-0.011,-0.015,111.372,-116.182,126.988
14:35:34:173,47.201,-0.032,-0.016,-0.01,111.263,-116.204,126.934
14:35:34:174,47.201,-0.027,-0.006,0.024,111.098,-116.535,126.589
14:35:34:197,47.224,-0.038,-0.007,0.011,110.99,-116.658,126.475
14:35:34:252,47.279,-0.046,-0.026,0,110.752,-116.862,126.291
14:35:34:253,47.28,-0.041,-0.02,0.013,110.55,-117.164,126.01
14:35:34:276,47.303,-0.034,-0.028,0.015,110.245,-117.609,125.634
14:35:34:331,47.358,-0.048,-0.038,0.017,109.868,-118.045,125.284
14:35:34:332,47.359,-0.052,-0.04,0.017,109.566,-118.461,124.96
14:35:34:354,47.381,-0.015,-0.016,0.02,109.086,-119.315,124.252
14:35:34:409,47.437,-0.015,-0.007,0.034,108.776,-119.925,123.77
14:35:34:41,47.437,-0.024,0.001,0.009,108.238,-120.869,123.052
14:35:34:433,47.46,-0.014,0.008,-0.007,107.841,-121.541,122.535
14:35:34:488,47.516,0,0.01,0.011,107.241,-122.717,121.646
14:35:34:489,47.517,0.012,0.027,0.003,106.689,-123.894,120.832
14:35:34:512,47.539,0.003,0.015,-0.016,106.352,-124.548,120.458
14:35:34:65,47.678,0.013,0.023,-0.01,105.909,-125.433,120.04
14:35:34:651,47.678,0.015,0.032,0.004,105.648,-125.996,119.803
14:35:34:651,47.678,0.01,0.026,-0.001,105.309,-126.678,119.609
14:35:34:704,47.731,0.015,0.017,0,105.028,-127.188,119.572
14:35:34:705,47.732,0.023,0.018,0.025,104.844,-127.518,119.508
14:35:34:705,47.732,0.022,-0.012,0.018,104.565,-127.987,119.403
14:35:34:721,47.749,0.012,-0.025,0.013,103.845,-129.062,118.915
14:35:34:775,47.802,-0.011,-0.042,0.024,103.228,-130.071,118.261
14:35:34:803,47.83,-0.004,-0.047,0.047,102.761,-130.89,117.719
14:35:34:804,47.831,-0.013,-0.006,0.009,101.956,-132.319,116.746
14:35:34:855,47.883,0.014,-0.019,0.025,101.361,-133.394,116.002
14:35:34:856,47.884,0.014,-0.03,0.016,100.461,-135.23,114.767
14:35:34:879,47.906,0.058,-0.094,0.053,99.468,-137.261,113.338
14:35:34:934,47.961,0.093,-0.175,0.106,98.72,-138.687,112.4
14:35:34:935,47.962,0.081,-0.336,0.066,97.533,-140.253,111.796
14:35:34:959,47.986,0.051,-0.445,0.021,96.604,-141.2,111.746
14:35:35:04,48.068,0.015,-0.519,0.041,94.704,-144.424,110.101
14:35:35:041,48.069,-0.017,-0.574,0.108,92.086,-152.947,103.568
14:35:35:095,48.123,-0.07,-0.621,0.124,90.039,-167.758,90.447
14:35:35:096,48.123,-0.206,-0.697,-0.035,86.589,65.362,-32.93
14:35:35:096,48.123,-0.305,-0.707,-0.115,83.938,42.9,-52.24
14:35:35:176,48.204,-0.4,-0.637,-0.257,79.088,31.405,-57.569
14:35:35:177,48.204,-0.492,-0.35,-0.194,72.747,22.609,-58.066
14:35:35:178,48.205,-0.499,-0.314,-0.18,67.413,16.821,-56.923
14:35:35:178,48.205,-0.556,0.069,-0.678,57.2,7.732,-53.682
14:35:35:222,48.249,-0.462,0.354,-0.9,49.01,1.385,-50.707
14:35:35:249,48.276,-0.526,0.849,-0.841,35.445,-8.217,-44.719
14:35:35:25,48.277,-0.156,1.407,-0.694,21.926,-19.28,-37.539
14:35:35:302,48.329,0.505,1.49,-0.105,14.695,-28.185,-32.218
14:35:35:302,48.329,0.662,0.856,0.423,9.244,-40.727,-24.612
14:35:35:325,48.352,0.526,0.489,0.508,8.407,-46.334,-20.675
14:35:35:378,48.405,0.094,0.149,0.404,8.544,-49.836,-16.615
14:35:35:404,48.431,0.09,0.132,0.272,8.581,-49.701,-15.158
14:35:35:433,48.46,0.306,0.102,0.172,8.503,-46.824,-13.964
14:35:35:434,48.461,0.27,0.075,0.032,8.472,-41.36,-13.28
14:35:35:456,48.484,0.251,0.06,-0.004,8.369,-37.436,-13.034
14:35:35:484,48.511,0.292,0.006,0.013,8.03,-33.744,-13.184
14:35:35:567,48.594,0.302,-0.116,0.046,7.684,-32.807,-13.351
14:35:35:568,48.595,0.227,-0.146,0.118,6.967,-32.444,-13.145
14:35:35:569,48.596,0.119,-0.15,0.101,6.223,-32.247,-12.467
14:35:35:755,48.782,0.189,-0.108,0.093,5.853,-32.457,-11.885
14:35:35:756,48.783,0.223,-0.069,0.066,5.562,-33.046,-10.889
14:35:35:757,48.784,0.344,-0.01,0.145,5.481,-33.616,-10.22
14:35:35:758,48.785,0.351,0.013,0.176,5.392,-34.357,-9.447
14:35:35:833,48.861,0.258,0.031,0.207,5.38,-33.91,-9.067
14:35:35:834,48.862,0.13,0.067,0.268,5.341,-32.843,-9.109
14:35:35:835,48.863,-0.03,0.105,0.315,5.675,-29.378,-9.426
14:35:35:836,48.863,-0.08,0.024,0.047,6.205,-25.996,-9.588
14:35:35:856,48.883,-0.042,0.014,-0.011,7.171,-21.78,-9.686
14:35:35:857,48.884,0.114,0.034,0.021,7.856,-19.724,-10.178
14:35:35:857,48.885,0.119,0.057,-0.005,8.241,-18.862,-10.727
14:35:35:877,48.904,0.057,-0.008,-0.056,8.774,-17.561,-11.884
14:35:35:932,48.959,0.065,-0.036,-0.08,9.084,-16.798,-12.727
14:35:35:933,48.96,0.062,-0.044,-0.088,9.464,-15.977,-14.107
14:35:36:123,49.15,0.091,-0.026,-0.068,9.665,-15.477,-15.503
14:35:36:124,49.151,0.09,-0.014,-0.052,9.747,-15.26,-16.376
14:35:36:125,49.152,0.068,-0.022,-0.057,9.855,-14.323,-17.519
14:35:36:125,49.152,0.067,-0.022,-0.056,9.811,-13.822,-18.225
14:35:36:227,49.255,0.038,-0.032,-0.064,9.69,-12.509,-19.089
14:35:36:228,49.255,0.012,0.003,-0.053,9.677,-11.485,-19.55
14:35:36:229,49.256,-0.024,-0.001,-0.031,9.894,-9.389,-19.926
14:35:36:229,49.257,-0.059,0.03,-0.007,10.251,-6.432,-20.216
14:35:36:306,49.333,-0.108,0.018,0.006,10.666,-4.257,-20.222
14:35:36:306,49.333,-0.139,0.001,-0.026,11.412,-0.801,-20.32
14:35:36:307,49.334,-0.178,-0.019,-0.025,11.996,1.216,-20.385
14:35:36:358,49.385,-0.151,-0.047,-0.015,12.267,2.054,-20.784
14:35:36:358,49.385,-0.11,-0.055,-0.018,12.181,1.755,-20.954
14:35:36:359,49.386,-0.061,-0.043,-0.034,11.905,0.725,-21.181
14:35:36:36,49.387,-0.044,-0.034,-0.018,11.675,0.018,-21.25
14:35:36:375,49.402,-0.022,-0.031,-0.011,11.279,-1.117,-21.209
14:35:36:433,49.46,-0.006,-0.025,-0.005,10.848,-2.109,-21.011
14:35:36:433,49.46,0,-0.001,-0.007,10.558,-2.768,-20.805
14:35:36:483,49.51,0.018,0.008,-0.004,10.118,-3.738,-20.45
14:35:36:484,49.511,0.031,0.023,0.011,9.854,-4.497,-20.215
14:35:36:564,49.591,0.052,0.021,0.014,9.559,-5.691,-19.947
14:35:36:564,49.591,0.061,0.017,0.017,9.366,-6.752,-19.699
14:35:36:797,49.824,0.065,0.017,0.012,9.334,-7.286,-19.718
14:35:36:883,49.911,0.067,0.011,0.001,9.337,-7.836,-19.875
14:35:36:884,49.911,0.045,0,-0.014,9.368,-7.891,-20.013
14:35:36:885,49.912,0.027,-0.016,-0.002,9.454,-7.834,-20.107
14:35:36:885,49.913,0.016,-0.017,0,9.51,-7.833,-20.141
14:35:37:584,50.611,0.016,-0.014,0.012,9.505,-7.993,-20.202
14:35:37:614,50.641,0.028,-0.011,0.016,9.468,-8.42,-20.314
14:35:37:614,50.641,0.035,-0.005,0.023,9.449,-8.744,-20.399
14:35:37:723,50.75,0.038,-0.007,0.013,9.443,-9.052,-20.541
14:35:37:724,50.751,0.024,-0.004,0.007,9.432,-9.058,-20.632
14:35:37:802,50.829,0.006,-0.003,0,9.429,-8.989,-20.769
14:35:37:803,50.83,0.004,0.002,0.001,9.417,-8.895,-20.807
14:35:37:804,50.831,0.01,0.005,0.001,9.438,-8.967,-20.814
14:35:37:804,50.831,0.02,0.002,0.004,9.493,-9.019,-20.798
14:35:37:826,50.853,0.016,-0.006,0.007,9.608,-9.157,-20.747
14:35:37:826,50.853,0.026,-0.004,0.008,9.685,-9.215,-20.712
14:35:37:827,50.854,0.024,-0.014,0.004,9.792,-9.287,-20.665
14:35:37:881,50.908,0.028,-0.013,0.007,9.834,-9.278,-20.633
14:35:37:881,50.909,0.032,-0.01,0.007,9.845,-9.23,-20.643
14:35:37:882,50.91,0.019,-0.007,0.002,9.84,-9.073,-20.654
14:35:37:883,50.91,0.023,-0.015,-0.003,9.83,-8.985,-20.664
14:35:37:908,50.935,0.022,-0.013,0,9.78,-8.816,-20.683
14:35:37:909,50.936,0.017,-0.01,-0.001,9.71,-8.609,-20.716
14:35:37:91,50.937,0.004,-0.003,-0.011,9.663,-8.472,-20.726
14:35:37:911,50.938,0.005,-0.005,-0.007,9.585,-8.364,-20.743
14:35:37:961,50.989,0.019,0.003,0.005,7.937,-6.935,-19.993
14:35:37:961,50.989,0.013,0.01,0.005,7.754,-6.877,-19.905
14:35:37:961,50.989,0.013,-0.007,0.037,7.401,-6.59,-19.835
14:35:37:962,50.989,0,-0.002,0.032,7.383,-6.429,-19.853
14:35:37:986,51.013,-0.003,0.016,0.028,7.358,-6.03,-19.839
14:35:37:987,51.014,0,0.012,0.023,7.322,-5.958,-19.812
14:35:37:987,51.014,0.015,0.005,0.017,7.242,-6.009,-19.765
14:35:37:988,51.015,0.031,-0.011,0.025,7.122,-6.114,-19.796
14:35:38:039,51.066,0.013,-0.026,0.022,6.998,-5.848,-19.854
14:35:38:04,51.067,0.011,-0.007,0.002,6.961,-5.655,-19.866
14:35:38:041,51.068,0.004,-0.001,0.004,6.87,-5.284,-19.787
14:35:38:061,51.088,0.011,-0.004,0.003,6.731,-4.847,-19.579
14:35:38:061,51.089,0.036,0,0.026,6.608,-4.558,-19.405
14:35:38:062,51.09,0.076,-0.012,0.035,6.422,-4.076,-19.081
14:35:38:081,51.109,0.097,-0.026,0.042,6.346,-3.628,-18.818
14:35:38:109,51.136,0.057,-0.035,0.023,6.36,-2.662,-18.454
14:35:38:134,51.161,0.044,-0.019,0.021,6.413,-1.943,-18.256
14:35:38:16,51.187,0.027,-0.002,-0.005,6.514,-0.953,-18.091
14:35:38:216,51.243,0.035,0.021,-0.007,6.602,-0.216,-18.101
14:35:38:216,51.243,0.018,0.016,-0.015,6.675,0.196,-18.23
14:35:38:239,51.266,-0.009,0.017,-0.009,6.776,0.901,-18.577
14:35:38:294,51.321,0,0.032,-0.007,6.866,1.537,-19.076
14:35:38:295,51.322,-0.01,0.031,0,6.951,1.974,-19.468
14:35:38:317,51.345,-0.021,0.03,0.001,7.132,2.601,-20.076
14:35:38:373,51.4,-0.032,0.028,0.004,7.303,2.974,-20.483
14:35:38:373,51.401,-0.062,0.026,-0.005,7.641,3.54,-21.018
14:35:38:396,51.424,-0.08,0.019,-0.006,8.01,3.986,-21.395
14:35:38:452,51.479,-0.088,0.006,-0.01,8.217,4.122,-21.556
14:35:38:452,51.48,-0.091,0.006,-0.019,8.411,4.013,-21.736
14:35:38:533,51.56,-0.078,-0.005,-0.007,8.46,3.743,-21.879
14:35:38:534,51.561,-0.071,-0.013,0.009,8.586,3.241,-22.098
14:35:38:535,51.562,-0.099,-0.004,0.04,8.754,2.988,-22.409
14:35:38:583,51.611,-0.109,-0.01,0.053,9.125,2.754,-22.688
14:35:38:584,51.611,-0.11,-0.016,0.05,9.463,2.218,-22.766
14:35:38:606,51.633,-0.088,-0.019,0.013,9.643,1.578,-22.523
14:35:38:663,51.69,-0.062,0.001,0.001,9.702,0.134,-22.084
14:35:38:664,51.691,-0.012,-0.002,-0.024,9.65,-1.417,-21.964
14:35:38:685,51.712,-0.001,0.007,-0.04,9.684,-2.978,-21.677
14:35:38:711,51.739,0.009,-0.005,-0.06,9.846,-4.291,-21.274
14:35:38:738,51.765,-0.003,-0.021,-0.05,9.892,-4.763,-20.95
14:35:38:764,51.791,-0.003,-0.02,-0.061,10.073,-5.428,-20.435
14:35:38:79,51.817,-0.005,-0.02,-0.048,10.088,-5.896,-20.091
14:35:38:846,51.873,0.02,-0.005,-0.04,10.031,-6.888,-19.573
14:35:38:846,51.873,0.03,-0.006,-0.006,9.941,-8.122,-19.086
14:35:38:869,51.896,0.037,-0.003,-0.014,9.91,-9.079,-18.756
14:35:38:952,51.979,0.047,0.013,0,9.744,-10.672,-18.301
14:35:38:952,51.979,0.067,-0.022,0.01,9.597,-11.845,-18.064
14:35:39:003,52.03,0.069,-0.009,0.023,9.309,-13.589,-17.678
14:35:39:029,52.056,0.125,-0.001,0.05,9.032,-15.518,-17.323
14:35:39:132,52.16,0.13,-0.003,0.056,8.878,-16.52,-17.051
14:35:39:192,52.22,0.122,-0.014,0.054,8.759,-17.329,-16.587
14:35:39:193,52.221,0.099,-0.001,0.057,8.772,-17.716,-16.749
14:35:39:194,52.221,0.097,-0.002,0.054,8.815,-18.046,-16.974
14:35:39:22,52.247,0.112,-0.004,0.065,8.88,-18.228,-17.136
14:35:39:221,52.248,0.118,-0.006,0.059,9.017,-18.419,-17.529
14:35:39:221,52.248,0.091,-0.001,0.039,9.163,-18.192,-17.952
14:35:39:222,52.249,0.079,0.002,0.033,9.251,-17.889,-18.174
14:35:39:24,52.268,0.077,0.009,0.029,9.435,-17.191,-18.476
14:35:39:24,52.268,0.037,0.005,0.018,9.682,-15.966,-18.652
14:35:39:292,52.319,0.017,-0.004,0.013,9.876,-14.889,-18.656
14:35:39:293,52.32,-0.015,-0.006,0.001,10.201,-13.194,-18.641
14:35:39:315,52.342,-0.021,-0.011,-0.013,10.408,-12.036,-18.62
14:35:39:372,52.399,-0.017,-0.008,-0.012,10.654,-10.59,-18.607
14:35:39:372,52.399,-0.008,-0.012,-0.027,10.784,-9.303,-18.599
14:35:39:394,52.421,-0.006,-0.006,-0.024,10.846,-8.493,-18.609
14:35:39:449,52.477,-0.014,-0.005,-0.035,10.899,-7.223,-18.638
14:35:39:45,52.477,-0.022,-0.006,-0.019,10.924,-6.358,-18.646
14:35:39:503,52.53,-0.028,-0.008,-0.025,10.976,-5.072,-18.628
14:35:39:503,52.531,-0.029,-0.004,-0.019,10.998,-4.289,-18.615
14:35:39:525,52.552,-0.027,0.004,-0.026,11.037,-3.203,-18.612
14:35:39:551,52.579,-0.023,0.014,-0.019,11.065,-2.266,-18.644
14:35:39:631,52.659,-0.024,0.01,-0.03,11.092,-1.673,-18.673
14:35:39:665,52.692,-0.029,0.007,-0.027,11.158,-0.828,-18.736
14:35:39:666,52.693,-0.039,0.004,-0.028,11.216,-0.3,-18.792
14:35:39:667,52.694,-0.043,0.006,-0.019,11.309,0.4,-18.916
14:35:39:668,52.695,-0.052,0.004,-0.029,11.419,1.041,-19.044
14:35:39:712,52.739,-0.072,-0.001,-0.02,11.513,1.705,-19.092
14:35:39:713,52.74,-0.072,0.006,-0.021,11.585,2.213,-19.077
14:35:39:735,52.762,-0.065,0.004,-0.021,11.618,2.404,-19.088
14:35:39:791,52.818,-0.066,0,-0.017,11.659,2.52,-19.125
14:35:39:791,52.818,-0.073,0.003,-0.011,11.717,2.604,-19.121
14:35:39:872,52.899,-0.084,-0.002,-0.016,11.754,2.737,-19.042
14:35:39:873,52.9,-0.086,-0.011,-0.013,11.813,2.967,-18.77
14:35:39:873,52.901,-0.086,-0.005,-0.01,11.839,3.042,-18.531
14:35:39:893,52.92,-0.085,0,-0.018,11.84,2.987,-18.148
14:35:39:919,52.947,-0.069,-0.004,-0.019,11.752,2.508,-17.75
14:35:39:945,52.973,-0.038,0.002,-0.02,11.676,1.778,-17.607
14:35:39:972,52.999,-0.015,-0.003,-0.018,11.573,0.422,-17.571
14:35:39:998,53.025,-0.002,-0.005,-0.022,11.474,-0.606,-17.549
14:35:40:053,53.081,0.006,-0.001,-0.01,11.278,-2.261,-17.519
14:35:40:054,53.082,0.033,0.001,-0.01,11.056,-4.046,-17.492
14:35:40:078,53.105,0.045,0.004,0.002,10.912,-5.205,-17.459
14:35:40:103,53.13,0.051,-0.001,0.006,10.719,-6.855,-17.425
14:35:40:129,53.156,0.05,0.004,0.059,10.601,-7.841,-17.413
14:35:40:184,53.212,0.028,-0.03,0.076,10.533,-9.448,-17.43
14:35:40:185,53.212,0.097,0.013,0.173,10.54,-10.813,-17.484
14:35:40:208,53.235,0.151,-0.009,0.314,10.63,-11.627,-17.481
14:35:40:264,53.291,0.225,0.135,0.326,11.102,-11.799,-17.453
14:35:40:264,53.291,0.268,0.31,0.264,11.6,-11.751,-17.592
14:35:40:314,53.342,0.193,0.227,0.281,12.342,-12.482,-18.084
14:35:40:453,53.48,0.082,0.196,0.2,12.797,-13.731,-18.91
14:35:40:454,53.481,-0.023,0.065,0.148,13.229,-14.703,-19.649
14:35:40:455,53.482,0.026,0.111,0.008,14.019,-16.98,-21.688
14:35:40:456,53.483,0.14,0.068,-0.016,14.379,-19.343,-23.36
14:35:40:476,53.503,0.403,0.154,0.021,14.951,-23.154,-26.737
14:35:40:476,53.504,0.418,0.228,0.034,15.695,-24.959,-29.286
14:35:40:526,53.553,0.402,0.549,-0.174,22.067,-24.8,-38.703
14:35:40:526,53.553,0.223,0.51,-0.305,27.031,-22.616,-42.092
14:35:40:55,53.578,0.028,0.399,-0.415,37.368,-18.134,-47.072
14:35:40:575,53.602,-0.026,0.323,-0.439,45.455,-15.3,-50.442
14:35:40:601,53.629,-0.172,0.139,-0.426,58.124,-11.323,-55.386
14:35:40:628,53.656,-0.333,-0.055,-0.355,69.51,-8.412,-60.505
14:35:40:684,53.711,-0.318,-0.141,-0.254,75.937,-8.139,-64.905
