Time,Second,AccelerationX,AccelerationY,AccelerationZ,EulerAnglesX,EulerAnglesY,EulerAnglesZ
15:46:38:66,0.000,0.002,0.002,-0.014,-7.560,7.534,7.721
15:46:38:686,0.026,-0.006,0.010,-0.017,-7.485,7.522,7.680
15:46:38:712,0.053,-0.011,0.002,-0.011,-7.374,7.508,7.622
15:46:38:739,0.080,0.012,-0.001,-0.004,-7.302,7.477,7.571
15:46:38:765,0.105,0.011,-0.001,0.001,-7.206,7.446,7.530
15:46:38:791,0.131,-0.002,0.001,-0.012,-7.166,7.439,7.529
15:46:38:818,0.158,0.000,0.000,0.000,-7.111,7.447,7.531
15:46:38:844,0.184,-0.004,0.004,-0.006,-7.071,7.455,7.534
15:46:38:87,0.210,0.007,-0.001,-0.003,-7.047,7.461,7.537
15:46:38:896,0.237,0.000,0.000,0.000,-7.043,7.485,7.551
15:46:38:922,0.263,-0.008,-0.001,0.001,-7.049,7.514,7.569
15:46:38:95,0.291,-0.001,0.002,-0.006,-7.057,7.543,7.568
15:46:38:976,0.317,-0.001,0.004,-0.004,-7.084,7.581,7.576
15:46:39:001,0.342,-0.002,0.007,-0.013,-7.095,7.605,7.570
15:46:39:057,0.397,-0.004,0.001,0.001,-7.110,7.670,7.542
15:46:39:057,0.397,0.006,0.000,-0.007,-7.113,7.697,7.505
15:46:39:08,0.420,0.009,0.002,-0.005,-7.131,7.734,7.449
15:46:39:106,0.446,-0.004,-0.003,-0.009,-7.158,7.764,7.418
15:46:39:132,0.472,-0.005,-0.003,-0.005,-7.207,7.821,7.406
15:46:39:159,0.499,0.018,0.011,-0.006,-7.247,7.820,7.378
15:46:39:185,0.525,0.016,0.000,-0.009,-7.277,7.818,7.389
15:46:39:211,0.551,0.007,0.001,-0.007,-7.354,7.928,7.444
15:46:39:237,0.578,0.001,0.000,-0.008,-7.404,8.027,7.484
15:46:39:266,0.606,-0.003,0.018,-0.003,-7.470,8.193,7.530
15:46:39:267,0.607,-0.016,0.005,-0.018,-7.510,8.363,7.555
15:46:39:29,0.630,-0.010,0.001,-0.016,-7.529,8.415,7.567
15:46:39:316,0.656,-0.003,0.012,-0.012,-7.539,8.416,7.547
15:46:39:371,0.712,0.000,0.001,0.000,-7.544,8.416,7.537
15:46:39:372,0.712,-0.004,0.002,-0.016,-7.563,8.392,7.514
15:46:39:396,0.736,-0.001,0.000,-0.004,-7.556,8.354,7.487
15:46:39:479,0.820,0.003,0.000,-0.013,-7.547,8.284,7.427
15:46:39:48,0.820,-0.012,0.004,0.001,-7.535,8.247,7.335
15:46:39:481,0.821,-0.001,0.016,-0.014,-7.517,8.202,7.267
15:46:39:5,0.840,0.016,-0.001,-0.004,-7.495,8.155,7.186
15:46:39:526,0.866,0.000,0.000,-0.010,-7.491,8.158,7.136
15:46:39:553,0.893,-0.001,0.000,0.000,-7.491,8.152,7.077
15:46:39:578,0.919,0.002,0.005,-0.007,-7.484,8.116,7.019
15:46:39:605,0.945,0.010,0.001,0.001,-7.483,8.093,6.996
15:46:39:631,0.971,-0.001,0.001,-0.006,-7.513,8.091,6.997
15:46:39:657,0.998,-0.002,0.008,-0.003,-7.543,8.085,6.993
15:46:39:685,1.025,0.009,0.007,-0.008,-7.567,8.069,6.981
15:46:39:711,1.051,0.006,0.002,-0.005,-7.592,8.068,6.981
15:46:39:736,1.076,-0.002,0.004,-0.008,-7.618,8.086,6.981
15:46:39:762,1.103,-0.003,0.004,-0.007,-7.619,8.096,6.970
15:46:39:788,1.129,0.007,0.002,-0.007,-7.618,8.092,6.966
15:46:39:815,1.155,0.004,0.003,-0.007,-7.628,8.091,6.966
15:46:39:842,1.182,0.000,0.002,-0.003,-7.628,8.091,6.966
15:46:39:897,1.238,-0.001,0.001,-0.009,-7.628,8.091,6.966
15:46:39:898,1.238,0.009,0.000,-0.006,-7.627,8.061,6.968
15:46:39:948,1.289,0.004,-0.001,-0.005,-7.641,8.050,6.979
15:46:39:949,1.290,-0.003,0.001,-0.003,-7.660,8.043,6.985
15:46:39:973,1.314,-0.005,0.004,-0.013,-7.660,8.033,6.986
15:46:39:999,1.339,0.002,0.005,-0.008,-7.674,8.012,6.988
15:46:40:025,1.366,0.003,0.005,-0.017,-7.693,8.006,6.994
15:46:40:051,1.391,-0.007,0.003,-0.005,-7.724,8.026,7.028
15:46:40:077,1.417,0.001,0.005,-0.012,-7.735,8.046,7.027
15:46:40:103,1.444,-0.003,0.005,-0.008,-7.735,8.047,7.007
15:46:40:13,1.470,0.001,0.006,-0.016,-7.736,8.044,6.983
15:46:40:156,1.496,0.002,0.005,-0.002,-7.730,8.045,6.972
15:46:40:183,1.524,0.004,0.006,-0.009,-7.738,8.074,6.971
15:46:40:209,1.549,-0.003,0.003,-0.007,-7.739,8.089,6.965
15:46:40:235,1.575,0.002,0.001,-0.013,-7.739,8.089,6.965
15:46:40:261,1.601,0.003,0.002,-0.005,-7.739,8.089,6.965
15:46:40:287,1.627,-0.001,0.001,-0.008,-7.744,8.094,6.960
15:46:40:315,1.655,-0.001,0.001,-0.009,-7.745,8.124,6.958
15:46:40:34,1.680,0.003,0.001,-0.008,-7.746,8.130,6.952
15:46:40:367,1.707,-0.001,0.001,-0.005,-7.746,8.130,6.952
15:46:40:393,1.733,0.000,0.001,-0.013,-7.746,8.130,6.952
15:46:40:419,1.759,0.005,0.000,-0.002,-7.746,8.130,6.952
15:46:40:444,1.785,0.002,0.001,-0.011,-7.746,8.130,6.952
15:46:40:471,1.811,-0.002,0.004,-0.007,-7.747,8.144,6.956
15:46:40:526,1.867,0.000,0.006,-0.010,-7.753,8.163,6.956
15:46:40:527,1.867,0.002,0.004,-0.008,-7.753,8.163,6.956
15:46:40:55,1.891,0.002,0.001,-0.007,-7.753,8.163,6.956
15:46:40:606,1.947,-0.004,0.002,-0.012,-7.753,8.162,6.985
15:46:40:606,1.947,0.002,0.001,-0.009,-7.753,8.166,7.000
15:46:40:629,1.969,-0.001,0.003,-0.008,-7.752,8.160,7.015
15:46:40:655,1.995,-0.001,0.002,-0.005,-7.752,8.163,7.040
15:46:40:681,2.022,0.000,0.001,-0.009,-7.751,8.152,7.060
15:46:40:707,2.048,-0.001,0.003,-0.006,-7.749,8.117,7.067
15:46:40:733,2.074,0.002,0.003,-0.016,-7.742,8.082,7.075
15:46:40:759,2.100,-0.003,0.003,-0.012,-7.739,8.041,7.097
15:46:40:786,2.126,0.000,0.004,-0.012,-7.728,8.016,7.104
15:46:40:812,2.153,0.003,0.000,-0.006,-7.700,7.972,7.111
15:46:40:838,2.179,-0.001,0.003,-0.014,-7.677,7.919,7.119
15:46:40:866,2.207,0.002,0.002,-0.006,-7.659,7.880,7.120
15:46:40:891,2.232,0.002,0.000,-0.011,-7.651,7.825,7.129
15:46:40:917,2.258,0.001,0.000,-0.005,-7.649,7.796,7.131
15:46:40:944,2.284,0.003,0.004,-0.013,-7.649,7.796,7.131
15:46:40:97,2.310,-0.002,0.001,-0.004,-7.649,7.804,7.150
15:46:40:996,2.336,-0.005,0.006,-0.014,-7.650,7.813,7.169
15:46:41:022,2.362,-0.006,0.006,-0.006,-7.649,7.812,7.189
15:46:41:049,2.389,0.006,-0.003,-0.008,-7.654,7.810,7.210
15:46:41:075,2.415,-0.003,0.002,-0.003,-7.655,7.828,7.238
15:46:41:101,2.442,0.000,-0.003,-0.012,-7.655,7.846,7.267
15:46:41:127,2.468,0.006,0.023,-0.016,-7.681,7.866,7.311
15:46:41:153,2.494,-0.001,-0.004,-0.005,-7.683,7.906,7.383
15:46:41:18,2.520,-0.005,-0.003,-0.006,-7.699,7.927,7.417
15:46:41:206,2.546,0.006,0.001,-0.016,-7.714,7.933,7.456
15:46:41:234,2.574,-0.004,0.001,-0.006,-7.716,7.962,7.474
15:46:41:26,2.600,0.002,0.001,-0.007,-7.717,7.972,7.474
15:46:41:286,2.626,0.000,0.001,-0.013,-7.716,7.971,7.484
15:46:41:314,2.655,0.000,0.007,-0.009,-7.716,7.971,7.484
15:46:41:337,2.677,0.000,0.000,-0.003,-7.716,7.970,7.504
15:46:41:363,2.704,-0.002,0.002,-0.008,-7.715,7.955,7.509
15:46:41:389,2.730,-0.001,0.003,-0.006,-7.708,7.925,7.512
15:46:41:417,2.757,0.003,-0.002,-0.003,-7.697,7.910,7.517
15:46:41:442,2.782,-0.001,0.004,-0.007,-7.697,7.901,7.518
15:46:41:469,2.809,-0.004,0.001,-0.006,-7.689,7.866,7.525
15:46:41:495,2.835,-0.002,0.005,-0.013,-7.683,7.841,7.531
15:46:41:521,2.861,0.007,0.000,-0.004,-7.680,7.796,7.539
15:46:41:55,2.891,-0.003,0.003,-0.011,-7.680,7.796,7.539
15:46:41:551,2.891,-0.001,0.001,-0.006,-7.679,7.786,7.540
15:46:41:575,2.916,-0.006,0.004,-0.011,-7.678,7.766,7.541
15:46:41:659,3.000,0.000,0.000,-0.004,-7.676,7.746,7.542
15:46:41:659,3.000,-0.001,0.005,-0.015,-7.661,7.742,7.547
15:46:41:66,3.000,0.001,-0.001,0.000,-7.646,7.743,7.546
15:46:41:707,3.048,-0.006,0.004,-0.011,-7.626,7.744,7.546
15:46:41:708,3.049,0.000,0.001,-0.005,-7.616,7.745,7.545
15:46:41:76,3.101,-0.001,0.001,-0.011,-7.606,7.746,7.545
15:46:41:761,3.101,-0.005,0.005,-0.003,-7.606,7.746,7.545
15:46:41:783,3.124,0.002,0.001,-0.008,-7.605,7.726,7.546
15:46:41:838,3.179,-0.005,0.003,-0.004,-7.605,7.726,7.546
15:46:41:839,3.180,0.001,0.003,-0.004,-7.605,7.726,7.546
15:46:41:864,3.204,-0.001,0.006,-0.011,-7.600,7.726,7.546
15:46:41:89,3.230,-0.007,0.011,-0.008,-7.591,7.747,7.544
15:46:41:915,3.255,0.000,-0.003,0.000,-7.587,7.748,7.534
15:46:41:941,3.282,0.000,0.002,-0.003,-7.581,7.748,7.534
15:46:41:967,3.308,-0.001,0.003,-0.006,-7.581,7.748,7.534
15:46:41:994,3.334,0.004,0.002,-0.009,-7.581,7.748,7.534
15:46:42:02,3.360,0.001,0.000,-0.002,-7.587,7.758,7.534
15:46:42:075,3.415,-0.001,0.004,-0.003,-7.593,7.777,7.532
15:46:42:076,3.416,-0.003,0.001,-0.003,-7.594,7.792,7.536
15:46:42:099,3.439,0.004,0.003,-0.001,-7.594,7.792,7.536
15:46:42:125,3.465,-0.007,0.002,-0.008,-7.600,7.813,7.515
15:46:42:152,3.492,0.001,0.000,0.000,-7.603,7.854,7.493
15:46:42:178,3.519,0.000,0.000,-0.002,-7.603,7.849,7.488
15:46:42:204,3.544,0.013,-0.008,-0.007,-7.605,7.875,7.471
15:46:42:23,3.570,-0.014,-0.011,-0.003,-7.626,7.888,7.486
15:46:42:256,3.596,-0.001,0.007,0.003,-7.626,7.884,7.462
15:46:42:282,3.622,0.007,0.010,-0.015,-7.624,7.847,7.424
15:46:42:367,3.707,-0.015,0.001,-0.007,-7.655,7.865,7.424
15:46:42:367,3.708,0.009,-0.001,0.001,-7.629,7.840,7.385
15:46:42:368,3.709,-0.002,0.003,-0.006,-7.619,7.833,7.346
15:46:42:387,3.728,0.004,0.003,-0.017,-7.609,7.817,7.297
15:46:42:414,3.754,-0.003,0.002,0.001,-7.594,7.820,7.266
15:46:42:44,3.780,-0.002,-0.002,-0.008,-7.594,7.820,7.266
15:46:42:495,3.836,0.002,0.006,-0.007,-7.579,7.813,7.236
15:46:42:496,3.836,-0.008,0.006,-0.015,-7.578,7.808,7.232
15:46:42:519,3.859,0.003,0.002,0.000,-7.558,7.795,7.227
15:46:42:545,3.885,-0.001,0.002,-0.010,-7.558,7.795,7.227
15:46:42:571,3.911,0.000,0.000,-0.001,-7.557,7.786,7.218
15:46:42:597,3.938,0.000,0.002,-0.006,-7.557,7.772,7.204
15:46:42:623,3.964,0.000,0.001,-0.001,-7.555,7.748,7.190
15:46:42:652,3.992,0.003,0.005,-0.002,-7.548,7.719,7.182
15:46:42:676,4.017,0.000,0.004,-0.002,-7.544,7.725,7.177
15:46:42:703,4.044,0.001,0.001,-0.006,-7.539,7.726,7.166
15:46:42:729,4.069,0.004,0.004,-0.004,-7.539,7.726,7.156
15:46:42:755,4.095,-0.002,0.003,-0.003,-7.529,7.723,7.141
15:46:42:781,4.121,0.002,0.005,0.000,-7.529,7.719,7.127
15:46:42:836,4.176,0.003,0.004,-0.006,-7.529,7.705,7.113
15:46:42:837,4.177,-0.001,0.001,-0.005,-7.524,7.707,7.093
15:46:42:861,4.201,0.005,0.001,-0.001,-7.519,7.708,7.083
15:46:42:886,4.227,0.001,0.006,0.001,-7.495,7.707,7.047
15:46:42:912,4.253,-0.003,0.002,0.000,-7.480,7.710,7.016
15:46:42:938,4.279,0.008,0.000,-0.004,-7.445,7.700,6.971
15:46:42:965,4.305,0.002,-0.002,-0.001,-7.411,7.710,6.925
15:46:42:991,4.331,-0.002,0.000,0.003,-7.402,7.707,6.900
15:46:43:018,4.359,0.002,0.004,-0.003,-7.402,7.709,6.880
15:46:43:044,4.384,-0.001,0.001,-0.009,-7.402,7.713,6.884
15:46:43:07,4.410,0.003,0.002,-0.003,-7.402,7.713,6.884
15:46:43:096,4.436,0.004,0.005,-0.006,-7.402,7.713,6.884
15:46:43:122,4.463,0.003,0.004,0.001,-7.402,7.713,6.884
15:46:43:149,4.489,0.002,0.002,-0.009,-7.402,7.713,6.884
15:46:43:175,4.515,0.000,0.002,0.000,-7.402,7.713,6.884
15:46:43:201,4.542,0.003,0.004,-0.004,-7.402,7.713,6.884
15:46:43:227,4.568,0.003,0.002,0.000,-7.402,7.713,6.884
15:46:43:255,4.595,-0.001,0.002,-0.007,-7.402,7.717,6.899
15:46:43:28,4.620,0.000,-0.001,-0.003,-7.402,7.717,6.899
15:46:43:306,4.646,0.004,0.001,-0.008,-7.402,7.717,6.899
15:46:43:332,4.673,0.000,0.003,-0.003,-7.402,7.712,6.904
15:46:43:36,4.701,-0.002,0.002,-0.005,-7.402,7.716,6.919
15:46:43:386,4.726,0.001,0.002,0.000,-7.401,7.715,6.939
15:46:43:411,4.751,0.003,0.000,-0.006,-7.405,7.688,6.966
15:46:43:437,4.778,0.005,0.002,0.000,-7.424,7.685,6.986
15:46:43:464,4.804,0.002,0.002,-0.005,-7.448,7.685,7.042
15:46:43:49,4.830,-0.006,0.001,0.001,-7.463,7.682,7.072
15:46:43:516,4.857,-0.004,0.005,-0.007,-7.492,7.678,7.103
15:46:43:542,4.883,0.002,0.003,-0.003,-7.516,7.665,7.135
15:46:43:569,4.909,0.006,-0.001,0.000,-7.525,7.663,7.155
15:46:43:596,4.936,0.007,0.005,0.001,-7.553,7.704,7.188
15:46:43:622,4.963,0.013,-0.002,0.001,-7.554,7.737,7.211
15:46:43:648,4.988,-0.004,0.005,-0.006,-7.589,7.826,7.261
15:46:43:673,5.014,0.004,0.002,-0.002,-7.608,7.891,7.297
15:46:43:7,5.040,-0.005,0.003,-0.004,-7.629,7.918,7.325
15:46:43:726,5.066,0.004,0.001,-0.002,-7.645,7.935,7.355
15:46:43:754,5.094,-0.006,0.003,-0.008,-7.661,7.952,7.374
15:46:43:779,5.120,0.003,0.002,-0.003,-7.681,7.945,7.390
15:46:43:805,5.145,0.000,0.001,-0.008,-7.701,7.948,7.395
15:46:43:834,5.175,0.003,0.000,-0.006,-7.720,7.946,7.416
15:46:43:835,5.175,-0.002,0.005,-0.009,-7.726,7.945,7.416
15:46:43:857,5.198,0.003,0.002,-0.004,-7.732,7.970,7.410
15:46:43:885,5.226,0.001,0.000,-0.005,-7.734,8.000,7.408
15:46:43:936,5.276,0.005,0.000,-0.002,-7.734,8.000,7.408
15:46:43:966,5.306,0.004,0.004,-0.008,-7.734,8.000,7.408
15:46:43:966,5.307,-0.003,0.007,-0.005,-7.735,8.020,7.406
15:46:44:018,5.358,0.007,0.000,-0.011,-7.735,8.020,7.406
15:46:44:018,5.359,-0.002,0.004,-0.003,-7.736,8.030,7.406
15:46:44:041,5.381,0.005,0.005,-0.005,-7.736,8.030,7.406
15:46:44:068,5.409,0.009,0.001,-0.005,-7.736,8.030,7.406
15:46:44:095,5.435,0.004,0.000,-0.009,-7.736,8.030,7.406
15:46:44:12,5.461,0.001,0.002,-0.003,-7.736,8.030,7.406
15:46:44:146,5.487,0.003,0.005,-0.001,-7.736,8.030,7.406
15:46:44:172,5.513,0.008,0.003,-0.004,-7.736,8.030,7.406
15:46:44:198,5.539,0.004,0.002,-0.008,-7.736,8.030,7.406
15:46:44:225,5.565,0.007,0.006,-0.004,-7.736,8.030,7.406
15:46:44:251,5.591,0.000,0.001,-0.008,-7.736,8.030,7.406
15:46:44:278,5.618,0.004,0.003,-0.002,-7.736,8.030,7.406
15:46:44:303,5.644,0.001,0.000,-0.004,-7.736,8.030,7.406
15:46:44:33,5.670,0.003,0.000,-0.005,-7.736,8.030,7.406
15:46:44:358,5.698,-0.002,0.003,-0.002,-7.736,8.035,7.401
15:46:44:383,5.724,0.001,0.000,0.000,-7.736,8.035,7.401
15:46:44:409,5.749,-0.002,0.003,-0.003,-7.736,8.035,7.401
15:46:44:464,5.804,0.000,0.002,-0.005,-7.736,8.035,7.401
15:46:44:465,5.805,0.000,0.003,0.000,-7.736,8.035,7.401
15:46:44:487,5.828,0.001,0.001,-0.001,-7.736,8.030,7.406
15:46:44:514,5.854,0.000,0.004,-0.005,-7.734,7.995,7.403
15:46:44:54,5.881,0.004,0.002,-0.005,-7.731,7.961,7.400
15:46:44:567,5.907,0.005,0.000,-0.004,-7.726,7.941,7.402
15:46:44:592,5.933,-0.002,0.002,-0.013,-7.726,7.941,7.402
15:46:44:618,5.959,0.010,0.010,-0.003,-7.725,7.937,7.397
15:46:44:645,5.986,0.002,0.000,-0.009,-7.725,7.927,7.398
15:46:44:7,6.041,0.001,-0.001,-0.005,-7.740,7.940,7.412
15:46:44:701,6.041,0.007,0.000,-0.007,-7.740,7.940,7.412
15:46:44:724,6.064,-0.011,0.023,-0.011,-7.741,7.960,7.411
15:46:44:75,6.090,0.018,0.006,-0.007,-7.699,8.001,7.352
15:46:44:777,6.117,-0.086,0.137,-0.010,-7.272,7.532,7.517
15:46:44:802,6.143,-0.002,-0.038,0.003,-6.894,7.133,7.627
15:46:44:857,6.198,0.017,-0.005,-0.008,-6.700,6.836,7.582
15:46:44:858,6.199,0.013,0.009,-0.005,-6.676,6.743,7.507
15:46:44:881,6.222,-0.016,-0.016,0.005,-6.571,6.565,7.433
15:46:44:908,6.248,-0.053,0.028,-0.045,-6.460,6.294,7.191
15:46:44:933,6.274,0.025,0.004,-0.032,-6.335,6.092,6.954
15:46:44:96,6.300,0.071,0.038,0.039,-6.184,5.909,6.658
15:46:44:986,6.326,0.013,-0.004,0.039,-6.118,5.764,6.579
15:46:45:012,6.353,-0.009,0.004,-0.003,-6.144,5.480,6.562
15:46:45:039,6.379,0.023,0.001,-0.006,-6.208,5.113,6.571
15:46:45:065,6.406,0.069,0.010,0.006,-6.195,4.841,6.655
15:46:45:091,6.432,-0.004,-0.001,0.000,-6.214,4.441,6.942
15:46:45:117,6.457,-0.034,-0.025,-0.004,-6.323,4.121,7.112
15:46:45:144,6.484,0.033,0.033,-0.026,-6.515,3.461,7.294
15:46:45:17,6.510,0.036,0.004,-0.004,-6.562,3.107,7.414
15:46:45:198,6.538,-0.042,-0.002,0.003,-6.568,2.760,7.555
15:46:45:223,6.564,0.012,0.014,0.003,-6.631,2.195,7.670
15:46:45:249,6.590,0.094,0.034,0.007,-6.679,1.810,7.728
15:46:45:276,6.616,0.036,0.020,-0.012,-6.636,1.661,7.848
15:46:45:301,6.641,-0.098,0.003,-0.048,-6.565,1.703,7.899
15:46:45:328,6.669,-0.038,0.009,-0.028,-6.453,1.592,7.812
15:46:45:355,6.695,-0.023,-0.003,-0.025,-6.277,1.456,7.540
15:46:45:381,6.722,0.009,-0.008,0.006,-6.152,1.476,7.274
15:46:45:435,6.775,-0.059,0.003,-0.038,-6.038,1.653,6.821
15:46:45:436,6.776,0.024,0.020,-0.003,-5.966,1.726,6.408
15:46:45:488,6.829,-0.093,-0.011,-0.024,-5.761,1.750,5.727
15:46:45:489,6.829,-0.104,-0.013,-0.062,-5.590,1.851,5.121
15:46:45:511,6.852,-0.168,0.018,-0.105,-5.486,2.346,3.780
15:46:45:538,6.878,0.137,0.149,0.053,-5.495,2.884,2.145
15:46:45:564,6.904,-0.068,0.230,-0.060,-5.318,3.237,0.969
15:46:45:591,6.931,-0.113,0.280,-0.045,-4.554,4.093,-1.269
15:46:45:616,6.957,-0.318,0.640,0.020,-3.769,4.970,-3.162
15:46:45:642,6.983,-0.589,0.610,0.239,-2.264,6.848,-7.122
15:46:45:669,7.009,-1.060,0.444,0.345,-0.440,8.330,-12.869
15:46:45:695,7.036,-1.261,0.350,0.094,0.679,8.609,-17.168
15:46:45:721,7.062,-1.379,0.008,-0.718,2.199,9.190,-23.692
15:46:45:748,7.088,-0.564,0.467,-0.546,4.437,10.125,-29.415
15:46:45:773,7.114,-1.391,0.078,-0.171,10.411,11.533,-37.196
15:46:45:799,7.140,-0.916,-0.575,-0.541,14.748,11.878,-42.969
15:46:45:855,7.195,0.416,-0.093,-1.173,17.146,12.145,-45.919
15:46:45:856,7.196,-0.687,-1.964,0.144,18.546,12.709,-47.592
15:46:45:878,7.219,-0.583,-1.245,-0.103,17.600,13.140,-46.481
15:46:45:905,7.246,-0.729,-1.159,-0.069,13.029,13.970,-42.428
15:46:45:931,7.271,-0.737,-0.790,0.112,9.460,14.150,-37.875
15:46:45:984,7.324,-0.588,0.004,0.108,0.604,16.408,-18.682
15:46:46:01,7.351,-0.537,0.374,0.177,-2.000,17.915,-11.175
15:46:46:037,7.377,-0.187,0.981,0.506,-6.401,20.722,0.147
15:46:46:062,7.403,1.127,1.459,0.626,-10.259,22.159,7.355
15:46:46:09,7.431,2.462,1.194,0.171,-16.903,22.634,17.237
15:46:46:147,7.487,3.616,-0.168,-0.141,-21.095,18.673,26.340
15:46:46:148,7.488,4.263,-1.264,-0.436,-21.273,15.102,30.157
15:46:46:148,7.489,-1.570,1.852,1.079,-19.204,13.396,27.483
15:46:46:167,7.507,-0.342,0.004,1.348,-18.129,13.292,25.720
15:46:46:223,7.563,0.380,0.278,-0.104,-16.717,12.312,20.712
15:46:46:224,7.564,0.509,-0.042,-0.415,-15.964,10.376,16.577
15:46:46:304,7.645,0.528,-0.151,-0.137,-14.852,8.708,14.741
15:46:46:305,7.645,0.251,0.012,0.139,-13.754,9.832,12.038
15:46:46:306,7.646,-0.279,0.023,0.049,-13.815,11.325,10.876
15:46:46:325,7.666,0.006,-0.014,-0.184,-13.716,11.297,9.594
15:46:46:38,7.721,0.133,0.046,-0.116,-13.253,10.524,8.549
15:46:46:381,7.721,-0.007,0.046,0.152,-12.538,11.102,6.586
15:46:46:462,7.802,0.008,0.106,-0.009,-12.119,12.233,4.615
15:46:46:463,7.803,-0.133,0.128,-0.246,-11.926,13.163,3.161
15:46:46:483,7.824,-0.206,0.346,0.148,-10.888,16.711,-1.514
15:46:46:509,7.849,-0.362,0.273,0.307,-9.780,18.585,-5.278
15:46:46:535,7.875,-0.503,0.599,0.264,-8.616,20.005,-10.208
15:46:46:561,7.901,-0.728,0.502,0.435,-7.265,21.257,-14.477
15:46:46:588,7.928,-2.050,0.478,0.269,-4.277,24.417,-22.306
15:46:46:615,7.955,-1.574,0.905,-0.335,-1.598,27.285,-28.567
15:46:46:641,7.982,-1.792,0.116,-0.048,5.866,31.170,-37.512
15:46:46:666,8.007,-1.954,-0.765,-0.078,9.907,31.419,-42.537
15:46:46:693,8.033,0.466,-0.581,-0.265,11.953,30.933,-47.268
15:46:46:719,8.059,-0.412,-2.418,0.945,11.155,31.164,-47.802
15:46:46:745,8.086,-0.060,-1.506,0.695,9.640,31.740,-45.691
15:46:46:772,8.113,-0.419,-1.209,0.245,5.033,33.707,-40.224
15:46:46:828,8.168,-0.447,-0.766,0.318,1.838,35.374,-35.432
15:46:46:828,8.168,-0.348,-0.340,0.486,-2.695,38.104,-26.820
15:46:46:85,8.190,-0.273,-0.116,0.966,-6.112,41.920,-16.161
15:46:46:876,8.216,0.057,0.209,0.852,-8.877,44.572,-8.802
15:46:46:904,8.245,0.559,0.790,0.741,-13.729,48.070,2.906
15:46:46:929,8.270,1.096,1.197,0.498,-17.474,49.663,11.117
15:46:46:955,8.295,2.307,1.079,-0.478,-23.693,50.081,22.915
15:46:46:981,8.321,3.170,0.007,-1.605,-26.860,48.419,29.598
15:46:47:037,8.377,3.195,-1.326,-2.414,-28.151,45.407,34.451
15:46:47:037,8.377,-1.042,2.105,1.993,-25.914,43.782,30.674
15:46:47:06,8.401,1.222,-0.223,0.936,-24.127,44.459,28.077
15:46:47:116,8.456,0.746,0.139,-0.290,-22.249,42.895,22.787
15:46:47:116,8.457,0.064,0.031,-0.447,-21.494,42.450,19.835
15:46:47:139,8.479,0.586,-0.018,-0.510,-20.259,40.722,17.074
15:46:47:194,8.535,0.286,-0.071,-0.022,-19.159,41.596,15.040
15:46:47:195,8.535,-0.003,-0.018,0.219,-18.915,42.510,14.187
15:46:47:276,8.616,-0.049,0.013,-0.047,-18.547,42.022,13.106
15:46:47:277,8.617,0.035,0.041,-0.225,-18.037,41.281,12.303
15:46:47:277,8.618,0.057,0.057,0.076,-17.254,41.967,10.568
15:46:47:298,8.638,0.015,0.044,0.030,-16.892,42.566,9.260
15:46:47:381,8.721,0.037,0.056,-0.133,-16.432,43.190,7.290
15:46:47:381,8.722,-0.038,0.174,-0.028,-16.136,44.879,4.873
15:46:47:382,8.723,-0.112,0.188,0.220,-15.829,46.555,2.842
15:46:47:401,8.742,0.159,0.274,0.369,-15.051,48.648,-0.817
15:46:47:429,8.770,-0.066,0.475,0.402,-14.427,49.766,-3.668
15:46:47:454,8.795,-0.294,0.607,0.401,-13.552,51.586,-9.015
15:46:47:51,8.850,-0.583,0.518,0.788,-11.513,54.482,-16.161
15:46:47:51,8.850,-1.372,0.491,1.465,-9.495,57.330,-22.028
15:46:47:533,8.873,-1.482,0.675,0.985,-5.770,61.637,-32.169
15:46:47:561,8.902,-0.817,0.077,0.642,-2.215,64.123,-38.950
15:46:47:612,8.952,0.393,-0.513,-0.308,7.802,67.222,-49.357
15:46:47:637,8.978,-0.698,-0.607,1.094,10.872,69.378,-51.416
15:46:47:694,9.034,0.334,-1.803,0.566,9.946,71.906,-49.883
15:46:47:694,9.034,0.141,-1.160,0.515,7.335,74.215,-47.223
15:46:47:716,9.057,0.040,-0.956,0.767,2.205,78.026,-41.704
15:46:47:825,9.166,0.258,-0.767,0.847,-1.673,80.125,-36.996
15:46:47:826,9.166,0.304,-0.414,0.739,-6.743,82.786,-28.282
15:46:47:853,9.193,0.458,-0.111,0.768,-10.216,85.729,-17.764
15:46:47:854,9.194,0.571,0.194,0.721,-12.429,87.949,-10.312
15:46:47:855,9.195,0.945,0.900,0.171,-16.389,91.220,1.369
15:46:47:875,9.216,1.132,1.326,-0.560,-19.691,92.775,9.614
15:46:47:901,9.241,1.613,1.115,-2.501,-25.603,93.681,21.943
15:46:47:926,9.266,0.960,-1.122,-4.444,-28.829,92.640,28.443
15:46:47:954,9.295,0.155,-0.973,-4.324,-30.109,91.207,30.841
15:46:48:037,9.377,1.931,0.683,2.413,-27.410,91.209,26.791
15:46:48:038,9.378,0.500,0.775,-1.034,-25.865,91.830,22.350
15:46:48:038,9.378,-0.231,0.129,-0.468,-24.828,91.177,17.461
15:46:48:057,9.398,0.055,-0.036,-0.378,-23.568,89.319,15.492
15:46:48:084,9.424,0.209,0.022,-0.591,-22.074,88.716,13.135
15:46:48:109,9.450,0.184,0.081,-0.039,-21.771,90.912,10.873
15:46:48:165,9.505,-0.054,0.102,0.108,-21.726,91.388,9.996
15:46:48:166,9.506,-0.181,0.066,-0.081,-21.192,91.052,8.849
15:46:48:189,9.529,0.101,-0.023,0.011,-20.764,91.635,7.757
15:46:48:243,9.584,-0.033,0.069,0.065,-20.486,93.180,5.897
15:46:48:273,9.614,-0.073,0.019,0.060,-20.146,95.030,3.729
15:46:48:274,9.614,0.028,0.086,0.117,-19.721,96.231,2.165
15:46:48:275,9.615,0.222,0.162,0.099,-18.898,97.916,-0.413
15:46:48:381,9.721,0.265,0.166,0.133,-18.300,98.909,-2.398
15:46:48:382,9.722,0.231,0.336,0.292,-17.507,100.223,-5.834
15:46:48:382,9.723,0.213,0.526,0.483,-16.904,101.234,-8.744
15:46:48:383,9.724,0.336,0.357,0.703,-15.629,103.144,-14.386
15:46:48:399,9.740,0.330,0.354,1.195,-13.525,105.302,-21.656
15:46:48:425,9.766,0.266,-0.022,1.924,-11.903,107.615,-26.920
15:46:48:451,9.791,-0.136,0.740,1.454,-7.742,112.019,-36.326
15:46:48:504,9.844,0.237,0.238,1.167,-3.213,114.480,-42.399
15:46:48:533,9.873,-0.200,-0.594,1.776,1.486,117.802,-49.415
15:46:48:533,9.874,-1.249,-0.114,-0.695,6.889,118.520,-51.788
15:46:48:614,9.955,0.482,-0.437,1.702,9.127,119.410,-52.362
15:46:48:615,9.956,0.626,-1.550,0.331,8.413,121.181,-48.884
15:46:48:616,9.956,0.261,-1.088,0.442,4.907,122.542,-44.690
15:46:48:635,9.975,0.377,-0.736,0.568,-0.020,124.741,-37.505
15:46:48:69,10.030,0.670,-0.476,0.241,-2.898,125.757,-31.588
15:46:48:691,10.031,0.883,-0.394,0.448,-6.460,127.922,-20.877
15:46:48:743,10.083,0.878,0.069,0.227,-9.862,130.688,-9.620
15:46:48:744,10.084,0.817,0.440,-0.061,-12.591,132.427,-1.783
15:46:48:766,10.106,0.249,1.160,-1.093,-17.806,134.924,10.289
15:46:48:88,10.220,-0.662,1.452,-2.476,-22.056,136.308,18.325
15:46:48:88,10.221,-1.477,-0.211,-3.907,-27.548,136.371,28.508
15:46:48:881,10.222,-1.687,-1.459,-3.913,-29.198,134.282,32.186
15:46:48:882,10.222,-0.366,0.447,-0.064,-27.658,133.401,29.160
15:46:48:897,10.238,-1.368,-0.299,-2.078,-26.386,135.299,23.538
15:46:48:924,10.264,-0.191,0.251,0.100,-25.859,135.259,19.444
15:46:48:95,10.291,-0.386,-0.245,-0.409,-23.817,133.214,16.868
15:46:48:976,10.317,-0.174,-0.056,-0.550,-22.643,132.169,15.572
15:46:49:002,10.343,0.184,-0.001,-0.130,-21.826,133.325,13.329
15:46:49:028,10.369,0.223,0.087,0.136,-21.652,134.111,12.163
15:46:49:057,10.397,-0.091,0.025,-0.041,-21.311,133.657,11.581
15:46:49:082,10.423,-0.026,-0.021,-0.101,-20.720,133.848,10.389
15:46:49:136,10.477,0.091,0.094,0.074,-20.574,134.815,9.284
15:46:49:137,10.478,0.063,0.139,0.094,-20.521,136.427,7.292
15:46:49:161,10.501,0.063,0.182,0.124,-20.160,138.119,4.647
15:46:49:187,10.527,0.284,0.197,-0.035,-19.664,139.313,2.539
15:46:49:212,10.553,0.376,0.184,-0.078,-18.790,141.112,-0.982
15:46:49:239,10.579,0.370,0.114,-0.009,-18.204,142.288,-3.649
15:46:49:294,10.635,0.647,0.481,0.113,-17.508,143.842,-8.599
15:46:49:295,10.635,0.888,0.526,0.310,-16.734,145.056,-12.845
15:46:49:405,10.746,1.271,0.139,0.674,-14.783,147.488,-20.370
15:46:49:406,10.746,1.901,-0.509,1.317,-12.737,151.350,-29.085
15:46:49:406,10.747,0.842,1.263,0.947,-11.571,154.302,-36.690
15:46:49:407,10.748,1.338,0.291,1.754,-7.113,157.004,-47.442
15:46:49:451,10.792,1.712,-1.616,1.041,-5.208,158.795,-52.852
15:46:49:452,10.793,-1.413,-0.177,-0.369,5.157,159.599,-57.235
15:46:49:475,10.816,1.299,-1.661,0.735,6.608,159.949,-56.356
15:46:49:501,10.841,0.441,-1.673,-0.216,8.461,160.664,-54.314
15:46:49:527,10.868,0.305,-0.948,0.139,6.226,162.686,-47.599
15:46:49:583,10.923,0.524,-0.873,0.157,4.601,164.567,-42.383
15:46:49:583,10.924,0.748,-0.643,-0.205,1.361,167.282,-32.626
15:46:49:607,10.948,0.749,-0.188,-0.061,-1.196,168.976,-25.268
15:46:49:69,11.031,0.671,-0.033,-0.218,-4.916,171.858,-14.020
15:46:49:691,11.032,0.542,0.598,-0.486,-8.901,174.580,-2.228
15:46:49:692,11.032,0.009,1.174,-0.821,-11.984,175.755,6.003
15:46:49:711,11.052,-2.162,1.526,-1.297,-17.930,176.373,18.104
15:46:49:766,11.107,-3.763,-0.111,-1.566,-21.791,175.467,25.377
15:46:49:767,11.108,-4.428,-1.020,-1.202,-24.581,172.291,31.943
15:46:49:843,11.183,-0.839,-0.810,0.090,-23.127,169.714,29.287
15:46:49:875,11.216,-0.189,-0.485,-1.285,-20.731,168.693,26.571
15:46:49:876,11.216,-0.872,0.463,-0.353,-19.256,166.532,19.797
15:46:49:876,11.216,-1.010,0.365,-0.256,-18.806,166.148,16.299
15:46:49:896,11.236,-0.276,-0.153,-0.117,-17.128,164.291,13.029
15:46:49:921,11.262,0.197,0.007,-0.303,-16.284,164.606,11.180
15:46:49:947,11.288,0.152,0.096,-0.161,-16.207,166.152,9.105
15:46:49:974,11.314,-0.039,0.027,0.088,-16.050,166.115,7.812
15:46:50:001,11.342,-0.191,0.021,0.070,-15.649,165.848,6.906
15:46:50:027,11.367,0.120,0.070,-0.062,-15.463,167.392,5.094
15:46:50:053,11.393,0.110,0.117,-0.043,-15.607,168.606,3.875
15:46:50:138,11.478,0.074,0.109,-0.009,-15.344,170.120,1.948
15:46:50:138,11.478,0.191,0.107,-0.005,-14.775,171.756,-0.066
15:46:50:138,11.479,0.204,0.096,-0.023,-14.343,172.794,-1.540
15:46:50:187,11.527,0.338,0.148,-0.200,-13.543,174.088,-4.246
15:46:50:187,11.528,0.533,0.335,-0.088,-12.933,174.623,-6.477
15:46:50:21,11.551,0.639,0.582,-0.014,-12.048,175.029,-10.923
15:46:50:265,11.606,1.141,0.332,-0.265,-11.169,175.459,-14.879
15:46:50:266,11.606,1.510,0.210,-0.062,-9.067,176.742,-22.033
15:46:50:289,11.630,2.243,-0.474,0.533,-6.827,179.495,-30.682
15:46:50:344,11.685,1.203,0.817,0.718,-3.961,-178.617,-38.184
15:46:50:345,11.685,1.695,0.331,0.668,0.707,-176.300,-48.339
15:46:50:401,11.741,2.238,-1.687,0.302,3.415,-174.770,-53.202
15:46:50:401,11.741,-1.230,-1.465,1.089,11.163,-176.559,-55.014
15:46:50:402,11.742,0.487,-1.742,-0.206,9.215,-177.881,-53.143
15:46:50:476,11.817,0.280,-1.728,-0.337,9.372,-178.004,-49.822
15:46:50:477,11.817,0.510,-0.921,0.093,7.163,-176.249,-41.799
15:46:50:498,11.839,0.676,-0.617,-0.181,5.481,-175.081,-35.844
15:46:50:525,11.865,0.488,-0.318,-0.225,2.467,-173.838,-25.212
15:46:50:553,11.893,0.668,-0.076,-0.304,-1.162,-172.501,-12.930
15:46:50:58,11.921,0.708,0.300,-0.283,-4.336,-171.919,-4.230
15:46:50:581,11.922,-0.141,0.992,-0.602,-9.246,-172.215,8.020
15:46:50:72,12.061,-2.087,1.714,-0.297,-13.177,-173.034,15.895
15:46:50:721,12.062,-3.255,0.787,-0.469,-18.174,-175.399,27.627
15:46:50:722,12.062,-4.002,-0.711,-0.384,-20.927,-176.501,33.784
15:46:50:723,12.063,-3.705,-1.227,-0.210,-22.819,-177.401,37.083
15:46:50:767,12.107,1.791,0.399,-0.022,-20.388,-178.047,32.328
15:46:50:768,12.108,0.874,0.861,-1.734,-18.716,-178.720,29.357
15:46:50:768,12.109,-0.581,0.480,0.039,-17.026,176.746,22.276
15:46:50:788,12.128,-2.040,0.777,-0.175,-16.932,174.917,18.870
15:46:50:814,12.154,-0.080,-0.448,-0.184,-14.503,173.662,15.525
15:46:50:84,12.181,-0.310,0.107,-0.198,-14.072,174.837,13.216
15:46:50:925,12.265,0.275,0.108,-0.093,-14.108,176.308,12.236
15:46:50:926,12.266,0.199,0.014,-0.001,-13.713,176.412,11.225
15:46:50:927,12.267,-0.242,0.002,0.137,-13.328,175.898,10.470
15:46:51:004,12.344,0.142,-0.034,-0.011,-12.972,176.825,8.914
15:46:51:004,12.344,0.084,0.009,-0.155,-12.765,177.561,7.813
15:46:51:004,12.345,0.015,0.046,-0.052,-12.213,177.862,6.003
15:46:51:024,12.364,0.049,0.042,0.004,-11.490,177.840,4.067
15:46:51:08,12.421,0.016,0.078,0.014,-11.055,178.018,2.597
15:46:51:081,12.421,0.087,0.195,-0.225,-10.416,178.749,-0.060
15:46:51:103,12.443,0.270,0.308,-0.218,-10.184,179.464,-2.028
15:46:51:13,12.470,0.391,0.459,-0.100,-9.992,-179.572,-5.698
15:46:51:156,12.496,0.563,0.565,-0.179,-9.485,-178.074,-10.752
15:46:51:182,12.522,0.996,0.427,-0.266,-8.705,-176.644,-14.935
15:46:51:266,12.606,1.636,0.204,-0.043,-6.524,-174.559,-22.719
15:46:51:266,12.607,2.005,-0.635,0.084,-4.545,-172.686,-28.185
15:46:51:267,12.608,1.265,1.340,0.728,-0.996,-168.917,-37.588
15:46:51:315,12.656,1.975,0.377,1.004,4.404,-167.439,-44.116
15:46:51:316,12.657,2.132,0.041,0.853,10.686,-164.870,-52.212
15:46:51:339,12.679,-0.596,-0.908,0.995,21.309,-166.813,-56.502
15:46:51:365,12.706,1.969,-1.120,-0.095,19.122,-169.405,-57.476
15:46:51:391,12.732,0.449,-1.166,-0.042,16.268,-172.223,-56.505
15:46:51:417,12.758,0.227,-1.002,0.170,12.583,-172.782,-53.354
15:46:51:474,12.814,0.348,-0.802,-0.001,8.006,-172.967,-47.249
15:46:51:474,12.815,0.308,-0.705,-0.101,4.262,-172.617,-38.708
15:46:51:496,12.837,0.664,-0.648,-0.170,1.904,-171.468,-31.548
15:46:51:523,12.863,0.607,-0.279,-0.150,-1.899,-169.038,-19.881
15:46:51:605,12.946,0.550,0.126,-0.276,-4.499,-167.367,-12.154
15:46:51:606,12.946,0.034,0.816,-0.603,-8.637,-164.971,-0.001
15:46:51:654,12.994,-0.947,1.556,-0.830,-11.912,-163.395,8.387
15:46:51:686,13.026,-2.498,1.629,-0.580,-18.260,-162.350,20.862
15:46:51:686,13.027,-3.950,-0.182,0.033,-24.143,-163.301,31.488
15:46:51:687,13.028,-4.403,-1.582,0.495,-25.553,-164.839,35.204
15:46:51:759,13.100,0.418,0.642,0.581,-24.929,-165.847,32.321
15:46:51:79,13.131,-1.375,-1.271,-0.335,-22.448,-164.552,28.350
15:46:51:791,13.132,-0.203,0.763,0.438,-20.377,-165.248,20.359
15:46:51:792,13.133,-0.281,-0.046,-0.164,-18.674,-167.606,15.324
15:46:51:811,13.152,-0.548,-0.323,-0.013,-16.776,-168.276,13.168
15:46:51:838,13.178,-0.032,0.069,-0.222,-15.788,-167.573,10.126
15:46:51:893,13.233,0.057,0.148,-0.222,-15.993,-167.042,8.871
15:46:51:894,13.234,-0.208,0.044,0.215,-15.747,-167.314,7.261
15:46:51:916,13.256,0.026,0.067,-0.143,-15.498,-167.283,6.053
15:46:51:972,13.312,0.049,0.153,-0.121,-15.516,-166.296,4.165
15:46:51:973,13.313,0.033,0.048,-0.120,-15.686,-165.289,2.341
15:46:52:022,13.363,-0.002,0.001,-0.081,-15.815,-164.672,1.192
15:46:52:05,13.391,0.062,0.035,-0.080,-16.054,-163.860,-0.539
15:46:52:051,13.391,0.137,0.079,-0.051,-16.152,-163.480,-1.797
15:46:52:103,13.443,0.129,0.107,-0.062,-16.089,-162.844,-4.208
15:46:52:104,13.444,0.210,0.246,-0.104,-15.876,-161.682,-7.429
15:46:52:127,13.468,0.312,0.316,-0.140,-15.512,-160.293,-10.316
15:46:52:153,13.493,0.513,0.248,-0.443,-14.303,-157.262,-15.760
15:46:52:237,13.577,1.191,0.487,-0.543,-13.196,-154.872,-20.287
15:46:52:237,13.578,1.823,0.201,-0.889,-10.409,-150.939,-28.654
15:46:52:238,13.579,1.860,0.293,-0.235,-8.325,-148.104,-34.940
15:46:52:258,13.598,1.283,0.612,-0.757,-3.172,-144.533,-45.226
15:46:52:284,13.625,1.652,-0.269,-0.022,2.386,-142.051,-51.973
15:46:52:368,13.709,0.975,-1.426,-0.304,6.821,-140.254,-54.116
15:46:52:369,13.709,1.186,-0.306,-0.308,12.343,-136.285,-55.318
15:46:52:37,13.710,0.000,-1.738,-0.790,14.345,-132.987,-53.203
15:46:52:418,13.758,-0.046,-1.264,-0.850,11.051,-128.171,-48.861
15:46:52:418,13.759,0.000,-0.836,-0.852,4.510,-123.758,-43.328
15:46:52:442,13.782,-0.150,-0.677,-0.985,-0.204,-121.627,-38.562
15:46:52:468,13.808,-0.020,-0.516,-1.130,-5.408,-119.036,-29.168
15:46:52:494,13.834,-0.088,-0.053,-0.983,-7.866,-117.403,-21.943
15:46:52:522,13.862,-0.325,0.097,-0.927,-10.876,-114.880,-10.451
15:46:52:547,13.887,-0.644,0.746,-0.288,-14.023,-111.638,1.401
15:46:52:634,13.974,-1.156,1.439,0.812,-16.851,-109.507,9.456
15:46:52:635,13.975,-2.703,0.513,3.132,-22.656,-106.500,18.545
15:46:52:635,13.976,-2.665,-0.297,3.404,-24.324,-105.609,21.459
15:46:52:636,13.977,-1.678,0.506,1.020,-23.031,-106.357,19.625
15:46:52:678,14.018,-0.724,0.072,2.112,-22.343,-107.184,16.645
15:46:52:708,14.049,0.257,-0.646,-0.290,-19.857,-110.267,12.547
15:46:52:708,14.049,-0.336,0.254,0.688,-18.489,-111.121,9.775
15:46:52:759,14.100,-0.388,0.092,0.059,-18.064,-110.151,8.174
15:46:52:76,14.100,-0.183,0.015,-0.196,-18.328,-109.150,6.839
15:46:52:809,14.149,0.171,0.083,0.232,-18.331,-109.207,6.206
15:46:52:84,14.180,0.124,0.006,0.081,-18.070,-108.770,5.052
15:46:52:84,14.180,-0.053,0.029,-0.154,-17.824,-107.358,3.563
15:46:52:89,14.231,0.058,0.119,-0.077,-17.647,-106.613,2.608
15:46:52:891,14.232,0.057,0.034,-0.051,-17.137,-105.386,1.085
15:46:52:943,14.284,0.089,0.118,-0.170,-16.726,-104.328,-0.029
15:46:52:944,14.284,0.027,0.043,-0.239,-15.879,-102.960,-1.882
15:46:52:993,14.333,-0.010,0.230,-0.214,-15.221,-102.343,-3.472
15:46:53:08,14.420,-0.021,0.206,-0.292,-14.386,-101.687,-6.370
15:46:53:081,14.421,-0.071,0.203,-0.425,-13.554,-100.784,-9.929
15:46:53:082,14.422,-0.108,0.302,-0.563,-12.971,-100.138,-12.844
15:46:53:082,14.423,0.104,0.383,-0.869,-11.834,-99.013,-18.352
15:46:53:098,14.439,0.121,0.250,-1.086,-10.615,-98.094,-22.871
15:46:53:124,14.464,0.485,-0.280,-2.076,-8.003,-95.238,-30.222
15:46:53:15,14.491,0.447,0.317,-1.156,-5.618,-92.585,-36.253
15:46:53:205,14.546,0.453,0.815,-1.259,0.602,-89.225,-46.104
15:46:53:206,14.547,1.424,-0.350,-1.939,6.503,-86.432,-54.117
15:46:53:229,14.569,0.080,0.185,1.080,11.985,-84.946,-56.763
15:46:53:255,14.596,0.437,-0.413,-1.736,19.037,-82.931,-57.061
15:46:53:281,14.622,-0.764,-1.879,-0.267,20.756,-81.903,-56.029
15:46:53:307,14.648,-0.344,-1.215,-0.537,18.549,-79.086,-51.035
15:46:53:335,14.676,-0.217,-0.889,-0.606,12.242,-75.678,-43.834
15:46:53:36,14.700,-0.498,-0.702,-0.553,7.916,-73.762,-38.050
15:46:53:386,14.727,-0.525,-0.504,-0.735,2.013,-71.057,-27.221
15:46:53:413,14.753,-0.513,-0.063,-0.648,-1.075,-68.669,-19.700
15:46:53:439,14.779,-0.806,0.561,-0.337,-5.767,-65.139,-8.189
15:46:53:494,14.834,-0.499,1.421,0.900,-11.107,-61.916,3.537
15:46:53:495,14.835,-0.085,1.769,1.988,-15.346,-59.866,11.369
15:46:53:517,14.858,0.166,0.459,3.708,-20.849,-58.801,21.548
15:46:53:571,14.912,0.835,-0.949,4.017,-22.569,-60.277,25.442
15:46:53:629,14.969,0.552,-0.231,0.191,-21.354,-63.148,24.130
15:46:53:629,14.970,-0.007,-0.903,1.513,-19.201,-64.879,21.855
15:46:53:63,14.971,0.237,0.777,1.155,-18.406,-67.759,17.952
15:46:53:649,14.989,0.106,0.350,0.649,-18.223,-70.189,14.130
15:46:53:733,15.074,0.109,-0.100,0.360,-17.074,-71.536,12.978
15:46:53:734,15.075,0.011,0.154,0.299,-16.466,-70.936,10.998
15:46:53:735,15.075,-0.177,0.029,-0.328,-16.397,-69.258,9.949
15:46:53:783,15.123,0.027,0.044,-0.144,-16.327,-68.687,9.162
15:46:53:783,15.124,0.202,0.000,0.003,-15.668,-69.123,8.216
15:46:53:808,15.148,0.008,0.032,-0.165,-15.183,-68.349,7.256
15:46:53:86,15.200,-0.035,0.063,-0.149,-14.640,-66.754,5.396
15:46:53:888,15.229,0.027,0.095,-0.095,-14.294,-65.698,3.883
15:46:53:889,15.229,-0.074,0.065,-0.189,-13.803,-63.540,1.309
15:46:53:911,15.252,-0.236,0.147,-0.182,-13.433,-62.134,-0.571
15:46:53:996,15.336,-0.156,0.216,-0.255,-12.775,-60.736,-3.745
15:46:53:997,15.337,-0.167,0.260,-0.279,-11.938,-59.705,-7.679
15:46:53:997,15.338,-0.254,0.392,-0.407,-11.165,-58.685,-10.959
15:46:54:046,15.386,-0.572,0.321,-0.655,-9.236,-56.664,-17.165
15:46:54:046,15.387,-0.810,0.265,-1.275,-7.650,-55.183,-22.128
15:46:54:069,15.410,-1.017,-0.289,-1.838,-5.327,-51.900,-30.409
15:46:54:095,15.435,-0.240,1.041,-1.503,-1.390,-47.743,-40.650
15:46:54:18,15.521,-0.593,0.780,-1.455,3.530,-46.146,-47.318
15:46:54:18,15.521,-0.188,-0.863,-1.217,9.785,-43.847,-53.882
15:46:54:181,15.522,0.229,-0.528,-0.012,16.791,-42.662,-56.219
15:46:54:201,15.541,-0.503,-0.581,-1.301,19.492,-41.767,-56.051
15:46:54:226,15.567,-0.728,-1.603,0.209,20.660,-40.232,-53.986
15:46:54:253,15.593,-0.383,-1.132,-0.146,16.191,-37.033,-48.148
15:46:54:279,15.619,-0.589,-0.713,-0.281,10.635,-33.362,-40.884
15:46:54:305,15.645,-0.773,-0.745,0.018,7.016,-31.668,-34.889
15:46:54:332,15.673,-0.900,-0.309,-0.124,1.634,-29.155,-23.925
15:46:54:358,15.698,-0.833,0.103,-0.170,-1.258,-27.227,-16.432
15:46:54:384,15.725,-0.678,0.690,0.202,-5.705,-24.823,-4.787
15:46:54:414,15.754,0.001,1.144,0.729,-10.324,-22.641,7.577
15:46:54:436,15.776,1.080,1.700,1.365,-14.236,-21.286,15.965
15:46:54:463,15.803,2.476,0.312,2.759,-20.064,-20.943,26.180
15:46:54:489,15.829,2.765,-1.069,2.642,-21.631,-22.715,29.894
15:46:54:515,15.856,2.356,-1.449,0.684,-19.551,-25.530,27.360
15:46:54:542,15.883,1.520,-0.745,1.560,-17.324,-26.868,23.149
15:46:54:598,15.938,0.532,0.424,0.351,-16.575,-28.182,18.928
15:46:54:598,15.938,0.566,-0.054,0.337,-15.346,-29.499,14.913
15:46:54:62,15.960,0.202,-0.181,0.180,-14.106,-30.209,13.419
15:46:54:648,15.989,0.057,0.004,0.127,-13.241,-29.189,11.373
15:46:54:702,16.042,-0.239,0.017,-0.196,-13.079,-28.244,10.769
15:46:54:702,16.043,-0.129,0.015,-0.192,-12.707,-28.325,9.937
15:46:54:755,16.095,0.254,0.039,-0.005,-12.101,-28.781,8.807
15:46:54:755,16.095,-0.041,0.036,-0.040,-11.818,-28.077,7.850
15:46:54:807,16.147,-0.074,0.046,-0.037,-11.641,-26.753,6.173
15:46:54:808,16.148,-0.003,0.140,-0.244,-11.616,-25.947,4.834
15:46:54:831,16.172,-0.064,0.108,-0.145,-11.315,-24.293,2.369
15:46:54:857,16.197,-0.272,0.254,0.021,-10.546,-22.383,-0.681
15:46:54:882,16.223,-0.432,0.359,0.082,-9.839,-21.318,-3.075
15:46:54:909,16.249,-0.615,0.517,-0.040,-8.788,-19.996,-7.549
15:46:54:967,16.308,-0.767,0.661,-0.252,-7.911,-19.056,-11.486
15:46:54:968,16.308,-1.408,0.227,-0.262,-5.348,-17.315,-18.774
15:46:54:969,16.309,-2.448,-0.505,-1.249,-2.527,-14.447,-26.955
15:46:55:043,16.384,-1.153,0.556,-1.100,-0.503,-12.120,-33.986
15:46:55:044,16.384,-1.332,0.393,-0.992,5.796,-10.144,-44.666
15:46:55:069,16.410,-1.226,-0.596,-1.702,8.370,-8.957,-50.562
15:46:55:07,16.410,1.672,-1.035,-0.933,16.242,-8.968,-55.302
15:46:55:093,16.433,-1.714,-2.510,-0.015,15.760,-9.818,-54.675
15:46:55:148,16.489,-0.356,-1.707,0.465,17.584,-9.569,-51.447
15:46:55:149,16.490,-0.444,-1.120,-0.114,15.125,-7.128,-44.059
15:46:55:2,16.541,-0.552,-0.830,-0.109,12.895,-4.858,-38.345
15:46:55:201,16.542,-0.656,-0.539,0.194,8.681,-2.424,-28.077
15:46:55:224,16.565,-0.772,-0.123,0.144,5.471,-1.180,-20.130
15:46:55:25,16.591,-0.415,0.525,0.215,0.211,0.647,-7.029
15:46:55:276,16.617,0.096,1.350,0.647,-4.750,1.668,5.892
15:46:55:332,16.672,0.921,1.600,0.678,-8.019,1.328,14.783
15:46:55:332,16.673,3.414,0.807,0.655,-12.933,-1.326,27.095
15:46:55:356,16.697,3.905,-0.814,1.274,-15.084,-3.577,32.897
15:46:55:381,16.722,4.474,-1.322,0.180,-16.055,-7.677,34.893
15:46:55:408,16.748,-2.566,2.552,1.665,-13.660,-9.580,31.378
15:46:55:434,16.774,1.782,1.147,0.137,-11.320,-9.913,23.247
15:46:55:46,16.801,0.943,0.312,0.186,-10.945,-11.595,17.155
15:46:55:487,16.827,0.217,-0.297,0.142,-9.382,-12.281,14.345
15:46:55:512,16.853,-0.045,-0.037,0.287,-8.300,-11.529,11.469
15:46:55:54,16.880,-0.298,0.142,-0.027,-8.691,-10.668,10.330
15:46:55:565,16.906,0.227,-0.060,-0.263,-8.749,-10.500,9.121
15:46:55:593,16.933,0.152,-0.024,-0.160,-8.592,-10.141,7.709
15:46:55:618,16.958,-0.129,0.102,-0.037,-8.635,-9.048,6.586
15:46:55:644,16.984,-0.009,0.080,-0.136,-8.464,-7.653,4.943
15:46:55:67,17.011,0.048,0.035,-0.126,-8.047,-6.873,3.839
15:46:55:696,17.037,-0.155,0.107,-0.031,-7.368,-5.487,2.041
15:46:55:723,17.063,-0.210,0.115,0.042,-6.946,-4.739,0.510
15:46:55:749,17.089,-0.204,0.269,0.030,-6.182,-4.020,-2.414
15:46:55:775,17.116,-0.437,0.339,0.092,-5.283,-3.252,-6.234
15:46:55:802,17.142,-0.593,0.505,-0.025,-4.594,-2.775,-9.542
15:46:55:827,17.168,-0.979,0.415,0.078,-2.605,-1.739,-15.938
15:46:55:855,17.196,-2.185,0.331,-0.564,-0.814,-0.505,-20.953
15:46:55:88,17.221,-2.739,-0.554,-0.458,2.720,3.091,-29.442
15:46:55:907,17.247,-1.659,0.596,-0.701,9.610,6.214,-40.200
15:46:55:932,17.273,-2.053,-0.057,-1.402,13.513,7.955,-46.459
15:46:55:959,17.300,-1.973,-0.994,-1.156,19.898,8.977,-53.042
15:46:56:011,17.352,-0.755,-2.029,0.426,21.170,3.518,-50.945
15:46:56:067,17.408,-0.542,-1.506,0.171,19.652,2.733,-47.621
15:46:56:067,17.408,-0.298,-0.958,-0.288,15.178,2.456,-39.969
15:46:56:09,17.431,-0.390,-0.585,-0.233,11.137,2.420,-31.234
15:46:56:118,17.458,-0.440,-0.589,-0.060,8.828,2.124,-24.027
15:46:56:143,17.483,-0.584,-0.120,-0.195,4.779,2.173,-11.682
15:46:56:169,17.510,-0.499,0.260,-0.247,1.489,2.381,-2.961
15:46:56:195,17.535,0.722,1.179,-0.075,-4.115,2.358,9.473
15:46:56:221,17.562,2.353,1.511,0.430,-10.255,1.733,22.101
15:46:56:249,17.589,3.499,0.408,0.986,-14.282,1.285,29.208
15:46:56:274,17.615,4.360,-1.145,0.510,-18.050,-0.060,35.297
15:46:56:301,17.641,2.930,1.296,0.132,-16.878,-0.841,35.102
15:46:56:326,17.667,-2.900,1.497,1.610,-13.621,-2.084,29.839
15:46:56:353,17.694,1.186,0.665,-0.097,-12.707,-4.068,25.091
15:46:56:381,17.721,0.895,0.393,-0.535,-12.666,-6.627,19.400
15:46:56:406,17.746,0.081,-0.509,0.053,-10.549,-8.876,16.402
15:46:56:431,17.772,0.548,-0.109,0.156,-10.013,-8.988,14.826
15:46:56:487,17.827,-0.196,0.096,0.049,-10.355,-7.021,12.912
15:46:56:488,17.828,-0.228,-0.032,-0.126,-10.487,-6.639,12.181
15:46:56:539,17.880,0.381,0.047,-0.250,-10.383,-7.654,10.900
15:46:56:54,17.881,-0.103,0.020,-0.001,-10.432,-6.894,9.279
15:46:56:592,17.933,-0.044,0.058,0.054,-10.580,-6.056,8.069
15:46:56:593,17.934,-0.077,0.093,-0.085,-10.722,-5.118,6.122
15:46:56:645,17.985,-0.063,0.097,-0.046,-10.755,-4.475,4.626
15:46:56:645,17.985,-0.127,0.214,-0.008,-10.765,-3.142,2.064
15:46:56:668,18.008,-0.235,0.385,-0.011,-10.571,-1.846,-1.053
15:46:56:695,18.036,-0.314,0.346,0.110,-10.265,-0.745,-3.641
15:46:56:721,18.061,-0.601,0.523,0.102,-9.527,1.447,-8.647
15:46:56:746,18.087,-1.158,0.476,0.111,-8.592,3.259,-12.887
15:46:56:773,18.113,-2.132,0.156,-0.071,-6.320,6.472,-20.742
15:46:56:799,18.139,-2.057,-0.571,0.273,-3.782,11.186,-30.129
15:46:56:825,18.166,-1.739,0.915,-0.285,-1.124,14.277,-37.876
15:46:56:852,18.193,-2.552,-0.531,-0.994,2.660,16.790,-48.248
15:46:56:877,18.218,-1.728,-1.494,-0.239,5.975,18.756,-52.559
15:46:56:904,18.244,0.813,-2.339,-0.494,18.607,18.975,-55.936
15:46:56:93,18.271,-1.943,-0.624,-0.174,15.293,19.562,-53.440
15:46:56:958,18.298,-0.213,-1.523,0.521,14.016,20.573,-49.087
15:46:57:012,18.352,-0.596,-1.026,0.227,9.389,23.507,-40.719
15:46:57:012,18.353,-0.657,-0.792,0.518,6.716,25.686,-34.940
15:46:57:035,18.376,-0.338,-0.382,0.593,2.388,27.820,-24.497
15:46:57:062,18.402,-0.696,-0.157,0.713,-0.290,29.185,-16.108
15:46:57:087,18.428,-0.601,0.486,0.511,-5.188,31.822,-2.435
15:46:57:114,18.454,0.842,1.324,0.350,-10.432,33.719,10.843
15:46:57:14,18.480,2.213,1.721,-0.331,-14.447,34.645,19.816
15:46:57:168,18.508,4.018,-0.222,-1.032,-20.642,34.949,31.290
15:46:57:194,18.534,4.253,-1.346,-1.651,-22.961,34.091,35.518
15:46:57:219,18.559,0.333,-1.192,-1.331,-21.875,32.557,33.270
15:46:57:245,18.586,2.633,-1.203,-1.465,-19.703,32.167,30.592
15:46:57:274,18.615,0.382,-0.047,-0.239,-17.946,30.319,23.379
15:46:57:275,18.615,1.117,0.077,-0.360,-16.609,28.297,18.904
15:46:57:327,18.668,0.544,-0.108,-0.090,-15.221,27.440,17.276
15:46:57:328,18.668,0.130,-0.001,0.141,-14.576,28.545,15.099
15:46:57:408,18.749,-0.222,0.124,0.141,-14.802,29.474,14.229
15:46:57:409,18.749,0.015,0.009,-0.235,-14.812,29.500,13.191
15:46:57:41,18.750,0.027,-0.062,-0.087,-14.606,29.859,11.982
15:46:57:459,18.799,-0.042,0.113,-0.019,-14.869,30.961,10.998
15:46:57:46,18.800,-0.090,0.040,-0.061,-15.259,32.756,9.169
15:46:57:481,18.822,-0.137,0.127,-0.018,-15.202,33.979,7.729
15:46:57:508,18.848,-0.116,0.219,0.045,-14.886,35.639,5.269
15:46:57:535,18.876,-0.040,0.288,0.167,-14.448,36.556,3.292
15:46:57:561,18.901,-0.002,0.164,0.202,-13.871,37.982,-0.320
15:46:57:616,18.957,-0.168,0.346,0.384,-13.552,39.545,-4.762
15:46:57:616,18.957,-0.438,0.630,0.468,-13.390,40.870,-8.590
15:46:57:639,18.980,-0.712,0.351,0.888,-12.112,43.662,-15.784
15:46:57:665,19.006,-1.026,0.088,1.237,-10.903,46.830,-21.385
15:46:57:693,19.033,-1.307,0.010,1.168,-8.384,53.614,-31.769
15:46:57:719,19.059,-1.272,0.752,0.553,-4.922,58.082,-43.552
15:46:57:744,19.084,-3.022,-0.401,1.310,-3.832,61.286,-49.731
15:46:57:771,19.111,0.136,1.571,0.085,8.525,62.726,-55.960
15:46:57:796,19.137,-1.530,0.022,0.954,10.705,61.742,-53.925
15:46:57:824,19.165,0.147,-1.979,0.380,9.898,62.553,-50.949
15:46:57:849,19.190,-0.068,-1.220,0.330,7.210,63.382,-46.655
15:46:57:875,19.216,-0.190,-0.973,0.134,3.393,65.624,-39.188
15:46:57:93,19.271,0.040,-0.865,0.756,0.149,67.438,-29.656
15:46:57:931,19.272,-0.051,-0.380,0.669,-2.264,68.465,-21.876
15:46:57:983,19.323,0.005,0.116,0.618,-5.860,70.515,-9.067
15:46:57:984,19.324,0.304,0.818,0.468,-8.771,72.413,-0.538
15:46:58:006,19.347,1.034,1.347,-0.359,-14.099,75.640,12.264
15:46:58:059,19.400,2.125,1.279,-2.520,-21.007,77.865,24.300
15:46:58:117,19.458,2.373,-0.103,-3.469,-24.891,78.199,30.477
15:46:58:118,19.458,1.795,-0.913,-4.101,-26.605,76.545,33.795
15:46:58:119,19.459,0.763,1.948,2.947,-24.033,75.366,30.966
15:46:58:138,19.478,0.203,-0.176,-2.949,-22.371,75.393,24.750
15:46:58:193,19.533,-0.065,-0.119,-0.078,-21.102,73.754,21.386
15:46:58:194,19.534,0.480,-0.162,-0.700,-18.428,72.090,18.821
15:46:58:217,19.557,0.337,-0.008,-0.241,-17.402,73.017,16.571
15:46:58:272,19.612,0.094,0.068,0.014,-17.783,74.024,15.667
15:46:58:273,19.613,-0.057,0.041,0.106,-18.071,74.706,14.623
15:46:58:296,19.636,-0.081,0.004,-0.210,-18.079,74.802,13.927
15:46:58:321,19.662,0.064,0.075,-0.028,-18.046,75.879,12.664
15:46:58:348,19.688,-0.147,0.093,-0.005,-18.166,77.336,11.150
15:46:58:403,19.744,-0.184,0.019,0.070,-17.977,78.358,9.909
15:46:58:404,19.744,-0.083,0.120,0.080,-17.453,79.878,7.648
15:46:58:426,19.767,0.222,0.185,0.149,-16.928,80.879,5.879
15:46:58:453,19.793,0.200,0.260,0.150,-16.204,82.026,2.751
15:46:58:479,19.819,0.153,0.286,0.244,-15.753,82.748,0.312
15:46:58:505,19.846,0.112,0.519,0.342,-15.183,84.099,-4.296
15:46:58:532,19.872,0.146,0.561,0.820,-14.027,86.571,-10.487
15:46:58:587,19.927,0.092,0.459,1.191,-12.629,88.957,-15.668
15:46:58:588,19.928,-0.062,-0.009,2.428,-10.244,94.020,-25.009
15:46:58:61,19.951,-0.420,1.365,1.175,-8.807,97.924,-32.207
15:46:58:636,19.977,-0.767,0.519,1.445,-4.616,101.949,-43.386
15:46:58:692,20.032,-0.141,-1.320,0.730,-1.311,106.056,-51.097
15:46:58:692,20.033,-0.109,1.015,-1.674,7.708,107.566,-54.827
15:46:58:715,20.056,0.172,-1.096,2.115,9.220,109.009,-52.171
15:46:58:741,20.082,0.736,-1.536,0.316,10.680,110.623,-49.804
15:46:58:768,20.108,0.401,-1.139,0.457,6.645,113.925,-42.998
15:46:58:794,20.134,0.573,-0.791,0.460,1.846,117.601,-35.762
15:46:58:821,20.161,0.733,-0.488,0.262,-1.429,118.841,-29.818
15:46:58:847,20.187,0.822,-0.405,0.628,-5.776,120.478,-18.516
15:46:58:932,20.273,0.696,0.337,0.408,-8.384,122.166,-10.285
15:46:58:932,20.273,0.693,0.758,-0.190,-12.422,124.713,1.854
15:46:58:933,20.273,0.028,1.604,-1.424,-15.771,126.435,9.923
15:46:58:953,20.293,-0.463,1.141,-3.385,-22.464,128.703,21.440
15:46:58:978,20.318,-1.054,-0.601,-3.793,-28.060,129.079,30.398
15:46:59:004,20.344,-2.103,-0.824,-3.388,-28.860,127.372,32.843
15:46:59:03,20.371,3.036,1.417,1.454,-25.428,124.897,28.922
15:46:59:056,20.397,-0.813,0.847,-1.584,-24.187,123.231,26.420
15:46:59:084,20.424,-0.760,0.270,-0.896,-22.712,120.706,20.791
15:46:59:109,20.449,-0.164,-0.217,-0.548,-20.485,118.595,18.541
15:46:59:135,20.476,0.035,0.005,-0.390,-19.587,118.604,17.094
15:46:59:162,20.502,0.159,0.034,-0.002,-19.574,120.279,15.433
15:46:59:187,20.528,0.175,0.075,0.163,-19.672,120.799,14.812
15:46:59:216,20.556,-0.296,0.082,-0.129,-19.489,120.252,13.931
15:46:59:24,20.581,0.129,0.040,-0.074,-19.307,120.655,13.005
15:46:59:267,20.607,0.111,0.105,0.026,-19.377,122.173,11.323
15:46:59:293,20.633,-0.063,0.124,0.119,-19.263,123.401,9.307
15:46:59:319,20.659,0.102,0.137,0.037,-18.948,124.390,7.628
15:46:59:347,20.687,0.285,0.127,-0.032,-18.349,126.093,4.734
15:46:59:371,20.712,0.332,0.208,-0.061,-17.860,126.981,2.567
15:46:59:427,20.767,0.391,0.287,0.020,-17.411,127.995,-1.187
15:46:59:428,20.768,0.435,0.637,0.245,-17.060,129.510,-6.294
15:46:59:452,20.793,0.765,0.482,0.552,-16.252,131.280,-10.686
15:46:59:503,20.843,1.070,0.135,0.696,-14.304,135.013,-18.738
15:46:59:535,20.875,1.561,-0.188,1.692,-13.460,138.510,-24.791
15:46:59:536,20.876,0.744,1.183,0.966,-11.612,143.787,-36.098
15:46:59:536,20.877,0.932,0.224,2.095,-9.608,147.373,-46.587
15:46:59:584,20.925,0.856,-0.212,2.238,-7.318,149.615,-51.709
15:46:59:585,20.926,-1.626,-0.790,-0.389,4.368,150.141,-54.892
15:46:59:696,21.036,1.101,-2.312,0.552,3.558,151.116,-53.897
15:46:59:697,21.037,0.369,-1.426,0.096,3.658,152.658,-50.269
15:46:59:698,21.038,0.275,-1.057,0.263,1.842,154.161,-45.756
15:46:59:698,21.039,0.624,-0.893,0.052,-0.413,157.012,-38.315
15:46:59:713,21.053,0.794,-0.501,-0.223,-3.425,159.823,-28.535
15:46:59:768,21.109,0.867,-0.313,-0.223,-5.939,161.569,-20.751
15:46:59:769,21.110,0.776,0.204,-0.156,-9.766,163.758,-8.969
15:46:59:845,21.186,0.568,0.877,-0.542,-12.356,165.050,-0.814
15:46:59:906,21.246,-0.428,1.321,-1.191,-17.151,167.053,11.382
15:46:59:906,21.247,-2.660,1.039,-2.144,-23.424,168.184,22.668
15:46:59:907,21.247,-3.414,-0.122,-2.330,-26.732,166.926,28.943
15:46:59:907,21.248,-3.673,-1.266,-1.991,-27.358,163.129,33.514
15:46:59:923,21.263,0.158,-0.069,-0.360,-24.892,161.198,30.245
15:46:59:949,21.289,0.099,-0.630,-1.087,-22.169,160.136,26.524
15:46:59:975,21.316,-0.169,0.170,-0.232,-20.952,158.782,21.004
15:47:00:002,21.342,-0.756,0.081,-0.209,-20.155,158.004,18.559
15:47:00:028,21.368,-0.292,-0.084,-0.318,-18.702,157.252,16.498
15:47:00:084,21.424,-0.286,0.027,-0.344,-18.369,158.127,15.144
15:47:00:084,21.424,0.272,0.042,0.005,-18.355,159.634,14.074
15:47:00:107,21.447,-0.048,0.029,0.072,-18.086,159.607,13.471
15:47:00:133,21.473,-0.145,0.009,0.032,-17.458,159.510,12.305
15:47:00:19,21.530,0.138,0.040,-0.039,-17.197,160.912,10.494
15:47:00:19,21.530,0.102,0.009,0.005,-17.091,161.847,9.050
15:47:00:211,21.552,0.066,0.193,0.042,-16.920,163.045,6.565
15:47:00:238,21.578,0.091,0.167,-0.111,-16.566,164.061,4.563
15:47:00:264,21.605,0.308,0.185,-0.247,-15.843,165.603,1.242
15:47:00:349,21.690,0.345,0.327,-0.239,-15.066,166.419,-2.592
15:47:00:35,21.690,0.505,0.399,-0.156,-14.518,166.897,-5.669
15:47:00:35,21.691,0.841,0.598,-0.011,-13.414,168.009,-11.667
15:47:00:427,21.768,1.511,0.299,-0.053,-11.738,169.357,-16.707
15:47:00:428,21.769,2.683,-0.327,0.705,-9.294,172.679,-25.354
15:47:00:429,21.769,1.109,1.227,0.780,-8.146,175.084,-32.557
15:47:00:448,21.788,1.449,0.719,0.338,-3.923,177.140,-43.830
15:47:00:503,21.843,1.405,-0.488,1.321,-1.304,179.041,-52.670
15:47:00:504,21.844,-1.817,1.784,-0.758,3.984,179.042,-56.859
15:47:00:527,21.867,2.293,-1.165,0.676,5.848,177.113,-54.504
15:47:00:582,21.922,0.230,-1.585,-0.330,8.337,176.887,-52.440
15:47:00:583,21.923,0.531,-1.221,0.034,8.605,177.858,-45.919
15:47:00:606,21.946,0.672,-0.920,0.054,6.414,-179.769,-37.732
15:47:00:631,21.972,0.685,-0.608,-0.162,4.159,-178.793,-31.410
15:47:00:658,21.998,0.579,-0.291,-0.121,0.082,-178.637,-20.537
15:47:00:713,22.054,0.748,0.045,-0.195,-2.778,-178.721,-12.064
15:47:00:714,22.054,0.245,1.006,-0.334,-7.536,-179.108,1.415
15:47:00:737,22.077,-0.237,1.361,-0.532,-10.754,-179.804,10.335
15:47:00:763,22.103,-2.761,1.580,-0.477,-16.313,178.436,23.358
15:47:00:789,22.130,-3.931,-0.647,-1.017,-21.034,176.532,33.689
15:47:00:815,22.156,-4.423,-1.397,-0.542,-22.560,175.125,37.065
15:47:00:9,22.240,2.063,1.178,-1.104,-20.307,173.856,33.071
15:47:00:9,22.241,-2.899,-0.820,-0.311,-18.048,173.015,29.740
15:47:00:902,22.242,-0.449,0.467,0.177,-16.223,169.297,22.541
15:47:00:921,22.261,-0.182,-0.383,-0.308,-15.624,167.637,17.610
15:47:00:946,22.287,-0.338,-0.118,-0.472,-14.591,167.443,15.776
15:47:00:974,22.315,0.001,0.052,-0.116,-14.278,168.908,13.492
15:47:00:999,22.340,0.144,0.113,-0.091,-14.571,170.075,12.718
15:47:01:025,22.366,-0.012,-0.033,0.088,-14.512,170.239,11.726
15:47:01:081,22.421,-0.100,0.015,0.060,-14.400,169.926,10.923
15:47:01:081,22.422,0.125,0.085,-0.076,-14.620,171.096,9.320
15:47:01:106,22.446,0.084,0.090,-0.015,-14.682,172.648,7.395
15:47:01:131,22.471,0.043,0.119,0.016,-14.585,173.469,6.080
15:47:01:157,22.497,0.136,0.110,-0.057,-14.209,174.997,3.724
15:47:01:183,22.523,0.240,0.185,-0.251,-13.889,176.038,1.995
15:47:01:238,22.578,0.252,0.269,-0.220,-13.296,176.971,-1.087
15:47:01:239,22.579,0.443,0.441,-0.184,-12.510,177.694,-5.142
15:47:01:262,22.602,0.637,0.600,-0.129,-11.986,178.193,-8.836
15:47:01:318,22.658,1.134,0.363,-0.253,-10.078,179.644,-16.087
15:47:01:318,22.658,2.445,0.124,0.333,-8.458,-178.716,-21.946
15:47:01:341,22.681,1.531,0.413,0.522,-6.306,-174.910,-32.188
15:47:01:367,22.707,1.448,0.763,0.089,-1.312,-172.992,-43.364
15:47:01:451,22.792,2.335,-0.200,1.010,0.855,-172.419,-49.012
15:47:01:452,22.792,-0.646,0.214,0.076,7.461,-172.718,-53.629
15:47:01:453,22.793,-0.241,0.383,1.188,8.576,-173.659,-54.079
15:47:01:472,22.812,0.028,-1.938,-0.273,12.222,-174.345,-51.278
15:47:01:498,22.838,0.435,-1.209,-0.108,11.092,-174.346,-47.079
15:47:01:525,22.865,0.316,-0.959,0.162,8.685,-173.717,-39.782
15:47:01:551,22.891,0.469,-0.787,-0.090,5.642,-173.145,-30.276
15:47:01:577,22.917,0.574,-0.562,-0.016,3.095,-172.733,-22.848
15:47:01:603,22.943,0.628,-0.186,0.128,-1.668,-172.026,-10.684
15:47:01:659,22.999,0.218,0.528,-0.235,-4.871,-171.614,-2.885
15:47:01:659,23.000,-0.324,0.932,-0.348,-10.411,-171.057,8.997
15:47:01:681,23.022,-2.214,1.338,-0.326,-16.698,-171.938,20.726
15:47:01:767,23.108,-3.471,0.584,-0.915,-20.753,-173.176,28.348
15:47:01:767,23.108,-4.564,-0.771,0.227,-24.885,-176.531,35.869
15:47:01:767,23.108,-3.640,0.193,-0.286,-24.472,-178.644,35.354
15:47:01:813,23.154,2.590,1.214,-1.979,-20.518,179.622,30.504
15:47:01:846,23.186,-0.836,0.983,0.109,-18.361,176.246,23.684
15:47:01:846,23.187,-1.367,0.462,-0.222,-18.240,174.868,20.337
15:47:01:847,23.188,-0.214,-0.163,-0.197,-16.436,174.084,17.262
15:47:01:891,23.232,-0.193,0.056,-0.197,-15.951,174.927,15.301
15:47:01:922,23.262,0.036,0.055,-0.172,-16.408,176.741,13.571
15:47:01:922,23.263,0.049,-0.013,-0.034,-16.609,177.099,12.882
15:47:01:974,23.314,-0.264,0.037,0.132,-16.555,176.506,11.918
15:47:01:975,23.315,0.129,0.060,-0.050,-16.785,177.258,10.701
15:47:02:025,23.366,0.158,0.042,-0.109,-16.934,177.873,9.636
15:47:02:027,23.367,0.007,0.084,0.040,-16.786,178.263,7.718
15:47:02:049,23.390,0.055,0.122,-0.055,-16.620,178.632,6.112
15:47:02:076,23.416,0.135,0.167,-0.247,-16.251,179.475,3.433
15:47:02:101,23.442,0.136,0.210,-0.285,-15.913,-179.867,0.330
15:47:02:128,23.469,0.183,0.268,-0.237,-15.815,-179.282,-2.044
15:47:02:154,23.494,0.359,0.406,-0.250,-15.627,-177.659,-6.514
15:47:02:209,23.550,0.608,0.456,-0.254,-15.249,-176.004,-10.264
15:47:02:21,23.550,1.330,0.410,-0.129,-13.884,-172.946,-17.311
15:47:02:233,23.573,2.288,0.005,-0.099,-12.755,-170.463,-23.179
15:47:02:318,23.658,1.354,0.683,0.152,-10.796,-165.899,-33.351
15:47:02:318,23.659,1.419,0.490,0.148,-5.985,-162.622,-43.917
15:47:02:319,23.659,1.331,-0.898,0.454,-4.050,-160.825,-49.214
15:47:02:338,23.678,-0.317,-0.222,0.055,2.723,-158.060,-53.488
15:47:02:505,23.846,1.675,-1.872,-0.609,5.190,-156.480,-53.262
15:47:02:506,23.846,0.283,-1.686,-0.727,7.591,-152.737,-50.874
15:47:02:506,23.847,0.421,-1.201,-0.451,3.627,-148.748,-45.650
15:47:02:507,23.848,0.420,-0.889,-0.589,-0.442,-146.458,-41.558
15:47:02:527,23.868,0.202,-0.529,-0.894,-6.767,-144.368,-33.756
15:47:02:528,23.868,0.300,-0.380,-0.818,-10.320,-143.595,-27.160
15:47:02:529,23.869,0.164,0.122,-0.818,-14.278,-142.806,-15.313
15:47:02:578,23.919,-0.149,0.608,-0.939,-16.253,-142.121,-6.858
15:47:02:578,23.919,-1.043,1.353,-0.534,-19.386,-139.808,6.358
15:47:02:629,23.970,-2.438,2.146,1.350,-23.915,-136.312,18.420
15:47:02:63,23.971,-3.546,-0.635,1.558,-26.462,-133.687,23.215
15:47:02:653,23.994,-3.377,-0.769,1.808,-28.678,-131.463,25.056
15:47:02:681,24.021,0.795,0.822,-3.322,-26.745,-132.499,22.429
15:47:02:705,24.046,-1.367,0.582,1.232,-25.156,-134.118,17.341
15:47:02:761,24.101,0.008,0.030,0.127,-23.604,-136.817,13.828
15:47:02:761,24.102,-0.606,-0.130,0.333,-22.402,-137.798,12.438
15:47:02:784,24.125,-0.190,0.062,-0.264,-21.869,-136.750,10.255
15:47:02:869,24.209,0.115,0.132,-0.223,-22.124,-135.889,9.232
15:47:02:869,24.210,0.067,0.071,0.165,-22.242,-135.699,8.076
15:47:02:87,24.211,-0.058,0.061,-0.035,-22.133,-134.622,6.351
15:47:03:056,24.396,0.043,0.086,-0.097,-22.121,-133.197,4.864
15:47:03:057,24.397,0.150,-0.015,-0.107,-21.920,-131.038,2.580
15:47:03:057,24.398,0.131,-0.018,-0.162,-21.543,-129.624,1.020
15:47:03:058,24.399,0.100,0.220,-0.199,-21.026,-128.038,-1.349
15:47:03:082,24.422,-0.050,0.150,-0.192,-20.546,-127.183,-3.172
15:47:03:083,24.423,-0.011,0.074,-0.381,-19.808,-125.545,-6.426
15:47:03:083,24.423,0.057,0.283,-0.442,-19.419,-124.113,-10.346
15:47:03:187,24.527,0.294,0.220,-0.917,-18.116,-121.246,-19.800
15:47:03:188,24.528,0.949,-0.065,-1.739,-17.005,-119.294,-24.479
15:47:03:188,24.529,0.921,-0.168,-1.631,-14.835,-114.137,-33.504
15:47:03:189,24.530,0.643,0.528,-1.332,-11.151,-109.409,-44.083
15:47:03:204,24.544,2.107,0.449,-1.649,-9.762,-106.554,-50.415
15:47:03:26,24.600,1.456,-1.534,-1.525,-2.414,-104.253,-55.453
15:47:03:26,24.601,0.365,-0.329,1.326,4.067,-102.968,-55.618
15:47:03:283,24.624,-0.275,-2.818,-1.013,4.741,-102.119,-53.986
15:47:03:309,24.650,-0.116,-1.099,-0.406,3.724,-101.318,-50.569
15:47:03:364,24.705,0.129,-0.895,-0.418,0.763,-99.738,-43.615
15:47:03:365,24.706,-0.006,-0.787,-0.823,-2.102,-98.178,-34.739
15:47:03:417,24.757,-0.089,-0.420,-0.615,-4.251,-97.094,-27.595
15:47:03:418,24.758,-0.180,-0.110,-0.596,-7.580,-94.794,-15.895
15:47:03:441,24.781,-0.381,0.552,-0.535,-9.947,-92.881,-8.192
15:47:03:466,24.807,-0.648,0.976,-0.012,-14.372,-89.371,3.627
15:47:03:493,24.833,-1.001,1.535,1.675,-20.811,-86.028,14.853
15:47:03:521,24.861,-1.783,0.629,3.164,-24.973,-84.921,21.374
15:47:03:546,24.887,-0.824,-0.574,4.102,-28.336,-85.938,27.835
15:47:03:572,24.912,-1.297,-0.612,2.758,-27.280,-87.041,27.876
15:47:03:598,24.938,-0.728,0.874,-3.429,-24.822,-89.184,23.919
15:47:03:624,24.965,0.072,0.728,2.369,-24.123,-89.422,21.257
15:47:03:65,24.991,-0.635,0.761,1.337,-23.743,-92.351,16.347
15:47:03:678,25.018,-0.058,-0.518,0.468,-21.739,-94.549,14.596
15:47:03:703,25.043,-0.199,-0.079,0.330,-21.224,-94.763,13.489
15:47:03:729,25.070,-0.116,-0.022,-0.225,-21.312,-92.554,11.800
15:47:03:756,25.096,-0.081,0.043,-0.270,-21.517,-91.722,11.241
15:47:03:811,25.151,0.158,0.096,0.140,-21.454,-91.784,10.487
15:47:03:812,25.152,0.060,0.043,-0.130,-21.211,-91.075,9.625
15:47:03:834,25.174,-0.042,0.044,-0.124,-21.021,-88.820,7.555
15:47:03:86,25.201,-0.012,0.090,-0.232,-20.828,-86.727,5.153
15:47:03:887,25.228,-0.064,0.128,-0.132,-20.569,-85.598,3.286
15:47:03:942,25.282,-0.198,0.050,-0.178,-19.739,-83.783,0.200
15:47:03:943,25.283,-0.250,0.154,-0.184,-19.312,-82.718,-1.886
15:47:03:965,25.306,-0.246,0.157,-0.225,-18.835,-81.393,-5.408
15:47:03:992,25.332,-0.164,0.447,-0.293,-18.531,-80.037,-9.668
15:47:04:018,25.358,-0.309,0.447,-0.593,-18.038,-78.651,-13.267
15:47:04:047,25.387,-0.529,0.137,-0.937,-16.341,-75.775,-19.974
15:47:04:048,25.388,-0.359,0.165,-1.649,-15.136,-73.156,-25.305
15:47:04:097,25.438,-0.406,-0.297,-1.382,-13.418,-68.180,-34.286
15:47:04:123,25.464,-0.219,0.892,-1.475,-10.163,-63.804,-45.302
15:47:04:152,25.492,0.283,0.184,-2.556,-8.400,-61.182,-51.818
15:47:04:153,25.493,-0.166,-1.016,-1.167,0.346,-57.589,-58.465
15:47:04:234,25.575,0.604,-0.955,-0.158,11.667,-57.480,-60.308
15:47:04:235,25.576,-0.810,-2.996,0.090,11.273,-54.638,-57.727
15:47:04:236,25.576,-0.659,-1.394,-0.231,10.518,-52.305,-52.528
15:47:04:283,25.624,-0.359,-1.150,-0.450,8.097,-49.843,-47.726
15:47:04:284,25.624,-0.830,-0.760,-0.467,3.623,-46.565,-40.069
15:47:04:308,25.648,-0.771,-0.552,-0.252,0.315,-45.419,-33.716
15:47:04:333,25.673,-0.744,-0.166,-0.406,-4.484,-43.578,-22.542
15:47:04:359,25.700,-0.706,0.458,-0.148,-7.707,-42.157,-14.163
15:47:04:386,25.726,-0.539,0.961,0.358,-12.256,-40.040,-2.061
15:47:04:413,25.754,0.380,1.652,1.878,-17.202,-36.685,10.019
15:47:04:439,25.780,0.995,1.305,2.912,-20.758,-34.611,17.509
15:47:04:464,25.805,2.578,-0.402,3.426,-24.587,-34.568,25.704
15:47:04:491,25.831,1.714,-1.125,3.195,-24.028,-36.408,27.134
15:47:04:517,25.857,-2.556,0.868,-2.163,-21.503,-40.991,23.982
15:47:04:543,25.883,0.690,-1.017,1.676,-20.654,-41.528,21.426
15:47:04:57,25.911,1.456,1.067,1.917,-20.539,-43.865,15.444
15:47:04:595,25.936,0.040,-0.380,0.306,-18.354,-45.331,12.297
15:47:04:622,25.962,-0.113,0.098,0.093,-17.566,-45.510,10.864
15:47:04:648,25.988,-0.185,0.076,-0.074,-17.212,-43.587,8.553
15:47:04:674,26.015,-0.098,0.009,-0.151,-17.029,-43.079,7.751
15:47:04:702,26.042,0.137,0.020,-0.049,-16.538,-43.473,6.560
15:47:04:727,26.067,-0.023,0.005,-0.017,-16.299,-42.523,4.760
15:47:04:753,26.093,-0.038,0.068,-0.122,-16.274,-41.410,3.349
15:47:04:838,26.178,-0.069,0.083,-0.041,-15.861,-39.996,1.267
15:47:04:838,26.179,-0.065,0.043,-0.018,-15.401,-39.223,-0.116
15:47:04:839,26.180,-0.244,0.083,-0.064,-14.821,-37.950,-2.212
15:47:04:858,26.199,-0.277,0.183,-0.030,-14.217,-37.024,-4.892
15:47:04:884,26.225,-0.377,0.350,-0.160,-13.816,-36.594,-7.109
15:47:04:911,26.251,-0.544,0.595,-0.307,-13.197,-35.450,-11.589
15:47:04:937,26.277,-0.938,0.448,-0.354,-12.351,-34.145,-15.510
15:47:04:992,26.333,-1.384,0.189,-0.767,-9.755,-31.361,-22.847
15:47:04:993,26.334,-1.917,-0.566,-1.420,-7.186,-28.546,-28.853
15:47:05:016,26.356,-0.852,0.954,-1.216,-4.218,-23.885,-39.397
15:47:05:072,26.412,-1.249,0.402,-1.785,1.227,-21.642,-48.945
15:47:05:072,26.413,-0.640,-1.006,-1.197,4.566,-20.449,-53.042
15:47:05:124,26.464,1.319,-1.005,-0.202,14.305,-19.871,-55.647
15:47:05:124,26.464,-0.499,-2.545,0.322,13.539,-18.855,-54.758
15:47:05:147,26.487,-0.533,-1.565,0.348,15.561,-17.181,-50.861
15:47:05:173,26.513,-0.375,-1.088,-0.112,12.299,-14.254,-44.147
15:47:05:199,26.540,-0.512,-0.784,-0.096,9.190,-12.356,-39.129
15:47:05:225,26.566,-0.703,-0.754,0.139,4.057,-11.137,-29.936
15:47:05:252,26.592,-0.649,-0.398,-0.059,0.433,-10.814,-22.785
15:47:05:278,26.618,-0.664,0.024,-0.119,-4.721,-10.417,-10.580
15:47:05:304,26.644,-0.322,0.866,0.377,-7.761,-10.093,-2.458
15:47:05:331,26.671,0.435,1.271,0.759,-12.752,-9.304,10.251
15:47:05:357,26.697,2.623,1.519,1.436,-18.560,-9.100,22.627
15:47:05:383,26.723,3.659,-0.560,1.937,-21.937,-9.414,28.519
15:47:05:41,26.750,3.549,-1.369,1.608,-22.900,-10.908,30.727
15:47:05:435,26.776,-3.312,1.457,1.519,-20.240,-12.935,27.817
15:47:05:462,26.802,3.126,0.074,0.682,-18.160,-14.880,21.942
15:47:05:488,26.828,0.056,-0.094,-0.023,-16.712,-16.791,17.540
15:47:05:572,26.913,0.799,-0.182,0.308,-15.391,-17.525,15.522
15:47:05:573,26.914,0.110,0.008,0.262,-14.273,-16.207,13.097
15:47:05:574,26.914,-0.115,0.005,0.159,-14.450,-15.051,12.205
15:47:05:593,26.934,-0.163,-0.005,-0.117,-14.407,-14.587,11.179
15:47:05:619,26.960,0.282,0.022,-0.149,-14.156,-14.905,10.364
15:47:05:645,26.986,-0.018,-0.012,-0.015,-13.875,-13.568,8.689
15:47:05:672,27.012,-0.107,0.151,-0.010,-13.597,-12.043,6.932
15:47:05:698,27.038,0.007,0.104,-0.150,-13.154,-11.429,5.765
15:47:05:725,27.066,-0.058,0.014,-0.026,-12.367,-10.055,3.747
15:47:05:75,27.091,-0.230,0.125,0.086,-11.870,-9.036,2.284
15:47:05:777,27.117,-0.136,0.175,0.125,-10.981,-8.223,-0.327
15:47:05:803,27.143,-0.349,0.234,0.100,-10.044,-7.671,-3.593
15:47:05:829,27.170,-0.417,0.556,-0.036,-9.374,-7.244,-6.327
15:47:05:857,27.198,-0.590,0.494,0.025,-8.005,-6.380,-11.629
15:47:05:882,27.222,-1.411,0.458,-0.163,-6.415,-5.350,-15.959
15:47:05:909,27.250,-2.316,0.136,-0.618,-3.151,-2.931,-24.276
15:47:05:934,27.275,-1.507,-0.061,-0.705,0.443,0.211,-33.772
15:47:05:961,27.301,-1.275,0.268,-0.338,4.595,1.506,-40.968
15:47:05:987,27.327,-1.653,-0.518,-1.241,10.576,3.303,-49.269
15:47:06:013,27.353,-1.571,-1.564,-0.669,13.366,3.820,-52.303
15:47:06:041,27.381,-0.644,-0.357,-0.802,17.917,2.442,-53.154
15:47:06:092,27.432,-0.419,-1.283,0.157,18.484,2.060,-46.739
15:47:06:118,27.458,-0.601,-0.963,-0.108,14.153,4.055,-38.970
15:47:06:174,27.514,-0.506,-0.649,0.057,10.651,4.962,-33.193
15:47:06:174,27.514,-0.556,-0.381,0.016,5.481,4.729,-23.220
15:47:06:198,27.539,-0.701,-0.023,0.029,2.076,4.303,-15.485
15:47:06:225,27.565,-0.397,0.405,0.152,-2.743,3.723,-2.959
15:47:06:25,27.591,0.432,1.264,0.232,-7.959,1.966,9.512
15:47:06:276,27.616,1.941,1.602,0.305,-11.611,0.182,17.812
15:47:06:302,27.642,3.472,0.278,0.850,-16.515,-2.503,29.583
15:47:06:328,27.668,4.252,-0.860,0.492,-19.177,-3.978,34.786
15:47:06:357,27.698,3.697,0.936,0.176,-19.972,-4.573,34.980
15:47:06:357,27.698,-0.599,0.249,1.443,-16.324,-4.165,29.006
15:47:06:41,27.750,1.579,0.832,0.100,-14.709,-5.614,24.384
15:47:06:41,27.751,0.957,0.303,-0.187,-13.674,-8.639,19.079
15:47:06:46,27.800,0.505,-0.138,0.196,-12.729,-10.209,16.778
15:47:06:488,27.829,0.414,0.141,0.280,-11.674,-10.474,14.240
15:47:06:489,27.830,-0.150,0.000,0.033,-11.800,-8.933,13.071
15:47:06:541,27.881,-0.289,0.090,0.033,-12.278,-7.235,12.112
15:47:06:541,27.882,0.279,0.061,-0.176,-12.263,-7.911,11.212
15:47:06:564,27.905,0.219,0.016,-0.084,-12.181,-7.885,10.361
15:47:06:591,27.931,-0.195,0.104,0.117,-12.338,-6.158,8.837
15:47:06:617,27.957,-0.043,0.101,-0.069,-12.455,-5.435,7.727
15:47:06:672,28.013,0.027,0.074,-0.085,-12.271,-4.881,5.856
15:47:06:673,28.013,-0.148,0.052,0.073,-12.014,-3.685,3.757
15:47:06:696,28.036,-0.170,0.056,0.142,-11.705,-2.863,2.277
15:47:06:721,28.062,-0.189,0.185,0.041,-11.223,-2.214,-0.271
15:47:06:748,28.089,-0.223,0.284,-0.003,-10.902,-1.932,-2.333
15:47:06:776,28.116,-0.358,0.504,0.081,-10.194,-1.160,-6.349
15:47:06:801,28.142,-0.770,0.486,0.225,-8.641,0.454,-11.667
15:47:06:827,28.167,-1.198,0.490,0.009,-7.182,1.923,-15.982
15:47:06:882,28.223,-2.173,0.019,-0.344,-4.326,4.934,-24.430
15:47:06:883,28.224,-1.254,0.349,-0.460,-2.469,7.125,-30.650
15:47:06:906,28.246,-1.137,0.722,-0.087,3.479,9.683,-40.961
15:47:06:933,28.273,-1.647,-0.851,-0.784,6.423,11.041,-46.099
15:47:06:958,28.299,-0.629,0.338,0.081,10.924,11.536,-50.260
15:47:06:984,28.325,-1.738,-0.503,-0.261,11.302,10.690,-49.709
15:47:07:011,28.351,-0.208,-1.931,0.417,12.644,11.071,-47.662
15:47:07:037,28.377,-0.251,-1.267,0.340,10.870,12.922,-41.795
15:47:07:063,28.404,-0.465,-1.072,0.131,8.606,14.946,-36.903
15:47:07:089,28.429,-0.522,-0.651,0.487,4.283,17.039,-28.492
15:47:07:146,28.486,-0.521,-0.353,0.463,-0.108,18.004,-18.167
15:47:07:146,28.486,-0.560,0.043,0.420,-2.982,18.653,-10.205
15:47:07:198,28.538,-0.201,0.819,0.629,-7.320,18.860,2.065
15:47:07:198,28.539,0.933,1.775,0.320,-10.491,18.633,10.550
15:47:07:222,28.562,2.307,1.771,-0.117,-15.752,17.409,23.444
15:47:07:248,28.589,3.692,-0.208,-0.294,-19.136,15.852,31.390
15:47:07:274,28.614,4.123,-1.399,-1.256,-22.901,13.299,38.335
15:47:07:299,28.640,1.635,-0.593,-0.394,-20.905,12.955,33.900
15:47:07:326,28.666,-2.446,1.360,2.491,-17.895,13.167,30.750
15:47:07:439,28.780,1.648,0.338,-0.332,-15.888,9.345,25.850
15:47:07:44,28.781,0.623,0.397,-0.458,-15.102,7.116,22.963
15:47:07:441,28.781,0.413,-0.419,0.074,-13.768,4.805,19.813
15:47:07:442,28.782,0.610,0.044,0.054,-13.186,4.659,17.209
15:47:07:458,28.798,0.097,0.050,0.044,-13.482,5.850,16.009
15:47:07:483,28.824,-0.257,0.088,0.129,-13.822,6.802,15.002
15:47:07:509,28.850,0.012,-0.003,0.058,-13.715,6.417,14.318
15:47:07:535,28.876,0.238,0.019,-0.239,-13.637,5.981,13.171
15:47:07:563,28.903,-0.049,0.041,0.052,-13.714,6.797,12.072
15:47:07:619,28.959,-0.025,0.041,0.069,-13.721,7.723,10.312
15:47:07:619,28.959,0.069,0.084,-0.085,-13.501,7.972,8.562
15:47:07:641,28.981,0.067,0.124,-0.135,-13.429,8.468,7.263
15:47:07:696,29.037,-0.062,0.117,0.211,-13.287,9.838,5.155
15:47:07:697,29.037,-0.126,0.181,0.240,-13.246,10.668,3.593
15:47:07:719,29.059,-0.191,0.243,0.123,-13.057,11.730,0.622
15:47:07:745,29.086,-0.227,0.516,0.084,-12.595,12.816,-3.473
15:47:07:772,29.112,-0.394,0.550,0.251,-11.825,14.018,-6.969
15:47:07:798,29.138,-1.292,0.633,0.320,-9.999,16.971,-13.616
15:47:07:825,29.166,-1.872,0.464,0.418,-8.122,19.647,-19.458
15:47:07:851,29.191,-1.123,-0.376,0.213,-5.020,23.881,-29.126
15:47:07:877,29.217,-0.828,0.442,0.256,-2.721,27.003,-36.147
15:47:07:932,29.273,-1.991,0.145,-0.271,3.443,30.207,-44.340
15:47:07:933,29.273,-0.699,-0.876,0.216,7.522,32.643,-48.246
15:47:07:956,29.296,0.170,0.440,-1.582,10.990,34.274,-49.159
15:47:07:981,29.322,-0.131,-1.610,0.723,12.258,37.575,-47.278
15:47:08:008,29.349,-0.104,-1.080,0.739,10.641,40.065,-44.422
15:47:08:035,29.375,-0.197,-0.966,0.615,5.868,43.372,-38.951
15:47:08:087,29.428,-0.209,-0.727,1.000,-0.120,45.150,-31.548
15:47:08:145,29.486,-0.207,-0.286,0.796,-3.302,45.857,-25.392
15:47:08:146,29.486,-0.248,0.000,0.780,-6.468,47.623,-14.308
15:47:08:147,29.487,0.108,0.355,0.778,-8.285,49.366,-6.583
15:47:08:195,29.535,0.602,1.058,0.354,-12.054,51.981,4.768
15:47:08:195,29.536,1.954,1.464,-1.197,-17.485,53.129,16.125
15:47:08:247,29.588,3.140,1.114,-1.763,-21.493,52.564,23.080
15:47:08:248,29.588,2.895,-0.908,-3.428,-23.589,49.172,28.976
15:47:08:33,29.670,1.091,1.056,0.715,-22.269,46.959,28.172
15:47:08:33,29.670,1.396,-0.023,-1.569,-20.493,44.648,23.421
15:47:08:33,29.671,0.326,-0.351,-0.179,-19.157,42.905,17.876
15:47:08:38,29.720,0.388,0.073,-0.375,-18.225,42.954,15.494
15:47:08:38,29.721,0.246,0.093,0.111,-17.892,44.261,12.449
15:47:08:402,29.743,0.137,0.081,0.220,-18.319,44.996,11.123
15:47:08:428,29.768,0.080,0.078,-0.261,-18.501,45.058,9.604
15:47:08:455,29.796,0.065,0.066,-0.017,-18.447,45.177,8.674
15:47:08:48,29.821,0.034,0.092,0.062,-18.635,46.271,7.233
15:47:08:507,29.847,0.023,0.085,0.004,-18.820,47.746,5.573
15:47:08:533,29.874,-0.007,0.085,0.000,-18.818,48.921,4.389
15:47:08:559,29.900,-0.021,0.042,0.036,-18.631,50.970,2.465
15:47:08:586,29.927,-0.027,0.013,0.025,-18.437,52.135,1.221
15:47:08:615,29.955,-0.047,0.096,0.042,-18.173,53.613,-0.749
15:47:08:615,29.956,-0.003,0.070,0.215,-17.791,54.994,-3.052
15:47:08:667,30.007,-0.001,0.049,0.249,-17.556,55.728,-4.796
15:47:08:691,30.031,-0.047,0.205,0.320,-17.137,56.436,-7.936
15:47:08:719,30.060,-0.016,0.423,0.530,-16.794,56.881,-10.588
15:47:08:72,30.061,-0.120,0.308,0.758,-15.982,57.908,-15.662
15:47:08:743,30.083,-0.648,0.345,1.214,-15.251,59.147,-19.669
15:47:08:829,30.169,-0.742,-0.312,1.400,-13.195,63.530,-27.469
15:47:08:829,30.169,-0.828,1.248,0.832,-10.289,68.720,-37.380
15:47:08:829,30.169,-0.878,0.748,0.982,-8.014,70.793,-43.424
15:47:08:849,30.189,-1.040,-0.651,0.648,-2.995,74.699,-49.785
15:47:08:874,30.215,-0.002,-0.533,-1.161,2.931,76.842,-51.833
15:47:08:9,30.241,-0.896,-0.251,1.055,7.511,79.435,-51.073
15:47:08:927,30.267,0.387,-1.689,0.780,9.436,83.049,-47.487
15:47:08:982,30.322,0.273,-1.096,0.559,7.010,85.272,-43.639
15:47:08:983,30.323,0.014,-0.681,0.584,2.020,88.024,-36.900
15:47:09:006,30.347,0.209,-0.589,0.583,-1.336,89.141,-31.169
15:47:09:032,30.372,0.251,-0.286,0.627,-5.875,90.408,-20.324
15:47:09:087,30.428,0.330,-0.120,0.578,-8.658,91.709,-12.251
15:47:09:088,30.428,0.501,0.566,0.395,-13.282,93.428,-0.495
15:47:09:138,30.478,0.809,1.403,-1.088,-18.567,94.166,11.393
15:47:09:191,30.531,1.035,1.151,-2.556,-22.326,94.498,19.245
15:47:09:222,30.563,0.518,-0.373,-3.728,-27.389,93.934,28.475
15:47:09:223,30.563,0.771,-1.176,-3.112,-27.902,93.241,30.201
15:47:09:244,30.584,1.472,-0.615,0.590,-23.029,91.185,22.510
15:47:09:326,30.667,-0.157,1.090,-1.669,-22.534,88.485,19.128
15:47:09:327,30.668,-0.112,0.037,0.424,-21.032,85.896,16.549
15:47:09:328,30.668,0.054,0.003,-0.497,-20.025,84.997,15.616
15:47:09:347,30.687,0.233,0.015,-0.101,-19.578,85.783,13.905
15:47:09:402,30.742,0.115,-0.022,0.085,-19.736,86.820,13.271
15:47:09:403,30.743,0.096,0.058,0.228,-19.925,87.252,12.732
15:47:09:426,30.766,-0.006,-0.003,-0.188,-19.951,87.010,12.151
15:47:09:452,30.792,0.029,-0.013,0.038,-20.012,87.925,11.437
15:47:09:478,30.819,0.116,0.016,0.072,-20.279,89.559,10.194
15:47:09:533,30.874,-0.019,0.110,0.092,-20.431,90.180,9.339
15:47:09:534,30.874,-0.022,0.045,0.065,-20.248,90.829,7.616
15:47:09:615,30.956,0.046,0.140,0.086,-19.798,91.661,5.204
15:47:09:616,30.956,0.120,0.220,0.040,-19.460,92.227,3.301
15:47:09:617,30.957,0.336,0.229,0.215,-18.908,93.650,0.117
15:47:09:637,30.977,0.326,0.328,0.247,-18.629,94.643,-2.331
15:47:09:692,31.033,0.215,0.465,0.307,-18.069,96.304,-6.812
15:47:09:692,31.033,0.201,0.455,0.701,-17.223,98.287,-10.465
15:47:09:714,31.055,0.245,0.521,1.012,-15.287,101.511,-17.205
15:47:09:741,31.081,0.357,-0.002,1.856,-12.355,105.888,-25.945
15:47:09:796,31.136,-0.013,0.304,1.399,-10.725,109.200,-32.210
15:47:09:797,31.137,0.435,0.497,1.412,-6.130,113.384,-42.804
15:47:09:82,31.160,-0.203,-0.108,1.863,-2.680,115.256,-47.905
15:47:09:846,31.186,0.504,-0.281,0.476,3.030,118.420,-52.307
15:47:09:873,31.214,0.943,-2.060,1.350,9.642,122.230,-53.471
15:47:09:898,31.239,0.531,-1.945,0.256,12.837,125.192,-51.627
15:47:09:924,31.265,0.706,-1.202,0.074,10.612,129.120,-47.594
15:47:09:98,31.320,0.601,-0.942,0.354,7.101,131.366,-44.042
15:47:09:98,31.321,0.896,-0.780,0.312,0.671,133.413,-36.866
15:47:10:004,31.345,0.615,-0.298,0.314,-3.325,133.810,-31.038
15:47:10:06,31.400,0.681,-0.067,0.321,-7.465,134.582,-20.350
15:47:10:06,31.400,0.756,0.415,0.192,-10.624,136.409,-8.463
15:47:10:082,31.422,0.594,0.889,-0.174,-13.113,137.668,-0.564
15:47:10:166,31.507,-0.731,1.731,-1.516,-18.272,139.181,11.016
15:47:10:167,31.508,-0.414,0.623,-3.148,-22.295,140.179,18.229
15:47:10:168,31.508,-3.264,-0.382,-3.114,-27.200,139.538,26.129
15:47:10:187,31.527,-0.856,-0.084,-1.842,-26.180,138.398,26.359
15:47:10:213,31.553,3.192,1.253,1.274,-23.917,137.625,22.765
15:47:10:269,31.609,-1.133,0.610,-1.497,-22.767,135.998,18.969
15:47:10:269,31.609,-0.009,0.267,-0.151,-22.230,134.509,16.113
15:47:10:35,31.691,-0.369,-0.504,-0.390,-20.760,131.792,13.513
15:47:10:351,31.691,-0.022,0.089,-0.382,-19.843,131.566,11.585
15:47:10:351,31.692,0.165,-0.027,-0.015,-19.833,133.137,10.407
15:47:10:371,31.712,0.251,0.064,0.187,-20.043,134.580,9.511
15:47:10:397,31.737,-0.166,0.067,0.019,-19.902,134.436,9.095
15:47:10:423,31.763,-0.103,0.019,-0.027,-19.616,134.499,8.205
15:47:10:449,31.790,0.196,0.023,0.010,-19.327,136.280,6.617
15:47:10:505,31.845,0.150,0.017,0.082,-19.220,137.211,5.465
15:47:10:506,31.846,0.046,0.059,0.098,-18.950,138.059,3.516
15:47:10:587,31.927,0.087,0.099,-0.021,-18.577,138.717,1.960
15:47:10:587,31.927,0.212,0.095,0.038,-17.883,140.061,-0.562
15:47:10:588,31.928,0.283,0.164,0.050,-17.317,141.207,-3.308
15:47:10:608,31.949,0.305,0.160,0.027,-16.956,141.878,-5.344
15:47:10:634,31.974,0.458,0.376,0.036,-16.390,143.081,-9.392
15:47:10:659,31.999,0.682,0.418,0.251,-15.776,144.257,-12.710
15:47:10:715,32.055,0.875,0.374,0.453,-14.201,146.433,-18.997
15:47:10:716,32.056,1.424,0.125,1.034,-12.521,148.388,-24.200
15:47:10:738,32.078,1.776,-0.687,1.090,-10.252,152.496,-32.907
15:47:10:765,32.106,1.279,0.925,0.976,-6.773,156.215,-43.453
15:47:10:79,32.131,1.190,0.531,1.157,-3.654,157.483,-49.480
15:47:10:846,32.187,0.499,-1.458,1.043,2.013,159.414,-54.935
15:47:10:847,32.187,-1.045,-0.384,0.520,8.789,160.274,-56.796
15:47:10:869,32.210,1.039,-2.250,0.142,11.141,161.317,-56.016
15:47:10:927,32.268,0.578,-1.377,-0.325,11.423,162.851,-51.967
15:47:10:928,32.269,0.399,-1.015,-0.072,9.076,164.165,-47.856
15:47:10:929,32.269,0.694,-0.787,0.086,4.760,166.195,-40.259
15:47:10:975,32.315,0.673,-0.478,-0.054,1.804,166.902,-34.147
15:47:11:081,32.421,0.605,-0.193,0.028,-2.458,167.375,-23.407
15:47:11:115,32.455,0.635,0.055,0.000,-4.851,167.905,-15.226
15:47:11:116,32.456,0.451,0.676,-0.199,-8.483,168.826,-3.117
15:47:11:116,32.457,-0.688,1.490,-0.717,-13.004,169.618,8.859
15:47:11:117,32.458,-1.694,1.540,-1.146,-16.545,170.181,16.387
15:47:11:135,32.475,-3.070,0.222,-1.573,-21.205,170.055,26.039
15:47:11:135,32.476,-3.514,-1.010,-1.381,-22.300,168.875,29.528
15:47:11:159,32.499,-2.111,1.315,-0.527,-20.836,167.197,27.690
15:47:11:184,32.524,2.572,0.837,-0.800,-18.118,166.440,23.215
15:47:11:269,32.609,-1.641,0.459,-0.586,-16.748,164.536,19.737
15:47:11:269,32.610,-0.981,0.682,-0.191,-16.159,161.711,15.786
15:47:11:347,32.688,-0.455,0.018,-0.297,-14.683,160.545,11.258
15:47:11:348,32.689,0.094,-0.038,-0.027,-14.603,162.402,9.919
15:47:11:349,32.689,0.392,0.048,0.082,-14.694,164.166,8.835
15:47:11:398,32.738,-0.136,0.035,0.056,-14.328,163.725,7.896
15:47:11:399,32.739,-0.055,0.020,0.089,-14.010,163.813,7.127
15:47:11:421,32.762,0.222,-0.030,-0.072,-13.655,165.437,5.487
15:47:11:477,32.817,0.148,0.029,0.043,-13.548,166.255,4.366
15:47:11:477,32.817,0.024,0.075,0.065,-13.222,166.891,2.442
15:47:11:5,32.840,0.138,0.123,0.026,-12.690,168.095,0.207
15:47:11:584,32.924,0.259,0.043,-0.159,-12.184,169.058,-1.437
15:47:11:585,32.925,0.329,0.178,-0.125,-11.556,169.981,-4.025
15:47:11:585,32.926,0.289,0.229,-0.027,-11.237,170.349,-6.049
15:47:11:634,32.974,0.426,0.401,0.042,-10.514,170.965,-9.893
15:47:11:635,32.975,0.746,0.351,-0.083,-8.953,172.097,-14.906
15:47:11:657,32.997,1.201,0.389,0.106,-7.442,173.092,-19.041
15:47:11:74,33.080,1.967,0.178,0.573,-4.502,174.918,-26.964
15:47:11:74,33.081,1.341,0.295,0.701,-2.582,176.650,-32.739
15:47:11:765,33.105,1.500,0.548,0.481,2.588,178.894,-43.012
15:47:11:765,33.106,1.293,-0.913,0.896,7.333,179.572,-48.826
15:47:11:788,33.129,1.375,-1.235,0.437,11.672,179.721,-54.212
15:47:11:815,33.155,0.536,-0.418,0.871,16.131,178.914,-55.865
15:47:11:842,33.183,0.219,-1.792,-0.185,16.558,178.673,-54.691
15:47:11:894,33.235,0.318,-1.230,-0.131,16.224,178.884,-50.285
15:47:11:951,33.292,0.427,-0.984,0.146,13.752,179.529,-45.796
15:47:11:952,33.292,0.611,-0.657,0.081,9.425,-179.611,-37.529
15:47:11:953,33.293,0.654,-0.456,0.061,5.122,-179.831,-27.172
15:47:12:001,33.341,0.573,-0.047,0.155,2.145,179.926,-19.354
15:47:12:002,33.342,0.342,0.533,0.085,-2.037,-179.860,-7.027
15:47:12:025,33.365,-0.022,1.121,-0.025,-5.070,-179.922,1.222
15:47:12:051,33.391,-1.735,1.634,-0.392,-10.322,179.047,13.534
15:47:12:077,33.417,-2.750,1.169,-1.017,-14.038,177.960,21.131
15:47:12:103,33.444,-4.083,-0.604,-0.399,-18.462,175.979,29.598
15:47:12:13,33.470,-2.717,1.638,-0.324,-18.853,174.282,31.029
15:47:12:156,33.497,3.475,0.888,-1.394,-16.258,172.860,26.596
15:47:12:182,33.523,-2.388,-0.164,-0.589,-13.871,169.290,22.025
15:47:12:237,33.578,-1.055,0.503,0.314,-13.110,166.799,18.333
15:47:12:238,33.579,-0.164,-0.352,0.006,-12.990,164.520,13.900
15:47:12:261,33.601,-0.366,0.135,-0.150,-12.139,164.318,10.924
15:47:12:318,33.658,0.126,-0.086,-0.133,-11.862,165.648,9.168
15:47:12:318,33.658,0.389,0.084,-0.019,-12.323,166.732,7.952
15:47:12:369,33.709,-0.074,-0.045,0.045,-12.220,166.393,7.190
15:47:12:369,33.710,-0.041,0.037,0.067,-12.109,166.106,5.971
15:47:12:392,33.732,0.256,0.070,-0.016,-12.251,167.164,4.963
15:47:12:447,33.788,0.122,0.059,0.051,-12.366,168.232,3.213
15:47:12:448,33.788,-0.009,0.050,-0.038,-12.070,168.834,1.318
15:47:12:53,33.870,0.158,0.068,0.004,-11.927,169.583,0.035
15:47:12:53,33.871,0.241,0.114,-0.058,-11.696,170.249,-2.123
15:47:12:531,33.872,0.224,0.160,-0.101,-11.522,170.386,-3.816
15:47:12:55,33.890,0.323,0.206,-0.076,-11.225,170.821,-6.947
15:47:12:605,33.945,0.468,0.439,0.002,-10.686,171.506,-11.160
15:47:12:605,33.946,0.626,0.413,-0.057,-9.953,172.216,-14.665
15:47:12:628,33.968,1.200,0.340,0.095,-7.917,174.032,-21.166
15:47:12:655,33.996,2.144,-0.112,0.559,-5.914,175.985,-26.578
15:47:12:681,34.021,1.780,-0.392,0.526,-2.548,179.567,-35.390
15:47:12:707,34.047,1.281,0.758,0.321,1.343,-178.732,-42.395
15:47:12:733,34.074,1.582,-0.165,1.001,7.436,-177.352,-50.157
15:47:12:788,34.129,0.330,-0.189,0.079,13.253,-176.222,-53.761
15:47:12:789,34.130,-0.487,-0.007,0.963,16.932,-175.546,-54.649
15:47:12:842,34.183,0.173,-1.870,-0.447,20.443,-173.926,-52.584
15:47:12:842,34.183,0.278,-1.248,-0.417,19.249,-172.801,-49.583
15:47:12:893,34.234,0.480,-1.071,-0.182,14.722,-171.285,-43.256
15:47:12:894,34.235,0.621,-0.788,-0.173,9.141,-170.486,-34.855
15:47:12:917,34.258,0.542,-0.571,-0.091,5.536,-170.845,-28.581
15:47:12:944,34.285,0.551,-0.177,0.008,0.702,-171.836,-17.838
15:47:12:969,34.310,0.354,0.415,-0.036,-2.129,-172.292,-9.980
15:47:13:025,34.365,0.012,0.822,-0.101,-6.521,-172.774,2.338
15:47:13:025,34.366,-1.523,1.823,0.021,-11.827,-173.387,14.497
15:47:13:05,34.390,-3.211,1.096,-0.810,-15.288,-173.801,21.944
15:47:13:075,34.415,-4.519,-0.664,0.454,-19.788,-174.417,29.903
15:47:13:101,34.441,-3.576,-0.909,-0.222,-19.775,-174.062,30.426
15:47:13:156,34.496,3.378,0.545,-1.534,-17.127,-174.048,24.716
15:47:13:157,34.497,-1.900,0.310,0.152,-16.291,-175.288,22.252
15:47:13:182,34.523,-0.448,0.259,0.078,-14.602,-179.389,17.350
15:47:13:183,34.524,-0.575,0.113,0.020,-14.092,177.387,14.107
15:47:13:236,34.577,-0.545,0.068,-0.225,-13.457,175.931,12.653
15:47:13:236,34.577,-0.046,-0.010,-0.244,-13.237,176.851,10.818
15:47:13:285,34.625,0.226,0.090,0.010,-13.687,178.089,10.189
15:47:13:372,34.713,0.164,0.061,0.073,-14.252,178.286,9.739
15:47:13:373,34.713,-0.062,0.032,0.139,-14.212,177.785,9.165
15:47:13:373,34.714,0.213,-0.020,0.063,-14.148,178.572,8.403
15:47:13:374,34.715,0.146,0.053,-0.096,-14.196,179.665,7.092
15:47:13:449,34.789,0.100,0.067,0.104,-14.200,179.986,5.991
15:47:13:449,34.789,-0.021,0.103,0.071,-14.214,-179.367,3.845
15:47:13:449,34.789,0.145,0.177,-0.087,-14.170,-178.265,2.102
15:47:13:469,34.809,0.175,0.160,-0.191,-13.857,-176.322,-0.890
15:47:13:495,34.835,0.325,0.194,-0.242,-13.438,-174.591,-4.186
15:47:13:603,34.944,0.461,0.419,-0.116,-13.156,-173.554,-6.889
15:47:13:604,34.945,0.651,0.498,-0.255,-12.439,-171.661,-12.190
15:47:13:661,35.002,0.942,0.442,-0.334,-11.485,-170.060,-16.518
15:47:13:662,35.002,1.997,0.238,0.026,-8.868,-166.857,-24.651
15:47:13:663,35.003,1.399,-0.326,0.242,-6.242,-163.518,-30.955
15:47:13:663,35.004,1.680,1.467,0.026,-1.110,-157.507,-41.103
15:47:13:737,35.077,2.267,-0.093,0.248,8.468,-154.160,-49.115
15:47:13:737,35.078,0.890,0.025,-0.640,13.355,-152.029,-52.311
15:47:13:738,35.079,0.163,-0.578,0.717,21.465,-148.803,-53.984
15:47:13:757,35.097,-0.131,-2.118,-0.872,21.236,-146.116,-53.328
15:47:13:812,35.153,0.172,-1.283,-0.972,19.520,-142.561,-49.937
15:47:13:813,35.154,0.309,-0.988,-0.513,12.657,-139.385,-44.214
15:47:13:894,35.234,0.348,-0.887,-0.966,7.548,-137.619,-39.188
15:47:13:895,35.235,0.233,-0.476,-0.846,1.033,-136.258,-30.251
15:47:13:895,35.236,0.443,-0.182,-0.804,-2.299,-135.172,-23.011
15:47:13:943,35.283,0.291,0.376,-0.893,-6.150,-133.032,-11.338
15:47:13:999,35.340,-0.310,1.288,-0.280,-9.896,-130.668,0.386
15:47:14:,35.340,-1.135,1.767,0.327,-12.778,-128.715,8.167
15:47:14:001,35.341,-2.945,0.747,1.513,-17.634,-125.040,17.291
15:47:14:02,35.360,-2.952,-0.394,2.300,-20.419,-123.348,20.257
15:47:14:075,35.415,-2.483,-0.264,1.579,-20.892,-123.099,19.606
15:47:14:075,35.416,0.468,1.239,-1.845,-18.855,-125.019,16.963
15:47:14:1,35.440,-1.025,0.546,0.605,-16.807,-128.887,12.836
15:47:14:154,35.494,-0.520,0.073,0.270,-14.982,-130.110,10.216
15:47:14:154,35.495,-0.230,-0.083,0.106,-14.694,-129.805,8.298
15:47:14:177,35.518,-0.040,0.050,-0.044,-15.021,-128.887,6.708
15:47:14:203,35.544,0.142,0.146,0.034,-15.224,-128.392,5.927
15:47:14:229,35.570,0.106,0.051,0.122,-15.445,-128.045,4.843
15:47:14:256,35.596,0.096,0.080,-0.028,-15.233,-126.918,3.758
15:47:14:282,35.622,0.143,0.109,0.021,-15.125,-125.916,2.814
15:47:14:309,35.649,0.137,0.023,-0.010,-14.729,-124.280,1.237
15:47:14:393,35.733,0.091,0.033,-0.083,-14.350,-123.047,0.104
15:47:14:393,35.734,0.096,0.073,-0.069,-13.667,-121.459,-1.632
15:47:14:394,35.734,0.089,0.091,-0.174,-13.158,-120.645,-2.913
15:47:14:47,35.810,0.056,0.160,-0.244,-12.483,-119.672,-5.299
15:47:14:47,35.811,0.161,0.160,-0.262,-11.748,-119.037,-8.230
15:47:14:606,35.947,0.274,0.248,-0.339,-11.207,-118.646,-10.700
15:47:14:607,35.948,0.327,0.404,-0.522,-9.847,-117.522,-15.607
15:47:14:608,35.948,0.296,0.258,-1.022,-8.330,-116.295,-19.652
15:47:14:628,35.968,1.056,-0.266,-1.364,-2.871,-109.714,-35.318
15:47:14:629,35.969,1.141,0.976,-1.204,0.544,-107.796,-42.052
15:47:14:654,35.994,1.694,-0.006,-1.298,6.376,-105.403,-50.294
15:47:14:654,35.994,1.091,-1.126,-0.684,11.564,-103.588,-53.101
15:47:14:676,36.016,0.454,-0.505,1.303,21.060,-101.579,-54.758
15:47:14:702,36.042,-0.274,-2.059,-0.592,22.318,-98.672,-54.126
15:47:14:73,36.070,-0.573,-1.312,-0.669,22.924,-95.624,-50.446
15:47:14:754,36.095,-0.040,-0.975,-0.365,18.140,-92.292,-44.415
15:47:14:781,36.121,-0.189,-0.772,-0.659,13.962,-90.276,-39.487
15:47:14:836,36.177,-0.323,-0.508,-0.655,7.522,-88.561,-30.374
15:47:14:837,36.177,-0.172,-0.143,-0.631,3.719,-87.489,-23.131
15:47:14:86,36.200,-0.295,0.055,-0.510,-0.904,-85.812,-11.193
15:47:14:887,36.227,-0.442,0.689,-0.318,-5.070,-84.730,1.242
15:47:14:913,36.253,-0.196,1.743,0.921,-8.114,-84.718,9.665
15:47:14:939,36.279,-0.159,1.318,2.884,-12.850,-85.609,21.512
15:47:14:965,36.305,-0.424,-0.595,4.033,-15.572,-86.652,28.208
15:47:14:991,36.331,-0.152,-0.935,3.856,-17.610,-88.472,32.119
15:47:15:017,36.357,-0.760,-0.673,-1.270,-14.957,-89.396,26.279
15:47:15:045,36.385,-1.199,-0.148,-0.389,-13.370,-91.663,24.248
15:47:15:07,36.411,0.095,0.559,1.487,-11.443,-97.452,19.472
15:47:15:096,36.436,-0.044,0.495,1.170,-10.897,-99.916,16.679
15:47:15:122,36.463,-0.070,-0.125,0.247,-10.014,-101.550,13.964
15:47:15:148,36.489,-0.142,-0.038,0.045,-9.707,-100.256,11.805
15:47:15:176,36.516,-0.014,0.165,0.035,-10.091,-98.897,11.058
15:47:15:201,36.541,0.062,0.089,-0.299,-10.452,-98.192,10.275
15:47:15:227,36.567,0.236,0.033,0.308,-10.573,-98.820,9.834
15:47:15:253,36.594,0.106,-0.014,-0.081,-10.654,-98.100,9.051
15:47:15:279,36.620,0.068,0.065,-0.165,-10.847,-96.898,8.464
15:47:15:307,36.647,0.122,-0.015,-0.141,-10.910,-95.897,7.231
15:47:15:365,36.705,0.167,0.039,-0.064,-10.590,-95.520,5.496
15:47:15:365,36.706,0.119,0.147,0.041,-10.313,-95.120,4.058
15:47:15:366,36.707,-0.002,0.154,-0.021,-9.839,-94.078,1.888
15:47:15:443,36.784,-0.019,0.193,-0.226,-9.511,-93.230,0.380
15:47:15:444,36.784,-0.071,0.182,-0.244,-9.024,-92.081,-2.435
15:47:15:444,36.785,0.072,0.427,-0.290,-8.502,-91.247,-6.092
15:47:15:492,36.833,0.071,0.457,-0.444,-7.892,-90.455,-9.139
15:47:15:493,36.834,0.010,0.591,-0.888,-6.350,-88.482,-14.873
15:47:15:542,36.882,0.213,0.392,-1.762,-4.689,-86.497,-19.692
15:47:15:571,36.911,0.155,-0.105,-1.813,-0.786,-82.474,-28.411
15:47:15:572,36.912,0.343,1.057,-1.604,4.223,-77.318,-37.556
15:47:15:624,36.964,0.646,0.226,-1.219,10.369,-75.002,-42.586
15:47:15:624,36.965,-0.145,-1.703,-1.125,15.709,-71.450,-47.688
15:47:15:647,36.988,-0.355,-0.979,-1.183,19.466,-67.972,-48.512
15:47:15:673,37.014,-0.898,-2.048,-0.536,22.709,-62.628,-47.203
15:47:15:701,37.041,-0.907,-1.106,-0.248,21.796,-59.025,-44.328
15:47:15:726,37.066,-0.620,-0.871,-0.293,16.039,-55.693,-39.167
15:47:15:752,37.093,-0.768,-0.643,-0.331,8.675,-54.095,-32.068
15:47:15:778,37.119,-0.634,-0.343,-0.472,4.503,-53.503,-25.915
15:47:15:805,37.145,-0.606,0.066,-0.497,0.055,-52.210,-14.749
15:47:15:831,37.171,-0.679,0.370,-0.258,-2.147,-50.777,-6.802
15:47:15:857,37.198,-0.273,1.046,0.288,-5.842,-48.598,5.195
15:47:15:885,37.225,1.117,1.430,1.910,-11.105,-47.502,16.575
15:47:15:91,37.251,0.806,0.366,3.031,-14.695,-47.601,23.204
15:47:15:936,37.277,2.137,-0.739,2.976,-17.633,-49.775,29.533
15:47:16:103,37.444,-0.497,-0.405,1.645,-17.286,-50.124,28.482
15:47:16:104,37.445,-1.175,-0.004,-0.060,-14.742,-51.075,24.085
15:47:16:105,37.445,0.905,0.638,2.086,-14.380,-52.971,20.535
15:47:16:106,37.446,-0.312,-0.266,-0.437,-12.963,-55.787,16.027
15:47:16:127,37.468,0.412,-0.039,0.533,-11.804,-56.611,13.834
15:47:16:127,37.468,-0.187,0.013,-0.005,-11.708,-55.004,12.347
15:47:16:203,37.543,-0.013,-0.090,-0.122,-12.768,-53.251,10.751
15:47:16:203,37.543,0.387,0.082,0.136,-12.710,-53.792,9.896
15:47:16:258,37.598,-0.067,0.080,-0.103,-12.730,-52.299,9.161
15:47:16:258,37.598,0.058,0.071,-0.120,-12.796,-51.447,8.595
15:47:16:259,37.599,0.131,0.042,-0.088,-12.456,-50.272,7.188
15:47:16:331,37.672,0.041,0.061,-0.163,-12.223,-49.133,6.063
15:47:16:392,37.732,-0.006,0.130,-0.117,-11.779,-47.320,4.020
15:47:16:392,37.732,-0.185,0.236,-0.024,-11.342,-46.210,2.469
15:47:16:392,37.733,-0.219,0.172,-0.056,-10.724,-44.678,-0.270
15:47:16:393,37.734,-0.303,0.321,-0.094,-10.011,-43.314,-3.895
15:47:16:437,37.778,-0.296,0.481,-0.283,-9.453,-42.360,-6.924
15:47:16:438,37.778,-0.550,0.501,-0.462,-8.047,-40.403,-12.604
15:47:16:461,37.802,-1.018,0.318,-1.029,-6.586,-38.533,-17.296
15:47:16:488,37.828,-1.398,-0.062,-1.536,-4.223,-34.850,-25.681
15:47:16:513,37.854,-0.338,1.420,-1.244,-0.874,-30.245,-35.289
15:47:16:539,37.880,-0.842,0.833,-1.025,3.639,-27.918,-41.445
15:47:16:566,37.906,-0.542,-0.867,-1.109,9.732,-24.105,-47.471
15:47:16:592,37.932,-0.194,-0.191,-0.341,15.143,-21.244,-49.436
15:47:16:619,37.959,-1.892,-1.272,-0.718,19.321,-18.362,-48.939
15:47:16:645,37.985,-0.908,-1.336,0.424,21.352,-16.020,-46.837
15:47:16:671,38.011,-0.593,-1.032,0.231,17.372,-13.341,-41.635
15:47:16:697,38.038,-0.562,-0.716,-0.064,11.348,-11.435,-35.056
15:47:16:724,38.065,-0.755,-0.636,0.124,7.218,-11.026,-29.390
15:47:16:75,38.091,-0.690,-0.289,0.007,1.693,-11.272,-19.169
15:47:16:776,38.116,-0.435,0.162,0.016,-1.394,-11.315,-11.694
15:47:16:802,38.143,-0.496,0.478,0.191,-5.297,-11.047,0.151
15:47:16:828,38.169,0.364,1.420,0.524,-9.620,-11.223,12.562
15:47:16:855,38.195,1.509,1.530,0.889,-13.068,-11.677,20.791
15:47:16:882,38.223,2.870,0.376,1.581,-18.821,-13.047,31.745
15:47:16:907,38.248,4.426,-1.299,1.332,-20.890,-15.017,35.987
15:47:16:934,38.274,2.954,-1.347,1.390,-18.844,-16.049,33.355
15:47:16:959,38.300,-0.379,-0.232,1.161,-15.480,-17.675,28.796
15:47:16:986,38.327,1.107,0.671,0.369,-13.633,-20.072,24.627
15:47:17:013,38.354,0.116,-0.177,0.095,-12.681,-22.635,20.318
15:47:17:038,38.379,0.686,-0.115,0.203,-11.692,-23.550,18.476
15:47:17:065,38.405,0.214,0.059,0.224,-10.991,-22.058,16.074
15:47:17:091,38.431,-0.134,0.060,-0.067,-11.385,-20.431,15.225
15:47:17:117,38.458,-0.243,0.042,-0.146,-11.514,-19.740,14.316
15:47:17:143,38.484,0.307,-0.015,-0.080,-11.085,-20.480,13.247
15:47:17:17,38.510,0.172,0.005,-0.049,-10.936,-19.753,12.321
15:47:17:196,38.536,-0.069,0.136,0.042,-11.174,-17.888,10.772
15:47:17:222,38.563,0.154,0.041,-0.102,-11.105,-17.154,9.639
15:47:17:249,38.589,0.070,0.030,-0.099,-10.709,-15.921,7.787
15:47:17:275,38.616,-0.137,0.068,-0.095,-10.327,-14.167,5.735
15:47:17:301,38.641,-0.120,0.172,0.066,-9.922,-13.363,4.217
15:47:17:327,38.667,-0.230,0.296,0.121,-9.174,-12.586,1.410
15:47:17:354,38.694,-0.301,0.378,0.078,-8.606,-12.010,-0.969
15:47:17:379,38.720,-0.505,0.540,-0.047,-7.603,-11.188,-5.588
15:47:17:437,38.777,-0.968,0.474,-0.062,-5.907,-9.982,-11.696
15:47:17:437,38.777,-1.584,0.412,-0.425,-4.256,-8.871,-16.849
15:47:17:488,38.828,-2.295,-0.295,-0.795,-1.626,-6.227,-25.577
15:47:17:513,38.854,-1.220,0.616,-0.669,1.065,-4.132,-32.433
15:47:17:514,38.855,-1.679,0.148,-1.468,6.606,-2.166,-42.133
15:47:17:538,38.878,-1.768,-0.359,-1.234,8.784,-1.497,-46.879
15:47:17:563,38.904,1.757,-1.054,-0.749,13.566,-2.900,-49.526
15:47:17:59,38.930,-0.529,-1.889,0.193,12.619,-4.466,-47.783
15:47:17:616,38.956,-0.512,-1.512,0.174,12.994,-4.947,-44.924
15:47:17:642,38.983,-0.434,-0.908,-0.246,10.389,-5.177,-37.618
15:47:17:669,39.010,-0.544,-0.477,-0.172,8.361,-5.315,-32.047
15:47:17:695,39.035,-0.516,-0.444,-0.078,5.714,-6.086,-21.841
15:47:17:753,39.093,-0.447,0.121,-0.243,2.587,-6.801,-9.860
15:47:17:754,39.094,-0.138,0.398,-0.185,0.327,-6.885,-1.386
15:47:17:754,39.095,0.590,1.139,-0.048,-3.970,-6.977,10.974
15:47:17:832,39.172,2.374,1.542,0.663,-7.627,-7.623,19.044
15:47:17:832,39.173,3.268,0.246,1.441,-13.264,-9.172,30.096
15:47:17:833,39.174,4.635,-1.143,0.748,-16.383,-10.582,35.606
15:47:17:94,39.280,2.478,-0.339,1.482,-16.490,-11.474,37.994
15:47:17:94,39.281,-2.568,1.551,0.886,-13.017,-12.382,32.512
15:47:17:941,39.282,2.538,-0.663,0.288,-12.575,-13.987,29.499
15:47:17:942,39.283,1.215,0.373,-0.359,-11.430,-16.713,23.776
15:47:17:959,39.299,0.520,-0.269,0.026,-10.747,-18.791,20.894
15:47:17:983,39.324,0.586,0.007,0.238,-9.541,-18.949,17.993
15:47:18:01,39.350,-0.188,0.066,0.006,-9.809,-16.459,15.840
15:47:18:036,39.376,-0.280,0.180,-0.060,-10.188,-15.592,15.054
15:47:18:062,39.403,0.404,-0.004,-0.178,-10.061,-16.207,13.759
15:47:18:089,39.430,0.182,-0.009,-0.076,-9.975,-16.064,12.735
15:47:18:115,39.455,-0.125,0.109,0.025,-10.149,-14.476,10.923
15:47:18:17,39.510,0.071,0.071,-0.149,-9.798,-13.736,8.997
15:47:18:17,39.511,0.049,0.127,-0.116,-9.551,-13.059,7.609
15:47:18:195,39.535,-0.115,0.180,0.101,-9.152,-11.634,5.285
15:47:18:221,39.561,-0.181,0.148,0.176,-8.860,-10.846,3.461
15:47:18:246,39.586,-0.287,0.262,0.033,-8.400,-9.951,0.017
15:47:18:272,39.613,-0.402,0.540,-0.035,-7.986,-9.434,-3.009
15:47:18:298,39.639,-0.693,0.555,0.048,-6.987,-8.386,-8.817
15:47:18:325,39.665,-1.290,0.414,-0.068,-4.952,-6.819,-16.262
15:47:18:352,39.692,-2.275,0.193,-0.741,-3.349,-4.914,-21.774
15:47:18:377,39.718,-1.225,1.193,-1.071,0.426,-0.899,-31.866
15:47:18:404,39.744,-1.231,0.419,-0.312,5.103,0.846,-38.637
15:47:18:43,39.770,-1.550,-0.663,-1.219,9.196,2.735,-46.297
15:47:18:456,39.797,1.633,-0.535,-0.564,16.081,2.935,-49.277
15:47:18:483,39.823,-2.192,-1.337,0.097,16.067,2.783,-49.204
15:47:18:508,39.849,-0.449,-1.643,0.598,18.555,3.552,-45.808
15:47:18:535,39.875,-0.495,-1.176,0.141,16.100,4.238,-41.672
15:47:18:561,39.901,-0.492,-0.838,-0.112,10.724,4.655,-34.528
15:47:18:589,39.929,-0.403,-0.587,0.005,6.984,4.080,-28.566
15:47:18:672,40.012,-0.512,-0.410,-0.053,2.045,2.614,-17.441
15:47:18:672,40.013,-0.350,0.087,-0.023,-2.436,1.432,-4.515
15:47:18:673,40.014,-0.103,0.802,0.073,-5.422,1.120,4.189
15:47:18:692,40.033,1.203,1.497,0.271,-10.479,1.150,17.628
15:47:18:72,40.060,3.151,1.155,0.777,-14.542,1.054,26.392
15:47:18:746,40.087,3.934,-0.517,0.737,-20.775,0.490,36.681
15:47:18:8,40.140,4.077,-1.524,0.460,-22.445,-0.169,39.735
15:47:18:801,40.141,-1.029,0.055,-0.342,-20.713,-0.503,35.470
15:47:18:823,40.164,1.542,-0.915,0.947,-18.120,-0.993,30.510
15:47:18:85,40.190,0.688,0.773,0.012,-17.191,-3.403,26.348
15:47:18:876,40.217,0.964,-0.059,0.159,-16.482,-5.981,22.174
15:47:18:904,40.244,0.389,-0.285,0.004,-15.370,-6.760,20.706
15:47:18:959,40.299,0.287,0.071,0.163,-15.264,-5.105,18.581
15:47:18:959,40.300,-0.203,0.116,0.045,-15.921,-3.341,17.441
15:47:18:981,40.321,0.005,0.026,-0.168,-16.013,-3.662,16.836
15:47:19:065,40.406,0.127,0.004,-0.193,-15.830,-3.842,15.617
15:47:19:066,40.407,-0.067,0.036,0.073,-15.921,-2.723,14.419
15:47:19:067,40.407,-0.084,0.007,-0.018,-16.037,-1.326,12.408
15:47:19:115,40.456,0.068,0.132,-0.059,-15.834,-0.454,10.043
15:47:19:116,40.456,-0.004,0.083,0.002,-15.635,0.277,8.159
15:47:19:14,40.481,-0.109,0.204,0.212,-15.297,1.510,4.992
15:47:19:165,40.506,-0.132,0.309,0.153,-15.153,2.227,2.587
15:47:19:191,40.532,-0.226,0.510,0.160,-14.955,3.604,-1.787
15:47:19:217,40.557,-0.491,0.622,0.231,-14.777,5.037,-5.480
15:47:19:243,40.584,-0.856,0.420,0.367,-13.708,8.302,-12.226
15:47:19:27,40.610,-2.117,0.202,0.513,-11.388,13.503,-20.819
15:47:19:296,40.637,-1.749,0.150,0.163,-9.874,17.703,-27.396
15:47:19:323,40.663,-1.057,0.788,0.367,-6.934,22.657,-38.938
15:47:19:348,40.689,-2.453,-0.043,-0.509,-5.833,24.687,-45.280
15:47:19:404,40.744,-1.008,0.509,0.511,-1.481,26.927,-50.942
15:47:19:405,40.745,-1.879,-0.364,0.322,3.639,27.605,-51.808
15:47:19:429,40.769,-0.111,-2.095,0.427,5.480,28.496,-50.126
15:47:19:454,40.795,-0.152,-1.258,0.579,5.316,31.010,-45.170
15:47:19:509,40.850,-0.385,-0.908,0.393,3.920,33.584,-40.665
15:47:19:51,40.850,-0.343,-0.731,0.713,0.297,36.847,-32.780
15:47:19:532,40.873,-0.291,-0.385,0.621,-3.672,38.641,-22.732
15:47:19:559,40.899,-0.425,-0.061,0.732,-6.252,39.906,-14.830
15:47:19:585,40.926,-0.034,0.560,0.645,-9.929,42.013,-2.370
15:47:19:611,40.952,0.344,0.818,0.692,-12.622,43.648,6.014
15:47:19:637,40.977,1.649,1.576,-0.311,-18.308,45.414,18.757
15:47:19:693,41.033,3.156,0.905,-1.243,-22.916,45.824,26.912
15:47:19:694,41.034,3.586,-1.306,-2.905,-28.633,44.998,36.410
15:47:19:716,41.056,1.846,1.225,-1.777,-27.561,43.464,37.475
15:47:19:743,41.083,-2.045,0.968,2.757,-25.038,42.843,33.247
15:47:19:768,41.109,1.743,0.212,-0.509,-23.029,42.948,28.857
15:47:19:825,41.165,0.579,0.442,-0.986,-22.669,41.618,25.452
15:47:19:825,41.165,0.519,-0.139,-0.270,-21.098,39.016,21.725
15:47:19:848,41.188,0.695,-0.080,-0.288,-19.453,38.098,19.873
15:47:19:903,41.243,0.075,-0.051,0.148,-19.409,39.684,18.450
15:47:19:903,41.243,-0.181,0.085,0.154,-19.932,41.225,17.706
15:47:19:926,41.267,0.036,-0.019,-0.066,-19.806,41.094,17.433
15:47:19:982,41.322,0.048,0.020,-0.215,-19.411,40.888,16.890
15:47:19:982,41.322,-0.051,0.033,0.138,-19.179,42.350,15.470
15:47:20:066,41.406,-0.078,0.085,0.025,-19.147,42.898,14.226
15:47:20:067,41.407,0.007,0.112,-0.066,-19.033,43.345,11.817
15:47:20:067,41.408,-0.038,0.096,-0.103,-18.787,44.187,9.676
15:47:20:11,41.450,0.191,0.469,0.454,-17.772,47.357,3.106
15:47:20:164,41.504,0.172,0.562,0.580,-17.079,49.405,-1.944
15:47:20:194,41.534,-0.201,0.645,0.727,-15.993,52.239,-8.494
15:47:20:195,41.535,-0.449,0.472,1.004,-14.627,54.880,-13.930
15:47:20:195,41.536,-1.514,0.003,1.976,-11.495,60.609,-24.185
15:47:20:216,41.556,-1.279,1.359,0.836,-9.930,64.790,-31.890
15:47:20:241,41.581,-1.264,0.480,1.141,-5.425,68.439,-43.488
15:47:20:326,41.667,-0.985,-1.388,0.449,-1.807,70.576,-50.188
15:47:20:327,41.667,0.021,0.127,0.204,3.696,71.900,-52.900
15:47:20:327,41.667,-1.160,-0.909,2.024,4.872,73.650,-52.264
15:47:20:347,41.687,0.303,-1.630,0.553,5.760,75.482,-49.613
15:47:20:402,41.742,0.058,-0.982,0.325,2.204,78.339,-43.722
15:47:20:402,41.743,0.012,-0.945,0.600,-0.232,80.867,-39.063
15:47:20:484,41.824,0.395,-0.681,0.737,-4.334,83.513,-30.567
15:47:20:485,41.825,0.332,-0.392,0.805,-8.589,85.005,-19.964
15:47:20:485,41.826,0.342,0.150,0.500,-11.214,85.793,-12.192
15:47:20:533,41.874,0.623,0.481,0.455,-14.757,88.003,0.179
15:47:20:534,41.874,1.104,1.302,-0.569,-17.738,89.469,8.615
15:47:20:585,41.925,1.210,1.446,-2.347,-23.229,90.299,21.214
15:47:20:586,41.926,1.268,-0.473,-3.686,-28.287,88.772,32.153
15:47:20:61,41.950,0.756,-1.433,-4.583,-29.154,86.535,35.695
15:47:20:635,41.975,-0.745,-0.454,0.285,-26.411,83.981,32.145
15:47:20:661,42.002,1.108,-0.863,-0.889,-25.226,83.663,29.868
15:47:20:687,42.027,0.340,0.438,-0.744,-23.717,81.544,24.008
15:47:20:714,42.054,0.278,0.158,-1.141,-23.214,80.229,21.084
15:47:20:769,42.109,0.170,-0.182,-0.426,-21.271,78.523,18.489
15:47:20:769,42.110,0.212,-0.014,0.016,-20.681,79.866,16.140
15:47:20:793,42.133,0.152,0.054,0.099,-20.899,81.042,15.148
15:47:20:818,42.159,-0.010,0.028,0.028,-20.860,81.074,14.123
15:47:20:845,42.186,-0.063,0.018,-0.168,-20.670,80.892,13.447
15:47:20:9,42.241,0.062,0.043,0.110,-20.634,82.255,11.786
15:47:20:901,42.241,0.029,0.027,0.027,-20.710,83.731,9.758
15:47:20:924,42.264,-0.028,0.004,0.076,-20.470,84.618,8.234
15:47:20:95,42.290,-0.036,0.179,0.095,-20.065,85.912,5.719
15:47:20:976,42.317,0.308,0.205,0.067,-19.663,86.997,3.792
15:47:21:002,42.342,0.358,0.221,0.123,-19.129,88.752,0.553
15:47:21:03,42.370,0.320,0.144,0.290,-18.831,90.963,-1.957
15:47:21:055,42.395,0.206,0.457,0.388,-18.539,93.006,-6.524
15:47:21:081,42.421,0.362,0.419,0.679,-17.755,95.845,-12.549
15:47:21:166,42.507,0.328,0.369,1.054,-16.626,98.004,-17.346
15:47:21:167,42.507,0.178,0.127,2.242,-14.609,102.418,-26.147
15:47:21:167,42.508,-0.239,0.702,1.546,-12.936,106.011,-32.754
15:47:21:215,42.555,-0.256,0.502,1.172,-8.190,110.641,-43.861
15:47:21:216,42.556,-0.261,-0.982,2.502,-4.393,115.563,-51.968
15:47:21:238,42.579,0.017,1.501,-0.904,3.187,118.225,-56.005
15:47:21:265,42.605,0.671,-0.953,2.843,9.187,120.324,-54.476
15:47:21:291,42.631,1.015,-1.591,0.414,10.200,122.442,-52.429
15:47:21:317,42.658,0.634,-1.176,0.346,4.901,126.125,-46.157
15:47:21:345,42.685,0.730,-0.749,0.287,0.935,128.570,-41.907
15:47:21:371,42.712,0.995,-0.586,0.146,-4.449,130.825,-33.575
15:47:21:426,42.767,0.924,-0.320,0.298,-8.478,132.808,-22.743
15:47:21:426,42.767,0.846,0.082,0.345,-10.594,134.415,-15.073
15:47:21:449,42.789,0.824,0.626,-0.144,-13.590,136.778,-3.067
15:47:21:533,42.873,0.219,1.515,-1.067,-16.021,138.206,5.143
15:47:21:534,42.874,-0.560,1.735,-2.156,-21.496,140.599,17.387
15:47:21:534,42.875,-1.989,-0.210,-3.521,-26.572,140.353,27.679
15:47:21:581,42.921,-1.786,-1.148,-3.344,-27.395,138.698,31.150
15:47:21:639,42.979,3.071,1.913,0.726,-24.951,136.094,28.069
15:47:21:639,42.979,-0.894,0.690,-1.186,-23.790,135.361,25.292
15:47:21:64,42.980,-0.461,0.072,-0.243,-22.601,133.132,19.023
15:47:21:659,42.999,-0.197,-0.358,-0.293,-21.711,131.557,16.301
15:47:21:685,43.025,-0.224,-0.073,-0.458,-19.338,130.488,13.799
15:47:21:711,43.051,0.207,-0.017,-0.214,-18.860,132.340,11.573
15:47:21:737,43.078,0.281,0.045,0.090,-19.091,133.150,10.915
15:47:21:795,43.136,-0.249,0.089,0.037,-18.911,132.966,10.179
15:47:21:795,43.136,0.171,0.000,0.029,-18.584,134.013,9.047
15:47:21:817,43.158,0.107,0.093,0.059,-18.588,135.037,8.084
15:47:21:842,43.183,-0.012,0.029,0.216,-18.289,136.387,6.227
15:47:21:897,43.238,-0.087,0.190,0.146,-17.981,137.359,4.681
15:47:21:898,43.239,0.303,0.121,-0.022,-17.247,139.247,2.043
15:47:21:921,43.261,0.347,0.133,-0.124,-16.693,140.427,0.067
15:47:21:948,43.288,0.411,0.209,0.047,-15.951,141.768,-3.423
15:47:21:973,43.314,0.438,0.351,0.206,-15.204,142.882,-7.934
15:47:22:,43.340,0.739,0.526,0.274,-14.606,143.795,-11.722
15:47:22:026,43.366,1.061,0.310,0.406,-12.547,145.786,-18.781
15:47:22:081,43.422,1.694,0.223,1.523,-10.486,147.756,-24.583
15:47:22:082,43.422,1.138,-0.515,1.142,-7.035,152.409,-34.069
15:47:22:105,43.445,0.921,0.461,1.224,-0.850,156.126,-45.178
15:47:22:16,43.501,1.387,-0.206,2.151,2.161,157.701,-51.355
15:47:22:161,43.502,1.988,0.170,0.850,9.795,160.615,-57.908
15:47:22:185,43.525,0.371,-2.408,0.001,18.178,160.492,-60.025
15:47:22:24,43.580,1.020,0.596,1.782,12.076,161.632,-54.643
15:47:22:24,43.580,0.706,-1.365,-0.072,8.283,163.010,-48.515
15:47:22:262,43.603,0.509,-0.757,0.157,4.524,164.708,-42.892
15:47:22:318,43.658,1.301,-0.787,-0.242,0.577,166.689,-33.110
15:47:22:318,43.659,0.807,-0.176,-0.378,-1.952,167.750,-25.848
15:47:22:341,43.681,0.800,0.031,-0.327,-4.980,169.567,-14.071
15:47:22:367,43.708,0.648,0.545,-0.397,-6.758,170.837,-5.682
15:47:22:394,43.734,-0.230,1.364,-0.514,-10.105,171.634,7.257
15:47:22:42,43.760,-2.426,1.604,-0.704,-14.929,171.446,19.392
15:47:22:448,43.788,-3.014,0.456,-1.774,-18.047,170.715,26.631
15:47:22:472,43.813,-4.486,-0.765,-0.901,-20.527,167.736,32.568
15:47:22:502,43.842,1.571,-0.308,-1.006,-20.068,166.255,30.829
15:47:22:502,43.843,2.586,1.046,-1.027,-15.972,163.058,26.445
15:47:22:554,43.894,-0.766,0.320,-0.212,-14.751,157.579,20.301
15:47:22:555,43.895,-0.806,0.435,0.417,-14.656,156.701,17.128
15:47:22:604,43.945,-0.266,-0.173,-0.338,-13.358,154.927,14.022
15:47:22:689,44.030,-0.310,0.007,-0.364,-12.970,155.598,12.291
15:47:22:69,44.030,0.203,0.030,-0.069,-13.143,157.672,10.559
15:47:22:69,44.030,0.509,0.091,0.188,-13.381,157.830,9.915
15:47:22:712,44.052,-0.305,-0.008,0.058,-13.359,156.789,8.775
15:47:22:712,44.052,0.184,-0.012,0.007,-13.545,157.701,7.192
15:47:22:876,44.216,0.111,0.116,-0.027,-13.734,158.438,5.984
15:47:22:876,44.217,0.008,0.122,0.068,-13.776,159.130,4.281
15:47:22:877,44.217,0.216,0.097,0.023,-13.759,160.019,2.935
15:47:22:878,44.218,0.313,0.123,0.001,-13.605,162.022,0.564
15:47:22:894,44.234,0.369,0.213,-0.126,-13.251,163.527,-2.382
15:47:22:924,44.265,0.523,0.278,-0.125,-12.876,164.256,-4.832
15:47:22:925,44.266,0.666,0.493,-0.041,-12.294,165.155,-9.695
15:47:22:926,44.266,0.917,0.448,-0.085,-11.436,166.016,-13.918
15:47:22:974,44.314,1.841,0.133,0.298,-9.119,168.424,-21.705
15:47:22:975,44.315,1.810,-0.326,0.589,-6.710,172.986,-31.042
15:47:22:997,44.338,1.451,1.146,0.773,-5.238,175.638,-39.172
15:47:23:024,44.364,2.110,-0.404,1.501,-3.129,177.119,-50.442
15:47:23:05,44.390,0.644,-0.799,2.274,-1.517,177.808,-55.145
15:47:23:134,44.475,-2.362,-0.756,0.489,7.952,175.991,-58.596
15:47:23:135,44.476,0.647,-2.363,-0.338,6.779,177.191,-56.317
15:47:23:136,44.476,0.421,-1.484,-0.312,10.323,178.820,-50.543
15:47:23:155,44.495,0.378,-1.011,0.002,8.966,-178.557,-41.325
15:47:23:181,44.522,0.687,-0.913,-0.128,7.867,-176.779,-34.902
15:47:23:208,44.548,0.711,-0.409,-0.215,5.165,-175.000,-23.373
15:47:23:234,44.575,0.541,0.138,-0.197,2.912,-174.352,-14.781
15:47:23:26,44.601,-0.060,0.781,-0.226,-1.236,-173.769,-1.686
15:47:23:286,44.627,-1.363,1.647,-0.061,-6.184,-175.224,11.340
15:47:23:312,44.653,-3.085,1.367,-0.252,-8.724,-177.684,19.864
15:47:23:367,44.708,-4.164,-0.448,-0.189,-11.234,178.643,29.449
15:47:23:368,44.709,-3.181,-0.528,-0.993,-11.631,176.755,31.468
15:47:23:391,44.732,3.051,1.864,-1.781,-9.913,173.905,26.446
15:47:23:417,44.758,-3.312,-0.279,-0.217,-9.638,171.944,22.663
15:47:23:443,44.784,-1.165,0.171,0.239,-9.202,168.725,15.834
15:47:23:47,44.810,-0.218,0.032,-0.104,-8.075,167.716,12.623
15:47:23:525,44.865,-0.143,-0.092,-0.115,-7.572,167.920,10.771
15:47:23:526,44.866,0.248,0.016,-0.173,-7.847,168.772,8.949
15:47:23:549,44.889,-0.166,0.015,-0.018,-7.939,168.450,8.208
15:47:23:575,44.915,-0.181,0.056,0.034,-7.793,167.863,7.008
15:47:23:601,44.941,0.239,0.073,-0.035,-7.943,169.484,5.447
15:47:23:627,44.968,0.152,0.098,0.005,-8.177,170.544,4.352
15:47:23:654,44.994,0.052,0.064,0.114,-8.262,171.488,2.730
15:47:23:68,45.020,0.065,0.031,0.084,-8.171,172.281,1.579
15:47:23:706,45.047,0.352,0.140,0.081,-7.980,173.607,-0.561
15:47:23:733,45.073,0.375,0.229,-0.148,-7.624,174.094,-2.495
15:47:23:788,45.129,0.583,0.340,-0.199,-6.983,174.312,-6.157
15:47:23:788,45.129,0.768,0.521,-0.105,-6.147,174.136,-11.453
15:47:23:869,45.210,1.068,0.424,-0.107,-5.108,174.203,-15.900
15:47:23:87,45.210,2.024,-0.083,0.407,-3.407,175.628,-23.434
15:47:23:871,45.211,1.224,0.666,0.735,-2.198,177.811,-29.867
15:47:23:89,45.230,1.573,0.751,0.636,2.302,-179.679,-41.273
15:47:23:916,45.256,1.449,-0.455,1.161,5.471,179.985,-50.284
15:47:24:001,45.342,1.849,-0.140,-0.006,6.260,179.521,-53.126
15:47:24:002,45.342,1.492,-2.523,-0.276,7.615,177.249,-54.135
15:47:24:002,45.343,0.260,-1.651,-0.142,9.771,177.118,-51.591
15:47:24:021,45.362,0.366,-1.235,0.167,9.839,177.430,-44.511
15:47:24:047,45.388,0.493,-1.019,0.173,8.670,178.681,-35.077
15:47:24:074,45.414,0.515,-0.806,0.067,7.239,179.275,-27.833
15:47:24:1,45.440,0.540,-0.398,0.107,4.040,179.620,-16.444
15:47:24:128,45.469,0.439,0.114,0.148,1.205,179.464,-8.567
15:47:24:153,45.493,-0.280,1.031,0.024,-3.968,178.646,3.772
15:47:24:179,45.520,-2.163,1.971,-0.459,-7.685,177.719,11.917
15:47:24:205,45.545,-3.428,1.201,-1.375,-12.289,175.875,23.468
15:47:24:231,45.572,-4.603,-0.502,-0.422,-15.127,175.641,30.385
15:47:24:287,45.627,-2.057,-0.211,-0.814,-14.882,176.730,30.043
15:47:24:287,45.628,3.247,1.310,-1.394,-13.597,176.423,24.677
15:47:24:31,45.650,-1.555,0.792,0.449,-13.870,173.517,17.861
15:47:24:336,45.676,-2.126,0.775,-0.366,-13.659,172.002,14.682
15:47:24:392,45.732,-0.537,-0.233,-0.191,-11.672,171.669,11.976
15:47:24:392,45.732,0.032,-0.017,-0.323,-11.501,172.844,10.134
15:47:24:444,45.785,0.124,0.101,-0.296,-12.344,173.837,8.608
15:47:24:445,45.785,-0.262,0.043,0.263,-12.687,173.752,7.915
15:47:24:467,45.808,-0.044,0.057,-0.010,-12.861,174.274,6.751
15:47:24:493,45.834,0.254,0.124,-0.001,-13.414,176.153,5.166
15:47:24:52,45.860,0.186,0.105,0.098,-13.674,177.231,3.875
15:47:24:547,45.888,0.054,0.006,0.104,-13.660,178.781,1.906
15:47:24:573,45.913,0.199,0.048,-0.006,-13.587,179.871,0.605
15:47:24:598,45.939,0.217,0.059,-0.037,-13.387,-178.965,-1.398
15:47:24:653,45.993,0.197,0.168,-0.097,-13.125,-178.224,-3.852
15:47:24:713,46.053,0.267,0.184,-0.176,-12.954,-177.526,-5.941
15:47:24:713,46.053,0.485,0.274,-0.086,-12.518,-176.419,-9.717
15:47:24:788,46.128,1.929,0.200,-0.025,-9.798,-171.934,-23.912
15:47:24:789,46.129,1.743,-0.298,-0.090,-7.044,-167.230,-32.492
15:47:24:789,46.130,1.673,0.464,-0.192,-1.983,-162.367,-42.976
15:47:24:808,46.149,1.884,0.434,0.569,2.151,-159.845,-48.814
15:47:24:865,46.205,1.333,-0.375,-0.850,9.828,-155.402,-53.521
15:47:24:865,46.206,-0.351,0.275,1.443,16.297,-152.989,-54.426
15:47:24:943,46.283,0.514,-1.660,-0.755,19.140,-148.824,-51.816
15:47:24:944,46.284,0.228,-1.046,-0.684,14.605,-145.150,-46.622
15:47:24:968,46.308,0.478,-0.942,-0.719,9.927,-143.057,-41.992
15:47:24:995,46.336,0.351,-0.644,-0.914,3.035,-141.121,-33.221
15:47:24:996,46.336,0.354,-0.145,-0.716,-0.715,-140.356,-26.248
15:47:25:019,46.359,0.271,0.057,-0.811,-4.524,-139.253,-14.556
15:47:25:212,46.552,0.115,0.623,-0.543,-6.304,-138.021,-6.250
15:47:25:213,46.553,-0.237,1.207,-0.274,-9.414,-136.397,6.655
15:47:25:213,46.553,-1.906,1.558,1.464,-14.256,-135.709,18.614
15:47:25:214,46.554,-3.040,0.349,0.801,-17.925,-135.293,25.598
15:47:25:291,46.632,-3.316,-0.936,3.071,-21.525,-136.052,31.365
15:47:25:291,46.632,-2.550,-0.575,1.116,-20.251,-135.049,30.211
15:47:25:292,46.632,1.848,0.097,-3.394,-17.935,-133.953,23.988
15:47:25:293,46.633,-1.363,0.602,1.847,-17.587,-134.857,19.603
15:47:25:313,46.654,-2.157,1.206,1.341,-17.985,-137.071,16.071
15:47:25:314,46.654,-0.291,-0.528,0.508,-15.718,-138.955,13.888
15:47:25:315,46.655,-0.251,0.156,-0.043,-14.999,-139.392,13.013
15:47:25:334,46.674,-0.017,0.078,-0.091,-15.249,-137.458,11.657
15:47:25:36,46.700,0.221,-0.020,-0.166,-15.623,-136.393,11.216
15:47:25:387,46.728,0.069,0.086,0.242,-15.810,-136.755,11.066
15:47:25:439,46.779,0.254,0.050,-0.148,-16.080,-134.251,9.775
15:47:25:465,46.805,0.281,0.052,-0.122,-15.936,-132.313,8.152
15:47:25:491,46.832,0.100,0.123,0.011,-15.740,-131.525,6.776
15:47:25:518,46.858,0.086,0.147,-0.161,-15.269,-129.988,4.140
15:47:25:602,46.942,0.092,0.174,-0.283,-14.711,-128.451,1.209
15:47:25:602,46.943,0.107,0.182,-0.354,-14.452,-127.805,-1.095
15:47:25:603,46.944,0.140,0.356,-0.252,-14.033,-126.664,-5.363
15:47:25:622,46.963,0.225,0.427,-0.434,-13.616,-125.450,-8.912
15:47:25:736,47.076,0.424,0.263,-0.825,-12.666,-123.350,-15.412
15:47:25:737,47.077,0.741,0.128,-1.073,-11.997,-121.822,-20.361
15:47:25:737,47.078,1.157,-0.196,-1.612,-11.300,-118.397,-28.463
15:47:25:738,47.079,1.013,0.288,-1.040,-7.947,-113.562,-38.933
15:47:25:756,47.096,1.660,1.116,-0.902,-5.403,-110.696,-45.742
15:47:25:809,47.150,1.558,-0.080,-0.909,0.055,-105.789,-53.978
15:47:25:81,47.150,0.492,-0.015,1.108,8.568,-104.174,-55.645
15:47:25:832,47.173,-0.442,-2.617,-0.581,15.392,-103.121,-54.332
15:47:25:888,47.228,-0.176,-1.130,-0.478,13.592,-101.412,-49.736
15:47:25:889,47.229,0.031,-1.028,-0.336,10.464,-100.433,-45.246
15:47:25:911,47.252,-0.123,-0.933,-0.854,5.835,-99.344,-36.126
15:47:25:967,47.307,0.028,-0.242,-0.688,2.787,-98.526,-28.887
15:47:25:967,47.308,-0.142,-0.233,-0.661,-0.798,-96.692,-17.019
15:47:25:99,47.330,-0.468,0.265,-0.490,-3.785,-94.370,-5.360
15:47:26:017,47.358,-0.492,0.769,-0.294,-6.149,-92.284,2.586
15:47:26:042,47.383,-0.609,1.544,0.787,-11.142,-89.815,14.262
15:47:26:069,47.409,-1.152,1.131,2.730,-15.275,-89.420,21.548
15:47:26:204,47.544,-0.567,-1.360,3.944,-20.225,-93.401,34.097
15:47:26:204,47.544,-0.013,-0.259,1.634,-18.557,-94.516,31.122
15:47:26:261,47.602,-0.969,0.628,-1.533,-16.337,-94.570,27.326
15:47:26:262,47.602,-0.248,0.576,1.151,-15.870,-95.998,23.248
15:47:26:263,47.603,0.067,0.441,1.166,-15.695,-97.895,19.001
15:47:26:264,47.604,-0.125,-0.133,0.361,-14.452,-98.695,17.021
15:47:26:28,47.620,-0.085,0.006,0.384,-13.708,-97.855,14.699
15:47:26:336,47.676,-0.044,0.058,-0.159,-13.849,-95.889,13.174
15:47:26:336,47.676,0.036,0.071,-0.230,-13.897,-95.444,12.448
15:47:26:357,47.698,0.209,0.020,0.268,-13.679,-95.758,11.445
15:47:26:383,47.724,0.094,-0.039,-0.004,-13.658,-94.919,10.499
15:47:26:41,47.751,-0.013,0.098,-0.075,-13.998,-93.194,8.860
15:47:26:437,47.778,0.154,0.063,-0.087,-13.976,-92.264,7.604
15:47:26:462,47.803,0.158,0.115,-0.031,-13.688,-90.617,5.318
15:47:26:489,47.829,-0.027,0.135,-0.173,-13.321,-88.513,2.655
15:47:26:516,47.856,-0.089,0.236,-0.219,-13.110,-87.387,0.733
15:47:26:599,47.940,-0.122,0.259,-0.254,-12.685,-85.846,-2.642
15:47:26:6,47.940,-0.035,0.486,-0.486,-12.515,-84.820,-5.308
15:47:26:601,47.941,-0.064,0.423,-0.580,-12.191,-83.096,-10.390
15:47:26:62,47.961,-0.194,0.241,-1.042,-11.026,-80.703,-16.877
15:47:26:675,48.016,-0.217,0.223,-1.828,-10.204,-78.423,-22.066
15:47:26:676,48.017,-0.205,-0.146,-1.574,-8.431,-73.225,-31.099
15:47:26:699,48.039,-0.108,1.149,-1.349,-5.995,-69.629,-38.466
15:47:26:754,48.094,0.519,0.123,-2.314,-2.650,-65.345,-48.288
15:47:26:755,48.095,-0.042,-0.163,0.070,2.799,-62.901,-51.760
15:47:26:781,48.121,0.934,-0.078,-0.439,11.882,-60.708,-53.612
15:47:26:804,48.145,-0.631,-1.646,-0.200,14.682,-56.803,-51.766
15:47:26:83,48.170,-0.598,-1.186,-0.172,12.984,-54.925,-48.772
15:47:26:856,48.197,-0.524,-0.869,-0.408,8.830,-51.867,-42.385
15:47:26:883,48.223,-0.729,-0.750,-0.268,5.541,-50.430,-36.914
15:47:26:938,48.278,-0.665,-0.279,-0.330,0.950,-49.164,-26.408
15:47:26:939,48.279,-0.408,0.111,-0.191,-2.661,-47.303,-13.873
15:47:26:962,48.302,-0.427,0.571,-0.156,-4.833,-45.152,-5.689
15:47:27:049,48.390,-0.297,1.046,0.370,-8.383,-40.715,6.288
15:47:27:05,48.391,1.077,1.468,1.905,-11.963,-38.555,13.835
15:47:27:051,48.391,0.536,0.392,3.037,-18.461,-37.320,24.115
15:47:27:052,48.392,3.342,-0.580,3.050,-21.442,-39.250,29.813
15:47:27:068,48.408,1.480,-0.972,2.450,-19.706,-44.742,33.144
15:47:27:092,48.433,-3.121,1.420,-0.929,-16.273,-48.505,29.060
15:47:27:119,48.459,2.075,0.254,1.465,-16.055,-49.790,25.110
15:47:27:145,48.485,1.406,0.680,2.003,-15.447,-52.296,19.202
15:47:27:171,48.512,-0.010,-0.654,0.263,-13.576,-52.645,17.052
15:47:27:226,48.567,-0.150,-0.010,0.067,-12.482,-51.264,14.075
15:47:27:227,48.568,-0.117,0.150,-0.092,-13.185,-49.667,12.286
15:47:27:25,48.591,0.022,-0.045,-0.168,-13.154,-49.487,11.373
15:47:27:276,48.617,0.234,0.002,0.089,-12.641,-49.736,9.987
15:47:27:303,48.643,-0.052,0.068,-0.090,-12.396,-48.823,8.845
15:47:27:328,48.669,0.038,0.044,-0.114,-12.129,-47.409,7.248
15:47:27:355,48.695,0.103,0.037,-0.015,-11.602,-46.349,5.615
15:47:27:382,48.722,-0.027,0.067,-0.015,-11.311,-45.527,4.532
15:47:27:407,48.748,-0.057,0.109,-0.037,-10.921,-44.375,2.733
15:47:27:434,48.774,-0.069,0.126,-0.092,-10.611,-43.614,1.256
15:47:27:46,48.800,-0.081,0.252,-0.059,-10.066,-42.373,-1.509
15:47:27:488,48.828,-0.300,0.396,-0.268,-9.565,-41.325,-3.804
15:47:27:513,48.853,-0.491,0.421,-0.350,-8.561,-39.519,-8.411
15:47:27:539,48.879,-0.815,0.442,-0.552,-7.045,-37.474,-14.654
15:47:27:565,48.905,-1.226,0.293,-0.867,-5.453,-35.607,-19.785
15:47:27:591,48.932,-1.632,-0.629,-1.224,-3.433,-31.545,-28.143
15:47:27:619,48.960,-0.824,0.599,-1.038,-1.315,-28.959,-35.212
15:47:27:644,48.985,-0.658,0.393,-1.102,3.040,-26.611,-44.909
15:47:27:67,49.010,-0.865,-1.272,-1.279,8.447,-23.572,-51.111
15:47:27:696,49.037,1.753,-0.388,0.520,14.792,-24.469,-53.127
15:47:27:723,49.063,-1.100,-1.177,-0.583,12.854,-25.838,-50.942
15:47:27:749,49.089,-0.363,-1.217,-0.269,12.077,-26.172,-48.596
15:47:27:775,49.116,-0.411,-0.990,-0.534,6.988,-25.594,-41.494
15:47:27:801,49.142,-0.584,-0.478,-0.246,4.522,-25.177,-36.520
15:47:27:827,49.168,-0.769,-0.494,0.058,1.709,-24.306,-26.823
15:47:27:855,49.195,-0.665,-0.161,0.126,-0.974,-23.002,-15.747
15:47:27:88,49.221,-0.593,0.172,0.159,-2.733,-22.099,-7.950
15:47:27:906,49.247,-0.492,0.802,0.161,-5.609,-21.008,4.585
15:47:27:932,49.273,0.089,1.185,0.431,-8.218,-21.003,12.991
15:47:27:961,49.302,2.089,1.383,1.205,-13.282,-21.693,24.807
15:47:27:986,49.326,3.252,-0.809,2.256,-16.795,-23.341,33.921
15:47:28:012,49.352,3.581,-1.018,1.791,-17.811,-24.486,37.211
15:47:28:038,49.378,-0.818,1.080,0.724,-15.859,-24.383,33.079
15:47:28:064,49.404,1.217,-0.745,0.952,-14.086,-25.267,30.620
15:47:28:119,49.459,0.226,0.122,-0.194,-12.750,-27.497,24.571
15:47:28:12,49.460,0.755,0.208,0.328,-12.839,-28.389,21.667
15:47:28:144,49.484,0.261,-0.348,0.198,-11.094,-29.298,18.362
15:47:28:169,49.509,-0.110,0.058,0.242,-10.787,-27.518,15.673
15:47:28:195,49.536,-0.103,0.205,0.003,-11.143,-26.919,14.753
15:47:28:221,49.562,0.296,0.024,-0.135,-10.882,-27.389,13.338
15:47:28:247,49.588,0.248,0.016,-0.138,-10.716,-27.403,12.200
15:47:28:274,49.615,-0.102,0.151,0.003,-10.584,-26.296,10.135
15:47:28:3,49.640,-0.024,0.111,-0.005,-10.300,-25.371,7.906
15:47:28:326,49.667,-0.018,0.044,-0.004,-9.949,-24.698,6.343
15:47:28:353,49.693,-0.075,0.171,-0.067,-9.617,-23.732,3.925
15:47:28:38,49.720,-0.130,0.130,0.047,-9.380,-23.134,2.063
15:47:28:435,49.776,-0.220,0.175,-0.021,-8.972,-22.141,-1.125
15:47:28:435,49.776,-0.361,0.300,-0.128,-8.651,-21.456,-3.704
15:47:28:457,49.798,-0.400,0.499,-0.178,-8.204,-20.636,-8.609
15:47:28:483,49.824,-0.785,0.347,0.140,-6.926,-19.256,-14.803
15:47:28:51,49.851,-1.556,0.077,-0.502,-5.677,-17.448,-19.014
15:47:28:538,49.878,-1.623,-0.076,-0.863,-3.194,-13.728,-26.647
15:47:28:563,49.903,-1.212,0.657,-0.594,-1.127,-11.785,-33.199
15:47:28:589,49.929,-1.527,0.607,-1.654,2.375,-9.686,-43.215
15:47:28:644,49.984,-2.532,-1.239,-1.222,5.226,-8.357,-50.357
15:47:28:645,49.985,2.124,-0.976,0.275,10.415,-10.607,-52.093
15:47:28:669,50.009,-1.311,-1.606,-0.183,9.048,-10.916,-49.547
15:47:28:724,50.064,-0.475,-1.530,0.131,9.890,-10.455,-47.320
15:47:28:724,50.064,-0.398,-0.924,-0.124,7.305,-9.100,-40.635
15:47:28:746,50.087,-0.504,-0.548,0.074,5.215,-8.194,-35.721
15:47:28:773,50.113,-0.525,-0.488,0.144,2.470,-6.995,-26.233
15:47:28:799,50.139,-0.801,-0.072,0.124,-0.383,-5.420,-14.040
15:47:28:825,50.166,-0.651,0.430,0.169,-2.592,-4.498,-5.485
15:47:28:852,50.193,0.039,1.172,0.401,-6.819,-4.447,7.178
15:47:28:878,50.218,1.958,1.633,0.679,-9.804,-5.376,15.735
15:47:28:904,50.244,3.434,0.583,0.884,-13.866,-7.492,28.412
15:47:28:93,50.271,4.088,-1.509,0.946,-16.331,-9.831,36.738
15:47:28:956,50.296,4.091,-0.116,0.525,-17.005,-10.697,36.930
15:47:28:982,50.323,-2.949,1.196,1.069,-13.076,-12.476,31.296
15:47:29:009,50.349,2.477,0.490,0.452,-12.140,-13.845,27.091
15:47:29:035,50.375,0.361,0.115,0.179,-11.450,-15.814,21.156
15:47:29:063,50.404,0.432,0.009,0.234,-10.770,-16.015,18.595
15:47:29:087,50.428,-0.077,0.017,0.097,-10.260,-14.900,16.036
15:47:29:146,50.486,-0.179,0.082,0.058,-10.731,-13.865,14.457
15:47:29:147,50.487,0.018,0.017,-0.094,-10.836,-14.104,13.537
15:47:29:148,50.488,0.171,0.062,-0.085,-10.874,-14.237,12.031
15:47:29:193,50.533,-0.141,0.195,-0.012,-10.974,-13.460,10.912
15:47:29:221,50.562,-0.003,0.145,-0.096,-10.876,-12.956,9.488
15:47:29:222,50.563,0.068,0.111,0.022,-10.589,-12.103,7.489
15:47:29:275,50.616,-0.059,0.078,0.018,-10.485,-11.143,5.950
15:47:29:275,50.616,-0.072,0.068,-0.015,-10.306,-9.830,3.304
15:47:29:327,50.667,-0.111,0.126,0.052,-10.130,-8.920,1.215
15:47:29:329,50.669,-0.303,0.140,0.101,-9.810,-7.442,-2.622
15:47:29:351,50.691,-0.493,0.407,-0.059,-9.345,-6.423,-7.695
15:47:29:377,50.717,-0.728,0.493,-0.015,-8.778,-5.722,-11.955
15:47:29:402,50.743,-1.343,0.332,-0.128,-7.496,-3.566,-18.944
15:47:29:429,50.769,-2.127,-0.046,-0.238,-5.825,-0.732,-24.236
15:47:29:455,50.795,-0.953,1.055,-0.654,-1.692,4.279,-33.940
15:47:29:481,50.822,-1.188,0.263,-0.364,1.991,6.923,-40.504
15:47:29:508,50.848,-1.890,-0.433,-0.834,5.563,11.827,-49.861
15:47:29:534,50.874,2.302,1.799,0.684,13.254,10.693,-52.150
15:47:29:56,50.901,-2.104,-0.287,-0.317,11.421,10.124,-50.047
15:47:29:587,50.928,-0.275,-1.563,0.469,11.245,10.711,-45.903
15:47:29:613,50.953,-0.532,-0.896,0.083,8.430,11.681,-40.999
15:47:29:639,50.979,-0.545,-0.846,0.186,4.479,13.449,-32.752
15:47:29:665,51.006,-0.662,-0.374,0.442,0.676,14.490,-21.955
15:47:29:693,51.034,-0.838,-0.269,0.610,-1.840,15.290,-13.721
15:47:29:718,51.059,-0.458,0.531,0.654,-5.753,16.185,-1.793
15:47:29:744,51.084,0.173,1.032,0.618,-8.759,15.949,6.478
15:47:29:77,51.110,1.659,1.420,0.098,-13.612,14.667,19.464
15:47:29:796,51.137,4.040,-0.088,-0.184,-17.244,13.021,27.669
15:47:29:851,51.192,4.324,-0.975,-0.676,-19.882,10.393,36.197
15:47:29:852,51.193,3.144,-1.723,-0.188,-19.432,10.087,35.545
15:47:29:875,51.215,-2.210,1.913,2.486,-16.969,8.983,31.877
15:47:30:016,51.356,1.216,0.527,-0.951,-16.001,6.505,25.614
15:47:30:016,51.356,-0.093,-0.114,0.264,-15.794,4.821,22.389
15:47:30:017,51.357,0.600,-0.346,0.046,-13.959,4.158,19.074
