Time,Second,AccelerationX,AccelerationY,AccelerationZ,EulerAnglesX,EulerAnglesY,EulerAnglesZ
17:39:51:81,0.000,-0.014,-0.002,-0.020,5.750,78.409,-25.907
17:39:51:811,0.001,-0.028,-0.014,-0.026,6.052,78.708,-25.457
17:39:51:863,0.053,-0.036,-0.005,-0.022,6.230,78.974,-25.128
17:39:51:863,0.053,-0.041,0.008,-0.026,6.476,79.551,-24.549
17:39:51:886,0.076,-0.030,0.009,-0.024,6.723,80.364,-23.903
17:39:51:941,0.131,-0.021,0.040,-0.027,6.875,80.853,-23.468
17:39:51:942,0.132,-0.005,0.033,-0.026,7.137,81.830,-22.808
17:39:51:994,0.184,0.001,0.015,-0.037,7.301,82.363,-22.423
17:39:51:995,0.185,0.001,0.009,-0.032,7.519,83.168,-22.024
17:39:52:077,0.267,-0.011,-0.005,-0.027,7.713,84.014,-21.825
17:39:52:077,0.267,-0.015,-0.012,-0.023,7.824,84.586,-21.773
17:39:52:077,0.267,-0.022,0.026,-0.023,7.958,85.367,-21.810
17:39:52:154,0.345,-0.014,0.079,-0.022,8.095,85.915,-21.843
17:39:52:154,0.345,-0.018,0.028,-0.015,8.420,86.722,-21.907
17:39:52:155,0.346,-0.020,-0.045,0.005,8.834,87.577,-22.066
17:39:52:174,0.365,-0.019,-0.081,0.014,9.085,87.842,-22.278
17:39:52:369,0.559,-0.032,-0.079,0.018,9.361,88.015,-22.731
17:39:52:369,0.559,-0.046,-0.037,0.005,9.466,87.954,-23.099
17:39:52:37,0.560,-0.048,-0.010,0.009,9.538,87.918,-23.646
17:39:52:371,0.561,-0.049,0.010,0.017,9.577,87.833,-24.139
17:39:52:385,0.575,-0.042,-0.002,0.027,9.593,87.782,-24.434
17:39:52:439,0.629,-0.036,-0.024,0.043,9.394,87.861,-24.703
17:39:52:499,0.690,-0.045,-0.015,0.042,9.228,88.011,-24.867
17:39:52:499,0.690,-0.039,-0.002,0.041,8.897,88.109,-25.092
17:39:52:501,0.692,-0.012,-0.003,0.052,8.348,88.644,-25.338
17:39:52:524,0.715,-0.017,-0.008,0.051,8.073,89.075,-25.400
17:39:52:525,0.716,-0.004,-0.015,0.049,7.904,89.263,-25.415
17:39:52:525,0.716,-0.003,-0.029,0.052,7.672,89.620,-25.383
17:39:52:526,0.717,0.004,-0.019,0.046,7.476,90.005,-25.298
17:39:52:571,0.762,-0.008,-0.012,0.049,7.346,90.134,-25.219
17:39:52:572,0.763,0.002,-0.006,0.046,7.172,90.258,-25.022
17:39:52:594,0.785,-0.001,-0.010,0.034,7.058,90.336,-24.866
17:39:52:621,0.811,0.001,-0.013,0.030,6.906,90.454,-24.579
17:39:52:647,0.837,-0.002,-0.007,0.018,6.762,90.592,-24.264
17:39:52:673,0.863,0.000,-0.004,0.016,6.681,90.715,-24.033
17:39:52:729,0.919,-0.004,-0.003,0.010,6.595,90.955,-23.643
17:39:52:729,0.919,0.004,-0.002,0.009,6.552,91.143,-23.357
17:39:52:781,0.971,-0.001,-0.002,0.000,6.499,91.265,-22.938
17:39:52:782,0.972,0.002,-0.011,-0.007,6.489,91.293,-22.675
17:39:52:805,0.995,-0.007,-0.003,-0.013,6.497,91.302,-22.322
17:39:52:86,1.050,-0.002,0.018,-0.018,6.538,91.285,-22.045
17:39:52:861,1.051,-0.006,0.022,-0.018,6.573,91.273,-21.896
17:39:52:912,1.103,-0.010,0.028,-0.022,6.633,91.260,-21.735
17:39:52:912,1.103,-0.007,0.022,-0.022,6.670,91.245,-21.664
17:39:52:994,1.184,-0.003,0.020,-0.017,6.746,91.244,-21.622
17:39:52:995,1.185,-0.003,0.011,-0.027,6.827,91.225,-21.658
17:39:52:996,1.186,-0.016,0.011,-0.021,6.894,91.211,-21.726
17:39:53:015,1.205,-0.008,0.008,-0.022,7.013,91.132,-21.848
17:39:53:071,1.262,-0.012,-0.002,-0.017,7.104,91.099,-21.945
17:39:53:071,1.262,-0.007,-0.001,-0.017,7.253,90.948,-22.120
17:39:53:093,1.284,-0.023,-0.001,-0.011,7.393,90.769,-22.326
17:39:53:121,1.311,-0.023,-0.001,-0.011,7.478,90.640,-22.471
17:39:53:146,1.336,-0.029,0.001,-0.012,7.590,90.446,-22.704
17:39:53:172,1.362,-0.027,-0.006,-0.010,7.654,90.304,-22.857
17:39:53:199,1.389,-0.071,0.022,-0.072,7.609,89.994,-23.014
17:39:53:225,1.415,-0.044,0.025,-0.080,7.611,89.900,-22.749
17:39:53:28,1.470,-0.038,-0.035,0.049,7.576,89.700,-22.433
17:39:53:281,1.471,-0.028,-0.042,0.098,7.194,88.011,-22.119
17:39:53:333,1.523,-0.049,-0.019,0.021,6.715,86.092,-22.142
17:39:53:334,1.524,-0.021,-0.002,0.000,5.774,83.175,-22.421
17:39:53:356,1.547,-0.011,0.006,-0.031,4.875,81.118,-22.995
17:39:53:435,1.626,0.005,0.002,-0.028,4.370,80.408,-23.560
17:39:53:467,1.657,0.008,0.021,-0.013,3.786,80.250,-24.575
17:39:53:467,1.657,0.037,0.023,-0.016,3.531,80.604,-25.280
17:39:53:468,1.658,0.049,0.020,-0.013,3.564,81.904,-26.255
17:39:53:487,1.677,0.073,-0.007,0.096,4.230,83.944,-26.926
17:39:53:619,1.810,0.064,-0.042,0.151,4.810,85.126,-27.109
17:39:53:646,1.837,0.027,-0.036,0.077,5.264,85.682,-27.166
17:39:53:68,1.871,-0.001,0.039,-0.001,5.399,85.694,-27.139
17:39:53:68,1.871,-0.008,0.042,0.001,5.835,86.287,-26.934
17:39:53:681,1.872,-0.013,0.017,0.008,6.578,87.495,-26.560
17:39:53:682,1.873,-0.004,0.002,0.028,7.098,88.584,-26.297
17:39:53:728,1.919,0.022,-0.001,0.046,7.766,89.850,-25.904
17:39:53:728,1.919,0.003,-0.005,0.047,8.123,90.730,-25.665
17:39:53:754,1.944,-0.003,0.016,0.040,8.481,91.192,-25.353
17:39:53:754,1.944,-0.015,0.004,0.025,8.623,91.316,-25.159
17:39:53:89,2.080,-0.020,-0.003,0.028,8.793,91.423,-24.952
17:39:53:891,2.081,-0.034,0.007,0.022,8.957,91.544,-24.832
17:39:53:892,2.082,-0.027,0.011,0.037,9.094,91.627,-24.777
17:39:53:893,2.083,-0.040,-0.029,0.057,9.361,91.722,-24.721
17:39:53:909,2.099,-0.036,-0.052,0.067,9.529,91.530,-24.806
17:39:54:021,2.212,-0.044,-0.029,0.052,9.583,90.839,-25.019
17:39:54:021,2.212,-0.040,-0.016,0.035,9.343,89.891,-25.113
17:39:54:022,2.213,-0.054,-0.006,0.018,9.201,89.187,-25.233
17:39:54:023,2.214,-0.047,0.003,-0.009,8.956,88.320,-25.257
17:39:54:041,2.232,-0.055,0.006,0.000,8.831,87.922,-25.151
17:39:54:042,2.233,-0.038,-0.001,-0.003,8.573,87.546,-24.830
17:39:54:064,2.255,-0.026,0.002,-0.002,8.304,87.357,-24.384
17:39:54:12,2.310,-0.022,0.005,-0.009,8.146,87.288,-24.053
17:39:54:12,2.310,-0.022,0.007,-0.023,7.887,87.278,-23.552
17:39:54:145,2.335,-0.005,0.006,-0.023,7.737,87.339,-23.227
17:39:54:171,2.361,0.014,-0.007,-0.003,7.554,87.481,-22.789
17:39:54:197,2.387,0.027,0.000,-0.003,7.317,87.358,-22.493
17:39:54:251,2.441,0.046,0.035,-0.019,7.119,86.993,-22.419
17:39:54:252,2.442,0.066,0.030,-0.044,6.810,86.145,-22.429
17:39:54:301,2.491,0.064,0.028,-0.035,6.669,85.744,-22.468
17:39:54:388,2.578,0.055,0.019,-0.023,6.738,85.573,-22.580
17:39:54:389,2.579,0.030,0.007,-0.004,6.895,85.627,-22.654
17:39:54:39,2.580,0.006,0.001,0.003,6.965,85.745,-22.686
17:39:54:435,2.625,-0.011,-0.008,0.001,7.115,85.890,-22.746
17:39:54:436,2.626,-0.004,-0.011,0.001,7.169,86.020,-22.734
17:39:54:459,2.649,-0.016,-0.010,0.001,7.213,86.127,-22.706
17:39:54:515,2.705,-0.014,-0.002,0.001,7.218,86.164,-22.675
17:39:54:515,2.705,-0.015,-0.008,-0.005,7.187,86.132,-22.624
17:39:54:538,2.728,-0.011,-0.012,-0.006,7.154,86.150,-22.599
17:39:54:563,2.754,-0.010,-0.011,-0.009,7.091,86.423,-22.574
17:39:54:589,2.780,0.001,0.000,-0.011,7.022,86.537,-22.556
17:39:54:615,2.806,-0.007,0.000,-0.012,6.973,86.614,-22.555
17:39:54:675,2.865,0.002,0.005,-0.014,6.894,86.668,-22.537
17:39:54:676,2.866,0.012,0.009,-0.019,6.844,86.685,-22.537
17:39:54:677,2.867,0.019,0.013,-0.018,6.795,86.735,-22.563
17:39:54:752,2.943,0.023,0.006,-0.004,6.793,86.902,-22.602
17:39:54:753,2.944,0.029,0.005,0.012,6.820,87.126,-22.613
17:39:54:754,2.945,0.015,0.003,0.016,6.906,87.418,-22.610
17:39:54:801,2.992,0.010,0.000,0.019,6.965,87.597,-22.612
17:39:54:855,3.046,-0.001,0.004,0.022,7.057,87.791,-22.610
17:39:54:855,3.046,-0.005,0.003,0.017,7.095,87.929,-22.642
17:39:54:882,3.073,-0.010,0.004,0.015,7.104,87.919,-22.678
17:39:54:882,3.073,-0.009,0.009,0.013,7.138,87.941,-22.766
17:39:54:933,3.123,-0.012,0.003,0.015,7.153,87.943,-22.829
17:39:54:934,3.124,-0.011,-0.001,0.017,7.163,87.945,-22.915
17:39:54:957,3.147,-0.009,-0.006,0.011,7.139,87.921,-22.992
17:39:54:985,3.175,-0.010,-0.007,0.006,7.125,87.926,-23.032
17:39:55:009,3.200,-0.006,-0.015,0.005,7.115,87.995,-23.046
17:39:55:094,3.285,-0.010,-0.008,0.009,7.106,88.034,-23.024
17:39:55:094,3.285,-0.002,0.000,0.008,7.079,88.084,-22.964
17:39:55:095,3.286,-0.004,0.002,0.004,7.063,88.103,-22.914
17:39:55:173,3.363,0.002,0.002,0.003,7.034,88.111,-22.850
17:39:55:174,3.364,0.000,0.003,-0.006,7.014,88.124,-22.785
17:39:55:174,3.364,0.003,0.002,-0.005,7.007,88.166,-22.743
17:39:55:222,3.412,-0.005,0.000,-0.006,7.016,88.193,-22.667
17:39:55:223,3.413,0.008,0.007,-0.014,7.014,88.192,-22.613
17:39:55:275,3.465,0.000,0.001,-0.009,7.028,88.228,-22.532
17:39:55:276,3.466,0.002,0.005,-0.011,7.058,88.297,-22.457
17:39:55:385,3.576,-0.006,0.004,-0.011,7.076,88.349,-22.414
17:39:55:386,3.577,0.004,-0.002,-0.012,7.111,88.430,-22.366
17:39:55:387,3.578,-0.004,0.003,-0.011,7.130,88.475,-22.339
17:39:55:388,3.579,-0.003,-0.001,-0.010,7.151,88.533,-22.317
17:39:55:403,3.594,-0.006,0.002,-0.008,7.175,88.607,-22.319
17:39:55:429,3.620,0.000,0.002,-0.007,7.182,88.660,-22.313
17:39:55:484,3.675,-0.008,0.001,-0.006,7.186,88.734,-22.306
17:39:55:511,3.701,0.000,0.002,0.000,7.188,88.792,-22.282
17:39:55:512,3.702,-0.007,-0.001,0.000,7.192,88.882,-22.252
17:39:55:534,3.724,0.000,0.000,0.000,7.190,88.952,-22.202
17:39:55:561,3.751,-0.004,0.000,0.002,7.181,88.998,-22.172
17:39:55:647,3.837,-0.004,0.000,0.005,7.175,89.062,-22.108
17:39:55:647,3.837,-0.001,-0.002,0.006,7.162,89.095,-22.071
17:39:55:647,3.837,0.000,-0.001,0.002,7.144,89.132,-22.016
17:39:55:666,3.856,-0.001,-0.001,0.006,7.119,89.171,-21.954
17:39:55:777,3.967,-0.001,-0.003,0.009,7.103,89.190,-21.918
17:39:55:778,3.968,0.004,0.004,-0.006,7.048,89.155,-21.869
17:39:55:778,3.968,-0.002,-0.004,-0.006,6.993,89.130,-21.836
17:39:55:829,4.019,0.001,-0.002,-0.006,6.936,89.149,-21.780
17:39:55:83,4.020,0.001,-0.007,0.001,6.909,89.184,-21.743
17:39:55:831,4.021,0.005,0.004,-0.006,6.902,89.147,-21.721
17:39:55:85,4.040,-0.004,0.008,-0.016,6.896,89.056,-21.703
17:39:55:934,4.125,0.002,0.012,0.005,6.928,89.037,-21.682
17:39:55:934,4.125,-0.001,0.013,-0.007,6.968,88.970,-21.650
17:39:55:935,4.126,0.007,0.001,-0.009,6.991,88.858,-21.654
17:39:55:954,4.145,-0.010,0.000,-0.002,7.020,88.847,-21.655
17:39:56:008,4.198,-0.001,0.007,0.005,7.080,88.905,-21.639
17:39:56:066,4.256,-0.003,0.003,0.002,7.123,88.966,-21.602
17:39:56:066,4.256,0.004,0.000,0.000,7.171,89.026,-21.512
17:39:56:067,4.257,0.003,-0.003,-0.002,7.181,89.069,-21.452
17:39:56:139,4.329,0.003,0.002,-0.001,7.220,89.158,-21.375
17:39:56:2,4.390,-0.005,-0.002,0.005,7.272,89.285,-21.298
17:39:56:2,4.390,0.006,-0.004,-0.013,7.286,89.359,-21.255
17:39:56:201,4.391,-0.007,-0.013,0.015,7.345,89.573,-21.192
17:39:56:202,4.392,-0.001,-0.003,0.002,7.369,89.688,-21.167
17:39:56:218,4.408,-0.008,0.006,-0.009,7.396,89.748,-21.163
17:39:56:332,4.522,0.001,0.006,0.001,7.399,89.873,-21.139
17:39:56:333,4.523,0.000,-0.004,0.007,7.421,90.014,-21.087
17:39:56:333,4.523,-0.001,0.001,0.006,7.453,90.161,-21.043
17:39:56:334,4.524,-0.005,0.006,0.010,7.477,90.222,-21.017
17:39:56:349,4.539,-0.002,-0.001,0.007,7.510,90.305,-20.962
17:39:56:375,4.565,-0.001,0.007,-0.002,7.509,90.318,-20.907
17:39:56:428,4.619,-0.003,0.025,-0.008,7.511,90.344,-20.852
17:39:56:486,4.677,0.002,0.045,-0.019,7.507,90.523,-20.715
17:39:56:486,4.677,-0.001,0.032,-0.018,7.525,90.770,-20.537
17:39:56:486,4.677,0.003,0.031,-0.006,7.602,91.179,-20.175
17:39:56:506,4.697,0.001,0.012,-0.027,7.673,91.424,-19.769
17:39:56:532,4.722,0.004,0.011,-0.041,7.725,91.552,-19.498
17:39:56:558,4.748,-0.009,0.012,-0.026,7.854,91.882,-19.091
17:39:56:584,4.774,-0.007,-0.024,-0.010,7.977,92.126,-18.798
17:39:56:611,4.801,-0.012,-0.044,-0.030,8.135,92.271,-18.401
17:39:56:665,4.855,-0.020,-0.021,-0.052,8.250,92.285,-18.117
17:39:56:724,4.914,-0.032,0.032,-0.034,8.322,92.341,-18.005
17:39:56:724,4.914,-0.030,0.043,0.016,8.471,92.339,-17.821
17:39:56:725,4.915,-0.034,-0.014,0.001,8.530,92.065,-17.801
17:39:56:743,4.933,-0.014,-0.028,-0.027,8.469,91.317,-17.962
17:39:56:768,4.959,-0.009,-0.024,-0.049,8.331,90.773,-18.335
17:39:56:794,4.985,0.002,-0.010,-0.041,8.258,90.656,-18.624
17:39:56:882,5.072,-0.019,0.000,0.010,8.224,90.733,-19.097
17:39:56:882,5.072,-0.021,-0.023,0.015,8.184,90.738,-19.413
17:39:56:883,5.073,-0.024,-0.026,0.017,8.022,90.742,-19.810
17:39:56:884,5.074,-0.010,-0.021,0.033,7.885,90.749,-19.968
17:39:56:93,5.120,-0.002,-0.028,0.036,7.672,90.635,-20.039
17:39:56:93,5.120,0.017,0.001,0.040,7.468,90.409,-19.903
17:39:57:04,5.230,0.030,0.010,0.056,7.349,90.212,-19.790
17:39:57:041,5.231,0.045,-0.011,0.034,7.150,89.829,-19.579
17:39:57:041,5.231,0.053,0.001,0.021,7.120,89.621,-19.294
17:39:57:042,5.232,0.055,0.011,0.002,7.136,89.464,-18.849
17:39:57:058,5.248,0.045,0.020,0.061,7.271,89.484,-18.414
17:39:57:17,5.361,0.036,-0.005,0.084,7.360,89.342,-18.186
17:39:57:171,5.362,0.033,-0.038,0.042,7.490,88.707,-17.973
17:39:57:172,5.363,0.016,-0.016,0.070,7.622,88.181,-17.870
17:39:57:173,5.364,0.008,-0.002,0.067,7.917,87.241,-17.571
17:39:57:188,5.379,0.006,0.011,0.042,8.187,86.007,-17.253
17:39:57:216,5.407,0.017,0.034,0.053,8.411,85.149,-16.938
17:39:57:299,5.490,-0.010,0.047,0.083,8.735,83.841,-16.505
17:39:57:299,5.490,-0.007,0.024,0.068,8.890,82.959,-16.192
17:39:57:3,5.491,-0.005,0.022,0.054,9.053,81.576,-15.614
17:39:57:319,5.510,-0.015,0.023,0.071,9.214,80.376,-14.810
17:39:57:346,5.536,-0.006,0.002,0.029,9.299,79.543,-14.142
17:39:57:46,5.650,0.059,-0.006,0.002,9.432,78.353,-12.947
17:39:57:46,5.650,0.054,-0.040,0.008,9.592,77.753,-11.956
17:39:57:565,5.755,0.079,-0.036,-0.072,10.497,75.457,-6.907
17:39:57:566,5.756,0.087,-0.081,-0.138,10.889,74.311,-4.943
17:39:57:567,5.757,0.114,-0.078,-0.205,11.042,73.557,-3.463
17:39:57:568,5.758,0.133,-0.051,-0.265,11.216,72.740,-1.191
17:39:57:583,5.773,0.133,-0.058,-0.304,11.318,72.148,1.082
17:39:57:638,5.828,0.130,-0.052,-0.325,11.383,71.761,1.924
17:39:57:638,5.828,0.116,0.034,-0.353,11.325,71.584,3.986
17:39:57:794,5.985,0.125,0.017,-0.376,11.253,71.262,5.206
17:39:57:83,6.020,0.147,0.008,-0.395,11.076,70.462,6.729
17:39:57:83,6.020,0.166,0.029,-0.388,10.763,69.280,6.392
17:39:57:831,6.021,0.181,0.045,-0.394,10.481,68.410,5.470
17:39:57:832,6.022,0.206,-0.004,-0.406,9.873,67.766,5.726
17:39:57:88,6.070,0.187,-0.043,-0.378,9.392,67.634,5.583
17:39:57:88,6.070,0.161,-0.085,-0.352,8.687,67.793,4.732
17:39:57:881,6.071,0.119,-0.088,-0.322,8.233,68.000,3.692
17:39:57:882,6.072,0.083,-0.048,-0.296,7.631,68.491,1.396
17:39:57:926,6.117,0.065,0.005,-0.311,7.104,69.061,-1.606
17:39:57:926,6.117,0.069,0.043,-0.310,6.799,69.540,-3.908
17:39:57:977,6.168,0.048,0.130,-0.304,6.458,70.922,-7.549
17:39:58:034,6.224,0.004,0.226,-0.265,6.410,72.450,-10.016
17:39:58:035,6.225,-0.086,0.255,-0.145,6.788,75.690,-13.729
17:39:58:036,6.226,-0.165,0.269,0.032,7.683,79.218,-17.505
17:39:58:142,6.332,-0.175,0.226,0.080,8.434,81.389,-20.059
17:39:58:143,6.333,-0.153,0.156,0.095,9.803,84.385,-23.811
17:39:58:144,6.334,-0.192,0.003,0.129,11.048,86.456,-26.180
17:39:58:145,6.335,-0.201,-0.085,0.166,13.419,89.514,-29.606
17:39:58:191,6.381,-0.229,-0.124,0.258,16.246,92.353,-32.804
17:39:58:191,6.381,-0.242,-0.134,0.308,18.289,93.980,-34.801
17:39:58:213,6.403,-0.264,-0.169,0.358,21.318,95.725,-37.588
17:39:58:325,6.516,-0.266,-0.220,0.366,23.170,96.405,-39.285
17:39:58:326,6.517,-0.273,-0.285,0.358,25.455,96.782,-41.538
17:39:58:327,6.518,-0.273,-0.296,0.354,26.976,96.652,-43.339
17:39:58:328,6.519,-0.324,-0.219,0.396,27.481,96.446,-44.153
17:39:58:344,6.535,-0.345,-0.080,0.425,27.194,96.058,-44.373
17:39:58:369,6.560,-0.291,0.074,0.458,26.466,95.820,-43.780
17:39:58:396,6.586,-0.247,0.044,0.402,24.854,95.542,-41.976
17:39:58:422,6.612,-0.233,0.168,0.378,22.849,95.467,-39.170
17:39:58:449,6.639,-0.211,0.219,0.385,21.635,95.889,-36.778
17:39:58:533,6.723,-0.116,0.211,0.352,19.913,96.860,-32.686
17:39:58:534,6.724,0.017,0.191,0.262,18.872,97.161,-30.015
17:39:58:535,6.725,0.085,0.161,0.258,17.757,98.031,-26.576
17:39:58:554,6.744,0.083,-0.049,0.421,17.301,98.309,-24.349
17:39:58:609,6.800,0.163,-0.091,0.297,16.672,97.657,-23.546
17:39:58:609,6.800,0.216,-0.003,0.323,15.378,95.320,-22.864
17:39:58:661,6.852,0.203,-0.093,0.251,14.523,93.596,-22.510
17:39:58:661,6.852,0.139,-0.174,0.057,13.202,90.201,-21.787
17:39:58:685,6.876,0.138,-0.145,0.008,12.463,87.888,-21.079
17:39:58:712,6.902,0.097,-0.093,-0.097,11.811,84.139,-19.721
17:39:58:738,6.928,0.101,-0.077,-0.081,11.669,81.123,-17.778
17:39:58:792,6.983,0.097,-0.019,-0.136,11.737,80.040,-16.167
17:39:58:793,6.984,0.102,-0.036,-0.157,11.996,78.835,-13.393
17:39:58:842,7.033,0.097,-0.103,-0.193,12.602,78.359,-8.248
17:39:58:868,7.059,0.091,-0.139,-0.300,12.868,78.126,-5.226
17:39:58:894,7.085,0.101,-0.088,-0.367,12.962,78.063,-3.265
17:39:58:95,7.140,0.073,-0.019,-0.411,13.011,78.619,-0.485
17:39:58:951,7.141,0.050,0.009,-0.446,12.963,78.877,1.166
17:39:58:973,7.163,0.027,0.088,-0.501,12.745,80.407,3.225
17:39:59:,7.190,0.006,0.223,-0.488,12.398,81.781,4.366
17:39:59:028,7.218,-0.014,0.193,-0.464,12.176,82.649,4.460
17:39:59:082,7.272,-0.006,0.152,-0.501,11.824,83.585,3.565
17:39:59:083,7.273,-0.023,0.100,-0.463,11.498,84.527,2.406
17:39:59:105,7.296,-0.046,0.069,-0.433,11.002,86.672,0.016
17:39:59:131,7.322,-0.097,0.040,-0.355,10.686,89.802,-3.073
17:39:59:16,7.350,-0.141,0.076,-0.274,10.670,92.381,-5.429
17:39:59:16,7.350,-0.166,0.087,-0.167,11.104,96.587,-9.225
17:39:59:243,7.433,-0.196,0.047,-0.060,11.747,99.383,-11.879
17:39:59:244,7.434,-0.211,0.043,0.002,13.249,103.286,-15.929
17:39:59:245,7.435,-0.275,0.067,0.106,15.383,106.802,-19.839
17:39:59:263,7.453,-0.282,0.116,0.204,17.156,108.927,-22.245
17:39:59:289,7.479,-0.288,0.110,0.442,20.343,111.327,-25.732
17:39:59:315,7.505,-0.280,-0.016,0.487,22.541,111.855,-28.170
17:39:59:371,7.561,-0.313,-0.066,0.460,25.285,110.841,-32.095
17:39:59:371,7.561,-0.329,-0.073,0.404,26.618,109.494,-34.621
17:39:59:422,7.613,-0.337,-0.147,0.336,28.049,107.473,-37.664
17:39:59:423,7.614,-0.310,-0.201,0.319,29.183,105.916,-39.923
17:39:59:446,7.637,-0.303,-0.176,0.386,29.957,105.333,-40.995
17:39:59:472,7.663,-0.308,-0.171,0.456,31.222,105.291,-41.901
17:39:59:528,7.718,-0.328,-0.195,0.489,32.361,106.083,-41.993
17:39:59:528,7.718,-0.316,-0.136,0.488,32.753,106.922,-41.602
17:39:59:665,7.855,-0.286,-0.051,0.533,32.758,108.740,-40.259
17:39:59:666,7.856,-0.285,-0.015,0.548,32.435,110.289,-38.924
17:39:59:667,7.857,-0.279,0.121,0.579,31.328,112.804,-36.342
17:39:59:668,7.858,-0.170,0.042,0.415,30.158,114.609,-34.182
17:39:59:685,7.875,-0.090,0.035,0.295,27.889,117.481,-30.537
17:39:59:686,7.876,0.054,0.052,0.069,25.777,120.675,-27.118
17:39:59:709,7.899,0.072,-0.104,0.150,24.997,123.295,-25.247
17:39:59:791,7.982,0.115,-0.185,0.219,24.178,127.512,-23.051
17:39:59:791,7.982,0.231,-0.179,0.285,23.541,130.008,-21.981
17:39:59:848,8.039,0.287,-0.164,0.298,22.212,132.254,-20.878
17:39:59:848,8.039,0.158,-0.057,0.047,20.115,131.840,-19.992
17:39:59:848,8.039,0.111,-0.001,-0.085,18.508,130.767,-19.266
17:39:59:866,8.057,0.079,0.065,-0.234,16.384,129.325,-17.766
17:39:59:893,8.084,0.087,0.071,-0.213,15.348,129.122,-16.521
17:39:59:918,8.108,-0.001,0.035,-0.262,14.280,129.867,-14.313
17:39:59:945,8.135,-0.064,-0.064,-0.209,13.570,131.994,-11.768
17:39:59:972,8.162,-0.076,-0.013,-0.169,13.116,134.114,-9.831
17:39:59:997,8.187,-0.114,0.030,-0.143,12.455,137.301,-7.044
17:40:00:023,8.213,-0.135,0.015,-0.151,12.025,139.072,-5.361
17:40:00:079,8.269,-0.170,-0.057,-0.218,11.317,141.585,-3.080
17:40:00:08,8.270,-0.231,-0.103,-0.290,10.583,143.911,-1.099
17:40:00:104,8.294,-0.277,-0.113,-0.301,10.104,145.443,0.043
17:40:00:13,8.320,-0.325,-0.112,-0.266,9.499,148.121,1.538
17:40:00:183,8.374,-0.373,0.004,-0.189,9.241,149.923,2.374
17:40:00:184,8.375,-0.438,0.132,-0.175,9.181,152.657,3.373
17:40:00:206,8.397,-0.513,0.277,-0.160,9.589,154.348,4.149
17:40:00:235,8.426,-0.474,0.202,-0.085,10.121,155.388,4.467
17:40:00:259,8.450,-0.461,0.167,-0.040,11.169,156.510,4.183
17:40:00:315,8.506,-0.406,0.204,-0.018,11.862,157.371,3.293
17:40:00:316,8.507,-0.353,0.250,0.054,12.869,158.786,0.915
17:40:00:339,8.530,-0.308,0.185,0.104,13.562,159.916,-1.219
17:40:00:365,8.555,-0.260,0.121,0.158,14.704,161.773,-5.055
17:40:00:391,8.581,-0.206,0.025,0.192,16.040,163.375,-9.467
17:40:00:418,8.608,-0.152,-0.008,0.245,17.092,164.263,-12.635
17:40:00:444,8.634,-0.109,0.002,0.302,18.956,165.438,-17.545
17:40:00:499,8.689,-0.043,0.022,0.389,21.185,166.543,-22.306
17:40:00:5,8.690,0.007,0.012,0.424,22.853,167.272,-25.224
17:40:00:551,8.742,0.081,-0.072,0.460,25.596,168.221,-29.111
17:40:00:551,8.742,0.136,-0.196,0.457,27.451,168.610,-31.446
17:40:00:601,8.792,0.151,-0.281,0.427,30.002,168.603,-34.708
17:40:00:63,8.821,0.150,-0.336,0.419,31.400,168.216,-36.734
17:40:00:63,8.821,0.128,-0.365,0.401,32.960,167.348,-39.473
17:40:00:654,8.845,0.149,-0.321,0.449,33.921,166.569,-41.644
17:40:00:68,8.870,0.184,-0.293,0.467,34.267,166.282,-42.642
17:40:00:706,8.896,0.286,-0.171,0.515,34.225,166.248,-43.305
17:40:00:732,8.922,0.310,-0.092,0.504,33.779,166.394,-43.343
17:40:00:758,8.948,0.308,0.012,0.495,32.115,166.970,-42.322
17:40:00:786,8.976,0.255,0.145,0.452,29.449,168.157,-39.743
17:40:00:812,9.002,0.177,0.189,0.379,27.370,169.303,-37.235
17:40:00:838,9.028,0.055,0.205,0.226,24.311,171.919,-32.143
17:40:00:864,9.054,0.094,0.185,0.201,22.660,174.704,-28.317
17:40:00:89,9.080,0.016,0.200,0.116,20.941,-179.465,-22.297
17:40:00:915,9.106,0.245,0.053,0.000,19.980,-172.014,-16.925
17:40:00:942,9.133,0.429,-0.042,-0.078,19.516,-168.302,-14.407
17:40:00:969,9.160,0.399,-0.063,-0.060,18.378,-168.560,-12.926
17:40:00:995,9.186,0.244,0.014,-0.044,17.301,-172.480,-13.185
17:40:01:021,9.212,0.112,0.080,-0.044,15.786,178.787,-14.156
17:40:01:047,9.237,-0.142,-0.103,-0.058,14.577,168.045,-15.346
17:40:01:073,9.263,-0.407,-0.120,-0.207,13.794,161.138,-15.900
17:40:01:129,9.319,-0.418,-0.118,-0.312,13.269,154.360,-15.603
17:40:01:129,9.319,-0.338,-0.089,-0.192,13.492,152.461,-14.656
17:40:01:152,9.342,-0.318,-0.107,-0.149,14.196,151.851,-12.566
17:40:01:207,9.397,-0.301,-0.144,-0.124,14.948,152.612,-9.969
17:40:01:292,9.483,-0.280,-0.166,-0.078,15.382,153.315,-8.160
17:40:01:293,9.484,-0.298,-0.112,-0.043,15.845,154.135,-5.563
17:40:01:294,9.485,-0.347,-0.088,-0.020,16.058,154.456,-4.065
17:40:01:295,9.486,-0.391,-0.032,-0.026,16.202,154.759,-2.279
17:40:01:371,9.562,-0.471,0.165,0.028,16.037,154.609,-0.924
17:40:01:371,9.562,-0.419,0.168,0.066,15.752,155.532,-0.279
17:40:01:372,9.563,-0.365,0.199,0.049,15.009,155.696,-0.127
17:40:01:373,9.564,-0.406,0.307,-0.042,14.407,155.969,-0.579
17:40:01:42,9.610,-0.414,0.206,-0.110,13.485,155.685,-1.621
17:40:01:421,9.611,-0.415,0.138,-0.102,13.005,156.365,-2.528
17:40:01:47,9.660,-0.399,0.069,-0.050,12.413,157.337,-4.232
17:40:01:471,9.661,-0.325,0.040,0.017,12.014,160.088,-6.223
17:40:01:522,9.713,-0.265,0.016,0.078,11.934,162.833,-7.730
17:40:01:523,9.714,-0.214,0.030,0.100,12.127,167.473,-10.224
17:40:01:546,9.737,-0.113,0.038,0.132,12.547,170.788,-12.001
17:40:01:572,9.763,-0.049,0.034,0.158,13.694,175.625,-14.825
17:40:01:598,9.788,0.043,0.043,0.218,15.448,179.784,-17.901
17:40:01:625,9.815,0.111,0.057,0.253,16.886,-177.966,-20.048
17:40:01:652,9.842,0.198,0.041,0.300,19.346,-175.506,-23.342
17:40:01:677,9.867,0.257,-0.012,0.318,21.089,-174.535,-25.599
17:40:01:705,9.895,0.281,-0.093,0.325,23.694,-174.093,-29.084
17:40:01:73,9.920,0.287,-0.195,0.319,26.066,-174.720,-32.702
17:40:01:756,9.946,0.295,-0.234,0.318,27.396,-175.565,-35.121
17:40:01:782,9.972,0.273,-0.282,0.291,28.890,-177.171,-38.619
17:40:01:809,9.999,0.271,-0.264,0.262,29.531,-178.277,-40.757
17:40:01:835,10.025,0.241,-0.242,0.262,29.851,179.578,-43.367
17:40:01:862,10.052,0.220,-0.131,0.265,29.345,178.848,-44.734
17:40:01:887,10.077,0.234,-0.052,0.255,28.745,178.508,-44.691
17:40:01:943,10.133,0.270,0.036,0.239,27.737,179.538,-43.278
17:40:01:943,10.133,0.273,0.092,0.262,26.999,-179.886,-41.550
17:40:01:966,10.156,0.247,0.088,0.243,25.880,-177.847,-37.818
17:40:01:992,10.182,0.161,0.083,0.201,24.672,-175.387,-33.020
17:40:02:019,10.209,0.171,0.085,0.148,23.971,-173.610,-29.636
17:40:02:046,10.236,0.234,0.091,0.138,23.087,-171.418,-24.967
17:40:02:129,10.320,0.243,0.123,0.152,22.538,-170.675,-22.291
17:40:02:13,10.321,0.295,0.101,0.154,21.670,-170.803,-19.057
17:40:02:13,10.321,0.217,-0.010,0.101,20.589,-172.835,-17.043
17:40:02:149,10.340,0.128,-0.075,0.094,19.824,-175.215,-16.387
17:40:02:176,10.367,0.007,-0.132,0.092,18.746,-179.672,-16.071
17:40:02:202,10.393,-0.062,-0.144,0.134,18.132,177.020,-16.131
17:40:02:229,10.420,-0.133,-0.138,0.142,17.288,171.577,-16.273
17:40:02:285,10.475,-0.198,-0.130,0.117,16.745,167.879,-16.163
17:40:02:285,10.475,-0.254,-0.122,0.040,16.022,162.396,-15.465
17:40:02:337,10.527,-0.298,-0.111,-0.047,15.625,157.537,-14.169
17:40:02:338,10.528,-0.290,-0.070,-0.101,15.587,154.732,-13.010
17:40:02:389,10.579,-0.282,0.004,-0.086,15.888,151.611,-10.838
17:40:02:39,10.580,-0.318,0.047,-0.108,16.154,149.916,-9.139
17:40:02:442,10.632,-0.430,0.155,-0.232,16.572,146.323,-3.657
17:40:02:465,10.655,-0.473,0.202,-0.228,16.578,146.200,-1.768
17:40:02:491,10.682,-0.473,0.190,-0.168,16.420,147.413,0.949
17:40:02:517,10.708,-0.442,0.195,-0.106,16.153,148.539,2.331
17:40:02:573,10.764,-0.457,0.218,-0.103,15.581,149.968,3.498
17:40:02:573,10.764,-0.432,0.113,-0.112,14.885,151.271,3.714
17:40:02:625,10.815,-0.397,-0.003,-0.119,14.360,152.148,3.383
17:40:02:626,10.816,-0.347,-0.150,-0.169,13.514,153.510,2.024
17:40:02:677,10.867,-0.308,-0.107,-0.109,12.945,154.818,0.575
17:40:02:678,10.868,-0.271,-0.057,-0.052,12.318,157.464,-2.365
17:40:02:702,10.892,-0.203,0.047,0.046,12.120,160.456,-6.050
17:40:02:728,10.918,-0.121,0.079,0.100,12.308,162.363,-8.827
17:40:02:753,10.943,-0.064,0.027,0.150,13.013,164.567,-13.349
17:40:02:809,10.999,-0.072,0.014,0.165,13.667,165.510,-16.434
17:40:02:81,11.000,-0.063,0.026,0.205,14.763,166.573,-20.740
17:40:02:834,11.024,-0.040,0.023,0.213,15.987,167.467,-24.360
17:40:02:86,11.050,-0.031,0.006,0.234,16.933,168.081,-26.356
17:40:02:885,11.076,0.016,-0.045,0.254,18.662,169.210,-28.694
17:40:02:941,11.132,0.103,-0.147,0.300,20.010,170.166,-29.849
17:40:02:941,11.132,0.127,-0.201,0.308,22.123,171.685,-31.179
17:40:02:963,11.154,0.152,-0.258,0.311,24.002,173.007,-32.280
17:40:02:989,11.180,0.169,-0.236,0.318,25.058,173.765,-32.926
17:40:03:016,11.206,0.215,-0.151,0.354,26.358,174.709,-33.761
17:40:03:042,11.232,0.235,-0.113,0.381,27.020,175.224,-34.182
17:40:03:098,11.288,0.285,-0.052,0.383,27.567,175.771,-34.474
17:40:03:098,11.288,0.371,0.058,0.411,27.597,175.934,-34.416
17:40:03:121,11.311,0.387,0.067,0.433,27.257,175.636,-34.221
17:40:03:208,11.398,0.309,0.121,0.347,25.902,174.581,-33.379
17:40:03:208,11.398,0.296,0.081,0.244,24.658,173.763,-32.422
17:40:03:208,11.398,0.233,0.107,0.163,22.617,172.494,-30.621
17:40:03:227,11.417,0.212,0.200,0.120,20.914,171.926,-28.450
17:40:03:28,11.470,0.317,0.127,0.139,20.229,172.350,-26.830
17:40:03:308,11.498,0.328,0.039,0.131,19.556,173.661,-24.449
17:40:03:309,11.499,0.250,-0.145,0.076,18.979,174.306,-22.964
17:40:03:331,11.521,0.197,-0.173,0.048,17.814,174.369,-20.875
17:40:03:358,11.548,0.092,-0.205,0.038,16.564,173.503,-18.692
17:40:03:413,11.603,0.029,-0.177,0.031,15.813,172.551,-17.080
17:40:03:414,11.604,-0.108,-0.117,0.012,14.865,170.619,-14.366
17:40:03:436,11.627,-0.159,-0.094,-0.008,14.437,169.318,-12.318
17:40:03:462,11.653,-0.194,-0.048,-0.014,14.048,167.699,-8.986
17:40:03:517,11.708,-0.249,-0.057,-0.083,13.798,166.385,-5.492
17:40:03:518,11.709,-0.264,-0.059,-0.097,13.702,165.631,-3.194
17:40:03:541,11.732,-0.325,-0.051,-0.126,13.706,164.589,0.003
17:40:03:596,11.786,-0.443,0.054,-0.153,13.756,163.795,1.884
17:40:03:597,11.787,-0.518,0.097,-0.186,13.830,162.823,4.362
17:40:03:707,11.897,-0.596,0.144,-0.170,13.815,162.579,6.503
17:40:03:708,11.898,-0.601,0.169,-0.148,13.678,162.892,7.702
17:40:03:709,11.899,-0.623,0.211,-0.147,13.312,163.514,8.825
17:40:03:71,11.900,-0.587,0.191,-0.137,12.989,164.052,9.052
17:40:03:728,11.918,-0.568,0.148,-0.120,12.446,165.020,8.542
17:40:03:729,11.919,-0.520,-0.038,-0.141,11.778,166.422,7.170
17:40:03:836,12.027,-0.508,-0.108,-0.140,11.314,167.786,5.837
17:40:03:836,12.027,-0.488,-0.122,-0.076,10.774,170.747,3.357
17:40:03:837,12.028,-0.447,-0.015,0.029,10.614,173.501,1.488
17:40:03:858,12.049,-0.381,0.042,0.101,10.873,178.622,-1.354
17:40:03:859,12.050,-0.236,0.090,0.189,11.938,-175.788,-4.075
17:40:03:912,12.103,-0.157,0.096,0.227,13.141,-172.379,-5.839
17:40:03:912,12.103,-0.062,0.103,0.285,15.601,-168.228,-8.437
17:40:03:934,12.125,0.028,0.110,0.376,17.587,-166.223,-10.191
17:40:03:961,12.151,0.098,0.086,0.419,20.895,-164.374,-12.918
17:40:03:987,12.177,0.175,0.054,0.478,24.372,-163.781,-15.879
17:40:04:013,12.203,0.168,0.023,0.513,26.642,-163.942,-18.005
17:40:04:041,12.231,0.241,-0.044,0.519,30.063,-164.207,-21.238
17:40:04:066,12.256,0.304,-0.139,0.493,32.364,-164.106,-23.208
17:40:04:122,12.312,0.382,-0.267,0.478,35.493,-164.550,-26.320
17:40:04:122,12.312,0.383,-0.300,0.451,37.113,-165.424,-28.552
17:40:04:202,12.393,0.387,-0.286,0.471,38.584,-167.665,-32.054
17:40:04:203,12.394,0.374,-0.291,0.436,38.939,-170.458,-35.426
17:40:04:204,12.395,0.351,-0.282,0.420,38.613,-172.224,-37.315
17:40:04:223,12.414,0.309,-0.169,0.389,37.399,-174.341,-39.094
17:40:04:304,12.494,0.351,-0.060,0.381,36.389,-174.863,-39.337
17:40:04:364,12.555,0.435,-0.026,0.356,34.844,-174.318,-38.342
17:40:04:364,12.555,0.434,-0.085,0.285,33.121,-172.699,-36.161
17:40:04:365,12.556,0.399,0.011,0.244,31.562,-171.426,-34.306
17:40:04:366,12.557,0.317,0.148,0.048,28.844,-169.329,-31.388
17:40:04:38,12.571,0.337,0.028,-0.017,27.290,-167.412,-29.380
17:40:04:436,12.627,0.276,-0.023,0.019,25.173,-164.539,-26.158
17:40:04:437,12.628,0.196,-0.008,-0.039,22.722,-162.185,-22.848
17:40:04:46,12.651,0.158,-0.067,-0.057,20.996,-161.301,-20.674
17:40:04:486,12.676,-0.065,0.039,-0.050,18.233,-160.704,-17.307
17:40:04:512,12.702,-0.202,0.078,-0.134,16.449,-160.044,-14.730
17:40:04:568,12.758,-0.197,0.055,-0.150,14.244,-157.817,-10.443
17:40:04:568,12.758,-0.334,0.009,-0.075,12.494,-155.739,-6.427
17:40:04:65,12.840,-0.341,-0.011,-0.063,11.470,-154.203,-3.922
17:40:04:65,12.840,-0.356,0.021,-0.025,10.134,-151.983,-0.306
17:40:04:651,12.841,-0.305,-0.024,0.002,9.456,-150.425,1.857
17:40:04:671,12.861,-0.322,-0.042,0.004,8.762,-149.445,4.679
17:40:04:697,12.887,-0.394,0.034,0.055,8.483,-149.499,6.897
17:40:04:749,12.940,-0.527,0.070,0.118,8.513,-150.087,8.089
17:40:04:777,12.968,-0.625,0.089,0.195,8.825,-150.883,9.507
17:40:04:778,12.969,-0.652,0.062,0.226,9.077,-150.922,10.242
17:40:04:86,13.050,-0.627,-0.018,0.246,9.361,-150.285,11.051
17:40:04:86,13.050,-0.627,-0.004,0.254,9.466,-149.430,11.265
17:40:04:861,13.051,-0.541,-0.017,0.276,9.585,-147.452,11.173
17:40:04:88,13.070,-0.515,0.061,0.345,9.837,-144.924,10.471
17:40:04:906,13.096,-0.420,0.071,0.402,10.139,-143.081,9.715
17:40:04:932,13.122,-0.355,0.088,0.433,10.849,-139.887,8.158
17:40:04:958,13.149,-0.263,0.075,0.437,11.483,-137.524,6.915
17:40:04:984,13.175,-0.173,0.063,0.438,12.675,-133.532,4.838
17:40:05:045,13.236,-0.074,0.046,0.429,14.255,-129.598,2.565
17:40:05:045,13.236,-0.005,0.012,0.399,15.570,-127.022,0.950
17:40:05:092,13.283,0.115,0.021,0.389,17.941,-123.640,-1.667
17:40:05:093,13.284,0.226,0.044,0.381,19.767,-121.602,-3.550
17:40:05:116,13.306,0.333,0.056,0.371,22.786,-119.333,-6.540
17:40:05:169,13.360,0.468,0.048,0.338,26.006,-117.881,-9.749
17:40:05:197,13.388,0.536,0.022,0.301,28.160,-117.462,-12.065
17:40:05:198,13.389,0.598,-0.079,0.209,31.221,-117.919,-16.041
17:40:05:221,13.412,0.583,-0.231,0.135,32.977,-119.115,-19.101
17:40:05:248,13.439,0.540,-0.304,0.135,34.870,-122.100,-24.154
17:40:05:273,13.464,0.460,-0.365,0.171,35.793,-125.540,-29.084
17:40:05:33,13.520,0.451,-0.327,0.177,35.991,-127.435,-31.869
17:40:05:33,13.520,0.501,-0.269,0.132,35.901,-129.018,-34.808
17:40:05:352,13.542,0.556,-0.215,0.070,35.635,-129.235,-35.865
17:40:05:379,13.569,0.561,-0.140,0.021,34.751,-128.543,-36.147
17:40:05:406,13.596,0.567,0.017,-0.007,33.207,-126.881,-34.843
17:40:05:46,13.650,0.559,0.089,-0.033,31.961,-125.283,-33.257
17:40:05:461,13.651,0.480,0.102,-0.048,29.803,-122.386,-30.082
17:40:05:513,13.703,0.331,0.114,-0.038,28.149,-120.195,-27.564
17:40:05:514,13.704,0.247,0.115,-0.041,25.549,-116.500,-23.519
17:40:05:535,13.726,0.124,0.085,-0.156,23.115,-112.424,-19.699
17:40:05:676,13.866,0.138,0.030,-0.244,21.553,-109.894,-17.452
17:40:05:677,13.867,0.069,0.043,-0.268,18.957,-107.576,-14.696
17:40:05:678,13.868,0.002,0.067,-0.310,17.094,-107.136,-13.251
17:40:05:679,13.869,-0.132,0.089,-0.257,14.236,-108.027,-11.308
17:40:05:782,13.972,-0.247,0.061,-0.126,11.698,-109.934,-9.080
17:40:05:782,13.972,-0.358,0.055,-0.093,10.286,-111.218,-7.336
17:40:05:783,13.973,-0.551,0.095,0.033,9.021,-114.633,-4.889
17:40:05:784,13.974,-0.587,0.093,0.220,8.903,-118.450,-3.730
17:40:05:831,14.021,-0.594,-0.069,0.399,9.236,-121.130,-1.430
17:40:05:831,14.021,-0.303,-0.089,0.246,9.384,-118.618,1.759
17:40:05:832,14.022,-0.230,-0.107,0.254,9.344,-116.340,3.940
17:40:05:912,14.103,-0.170,-0.144,0.289,9.173,-111.924,6.917
17:40:05:912,14.103,-0.171,-0.135,0.261,9.054,-110.509,8.656
17:40:05:913,14.104,-0.185,-0.149,0.296,9.113,-108.303,10.775
17:40:05:914,14.105,-0.211,-0.119,0.406,9.584,-108.556,12.194
17:40:05:955,14.146,-0.212,-0.041,0.516,10.016,-107.910,12.801
17:40:06:009,14.200,-0.209,-0.021,0.606,10.641,-108.523,13.309
17:40:06:069,14.259,-0.177,-0.031,0.615,10.916,-107.783,13.402
17:40:06:07,14.260,-0.181,0.044,0.637,11.063,-107.727,13.056
17:40:06:202,14.392,-0.058,0.053,0.536,10.783,-104.317,8.767
17:40:06:203,14.393,-0.044,0.060,0.528,10.606,-103.499,6.888
17:40:06:203,14.393,0.015,0.075,0.485,10.318,-100.714,3.686
17:40:06:204,14.394,0.072,0.092,0.401,10.198,-97.455,0.150
17:40:06:222,14.412,0.121,0.101,0.329,10.293,-95.100,-2.322
17:40:06:222,14.412,0.148,0.077,0.208,10.805,-91.341,-6.145
17:40:06:273,14.464,0.179,0.045,0.111,11.432,-88.918,-8.767
17:40:06:274,14.465,0.202,0.047,0.043,12.805,-85.752,-12.837
17:40:06:351,14.541,0.259,0.061,-0.039,13.970,-83.998,-15.592
17:40:06:382,14.573,0.279,0.050,-0.106,16.039,-81.847,-19.676
17:40:06:383,14.574,0.303,0.010,-0.196,18.361,-80.305,-23.627
17:40:06:383,14.574,0.300,-0.046,-0.244,19.975,-79.626,-26.168
17:40:06:431,14.622,0.304,-0.117,-0.303,22.310,-79.167,-29.862
17:40:06:432,14.623,0.291,-0.172,-0.322,23.666,-79.218,-32.220
17:40:06:512,14.703,0.288,-0.201,-0.317,25.253,-79.717,-35.505
17:40:06:513,14.704,0.288,-0.188,-0.322,26.267,-80.346,-38.253
17:40:06:514,14.704,0.295,-0.165,-0.339,26.655,-80.636,-39.651
17:40:06:563,14.753,0.247,-0.150,-0.355,26.858,-80.761,-40.948
17:40:06:563,14.753,0.180,-0.143,-0.351,26.704,-80.646,-41.309
17:40:06:586,14.776,0.155,-0.102,-0.355,25.914,-80.238,-41.136
17:40:06:614,14.804,0.115,0.006,-0.366,24.566,-79.447,-40.020
17:40:06:64,14.830,0.089,0.090,-0.356,23.454,-78.689,-38.681
17:40:06:692,14.882,0.051,0.152,-0.243,21.808,-77.197,-35.628
17:40:06:751,14.941,-0.009,0.119,-0.156,20.818,-75.925,-33.043
17:40:06:751,14.941,-0.050,0.092,-0.167,19.474,-73.894,-28.802
17:40:06:752,14.942,-0.060,0.051,-0.165,18.118,-72.274,-24.461
17:40:06:77,14.961,-0.065,0.043,-0.165,17.060,-71.682,-21.679
17:40:06:796,14.987,-0.047,0.045,-0.111,15.331,-71.549,-17.748
17:40:07:059,15.249,-0.060,0.031,-0.027,14.166,-71.869,-15.365
17:40:07:141,15.332,-0.051,0.023,0.093,12.508,-72.645,-12.009
17:40:07:142,15.333,-0.045,0.019,0.171,11.115,-74.142,-8.861
17:40:07:172,15.363,-0.027,0.004,0.222,10.332,-74.941,-6.799
17:40:07:173,15.364,-0.036,0.016,0.339,9.334,-76.786,-3.645
17:40:07:174,15.365,-0.052,0.007,0.441,8.795,-77.592,-1.466
17:40:07:175,15.366,-0.076,-0.050,0.486,8.142,-78.963,1.836
17:40:07:199,15.390,-0.091,-0.110,0.534,7.542,-79.001,5.017
17:40:07:2,15.391,-0.102,-0.125,0.556,7.125,-78.996,6.956
17:40:07:409,15.599,-0.092,-0.196,0.509,5.325,-76.038,12.011
17:40:07:41,15.600,-0.069,-0.137,0.587,4.948,-75.535,12.447
17:40:07:436,15.626,-0.001,0.004,0.604,4.041,-73.066,11.810
17:40:07:436,15.626,0.019,0.060,0.628,4.101,-72.683,10.555
17:40:07:438,15.628,0.000,0.000,0.000,-16.001,-126.849,20.572
17:40:07:558,15.749,0.172,0.205,0.489,5.260,-68.256,5.166
17:40:07:593,15.783,0.194,0.231,0.414,5.773,-66.260,3.312
17:40:07:594,15.784,0.206,0.226,0.274,6.759,-62.760,0.217
17:40:07:595,15.785,0.213,0.184,0.162,7.614,-60.316,-2.006
17:40:07:596,15.786,0.206,0.172,0.087,9.259,-56.854,-5.493
17:40:07:776,15.967,0.206,0.104,-0.014,11.328,-53.925,-9.116
17:40:07:777,15.968,0.201,0.076,-0.072,12.933,-52.399,-11.608
17:40:07:778,15.969,0.223,0.032,-0.175,15.573,-50.767,-15.437
17:40:07:779,15.970,0.227,0.013,-0.235,17.417,-50.057,-18.013
17:40:07:857,16.047,0.232,-0.024,-0.319,20.221,-49.439,-21.806
17:40:07:857,16.047,0.217,-0.081,-0.377,22.951,-49.298,-25.395
17:40:07:857,16.047,0.209,-0.163,-0.401,24.615,-49.484,-27.657
17:40:07:858,16.048,0.186,-0.244,-0.391,26.726,-50.178,-30.874
17:40:07:873,16.063,0.184,-0.287,-0.384,27.779,-50.827,-32.851
17:40:07:909,16.099,0.182,-0.285,-0.385,28.785,-51.842,-35.421
17:40:07:909,16.099,0.183,-0.198,-0.422,29.079,-52.640,-37.253
17:40:07:909,16.099,0.171,-0.163,-0.424,28.890,-52.911,-37.909
17:40:07:91,16.100,0.117,-0.131,-0.417,28.131,-52.682,-37.959
17:40:08:013,16.203,0.061,-0.114,-0.382,27.303,-52.136,-37.430
17:40:08:014,16.204,0.028,-0.027,-0.363,25.596,-50.796,-35.903
17:40:08:015,16.205,-0.023,0.011,-0.303,24.292,-49.549,-34.447
17:40:08:015,16.205,-0.032,0.096,-0.275,22.227,-47.191,-31.707
17:40:08:091,16.282,-0.043,0.126,-0.236,20.168,-44.291,-28.305
17:40:08:092,16.283,-0.077,0.115,-0.164,18.716,-42.187,-25.805
17:40:08:136,16.327,-0.280,0.110,-0.040,12.730,-35.383,-16.254
17:40:08:242,16.432,-0.268,0.058,0.038,10.523,-35.495,-13.361
17:40:08:424,16.614,-0.210,0.022,0.163,9.017,-36.399,-11.525
17:40:08:449,16.640,-0.142,0.005,0.268,6.995,-38.593,-8.760
17:40:08:556,16.747,-0.067,0.027,0.415,5.944,-40.184,-6.866
17:40:08:689,16.879,-0.060,-0.018,0.465,4.931,-41.777,-4.044
17:40:08:69,16.880,-0.021,-0.042,0.490,4.336,-41.953,-1.091
17:40:08:748,16.938,-0.014,-0.048,0.462,4.124,-41.531,0.843
17:40:08:749,16.939,0.025,-0.122,0.428,4.017,-40.703,3.638
17:40:08:749,16.939,0.046,-0.146,0.410,4.082,-40.181,5.357
17:40:08:75,16.940,0.108,-0.167,0.379,4.425,-39.743,7.636
17:40:08:776,16.966,0.153,-0.197,0.364,5.064,-39.903,9.490
17:40:08:776,16.966,0.203,-0.192,0.363,5.631,-40.337,10.438
17:40:08:776,16.966,0.310,-0.063,0.415,6.613,-41.349,11.427
17:40:08:777,16.967,0.410,0.026,0.420,7.291,-42.034,11.865
17:40:08:819,17.009,0.423,0.017,0.416,8.237,-43.015,12.237
17:40:08:879,17.070,0.445,0.022,0.426,8.955,-43.996,12.230
17:40:08:879,17.070,0.450,0.079,0.458,9.241,-44.524,11.911
17:40:08:88,17.071,0.459,0.063,0.452,9.391,-44.912,10.999
17:40:08:881,17.072,0.465,0.045,0.439,9.278,-44.565,10.121
17:40:08:896,17.087,0.500,0.018,0.413,8.776,-43.078,8.410
17:40:09:012,17.202,0.491,0.060,0.288,8.035,-39.160,6.137
17:40:09:012,17.202,0.454,0.093,0.186,7.594,-36.145,4.244
17:40:09:012,17.202,0.331,0.084,0.060,7.276,-31.028,0.837
17:40:09:012,17.202,0.233,0.123,-0.006,7.400,-27.635,-1.817
17:40:09:083,17.273,0.162,0.146,-0.068,8.172,-23.055,-6.248
17:40:09:115,17.305,0.035,0.178,-0.204,10.807,-18.198,-14.514
17:40:09:116,17.306,-0.041,0.156,-0.280,12.799,-17.035,-19.785
17:40:09:117,17.307,-0.114,0.096,-0.337,14.171,-16.663,-23.306
17:40:09:118,17.308,-0.151,-0.019,-0.346,16.176,-16.585,-28.462
17:40:09:22,17.411,-0.180,-0.124,-0.354,17.357,-16.817,-31.785
17:40:09:22,17.411,-0.193,-0.192,-0.344,18.760,-17.355,-36.464
17:40:09:221,17.412,-0.192,-0.295,-0.325,19.573,-17.917,-40.624
17:40:09:222,17.413,-0.173,-0.307,-0.291,19.708,-18.209,-42.949
17:40:09:378,17.568,-0.176,-0.271,-0.275,19.481,-18.229,-45.560
17:40:09:379,17.569,-0.209,-0.231,-0.257,19.323,-17.780,-46.659
17:40:09:38,17.570,-0.271,-0.231,-0.264,19.271,-16.394,-47.284
17:40:09:38,17.570,-0.342,-0.089,-0.240,18.907,-14.393,-46.585
17:40:09:396,17.586,-0.381,0.004,-0.253,18.435,-12.806,-45.377
17:40:09:422,17.612,-0.432,0.126,-0.250,17.441,-10.239,-42.499
17:40:09:477,17.668,-0.361,0.201,-0.140,16.301,-8.618,-39.938
17:40:09:477,17.668,-0.280,0.256,-0.039,14.139,-6.270,-35.277
17:40:09:588,17.778,-0.293,0.243,0.059,12.483,-3.657,-30.367
17:40:09:589,17.779,-0.389,0.185,0.056,11.565,-2.106,-27.301
17:40:09:72,17.910,-0.183,0.105,0.150,6.554,-4.263,-17.215
17:40:09:72,17.910,0.003,0.085,0.244,4.776,-7.963,-13.734
17:40:09:721,17.911,0.105,0.051,0.264,4.005,-10.329,-11.331
17:40:09:722,17.912,0.262,0.023,0.273,3.564,-14.635,-7.928
17:40:09:79,17.980,0.360,-0.122,0.353,3.684,-17.723,-5.933
17:40:09:823,18.014,0.303,-0.135,0.331,4.059,-20.003,-2.814
17:40:09:824,18.015,0.315,-0.116,0.271,4.638,-20.788,0.266
17:40:09:851,18.042,0.308,-0.120,0.179,5.828,-20.892,6.295
17:40:09:851,18.042,0.298,-0.147,0.193,6.270,-21.689,8.100
17:40:09:851,18.042,0.365,-0.155,0.212,6.798,-23.238,9.342
17:40:09:852,18.043,0.429,-0.098,0.257,7.122,-24.476,9.934
17:40:09:922,18.113,0.514,-0.049,0.300,7.442,-26.015,10.675
17:40:09:955,18.145,0.523,-0.075,0.324,7.471,-26.761,11.122
17:40:09:956,18.146,0.502,-0.097,0.314,7.106,-27.093,11.581
17:40:09:957,18.147,0.510,-0.004,0.364,6.345,-26.632,10.636
17:40:09:958,18.148,0.527,-0.021,0.348,5.639,-25.786,10.331
17:40:09:975,18.165,0.509,-0.022,0.299,4.494,-23.676,9.282
17:40:09:976,18.166,0.513,0.066,0.252,3.739,-21.822,8.105
17:40:10:054,18.244,0.507,0.157,0.215,2.709,-18.327,5.678
17:40:10:055,18.245,0.402,0.235,0.138,2.051,-13.980,2.504
17:40:10:088,18.278,0.262,0.172,0.090,1.939,-10.982,-0.016
17:40:10:088,18.278,0.173,0.166,0.060,2.314,-6.846,-4.409
17:40:10:088,18.278,0.055,0.159,0.027,3.322,-3.352,-9.420
17:40:10:089,18.279,-0.013,0.168,-0.020,4.334,-1.568,-13.038
17:40:10:114,18.304,-0.116,0.186,-0.083,6.211,0.294,-18.754
17:40:10:114,18.304,-0.223,0.191,-0.136,7.660,1.094,-22.647
17:40:10:115,18.305,-0.298,0.136,-0.164,10.000,1.667,-28.428
17:40:10:116,18.306,-0.352,0.008,-0.191,12.333,1.470,-33.982
17:40:10:131,18.321,-0.377,-0.072,-0.197,13.724,0.946,-37.530
17:40:10:191,18.382,-0.354,-0.224,-0.186,15.322,-0.203,-42.529
17:40:10:192,18.383,-0.311,-0.352,-0.167,15.996,-1.075,-45.575
17:40:10:192,18.383,-0.293,-0.383,-0.153,16.337,-2.124,-49.560
17:40:10:193,18.384,-0.311,-0.333,-0.132,16.065,-2.753,-52.608
17:40:10:218,18.409,-0.311,-0.297,-0.105,15.750,-2.852,-53.946
17:40:10:218,18.409,-0.336,-0.211,-0.076,15.215,-2.776,-54.683
17:40:10:218,18.409,-0.388,-0.116,-0.047,14.893,-2.169,-54.312
17:40:10:219,18.410,-0.416,-0.057,-0.048,14.670,-0.999,-52.419
17:40:10:236,18.427,-0.421,0.093,-0.041,14.429,0.931,-48.871
17:40:10:261,18.452,-0.359,0.211,-0.040,14.016,2.650,-45.566
17:40:10:346,18.536,-0.270,0.222,0.019,13.116,5.702,-39.330
17:40:10:347,18.537,-0.200,0.238,0.090,12.485,7.970,-34.724
17:40:10:347,18.537,-0.165,0.225,0.086,11.855,11.463,-27.994
17:40:10:367,18.557,-0.275,0.155,0.018,11.444,14.600,-22.108
17:40:10:393,18.583,-0.334,0.086,0.027,10.987,15.966,-18.838
17:40:10:419,18.609,-0.257,0.036,0.076,9.704,16.406,-15.098
17:40:10:445,18.635,-0.140,-0.030,0.106,8.616,15.330,-13.321
17:40:10:498,18.688,0.019,-0.060,0.079,6.975,12.829,-11.484
17:40:10:527,18.717,0.144,-0.077,0.038,5.533,9.018,-10.200
17:40:10:527,18.717,0.225,-0.091,0.032,4.730,6.069,-9.431
17:40:10:55,18.740,0.312,-0.101,0.058,3.846,1.308,-8.189
17:40:10:576,18.767,0.338,-0.101,0.099,3.484,-1.459,-7.218
17:40:10:631,18.822,0.333,-0.124,0.154,3.254,-5.106,-5.544
17:40:10:632,18.823,0.296,-0.179,0.187,3.364,-8.188,-3.731
17:40:10:654,18.845,0.319,-0.143,0.219,3.529,-10.199,-2.484
17:40:10:708,18.898,0.307,-0.116,0.227,3.845,-13.029,-0.728
17:40:10:736,18.926,0.345,-0.073,0.257,3.999,-15.007,0.305
17:40:10:763,18.953,0.415,-0.025,0.341,4.007,-17.521,1.604
17:40:10:764,18.954,0.483,0.023,0.375,3.687,-18.873,2.707
17:40:10:817,19.008,0.468,0.058,0.350,3.294,-18.786,3.328
17:40:10:818,19.009,0.429,0.147,0.318,2.530,-17.914,3.936
17:40:10:819,19.010,0.428,0.183,0.332,2.019,-17.158,4.041
17:40:10:865,19.056,0.456,0.131,0.323,1.361,-15.945,3.837
17:40:10:891,19.082,0.474,0.104,0.295,1.034,-14.917,3.453
17:40:10:92,19.110,0.478,0.127,0.254,0.722,-12.646,2.410
17:40:10:921,19.111,0.416,0.148,0.185,0.680,-9.354,0.762
17:40:10:997,19.187,0.297,0.056,0.119,0.842,-6.688,-0.681
17:40:11:026,19.216,0.224,0.024,0.087,1.396,-2.403,-3.376
17:40:11:026,19.216,0.143,-0.004,0.055,2.012,0.312,-5.512
17:40:11:052,19.242,0.101,-0.005,0.030,3.328,3.933,-9.133
17:40:11:052,19.242,0.037,0.052,-0.032,5.130,6.746,-13.162
17:40:11:075,19.265,-0.015,0.079,-0.071,6.588,8.337,-15.974
17:40:11:102,19.292,-0.116,0.100,-0.138,9.102,10.093,-20.203
17:40:11:128,19.318,-0.213,0.083,-0.184,10.951,11.069,-22.987
17:40:11:154,19.344,-0.270,0.037,-0.205,13.807,11.560,-27.020
17:40:11:179,19.370,-0.313,-0.053,-0.218,16.471,11.158,-30.907
17:40:11:206,19.397,-0.304,-0.147,-0.222,17.966,10.358,-33.397
17:40:11:232,19.423,-0.293,-0.229,-0.216,19.580,8.621,-36.949
17:40:11:317,19.507,-0.291,-0.217,-0.226,20.177,7.316,-39.116
17:40:11:318,19.508,-0.314,-0.147,-0.223,20.193,4.436,-43.413
17:40:11:337,19.527,-0.316,-0.155,-0.208,19.899,4.101,-43.925
17:40:11:423,19.613,-0.352,-0.067,-0.149,19.222,4.346,-43.785
17:40:11:424,19.614,-0.445,0.066,-0.136,18.689,4.908,-43.095
17:40:11:425,19.615,-0.422,0.092,-0.112,17.738,6.201,-41.225
17:40:11:442,19.632,-0.324,0.096,-0.045,16.458,7.843,-38.420
17:40:11:497,19.688,-0.270,0.099,0.045,15.558,9.173,-36.165
17:40:11:498,19.689,-0.245,0.051,0.091,14.501,11.460,-32.662
17:40:11:55,19.741,-0.276,0.045,0.120,13.900,13.015,-30.455
17:40:11:551,19.742,-0.331,0.034,0.109,12.847,14.897,-27.571
17:40:11:631,19.821,-0.329,0.035,0.138,11.424,16.042,-25.121
17:40:11:633,19.823,-0.236,0.006,0.148,10.130,16.095,-23.659
17:40:11:633,19.823,-0.027,-0.065,0.147,8.001,15.216,-21.547
17:40:11:652,19.842,0.031,-0.116,0.143,6.718,14.343,-20.083
17:40:11:705,19.895,0.092,-0.118,0.160,5.062,12.687,-17.729
17:40:11:735,19.925,0.205,-0.086,0.171,3.698,10.410,-15.126
17:40:11:735,19.925,0.305,-0.073,0.174,3.031,8.725,-13.280
17:40:11:787,19.977,0.283,-0.056,0.173,2.453,7.148,-10.339
17:40:11:787,19.977,0.342,-0.041,0.190,2.190,6.108,-8.299
17:40:11:837,20.027,0.368,0.005,0.220,1.906,5.519,-5.284
17:40:11:894,20.085,0.341,-0.021,0.225,1.788,5.496,-3.434
17:40:11:895,20.086,0.321,-0.050,0.199,1.734,5.363,-1.098
17:40:11:895,20.086,0.390,0.030,0.203,1.734,4.216,0.665
17:40:11:914,20.105,0.475,0.092,0.212,1.756,3.510,1.515
17:40:11:968,20.159,0.557,0.104,0.213,1.791,2.688,2.472
17:40:11:998,20.188,0.520,0.028,0.199,1.846,2.498,2.891
17:40:11:999,20.189,0.493,0.033,0.189,1.904,2.772,3.129
17:40:12:02,20.210,0.532,0.113,0.175,1.941,3.378,2.811
17:40:12:046,20.236,0.528,0.081,0.134,2.012,4.066,2.364
17:40:12:102,20.292,0.465,0.056,0.080,2.273,5.571,1.297
17:40:12:102,20.292,0.430,0.088,0.038,2.533,6.965,0.272
17:40:12:124,20.315,0.392,0.121,0.009,3.067,9.556,-1.747
17:40:12:152,20.343,0.272,0.122,-0.063,3.939,13.152,-4.263
17:40:12:177,20.368,0.208,0.100,-0.078,4.762,15.601,-6.164
17:40:12:203,20.394,0.097,0.100,-0.123,6.330,19.375,-9.284
17:40:12:309,20.499,0.037,0.099,-0.130,7.606,21.723,-11.460
17:40:12:335,20.525,-0.054,0.063,-0.141,9.828,24.949,-14.795
17:40:12:397,20.587,-0.139,0.048,-0.157,12.358,27.551,-18.220
17:40:12:398,20.588,-0.212,0.047,-0.180,14.170,28.618,-20.570
17:40:12:399,20.589,-0.291,0.002,-0.184,16.929,29.733,-24.170
17:40:12:4,20.590,-0.359,-0.044,-0.195,18.718,29.916,-26.612
17:40:12:44,20.630,-0.376,-0.105,-0.192,21.163,29.726,-30.266
17:40:12:58,20.771,-0.389,-0.241,-0.173,24.248,28.460,-36.079
17:40:12:582,20.773,-0.398,-0.231,-0.190,25.149,27.427,-39.217
17:40:12:582,20.773,-0.352,-0.165,-0.106,25.257,26.583,-41.732
17:40:12:597,20.788,-0.356,-0.095,-0.069,25.050,26.526,-42.938
17:40:12:766,20.956,-0.357,-0.017,-0.028,24.828,27.583,-43.639
17:40:12:766,20.956,-0.394,0.032,-0.007,24.866,29.248,-43.310
17:40:12:766,20.956,-0.396,0.030,0.025,25.013,32.805,-41.709
17:40:12:767,20.957,-0.354,-0.014,0.048,24.756,36.934,-39.169
17:40:12:869,21.059,-0.323,-0.021,0.063,24.214,39.660,-37.106
17:40:12:87,21.060,-0.251,-0.130,0.075,23.162,43.783,-33.452
17:40:12:87,21.061,-0.342,-0.032,0.152,22.186,46.330,-30.651
17:40:12:871,21.062,-0.311,0.047,0.214,19.932,48.741,-26.764
17:40:12:895,21.086,-0.233,0.068,0.275,18.033,49.309,-24.449
17:40:12:895,21.086,-0.136,0.092,0.266,15.018,48.789,-21.432
17:40:12:896,21.087,-0.004,0.003,0.198,12.216,47.463,-18.903
17:40:12:915,21.106,0.131,-0.079,0.156,8.676,46.201,-15.190
17:40:13:,21.191,0.172,-0.084,0.128,7.682,46.126,-13.789
17:40:13:,21.191,0.205,-0.072,0.102,6.449,45.498,-11.748
17:40:13:001,21.192,0.240,-0.048,0.118,5.483,45.305,-9.783
17:40:13:07,21.261,0.266,0.009,0.089,4.410,44.191,-6.652
17:40:13:158,21.348,0.312,0.004,0.061,4.117,43.593,-5.469
17:40:13:159,21.349,0.329,-0.005,0.086,3.904,41.978,-3.852
17:40:13:16,21.350,0.267,-0.088,0.084,4.014,40.577,-2.524
17:40:13:161,21.351,0.313,-0.115,0.046,4.209,38.775,-1.811
17:40:13:21,21.400,0.403,0.063,-0.046,4.640,36.810,-0.977
17:40:13:21,21.400,0.442,0.161,-0.114,4.991,35.940,-0.547
17:40:13:211,21.401,0.444,0.199,-0.159,5.446,35.856,-0.001
17:40:13:212,21.402,0.398,0.259,-0.151,5.730,36.559,0.268
17:40:13:256,21.446,0.381,0.250,-0.138,5.870,37.232,0.177
17:40:13:257,21.447,0.364,0.187,-0.141,6.066,38.284,-0.427
17:40:13:307,21.497,0.342,0.046,-0.172,6.182,39.268,-1.129
17:40:13:411,21.602,0.330,0.001,-0.215,6.387,41.420,-2.610
17:40:13:449,21.640,0.257,0.010,-0.247,6.771,44.625,-4.517
17:40:13:449,21.640,0.187,0.017,-0.241,7.235,47.416,-5.920
17:40:13:45,21.641,0.086,0.020,-0.224,8.338,51.988,-8.095
17:40:13:45,21.641,-0.021,0.059,-0.202,9.361,55.124,-9.545
17:40:13:517,21.707,-0.089,0.072,-0.178,11.364,59.526,-11.705
17:40:13:598,21.789,-0.198,0.026,-0.130,13.837,63.163,-13.910
17:40:13:598,21.789,-0.253,0.000,-0.092,15.662,65.023,-15.497
17:40:13:647,21.838,-0.347,-0.006,-0.054,18.544,66.918,-18.179
17:40:13:677,21.868,-0.404,0.016,-0.028,20.478,67.607,-20.181
17:40:13:678,21.869,-0.474,-0.017,0.012,23.235,67.887,-23.430
17:40:13:71,21.900,-0.499,-0.076,0.054,25.647,67.339,-26.919
17:40:13:711,21.901,-0.503,-0.133,0.064,26.964,66.577,-29.354
17:40:13:712,21.902,-0.482,-0.185,0.095,28.389,65.000,-33.038
17:40:13:732,21.922,-0.427,-0.171,0.124,29.272,62.205,-38.548
17:40:13:732,21.922,-0.435,-0.133,0.235,29.424,61.440,-40.375
17:40:13:733,21.923,-0.436,-0.138,0.204,29.981,60.289,-42.957
17:40:13:885,22.075,-0.441,-0.247,0.209,30.385,59.386,-44.813
17:40:13:91,22.100,-0.416,-0.196,0.302,30.049,59.389,-45.438
17:40:13:945,22.136,-0.411,-0.027,0.353,28.569,59.575,-45.424
17:40:13:945,22.136,-0.372,0.049,0.344,26.947,60.041,-44.775
17:40:13:946,22.137,-0.259,0.143,0.305,24.010,61.023,-42.666
17:40:13:947,22.138,-0.177,0.137,0.272,21.509,63.114,-39.341
17:40:13:968,22.159,-0.151,0.143,0.264,20.217,64.749,-36.718
17:40:13:969,22.160,-0.062,0.086,0.344,18.598,67.635,-32.716
17:40:13:969,22.160,-0.064,-0.034,0.408,17.624,69.306,-30.186
17:40:14:046,22.237,0.016,0.029,0.349,15.523,70.865,-26.900
17:40:14:047,22.238,0.128,0.086,0.302,13.287,71.406,-23.996
17:40:14:048,22.239,0.155,-0.008,0.294,12.126,71.924,-22.169
17:40:14:067,22.258,0.179,-0.096,0.234,10.605,72.162,-19.582
17:40:14:181,22.371,0.250,0.016,0.155,9.585,71.614,-17.932
17:40:14:181,22.371,0.258,0.022,-0.042,8.447,69.595,-15.465
17:40:14:181,22.371,0.272,-0.023,-0.084,7.901,68.207,-12.585
17:40:14:231,22.421,0.289,-0.041,-0.115,7.780,67.866,-10.413
17:40:14:231,22.421,0.303,-0.067,-0.207,7.837,68.058,-7.169
17:40:14:232,22.422,0.305,-0.097,-0.215,7.976,68.342,-5.061
17:40:14:251,22.441,0.278,-0.097,-0.240,8.209,69.432,-2.090
17:40:14:304,22.494,0.270,-0.071,-0.248,8.492,70.689,0.415
17:40:14:33,22.521,0.224,-0.054,-0.291,8.756,71.203,1.763
17:40:14:415,22.605,0.181,-0.008,-0.383,9.491,72.140,3.712
17:40:14:415,22.605,0.151,-0.063,-0.369,9.831,72.987,4.047
17:40:14:416,22.606,0.145,-0.010,-0.385,10.095,73.182,3.712
17:40:14:516,22.707,0.122,0.064,-0.444,10.252,73.306,3.028
17:40:14:548,22.739,0.094,0.171,-0.426,10.345,73.405,1.460
17:40:14:549,22.740,0.090,0.163,-0.470,10.390,73.775,0.132
17:40:14:549,22.740,0.025,0.180,-0.461,10.478,75.151,-2.206
17:40:14:55,22.741,-0.097,0.304,-0.379,10.792,78.014,-4.897
17:40:14:566,22.757,-0.154,0.325,-0.296,11.192,80.477,-6.836
17:40:14:619,22.810,-0.194,0.248,-0.131,12.123,84.639,-9.996
17:40:14:647,22.837,-0.182,0.191,-0.012,12.949,87.366,-12.328
17:40:14:648,22.838,-0.175,0.126,0.045,14.503,90.975,-16.239
17:40:14:672,22.862,-0.221,0.075,0.106,15.821,92.977,-19.138
17:40:14:697,22.887,-0.266,0.065,0.165,18.194,95.410,-23.826
17:40:14:723,22.913,-0.324,0.078,0.284,21.135,97.564,-28.588
17:40:14:779,22.969,-0.364,0.041,0.391,23.468,98.900,-31.654
17:40:14:78,22.970,-0.342,-0.052,0.489,27.389,100.537,-36.024
17:40:14:831,23.022,-0.325,-0.191,0.530,29.959,101.050,-38.818
17:40:14:832,23.023,-0.296,-0.286,0.515,33.224,100.732,-42.912
17:40:14:913,23.103,-0.269,-0.412,0.451,35.353,99.356,-46.802
17:40:14:914,23.104,-0.246,-0.404,0.387,36.023,98.288,-49.013
17:40:14:915,23.105,-0.232,-0.332,0.350,36.263,97.050,-51.477
17:40:14:987,23.177,-0.216,-0.290,0.363,36.283,96.727,-52.477
17:40:15:129,23.320,-0.167,-0.324,0.394,36.379,97.062,-53.003
17:40:15:129,23.320,-0.151,-0.252,0.427,36.046,98.002,-52.480
17:40:15:129,23.320,-0.160,-0.154,0.465,35.396,98.906,-51.509
17:40:15:129,23.320,-0.120,-0.018,0.509,34.005,100.719,-49.097
17:40:15:175,23.366,-0.151,0.062,0.483,32.832,102.077,-46.913
17:40:15:176,23.367,-0.168,0.080,0.427,30.535,103.541,-42.828
17:40:15:177,23.368,-0.095,0.141,0.318,27.734,105.657,-37.856
17:40:15:223,23.413,-0.026,0.158,0.236,26.012,106.387,-34.398
17:40:15:257,23.447,-0.017,0.115,0.262,24.122,108.021,-29.526
17:40:15:258,23.448,0.044,0.083,0.301,22.924,108.143,-26.682
17:40:15:259,23.449,0.170,0.053,0.221,20.833,107.827,-23.259
17:40:15:26,23.450,0.193,0.025,0.153,18.846,106.083,-21.031
17:40:15:354,23.545,0.135,0.000,0.057,17.667,104.750,-20.185
17:40:15:38,23.571,0.057,-0.025,-0.029,16.167,101.947,-19.344
17:40:15:433,23.623,0.019,-0.024,-0.155,15.315,100.469,-18.815
17:40:15:469,23.659,0.022,-0.020,-0.196,14.264,97.930,-17.861
17:40:15:469,23.659,0.021,-0.007,-0.268,13.547,96.380,-16.497
17:40:15:469,23.659,0.038,-0.008,-0.302,13.204,95.175,-15.353
17:40:15:47,23.660,0.061,-0.007,-0.324,12.904,94.761,-13.343
17:40:15:491,23.681,0.024,-0.018,-0.319,13.034,94.687,-12.505
17:40:15:492,23.682,0.007,-0.034,-0.253,13.375,95.187,-11.608
17:40:15:493,23.683,-0.033,-0.054,-0.212,13.556,96.250,-10.046
17:40:15:541,23.731,-0.047,-0.048,-0.184,13.641,96.858,-9.396
17:40:15:541,23.731,-0.086,0.012,-0.219,13.630,97.466,-9.012
17:40:15:592,23.782,-0.105,0.060,-0.230,13.549,97.964,-9.036
17:40:15:619,23.809,-0.115,0.111,-0.247,13.312,99.255,-9.266
17:40:15:62,23.810,-0.072,0.166,-0.242,13.108,100.365,-9.557
17:40:15:671,23.862,-0.076,0.215,-0.251,12.759,102.363,-10.150
17:40:15:672,23.863,-0.081,0.303,-0.303,12.522,104.849,-10.747
17:40:15:812,24.002,-0.116,0.131,-0.324,12.542,106.981,-11.022
17:40:15:812,24.002,-0.148,0.036,-0.259,12.998,111.265,-11.201
17:40:15:813,24.003,-0.200,0.082,-0.132,13.555,114.746,-11.350
17:40:15:813,24.003,-0.229,0.187,-0.006,14.775,120.644,-11.808
17:40:15:829,24.019,-0.241,0.228,0.134,16.489,126.959,-12.470
17:40:15:855,24.045,-0.223,0.197,0.187,17.860,131.022,-13.017
17:40:15:856,24.046,-0.191,0.131,0.287,20.191,136.377,-14.127
17:40:15:879,24.069,-0.170,0.010,0.292,21.884,139.200,-15.122
17:40:15:907,24.097,-0.168,-0.064,0.313,24.544,142.251,-17.038
17:40:15:932,24.122,-0.187,-0.116,0.335,27.278,144.090,-19.411
17:40:16:045,24.235,-0.193,-0.146,0.378,29.124,144.788,-21.171
17:40:16:045,24.235,-0.189,-0.174,0.457,31.908,145.225,-24.024
17:40:16:149,24.340,-0.163,-0.314,0.544,38.096,143.538,-31.976
17:40:16:15,24.341,-0.151,-0.335,0.517,39.044,142.637,-33.824
17:40:16:151,24.342,-0.118,-0.317,0.479,39.854,141.215,-36.325
17:40:16:194,24.384,-0.093,-0.243,0.435,39.921,139.438,-39.488
17:40:16:222,24.412,-0.087,-0.168,0.435,39.277,139.302,-40.314
17:40:16:223,24.413,-0.063,-0.134,0.430,38.684,139.957,-40.181
17:40:16:276,24.466,-0.030,-0.062,0.413,37.750,142.281,-38.875
17:40:16:276,24.466,0.006,0.072,0.450,37.100,144.513,-37.396
17:40:16:326,24.516,0.049,0.135,0.487,36.048,148.366,-34.463
17:40:16:354,24.544,0.104,0.128,0.438,34.597,151.967,-31.108
17:40:16:355,24.545,0.103,0.046,0.375,33.295,153.635,-29.013
17:40:16:43,24.621,0.063,0.015,0.216,30.732,154.468,-26.347
17:40:16:456,24.647,0.056,0.010,0.125,28.817,154.207,-24.866
17:40:16:488,24.678,0.046,0.001,0.128,26.129,153.338,-22.917
17:40:16:488,24.678,-0.004,0.054,0.108,23.781,152.448,-21.030
17:40:16:489,24.680,0.027,0.076,0.044,22.317,152.256,-19.740
17:40:16:509,24.699,0.102,0.052,0.023,20.546,152.463,-18.007
17:40:16:535,24.725,0.085,0.008,-0.018,19.548,152.477,-17.109
17:40:16:562,24.752,0.045,-0.017,-0.072,18.147,151.692,-15.913
17:40:16:587,24.777,0.027,-0.034,-0.098,17.349,150.881,-15.162
17:40:16:616,24.806,-0.075,-0.034,-0.155,16.458,148.958,-14.097
17:40:16:641,24.831,-0.082,-0.036,-0.178,15.931,147.130,-12.902
17:40:16:693,24.883,-0.094,-0.043,-0.137,15.825,146.401,-11.989
17:40:16:722,24.913,-0.098,-0.054,-0.116,15.919,145.647,-10.624
17:40:16:723,24.914,-0.099,-0.080,-0.081,16.091,145.251,-9.794
17:40:16:744,24.935,-0.119,-0.070,-0.070,16.433,144.525,-8.836
17:40:16:771,24.962,-0.135,-0.056,-0.053,16.816,143.542,-8.233
17:40:16:827,25.018,-0.148,-0.043,-0.043,17.076,142.728,-8.028
17:40:16:828,25.019,-0.213,0.021,-0.067,17.403,141.166,-7.997
17:40:16:849,25.039,-0.270,0.075,-0.087,17.532,140.194,-8.031
17:40:16:876,25.066,-0.293,0.054,-0.120,17.576,139.292,-7.961
17:40:16:902,25.092,-0.287,0.064,-0.107,17.499,139.289,-7.809
17:40:16:929,25.119,-0.284,0.193,-0.067,17.461,139.914,-7.722
17:40:16:955,25.145,-0.333,0.311,-0.005,17.495,141.236,-7.642
17:40:16:981,25.171,-0.315,0.268,0.024,17.582,142.283,-7.690
17:40:17:008,25.198,-0.303,0.102,0.032,17.724,143.881,-8.107
17:40:17:034,25.224,-0.315,0.040,0.026,17.867,146.015,-8.881
17:40:17:06,25.250,-0.325,0.042,0.060,18.019,148.084,-9.496
17:40:17:085,25.276,-0.285,-0.011,0.104,18.409,152.008,-10.553
17:40:17:112,25.303,-0.226,-0.020,0.176,18.815,154.966,-11.378
17:40:17:138,25.329,-0.183,-0.024,0.218,19.673,159.380,-12.868
17:40:17:164,25.355,-0.117,-0.071,0.274,20.833,163.384,-14.713
17:40:17:191,25.382,-0.078,-0.079,0.297,21.753,165.612,-16.169
17:40:17:248,25.438,-0.044,-0.065,0.348,23.310,168.397,-18.613
17:40:17:248,25.438,-0.011,-0.054,0.381,24.466,169.779,-20.313
17:40:17:297,25.487,0.041,-0.063,0.430,26.287,171.698,-22.859
17:40:17:326,25.516,0.087,-0.110,0.447,28.068,172.815,-25.362
17:40:17:326,25.516,0.117,-0.160,0.435,29.147,173.403,-27.009
17:40:17:378,25.568,0.119,-0.230,0.370,30.413,173.153,-29.471
17:40:17:379,25.569,0.099,-0.236,0.311,30.994,173.202,-31.050
17:40:17:401,25.591,0.097,-0.222,0.309,31.560,173.314,-33.114
17:40:17:428,25.618,0.119,-0.142,0.347,31.881,173.725,-34.532
17:40:17:482,25.673,0.173,-0.092,0.359,31.948,174.251,-35.019
17:40:17:483,25.674,0.183,-0.081,0.338,31.721,175.283,-35.076
17:40:17:567,25.758,0.217,0.048,0.352,31.353,176.112,-34.666
17:40:17:568,25.759,0.273,0.245,0.407,30.679,177.404,-33.414
17:40:17:568,25.759,0.266,0.155,0.387,30.202,178.215,-32.159
17:40:17:569,25.760,0.214,0.135,0.308,29.072,178.958,-29.930
17:40:17:638,25.828,0.183,0.082,0.164,27.775,179.047,-27.704
17:40:17:664,25.854,0.190,0.038,0.117,27.035,178.721,-26.415
17:40:17:693,25.883,0.188,0.009,0.097,25.936,177.501,-24.990
17:40:17:694,25.884,0.230,-0.007,0.092,25.276,176.504,-24.330
17:40:17:719,25.909,0.225,-0.038,0.107,24.310,174.879,-23.710
17:40:17:72,25.910,0.187,-0.036,0.092,23.302,172.932,-23.371
17:40:17:772,25.962,0.134,-0.083,0.081,22.623,171.411,-23.143
17:40:17:773,25.963,0.038,-0.122,0.055,21.590,168.746,-22.598
17:40:17:796,25.986,-0.047,-0.117,0.034,20.944,166.865,-22.020
17:40:17:821,26.011,-0.083,-0.085,0.024,20.211,163.664,-20.793
17:40:17:847,26.038,-0.108,-0.075,0.036,19.814,161.693,-19.134
17:40:17:873,26.064,-0.125,-0.073,0.031,19.646,159.952,-17.844
17:40:17:9,26.091,-0.139,-0.084,0.031,19.307,158.783,-15.968
17:40:17:927,26.118,-0.132,-0.083,0.021,19.039,157.518,-14.804
17:40:17:981,26.172,-0.163,-0.058,0.033,18.838,156.442,-12.792
17:40:17:982,26.173,-0.192,-0.032,0.015,18.585,154.925,-11.004
17:40:18:031,26.221,-0.209,-0.034,-0.001,18.376,153.979,-9.943
17:40:18:09,26.280,-0.286,0.018,-0.052,17.946,152.108,-8.496
17:40:18:09,26.280,-0.337,0.080,-0.106,17.574,151.442,-7.529
17:40:18:091,26.281,-0.338,0.088,-0.112,16.996,150.753,-5.964
17:40:18:111,26.301,-0.314,0.101,-0.069,16.435,151.095,-4.532
17:40:18:137,26.327,-0.322,0.150,-0.075,16.033,151.228,-3.840
17:40:18:191,26.381,-0.353,0.184,-0.103,15.441,151.490,-3.170
17:40:18:192,26.382,-0.375,0.075,-0.116,15.111,151.572,-2.958
17:40:18:302,26.493,-0.383,0.069,-0.116,14.701,152.335,-3.020
17:40:18:303,26.494,-0.391,0.100,-0.092,14.339,153.994,-3.474
17:40:18:304,26.495,-0.373,0.108,-0.064,14.108,155.791,-4.280
17:40:18:305,26.496,-0.318,0.079,-0.002,14.044,159.351,-5.340
17:40:18:373,26.563,-0.266,0.060,0.035,14.159,162.049,-6.318
17:40:18:461,26.651,-0.200,0.021,0.098,14.637,166.159,-8.202
17:40:18:461,26.651,-0.138,-0.017,0.138,15.206,168.786,-9.734
17:40:18:462,26.652,-0.097,-0.025,0.179,16.444,172.389,-12.413
17:40:18:463,26.653,-0.028,-0.005,0.237,18.146,175.495,-15.414
17:40:18:48,26.670,0.043,0.002,0.305,19.511,177.226,-17.530
17:40:18:505,26.695,0.090,-0.017,0.328,21.793,179.151,-20.827
17:40:18:533,26.723,0.154,-0.071,0.360,23.387,179.922,-23.086
17:40:18:534,26.724,0.179,-0.122,0.354,25.680,-179.724,-26.551
17:40:18:557,26.747,0.203,-0.202,0.351,27.672,179.735,-30.107
17:40:18:582,26.773,0.201,-0.248,0.331,28.725,178.987,-32.449
17:40:18:608,26.799,0.206,-0.203,0.358,29.741,177.562,-35.635
17:40:18:693,26.884,0.221,-0.132,0.370,30.028,176.656,-37.307
17:40:18:693,26.884,0.282,-0.019,0.394,30.151,175.744,-38.865
17:40:18:694,26.884,0.306,-0.053,0.361,30.154,175.416,-39.336
17:40:18:743,26.933,0.355,-0.032,0.375,30.023,175.405,-39.146
17:40:18:743,26.933,0.385,0.045,0.393,29.451,175.611,-38.179
17:40:18:767,26.957,0.340,0.080,0.325,28.719,175.713,-37.079
17:40:18:793,26.983,0.290,0.069,0.265,27.336,176.017,-34.877
17:40:18:819,27.009,0.223,0.003,0.180,26.087,176.289,-32.384
17:40:18:845,27.035,0.269,-0.012,0.166,25.452,176.756,-30.772
17:40:18:871,27.061,0.327,-0.011,0.174,24.638,177.189,-28.596
17:40:18:898,27.088,0.323,-0.024,0.183,24.044,177.241,-27.351
17:40:18:924,27.114,0.270,-0.020,0.173,22.873,176.578,-25.766
17:40:18:951,27.142,0.126,-0.064,0.134,21.439,174.938,-24.296
17:40:18:977,27.168,0.081,-0.077,0.114,20.490,173.513,-23.229
17:40:19:003,27.194,-0.002,-0.122,0.098,19.259,171.110,-21.417
17:40:19:028,27.219,-0.011,-0.113,0.071,18.550,169.399,-20.041
17:40:19:055,27.246,-0.149,-0.058,0.076,17.620,166.300,-17.877
17:40:19:081,27.271,-0.203,-0.064,0.021,17.002,163.697,-15.350
17:40:19:107,27.297,-0.203,-0.054,0.028,16.727,162.630,-13.386
17:40:19:134,27.324,-0.266,-0.058,-0.016,16.374,161.256,-10.371
17:40:19:241,27.431,-0.284,-0.027,-0.035,16.168,160.653,-8.353
17:40:19:274,27.464,-0.301,-0.033,-0.078,15.812,159.943,-5.498
17:40:19:275,27.465,-0.379,-0.001,-0.135,15.392,159.215,-2.960
17:40:19:275,27.465,-0.446,0.039,-0.176,15.081,159.221,-1.400
17:40:19:276,27.466,-0.504,0.091,-0.187,14.633,159.083,0.823
17:40:19:292,27.482,-0.510,0.086,-0.177,14.323,159.810,2.172
17:40:19:318,27.508,-0.483,0.047,-0.176,13.702,160.868,3.773
17:40:19:344,27.535,-0.511,0.116,-0.190,13.195,162.300,4.453
17:40:19:37,27.561,-0.479,0.116,-0.151,12.497,163.883,4.854
17:40:19:426,27.617,-0.445,0.101,-0.109,12.106,165.616,4.352
17:40:19:427,27.618,-0.415,0.074,-0.076,11.995,166.260,3.422
17:40:19:449,27.639,-0.434,0.141,-0.033,12.028,167.787,1.192
17:40:19:475,27.665,-0.385,0.159,0.016,12.182,168.903,-0.722
17:40:19:589,27.780,-0.299,0.164,0.085,12.731,171.284,-4.095
17:40:19:589,27.780,-0.194,0.182,0.157,13.752,174.119,-7.965
17:40:19:59,27.781,-0.082,0.177,0.222,14.741,176.087,-10.735
17:40:19:664,27.854,0.089,0.130,0.318,18.301,-179.890,-18.138
17:40:19:665,27.855,0.164,0.117,0.342,20.999,-178.596,-22.905
17:40:19:666,27.856,0.257,0.103,0.416,23.976,-178.061,-27.749
17:40:19:685,27.875,0.311,0.051,0.438,26.048,-178.057,-30.921
17:40:19:798,27.989,0.363,-0.120,0.425,29.168,-178.461,-35.522
17:40:19:799,27.990,0.378,-0.216,0.399,31.136,-179.003,-38.510
17:40:19:799,27.990,0.374,-0.430,0.342,33.688,179.841,-42.890
17:40:19:816,28.007,0.265,-0.516,0.277,35.407,177.233,-49.102
17:40:19:843,28.033,0.238,-0.444,0.239,34.842,176.107,-51.381
17:40:19:9,28.090,0.282,-0.371,0.254,34.308,175.888,-52.124
17:40:19:901,28.091,0.308,-0.341,0.269,33.609,176.398,-51.949
17:40:19:902,28.092,0.380,-0.256,0.304,32.818,177.738,-50.198
17:40:19:921,28.111,0.451,-0.130,0.323,32.031,178.889,-48.285
17:40:19:976,28.166,0.467,-0.036,0.324,30.466,-179.225,-44.580
17:40:19:977,28.167,0.529,0.068,0.323,29.214,-177.926,-41.668
17:40:20:078,28.269,0.549,0.286,0.359,26.916,-176.347,-36.780
17:40:20:108,28.299,0.340,0.397,0.227,24.163,-175.441,-31.357
17:40:20:109,28.300,0.318,0.328,0.148,22.411,-175.093,-27.614
17:40:20:133,28.324,0.191,0.251,0.033,20.035,-175.499,-22.139
17:40:20:163,28.354,0.121,0.175,0.060,18.819,-176.255,-18.778
17:40:20:163,28.354,0.116,0.158,0.091,17.606,-177.556,-14.369
17:40:20:164,28.355,0.121,0.188,0.122,16.749,-179.623,-10.921
17:40:20:183,28.374,-0.003,0.183,0.148,16.330,177.934,-9.197
17:40:20:239,28.429,-0.333,0.042,0.114,16.156,173.086,-7.336
17:40:20:239,28.429,-0.368,-0.002,0.109,16.186,170.445,-6.065
17:40:20:263,28.453,-0.438,-0.053,0.030,16.391,167.354,-4.030
17:40:20:342,28.532,-0.494,-0.105,-0.021,16.753,165.052,-1.845
17:40:20:373,28.563,-0.531,-0.132,-0.087,17.044,164.160,-0.256
17:40:20:374,28.564,-0.535,-0.173,-0.155,17.444,163.791,2.358
17:40:20:375,28.565,-0.556,-0.193,-0.175,17.654,164.240,4.171
17:40:20:396,28.586,-0.581,-0.217,-0.158,17.848,165.686,6.776
17:40:20:446,28.637,-0.553,-0.216,-0.111,17.830,167.138,8.322
17:40:20:502,28.693,-0.532,-0.245,-0.074,17.553,169.695,10.125
17:40:20:503,28.694,-0.487,-0.246,-0.094,17.016,172.070,11.042
17:40:20:578,28.768,-0.528,-0.177,-0.079,16.600,173.404,11.065
17:40:20:639,28.830,-0.646,-0.069,-0.032,15.990,175.319,10.450
17:40:20:639,28.830,-0.679,-0.024,0.028,15.608,176.758,9.740
17:40:20:656,28.846,-0.484,0.354,0.287,12.524,-170.050,6.397
17:40:20:685,28.875,-0.374,0.425,0.346,11.533,-161.597,4.448
17:40:20:686,28.876,-0.273,0.418,0.409,11.492,-156.523,2.858
17:40:20:709,28.899,-0.094,0.370,0.434,12.379,-149.732,0.090
17:40:20:765,28.955,-0.057,0.268,0.496,14.262,-144.661,-3.457
17:40:20:765,28.955,-0.001,0.277,0.562,15.884,-141.875,-6.448
17:40:20:788,28.978,0.137,0.307,0.613,18.817,-137.513,-11.500
17:40:20:87,29.061,0.173,0.301,0.723,21.141,-134.181,-14.916
17:40:20:871,29.062,0.329,0.216,0.619,25.376,-128.064,-19.575
17:40:20:896,29.087,0.416,0.096,0.643,30.489,-122.392,-24.101
17:40:20:896,29.087,0.458,0.057,0.660,34.129,-119.582,-27.523
17:40:21:05,29.240,0.553,-0.085,0.624,39.931,-115.643,-32.477
17:40:21:086,29.276,0.527,-0.183,0.695,43.942,-113.173,-35.610
17:40:21:086,29.276,0.531,-0.224,0.617,49.777,-109.434,-39.985
17:40:21:087,29.277,0.478,-0.220,0.509,55.171,-104.923,-43.415
17:40:21:088,29.278,0.432,-0.209,0.416,58.494,-101.757,-45.499
17:40:21:136,29.326,0.375,-0.210,0.394,63.084,-96.905,-48.531
17:40:21:137,29.327,0.353,-0.163,0.318,65.844,-93.054,-49.964
17:40:21:138,29.328,0.267,-0.217,0.204,69.575,-86.249,-51.125
17:40:21:216,29.407,0.213,-0.243,0.150,71.681,-81.265,-51.261
17:40:21:216,29.407,0.165,-0.233,0.094,73.993,-73.483,-50.696
17:40:21:217,29.408,0.190,-0.220,0.007,75.509,-66.098,-49.905
17:40:21:218,29.409,0.345,-0.123,0.083,76.120,-60.620,-48.487
17:40:21:233,29.424,0.227,-0.081,-0.015,76.312,-45.939,-39.761
17:40:21:312,29.503,-0.070,-0.018,-0.059,76.257,-27.087,-26.492
17:40:21:342,29.533,-0.056,0.032,-0.029,76.270,-16.883,-19.689
17:40:21:342,29.533,0.002,-0.009,-0.002,76.251,-5.844,-13.436
17:40:21:367,29.557,0.082,0.019,-0.029,76.150,2.032,-8.997
17:40:21:368,29.558,0.042,-0.050,-0.021,76.085,13.354,-1.242
17:40:21:476,29.666,0.009,-0.033,-0.040,76.219,18.495,2.006
17:40:21:479,29.669,-0.031,-0.049,-0.007,76.696,22.754,4.065
17:40:21:479,29.669,-0.085,-0.068,0.025,77.430,22.838,2.780
17:40:21:499,29.689,-0.018,-0.084,0.025,77.996,20.198,-0.388
17:40:21:5,29.690,0.088,-0.112,0.035,78.663,17.297,-3.981
17:40:21:61,29.801,0.017,-0.097,0.040,79.016,17.843,-3.948
17:40:21:61,29.801,-0.032,-0.107,0.052,79.407,22.328,-0.941
17:40:21:611,29.802,-0.045,-0.147,0.049,79.850,25.963,1.932
17:40:21:627,29.818,-0.011,-0.128,0.074,80.789,28.704,3.186
17:40:21:732,29.922,-0.042,-0.120,0.103,81.158,31.007,4.620
17:40:21:821,30.011,-0.053,-0.097,0.140,81.713,34.006,7.029
17:40:21:821,30.011,-0.101,-0.106,0.147,82.211,37.173,9.016
17:40:21:822,30.012,-0.109,-0.072,0.125,82.562,38.071,9.540
17:40:21:823,30.013,-0.104,-0.066,0.147,83.208,38.945,9.211
17:40:21:926,30.116,-0.103,-0.063,0.154,83.676,38.291,8.101
17:40:21:926,30.116,-0.027,0.008,0.188,84.364,38.350,6.856
17:40:21:927,30.117,-0.067,0.076,0.244,85.031,42.975,10.058
17:40:21:948,30.138,-0.026,0.112,0.224,86.238,50.837,15.560
17:40:21:978,30.169,0.014,0.133,0.152,86.654,57.092,20.830
17:40:21:978,30.169,0.071,0.138,0.126,87.337,71.476,32.891
17:40:21:978,30.169,0.110,0.109,0.154,88.079,82.775,42.606
17:40:21:979,30.170,0.185,0.089,0.159,88.466,88.168,46.520
17:40:22:021,30.212,0.203,0.051,0.127,88.785,92.119,49.081
17:40:22:047,30.238,0.188,0.041,0.103,88.855,92.013,47.692
17:40:22:076,30.267,0.126,-0.010,0.069,88.935,84.152,38.501
17:40:22:077,30.268,0.099,-0.066,0.030,89.045,56.791,9.933
17:40:22:128,30.318,0.094,-0.074,0.022,89.121,28.150,-19.471
17:40:22:153,30.343,0.079,-0.106,0.049,89.241,-1.489,-50.342
17:40:22:179,30.369,0.050,-0.181,0.066,89.321,-12.346,-62.039
17:40:22:209,30.399,0.037,-0.184,0.068,89.417,-21.023,-71.899
17:40:22:209,30.399,0.034,-0.197,0.084,89.549,-26.826,-78.671
17:40:22:291,30.482,0.039,-0.199,0.090,89.871,-34.193,-87.053
17:40:22:291,30.482,0.021,-0.176,0.118,90.662,-51.136,-104.666
17:40:22:291,30.482,0.046,-0.153,0.142,90.827,-52.526,-106.938
17:40:22:339,30.530,0.049,-0.066,0.154,90.957,-53.751,-108.593
17:40:22:34,30.531,0.053,0.061,0.138,90.912,-53.219,-108.544
17:40:22:363,30.554,0.056,0.108,0.110,90.793,-53.597,-109.018
17:40:22:417,30.607,0.041,0.145,0.098,90.800,-58.209,-113.692
17:40:22:418,30.608,-0.016,0.181,0.147,90.832,-63.810,-119.269
17:40:22:443,30.633,-0.029,0.188,0.177,90.873,-73.869,-129.324
17:40:22:493,30.683,0.162,0.262,-0.010,90.472,-52.940,-108.445
17:40:22:52,30.710,0.052,0.245,-0.123,89.685,-12.005,-67.817
17:40:22:606,30.796,-0.102,0.148,-0.087,89.137,58.007,2.007
17:40:22:606,30.796,-0.195,0.086,-0.102,88.531,81.984,25.695
17:40:22:606,30.796,-0.130,-0.004,-0.114,88.383,79.085,22.883
17:40:22:678,30.868,-0.054,-0.048,-0.122,88.554,54.016,-1.790
17:40:22:71,30.900,-0.006,-0.090,-0.040,88.743,35.023,-20.193
17:40:22:711,30.901,-0.029,-0.085,0.008,88.711,43.584,-11.250
17:40:22:712,30.902,-0.058,-0.133,0.092,88.562,60.895,6.548
17:40:22:809,31.000,-0.045,-0.174,0.093,88.483,62.322,8.229
17:40:22:843,31.034,-0.048,-0.226,0.078,88.407,62.433,8.735
17:40:22:844,31.035,-0.090,-0.220,0.110,88.346,71.372,17.974
17:40:22:844,31.035,-0.112,-0.188,0.134,88.366,76.044,22.822
17:40:22:845,31.036,-0.122,-0.160,0.152,88.591,74.985,21.998
17:40:22:948,31.138,-0.115,-0.139,0.149,88.872,69.454,16.583
17:40:22:949,31.139,-0.078,-0.105,0.130,89.435,48.583,-4.203
17:40:22:95,31.140,-0.075,-0.056,0.147,89.931,52.793,0.000
17:40:22:95,31.140,-0.086,-0.025,0.132,90.519,-141.888,165.285
17:40:22:966,31.156,-0.041,0.041,0.155,91.277,-139.926,167.235
17:40:22:992,31.182,0.005,0.119,0.179,91.794,-134.488,172.638
17:40:23:019,31.209,0.003,0.180,0.178,92.457,-128.134,178.791
17:40:23:099,31.289,0.021,0.223,0.172,93.020,-119.410,-172.753
17:40:23:159,31.349,0.118,0.271,0.112,93.314,-108.244,-161.779
17:40:23:16,31.350,0.170,0.218,0.108,93.626,-95.636,-149.639
17:40:23:16,31.350,0.156,0.183,0.125,93.742,-91.193,-145.853
17:40:23:161,31.351,0.191,0.056,0.110,93.771,-86.723,-142.787
17:40:23:205,31.396,0.215,-0.005,0.054,93.586,-82.008,-139.663
17:40:23:206,31.397,0.214,-0.037,0.039,93.445,-79.142,-138.006
17:40:23:256,31.447,0.165,-0.066,-0.008,93.349,-75.381,-135.635
17:40:23:313,31.503,0.067,-0.110,0.033,93.366,-73.589,-134.957
17:40:23:314,31.504,0.052,-0.127,0.046,93.601,-72.079,-134.833
17:40:23:314,31.504,0.066,-0.150,0.063,93.829,-70.340,-134.092
17:40:23:334,31.524,0.083,-0.153,0.087,94.079,-68.150,-133.152
17:40:23:447,31.637,0.082,-0.163,0.077,94.178,-66.049,-132.352
17:40:23:448,31.638,0.071,-0.141,0.078,94.404,-66.767,-133.740
17:40:23:449,31.639,0.083,-0.131,0.104,95.038,-71.098,-139.034
17:40:23:45,31.640,0.078,-0.103,0.094,95.482,-74.076,-142.339
17:40:23:555,31.745,0.049,-0.032,0.117,95.444,-73.316,-142.144
17:40:23:555,31.745,0.061,0.028,0.095,95.360,-74.522,-143.377
17:40:23:555,31.745,0.056,0.051,0.066,95.286,-75.934,-145.030
17:40:23:555,31.745,0.022,0.075,0.083,95.220,-79.940,-148.948
17:40:23:57,31.760,0.025,0.102,0.095,95.200,-82.141,-151.356
17:40:23:683,31.874,0.036,0.123,0.083,95.146,-84.639,-153.964
17:40:23:684,31.875,0.056,0.160,0.066,95.022,-85.435,-155.065
17:40:23:686,31.877,0.082,0.196,0.016,94.798,-85.191,-154.857
17:40:23:687,31.878,0.039,0.187,-0.016,94.129,-87.548,-157.657
17:40:23:703,31.894,-0.020,0.136,-0.044,93.506,-93.397,-163.510
17:40:23:756,31.946,-0.075,0.079,-0.082,92.592,-106.286,-177.118
17:40:23:757,31.947,-0.053,0.039,-0.126,91.947,-116.524,172.300
17:40:23:809,31.999,-0.042,0.031,-0.106,91.618,-122.869,165.501
17:40:23:81,32.000,-0.028,-0.015,-0.019,91.143,-138.818,148.821
17:40:23:832,32.022,-0.007,-0.040,0.025,90.821,-153.057,133.976
17:40:23:86,32.050,-0.006,-0.115,0.059,90.437,-173.137,113.156
17:40:23:942,32.133,-0.016,-0.172,0.092,90.291,179.412,104.976
17:40:23:943,32.134,-0.012,-0.269,0.094,90.186,174.160,98.708
17:40:23:944,32.135,-0.049,-0.279,0.116,90.133,171.796,95.223
17:40:23:99,32.181,-0.046,-0.225,0.155,90.101,170.952,93.612
17:40:24:097,32.287,-0.045,-0.169,0.162,90.211,176.403,98.018
17:40:24:131,32.321,-0.036,-0.117,0.145,90.547,-161.273,119.372
17:40:24:131,32.321,-0.038,-0.075,0.151,90.807,-141.624,138.492
17:40:24:132,32.322,-0.042,-0.003,0.182,91.173,-132.679,146.438
17:40:24:133,32.323,-0.025,0.025,0.168,91.478,-131.444,147.034
17:40:24:175,32.365,0.029,0.077,0.103,92.006,-129.137,148.377
17:40:24:201,32.391,0.034,0.143,0.077,92.370,-130.203,146.693
17:40:24:228,32.418,0.086,0.179,0.094,92.949,-132.951,142.851
17:40:24:262,32.452,0.081,0.208,0.113,93.470,-134.032,140.393
17:40:24:262,32.452,0.026,0.222,0.149,93.739,-133.449,139.931
17:40:24:263,32.453,0.090,0.159,0.080,94.161,-126.177,145.435
17:40:24:264,32.454,0.177,0.098,0.000,94.415,-116.966,153.357
17:40:24:307,32.498,0.229,0.086,-0.022,94.541,-105.970,162.026
17:40:24:308,32.499,0.223,-0.019,-0.048,94.312,-103.351,162.162
17:40:24:36,32.551,0.176,-0.052,-0.077,94.132,-101.910,161.826
17:40:24:361,32.552,0.104,-0.083,-0.132,94.036,-96.894,164.434
17:40:24:412,32.602,0.035,-0.097,-0.097,94.116,-93.909,165.823
17:40:24:413,32.603,0.020,-0.112,-0.038,94.530,-89.739,167.750
17:40:24:463,32.653,0.071,-0.103,-0.039,95.214,-82.310,172.800
17:40:24:515,32.705,0.107,-0.088,-0.055,95.674,-77.771,175.912
17:40:24:55,32.740,0.121,-0.090,-0.089,96.300,-72.726,178.884
17:40:24:55,32.740,0.107,-0.053,-0.097,96.597,-70.797,179.600
17:40:24:55,32.740,0.097,-0.064,-0.026,96.891,-71.187,177.343
17:40:24:627,32.817,0.072,-0.056,0.002,97.160,-71.223,175.660
17:40:24:627,32.817,0.066,-0.046,0.009,97.342,-70.315,175.631
17:40:24:627,32.817,0.070,-0.035,0.053,97.667,-68.996,175.459
17:40:24:646,32.837,0.094,-0.038,0.045,97.966,-67.517,176.017
17:40:24:699,32.890,0.083,-0.022,0.022,98.405,-64.448,177.682
17:40:24:727,32.918,0.078,0.002,0.027,98.764,-62.997,178.063
17:40:24:728,32.919,0.044,0.039,0.009,98.978,-61.675,178.538
17:40:24:751,32.942,-0.012,0.096,0.008,99.140,-60.940,178.683
17:40:24:806,32.996,-0.027,0.120,0.022,99.097,-62.151,177.165
17:40:24:807,32.997,-0.054,0.106,-0.072,98.872,-64.909,173.971
17:40:24:83,33.020,-0.077,0.156,-0.115,98.337,-69.518,168.738
17:40:24:883,33.073,-0.128,0.197,-0.063,97.642,-76.727,161.071
17:40:24:936,33.126,-0.267,0.173,0.071,96.452,-88.861,148.013
17:40:24:965,33.155,-0.275,0.118,0.054,95.823,-92.287,143.957
17:40:24:965,33.155,-0.233,0.095,0.062,95.083,-92.522,142.502
17:40:25:014,33.205,-0.107,0.032,0.097,94.491,-93.505,140.400
17:40:25:045,33.236,-0.035,-0.016,0.086,94.140,-93.775,139.331
17:40:25:046,33.237,0.014,-0.054,0.139,93.584,-96.548,135.342
17:40:25:047,33.238,0.011,-0.166,0.192,93.335,-98.781,132.284
17:40:25:093,33.284,0.006,-0.204,0.138,93.395,-95.103,135.023
17:40:25:145,33.335,-0.014,-0.221,0.106,93.643,-89.842,139.809
17:40:25:198,33.388,-0.003,-0.212,0.151,94.145,-86.511,142.643
17:40:25:259,33.449,0.013,-0.174,0.174,94.800,-84.124,144.730
17:40:25:26,33.450,0.013,-0.138,0.161,95.326,-80.165,148.546
17:40:25:261,33.451,0.033,-0.121,0.189,96.138,-74.499,153.910
17:40:25:333,33.523,0.069,-0.023,0.168,97.502,-68.722,159.011
17:40:25:334,33.524,0.063,0.043,0.135,98.255,-68.301,158.967
17:40:25:39,33.580,0.054,0.060,0.103,98.785,-68.224,158.793
17:40:25:39,33.580,0.023,0.143,0.046,99.558,-67.261,159.318
17:40:25:391,33.581,-0.024,0.172,0.071,99.995,-67.254,158.899
17:40:25:392,33.582,-0.044,0.194,0.052,100.571,-66.764,158.266
17:40:25:466,33.656,-0.013,0.243,0.005,100.941,-64.222,159.890
17:40:25:467,33.657,-0.023,0.227,-0.037,100.983,-62.231,161.100
17:40:25:468,33.658,0.004,0.138,-0.088,100.856,-60.069,161.971
17:40:25:487,33.677,-0.035,0.099,-0.141,100.627,-59.437,161.661
17:40:25:623,33.814,-0.073,0.055,-0.056,100.180,-59.668,159.982
17:40:25:623,33.814,-0.128,-0.022,-0.018,99.848,-58.972,159.236
17:40:25:706,33.896,-0.146,-0.037,-0.011,99.706,-57.748,159.516
17:40:25:707,33.897,-0.101,-0.097,0.067,99.665,-56.544,159.251
17:40:25:707,33.897,-0.060,-0.200,0.037,99.772,-54.768,160.087
17:40:25:708,33.898,-0.048,-0.202,0.001,100.014,-51.012,162.667
17:40:25:757,33.947,-0.001,-0.222,0.050,100.347,-47.738,165.007
17:40:25:758,33.948,0.038,-0.231,0.071,100.577,-45.663,166.574
17:40:25:759,33.949,0.064,-0.183,0.047,100.878,-42.512,169.083
17:40:25:76,33.950,0.084,-0.117,0.061,101.019,-40.806,170.446
17:40:25:775,33.965,0.090,-0.087,0.053,101.127,-38.978,171.801
17:40:25:803,33.993,0.081,-0.059,0.023,101.039,-39.172,171.605
17:40:25:83,34.020,0.042,-0.019,0.066,100.892,-39.726,171.098
17:40:25:855,34.045,-0.027,0.047,0.055,100.707,-39.017,172.428
17:40:25:881,34.071,-0.078,0.129,-0.005,100.557,-38.005,173.759
17:40:25:993,34.184,-0.028,0.193,0.052,100.054,-40.794,171.602
17:40:25:994,34.185,-0.079,0.253,0.044,99.143,-45.652,167.241
17:40:25:994,34.185,-0.243,0.256,0.069,98.367,-48.419,164.591
17:40:25:995,34.186,-0.351,0.174,0.162,97.159,-53.919,159.310
17:40:26:069,34.260,-0.327,0.120,0.258,96.468,-57.252,156.184
17:40:26:07,34.261,-0.327,0.122,0.202,95.734,-56.619,157.476
17:40:26:071,34.262,-0.239,0.050,0.162,95.300,-51.226,163.393
17:40:26:09,34.280,-0.140,0.028,0.183,95.105,-47.300,167.937
17:40:26:116,34.306,-0.048,-0.056,0.134,94.988,-37.170,178.583
17:40:26:142,34.332,-0.032,-0.141,0.037,95.024,-27.262,-170.790
17:40:26:169,34.359,-0.026,-0.167,0.039,95.116,-24.690,-167.832
17:40:26:195,34.385,0.003,-0.189,0.098,95.360,-27.522,-169.798
17:40:26:223,34.413,-0.013,-0.214,0.124,95.668,-29.615,-171.399
17:40:26:275,34.465,-0.051,-0.204,0.126,96.278,-30.107,-170.775
17:40:26:303,34.493,-0.068,-0.191,0.152,97.002,-30.234,-170.195
17:40:26:303,34.493,-0.046,-0.156,0.152,97.513,-30.553,-170.000
17:40:26:356,34.546,-0.011,-0.096,0.157,98.244,-30.488,-169.604
17:40:26:356,34.546,-0.008,-0.046,0.143,98.674,-31.082,-170.019
17:40:26:405,34.595,0.005,-0.016,0.140,99.250,-33.485,-172.460
17:40:26:434,34.624,0.026,0.029,0.131,99.721,-36.387,-175.343
17:40:26:435,34.625,0.028,0.066,0.153,100.011,-37.753,-176.821
17:40:26:458,34.648,0.044,0.149,0.142,100.394,-38.705,-178.203
17:40:26:485,34.675,0.032,0.185,0.130,100.539,-39.363,-179.348
17:40:26:54,34.731,-0.040,0.240,0.108,100.545,-39.530,179.805
17:40:26:565,34.756,-0.040,0.255,0.032,100.355,-38.696,179.486
17:40:26:566,34.757,-0.052,0.156,0.042,100.079,-39.116,178.265
17:40:26:588,34.779,-0.036,0.098,0.078,99.689,-39.057,177.167
17:40:26:614,34.805,-0.076,0.045,-0.029,99.602,-36.641,178.921
17:40:26:667,34.857,-0.100,-0.023,-0.027,99.603,-33.502,-178.787
17:40:26:728,34.918,-0.108,-0.104,0.005,99.676,-32.240,-177.979
17:40:26:729,34.919,-0.109,-0.114,0.030,99.883,-29.629,-175.681
17:40:26:73,34.920,-0.116,-0.140,0.061,100.249,-25.157,-171.465
17:40:26:731,34.921,-0.119,-0.152,0.044,100.547,-22.358,-168.674
17:40:26:746,34.936,-0.072,-0.157,0.024,100.854,-20.010,-166.409
17:40:26:773,34.963,-0.042,-0.151,0.049,100.906,-19.019,-165.408
17:40:26:829,35.019,-0.021,-0.170,0.056,100.863,-16.445,-162.768
17:40:26:829,35.019,-0.022,-0.215,0.002,100.753,-12.540,-158.721
17:40:26:879,35.069,-0.009,-0.219,0.005,100.585,-10.185,-156.242
17:40:26:906,35.097,0.052,-0.198,0.035,100.203,-6.960,-152.651
17:40:26:906,35.097,0.061,-0.169,-0.001,99.863,-3.854,-149.350
17:40:26:958,35.149,0.062,-0.148,-0.013,99.170,1.964,-143.186
17:40:26:959,35.150,0.051,-0.166,0.046,98.258,8.653,-136.040
17:40:26:982,35.173,0.079,-0.249,0.150,97.565,13.791,-130.397
17:40:27:008,35.199,0.063,-0.382,0.233,96.490,23.346,-119.844
17:40:27:035,35.225,-0.047,-0.550,0.260,95.773,29.758,-112.194
17:40:27:063,35.253,-0.190,-0.626,0.212,94.386,37.326,-102.007
17:40:27:115,35.305,-0.334,-0.646,0.174,91.822,41.626,-93.482
17:40:27:144,35.334,-0.526,-0.537,0.137,88.859,42.888,-88.279
17:40:27:144,35.334,-0.845,-0.067,0.040,81.337,42.672,-80.714
17:40:27:166,35.356,-0.849,0.225,0.023,73.842,41.196,-75.886
17:40:27:193,35.383,-0.717,0.282,0.103,58.391,37.381,-68.401
17:40:27:274,35.465,-0.744,0.375,0.219,46.283,34.235,-62.717
17:40:27:275,35.466,-0.679,0.543,0.188,30.171,29.239,-53.358
17:40:27:3,35.491,-0.452,0.799,0.190,18.717,23.623,-43.549
17:40:27:3,35.491,-0.219,0.727,0.193,13.959,19.850,-37.064
17:40:27:323,35.514,-0.017,0.607,0.106,10.558,15.205,-27.809
17:40:27:377,35.568,0.073,0.347,-0.039,10.182,12.688,-19.593
17:40:27:434,35.624,0.072,0.166,-0.129,10.449,11.875,-14.869
17:40:27:435,35.625,0.089,0.085,-0.153,10.686,10.796,-9.036
17:40:27:436,35.626,0.143,0.075,-0.160,10.677,9.800,-5.880
17:40:27:484,35.674,0.286,0.026,-0.156,10.516,7.551,-2.093
17:40:27:486,35.676,0.460,-0.014,-0.128,10.391,5.516,-0.085
17:40:27:536,35.726,0.505,-0.095,-0.073,10.301,1.977,2.410
17:40:27:537,35.727,0.529,-0.216,0.022,10.427,-1.772,4.405
17:40:27:56,35.750,0.556,-0.270,0.052,10.608,-4.402,5.405
17:40:27:586,35.776,0.581,-0.171,0.076,10.793,-7.938,6.702
17:40:27:613,35.803,0.580,-0.043,0.080,10.823,-9.819,7.454
17:40:27:639,35.829,0.530,-0.087,0.101,10.721,-12.383,8.226
17:40:27:664,35.855,0.563,0.013,0.229,10.344,-15.411,8.233
17:40:27:691,35.882,0.547,0.055,0.281,9.816,-17.237,7.869
17:40:27:746,35.937,0.534,0.030,0.323,8.735,-19.335,6.793
17:40:27:747,35.938,0.496,0.092,0.315,7.824,-20.063,5.717
17:40:27:77,35.961,0.425,0.128,0.297,6.207,-19.691,3.614
17:40:27:796,35.986,0.315,0.087,0.236,4.614,-18.253,0.897
17:40:27:852,36.042,0.281,0.042,0.228,3.664,-17.124,-1.298
17:40:27:853,36.043,0.257,0.037,0.214,2.408,-15.006,-5.132
17:40:27:875,36.065,0.255,0.075,0.196,1.793,-13.050,-7.904
17:40:27:902,36.093,0.171,0.120,0.120,1.423,-9.292,-12.168
17:40:27:927,36.118,0.066,0.145,0.073,1.904,-5.146,-16.453
17:40:27:954,36.145,-0.003,0.133,0.029,2.715,-2.502,-19.226
17:40:27:98,36.170,-0.096,0.121,-0.010,4.573,1.085,-23.177
17:40:28:088,36.278,-0.183,0.110,-0.069,6.189,3.097,-25.644
17:40:28:113,36.303,-0.245,0.085,-0.093,9.056,5.578,-29.096
17:40:28:173,36.363,-0.330,0.043,-0.138,12.228,7.260,-32.277
17:40:28:174,36.364,-0.353,-0.009,-0.157,14.326,8.106,-34.258
17:40:28:175,36.365,-0.329,-0.127,-0.173,17.118,8.399,-36.978
17:40:28:177,36.367,-0.288,-0.202,-0.156,18.610,8.213,-38.631
17:40:28:193,36.383,-0.293,-0.207,-0.140,20.317,7.612,-40.964
17:40:28:194,36.384,-0.330,-0.198,-0.151,21.530,6.941,-43.018
17:40:28:243,36.434,-0.321,-0.194,-0.177,21.995,6.505,-44.106
17:40:28:271,36.461,-0.293,-0.217,-0.124,22.023,5.926,-45.170
17:40:28:272,36.462,-0.315,-0.201,-0.079,21.695,5.890,-45.532
17:40:28:295,36.485,-0.351,-0.121,-0.089,20.882,6.162,-45.590
17:40:28:321,36.511,-0.429,0.013,-0.077,19.710,6.885,-44.821
17:40:28:348,36.538,-0.431,0.058,-0.059,18.756,7.505,-43.789
17:40:28:402,36.593,-0.416,0.119,-0.015,17.031,8.446,-41.436
17:40:28:403,36.594,-0.327,0.098,0.059,15.753,8.854,-39.409
17:40:28:426,36.616,-0.257,0.081,0.099,13.897,9.229,-35.821
17:40:28:452,36.642,-0.185,0.055,0.150,12.749,8.866,-33.140
17:40:28:479,36.669,-0.208,0.049,0.156,11.331,8.381,-29.009
17:40:28:534,36.724,-0.203,0.100,0.163,10.021,7.033,-24.951
17:40:28:535,36.725,-0.173,0.122,0.183,9.143,5.809,-22.376
17:40:28:585,36.775,-0.066,0.103,0.138,8.064,3.553,-18.803
17:40:28:613,36.803,0.007,0.081,0.134,7.554,1.914,-16.590
17:40:28:614,36.804,0.116,0.060,0.126,7.105,-0.479,-13.473
17:40:28:637,36.827,0.167,0.002,0.113,7.103,-2.838,-10.550
17:40:28:662,36.853,0.206,-0.017,0.109,7.273,-4.191,-8.669
17:40:28:688,36.879,0.238,-0.069,0.120,7.744,-6.482,-6.025
17:40:28:714,36.905,0.278,-0.098,0.104,8.170,-7.836,-4.420
17:40:28:821,37.011,0.322,-0.125,0.135,8.857,-9.967,-2.251
17:40:28:847,37.037,0.337,-0.143,0.173,9.547,-11.880,-0.420
17:40:28:876,37.066,0.328,-0.175,0.160,10.014,-13.106,0.550
17:40:28:876,37.066,0.383,-0.143,0.174,10.574,-14.599,1.627
17:40:28:904,37.094,0.388,-0.143,0.194,10.793,-15.355,2.160
17:40:28:905,37.095,0.436,-0.142,0.224,10.913,-15.986,2.750
17:40:28:906,37.096,0.527,-0.064,0.224,10.839,-15.975,3.151
17:40:28:953,37.143,0.529,-0.024,0.182,10.658,-15.323,3.399
17:40:28:981,37.171,0.469,0.032,0.128,10.188,-13.675,3.641
17:40:28:981,37.171,0.497,0.122,0.120,9.746,-12.660,3.542
17:40:29:005,37.195,0.509,0.168,0.121,8.972,-11.400,2.881
17:40:29:029,37.220,0.483,0.208,0.074,8.074,-10.069,1.693
17:40:29:083,37.274,0.482,0.203,0.073,7.399,-8.662,0.572
17:40:29:114,37.305,0.422,0.050,0.092,6.279,-6.354,-1.607
17:40:29:115,37.306,0.368,-0.006,0.069,5.538,-3.898,-3.380
17:40:29:116,37.307,0.309,0.042,0.019,4.727,0.573,-6.629
17:40:29:135,37.326,0.186,0.144,-0.061,4.612,6.094,-10.471
17:40:29:219,37.409,0.101,0.203,-0.083,5.059,10.078,-13.193
17:40:29:22,37.410,-0.069,0.266,-0.111,6.587,15.989,-17.282
17:40:29:221,37.411,-0.166,0.238,-0.095,8.119,19.562,-19.877
17:40:29:241,37.431,-0.272,0.167,-0.094,10.953,23.805,-23.564
17:40:29:32,37.510,-0.332,0.081,-0.097,13.040,25.735,-25.964
17:40:29:349,37.539,-0.373,-0.019,-0.134,16.115,27.570,-29.574
17:40:29:35,37.540,-0.350,-0.094,-0.187,18.816,28.084,-33.007
17:40:29:4,37.590,-0.353,-0.152,-0.201,20.375,28.102,-34.977
17:40:29:462,37.652,-0.372,-0.157,-0.198,22.482,28.121,-37.441
17:40:29:462,37.652,-0.389,-0.208,-0.165,23.748,28.131,-38.785
17:40:29:462,37.652,-0.390,-0.229,-0.147,25.383,28.142,-40.436
17:40:29:462,37.652,-0.378,-0.254,-0.128,26.548,28.278,-41.682
17:40:29:505,37.695,-0.383,-0.255,-0.095,27.061,28.531,-42.288
17:40:29:506,37.696,-0.425,-0.223,-0.069,27.431,29.143,-42.922
17:40:29:529,37.719,-0.383,-0.152,-0.049,27.284,29.585,-43.138
17:40:29:613,37.804,-0.370,-0.073,-0.003,26.546,30.501,-42.945
17:40:29:614,37.805,-0.374,-0.009,0.053,25.637,32.074,-42.068
17:40:29:615,37.806,-0.354,0.008,0.060,25.088,33.477,-41.091
17:40:29:633,37.824,-0.378,0.021,0.151,24.363,36.025,-39.039
17:40:29:66,37.851,-0.369,-0.017,0.247,23.762,37.734,-37.488
17:40:29:745,37.935,-0.361,-0.065,0.236,22.764,39.811,-35.049
17:40:29:745,37.935,-0.325,-0.049,0.210,20.949,40.563,-32.505
17:40:29:746,37.936,-0.307,0.023,0.202,19.214,40.200,-30.713
17:40:29:823,38.014,-0.227,0.118,0.204,16.350,38.858,-27.865
17:40:29:824,38.015,-0.022,0.219,0.233,14.494,37.731,-25.828
17:40:29:825,38.016,0.069,0.228,0.300,12.226,36.411,-22.734
17:40:29:872,38.062,0.194,0.141,0.318,10.754,35.900,-19.612
17:40:29:873,38.063,0.252,0.056,0.275,10.159,35.822,-17.468
17:40:29:985,38.175,0.225,0.017,0.177,9.697,35.310,-14.144
17:40:29:985,38.175,0.210,0.043,0.139,9.587,35.386,-11.914
17:40:29:985,38.175,0.215,0.040,0.070,9.596,35.057,-8.533
17:40:29:986,38.176,0.281,-0.004,0.029,9.804,34.913,-5.244
17:40:30:001,38.191,0.259,-0.028,0.006,10.106,35.102,-3.243
17:40:30:055,38.245,0.260,-0.081,-0.016,10.710,34.431,-0.668
17:40:30:111,38.302,0.273,-0.113,-0.080,11.232,33.689,0.734
17:40:30:112,38.303,0.284,-0.114,-0.095,12.121,31.896,2.318
17:40:30:113,38.304,0.298,-0.156,-0.130,13.003,30.075,3.276
17:40:30:16,38.351,0.325,-0.176,-0.146,13.513,28.883,3.633
17:40:30:218,38.409,0.355,-0.141,-0.180,14.064,27.712,3.838
17:40:30:218,38.409,0.366,-0.099,-0.204,14.279,27.268,3.846
17:40:30:219,38.410,0.327,-0.066,-0.229,14.315,27.631,3.693
17:40:30:238,38.428,0.265,-0.020,-0.228,14.011,28.327,3.201
17:40:30:264,38.454,0.277,0.063,-0.245,13.653,28.901,2.582
17:40:30:35,38.540,0.267,0.146,-0.279,12.997,29.830,1.227
17:40:30:351,38.541,0.271,0.108,-0.311,12.468,30.667,0.069
17:40:30:351,38.541,0.284,0.073,-0.308,11.495,32.493,-1.897
17:40:30:482,38.673,0.239,0.047,-0.296,10.814,34.585,-3.369
17:40:30:483,38.674,0.143,0.091,-0.290,9.981,38.916,-5.926
17:40:30:484,38.675,0.036,0.131,-0.255,9.638,44.155,-8.992
17:40:30:485,38.676,-0.070,0.210,-0.210,9.776,47.869,-11.302
17:40:30:502,38.693,-0.156,0.271,-0.145,10.663,53.393,-15.048
17:40:30:503,38.694,-0.276,0.310,-0.072,11.715,56.816,-17.645
17:40:30:64,38.830,-0.350,0.249,0.023,13.886,61.188,-21.607
17:40:30:641,38.831,-0.412,0.141,0.110,16.433,64.232,-25.696
17:40:30:642,38.832,-0.435,0.112,0.159,18.179,65.468,-28.554
17:40:30:661,38.851,-0.458,-0.025,0.205,22.350,66.594,-35.920
17:40:30:661,38.851,-0.471,-0.095,0.222,24.619,66.583,-40.188
17:40:30:715,38.905,-0.461,-0.177,0.237,26.707,66.551,-44.042
17:40:30:715,38.905,-0.433,-0.259,0.231,27.987,66.620,-46.329
17:40:30:736,38.926,-0.379,-0.369,0.219,29.670,66.820,-49.331
17:40:30:791,38.981,-0.366,-0.411,0.218,30.542,67.089,-51.029
17:40:30:877,39.068,-0.368,-0.381,0.230,31.323,67.715,-53.010
17:40:30:877,39.068,-0.410,-0.270,0.273,31.356,68.836,-53.991
17:40:30:878,39.069,-0.397,-0.216,0.287,30.942,69.896,-53.913
17:40:30:878,39.069,-0.323,-0.197,0.284,29.856,72.032,-52.647
17:40:30:893,39.084,-0.249,-0.203,0.307,28.901,73.788,-51.201
17:40:30:919,39.110,-0.214,-0.146,0.322,27.183,76.907,-48.348
17:40:30:975,39.165,-0.179,0.142,0.368,25.630,80.422,-44.917
17:40:30:976,39.166,-0.184,0.236,0.367,25.044,82.944,-42.242
17:40:31:025,39.215,-0.225,0.238,0.377,24.276,86.905,-37.611
17:40:31:083,39.273,-0.099,0.129,0.352,23.198,89.086,-34.312
17:40:31:084,39.274,0.015,0.039,0.334,20.783,90.727,-29.543
17:40:31:085,39.275,0.039,0.060,0.283,18.087,89.942,-25.385
17:40:31:132,39.322,0.034,0.114,0.226,16.387,88.401,-22.957
17:40:31:158,39.348,0.062,0.159,0.152,14.242,85.560,-19.727
17:40:31:183,39.373,0.106,0.160,0.082,13.071,83.345,-17.972
17:40:31:209,39.399,0.131,0.149,0.045,11.720,78.948,-16.186
17:40:31:263,39.454,0.182,0.058,-0.273,10.962,74.103,-15.265
17:40:31:454,39.644,0.132,-0.030,-0.105,10.833,72.611,-14.533
17:40:31:455,39.645,0.063,-0.077,-0.076,10.948,71.427,-13.322
17:40:31:456,39.646,0.093,-0.080,-0.157,11.082,70.371,-12.573
17:40:31:457,39.647,0.052,-0.096,-0.137,11.431,69.108,-11.360
17:40:31:473,39.663,0.049,-0.107,-0.162,11.716,68.323,-10.508
17:40:31:499,39.689,0.058,-0.117,-0.194,12.118,67.112,-9.267
17:40:31:525,39.715,0.063,-0.109,-0.157,12.405,65.819,-9.370
17:40:31:638,39.829,0.058,-0.123,-0.165,12.556,65.116,-9.191
17:40:31:639,39.830,0.065,-0.120,-0.165,12.633,64.440,-9.013
17:40:31:64,39.831,0.042,-0.061,-0.152,12.555,63.885,-9.504
17:40:31:64,39.831,0.039,-0.023,-0.161,12.358,63.809,-9.439
17:40:31:771,39.961,0.038,0.027,-0.201,11.986,63.789,-9.472
17:40:31:771,39.961,0.032,0.064,-0.192,11.670,64.164,-9.466
17:40:31:771,39.961,0.011,0.091,-0.169,11.120,64.906,-9.542
17:40:31:772,39.962,0.014,0.118,-0.166,10.659,65.663,-9.671
17:40:31:849,40.039,0.040,0.167,-0.157,9.813,66.569,-10.034
17:40:31:85,40.040,0.056,0.116,-0.152,8.889,68.139,-10.708
17:40:31:85,40.040,0.063,0.080,-0.167,8.262,69.217,-11.326
17:40:31:851,40.041,0.085,0.067,-0.206,7.414,71.778,-12.426
17:40:31:866,40.056,0.071,0.105,-0.204,7.034,73.877,-13.260
17:40:31:954,40.144,0.039,0.134,-0.178,7.003,77.958,-14.688
17:40:31:955,40.145,-0.040,0.155,-0.082,7.761,82.850,-16.396
17:40:31:956,40.146,-0.084,0.181,0.001,8.715,86.253,-17.715
17:40:32:006,40.197,-0.179,0.166,0.194,12.407,94.084,-21.409
17:40:32:007,40.198,-0.181,0.105,0.272,15.250,97.834,-23.733
17:40:32:007,40.198,-0.195,0.004,0.293,18.103,99.888,-26.482
17:40:32:008,40.199,-0.203,-0.037,0.309,19.952,100.457,-28.583
17:40:32:03,40.221,-0.240,-0.093,0.335,22.615,100.527,-32.061
17:40:32:031,40.222,-0.242,-0.117,0.358,24.270,100.199,-34.489
17:40:32:032,40.223,-0.274,-0.169,0.370,26.566,99.427,-38.091
17:40:32:033,40.224,-0.281,-0.222,0.360,28.564,98.473,-41.450
17:40:32:077,40.268,-0.299,-0.247,0.375,29.741,97.806,-43.478
17:40:32:102,40.292,-0.292,-0.275,0.380,31.126,96.743,-46.064
17:40:32:13,40.320,-0.290,-0.294,0.343,31.682,96.012,-47.402
17:40:32:131,40.321,-0.283,-0.272,0.324,32.023,95.124,-48.676
17:40:32:154,40.344,-0.290,-0.213,0.356,32.098,94.778,-48.943
17:40:32:18,40.370,-0.285,-0.179,0.384,32.133,94.909,-48.557
17:40:32:321,40.512,-0.254,-0.173,0.443,32.066,95.585,-47.218
17:40:32:321,40.512,-0.238,-0.130,0.481,31.714,95.810,-45.983
17:40:32:322,40.513,-0.270,0.015,0.571,30.435,96.342,-43.822
17:40:32:322,40.513,-0.200,0.094,0.477,27.997,96.183,-41.226
17:40:32:557,40.748,-0.101,0.085,0.444,26.116,95.996,-39.272
17:40:32:558,40.749,-0.030,-0.037,0.410,23.561,94.089,-36.591
17:40:32:558,40.749,-0.016,-0.022,0.284,21.579,91.880,-35.019
17:40:32:559,40.750,-0.015,0.032,0.293,18.292,87.244,-32.716
17:40:32:583,40.774,0.009,0.139,0.189,16.230,83.789,-31.048
17:40:32:583,40.774,0.119,0.232,0.040,13.455,78.651,-28.210
17:40:32:584,40.774,0.158,0.188,-0.010,12.000,74.886,-25.129
17:40:32:585,40.775,0.138,0.109,-0.051,11.718,72.499,-23.113
17:40:32:6,40.790,0.106,0.001,-0.050,11.924,71.139,-20.221
17:40:32:687,40.878,0.061,-0.026,-0.086,12.255,70.409,-18.408
17:40:32:689,40.880,0.022,-0.029,-0.133,13.462,69.527,-13.528
17:40:32:689,40.880,0.033,-0.043,-0.178,13.856,68.895,-12.126
17:40:32:74,40.931,0.049,-0.066,-0.226,14.383,67.537,-10.263
17:40:32:741,40.932,0.052,-0.095,-0.258,14.864,66.209,-8.713
17:40:32:742,40.933,0.040,-0.120,-0.274,15.127,65.618,-7.857
17:40:32:742,40.933,0.044,-0.160,-0.279,15.330,65.044,-6.802
17:40:32:811,41.001,0.047,-0.151,-0.288,15.312,65.093,-6.234
17:40:32:838,41.028,0.032,-0.032,-0.313,15.076,65.752,-5.570
17:40:32:867,41.058,0.017,0.031,-0.371,14.669,67.162,-4.983
17:40:32:868,41.059,0.013,0.047,-0.360,14.307,68.438,-4.619
17:40:32:869,41.060,-0.032,0.111,-0.306,13.570,70.921,-4.283
17:40:32:917,41.108,-0.022,0.175,-0.320,12.940,72.646,-4.347
17:40:32:918,41.109,-0.019,0.260,-0.388,11.880,75.631,-4.823
17:40:32:941,41.132,-0.039,0.258,-0.361,10.856,79.720,-5.689
17:40:32:997,41.187,-0.055,0.136,-0.278,10.296,83.127,-6.561
17:40:32:998,41.188,-0.054,0.081,-0.226,9.746,88.875,-8.493
17:40:33:02,41.210,-0.089,0.086,-0.145,9.717,93.075,-10.209
17:40:33:104,41.294,-0.141,0.127,-0.067,10.426,99.688,-13.287
17:40:33:105,41.295,-0.209,0.210,0.012,12.183,106.215,-16.656
17:40:33:106,41.296,-0.239,0.245,0.092,14.020,110.614,-18.817
17:40:33:267,41.458,-0.227,0.220,0.279,17.851,117.541,-21.391
17:40:33:267,41.458,-0.197,0.114,0.460,20.827,121.950,-22.536
17:40:33:267,41.458,-0.164,0.015,0.500,25.145,125.863,-24.507
17:40:33:268,41.459,-0.206,-0.109,0.501,28.958,126.735,-27.097
17:40:33:288,41.479,-0.213,-0.152,0.503,31.137,126.018,-29.252
17:40:33:288,41.479,-0.259,-0.211,0.472,33.849,123.662,-32.983
17:40:33:289,41.480,-0.291,-0.225,0.449,35.377,121.808,-35.552
17:40:33:339,41.530,-0.307,-0.262,0.486,37.481,119.412,-39.095
17:40:33:339,41.530,-0.303,-0.284,0.510,39.378,117.707,-42.008
17:40:33:361,41.551,-0.294,-0.282,0.502,37.675,117.615,-42.133
17:40:33:387,41.577,-0.280,-0.208,0.355,35.986,117.425,-42.401
17:40:33:441,41.631,-0.198,-0.201,0.296,36.381,117.513,-42.849
17:40:33:473,41.663,-0.168,-0.234,0.325,37.221,119.173,-42.446
17:40:33:473,41.663,-0.141,-0.268,0.412,37.820,120.970,-41.656
17:40:33:474,41.664,-0.112,-0.261,0.459,38.181,124.128,-39.983
17:40:33:523,41.713,-0.070,-0.222,0.522,37.400,126.619,-38.340
17:40:33:523,41.713,-0.050,-0.134,0.561,36.146,127.511,-37.390
17:40:33:574,41.764,-0.041,0.005,0.620,33.280,127.658,-36.086
17:40:33:575,41.765,-0.049,0.079,0.491,30.793,127.102,-35.029
17:40:33:626,41.817,-0.019,0.073,0.352,26.596,125.702,-32.824
17:40:33:627,41.818,0.073,0.019,0.312,22.694,124.083,-30.174
17:40:33:677,41.868,0.054,0.076,0.246,20.348,122.820,-28.230
17:40:33:732,41.923,0.084,0.275,0.157,17.015,120.684,-25.000
17:40:33:733,41.924,0.135,0.282,-0.080,14.991,119.449,-22.613
17:40:33:756,41.947,0.167,0.249,-0.237,12.404,118.380,-18.760
17:40:33:809,41.999,0.232,0.106,-0.261,10.768,119.047,-14.806
17:40:33:839,42.029,0.132,0.083,-0.279,10.086,119.906,-12.263
17:40:33:84,42.030,0.051,0.004,-0.392,9.406,120.669,-8.661
17:40:33:841,42.031,0.027,0.026,-0.319,9.125,121.836,-6.256
17:40:33:913,42.103,-0.009,0.017,-0.300,8.988,123.018,-2.859
17:40:33:94,42.130,-0.048,-0.008,-0.314,9.128,123.865,0.056
17:40:34:,42.190,-0.060,-0.059,-0.339,9.315,124.085,1.681
17:40:34:001,42.191,-0.100,-0.160,-0.345,9.781,124.585,3.494
17:40:34:002,42.192,-0.102,-0.179,-0.340,10.188,124.304,4.228
17:40:34:003,42.193,-0.141,-0.205,-0.312,10.899,123.808,4.694
17:40:34:017,42.208,-0.197,-0.150,-0.334,11.676,122.988,4.478
17:40:34:043,42.234,-0.246,-0.073,-0.336,12.192,122.329,4.067
17:40:34:099,42.289,-0.292,0.015,-0.287,12.909,121.809,3.185
17:40:34:1,42.290,-0.278,-0.007,-0.226,13.296,121.476,2.430
17:40:34:124,42.314,-0.281,0.063,-0.255,13.603,121.047,1.076
17:40:34:149,42.339,-0.317,0.175,-0.293,13.608,120.973,-0.428
17:40:34:176,42.366,-0.364,0.226,-0.310,13.514,121.726,-1.384
17:40:34:231,42.421,-0.365,0.182,-0.242,13.287,123.702,-2.695
17:40:34:232,42.422,-0.339,0.145,-0.181,13.079,126.142,-3.529
17:40:34:254,42.444,-0.309,0.030,-0.109,12.832,130.537,-4.956
17:40:34:309,42.500,-0.292,-0.019,-0.009,12.910,135.917,-6.792
17:40:34:309,42.500,-0.283,-0.001,0.057,13.222,139.723,-8.207
17:40:34:332,42.523,-0.252,0.078,0.160,14.205,145.424,-10.563
17:40:34:358,42.549,-0.218,0.170,0.253,15.163,149.074,-12.157
17:40:34:501,42.691,-0.168,0.186,0.323,17.137,153.828,-14.505
17:40:34:501,42.691,-0.096,0.132,0.404,19.499,157.312,-16.845
17:40:34:501,42.691,-0.055,0.054,0.432,21.122,158.823,-18.508
17:40:34:501,42.691,-0.031,-0.029,0.441,23.430,159.958,-21.255
17:40:34:519,42.709,-0.015,-0.080,0.464,24.848,160.189,-23.220
17:40:34:52,42.710,-0.012,-0.117,0.460,26.749,160.111,-26.254
17:40:34:542,42.732,0.004,-0.147,0.486,27.871,159.994,-28.227
17:40:34:569,42.759,0.030,-0.134,0.506,29.343,159.974,-30.936
17:40:34:598,42.788,0.043,-0.213,0.474,29.516,160.434,-32.734
17:40:34:621,42.811,0.060,-0.267,0.442,30.112,160.713,-33.985
17:40:34:648,42.838,0.089,-0.265,0.447,30.563,161.121,-35.542
17:40:34:674,42.864,0.134,-0.215,0.445,30.544,161.417,-36.319
17:40:34:701,42.892,0.174,-0.184,0.435,30.017,161.910,-37.086
17:40:34:726,42.917,0.183,-0.226,0.356,28.920,162.446,-37.311
17:40:34:752,42.943,0.199,-0.187,0.313,27.916,162.816,-37.211
17:40:34:779,42.970,0.230,-0.018,0.282,26.179,163.343,-36.631
17:40:34:805,42.996,0.224,0.072,0.289,25.030,163.746,-35.879
17:40:34:831,43.021,0.228,0.174,0.299,23.267,164.521,-34.023
17:40:34:857,43.047,0.243,0.212,0.231,21.336,165.227,-31.354
17:40:34:913,43.103,0.212,0.171,0.158,19.901,165.406,-29.280
17:40:34:913,43.103,0.165,0.165,0.021,17.623,165.003,-26.058
17:40:34:936,43.126,0.194,0.126,-0.060,16.282,164.469,-23.966
17:40:34:962,43.152,0.197,0.041,-0.090,14.623,163.282,-20.913
17:40:34:989,43.179,0.145,0.134,-0.175,13.240,161.240,-17.987
17:40:35:016,43.206,0.148,0.121,-0.178,12.694,159.466,-16.092
17:40:35:042,43.232,-0.036,0.119,-0.191,12.296,155.682,-13.290
17:40:35:068,43.258,-0.142,0.081,-0.224,12.329,152.754,-11.464
17:40:35:094,43.284,-0.184,0.026,-0.213,12.881,148.928,-8.776
17:40:35:12,43.310,-0.280,-0.010,-0.213,13.823,146.001,-6.218
17:40:35:147,43.337,-0.315,-0.031,-0.209,14.565,144.688,-4.560
17:40:35:173,43.363,-0.342,-0.050,-0.160,15.690,143.616,-2.202
17:40:35:198,43.389,-0.347,-0.077,-0.134,16.394,143.240,-0.788
17:40:35:224,43.415,-0.341,-0.112,-0.151,17.351,142.762,0.960
17:40:35:252,43.442,-0.226,-0.177,-0.046,18.399,141.753,1.938
17:40:35:278,43.468,-0.280,-0.223,-0.009,19.230,139.913,1.895
17:40:35:304,43.494,-0.394,-0.238,-0.234,20.279,135.468,1.024
17:40:35:359,43.549,-0.353,-0.233,-0.213,20.756,133.017,0.288
17:40:35:36,43.550,-0.387,-0.206,-0.188,21.135,130.266,-0.844
17:40:35:383,43.573,-0.431,-0.052,-0.247,21.086,129.115,-1.518
17:40:35:438,43.628,-0.438,0.014,-0.211,20.607,129.090,-2.079
17:40:35:439,43.629,-0.369,0.051,-0.129,19.691,130.890,-2.297
17:40:35:463,43.653,-0.391,0.172,-0.115,18.840,132.557,-2.517
17:40:35:487,43.677,-0.409,0.186,-0.129,17.249,135.684,-3.022
17:40:35:514,43.704,-0.431,0.124,-0.106,15.430,140.152,-3.537
17:40:35:567,43.758,-0.385,0.097,-0.050,14.218,143.858,-4.018
17:40:35:595,43.786,-0.327,0.058,-0.003,12.644,149.866,-5.221
17:40:35:596,43.787,-0.292,0.076,0.009,11.829,153.868,-6.417
17:40:35:619,43.810,-0.224,0.126,0.067,11.102,159.829,-8.713
17:40:35:645,43.836,-0.143,0.194,0.133,11.033,165.666,-11.468
17:40:35:701,43.891,-0.078,0.220,0.166,11.403,169.362,-13.482
17:40:35:702,43.892,0.036,0.230,0.199,12.555,174.343,-16.674
17:40:35:752,43.942,0.140,0.155,0.221,13.663,177.108,-18.891
17:40:35:779,43.969,0.196,0.101,0.225,15.591,-179.933,-22.404
17:40:35:78,43.970,0.230,0.009,0.225,17.571,-178.234,-26.160
17:40:35:891,44.081,0.247,-0.036,0.230,18.873,-178.118,-28.761
17:40:35:892,44.082,0.248,-0.111,0.243,20.732,-177.756,-32.612
17:40:35:893,44.083,0.247,-0.152,0.247,21.889,-177.697,-35.033
17:40:35:894,44.084,0.246,-0.201,0.217,23.515,-177.728,-38.280
17:40:35:915,44.105,0.252,-0.253,0.208,24.959,-177.996,-41.050
17:40:35:915,44.105,0.240,-0.283,0.196,25.690,-178.385,-42.607
17:40:35:935,44.125,0.219,-0.292,0.187,26.288,-179.131,-44.372
17:40:35:961,44.151,0.218,-0.263,0.178,26.380,-179.578,-45.068
17:40:36:016,44.206,0.239,-0.200,0.201,26.225,179.992,-45.266
17:40:36:016,44.206,0.264,-0.159,0.183,25.941,179.867,-44.818
17:40:36:038,44.229,0.267,-0.146,0.171,25.098,179.902,-43.349
17:40:36:065,44.256,0.287,-0.039,0.182,23.867,-179.835,-41.093
17:40:36:091,44.282,0.317,0.111,0.236,22.898,-179.538,-39.150
17:40:36:145,44.336,0.357,0.222,0.203,21.399,-178.789,-35.531
17:40:36:172,44.362,0.300,0.198,0.176,20.411,-178.288,-32.834
17:40:36:173,44.363,0.233,0.187,0.133,18.825,-178.303,-28.744
17:40:36:198,44.388,0.129,0.106,0.065,17.166,-178.624,-24.782
17:40:36:223,44.413,0.085,0.068,0.045,16.168,-179.379,-22.313
17:40:36:249,44.439,0.045,0.048,0.052,14.860,179.587,-18.971
17:40:36:305,44.495,0.013,0.069,0.054,14.117,178.346,-16.970
17:40:36:305,44.495,-0.006,0.116,0.088,13.239,176.577,-14.312
17:40:36:328,44.518,-0.029,0.096,0.082,12.571,173.538,-12.128
17:40:36:355,44.545,-0.128,0.055,0.078,12.214,171.029,-10.922
17:40:36:381,44.571,-0.192,-0.017,0.041,11.773,166.607,-9.259
17:40:36:435,44.626,-0.275,-0.025,-0.017,11.526,163.688,-8.124
17:40:36:436,44.627,-0.316,-0.044,-0.048,11.368,159.252,-6.384
17:40:36:458,44.649,-0.362,-0.072,-0.106,11.431,155.856,-4.469
17:40:36:486,44.677,-0.354,-0.069,-0.128,11.552,153.725,-3.080
17:40:36:54,44.731,-0.289,-0.094,-0.122,11.749,152.130,-1.029
17:40:36:541,44.732,-0.329,-0.140,-0.148,11.875,150.679,0.177
17:40:36:591,44.781,-0.356,-0.141,-0.198,11.957,149.094,1.720
17:40:36:723,44.913,-0.382,-0.125,-0.231,11.829,147.839,3.031
17:40:36:758,44.948,-0.369,-0.113,-0.249,11.591,147.526,3.776
17:40:36:759,44.949,-0.342,-0.124,-0.260,11.077,147.161,4.566
17:40:36:759,44.949,-0.370,-0.104,-0.310,10.660,147.131,4.894
17:40:36:76,44.950,-0.407,-0.036,-0.369,9.907,147.173,5.206
17:40:36:78,44.970,-0.380,0.018,-0.348,9.059,148.241,5.196
17:40:36:78,44.970,-0.389,0.097,-0.337,8.455,149.378,4.886
17:40:36:781,44.971,-0.372,0.146,-0.302,7.572,151.480,3.938
17:40:36:8,44.991,-0.364,0.123,-0.250,7.044,153.220,2.994
17:40:36:826,45.017,-0.361,0.136,-0.224,6.437,156.125,1.144
17:40:36:881,45.072,-0.309,0.113,-0.164,6.149,159.522,-1.184
17:40:36:882,45.073,-0.282,0.110,-0.129,6.236,161.965,-2.994
17:40:36:905,45.096,-0.261,0.155,-0.042,6.867,165.762,-6.068
17:40:36:989,45.179,-0.323,0.264,0.010,7.677,168.423,-8.362
17:40:36:99,45.180,-0.277,0.352,0.186,9.521,172.461,-12.780
17:40:36:991,45.181,-0.309,0.507,0.378,11.088,174.784,-16.804
17:40:37:01,45.200,-0.126,0.561,0.462,13.958,178.764,-23.677
17:40:37:036,45.226,0.030,0.445,0.439,18.089,-176.626,-30.974
17:40:37:064,45.254,0.092,0.410,0.472,21.614,-174.084,-36.006
17:40:37:089,45.279,0.148,0.305,0.521,28.279,-171.199,-44.012
17:40:37:115,45.305,0.180,0.120,0.539,33.885,-169.648,-49.419
17:40:37:142,45.332,0.279,-0.018,0.491,44.001,-167.627,-57.327
17:40:37:167,45.357,0.237,-0.159,0.383,54.835,-166.360,-64.750
17:40:37:252,45.442,0.218,-0.133,0.314,61.901,-165.985,-69.550
17:40:37:253,45.443,0.212,-0.071,0.237,72.018,-165.959,-76.649
17:40:37:254,45.444,0.119,-0.074,0.285,78.563,-166.136,-81.306
17:40:37:274,45.465,0.114,-0.113,0.247,87.602,-166.225,-88.033
17:40:37:326,45.516,0.171,-0.175,0.230,94.283,-165.644,-94.000
17:40:37:354,45.544,0.189,-0.213,0.217,97.217,-164.983,-97.602
17:40:37:355,45.545,0.154,-0.160,0.198,99.603,-163.940,-102.613
17:40:37:406,45.597,0.196,-0.173,0.163,100.068,-163.505,-105.934
17:40:37:407,45.598,0.224,-0.257,0.068,99.811,-165.114,-112.488
17:40:37:429,45.620,0.101,-0.315,0.035,99.194,-172.583,-124.038
17:40:37:456,45.647,0.059,-0.315,-0.045,98.565,177.046,-136.661
17:40:37:54,45.730,0.007,-0.263,-0.199,97.294,152.405,-164.125
17:40:37:541,45.731,0.086,-0.249,-0.118,96.367,135.462,177.355
17:40:37:542,45.732,0.133,-0.171,-0.131,94.815,110.031,149.956
17:40:37:561,45.751,0.069,-0.208,-0.199,93.448,85.211,123.783
17:40:37:588,45.778,0.038,-0.211,-0.187,92.782,76.844,114.889
17:40:37:694,45.884,0.136,-0.102,-0.152,92.057,71.359,109.087
17:40:37:728,45.918,0.106,-0.084,-0.145,91.847,70.137,107.991
17:40:37:728,45.918,0.069,-0.111,-0.054,92.015,73.509,111.829
17:40:37:729,45.919,0.032,-0.110,-0.035,92.384,79.586,118.621
17:40:37:73,45.920,0.018,-0.096,-0.050,92.598,82.341,121.848
17:40:37:833,46.024,-0.053,-0.069,-0.032,92.861,84.989,125.183
17:40:37:833,46.024,-0.029,-0.085,-0.019,92.995,87.359,127.984
17:40:37:834,46.025,-0.008,-0.066,-0.014,93.130,92.122,133.292
17:40:37:835,46.026,-0.004,-0.062,-0.041,93.201,95.160,136.576
17:40:37:849,46.040,-0.027,-0.055,-0.068,93.217,96.861,138.439
17:40:37:876,46.067,-0.026,-0.018,-0.079,93.214,97.890,139.431
17:40:37:964,46.154,-0.022,-0.013,-0.046,93.253,99.113,140.571
17:40:37:964,46.154,0.004,0.034,-0.019,93.387,102.430,143.771
17:40:37:965,46.155,-0.040,0.078,-0.051,93.541,104.149,145.388
17:40:38:012,46.202,-0.063,0.097,-0.034,94.437,110.983,151.604
17:40:38:012,46.202,-0.034,0.137,0.001,94.735,114.942,155.286
17:40:38:034,46.224,0.002,0.176,0.030,95.064,120.418,160.303
17:40:38:06,46.250,-0.011,0.141,0.033,95.202,122.138,161.602
17:40:38:116,46.306,-0.001,0.090,0.066,95.280,123.515,162.054
17:40:38:116,46.306,0.062,0.052,0.103,95.190,125.136,162.845
17:40:38:226,46.417,0.073,0.003,0.117,95.118,126.537,163.911
17:40:38:226,46.417,0.041,0.009,0.148,95.018,129.337,166.035
17:40:38:227,46.418,0.046,-0.046,0.131,94.958,129.888,166.266
17:40:38:228,46.419,0.056,-0.061,0.131,94.903,130.877,166.792
17:40:38:243,46.434,0.052,-0.076,0.117,94.901,134.730,170.412
17:40:38:27,46.460,0.044,-0.093,0.092,94.897,138.220,173.532
17:40:38:297,46.487,0.027,-0.116,0.066,94.929,145.108,-179.716
17:40:38:377,46.567,0.026,-0.121,0.075,94.955,150.684,-174.342
17:40:38:402,46.592,-0.002,-0.138,0.082,95.172,159.648,-165.597
17:40:38:433,46.623,-0.036,-0.116,0.093,95.095,165.786,-159.761
17:40:38:434,46.624,-0.043,-0.107,0.097,94.998,169.547,-156.051
17:40:38:435,46.625,-0.061,-0.088,0.087,95.023,173.370,-152.354
17:40:38:482,46.673,-0.080,-0.061,0.086,95.296,173.692,-152.015
17:40:38:483,46.674,-0.076,-0.047,0.068,95.052,176.372,-149.379
17:40:38:506,46.697,-0.088,-0.006,0.066,94.758,178.425,-147.372
17:40:38:532,46.723,-0.070,0.020,0.085,94.533,-179.509,-145.445
17:40:38:559,46.750,-0.039,0.061,0.071,94.146,-176.542,-142.540
17:40:38:585,46.776,-0.032,0.077,0.063,93.830,-175.021,-141.106
17:40:38:611,46.801,-0.027,0.090,0.048,93.239,-172.394,-138.586
17:40:38:637,46.827,-0.010,0.109,0.041,92.480,-168.183,-134.561
17:40:38:664,46.854,0.012,0.113,0.069,91.930,-162.661,-129.036
17:40:38:69,46.880,0.049,0.095,0.030,91.094,-148.698,-114.989
17:40:38:743,46.933,0.090,0.104,0.012,90.576,-137.313,-103.389
17:40:38:798,46.988,0.143,0.080,0.000,89.864,-121.201,-87.002
17:40:38:828,47.018,0.164,0.088,-0.013,89.413,-112.424,-77.872
17:40:38:828,47.018,0.153,0.053,-0.076,88.855,-103.241,-68.232
17:40:38:829,47.019,0.164,-0.044,-0.107,88.563,-101.470,-65.932
17:40:38:848,47.039,0.164,-0.084,-0.058,88.499,-103.539,-67.514
17:40:38:93,47.121,0.152,-0.087,-0.009,88.434,-106.184,-69.531
17:40:38:931,47.122,0.097,-0.110,-0.024,88.358,-106.841,-69.590
17:40:38:985,47.175,0.031,-0.093,0.019,88.229,-107.764,-69.573
17:40:38:985,47.175,0.000,-0.094,0.008,88.140,-109.438,-70.251
17:40:38:986,47.176,-0.011,-0.114,-0.014,88.187,-111.518,-71.714
17:40:39:111,47.301,-0.008,-0.097,0.004,88.426,-116.264,-75.465
17:40:39:146,47.336,-0.034,-0.082,-0.012,88.656,-119.551,-78.145
17:40:39:147,47.337,-0.036,-0.056,-0.036,89.102,-124.802,-82.668
17:40:39:148,47.338,-0.035,-0.027,-0.023,89.621,-129.842,-87.200
17:40:39:148,47.338,-0.041,-0.025,-0.035,89.978,-132.732,-89.849
17:40:39:195,47.385,-0.084,-0.013,-0.064,90.536,-136.408,-93.398
17:40:39:196,47.386,-0.091,-0.025,-0.055,90.876,-138.254,-95.321
17:40:39:216,47.407,-0.065,0.060,0.024,91.417,-140.430,-98.017
17:40:39:328,47.519,-0.080,0.076,0.007,91.365,-140.043,-97.697
17:40:39:329,47.520,-0.119,0.078,-0.033,91.205,-138.919,-96.748
17:40:39:33,47.521,-0.068,0.040,-0.048,91.024,-137.519,-95.637
17:40:39:331,47.522,-0.041,0.044,-0.020,90.539,-134.413,-92.794
17:40:39:346,47.536,0.022,0.243,0.204,89.708,-129.947,-88.619
17:40:39:374,47.564,-0.026,0.293,0.146,88.895,-125.661,-84.727
17:40:39:399,47.589,-0.018,0.272,0.069,87.627,-117.832,-77.959
17:40:39:454,47.644,0.091,0.439,0.177,86.921,-112.817,-73.888
17:40:39:455,47.645,-0.001,0.364,0.166,86.689,-108.195,-71.133
17:40:39:478,47.668,-0.042,0.132,0.123,87.083,-108.488,-72.769
17:40:39:504,47.694,0.021,0.004,0.165,88.264,-113.601,-79.788
17:40:39:53,47.720,0.101,-0.082,0.245,89.886,-121.309,-89.344
17:40:39:585,47.776,0.076,-0.116,0.228,91.010,-126.645,-95.880
17:40:39:586,47.777,-0.013,-0.173,0.121,92.482,-134.615,-105.803
17:40:39:667,47.858,-0.051,-0.254,0.073,93.291,-140.003,-112.533
17:40:39:668,47.859,-0.064,-0.279,0.085,94.197,-145.949,-120.376
17:40:39:668,47.859,-0.084,-0.348,0.037,94.723,-147.944,-123.981
17:40:39:746,47.936,-0.089,-0.381,0.027,94.872,-146.452,-123.484
17:40:39:747,47.937,-0.115,-0.402,0.031,94.787,-141.319,-119.255
17:40:39:748,47.938,-0.127,-0.425,0.005,94.526,-136.670,-114.829
17:40:39:766,47.956,-0.070,-0.451,-0.038,93.793,-129.110,-106.876
17:40:39:821,48.012,-0.048,-0.454,-0.079,92.520,-122.219,-98.856
17:40:39:822,48.013,-0.023,-0.465,-0.095,91.278,-118.516,-93.796
17:40:39:847,48.038,0.021,-0.469,-0.186,88.586,-114.465,-86.816
17:40:39:872,48.063,0.234,-0.240,-0.176,86.048,-112.992,-82.754
17:40:39:927,48.118,0.355,-0.101,-0.073,81.140,-112.695,-77.877
17:40:39:927,48.118,0.425,-0.125,0.021,74.930,-113.321,-73.340
17:40:39:95,48.140,0.448,-0.222,-0.033,69.872,-113.736,-69.582
17:40:40:037,48.227,0.552,-0.275,-0.122,60.939,-114.839,-63.032
17:40:40:038,48.228,0.608,-0.089,-0.089,54.368,-116.209,-58.322
17:40:40:039,48.229,0.645,0.029,-0.156,44.778,-118.545,-50.278
17:40:40:04,48.230,0.695,0.241,-0.145,36.146,-121.983,-41.804
17:40:40:082,48.272,0.739,0.519,-0.113,30.829,-125.528,-36.360
17:40:40:162,48.352,0.504,0.949,-0.047,23.524,-132.788,-28.792
17:40:40:191,48.382,0.207,1.006,-0.095,19.569,-138.233,-24.143
17:40:40:192,48.383,0.089,0.623,-0.124,16.153,-146.014,-18.380
17:40:40:193,48.384,-0.034,0.423,0.091,14.681,-152.093,-13.834
17:40:40:318,48.508,-0.121,0.351,0.205,14.312,-154.536,-11.130
17:40:40:371,48.561,-0.153,0.193,0.368,14.169,-155.203,-7.273
17:40:40:506,48.696,-0.169,0.121,0.449,14.010,-154.517,-4.840
17:40:40:507,48.697,-0.214,0.076,0.429,13.455,-153.465,-1.438
17:40:40:607,48.798,-0.300,0.030,0.352,12.755,-153.348,1.904
17:40:40:633,48.824,-0.371,0.011,0.268,12.403,-153.910,4.148
17:40:40:668,48.859,-0.431,-0.047,0.218,12.492,-156.407,7.266
17:40:40:669,48.860,-0.500,-0.094,0.238,13.166,-159.363,9.026
17:40:40:67,48.861,-0.571,-0.144,0.190,14.825,-164.968,11.177
17:40:40:671,48.862,-0.667,-0.278,0.140,16.903,-170.816,12.770
17:40:40:694,48.884,-0.784,-0.328,0.078,18.244,-174.431,13.598
17:40:40:695,48.885,-0.866,-0.374,0.012,19.516,-177.621,14.888
17:40:40:696,48.886,-0.764,-0.301,0.076,19.567,-177.703,15.789
17:40:40:696,48.886,-0.738,-0.224,0.094,18.372,-175.924,16.674
17:40:40:713,48.903,-0.714,-0.100,0.101,16.961,-174.089,16.688
17:40:40:739,48.929,-0.695,-0.046,0.146,14.423,-170.754,15.848
17:40:40:773,48.963,-0.673,-0.006,0.187,11.849,-167.088,14.079
17:40:40:774,48.964,-0.630,0.021,0.219,10.298,-164.444,12.401
17:40:40:775,48.965,-0.518,0.117,0.182,8.363,-160.099,9.091
17:40:40:775,48.965,-0.366,0.109,0.171,7.476,-156.923,6.268
17:40:40:826,49.016,-0.300,0.142,0.179,6.871,-151.992,1.318
17:40:40:827,49.017,-0.163,0.224,0.219,7.225,-146.731,-4.019
17:40:40:827,49.017,-0.069,0.287,0.225,8.101,-143.216,-7.494
17:40:40:828,49.018,0.074,0.375,0.275,10.365,-138.444,-12.164
17:40:40:877,49.067,0.168,0.374,0.282,12.408,-135.685,-14.732
17:40:40:877,49.067,0.316,0.273,0.241,16.036,-132.361,-17.853
17:40:40:877,49.067,0.417,0.172,0.198,19.936,-130.172,-20.470
17:40:40:924,49.114,0.473,0.100,0.198,22.495,-129.467,-22.111
17:40:40:925,49.115,0.519,-0.011,0.184,26.128,-129.200,-24.585
17:40:40:974,49.165,0.548,-0.131,0.182,28.350,-129.416,-26.316
17:40:41:002,49.193,0.561,-0.200,0.171,31.309,-130.209,-29.162
17:40:41:003,49.194,0.557,-0.282,0.156,33.699,-131.237,-32.159
17:40:41:026,49.217,0.558,-0.319,0.140,34.957,-131.954,-34.150
17:40:41:052,49.243,0.559,-0.319,0.130,36.257,-133.042,-36.904
17:40:41:138,49.328,0.576,-0.256,0.120,36.730,-133.725,-38.534
17:40:41:139,49.329,0.544,-0.289,0.057,36.907,-134.493,-40.450
17:40:41:139,49.329,0.483,-0.273,-0.034,36.338,-135.057,-41.845
17:40:41:158,49.348,0.517,-0.130,-0.036,35.542,-135.408,-42.486
17:40:41:184,49.374,0.459,-0.060,-0.085,33.934,-135.387,-42.441
17:40:41:298,49.488,0.355,0.042,-0.141,32.665,-134.886,-41.718
17:40:41:299,49.489,0.379,-0.071,-0.230,30.940,-133.753,-39.898
17:40:41:3,49.490,0.374,0.016,-0.271,28.625,-132.991,-37.810
17:40:41:301,49.491,0.249,0.060,-0.299,26.524,-132.842,-36.284
17:40:41:316,49.507,0.210,0.023,-0.269,23.753,-132.495,-33.786
17:40:41:341,49.532,0.187,0.066,-0.164,22.046,-132.023,-31.830
17:40:41:367,49.558,0.136,0.116,-0.149,19.503,-130.677,-28.293
17:40:41:424,49.615,0.108,0.089,-0.180,17.977,-129.258,-25.568
17:40:41:425,49.616,0.064,0.096,-0.112,15.853,-127.097,-21.175
17:40:41:446,49.637,-0.080,0.127,-0.012,13.425,-125.819,-16.492
17:40:41:474,49.664,-0.172,0.151,0.023,11.797,-125.220,-13.252
17:40:41:552,49.742,-0.304,0.096,0.007,9.601,-124.163,-8.396
17:40:41:613,49.803,-0.253,0.044,0.013,8.513,-123.476,-5.314
17:40:41:614,49.804,-0.391,0.065,0.123,7.086,-122.670,-0.727
17:40:41:615,49.805,-0.560,-0.040,0.169,6.210,-124.154,3.858
17:40:41:616,49.806,-0.545,-0.086,0.186,6.027,-125.517,6.626
17:40:41:66,49.850,-0.635,-0.117,0.273,6.068,-126.567,10.030
17:40:41:66,49.850,-0.576,-0.087,0.311,6.094,-127.101,11.749
17:40:41:711,49.902,-0.520,-0.128,0.356,6.082,-126.238,13.517
17:40:41:712,49.903,-0.516,-0.132,0.406,6.025,-125.410,14.369
17:40:41:735,49.926,-0.525,-0.071,0.459,5.923,-123.655,14.483
17:40:41:761,49.952,-0.470,-0.016,0.502,5.612,-121.367,14.032
17:40:41:815,50.006,-0.414,0.036,0.493,5.264,-118.414,13.281
17:40:41:841,50.031,-0.339,0.233,0.466,4.768,-114.628,11.367
17:40:41:869,50.059,-0.208,0.184,0.362,4.710,-109.914,8.618
17:40:41:87,50.060,-0.144,0.085,0.288,4.943,-107.701,6.468
17:40:41:892,50.082,-0.101,0.017,0.247,5.680,-104.261,2.752
17:40:42:007,50.197,-0.027,0.051,0.223,6.413,-103.074,-0.117
17:40:42:008,50.198,0.038,0.094,0.180,7.783,-101.857,-4.940
17:40:42:008,50.198,0.128,0.204,0.176,9.361,-100.815,-9.869
17:40:42:009,50.199,0.199,0.274,0.135,10.584,-99.997,-13.033
17:40:42:024,50.214,0.284,0.260,0.015,12.772,-98.701,-17.442
17:40:42:13,50.320,0.332,0.164,-0.077,14.414,-98.021,-20.160
17:40:42:157,50.347,0.328,0.029,-0.129,16.885,-97.622,-24.005
17:40:42:218,50.408,0.320,-0.105,-0.153,19.041,-98.084,-27.819
17:40:42:218,50.408,0.317,-0.149,-0.173,20.212,-98.664,-30.362
17:40:42:219,50.409,0.331,-0.200,-0.176,21.612,-99.603,-34.032
17:40:42:22,50.410,0.325,-0.236,-0.136,22.301,-100.113,-36.268
17:40:42:238,50.428,0.317,-0.287,-0.081,23.046,-100.408,-38.976
17:40:42:238,50.428,0.299,-0.209,-0.106,23.665,-100.046,-40.620
17:40:42:259,50.450,0.310,-0.196,-0.166,24.068,-99.536,-41.208
17:40:42:289,50.480,0.263,-0.287,-0.163,24.494,-98.738,-41.433
17:40:42:312,50.503,0.208,-0.312,-0.134,24.502,-98.244,-41.216
17:40:42:445,50.635,0.198,-0.157,-0.201,23.447,-97.263,-39.828
17:40:42:55,50.740,0.178,-0.096,-0.211,22.198,-96.852,-38.518
17:40:42:584,50.775,0.126,-0.017,-0.260,20.614,-96.332,-36.807
17:40:42:585,50.776,0.127,0.065,-0.284,19.554,-95.967,-35.521
17:40:42:586,50.777,0.146,0.247,-0.305,17.835,-95.584,-33.360
17:40:42:587,50.778,0.067,0.300,-0.261,16.560,-95.368,-31.668
17:40:42:978,51.169,-0.084,0.259,-0.176,14.578,-94.948,-28.631
17:40:42:978,51.169,-0.181,0.156,-0.156,12.937,-94.479,-25.468
17:40:42:979,51.170,-0.188,0.132,-0.119,12.135,-94.524,-23.459
17:40:42:996,51.187,-0.239,0.126,-0.078,10.395,-95.799,-18.607
17:40:43:03,51.221,-0.137,0.125,-0.090,9.976,-96.505,-16.041
17:40:43:031,51.222,-0.197,0.011,0.006,9.876,-98.115,-13.989
17:40:43:032,51.223,-0.176,0.025,-0.061,10.016,-99.663,-12.979
17:40:43:033,51.224,-0.125,-0.068,0.209,10.480,-103.947,-12.156
17:40:43:049,51.240,-0.066,-0.047,0.168,10.897,-106.742,-11.613
17:40:43:078,51.268,-0.053,-0.053,0.181,11.724,-110.087,-10.580
17:40:43:079,51.269,-0.048,-0.091,0.273,12.737,-112.935,-9.374
17:40:43:111,51.301,-0.046,-0.105,0.288,13.454,-114.154,-8.422
17:40:43:111,51.301,-0.043,-0.133,0.247,14.463,-115.168,-6.897
17:40:43:112,51.302,-0.051,-0.158,0.244,15.038,-115.529,-5.888
17:40:43:112,51.302,-0.047,-0.175,0.269,15.713,-115.919,-4.419
17:40:43:139,51.329,-0.009,-0.146,0.230,16.023,-116.142,-3.706
17:40:43:139,51.329,0.011,-0.107,0.254,16.201,-116.400,-3.070
17:40:43:139,51.329,-0.052,0.002,0.371,16.246,-117.071,-2.297
17:40:43:139,51.329,-0.059,0.045,0.391,16.138,-117.230,-1.766
17:40:43:155,51.345,-0.060,0.046,0.384,15.729,-116.909,-1.006
17:40:43:242,51.432,-0.058,0.096,0.392,14.998,-116.264,-0.476
17:40:43:242,51.432,-0.077,0.110,0.400,14.335,-115.728,-0.298
17:40:43:243,51.433,-0.102,0.092,0.434,13.135,-114.643,-0.280
17:40:43:244,51.434,-0.132,0.049,0.459,12.193,-113.495,-0.429
17:40:43:267,51.457,-0.112,-0.013,0.438,10.591,-110.264,-0.931
17:40:43:268,51.458,-0.076,0.000,0.389,9.476,-107.240,-1.540
17:40:43:269,51.459,-0.030,0.029,0.349,7.981,-101.636,-3.074
17:40:43:269,51.459,-0.011,0.115,0.267,6.961,-95.333,-5.390
17:40:43:285,51.475,0.036,0.178,0.163,6.710,-91.018,-7.305
17:40:43:342,51.533,0.072,0.197,0.087,7.039,-84.868,-10.521
17:40:43:342,51.533,0.087,0.164,-0.024,7.646,-81.246,-12.747
17:40:43:47,51.660,0.097,0.046,-0.109,10.683,-73.822,-19.323
17:40:43:521,51.711,0.122,0.006,-0.113,11.926,-72.418,-21.412
17:40:43:556,51.746,0.155,-0.017,-0.143,13.974,-70.879,-24.355
17:40:43:556,51.746,0.191,-0.033,-0.198,15.449,-70.057,-26.112
17:40:43:557,51.747,0.206,-0.045,-0.246,17.841,-68.981,-28.386
17:40:43:558,51.748,0.222,-0.092,-0.313,20.298,-68.171,-30.256
17:40:43:608,51.798,0.219,-0.125,-0.341,21.834,-67.895,-31.337
17:40:43:609,51.799,0.227,-0.184,-0.366,23.759,-68.045,-32.848
17:40:43:61,51.800,0.229,-0.193,-0.361,24.701,-68.482,-33.805
17:40:43:611,51.801,0.250,-0.170,-0.375,25.552,-69.448,-35.067
17:40:43:683,51.874,0.219,-0.115,-0.400,25.819,-70.503,-36.001
17:40:43:683,51.874,0.177,-0.173,-0.438,25.623,-71.264,-36.452
17:40:43:684,51.875,0.104,-0.113,-0.351,24.354,-72.654,-36.606
17:40:43:704,51.895,0.082,0.042,-0.271,23.067,-73.361,-36.159
