Time,Second,AccelerationX,AccelerationY,AccelerationZ,EulerAnglesX,EulerAnglesY,EulerAnglesZ
20:23:45:517,0.000,0.034,0.038,0.002,3.176,12.318,-1.979
20:23:45:569,0.053,0.039,0.035,0.010,3.327,12.236,-1.719
20:23:45:597,0.081,0.032,0.034,0.006,3.556,12.121,-1.238
20:23:45:598,0.082,0.045,0.057,-0.001,3.711,12.039,-0.874
20:23:45:621,0.105,0.063,0.062,-0.018,3.930,11.891,-0.243
20:23:45:677,0.160,0.094,0.099,-0.039,4.060,11.765,0.229
20:23:45:677,0.160,0.129,0.136,-0.051,4.274,11.581,1.442
20:23:45:7,0.183,0.156,0.162,-0.077,4.503,11.303,3.033
20:23:45:726,0.209,0.156,0.178,-0.139,4.653,10.998,4.284
20:23:45:783,0.266,0.120,0.115,-0.165,4.949,10.473,6.375
20:23:45:783,0.266,0.027,0.062,-0.175,5.127,10.133,7.852
20:23:45:805,0.289,0.072,-0.065,-0.167,5.394,9.085,9.880
20:23:45:859,0.343,0.288,-0.338,-0.150,5.843,7.836,11.181
20:23:45:86,0.344,0.176,-0.338,-0.088,6.151,6.566,11.383
20:23:45:883,0.366,0.504,-0.342,-0.079,6.251,5.142,10.642
20:23:45:912,0.395,0.397,-0.316,-0.050,6.033,4.447,9.839
20:23:45:994,0.478,0.405,-0.266,-0.044,5.249,4.040,8.096
20:23:45:995,0.479,0.360,-0.169,-0.036,4.084,3.998,5.713
20:23:45:996,0.479,0.327,-0.103,-0.010,3.206,4.240,3.781
20:23:46:043,0.527,0.255,0.021,0.006,1.918,4.895,0.432
20:23:46:044,0.527,0.166,0.082,0.013,1.153,5.525,-2.002
20:23:46:097,0.581,0.056,0.125,0.030,0.208,6.595,-5.848
20:23:46:098,0.581,-0.040,0.132,0.041,-0.322,7.333,-8.473
20:23:46:12,0.603,-0.255,0.129,0.064,-1.001,8.491,-12.424
20:23:46:148,0.631,-0.298,0.137,0.103,-1.543,9.614,-16.373
20:23:46:173,0.656,-0.388,0.087,0.045,-1.845,10.347,-18.824
20:23:46:198,0.681,-0.559,-0.052,0.088,-2.259,11.463,-22.099
20:23:46:224,0.708,-0.776,-0.140,0.135,-2.716,11.868,-23.847
20:23:46:251,0.734,-0.982,-0.220,0.229,-3.840,11.637,-25.623
20:23:46:279,0.762,-0.641,0.659,0.267,-5.271,10.407,-25.803
20:23:46:305,0.788,-0.046,-0.253,0.342,-5.190,9.667,-24.465
20:23:46:329,0.813,0.502,0.148,0.116,-4.667,10.125,-21.887
20:23:46:355,0.839,0.863,0.236,0.214,-4.207,11.163,-20.583
20:23:46:384,0.868,-0.224,0.063,0.316,-3.942,13.220,-18.504
20:23:46:438,0.921,-0.126,0.039,0.093,-4.043,14.055,-17.315
20:23:46:438,0.921,-0.171,0.119,-0.113,-4.783,14.086,-15.689
20:23:46:461,0.945,-0.031,-0.055,0.165,-5.062,14.985,-14.584
20:23:46:487,0.971,-0.097,0.013,0.103,-5.230,15.777,-13.954
20:23:46:513,0.996,-0.131,-0.024,0.082,-5.496,16.911,-13.064
20:23:46:539,1.023,-0.102,-0.022,0.063,-5.729,17.257,-12.540
20:23:46:567,1.050,0.031,-0.019,0.003,-6.094,17.440,-11.818
20:23:46:592,1.075,0.001,0.025,0.021,-6.506,17.592,-11.221
20:23:46:618,1.101,-0.017,0.049,0.011,-6.769,17.732,-10.947
20:23:46:644,1.128,-0.102,0.042,-0.002,-7.019,17.908,-10.555
20:23:46:671,1.154,-0.027,0.022,-0.005,-7.125,17.842,-10.265
20:23:46:697,1.180,0.004,0.013,0.018,-7.218,17.631,-9.859
20:23:46:723,1.206,0.008,0.013,-0.042,-7.234,17.464,-9.554
20:23:46:749,1.233,-0.049,0.026,0.014,-7.154,17.226,-9.011
20:23:46:776,1.259,-0.011,0.003,0.040,-6.996,16.891,-8.502
20:23:46:831,1.315,-0.008,-0.002,0.029,-6.883,16.654,-8.155
20:23:46:832,1.315,0.001,0.017,0.001,-6.728,16.156,-7.578
20:23:46:854,1.338,0.000,0.010,0.035,-6.608,15.896,-7.136
20:23:46:882,1.365,-0.031,0.009,0.013,-6.459,15.659,-6.472
20:23:46:907,1.390,0.005,0.016,0.028,-6.311,15.402,-5.808
20:23:46:933,1.416,-0.001,0.008,0.025,-6.197,15.181,-5.320
20:23:46:959,1.443,0.009,0.023,0.022,-6.018,14.981,-4.525
20:23:46:987,1.471,0.004,0.000,-0.015,-5.920,14.838,-3.928
20:23:47:012,1.496,0.045,-0.011,0.026,-5.779,14.590,-2.856
20:23:47:038,1.522,0.071,0.035,0.127,-5.655,14.325,-1.652
20:23:47:064,1.548,0.045,0.063,0.004,-5.552,14.342,-0.851
20:23:47:12,1.604,0.021,0.131,-0.117,-5.274,14.215,0.522
20:23:47:121,1.604,0.064,0.116,-0.054,-4.973,13.942,1.624
20:23:47:143,1.626,0.175,0.164,0.070,-4.463,13.356,3.521
20:23:47:171,1.655,0.214,0.195,0.014,-3.958,12.830,5.864
20:23:47:196,1.680,0.240,0.183,0.004,-3.630,12.480,7.773
20:23:47:282,1.766,0.343,0.218,-0.023,-3.085,11.996,11.152
20:23:47:282,1.766,0.418,0.263,-0.079,-2.665,11.703,13.681
20:23:47:283,1.766,0.628,0.345,-0.185,-2.004,10.649,17.837
20:23:47:301,1.784,0.582,0.238,-0.231,-1.454,9.319,20.950
20:23:47:327,1.810,0.606,0.295,-0.408,-0.402,7.397,26.299
20:23:47:415,1.898,0.611,0.035,-0.305,1.143,6.184,31.629
20:23:47:415,1.899,0.382,-0.203,-0.019,2.685,5.744,34.530
20:23:47:416,1.899,-0.668,-0.998,-0.098,6.231,4.679,37.617
20:23:47:416,1.900,0.744,-0.523,-0.329,7.746,2.338,37.914
20:23:47:432,1.915,0.492,-0.843,0.028,9.931,-0.350,35.751
20:23:47:458,1.941,0.411,-0.766,0.028,11.127,-2.893,32.614
20:23:47:513,1.997,0.358,-0.582,-0.021,11.060,-4.459,30.016
20:23:47:514,1.997,0.395,-0.415,0.074,10.148,-6.539,25.105
20:23:47:537,2.020,0.446,-0.306,0.069,9.119,-7.673,21.407
20:23:47:622,2.105,0.364,-0.105,0.069,6.974,-8.591,15.620
20:23:47:623,2.106,0.316,0.002,0.061,5.311,-8.448,11.666
20:23:47:624,2.107,0.226,0.143,0.022,2.559,-7.037,5.489
20:23:47:642,2.125,0.109,0.347,-0.008,-0.213,-4.395,-1.198
20:23:47:669,2.152,-0.019,0.550,-0.088,-1.834,-2.067,-5.983
20:23:47:694,2.178,-0.541,0.783,-0.078,-3.677,1.953,-13.550
20:23:47:721,2.204,-0.959,0.635,-0.134,-4.417,4.652,-18.679
20:23:47:747,2.230,-1.804,-0.118,-0.250,-5.298,8.326,-25.943
20:23:47:775,2.258,-1.710,-0.453,1.038,-8.692,7.580,-30.721
20:23:47:8,2.283,-0.562,0.641,-0.178,-11.561,5.707,-30.591
20:23:47:825,2.309,-1.141,-0.591,0.648,-9.481,6.268,-27.819
20:23:47:883,2.366,-0.393,0.145,0.864,-8.265,7.957,-25.672
20:23:47:883,2.367,0.451,0.189,0.159,-5.688,12.290,-22.570
20:23:47:905,2.388,-0.559,0.013,0.499,-4.867,17.362,-18.996
20:23:47:931,2.414,-0.787,-0.020,0.318,-5.366,18.513,-16.922
20:23:47:957,2.440,0.027,0.065,0.064,-6.364,18.944,-14.969
20:23:47:983,2.467,-0.090,0.030,0.029,-6.369,19.442,-14.112
20:23:48:009,2.493,-0.146,-0.016,-0.021,-6.429,20.398,-12.641
20:23:48:036,2.519,-0.099,0.018,0.260,-6.456,20.919,-11.877
20:23:48:063,2.547,-0.070,0.034,0.052,-6.832,21.125,-10.982
20:23:48:088,2.571,-0.007,-0.005,-0.093,-7.179,20.494,-10.562
20:23:48:115,2.598,-0.075,0.009,0.032,-7.270,20.373,-10.319
20:23:48:14,2.624,-0.047,0.002,0.067,-7.380,20.197,-9.976
20:23:48:167,2.650,-0.013,-0.008,0.051,-7.477,19.972,-9.766
20:23:48:193,2.677,-0.007,-0.001,0.028,-7.674,19.740,-9.532
20:23:48:219,2.703,0.026,0.014,-0.035,-7.818,19.451,-9.210
20:23:48:245,2.729,0.024,0.023,-0.022,-7.820,19.228,-8.916
20:23:48:274,2.758,0.007,0.024,0.026,-7.629,18.923,-8.294
20:23:48:299,2.783,-0.006,0.010,0.062,-7.454,18.724,-7.793
20:23:48:352,2.835,-0.020,0.009,0.038,-7.208,18.503,-6.979
20:23:48:382,2.865,-0.001,0.012,0.028,-7.042,18.341,-6.426
20:23:48:382,2.865,-0.018,0.025,0.025,-6.788,18.084,-5.513
20:23:48:403,2.887,-0.002,0.047,0.027,-6.576,17.884,-4.401
20:23:48:429,2.913,0.022,0.008,0.046,-6.461,17.581,-3.494
20:23:48:456,2.939,0.147,0.088,0.092,-6.304,17.188,-1.998
20:23:48:482,2.965,0.138,0.076,0.136,-6.176,16.918,-0.934
20:23:48:508,2.991,0.056,0.178,-0.101,-6.015,16.943,0.781
20:23:48:535,3.018,0.128,0.234,-0.095,-5.593,16.916,2.771
20:23:48:56,3.044,0.255,0.239,-0.098,-5.161,16.642,4.384
20:23:48:587,3.070,0.268,0.247,-0.147,-4.483,16.484,7.368
20:23:48:613,3.096,0.290,0.256,-0.115,-4.030,16.516,9.829
20:23:48:639,3.122,0.698,0.395,-0.108,-3.339,15.963,14.295
20:23:48:695,3.178,0.757,0.381,-0.248,-2.958,15.417,17.603
20:23:48:695,3.179,0.478,0.290,-0.325,-2.267,13.893,23.087
20:23:48:776,3.260,0.640,0.109,-0.297,-1.110,12.361,28.962
20:23:48:777,3.260,0.496,-0.264,-0.179,0.283,11.613,32.572
20:23:48:778,3.261,0.256,-0.360,-0.065,3.222,10.663,36.639
20:23:48:797,3.280,0.712,-0.293,-0.311,6.131,9.478,38.133
20:23:48:823,3.306,0.560,-0.977,-0.061,8.245,6.708,36.966
20:23:48:849,3.333,0.539,-0.826,-0.134,9.574,5.436,34.215
20:23:48:877,3.361,0.288,-0.642,-0.180,9.802,5.081,31.937
20:23:48:904,3.388,0.237,-0.416,-0.171,9.398,5.057,27.645
20:23:48:929,3.413,0.288,-0.299,-0.232,8.758,5.257,24.260
20:23:48:956,3.439,0.274,-0.134,-0.224,7.411,6.170,18.707
20:23:49:01,3.493,0.248,-0.090,-0.280,5.843,8.111,12.991
20:23:49:011,3.494,0.206,0.004,-0.301,4.502,10.298,9.099
20:23:49:064,3.547,0.052,0.228,-0.325,2.268,15.035,2.849
20:23:49:064,3.548,-0.110,0.368,-0.334,0.884,18.964,-1.691
20:23:49:086,3.569,-0.716,0.605,-0.206,-0.697,25.105,-8.929
20:23:49:112,3.595,-1.122,0.606,-0.077,-1.454,30.416,-16.132
20:23:49:138,3.621,-1.315,0.339,0.050,-1.631,33.458,-20.483
20:23:49:168,3.651,-1.662,-0.458,0.687,-2.695,37.166,-26.164
20:23:49:191,3.674,-1.688,-0.242,1.858,-4.439,38.381,-28.949
20:23:49:218,3.701,-0.928,0.290,0.738,-6.453,39.064,-28.754
20:23:49:243,3.727,0.915,0.204,0.338,-2.852,43.322,-25.005
20:23:49:269,3.753,0.070,-0.094,0.567,-1.295,47.617,-22.683
20:23:49:295,3.779,-0.267,-0.036,0.665,-0.685,53.601,-19.212
20:23:49:322,3.805,-0.369,0.026,0.642,-1.467,55.171,-17.195
20:23:49:348,3.831,0.161,0.049,0.067,-2.834,55.718,-15.347
20:23:49:374,3.858,-0.038,0.115,0.004,-2.964,55.787,-14.566
20:23:49:401,3.884,-0.040,0.043,0.120,-3.224,55.994,-13.495
20:23:49:427,3.910,-0.011,0.045,0.031,-3.515,55.999,-12.609
20:23:49:453,3.936,-0.067,0.036,0.031,-3.750,55.926,-12.036
20:23:49:48,3.964,-0.037,0.014,0.033,-3.940,55.758,-11.293
20:23:49:506,3.990,-0.025,0.028,-0.025,-4.015,55.585,-10.796
20:23:49:533,4.016,-0.035,0.010,0.001,-4.030,55.536,-10.044
20:23:49:558,4.042,0.005,0.022,0.040,-3.954,55.614,-9.207
20:23:49:585,4.069,0.010,0.009,0.049,-3.889,55.680,-8.614
20:23:49:611,4.095,-0.030,0.026,0.051,-3.798,55.744,-7.665
20:23:49:638,4.121,-0.020,0.014,0.037,-3.695,55.756,-7.062
20:23:49:664,4.147,0.003,0.044,0.037,-3.534,55.837,-6.096
20:23:49:69,4.173,-0.002,0.005,0.049,-3.418,55.970,-5.066
20:23:49:716,4.199,0.001,0.009,0.050,-3.337,56.046,-4.380
20:23:49:746,4.229,-0.004,0.017,0.041,-3.218,56.783,-3.354
20:23:49:746,4.229,-0.025,0.028,0.044,-3.121,56.848,-2.692
20:23:49:768,4.251,0.004,0.016,0.021,-2.938,57.753,-1.702
20:23:49:796,4.280,0.054,0.039,0.006,-2.787,57.776,-1.005
20:23:49:852,4.335,0.068,0.069,-0.005,-2.543,58.451,0.196
20:23:49:852,4.335,0.113,0.098,-0.054,-2.286,58.991,1.693
20:23:49:902,4.386,-0.093,0.143,-0.179,-2.073,59.220,2.861
20:23:49:903,4.386,-0.062,0.215,-0.207,-1.513,59.813,4.948
20:23:49:925,4.409,0.143,0.253,-0.243,-0.883,59.721,6.679
20:23:49:952,4.435,0.198,0.240,-0.307,0.278,60.024,9.797
20:23:49:978,4.462,0.268,0.334,-0.619,1.423,59.891,13.468
20:23:50:035,4.518,0.222,0.303,-0.732,2.228,59.953,16.299
20:23:50:035,4.518,-0.013,0.333,-0.606,3.569,59.627,21.420
20:23:50:058,4.541,0.072,0.246,-0.742,4.556,59.571,25.210
20:23:50:084,4.567,0.195,-0.193,-0.740,6.612,59.810,30.981
20:23:50:111,4.595,0.239,-0.246,-0.579,8.461,60.239,34.423
20:23:50:138,4.621,-0.129,-0.211,-0.321,12.113,61.399,38.470
20:23:50:164,4.647,0.044,-0.769,-0.557,13.210,61.844,37.565
20:23:50:19,4.673,0.072,-0.859,-0.436,13.808,61.741,35.729
20:23:50:216,4.700,-0.058,-0.671,-0.328,14.096,61.707,32.446
20:23:50:241,4.724,-0.058,-0.455,-0.281,13.744,61.810,29.878
20:23:50:267,4.751,0.006,-0.377,-0.342,12.626,62.087,24.947
20:23:50:294,4.778,-0.022,-0.245,-0.422,10.962,62.898,19.178
20:23:50:319,4.803,-0.018,-0.151,-0.440,9.608,63.997,15.142
20:23:50:346,4.829,-0.142,-0.003,-0.358,7.267,67.034,9.071
20:23:50:373,4.857,-0.209,0.266,-0.338,5.571,69.927,4.761
20:23:50:399,4.882,-0.297,0.526,-0.249,3.224,75.287,-2.190
20:23:50:424,4.908,-0.525,0.760,0.158,2.088,79.647,-6.975
20:23:50:451,4.934,-0.737,0.829,0.808,1.025,86.630,-14.160
20:23:50:477,4.960,-0.384,0.372,1.408,0.956,92.350,-21.059
20:23:50:503,4.986,-0.771,-0.646,2.433,0.443,94.340,-25.230
20:23:50:53,5.013,0.411,-0.212,1.670,-2.504,92.513,-29.392
20:23:50:556,5.039,-0.256,0.123,0.873,-4.488,90.306,-29.244
20:23:50:582,5.066,0.912,-0.026,0.095,-2.945,90.893,-26.161
20:23:50:61,5.094,0.068,-0.140,0.241,-0.591,95.286,-22.629
20:23:50:634,5.118,0.034,0.218,0.424,-0.025,99.730,-20.100
20:23:50:662,5.146,0.273,0.103,1.396,-0.632,104.030,-16.702
20:23:50:688,5.172,0.102,0.005,-0.269,-1.856,104.225,-15.102
20:23:50:714,5.198,-0.142,-0.042,0.423,-2.219,104.546,-14.187
20:23:50:739,5.223,0.053,0.060,0.098,-2.622,104.474,-13.155
20:23:50:766,5.249,0.033,-0.051,-0.010,-2.804,104.439,-12.611
20:23:50:792,5.275,-0.054,0.059,0.023,-3.209,104.436,-11.773
20:23:50:82,5.303,-0.051,0.027,0.047,-3.413,104.382,-11.239
20:23:50:845,5.328,-0.037,0.042,0.016,-3.691,104.246,-10.417
20:23:50:87,5.354,-0.067,0.022,0.039,-3.894,104.259,-9.892
20:23:50:897,5.380,-0.014,0.029,0.060,-3.924,104.410,-9.141
20:23:50:953,5.436,0.010,0.011,0.032,-3.870,104.438,-8.415
20:23:50:953,5.437,0.003,0.001,0.033,-3.839,104.348,-7.928
20:23:50:976,5.459,-0.004,0.001,0.041,-3.817,104.191,-7.171
20:23:51:003,5.486,-0.010,0.007,0.029,-3.839,104.044,-6.603
20:23:51:028,5.512,0.006,0.010,0.039,-3.869,103.840,-5.755
20:23:51:054,5.538,0.017,0.006,0.031,-3.941,103.720,-4.852
20:23:51:08,5.564,0.029,0.021,0.024,-3.987,103.667,-4.274
20:23:51:107,5.590,-0.011,0.009,0.040,-4.063,103.640,-3.387
20:23:51:134,5.617,-0.024,0.026,0.041,-4.105,103.604,-2.811
20:23:51:161,5.644,0.001,0.010,0.019,-4.127,103.486,-1.962
20:23:51:186,5.669,-0.008,0.036,-0.024,-4.127,103.606,-1.356
20:23:51:212,5.695,0.010,0.039,-0.062,-4.106,103.424,-0.377
20:23:51:238,5.722,0.033,0.067,-0.038,-4.034,103.486,0.768
20:23:51:264,5.748,-0.200,0.118,-0.009,-3.950,103.506,1.615
20:23:51:291,5.774,-0.117,0.145,-0.058,-3.636,103.648,3.107
20:23:51:317,5.800,-0.021,0.141,-0.124,-3.281,103.390,4.352
20:23:51:402,5.885,0.033,0.149,-0.210,-2.693,103.271,6.667
20:23:51:402,5.885,-0.044,0.189,-0.214,-2.349,103.064,8.525
20:23:51:403,5.886,-0.139,0.196,-0.281,-1.763,103.257,11.686
20:23:51:422,5.905,-0.152,0.314,-0.452,-1.025,102.682,15.317
20:23:51:449,5.933,-0.362,0.367,-0.713,-0.460,101.753,17.981
20:23:51:475,5.958,-0.382,0.373,-0.526,0.540,100.008,22.922
20:23:51:501,5.984,-0.315,0.177,-0.645,1.934,98.691,28.458
20:23:51:527,6.010,-0.249,-0.168,-0.590,3.425,98.239,31.934
20:23:51:583,6.066,-0.066,-0.334,-0.247,6.424,97.858,36.288
20:23:51:583,6.066,-0.185,-0.553,0.098,8.653,96.749,37.393
20:23:51:606,6.090,-0.137,-0.875,-0.482,10.085,94.534,35.713
20:23:51:632,6.116,-0.101,-0.839,-0.529,10.776,93.436,33.793
20:23:51:69,6.174,-0.117,-0.667,-0.337,10.799,92.262,30.372
20:23:51:69,6.174,-0.064,-0.452,-0.315,9.778,91.341,25.874
20:23:51:741,6.224,-0.049,-0.392,-0.360,8.756,90.885,22.252
20:23:51:741,6.225,-0.052,-0.225,-0.418,6.764,90.670,16.184
20:23:51:763,6.246,-0.085,-0.046,-0.337,5.215,91.080,11.934
20:23:51:818,6.302,-0.092,0.091,-0.208,2.664,92.765,5.273
20:23:51:819,6.303,-0.110,0.386,-0.145,0.041,95.492,-2.015
20:23:51:844,6.327,-0.103,0.537,0.063,-1.642,97.770,-7.158
20:23:51:868,6.352,-0.041,0.813,0.711,-3.991,101.093,-15.096
20:23:51:896,6.380,0.075,0.663,1.267,-5.173,103.160,-20.260
20:23:51:921,6.405,0.204,0.031,1.607,-6.431,105.999,-27.537
20:23:51:979,6.462,1.481,-0.300,3.070,-9.928,105.494,-31.986
20:23:51:979,6.463,0.018,0.224,0.688,-11.338,104.099,-31.334
20:23:51:98,6.464,0.572,-0.414,1.049,-9.040,104.798,-27.864
20:23:52:026,6.509,1.044,0.808,-0.900,-7.427,106.449,-25.355
20:23:52:055,6.539,0.162,0.096,0.799,-4.541,111.522,-21.833
20:23:52:078,6.561,0.498,0.026,0.463,-4.054,114.459,-19.550
20:23:52:108,6.591,0.227,0.188,0.205,-5.500,115.231,-17.026
20:23:52:109,6.592,-0.137,-0.136,0.329,-5.763,116.190,-16.159
20:23:52:159,6.643,0.065,0.008,0.180,-5.905,116.635,-15.432
20:23:52:16,6.644,0.012,-0.017,0.067,-6.100,116.655,-14.407
20:23:52:185,6.669,0.027,0.045,0.062,-6.316,116.481,-13.729
20:23:52:238,6.722,-0.060,0.015,0.028,-6.599,116.253,-12.856
20:23:52:239,6.723,0.010,0.006,0.069,-6.615,116.035,-12.127
20:23:52:262,6.746,0.040,0.065,0.065,-6.571,115.852,-11.660
20:23:52:288,6.771,0.045,0.053,0.121,-6.389,115.807,-10.916
20:23:52:316,6.799,-0.004,0.011,0.060,-6.186,115.725,-10.508
20:23:52:341,6.824,0.049,-0.014,0.072,-5.922,115.568,-9.834
20:23:52:367,6.850,0.045,-0.005,0.073,-5.832,114.623,-9.383
20:23:52:393,6.876,0.035,-0.015,0.056,-5.738,114.331,-8.710
20:23:52:449,6.932,0.008,-0.006,0.067,-5.678,113.295,-7.920
20:23:52:449,6.933,0.017,0.017,0.063,-5.662,113.158,-7.336
20:23:52:473,6.956,0.026,0.059,0.034,-5.626,112.042,-6.547
20:23:52:499,6.983,-0.012,0.000,0.030,-5.591,111.919,-6.002
20:23:52:525,7.009,-0.023,0.039,0.023,-5.519,111.078,-5.088
20:23:52:551,7.034,0.007,0.049,0.015,-5.374,110.817,-4.119
20:23:52:603,7.087,0.029,0.052,-0.027,-5.011,109.438,-2.240
20:23:52:63,7.113,0.020,0.042,-0.049,-4.831,108.374,-1.360
20:23:52:656,7.139,0.103,0.084,-0.050,-4.523,108.159,0.117
20:23:52:683,7.167,-0.205,0.165,0.000,-4.259,107.445,1.197
20:23:52:738,7.222,-0.140,0.188,-0.055,-3.709,107.258,3.113
20:23:52:739,7.222,-0.017,0.174,-0.191,-2.997,106.215,5.591
20:23:52:76,7.244,0.019,0.173,-0.244,-2.557,105.999,7.595
20:23:52:787,7.270,-0.145,0.272,-0.293,-1.902,105.144,11.101
20:23:52:842,7.326,-0.149,0.240,-0.359,-1.347,104.597,13.700
20:23:52:843,7.327,-0.433,0.417,-0.681,-0.539,102.522,18.053
20:23:52:867,7.351,-0.479,0.454,-0.533,0.447,100.569,23.375
20:23:52:893,7.377,-0.306,0.157,-0.609,1.404,99.642,27.011
20:23:52:947,7.431,-0.182,-0.186,-0.417,3.665,98.210,31.999
20:23:52:948,7.431,-0.129,-0.809,0.824,5.916,97.229,34.349
20:23:52:971,7.454,-0.441,-0.467,-0.923,8.523,94.245,35.043
20:23:52:998,7.481,0.058,-0.922,-0.363,10.568,92.443,33.285
20:23:53:053,7.536,-0.116,-0.764,-0.349,10.849,91.768,31.700
20:23:53:053,7.537,-0.059,-0.556,-0.292,10.262,91.286,28.203
20:23:53:075,7.559,-0.044,-0.448,-0.373,9.616,90.703,25.205
20:23:53:103,7.587,0.138,-0.351,-0.323,8.473,89.645,20.114
20:23:53:159,7.642,-0.012,-0.204,-0.367,7.250,89.238,16.368
20:23:53:159,7.642,-0.001,-0.068,-0.339,4.997,89.341,10.429
20:23:53:181,7.664,0.064,0.095,-0.255,2.262,90.657,4.023
20:23:53:237,7.721,0.124,0.273,-0.142,0.343,92.237,-0.581
20:23:53:237,7.721,0.061,0.570,-0.014,-2.425,95.500,-8.006
20:23:53:259,7.743,-0.022,0.752,0.504,-3.957,98.239,-13.151
20:23:53:285,7.769,0.252,0.659,1.165,-5.337,102.326,-20.677
20:23:53:312,7.795,0.049,0.146,1.678,-5.370,105.393,-27.188
20:23:53:338,7.821,0.576,-0.804,2.530,-5.788,106.124,-30.215
20:23:53:365,7.848,0.645,0.014,1.463,-8.460,104.440,-31.421
20:23:53:391,7.875,0.124,0.036,0.116,-8.080,103.825,-29.516
20:23:53:417,7.900,0.171,0.376,-0.808,-6.415,105.148,-25.635
20:23:53:443,7.926,0.282,-0.053,0.582,-5.392,107.185,-23.481
20:23:53:469,7.953,0.279,0.001,0.443,-4.470,110.346,-20.316
20:23:53:525,8.008,0.221,-0.066,-0.067,-4.467,111.496,-17.231
20:23:53:526,8.009,0.443,0.565,0.589,-5.507,112.106,-15.237
20:23:53:55,8.033,0.113,-0.153,0.173,-5.452,112.977,-13.890
20:23:53:575,8.058,-0.052,-0.008,0.231,-5.526,113.436,-13.259
20:23:53:659,8.142,-0.025,0.022,0.141,-5.724,113.773,-12.429
20:23:53:659,8.143,0.151,0.080,0.162,-5.863,113.934,-11.819
20:23:53:66,8.144,0.030,0.007,0.046,-5.984,113.982,-11.679
20:23:53:681,8.164,-0.012,0.020,0.049,-6.231,114.041,-11.403
20:23:53:706,8.189,0.019,0.015,0.076,-6.378,114.006,-11.165
20:23:53:732,8.216,0.034,0.014,0.035,-6.604,113.782,-10.760
20:23:53:758,8.242,-0.008,0.009,0.062,-6.847,113.520,-10.304
20:23:53:784,8.268,0.017,0.009,0.056,-7.045,113.255,-9.884
20:23:53:813,8.297,0.011,0.006,0.036,-7.313,112.801,-9.259
20:23:53:838,8.322,0.030,0.008,0.029,-7.453,112.499,-8.768
20:23:53:864,8.348,0.020,0.017,0.025,-7.605,112.027,-7.981
20:23:53:92,8.404,-0.023,0.043,0.028,-7.711,112.559,-7.124
20:23:53:92,8.404,0.032,-0.004,0.072,-7.772,112.384,-6.486
20:23:53:942,8.425,0.060,-0.014,0.033,-7.869,112.539,-5.500
20:23:53:968,8.452,0.069,0.007,0.035,-7.940,112.361,-4.860
20:23:53:997,8.480,-0.003,0.045,0.015,-8.042,112.627,-3.898
20:23:54:022,8.506,0.001,0.033,0.014,-8.094,112.426,-3.204
20:23:54:047,8.531,0.006,0.063,0.005,-8.120,112.577,-2.064
20:23:54:074,8.558,-0.002,0.096,-0.033,-8.042,112.194,-0.730
20:23:54:102,8.585,-0.020,0.115,-0.051,-7.929,112.562,0.297
20:23:54:184,8.667,-0.047,0.164,-0.081,-7.690,112.172,2.139
20:23:54:185,8.668,-0.021,0.171,-0.131,-7.481,112.311,3.626
20:23:54:185,8.669,0.025,0.159,-0.176,-7.125,111.717,6.374
20:23:54:204,8.688,-0.018,0.268,-0.226,-6.836,111.215,9.730
20:23:54:231,8.714,-0.054,0.281,-0.379,-6.590,110.314,12.261
20:23:54:257,8.740,-0.226,0.351,-0.763,-6.176,108.236,16.479
20:23:54:316,8.799,-0.343,0.348,-0.583,-5.694,106.262,19.847
20:23:54:316,8.799,-0.354,0.387,-0.393,-5.040,103.898,25.483
20:23:54:317,8.800,-0.402,0.175,-0.661,-4.567,102.835,29.294
20:23:54:368,8.851,-0.206,-0.110,-0.372,-3.100,101.533,34.127
20:23:54:368,8.851,-0.082,-0.697,0.781,0.548,99.419,36.984
20:23:54:447,8.930,-0.352,-0.567,-0.953,2.237,96.677,36.581
20:23:54:447,8.930,0.089,-0.872,-0.467,5.790,93.895,34.387
20:23:54:448,8.931,-0.016,-0.742,-0.370,7.341,91.963,32.445
20:23:54:467,8.950,0.020,-0.561,-0.382,8.048,89.501,28.641
20:23:54:493,8.977,0.132,-0.411,-0.436,7.184,88.028,23.757
20:23:54:519,9.003,0.149,-0.316,-0.418,5.930,87.655,20.174
20:23:54:546,9.030,0.094,-0.117,-0.320,3.489,88.009,14.379
20:23:54:602,9.086,0.083,-0.049,-0.297,1.827,88.854,10.273
20:23:54:603,9.086,0.055,0.073,-0.201,-0.493,90.930,3.677
20:23:54:624,9.108,0.009,0.362,-0.069,-1.887,92.824,-1.095
20:23:54:651,9.134,-0.080,0.594,0.318,-3.690,96.367,-8.701
20:23:54:677,9.160,0.034,0.666,0.974,-4.950,100.496,-16.458
20:23:54:734,9.217,0.378,0.395,1.587,-5.331,103.209,-21.385
20:23:54:734,9.217,-0.104,-0.125,1.645,-5.622,106.394,-28.101
20:23:54:756,9.239,0.764,-0.990,2.681,-5.930,107.841,-31.506
20:23:54:782,9.265,0.612,0.590,1.330,-8.666,106.987,-33.345
20:23:54:81,9.293,0.020,0.003,-0.077,-7.990,106.696,-30.201
20:23:54:836,9.319,0.190,0.941,-1.657,-6.138,108.728,-27.833
20:23:54:892,9.375,0.754,0.237,0.573,-4.438,112.804,-24.614
20:23:54:893,9.376,0.421,-0.010,0.380,-4.023,115.429,-22.477
20:23:54:914,9.397,-0.104,-0.061,0.147,-4.725,116.229,-19.732
20:23:54:939,9.423,0.305,0.196,0.436,-6.053,116.856,-17.390
20:23:54:996,9.480,0.142,-0.128,0.032,-5.989,117.331,-16.466
20:23:54:997,9.480,0.033,0.002,0.123,-6.203,117.462,-15.177
20:23:55:018,9.502,0.099,-0.015,0.066,-6.333,117.308,-14.440
20:23:55:044,9.527,-0.028,0.012,0.080,-6.521,117.425,-13.566
20:23:55:101,9.585,0.091,0.036,0.077,-6.645,117.415,-13.058
20:23:55:101,9.585,0.004,0.013,0.015,-6.765,117.213,-12.363
20:23:55:123,9.607,0.041,0.017,0.053,-6.743,117.275,-11.712
20:23:55:18,9.663,0.025,0.042,0.111,-6.702,117.280,-11.298
20:23:55:18,9.663,0.073,-0.011,0.077,-6.498,117.059,-10.771
20:23:55:202,9.685,0.068,-0.014,0.073,-6.384,116.910,-10.432
20:23:55:229,9.712,0.058,-0.011,0.065,-6.305,116.638,-9.953
20:23:55:256,9.739,0.068,-0.019,0.071,-6.208,116.373,-9.300
20:23:55:281,9.765,0.078,-0.018,0.080,-6.243,115.795,-9.089
20:23:55:307,9.790,0.040,-0.002,0.047,-6.341,115.562,-8.778
20:23:55:333,9.817,0.030,0.020,0.021,-6.431,115.003,-8.644
20:23:55:359,9.843,-0.042,0.042,-0.026,-6.423,114.614,-8.255
20:23:55:385,9.869,-0.022,0.035,-0.026,-6.258,113.905,-7.802
20:23:55:413,9.897,0.003,0.058,-0.014,-5.971,113.489,-6.766
20:23:55:44,9.923,0.016,0.031,-0.010,-5.704,112.901,-5.244
20:23:55:496,9.980,0.069,0.080,-0.040,-5.524,112.677,-4.096
20:23:55:496,9.980,-0.019,0.139,-0.029,-5.198,112.208,-2.306
20:23:55:517,10.000,-0.061,0.159,-0.008,-4.850,112.072,-1.025
20:23:55:543,10.026,-0.071,0.197,-0.098,-4.184,111.368,1.144
20:23:55:598,10.082,0.049,0.206,-0.195,-3.514,110.899,3.778
20:23:55:599,10.083,0.052,0.190,-0.240,-3.127,110.370,5.894
20:23:55:651,10.134,-0.126,0.384,-0.399,-2.564,109.874,9.511
20:23:55:652,10.135,-0.333,0.333,-0.681,-2.083,109.455,12.220
20:23:55:674,10.158,-0.325,0.338,-0.469,-1.502,108.539,16.931
20:23:55:701,10.184,-0.506,0.363,-0.426,-0.950,107.610,20.528
20:23:55:727,10.211,-0.370,0.163,-0.584,0.271,106.529,26.170
20:23:55:753,10.236,-0.074,-0.230,-0.284,2.239,106.593,31.284
20:23:55:779,10.263,-0.033,-0.572,0.002,3.764,106.826,33.774
20:23:55:805,10.289,-0.439,-0.389,-0.444,6.290,106.038,35.608
20:23:55:861,10.345,-0.235,-0.891,-0.499,6.993,105.195,34.665
20:23:55:864,10.348,-0.165,-0.754,-0.293,8.101,104.856,32.196
20:23:55:886,10.369,-0.226,-0.630,-0.301,8.281,104.530,28.580
20:23:55:911,10.395,-0.232,-0.500,-0.319,7.891,104.500,25.566
20:23:55:995,10.479,-0.189,-0.336,-0.341,6.848,104.880,20.309
20:23:55:996,10.479,-0.202,-0.176,-0.348,5.886,105.425,16.363
20:23:55:996,10.480,-0.251,-0.030,-0.275,4.176,106.939,10.061
20:23:56:016,10.499,-0.249,0.187,-0.141,2.919,108.455,5.582
20:23:56:072,10.556,-0.184,0.382,0.038,0.962,111.248,-1.596
20:23:56:072,10.556,0.020,0.664,0.436,-0.981,113.942,-9.317
20:23:56:095,10.578,0.164,0.766,0.677,-2.135,115.538,-14.547
20:23:56:12,10.604,0.338,0.569,1.092,-3.027,118.419,-22.016
20:23:56:149,10.632,0.824,-0.206,1.421,-3.059,122.683,-28.432
20:23:56:174,10.657,1.991,-0.789,1.886,-3.571,125.123,-31.469
20:23:56:201,10.684,0.344,0.038,1.141,-4.495,127.489,-31.708
20:23:56:228,10.712,0.519,-0.030,0.691,-3.346,129.483,-29.375
20:23:56:254,10.737,0.283,0.369,-0.772,-1.096,132.698,-25.535
20:23:56:279,10.763,0.275,-0.041,0.453,0.548,135.145,-23.381
20:23:56:305,10.789,0.421,-0.032,0.269,1.010,139.728,-19.746
20:23:56:331,10.814,0.789,0.053,0.259,0.287,142.216,-16.958
20:23:56:384,10.867,-0.021,-0.165,0.028,-0.373,142.673,-16.069
20:23:56:444,10.927,-0.134,0.059,0.159,-0.831,142.460,-15.240
20:23:56:444,10.928,-0.090,-0.018,0.078,-0.922,142.438,-14.723
20:23:56:445,10.928,0.197,-0.044,0.025,-0.902,143.025,-13.856
20:23:56:491,10.974,0.065,0.047,0.015,-1.228,143.190,-12.933
20:23:56:492,10.975,-0.078,0.035,0.082,-1.469,143.075,-12.412
20:23:56:516,10.999,-0.036,0.005,0.092,-1.547,143.385,-11.578
20:23:56:541,11.025,0.222,0.113,0.177,-1.507,143.772,-10.959
20:23:56:567,11.050,0.091,0.009,0.046,-1.223,143.974,-10.408
20:23:56:593,11.077,0.051,-0.006,0.066,-1.135,144.011,-10.112
20:23:56:622,11.106,0.061,-0.009,0.072,-1.092,144.035,-9.744
20:23:56:623,11.106,0.079,-0.010,0.029,-1.084,143.997,-9.314
20:23:56:673,11.156,0.034,0.003,0.042,-1.123,143.941,-9.003
20:23:56:73,11.214,0.039,0.004,0.029,-1.203,144.285,-8.673
20:23:56:731,11.215,0.013,0.012,0.041,-1.239,144.239,-8.441
20:23:56:732,11.215,0.003,0.016,0.047,-1.272,144.519,-8.096
20:23:56:75,11.234,-0.035,0.029,0.016,-1.152,144.443,-7.674
20:23:56:777,11.261,-0.050,0.046,0.009,-0.990,144.581,-7.287
20:23:56:833,11.316,-0.008,0.057,0.023,-0.612,144.523,-6.437
20:23:56:833,11.317,-0.035,0.048,0.007,-0.313,144.898,-5.683
20:23:56:885,11.369,0.009,0.035,-0.061,0.176,144.914,-4.224
20:23:56:886,11.369,-0.056,0.158,0.097,0.521,145.476,-3.088
20:23:56:938,11.422,-0.131,0.220,0.065,1.238,145.566,-1.302
20:23:56:938,11.422,-0.129,0.288,-0.057,2.267,145.772,0.830
20:23:56:992,11.476,-0.219,0.310,-0.125,3.020,145.646,2.618
20:23:56:992,11.476,-0.394,0.340,-0.103,4.037,145.843,5.974
20:23:57:043,11.526,-0.545,0.392,-0.126,4.762,145.961,8.644
20:23:57:043,11.527,-0.565,0.334,-0.075,6.083,146.416,13.284
20:23:57:066,11.549,-0.606,0.234,-0.146,7.373,146.290,18.324
20:23:57:123,11.607,-0.757,0.200,0.029,8.527,146.234,21.968
20:23:57:123,11.607,-0.409,-0.352,0.020,10.834,146.644,27.203
20:23:57:145,11.628,0.425,-0.903,0.534,12.747,147.545,30.026
20:23:57:172,11.655,-0.592,-0.319,0.099,15.028,148.121,32.774
20:23:57:226,11.709,-0.565,-0.768,-0.150,15.094,148.815,31.452
20:23:57:227,11.711,-0.396,-0.755,-0.070,14.998,149.211,30.226
20:23:57:252,11.735,-0.352,-0.513,0.124,14.063,149.965,27.668
20:23:57:277,11.761,-0.326,-0.492,0.017,13.192,150.406,25.232
20:23:57:33,11.813,-0.405,-0.403,-0.089,11.786,151.320,20.610
20:23:57:414,11.897,-0.381,-0.230,0.005,10.681,151.821,17.178
20:23:57:415,11.898,-0.360,-0.121,0.037,8.870,152.973,11.557
20:23:57:415,11.899,-0.311,0.082,0.049,6.824,154.910,5.315
20:23:57:437,11.921,-0.285,0.290,0.083,5.332,156.722,0.875
20:23:57:438,11.921,-0.017,0.514,0.211,3.197,160.228,-6.066
20:23:57:46,11.944,0.469,0.704,0.438,1.942,162.741,-10.888
20:23:57:516,11.999,0.818,0.639,0.578,0.460,165.993,-18.321
20:23:57:516,11.999,1.296,0.051,0.639,-0.223,169.278,-25.234
20:23:57:538,12.022,2.595,-0.520,-0.097,-0.891,171.504,-29.093
20:23:57:565,12.048,1.292,-0.064,0.332,-3.201,172.400,-31.722
20:23:57:593,12.076,1.211,-0.249,0.420,-2.726,173.440,-29.978
20:23:57:617,12.101,-0.047,0.343,-0.770,-0.426,176.266,-25.982
20:23:57:672,12.156,0.474,-0.153,0.163,1.086,179.042,-23.266
20:23:57:673,12.156,0.466,0.091,-0.059,2.255,-175.892,-19.203
20:23:57:696,12.179,1.095,-0.120,-0.168,1.746,-172.676,-15.855
20:23:57:722,12.206,-0.133,0.117,-0.267,0.944,-172.353,-14.801
20:23:57:748,12.232,0.274,0.012,0.344,0.575,-172.047,-13.879
20:23:57:777,12.261,0.106,-0.028,0.075,0.530,-171.780,-13.293
20:23:57:802,12.286,0.167,0.012,-0.125,0.353,-171.314,-12.481
20:23:57:827,12.311,0.083,0.039,-0.039,-0.185,-171.546,-11.947
20:23:57:854,12.337,0.075,-0.009,0.083,-0.582,-171.805,-11.704
20:23:57:909,12.393,0.025,0.022,0.141,-1.017,-171.971,-11.356
20:23:57:91,12.393,0.115,0.054,0.045,-1.126,-171.941,-11.123
20:23:57:96,12.444,0.059,0.010,0.025,-1.210,-171.902,-10.922
20:23:57:986,12.470,0.070,-0.003,0.056,-1.289,-171.838,-10.805
20:23:58:012,12.495,0.075,-0.012,0.022,-1.495,-171.826,-10.509
20:23:58:1,12.584,0.030,-0.001,0.049,-1.822,-171.948,-10.166
20:23:58:1,12.584,0.026,0.005,0.039,-1.910,-172.045,-10.010
20:23:58:1,12.584,-0.007,0.021,0.083,-1.948,-172.270,-9.665
20:23:58:101,12.584,0.024,0.015,0.049,-1.869,-172.431,-9.326
20:23:58:116,12.599,0.038,0.002,0.065,-1.633,-172.350,-8.731
20:23:58:142,12.626,0.039,0.005,0.037,-1.339,-172.456,-8.092
20:23:58:168,12.652,0.039,0.011,0.035,-1.170,-172.594,-7.660
20:23:58:226,12.709,0.027,0.018,0.061,-1.015,-172.735,-6.930
20:23:58:226,12.710,-0.019,0.034,0.049,-0.966,-172.914,-6.377
20:23:58:247,12.731,-0.022,0.034,0.048,-0.732,-172.929,-5.347
20:23:58:275,12.758,-0.018,0.051,0.036,-0.409,-173.077,-4.047
20:23:58:3,12.784,-0.010,0.074,0.184,-0.063,-172.639,-2.956
20:23:58:386,12.869,-0.048,0.194,0.043,0.601,-172.985,-1.104
20:23:58:386,12.870,-0.104,0.212,-0.001,1.151,-173.172,0.256
20:23:58:386,12.870,-0.128,0.215,0.026,1.965,-173.537,2.582
20:23:58:406,12.890,-0.202,0.194,0.038,2.465,-173.496,4.450
20:23:58:431,12.915,-0.360,0.279,0.162,3.151,-173.828,7.758
20:23:58:515,12.999,-0.474,0.288,0.118,4.085,-174.153,11.713
20:23:58:516,12.999,-0.507,0.322,0.219,4.802,-174.507,14.664
20:23:58:517,13.000,-0.427,0.201,0.287,5.631,-174.981,19.439
20:23:58:538,13.021,-0.573,0.058,0.313,6.863,-175.121,24.588
20:23:58:564,13.047,-0.468,0.013,0.168,7.955,-174.573,27.912
20:23:58:619,13.103,-0.264,-0.220,0.107,10.195,-174.306,31.475
20:23:58:619,13.103,-0.231,-0.470,0.390,12.118,-174.719,33.335
20:23:58:641,13.124,-0.591,-0.749,0.193,12.647,-175.214,32.829
20:23:58:667,13.151,-0.398,-0.705,0.044,13.544,-175.177,31.175
20:23:58:722,13.206,-0.233,-0.667,0.188,13.632,-175.568,29.388
20:23:58:723,13.207,-0.318,-0.534,0.205,13.161,-176.001,25.465
20:23:58:747,13.230,-0.373,-0.485,0.119,12.628,-176.556,22.166
20:23:58:798,13.282,-0.373,-0.269,0.198,11.345,-177.269,16.603
20:23:58:828,13.311,-0.336,-0.070,0.176,9.562,-177.386,10.550
20:23:58:828,13.311,-0.285,0.048,0.188,8.071,-176.871,6.301
20:23:58:851,13.334,-0.216,0.316,0.191,5.566,-175.094,-0.326
20:23:58:877,13.360,0.043,0.555,0.202,3.923,-173.207,-4.823
20:23:58:905,13.388,0.335,0.645,0.176,1.737,-169.749,-11.762
20:23:58:931,13.414,0.913,0.591,-0.012,0.359,-166.096,-18.790
20:23:58:959,13.442,1.019,0.358,0.016,-0.144,-163.796,-23.463
20:23:58:982,13.465,1.942,-0.335,-0.702,-1.406,-161.180,-29.590
20:23:59:011,13.494,1.855,-0.113,-1.173,-3.243,-161.381,-31.883
20:23:59:064,13.547,0.971,-0.021,-0.026,-4.409,-161.664,-30.752
20:23:59:064,13.548,0.727,-0.276,-0.657,-3.017,-160.672,-28.628
20:23:59:116,13.600,-1.288,0.596,-0.454,-1.383,-158.245,-24.838
20:23:59:117,13.600,0.358,-0.281,-0.036,0.666,-153.516,-20.831
20:23:59:169,13.653,0.303,-0.075,-0.461,1.046,-150.429,-17.974
20:23:59:17,13.653,0.662,0.332,-0.865,-0.281,-148.828,-14.486
20:23:59:192,13.676,-0.072,-0.155,0.416,-0.859,-148.782,-13.396
20:23:59:218,13.702,0.255,0.005,-0.096,-1.225,-148.411,-12.393
20:23:59:276,13.760,0.176,0.024,0.040,-1.381,-147.918,-11.407
20:23:59:277,13.761,0.045,0.000,-0.064,-1.472,-147.618,-10.873
20:23:59:278,13.761,0.072,0.027,-0.068,-1.882,-147.775,-10.241
20:23:59:326,13.809,0.080,0.010,0.132,-2.178,-147.998,-10.000
20:23:59:327,13.810,0.056,0.042,0.130,-2.443,-148.022,-9.714
20:23:59:378,13.862,0.057,0.009,0.008,-2.479,-147.969,-9.531
20:23:59:379,13.862,0.038,0.005,-0.002,-2.558,-148.014,-9.361
20:23:59:402,13.885,0.060,-0.007,0.037,-2.684,-148.040,-9.091
20:23:59:455,13.939,0.056,0.006,0.028,-2.776,-148.120,-8.883
20:23:59:486,13.969,0.041,-0.001,0.029,-2.978,-148.293,-8.491
20:23:59:486,13.969,0.022,0.005,0.029,-3.082,-148.427,-8.206
20:23:59:537,14.020,0.020,0.027,0.053,-3.166,-148.700,-7.706
20:23:59:537,14.021,0.039,0.010,0.028,-3.205,-148.937,-7.026
20:23:59:589,14.072,0.036,0.007,0.000,-3.067,-149.085,-6.519
20:23:59:589,14.072,0.026,0.026,0.032,-2.841,-149.338,-5.720
20:23:59:612,14.096,-0.013,0.049,0.037,-2.760,-149.550,-5.118
20:23:59:638,14.122,-0.028,0.061,0.018,-2.653,-149.961,-3.963
20:23:59:664,14.148,0.031,0.035,0.056,-2.476,-150.332,-2.439
20:23:59:691,14.174,-0.090,0.115,0.005,-2.349,-150.622,-1.342
20:23:59:776,14.259,-0.022,0.123,0.118,-2.101,-151.001,0.425
20:23:59:776,14.259,-0.003,0.157,0.172,-1.831,-151.202,1.716
20:23:59:777,14.260,-0.083,0.188,0.164,-1.244,-151.681,3.934
20:23:59:796,14.280,-0.250,0.260,0.087,-0.638,-152.399,6.731
20:23:59:822,14.306,-0.359,0.284,0.089,-0.256,-152.952,9.039
20:23:59:848,14.332,-0.583,0.498,0.278,0.282,-153.992,13.220
20:23:59:875,14.358,-0.679,0.265,0.329,0.936,-154.916,16.422
20:23:59:9,14.384,-0.410,0.274,0.431,1.850,-156.935,21.661
20:23:59:927,14.410,-0.415,0.313,0.554,2.588,-158.007,25.413
20:23:59:955,14.439,-0.455,-0.178,0.346,3.941,-158.492,30.673
20:24:00:009,14.492,0.042,-0.712,0.280,5.970,-158.456,34.532
20:24:00:009,14.493,0.318,-0.639,0.064,8.096,-159.375,35.826
20:24:00:033,14.517,-0.475,-0.866,0.205,9.971,-161.747,34.593
20:24:00:059,14.543,-0.386,-0.850,0.177,11.271,-163.458,32.901
20:24:00:084,14.568,-0.314,-0.730,0.186,12.369,-165.440,29.575
20:24:00:14,14.624,-0.315,-0.545,0.139,12.212,-166.844,25.192
20:24:00:141,14.624,-0.353,-0.468,0.149,11.535,-167.344,21.716
20:24:00:192,14.676,-0.323,-0.224,0.225,9.864,-167.469,15.921
20:24:00:193,14.677,-0.298,-0.086,0.257,8.506,-166.993,11.836
20:24:00:216,14.700,-0.199,0.131,0.242,6.243,-165.141,5.407
20:24:00:243,14.727,-0.118,0.331,0.243,4.720,-163.231,0.906
20:24:00:268,14.752,0.250,0.635,0.232,2.649,-159.494,-6.170
20:24:00:322,14.805,0.686,0.726,0.085,1.125,-155.405,-13.444
20:24:00:35,14.833,0.985,0.651,-0.087,0.530,-152.731,-18.079
20:24:00:351,14.834,1.440,-0.023,-0.514,0.158,-148.541,-24.267
20:24:00:374,14.857,2.139,-0.598,-1.598,-0.690,-146.809,-27.757
20:24:00:43,14.913,0.947,-0.104,-0.612,-3.040,-146.439,-29.593
20:24:00:43,14.914,0.973,-0.403,-0.805,-1.988,-144.740,-26.977
20:24:00:452,14.935,0.166,-0.046,-0.681,-0.637,-142.403,-24.549
20:24:00:507,14.991,-0.781,0.141,0.150,1.399,-137.420,-20.980
20:24:00:508,14.991,0.435,0.037,-0.133,2.035,-132.990,-18.407
20:24:00:531,15.014,0.707,-0.320,-0.638,2.092,-127.979,-14.599
20:24:00:644,15.128,0.034,0.106,0.388,0.512,-127.155,-12.269
20:24:00:645,15.129,0.114,-0.143,-0.227,0.351,-127.046,-11.672
20:24:00:646,15.129,0.122,-0.109,0.097,0.237,-126.903,-10.685
20:24:00:647,15.130,0.050,-0.052,-0.104,0.141,-126.635,-10.029
20:24:00:663,15.147,0.013,0.048,-0.092,-0.088,-126.341,-9.072
20:24:00:718,15.201,0.086,0.033,0.055,-0.401,-126.445,-8.589
20:24:00:718,15.201,0.097,0.036,0.070,-0.807,-126.561,-7.924
20:24:00:771,15.255,0.046,0.025,-0.013,-0.866,-126.264,-7.486
20:24:00:771,15.255,0.034,0.015,-0.032,-0.869,-126.154,-7.227
20:24:00:793,15.277,0.045,-0.004,-0.012,-0.920,-126.108,-6.796
20:24:00:819,15.303,0.052,0.009,0.022,-1.032,-126.123,-6.480
20:24:00:846,15.330,0.026,-0.003,0.015,-1.284,-126.299,-5.994
20:24:00:873,15.356,0.035,0.011,0.042,-1.477,-126.505,-5.499
20:24:00:899,15.383,0.028,0.013,0.061,-1.572,-126.633,-5.126
20:24:00:925,15.408,0.029,0.029,0.052,-1.575,-126.737,-4.407
20:24:00:952,15.435,0.044,0.020,-0.003,-1.584,-126.743,-3.857
20:24:01:008,15.491,0.032,-0.003,-0.004,-1.501,-127.589,-2.874
20:24:01:008,15.491,0.019,0.040,0.028,-1.417,-128.203,-1.848
20:24:01:059,15.542,-0.029,0.062,-0.001,-1.348,-128.293,-1.151
20:24:01:059,15.543,-0.049,0.022,-0.006,-1.282,-128.872,-0.020
20:24:01:141,15.624,0.015,0.053,0.075,-1.251,-128.940,0.785
20:24:01:141,15.625,-0.053,0.071,0.051,-1.129,-129.568,2.111
20:24:01:142,15.625,0.054,0.141,0.193,-1.004,-129.601,3.115
20:24:01:161,15.645,0.057,0.193,0.225,-0.611,-129.828,4.879
20:24:01:245,15.729,-0.149,0.236,0.204,0.078,-130.270,7.211
20:24:01:246,15.729,-0.226,0.257,0.244,0.613,-130.921,9.182
20:24:01:246,15.730,-0.370,0.455,0.441,1.484,-131.666,12.812
20:24:01:265,15.749,-0.507,0.397,0.583,2.296,-132.366,15.664
20:24:01:294,15.777,-0.352,0.282,0.623,3.419,-133.677,20.587
20:24:01:32,15.803,-0.195,0.274,0.761,4.548,-134.728,26.211
20:24:01:345,15.828,-0.297,0.026,0.729,5.513,-134.791,29.948
20:24:01:371,15.854,-0.064,-0.217,0.282,7.754,-134.543,34.770
20:24:01:397,15.880,0.084,-0.565,0.280,9.941,-134.437,36.976
20:24:01:423,15.907,-0.319,-0.605,0.669,11.698,-136.222,37.091
20:24:01:449,15.933,-0.293,-0.834,0.370,13.281,-137.280,35.069
20:24:01:476,15.959,-0.158,-0.751,0.308,13.786,-137.692,33.178
20:24:01:502,15.985,-0.156,-0.599,0.332,13.537,-138.312,29.326
20:24:01:53,16.013,-0.123,-0.433,0.309,12.936,-138.522,26.115
20:24:01:557,16.040,-0.114,-0.283,0.356,11.539,-138.551,20.614
20:24:01:583,16.067,-0.098,-0.118,0.343,10.371,-138.268,16.534
20:24:01:584,16.068,-0.088,0.014,0.405,8.412,-136.983,10.130
20:24:01:607,16.090,0.049,0.284,0.336,6.168,-134.130,3.504
20:24:01:634,16.117,0.160,0.438,0.277,4.684,-131.386,-1.097
20:24:01:66,16.143,0.647,0.699,-0.066,2.753,-126.200,-8.321
20:24:01:688,16.171,0.850,0.767,-0.350,1.899,-122.485,-13.228
20:24:01:743,16.226,1.051,0.396,-0.744,1.496,-116.701,-20.015
20:24:01:743,16.226,0.997,-0.400,-2.364,0.746,-112.016,-25.737
20:24:01:794,16.277,0.570,-0.049,-1.992,-1.096,-111.714,-28.150
20:24:01:795,16.278,0.705,0.015,-0.667,-3.022,-111.971,-27.126
20:24:01:819,16.302,-0.583,0.062,-0.602,-1.442,-110.288,-24.788
20:24:01:845,16.328,-1.064,0.293,0.931,0.406,-106.022,-20.853
20:24:01:871,16.355,0.176,0.148,-0.304,1.470,-101.515,-18.493
20:24:01:896,16.380,0.176,-0.258,-0.899,1.764,-94.716,-14.448
20:24:01:922,16.406,-0.030,0.254,-0.137,0.130,-92.376,-11.422
20:24:01:977,16.461,-0.204,0.026,0.272,-0.033,-92.118,-10.742
20:24:01:978,16.461,0.075,0.017,0.185,-0.131,-91.936,-9.679
20:24:02:002,16.486,0.056,-0.019,-0.037,-0.154,-91.642,-8.962
20:24:02:027,16.511,-0.091,0.000,-0.159,-0.327,-90.974,-7.904
20:24:02:053,16.537,0.055,0.040,0.001,-0.809,-90.936,-7.047
20:24:02:08,16.563,0.135,0.027,0.063,-1.108,-91.073,-6.587
20:24:02:106,16.590,0.069,0.011,0.006,-1.290,-90.901,-6.057
20:24:02:134,16.617,0.023,0.022,-0.009,-1.284,-90.796,-5.742
20:24:02:16,16.643,0.036,0.003,-0.006,-1.336,-90.774,-5.267
20:24:02:185,16.668,0.014,0.002,-0.006,-1.381,-90.776,-4.956
20:24:02:211,16.695,0.028,-0.002,0.006,-1.551,-90.879,-4.466
20:24:02:237,16.720,0.041,-0.002,0.019,-1.792,-91.035,-4.005
20:24:02:263,16.747,0.040,0.018,0.032,-1.957,-91.120,-3.719
20:24:02:29,16.774,0.042,0.027,0.058,-2.069,-91.232,-3.133
20:24:02:316,16.799,0.056,0.035,0.025,-2.117,-91.241,-2.648
20:24:02:342,16.826,-0.001,-0.016,-0.016,-2.078,-91.252,-1.638
20:24:02:368,16.852,0.026,0.010,0.038,-2.010,-91.322,-0.553
20:24:02:395,16.878,0.012,0.070,0.069,-1.934,-91.354,0.143
20:24:02:423,16.906,-0.021,0.052,0.031,-1.821,-91.499,1.323
20:24:02:449,16.932,-0.012,0.028,0.050,-1.762,-91.606,2.183
20:24:02:474,16.957,-0.034,0.030,0.051,-1.660,-91.753,3.471
20:24:02:529,17.012,0.125,0.087,0.136,-1.594,-91.849,4.447
20:24:02:529,17.013,0.237,0.148,0.146,-1.371,-91.910,6.090
20:24:02:553,17.036,0.079,0.194,0.240,-0.812,-92.198,8.201
20:24:02:607,17.091,-0.036,0.239,0.325,-0.314,-92.497,9.985
20:24:02:661,17.144,0.036,0.396,0.815,1.113,-93.546,15.965
20:24:02:661,17.144,0.096,0.364,0.813,2.258,-94.504,20.666
20:24:02:683,17.167,0.357,0.306,0.777,3.290,-95.658,26.113
20:24:02:739,17.223,0.219,0.159,0.863,4.116,-96.098,30.059
20:24:02:765,17.249,0.028,-0.269,0.489,5.933,-95.949,35.706
20:24:02:766,17.249,0.029,-0.451,0.043,7.743,-95.771,38.638
20:24:02:817,17.301,0.276,-0.419,0.952,9.859,-96.585,40.549
20:24:02:818,17.301,-0.095,-0.904,0.531,10.152,-97.056,39.645
20:24:02:929,17.413,-0.022,-0.801,0.268,10.319,-96.955,37.672
20:24:02:93,17.413,0.101,-0.682,0.388,9.355,-96.764,34.366
20:24:02:931,17.414,-0.039,-0.620,0.410,8.402,-96.631,31.270
20:24:02:931,17.415,0.028,-0.461,0.357,6.749,-96.091,25.859
20:24:02:946,17.429,0.015,-0.267,0.486,5.536,-95.598,21.711
20:24:02:972,17.456,0.051,-0.032,0.461,3.770,-94.374,14.664
20:24:02:998,17.482,0.110,0.282,0.420,2.006,-92.336,6.899
20:24:03:026,17.509,0.196,0.633,0.284,0.899,-90.305,1.404
20:24:03:08,17.563,0.453,0.997,-0.472,-0.500,-85.755,-6.888
20:24:03:081,17.564,-0.053,0.893,-1.244,-1.196,-82.164,-12.201
20:24:03:105,17.589,0.087,-0.312,-1.910,-1.678,-77.183,-18.614
20:24:03:131,17.614,-0.939,-0.338,-3.183,-1.752,-73.719,-23.113
20:24:03:156,17.639,-0.918,-0.283,-1.429,-2.568,-74.119,-23.913
20:24:03:182,17.665,0.877,0.727,0.945,-1.674,-73.381,-20.186
20:24:03:237,17.721,-0.344,-0.079,0.477,-0.900,-72.024,-17.840
20:24:03:238,17.721,-0.215,0.222,-0.803,-1.259,-69.703,-13.591
20:24:03:262,17.745,0.145,-0.053,-0.088,-2.111,-69.242,-11.735
20:24:03:289,17.772,0.016,-0.070,-0.279,-2.026,-68.639,-10.523
20:24:03:315,17.799,0.024,-0.026,-0.217,-2.012,-67.762,-9.464
20:24:03:339,17.823,0.004,-0.064,-0.100,-2.101,-67.509,-8.949
20:24:03:366,17.849,-0.105,0.018,-0.010,-2.393,-67.738,-8.274
20:24:03:393,17.877,0.085,0.039,-0.019,-2.723,-68.059,-7.883
20:24:03:419,17.903,0.117,0.036,0.003,-3.174,-68.572,-7.409
20:24:03:444,17.928,0.043,0.063,-0.036,-3.397,-68.942,-6.855
20:24:03:471,17.955,0.003,0.015,-0.009,-3.431,-69.086,-6.552
20:24:03:497,17.980,0.004,-0.010,-0.006,-3.455,-69.204,-6.140
20:24:03:523,18.007,0.009,0.007,-0.015,-3.521,-69.332,-5.907
20:24:03:579,18.063,0.038,-0.001,-0.008,-3.694,-69.615,-5.564
20:24:03:579,18.063,0.019,0.006,0.014,-3.818,-69.817,-5.352
20:24:03:602,18.085,0.020,0.018,0.029,-3.959,-70.200,-5.016
20:24:03:63,18.114,0.041,0.020,0.014,-4.076,-70.732,-4.613
20:24:03:655,18.138,0.050,0.009,0.016,-4.086,-70.974,-4.239
20:24:03:682,18.165,0.060,0.022,0.040,-4.036,-71.344,-3.575
20:24:03:707,18.190,0.021,-0.002,0.002,-4.024,-71.515,-3.081
20:24:03:734,18.217,0.033,0.037,0.019,-3.818,-71.758,-2.008
20:24:03:76,18.244,0.006,0.049,0.066,-3.571,-71.949,-0.886
20:24:03:788,18.272,0.028,0.066,0.102,-3.378,-72.100,-0.057
20:24:03:789,18.273,0.007,0.089,0.082,-3.036,-72.069,1.300
20:24:03:842,18.325,0.175,0.146,0.046,-2.762,-72.018,2.337
20:24:03:842,18.326,0.154,0.220,0.105,-2.189,-71.900,4.106
20:24:03:892,18.376,0.027,0.229,0.235,-1.391,-72.113,6.398
20:24:03:92,18.404,0.021,0.228,0.305,-0.831,-72.298,8.282
20:24:03:921,18.404,0.109,0.260,0.394,-0.094,-72.665,11.862
20:24:03:972,18.455,0.288,0.415,0.563,0.354,-72.956,14.585
20:24:03:973,18.456,0.428,0.317,0.789,1.163,-73.754,19.265
20:24:04:022,18.505,0.456,0.321,0.502,1.791,-74.770,22.948
20:24:04:051,18.535,0.558,0.222,0.669,3.100,-75.996,28.769
20:24:04:052,18.535,0.184,-0.239,0.363,5.556,-76.647,33.944
20:24:04:076,18.560,0.024,-0.567,-0.088,7.556,-76.841,36.346
20:24:04:105,18.588,0.443,-0.495,0.533,9.702,-78.616,37.088
20:24:04:127,18.610,0.137,-0.930,0.460,10.718,-79.463,36.021
20:24:04:242,18.725,0.151,-0.782,0.302,11.592,-80.491,33.797
20:24:04:242,18.725,0.185,-0.593,0.173,11.422,-81.453,30.369
20:24:04:242,18.726,0.105,-0.476,0.153,11.106,-82.364,27.283
20:24:04:243,18.727,0.129,-0.338,0.332,10.196,-83.963,21.901
20:24:04:258,18.742,0.156,-0.188,0.317,9.192,-84.613,18.189
20:24:04:315,18.798,0.101,-0.047,0.256,7.245,-84.308,12.626
20:24:04:315,18.798,0.125,0.042,0.149,5.521,-83.148,8.913
20:24:04:338,18.821,0.131,0.120,0.100,2.527,-80.196,3.124
20:24:04:364,18.848,0.138,0.342,-0.098,-0.433,-76.231,-3.200
20:24:04:39,18.873,0.070,0.477,-0.304,-2.132,-73.475,-7.782
20:24:04:416,18.899,-0.063,0.646,-0.710,-4.082,-69.657,-14.949
20:24:04:445,18.928,-0.224,1.088,-1.043,-4.991,-67.429,-19.557
20:24:04:47,18.954,-0.751,-0.496,-1.507,-6.279,-65.151,-25.215
20:24:04:495,18.979,-1.788,-0.123,-2.118,-8.712,-66.048,-27.502
20:24:04:521,19.004,-0.498,0.242,-0.461,-8.564,-66.865,-25.782
20:24:04:547,19.030,-0.587,0.268,0.445,-5.849,-64.455,-21.484
20:24:04:603,19.087,-0.441,0.044,-0.362,-4.601,-61.416,-19.197
20:24:04:604,19.087,-0.488,0.045,-0.683,-5.270,-58.071,-15.770
20:24:04:628,19.111,0.152,0.117,-0.018,-5.997,-57.441,-14.150
20:24:04:654,19.138,0.033,-0.110,-0.414,-5.997,-55.981,-13.026
20:24:04:679,19.163,-0.098,-0.023,-0.084,-6.085,-55.461,-11.831
20:24:04:705,19.188,-0.045,-0.005,-0.034,-6.204,-55.456,-11.117
20:24:04:731,19.214,-0.019,0.008,-0.104,-6.519,-55.381,-10.191
20:24:04:787,19.270,0.017,0.068,-0.050,-6.729,-55.434,-9.669
20:24:04:787,19.271,-0.024,0.007,0.019,-6.913,-55.758,-9.109
20:24:04:838,19.322,-0.006,0.047,-0.037,-6.993,-56.049,-8.768
20:24:04:839,19.322,0.044,0.011,-0.055,-6.976,-56.223,-8.520
20:24:04:893,19.376,-0.026,0.000,-0.027,-6.902,-56.645,-8.079
20:24:04:893,19.376,-0.012,-0.002,-0.019,-6.872,-56.922,-7.787
20:24:04:915,19.398,-0.004,-0.001,-0.026,-6.843,-57.292,-7.325
20:24:04:941,19.424,-0.002,0.009,-0.026,-6.805,-57.697,-6.783
20:24:04:996,19.479,-0.003,0.006,-0.036,-6.740,-58.525,-6.370
20:24:04:997,19.480,-0.009,0.009,-0.001,-6.595,-58.963,-5.742
20:24:05:02,19.503,-0.002,0.007,-0.002,-6.465,-59.769,-5.305
20:24:05:045,19.529,0.040,0.043,-0.010,-6.236,-60.090,-4.550
20:24:05:072,19.555,0.021,0.037,0.007,-6.050,-60.772,-3.883
20:24:05:101,19.584,0.032,0.024,0.040,-5.785,-61.284,-2.607
20:24:05:126,19.609,0.014,0.046,0.058,-5.525,-62.312,-1.088
20:24:05:18,19.663,-0.051,0.084,0.129,-5.342,-62.625,0.051
20:24:05:181,19.664,0.062,0.145,0.050,-5.007,-62.986,1.900
20:24:05:203,19.687,0.126,0.182,0.031,-4.702,-63.149,3.264
20:24:05:229,19.713,0.100,0.246,0.165,-4.154,-63.968,5.599
20:24:05:285,19.768,0.022,0.244,0.291,-3.628,-64.664,8.528
20:24:05:286,19.770,0.036,0.260,0.382,-3.308,-65.571,10.895
20:24:05:31,19.794,0.256,0.502,0.647,-2.870,-67.022,15.054
20:24:05:364,19.847,0.345,0.391,0.628,-2.479,-68.739,18.247
20:24:05:364,19.848,0.480,0.279,0.500,-1.483,-71.663,23.654
20:24:05:388,19.872,0.545,0.265,0.517,-0.815,-72.971,27.512
20:24:05:474,19.957,0.137,-0.136,0.427,0.688,-73.894,32.450
20:24:05:474,19.957,0.167,-0.778,-0.373,3.267,-75.309,35.927
20:24:05:474,19.958,0.271,-0.571,0.034,5.347,-77.230,36.758
20:24:05:492,19.976,0.148,-0.899,0.514,7.605,-80.483,35.133
20:24:05:52,20.003,0.059,-0.855,0.430,9.046,-82.068,33.416
20:24:05:574,20.057,0.079,-0.724,0.312,10.096,-84.635,30.015
20:24:05:575,20.058,0.067,-0.552,0.366,9.618,-86.538,25.550
20:24:05:597,20.080,0.050,-0.451,0.395,8.663,-87.262,22.124
20:24:05:654,20.138,0.044,-0.232,0.348,6.596,-87.679,16.459
20:24:05:654,20.138,0.111,-0.035,0.339,4.888,-87.450,12.449
20:24:05:676,20.160,0.065,0.118,0.255,2.076,-86.099,6.036
20:24:05:731,20.215,0.056,0.409,0.170,0.203,-84.622,1.436
20:24:05:732,20.215,0.079,0.651,-0.048,-2.413,-81.733,-5.835
20:24:05:754,20.238,-0.001,0.791,-0.472,-4.566,-78.642,-13.404
20:24:05:781,20.264,-0.103,0.739,-0.810,-5.697,-76.880,-18.308
20:24:05:809,20.293,-0.348,0.012,-1.280,-7.135,-75.040,-25.009
20:24:05:86,20.344,-0.471,-0.395,-2.154,-8.616,-74.935,-28.703
20:24:05:887,20.371,-0.700,-0.183,-1.005,-11.468,-76.988,-30.609
20:24:05:918,20.402,-0.440,-0.429,-1.022,-10.934,-77.856,-28.093
20:24:05:919,20.402,-0.516,-0.122,-0.658,-9.577,-76.455,-25.949
20:24:05:919,20.403,-0.009,0.693,1.713,-6.959,-72.355,-22.746
20:24:05:965,20.448,-0.594,-0.004,-0.571,-5.533,-68.485,-20.464
20:24:06:02,20.503,-0.368,-0.305,-0.922,-5.179,-64.729,-17.227
20:24:06:021,20.504,-0.156,0.187,-0.034,-6.749,-64.298,-14.949
20:24:06:048,20.531,0.161,-0.012,-0.247,-6.948,-63.698,-14.396
20:24:06:048,20.532,0.019,0.010,-0.152,-7.335,-63.311,-13.418
20:24:06:096,20.580,-0.070,0.001,-0.021,-7.485,-63.230,-12.835
20:24:06:125,20.608,0.013,0.021,-0.037,-7.856,-63.193,-11.987
20:24:06:125,20.609,0.006,0.022,-0.104,-8.069,-63.090,-11.555
20:24:06:15,20.634,0.019,0.031,-0.066,-8.246,-63.280,-10.914
20:24:06:175,20.659,-0.033,-0.011,0.049,-8.170,-63.684,-10.370
20:24:06:259,20.743,0.035,-0.021,0.023,-8.035,-63.755,-10.066
20:24:06:26,20.743,-0.023,0.042,-0.107,-7.873,-64.637,-9.550
20:24:06:261,20.744,-0.016,0.010,-0.015,-7.685,-64.925,-9.214
20:24:06:28,20.763,-0.009,0.014,-0.024,-7.408,-65.980,-8.656
20:24:06:306,20.789,-0.005,0.002,-0.024,-7.129,-67.013,-8.007
20:24:06:332,20.816,-0.025,0.017,-0.034,-6.941,-67.289,-7.520
20:24:06:358,20.841,-0.027,0.009,-0.002,-6.666,-68.274,-6.737
20:24:06:414,20.897,0.016,0.023,-0.018,-6.488,-68.480,-6.174
20:24:06:414,20.898,0.016,0.036,0.011,-6.201,-69.394,-5.214
20:24:06:437,20.921,0.009,0.037,0.013,-5.984,-69.574,-4.383
20:24:06:463,20.947,-0.010,0.044,0.034,-5.695,-70.338,-2.913
20:24:06:519,21.002,-0.043,0.047,0.064,-5.436,-70.771,-1.216
20:24:06:519,21.003,-0.101,0.079,0.075,-5.237,-71.550,0.018
20:24:06:542,21.025,0.132,0.166,0.080,-4.887,-71.790,2.070
20:24:06:569,21.052,0.149,0.227,0.056,-4.588,-72.490,3.597
20:24:06:595,21.079,0.079,0.244,0.208,-3.995,-73.012,6.372
20:24:06:621,21.104,-0.068,0.280,0.374,-3.442,-74.114,9.960
20:24:06:647,21.130,0.098,0.455,0.658,-3.177,-74.871,12.844
20:24:06:673,21.157,0.241,0.312,0.921,-2.584,-76.630,17.839
20:24:06:702,21.185,0.395,0.316,0.465,-2.058,-78.083,21.554
20:24:06:727,21.210,0.447,0.448,0.521,-0.981,-79.858,27.553
20:24:06:752,21.236,0.118,-0.202,0.477,0.700,-80.420,32.771
20:24:06:78,21.263,0.238,-0.266,0.180,2.232,-80.959,35.333
20:24:06:805,21.288,0.233,-0.481,0.390,5.484,-82.977,37.166
20:24:06:831,21.314,0.070,-0.960,0.505,7.138,-85.191,36.151
20:24:06:857,21.340,0.028,-0.941,0.496,9.272,-87.439,33.644
20:24:06:885,21.369,0.005,-0.760,0.338,9.891,-88.623,31.535
20:24:06:94,21.424,-0.027,-0.575,0.348,9.477,-89.582,27.509
20:24:06:94,21.424,0.021,-0.440,0.372,7.894,-89.569,22.514
20:24:06:962,21.445,0.055,-0.239,0.335,6.456,-89.106,18.715
20:24:06:989,21.472,0.128,-0.056,0.334,4.204,-87.641,12.471
20:24:07:043,21.527,0.109,0.077,0.242,2.735,-86.158,7.961
20:24:07:044,21.528,0.180,0.390,0.107,0.579,-83.362,0.700
20:24:07:068,21.551,0.198,0.675,-0.213,-0.807,-81.201,-4.458
20:24:07:093,21.577,0.145,0.818,-0.763,-2.627,-78.170,-12.440
20:24:07:119,21.603,0.050,0.492,-1.245,-4.003,-75.672,-19.909
20:24:07:146,21.629,-1.005,-0.209,-1.709,-4.958,-74.374,-24.111
20:24:07:172,21.656,-0.927,-0.646,-2.064,-7.680,-74.336,-28.730
20:24:07:198,21.682,-0.385,0.151,-1.032,-9.530,-74.973,-29.783
20:24:07:224,21.708,-0.583,-0.126,-0.836,-9.081,-74.879,-27.680
20:24:07:251,21.735,-0.550,0.295,0.607,-7.031,-71.946,-24.100
20:24:07:306,21.789,-0.165,-0.365,-0.062,-5.165,-68.359,-21.984
20:24:07:307,21.790,-0.403,-0.379,-0.909,-4.112,-63.113,-18.557
20:24:07:33,21.813,-0.375,0.313,-0.278,-5.038,-61.935,-16.563
20:24:07:357,21.840,-0.257,-0.048,0.050,-5.776,-61.357,-15.267
20:24:07:469,21.953,0.079,-0.029,-0.094,-6.105,-60.979,-14.297
20:24:07:47,21.953,-0.036,-0.016,-0.042,-6.209,-60.907,-13.577
20:24:07:471,21.954,-0.085,0.005,-0.047,-6.460,-60.814,-12.528
20:24:07:472,21.955,-0.008,0.014,-0.093,-6.683,-60.772,-11.916
20:24:07:487,21.971,-0.010,0.018,-0.127,-6.918,-60.788,-11.169
20:24:07:513,21.996,-0.034,0.028,0.005,-6.969,-60.905,-10.725
20:24:07:571,22.055,-0.024,0.026,-0.019,-6.869,-61.003,-10.300
20:24:07:571,22.055,-0.019,0.005,-0.061,-6.733,-60.968,-9.764
20:24:07:592,22.075,-0.040,0.016,-0.061,-6.602,-61.061,-9.368
20:24:07:618,22.102,-0.035,-0.003,-0.021,-6.319,-61.350,-8.862
20:24:07:644,22.128,-0.006,0.006,-0.018,-6.131,-61.800,-8.473
20:24:07:701,22.184,-0.035,0.007,-0.032,-5.852,-62.140,-7.826
20:24:07:701,22.184,-0.028,0.005,-0.032,-5.541,-62.978,-7.121
20:24:07:754,22.237,-0.013,0.021,-0.020,-5.345,-63.166,-6.659
20:24:07:754,22.237,0.011,0.041,-0.012,-5.066,-63.814,-5.917
20:24:07:806,22.290,0.001,0.018,0.005,-4.859,-63.979,-5.324
20:24:07:806,22.290,0.011,0.012,0.000,-4.590,-64.532,-4.236
20:24:07:828,22.312,-0.020,0.015,0.018,-4.316,-64.893,-2.962
20:24:07:856,22.339,-0.003,0.065,0.046,-4.137,-65.067,-2.021
20:24:07:882,22.365,-0.086,0.059,0.065,-3.825,-65.656,-0.483
20:24:07:936,22.420,0.165,0.156,0.014,-3.593,-65.747,0.650
20:24:07:937,22.421,0.180,0.231,0.042,-3.045,-66.137,2.547
20:24:07:961,22.444,0.056,0.230,0.167,-2.234,-66.486,4.927
20:24:07:986,22.469,0.015,0.251,0.273,-1.685,-66.905,6.927
20:24:08:012,22.496,0.094,0.312,0.377,-0.961,-67.368,10.582
20:24:08:041,22.524,0.316,0.446,0.608,-0.467,-67.987,13.364
20:24:08:067,22.551,0.425,0.298,0.759,0.431,-68.815,18.228
20:24:08:092,22.576,0.588,0.391,0.389,1.084,-69.716,21.895
20:24:08:118,22.601,0.436,0.134,0.630,2.438,-70.320,27.734
20:24:08:145,22.628,0.243,-0.266,0.325,4.576,-69.673,32.932
20:24:08:201,22.684,0.151,-0.592,-0.131,6.166,-69.163,35.493
20:24:08:201,22.684,0.550,-0.501,0.601,8.089,-69.618,36.963
20:24:08:222,22.705,0.258,-0.867,0.385,8.944,-69.633,36.095
20:24:08:251,22.734,0.215,-0.830,0.276,9.880,-69.309,34.063
20:24:08:252,22.735,0.294,-0.617,0.147,9.822,-68.817,30.943
20:24:08:304,22.787,0.268,-0.531,0.172,9.374,-68.366,28.076
20:24:08:304,22.788,0.315,-0.420,0.258,8.263,-67.555,22.768
20:24:08:357,22.841,0.367,-0.172,0.218,7.270,-66.810,18.791
20:24:08:357,22.841,0.381,-0.050,0.182,5.566,-64.984,12.456
20:24:08:379,22.863,0.367,0.213,0.051,4.338,-63.127,7.980
20:24:08:406,22.889,0.325,0.481,-0.198,2.506,-59.294,0.719
20:24:08:432,22.915,0.090,0.656,-0.631,0.888,-54.750,-7.168
20:24:08:487,22.971,-0.072,0.659,-1.062,0.085,-51.719,-12.412
20:24:08:488,22.972,-0.374,0.320,-1.154,-0.711,-47.516,-19.523
20:24:08:512,22.995,-0.713,0.061,-1.267,-1.332,-45.017,-23.498
20:24:08:567,23.051,-1.768,-0.433,-1.052,-3.416,-42.375,-28.391
20:24:08:567,23.051,-1.049,0.785,-1.186,-5.231,-42.088,-30.438
20:24:08:59,23.073,-0.699,-0.517,-0.537,-6.832,-41.627,-29.786
20:24:08:617,23.101,-0.626,0.116,0.428,-4.915,-39.271,-25.983
20:24:08:644,23.127,-0.447,-0.325,-0.235,-3.236,-36.502,-23.470
20:24:08:669,23.153,-0.791,0.232,-0.046,-2.033,-30.819,-19.803
20:24:08:695,23.178,-0.805,0.306,-0.211,-3.021,-28.204,-16.606
20:24:08:721,23.204,0.160,0.152,-0.119,-3.802,-27.964,-15.469
20:24:08:777,23.261,0.023,0.041,-0.220,-4.113,-27.461,-14.651
20:24:08:777,23.261,-0.070,0.015,-0.075,-4.327,-27.478,-14.021
20:24:08:8,23.283,-0.083,-0.078,0.035,-4.493,-27.430,-13.170
20:24:08:826,23.309,-0.011,0.046,-0.022,-4.747,-27.431,-12.534
20:24:08:91,23.394,-0.011,0.033,-0.103,-5.072,-27.359,-11.749
20:24:08:911,23.395,-0.008,0.020,-0.112,-5.189,-27.251,-11.057
20:24:08:912,23.395,-0.020,-0.004,-0.024,-5.133,-27.210,-10.668
20:24:08:931,23.414,-0.024,0.008,-0.035,-5.013,-26.976,-10.037
20:24:08:957,23.440,-0.069,0.010,-0.033,-4.895,-26.786,-9.560
20:24:08:983,23.467,-0.028,-0.005,-0.009,-4.704,-26.755,-8.868
20:24:09:009,23.493,-0.013,0.013,-0.029,-4.454,-26.937,-8.261
20:24:09:066,23.549,-0.003,0.002,-0.014,-4.272,-27.008,-7.818
20:24:09:066,23.550,-0.059,0.007,-0.020,-3.985,-27.053,-7.083
20:24:09:089,23.573,-0.028,0.006,-0.020,-3.805,-27.122,-6.571
20:24:09:115,23.598,-0.029,0.002,-0.009,-3.540,-27.230,-5.767
20:24:09:17,23.653,-0.006,0.032,-0.037,-3.393,-28.426,-5.184
20:24:09:17,23.654,-0.016,0.013,-0.036,-3.243,-28.566,-4.243
20:24:09:195,23.678,-0.002,0.028,-0.006,-3.074,-29.821,-3.144
20:24:09:22,23.703,-0.013,0.034,0.051,-2.961,-30.029,-2.301
20:24:09:276,23.760,-0.027,0.031,0.089,-2.823,-31.257,-0.968
20:24:09:277,23.760,-0.026,0.084,0.085,-2.755,-31.432,-0.006
20:24:09:327,23.811,0.178,0.138,-0.144,-2.618,-32.543,1.494
20:24:09:328,23.812,0.140,0.176,-0.056,-2.326,-32.525,2.603
20:24:09:351,23.834,0.144,0.212,0.044,-1.597,-33.462,4.614
20:24:09:377,23.860,0.140,0.222,0.209,-0.768,-34.758,7.175
20:24:09:403,23.887,0.376,0.403,0.218,-0.231,-35.047,9.250
20:24:09:43,23.913,0.538,0.384,0.284,0.674,-36.383,12.842
20:24:09:456,23.939,0.668,0.386,0.290,1.443,-36.845,15.652
20:24:09:482,23.966,0.555,0.271,0.226,2.338,-38.313,20.445
20:24:09:508,23.992,0.629,0.232,0.256,3.473,-38.673,25.968
20:24:09:564,24.047,0.510,-0.190,0.234,4.562,-38.789,29.523
20:24:09:564,24.048,0.248,-0.319,0.068,6.828,-37.845,33.949
20:24:09:587,24.070,-0.013,-0.580,-0.232,8.821,-38.200,35.992
20:24:09:614,24.097,0.581,-0.760,0.256,10.205,-39.034,35.977
20:24:09:669,24.152,0.480,-0.808,0.233,11.660,-39.240,34.165
20:24:09:669,24.153,0.369,-0.676,0.064,12.255,-39.075,32.484
20:24:09:694,24.177,0.381,-0.509,-0.025,12.326,-38.802,29.051
20:24:09:748,24.231,0.483,-0.432,0.022,11.954,-38.619,26.073
20:24:09:748,24.232,0.474,-0.290,0.008,10.847,-37.934,20.850
20:24:09:771,24.254,0.491,-0.139,-0.070,9.180,-36.657,15.131
20:24:09:797,24.281,0.480,0.005,-0.126,7.747,-35.316,11.107
20:24:09:883,24.366,0.399,0.246,-0.211,5.328,-32.275,4.748
20:24:09:883,24.367,0.283,0.392,-0.302,3.669,-29.656,0.223
20:24:09:883,24.367,-0.199,0.613,-0.579,1.347,-25.639,-6.965
20:24:09:904,24.387,-0.604,0.627,-0.818,-0.031,-23.400,-11.925
20:24:09:987,24.471,-0.923,0.492,-0.801,-1.800,-20.862,-19.058
20:24:09:988,24.471,-1.794,-0.085,-0.317,-3.700,-18.877,-25.297
20:24:09:988,24.472,-2.300,-0.097,-0.599,-5.651,-18.579,-28.687
20:24:10:036,24.520,-1.762,-0.243,-0.289,-8.075,-18.527,-30.294
20:24:10:037,24.520,-0.366,0.140,0.684,-7.632,-17.988,-28.375
20:24:10:059,24.543,1.005,0.766,1.306,-4.840,-14.280,-24.611
20:24:10:086,24.569,-0.736,0.180,0.441,-3.086,-8.378,-20.940
20:24:10:14,24.623,-0.826,-0.268,-0.421,-3.050,-5.823,-18.546
20:24:10:168,24.651,-0.334,0.539,0.097,-5.297,-5.805,-15.282
20:24:10:168,24.651,-0.187,-0.025,0.131,-5.313,-5.044,-14.472
20:24:10:193,24.676,-0.045,0.047,-0.030,-5.638,-4.864,-13.354
20:24:10:217,24.701,0.080,0.002,-0.024,-6.067,-5.139,-12.549
20:24:10:245,24.728,-0.108,0.030,-0.127,-6.346,-4.906,-12.100
20:24:10:271,24.754,-0.148,-0.013,-0.093,-6.585,-4.691,-11.488
20:24:10:354,24.837,0.030,0.040,-0.075,-6.660,-4.952,-11.054
20:24:10:355,24.838,0.029,0.005,-0.060,-6.652,-5.152,-10.516
20:24:10:356,24.839,-0.029,0.003,-0.044,-6.567,-5.081,-10.216
20:24:10:375,24.858,-0.017,-0.003,-0.015,-6.412,-5.225,-9.597
20:24:10:459,24.942,-0.079,-0.002,0.002,-6.246,-4.409,-8.943
20:24:10:46,24.943,-0.049,0.000,-0.004,-6.173,-4.597,-8.561
20:24:10:46,24.944,-0.033,-0.003,-0.023,-6.128,-4.893,-8.039
20:24:10:48,24.963,-0.011,0.006,-0.018,-6.107,-5.057,-7.712
20:24:10:506,24.989,-0.007,0.024,-0.027,-6.038,-5.269,-7.168
20:24:10:532,25.015,0.006,0.011,-0.021,-5.908,-5.556,-6.549
20:24:10:561,25.045,0.013,0.029,-0.017,-5.788,-5.776,-6.051
20:24:10:562,25.046,0.014,0.044,-0.002,-5.525,-6.118,-5.150
20:24:10:614,25.098,0.008,0.002,-0.002,-5.380,-6.365,-4.307
20:24:10:615,25.098,0.008,0.030,0.036,-5.209,-6.749,-2.717
20:24:10:637,25.121,0.069,0.051,-0.061,-5.075,-6.067,-1.047
20:24:10:665,25.148,0.050,0.107,-0.080,-4.882,-6.266,0.105
20:24:10:69,25.173,0.116,0.150,-0.090,-4.306,-5.503,2.007
20:24:10:715,25.199,0.104,0.166,0.017,-3.815,-5.667,3.442
20:24:10:742,25.226,0.246,0.167,0.055,-3.143,-5.119,5.997
20:24:10:77,25.253,0.206,0.210,0.036,-2.775,-5.353,8.035
20:24:10:824,25.307,0.405,0.319,0.025,-2.185,-5.327,11.679
20:24:10:824,25.308,0.815,0.403,0.043,-1.411,-5.836,16.072
20:24:10:907,25.390,0.818,0.347,-0.014,-1.010,-6.464,19.424
20:24:10:907,25.390,0.638,0.350,-0.142,-0.161,-7.693,25.132
20:24:10:907,25.390,0.871,0.050,-0.256,0.574,-8.157,29.045
20:24:10:955,25.439,0.431,-0.213,0.085,2.320,-7.529,34.080
20:24:10:956,25.439,-0.655,-0.970,-0.348,4.895,-7.166,37.557
20:24:10:978,25.462,0.488,-0.503,-0.311,5.911,-7.696,37.859
20:24:11:033,25.517,0.472,-0.888,-0.001,7.510,-8.677,35.934
20:24:11:034,25.518,0.471,-0.850,0.027,8.267,-9.238,34.199
20:24:11:058,25.541,0.352,-0.657,-0.071,8.563,-10.128,30.685
20:24:11:142,25.625,0.330,-0.508,-0.031,8.327,-10.714,27.683
20:24:11:142,25.626,0.363,-0.429,-0.016,7.362,-11.287,22.300
20:24:11:143,25.627,0.402,-0.215,0.019,5.808,-11.400,16.083
20:24:11:162,25.646,0.371,-0.053,-0.062,4.520,-11.066,11.721
20:24:11:217,25.701,0.262,0.135,-0.046,2.367,-9.653,4.759
20:24:11:218,25.702,0.097,0.464,-0.108,0.838,-8.170,-0.161
20:24:11:27,25.754,-0.293,0.742,-0.234,-1.424,-5.260,-7.904
20:24:11:271,25.754,-0.868,0.721,-0.303,-3.076,-1.831,-15.791
20:24:11:293,25.777,-1.306,0.619,-0.121,-3.742,0.545,-20.557
20:24:11:32,25.803,-1.942,-0.275,0.023,-4.430,3.862,-26.138
20:24:11:347,25.830,-2.461,-0.378,0.614,-5.524,4.864,-28.598
20:24:11:403,25.886,-1.298,0.045,0.427,-6.473,4.916,-27.717
20:24:11:403,25.886,0.784,0.461,0.379,-4.403,6.541,-25.076
20:24:11:454,25.937,-0.038,0.000,0.586,-2.577,10.552,-21.578
20:24:11:454,25.938,-0.952,-0.327,-0.079,-2.411,14.272,-17.926
20:24:11:507,25.990,-0.687,0.281,0.392,-3.660,14.687,-15.877
20:24:11:507,25.991,0.087,-0.035,-0.138,-3.704,15.611,-14.619
20:24:11:559,26.042,-0.068,0.039,-0.116,-3.714,16.060,-13.731
20:24:11:559,26.043,-0.073,0.018,0.153,-3.627,16.928,-12.493
20:24:11:583,26.066,-0.082,-0.017,0.065,-3.699,17.630,-11.511
20:24:11:609,26.092,-0.050,0.017,-0.056,-3.835,17.759,-10.955
20:24:11:664,26.147,-0.079,0.003,-0.042,-3.885,17.990,-10.279
20:24:11:664,26.148,-0.047,0.038,0.005,-3.873,18.048,-9.856
20:24:11:687,26.171,-0.019,0.018,-0.031,-3.799,18.035,-9.208
20:24:11:714,26.197,-0.064,0.012,-0.010,-3.694,18.089,-8.569
20:24:11:739,26.223,-0.023,0.013,0.008,-3.530,18.318,-8.197
20:24:11:767,26.251,-0.019,0.012,-0.026,-3.271,18.103,-7.555
20:24:11:793,26.276,-0.019,0.007,-0.003,-3.079,18.353,-7.036
20:24:11:848,26.332,-0.016,0.013,-0.031,-2.748,18.147,-6.193
20:24:11:849,26.332,-0.032,0.020,-0.008,-2.550,18.586,-5.569
20:24:11:871,26.354,-0.035,-0.006,0.001,-2.300,18.510,-4.514
20:24:11:897,26.381,-0.018,0.029,-0.027,-2.075,18.770,-3.405
20:24:11:982,26.465,-0.028,0.049,-0.038,-1.911,18.661,-2.654
20:24:11:982,26.466,0.051,0.042,-0.012,-1.544,18.756,-1.439
20:24:11:983,26.467,0.070,0.106,0.008,-1.241,18.581,-0.557
20:24:12:032,26.516,0.093,0.100,0.039,-0.746,18.422,0.979
20:24:12:032,26.516,0.129,0.134,-0.014,-0.238,18.352,2.838
20:24:12:085,26.569,0.066,0.192,-0.244,0.150,18.722,4.294
20:24:12:086,26.569,0.213,0.250,-0.151,0.947,18.637,6.968
20:24:12:107,26.590,0.334,0.264,-0.129,1.637,18.585,9.122
20:24:12:133,26.617,0.479,0.328,-0.232,2.858,18.513,12.828
20:24:12:16,26.643,0.726,0.435,-0.519,3.712,18.410,15.717
20:24:12:186,26.669,0.651,0.412,-0.625,5.020,17.884,20.778
20:24:12:242,26.725,0.580,0.186,-0.636,6.788,17.452,26.648
20:24:12:242,26.725,0.666,0.039,-0.600,8.391,17.689,30.614
20:24:12:265,26.748,0.323,-0.200,-0.224,11.478,18.532,35.474
20:24:12:292,26.775,-0.104,-0.623,-0.162,13.555,19.027,37.273
20:24:12:318,26.801,0.471,-0.803,-0.452,14.147,18.811,36.681
20:24:12:344,26.827,0.313,-0.813,-0.265,14.653,18.998,34.869
20:24:12:37,26.853,0.090,-0.617,-0.339,14.577,19.054,33.062
20:24:12:396,26.880,0.126,-0.482,-0.273,14.284,18.420,28.986
20:24:12:422,26.905,0.226,-0.426,-0.226,14.030,17.567,25.561
20:24:12:477,26.961,0.298,-0.272,-0.276,13.030,16.579,20.146
20:24:12:479,26.962,0.189,-0.096,-0.233,11.878,16.598,16.538
20:24:12:502,26.986,0.228,-0.088,-0.278,9.473,18.118,11.118
20:24:12:529,27.012,0.053,0.055,-0.263,6.446,21.736,5.531
20:24:12:583,27.066,0.005,0.193,-0.299,4.394,24.985,1.470
20:24:12:583,27.067,-0.326,0.490,-0.280,1.875,30.674,-5.179
20:24:12:606,27.089,-0.767,0.657,-0.065,0.697,34.515,-10.009
20:24:12:662,27.146,-1.104,0.640,0.148,-0.240,39.638,-17.498
20:24:12:684,27.168,-1.644,-0.453,2.015,-2.269,45.868,-27.842
20:24:12:711,27.194,-1.358,-0.297,1.736,-5.492,45.927,-29.910
20:24:12:737,27.221,-0.317,-0.330,0.769,-5.456,47.013,-27.952
20:24:12:767,27.250,1.597,0.549,-0.172,-2.177,51.630,-23.820
20:24:12:767,27.251,-0.031,0.137,0.522,-0.231,58.780,-19.480
20:24:12:846,27.329,-1.049,-0.506,1.280,-0.483,62.314,-16.422
20:24:12:847,27.330,0.212,0.092,-0.553,-2.439,62.823,-13.272
20:24:12:871,27.354,-0.535,-0.057,0.154,-2.603,63.045,-12.668
20:24:12:872,27.355,-0.115,-0.068,0.095,-2.756,63.089,-11.384
20:24:12:897,27.380,-0.068,-0.024,0.017,-2.820,63.241,-10.679
20:24:12:921,27.404,-0.107,0.027,-0.029,-2.944,63.581,-9.782
20:24:12:947,27.431,-0.056,0.039,0.068,-3.024,63.688,-8.964
20:24:12:975,27.459,-0.044,0.020,-0.003,-3.077,63.506,-8.500
20:24:13:058,27.541,-0.059,0.022,-0.062,-3.108,63.318,-7.851
20:24:13:058,27.542,-0.050,0.014,-0.027,-3.082,63.271,-7.389
20:24:13:059,27.543,-0.010,0.021,-0.013,-2.981,63.164,-6.592
20:24:13:078,27.562,-0.026,-0.003,0.020,-2.823,63.010,-5.781
20:24:13:134,27.618,-0.024,0.008,0.026,-2.741,62.856,-5.232
20:24:13:135,27.618,-0.014,0.014,-0.019,-2.650,62.670,-4.380
20:24:13:157,27.641,-0.016,0.018,0.012,-2.644,62.607,-3.710
20:24:13:183,27.667,0.004,0.059,0.002,-2.650,63.245,-2.738
20:24:13:21,27.693,-0.015,0.019,-0.010,-2.645,63.112,-2.045
20:24:13:236,27.719,-0.006,0.024,-0.030,-2.629,63.686,-1.044
20:24:13:263,27.747,-0.031,0.034,-0.046,-2.612,63.614,-0.044
20:24:13:29,27.773,-0.032,0.058,-0.062,-2.502,64.265,0.724
20:24:13:316,27.800,0.072,0.055,-0.040,-2.239,64.264,2.047
20:24:13:341,27.825,0.118,0.040,-0.036,-2.069,65.086,3.051
20:24:13:368,27.851,-0.114,0.114,-0.176,-1.807,65.330,4.723
20:24:13:393,27.877,-0.104,0.194,-0.214,-1.317,65.836,6.715
20:24:13:42,27.903,0.061,0.223,-0.231,-0.774,65.630,8.335
20:24:13:446,27.929,0.164,0.254,-0.272,0.244,65.484,11.242
20:24:13:472,27.955,0.269,0.362,-0.569,1.029,65.111,13.490
20:24:13:501,27.985,0.225,0.351,-0.776,2.231,64.780,17.423
20:24:13:527,28.011,0.087,0.246,-0.712,3.087,64.144,20.555
20:24:13:553,28.036,-0.091,0.391,-0.741,4.340,63.850,26.087
20:24:13:579,28.062,0.119,-0.140,-0.767,5.946,64.570,31.705
20:24:13:632,28.116,0.081,-0.157,-0.442,7.435,65.547,35.097
20:24:13:633,28.116,-0.207,-0.513,-0.017,10.298,66.960,38.526
20:24:13:656,28.140,0.123,-0.843,-0.648,10.936,67.464,38.654
20:24:13:74,28.224,0.115,-0.864,-0.584,12.288,67.912,37.212
20:24:13:741,28.225,-0.166,-0.654,-0.404,12.789,68.759,35.090
20:24:13:742,28.225,-0.178,-0.589,-0.376,12.588,69.537,32.897
20:24:13:761,28.245,-0.132,-0.529,-0.472,11.796,70.923,28.419
20:24:13:787,28.270,-0.228,-0.367,-0.428,10.993,71.913,24.982
20:24:13:813,28.297,-0.278,-0.201,-0.371,9.486,73.494,19.178
20:24:13:841,28.325,-0.276,-0.109,-0.444,8.342,74.762,14.904
20:24:13:867,28.351,-0.366,0.152,-0.395,6.295,77.324,8.101
20:24:13:895,28.379,-0.468,0.423,-0.149,4.034,80.706,0.895
20:24:13:92,28.404,-0.581,0.658,0.423,2.553,83.102,-4.166
20:24:13:973,28.457,-0.541,0.675,0.803,0.426,86.084,-11.936
20:24:13:974,28.458,-0.411,0.491,1.048,-0.816,87.607,-16.820
20:24:13:997,28.481,-0.293,0.186,1.391,-2.628,89.740,-23.234
20:24:14:023,28.507,0.494,-0.285,2.874,-4.863,91.320,-28.089
20:24:14:05,28.533,0.326,-0.237,1.871,-6.217,91.765,-28.758
20:24:14:076,28.560,0.363,-0.050,0.475,-5.122,93.260,-25.440
20:24:14:102,28.586,0.882,0.392,-0.554,-3.484,95.481,-22.804
20:24:14:157,28.641,0.610,0.266,0.585,-1.734,100.252,-18.860
20:24:14:158,28.642,-0.069,-0.062,0.733,-2.365,102.574,-15.307
20:24:14:211,28.695,-0.318,0.322,0.740,-4.161,102.310,-13.392
20:24:14:211,28.695,-0.143,-0.014,0.164,-4.506,102.972,-12.548
20:24:14:234,28.717,0.020,0.061,-0.033,-4.756,102.929,-11.933
20:24:14:26,28.743,0.045,-0.055,-0.009,-5.074,102.514,-11.252
20:24:14:287,28.771,-0.040,0.040,0.022,-5.368,102.406,-10.830
20:24:14:314,28.797,-0.078,0.002,0.062,-5.772,102.467,-10.246
20:24:14:339,28.822,-0.138,0.062,-0.004,-5.977,102.213,-9.640
20:24:14:364,28.848,-0.035,0.014,-0.061,-5.944,101.945,-9.289
20:24:14:391,28.874,-0.040,0.014,0.009,-5.772,101.841,-8.757
20:24:14:417,28.900,-0.024,0.005,0.030,-5.641,101.877,-8.333
20:24:14:444,28.928,-0.014,-0.011,0.019,-5.414,101.749,-7.641
20:24:14:47,28.953,-0.025,-0.002,-0.013,-5.207,101.853,-6.987
20:24:14:496,28.979,-0.058,0.000,-0.032,-5.091,101.755,-6.551
20:24:14:522,29.005,-0.066,0.004,0.021,-4.839,101.678,-5.818
20:24:14:55,29.033,-0.020,0.013,0.006,-4.630,101.573,-5.347
20:24:14:604,29.087,-0.002,0.013,-0.006,-4.256,101.630,-4.623
20:24:14:605,29.088,-0.024,0.021,-0.001,-4.001,101.547,-4.084
20:24:14:628,29.111,-0.029,0.029,-0.020,-3.632,101.470,-3.150
20:24:14:653,29.137,-0.032,0.013,-0.041,-3.338,101.388,-2.026
20:24:14:711,29.194,-0.027,0.020,-0.022,-3.173,101.273,-1.154
20:24:14:711,29.195,0.013,0.082,-0.090,-2.903,101.037,0.303
20:24:14:732,29.215,0.040,0.092,-0.131,-2.665,100.894,1.365
20:24:14:758,29.242,-0.188,0.171,-0.093,-2.230,100.919,3.102
20:24:14:785,29.268,-0.160,0.197,-0.150,-1.544,100.904,5.139
20:24:14:869,29.353,-0.056,0.266,-0.200,-0.986,100.732,6.760
20:24:14:87,29.353,0.034,0.253,-0.323,-0.171,100.325,9.813
20:24:14:871,29.354,-0.052,0.257,-0.450,0.290,100.003,12.326
20:24:14:89,29.373,-0.320,0.470,-0.853,0.955,99.281,16.712
20:24:14:916,29.399,-0.363,0.340,-0.804,1.510,98.647,20.049
20:24:14:945,29.428,-0.481,0.320,-0.534,2.581,97.145,25.730
20:24:14:945,29.429,-0.372,-0.037,-0.697,4.208,96.369,31.578
20:24:14:998,29.482,-0.142,-0.376,-0.267,6.033,96.223,34.877
20:24:14:999,29.482,-0.270,-0.865,0.724,9.296,96.010,38.264
20:24:15:022,29.505,-0.264,-0.797,-0.549,10.813,94.571,38.625
20:24:15:077,29.560,-0.096,-0.949,-0.453,12.560,93.089,36.786
20:24:15:077,29.561,-0.113,-0.851,-0.336,13.206,92.002,33.957
20:24:15:129,29.612,-0.159,-0.613,-0.258,12.882,91.402,31.522
20:24:15:129,29.613,-0.151,-0.467,-0.330,11.669,90.679,26.986
20:24:15:154,29.637,-0.149,-0.291,-0.307,10.371,90.529,23.503
20:24:15:179,29.663,-0.213,-0.166,-0.339,8.007,90.794,17.787
20:24:15:205,29.688,-0.257,0.027,-0.277,5.335,92.029,11.798
20:24:15:231,29.714,-0.238,0.141,-0.198,3.447,93.515,7.592
20:24:15:257,29.741,-0.260,0.442,-0.065,0.592,96.529,0.815
20:24:15:283,29.767,-0.231,0.603,0.159,-1.211,98.866,-3.960
20:24:15:34,29.823,-0.142,0.742,0.753,-3.543,102.220,-11.259
20:24:15:34,29.823,-0.044,0.395,1.167,-4.748,103.973,-15.899
20:24:15:362,29.846,0.602,-0.020,1.481,-6.713,105.517,-22.195
20:24:15:388,29.872,1.018,0.199,2.349,-10.315,104.481,-26.665
20:24:15:417,29.901,0.640,-0.032,1.149,-11.986,103.129,-27.001
20:24:15:444,29.927,0.733,-0.096,0.388,-11.102,102.753,-23.793
20:24:15:469,29.953,0.504,0.697,-2.306,-9.699,104.493,-20.993
20:24:15:493,29.977,0.582,0.193,0.887,-7.139,110.319,-17.320
20:24:15:521,30.004,0.601,0.351,0.306,-7.836,113.615,-13.874
20:24:15:572,30.056,-0.027,0.053,0.105,-8.458,115.269,-11.723
20:24:15:601,30.084,0.029,-0.009,0.092,-8.549,115.404,-11.002
20:24:15:627,30.111,0.038,0.008,0.002,-8.744,115.438,-10.094
20:24:15:68,30.163,-0.035,0.037,0.047,-8.960,115.447,-9.572
20:24:15:681,30.164,-0.059,0.042,0.099,-9.185,115.510,-8.981
20:24:15:703,30.187,-0.096,0.026,-0.042,-9.173,115.186,-8.440
20:24:15:73,30.213,-0.038,-0.002,-0.063,-9.020,114.976,-8.070
20:24:15:785,30.268,0.015,0.039,0.068,-8.687,114.876,-7.578
20:24:15:786,30.269,0.016,0.002,0.003,-8.438,114.674,-7.215
20:24:15:808,30.292,0.002,0.004,-0.012,-8.070,113.096,-6.602
20:24:15:838,30.321,-0.019,-0.004,0.022,-7.715,112.739,-5.914
20:24:15:861,30.344,0.018,0.000,0.027,-7.502,111.466,-5.419
20:24:15:887,30.370,0.005,0.004,0.003,-7.220,111.115,-4.648
20:24:15:943,30.426,-0.022,0.020,0.009,-7.063,109.940,-4.127
20:24:15:944,30.427,-0.043,0.041,-0.014,-6.855,109.633,-3.286
20:24:15:967,30.450,-0.022,0.062,-0.037,-6.579,108.666,-2.146
20:24:15:994,30.477,-0.010,0.038,-0.056,-6.408,108.349,-1.151
20:24:16:019,30.503,0.031,0.066,-0.124,-6.177,107.208,0.560
20:24:16:045,30.528,0.010,0.077,-0.093,-5.995,106.889,1.785
20:24:16:071,30.554,-0.104,0.139,-0.095,-5.691,105.836,3.791
20:24:16:098,30.581,-0.175,0.228,-0.092,-5.398,105.670,5.240
20:24:16:151,30.635,-0.079,0.246,-0.214,-4.854,104.642,7.762
20:24:16:18,30.663,0.051,0.197,-0.352,-4.313,103.372,10.979
20:24:16:18,30.663,0.003,0.300,-0.508,-4.038,102.737,13.629
20:24:16:231,30.715,-0.282,0.472,-0.890,-3.785,101.333,18.308
20:24:16:232,30.716,-0.369,0.443,-0.551,-3.604,100.045,21.851
20:24:16:256,30.739,-0.369,0.408,-0.499,-2.615,97.118,27.786
20:24:16:31,30.794,-0.319,-0.161,-0.941,-1.162,94.910,33.742
20:24:16:311,30.794,-0.022,-0.330,-0.221,0.575,93.962,36.939
20:24:16:333,30.817,-0.109,-0.823,0.429,3.943,92.584,40.300
20:24:16:361,30.844,-0.102,-0.525,-1.032,5.207,90.384,40.221
20:24:16:387,30.870,0.110,-0.987,-0.537,6.837,88.608,38.190
20:24:16:414,30.897,0.025,-0.700,-0.328,7.088,87.910,36.508
20:24:16:439,30.923,-0.009,-0.603,-0.319,6.597,87.077,32.923
20:24:16:465,30.948,0.065,-0.533,-0.439,5.751,86.252,27.914
20:24:16:492,30.976,0.063,-0.386,-0.431,5.004,85.801,23.969
20:24:16:519,31.003,0.026,-0.202,-0.464,3.548,85.290,17.404
20:24:16:543,31.027,0.009,0.025,-0.394,2.412,85.316,12.682
20:24:16:569,31.053,-0.017,0.300,-0.317,0.506,86.078,5.143
20:24:16:598,31.081,-0.091,0.679,0.012,-1.692,87.740,-2.929
20:24:16:651,31.135,-0.224,0.935,0.466,-3.198,89.283,-8.487
20:24:16:652,31.135,0.349,0.598,1.465,-5.034,92.533,-16.588
20:24:16:705,31.189,-0.375,0.147,1.500,-5.631,94.535,-21.451
20:24:16:705,31.189,0.316,-0.476,3.582,-6.474,97.253,-27.265
20:24:16:727,31.210,0.078,0.339,0.898,-8.696,96.034,-28.409
20:24:16:753,31.237,0.150,-0.121,0.081,-8.455,95.647,-25.964
20:24:16:781,31.264,0.700,0.458,-1.657,-5.884,98.492,-22.325
20:24:16:807,31.290,0.216,0.048,0.468,-4.705,101.666,-20.265
20:24:16:832,31.316,-0.053,-0.121,1.010,-4.380,106.334,-16.630
20:24:16:859,31.342,0.117,0.189,-0.050,-5.695,107.419,-13.628
20:24:16:884,31.368,-0.035,-0.195,0.277,-5.666,108.431,-12.722
20:24:16:911,31.394,0.023,-0.062,0.126,-5.733,108.957,-11.284
20:24:16:937,31.420,-0.005,0.002,0.015,-5.755,109.007,-10.411
20:24:16:993,31.476,-0.044,0.021,0.111,-5.873,109.217,-9.322
20:24:16:993,31.477,-0.070,0.027,0.049,-5.895,109.165,-8.495
20:24:17:017,31.501,0.020,0.055,0.030,-5.839,108.994,-8.042
20:24:17:042,31.526,-0.045,-0.008,-0.016,-5.668,108.693,-7.379
20:24:17:069,31.553,0.003,-0.007,0.044,-5.455,108.515,-6.980
20:24:17:095,31.579,0.019,-0.003,0.023,-5.167,108.241,-6.346
20:24:17:121,31.604,0.024,-0.004,0.023,-5.016,108.079,-5.916
20:24:17:147,31.630,0.016,0.002,0.022,-4.858,107.807,-5.239
20:24:17:174,31.657,-0.027,-0.005,0.044,-4.787,107.556,-4.601
20:24:17:2,31.683,0.016,0.006,0.049,-4.734,107.435,-4.217
20:24:17:226,31.709,0.042,0.022,-0.017,-4.715,107.115,-3.625
20:24:17:254,31.737,-0.095,0.031,-0.050,-4.716,106.851,-3.183
20:24:17:279,31.763,-0.069,0.026,-0.050,-4.572,107.076,-2.263
20:24:17:304,31.788,-0.035,0.080,-0.095,-4.280,106.796,-0.988
20:24:17:335,31.818,-0.008,0.074,-0.055,-4.036,107.320,0.034
20:24:17:336,31.819,0.059,0.103,-0.113,-3.630,107.066,1.792
20:24:17:386,31.870,-0.134,0.209,-0.139,-3.328,107.464,3.130
20:24:17:387,31.870,-0.173,0.212,-0.113,-2.785,107.275,5.437
20:24:17:412,31.895,-0.123,0.232,-0.232,-2.128,107.392,8.385
20:24:17:437,31.920,-0.056,0.261,-0.362,-1.723,106.915,10.801
20:24:17:462,31.945,-0.193,0.438,-0.598,-1.190,106.456,15.133
20:24:17:491,31.974,-0.296,0.487,-0.843,-0.686,105.032,18.464
20:24:17:515,31.999,-0.472,0.347,-0.673,0.451,102.085,24.098
20:24:17:567,32.051,-0.603,0.291,-0.733,1.513,100.680,28.192
20:24:17:597,32.080,-0.340,-0.176,-0.581,3.663,99.831,33.775
20:24:17:597,32.081,-0.105,-0.510,0.184,6.445,99.621,37.478
20:24:17:62,32.103,-0.081,-0.866,0.529,8.344,98.256,37.986
20:24:17:648,32.131,-0.104,-0.981,-0.437,9.719,95.961,35.988
20:24:17:675,32.158,-0.019,-0.796,-0.332,10.529,94.774,34.114
20:24:17:7,32.184,-0.042,-0.649,-0.198,10.543,93.301,30.626
20:24:17:726,32.210,0.054,-0.426,-0.315,9.749,91.829,25.912
20:24:17:751,32.235,0.096,-0.321,-0.418,8.813,91.130,22.431
20:24:17:837,32.321,0.083,-0.098,-0.272,6.803,90.737,17.085
20:24:17:837,32.321,0.030,-0.062,-0.219,5.293,90.917,13.423
20:24:17:837,32.321,0.088,-0.028,-0.153,2.934,92.022,7.662
20:24:17:91,32.393,0.123,0.081,-0.131,1.308,93.157,3.552
20:24:17:941,32.424,0.079,0.294,-0.005,-1.074,95.392,-3.021
20:24:17:941,32.425,0.031,0.525,0.338,-3.009,98.173,-10.100
20:24:17:942,32.425,0.052,0.586,0.595,-3.908,100.200,-14.967
20:24:17:961,32.444,0.375,0.349,1.076,-4.649,103.110,-21.763
20:24:17:987,32.471,0.071,-0.140,1.362,-4.910,104.775,-25.645
20:24:18:013,32.497,0.485,-0.668,2.204,-5.566,106.371,-30.014
20:24:18:041,32.525,0.462,-0.207,1.232,-8.014,104.704,-30.757
20:24:18:066,32.550,-0.152,0.818,0.802,-8.579,104.032,-28.844
20:24:18:123,32.606,0.189,-0.169,0.368,-6.359,104.936,-24.406
20:24:18:123,32.606,0.197,-0.331,-0.859,-4.820,106.839,-21.828
20:24:18:145,32.628,0.695,0.437,0.829,-4.166,110.914,-18.431
20:24:18:171,32.654,0.538,0.161,0.482,-4.670,112.355,-16.581
20:24:18:197,32.681,0.073,0.199,-0.171,-5.889,112.826,-14.924
20:24:18:225,32.708,-0.112,0.036,0.232,-6.251,113.324,-14.093
20:24:18:251,32.735,-0.001,-0.015,0.031,-6.410,113.225,-13.458
20:24:18:276,32.760,0.104,0.015,0.001,-6.721,112.598,-12.528
20:24:18:302,32.785,0.027,0.063,0.026,-6.986,112.510,-11.940
20:24:18:329,32.812,-0.061,0.034,0.092,-7.202,112.108,-11.274
20:24:18:355,32.838,-0.071,-0.007,0.015,-7.115,111.486,-10.641
20:24:18:381,32.864,-0.039,-0.018,-0.009,-6.915,111.338,-10.249
20:24:18:407,32.891,0.011,0.004,0.018,-6.655,110.835,-9.574
20:24:18:433,32.917,0.061,0.070,0.117,-6.473,110.792,-9.057
20:24:18:491,32.974,0.003,-0.005,-0.007,-6.048,110.261,-8.387
20:24:18:491,32.974,0.015,0.004,0.009,-5.559,110.046,-7.693
20:24:18:512,32.996,-0.005,0.003,0.052,-5.213,109.915,-7.194
20:24:18:539,33.022,0.024,-0.004,0.033,-4.685,109.810,-6.450
20:24:18:566,33.050,0.053,0.006,0.034,-4.379,109.478,-5.955
20:24:18:591,33.075,-0.007,0.013,0.027,-4.042,109.281,-5.158
20:24:18:618,33.101,-0.012,0.014,-0.010,-3.870,108.800,-4.568
20:24:18:643,33.127,-0.006,0.025,-0.039,-3.601,108.488,-3.548
20:24:18:671,33.154,-0.021,0.072,-0.050,-3.288,108.061,-2.272
20:24:18:697,33.180,-0.021,0.099,-0.074,-3.042,107.898,-1.273
20:24:18:724,33.208,0.115,0.077,-0.112,-2.566,107.579,0.469
20:24:18:749,33.233,-0.162,0.213,-0.079,-2.194,107.529,1.760
20:24:18:805,33.289,-0.207,0.235,-0.073,-1.503,107.278,3.961
20:24:18:805,33.289,-0.077,0.284,-0.244,-0.635,106.847,6.787
20:24:18:827,33.310,-0.063,0.258,-0.370,-0.072,106.341,9.130
20:24:18:883,33.366,-0.252,0.512,-0.632,0.698,105.791,13.281
20:24:18:884,33.367,-0.367,0.284,-0.678,1.362,105.393,16.399
20:24:18:907,33.391,-0.404,0.281,-0.612,2.190,104.074,21.626
20:24:18:935,33.418,-0.407,0.114,-0.622,3.063,103.245,25.461
20:24:18:96,33.444,-0.327,-0.213,-0.498,5.090,102.904,30.914
20:24:18:986,33.469,-0.164,-0.230,-0.283,8.034,102.937,34.811
20:24:19:011,33.494,-0.011,-0.562,0.286,10.306,102.294,36.338
20:24:19:037,33.520,-0.283,-0.923,-0.569,11.754,100.441,35.369
20:24:19:064,33.547,-0.122,-0.828,-0.443,12.929,99.496,33.198
20:24:19:09,33.574,-0.213,-0.649,-0.236,12.858,99.202,31.314
20:24:19:117,33.601,-0.223,-0.529,-0.344,11.803,99.007,27.395
20:24:19:143,33.627,-0.229,-0.464,-0.360,10.730,99.248,24.275
20:24:19:199,33.682,-0.258,-0.210,-0.234,8.620,100.227,19.120
20:24:19:199,33.683,-0.295,-0.137,-0.275,7.127,101.221,15.301
20:24:19:221,33.704,-0.309,0.013,-0.223,4.759,103.451,9.087
20:24:19:335,33.818,-0.324,0.276,-0.129,2.312,106.643,2.329
20:24:19:336,33.819,-0.287,0.439,-0.005,0.768,109.390,-2.440
20:24:19:336,33.820,-0.153,0.711,0.515,-1.272,114.063,-9.933
20:24:19:337,33.821,0.042,0.765,0.977,-2.339,117.175,-14.994
20:24:19:352,33.836,0.223,0.380,1.298,-3.234,121.725,-22.077
20:24:19:379,33.862,1.573,-0.453,1.770,-4.836,125.091,-28.077
20:24:19:435,33.918,1.806,-0.148,1.876,-6.905,125.493,-30.083
20:24:19:435,33.918,0.515,-0.019,0.835,-7.157,126.560,-28.257
20:24:19:457,33.941,0.710,0.093,-0.189,-5.118,129.019,-25.600
20:24:19:485,33.969,0.042,-0.054,-0.444,-2.479,134.499,-21.878
20:24:19:51,33.993,0.659,-0.337,0.612,-1.720,138.843,-19.278
20:24:19:536,34.020,1.244,0.162,0.707,-2.553,142.426,-15.930
20:24:19:562,34.045,-0.032,0.132,-0.418,-3.425,142.481,-14.658
20:24:19:591,34.074,0.084,-0.132,0.532,-3.735,142.439,-14.113
20:24:19:592,34.075,0.056,-0.041,0.115,-3.922,142.461,-13.236
20:24:19:644,34.127,0.152,-0.026,0.023,-3.992,142.665,-12.672
20:24:19:645,34.128,-0.049,0.083,0.002,-4.364,142.687,-11.663
20:24:19:667,34.151,-0.086,0.054,0.088,-4.515,142.914,-10.839
20:24:19:694,34.178,-0.029,0.041,0.080,-4.480,143.068,-10.335
20:24:19:72,34.203,-0.005,0.026,0.009,-4.258,143.193,-9.554
20:24:19:772,34.256,0.028,0.012,0.017,-4.082,143.361,-9.032
20:24:19:801,34.284,0.145,0.053,0.096,-3.813,143.593,-8.275
20:24:19:802,34.285,0.049,-0.009,0.007,-3.588,143.507,-7.888
20:24:19:854,34.337,0.037,-0.005,0.008,-3.319,143.345,-7.315
20:24:19:855,34.338,0.031,0.006,0.021,-3.088,143.809,-6.752
20:24:19:878,34.361,0.025,0.009,0.024,-2.949,143.754,-6.374
20:24:19:993,34.476,0.013,0.011,0.003,-2.743,144.198,-5.786
20:24:19:993,34.476,-0.022,0.028,0.014,-2.638,144.151,-5.376
20:24:19:993,34.476,-0.022,0.032,0.001,-2.475,144.513,-4.663
20:24:19:993,34.476,-0.006,0.016,-0.011,-2.256,144.452,-3.705
20:24:20:009,34.492,-0.043,0.029,-0.011,-2.070,144.897,-2.940
20:24:20:064,34.547,0.001,0.066,-0.046,-1.744,144.840,-1.607
20:24:20:064,34.548,0.031,0.071,-0.123,-1.515,145.250,-0.624
20:24:20:089,34.573,-0.151,0.136,0.075,-1.090,145.343,0.932
20:24:20:114,34.598,-0.244,0.233,0.067,-0.304,145.770,2.773
20:24:20:14,34.623,-0.226,0.270,-0.068,0.393,145.593,4.318
20:24:20:166,34.649,-0.191,0.244,-0.202,1.493,145.720,7.270
20:24:20:192,34.675,-0.500,0.423,-0.287,2.182,145.529,9.675
20:24:20:306,34.790,-0.723,0.372,-0.313,3.343,145.549,13.829
20:24:20:307,34.791,-0.764,0.383,-0.176,4.077,145.522,17.080
20:24:20:308,34.791,-0.761,0.472,0.026,5.350,145.297,22.647
20:24:20:309,34.792,-0.770,0.002,-0.163,7.181,145.882,28.505
20:24:20:355,34.839,-0.488,-0.310,-0.100,8.995,146.913,32.063
20:24:20:355,34.839,0.619,-1.128,0.591,11.781,148.675,35.975
20:24:20:406,34.890,-0.710,-0.843,-0.036,12.064,149.556,36.315
20:24:20:406,34.890,-0.564,-0.869,-0.110,12.469,151.069,34.874
20:24:20:428,34.912,-0.334,-0.744,0.133,12.072,153.161,32.767
20:24:20:542,35.026,-0.355,-0.680,0.191,11.422,154.466,30.623
20:24:20:543,35.026,-0.399,-0.541,0.166,10.290,156.514,26.239
20:24:20:544,35.027,-0.455,-0.406,0.201,9.457,157.826,22.696
20:24:20:561,35.044,-0.413,0.001,0.330,7.093,161.551,12.352
20:24:20:587,35.071,-0.388,0.223,0.405,5.272,164.875,5.436
20:24:20:614,35.098,0.030,0.552,0.554,3.152,169.133,-1.893
20:24:20:64,35.123,0.407,0.676,0.609,1.651,172.040,-6.954
20:24:20:695,35.178,0.914,0.714,0.588,-0.351,175.933,-14.581
20:24:20:695,35.179,1.159,0.196,0.492,-1.406,178.239,-19.164
20:24:20:747,35.230,1.749,-0.046,0.010,-2.913,-178.850,-24.988
20:24:20:748,35.231,2.368,0.101,-0.206,-5.629,-178.092,-29.019
20:24:20:771,35.255,1.494,-0.210,-0.152,-7.222,-178.193,-29.165
20:24:20:825,35.309,0.704,-0.126,-0.469,-6.327,-177.222,-26.147
20:24:20:826,35.309,-1.015,0.711,-1.048,-4.872,-174.940,-23.462
20:24:20:849,35.332,0.179,-0.268,-0.334,-2.410,-168.775,-19.856
20:24:20:875,35.358,0.939,-0.229,-0.300,-2.044,-164.750,-17.532
20:24:20:901,35.384,0.219,0.141,-0.098,-3.249,-162.781,-14.625
20:24:20:929,35.412,0.153,0.045,-0.111,-4.011,-161.822,-13.099
20:24:20:955,35.438,0.074,0.024,-0.042,-4.112,-161.282,-12.343
20:24:21:011,35.494,0.022,-0.040,-0.066,-4.275,-161.080,-11.214
20:24:21:011,35.494,0.001,0.048,0.054,-4.433,-161.163,-10.544
20:24:21:06,35.544,0.086,0.055,0.070,-4.738,-161.143,-9.586
20:24:21:117,35.600,0.042,0.048,0.007,-4.778,-161.239,-8.866
20:24:21:118,35.601,-0.033,0.018,0.010,-4.756,-161.434,-8.437
20:24:21:118,35.601,0.033,0.023,0.065,-4.575,-161.559,-7.867
20:24:21:139,35.622,0.030,0.001,0.006,-4.395,-161.695,-7.456
20:24:21:165,35.648,0.005,0.011,-0.012,-4.183,-162.038,-6.789
20:24:21:19,35.673,0.032,-0.002,0.027,-4.033,-162.310,-6.027
20:24:21:216,35.699,0.028,-0.004,0.045,-3.935,-162.541,-5.496
20:24:21:242,35.726,0.024,0.003,0.001,-3.797,-162.615,-4.713
20:24:21:297,35.781,-0.012,0.012,-0.026,-3.742,-162.859,-4.187
20:24:21:298,35.782,0.011,0.002,0.014,-3.713,-163.059,-3.286
20:24:21:322,35.806,0.024,0.003,0.046,-3.713,-163.244,-2.637
20:24:21:347,35.831,-0.011,0.070,0.044,-3.679,-163.525,-1.644
20:24:21:402,35.886,-0.074,0.040,0.024,-3.556,-163.707,-0.574
20:24:21:404,35.887,-0.082,0.092,0.057,-3.420,-163.904,0.241
20:24:21:455,35.939,-0.083,0.100,-0.020,-3.113,-163.895,1.742
20:24:21:456,35.939,-0.094,0.167,0.082,-2.869,-163.994,2.881
20:24:21:478,35.962,-0.097,0.189,0.163,-2.444,-163.984,4.810
20:24:21:505,35.988,-0.221,0.222,0.092,-1.875,-164.253,7.190
20:24:21:532,36.016,-0.252,0.199,0.025,-1.476,-164.192,9.146
20:24:21:558,36.041,-0.397,0.305,0.116,-0.936,-164.683,12.645
20:24:21:584,36.067,-0.546,0.425,0.157,-0.493,-165.141,15.326
20:24:21:61,36.093,-0.824,0.451,0.299,0.264,-166.541,19.864
20:24:21:636,36.119,-0.566,0.364,0.484,1.063,-167.885,23.423
20:24:21:692,36.175,-0.633,0.301,0.385,2.330,-168.991,29.241
20:24:21:692,36.175,-0.463,-0.185,0.097,4.134,-168.921,34.437
20:24:21:717,36.201,0.209,-0.628,0.042,5.651,-168.665,36.977
20:24:21:741,36.224,-0.502,-0.459,0.469,8.025,-169.590,38.498
20:24:21:767,36.251,-0.469,-0.928,0.112,9.137,-170.584,37.562
20:24:21:797,36.280,-0.334,-0.823,0.044,10.784,-171.223,35.389
20:24:21:797,36.280,-0.307,-0.647,0.128,11.273,-172.013,32.104
20:24:21:849,36.332,-0.341,-0.574,0.143,11.064,-172.387,29.174
20:24:21:849,36.333,-0.373,-0.389,0.168,10.071,-172.731,23.952
20:24:21:904,36.388,-0.405,-0.199,0.218,9.036,-172.685,20.017
20:24:21:905,36.388,-0.358,-0.068,0.246,7.105,-172.040,13.676
20:24:21:925,36.408,-0.266,0.194,0.283,5.605,-171.056,9.271
20:24:21:951,36.434,0.013,0.437,0.207,3.219,-168.795,2.349
20:24:22:007,36.491,0.196,0.709,0.228,1.096,-165.745,-5.005
20:24:22:007,36.491,0.633,0.706,0.145,-0.151,-163.677,-9.880
20:24:22:03,36.513,1.058,0.558,-0.072,-1.643,-160.866,-16.968
20:24:22:085,36.569,1.288,0.523,-0.295,-2.495,-159.101,-21.229
20:24:22:086,36.570,2.494,-0.355,-1.103,-4.356,-157.541,-26.382
20:24:22:108,36.592,1.386,-0.154,-0.850,-6.446,-157.746,-27.875
20:24:22:138,36.621,0.742,-0.088,-0.695,-6.161,-157.749,-25.936
20:24:22:162,36.646,-0.749,0.095,-0.293,-3.732,-154.904,-22.016
20:24:22:188,36.671,0.472,0.066,-0.421,-2.510,-151.420,-19.415
20:24:22:214,36.697,0.867,0.031,-0.458,-2.704,-147.477,-15.618
20:24:22:239,36.723,-0.250,0.075,-0.172,-4.294,-146.908,-12.936
20:24:22:266,36.749,0.312,-0.004,0.077,-4.366,-146.475,-12.294
20:24:22:321,36.805,0.083,0.028,-0.079,-4.616,-146.394,-11.054
20:24:22:322,36.806,-0.036,-0.014,-0.079,-4.730,-146.335,-10.333
20:24:22:375,36.859,0.077,0.058,0.013,-5.034,-146.241,-9.466
20:24:22:376,36.859,0.039,0.020,0.018,-5.199,-146.363,-8.987
20:24:22:428,36.912,0.030,0.010,0.076,-5.324,-146.586,-8.432
20:24:22:428,36.912,0.120,0.097,-0.058,-5.303,-146.627,-7.878
20:24:22:45,36.934,0.018,0.018,0.011,-5.150,-146.791,-7.510
20:24:22:476,36.959,0.011,0.007,0.015,-4.852,-147.179,-6.844
20:24:22:503,36.986,0.013,0.005,0.018,-4.671,-147.420,-6.354
20:24:22:53,37.013,0.015,0.001,-0.003,-4.446,-147.830,-5.497
20:24:22:555,37.038,0.030,0.008,-0.018,-4.218,-148.243,-4.561
20:24:22:581,37.064,0.020,0.028,-0.001,-4.117,-148.507,-3.915
20:24:22:607,37.090,-0.013,0.015,0.000,-4.026,-148.930,-2.780
20:24:22:634,37.117,0.003,0.043,0.045,-4.013,-149.199,-1.994
20:24:22:66,37.143,-0.055,0.079,-0.003,-3.983,-149.551,-0.725
20:24:22:717,37.201,-0.045,0.095,0.038,-3.909,-149.841,0.231
20:24:22:769,37.253,-0.178,0.121,0.002,-3.487,-150.503,3.754
20:24:22:769,37.253,-0.158,0.196,0.048,-3.279,-150.549,5.285
20:24:22:791,37.274,-0.094,0.264,0.272,-2.900,-150.630,7.985
20:24:22:817,37.300,-0.262,0.282,0.243,-2.504,-150.910,10.206
20:24:22:843,37.327,-0.585,0.464,0.211,-1.680,-151.768,14.266
20:24:22:898,37.381,-1.072,0.406,0.490,-0.608,-153.168,19.085
20:24:22:925,37.408,-0.630,0.408,0.635,0.013,-154.195,22.843
20:24:22:926,37.409,-0.491,0.368,0.630,1.194,-155.197,29.381
20:24:22:95,37.434,-0.812,-0.234,0.467,2.176,-155.217,33.643
20:24:22:975,37.459,-0.145,-0.207,0.165,4.536,-154.515,38.594
20:24:23:002,37.486,-0.484,-0.453,0.628,6.963,-154.307,41.112
20:24:23:027,37.511,-0.569,-0.882,0.373,8.774,-156.241,40.938
20:24:23:054,37.537,-0.308,-0.944,0.139,10.898,-157.022,38.543
20:24:23:08,37.563,-0.298,-0.834,0.216,11.661,-157.854,36.431
20:24:23:106,37.589,-0.262,-0.593,0.242,11.830,-158.582,32.207
20:24:23:132,37.616,-0.299,-0.493,0.221,11.475,-158.867,28.713
20:24:23:158,37.642,-0.308,-0.370,0.266,10.307,-159.026,22.672
20:24:23:185,37.668,-0.321,-0.149,0.323,8.552,-158.714,15.988
20:24:23:211,37.694,-0.217,0.028,0.361,7.121,-157.846,11.354
20:24:23:24,37.723,-0.063,0.291,0.326,4.756,-155.428,4.009
20:24:23:265,37.748,0.383,0.710,0.271,3.158,-153.184,-1.224
20:24:23:29,37.774,0.910,0.837,0.044,1.013,-149.368,-9.547
20:24:23:346,37.829,1.302,0.755,-0.328,-0.406,-145.246,-17.661
20:24:23:346,37.829,1.514,0.158,-0.494,-0.896,-142.232,-22.238
20:24:23:369,37.853,2.216,-0.708,-2.364,-2.501,-138.590,-27.795
20:24:23:395,37.878,1.291,-0.009,-0.935,-4.632,-138.173,-29.420
20:24:23:421,37.904,-0.063,-0.197,-0.401,-4.639,-136.911,-26.744
20:24:23:447,37.931,-1.509,0.347,0.070,-2.505,-133.948,-23.948
20:24:23:474,37.957,0.112,0.086,-0.554,-0.103,-127.585,-20.157
20:24:23:503,37.986,0.827,-0.141,-1.057,-0.219,-121.902,-15.781
20:24:23:527,38.011,0.343,0.886,-1.157,-2.304,-121.397,-13.158
20:24:23:553,38.036,0.549,-0.252,-0.384,-2.438,-120.945,-12.160
20:24:23:578,38.062,0.076,-0.152,-0.070,-2.591,-120.820,-11.324
20:24:23:605,38.088,-0.099,0.011,0.016,-2.635,-120.892,-10.124
20:24:23:631,38.114,0.078,0.056,0.167,-2.665,-120.822,-9.422
20:24:23:657,38.141,0.117,0.039,0.014,-2.655,-120.615,-8.341
20:24:23:685,38.168,-0.013,0.033,-0.048,-2.424,-120.576,-7.273
20:24:23:74,38.223,0.037,0.019,0.010,-2.287,-120.600,-6.598
20:24:23:74,38.223,0.019,0.019,-0.024,-2.089,-120.425,-5.612
20:24:23:762,38.246,-0.007,-0.006,0.021,-1.961,-120.423,-4.932
20:24:23:788,38.272,0.014,0.020,-0.025,-1.755,-120.534,-3.942
20:24:23:816,38.300,-0.049,-0.003,-0.052,-1.671,-120.565,-2.841
20:24:23:841,38.325,-0.054,0.002,-0.008,-1.631,-120.582,-2.111
20:24:23:867,38.351,0.053,0.023,0.010,-1.602,-120.422,-1.063
20:24:23:894,38.377,0.019,0.004,-0.018,-1.536,-120.352,-0.372
20:24:23:921,38.405,-0.001,0.031,0.000,-1.396,-120.347,0.627
20:24:23:946,38.430,0.003,0.065,0.103,-1.181,-120.362,1.676
20:24:23:972,38.456,-0.012,0.097,0.091,-0.974,-120.318,2.452
20:24:24:03,38.514,-0.083,0.080,0.045,-0.548,-120.219,3.908
20:24:24:031,38.515,-0.173,0.107,0.082,-0.264,-120.148,5.089
20:24:24:032,38.516,0.071,0.186,0.268,0.120,-119.850,7.216
20:24:24:051,38.535,0.079,0.269,0.382,0.511,-119.726,8.903
20:24:24:106,38.590,-0.051,0.337,0.458,1.665,-119.968,12.160
20:24:24:107,38.590,-0.474,0.431,0.755,3.331,-120.713,16.291
20:24:24:159,38.643,-0.487,0.511,1.149,4.365,-121.432,19.559
20:24:24:16,38.643,0.162,0.503,0.877,5.946,-121.981,25.490
20:24:24:211,38.695,-0.141,-0.025,0.867,7.191,-121.466,29.741
20:24:24:212,38.696,-0.149,-0.318,0.749,9.935,-120.349,35.618
20:24:24:236,38.719,0.329,-0.798,-0.279,13.265,-118.944,39.303
20:24:24:262,38.745,-0.123,-0.485,0.844,13.821,-119.005,39.203
20:24:24:316,38.800,-0.108,-0.987,0.539,14.843,-117.827,37.949
20:24:24:317,38.801,0.100,-0.791,0.325,14.998,-117.131,36.756
20:24:24:34,38.823,0.195,-0.690,0.344,14.514,-115.874,33.701
20:24:24:366,38.849,0.143,-0.559,0.374,13.418,-114.630,29.138
20:24:24:421,38.905,0.173,-0.461,0.437,12.344,-113.588,25.552
20:24:24:422,38.906,0.255,-0.234,0.358,10.347,-111.677,19.657
20:24:24:445,38.928,0.298,-0.134,0.395,8.890,-109.989,15.452
20:24:24:5,38.984,0.403,0.120,0.363,6.419,-106.395,8.694
20:24:24:501,38.984,0.510,0.388,0.141,4.661,-103.372,3.802
20:24:24:523,39.007,0.608,0.634,-0.293,2.066,-98.635,-4.065
20:24:24:551,39.034,0.680,0.771,-0.942,-0.242,-94.458,-12.011
20:24:24:577,39.060,0.541,0.690,-1.241,-1.508,-92.095,-16.957
20:24:24:602,39.086,-0.273,-0.010,-1.947,-3.627,-89.696,-23.462
20:24:24:629,39.112,-0.110,-0.078,-2.225,-5.528,-89.098,-26.523
20:24:24:655,39.138,-0.405,-0.182,-1.760,-6.844,-88.767,-26.923
20:24:24:681,39.164,-0.744,0.047,-0.097,-4.982,-86.975,-22.973
20:24:24:707,39.191,-0.850,0.790,1.274,-3.401,-83.911,-20.287
20:24:24:736,39.219,-0.417,0.184,-0.560,-2.560,-78.776,-16.358
20:24:24:761,39.244,-0.290,0.329,-0.809,-3.704,-77.539,-13.966
20:24:24:786,39.270,-0.040,0.180,0.154,-4.515,-76.839,-12.315
20:24:24:812,39.296,0.139,0.085,-0.012,-4.748,-76.587,-11.668
20:24:24:838,39.322,-0.027,0.053,-0.042,-4.998,-76.546,-10.543
20:24:24:865,39.348,-0.044,-0.009,-0.071,-5.193,-76.296,-9.636
20:24:24:891,39.374,0.047,0.048,-0.044,-5.432,-76.381,-9.041
20:24:24:918,39.401,0.037,0.009,0.016,-5.566,-76.725,-8.331
20:24:24:944,39.427,0.076,0.051,0.020,-5.573,-76.940,-8.003
20:24:24:97,39.453,0.069,0.013,-0.001,-5.589,-77.126,-7.410
20:24:24:998,39.481,-0.009,0.040,-0.048,-5.487,-77.386,-6.681
20:24:25:023,39.507,-0.006,0.004,-0.007,-5.388,-77.647,-6.220
20:24:25:051,39.535,0.042,0.016,0.001,-5.284,-78.075,-5.481
20:24:25:074,39.558,-0.003,0.000,0.006,-5.234,-78.378,-4.932
20:24:25:101,39.584,0.018,0.002,-0.017,-5.156,-78.713,-4.039
20:24:25:128,39.611,0.042,0.036,-0.010,-5.134,-78.887,-3.374
20:24:25:155,39.639,0.002,0.049,0.017,-5.135,-79.184,-2.232
20:24:25:18,39.664,-0.055,0.051,0.053,-5.115,-79.438,-1.051
20:24:25:206,39.689,0.007,0.043,0.041,-5.091,-79.559,-0.242
20:24:25:232,39.716,0.031,0.039,0.088,-5.032,-79.868,1.116
20:24:25:288,39.771,0.016,0.094,0.113,-4.986,-80.018,2.100
20:24:25:288,39.771,-0.085,0.093,0.127,-4.821,-80.160,3.842
20:24:25:312,39.796,0.134,0.167,0.170,-4.645,-80.141,5.878
20:24:25:34,39.823,0.273,0.212,0.156,-4.463,-80.130,7.467
20:24:25:392,39.876,0.135,0.265,0.305,-3.905,-80.599,10.420
20:24:25:393,39.877,0.048,0.273,0.421,-3.371,-81.387,12.866
20:24:25:416,39.899,-0.036,0.369,0.783,-2.436,-82.669,17.193
20:24:25:472,39.955,0.203,0.390,1.067,-1.858,-83.683,20.520
20:24:25:472,39.955,0.387,0.354,0.692,-0.945,-85.259,26.453
20:24:25:525,40.008,0.493,0.159,0.830,0.001,-85.980,32.822
20:24:25:525,40.008,0.064,-0.147,0.700,1.058,-86.109,36.544
20:24:25:634,40.118,0.183,-0.602,-0.457,4.030,-86.067,40.689
20:24:25:635,40.119,0.381,-0.587,0.907,5.620,-87.725,41.234
20:24:25:636,40.119,0.000,-0.967,0.459,7.914,-89.393,39.625
20:24:25:652,40.135,0.077,-0.766,0.382,9.716,-91.347,34.808
20:24:25:737,40.220,0.044,-0.568,0.424,9.014,-92.211,30.222
20:24:25:737,40.221,0.030,-0.483,0.458,8.045,-92.450,26.573
20:24:25:738,40.222,0.073,-0.265,0.447,5.976,-92.234,20.375
20:24:25:757,40.241,0.117,-0.038,0.371,4.387,-91.652,15.856
20:24:25:784,40.267,0.108,0.120,0.326,1.906,-90.125,8.456
20:24:25:809,40.293,0.116,0.483,0.176,-0.519,-87.921,0.405
20:24:25:839,40.322,0.136,0.738,-0.169,-2.068,-86.000,-5.181
20:24:25:862,40.345,0.294,0.873,-0.958,-4.027,-82.505,-13.601
20:24:25:889,40.372,-0.430,1.360,-1.231,-5.101,-80.259,-18.723
20:24:25:917,40.401,-0.096,-0.242,-2.819,-5.504,-77.112,-24.378
20:24:25:97,40.454,-1.466,-0.455,-2.561,-6.953,-76.824,-26.717
20:24:25:971,40.454,-0.501,0.238,-0.301,-6.540,-77.155,-24.358
20:24:26:024,40.508,-0.918,0.116,0.093,-4.267,-73.952,-20.483
20:24:26:025,40.508,0.162,-0.253,-0.803,-3.730,-71.618,-17.347
20:24:26:046,40.529,-0.780,0.839,-0.839,-5.901,-70.500,-13.188
20:24:26:073,40.556,-0.017,-0.065,-0.379,-5.754,-70.184,-12.131
20:24:26:1,40.584,0.090,-0.088,-0.076,-5.703,-70.451,-11.240
20:24:26:127,40.610,-0.028,-0.047,0.075,-5.743,-70.668,-10.107
20:24:26:153,40.636,0.003,0.033,-0.039,-5.822,-70.795,-9.582
20:24:26:178,40.662,0.016,0.052,-0.090,-6.001,-70.900,-8.904
20:24:26:205,40.689,-0.032,0.028,-0.028,-6.039,-71.383,-8.578
20:24:26:261,40.744,-0.009,0.025,-0.017,-6.160,-71.801,-8.164
20:24:26:261,40.744,0.068,0.009,-0.009,-6.242,-72.422,-7.785
20:24:26:286,40.769,0.012,0.003,0.025,-6.228,-72.654,-7.467
20:24:26:286,40.769,0.010,0.017,-0.009,-6.142,-73.008,-6.870
20:24:26:308,40.792,0.002,0.003,-0.013,-6.009,-73.156,-6.480
20:24:26:364,40.848,0.002,0.008,-0.001,-5.738,-73.599,-5.831
20:24:26:365,40.849,-0.006,0.011,-0.007,-5.425,-73.760,-5.112
20:24:26:387,40.871,0.006,0.016,-0.003,-5.222,-74.188,-4.578
20:24:26:417,40.900,-0.007,0.018,0.003,-4.962,-74.417,-3.626
20:24:26:44,40.923,0.038,0.016,0.041,-4.810,-74.675,-2.883
20:24:26:467,40.950,0.031,0.031,0.034,-4.640,-74.956,-1.689
20:24:26:492,40.976,-0.008,0.075,0.079,-4.374,-75.299,-0.268
20:24:26:548,41.031,-0.078,0.068,0.129,-4.155,-75.470,0.806
20:24:26:548,41.032,0.108,0.145,0.082,-3.792,-75.683,2.600
20:24:26:572,41.055,0.213,0.170,0.070,-3.444,-75.564,3.951
20:24:26:597,41.081,0.100,0.202,0.177,-2.733,-75.983,6.363
20:24:26:653,41.136,0.049,0.234,0.282,-2.195,-76.208,8.313
20:24:26:653,41.137,0.063,0.245,0.353,-1.401,-76.617,11.890
20:24:26:676,41.160,0.217,0.366,0.725,-0.476,-77.396,16.070
20:24:26:733,41.216,0.393,0.374,0.861,0.063,-77.997,19.256
20:24:26:733,41.216,0.402,0.333,0.513,1.155,-79.279,24.863
20:24:26:755,41.238,0.432,0.153,0.680,2.054,-79.791,28.836
20:24:26:811,41.295,0.173,-0.281,0.432,4.164,-79.941,34.191
20:24:26:811,41.295,0.121,-0.802,-0.660,7.282,-79.675,37.740
20:24:26:863,41.346,0.410,-0.488,0.652,8.478,-80.995,38.156
20:24:26:864,41.347,0.104,-0.929,0.462,10.286,-82.022,36.640
20:24:26:887,41.371,0.058,-0.868,0.332,11.112,-82.632,35.235
20:24:26:943,41.427,0.179,-0.666,0.258,11.151,-83.162,32.214
20:24:26:943,41.427,0.181,-0.560,0.355,10.597,-83.441,29.432
20:24:27:053,41.537,0.188,-0.444,0.370,9.204,-83.381,24.396
20:24:27:053,41.537,0.211,-0.232,0.333,7.215,-82.801,18.636
20:24:27:054,41.537,0.285,-0.072,0.334,5.648,-82.001,14.471
20:24:27:054,41.538,0.270,0.141,0.236,3.145,-80.021,7.768
20:24:27:07,41.553,0.294,0.466,0.047,1.447,-78.283,2.990
20:24:27:096,41.580,0.250,0.722,-0.331,-0.996,-75.419,-4.576
20:24:27:124,41.607,0.126,0.773,-0.787,-3.242,-73.009,-12.315
20:24:27:149,41.633,-0.058,0.589,-1.162,-4.603,-71.816,-17.178
20:24:27:175,41.658,-1.109,-0.456,-1.557,-6.925,-70.569,-23.374
20:24:27:201,41.685,-1.235,-0.260,-2.295,-9.034,-71.042,-26.372
20:24:27:227,41.711,-0.755,-0.149,-1.135,-11.099,-71.851,-26.984
20:24:27:256,41.739,-0.872,0.093,0.455,-10.202,-71.561,-24.866
20:24:27:282,41.766,-0.277,0.712,1.585,-7.109,-67.267,-20.829
20:24:27:306,41.789,-0.642,0.112,-0.497,-5.324,-60.491,-16.916
20:24:27:332,41.816,-0.682,0.069,-0.760,-5.974,-58.385,-14.498
20:24:27:36,41.843,0.015,-0.005,0.010,-6.527,-57.127,-12.534
20:24:27:386,41.870,0.089,0.078,-0.124,-6.520,-56.496,-11.431
20:24:27:411,41.895,-0.071,0.044,-0.051,-6.329,-56.456,-9.837
20:24:27:438,41.921,-0.095,0.070,-0.015,-6.274,-56.373,-9.011
20:24:27:464,41.948,-0.103,0.205,-0.277,-6.302,-56.169,-8.116
20:24:27:49,41.974,-0.001,0.028,-0.024,-6.010,-56.507,-7.568
20:24:27:516,41.999,0.004,0.052,0.001,-5.859,-56.903,-7.059
20:24:27:542,42.026,0.068,0.003,-0.022,-5.639,-57.371,-6.199
20:24:27:569,42.052,-0.014,0.013,-0.034,-5.471,-57.551,-5.553
20:24:27:595,42.078,-0.023,0.014,-0.023,-5.292,-57.830,-4.531
20:24:27:621,42.105,-0.013,-0.015,-0.033,-5.246,-58.174,-3.391
20:24:27:649,42.133,-0.024,0.011,-0.008,-5.267,-58.446,-2.610
20:24:27:673,42.157,-0.026,0.038,0.001,-5.283,-58.843,-1.515
20:24:27:701,42.185,-0.020,0.008,-0.008,-5.264,-59.688,-0.777
20:24:27:726,42.210,-0.022,0.002,-0.008,-5.265,-60.039,0.251
20:24:27:754,42.237,0.020,0.023,0.012,-5.282,-61.092,1.239
20:24:27:78,42.264,0.022,0.032,0.035,-5.254,-61.290,1.949
20:24:27:805,42.289,0.030,0.095,0.061,-5.151,-62.067,3.115
20:24:27:831,42.315,-0.047,0.115,0.168,-5.056,-62.270,4.061
20:24:27:857,42.341,-0.036,0.117,0.173,-4.931,-63.066,5.846
20:24:27:883,42.367,0.256,0.207,0.117,-4.786,-63.261,8.145
20:24:27:911,42.394,0.219,0.227,0.177,-4.596,-63.967,9.992
20:24:27:937,42.421,0.117,0.298,0.335,-4.114,-64.624,13.395
20:24:27:963,42.447,0.118,0.367,0.488,-3.687,-65.885,16.023
20:24:27:989,42.473,0.394,0.508,0.885,-2.977,-68.008,20.408
20:24:28:015,42.499,0.542,0.424,0.532,-2.183,-69.977,23.938
20:24:28:072,42.555,0.529,0.429,0.496,-0.955,-72.013,29.923
20:24:28:072,42.556,0.170,-0.196,0.561,0.843,-73.089,35.390
20:24:28:093,42.577,0.190,-0.324,0.282,2.589,-73.617,38.113
20:24:28:121,42.604,0.461,-0.493,0.534,6.232,-76.283,40.007
20:24:28:148,42.631,0.121,-0.945,0.541,7.973,-78.443,38.953
20:24:28:204,42.687,-0.044,-0.950,0.481,10.474,-81.666,36.457
20:24:28:204,42.687,0.029,-0.708,0.429,11.163,-83.696,33.228
20:24:28:225,42.708,0.000,-0.568,0.433,10.750,-84.654,30.502
20:24:28:251,42.734,-0.009,-0.452,0.474,9.283,-85.525,25.561
20:24:28:277,42.761,0.077,-0.225,0.425,7.837,-85.734,21.825
20:24:28:304,42.787,0.103,-0.067,0.420,5.342,-85.298,15.564
20:24:28:332,42.815,0.111,0.104,0.287,3.632,-84.541,11.071
20:24:28:356,42.840,0.117,0.339,0.271,1.102,-82.970,3.845
20:24:28:382,42.866,0.172,0.712,-0.125,-1.315,-80.791,-3.836
20:24:28:411,42.895,0.141,0.803,-0.506,-2.801,-79.086,-9.115
20:24:28:412,42.895,-0.186,0.612,-1.050,-4.547,-76.335,-17.052
20:24:28:436,42.920,-0.272,0.994,-1.211,-5.606,-74.378,-21.768
20:24:28:548,43.032,-0.851,-0.478,-2.884,-6.971,-72.239,-27.066
20:24:28:549,43.033,-0.605,0.034,-1.088,-8.848,-72.626,-28.099
20:24:28:55,43.033,-0.830,-0.065,-0.781,-7.979,-72.014,-25.737
20:24:28:551,43.034,-0.368,0.027,0.314,-4.808,-67.446,-22.058
20:24:28:567,43.050,-0.438,-0.116,-0.638,-3.869,-63.446,-19.191
20:24:28:622,43.106,-0.325,0.148,-0.824,-4.740,-60.224,-15.178
20:24:28:623,43.106,0.099,-0.008,0.170,-5.545,-59.761,-13.358
20:24:28:676,43.159,-0.086,0.085,-0.145,-5.349,-58.936,-11.899
20:24:28:676,43.160,-0.061,0.091,-0.016,-5.347,-59.183,-10.361
20:24:28:698,43.181,-0.115,-0.043,-0.063,-5.314,-59.165,-9.689
20:24:28:723,43.207,0.040,0.048,-0.081,-5.469,-59.202,-8.776
20:24:28:808,43.291,-0.011,0.008,-0.041,-5.518,-59.393,-8.133
20:24:28:809,43.292,-0.023,0.028,-0.007,-5.477,-59.612,-7.324
20:24:28:809,43.293,0.052,0.027,-0.035,-5.354,-59.856,-6.627
20:24:28:829,43.312,0.004,0.014,-0.008,-5.249,-60.038,-6.067
20:24:28:855,43.338,-0.007,0.025,-0.017,-5.128,-60.295,-5.126
20:24:28:881,43.365,-0.006,0.027,-0.005,-5.089,-60.459,-4.410
20:24:28:937,43.420,-0.058,0.012,0.042,-5.056,-60.768,-3.193
20:24:28:937,43.421,-0.042,0.030,0.011,-5.013,-60.961,-2.382
20:24:28:96,43.443,-0.003,0.007,-0.041,-4.946,-61.969,-1.210
20:24:28:986,43.470,-0.026,0.002,-0.015,-4.850,-62.815,-0.108
20:24:29:013,43.496,-0.013,0.004,-0.005,-4.773,-62.919,0.590
20:24:29:038,43.522,0.020,0.041,0.025,-4.631,-63.612,1.649
20:24:29:094,43.577,0.010,0.063,0.064,-4.501,-63.717,2.439
20:24:29:095,43.578,-0.022,0.086,0.110,-4.277,-64.440,3.837
20:24:29:117,43.601,-0.065,0.108,0.198,-4.056,-64.620,5.627
20:24:29:143,43.627,0.062,0.178,0.198,-3.936,-65.253,7.094
20:24:29:17,43.653,0.301,0.256,0.157,-3.617,-65.312,9.714
20:24:29:196,43.680,0.303,0.318,0.276,-3.212,-66.218,11.863
20:24:29:223,43.706,0.216,0.421,0.621,-2.252,-67.133,15.761
20:24:29:249,43.732,0.560,0.408,0.961,-1.553,-68.555,18.760
20:24:29:277,43.760,0.498,0.373,0.579,-0.259,-70.704,24.333
20:24:29:302,43.785,0.504,0.241,0.619,1.232,-71.828,30.638
20:24:29:327,43.811,0.213,-0.228,0.509,2.728,-72.047,34.560
20:24:29:353,43.837,0.009,-0.892,-0.991,6.061,-72.122,39.016
20:24:29:381,43.864,0.540,-0.671,0.726,8.112,-73.280,39.853
20:24:29:407,43.891,0.159,-1.033,0.444,10.065,-74.828,38.328
20:24:29:461,43.945,0.143,-0.901,0.324,11.213,-75.135,35.908
20:24:29:462,43.946,0.237,-0.698,0.212,11.182,-75.097,33.700
20:24:29:486,43.969,0.210,-0.544,0.263,10.408,-74.957,29.264
20:24:29:514,43.997,0.262,-0.410,0.303,9.543,-74.679,25.675
20:24:29:567,44.050,0.251,-0.191,0.257,7.742,-73.732,19.671
20:24:29:567,44.050,0.327,-0.031,0.252,5.630,-71.967,13.167
20:24:29:593,44.076,0.314,0.146,0.184,4.063,-70.094,8.577
20:24:29:616,44.100,0.350,0.510,0.047,1.710,-66.144,1.151
20:24:29:642,44.126,0.260,0.711,-0.280,0.284,-62.731,-4.084
20:24:29:668,44.152,-0.024,0.842,-1.006,-1.264,-57.092,-12.078
20:24:29:695,44.178,-0.153,0.318,-1.450,-1.758,-53.367,-17.061
20:24:29:721,44.204,-0.910,-0.069,-1.727,-2.078,-48.084,-23.382
20:24:29:747,44.231,-1.816,-0.525,-1.896,-4.368,-46.440,-27.807
20:24:29:775,44.258,-0.907,-0.076,-1.008,-6.169,-46.652,-28.208
20:24:29:8,44.283,-0.581,0.096,0.598,-5.019,-45.391,-25.160
20:24:29:827,44.311,-0.091,0.221,0.821,-3.238,-42.759,-22.575
20:24:29:852,44.336,-0.619,0.127,-0.178,-1.868,-37.089,-18.973
20:24:29:88,44.363,-0.815,0.350,-0.239,-2.757,-33.856,-15.457
20:24:29:905,44.388,0.428,0.065,-0.012,-3.580,-33.746,-14.061
20:24:29:931,44.414,0.076,-0.013,-0.142,-3.653,-33.139,-12.816
20:24:29:957,44.441,-0.064,-0.073,-0.071,-3.652,-32.959,-11.873
20:24:29:984,44.467,-0.128,-0.040,0.052,-3.608,-32.641,-10.616
20:24:30:012,44.496,0.053,0.064,-0.142,-3.676,-32.400,-9.880
20:24:30:037,44.520,0.037,0.028,-0.045,-3.626,-32.086,-8.848
20:24:30:063,44.546,-0.204,0.168,-0.147,-3.427,-31.931,-7.684
20:24:30:09,44.573,0.005,0.031,-0.010,-3.123,-31.945,-7.053
20:24:30:115,44.598,-0.011,0.001,0.002,-2.644,-32.126,-6.046
20:24:30:141,44.624,-0.032,0.010,-0.010,-2.414,-32.208,-5.345
20:24:30:168,44.651,-0.072,-0.030,-0.011,-2.187,-32.262,-4.182
20:24:30:196,44.679,-0.060,-0.018,0.004,-2.076,-32.269,-3.394
20:24:30:249,44.732,-0.054,0.004,0.009,-1.922,-32.279,-2.362
20:24:30:25,44.733,-0.050,0.027,-0.003,-1.806,-32.264,-1.434
20:24:30:273,44.756,-0.042,0.025,-0.018,-1.751,-32.239,-0.844
20:24:30:357,44.840,-0.024,0.024,0.018,-1.693,-32.262,-0.019
20:24:30:358,44.841,0.059,0.059,0.044,-1.625,-33.092,0.829
20:24:30:358,44.841,0.093,0.101,0.040,-1.517,-33.050,1.569
20:24:30:436,44.919,0.063,0.102,0.077,-1.257,-33.482,2.915
20:24:30:436,44.920,0.080,0.126,0.137,-1.033,-33.443,4.117
20:24:30:437,44.920,0.307,0.244,-0.065,-0.589,-33.935,6.313
20:24:30:458,44.941,0.370,0.308,-0.022,-0.090,-33.991,8.160
20:24:30:484,44.967,0.431,0.294,0.131,1.086,-34.818,11.597
20:24:30:509,44.993,0.711,0.371,0.443,2.627,-35.722,15.850
20:24:30:535,45.018,0.954,0.473,0.393,3.513,-36.179,19.148
20:24:30:561,45.044,0.790,0.395,0.043,5.152,-36.787,25.016
20:24:30:675,45.159,0.861,0.114,0.219,6.508,-36.540,29.090
20:24:30:676,45.159,0.575,-0.250,0.233,9.242,-36.010,34.567
20:24:30:677,45.160,-0.525,-1.061,-0.560,11.981,-34.598,37.865
20:24:30:678,45.161,0.795,-0.592,0.099,11.966,-34.383,37.771
20:24:30:696,45.180,0.400,-0.890,0.145,12.365,-33.264,36.511
20:24:30:696,45.180,0.288,-0.760,0.004,12.156,-32.495,35.198
20:24:30:748,45.231,0.357,-0.594,-0.123,11.465,-31.677,31.905
20:24:30:749,45.232,0.373,-0.511,0.000,10.947,-31.304,28.900
20:24:30:799,45.282,0.409,-0.431,-0.002,9.866,-30.714,23.663
20:24:30:827,45.310,0.350,-0.220,-0.056,8.318,-29.879,17.750
20:24:30:827,45.311,0.421,-0.140,-0.054,7.008,-28.927,13.470
20:24:30:85,45.333,0.351,0.070,-0.099,4.573,-26.504,6.610
20:24:30:88,45.363,0.200,0.412,-0.180,2.807,-24.217,1.730
20:24:30:902,45.386,-0.244,0.713,-0.421,0.219,-20.218,-5.970
20:24:30:929,45.412,-0.751,0.752,-0.659,-1.696,-15.876,-13.918
20:24:30:955,45.438,-1.245,0.602,-0.544,-2.476,-13.056,-18.836
20:24:30:983,45.467,-2.002,-0.376,-0.451,-3.582,-9.855,-24.594
20:24:31:034,45.518,-3.427,-0.460,-0.514,-5.160,-9.117,-27.085
20:24:31:062,45.546,-1.280,0.075,-0.079,-6.344,-9.927,-26.349
20:24:31:063,45.547,0.568,0.522,0.960,-4.413,-8.892,-23.644
20:24:31:087,45.570,-0.005,-0.013,0.628,-2.589,-4.787,-20.047
20:24:31:112,45.596,-1.132,-0.362,-0.447,-2.766,-0.409,-16.414
20:24:31:14,45.623,-0.938,0.288,0.119,-4.034,0.225,-14.355
20:24:31:167,45.650,-0.091,-0.072,-0.019,-4.115,1.224,-13.051
20:24:31:218,45.701,0.083,0.076,-0.024,-4.224,1.541,-12.071
20:24:31:247,45.730,-0.174,0.033,0.115,-4.296,1.603,-10.750
20:24:31:247,45.731,-0.012,0.069,-0.034,-4.576,1.582,-9.791
20:24:31:272,45.756,-0.017,0.004,-0.078,-4.698,1.580,-9.277
20:24:31:296,45.779,-0.001,0.041,-0.038,-4.674,1.549,-8.583
20:24:31:322,45.806,-0.083,0.107,-0.026,-4.638,1.459,-8.128
20:24:31:349,45.832,-0.007,0.020,-0.070,-4.377,1.959,-7.504
20:24:31:404,45.888,-0.025,0.007,0.010,-4.076,1.685,-6.718
20:24:31:405,45.888,-0.014,0.012,0.007,-3.924,2.126,-6.123
20:24:31:429,45.912,-0.022,-0.004,0.013,-3.742,1.868,-5.170
20:24:31:454,45.937,0.012,0.019,-0.006,-3.656,2.252,-4.488
20:24:31:511,45.994,-0.029,-0.020,-0.001,-3.623,2.086,-3.292
20:24:31:512,45.995,-0.013,0.023,0.023,-3.617,2.438,-2.506
20:24:31:532,46.016,-0.006,0.011,0.021,-3.630,2.269,-1.390
20:24:31:559,46.043,-0.014,0.019,0.013,-3.661,2.622,-0.296
20:24:31:645,46.129,0.014,0.020,-0.024,-3.667,2.572,0.428
20:24:31:645,46.129,0.047,0.081,-0.037,-3.610,2.954,1.590
20:24:31:645,46.129,0.078,0.084,-0.016,-3.504,2.897,2.487
20:24:31:665,46.148,0.092,0.110,0.002,-3.261,3.306,4.055
20:24:31:69,46.173,0.152,0.174,-0.134,-2.903,3.307,5.967
20:24:31:716,46.200,0.177,0.214,-0.186,-2.521,3.561,7.520
20:24:31:743,46.226,0.311,0.258,-0.045,-1.649,3.097,10.445
20:24:31:798,46.281,0.455,0.296,-0.036,-0.905,2.912,12.768
20:24:31:798,46.282,0.767,0.378,-0.057,0.250,1.944,16.835
20:24:31:821,46.305,0.944,0.470,-0.333,0.886,1.144,20.017
20:24:31:847,46.331,0.722,0.424,-0.469,1.970,0.095,25.767
20:24:31:873,46.357,0.770,0.093,-0.279,3.399,-0.022,31.929
20:24:31:9,46.383,0.656,-0.188,-0.149,5.045,-0.040,35.476
20:24:31:926,46.410,-0.948,-1.062,-0.250,8.704,-0.053,38.878
20:24:31:952,46.436,0.889,-0.577,-0.274,9.475,-1.635,38.844
20:24:31:98,46.464,0.414,-1.005,-0.024,11.146,-2.164,37.172
20:24:32:006,46.489,0.299,-0.812,-0.059,11.418,-2.306,34.631
20:24:32:031,46.515,0.325,-0.611,-0.129,10.921,-2.585,32.256
20:24:32:057,46.541,0.313,-0.458,-0.107,9.769,-2.950,27.793
20:24:32:084,46.567,0.346,-0.312,-0.079,8.730,-2.943,24.326
20:24:32:112,46.595,0.361,-0.167,-0.122,6.862,-2.592,18.514
20:24:32:138,46.621,0.330,-0.057,-0.166,5.481,-2.026,14.410
20:24:32:162,46.646,0.233,0.110,-0.163,3.226,-0.287,7.917
20:24:32:19,46.673,0.158,0.406,-0.222,0.850,2.472,0.897
20:24:32:215,46.699,-0.063,0.582,-0.260,-0.623,4.874,-4.030
20:24:32:241,46.724,-0.651,0.766,-0.282,-2.395,8.935,-11.689
20:24:32:268,46.751,-1.054,0.704,-0.195,-3.255,11.585,-16.664
20:24:32:323,46.807,-1.640,-0.105,0.556,-4.470,14.713,-23.348
20:24:32:324,46.807,-2.577,-0.215,0.830,-7.188,15.117,-28.385
20:24:32:346,46.829,-1.097,-0.081,0.502,-8.686,14.406,-29.146
20:24:32:375,46.859,-0.993,-0.213,0.617,-7.881,14.847,-26.118
20:24:32:398,46.882,1.986,1.278,0.525,-6.311,16.697,-23.505
20:24:32:427,46.910,-0.247,-0.329,0.503,-4.086,21.294,-19.677
20:24:32:453,46.936,-0.735,-0.007,0.368,-4.442,23.902,-15.817
20:24:32:508,46.991,0.040,0.178,0.150,-5.552,23.886,-14.040
20:24:32:508,46.992,-0.303,-0.152,-0.101,-5.689,24.931,-12.929
20:24:32:53,47.013,-0.106,0.064,0.013,-5.837,25.024,-12.097
20:24:32:585,47.069,0.072,-0.042,-0.006,-5.929,24.659,-11.103
20:24:32:586,47.069,0.010,0.073,-0.075,-6.095,24.529,-10.132
20:24:32:667,47.150,-0.129,-0.003,0.021,-6.078,24.463,-9.546
20:24:32:667,47.151,-0.023,0.078,-0.051,-5.922,24.132,-8.830
20:24:32:668,47.152,0.060,0.029,-0.080,-5.773,23.991,-8.259
20:24:32:687,47.171,-0.026,0.032,-0.004,-5.373,23.783,-7.436
20:24:32:715,47.198,-0.043,0.012,0.024,-4.965,23.451,-6.526
20:24:32:74,47.223,-0.037,-0.006,-0.006,-4.739,23.256,-5.903
20:24:32:766,47.249,-0.012,0.040,-0.006,-4.486,23.271,-4.885
20:24:32:82,47.303,-0.030,-0.019,0.043,-4.227,22.753,-2.796
20:24:32:845,47.329,0.013,0.035,-0.017,-4.087,22.472,-1.783
20:24:32:871,47.355,0.022,0.057,-0.009,-3.977,22.343,-1.094
20:24:32:897,47.381,0.035,0.071,-0.019,-3.762,22.139,0.022
20:24:32:957,47.440,0.075,0.085,-0.043,-3.560,22.034,0.892
20:24:32:957,47.440,0.094,0.109,-0.034,-3.145,21.925,2.423
20:24:32:957,47.441,0.141,0.124,0.041,-2.836,21.940,3.681
20:24:33:007,47.490,0.205,0.176,-0.007,-2.434,21.925,6.022
20:24:33:008,47.491,0.075,0.271,-0.348,-1.993,22.128,8.865
20:24:33:06,47.544,0.208,0.286,-0.353,-1.477,22.002,11.110
20:24:33:061,47.544,0.527,0.341,-0.219,-0.259,21.313,15.068
20:24:33:107,47.591,1.079,0.443,-0.570,0.591,20.434,18.074
20:24:33:163,47.647,0.779,0.346,-0.552,1.966,18.984,23.475
20:24:33:164,47.647,0.646,0.293,-0.604,3.460,18.653,29.916
20:24:33:189,47.673,0.688,-0.145,-0.524,4.995,18.944,34.073
20:24:33:189,47.673,-0.225,-0.533,0.006,8.094,19.861,38.984
20:24:33:242,47.725,0.641,-0.517,-0.594,10.092,19.892,40.570
20:24:33:243,47.726,0.502,-0.916,-0.324,11.316,19.762,39.750
20:24:33:266,47.749,0.275,-0.882,-0.192,12.046,20.141,38.543
20:24:33:291,47.775,0.203,-0.762,-0.313,12.295,20.748,35.907
20:24:33:377,47.860,0.176,-0.605,-0.314,11.745,21.433,31.856
20:24:33:377,47.860,0.266,-0.521,-0.296,11.137,21.967,28.444
20:24:33:377,47.860,0.258,-0.326,-0.351,9.748,23.019,22.536
20:24:33:397,47.880,0.241,-0.206,-0.363,8.554,24.021,18.182
20:24:33:423,47.906,0.156,0.043,-0.434,6.471,26.389,11.223
20:24:33:478,47.961,0.012,0.387,-0.444,4.245,30.005,3.651
20:24:33:478,47.962,-0.323,0.594,-0.301,2.755,32.906,-1.727
20:24:33:501,47.984,-0.961,0.820,0.053,0.827,37.261,-9.984
20:24:33:527,48.011,-1.378,0.777,0.452,-0.103,40.240,-15.167
20:24:33:555,48.039,-1.454,0.645,0.626,-0.923,44.943,-21.582
20:24:33:609,48.093,-2.032,-0.360,2.210,-1.666,47.468,-24.984
20:24:33:61,48.093,-1.628,-0.319,1.969,-3.809,49.043,-27.071
20:24:33:633,48.117,-0.049,-0.092,0.469,-2.542,51.339,-23.582
20:24:33:66,48.144,1.080,0.227,-0.094,-0.723,54.575,-20.999
20:24:33:686,48.170,-0.064,0.163,0.768,0.102,59.960,-16.722
20:24:33:711,48.195,-0.500,0.533,1.207,-1.227,61.210,-14.075
20:24:33:737,48.220,0.002,-0.290,-0.121,-2.296,61.374,-12.078
20:24:33:765,48.248,-0.111,0.018,-0.021,-2.289,61.573,-10.689
20:24:33:792,48.276,0.054,0.101,0.048,-2.315,61.663,-9.688
20:24:33:845,48.328,-0.070,0.028,0.000,-2.313,62.088,-8.551
20:24:33:846,48.329,-0.109,0.044,-0.024,-2.351,62.258,-7.870
20:24:33:869,48.352,-0.016,0.033,0.014,-2.291,62.390,-6.859
20:24:33:895,48.378,-0.023,0.028,-0.008,-2.256,62.439,-6.187
20:24:33:921,48.404,-0.056,0.024,-0.026,-2.142,62.397,-5.343
20:24:33:948,48.431,-0.017,0.008,-0.031,-2.020,62.189,-4.409
20:24:33:976,48.459,0.009,0.059,-0.008,-1.966,62.119,-3.742
20:24:34:029,48.512,0.040,0.010,0.026,-1.863,62.042,-2.616
20:24:34:029,48.513,-0.026,-0.001,0.030,-1.812,62.057,-1.874
20:24:34:053,48.537,-0.062,-0.001,-0.014,-1.725,62.163,-0.836
20:24:34:08,48.563,-0.053,-0.013,0.006,-1.569,62.272,0.156
20:24:34:105,48.589,-0.022,0.019,-0.019,-1.426,62.293,0.776
20:24:34:131,48.615,0.001,0.051,-0.058,-1.166,62.300,1.750
20:24:34:158,48.641,0.018,0.030,-0.033,-0.923,62.345,2.504
20:24:34:184,48.667,0.000,0.096,-0.117,-0.511,62.408,3.798
20:24:34:21,48.693,0.150,0.136,-0.111,-0.221,62.450,4.842
20:24:34:236,48.720,0.047,0.158,-0.217,0.191,63.544,6.783
20:24:34:262,48.746,-0.126,0.199,-0.325,0.691,64.423,9.253
20:24:34:288,48.772,0.044,0.318,-0.417,1.210,64.418,11.248
20:24:34:315,48.798,0.219,0.313,-0.516,2.373,64.887,14.782
20:24:34:343,48.826,0.247,0.454,-1.049,3.210,64.613,17.528
20:24:34:368,48.852,0.086,0.371,-0.914,4.591,64.122,22.543
20:24:34:394,48.877,0.005,0.282,-0.932,6.406,63.494,28.607
20:24:34:42,48.903,0.140,-0.076,-0.901,8.053,63.637,32.753
20:24:34:447,48.931,0.030,-0.309,-0.324,11.216,64.239,38.286
20:24:34:475,48.958,-0.187,-0.543,-0.404,13.618,65.907,40.290
20:24:34:5,48.983,0.079,-0.921,-0.571,13.898,66.113,39.406
20:24:34:526,49.009,-0.017,-0.816,-0.315,14.133,67.181,37.503
20:24:34:552,49.036,-0.126,-0.772,-0.387,13.724,67.311,35.593
20:24:34:578,49.061,0.033,-0.629,-0.430,12.406,68.312,31.512
20:24:34:604,49.087,0.051,-0.546,-0.385,11.274,68.808,28.270
20:24:34:63,49.114,-0.003,-0.345,-0.451,9.027,70.011,22.691
20:24:34:656,49.139,-0.084,-0.170,-0.484,7.436,71.201,18.523
20:24:34:682,49.166,-0.143,0.017,-0.390,4.995,73.930,11.656
20:24:34:709,49.192,-0.226,0.376,-0.313,2.666,77.631,3.935
20:24:34:736,49.220,-0.448,0.856,0.269,1.248,80.553,-1.619
20:24:34:761,49.245,-0.568,0.896,0.807,-0.446,85.325,-10.133
20:24:34:787,49.271,-0.558,0.684,1.227,-1.068,88.794,-15.474
20:24:34:814,49.297,0.019,-0.068,2.170,-1.312,94.279,-22.031
20:24:34:84,49.323,0.253,-0.474,3.178,-3.255,96.761,-26.772
20:24:34:866,49.349,0.118,0.134,1.715,-5.045,96.315,-27.148
20:24:34:893,49.376,0.748,0.434,-0.826,-3.674,96.491,-23.395
20:24:34:919,49.402,0.820,-0.101,-0.265,-2.169,98.460,-20.664
20:24:34:945,49.428,0.282,-0.007,0.597,-1.618,102.237,-16.534
20:24:35:001,49.485,-0.272,0.410,0.276,-3.589,102.611,-13.346
20:24:35:001,49.485,-0.046,-0.066,-0.091,-4.127,102.795,-12.370
20:24:35:024,49.507,0.069,-0.029,0.105,-4.251,103.515,-11.222
20:24:35:051,49.535,0.131,-0.039,-0.007,-4.364,103.612,-10.300
20:24:35:077,49.560,-0.012,-0.004,0.019,-4.599,103.620,-9.276
20:24:35:103,49.586,-0.148,0.039,-0.037,-4.870,103.860,-8.413
20:24:35:159,49.642,-0.027,0.054,0.043,-4.867,103.914,-7.875
20:24:35:159,49.642,-0.020,0.024,-0.038,-4.757,103.632,-7.232
20:24:35:181,49.664,0.013,0.122,0.175,-4.669,103.590,-6.904
20:24:35:209,49.693,-0.061,0.020,0.012,-4.373,103.496,-6.408
20:24:35:292,49.776,0.011,0.009,-0.022,-4.124,103.236,-5.989
20:24:35:293,49.776,-0.001,0.002,0.012,-3.793,102.883,-5.294
20:24:35:293,49.777,-0.028,0.003,-0.014,-3.482,102.519,-4.537
20:24:35:316,49.799,-0.030,0.023,-0.032,-3.264,102.278,-4.016
20:24:35:316,49.800,-0.006,0.027,0.016,-2.942,102.037,-3.092
20:24:35:367,49.851,-0.013,0.024,-0.036,-2.816,101.832,-2.368
20:24:35:368,49.852,-0.006,0.011,-0.042,-2.655,101.535,-1.158
20:24:35:391,49.875,-0.054,0.060,-0.048,-2.498,101.313,0.078
20:24:35:447,49.930,-0.039,0.113,-0.062,-2.342,101.161,1.004
20:24:35:447,49.930,0.061,0.097,-0.164,-1.969,100.852,2.622
20:24:35:47,49.953,-0.094,0.199,-0.147,-1.656,100.787,3.867
20:24:35:496,49.980,-0.298,0.253,-0.155,-1.176,100.977,6.035
20:24:35:522,50.006,-0.203,0.308,-0.294,-0.712,101.059,7.781
20:24:35:548,50.032,-0.127,0.309,-0.378,0.172,100.728,11.148
20:24:35:575,50.058,-0.092,0.409,-0.708,1.124,100.381,15.576
20:24:35:602,50.086,-0.318,0.395,-1.136,1.845,99.938,18.909
20:24:35:627,50.110,-0.509,0.366,-0.879,2.783,99.101,24.618
20:24:35:654,50.137,-0.602,0.405,-0.680,3.664,98.530,29.048
20:24:35:68,50.164,-0.276,-0.433,-0.758,5.544,98.610,35.498
20:24:35:706,50.190,-0.189,-0.585,0.968,8.802,99.057,40.058
20:24:35:732,50.216,-0.377,-0.606,-0.174,11.240,98.705,42.170
20:24:35:759,50.242,-0.118,-0.999,-0.633,12.404,97.246,41.025
20:24:35:785,50.268,-0.070,-0.850,-0.303,13.272,96.936,39.690
20:24:35:811,50.294,-0.199,-0.753,-0.236,13.204,96.605,37.261
20:24:35:841,50.325,-0.163,-0.643,-0.390,12.431,96.440,34.892
20:24:35:864,50.347,-0.127,-0.580,-0.463,10.670,96.463,30.025
20:24:35:89,50.374,-0.222,-0.339,-0.394,8.445,96.723,24.224
20:24:35:918,50.402,-0.226,-0.174,-0.407,6.804,97.005,19.881
20:24:35:943,50.427,-0.225,0.023,-0.358,4.293,97.739,12.639
20:24:35:969,50.452,-0.223,0.275,-0.383,2.549,98.498,7.416
20:24:35:995,50.478,-0.184,0.730,-0.024,-0.103,100.483,-0.846
20:24:36:021,50.504,-0.156,0.904,0.638,-2.616,103.326,-9.431
20:24:36:076,50.560,0.374,0.874,1.213,-4.105,105.328,-15.197
20:24:36:077,50.561,0.399,-0.496,1.837,-5.932,107.843,-22.999
20:24:36:129,50.613,1.791,-0.651,3.981,-6.692,109.053,-27.055
20:24:36:13,50.613,0.470,0.100,0.991,-9.068,107.293,-28.216
20:24:36:154,50.638,0.483,0.843,-1.334,-8.505,106.643,-25.234
20:24:36:266,50.749,0.670,-0.069,-0.369,-5.273,109.989,-20.782
20:24:36:266,50.750,0.204,-0.203,1.243,-4.595,114.905,-16.268
20:24:36:267,50.751,0.369,0.440,0.849,-6.291,115.378,-13.596
20:24:36:268,50.752,-0.028,-0.167,0.405,-6.532,116.498,-12.025
20:24:36:286,50.769,0.098,0.025,0.074,-6.579,116.938,-11.078
20:24:36:368,50.852,0.090,0.029,-0.012,-6.710,116.678,-9.813
20:24:36:369,50.852,-0.050,0.040,0.027,-6.898,116.525,-8.898
20:24:36:369,50.853,0.007,0.013,0.056,-6.992,116.456,-8.282
20:24:36:419,50.902,-0.073,0.017,-0.021,-6.940,115.968,-7.515
20:24:36:419,50.903,0.030,0.090,0.020,-6.875,115.545,-7.161
20:24:36:472,50.955,-0.080,0.022,0.041,-6.664,115.185,-6.591
20:24:36:472,50.955,-0.016,0.017,-0.003,-6.450,114.840,-6.104
20:24:36:494,50.977,0.005,0.014,0.007,-6.130,114.245,-5.241
20:24:36:579,51.062,-0.012,0.012,0.000,-5.835,113.679,-4.257
20:24:36:579,51.062,-0.004,0.049,0.005,-5.662,113.285,-3.539
20:24:36:579,51.063,0.004,-0.040,0.032,-5.494,112.782,-2.227
20:24:36:6,51.084,0.009,0.028,-0.035,-5.433,112.465,-1.332
20:24:36:654,51.137,0.004,0.029,-0.026,-5.368,112.036,-0.106
20:24:36:654,51.138,-0.022,0.048,-0.049,-5.250,111.739,1.105
20:24:36:678,51.161,-0.028,0.052,-0.064,-5.101,111.527,2.013
20:24:36:704,51.187,-0.052,0.075,-0.113,-4.789,111.225,3.604
20:24:36:76,51.243,0.114,0.112,-0.196,-4.557,111.052,4.898
20:24:36:76,51.243,-0.198,0.221,-0.187,-4.272,111.041,7.256
20:24:36:812,51.295,-0.289,0.262,-0.190,-3.897,109.926,10.271
20:24:36:812,51.296,-0.196,0.268,-0.329,-3.480,109.586,12.729
20:24:36:835,51.318,-0.188,0.405,-0.572,-2.684,107.833,17.060
20:24:36:863,51.347,-0.396,0.410,-1.032,-2.071,106.952,20.285
20:24:36:888,51.371,-0.532,0.388,-0.871,-1.060,104.873,25.977
20:24:36:915,51.399,-0.530,0.355,-0.715,-0.144,103.774,30.360
20:24:36:941,51.425,-0.471,-0.218,-0.855,1.918,103.012,36.526
