Time,Second,AccelerationX,AccelerationY,AccelerationZ,EulerAnglesX,EulerAnglesY,EulerAnglesZ
20:16:41:536,0.000,-0.229,0.048,0.200,4.182,-8.112,9.134
20:16:41:537,0.000,-0.251,0.128,0.201,3.176,-8.145,8.191
20:16:41:588,0.051,-0.259,0.194,0.206,2.415,-8.183,7.662
20:16:41:589,0.052,-0.271,0.250,0.223,1.319,-8.281,7.073
20:16:41:613,0.076,-0.303,0.160,0.245,0.386,-8.208,6.775
20:16:41:638,0.101,-0.343,0.138,0.259,-0.150,-8.122,6.760
20:16:41:664,0.128,-0.374,0.027,0.272,-0.778,-8.346,7.015
20:16:41:691,0.155,-0.320,0.013,0.217,-1.029,-9.098,7.433
20:16:41:747,0.211,-0.232,0.092,0.149,-0.838,-10.781,8.560
20:16:41:748,0.211,-0.143,0.205,0.118,0.163,-12.597,10.172
20:16:41:8,0.263,-0.068,0.202,0.027,1.135,-13.607,11.403
20:16:41:8,0.263,-0.023,0.172,-0.019,2.923,-14.416,13.493
20:16:41:85,0.314,-0.058,0.077,-0.047,4.204,-14.615,15.017
20:16:41:851,0.315,-0.046,0.058,-0.080,6.055,-14.765,17.320
20:16:41:875,0.339,0.030,0.009,-0.106,7.302,-15.383,18.760
20:16:41:929,0.393,0.068,-0.014,-0.097,9.388,-16.575,20.806
20:16:41:93,0.393,0.144,-0.047,-0.100,11.616,-17.867,22.890
20:16:41:953,0.416,0.179,-0.066,-0.109,13.139,-18.481,24.327
20:16:41:979,0.442,0.230,-0.116,-0.129,15.444,-18.966,26.563
20:16:42:005,0.468,0.251,-0.152,-0.124,16.962,-19.021,28.063
20:16:42:09,0.553,0.282,-0.188,-0.117,19.117,-18.807,30.234
20:16:42:09,0.554,0.324,-0.216,-0.118,20.964,-18.310,32.211
20:16:42:091,0.555,0.358,-0.236,-0.131,21.977,-17.883,33.386
20:16:42:11,0.574,0.449,-0.149,-0.137,23.098,-17.087,34.802
20:16:42:137,0.601,0.475,-0.122,-0.106,23.544,-16.641,35.353
20:16:42:163,0.626,0.519,-0.105,-0.130,23.590,-15.917,35.427
20:16:42:189,0.652,0.572,-0.055,-0.144,22.924,-15.469,34.721
20:16:42:216,0.680,0.594,0.035,-0.149,22.147,-15.169,33.902
20:16:42:242,0.706,0.563,0.088,-0.201,20.560,-14.713,32.090
20:16:42:268,0.731,0.543,0.102,-0.220,19.316,-14.354,30.617
20:16:42:294,0.757,0.303,-0.051,-0.100,17.549,-13.597,28.372
20:16:42:321,0.784,0.339,0.007,-0.090,16.297,-13.227,26.902
20:16:42:346,0.810,0.396,0.076,-0.098,14.494,-12.825,24.955
20:16:42:372,0.836,0.332,0.057,-0.054,13.082,-11.681,23.411
20:16:42:399,0.863,0.284,0.016,-0.031,12.322,-10.191,22.482
20:16:42:425,0.889,0.123,-0.099,-0.032,11.142,-6.926,21.161
20:16:42:453,0.917,0.041,-0.147,-0.023,10.334,-4.460,20.241
20:16:42:479,0.943,-0.041,-0.195,-0.016,9.185,-0.687,18.739
20:16:42:504,0.968,-0.088,-0.181,0.028,8.473,1.519,17.637
20:16:42:53,0.994,-0.130,-0.169,0.045,7.353,4.832,15.830
20:16:42:556,1.020,-0.195,-0.141,0.076,6.033,7.990,13.863
20:16:42:583,1.047,-0.284,-0.084,0.120,5.144,9.920,12.504
20:16:42:609,1.073,-0.322,-0.077,0.211,3.848,12.375,10.496
20:16:42:637,1.100,-0.314,-0.087,0.263,2.986,13.314,9.231
20:16:42:661,1.125,-0.277,-0.061,0.254,1.705,14.468,7.776
20:16:42:688,1.151,-0.276,0.019,0.410,0.924,14.824,7.186
20:16:42:714,1.178,-0.235,0.081,0.445,0.507,15.006,7.087
20:16:42:828,1.291,-0.187,0.072,0.444,-0.120,15.386,7.266
20:16:42:828,1.292,-0.166,0.128,0.441,-0.573,15.759,7.637
20:16:42:829,1.293,-0.172,0.233,0.460,-1.182,16.118,8.489
20:16:42:845,1.309,-0.049,0.246,0.392,-1.364,16.129,10.559
20:16:42:903,1.366,-0.002,0.181,0.300,-0.886,16.050,12.337
20:16:42:903,1.367,0.093,0.200,0.165,-0.283,15.908,13.853
20:16:42:924,1.387,0.189,0.242,0.056,1.271,15.883,16.653
20:16:42:95,1.414,0.236,0.208,-0.004,2.680,16.114,18.732
20:16:42:976,1.440,0.274,0.226,-0.030,4.991,16.813,21.866
20:16:43:002,1.466,0.296,0.111,-0.132,7.336,17.779,24.857
20:16:43:031,1.494,0.265,0.006,-0.150,8.930,18.880,26.872
20:16:43:056,1.520,0.233,-0.072,-0.151,11.315,20.807,30.017
20:16:43:081,1.545,0.255,-0.108,-0.167,12.942,22.148,32.071
20:16:43:136,1.600,0.286,-0.165,-0.199,15.409,23.669,34.874
20:16:43:137,1.601,0.283,-0.221,-0.200,17.760,25.684,37.298
20:16:43:161,1.625,0.278,-0.249,-0.177,19.195,26.796,38.672
20:16:43:186,1.650,0.274,-0.284,-0.222,21.014,28.705,40.301
20:16:43:213,1.677,0.264,-0.310,-0.214,22.023,29.788,41.111
20:16:43:241,1.704,0.230,-0.339,-0.238,23.116,31.602,41.908
20:16:43:266,1.729,0.220,-0.316,-0.280,23.612,33.470,42.141
20:16:43:292,1.756,0.214,-0.263,-0.314,23.549,34.406,41.894
20:16:43:318,1.781,0.213,-0.166,-0.368,22.937,35.936,40.802
20:16:43:344,1.808,0.210,-0.092,-0.412,22.216,36.502,39.624
20:16:43:37,1.834,0.199,0.015,-0.429,20.626,37.540,37.261
20:16:43:397,1.860,0.170,0.125,-0.431,18.615,37.958,34.091
20:16:43:423,1.886,0.146,0.134,-0.441,17.148,38.329,31.636
20:16:43:449,1.912,0.083,0.218,-0.423,14.752,39.178,27.884
20:16:43:475,1.939,0.015,0.150,-0.233,13.225,40.161,25.441
20:16:43:501,1.965,0.019,0.159,-0.132,10.986,41.509,21.962
20:16:43:527,1.991,0.062,0.200,-0.180,8.941,42.990,19.028
20:16:43:554,2.018,0.059,0.198,-0.160,7.899,44.150,17.518
20:16:43:58,2.044,0.066,0.091,-0.088,6.866,47.059,15.729
20:16:43:636,2.099,0.005,-0.011,0.041,6.371,49.710,14.798
20:16:43:636,2.100,-0.046,-0.117,0.080,5.744,54.053,13.542
20:16:43:66,2.123,-0.067,-0.176,0.120,5.263,58.370,12.369
20:16:43:715,2.179,-0.063,-0.191,0.142,5.021,61.197,11.573
20:16:43:715,2.179,-0.056,-0.203,0.203,4.615,64.879,10.190
20:16:43:737,2.201,-0.059,-0.202,0.253,4.240,67.036,9.108
20:16:43:764,2.228,-0.023,-0.196,0.295,3.489,69.704,7.287
20:16:43:79,2.254,0.015,-0.135,0.337,2.881,71.151,6.031
20:16:43:817,2.280,0.036,-0.116,0.353,1.806,72.977,4.265
20:16:43:843,2.306,0.088,-0.114,0.395,0.671,74.477,2.805
20:16:43:869,2.332,0.157,-0.113,0.413,-0.115,75.320,2.061
20:16:43:898,2.362,0.201,-0.050,0.430,-1.396,76.348,1.331
20:16:43:898,2.362,0.237,-0.037,0.430,-2.218,76.814,1.076
20:16:43:951,2.414,0.272,0.103,0.416,-3.307,77.354,1.052
20:16:43:952,2.415,0.276,0.232,0.367,-4.086,77.797,1.445
20:16:44:005,2.468,0.273,0.187,0.347,-4.428,78.356,1.915
20:16:44:005,2.469,0.308,0.066,0.424,-4.771,79.570,2.890
20:16:44:056,2.520,0.320,0.065,0.464,-5.077,80.162,3.648
20:16:44:057,2.520,0.316,0.040,0.402,-5.565,79.425,4.918
20:16:44:079,2.543,0.305,0.123,0.270,-5.657,78.071,5.933
20:16:44:105,2.569,0.300,0.197,0.219,-5.243,75.403,7.765
20:16:44:22,2.683,0.206,0.235,0.130,-4.105,73.188,9.890
20:16:44:22,2.684,0.124,0.221,0.086,-2.969,71.658,11.463
20:16:44:221,2.685,0.080,0.117,0.070,-0.831,70.754,13.983
20:16:44:222,2.686,0.052,0.062,0.059,0.709,70.282,15.744
20:16:44:236,2.700,-0.022,-0.003,-0.013,2.935,69.913,18.452
20:16:44:264,2.727,-0.060,-0.062,-0.074,5.169,69.138,21.299
20:16:44:319,2.783,-0.061,-0.080,-0.104,6.713,69.007,23.224
20:16:44:319,2.783,-0.035,-0.093,-0.179,9.085,68.662,25.970
20:16:44:342,2.805,-0.053,-0.148,-0.233,10.650,68.416,27.647
20:16:44:368,2.831,-0.053,-0.183,-0.231,12.794,68.369,29.783
20:16:44:394,2.857,-0.061,-0.209,-0.248,14.036,68.403,30.916
20:16:44:423,2.886,-0.079,-0.208,-0.273,15.599,68.419,32.240
20:16:44:448,2.911,-0.080,-0.189,-0.287,15.672,68.201,32.062
20:16:44:473,2.937,-0.081,-0.148,-0.302,16.116,67.982,32.285
20:16:44:499,2.963,-0.063,-0.090,-0.311,16.318,67.706,32.013
20:16:44:525,2.989,-0.069,-0.026,-0.368,16.124,67.257,31.481
20:16:44:551,3.015,-0.045,0.028,-0.391,15.376,66.776,30.379
20:16:44:607,3.070,-0.005,0.107,-0.373,14.093,66.287,28.889
20:16:44:607,3.071,0.012,0.023,-0.286,13.019,66.143,27.640
20:16:44:69,3.154,0.004,0.076,-0.281,11.145,65.609,25.457
20:16:44:69,3.154,0.054,0.152,-0.201,9.879,65.202,23.838
20:16:44:69,3.154,0.110,0.131,-0.132,8.045,64.100,21.326
20:16:44:711,3.174,0.167,0.153,-0.187,6.300,62.957,19.123
20:16:44:736,3.199,0.181,0.134,-0.269,5.364,62.795,18.052
20:16:44:846,3.310,0.137,-0.087,-0.024,3.896,66.275,16.296
20:16:44:846,3.310,0.105,-0.154,0.013,3.393,69.907,15.267
20:16:44:847,3.311,0.047,-0.214,0.061,3.124,72.333,14.459
20:16:44:867,3.331,0.051,-0.215,0.088,2.826,75.698,13.003
20:16:44:893,3.356,0.056,-0.189,0.156,2.490,78.709,11.226
20:16:44:919,3.383,0.042,-0.163,0.199,2.169,80.205,9.858
20:16:44:947,3.411,0.050,-0.143,0.267,1.587,82.368,7.616
20:16:45:001,3.464,0.087,-0.135,0.322,1.118,83.264,6.061
20:16:45:001,3.465,0.139,-0.102,0.375,0.184,84.465,3.734
20:16:45:024,3.488,0.159,-0.123,0.389,-0.911,84.989,1.611
20:16:45:051,3.515,0.162,-0.137,0.386,-1.608,85.326,0.477
20:16:45:076,3.540,0.231,-0.020,0.428,-2.518,85.693,-0.649
20:16:45:103,3.566,0.211,0.062,0.442,-2.996,86.146,-1.123
20:16:45:129,3.592,0.211,0.147,0.459,-3.640,86.504,-1.547
20:16:45:155,3.619,0.242,0.265,0.516,-4.018,87.057,-1.706
20:16:45:181,3.645,0.247,0.177,0.517,-4.559,87.680,-1.835
20:16:45:208,3.672,0.260,0.051,0.520,-5.071,88.205,-1.560
20:16:45:234,3.698,0.309,0.002,0.546,-5.379,88.102,-1.025
20:16:45:26,3.724,0.261,-0.004,0.472,-5.747,86.849,0.268
20:16:45:286,3.750,0.216,0.082,0.344,-5.803,85.129,1.437
20:16:45:313,3.776,0.183,0.122,0.297,-5.329,82.463,3.572
20:16:45:339,3.802,0.092,0.155,0.241,-4.256,79.727,6.029
20:16:45:367,3.831,0.065,0.165,0.203,-3.302,78.307,7.753
20:16:45:393,3.857,0.015,0.107,0.157,-1.614,76.216,10.363
20:16:45:418,3.882,-0.014,0.056,0.116,-0.406,75.002,12.106
20:16:45:445,3.908,-0.056,0.019,0.053,1.549,73.108,14.715
20:16:45:472,3.935,-0.070,-0.004,-0.008,2.956,71.992,16.413
20:16:45:498,3.961,-0.093,-0.040,-0.058,5.245,70.227,18.863
20:16:45:523,3.986,-0.099,-0.093,-0.110,7.656,68.789,21.143
20:16:45:549,4.013,-0.119,-0.154,-0.162,9.265,68.067,22.548
20:16:45:575,4.039,-0.127,-0.187,-0.182,11.591,67.247,24.493
20:16:45:603,4.067,-0.143,-0.205,-0.229,13.010,66.997,25.701
20:16:45:629,4.092,-0.135,-0.204,-0.247,14.858,66.953,27.351
20:16:45:656,4.119,-0.152,-0.106,-0.320,15.674,66.975,28.315
20:16:45:682,4.146,-0.087,0.048,-0.341,16.349,66.995,28.861
20:16:45:735,4.199,-0.099,0.041,-0.419,16.923,66.926,28.986
20:16:45:736,4.200,-0.134,0.013,-0.493,17.038,67.251,28.787
20:16:45:788,4.252,-0.131,0.051,-0.406,16.767,68.288,28.436
20:16:45:789,4.253,-0.090,-0.044,-0.284,15.929,69.529,27.593
20:16:45:812,4.275,-0.104,-0.018,-0.311,15.010,69.779,26.653
20:16:45:897,4.361,0.008,-0.080,-0.209,13.374,69.518,24.880
20:16:45:897,4.361,0.074,0.099,-0.247,12.108,69.014,23.615
20:16:45:898,4.361,0.102,0.132,-0.294,10.129,67.813,21.768
20:16:45:917,4.381,0.112,0.083,-0.284,8.262,67.153,20.131
20:16:45:973,4.437,0.129,-0.024,-0.179,7.151,67.522,19.100
20:16:45:974,4.438,0.140,-0.109,-0.039,5.683,68.938,17.566
20:16:45:995,4.459,0.140,-0.164,0.015,4.758,70.395,16.533
20:16:46:022,4.485,0.141,-0.184,0.043,3.364,71.894,14.886
20:16:46:048,4.511,0.136,-0.196,0.081,2.020,73.596,13.046
20:16:46:074,4.537,0.161,-0.170,0.126,1.142,74.533,11.704
20:16:46:133,4.597,0.170,-0.143,0.172,-0.230,76.191,9.534
20:16:46:133,4.597,0.181,-0.112,0.238,-1.175,77.090,7.981
20:16:46:134,4.598,0.207,-0.122,0.298,-2.603,78.529,5.653
20:16:46:18,4.644,0.223,-0.123,0.354,-3.572,79.163,4.161
20:16:46:21,4.674,0.258,-0.102,0.438,-5.045,79.815,2.192
20:16:46:21,4.674,0.351,0.005,0.497,-6.331,79.843,0.981
20:16:46:262,4.725,0.357,0.016,0.512,-7.017,79.709,0.512
20:16:46:262,4.726,0.375,0.036,0.472,-7.761,79.816,0.210
20:16:46:315,4.779,0.363,0.139,0.497,-8.085,80.073,0.311
20:16:46:315,4.779,0.370,0.255,0.521,-8.348,80.806,0.755
20:16:46:338,4.802,0.340,0.137,0.494,-8.253,81.330,1.461
20:16:46:367,4.831,0.343,0.108,0.484,-8.064,81.579,2.163
20:16:46:389,4.853,0.254,0.101,0.415,-7.534,81.323,3.733
20:16:46:418,4.881,0.192,0.194,0.334,-6.901,80.739,5.152
20:16:46:446,4.909,0.102,0.254,0.207,-5.319,79.431,7.690
20:16:46:468,4.931,0.045,0.247,0.097,-3.873,78.701,9.530
20:16:46:496,4.960,0.053,0.248,0.050,-1.407,77.896,12.366
20:16:46:603,5.066,-0.004,0.092,0.009,1.064,77.601,15.251
20:16:46:604,5.067,-0.052,0.026,-0.028,2.619,77.606,17.211
20:16:46:741,5.204,-0.102,-0.059,-0.049,4.942,77.698,20.251
20:16:46:741,5.204,-0.116,-0.087,-0.090,6.547,77.593,22.252
20:16:46:742,5.205,-0.118,-0.108,-0.134,9.142,76.956,24.973
20:16:46:742,5.206,-0.105,-0.158,-0.223,11.795,76.026,27.248
20:16:46:873,5.337,-0.106,-0.187,-0.257,13.439,75.339,28.588
20:16:46:873,5.337,-0.125,-0.227,-0.288,15.584,75.057,30.424
20:16:46:873,5.337,-0.141,-0.251,-0.299,16.803,75.080,31.515
20:16:46:873,5.337,-0.128,-0.264,-0.308,18.314,75.410,32.869
20:16:46:899,5.363,-0.135,-0.230,-0.327,18.401,75.563,32.918
20:16:46:899,5.363,-0.134,-0.168,-0.350,18.322,75.942,32.827
20:16:46:899,5.363,-0.142,-0.153,-0.374,18.269,76.479,32.673
20:16:46:9,5.364,-0.144,-0.117,-0.395,17.833,76.793,32.219
20:16:46:945,5.409,-0.129,0.011,-0.410,16.604,77.236,30.971
20:16:46:945,5.409,-0.098,0.055,-0.340,15.483,77.366,29.647
20:16:47:055,5.519,-0.138,0.077,-0.352,13.480,77.415,26.949
20:16:47:056,5.520,-0.051,0.085,-0.146,11.340,77.739,23.789
20:16:47:056,5.520,0.017,0.081,-0.123,9.901,77.657,21.541
20:16:47:057,5.521,0.044,0.194,-0.169,7.561,77.519,18.373
20:16:47:132,5.596,0.045,0.257,-0.156,6.073,77.642,16.641
20:16:47:133,5.596,0.072,0.194,-0.093,4.232,78.955,14.535
20:16:47:133,5.597,0.126,0.019,0.020,2.951,81.598,12.816
20:16:47:177,5.641,0.141,-0.072,0.080,2.332,83.916,11.890
20:16:47:208,5.672,0.107,-0.181,0.120,1.576,87.729,10.701
20:16:47:209,5.673,0.100,-0.217,0.153,1.192,90.413,9.968
20:16:47:21,5.674,0.130,-0.223,0.181,0.770,94.280,8.780
20:16:47:287,5.751,0.144,-0.246,0.287,0.514,96.876,7.861
20:16:47:288,5.751,0.194,-0.234,0.274,-0.078,99.652,6.161
20:16:47:289,5.752,0.250,-0.208,0.320,-1.017,101.810,4.214
20:16:47:337,5.800,0.327,-0.134,0.346,-1.858,102.685,2.898
20:16:47:337,5.801,0.433,-0.087,0.352,-3.388,103.349,0.993
20:16:47:361,5.825,0.500,-0.012,0.308,-4.544,103.355,-0.096
20:16:47:417,5.881,0.550,0.053,0.289,-6.253,103.204,-1.204
20:16:47:417,5.881,0.552,0.085,0.264,-7.552,103.469,-1.531
20:16:47:439,5.903,0.529,0.149,0.269,-8.075,103.996,-1.312
20:16:47:598,6.062,0.513,0.297,0.267,-8.255,105.066,-0.385
20:16:47:634,6.097,0.480,0.221,0.196,-7.914,105.935,0.516
20:16:47:634,6.098,0.517,0.071,0.197,-7.084,107.148,2.164
20:16:47:635,6.099,0.377,-0.004,0.149,-6.409,107.816,3.454
20:16:47:636,6.099,0.343,0.072,0.138,-5.327,108.346,5.818
20:16:47:705,6.168,0.237,0.210,0.077,-3.749,108.072,8.532
20:16:47:705,6.169,0.175,0.269,0.031,-2.386,107.438,10.298
20:16:47:781,6.245,0.090,0.289,-0.057,0.076,106.275,12.606
20:16:47:808,6.271,0.048,0.191,-0.071,1.877,105.722,13.961
20:16:47:843,6.306,-0.049,0.100,-0.091,4.513,105.574,16.008
20:16:47:844,6.307,-0.106,-0.005,-0.071,7.028,106.387,18.467
20:16:47:844,6.308,-0.136,-0.068,-0.060,8.707,107.260,20.367
20:16:47:845,6.309,-0.145,-0.145,-0.097,11.283,108.736,23.432
20:16:47:921,6.385,-0.185,-0.206,-0.137,13.020,109.670,25.509
20:16:47:922,6.385,-0.179,-0.276,-0.134,15.598,111.144,28.481
20:16:47:923,6.386,-0.179,-0.318,-0.155,17.180,112.119,30.257
20:16:47:924,6.387,-0.180,-0.343,-0.169,19.189,113.666,32.449
20:16:48:019,6.482,-0.176,-0.330,-0.123,20.614,114.938,33.841
20:16:48:07,6.534,-0.172,-0.270,-0.077,21.232,115.574,34.209
20:16:48:185,6.649,-0.188,-0.175,-0.136,21.803,115.749,33.849
20:16:48:185,6.649,-0.174,-0.113,-0.162,21.981,115.705,33.051
20:16:48:185,6.649,-0.198,-0.043,-0.190,21.720,114.707,31.075
20:16:48:186,6.649,-0.187,0.039,-0.186,20.564,114.449,28.357
20:16:48:262,6.726,-0.207,0.185,-0.166,19.327,114.320,26.235
20:16:48:263,6.727,-0.206,0.171,-0.047,17.030,115.028,22.662
20:16:48:264,6.728,-0.213,0.183,0.034,15.490,115.917,20.284
20:16:48:265,6.728,-0.082,0.116,0.096,13.466,118.028,17.038
20:16:48:341,6.805,-0.026,0.078,0.139,11.733,120.110,14.331
20:16:48:341,6.805,-0.053,0.112,0.153,10.698,121.808,12.877
20:16:48:342,6.806,-0.058,0.156,0.147,9.588,124.345,11.193
20:16:48:343,6.807,0.004,0.087,0.141,9.138,126.688,10.287
20:16:48:393,6.857,0.037,0.028,0.132,8.668,130.226,9.182
20:16:48:394,6.858,0.080,-0.134,0.142,8.442,133.215,8.674
20:16:48:395,6.858,0.132,-0.209,0.150,8.144,137.686,8.187
20:16:48:396,6.859,0.175,-0.238,0.153,7.831,142.032,7.814
20:16:48:416,6.879,0.207,-0.225,0.139,7.589,144.533,7.489
20:16:48:417,6.880,0.262,-0.215,0.116,7.111,147.725,6.696
20:16:48:418,6.881,0.275,-0.205,0.081,6.638,149.387,5.988
20:16:48:465,6.928,0.307,-0.157,0.051,5.697,151.954,4.857
20:16:48:489,6.953,0.373,-0.083,0.000,4.955,153.191,4.078
20:16:48:547,7.011,0.422,-0.071,-0.034,3.692,154.700,2.871
20:16:48:548,7.012,0.437,-0.071,-0.087,2.263,155.890,1.722
20:16:48:549,7.013,0.491,-0.010,-0.145,1.246,156.253,1.099
20:16:48:651,7.115,0.467,0.079,-0.154,-0.302,156.433,0.474
20:16:48:652,7.116,0.461,0.223,-0.142,-1.254,156.397,0.262
20:16:48:734,7.198,0.478,0.329,-0.152,-2.270,156.667,0.172
20:16:48:735,7.199,0.440,0.255,-0.156,-2.604,156.968,0.292
20:16:48:736,7.200,0.482,0.137,-0.157,-2.469,157.559,0.624
20:16:48:737,7.201,0.402,-0.010,-0.088,-1.969,158.297,1.686
20:16:48:755,7.218,0.378,0.096,-0.039,-1.449,158.672,2.817
20:16:48:755,7.219,0.304,0.171,-0.019,-0.162,158.688,4.824
20:16:48:807,7.270,0.238,0.180,0.017,1.554,158.412,6.824
20:16:48:808,7.271,0.170,0.135,0.052,2.854,158.009,8.094
20:16:48:888,7.352,0.119,0.059,0.084,4.898,158.004,10.027
20:16:48:889,7.353,0.071,0.018,0.105,6.248,157.997,11.410
20:16:48:89,7.353,0.049,-0.041,0.118,8.225,158.214,13.701
20:16:49:05,7.513,0.003,-0.109,0.146,10.189,158.478,16.155
20:16:49:051,7.514,-0.024,-0.135,0.148,11.543,158.570,17.785
20:16:49:051,7.515,-0.073,-0.170,0.149,13.604,158.513,20.075
20:16:49:052,7.516,-0.129,-0.197,0.147,14.979,158.346,21.432
20:16:49:068,7.531,-0.155,-0.221,0.137,16.906,158.081,23.152
20:16:49:099,7.563,-0.195,-0.255,0.149,18.034,158.014,24.083
20:16:49:1,7.563,-0.210,-0.235,0.156,19.378,158.224,25.191
20:16:49:101,7.564,-0.255,-0.188,0.192,20.293,158.972,25.889
20:16:49:119,7.582,-0.281,-0.093,0.210,20.633,159.308,26.050
20:16:49:173,7.637,-0.299,-0.049,0.232,20.781,159.941,25.722
20:16:49:201,7.664,-0.346,0.004,0.258,20.533,160.225,25.177
20:16:49:201,7.665,-0.349,0.129,0.255,19.736,161.225,24.036
20:16:49:284,7.748,-0.232,0.158,0.211,18.909,161.648,22.930
20:16:49:284,7.748,-0.191,0.086,0.209,17.336,162.278,20.669
20:16:49:284,7.748,-0.065,0.017,0.162,15.526,162.770,18.064
20:16:49:304,7.768,-0.007,-0.043,0.080,14.385,162.855,16.311
20:16:49:358,7.822,-0.098,0.124,0.111,12.468,162.688,13.975
20:16:49:359,7.823,-0.118,0.196,0.112,11.304,162.592,12.777
20:16:49:381,7.845,-0.087,0.135,0.068,10.022,163.669,11.436
20:16:49:437,7.900,-0.012,0.029,0.020,9.245,165.944,10.489
20:16:49:438,7.901,0.067,-0.054,-0.008,8.893,168.391,10.094
20:16:49:462,7.925,0.129,-0.183,0.002,8.411,172.234,9.651
20:16:49:514,7.978,0.166,-0.216,-0.015,8.108,174.918,9.364
20:16:49:542,8.006,0.187,-0.203,-0.057,7.683,178.291,8.809
20:16:49:542,8.006,0.219,-0.186,-0.068,7.145,-178.566,7.922
20:16:49:593,8.056,0.216,-0.186,-0.082,6.709,-177.183,7.116
20:16:49:621,8.084,0.238,-0.179,-0.121,6.479,-175.027,7.325
20:16:49:621,8.085,0.290,-0.113,-0.174,5.844,-173.970,6.439
20:16:49:644,8.108,0.298,-0.089,-0.204,4.766,-172.641,5.052
20:16:49:699,8.163,0.284,-0.037,-0.241,3.595,-172.381,3.667
20:16:49:7,8.163,0.283,0.038,-0.266,2.771,-172.381,2.855
20:16:49:777,8.240,0.292,0.121,-0.305,1.523,-172.613,1.876
20:16:49:807,8.271,0.289,0.222,-0.230,0.784,-172.634,1.419
20:16:49:808,8.272,0.291,0.277,-0.221,-0.028,-172.310,1.227
20:16:49:809,8.272,0.312,0.140,-0.228,-0.183,-171.809,1.475
20:16:49:857,8.321,0.311,0.154,-0.261,0.064,-170.906,2.339
20:16:49:858,8.322,0.307,0.053,-0.251,0.685,-170.014,3.716
20:16:49:88,8.344,0.274,0.176,-0.155,1.176,-170.043,4.840
20:16:49:935,8.399,0.184,0.281,-0.074,2.372,-170.778,6.694
20:16:49:936,8.400,0.122,0.281,-0.035,3.487,-171.464,8.020
20:16:50:015,8.478,0.029,0.122,0.066,7.830,-172.462,12.714
20:16:50:015,8.479,0.012,0.100,0.087,9.399,-172.448,14.509
20:16:50:04,8.504,-0.034,-0.015,0.136,11.790,-172.265,17.344
20:16:50:064,8.527,-0.091,-0.127,0.202,13.431,-172.006,19.357
20:16:50:09,8.554,-0.109,-0.166,0.220,16.012,-171.371,22.475
20:16:50:118,8.582,-0.130,-0.204,0.233,17.771,-170.819,24.512
20:16:50:144,8.607,-0.139,-0.235,0.230,20.324,-169.954,27.233
20:16:50:169,8.633,-0.151,-0.299,0.254,22.590,-169.118,29.389
20:16:50:196,8.660,-0.161,-0.327,0.264,23.848,-168.541,30.497
20:16:50:222,8.686,-0.161,-0.345,0.295,25.234,-167.583,31.704
20:16:50:279,8.743,-0.163,-0.334,0.315,25.806,-166.930,32.193
20:16:50:279,8.743,-0.190,-0.231,0.379,26.076,-166.084,32.296
20:16:50:3,8.764,-0.185,-0.133,0.382,25.658,-165.557,31.403
20:16:50:327,8.790,-0.212,-0.056,0.441,24.965,-165.412,30.261
20:16:50:353,8.816,-0.188,0.021,0.426,23.453,-165.257,28.022
20:16:50:437,8.901,-0.140,0.087,0.370,22.185,-165.154,26.223
20:16:50:438,8.901,-0.102,0.110,0.367,20.028,-165.018,23.126
20:16:50:439,8.902,-0.037,0.211,0.295,18.412,-164.837,20.910
20:16:50:488,8.952,0.038,0.106,0.141,16.175,-164.325,17.573
20:16:50:488,8.952,0.031,0.121,0.080,13.874,-163.980,14.477
20:16:50:51,8.974,-0.005,0.154,0.086,12.402,-163.580,12.852
20:16:50:598,9.061,-0.026,0.232,0.124,10.668,-162.563,11.254
20:16:50:598,9.062,-0.015,0.112,0.095,9.989,-161.119,10.618
20:16:50:599,9.063,0.024,-0.003,0.020,9.649,-157.561,10.199
20:16:50:6,9.063,0.069,-0.128,-0.005,9.744,-152.866,10.274
20:16:50:673,9.137,0.114,-0.200,-0.042,9.859,-149.515,10.453
20:16:50:674,9.138,0.154,-0.237,-0.077,9.988,-144.643,10.670
20:16:50:675,9.139,0.153,-0.242,-0.114,9.992,-141.839,10.619
20:16:50:751,9.214,0.152,-0.251,-0.149,9.806,-138.364,10.051
20:16:50:751,9.215,0.143,-0.214,-0.170,9.281,-135.746,9.205
20:16:50:778,9.241,0.153,-0.181,-0.194,8.719,-134.408,8.322
20:16:50:778,9.241,0.137,-0.091,-0.267,7.642,-132.800,6.884
20:16:50:799,9.262,0.117,-0.070,-0.288,6.820,-132.134,5.916
20:16:50:825,9.289,0.100,-0.040,-0.289,5.459,-131.514,4.645
20:16:50:853,9.317,0.080,0.110,-0.347,4.507,-131.153,4.026
20:16:50:907,9.370,0.061,0.103,-0.377,3.155,-130.843,3.415
20:16:50:908,9.371,0.066,0.220,-0.361,1.934,-130.592,3.161
20:16:50:93,9.394,0.050,0.257,-0.388,1.299,-130.839,3.223
20:16:50:987,9.450,0.021,0.195,-0.348,0.760,-130.715,3.633
20:16:50:987,9.451,0.013,0.142,-0.359,0.693,-130.873,4.184
20:16:51:009,9.472,0.056,0.127,-0.329,0.998,-130.506,5.475
20:16:51:066,9.530,0.063,0.210,-0.253,1.792,-130.673,7.202
20:16:51:066,9.530,0.057,0.248,-0.157,2.625,-131.147,8.500
20:16:51:088,9.551,0.041,0.264,-0.075,4.296,-132.263,10.597
20:16:51:114,9.578,0.029,0.214,0.003,5.610,-132.864,12.087
20:16:51:14,9.604,0.043,0.136,0.058,7.802,-133.498,14.499
20:16:51:168,9.632,0.046,0.056,0.118,9.358,-133.599,16.258
20:16:51:195,9.658,0.049,-0.017,0.149,11.814,-133.535,19.151
20:16:51:22,9.684,0.033,-0.089,0.210,14.482,-133.237,22.243
20:16:51:245,9.709,0.032,-0.120,0.250,16.363,-132.927,24.329
20:16:51:272,9.735,0.019,-0.171,0.313,19.228,-132.265,27.354
20:16:51:298,9.761,0.017,-0.238,0.338,21.106,-131.667,29.261
20:16:51:324,9.788,0.019,-0.283,0.349,23.684,-130.534,31.913
20:16:51:352,9.816,0.033,-0.332,0.384,25.800,-129.181,34.207
20:16:51:378,9.842,0.036,-0.328,0.384,26.906,-128.222,35.482
20:16:51:403,9.867,0.037,-0.275,0.451,27.085,-127.211,36.018
20:16:51:43,9.894,0.041,-0.224,0.443,27.395,-126.558,36.269
20:16:51:456,9.920,0.037,-0.176,0.497,27.157,-125.988,35.531
20:16:51:482,9.946,0.043,-0.119,0.520,26.425,-125.831,34.355
20:16:51:508,9.971,0.060,0.030,0.504,24.644,-125.668,31.855
20:16:51:563,10.026,0.087,0.046,0.371,22.383,-125.695,28.487
20:16:51:564,10.027,0.099,0.105,0.301,20.692,-125.905,25.887
20:16:51:645,10.108,0.075,0.062,0.185,18.194,-126.140,21.901
20:16:51:647,10.110,0.049,0.138,0.146,16.564,-126.364,19.369
20:16:51:647,10.111,0.025,0.209,0.214,14.267,-126.484,16.280
20:16:51:665,10.129,0.063,0.213,0.207,12.390,-125.826,14.077
20:16:51:721,10.184,0.069,0.156,0.157,11.752,-124.036,13.290
20:16:51:721,10.185,0.065,0.010,0.019,11.299,-120.083,12.667
20:16:51:745,10.208,0.077,-0.076,-0.022,11.129,-116.989,12.539
20:16:51:8,10.264,0.101,-0.178,-0.085,10.865,-112.214,12.576
20:16:51:8,10.264,0.088,-0.199,-0.163,10.545,-107.746,12.554
20:16:51:822,10.286,0.075,-0.213,-0.176,10.270,-105.470,12.315
20:16:51:879,10.342,0.037,-0.228,-0.192,9.701,-102.721,11.556
20:16:51:879,10.343,0.008,-0.214,-0.189,9.187,-101.417,10.858
20:16:51:903,10.366,-0.006,-0.154,-0.199,8.330,-99.516,10.551
20:16:51:957,10.421,-0.035,-0.084,-0.215,7.566,-98.740,9.737
20:16:51:958,10.422,-0.063,-0.068,-0.227,6.356,-97.904,8.510
20:16:51:981,10.445,-0.095,0.032,-0.236,5.079,-97.325,7.373
20:16:52:036,10.500,-0.134,0.097,-0.271,4.188,-97.101,6.684
20:16:52:037,10.500,-0.157,0.125,-0.287,2.852,-97.084,5.761
20:16:52:06,10.523,-0.139,0.320,-0.283,1.969,-97.215,5.298
20:16:52:087,10.550,-0.162,0.325,-0.293,0.937,-97.419,4.939
20:16:52:141,10.604,-0.168,0.209,-0.258,0.441,-97.438,5.064
20:16:52:141,10.605,-0.206,0.101,-0.324,0.400,-97.231,5.519
20:16:52:164,10.628,-0.129,0.136,-0.295,0.675,-97.395,6.738
20:16:52:19,10.654,-0.083,0.206,-0.249,1.209,-97.927,7.801
20:16:52:217,10.680,-0.036,0.243,-0.109,2.555,-99.334,9.626
20:16:52:244,10.708,0.012,0.208,-0.034,3.748,-100.259,10.985
20:16:52:269,10.733,0.047,0.168,-0.001,5.782,-101.246,13.281
20:16:52:295,10.759,0.097,0.078,0.035,8.009,-101.699,15.855
20:16:52:375,10.839,0.145,-0.024,0.067,9.580,-101.812,17.687
20:16:52:406,10.870,0.163,-0.063,0.092,12.051,-101.912,20.532
20:16:52:407,10.870,0.173,-0.110,0.136,14.652,-102.073,23.355
20:16:52:408,10.871,0.193,-0.145,0.185,16.418,-102.254,25.136
20:16:52:428,10.892,0.221,-0.198,0.245,19.035,-102.458,27.670
20:16:52:455,10.918,0.208,-0.241,0.264,20.733,-102.638,29.255
20:16:52:479,10.942,0.212,-0.275,0.279,23.009,-102.462,31.439
20:16:52:536,11.000,0.220,-0.286,0.304,24.283,-102.310,32.726
20:16:52:536,11.000,0.235,-0.303,0.320,24.856,-102.120,33.653
20:16:52:617,11.080,0.245,-0.190,0.361,24.807,-102.194,33.940
20:16:52:617,11.080,0.237,-0.160,0.351,25.032,-102.176,34.027
20:16:52:618,11.081,0.253,-0.090,0.422,24.711,-102.682,33.298
20:16:52:664,11.128,0.231,-0.009,0.428,24.106,-103.023,32.410
20:16:52:692,11.156,0.193,0.041,0.391,22.731,-103.979,30.575
20:16:52:693,11.156,0.166,0.001,0.307,20.952,-104.753,28.183
20:16:52:777,11.240,0.166,0.118,0.353,19.554,-105.572,26.417
20:16:52:777,11.241,0.036,0.042,0.176,17.497,-106.218,23.783
20:16:52:778,11.242,0.023,0.079,0.174,16.104,-106.905,22.112
20:16:52:779,11.242,0.019,0.129,0.236,14.064,-107.508,20.107
20:16:52:855,11.318,0.008,0.118,0.205,12.916,-107.933,19.208
20:16:52:855,11.319,-0.019,0.078,0.159,11.649,-107.158,18.285
20:16:52:855,11.319,-0.056,-0.079,0.090,10.859,-105.375,17.679
20:16:52:933,11.397,-0.044,-0.169,0.060,10.462,-103.759,17.452
20:16:52:933,11.397,-0.006,-0.200,0.022,9.878,-100.766,17.273
20:16:52:933,11.397,0.002,-0.200,-0.031,9.490,-98.616,17.124
20:16:53:066,11.530,-0.033,-0.176,-0.103,8.942,-95.703,16.590
20:16:53:067,11.530,-0.028,-0.156,-0.145,8.248,-93.533,15.489
20:16:53:068,11.531,-0.039,-0.140,-0.124,7.677,-92.699,14.448
20:16:53:069,11.532,-0.088,-0.081,-0.173,6.601,-92.334,12.708
20:16:53:144,11.608,-0.114,-0.048,-0.220,5.792,-92.129,11.504
20:16:53:144,11.608,-0.111,-0.039,-0.223,4.533,-92.608,9.798
20:16:53:145,11.609,-0.124,0.100,-0.211,3.375,-93.172,8.415
20:16:53:147,11.610,-0.161,0.132,-0.231,2.725,-93.794,7.717
20:16:53:162,11.625,-0.122,0.177,-0.202,1.918,-94.239,6.989
20:16:53:188,11.651,-0.106,0.270,-0.223,1.509,-94.399,6.768
20:16:53:214,11.677,-0.106,0.283,-0.268,1.159,-93.898,6.802
20:16:53:269,11.733,-0.121,0.221,-0.270,1.086,-93.416,7.006
20:16:53:27,11.734,-0.166,0.095,-0.308,1.072,-92.736,7.639
20:16:53:294,11.758,-0.101,0.009,-0.274,1.202,-92.677,8.628
20:16:53:377,11.841,-0.057,0.078,-0.247,1.408,-93.120,9.475
20:16:53:378,11.841,-0.035,0.152,-0.170,2.261,-94.556,10.830
20:16:53:379,11.842,0.021,0.156,-0.082,3.099,-95.880,11.678
20:16:53:427,11.890,0.052,0.157,-0.054,4.619,-97.848,12.982
20:16:53:428,11.891,0.086,0.089,-0.046,6.319,-99.159,14.465
20:16:53:48,11.944,0.124,0.042,-0.029,7.495,-99.791,15.605
20:16:53:481,11.945,0.164,-0.014,0.008,9.407,-100.526,17.588
20:16:53:503,11.967,0.188,-0.073,0.059,10.816,-100.967,19.079
20:16:53:559,12.023,0.187,-0.120,0.100,13.104,-101.573,21.418
20:16:53:56,12.023,0.197,-0.161,0.148,14.670,-101.838,22.998
20:16:53:582,12.045,0.197,-0.180,0.172,16.955,-102.196,25.277
20:16:53:637,12.100,0.210,-0.237,0.212,19.066,-102.400,27.339
20:16:53:638,12.101,0.208,-0.255,0.222,20.310,-102.386,28.532
20:16:53:663,12.127,0.237,-0.248,0.286,21.829,-102.226,29.990
20:16:53:689,12.153,0.240,-0.193,0.320,22.588,-102.061,30.681
20:16:53:74,12.204,0.259,-0.077,0.378,23.248,-101.879,31.103
20:16:53:768,12.232,0.244,-0.080,0.372,23.328,-101.822,30.641
20:16:53:769,12.232,0.299,-0.021,0.459,22.956,-101.799,29.940
20:16:53:821,12.284,0.269,0.039,0.432,21.976,-101.404,28.629
20:16:53:821,12.285,0.232,-0.013,0.304,21.033,-101.016,27.499
20:16:53:844,12.308,0.229,0.002,0.277,19.301,-100.796,25.321
20:16:53:872,12.336,0.130,-0.084,0.146,18.060,-100.748,23.708
20:16:53:897,12.361,0.110,-0.060,0.149,16.094,-100.899,21.292
20:16:53:953,12.417,0.105,0.084,0.162,14.023,-101.185,19.148
20:16:53:953,12.417,0.067,0.161,0.164,12.754,-101.578,17.899
20:16:53:976,12.439,-0.001,0.103,0.136,11.104,-101.329,16.257
20:16:54:001,12.465,-0.028,0.028,0.111,10.143,-100.759,15.388
20:16:54:028,12.492,-0.059,-0.114,0.016,8.930,-98.636,14.493
20:16:54:055,12.519,-0.070,-0.159,-0.061,7.958,-95.982,13.914
20:16:54:081,12.545,-0.073,-0.163,-0.082,7.426,-94.218,13.558
20:16:54:107,12.570,-0.096,-0.157,-0.103,6.719,-91.843,12.847
20:16:54:192,12.656,-0.095,-0.161,-0.125,6.240,-90.456,12.250
20:16:54:193,12.656,-0.098,-0.145,-0.135,5.850,-88.565,11.728
20:16:54:193,12.657,-0.119,-0.089,-0.176,4.963,-86.924,10.672
20:16:54:213,12.676,-0.144,-0.044,-0.199,4.323,-86.222,9.926
20:16:54:238,12.702,-0.184,-0.048,-0.198,3.309,-85.505,8.810
20:16:54:35,12.813,-0.223,-0.010,-0.203,2.594,-85.498,8.147
20:16:54:35,12.814,-0.251,0.064,-0.203,1.469,-85.392,7.365
20:16:54:351,12.815,-0.227,0.094,-0.185,0.779,-85.750,6.985
20:16:54:397,12.860,-0.227,0.167,-0.184,-0.087,-85.832,6.657
20:16:54:475,12.939,-0.203,0.286,-0.190,-0.605,-85.749,6.700
20:16:54:533,12.996,-0.213,0.220,-0.203,-0.691,-85.489,6.927
20:16:54:534,12.997,-0.221,0.182,-0.224,-0.612,-85.023,7.609
20:16:54:534,12.998,-0.274,0.113,-0.270,-0.436,-84.810,8.235
20:16:54:563,13.026,-0.151,0.190,-0.204,-0.021,-85.518,9.360
20:16:54:563,13.027,-0.079,0.251,-0.084,0.639,-86.295,10.303
20:16:54:563,13.027,-0.018,0.261,-0.035,2.208,-87.375,12.089
20:16:54:564,13.027,0.042,0.227,0.016,4.237,-87.859,14.310
20:16:54:639,13.103,0.081,0.155,0.045,5.741,-87.883,16.049
20:16:54:639,13.103,0.092,0.042,0.056,8.084,-87.623,18.996
20:16:54:639,13.103,0.125,-0.034,0.101,10.470,-87.294,22.174
20:16:54:747,13.210,0.142,-0.086,0.139,12.137,-87.083,24.314
20:16:54:747,13.211,0.172,-0.167,0.188,14.742,-86.863,27.435
20:16:54:747,13.211,0.193,-0.203,0.225,16.527,-86.659,29.392
20:16:54:748,13.212,0.224,-0.241,0.255,19.167,-86.169,32.083
20:16:54:794,13.258,0.232,-0.292,0.266,20.811,-85.754,33.652
20:16:54:794,13.258,0.237,-0.312,0.264,22.897,-84.832,35.591
20:16:54:815,13.279,0.266,-0.326,0.269,24.370,-83.781,36.961
20:16:54:872,13.335,0.291,-0.298,0.293,24.117,-83.400,36.773
20:16:54:894,13.358,0.326,-0.145,0.336,24.241,-82.264,36.583
20:16:54:951,13.414,0.350,-0.096,0.350,23.352,-82.036,35.229
20:16:54:951,13.415,0.357,0.020,0.352,21.813,-81.814,33.184
20:16:54:973,13.437,0.314,0.076,0.313,20.524,-81.655,31.473
20:16:54:999,13.463,0.292,0.093,0.253,18.385,-81.541,28.435
20:16:55:025,13.489,0.188,0.066,0.137,16.834,-81.509,26.228
20:16:55:052,13.516,0.117,0.051,0.126,14.680,-81.108,22.991
20:16:55:11,13.573,0.113,0.130,0.116,12.470,-80.736,20.182
20:16:55:11,13.574,0.138,0.235,0.157,11.124,-80.185,18.702
20:16:55:111,13.575,0.100,0.175,0.101,9.530,-78.670,16.999
20:16:55:157,13.621,0.061,0.113,0.085,8.783,-76.930,16.125
20:16:55:187,13.651,-0.017,-0.070,-0.010,8.028,-73.286,15.290
20:16:55:187,13.651,-0.039,-0.171,-0.053,7.608,-70.405,15.002
20:16:55:239,13.703,-0.065,-0.193,-0.106,6.989,-65.917,14.734
20:16:55:24,13.703,-0.124,-0.191,-0.126,6.411,-61.963,14.306
20:16:55:291,13.755,-0.135,-0.188,-0.111,6.014,-59.885,13.799
20:16:55:292,13.755,-0.163,-0.188,-0.087,5.396,-57.584,12.916
20:16:55:345,13.808,-0.208,-0.170,-0.104,5.106,-56.207,12.639
20:16:55:345,13.808,-0.243,-0.130,-0.100,3.995,-54.905,11.336
20:16:55:366,13.830,-0.253,-0.112,-0.098,2.769,-54.082,10.095
20:16:55:451,13.915,-0.283,-0.073,-0.094,1.947,-54.204,9.383
20:16:55:452,13.915,-0.321,0.121,-0.073,0.680,-54.087,8.522
20:16:55:453,13.916,-0.349,0.152,-0.062,-0.135,-54.603,8.071
20:16:55:473,13.936,-0.327,0.234,-0.038,-1.318,-54.765,7.706
20:16:55:499,13.962,-0.366,0.330,-0.016,-2.261,-55.199,7.815
20:16:55:577,14.041,-0.344,0.224,0.018,-2.631,-55.287,8.130
20:16:55:609,14.073,-0.320,0.200,0.041,-2.823,-55.405,9.040
20:16:55:609,14.073,-0.326,0.042,0.014,-2.629,-55.129,9.952
20:16:55:61,14.074,-0.220,0.130,0.008,-1.966,-55.174,11.752
20:16:55:685,14.148,-0.109,0.261,0.067,-1.126,-55.338,13.191
20:16:55:686,14.149,-0.023,0.303,0.114,0.634,-55.981,15.541
20:16:55:712,14.176,0.079,0.228,0.120,2.890,-56.013,18.081
20:16:55:712,14.176,0.109,0.150,0.115,4.501,-55.692,19.877
20:16:55:763,14.227,0.118,0.000,0.080,6.849,-54.606,22.758
20:16:55:764,14.228,0.158,-0.069,0.061,8.338,-53.928,24.742
20:16:55:786,14.250,0.201,-0.111,0.064,10.555,-53.038,27.661
20:16:55:813,14.277,0.249,-0.164,0.078,12.953,-52.512,30.314
20:16:55:84,14.303,0.269,-0.218,0.108,14.615,-52.266,31.876
20:16:55:867,14.331,0.308,-0.275,0.112,16.961,-51.854,33.916
20:16:55:892,14.356,0.307,-0.292,0.115,18.312,-51.376,35.064
20:16:55:918,14.381,0.310,-0.320,0.100,19.926,-50.582,36.394
20:16:55:944,14.408,0.340,-0.327,0.096,20.683,-49.989,36.979
20:16:55:97,14.434,0.349,-0.311,0.088,20.619,-49.448,36.691
20:16:55:997,14.460,0.410,-0.172,0.116,20.687,-48.808,36.441
20:16:56:025,14.488,0.415,-0.117,0.107,20.406,-48.452,35.792
20:16:56:051,14.514,0.440,-0.087,0.106,19.467,-48.061,34.123
20:16:56:104,14.568,0.465,0.054,0.105,18.475,-47.752,32.699
20:16:56:105,14.568,0.419,0.183,0.099,16.580,-47.278,30.097
20:16:56:129,14.593,0.288,0.134,0.031,14.462,-46.833,26.821
20:16:56:154,14.618,0.268,0.177,0.032,12.969,-46.720,24.404
20:16:56:18,14.644,0.041,0.029,0.011,10.854,-46.421,20.840
20:16:56:207,14.671,0.013,0.013,0.037,9.504,-46.300,18.698
20:16:56:263,14.726,0.108,0.173,0.040,7.526,-45.875,16.229
20:16:56:263,14.726,0.081,0.207,0.018,6.138,-44.585,14.613
20:16:56:285,14.749,0.021,0.123,0.019,5.623,-42.860,13.838
20:16:56:313,14.777,-0.067,-0.011,0.005,5.213,-39.237,13.117
20:16:56:34,14.804,-0.095,-0.158,-0.041,5.033,-36.464,12.916
20:16:56:481,14.945,-0.123,-0.210,-0.053,4.770,-32.046,12.880
20:16:56:481,14.945,-0.165,-0.223,-0.048,4.609,-29.285,12.893
20:16:56:481,14.945,-0.177,-0.234,-0.028,4.349,-25.706,12.750
20:16:56:482,14.946,-0.199,-0.227,-0.001,3.954,-22.819,12.234
20:16:56:498,14.962,-0.201,-0.213,0.027,3.710,-21.269,12.094
20:16:56:499,14.963,-0.232,-0.169,0.046,2.823,-19.551,11.160
20:16:56:523,14.987,-0.256,-0.101,0.078,2.090,-18.766,10.480
20:16:56:606,15.070,-0.266,-0.071,0.107,0.885,-18.094,9.454
20:16:56:607,15.070,-0.267,-0.026,0.140,-0.413,-17.918,8.525
20:16:56:631,15.095,-0.306,0.106,0.204,-1.342,-18.006,8.024
20:16:56:632,15.095,-0.323,0.139,0.244,-2.769,-18.645,7.433
20:16:56:684,15.148,-0.314,0.209,0.259,-3.723,-19.274,7.165
20:16:56:686,15.150,-0.278,0.299,0.248,-4.926,-20.335,7.027
20:16:56:764,15.227,-0.213,0.180,0.252,-5.392,-20.886,7.155
20:16:56:764,15.228,-0.262,0.133,0.246,-5.554,-21.028,7.751
20:16:56:765,15.229,-0.320,0.094,0.234,-5.239,-20.667,8.864
20:16:56:814,15.277,-0.281,0.146,0.185,-4.841,-20.746,9.795
20:16:56:815,15.278,-0.157,0.263,0.157,-3.739,-21.597,11.399
20:16:56:895,15.359,-0.025,0.236,0.086,-2.598,-22.381,12.584
20:16:56:896,15.360,0.024,0.195,0.042,-0.395,-23.084,14.549
20:16:56:896,15.360,0.057,0.156,0.016,2.136,-23.252,16.806
20:16:56:916,15.380,0.056,0.044,0.006,3.867,-22.956,18.455
20:16:56:942,15.405,0.103,-0.057,-0.063,6.298,-22.300,21.127
20:16:56:968,15.431,0.132,-0.103,-0.084,7.831,-21.675,23.053
20:16:56:996,15.459,0.163,-0.146,-0.116,10.178,-21.064,26.013
20:16:57:022,15.485,0.219,-0.170,-0.107,11.843,-20.911,27.863
20:16:57:047,15.511,0.255,-0.208,-0.109,14.422,-21.028,30.213
20:16:57:073,15.537,0.300,-0.280,-0.110,16.845,-21.215,32.053
20:16:57:099,15.563,0.313,-0.304,-0.118,18.221,-21.197,33.057
20:16:57:125,15.589,0.321,-0.302,-0.131,19.772,-20.882,34.265
20:16:57:152,15.615,0.328,-0.273,-0.127,19.691,-20.769,34.217
20:16:57:178,15.641,0.389,-0.185,-0.141,19.376,-20.632,33.884
20:16:57:206,15.669,0.382,-0.115,-0.118,19.150,-20.508,33.284
20:16:57:232,15.696,0.409,-0.076,-0.119,18.581,-20.333,32.382
20:16:57:256,15.720,0.413,0.020,-0.108,17.242,-20.367,30.576
20:16:57:283,15.747,0.354,0.097,-0.084,16.067,-20.095,29.054
20:16:57:311,15.775,0.291,0.105,-0.068,14.036,-20.072,26.327
20:16:57:372,15.835,0.203,0.180,-0.035,11.816,-19.898,23.271
20:16:57:372,15.835,0.045,0.005,0.062,10.423,-19.898,21.211
20:16:57:372,15.836,0.091,0.051,0.062,8.218,-19.953,18.503
20:16:57:388,15.852,0.173,0.170,0.043,6.852,-19.741,17.198
20:16:57:444,15.908,0.119,0.224,0.056,5.329,-18.534,15.861
20:16:57:444,15.908,0.022,0.096,0.108,4.662,-17.093,15.119
20:16:57:496,15.960,-0.024,-0.020,0.112,4.022,-14.186,14.228
20:16:57:497,15.961,-0.067,-0.168,0.100,3.520,-10.682,13.630
20:16:57:548,16.012,-0.100,-0.194,0.091,3.190,-8.360,13.311
20:16:57:549,16.013,-0.137,-0.217,0.099,2.734,-5.070,12.784
20:16:57:572,16.036,-0.157,-0.219,0.100,2.452,-3.248,12.311
20:16:57:598,16.061,-0.173,-0.215,0.122,1.979,-0.743,11.402
20:16:57:624,16.088,-0.185,-0.190,0.141,1.901,1.125,11.119
20:16:57:652,16.116,-0.197,-0.150,0.164,1.330,2.298,10.402
20:16:57:706,16.169,-0.197,-0.096,0.184,0.353,3.204,9.357
20:16:57:707,16.170,-0.199,-0.081,0.204,-0.328,3.773,8.733
20:16:57:788,16.252,-0.208,-0.045,0.244,-1.373,4.086,7.936
20:16:57:788,16.252,-0.215,0.080,0.293,-2.109,4.152,7.529
20:16:57:789,16.252,-0.208,0.098,0.308,-3.183,4.082,7.104
20:16:57:866,16.330,-0.205,0.248,0.293,-4.182,4.104,6.914
20:16:57:867,16.331,-0.203,0.259,0.289,-4.657,4.103,6.974
20:16:57:867,16.331,-0.182,0.151,0.288,-4.976,4.221,7.487
20:16:57:887,16.350,-0.212,0.124,0.362,-5.029,4.413,8.172
20:16:57:913,16.376,-0.160,0.110,0.298,-4.828,4.480,9.577
20:16:57:939,16.403,-0.078,0.202,0.241,-4.190,3.940,11.423
20:16:57:965,16.429,-0.006,0.267,0.213,-3.380,3.447,12.854
20:16:57:992,16.456,0.088,0.287,0.131,-1.688,2.813,15.175
20:16:58:018,16.482,0.141,0.226,0.034,-0.320,2.737,16.872
20:16:58:044,16.508,0.159,0.149,0.010,2.006,3.241,19.699
20:16:58:071,16.534,0.156,0.005,-0.019,4.471,4.259,22.820
20:16:58:099,16.562,0.172,-0.079,-0.035,6.113,5.018,24.997
20:16:58:124,16.587,0.201,-0.135,-0.092,8.572,6.078,28.229
20:16:58:149,16.613,0.225,-0.202,-0.110,10.259,6.703,30.238
20:16:58:205,16.669,0.238,-0.265,-0.140,12.767,7.690,32.856
20:16:58:205,16.669,0.251,-0.278,-0.148,14.324,8.289,34.252
20:16:58:229,16.693,0.256,-0.302,-0.171,16.297,9.229,35.789
20:16:58:255,16.718,0.256,-0.325,-0.207,17.126,9.990,35.971
20:16:58:28,16.744,0.244,-0.320,-0.229,17.713,10.654,36.257
20:16:58:307,16.770,0.251,-0.269,-0.239,18.072,11.596,36.158
20:16:58:333,16.796,0.258,-0.201,-0.255,17.991,12.075,35.671
20:16:58:359,16.822,0.246,-0.193,-0.266,17.329,13.127,34.252
20:16:58:388,16.852,0.250,-0.089,-0.312,15.972,13.695,32.194
20:16:58:413,16.877,0.224,0.039,-0.281,14.737,14.657,30.445
20:16:58:439,16.902,0.145,0.163,-0.164,12.603,14.866,26.952
20:16:58:464,16.928,0.115,0.205,-0.112,11.061,14.781,24.077
20:16:58:52,16.984,0.083,0.359,-0.041,8.563,14.027,19.436
20:16:58:521,16.985,0.051,0.192,0.059,6.989,13.852,16.485
20:16:58:543,17.006,0.046,0.220,0.035,4.838,14.118,13.020
20:16:58:571,17.035,0.094,0.255,0.010,3.260,16.149,11.464
20:16:58:595,17.059,0.035,0.212,0.005,2.736,18.166,11.412
20:16:58:622,17.085,0.008,0.105,0.004,2.745,22.595,12.022
20:16:58:648,17.111,-0.064,-0.101,0.072,3.121,25.940,12.610
20:16:58:674,17.138,-0.082,-0.221,0.119,3.934,31.152,13.478
20:16:58:703,17.167,-0.074,-0.280,0.118,4.587,35.711,14.154
20:16:58:728,17.192,-0.070,-0.319,0.111,4.807,38.617,14.423
20:16:58:754,17.218,-0.064,-0.298,0.127,4.757,41.852,14.419
20:16:58:779,17.243,-0.049,-0.252,0.134,4.460,43.917,14.079
20:16:58:837,17.301,-0.027,-0.237,0.150,3.703,45.784,13.101
20:16:58:838,17.301,-0.026,-0.171,0.177,2.678,47.356,11.818
20:16:58:859,17.322,-0.010,-0.133,0.215,1.885,48.083,10.874
20:16:58:884,17.348,0.011,-0.068,0.280,0.555,49.118,9.404
20:16:58:91,17.374,0.033,-0.008,0.293,-0.445,49.313,8.468
20:16:58:937,17.401,0.071,0.119,0.336,-2.059,49.496,7.259
20:16:58:963,17.427,0.095,0.139,0.367,-3.131,49.436,6.602
20:16:58:989,17.453,0.094,0.317,0.383,-4.682,49.320,5.778
20:16:59:017,17.481,0.112,0.241,0.416,-5.789,49.369,5.150
20:16:59:043,17.507,0.126,0.195,0.404,-6.239,49.445,4.858
20:16:59:07,17.533,0.165,0.069,0.491,-6.327,50.082,5.123
20:16:59:095,17.559,0.072,0.088,0.408,-6.180,50.298,5.653
20:16:59:121,17.584,0.069,0.114,0.345,-5.370,50.403,6.962
20:16:59:146,17.610,0.096,0.208,0.235,-3.800,49.837,8.689
20:16:59:173,17.637,0.106,0.230,0.156,-2.452,49.597,9.986
20:16:59:228,17.692,0.080,0.196,0.067,-0.166,49.728,12.163
20:16:59:229,17.692,0.051,0.111,0.029,1.429,50.245,13.799
20:16:59:253,17.717,0.008,0.026,-0.042,3.850,51.430,16.598
20:16:59:278,17.742,-0.020,-0.049,-0.103,6.311,52.779,19.702
20:16:59:304,17.768,-0.024,-0.090,-0.136,8.000,53.629,21.800
20:16:59:33,17.794,-0.015,-0.150,-0.176,10.548,54.805,24.781
20:16:59:357,17.821,-0.015,-0.200,-0.218,12.182,55.473,26.550
20:16:59:383,17.847,-0.008,-0.241,-0.227,14.390,56.396,28.768
20:16:59:41,17.873,-0.023,-0.315,-0.236,16.177,57.208,30.460
20:16:59:437,17.900,-0.037,-0.334,-0.252,17.057,58.047,31.306
20:16:59:462,17.926,-0.037,-0.321,-0.272,17.929,58.733,32.134
20:16:59:488,17.951,-0.040,-0.233,-0.310,18.175,59.180,32.271
20:16:59:576,18.039,-0.031,-0.115,-0.330,18.043,59.329,31.657
20:16:59:576,18.040,-0.038,-0.069,-0.362,17.610,59.252,30.696
20:16:59:577,18.040,-0.033,0.013,-0.365,16.488,59.048,28.681
20:16:59:578,18.041,0.000,0.151,-0.319,14.909,58.937,26.137
20:16:59:653,18.117,0.004,0.155,-0.217,13.687,58.886,24.154
20:16:59:654,18.117,-0.003,0.140,-0.200,11.713,58.825,20.927
20:16:59:654,18.117,0.017,0.134,-0.102,10.391,58.973,18.871
20:16:59:7,18.164,0.056,0.040,-0.023,8.707,59.532,16.228
20:16:59:701,18.165,0.056,0.095,-0.056,7.649,60.188,14.912
20:16:59:756,18.219,0.037,0.183,-0.078,6.422,61.973,13.650
20:16:59:756,18.220,0.046,0.117,0.017,5.836,64.668,12.837
20:16:59:807,18.270,0.038,-0.032,0.046,5.724,66.897,12.371
20:16:59:807,18.270,0.017,-0.177,0.064,5.750,70.719,11.893
20:16:59:829,18.293,-0.025,-0.230,0.120,5.791,73.559,11.760
20:16:59:855,18.319,-0.024,-0.225,0.166,5.801,77.854,11.675
20:16:59:881,18.345,-0.009,-0.202,0.210,5.746,81.416,11.309
20:16:59:908,18.372,0.044,-0.191,0.241,5.595,83.220,10.748
20:16:59:934,18.398,0.056,-0.152,0.326,5.069,84.944,9.411
20:16:59:962,18.426,0.073,-0.090,0.456,4.575,84.927,8.197
20:16:59:987,18.451,0.121,-0.081,0.349,3.703,83.065,6.124
20:17:00:013,18.476,0.181,-0.126,0.210,2.756,80.707,4.288
20:17:00:039,18.503,0.222,-0.051,0.201,2.133,79.914,3.599
20:17:00:065,18.529,0.290,0.026,0.321,1.259,79.672,3.361
20:17:00:092,18.556,0.283,0.083,0.377,0.625,80.332,3.420
20:17:00:12,18.583,0.284,0.142,0.391,-0.457,81.200,3.670
20:17:00:145,18.608,0.257,0.254,0.359,-1.520,81.592,4.049
20:17:00:171,18.634,0.249,0.231,0.345,-2.000,81.644,4.352
20:17:00:197,18.660,0.350,0.150,0.406,-2.401,81.786,4.919
20:17:00:223,18.687,0.218,0.066,0.306,-2.482,81.218,5.450
20:17:00:278,18.742,0.090,0.153,0.215,-2.155,80.602,6.764
20:17:00:279,18.743,0.077,0.226,0.159,-1.409,79.882,7.985
20:17:00:303,18.767,0.041,0.242,0.140,0.242,79.045,9.951
20:17:00:329,18.792,-0.013,0.170,0.087,2.201,77.913,11.812
20:17:00:354,18.818,-0.027,0.081,0.064,3.562,77.428,12.973
20:17:00:381,18.844,-0.086,-0.031,0.016,5.525,76.675,14.808
20:17:00:407,18.870,-0.108,-0.087,0.000,6.785,76.518,16.202
20:17:00:462,18.925,-0.122,-0.110,-0.033,8.715,75.931,18.442
20:17:00:463,18.926,-0.129,-0.133,-0.086,10.732,75.470,20.647
20:17:00:486,18.950,-0.154,-0.203,-0.134,12.139,75.266,22.041
20:17:00:511,18.975,-0.170,-0.265,-0.181,14.227,75.183,24.165
20:17:00:538,19.001,-0.209,-0.285,-0.225,15.521,75.445,25.608
20:17:00:564,19.028,-0.186,-0.279,-0.201,17.261,75.972,27.625
20:17:00:591,19.054,-0.187,-0.231,-0.200,18.136,76.452,28.673
20:17:00:619,19.083,-0.193,-0.176,-0.210,18.876,76.586,29.329
20:17:00:643,19.106,-0.202,-0.045,-0.281,18.944,75.951,28.619
20:17:00:698,19.162,-0.187,-0.031,-0.266,18.699,75.205,27.499
20:17:00:699,19.163,-0.219,0.007,-0.347,17.961,74.107,25.413
20:17:00:722,19.185,-0.224,0.096,-0.356,17.226,73.728,24.033
20:17:00:748,19.211,-0.168,0.110,-0.170,15.866,73.828,21.987
20:17:00:774,19.238,-0.169,0.198,-0.134,14.095,74.168,19.588
20:17:00:802,19.266,-0.026,-0.016,0.074,12.861,74.259,17.849
20:17:00:827,19.291,-0.017,0.068,0.016,10.877,73.854,15.277
20:17:00:853,19.317,-0.031,0.151,-0.071,9.412,73.402,13.890
20:17:00:879,19.343,-0.025,0.173,-0.050,7.804,73.409,12.735
20:17:00:906,19.370,0.056,0.046,0.046,7.113,74.076,12.214
20:17:00:932,19.395,0.100,-0.038,0.087,6.364,75.744,11.662
20:17:00:958,19.421,0.105,-0.181,0.124,5.675,77.706,11.373
20:17:00:985,19.448,0.096,-0.201,0.144,5.207,78.909,11.241
20:17:01:01,19.474,0.102,-0.190,0.145,4.547,80.577,10.980
20:17:01:036,19.500,0.099,-0.170,0.152,4.144,81.396,10.675
20:17:01:063,19.527,0.109,-0.155,0.163,4.350,82.466,10.831
20:17:01:118,19.582,0.115,-0.114,0.183,4.148,83.057,10.442
20:17:01:119,19.583,0.139,-0.102,0.197,3.585,83.210,9.703
20:17:01:142,19.605,0.153,-0.070,0.213,2.701,83.209,8.605
20:17:01:168,19.632,0.160,-0.067,0.213,2.147,83.060,7.954
20:17:01:194,19.658,0.137,-0.009,0.201,1.427,82.874,7.236
20:17:01:22,19.684,0.154,0.065,0.233,1.049,82.830,6.915
20:17:01:246,19.710,0.102,0.120,0.222,0.651,82.892,6.611
20:17:01:273,19.737,0.086,0.222,0.238,0.424,83.237,6.526
20:17:01:299,19.763,0.043,0.286,0.259,0.365,83.470,6.576
20:17:01:326,19.789,0.063,0.122,0.259,0.431,83.812,6.825
20:17:01:381,19.844,0.114,0.119,0.310,0.417,83.913,7.150
20:17:01:381,19.845,0.106,-0.017,0.303,0.446,83.588,7.826
20:17:01:434,19.898,0.032,0.160,0.253,0.554,82.164,8.708
20:17:01:435,19.899,0.045,0.208,0.194,0.986,80.718,9.340
20:17:01:458,19.922,0.011,0.209,0.112,2.008,78.462,10.341
20:17:01:512,19.976,-0.028,0.170,0.066,2.855,77.280,11.166
20:17:01:513,19.976,-0.071,0.102,0.059,4.362,76.146,12.737
20:17:01:536,19.999,-0.094,-0.001,0.052,5.479,75.593,13.999
20:17:01:645,20.108,-0.125,-0.059,0.014,7.300,74.766,16.116
20:17:01:645,20.109,-0.129,-0.126,-0.051,9.336,73.808,18.381
20:17:01:672,20.136,-0.124,-0.156,-0.095,10.815,73.118,19.914
20:17:01:673,20.137,-0.132,-0.171,-0.138,13.049,72.289,22.101
20:17:01:674,20.138,-0.145,-0.204,-0.177,14.471,71.853,23.417
20:17:01:724,20.187,-0.148,-0.218,-0.188,15.872,71.440,24.793
20:17:01:724,20.188,-0.154,-0.221,-0.213,15.792,71.081,25.129
20:17:01:745,20.209,-0.164,-0.184,-0.233,16.044,71.283,25.477
20:17:01:771,20.235,-0.180,-0.128,-0.271,16.896,71.611,26.200
20:17:01:83,20.293,-0.199,-0.046,-0.300,17.197,71.978,26.398
20:17:01:831,20.294,-0.210,-0.014,-0.349,17.249,72.404,26.248
20:17:01:832,20.295,-0.230,0.028,-0.329,16.734,73.091,25.663
20:17:01:851,20.315,-0.200,0.089,-0.308,16.114,73.446,24.975
20:17:01:906,20.369,-0.169,0.035,-0.243,14.863,73.669,23.319
20:17:01:907,20.370,-0.135,0.069,-0.202,13.796,73.576,21.884
20:17:01:986,20.450,0.001,-0.113,-0.023,12.160,73.506,19.552
20:17:01:986,20.450,0.009,0.034,-0.082,10.844,73.087,18.073
20:17:02:012,20.476,0.018,0.131,-0.115,8.886,72.544,16.225
20:17:02:013,20.476,0.070,0.189,-0.064,7.284,72.391,14.693
20:17:02:065,20.528,0.104,0.094,-0.036,6.477,72.622,13.737
20:17:02:065,20.528,0.132,-0.085,-0.010,5.606,73.974,12.631
20:17:02:086,20.550,0.122,-0.141,0.062,5.178,75.521,12.243
20:17:02:113,20.576,0.125,-0.168,0.099,4.684,78.626,12.010
20:17:02:141,20.605,0.126,-0.208,0.121,4.321,81.540,11.817
20:17:02:167,20.631,0.097,-0.224,0.165,4.145,83.768,11.636
20:17:02:192,20.656,0.094,-0.194,0.124,3.834,85.967,11.086
20:17:02:218,20.682,0.121,-0.167,0.176,3.609,87.556,10.582
20:17:02:244,20.708,0.116,-0.137,0.180,3.021,89.048,9.673
20:17:02:27,20.734,0.120,-0.130,0.204,2.525,89.894,8.991
20:17:02:298,20.762,0.162,-0.078,0.228,1.655,90.670,7.915
20:17:02:324,20.787,0.231,0.037,0.248,0.605,91.060,6.822
20:17:02:351,20.815,0.231,0.084,0.249,-0.205,90.924,6.117
20:17:02:406,20.870,0.205,0.234,0.243,-1.434,90.539,5.152
20:17:02:407,20.870,0.237,0.406,0.297,-2.142,90.342,4.622
20:17:02:428,20.891,0.229,0.319,0.289,-2.846,90.209,4.029
20:17:02:569,21.033,0.274,0.189,0.317,-3.099,90.553,3.913
20:17:02:57,21.034,0.282,0.003,0.338,-3.019,90.972,4.252
20:17:02:57,21.034,0.181,0.103,0.306,-2.837,91.055,5.387
20:17:02:572,21.035,0.149,0.165,0.230,-2.426,90.628,6.413
20:17:02:642,21.106,0.126,0.222,0.151,-1.345,89.284,8.019
20:17:02:643,21.107,0.058,0.190,0.067,0.198,87.843,9.608
20:17:02:751,21.215,0.003,0.098,0.045,1.389,87.468,10.792
20:17:02:751,21.215,-0.073,-0.015,0.044,3.328,87.470,13.003
20:17:02:752,21.216,-0.090,-0.063,0.043,4.659,88.061,14.768
20:17:02:801,21.265,-0.111,-0.122,0.043,6.713,88.672,17.645
20:17:02:801,21.265,-0.122,-0.167,-0.004,8.108,88.736,19.438
20:17:02:832,21.295,-0.141,-0.182,-0.047,10.161,88.355,21.766
20:17:02:832,21.295,-0.151,-0.218,-0.107,12.043,87.673,23.619
20:17:02:833,21.296,-0.177,-0.234,-0.143,13.116,87.349,24.628
20:17:02:834,21.297,-0.202,-0.215,-0.184,14.417,87.014,25.868
20:17:02:877,21.340,-0.226,-0.212,-0.199,15.096,87.082,26.514
20:17:02:878,21.341,-0.231,-0.191,-0.207,15.782,87.262,27.134
20:17:02:902,21.366,-0.224,-0.058,-0.225,15.952,87.660,27.193
20:17:02:958,21.422,-0.210,-0.048,-0.214,15.789,87.856,26.832
20:17:02:958,21.422,-0.256,0.008,-0.259,15.083,88.073,25.805
20:17:02:979,21.443,-0.224,0.092,-0.256,14.370,88.385,24.911
20:17:03:035,21.498,-0.142,0.119,-0.172,12.986,88.867,23.129
20:17:03:035,21.499,-0.069,0.018,-0.090,11.921,89.127,21.611
20:17:03:086,21.550,-0.057,0.095,-0.087,10.140,89.200,19.157
20:17:03:168,21.632,0.005,0.067,-0.034,8.492,89.519,16.815
20:17:03:168,21.632,0.048,0.196,-0.041,7.449,89.642,15.458
20:17:03:303,21.767,0.068,0.249,-0.061,6.126,90.117,13.869
20:17:03:304,21.768,0.090,0.109,-0.055,5.462,90.698,13.084
20:17:03:305,21.769,0.111,-0.006,-0.030,4.883,92.521,12.354
20:17:03:305,21.769,0.106,-0.195,0.008,4.721,95.367,12.169
20:17:03:36,21.824,0.092,-0.232,0.028,4.734,97.744,12.275
20:17:03:36,21.824,0.075,-0.264,0.072,4.892,101.548,12.522
20:17:03:36,21.824,0.110,-0.234,0.134,5.029,104.135,12.637
20:17:03:361,21.824,0.140,-0.204,0.155,5.089,107.935,12.617
20:17:03:376,21.839,0.114,-0.157,0.179,4.851,110.720,12.017
20:17:03:377,21.840,0.132,-0.143,0.103,4.541,111.855,11.370
20:17:03:508,21.972,0.167,-0.093,0.149,3.706,113.242,10.230
20:17:03:508,21.972,0.197,-0.081,0.157,2.984,113.810,9.422
20:17:03:619,22.082,0.235,-0.029,0.149,1.701,114.150,8.275
20:17:03:619,22.083,0.289,0.135,0.106,0.721,114.097,7.601
20:17:03:621,22.085,0.289,0.137,0.117,-0.641,113.835,6.789
20:17:03:7,22.163,0.363,0.358,0.071,-1.952,113.494,6.096
20:17:03:7,22.164,0.385,0.222,0.057,-1.976,113.908,6.084
20:17:03:7,22.164,0.408,0.104,0.056,-1.819,114.473,6.322
20:17:03:7,22.164,0.288,0.044,0.051,-1.270,115.419,7.193
20:17:03:721,22.184,0.184,0.142,0.062,-0.163,116.512,8.796
20:17:03:721,22.185,0.108,0.228,0.029,0.991,117.124,10.098
20:17:03:722,22.186,0.038,0.221,0.019,3.181,118.093,12.121
20:17:03:771,22.235,-0.003,0.143,-0.006,4.808,118.959,13.404
20:17:03:771,22.235,-0.065,0.020,0.030,7.077,120.147,15.333
20:17:03:793,22.257,-0.066,-0.054,0.029,8.545,120.909,16.600
20:17:03:819,22.283,-0.120,-0.125,-0.018,10.834,121.769,18.406
20:17:03:846,22.309,-0.150,-0.174,-0.047,13.197,122.503,20.095
20:17:03:872,22.335,-0.178,-0.178,-0.029,14.724,123.073,21.176
20:17:03:927,22.391,-0.201,-0.225,-0.063,16.935,124.095,22.544
20:17:03:928,22.392,-0.202,-0.242,-0.063,18.229,124.801,23.254
20:17:03:95,22.414,-0.202,-0.243,-0.059,19.783,126.080,24.005
20:17:04:009,22.472,-0.226,-0.256,-0.033,20.344,127.075,23.955
20:17:04:009,22.473,-0.215,-0.237,-0.025,19.874,127.882,23.212
20:17:04:01,22.474,-0.246,-0.176,-0.024,19.696,128.737,22.518
20:17:04:089,22.553,-0.248,-0.102,-0.004,19.576,129.368,21.978
20:17:04:089,22.553,-0.246,-0.050,-0.002,18.899,130.052,20.560
20:17:04:09,22.553,-0.263,0.059,0.009,17.757,130.699,18.335
20:17:04:109,22.573,-0.238,0.150,0.003,16.818,130.941,16.531
20:17:04:161,22.625,-0.139,0.236,0.058,15.122,131.569,13.444
20:17:04:189,22.653,-0.070,0.226,0.085,13.911,131.976,11.073
20:17:04:19,22.654,-0.020,0.289,0.123,12.005,132.760,7.434
20:17:04:271,22.735,0.121,0.156,0.122,11.017,133.439,5.248
20:17:04:272,22.735,0.120,0.044,0.082,10.036,135.042,2.702
20:17:04:273,22.736,0.133,0.114,0.106,9.666,137.734,1.540
20:17:04:294,22.757,0.106,0.064,0.135,9.786,139.935,1.344
20:17:04:347,22.811,0.106,-0.010,0.133,10.297,143.735,1.352
20:17:04:348,22.812,0.120,-0.144,0.124,10.758,146.359,1.511
20:17:04:429,22.892,0.148,-0.218,0.107,11.325,150.564,1.840
20:17:04:43,22.893,0.184,-0.254,0.140,11.694,154.341,2.115
20:17:04:43,22.894,0.159,-0.262,0.118,11.852,156.899,2.196
20:17:04:449,22.913,0.195,-0.208,0.113,11.941,159.869,2.565
20:17:04:53,22.993,0.226,-0.199,0.085,11.805,161.772,2.582
20:17:04:59,23.054,0.255,-0.187,0.047,11.215,163.906,2.481
20:17:04:59,23.054,0.249,-0.149,0.017,10.444,165.017,2.377
20:17:04:59,23.054,0.256,-0.134,-0.024,9.181,166.015,2.235
20:17:04:591,23.055,0.334,-0.091,-0.107,7.811,166.852,2.077
20:17:04:636,23.099,0.291,-0.017,-0.101,6.818,166.836,1.850
20:17:04:637,23.100,0.333,0.065,-0.149,5.417,166.907,1.595
20:17:04:802,23.266,0.311,0.147,-0.170,4.552,166.848,1.499
20:17:04:802,23.266,0.338,0.252,-0.123,3.385,167.107,1.489
20:17:04:802,23.266,0.300,0.237,-0.124,2.606,167.327,1.772
20:17:04:802,23.266,0.313,0.163,-0.145,2.283,167.785,2.149
20:17:04:823,23.287,0.370,0.133,-0.175,1.830,168.353,2.929
20:17:04:824,23.287,0.371,-0.031,-0.111,1.594,168.387,3.475
20:17:04:824,23.288,0.286,0.007,-0.090,1.480,166.948,4.296
20:17:04:844,23.307,0.214,0.101,-0.072,2.034,165.175,5.308
20:17:04:899,23.362,0.170,0.167,-0.036,2.775,163.998,6.074
20:17:04:983,23.446,0.093,0.163,0.098,5.597,162.242,8.213
20:17:04:983,23.446,0.066,0.034,0.114,7.821,162.205,9.684
20:17:04:983,23.446,0.076,0.008,0.089,9.313,162.285,10.829
20:17:05:001,23.464,0.028,-0.103,0.190,11.187,162.275,12.846
20:17:05:056,23.519,-0.039,-0.161,0.260,12.930,161.548,14.833
20:17:05:057,23.520,-0.070,-0.174,0.257,14.284,160.904,15.977
20:17:05:192,23.656,-0.127,-0.220,0.174,16.335,160.067,17.448
20:17:05:192,23.656,-0.162,-0.235,0.210,17.429,159.629,18.286
20:17:05:193,23.656,-0.174,-0.236,0.211,18.247,159.117,19.024
20:17:05:245,23.709,-0.183,-0.224,0.176,17.819,158.556,18.960
20:17:05:246,23.709,-0.183,-0.183,0.161,18.545,158.477,19.184
20:17:05:247,23.710,-0.209,-0.063,0.180,19.119,158.344,19.175
20:17:05:403,23.867,-0.244,0.024,0.196,18.565,158.220,18.023
20:17:05:404,23.868,-0.186,0.091,0.203,17.915,158.292,17.394
20:17:05:405,23.868,-0.202,0.158,0.162,16.655,158.299,16.115
20:17:05:406,23.869,-0.164,0.093,0.126,15.110,158.374,14.489
20:17:05:427,23.891,-0.101,0.070,0.139,13.923,158.746,13.381
20:17:05:427,23.891,0.096,0.046,0.029,12.147,159.587,11.651
20:17:05:428,23.891,0.132,-0.041,-0.077,10.949,159.628,10.393
20:17:05:448,23.912,-0.026,0.099,-0.043,8.992,159.526,8.903
20:17:05:476,23.940,-0.090,0.203,-0.008,7.722,160.531,8.258
20:17:05:499,23.963,-0.038,0.178,0.014,7.486,162.337,8.263
20:17:05:525,23.989,0.064,0.027,0.024,7.689,166.296,8.582
20:17:05:552,24.015,0.145,-0.169,0.012,7.974,169.283,8.940
20:17:05:578,24.041,0.162,-0.207,-0.009,8.338,173.476,9.503
20:17:05:604,24.068,0.175,-0.230,-0.022,8.564,175.898,9.730
20:17:05:632,24.096,0.094,-0.232,-0.065,8.796,178.741,9.785
20:17:05:658,24.121,0.194,-0.203,-0.046,8.943,-178.293,9.909
20:17:05:712,24.176,0.204,-0.196,-0.038,8.848,-176.627,9.717
20:17:05:713,24.177,0.158,-0.181,-0.059,8.414,-175.174,9.069
20:17:05:736,24.199,0.183,-0.152,-0.095,7.941,-174.444,8.494
20:17:05:791,24.254,0.184,-0.130,-0.085,6.971,-173.538,7.594
20:17:05:792,24.255,0.209,-0.055,-0.124,5.879,-172.875,6.772
20:17:05:815,24.278,0.226,0.018,-0.140,5.094,-172.617,6.275
20:17:05:841,24.305,0.217,0.113,-0.172,3.856,-172.693,5.525
20:17:05:897,24.361,0.184,0.166,-0.117,3.065,-172.853,5.058
20:17:05:897,24.361,0.196,0.251,-0.124,2.004,-172.771,4.568
20:17:05:919,24.383,0.254,0.203,-0.189,1.317,-172.183,4.336
20:17:05:948,24.411,0.268,0.175,-0.201,0.978,-171.831,4.244
20:17:05:972,24.436,0.286,0.103,-0.288,0.603,-171.288,4.263
20:17:06:056,24.520,0.276,0.066,-0.260,0.488,-171.274,4.435
20:17:06:057,24.521,0.223,0.171,-0.122,0.512,-171.656,5.047
20:17:06:058,24.522,0.197,0.216,-0.088,0.940,-172.174,5.753
20:17:06:166,24.630,0.136,0.229,-0.018,2.228,-172.833,7.153
20:17:06:167,24.630,0.085,0.143,0.028,4.048,-173.075,8.901
20:17:06:167,24.630,0.082,0.009,0.019,5.439,-172.893,10.296
20:17:06:167,24.630,0.072,-0.070,0.033,7.464,-172.303,12.708
20:17:06:214,24.678,0.039,-0.131,0.077,8.700,-171.879,14.436
20:17:06:214,24.678,0.014,-0.152,0.110,10.476,-171.433,16.999
20:17:06:215,24.679,-0.039,-0.201,0.148,12.284,-171.195,19.306
20:17:06:265,24.728,-0.061,-0.226,0.167,13.502,-171.011,20.667
20:17:06:265,24.729,-0.079,-0.242,0.185,15.236,-170.549,22.443
20:17:06:316,24.779,-0.084,-0.255,0.219,16.204,-170.152,23.374
20:17:06:372,24.835,-0.086,-0.252,0.219,15.827,-169.543,23.573
20:17:06:372,24.836,-0.085,-0.194,0.236,15.261,-169.058,23.396
20:17:06:373,24.836,-0.089,-0.103,0.240,15.607,-168.238,23.496
20:17:06:392,24.856,-0.086,-0.023,0.253,15.460,-167.631,22.822
20:17:06:448,24.912,-0.089,-0.004,0.243,15.130,-167.354,21.964
20:17:06:448,24.912,-0.084,0.068,0.251,14.303,-166.943,20.318
20:17:06:471,24.934,-0.062,0.093,0.205,13.625,-166.630,19.028
20:17:06:526,24.989,0.004,0.127,0.107,12.394,-166.255,16.673
20:17:06:526,24.990,-0.018,0.194,0.171,10.983,-165.916,13.992
20:17:06:549,25.013,0.024,0.226,0.155,10.128,-165.320,12.244
20:17:06:575,25.039,0.094,0.082,-0.023,9.252,-163.921,9.935
20:17:06:603,25.067,0.093,0.210,-0.033,8.682,-162.798,8.761
20:17:06:63,25.094,0.057,0.237,-0.006,8.061,-160.809,7.794
20:17:06:654,25.118,0.068,0.116,0.043,8.027,-158.175,7.695
20:17:06:682,25.146,0.067,-0.045,-0.006,8.393,-155.816,7.971
20:17:06:707,25.171,0.091,-0.233,-0.022,9.212,-151.635,8.763
20:17:06:733,25.197,0.112,-0.291,-0.036,9.784,-148.601,9.445
20:17:06:759,25.223,0.153,-0.323,-0.068,10.535,-144.175,10.430
20:17:06:785,25.249,0.154,-0.305,-0.095,10.885,-141.549,10.859
20:17:06:812,25.275,0.153,-0.294,-0.092,11.115,-138.340,10.989
20:17:06:838,25.301,0.175,-0.257,-0.156,10.931,-135.962,10.420
20:17:06:866,25.330,0.190,-0.189,-0.202,10.568,-135.278,9.625
20:17:06:891,25.355,0.143,-0.116,-0.198,9.644,-135.411,7.973
20:17:06:917,25.380,0.080,-0.090,-0.229,8.824,-135.911,6.810
20:17:06:943,25.407,0.063,-0.020,-0.223,7.261,-136.602,5.304
20:17:07:028,25.491,0.064,0.129,-0.284,5.502,-136.773,4.275
20:17:07:028,25.492,0.039,0.140,-0.349,4.437,-136.822,3.787
20:17:07:029,25.493,0.068,0.230,-0.300,3.032,-136.632,3.338
20:17:07:048,25.512,0.083,0.246,-0.321,2.393,-136.201,3.261
20:17:07:075,25.539,0.064,0.188,-0.327,2.051,-135.190,3.411
20:17:07:101,25.565,0.088,0.153,-0.400,1.971,-134.354,3.648
20:17:07:127,25.590,0.083,0.026,-0.397,2.076,-133.223,4.181
20:17:07:153,25.617,0.130,0.102,-0.325,2.236,-132.982,5.049
20:17:07:18,25.643,0.094,0.147,-0.262,2.608,-133.391,5.760
20:17:07:205,25.669,0.081,0.241,-0.117,3.572,-134.437,6.912
20:17:07:233,25.697,0.083,0.235,-0.047,4.515,-134.932,7.820
20:17:07:258,25.722,0.081,0.126,-0.013,6.398,-134.882,9.619
20:17:07:284,25.748,0.098,0.010,0.049,8.474,-133.937,12.085
20:17:07:311,25.774,0.128,-0.035,0.099,9.874,-132.920,14.076
20:17:07:339,25.803,0.117,-0.131,0.107,12.027,-131.235,17.301
20:17:07:364,25.828,0.088,-0.183,0.086,13.478,-130.346,19.376
20:17:07:389,25.853,0.060,-0.201,0.105,15.573,-129.962,21.992
20:17:07:42,25.884,0.026,-0.247,0.181,17.412,-129.919,23.802
20:17:07:441,25.905,0.016,-0.269,0.190,18.456,-129.940,24.640
20:17:07:468,25.932,0.032,-0.262,0.237,19.720,-129.737,25.526
20:17:07:496,25.960,0.054,-0.232,0.285,20.382,-129.362,25.964
20:17:07:522,25.985,0.097,-0.206,0.318,21.113,-128.423,26.410
20:17:07:579,26.043,0.107,-0.115,0.298,21.398,-127.715,26.446
20:17:07:58,26.043,0.104,-0.071,0.279,21.392,-127.020,25.797
20:17:07:6,26.064,0.115,-0.018,0.361,20.727,-126.843,24.284
20:17:07:626,26.090,0.138,0.025,0.352,19.990,-126.687,22.958
20:17:07:652,26.116,0.158,0.185,0.281,18.554,-126.334,20.433
20:17:07:68,26.144,0.188,0.138,0.208,17.515,-126.107,18.350
20:17:07:704,26.168,0.226,0.178,0.182,15.726,-125.749,14.985
20:17:07:73,26.194,0.144,-0.013,-0.030,14.232,-124.791,11.955
20:17:07:758,26.221,0.138,0.073,0.012,13.226,-124.127,10.353
20:17:07:783,26.247,0.165,0.193,0.082,11.786,-122.833,8.848
20:17:07:839,26.303,0.169,0.128,0.020,11.215,-121.553,8.348
20:17:07:84,26.303,0.132,0.035,-0.038,10.956,-118.657,7.977
20:17:07:862,26.326,0.096,-0.155,-0.102,11.037,-116.177,7.938
20:17:07:889,26.353,0.106,-0.182,-0.117,11.180,-112.386,8.173
20:17:07:915,26.378,0.086,-0.246,-0.196,11.173,-108.663,8.473
20:17:07:94,26.404,0.025,-0.236,-0.237,11.088,-106.630,8.511
20:17:07:967,26.430,0.018,-0.212,-0.208,10.620,-104.438,8.116
20:17:07:993,26.457,-0.012,-0.167,-0.235,9.891,-102.953,7.273
20:17:08:021,26.485,-0.030,-0.126,-0.243,9.320,-102.355,6.551
20:17:08:075,26.538,-0.087,-0.087,-0.255,8.450,-102.072,5.497
20:17:08:075,26.539,-0.088,-0.096,-0.252,7.908,-101.904,4.970
20:17:08:126,26.590,-0.077,-0.057,-0.241,7.244,-101.475,4.622
20:17:08:182,26.646,-0.080,0.065,-0.294,6.885,-100.978,4.666
20:17:08:183,26.647,-0.105,0.063,-0.322,6.373,-100.457,4.799
20:17:08:184,26.648,-0.063,0.152,-0.272,5.730,-100.409,4.807
20:17:08:203,26.667,-0.004,0.332,-0.256,5.243,-100.604,4.802
20:17:08:229,26.693,-0.008,0.301,-0.253,4.917,-100.693,4.869
20:17:08:257,26.720,-0.038,0.231,-0.277,4.889,-100.592,5.048
20:17:08:313,26.777,-0.063,0.050,-0.314,5.052,-100.423,5.672
20:17:08:313,26.777,0.020,0.092,-0.255,5.219,-100.616,6.396
20:17:08:392,26.856,0.102,0.180,-0.183,6.078,-101.385,7.885
20:17:08:393,26.857,0.124,0.207,-0.104,7.552,-102.555,9.464
20:17:08:394,26.858,0.142,0.179,-0.060,8.677,-103.385,10.448
20:17:08:413,26.877,0.164,0.109,-0.037,10.424,-104.416,11.860
20:17:08:439,26.903,0.203,-0.058,-0.013,11.585,-104.851,12.872
20:17:08:466,26.929,0.218,-0.107,0.012,13.392,-105.469,14.737
20:17:08:492,26.955,0.224,-0.156,0.030,15.292,-105.583,16.953
20:17:08:547,27.011,0.228,-0.177,0.056,16.592,-105.850,18.440
20:17:08:548,27.012,0.239,-0.188,0.096,18.522,-106.234,20.484
20:17:08:573,27.037,0.229,-0.210,0.137,19.187,-106.618,21.524
20:17:08:599,27.063,0.228,-0.233,0.170,20.298,-107.139,22.831
20:17:08:6,27.064,0.248,-0.266,0.202,21.740,-107.459,24.026
20:17:08:652,27.116,0.250,-0.261,0.208,22.504,-107.409,24.689
20:17:08:653,27.117,0.254,-0.211,0.221,21.805,-107.429,24.800
20:17:08:676,27.140,0.262,-0.112,0.244,22.087,-107.342,24.964
20:17:08:733,27.197,0.300,-0.049,0.280,22.086,-107.376,24.608
20:17:08:733,27.197,0.307,0.009,0.316,21.817,-107.386,24.072
20:17:08:813,27.276,0.285,0.088,0.294,20.980,-107.322,22.967
20:17:08:813,27.277,0.225,0.164,0.197,19.609,-107.582,21.244
20:17:08:814,27.278,0.197,0.095,0.149,18.508,-107.942,19.702
20:17:08:833,27.297,0.162,0.074,0.159,16.643,-108.792,17.210
20:17:08:862,27.325,0.048,-0.033,0.044,15.447,-109.195,15.712
20:17:08:886,27.350,0.031,0.028,0.060,13.747,-109.888,13.856
20:17:08:942,27.406,0.061,0.140,0.122,12.161,-109.891,12.550
20:17:08:942,27.406,0.068,0.128,0.118,11.389,-109.316,11.951
20:17:08:995,27.459,0.047,0.019,0.027,10.746,-107.225,11.327
20:17:09:021,27.484,0.014,-0.116,-0.043,10.528,-105.347,11.003
20:17:09:021,27.485,0.033,-0.229,-0.118,10.226,-102.146,10.607
20:17:09:072,27.536,0.033,-0.242,-0.149,9.974,-100.023,10.315
20:17:09:073,27.536,0.021,-0.244,-0.219,9.525,-97.295,9.643
20:17:09:123,27.587,-0.008,-0.208,-0.240,8.937,-95.541,8.508
20:17:09:151,27.615,-0.011,-0.104,-0.239,8.414,-94.822,7.542
20:17:09:151,27.615,-0.023,-0.060,-0.265,7.500,-94.021,6.033
20:17:09:174,27.638,-0.017,-0.052,-0.270,6.905,-93.531,5.109
20:17:09:201,27.664,-0.040,-0.051,-0.285,6.077,-92.743,4.069
20:17:09:227,27.691,-0.085,-0.036,-0.316,5.323,-92.041,3.551
20:17:09:42,27.883,-0.084,0.042,-0.316,4.801,-92.094,3.409
20:17:09:421,27.884,-0.088,0.084,-0.291,4.074,-91.986,3.295
20:17:09:421,27.885,-0.092,0.160,-0.271,3.660,-92.147,3.252
20:17:09:422,27.886,-0.077,0.276,-0.281,3.101,-92.184,3.272
20:17:09:495,27.959,-0.081,0.192,-0.303,2.715,-92.326,3.357
20:17:09:495,27.959,-0.083,0.129,-0.287,2.592,-92.105,3.502
20:17:09:604,28.067,-0.134,0.123,-0.369,2.443,-91.830,4.035
20:17:09:605,28.068,-0.128,0.028,-0.364,2.433,-91.954,4.533
20:17:09:605,28.069,-0.039,0.080,-0.306,2.523,-93.029,5.488
20:17:09:606,28.070,-0.025,0.166,-0.216,2.872,-94.265,6.290
20:17:09:63,28.093,0.043,0.177,-0.151,3.753,-96.835,7.606
20:17:09:631,28.094,0.093,0.148,-0.094,5.071,-98.928,9.028
20:17:09:631,28.095,0.100,0.069,-0.080,6.165,-99.907,10.083
20:17:09:632,28.096,0.109,-0.031,-0.079,7.942,-100.926,11.863
20:17:09:649,28.113,0.169,-0.105,-0.030,9.144,-101.429,13.166
20:17:09:65,28.114,0.179,-0.130,0.001,11.033,-101.969,15.268
20:17:09:674,28.138,0.204,-0.144,0.038,13.074,-102.490,17.442
20:17:09:699,28.163,0.217,-0.157,0.071,14.485,-102.685,18.820
20:17:09:725,28.189,0.225,-0.175,0.106,15.195,-103.162,20.423
20:17:09:752,28.215,0.211,-0.193,0.121,15.349,-103.387,21.201
20:17:09:778,28.242,0.212,-0.197,0.136,15.260,-103.610,22.043
20:17:09:805,28.268,0.204,-0.196,0.155,14.971,-103.370,22.406
20:17:09:831,28.294,0.221,-0.164,0.172,14.768,-103.304,22.892
20:17:09:857,28.320,0.229,-0.034,0.195,15.298,-102.761,23.380
20:17:09:885,28.349,0.238,-0.009,0.237,15.436,-102.905,23.298
20:17:09:91,28.374,0.240,0.038,0.284,15.223,-102.981,22.539
20:17:09:936,28.399,0.210,0.143,0.230,14.796,-103.205,21.729
20:17:09:964,28.428,0.183,0.123,0.154,13.655,-103.012,19.976
20:17:10:045,28.509,0.181,0.068,0.149,12.110,-103.360,17.692
20:17:10:045,28.509,0.118,0.038,0.024,10.908,-103.488,16.156
20:17:10:098,28.562,-0.006,-0.040,-0.072,9.094,-104.057,13.918
20:17:10:099,28.563,-0.017,0.096,-0.003,7.697,-104.448,12.617
20:17:10:1,28.564,-0.031,0.190,0.075,5.754,-105.385,11.148
20:17:10:207,28.670,-0.050,0.137,0.060,4.396,-105.093,10.224
20:17:10:208,28.671,-0.079,0.060,0.019,3.886,-103.986,9.788
20:17:10:209,28.672,-0.097,-0.136,-0.072,3.559,-101.100,9.418
20:17:10:209,28.673,-0.090,-0.187,-0.088,3.430,-99.013,9.336
20:17:10:227,28.690,-0.076,-0.213,-0.133,3.254,-95.477,9.261
20:17:10:252,28.716,-0.097,-0.237,-0.209,3.147,-93.545,9.110
20:17:10:277,28.741,-0.109,-0.235,-0.227,2.798,-91.004,8.565
20:17:10:417,28.881,-0.136,-0.213,-0.198,2.190,-89.512,7.599
20:17:10:418,28.882,-0.167,-0.189,-0.224,1.649,-88.862,6.863
20:17:10:419,28.882,-0.210,-0.144,-0.252,0.678,-88.185,5.733
20:17:10:42,28.883,-0.207,-0.128,-0.248,-0.363,-87.929,4.661
20:17:10:437,28.901,-0.202,-0.076,-0.223,-1.015,-87.809,4.071
20:17:10:465,28.929,-0.221,0.079,-0.250,-1.855,-87.386,3.441
20:17:10:465,28.929,-0.246,0.109,-0.278,-2.284,-86.877,3.124
20:17:10:487,28.951,-0.224,0.199,-0.297,-2.820,-86.073,2.796
20:17:10:515,28.979,-0.231,0.296,-0.321,-3.093,-85.442,2.729
20:17:10:54,29.004,-0.243,0.203,-0.336,-3.248,-84.686,2.841
20:17:10:566,29.029,-0.303,0.197,-0.328,-3.229,-84.087,3.295
20:17:10:592,29.055,-0.238,0.058,-0.274,-3.031,-83.937,3.817
20:17:10:621,29.084,-0.142,0.174,-0.250,-2.485,-83.930,5.067
20:17:10:673,29.137,-0.116,0.229,-0.188,-1.737,-84.176,6.191
20:17:10:674,29.138,-0.082,0.189,-0.153,-0.243,-84.692,8.037
20:17:10:727,29.190,-0.026,0.113,-0.096,1.472,-85.317,9.993
20:17:10:727,29.191,-0.004,0.048,-0.083,2.661,-85.471,11.339
20:17:10:782,29.246,0.032,-0.036,-0.067,4.412,-85.720,13.446
20:17:10:782,29.246,0.066,-0.093,-0.036,5.590,-85.542,14.902
20:17:10:783,29.246,0.077,-0.113,-0.013,7.411,-85.872,17.098
20:17:10:831,29.295,0.133,-0.155,0.052,8.683,-85.904,18.536
20:17:10:831,29.295,0.155,-0.174,0.089,10.661,-86.111,20.626
20:17:10:855,29.319,0.173,-0.191,0.108,12.626,-85.830,22.584
20:17:10:911,29.375,0.180,-0.207,0.118,13.405,-85.551,23.453
20:17:10:912,29.375,0.214,-0.239,0.128,13.544,-84.634,24.000
20:17:10:933,29.397,0.232,-0.238,0.143,14.333,-83.880,24.854
20:17:10:988,29.452,0.266,-0.171,0.165,15.104,-82.478,25.833
20:17:10:989,29.452,0.266,-0.076,0.159,15.332,-80.898,26.111
20:17:11:043,29.507,0.250,-0.080,0.150,15.223,-80.400,25.740
20:17:11:043,29.507,0.309,0.011,0.218,14.475,-79.846,24.476
20:17:11:064,29.528,0.266,0.077,0.187,13.738,-79.478,23.365
20:17:11:119,29.583,0.207,0.086,0.119,12.312,-78.821,21.223
20:17:11:259,29.723,0.209,0.229,0.114,10.610,-78.290,18.481
20:17:11:259,29.723,0.027,0.154,-0.017,9.472,-77.950,16.396
20:17:11:26,29.723,-0.018,0.050,0.007,7.839,-77.411,13.154
20:17:11:26,29.724,-0.007,0.087,0.023,6.669,-76.825,11.335
20:17:11:309,29.773,0.059,0.237,0.022,5.233,-75.202,9.526
20:17:11:31,29.773,0.047,0.223,-0.068,4.742,-73.353,8.749
20:17:11:311,29.774,0.005,0.125,-0.122,4.795,-69.602,7.751
20:17:11:312,29.775,-0.086,-0.108,-0.150,5.462,-65.104,7.017
20:17:11:327,29.790,-0.099,-0.186,-0.175,5.886,-61.998,6.748
20:17:11:382,29.846,-0.118,-0.210,-0.205,6.267,-57.449,6.608
20:17:11:383,29.847,-0.138,-0.236,-0.225,6.394,-54.793,6.509
20:17:11:408,29.872,-0.170,-0.252,-0.208,6.458,-51.463,6.101
20:17:11:49,29.954,-0.190,-0.238,-0.174,6.257,-48.946,5.333
20:17:11:491,29.954,-0.214,-0.246,-0.165,5.967,-47.506,4.699
20:17:11:492,29.955,-0.262,-0.232,-0.160,5.350,-45.727,3.675
20:17:11:511,29.974,-0.280,-0.160,-0.163,4.804,-44.787,2.981
20:17:11:626,30.089,-0.307,-0.098,-0.151,3.860,-43.660,1.983
20:17:11:626,30.090,-0.338,0.046,-0.156,3.146,-43.034,1.350
20:17:11:626,30.090,-0.398,0.059,-0.134,2.020,-42.218,0.478
20:17:11:627,30.090,-0.454,0.193,-0.149,0.741,-41.688,-0.242
20:17:11:642,30.106,-0.479,0.352,-0.153,-0.226,-41.640,-0.609
20:17:11:668,30.132,-0.429,0.332,-0.074,-1.417,-42.176,-0.895
20:17:11:694,30.158,-0.506,0.292,-0.029,-1.918,-42.466,-0.771
20:17:11:72,30.184,-0.355,-0.019,-0.028,-1.967,-42.682,-0.007
20:17:11:747,30.210,-0.314,0.086,-0.076,-1.469,-42.354,1.780
20:17:11:775,30.239,-0.258,0.123,-0.084,-0.658,-42.302,3.421
20:17:11:799,30.263,-0.191,0.196,-0.072,0.981,-42.649,5.998
20:17:11:827,30.291,-0.073,0.150,-0.076,2.290,-43.022,7.610
20:17:11:853,30.316,-0.037,0.096,-0.069,4.400,-43.345,9.846
20:17:11:878,30.342,0.008,0.020,-0.081,5.793,-43.347,11.324
20:17:11:904,30.368,0.011,-0.035,-0.105,7.645,-43.089,13.552
20:17:11:959,30.423,0.071,-0.070,-0.115,9.466,-42.998,15.666
20:17:11:96,30.424,0.106,-0.088,-0.100,10.746,-43.071,16.989
20:17:11:983,30.447,0.164,-0.142,-0.085,12.733,-43.130,18.890
20:17:12:038,30.502,0.185,-0.164,-0.076,14.049,-43.002,20.130
20:17:12:039,30.503,0.210,-0.201,-0.080,15.921,-42.533,21.919
20:17:12:062,30.525,0.244,-0.226,-0.082,17.584,-41.685,23.563
20:17:12:117,30.580,0.265,-0.223,-0.082,18.530,-41.030,24.550
20:17:12:118,30.581,0.295,-0.187,-0.068,18.446,-40.197,25.031
20:17:12:169,30.633,0.352,-0.087,-0.066,18.928,-39.511,25.511
20:17:12:196,30.660,0.381,-0.048,-0.064,19.251,-38.478,25.570
20:17:12:197,30.660,0.385,-0.028,-0.084,19.023,-37.305,24.790
20:17:12:278,30.741,0.361,-0.019,-0.099,18.615,-36.348,23.877
20:17:12:278,30.742,0.310,0.049,-0.154,17.639,-34.978,21.919
20:17:12:279,30.743,0.187,0.108,-0.169,16.809,-34.043,20.225
20:17:12:298,30.762,0.030,-0.034,-0.124,15.571,-32.671,17.291
20:17:12:325,30.788,0.049,0.057,-0.129,14.553,-31.964,15.264
20:17:12:351,30.815,0.077,0.131,-0.129,12.910,-30.964,12.597
20:17:12:376,30.840,0.059,0.219,-0.162,11.666,-29.471,10.558
20:17:12:432,30.896,0.028,0.137,-0.145,11.184,-27.878,9.452
20:17:12:433,30.897,-0.089,-0.030,-0.131,10.891,-24.285,8.279
20:17:12:457,30.921,-0.141,-0.116,-0.108,10.861,-21.535,7.793
20:17:12:482,30.945,-0.203,-0.202,-0.128,10.787,-17.173,7.275
20:17:12:51,30.973,-0.238,-0.216,-0.111,10.723,-14.500,6.933
20:17:12:535,30.999,-0.248,-0.224,-0.096,10.597,-10.712,6.228
20:17:12:561,31.025,-0.277,-0.198,-0.055,10.326,-7.533,5.262
20:17:12:587,31.050,-0.321,-0.183,-0.039,10.020,-5.682,4.499
20:17:12:642,31.106,-0.355,-0.167,0.001,9.372,-3.096,3.346
20:17:12:643,31.106,-0.403,-0.121,0.042,8.501,-1.246,2.023
20:17:12:724,31.188,-0.414,-0.104,0.075,7.814,-0.231,1.113
20:17:12:725,31.189,-0.441,-0.061,0.117,6.671,0.405,-0.156
20:17:12:726,31.190,-0.494,0.052,0.208,5.847,0.574,-0.882
20:17:12:775,31.239,-0.508,0.122,0.226,4.532,-0.050,-1.882
20:17:12:776,31.239,-0.506,0.250,0.209,3.622,-0.693,-2.405
20:17:12:797,31.260,-0.472,0.280,0.214,2.594,-1.772,-2.674
20:17:12:853,31.316,-0.353,0.145,0.202,2.210,-2.258,-2.100
20:17:12:853,31.316,-0.468,0.024,0.245,2.239,-2.030,-1.228
20:17:12:875,31.339,-0.416,-0.056,0.189,2.585,-1.842,0.365
20:17:12:931,31.395,-0.393,0.055,0.111,2.864,-2.303,1.547
20:17:12:932,31.396,-0.326,0.144,0.055,3.716,-3.858,3.307
20:17:12:984,31.447,-0.247,0.208,-0.030,4.952,-6.335,4.855
20:17:12:984,31.448,-0.202,0.257,-0.113,6.033,-7.914,5.810
20:17:13:008,31.472,-0.160,0.186,-0.163,8.048,-9.791,7.336
20:17:13:035,31.498,-0.115,0.111,-0.216,9.570,-10.563,8.562
20:17:13:093,31.557,-0.086,0.038,-0.240,11.981,-11.178,10.911
20:17:13:093,31.557,-0.030,-0.044,-0.285,14.520,-11.403,13.820
20:17:13:093,31.557,0.030,-0.080,-0.288,16.302,-11.573,15.936
20:17:13:167,31.631,0.107,-0.117,-0.307,19.078,-11.853,19.230
20:17:13:168,31.632,0.160,-0.147,-0.302,20.960,-12.001,21.377
20:17:13:22,31.683,0.219,-0.191,-0.315,23.660,-11.795,24.401
20:17:13:22,31.684,0.281,-0.243,-0.307,25.309,-11.663,26.238
20:17:13:248,31.712,0.305,-0.281,-0.304,27.418,-10.929,28.732
20:17:13:248,31.712,0.403,-0.231,-0.235,28.975,-9.850,30.779
20:17:13:299,31.763,0.500,-0.230,-0.209,29.624,-9.401,31.748
20:17:13:299,31.763,0.582,-0.264,-0.281,29.843,-8.020,32.642
20:17:13:322,31.786,0.478,-0.235,-0.312,29.480,-6.594,32.943
20:17:13:351,31.814,0.426,-0.186,-0.318,28.520,-3.702,32.673
20:17:13:377,31.840,0.285,-0.131,-0.317,27.101,-1.341,31.098
20:17:13:402,31.865,0.274,0.051,-0.349,25.847,-0.438,29.245
20:17:13:429,31.893,0.116,-0.013,-0.223,23.810,0.194,25.598
20:17:13:453,31.916,0.156,0.075,-0.258,22.269,0.088,22.807
20:17:13:479,31.943,0.184,0.138,-0.276,19.913,-0.092,18.809
20:17:13:507,31.971,0.097,0.182,-0.224,18.424,0.226,16.557
20:17:13:532,31.995,0.016,0.157,-0.194,16.531,1.842,13.800
20:17:13:558,32.022,-0.102,0.003,-0.154,15.088,4.762,11.619
20:17:13:584,32.048,-0.145,-0.053,-0.131,14.446,7.207,10.449
20:17:13:612,32.076,-0.237,-0.094,-0.074,13.777,11.459,9.100
20:17:13:637,32.101,-0.312,-0.114,-0.036,13.431,14.376,8.324
20:17:13:663,32.127,-0.343,-0.118,-0.015,12.906,18.706,7.102
20:17:13:689,32.153,-0.399,-0.104,0.025,12.351,22.226,5.678
20:17:13:716,32.179,-0.421,-0.085,0.094,11.913,24.224,4.618
20:17:13:742,32.205,-0.421,-0.081,0.164,11.078,26.654,3.033
20:17:13:77,32.233,-0.431,-0.099,0.227,10.389,28.314,2.067
20:17:13:795,32.259,-0.419,-0.112,0.306,9.203,29.786,0.802
20:17:13:82,32.284,-0.422,0.014,0.369,7.761,30.568,-0.211
20:17:13:847,32.311,-0.408,0.038,0.388,6.753,30.440,-0.760
20:17:13:873,32.337,-0.386,0.105,0.384,5.336,29.880,-1.326
20:17:13:901,32.365,-0.381,0.206,0.422,4.511,29.361,-1.461
20:17:13:927,32.390,-0.365,0.187,0.435,3.530,28.539,-1.260
20:17:13:983,32.446,-0.357,0.205,0.479,3.062,27.947,-0.796
20:17:13:983,32.447,-0.315,0.047,0.394,2.751,26.659,0.407
20:17:14:004,32.468,-0.332,0.199,0.297,2.936,24.632,2.242
20:17:14:031,32.494,-0.273,0.289,0.205,3.565,22.883,3.683
20:17:14:057,32.521,-0.197,0.434,0.046,5.182,20.112,6.106
20:17:14:083,32.547,-0.086,0.430,-0.146,6.738,18.578,7.985
20:17:14:11,32.573,-0.043,0.349,-0.213,9.711,17.459,11.527
20:17:14:136,32.599,0.010,0.187,-0.276,13.081,17.553,16.028
20:17:14:162,32.626,0.025,0.082,-0.299,15.405,18.012,19.446
20:17:14:189,32.652,0.055,-0.029,-0.348,18.921,18.770,24.789
20:17:14:214,32.678,0.095,-0.112,-0.367,21.377,19.083,28.202
20:17:14:241,32.705,0.172,-0.236,-0.408,25.269,19.138,32.765
20:17:14:266,32.730,0.218,-0.286,-0.401,27.903,19.105,35.380
20:17:14:293,32.757,0.268,-0.377,-0.410,31.546,19.142,38.613
20:17:14:319,32.783,0.268,-0.459,-0.415,34.464,19.725,41.188
20:17:14:348,32.811,0.277,-0.509,-0.421,35.946,20.402,42.608
20:17:14:373,32.837,0.261,-0.537,-0.415,37.407,21.780,44.270
20:17:14:398,32.862,0.262,-0.449,-0.463,37.803,22.746,44.921
20:17:14:424,32.888,0.240,-0.404,-0.469,37.502,23.980,44.858
20:17:14:45,32.914,0.266,-0.327,-0.520,36.084,24.639,43.282
20:17:14:476,32.940,0.275,-0.247,-0.566,34.555,24.909,41.569
20:17:14:503,32.967,0.233,-0.087,-0.579,31.524,25.304,38.125
20:17:14:531,32.995,0.168,0.010,-0.598,29.180,25.867,35.232
20:17:14:557,33.020,0.076,0.205,-0.530,25.387,26.144,30.035
20:17:14:582,33.045,-0.055,0.103,-0.238,21.851,26.174,23.981
20:17:14:608,33.072,-0.083,0.149,-0.240,19.440,25.796,19.769
20:17:14:663,33.127,-0.056,0.361,-0.335,15.978,25.435,14.214
20:17:14:664,33.128,-0.125,0.481,-0.254,14.083,25.788,11.361
20:17:14:688,33.151,-0.179,0.363,-0.135,12.088,27.931,8.223
20:17:14:713,33.177,-0.168,0.194,-0.070,11.306,30.656,7.039
20:17:14:74,33.203,-0.232,-0.026,0.056,10.832,36.502,6.828
20:17:14:766,33.229,-0.269,-0.091,0.125,10.601,43.300,7.814
20:17:14:792,33.255,-0.289,-0.139,0.200,10.528,47.552,8.587
20:17:14:818,33.282,-0.219,-0.199,0.239,10.482,53.107,9.278
20:17:14:873,33.337,-0.140,-0.235,0.232,10.438,55.764,9.329
20:17:14:874,33.338,-0.104,-0.232,0.229,10.216,59.534,8.969
20:17:14:955,33.419,-0.128,-0.194,0.257,9.843,61.520,8.615
20:17:14:956,33.419,-0.113,-0.174,0.294,9.025,64.325,8.008
20:17:14:957,33.420,-0.106,-0.110,0.339,8.074,66.368,7.317
20:17:14:976,33.439,-0.059,-0.023,0.383,7.383,67.400,6.810
20:17:15:032,33.496,0.034,0.173,0.406,5.320,67.413,5.522
20:17:15:055,33.519,0.021,0.297,0.376,3.940,66.418,5.032
20:17:15:111,33.575,0.055,0.356,0.402,2.816,65.263,5.036
20:17:15:111,33.575,0.095,0.378,0.363,2.394,64.354,5.325
20:17:15:133,33.596,0.159,0.056,0.326,2.365,63.224,6.327
20:17:15:189,33.653,0.072,0.098,0.257,2.687,62.575,7.492
20:17:15:189,33.653,0.064,0.149,0.192,3.596,61.814,9.959
20:17:15:212,33.676,0.005,0.280,0.106,5.252,60.581,12.627
20:17:15:238,33.702,-0.006,0.342,-0.020,6.719,59.445,14.213
20:17:15:265,33.728,-0.045,0.310,-0.176,9.328,57.957,16.373
20:17:15:291,33.754,-0.091,0.185,-0.243,11.284,57.580,17.957
20:17:15:319,33.783,-0.127,0.085,-0.236,14.308,58.138,20.957
20:17:15:346,33.810,-0.167,-0.018,-0.255,16.389,58.916,23.346
20:17:15:347,33.810,-0.161,-0.088,-0.300,19.577,60.184,27.206
20:17:15:37,33.833,-0.155,-0.176,-0.360,22.961,61.166,31.104
20:17:15:396,33.860,-0.128,-0.212,-0.376,25.318,61.678,33.582
20:17:15:422,33.886,-0.104,-0.270,-0.422,28.737,62.255,36.857
20:17:15:449,33.912,-0.096,-0.326,-0.443,30.801,62.633,38.702
20:17:15:503,33.967,-0.100,-0.384,-0.474,33.288,63.485,40.997
20:17:15:504,33.968,-0.102,-0.415,-0.453,34.907,65.044,42.814
20:17:15:557,34.021,-0.113,-0.432,-0.491,35.521,65.879,43.680
20:17:15:557,34.021,-0.099,-0.352,-0.480,34.479,66.475,43.115
20:17:15:579,34.043,-0.089,-0.313,-0.489,34.107,66.812,42.691
20:17:15:607,34.071,-0.090,-0.239,-0.553,32.594,66.926,40.940
20:17:15:634,34.097,-0.115,-0.109,-0.585,30.212,66.935,38.152
20:17:15:659,34.122,-0.133,-0.032,-0.539,28.268,67.058,35.790
20:17:15:684,34.148,-0.173,0.091,-0.487,25.094,67.348,31.612
20:17:15:711,34.174,-0.127,0.107,-0.283,22.996,67.628,28.517
20:17:15:737,34.201,-0.088,0.047,-0.181,19.994,67.836,23.726
20:17:15:763,34.227,-0.129,0.113,-0.245,17.983,68.103,20.834
20:17:15:789,34.253,-0.177,0.260,-0.240,15.446,69.356,17.433
20:17:15:848,34.311,-0.179,0.299,-0.093,13.666,71.909,14.861
20:17:15:848,34.311,-0.168,0.257,-0.019,12.841,74.292,13.437
20:17:15:868,34.332,-0.112,0.048,0.106,12.008,78.601,11.901
20:17:15:923,34.387,-0.092,-0.093,0.194,11.569,81.755,11.289
20:17:15:924,34.388,-0.063,-0.112,0.239,10.985,86.396,10.827
20:17:15:947,34.411,-0.031,-0.147,0.265,10.467,90.337,10.419
20:17:15:973,34.437,-0.016,-0.167,0.260,10.157,92.459,10.016
20:17:15:999,34.463,0.040,-0.195,0.263,9.675,95.077,9.238
20:17:16:027,34.491,0.085,-0.203,0.274,9.251,96.517,8.653
20:17:16:081,34.545,0.100,-0.164,0.284,8.396,98.313,7.790
20:17:16:082,34.545,0.145,-0.144,0.309,7.771,99.188,7.231
20:17:16:106,34.569,0.186,-0.117,0.306,6.742,100.027,6.409
20:17:16:16,34.624,0.218,0.021,0.318,5.542,100.057,5.720
20:17:16:16,34.624,0.239,0.048,0.309,4.712,99.779,5.378
20:17:16:183,34.647,0.232,0.202,0.304,3.439,98.895,5.132
20:17:16:211,34.674,0.221,0.309,0.274,2.684,98.022,5.190
20:17:16:236,34.700,0.229,0.331,0.204,1.940,96.417,5.745
20:17:16:262,34.725,0.220,0.260,0.112,1.690,95.101,6.980
20:17:16:288,34.752,0.265,0.230,0.207,1.730,94.835,8.143
20:17:16:317,34.781,0.176,0.038,0.166,2.239,93.747,10.064
20:17:16:342,34.806,0.101,0.074,0.108,2.767,92.779,11.464
20:17:16:368,34.832,0.058,0.142,0.048,4.126,90.189,13.547
20:17:16:394,34.857,-0.034,0.201,0.005,5.972,87.555,15.238
20:17:16:42,34.883,-0.081,0.217,-0.026,7.386,85.289,16.004
20:17:16:446,34.909,-0.149,0.188,-0.087,9.614,82.952,16.797
20:17:16:472,34.935,-0.189,0.073,-0.097,11.127,81.996,17.425
20:17:16:499,34.963,-0.247,0.002,-0.107,13.454,81.746,19.037
20:17:16:525,34.989,-0.270,-0.051,-0.090,15.109,82.080,20.655
20:17:16:551,35.015,-0.304,-0.106,-0.108,17.689,82.744,23.516
20:17:16:606,35.070,-0.327,-0.145,-0.155,20.438,82.949,26.464
20:17:16:607,35.070,-0.329,-0.205,-0.202,22.345,82.995,28.319
20:17:16:629,35.093,-0.315,-0.268,-0.250,25.085,82.643,30.816
20:17:16:657,35.121,-0.306,-0.297,-0.271,26.680,82.633,32.259
20:17:16:683,35.146,-0.305,-0.318,-0.280,28.551,82.650,34.021
20:17:16:711,35.175,-0.315,-0.284,-0.325,29.772,82.718,35.213
20:17:16:736,35.200,-0.335,-0.213,-0.374,30.232,82.483,35.624
20:17:16:762,35.225,-0.333,-0.208,-0.429,30.496,82.224,35.608
20:17:16:788,35.251,-0.342,-0.180,-0.455,30.308,81.926,35.289
20:17:16:813,35.277,-0.333,-0.095,-0.454,29.413,82.087,34.486
20:17:16:839,35.303,-0.307,-0.034,-0.372,28.339,82.203,33.582
20:17:16:895,35.359,-0.295,-0.010,-0.380,26.252,82.176,31.492
20:17:16:895,35.359,-0.140,-0.043,-0.153,23.775,81.811,28.672
20:17:16:919,35.383,-0.056,-0.090,-0.087,22.143,81.207,26.472
20:17:16:976,35.439,-0.091,0.012,-0.187,19.411,79.499,23.073
20:17:16:976,35.439,-0.093,0.132,-0.259,17.660,78.378,21.098
20:17:16:997,35.460,-0.063,0.203,-0.211,15.509,77.431,18.762
20:17:17:054,35.517,-0.010,0.141,-0.159,13.914,77.908,16.924
20:17:17:054,35.518,0.000,-0.011,-0.084,13.099,79.347,16.081
20:17:17:075,35.539,-0.022,-0.112,-0.015,12.052,82.683,15.439
20:17:17:131,35.595,-0.025,-0.120,0.115,11.386,85.377,15.321
20:17:17:132,35.595,0.009,-0.132,0.154,10.487,89.224,15.169
20:17:17:156,35.619,0.014,-0.126,0.155,9.900,91.269,14.847
20:17:17:182,35.646,0.042,-0.113,0.153,9.019,93.414,13.977
20:17:17:208,35.672,0.077,-0.103,0.142,8.251,94.860,13.400
20:17:17:239,35.702,0.101,-0.096,0.158,7.519,95.462,12.546
20:17:17:259,35.723,0.131,-0.086,0.181,6.596,96.256,11.651
20:17:17:287,35.751,0.165,-0.066,0.190,6.103,96.350,11.253
20:17:17:313,35.777,0.174,0.064,0.191,5.042,96.274,10.201
20:17:17:339,35.803,0.174,0.121,0.195,4.119,95.722,9.343
20:17:17:365,35.828,0.154,0.190,0.192,3.618,95.305,8.925
20:17:17:391,35.854,0.129,0.265,0.203,3.092,94.702,8.611
20:17:17:417,35.880,0.134,0.233,0.193,2.903,94.439,8.687
20:17:17:443,35.907,0.133,0.149,0.190,2.839,94.199,9.288
20:17:17:47,35.934,0.152,0.178,0.237,2.893,93.902,10.312
20:17:17:495,35.959,0.147,0.010,0.249,3.139,92.963,10.989
20:17:17:522,35.985,0.053,0.044,0.190,3.700,91.026,12.046
20:17:17:551,36.015,0.010,0.144,0.120,4.365,89.228,12.722
20:17:17:552,36.015,-0.032,0.222,0.104,5.668,86.068,13.470
20:17:17:635,36.099,-0.145,0.292,0.012,6.745,83.917,13.795
20:17:17:635,36.099,-0.178,0.238,0.006,8.717,81.299,14.356
20:17:17:635,36.099,-0.223,0.076,-0.030,11.017,79.523,15.501
20:17:17:655,36.119,-0.242,0.028,-0.042,12.625,79.252,16.821
20:17:17:681,36.145,-0.283,-0.040,-0.057,15.160,79.271,19.522
20:17:17:706,36.170,-0.303,-0.078,-0.088,16.945,79.308,21.539
20:17:17:79,36.253,-0.348,-0.124,-0.159,19.841,79.062,24.587
20:17:17:791,36.254,-0.330,-0.177,-0.229,22.930,78.575,27.387
20:17:17:791,36.255,-0.326,-0.221,-0.270,24.940,78.224,29.066
20:17:17:811,36.274,-0.316,-0.275,-0.308,27.593,77.853,31.326
20:17:17:946,36.410,-0.332,-0.315,-0.346,29.044,77.834,32.690
20:17:17:947,36.410,-0.341,-0.337,-0.380,30.726,78.147,34.540
20:17:18:004,36.468,-0.352,-0.267,-0.428,31.544,78.471,35.605
20:17:18:004,36.468,-0.348,-0.241,-0.424,32.257,78.966,36.604
20:17:18:005,36.469,-0.355,-0.200,-0.521,32.137,78.843,36.480
20:17:18:006,36.470,-0.331,-0.174,-0.511,31.552,78.700,35.826
20:17:18:075,36.538,-0.305,-0.016,-0.483,29.857,78.031,33.905
20:17:18:109,36.573,-0.264,-0.005,-0.426,28.379,77.484,32.013
20:17:18:109,36.573,-0.256,0.075,-0.422,25.759,75.926,28.624
20:17:18:11,36.573,-0.068,-0.082,-0.213,23.250,74.463,25.226
20:17:18:111,36.574,-0.061,-0.039,-0.233,21.478,73.365,23.203
20:17:18:155,36.618,-0.096,0.088,-0.348,18.946,72.303,20.912
20:17:18:156,36.619,-0.087,0.110,-0.295,17.562,72.075,19.881
20:17:18:178,36.642,-0.047,0.068,-0.226,16.051,73.062,18.732
20:17:18:233,36.697,-0.018,-0.081,-0.116,15.277,74.499,18.158
20:17:18:234,36.698,-0.037,-0.133,-0.093,14.162,77.516,17.538
20:17:18:258,36.722,-0.058,-0.129,0.023,12.971,81.150,17.082
20:17:18:284,36.748,-0.035,-0.132,0.099,12.184,83.829,16.653
20:17:18:31,36.773,-0.019,-0.120,0.130,10.989,86.474,15.539
20:17:18:336,36.800,-0.002,-0.096,0.123,10.188,87.767,14.525
20:17:18:362,36.825,0.058,-0.080,0.159,8.973,89.184,12.866
20:17:18:418,36.882,0.100,-0.080,0.198,7.669,90.582,11.210
20:17:18:419,36.883,0.103,-0.083,0.199,6.764,91.139,10.202
20:17:18:441,36.904,0.099,-0.073,0.198,5.917,92.042,9.764
20:17:18:467,36.931,0.126,-0.045,0.213,5.397,92.428,9.546
20:17:18:493,36.957,0.160,0.125,0.233,4.388,92.759,8.885
20:17:18:519,36.983,0.175,0.143,0.208,3.771,92.663,8.517
20:17:18:575,37.039,0.164,0.204,0.208,2.934,92.505,8.152
20:17:18:575,37.039,0.141,0.370,0.201,2.258,92.169,8.167
20:17:18:599,37.063,0.132,0.285,0.199,2.010,92.024,8.349
20:17:18:684,37.148,0.173,0.292,0.232,1.942,92.138,8.942
20:17:18:685,37.148,0.197,0.085,0.242,2.054,92.241,9.605
20:17:18:685,37.149,0.139,0.078,0.222,2.449,91.795,10.990
20:17:18:705,37.169,0.073,0.232,0.119,3.349,90.340,12.782
20:17:18:76,37.224,0.021,0.270,0.035,4.401,88.929,14.026
20:17:18:761,37.225,-0.103,0.220,-0.083,6.601,86.838,15.926
20:17:19:003,37.466,-0.162,0.208,-0.118,8.358,85.891,17.315
20:17:19:003,37.466,-0.199,0.117,-0.133,11.237,85.421,19.678
20:17:19:003,37.466,-0.233,0.007,-0.120,14.121,85.702,22.394
20:17:19:004,37.467,-0.286,-0.064,-0.130,15.952,86.095,24.366
20:17:19:028,37.492,-0.305,-0.133,-0.149,18.718,86.607,27.451
20:17:19:028,37.492,-0.311,-0.168,-0.188,20.651,86.704,29.444
20:17:19:029,37.492,-0.303,-0.208,-0.222,23.621,86.385,32.080
20:17:19:03,37.493,-0.315,-0.273,-0.299,25.571,85.913,33.532
20:17:19:079,37.543,-0.313,-0.308,-0.324,28.264,85.114,35.320
20:17:19:08,37.544,-0.314,-0.338,-0.348,30.519,84.664,36.853
20:17:19:081,37.544,-0.313,-0.327,-0.372,31.715,84.569,37.737
20:17:19:082,37.545,-0.302,-0.303,-0.384,30.804,83.804,37.112
20:17:19:126,37.590,-0.321,-0.238,-0.454,31.500,83.700,37.515
20:17:19:127,37.591,-0.328,-0.191,-0.495,31.583,83.621,37.397
20:17:19:151,37.615,-0.356,-0.142,-0.541,30.910,83.710,36.517
20:17:19:317,37.781,-0.354,-0.078,-0.530,29.992,84.014,35.638
20:17:19:318,37.781,-0.361,-0.030,-0.435,28.070,84.729,33.802
20:17:19:318,37.782,-0.330,0.037,-0.356,26.520,84.995,32.173
20:17:19:319,37.782,-0.188,-0.033,-0.166,24.170,85.281,29.226
20:17:19:395,37.859,-0.104,-0.015,-0.151,21.588,84.459,25.821
20:17:19:396,37.860,-0.137,0.047,-0.238,19.781,83.508,23.708
20:17:19:396,37.860,-0.148,0.178,-0.331,17.420,82.821,21.345
20:17:19:397,37.861,-0.081,0.176,-0.240,16.150,83.300,20.212
20:17:19:414,37.878,-0.007,0.074,-0.164,14.655,85.528,18.885
20:17:19:415,37.879,0.060,-0.054,-0.064,13.525,88.768,18.044
20:17:19:468,37.932,0.081,-0.126,-0.013,12.845,91.228,17.667
20:17:19:469,37.932,0.090,-0.155,0.027,11.930,94.668,17.177
20:17:19:491,37.954,0.100,-0.169,0.036,11.411,96.835,16.758
20:17:19:546,38.010,0.090,-0.182,0.094,10.691,99.833,15.952
20:17:19:547,38.010,0.115,-0.182,0.081,10.214,101.538,15.255
20:17:19:601,38.065,0.140,-0.153,0.127,9.439,103.714,14.129
20:17:19:602,38.066,0.128,-0.097,0.130,8.531,105.458,13.024
20:17:19:622,38.086,0.130,-0.070,0.151,7.907,106.433,12.374
20:17:19:648,38.112,0.167,-0.023,0.151,6.948,107.575,11.611
20:17:19:781,38.245,0.169,0.125,0.144,6.242,108.096,11.286
20:17:19:894,38.357,0.185,0.124,0.133,5.268,108.589,11.060
20:17:19:895,38.358,0.107,0.312,0.089,4.399,108.834,11.286
20:17:19:895,38.359,0.119,0.388,0.067,4.005,109.024,11.758
20:17:19:896,38.360,0.103,0.319,-0.014,3.862,109.505,12.874
20:17:19:974,38.438,0.182,0.101,0.018,3.895,110.118,13.942
20:17:19:974,38.438,0.132,0.000,0.004,4.294,111.023,15.894
20:17:19:975,38.439,0.031,0.082,-0.037,4.977,111.532,18.301
20:17:19:975,38.439,-0.010,0.141,-0.100,5.797,111.576,19.993
20:17:19:997,38.461,-0.057,0.173,-0.148,7.412,111.156,22.312
20:17:19:998,38.462,-0.110,0.149,-0.203,8.624,110.849,23.636
20:17:19:999,38.463,-0.143,0.041,-0.207,10.442,110.780,25.416
20:17:20:132,38.595,-0.158,-0.002,-0.201,11.593,111.056,26.644
20:17:20:132,38.596,-0.187,-0.075,-0.178,13.309,111.863,28.703
20:17:20:132,38.596,-0.192,-0.144,-0.180,15.172,112.870,30.958
20:17:20:132,38.596,-0.213,-0.179,-0.196,16.524,113.526,32.476
20:17:20:184,38.648,-0.244,-0.220,-0.236,18.553,114.499,34.649
20:17:20:184,38.648,-0.263,-0.283,-0.229,19.824,115.272,35.997
20:17:20:184,38.648,-0.273,-0.301,-0.221,21.370,116.740,37.737
20:17:20:185,38.649,-0.290,-0.335,-0.197,22.378,118.400,39.023
20:17:20:202,38.666,-0.294,-0.343,-0.183,22.723,119.811,39.544
20:17:20:203,38.667,-0.321,-0.274,-0.178,22.689,121.248,39.679
20:17:20:228,38.692,-0.358,-0.188,-0.191,22.260,122.100,39.209
20:17:20:282,38.745,-0.387,-0.082,-0.214,21.124,122.598,37.533
20:17:20:307,38.770,-0.397,-0.042,-0.209,20.078,122.997,35.884
20:17:20:394,38.857,-0.415,0.096,-0.212,18.078,123.042,32.913
20:17:20:394,38.858,-0.352,0.228,-0.182,15.764,123.534,29.568
20:17:20:394,38.858,-0.272,0.238,-0.125,14.180,123.715,27.147
20:17:20:394,38.858,-0.153,0.316,-0.091,11.795,124.008,23.316
20:17:20:469,38.932,0.063,0.055,-0.079,10.494,124.014,20.815
20:17:20:469,38.933,-0.068,0.046,-0.128,8.686,123.960,17.695
20:17:20:469,38.933,-0.221,0.110,-0.161,7.304,124.939,16.201
20:17:20:489,38.952,-0.209,0.162,-0.057,6.984,126.996,16.172
20:17:20:514,38.978,-0.189,0.092,-0.003,7.358,131.736,16.914
20:17:20:54,39.004,-0.059,-0.067,0.054,7.924,135.735,17.737
20:17:20:567,39.031,-0.011,-0.148,0.054,8.824,142.028,19.177
20:17:20:595,39.058,-0.015,-0.246,0.058,9.254,147.831,20.490
20:17:20:621,39.085,-0.022,-0.273,0.044,9.242,151.110,21.179
20:17:20:674,39.137,-0.007,-0.290,0.035,8.927,154.993,21.749
20:17:20:702,39.166,0.009,-0.294,0.007,8.547,156.977,21.705
20:17:20:702,39.166,0.024,-0.264,-0.040,7.754,159.160,21.057
20:17:20:867,39.330,0.056,-0.235,-0.076,7.045,160.167,20.347
20:17:20:867,39.330,0.092,-0.190,-0.115,5.720,161.041,18.977
20:17:20:867,39.331,0.080,-0.129,-0.145,4.132,161.578,17.369
20:17:20:868,39.331,0.077,-0.078,-0.148,2.974,161.500,16.252
20:17:20:888,39.352,0.115,0.115,-0.200,1.169,161.531,14.603
20:17:20:888,39.352,0.156,0.183,-0.221,-0.015,161.463,13.502
20:17:20:889,39.353,0.172,0.277,-0.216,-1.783,161.861,11.911
20:17:20:937,39.401,0.205,0.360,-0.230,-3.385,162.036,10.675
20:17:20:938,39.402,0.203,0.308,-0.275,-4.125,162.490,10.221
20:17:21:044,39.508,0.317,0.223,-0.329,-4.937,163.255,10.018
20:17:21:044,39.508,0.316,-0.024,-0.271,-5.192,163.894,10.312
20:17:21:067,39.530,0.239,-0.010,-0.212,-5.172,164.053,11.442
20:17:21:098,39.562,0.155,0.080,-0.191,-4.727,163.859,12.518
20:17:21:098,39.562,0.111,0.145,-0.154,-3.522,163.112,14.198
20:17:21:099,39.563,0.021,0.199,-0.122,-1.775,162.556,15.794
20:17:21:146,39.609,-0.017,0.167,-0.092,-0.471,162.427,16.892
20:17:21:173,39.636,-0.055,0.079,-0.040,1.441,163.014,18.908
20:17:21:228,39.692,-0.087,0.022,0.001,2.657,163.614,20.617
20:17:21:229,39.692,-0.116,-0.023,0.026,4.476,164.773,23.575
20:17:21:253,39.717,-0.166,-0.071,0.040,6.484,165.514,26.708
20:17:21:254,39.717,-0.215,-0.130,0.054,7.932,165.999,28.731
20:17:21:276,39.740,-0.260,-0.192,0.060,10.124,166.564,31.507
20:17:21:331,39.795,-0.292,-0.226,0.066,11.487,167.148,33.148
20:17:21:333,39.796,-0.291,-0.244,0.062,13.186,167.759,35.162
20:17:21:355,39.819,-0.300,-0.272,0.087,14.026,168.510,36.131
20:17:21:411,39.874,-0.307,-0.262,0.083,14.865,168.852,36.989
20:17:21:411,39.874,-0.393,-0.156,0.107,15.181,169.158,37.077
20:17:21:491,39.955,-0.392,-0.091,0.074,15.169,168.960,36.675
20:17:21:492,39.956,-0.424,-0.046,0.078,14.724,168.948,35.368
20:17:21:493,39.957,-0.454,0.039,0.084,14.097,168.626,34.157
20:17:21:512,39.976,-0.443,0.108,0.068,12.807,168.568,31.998
20:17:21:57,40.033,-0.298,0.067,0.067,11.212,168.983,29.439
20:17:21:57,40.033,-0.268,0.136,0.070,9.992,168.851,27.520
20:17:21:591,40.054,-0.074,0.006,-0.089,8.359,168.529,24.478
20:17:21:706,40.170,-0.147,0.028,-0.082,7.191,167.817,22.545
20:17:21:706,40.170,-0.244,0.082,-0.063,5.386,166.873,20.299
20:17:21:707,40.171,-0.246,0.108,-0.043,4.099,167.311,19.061
20:17:21:707,40.171,-0.156,0.062,-0.080,3.626,168.967,18.573
20:17:21:722,40.186,-0.079,-0.054,-0.089,3.230,172.213,18.088
20:17:21:835,40.299,-0.024,-0.164,-0.074,3.048,175.012,17.912
20:17:21:836,40.300,0.020,-0.187,-0.053,2.717,178.716,17.782
20:17:21:837,40.301,0.040,-0.197,-0.064,2.496,-178.582,17.674
20:17:21:838,40.301,0.075,-0.199,-0.082,2.131,-175.737,17.282
20:17:21:854,40.318,0.073,-0.161,-0.110,1.606,-173.350,16.549
20:17:21:959,40.423,0.077,-0.154,-0.127,1.150,-172.438,15.889
20:17:21:995,40.458,0.087,-0.114,-0.174,0.270,-171.394,14.754
20:17:21:995,40.458,0.095,-0.082,-0.217,-0.399,-171.059,13.966
20:17:21:995,40.459,0.089,-0.088,-0.238,-1.441,-170.865,12.825
20:17:21:995,40.459,0.086,-0.056,-0.262,-2.497,-170.879,11.839
20:17:22:011,40.474,0.080,0.046,-0.278,-3.195,-170.920,11.313
20:17:22:037,40.501,0.078,0.075,-0.279,-4.124,-170.877,10.687
20:17:22:066,40.530,0.094,0.130,-0.280,-4.634,-170.691,10.410
20:17:22:067,40.531,0.117,0.222,-0.305,-5.307,-170.229,10.259
20:17:22:089,40.553,0.122,0.130,-0.334,-5.673,-169.800,10.319
20:17:22:116,40.580,0.105,0.051,-0.337,-5.982,-169.514,10.606
20:17:22:142,40.605,0.157,0.084,-0.382,-6.266,-169.193,11.260
20:17:22:17,40.633,0.136,0.078,-0.337,-6.255,-169.442,11.877
20:17:22:223,40.687,0.070,0.169,-0.265,-5.910,-170.736,13.065
20:17:22:224,40.688,-0.012,0.231,-0.239,-5.248,-171.859,14.018
20:17:22:278,40.742,-0.101,0.228,-0.140,-3.777,-173.428,15.712
20:17:22:278,40.742,-0.101,0.196,-0.085,-1.933,-174.339,17.740
20:17:22:3,40.763,-0.096,0.088,-0.041,-0.539,-174.407,19.241
20:17:22:326,40.789,-0.077,-0.017,-0.012,1.617,-174.513,21.701
20:17:22:352,40.815,-0.114,-0.088,0.029,3.074,-174.365,23.435
20:17:22:38,40.843,-0.150,-0.119,0.065,5.304,-174.264,26.139
20:17:22:405,40.868,-0.204,-0.166,0.112,7.580,-174.211,28.820
20:17:22:432,40.896,-0.227,-0.190,0.132,9.078,-174.083,30.508
20:17:22:457,40.921,-0.254,-0.214,0.156,11.195,-173.739,32.753
20:17:22:483,40.947,-0.247,-0.238,0.156,11.629,-173.652,32.820
20:17:22:539,41.003,-0.265,-0.253,0.182,13.127,-173.181,34.263
20:17:22:539,41.003,-0.271,-0.251,0.185,13.340,-172.992,34.309
20:17:22:562,41.025,-0.293,-0.197,0.206,12.982,-172.822,33.636
20:17:22:617,41.081,-0.328,-0.093,0.204,13.041,-172.570,33.619
20:17:22:618,41.082,-0.339,-0.093,0.204,12.823,-172.485,33.193
20:17:22:641,41.105,-0.366,0.003,0.215,11.951,-172.354,32.011
20:17:22:726,41.190,-0.305,0.059,0.126,11.088,-172.162,30.930
20:17:22:726,41.190,-0.253,0.049,0.079,9.545,-172.420,28.757
20:17:22:727,41.190,-0.266,0.165,0.106,7.821,-172.686,26.041
20:17:22:746,41.209,-0.162,0.138,-0.011,6.617,-173.059,24.090
20:17:22:801,41.265,-0.137,0.052,-0.100,5.131,-173.422,21.231
20:17:22:802,41.266,-0.226,0.090,-0.074,4.028,-173.948,19.718
20:17:22:826,41.290,-0.275,0.165,-0.017,2.611,-173.513,18.208
20:17:22:882,41.345,-0.186,0.167,0.029,2.049,-172.183,17.701
20:17:22:882,41.346,-0.154,0.107,0.006,1.928,-168.399,17.078
20:17:22:903,41.367,-0.068,-0.066,-0.021,2.237,-163.498,16.581
20:17:22:929,41.393,-0.033,-0.125,-0.025,2.409,-159.855,16.343
20:17:22:958,41.421,0.055,-0.190,-0.072,2.506,-154.321,16.024
20:17:22:983,41.447,0.088,-0.215,-0.156,2.443,-151.113,15.698
20:17:23:034,41.498,0.061,-0.268,-0.181,1.505,-145.446,13.540
20:17:23:061,41.524,0.029,-0.257,-0.223,1.010,-144.419,12.556
20:17:23:087,41.551,0.011,-0.242,-0.253,0.062,-143.272,11.012
20:17:23:115,41.578,0.024,-0.213,-0.248,-0.645,-142.483,9.987
20:17:23:14,41.603,0.026,-0.122,-0.252,-1.731,-141.433,8.537
20:17:23:166,41.629,0.047,0.107,-0.321,-2.809,-140.029,7.171
20:17:23:192,41.656,0.047,0.132,-0.362,-3.505,-139.193,6.222
20:17:23:218,41.682,0.065,0.167,-0.445,-4.631,-138.053,4.798
20:17:23:245,41.708,0.072,0.245,-0.522,-5.508,-137.606,3.950
20:17:23:271,41.734,0.057,0.169,-0.550,-6.807,-137.419,3.001
20:17:23:298,41.761,0.017,0.217,-0.563,-7.637,-137.800,2.714
20:17:23:353,41.816,-0.025,-0.015,-0.573,-8.433,-138.314,2.855
20:17:23:353,41.817,-0.015,-0.035,-0.447,-8.703,-139.134,3.837
20:17:23:375,41.839,-0.014,0.018,-0.438,-8.460,-139.458,5.008
20:17:23:402,41.866,-0.023,0.178,-0.366,-7.492,-140.367,7.122
20:17:23:428,41.892,-0.064,0.231,-0.275,-6.477,-141.158,8.550
20:17:23:455,41.918,-0.080,0.218,-0.206,-4.557,-142.315,10.644
20:17:23:535,41.998,-0.088,0.103,-0.124,-2.450,-142.810,12.914
20:17:23:565,42.029,-0.067,0.060,-0.075,-1.088,-142.778,14.700
20:17:23:566,42.030,-0.073,0.023,-0.002,0.939,-142.204,17.828
20:17:23:566,42.030,-0.093,-0.005,0.054,2.395,-141.776,20.095
20:17:23:615,42.079,-0.138,-0.037,0.117,4.808,-141.287,23.517
20:17:23:616,42.079,-0.162,-0.077,0.203,6.528,-140.860,25.688
20:17:23:697,42.160,-0.164,-0.135,0.220,9.144,-140.025,28.679
20:17:23:698,42.161,-0.153,-0.197,0.239,11.529,-138.793,31.281
20:17:23:698,42.161,-0.145,-0.238,0.241,12.891,-137.845,32.753
20:17:23:744,42.208,-0.121,-0.292,0.265,14.471,-136.423,34.500
20:17:23:773,42.237,-0.120,-0.288,0.297,15.184,-135.532,35.302
20:17:23:773,42.237,-0.124,-0.204,0.348,15.693,-134.245,35.837
20:17:23:796,42.260,-0.151,-0.168,0.330,15.632,-133.410,35.337
20:17:23:822,42.286,-0.145,-0.125,0.387,15.133,-133.052,34.434
20:17:23:848,42.312,-0.143,-0.012,0.390,13.755,-132.453,32.400
20:17:23:877,42.340,-0.075,0.029,0.302,12.533,-131.955,30.557
20:17:23:903,42.366,-0.058,0.143,0.316,10.473,-131.351,26.995
20:17:23:927,42.391,-0.041,0.084,0.023,9.031,-131.026,24.216
20:17:23:983,42.446,-0.056,0.052,-0.039,6.995,-130.826,19.736
20:17:23:983,42.447,-0.051,0.182,0.074,4.715,-130.974,15.643
20:17:24:006,42.469,-0.060,0.295,0.151,3.434,-130.722,13.544
20:17:24:061,42.525,-0.021,0.267,0.044,2.307,-128.723,11.361
20:17:24:062,42.525,-0.003,0.161,-0.044,2.093,-126.229,10.272
20:17:24:088,42.551,0.057,-0.029,-0.119,2.251,-121.132,9.160
20:17:24:113,42.577,0.093,-0.129,-0.167,2.639,-115.380,8.592
20:17:24:138,42.602,0.113,-0.196,-0.223,2.925,-111.577,8.385
20:17:24:165,42.629,0.069,-0.233,-0.285,3.327,-106.593,8.054
20:17:24:19,42.654,0.029,-0.263,-0.284,3.453,-103.966,7.643
20:17:24:216,42.679,0.002,-0.271,-0.279,3.334,-100.940,6.628
20:17:24:242,42.706,-0.042,-0.241,-0.300,2.797,-98.723,5.268
20:17:24:272,42.735,-0.070,-0.211,-0.326,2.239,-97.609,4.273
20:17:24:272,42.735,-0.102,-0.158,-0.345,1.166,-96.183,2.713
20:17:24:323,42.787,-0.128,-0.125,-0.366,0.357,-95.628,1.720
20:17:24:324,42.788,-0.200,-0.022,-0.419,-0.905,-94.728,0.397
20:17:24:348,42.812,-0.250,0.031,-0.468,-1.833,-94.606,-0.407
20:17:24:375,42.838,-0.263,0.073,-0.474,-3.332,-94.439,-1.531
20:17:24:402,42.865,-0.280,0.223,-0.494,-4.888,-94.959,-2.381
20:17:24:428,42.891,-0.311,0.250,-0.502,-5.799,-95.150,-2.700
20:17:24:454,42.917,-0.337,0.179,-0.450,-6.679,-95.697,-2.722
20:17:24:48,42.943,-0.384,0.046,-0.513,-7.010,-95.536,-2.371
20:17:24:504,42.968,-0.290,-0.066,-0.449,-7.067,-95.460,-1.343
20:17:24:531,42.995,-0.246,0.011,-0.397,-6.766,-96.174,0.382
20:17:24:557,43.021,-0.222,0.132,-0.362,-6.202,-97.122,1.744
20:17:24:583,43.047,-0.194,0.207,-0.297,-4.980,-99.196,3.774
20:17:24:639,43.102,-0.125,0.216,-0.208,-3.956,-100.639,5.048
20:17:24:665,43.128,-0.089,0.164,-0.159,-2.083,-102.175,7.056
20:17:24:666,43.129,-0.006,0.080,-0.133,-0.708,-102.657,8.617
20:17:24:69,43.154,0.017,0.041,-0.088,1.543,-102.959,11.352
20:17:24:744,43.207,0.053,-0.030,-0.031,3.998,-103.085,14.406
20:17:24:744,43.208,0.066,-0.058,0.013,5.720,-103.191,16.512
20:17:24:767,43.231,0.093,-0.099,0.095,8.330,-103.336,19.550
20:17:24:793,43.257,0.110,-0.148,0.148,10.025,-103.355,21.406
20:17:24:82,43.283,0.112,-0.205,0.156,12.401,-103.213,23.824
20:17:24:846,43.310,0.129,-0.258,0.180,14.384,-102.909,25.738
20:17:24:874,43.337,0.159,-0.284,0.200,15.441,-102.628,26.748
20:17:24:9,43.364,0.180,-0.221,0.231,16.561,-102.162,27.778
20:17:24:926,43.389,0.174,-0.122,0.220,17.001,-101.982,27.979
20:17:24:952,43.416,0.184,-0.109,0.265,17.132,-102.113,27.390
20:17:24:979,43.443,0.203,-0.019,0.311,16.565,-102.302,26.067
20:17:25:004,43.468,0.180,0.054,0.308,15.860,-102.269,24.924
20:17:25:064,43.527,0.132,0.123,0.147,13.176,-101.993,20.994
20:17:25:082,43.546,0.032,0.016,0.019,11.374,-101.911,18.212
20:17:25:109,43.573,-0.003,0.050,0.034,10.038,-102.123,16.415
20:17:25:137,43.601,0.009,0.114,0.135,8.058,-102.495,14.289
20:17:25:163,43.627,0.024,0.206,0.142,6.593,-101.946,13.003
20:17:25:218,43.682,-0.009,0.191,0.095,6.013,-100.652,12.369
20:17:25:218,43.682,-0.057,0.048,-0.018,5.507,-97.609,11.468
20:17:25:239,43.703,-0.068,-0.061,-0.058,5.266,-95.258,10.882
20:17:25:296,43.760,-0.052,-0.173,-0.120,4.833,-91.640,10.038
20:17:25:297,43.760,-0.099,-0.200,-0.189,4.508,-89.397,9.458
20:17:25:318,43.782,-0.109,-0.203,-0.196,3.948,-86.601,8.301
20:17:25:344,43.808,-0.135,-0.212,-0.203,3.282,-84.662,6.743
20:17:25:371,43.834,-0.148,-0.203,-0.205,3.302,-83.548,6.493
20:17:25:397,43.861,-0.186,-0.181,-0.227,3.279,-82.020,6.132
20:17:25:452,43.916,-0.210,-0.165,-0.262,2.606,-81.216,4.898
20:17:25:453,43.917,-0.246,-0.151,-0.284,1.524,-80.767,3.066
20:17:25:505,43.969,-0.262,-0.049,-0.320,0.367,-80.239,1.324
20:17:25:505,43.969,-0.293,0.041,-0.353,-0.405,-80.562,0.292
20:17:25:558,44.022,-0.319,0.065,-0.388,-1.474,-80.493,-1.031
20:17:25:558,44.022,-0.328,0.175,-0.442,-2.175,-80.734,-1.721
20:17:25:581,44.044,-0.347,0.234,-0.489,-3.105,-80.789,-2.369
20:17:25:874,44.338,-0.352,0.162,-0.461,-3.786,-81.669,-2.455
20:17:25:874,44.338,-0.353,0.146,-0.439,-4.074,-81.900,-2.088
20:17:25:907,44.371,-0.361,-0.021,-0.460,-4.218,-82.540,-0.980
20:17:25:907,44.371,-0.267,0.034,-0.394,-4.149,-83.382,0.033
20:17:25:908,44.372,-0.235,0.082,-0.364,-3.642,-85.727,1.866
20:17:25:909,44.373,-0.155,0.226,-0.290,-2.970,-87.561,3.124
20:17:25:932,44.396,-0.090,0.258,-0.234,-1.537,-90.517,4.936
20:17:25:933,44.396,0.004,0.250,-0.189,0.366,-92.746,6.782
20:17:25:934,44.397,0.056,0.165,-0.175,1.845,-93.743,8.159
20:17:25:935,44.398,0.112,0.098,-0.120,4.202,-94.515,10.648
20:17:25:957,44.420,0.166,0.013,-0.073,5.859,-94.764,12.609
20:17:25:958,44.421,0.188,-0.031,-0.034,8.417,-95.039,15.843
20:17:25:959,44.422,0.206,-0.077,0.028,11.143,-95.499,19.218
20:17:25:959,44.423,0.212,-0.101,0.094,13.032,-95.933,21.396
20:17:25:975,44.439,0.229,-0.168,0.169,15.865,-96.595,24.422
20:17:26:001,44.464,0.214,-0.200,0.194,17.694,-96.895,26.258
20:17:26:027,44.490,0.241,-0.241,0.243,20.122,-97.070,28.693
20:17:26:053,44.517,0.261,-0.281,0.275,21.492,-96.971,30.122
20:17:26:079,44.543,0.275,-0.279,0.309,23.169,-96.854,31.943
20:17:26:106,44.570,0.253,-0.246,0.340,23.382,-96.669,32.483
20:17:26:161,44.625,0.261,-0.238,0.396,23.713,-96.434,32.757
20:17:26:162,44.626,0.253,-0.178,0.400,23.378,-96.266,32.294
20:17:26:185,44.649,0.261,-0.047,0.406,22.639,-96.088,31.395
20:17:26:212,44.675,0.242,-0.013,0.349,20.785,-96.128,29.039
20:17:26:238,44.701,0.233,0.083,0.276,18.450,-96.129,25.794
20:17:26:263,44.727,0.119,0.058,0.123,16.736,-96.370,23.292
20:17:26:289,44.753,0.026,0.013,0.040,14.198,-96.848,19.273
20:17:26:316,44.779,0.060,0.115,0.102,12.333,-97.768,16.673
20:17:26:371,44.835,0.061,0.214,0.102,9.785,-98.463,13.376
20:17:26:372,44.835,0.020,0.230,0.028,7.899,-98.349,10.761
20:17:26:395,44.858,-0.026,0.166,-0.048,7.015,-97.014,9.258
20:17:26:482,44.946,-0.043,0.022,-0.141,6.095,-93.867,7.358
20:17:26:482,44.946,-0.030,-0.083,-0.254,5.613,-91.179,6.283
20:17:26:483,44.947,-0.066,-0.129,-0.318,5.058,-86.888,4.889
20:17:26:484,44.948,-0.100,-0.149,-0.381,4.707,-84.505,3.944
20:17:26:528,44.991,-0.133,-0.152,-0.395,4.092,-81.781,2.293
20:17:26:553,45.016,-0.195,-0.165,-0.393,3.315,-80.129,0.440
20:17:26:611,45.074,-0.237,-0.170,-0.393,2.680,-79.329,-0.782
20:17:26:611,45.075,-0.297,-0.151,-0.405,1.584,-78.413,-2.435
20:17:26:612,45.076,-0.329,-0.183,-0.424,0.840,-78.044,-3.366
20:17:26:631,45.095,-0.344,-0.142,-0.436,-0.225,-77.643,-4.450
20:17:26:686,45.150,-0.367,-0.017,-0.474,-1.212,-77.705,-5.086
20:17:26:687,45.151,-0.366,0.021,-0.471,-1.722,-77.898,-5.298
20:17:26:768,45.231,-0.344,0.147,-0.516,-2.321,-78.366,-5.214
20:17:26:768,45.232,-0.354,0.188,-0.507,-2.602,-78.689,-4.840
20:17:26:769,45.233,-0.310,0.119,-0.439,-2.837,-79.419,-3.746
20:17:26:788,45.252,-0.302,0.074,-0.390,-2.828,-80.257,-2.068
20:17:26:814,45.278,-0.311,-0.020,-0.391,-2.679,-80.982,-0.785
20:17:26:901,45.364,-0.239,0.055,-0.405,-2.513,-82.978,1.145
20:17:26:901,45.364,-0.177,0.188,-0.333,-2.223,-85.035,2.294
20:17:26:901,45.364,-0.113,0.271,-0.296,-1.406,-88.915,3.846
20:17:26:948,45.412,-0.012,0.343,-0.210,-0.515,-91.409,4.890
20:17:26:949,45.413,0.040,0.343,-0.174,1.353,-94.362,6.729
20:17:26:973,45.436,0.132,0.208,-0.135,3.724,-95.963,9.154
20:17:26:999,45.463,0.160,0.138,-0.091,5.485,-96.495,11.171
20:17:27:055,45.519,0.206,0.033,-0.037,8.256,-96.964,14.724
20:17:27:056,45.519,0.222,0.005,0.012,10.187,-97.290,17.280
20:17:27:077,45.541,0.263,-0.070,0.111,13.249,-97.965,21.141
20:17:27:103,45.567,0.262,-0.143,0.195,16.412,-98.547,24.814
20:17:27:13,45.593,0.255,-0.204,0.224,18.492,-98.796,27.097
20:17:27:156,45.619,0.245,-0.265,0.259,21.326,-98.781,30.200
20:17:27:182,45.645,0.269,-0.326,0.306,22.935,-98.626,32.093
20:17:27:208,45.672,0.273,-0.348,0.329,24.901,-98.115,34.689
20:17:27:234,45.698,0.264,-0.319,0.354,25.883,-97.714,36.138
20:17:27:261,45.725,0.250,-0.272,0.365,25.738,-97.566,36.750
20:17:27:287,45.751,0.221,-0.281,0.441,25.790,-97.672,36.878
20:17:27:314,45.777,0.213,-0.270,0.455,25.194,-97.750,36.385
20:17:27:339,45.803,0.187,-0.093,0.441,23.398,-97.872,34.802
20:17:27:366,45.829,0.190,-0.065,0.372,21.763,-98.095,33.058
20:17:27:394,45.858,0.184,0.043,0.354,18.875,-98.575,29.563
20:17:27:42,45.884,0.038,-0.003,0.142,15.993,-99.122,25.406
20:17:27:505,45.968,0.016,0.098,0.135,13.920,-99.799,22.437
20:17:27:505,45.968,0.014,0.237,0.178,10.817,-100.976,18.149
20:17:27:505,45.968,-0.008,0.322,0.162,8.879,-101.497,15.564
20:17:27:526,45.989,-0.023,0.348,0.098,6.483,-101.039,12.119
20:17:27:605,46.069,-0.073,0.166,-0.021,5.279,-99.552,10.059
20:17:27:606,46.070,-0.055,0.042,-0.107,4.069,-95.550,7.460
20:17:27:661,46.124,-0.063,-0.058,-0.260,3.330,-90.157,5.513
20:17:27:661,46.125,-0.080,-0.100,-0.358,3.033,-86.458,4.455
20:17:27:662,46.125,-0.110,-0.144,-0.405,2.771,-81.534,2.847
20:17:27:739,46.202,-0.147,-0.162,-0.423,2.652,-78.989,1.670
20:17:27:74,46.203,-0.199,-0.167,-0.416,2.376,-76.041,-0.204
20:17:27:74,46.204,-0.255,-0.177,-0.434,1.866,-73.837,-2.067
20:17:27:76,46.224,-0.291,-0.175,-0.449,1.361,-72.663,-3.213
20:17:27:927,46.391,-0.340,-0.208,-0.434,0.476,-71.395,-4.687
20:17:27:928,46.391,-0.358,-0.197,-0.430,-0.179,-70.818,-5.398
20:17:27:929,46.392,-0.385,-0.060,-0.439,-1.202,-70.215,-6.013
20:17:27:93,46.393,-0.416,-0.024,-0.428,-1.805,-69.936,-6.163
20:17:27:95,46.414,-0.410,0.066,-0.431,-2.608,-69.591,-6.019
20:17:27:95,46.414,-0.435,0.161,-0.425,-3.196,-69.154,-5.318
20:17:27:95,46.414,-0.413,0.127,-0.397,-3.394,-68.958,-4.545
20:17:27:971,46.435,-0.484,0.098,-0.358,-3.572,-69.016,-3.015
20:17:28:054,46.518,-0.379,0.115,-0.301,-3.491,-69.475,-1.814
20:17:28:055,46.518,-0.292,0.227,-0.253,-3.219,-70.701,0.521
20:17:28:055,46.519,-0.172,0.341,-0.166,-2.132,-72.233,3.520
20:17:28:075,46.538,-0.104,0.331,-0.109,-0.996,-73.171,5.797
20:17:28:102,46.565,-0.014,0.269,-0.036,1.228,-74.318,9.474
20:17:28:127,46.591,0.037,0.109,0.000,2.924,-74.831,11.986
20:17:28:155,46.619,0.070,0.052,0.021,5.499,-75.211,15.711
20:17:28:181,46.645,0.129,-0.050,0.049,7.142,-75.077,18.122
20:17:28:207,46.671,0.143,-0.098,0.076,9.540,-75.270,21.564
20:17:28:232,46.696,0.190,-0.151,0.114,11.955,-75.557,24.667
20:17:28:259,46.723,0.195,-0.191,0.150,13.585,-75.843,26.464
20:17:28:284,46.748,0.206,-0.225,0.177,15.843,-76.055,28.589
20:17:28:311,46.774,0.225,-0.268,0.191,17.119,-76.086,29.707
20:17:28:337,46.801,0.246,-0.293,0.194,18.686,-75.754,31.074
20:17:28:363,46.827,0.258,-0.300,0.194,19.814,-75.139,32.064
20:17:28:419,46.883,0.267,-0.279,0.185,18.996,-75.067,31.217
20:17:28:42,46.884,0.285,-0.180,0.213,19.178,-74.528,31.096
20:17:28:471,46.935,0.277,-0.121,0.218,18.914,-74.229,30.504
20:17:28:472,46.936,0.297,-0.045,0.229,17.837,-73.850,28.838
20:17:28:495,46.958,0.283,0.037,0.201,16.158,-73.533,26.330
20:17:28:521,46.985,0.258,0.121,0.158,14.813,-73.305,24.176
20:17:28:548,47.012,0.250,0.201,0.088,12.636,-72.978,20.289
20:17:28:574,47.037,0.161,0.276,0.013,11.140,-72.684,17.404
20:17:28:631,47.094,-0.076,0.139,-0.098,9.030,-72.499,12.821
20:17:28:631,47.094,-0.057,0.153,-0.073,7.494,-72.641,9.915
20:17:28:657,47.120,0.021,0.212,-0.021,5.481,-72.271,6.471
20:17:28:657,47.120,0.080,0.277,-0.068,4.580,-70.058,4.434
20:17:28:708,47.172,0.027,0.187,-0.151,4.844,-67.173,3.657
20:17:28:709,47.173,-0.019,0.019,-0.222,6.055,-61.376,3.157
20:17:28:789,47.253,-0.064,-0.109,-0.278,7.116,-56.980,3.229
20:17:28:79,47.253,-0.101,-0.203,-0.309,8.706,-50.250,3.693
20:17:28:791,47.254,-0.140,-0.252,-0.320,10.031,-44.130,4.239
20:17:28:84,47.304,-0.168,-0.274,-0.307,10.724,-40.667,4.422
20:17:28:84,47.304,-0.216,-0.308,-0.259,11.362,-36.581,4.212
20:17:28:862,47.325,-0.239,-0.323,-0.237,11.429,-34.251,3.709
20:17:28:888,47.352,-0.269,-0.307,-0.211,11.022,-31.898,2.532
20:17:28:944,47.407,-0.348,-0.225,-0.175,10.093,-30.324,1.043
20:17:28:944,47.408,-0.363,-0.177,-0.144,9.218,-29.705,-0.063
20:17:28:996,47.460,-0.365,-0.101,-0.143,7.631,-29.155,-1.709
20:17:28:997,47.460,-0.403,0.049,-0.140,6.494,-28.858,-2.678
20:17:29:05,47.514,-0.475,0.112,-0.118,4.899,-28.470,-3.918
20:17:29:051,47.514,-0.518,0.193,-0.110,3.899,-28.136,-4.576
20:17:29:104,47.568,-0.555,0.221,-0.093,2.529,-27.672,-5.137
20:17:29:104,47.568,-0.561,0.094,-0.006,1.483,-27.334,-5.139
20:17:29:155,47.619,-0.535,0.071,0.003,0.942,-27.120,-4.813
20:17:29:155,47.619,-0.607,0.007,0.062,0.417,-27.088,-3.872
20:17:29:206,47.669,-0.481,0.045,-0.010,0.186,-27.647,-3.056
20:17:29:207,47.670,-0.417,0.139,0.000,0.312,-29.165,-1.472
20:17:29:231,47.695,-0.302,0.284,-0.035,1.206,-31.187,0.486
20:17:29:285,47.749,-0.180,0.295,-0.055,2.268,-32.419,1.975
20:17:29:285,47.749,-0.117,0.189,-0.089,4.484,-33.515,4.537
20:17:29:308,47.772,-0.075,0.114,-0.088,6.218,-33.756,6.455
20:17:29:335,47.798,-0.020,0.002,-0.133,8.839,-33.671,9.624
20:17:29:363,47.826,0.022,-0.040,-0.147,10.549,-33.443,11.870
20:17:29:418,47.881,0.091,-0.086,-0.160,13.062,-33.249,15.213
20:17:29:418,47.882,0.158,-0.112,-0.143,15.541,-33.208,18.258
20:17:29:439,47.903,0.211,-0.151,-0.138,17.142,-33.349,20.013
20:17:29:466,47.930,0.253,-0.203,-0.134,19.355,-33.210,22.277
20:17:29:494,47.958,0.280,-0.245,-0.143,20.664,-33.028,23.595
20:17:29:52,47.983,0.287,-0.264,-0.146,22.273,-32.413,25.329
20:17:29:603,48.066,0.310,-0.236,-0.147,22.679,-31.915,26.229
20:17:29:603,48.067,0.335,-0.198,-0.145,23.130,-31.550,26.740
20:17:29:604,48.068,0.342,-0.126,-0.140,23.319,-31.257,26.760
20:17:29:623,48.087,0.402,-0.083,-0.151,23.094,-30.991,26.240
20:17:29:649,48.113,0.396,-0.021,-0.158,22.164,-30.862,24.856
20:17:29:677,48.141,0.314,0.060,-0.162,20.777,-30.441,22.810
20:17:29:702,48.166,0.239,0.038,-0.159,19.652,-30.247,20.987
20:17:29:728,48.192,0.227,0.156,-0.199,17.674,-30.174,17.720
20:17:29:755,48.218,0.013,0.061,-0.125,16.391,-30.092,15.390
20:17:29:81,48.273,0.009,0.080,-0.096,14.430,-30.275,11.907
20:17:29:811,48.274,0.054,0.141,-0.092,13.031,-30.461,9.918
20:17:29:835,48.299,0.095,0.195,-0.125,11.374,-30.008,7.872
20:17:29:889,48.352,0.004,0.144,-0.128,10.683,-27.855,6.724
20:17:29:89,48.353,-0.060,0.064,-0.124,10.752,-25.429,6.260
20:17:29:914,48.377,-0.110,-0.112,-0.117,11.262,-20.890,5.964
20:17:29:94,48.404,-0.153,-0.211,-0.151,11.678,-17.521,6.034
20:17:29:996,48.460,-0.194,-0.230,-0.145,12.223,-12.082,6.442
20:17:29:996,48.460,-0.271,-0.234,-0.121,12.583,-7.257,6.766
20:17:30:017,48.481,-0.294,-0.245,-0.089,12.663,-4.407,6.678
20:17:30:072,48.536,-0.305,-0.226,-0.028,12.447,-1.582,5.949
20:17:30:074,48.537,-0.303,-0.197,-0.008,11.954,-0.183,5.067
20:17:30:097,48.560,-0.335,-0.130,0.032,10.878,0.727,3.524
20:17:30:123,48.586,-0.304,-0.106,0.024,9.985,1.012,2.467
20:17:30:148,48.612,-0.298,-0.049,0.038,8.819,0.922,1.254
20:17:30:203,48.667,-0.389,0.111,0.150,8.060,1.311,0.649
20:17:30:204,48.668,-0.429,0.120,0.156,7.657,1.660,0.330
20:17:30:227,48.691,-0.438,0.182,0.142,7.024,2.546,0.045
20:17:30:253,48.717,-0.442,0.208,0.134,6.626,2.993,0.109
20:17:30:28,48.743,-0.419,0.102,0.153,6.209,3.669,0.582
20:17:30:306,48.769,-0.426,0.125,0.172,5.863,4.192,1.443
20:17:30:332,48.795,-0.404,0.036,0.183,5.713,4.226,2.128
20:17:30:358,48.822,-0.333,0.130,0.063,5.744,2.994,3.413
20:17:30:386,48.850,-0.238,0.229,-0.003,6.215,1.962,4.446
20:17:30:413,48.877,-0.195,0.268,-0.044,7.425,0.440,6.257
20:17:30:437,48.901,-0.117,0.243,-0.148,9.123,-0.514,8.445
20:17:30:466,48.929,-0.099,0.160,-0.159,10.468,-0.725,10.144
20:17:30:492,48.955,-0.071,0.025,-0.187,12.508,-0.645,12.999
20:17:30:518,48.981,-0.066,-0.036,-0.196,13.827,-0.598,14.995
20:17:30:575,49.039,-0.024,-0.100,-0.217,15.778,-0.871,17.857
20:17:30:575,49.039,0.034,-0.145,-0.226,17.121,-1.459,19.533
20:17:30:624,49.088,0.111,-0.178,-0.252,19.139,-2.561,21.641
20:17:30:625,49.088,0.160,-0.215,-0.250,21.100,-3.486,23.438
20:17:30:648,49.112,0.179,-0.229,-0.266,22.293,-3.831,24.507
20:17:30:675,49.138,0.187,-0.248,-0.278,23.107,-3.958,25.522
20:17:30:702,49.165,0.199,-0.274,-0.295,23.244,-3.952,25.957
20:17:30:727,49.190,0.198,-0.269,-0.296,24.246,-3.367,26.951
20:17:30:752,49.216,0.220,-0.139,-0.342,23.859,-2.970,26.912
20:17:30:778,49.242,0.225,-0.103,-0.333,23.846,-2.779,26.663
20:17:30:805,49.268,0.266,-0.046,-0.371,23.274,-2.805,25.553
20:17:30:831,49.294,0.244,0.024,-0.354,22.583,-2.807,24.462
20:17:30:859,49.322,0.190,0.097,-0.316,21.123,-2.902,22.246
20:17:30:884,49.347,0.146,0.095,-0.307,19.303,-2.940,19.425
20:17:30:91,49.374,0.077,0.153,-0.274,17.911,-3.079,17.334
20:17:30:936,49.400,-0.078,0.002,-0.032,15.999,-3.467,14.056
20:17:30:966,49.430,0.014,0.068,-0.071,14.510,-4.096,11.951
20:17:30:966,49.430,0.086,0.125,-0.100,12.376,-4.853,9.509
20:17:30:988,49.452,0.044,0.193,-0.126,11.087,-4.112,8.218
20:17:31:044,49.507,-0.028,0.151,-0.056,10.842,-2.474,7.741
20:17:31:044,49.508,-0.100,0.022,-0.005,11.059,1.006,7.368
20:17:31:127,49.591,-0.132,-0.146,-0.012,11.340,3.726,7.319
20:17:31:127,49.591,-0.158,-0.200,0.006,11.747,7.961,7.584
20:17:31:127,49.591,-0.187,-0.221,0.003,11.975,10.748,7.876
20:17:31:147,49.611,-0.211,-0.230,0.032,12.192,14.405,8.175
20:17:31:201,49.665,-0.215,-0.248,0.050,12.236,17.379,8.067
20:17:31:202,49.666,-0.214,-0.243,0.073,12.113,18.863,7.759
20:17:31:225,49.689,-0.213,-0.196,0.080,11.629,20.881,7.573
20:17:31:28,49.743,-0.217,-0.118,0.102,11.081,21.679,7.005
20:17:31:281,49.744,-0.223,-0.095,0.127,10.072,22.497,6.029
20:17:31:304,49.768,-0.219,-0.033,0.165,9.319,22.756,5.370
20:17:31:329,49.793,-0.227,0.090,0.182,8.034,23.132,4.458
20:17:31:356,49.820,-0.215,0.158,0.199,6.745,22.849,3.691
20:17:31:382,49.846,-0.207,0.270,0.134,5.937,22.631,3.349
20:17:31:411,49.874,-0.216,0.357,0.146,5.053,22.575,3.317
20:17:31:436,49.899,-0.177,0.260,0.139,4.878,22.890,3.645
20:17:31:461,49.925,-0.204,0.216,0.210,4.974,23.877,4.685
20:17:31:487,49.950,-0.184,0.031,0.162,5.435,24.805,6.180
20:17:31:542,50.006,-0.159,0.092,0.089,5.830,25.114,7.410
20:17:31:543,50.007,-0.107,0.133,0.010,6.934,25.089,9.568
20:17:31:567,50.030,-0.068,0.215,-0.071,7.909,24.908,11.097
20:17:31:592,50.056,-0.029,0.154,-0.151,9.772,24.802,13.431
20:17:31:618,50.082,-0.010,0.069,-0.179,11.835,25.186,15.823
20:17:31:645,50.108,-0.021,-0.021,-0.171,13.203,25.786,17.457
20:17:31:7,50.164,-0.026,-0.055,-0.177,15.059,26.762,19.901
20:17:31:701,50.165,0.004,-0.120,-0.221,16.228,27.256,21.426
20:17:31:723,50.187,0.030,-0.167,-0.242,17.984,27.692,23.459
20:17:31:75,50.213,0.054,-0.231,-0.246,19.766,28.087,25.278
20:17:31:776,50.239,0.055,-0.247,-0.235,20.886,28.450,26.358
20:17:31:802,50.265,0.058,-0.263,-0.243,22.297,28.987,27.606
20:17:31:828,50.292,0.059,-0.279,-0.286,23.003,29.356,28.134
20:17:31:855,50.318,0.049,-0.282,-0.273,22.474,29.685,27.639
20:17:31:881,50.345,0.029,-0.242,-0.276,21.519,29.953,26.866
20:17:31:908,50.372,0.021,-0.131,-0.319,20.939,30.713,26.216
20:17:31:934,50.397,0.010,-0.007,-0.356,20.461,31.408,25.254
20:17:31:96,50.423,0.007,0.014,-0.341,19.863,31.763,24.141
20:17:31:986,50.449,-0.016,0.104,-0.332,18.636,32.290,22.069
20:17:32:012,50.475,-0.029,0.173,-0.297,17.675,32.630,20.440
20:17:32:04,50.504,-0.083,0.176,-0.231,16.151,33.291,17.688
20:17:32:066,50.530,-0.096,0.221,-0.244,14.637,34.284,14.895
20:17:32:091,50.555,-0.129,0.109,-0.064,13.875,35.157,13.230
20:17:32:117,50.581,-0.075,0.031,-0.025,12.848,36.682,11.281
20:17:32:144,50.607,-0.070,0.126,-0.152,12.201,38.123,10.600
20:17:32:172,50.635,-0.129,0.144,-0.141,11.767,41.211,10.540
20:17:32:197,50.660,-0.130,0.017,-0.109,11.910,43.755,10.798
20:17:32:222,50.686,-0.145,-0.049,-0.038,12.450,48.218,11.392
20:17:32:248,50.712,-0.126,-0.202,0.015,13.046,52.871,12.094
20:17:32:274,50.738,-0.138,-0.237,0.034,13.280,55.985,12.571
20:17:32:303,50.766,-0.156,-0.256,0.038,13.437,60.199,13.149
20:17:32:356,50.820,-0.152,-0.229,0.062,13.437,62.786,13.327
20:17:32:357,50.820,-0.129,-0.204,0.104,13.222,65.920,13.127
20:17:32:379,50.843,-0.110,-0.181,0.119,12.643,68.335,12.427
20:17:32:406,50.869,-0.102,-0.151,0.153,12.062,69.635,11.806
20:17:32:433,50.897,-0.051,-0.088,0.206,10.943,71.060,10.692
20:17:32:459,50.923,-0.010,-0.058,0.224,10.067,71.530,9.845
20:17:32:515,50.978,0.013,0.001,0.213,8.605,71.723,8.551
20:17:32:515,50.978,0.026,0.127,0.194,7.590,71.694,7.757
20:17:32:54,51.003,0.050,0.141,0.212,6.191,71.823,6.759
20:17:32:593,51.056,0.021,0.189,0.203,5.008,72.344,6.059
20:17:32:593,51.057,0.013,0.282,0.244,4.374,73.019,5.808
20:17:32:616,51.080,0.058,0.161,0.309,3.743,74.075,5.647
20:17:32:672,51.136,0.079,0.100,0.345,3.212,74.793,5.694
20:17:32:673,51.136,0.144,0.039,0.362,2.967,74.939,5.885
20:17:32:695,51.158,0.062,0.093,0.271,2.696,74.289,6.495
20:17:32:721,51.185,0.032,0.176,0.216,2.832,73.525,7.130
20:17:32:749,51.213,-0.017,0.264,0.104,3.804,72.162,8.387
20:17:32:774,51.238,-0.050,0.257,0.045,4.898,71.654,9.436
20:17:32:8,51.264,-0.114,0.179,-0.001,7.000,71.397,11.436
20:17:32:826,51.290,-0.133,0.057,-0.015,9.321,72.088,13.964
20:17:32:91,51.374,-0.151,-0.015,-0.020,10.841,72.804,15.899
20:17:32:911,51.375,-0.161,-0.069,-0.060,12.971,73.639,18.918
20:17:32:912,51.375,-0.169,-0.127,-0.105,14.356,73.966,20.861
20:17:32:961,51.425,-0.151,-0.175,-0.139,16.457,73.846,23.433
20:17:32:961,51.425,-0.158,-0.211,-0.193,18.491,73.552,25.534
20:17:32:983,51.447,-0.144,-0.252,-0.217,19.766,73.062,26.719
20:17:33:009,51.473,-0.164,-0.279,-0.246,21.459,72.907,28.258
20:17:33:065,51.529,-0.175,-0.285,-0.264,22.429,72.852,29.121
20:17:33:066,51.529,-0.176,-0.260,-0.271,21.474,72.487,28.639
20:17:33:116,51.579,-0.204,-0.119,-0.335,21.992,72.516,28.984
20:17:33:177,51.641,-0.216,-0.072,-0.343,22.289,72.556,28.848
20:17:33:178,51.642,-0.225,-0.050,-0.354,22.021,72.369,27.864
20:17:33:178,51.642,-0.264,0.048,-0.383,21.466,72.387,26.881
20:17:33:178,51.642,-0.247,0.119,-0.328,20.292,72.329,25.007
20:17:33:253,51.717,-0.226,0.049,-0.201,19.294,72.481,23.428
20:17:33:254,51.717,-0.232,0.139,-0.199,17.548,72.516,20.693
20:17:33:254,51.717,-0.065,-0.007,0.021,15.773,72.317,17.705
20:17:33:33,51.794,-0.057,-0.004,0.040,14.548,71.575,15.676
20:17:33:331,51.795,-0.058,0.070,-0.096,12.686,70.203,13.045
20:17:33:332,51.795,-0.052,0.162,-0.141,11.742,69.345,11.878
