Time,Second,AccelerationX,AccelerationY,AccelerationZ,EulerAnglesX,EulerAnglesY,EulerAnglesZ
16:22:16:897,0.000,0.223,-0.109,-0.116,-6.230,-149.484,-33.128
16:22:16:897,0.000,0.272,-0.090,-0.126,-5.308,-149.535,-33.076
16:22:16:92,0.023,0.418,0.036,-0.149,-4.526,-149.739,-33.147
16:22:16:947,0.050,0.517,0.066,-0.124,-3.444,-150.592,-32.936
16:22:16:973,0.076,0.423,0.000,-0.022,-2.962,-153.150,-32.240
16:22:17:114,0.217,0.310,-0.052,0.012,-3.086,-155.717,-31.448
16:22:17:114,0.217,0.116,-0.106,-0.005,-3.552,-159.976,-29.789
16:22:17:115,0.218,-0.003,-0.139,-0.014,-3.734,-162.779,-28.385
16:22:17:115,0.218,-0.032,-0.173,-0.001,-3.298,-166.439,-26.095
16:22:17:131,0.234,-0.012,-0.182,0.052,-2.057,-169.059,-23.777
16:22:17:157,0.260,0.016,-0.147,0.069,-0.953,-170.263,-22.263
16:22:17:243,0.346,0.128,0.033,0.134,0.743,-171.860,-20.024
16:22:17:244,0.347,0.209,0.310,0.193,1.726,-173.215,-18.489
16:22:17:245,0.348,0.142,0.504,0.290,2.912,-176.024,-16.005
16:22:17:246,0.349,-0.049,0.233,0.271,3.864,-179.813,-13.678
16:22:17:262,0.365,-0.151,0.021,0.221,4.313,177.310,-12.317
16:22:17:287,0.390,-0.274,-0.121,0.085,4.712,173.174,-10.550
16:22:17:344,0.447,-0.360,-0.209,0.030,4.938,171.018,-9.522
16:22:17:344,0.447,-0.370,-0.244,0.029,5.391,169.377,-7.919
16:22:17:394,0.497,-0.395,-0.241,0.053,5.906,169.354,-6.254
16:22:17:425,0.528,-0.399,-0.215,0.059,6.193,170.122,-5.139
16:22:17:426,0.529,-0.370,-0.117,0.083,6.446,171.136,-3.580
16:22:17:427,0.530,-0.366,-0.028,0.095,6.491,172.164,-2.686
16:22:17:477,0.580,-0.367,0.017,0.104,6.359,172.850,-1.639
16:22:17:477,0.580,-0.424,0.035,0.058,5.978,173.638,-1.022
16:22:17:527,0.630,-0.372,-0.001,0.022,5.554,174.013,-0.927
16:22:17:528,0.631,-0.351,-0.022,0.016,4.672,174.734,-1.411
16:22:17:638,0.741,-0.403,-0.036,0.002,3.932,175.056,-2.052
16:22:17:638,0.741,-0.351,-0.049,0.019,2.704,176.689,-3.399
16:22:17:64,0.743,-0.312,0.024,-0.011,1.526,178.682,-5.140
16:22:17:64,0.743,-0.413,0.080,0.068,0.977,-179.472,-6.443
16:22:17:684,0.787,0.243,0.135,-0.114,0.916,-174.092,-8.148
16:22:17:685,0.788,0.254,0.012,-0.051,1.247,-170.084,-9.073
16:22:17:708,0.811,-0.055,0.051,0.080,1.297,-168.389,-11.578
16:22:17:822,0.925,0.078,0.124,0.136,1.014,-167.988,-13.478
16:22:17:822,0.925,0.177,0.087,0.123,0.370,-166.873,-16.464
16:22:17:823,0.926,0.141,0.107,0.134,-0.739,-166.810,-20.046
16:22:17:824,0.927,0.192,0.020,0.095,-1.449,-166.432,-22.429
16:22:17:865,0.968,0.281,-0.028,0.062,-2.139,-165.021,-25.850
16:22:17:979,1.082,0.303,-0.082,0.025,-2.404,-163.916,-28.005
16:22:17:98,1.083,0.310,-0.116,0.013,-2.721,-162.329,-30.905
16:22:17:981,1.084,0.309,-0.150,-0.020,-3.027,-160.790,-33.252
16:22:17:999,1.102,0.303,-0.184,-0.048,-3.842,-159.447,-35.638
16:22:18:,1.103,0.288,-0.202,-0.061,-4.256,-159.179,-36.035
16:22:18:11,1.213,0.280,-0.195,-0.077,-4.865,-158.942,-36.041
16:22:18:111,1.214,0.260,-0.166,-0.073,-5.443,-159.017,-34.230
16:22:18:111,1.214,0.251,-0.126,-0.085,-5.695,-159.133,-33.426
16:22:18:127,1.230,0.197,-0.050,-0.070,-5.954,-159.935,-30.055
16:22:18:154,1.257,0.157,0.003,-0.051,-5.820,-160.699,-27.140
16:22:18:18,1.283,0.096,0.074,-0.041,-5.449,-161.499,-23.649
16:22:18:207,1.310,0.037,0.101,-0.017,-5.070,-161.973,-21.074
16:22:18:32,1.423,-0.054,0.115,0.010,-4.265,-162.345,-17.065
16:22:18:321,1.424,-0.129,0.122,0.049,-3.620,-162.284,-14.381
16:22:18:322,1.425,-0.151,0.125,0.079,-2.540,-161.563,-10.648
16:22:18:322,1.425,-0.124,0.122,0.129,-1.532,-160.432,-7.368
16:22:18:366,1.469,-0.193,0.067,0.182,-0.931,-159.711,-5.534
16:22:18:367,1.470,-0.158,0.015,0.167,-0.239,-158.545,-3.350
16:22:18:449,1.552,-0.189,-0.016,0.182,0.087,-157.844,-2.327
16:22:18:449,1.552,-0.227,-0.046,0.186,0.360,-157.353,-1.409
16:22:18:45,1.553,-0.245,-0.050,0.214,0.480,-157.001,-1.133
16:22:18:527,1.630,-0.257,-0.044,0.217,0.540,-157.131,-1.136
16:22:18:528,1.631,-0.256,-0.045,0.247,0.653,-157.010,-1.373
16:22:18:529,1.632,-0.242,-0.051,0.249,0.780,-157.062,-1.643
16:22:18:606,1.709,-0.192,-0.044,0.267,1.017,-156.676,-2.164
16:22:18:606,1.709,-0.114,-0.014,0.259,1.178,-156.773,-2.639
16:22:18:607,1.710,-0.060,-0.013,0.266,1.317,-157.004,-3.661
16:22:18:628,1.731,-0.029,-0.016,0.261,1.191,-157.713,-5.176
16:22:18:653,1.757,0.030,-0.031,0.234,0.891,-158.471,-6.438
16:22:18:735,1.838,0.032,-0.039,0.200,0.072,-159.681,-8.701
16:22:18:736,1.839,0.036,-0.004,0.166,-0.731,-160.453,-10.337
16:22:18:759,1.862,0.038,0.001,0.141,-2.239,-161.246,-12.844
16:22:18:845,1.949,0.048,0.000,0.115,-3.846,-161.597,-15.233
16:22:18:846,1.949,0.057,-0.001,0.087,-4.932,-161.373,-16.659
16:22:18:846,1.950,0.063,-0.007,0.042,-6.555,-160.754,-18.423
16:22:18:847,1.950,0.056,-0.014,-0.014,-7.485,-159.931,-19.396
16:22:18:893,1.996,-0.171,0.003,-0.233,-8.323,-157.495,-20.628
16:22:18:893,1.996,0.115,-0.103,-0.354,-7.670,-152.088,-21.451
16:22:18:942,2.045,0.036,-0.080,-0.310,-7.438,-149.843,-21.626
16:22:19:082,2.185,0.160,-0.039,-0.109,-7.613,-148.469,-21.683
16:22:19:083,2.186,0.161,-0.096,-0.098,-7.733,-148.587,-21.417
16:22:19:083,2.186,0.038,-0.024,-0.075,-7.858,-149.956,-20.546
16:22:19:133,2.236,-0.065,-0.026,0.025,-7.483,-151.434,-19.002
16:22:19:133,2.236,0.082,-0.009,0.017,-6.461,-150.134,-17.887
16:22:19:134,2.237,0.064,-0.074,0.037,-5.775,-149.158,-17.092
16:22:19:213,2.316,-0.019,-0.024,0.079,-5.101,-148.634,-15.813
16:22:19:214,2.317,0.007,0.009,0.057,-4.522,-147.978,-14.485
16:22:19:214,2.317,-0.005,0.008,0.074,-4.209,-147.723,-13.699
16:22:19:215,2.318,-0.029,0.033,0.125,-3.815,-147.475,-12.661
16:22:19:318,2.421,-0.029,0.031,0.120,-3.569,-147.149,-12.050
16:22:19:318,2.421,-0.032,0.019,0.116,-3.547,-146.480,-11.649
16:22:19:319,2.422,-0.043,0.012,0.098,-3.660,-146.105,-11.623
16:22:19:32,2.423,-0.033,0.003,0.101,-3.878,-145.677,-11.781
16:22:19:363,2.466,-0.037,-0.010,0.086,-4.198,-145.510,-12.143
16:22:19:391,2.494,-0.031,0.004,0.083,-4.432,-145.537,-12.483
16:22:19:391,2.494,-0.027,0.013,0.073,-4.816,-145.645,-13.059
16:22:19:444,2.547,-0.029,-0.016,0.060,-5.159,-145.724,-13.684
16:22:19:444,2.547,-0.020,-0.020,0.040,-5.347,-145.874,-14.091
16:22:19:554,2.657,-0.004,-0.011,0.033,-5.629,-146.018,-14.655
16:22:19:555,2.658,-0.012,-0.010,0.020,-5.809,-146.310,-15.031
16:22:19:556,2.659,-0.006,0.002,0.004,-6.052,-146.457,-15.572
16:22:19:556,2.659,-0.003,0.005,-0.013,-6.197,-146.566,-15.934
16:22:19:572,2.675,0.006,-0.016,-0.019,-6.416,-146.658,-16.518
16:22:19:63,2.733,0.011,-0.013,-0.023,-6.638,-146.763,-17.117
16:22:19:63,2.733,0.016,-0.020,-0.021,-6.764,-146.779,-17.505
16:22:19:631,2.734,0.025,-0.026,-0.028,-6.898,-146.908,-18.008
16:22:19:68,2.783,0.030,-0.030,-0.029,-6.955,-146.935,-18.276
16:22:19:68,2.783,0.026,-0.029,-0.027,-6.988,-147.140,-18.554
16:22:19:817,2.920,0.033,-0.029,-0.020,-6.959,-147.261,-18.665
16:22:19:818,2.921,0.031,-0.034,-0.019,-6.896,-147.373,-18.632
16:22:19:818,2.921,0.030,-0.028,-0.015,-6.792,-147.590,-18.475
16:22:19:819,2.922,0.031,-0.022,-0.004,-6.701,-147.745,-18.308
16:22:19:867,2.970,0.023,-0.020,-0.002,-6.571,-147.958,-18.012
16:22:19:867,2.970,0.025,-0.017,0.009,-6.426,-148.158,-17.695
16:22:19:867,2.970,0.020,-0.017,0.005,-6.329,-148.236,-17.474
16:22:19:915,3.018,0.016,-0.014,0.016,-6.189,-148.359,-17.144
16:22:19:916,3.019,0.011,-0.013,0.012,-6.111,-148.428,-16.924
16:22:19:939,3.042,0.009,-0.015,0.025,-6.007,-148.564,-16.618
16:22:20:052,3.155,0.009,-0.004,0.022,-5.938,-148.686,-16.336
16:22:20:053,3.156,-0.008,-0.006,0.029,-5.911,-148.758,-16.169
16:22:20:1,3.203,-0.016,-0.013,0.031,-5.846,-148.964,-15.648
16:22:20:101,3.204,-0.020,-0.013,0.030,-5.833,-148.973,-15.532
16:22:20:181,3.284,-0.019,-0.013,0.022,-5.825,-148.985,-15.451
16:22:20:181,3.284,-0.026,-0.014,0.033,-5.826,-149.047,-15.377
16:22:20:182,3.285,-0.029,-0.010,0.032,-5.844,-149.133,-15.357
16:22:20:201,3.304,-0.019,0.006,0.033,-5.875,-149.114,-15.345
16:22:20:315,3.418,-0.025,-0.013,0.018,-5.890,-149.229,-15.376
16:22:20:316,3.419,-0.023,-0.003,0.019,-5.919,-149.204,-15.422
16:22:20:317,3.420,-0.026,-0.002,0.016,-5.962,-149.161,-15.553
16:22:20:333,3.436,-0.011,0.001,0.005,-5.991,-149.148,-15.852
16:22:20:359,3.462,-0.001,-0.002,-0.002,-6.004,-149.164,-15.993
16:22:20:414,3.517,0.002,-0.003,-0.005,-6.018,-149.328,-16.250
16:22:20:415,3.518,0.005,0.000,-0.003,-6.044,-149.550,-16.555
16:22:20:438,3.541,0.023,0.001,-0.003,-6.072,-149.724,-16.769
16:22:20:551,3.654,0.024,0.000,-0.008,-6.116,-149.950,-17.087
16:22:20:552,3.655,0.024,-0.017,-0.005,-6.149,-150.107,-17.284
16:22:20:553,3.656,0.023,-0.007,-0.013,-6.209,-150.343,-17.547
16:22:20:598,3.701,0.035,-0.018,-0.012,-6.222,-150.638,-17.810
16:22:20:599,3.702,0.026,-0.014,-0.009,-6.220,-150.869,-17.811
16:22:20:648,3.751,0.013,-0.028,-0.014,-6.207,-150.990,-17.786
16:22:20:704,3.807,0.026,-0.019,-0.008,-6.161,-151.158,-17.675
16:22:20:705,3.808,0.006,-0.012,-0.004,-6.113,-151.320,-17.485
16:22:20:729,3.832,0.003,-0.008,0.002,-6.058,-151.382,-17.331
16:22:20:73,3.833,-0.002,-0.004,-0.009,-5.929,-151.410,-17.015
16:22:20:862,3.965,-0.003,0.000,-0.003,-5.822,-151.449,-16.769
16:22:20:862,3.965,-0.011,-0.005,0.002,-5.653,-151.644,-16.384
16:22:21:079,4.182,-0.023,0.003,0.013,-5.482,-151.937,-16.088
16:22:21:079,4.182,-0.022,0.000,0.002,-5.354,-152.113,-15.954
16:22:21:08,4.183,-0.018,-0.004,0.013,-5.194,-152.422,-15.863
16:22:21:081,4.184,-0.023,-0.005,0.015,-5.120,-152.669,-15.879
16:22:21:1,4.203,-0.014,-0.003,0.022,-5.046,-153.049,-16.008
16:22:21:1,4.204,-0.012,-0.007,0.017,-5.003,-153.416,-16.193
16:22:21:101,4.205,-0.011,-0.015,0.018,-4.991,-153.664,-16.360
16:22:21:234,4.337,-0.004,-0.016,0.015,-4.980,-154.032,-16.627
16:22:21:236,4.339,-0.004,-0.021,0.009,-4.987,-154.297,-16.787
16:22:21:236,4.339,-0.004,-0.020,0.004,-5.005,-154.735,-17.026
16:22:21:237,4.340,0.000,-0.005,0.004,-5.048,-155.198,-17.276
16:22:21:287,4.390,0.004,-0.007,0.003,-5.091,-155.511,-17.428
16:22:21:288,4.391,0.003,-0.006,-0.002,-5.162,-155.949,-17.629
16:22:21:289,4.392,-0.003,-0.013,0.004,-5.225,-156.207,-17.734
16:22:21:314,4.417,-0.015,0.010,-0.009,-5.399,-156.762,-17.829
16:22:21:314,4.417,-0.040,0.005,-0.024,-5.406,-156.861,-17.781
16:22:21:315,4.418,-0.029,-0.016,-0.011,-5.351,-156.910,-17.658
16:22:21:316,4.419,-0.035,-0.028,-0.013,-5.288,-156.897,-17.560
16:22:21:333,4.436,-0.040,-0.051,0.001,-5.255,-156.806,-17.379
16:22:21:334,4.437,-0.038,-0.048,0.004,-5.238,-156.693,-17.257
16:22:21:41,4.513,-0.044,-0.048,0.024,-5.236,-156.385,-17.116
16:22:21:441,4.544,-0.047,-0.057,0.039,-5.266,-155.813,-16.988
16:22:21:441,4.544,-0.040,-0.034,0.048,-5.297,-155.242,-16.809
16:22:21:49,4.593,-0.066,0.002,0.057,-5.259,-153.231,-15.727
16:22:21:491,4.594,-0.079,-0.024,0.064,-5.237,-151.604,-15.059
16:22:21:514,4.617,-0.055,0.015,0.083,-5.219,-149.721,-14.446
16:22:21:54,4.643,-0.066,0.043,0.076,-5.153,-148.440,-13.835
16:22:21:595,4.698,-0.084,0.048,0.081,-5.080,-146.309,-13.008
16:22:21:622,4.725,-0.083,0.049,0.089,-5.048,-144.892,-12.557
16:22:21:76,4.863,-0.091,0.046,0.103,-5.157,-139.965,-12.308
16:22:21:76,4.863,-0.079,0.039,0.095,-5.129,-138.103,-12.363
16:22:21:761,4.864,-0.069,0.014,0.086,-5.020,-135.405,-12.645
16:22:21:762,4.865,-0.043,0.013,0.079,-4.907,-133.604,-12.898
16:22:21:838,4.941,-0.024,0.023,0.068,-4.718,-131.193,-13.515
16:22:21:839,4.942,0.004,0.036,0.055,-4.526,-128.975,-14.422
16:22:21:84,4.943,0.010,0.029,0.050,-4.382,-127.704,-15.077
16:22:21:841,4.944,0.011,-0.007,0.040,-4.117,-125.842,-16.157
16:22:21:887,4.990,0.056,0.026,0.027,-3.889,-124.696,-16.910
16:22:21:888,4.991,0.073,0.039,0.011,-3.514,-122.929,-18.108
16:22:21:889,4.992,0.107,0.023,-0.017,-2.997,-121.411,-19.384
16:22:21:986,5.089,0.127,0.003,-0.055,-2.627,-120.424,-20.254
16:22:22:101,5.204,0.167,-0.026,-0.099,-2.181,-119.430,-21.660
16:22:22:102,5.205,0.175,-0.029,-0.099,-2.070,-119.214,-22.690
16:22:22:102,5.205,0.170,-0.012,-0.094,-2.230,-119.747,-24.324
16:22:22:103,5.206,0.172,0.008,-0.130,-2.623,-120.541,-25.950
16:22:22:126,5.229,0.201,0.013,-0.149,-2.932,-120.780,-26.985
16:22:22:127,5.230,0.205,-0.050,-0.175,-3.448,-121.435,-28.437
16:22:22:128,5.231,0.179,-0.103,-0.175,-3.872,-121.632,-29.331
16:22:22:128,5.231,0.167,-0.109,-0.178,-4.678,-122.326,-30.540
16:22:22:197,5.300,0.158,-0.102,-0.183,-5.269,-122.426,-31.232
16:22:22:257,5.360,0.152,-0.092,-0.188,-6.082,-122.570,-31.525
16:22:22:258,5.361,0.136,-0.092,-0.174,-6.688,-122.335,-30.503
16:22:22:259,5.362,0.113,-0.111,-0.156,-6.928,-122.372,-29.603
16:22:22:26,5.363,0.095,-0.121,-0.143,-7.093,-121.947,-28.974
16:22:22:276,5.379,0.081,-0.104,-0.136,-7.135,-121.793,-28.225
16:22:22:38,5.483,0.061,-0.046,-0.104,-7.034,-121.562,-26.369
16:22:22:494,5.597,0.045,-0.002,-0.073,-6.729,-121.252,-24.346
16:22:22:495,5.598,0.044,0.028,-0.056,-6.422,-121.013,-22.812
16:22:22:496,5.599,0.041,0.044,-0.055,-5.922,-120.720,-20.417
16:22:22:497,5.600,0.010,0.075,0.003,-5.623,-120.669,-18.827
16:22:22:574,5.677,-0.007,0.079,0.035,-5.284,-120.838,-16.607
16:22:22:575,5.678,-0.035,0.066,0.078,-5.051,-121.217,-14.738
16:22:22:575,5.678,-0.043,0.043,0.100,-4.965,-121.540,-13.847
16:22:22:575,5.678,-0.059,0.022,0.125,-4.876,-122.076,-12.631
16:22:22:679,5.782,-0.063,0.024,0.137,-4.849,-122.388,-12.024
16:22:22:68,5.783,-0.070,0.023,0.132,-4.901,-122.791,-11.893
16:22:22:681,5.784,-0.062,0.015,0.127,-4.980,-123.167,-12.226
16:22:22:731,5.834,-0.052,-0.011,0.116,-5.107,-124.005,-13.067
16:22:22:732,5.835,-0.054,-0.007,0.111,-5.159,-124.240,-13.486
16:22:22:732,5.835,-0.042,0.000,0.100,-5.210,-124.436,-14.156
16:22:22:732,5.835,-0.031,0.012,0.075,-5.258,-124.548,-14.795
16:22:22:807,5.910,-0.022,0.013,0.068,-5.270,-124.480,-15.187
16:22:22:807,5.910,-0.016,0.015,0.046,-5.271,-124.442,-15.754
16:22:22:807,5.910,-0.001,0.012,0.031,-5.278,-124.229,-16.158
16:22:22:855,5.958,0.007,0.019,0.015,-5.296,-124.184,-16.825
16:22:22:856,5.959,0.033,0.010,0.004,-5.327,-123.749,-17.555
16:22:23:017,6.120,0.031,0.017,-0.009,-5.373,-123.878,-18.027
16:22:23:018,6.121,0.035,-0.028,-0.018,-5.452,-123.482,-18.693
16:22:23:019,6.122,0.035,-0.047,-0.020,-5.469,-123.470,-19.174
16:22:23:072,6.175,0.038,-0.031,-0.014,-5.467,-123.152,-19.813
16:22:23:073,6.176,0.047,-0.006,-0.023,-5.396,-122.924,-20.138
16:22:23:073,6.176,0.063,-0.019,-0.031,-5.168,-122.345,-20.366
16:22:23:074,6.177,0.082,-0.060,-0.047,-4.748,-122.042,-20.533
16:22:23:177,6.280,0.090,-0.038,-0.051,-4.437,-122.005,-20.672
16:22:23:178,6.281,0.100,-0.003,-0.045,-4.013,-122.605,-20.860
16:22:23:179,6.282,0.107,0.047,-0.064,-3.741,-122.941,-20.953
16:22:23:18,6.283,0.114,0.091,-0.031,-3.371,-123.980,-21.005
16:22:23:226,6.329,0.127,0.057,-0.055,-3.096,-125.020,-20.941
16:22:23:226,6.329,0.085,-0.026,-0.043,-3.055,-126.083,-20.976
16:22:23:248,6.351,0.065,-0.020,-0.034,-3.614,-128.909,-21.633
16:22:23:302,6.405,0.055,-0.020,-0.040,-4.106,-129.880,-22.508
16:22:23:302,6.405,0.073,0.003,-0.101,-4.391,-130.172,-23.555
16:22:23:38,6.483,0.159,-0.005,-0.192,-4.493,-130.037,-24.274
16:22:23:437,6.540,0.203,-0.011,-0.204,-4.757,-130.518,-25.355
16:22:23:438,6.541,0.165,-0.041,-0.208,-5.080,-131.280,-25.958
16:22:23:438,6.541,0.171,-0.071,-0.228,-5.643,-133.197,-26.589
16:22:23:461,6.564,0.184,-0.038,-0.237,-6.223,-135.597,-26.815
16:22:23:461,6.564,0.160,-0.059,-0.221,-6.280,-137.315,-25.745
16:22:23:483,6.586,0.154,-0.104,-0.204,-6.361,-139.967,-24.859
16:22:23:538,6.641,0.117,-0.094,-0.165,-6.443,-141.694,-24.334
16:22:23:539,6.642,0.101,-0.068,-0.154,-6.441,-144.313,-23.222
16:22:23:667,6.770,0.119,0.043,-0.163,-6.273,-146.703,-21.717
16:22:23:702,6.805,0.108,0.070,-0.148,-6.076,-148.427,-20.512
16:22:23:703,6.806,0.067,0.071,-0.085,-5.707,-150.890,-18.478
16:22:23:703,6.806,0.024,0.032,-0.073,-5.362,-152.534,-17.023
16:22:23:704,6.807,-0.038,0.046,-0.033,-4.714,-154.451,-14.578
16:22:23:719,6.823,-0.052,0.034,-0.009,-3.868,-155.928,-11.932
16:22:23:75,6.853,-0.055,0.043,0.005,-3.247,-156.720,-10.140
16:22:23:75,6.853,-0.073,0.053,0.032,-2.317,-157.869,-7.426
16:22:23:772,6.875,-0.124,0.080,0.059,-1.702,-158.759,-5.661
16:22:23:906,7.009,-0.171,0.081,0.087,-0.776,-160.355,-3.024
16:22:23:907,7.010,-0.228,0.065,0.122,0.133,-161.871,-0.535
16:22:23:938,7.041,-0.244,0.033,0.130,0.698,-162.754,1.067
16:22:23:939,7.042,-0.324,-0.023,0.137,1.427,-163.886,3.279
16:22:24:043,7.146,-0.393,-0.132,0.170,2.252,-164.403,8.060
16:22:24:044,7.147,-0.379,-0.142,0.174,2.242,-164.135,8.897
16:22:24:045,7.148,-0.422,-0.144,0.191,2.122,-163.930,9.792
16:22:24:046,7.149,-0.476,-0.109,0.204,1.978,-163.912,10.218
16:22:24:254,7.357,-0.457,-0.143,0.225,1.691,-163.854,10.630
16:22:24:255,7.358,-0.426,-0.157,0.237,1.264,-163.721,10.760
16:22:24:255,7.358,-0.452,-0.140,0.261,0.840,-163.567,10.682
16:22:24:256,7.359,-0.466,0.075,0.277,-0.131,-162.773,10.392
16:22:24:405,7.508,-0.367,0.097,0.262,-0.965,-161.795,10.018
16:22:24:406,7.509,-0.318,-0.037,0.237,-2.332,-159.634,8.770
16:22:24:437,7.540,-0.334,-0.214,0.197,-3.363,-158.049,7.500
16:22:24:438,7.541,-0.310,-0.143,0.152,-5.073,-154.826,5.022
16:22:24:438,7.541,-0.189,-0.031,0.082,-6.600,-151.183,1.849
16:22:24:439,7.542,-0.189,0.000,0.105,-7.299,-149.171,-0.590
16:22:24:49,7.593,-0.227,0.187,0.097,-7.989,-146.643,-4.445
16:22:24:49,7.593,-0.206,0.325,-0.047,-8.114,-144.748,-7.044
16:22:24:491,7.594,0.022,0.418,-0.014,-7.439,-141.221,-10.574
16:22:24:492,7.595,0.141,0.381,-0.046,-6.750,-138.092,-14.302
16:22:24:517,7.620,0.113,0.275,-0.089,-6.598,-137.978,-16.891
16:22:24:518,7.621,0.181,0.252,-0.128,-7.233,-138.733,-21.298
16:22:24:519,7.622,0.243,0.148,-0.103,-7.836,-138.969,-24.604
16:22:24:535,7.638,0.297,0.031,-0.186,-9.961,-137.954,-35.295
16:22:24:536,7.639,0.362,-0.083,-0.254,-10.012,-136.727,-38.819
16:22:24:648,7.751,0.364,-0.196,-0.246,-9.805,-135.075,-43.714
16:22:24:648,7.751,0.396,-0.273,-0.240,-9.370,-134.066,-46.627
16:22:24:648,7.751,0.396,-0.343,-0.268,-8.161,-132.714,-50.257
16:22:24:648,7.751,0.410,-0.355,-0.268,-6.660,-131.793,-52.847
16:22:24:724,7.827,0.428,-0.363,-0.283,-5.620,-131.495,-53.913
16:22:24:724,7.827,0.455,-0.311,-0.297,-4.801,-131.612,-53.318
16:22:24:725,7.828,0.473,-0.260,-0.330,-4.463,-132.040,-52.862
16:22:24:772,7.875,0.470,-0.256,-0.337,-4.713,-133.217,-51.163
16:22:24:772,7.875,0.472,-0.120,-0.374,-5.315,-134.388,-49.445
16:22:24:875,7.978,0.565,0.126,-0.422,-6.323,-136.642,-45.838
16:22:24:909,8.012,0.468,0.167,-0.321,-6.747,-138.984,-41.007
16:22:24:91,8.013,0.178,-0.142,-0.157,-6.720,-140.526,-37.543
16:22:24:91,8.013,0.112,-0.071,-0.235,-6.677,-142.695,-32.382
16:22:24:911,8.014,0.089,0.118,-0.231,-6.354,-144.341,-27.517
16:22:25:014,8.117,0.126,0.135,-0.171,-5.819,-145.218,-24.563
16:22:25:018,8.121,0.200,0.239,-0.072,-4.974,-145.937,-20.541
16:22:25:146,8.249,-0.133,0.064,0.044,-3.961,-149.406,-12.664
16:22:25:146,8.249,-0.154,0.010,0.084,-3.682,-151.161,-9.708
16:22:25:147,8.250,-0.239,0.020,0.152,-3.338,-152.342,-6.868
16:22:25:148,8.251,-0.263,0.056,0.192,-3.040,-152.751,-4.911
16:22:25:224,8.327,-0.307,0.028,0.181,-2.557,-152.967,-1.882
16:22:25:224,8.327,-0.415,-0.014,0.214,-2.216,-153.135,0.194
16:22:25:225,8.328,-0.462,-0.111,0.239,-1.688,-153.362,3.239
16:22:25:242,8.345,-0.467,-0.155,0.266,-1.090,-152.987,7.362
16:22:25:382,8.485,-0.493,-0.080,0.272,-1.204,-152.292,8.994
16:22:25:383,8.486,-0.527,-0.072,0.273,-1.503,-151.585,9.707
16:22:25:384,8.487,-0.533,-0.083,0.289,-2.225,-150.255,10.206
16:22:25:4,8.503,-0.460,-0.057,0.277,-3.588,-146.992,6.102
16:22:25:828,8.932,-0.424,0.029,0.297,-4.235,-144.387,3.728
16:22:25:829,8.932,-0.452,0.206,0.339,-4.566,-142.667,3.167
16:22:25:83,8.933,-0.475,0.455,0.448,-4.676,-139.835,2.254
16:22:25:831,8.934,-0.338,0.277,0.498,-4.068,-135.878,1.154
16:22:25:854,8.957,-0.123,0.173,0.483,-3.281,-132.750,-0.052
16:22:25:855,8.958,0.075,0.082,0.350,-1.815,-128.614,-2.794
16:22:25:856,8.959,0.063,0.177,0.201,-0.824,-126.696,-5.310
16:22:25:857,8.960,0.151,0.226,0.119,0.745,-124.470,-9.872
16:22:25:882,8.985,0.376,0.306,0.056,2.637,-121.164,-14.801
16:22:25:882,8.985,0.444,0.371,-0.114,3.855,-119.986,-18.573
16:22:25:883,8.986,0.500,0.413,-0.008,5.011,-120.694,-24.637
16:22:25:899,9.002,0.602,0.177,-0.320,5.136,-122.492,-35.628
16:22:25:935,9.038,0.606,0.041,-0.386,4.175,-123.254,-42.424
16:22:25:935,9.038,0.629,-0.106,-0.414,3.739,-123.178,-46.765
16:22:25:936,9.039,0.601,-0.288,-0.397,3.808,-122.438,-53.034
16:22:25:937,9.040,0.527,-0.381,-0.385,4.244,-121.782,-56.900
16:22:26:013,9.116,0.495,-0.434,-0.384,5.770,-120.671,-62.190
16:22:26:013,9.117,0.469,-0.538,-0.411,8.624,-119.501,-66.680
16:22:26:014,9.118,0.449,-0.574,-0.411,11.081,-119.154,-69.217
16:22:26:015,9.118,0.434,-0.592,-0.416,15.240,-118.247,-72.169
16:22:26:113,9.216,0.450,-0.612,-0.411,18.247,-117.739,-73.436
16:22:26:113,9.216,0.433,-0.627,-0.406,21.744,-117.150,-74.222
16:22:26:164,9.267,0.436,-0.588,-0.422,22.262,-116.881,-73.976
16:22:26:165,9.268,0.448,-0.516,-0.469,19.631,-116.690,-72.452
16:22:26:189,9.292,0.480,-0.422,-0.525,14.433,-116.803,-69.455
16:22:26:458,9.561,0.495,-0.319,-0.553,10.385,-117.132,-66.611
16:22:26:459,9.562,0.516,-0.126,-0.537,5.104,-118.158,-60.996
16:22:26:46,9.563,0.295,-0.101,-0.406,2.922,-119.047,-56.439
16:22:26:461,9.564,0.086,0.050,-0.325,1.477,-120.257,-48.846
16:22:26:581,9.684,0.014,0.306,-0.316,2.271,-120.521,-40.694
16:22:26:616,9.719,0.121,0.488,-0.243,3.731,-119.686,-35.159
16:22:26:617,9.720,0.230,0.552,-0.165,6.034,-116.668,-26.908
16:22:26:618,9.721,0.084,0.473,-0.035,6.993,-113.831,-21.719
16:22:26:957,10.060,-0.032,0.272,0.040,6.940,-102.653,-9.549
16:22:26:958,10.061,-0.057,0.233,0.130,6.029,-98.560,-6.642
16:22:26:958,10.061,-0.135,0.139,0.165,4.150,-93.140,-3.201
16:22:26:959,10.062,-0.224,0.047,0.267,2.749,-90.215,-1.380
16:22:27:22,10.323,-0.240,0.001,0.342,0.787,-87.380,0.668
16:22:27:221,10.324,-0.224,-0.087,0.344,-0.697,-85.938,2.308
16:22:27:222,10.325,-0.170,-0.150,0.357,-1.305,-85.674,3.233
16:22:27:222,10.325,-0.111,-0.185,0.409,-1.598,-86.380,4.522
16:22:27:351,10.454,-0.056,-0.157,0.438,-1.444,-87.206,5.343
16:22:27:351,10.454,-0.024,-0.202,0.429,-0.827,-88.484,6.333
16:22:27:352,10.455,0.005,-0.263,0.416,0.083,-89.725,6.854
16:22:27:353,10.456,0.023,-0.251,0.434,0.693,-91.248,6.898
16:22:27:43,10.533,0.073,-0.109,0.465,1.465,-91.878,6.696
16:22:27:43,10.533,0.165,0.012,0.445,1.929,-92.486,6.482
16:22:27:431,10.534,0.218,0.025,0.418,2.658,-91.961,6.042
16:22:27:587,10.690,0.313,0.166,0.418,3.638,-91.891,4.596
16:22:27:588,10.691,0.337,0.405,0.480,3.864,-91.342,3.666
16:22:27:588,10.691,0.382,0.313,0.482,4.149,-90.036,2.952
16:22:27:589,10.692,0.426,0.029,0.364,4.675,-87.321,1.393
16:22:27:797,10.900,0.422,0.018,0.175,4.917,-84.918,-0.126
16:22:27:798,10.901,0.408,0.048,0.077,5.248,-81.306,-3.158
16:22:27:798,10.901,0.350,0.261,-0.393,7.831,-70.310,-22.932
16:22:27:799,10.902,0.306,0.166,-0.488,8.453,-69.672,-28.295
16:22:27:822,10.925,0.247,0.089,-0.529,8.853,-69.300,-31.896
16:22:27:822,10.925,0.190,-0.031,-0.612,9.399,-68.819,-37.315
16:22:27:822,10.925,-0.032,-0.380,-0.598,12.254,-65.161,-60.161
16:22:27:931,11.034,-0.045,-0.410,-0.606,14.235,-64.531,-61.103
16:22:27:931,11.034,-0.057,-0.419,-0.591,14.963,-64.282,-61.091
16:22:27:931,11.034,-0.085,-0.374,-0.530,14.892,-64.174,-60.096
16:22:27:931,11.034,-0.118,-0.183,-0.661,12.750,-64.301,-55.683
16:22:28:06,11.163,-0.048,-0.178,-0.594,11.229,-64.470,-51.580
16:22:28:061,11.164,-0.067,-0.180,-0.443,10.157,-64.570,-48.370
16:22:28:062,11.165,-0.149,0.052,-0.428,8.773,-64.675,-43.122
16:22:28:063,11.166,-0.131,0.137,-0.432,8.233,-64.777,-39.402
16:22:28:077,11.180,0.005,0.150,-0.427,7.685,-65.160,-33.656
16:22:28:165,11.268,0.093,0.168,-0.285,7.149,-65.908,-27.868
16:22:28:165,11.268,0.103,0.166,-0.191,6.836,-66.413,-24.102
16:22:28:166,11.269,0.151,0.232,0.079,6.130,-67.545,-13.628
16:22:28:167,11.270,0.180,0.204,0.123,6.020,-67.417,-10.400
16:22:28:191,11.294,0.238,0.219,0.202,5.790,-66.878,-5.829
16:22:28:191,11.294,0.254,0.232,0.296,5.587,-66.400,-2.976
16:22:28:192,11.295,0.234,-0.213,0.521,2.528,-62.082,9.616
16:22:28:193,11.296,0.235,-0.166,0.526,1.917,-60.906,10.545
16:22:28:322,11.425,0.267,-0.130,0.558,1.129,-59.581,11.707
16:22:28:323,11.426,0.333,-0.096,0.572,0.779,-58.533,12.363
16:22:28:324,11.427,0.361,-0.111,0.577,0.539,-57.399,13.179
16:22:28:324,11.427,0.418,-0.099,0.562,0.556,-56.139,13.673
16:22:28:4,11.503,0.459,-0.021,0.560,0.613,-55.148,13.749
16:22:28:401,11.504,0.584,0.304,0.547,0.677,-53.319,13.397
16:22:28:402,11.505,0.595,0.401,0.521,0.801,-51.705,12.763
16:22:28:403,11.506,0.493,0.147,0.252,1.368,-48.796,10.937
16:22:28:427,11.530,0.408,-0.013,0.051,2.326,-46.460,7.881
16:22:28:428,11.531,0.303,-0.074,-0.010,2.944,-45.466,5.168
16:22:28:429,11.532,0.239,-0.069,-0.004,3.835,-44.448,0.308
16:22:28:429,11.532,0.266,0.030,-0.052,4.880,-44.167,-5.019
16:22:28:629,11.732,0.320,0.222,-0.137,5.607,-44.345,-8.595
16:22:28:848,11.951,0.314,0.347,-0.279,6.753,-44.731,-14.000
16:22:28:848,11.951,0.257,0.352,-0.356,7.635,-44.752,-17.429
16:22:28:849,11.952,0.102,0.257,-0.484,9.180,-44.416,-22.148
16:22:28:85,11.953,-0.008,0.074,-0.563,10.807,-44.181,-26.787
16:22:28:868,11.971,-0.014,0.009,-0.568,11.728,-44.273,-29.895
16:22:28:869,11.972,-0.035,-0.085,-0.566,13.032,-44.285,-34.512
16:22:28:899,12.002,-0.067,-0.149,-0.581,13.934,-44.146,-37.501
16:22:28:9,12.003,-0.097,-0.220,-0.611,15.452,-43.691,-41.766
16:22:28:901,12.004,-0.134,-0.314,-0.633,16.640,-43.230,-44.468
16:22:29:104,12.207,-0.173,-0.435,-0.546,20.532,-41.239,-51.223
16:22:29:105,12.208,-0.160,-0.440,-0.536,21.724,-40.628,-52.905
16:22:29:136,12.239,-0.162,-0.439,-0.528,23.048,-39.940,-54.724
16:22:29:137,12.240,-0.175,-0.430,-0.549,23.471,-39.594,-55.394
16:22:29:137,12.240,-0.189,-0.421,-0.542,23.151,-39.278,-55.536
16:22:29:267,12.370,-0.262,-0.193,-0.520,19.959,-39.086,-52.888
16:22:29:268,12.371,-0.245,-0.088,-0.479,17.447,-39.042,-49.310
16:22:29:269,12.372,-0.214,0.072,-0.463,15.838,-39.100,-46.141
16:22:29:269,12.372,-0.132,0.125,-0.307,13.824,-39.176,-40.291
16:22:29:34,12.443,-0.026,-0.004,0.008,12.881,-38.773,-33.708
16:22:29:341,12.444,-0.026,-0.022,-0.035,12.768,-38.027,-29.240
16:22:29:374,12.477,0.245,0.119,-0.003,10.670,-27.786,-4.019
16:22:29:374,12.477,0.330,0.076,0.125,9.165,-25.746,-0.619
16:22:29:375,12.478,0.363,0.037,0.182,7.972,-24.281,1.280
16:22:29:375,12.478,0.406,-0.016,0.200,6.074,-22.080,3.659
16:22:29:39,12.493,0.472,-0.060,0.244,4.147,-19.933,5.646
16:22:29:529,12.632,0.462,-0.083,0.250,2.848,-18.285,6.819
16:22:29:53,12.633,0.395,-0.131,0.244,1.016,-15.697,8.235
16:22:29:531,12.634,0.353,-0.193,0.234,-0.018,-14.189,8.929
16:22:29:532,12.635,0.333,-0.220,0.213,-1.213,-12.391,9.618
16:22:29:556,12.659,0.348,-0.211,0.200,-1.986,-11.250,9.906
16:22:29:557,12.660,0.379,-0.160,0.197,-2.280,-10.796,9.943
16:22:29:557,12.660,0.434,-0.059,0.162,-2.425,-10.287,9.879
16:22:29:608,12.711,0.480,0.032,0.040,-2.003,-8.904,9.701
16:22:29:609,12.712,0.465,0.018,-0.031,-1.560,-7.933,9.511
16:22:29:61,12.713,0.469,0.005,-0.051,-1.269,-7.276,9.346
16:22:29:661,12.764,0.582,0.228,-0.148,-0.655,-4.344,9.199
16:22:29:662,12.765,0.644,0.158,-0.204,-0.113,-1.562,9.361
16:22:29:662,12.765,0.570,-0.016,-0.242,0.392,0.323,9.332
16:22:29:663,12.766,0.498,-0.072,-0.305,1.161,3.505,8.728
16:22:29:766,12.869,0.353,-0.130,-0.340,1.910,7.010,7.163
16:22:29:766,12.869,0.256,-0.041,-0.327,2.391,9.490,5.689
16:22:29:767,12.870,0.220,0.054,-0.352,3.225,12.982,2.881
16:22:29:768,12.871,0.184,0.223,-0.427,3.955,14.774,0.644
16:22:29:841,12.944,0.069,0.293,-0.442,5.257,16.299,-3.178
16:22:29:842,12.945,0.003,0.172,-0.375,6.481,15.957,-7.644
16:22:29:871,12.974,-0.125,0.127,-0.304,7.377,13.127,-16.542
16:22:29:872,12.975,-0.169,0.117,-0.309,7.317,11.986,-20.300
16:22:29:923,13.026,-0.402,-0.101,-0.237,7.119,10.620,-34.714
16:22:29:924,13.027,-0.406,-0.179,-0.180,7.230,10.805,-39.400
16:22:29:925,13.028,-0.422,-0.225,-0.140,7.456,11.110,-42.146
16:22:29:925,13.028,-0.372,-0.252,-0.102,8.074,11.771,-45.544
16:22:30:003,13.106,-0.376,-0.257,-0.071,9.222,12.731,-47.951
16:22:30:004,13.107,-0.452,-0.301,-0.062,10.302,13.477,-48.998
16:22:30:004,13.107,-0.492,-0.335,-0.052,11.666,14.419,-49.849
16:22:30:03,13.133,-0.514,-0.236,-0.006,11.928,15.177,-49.156
16:22:30:03,13.133,-0.587,-0.101,-0.010,10.926,15.149,-47.309
16:22:30:03,13.133,-0.597,-0.069,-0.046,10.065,14.911,-45.398
16:22:30:031,13.134,-0.395,-0.095,-0.116,8.392,14.162,-41.482
16:22:30:048,13.151,-0.245,-0.147,-0.032,7.263,13.618,-38.253
16:22:30:049,13.152,-0.206,0.062,0.079,5.656,13.108,-32.854
16:22:30:072,13.175,-0.199,0.272,0.037,4.783,13.122,-27.110
16:22:30:098,13.201,-0.185,0.223,-0.082,4.620,13.546,-23.288
16:22:30:124,13.227,-0.107,0.179,-0.177,4.356,14.516,-17.583
16:22:30:291,13.394,-0.009,0.147,-0.170,4.064,15.411,-13.927
16:22:30:291,13.394,0.087,0.138,-0.138,3.339,17.217,-8.791
16:22:30:501,13.604,0.359,0.074,-0.130,-0.086,22.605,2.974
16:22:30:502,13.605,0.424,0.042,-0.117,-1.116,23.137,5.418
16:22:30:503,13.606,0.531,-0.014,-0.148,-2.531,23.090,8.756
16:22:30:504,13.607,0.578,-0.099,-0.131,-3.375,22.854,10.731
16:22:30:554,13.657,0.624,-0.194,-0.114,-4.520,22.448,13.326
16:22:30:554,13.657,0.644,-0.265,-0.086,-5.539,22.075,15.401
16:22:30:606,13.709,0.828,-0.078,-0.094,-7.616,22.086,18.103
16:22:30:606,13.709,0.803,-0.070,-0.114,-8.198,22.876,18.536
16:22:30:607,13.710,0.747,-0.087,-0.147,-8.316,23.618,18.609
16:22:30:608,13.711,0.733,-0.075,-0.162,-8.133,23.982,18.425
16:22:30:712,13.815,0.724,0.017,-0.179,-7.705,24.592,17.674
16:22:30:712,13.815,0.744,0.169,-0.242,-7.326,25.096,16.855
16:22:30:713,13.816,0.701,0.138,-0.274,-6.489,25.980,15.305
16:22:30:714,13.817,0.543,-0.012,-0.312,-5.183,26.948,13.331
16:22:30:733,13.836,0.446,-0.063,-0.316,-4.138,27.644,11.665
16:22:30:734,13.837,0.382,0.050,-0.312,-2.635,28.685,8.533
16:22:30:735,13.838,0.304,0.134,-0.306,-1.676,29.719,6.031
16:22:30:783,13.886,0.170,0.230,-0.309,-0.175,31.352,1.822
16:22:30:784,13.887,0.026,0.331,-0.279,1.461,33.255,-2.648
16:22:30:807,13.910,-0.054,0.358,-0.257,2.615,34.269,-5.813
16:22:31:,14.103,-0.200,0.320,-0.176,4.333,35.120,-10.794
16:22:31:,14.103,-0.297,0.179,-0.126,5.353,35.089,-14.332
16:22:31:001,14.104,-0.339,0.126,-0.107,6.326,34.002,-20.070
16:22:31:002,14.105,-0.364,0.064,-0.087,6.689,32.527,-25.941
16:22:31:025,14.128,-0.387,-0.029,-0.038,6.773,31.894,-29.821
16:22:31:025,14.128,-0.414,-0.179,-0.021,6.970,31.399,-35.513
16:22:31:025,14.128,-0.392,-0.212,-0.025,7.203,31.416,-38.981
16:22:31:076,14.179,-0.412,-0.268,0.034,8.083,31.987,-43.673
16:22:31:077,14.180,-0.447,-0.329,0.051,9.700,32.832,-47.557
16:22:31:077,14.180,-0.465,-0.329,0.082,10.885,33.309,-49.612
16:22:31:096,14.199,-0.487,-0.275,0.156,12.749,33.785,-51.835
16:22:31:122,14.225,-0.504,-0.405,0.129,13.852,33.739,-52.732
16:22:31:209,14.312,-0.465,-0.432,0.082,14.073,32.831,-53.248
16:22:31:209,14.312,-0.468,-0.327,0.097,12.377,31.337,-52.522
16:22:31:21,14.313,-0.536,-0.214,0.118,10.706,30.204,-51.256
16:22:31:211,14.314,-0.588,-0.099,0.097,7.849,28.251,-48.035
16:22:31:256,14.359,-0.444,-0.023,0.037,5.881,26.787,-44.944
16:22:31:256,14.359,-0.223,-0.081,0.051,3.672,24.811,-39.357
16:22:31:279,14.382,-0.144,0.086,0.138,2.770,23.920,-35.208
16:22:31:332,14.435,-0.078,0.169,0.109,2.425,23.446,-28.790
16:22:31:391,14.494,-0.102,0.136,-0.030,2.956,24.469,-22.529
16:22:31:395,14.498,-0.124,0.186,-0.089,3.269,25.763,-18.446
16:22:31:395,14.498,-0.163,0.286,-0.137,3.239,28.078,-12.745
16:22:31:436,14.539,-0.070,0.221,-0.090,2.834,29.469,-9.273
16:22:31:466,14.569,0.130,0.222,-0.115,1.760,30.717,-4.453
16:22:31:467,14.570,0.313,0.285,-0.158,0.452,31.303,0.177
16:22:31:573,14.676,0.394,0.241,-0.209,-0.353,31.379,3.275
16:22:31:573,14.676,0.509,0.112,-0.246,-1.289,30.549,7.978
16:22:31:684,14.787,0.593,0.023,-0.273,-1.689,29.698,11.059
16:22:31:685,14.788,0.640,-0.090,-0.270,-2.085,28.408,15.455
16:22:31:685,14.788,0.725,-0.192,-0.288,-2.313,27.296,19.390
16:22:31:685,14.788,0.740,-0.232,-0.278,-2.462,26.753,21.643
16:22:31:787,14.890,0.727,-0.312,-0.255,-2.611,25.946,24.308
16:22:31:788,14.891,0.791,-0.295,-0.255,-2.654,25.141,25.618
16:22:31:789,14.892,0.853,-0.285,-0.285,-2.767,23.494,27.384
16:22:31:918,15.021,0.853,-0.273,-0.307,-2.778,23.245,27.304
16:22:31:919,15.022,0.826,-0.232,-0.308,-2.795,22.915,26.608
16:22:31:92,15.023,0.868,-0.141,-0.312,-2.839,23.034,25.775
16:22:31:921,15.024,0.914,-0.024,-0.312,-3.025,23.682,23.996
16:22:31:944,15.047,0.797,0.007,-0.293,-3.200,25.073,21.507
16:22:31:945,15.048,0.658,-0.082,-0.276,-3.196,26.301,19.334
16:22:31:945,15.048,0.563,-0.013,-0.295,-3.128,28.634,15.383
16:22:31:946,15.049,0.448,0.183,-0.326,-3.013,30.632,12.418
16:22:31:962,15.065,0.302,0.263,-0.306,-2.359,34.068,7.670
16:22:32:046,15.149,0.123,0.343,-0.272,-0.990,36.968,2.785
16:22:32:047,15.150,0.056,0.391,-0.242,0.196,38.264,-0.525
16:22:32:047,15.150,-0.085,0.426,-0.194,2.079,39.245,-5.639
16:22:32:125,15.228,-0.205,0.399,-0.129,3.266,39.164,-9.276
16:22:32:126,15.229,-0.340,0.228,-0.035,4.623,37.661,-15.196
16:22:32:127,15.230,-0.389,0.120,0.023,4.878,34.354,-21.752
16:22:32:174,15.277,-0.433,0.025,0.020,4.163,31.369,-26.343
16:22:32:175,15.278,-0.317,-0.079,-0.044,1.677,26.596,-33.099
16:22:32:198,15.301,-0.199,-0.140,0.036,-0.595,24.226,-37.191
16:22:32:253,15.356,-0.171,-0.179,0.063,-3.442,22.764,-42.743
16:22:32:254,15.357,-0.330,-0.254,0.101,-4.172,23.073,-46.051
16:22:32:497,15.600,-0.403,-0.306,0.100,-3.384,24.455,-50.284
16:22:32:497,15.600,-0.432,-0.346,0.093,-1.316,25.900,-53.434
16:22:32:522,15.625,-0.503,-0.334,0.149,3.285,28.095,-55.675
16:22:32:523,15.626,-0.516,-0.285,0.180,3.310,28.358,-54.442
16:22:32:524,15.627,-0.608,-0.189,0.172,2.963,28.474,-51.940
16:22:32:525,15.628,-0.616,-0.121,0.147,2.620,28.460,-49.540
16:22:32:545,15.648,-0.434,-0.152,0.092,2.123,28.555,-44.870
16:22:32:545,15.648,-0.344,-0.095,0.225,1.787,28.762,-41.300
16:22:32:546,15.649,-0.321,0.108,0.270,0.928,28.902,-35.454
16:22:32:565,15.668,-0.261,0.196,0.154,0.504,28.638,-29.367
16:22:32:65,15.753,-0.280,0.226,0.030,0.325,28.283,-25.128
16:22:32:65,15.754,-0.175,0.296,-0.072,0.056,27.379,-18.583
16:22:32:651,15.754,0.016,0.316,-0.085,-0.088,26.850,-14.214
16:22:32:67,15.773,0.181,0.269,-0.114,-0.184,26.564,-7.791
16:22:32:723,15.826,0.320,0.240,-0.210,-0.233,27.059,-1.614
16:22:32:753,15.856,0.394,0.229,-0.254,-0.358,27.854,2.373
16:22:32:753,15.856,0.488,0.206,-0.269,-0.842,29.157,8.014
16:22:32:775,15.879,0.502,0.138,-0.300,-1.159,29.418,11.393
16:22:32:801,15.904,0.503,0.044,-0.295,-1.283,28.098,15.749
16:22:32:886,15.989,0.728,-0.154,-0.265,-0.581,24.676,19.429
16:22:32:887,15.990,0.854,-0.341,-0.214,0.154,22.184,21.365
16:22:32:887,15.990,0.872,-0.428,-0.169,1.105,19.284,23.452
16:22:32:908,16.011,0.928,-0.343,-0.251,1.421,18.218,24.436
16:22:32:933,16.036,0.911,-0.282,-0.311,1.264,18.043,25.493
16:22:32:986,16.089,0.865,-0.237,-0.346,0.496,19.201,26.103
16:22:33:043,16.146,0.832,-0.208,-0.340,-0.090,20.212,26.278
16:22:33:044,16.147,0.787,-0.167,-0.337,-0.845,21.786,26.214
16:22:33:045,16.148,0.793,-0.122,-0.358,-1.229,22.732,25.839
16:22:33:152,16.255,0.848,0.028,-0.438,-1.762,24.169,24.870
16:22:33:152,16.255,0.795,-0.027,-0.421,-2.122,25.361,23.901
16:22:33:153,16.256,0.686,-0.108,-0.426,-2.572,27.848,21.795
16:22:33:154,16.257,0.544,-0.038,-0.444,-2.933,30.936,18.881
16:22:33:169,16.272,0.433,0.070,-0.412,-3.090,33.286,16.453
16:22:33:224,16.327,0.308,0.125,-0.401,-2.903,37.073,12.089
16:22:33:25,16.353,0.195,0.274,-0.375,-2.059,40.516,7.202
16:22:33:251,16.354,0.112,0.399,-0.354,-1.146,42.410,3.758
16:22:33:275,16.378,-0.069,0.480,-0.273,0.577,44.598,-1.634
16:22:33:415,16.518,-0.214,0.417,-0.186,1.809,45.488,-5.414
16:22:33:415,16.518,-0.302,0.337,-0.083,3.449,45.812,-11.454
16:22:33:416,16.519,-0.373,0.229,-0.021,4.497,44.962,-17.983
16:22:33:417,16.520,-0.415,0.177,0.020,4.757,44.007,-22.488
16:22:33:466,16.569,-0.465,0.051,0.043,4.607,42.473,-29.239
16:22:33:467,16.570,-0.453,-0.062,0.045,4.258,41.625,-33.582
16:22:33:468,16.571,-0.444,-0.184,0.067,3.629,40.930,-39.684
16:22:33:624,16.727,-0.411,-0.325,0.135,3.850,41.558,-48.230
16:22:33:625,16.729,-0.428,-0.405,0.164,5.434,42.635,-52.094
16:22:33:626,16.729,-0.428,-0.467,0.145,6.827,43.337,-54.083
16:22:33:627,16.730,-0.404,-0.485,0.149,8.612,43.984,-56.210
16:22:33:647,16.750,-0.426,-0.483,0.184,9.259,44.327,-56.982
16:22:33:648,16.751,-0.420,-0.446,0.197,9.001,44.470,-57.076
16:22:33:649,16.752,-0.468,-0.309,0.242,7.402,44.293,-55.697
16:22:33:862,16.965,-0.528,-0.199,0.298,5.991,43.983,-53.890
16:22:33:862,16.965,-0.529,-0.080,0.306,3.707,43.181,-49.831
16:22:33:863,16.966,-0.350,-0.096,0.242,2.243,42.433,-46.346
16:22:33:864,16.967,-0.176,0.012,0.280,0.534,41.246,-40.411
16:22:33:915,17.018,-0.074,0.220,0.279,-0.206,40.433,-33.840
16:22:33:915,17.018,-0.144,0.306,0.233,-0.029,40.356,-29.362
16:22:33:915,17.018,-0.198,0.265,0.087,0.436,40.852,-22.711
16:22:33:916,17.019,-0.176,0.269,0.035,0.602,41.251,-18.593
16:22:33:992,17.095,-0.064,0.273,-0.008,0.365,41.707,-12.849
16:22:33:993,17.096,0.197,0.271,-0.107,-0.232,42.008,-7.527
16:22:33:993,17.097,0.307,0.285,-0.169,-0.746,42.323,-4.083
16:22:33:994,17.098,0.474,0.224,-0.295,-1.580,43.250,1.002
16:22:34:012,17.115,0.449,0.213,-0.326,-2.250,44.449,4.274
16:22:34:013,17.116,0.502,0.154,-0.343,-3.674,47.106,8.880
16:22:34:125,17.228,0.599,-0.028,-0.476,-5.427,49.613,13.213
16:22:34:125,17.228,0.608,-0.170,-0.467,-6.790,51.470,15.750
16:22:34:125,17.228,0.569,-0.366,-0.460,-9.190,54.651,18.864
16:22:34:125,17.228,0.576,-0.396,-0.478,-10.962,56.969,20.365
16:22:34:14,17.243,0.580,-0.351,-0.485,-13.830,60.780,21.776
16:22:34:254,17.357,0.594,-0.283,-0.539,-16.421,64.781,22.269
16:22:34:255,17.358,0.566,-0.212,-0.546,-17.857,67.407,22.145
16:22:34:255,17.358,0.532,-0.105,-0.548,-19.139,70.860,21.594
16:22:34:256,17.359,0.469,-0.083,-0.591,-19.205,72.267,21.210
16:22:34:359,17.462,0.417,-0.084,-0.598,-18.271,73.181,20.691
16:22:34:359,17.462,0.349,-0.021,-0.619,-16.570,72.983,19.842
16:22:34:36,17.463,0.349,0.050,-0.664,-15.284,72.567,19.009
16:22:34:361,17.464,0.298,0.119,-0.688,-13.270,72.063,17.340
16:22:34:43,17.533,0.214,0.110,-0.691,-11.830,71.859,15.836
16:22:34:461,17.564,0.060,0.033,-0.535,-9.735,71.796,12.918
16:22:34:462,17.565,-0.015,0.055,-0.418,-8.527,71.720,10.386
16:22:34:463,17.566,-0.029,0.130,-0.370,-7.114,71.410,6.099
16:22:34:481,17.584,-0.055,0.151,-0.362,-6.088,71.496,1.400
16:22:34:701,17.804,-0.126,0.270,-0.337,-5.447,72.027,-1.887
16:22:34:702,17.805,-0.216,0.359,-0.252,-4.316,73.701,-6.764
16:22:34:703,17.806,-0.352,0.388,-0.093,-3.279,75.202,-9.895
16:22:34:706,17.809,-0.402,0.303,0.037,-1.306,77.549,-14.342
16:22:34:727,17.830,-0.407,0.205,0.183,0.829,79.647,-18.552
16:22:34:728,17.831,-0.382,0.129,0.256,2.118,80.711,-21.368
16:22:34:728,17.831,-0.339,0.012,0.305,3.639,81.697,-25.749
16:22:34:729,17.832,-0.312,-0.106,0.296,4.323,81.998,-28.811
16:22:34:747,17.850,-0.259,-0.141,0.213,4.712,82.037,-33.386
16:22:34:748,17.851,-0.226,-0.158,0.232,4.719,82.320,-37.638
16:22:34:884,17.987,-0.220,-0.181,0.286,4.928,82.912,-40.249
16:22:34:885,17.988,-0.269,-0.227,0.371,5.760,84.194,-43.751
16:22:34:886,17.989,-0.275,-0.250,0.391,6.569,85.147,-45.712
16:22:34:933,18.036,-0.198,-0.317,0.456,7.522,87.721,-48.793
16:22:34:934,18.037,-0.173,-0.286,0.490,7.180,88.176,-49.504
16:22:34:935,18.038,-0.088,-0.148,0.490,5.671,88.630,-49.850
16:22:34:954,18.057,-0.019,-0.164,0.463,4.468,89.041,-49.540
16:22:34:98,18.083,-0.019,-0.185,0.504,3.091,89.880,-48.267
16:22:35:095,18.198,0.022,-0.165,0.393,1.598,90.573,-46.141
16:22:35:095,18.198,0.097,-0.222,0.236,0.462,90.892,-44.155
16:22:35:095,18.198,0.203,-0.205,0.226,-1.114,91.413,-40.694
16:22:35:096,18.199,0.247,-0.056,0.309,-2.126,91.702,-38.074
16:22:35:199,18.302,0.208,0.050,0.287,-3.379,91.984,-33.791
16:22:35:2,18.303,0.152,0.195,0.282,-4.448,92.248,-28.915
16:22:35:221,18.324,0.216,0.187,-0.091,-6.016,94.481,-16.455
16:22:35:359,18.462,0.186,0.146,-0.189,-6.508,96.573,-11.178
16:22:35:359,18.462,0.169,0.173,-0.319,-7.241,99.111,-6.113
16:22:35:36,18.463,0.179,0.192,-0.384,-7.935,100.987,-2.912
16:22:35:36,18.463,0.180,0.120,-0.536,-9.223,103.807,1.470
16:22:35:378,18.481,0.184,0.022,-0.496,-10.171,105.838,3.854
16:22:35:378,18.481,0.169,-0.038,-0.455,-11.642,108.391,6.855
16:22:35:4,18.503,0.109,-0.174,-0.580,-12.889,109.343,9.611
16:22:35:534,18.637,0.100,-0.214,-0.706,-13.592,109.498,11.279
16:22:35:586,18.689,0.076,-0.207,-0.798,-14.575,111.314,13.285
16:22:35:621,18.724,0.074,-0.135,-0.779,-15.142,112.078,14.175
16:22:35:622,18.725,0.007,-0.100,-0.803,-15.755,114.731,15.093
16:22:35:622,18.725,-0.025,-0.105,-0.814,-15.940,117.297,15.605
16:22:35:623,18.726,-0.066,-0.060,-0.787,-15.815,118.033,15.671
16:22:35:692,18.795,-0.123,0.044,-0.784,-15.318,120.298,15.252
16:22:35:693,18.796,-0.177,0.148,-0.810,-14.837,120.965,14.626
16:22:35:804,18.907,-0.213,0.135,-0.763,-13.847,123.185,13.036
16:22:35:805,18.908,-0.217,-0.005,-0.561,-12.621,125.254,10.479
16:22:35:806,18.909,-0.197,-0.056,-0.418,-11.687,127.463,8.251
16:22:35:807,18.910,-0.180,-0.045,-0.308,-10.201,129.660,4.311
16:22:35:856,18.959,-0.160,0.078,-0.260,-9.142,131.393,1.446
16:22:35:856,18.959,-0.150,0.258,-0.142,-7.311,133.150,-3.035
16:22:35:857,18.960,-0.148,0.428,-0.035,-5.935,133.857,-6.049
16:22:35:934,19.037,-0.043,0.321,0.270,-1.966,133.029,-15.300
16:22:35:934,19.037,0.048,0.237,0.322,-1.334,131.582,-18.782
16:22:35:935,19.038,0.105,0.192,0.354,-1.480,128.844,-24.501
16:22:35:936,19.039,0.125,0.107,0.359,-2.293,127.056,-28.510
16:22:35:955,19.058,0.138,0.048,0.391,-4.258,125.078,-34.667
16:22:35:956,19.059,0.148,-0.032,0.440,-6.452,124.390,-40.673
16:22:36:093,19.196,0.153,-0.130,0.448,-7.643,124.651,-44.503
16:22:36:093,19.196,0.167,-0.242,0.436,-8.606,125.888,-49.902
16:22:36:094,19.197,0.219,-0.308,0.436,-8.464,127.131,-53.154
16:22:36:095,19.198,0.275,-0.351,0.497,-6.847,129.161,-57.329
16:22:36:112,19.215,0.287,-0.430,0.544,-4.274,130.783,-60.426
16:22:36:113,19.216,0.277,-0.452,0.525,-3.070,131.429,-61.844
16:22:36:164,19.267,0.278,-0.467,0.501,-2.908,131.845,-62.964
16:22:36:165,19.268,0.299,-0.463,0.457,-3.905,131.872,-63.033
16:22:36:302,19.405,0.401,-0.328,0.396,-6.001,131.817,-61.988
16:22:36:303,19.406,0.458,-0.245,0.395,-6.950,131.748,-59.639
16:22:36:304,19.407,0.361,-0.299,0.367,-6.964,131.632,-57.403
16:22:36:38,19.483,0.478,-0.114,0.163,-7.729,131.218,-49.943
16:22:36:381,19.484,0.538,0.086,0.162,-8.107,131.072,-44.386
16:22:36:382,19.485,0.424,0.158,0.155,-7.780,131.202,-38.369
16:22:36:456,19.559,0.290,0.206,-0.052,-6.776,132.796,-28.032
16:22:36:457,19.560,0.265,0.139,-0.003,-6.227,134.292,-24.388
16:22:36:457,19.560,0.130,0.196,0.011,-5.903,136.599,-19.108
16:22:36:535,19.638,0.078,0.281,-0.259,-6.088,139.004,-13.936
16:22:36:536,19.639,0.095,0.261,-0.243,-6.318,140.686,-10.829
16:22:36:537,19.640,0.035,0.230,-0.278,-7.001,141.763,-6.311
16:22:36:827,19.930,-0.185,0.161,-0.564,-7.530,141.114,-3.186
16:22:36:828,19.931,-0.163,0.068,-0.604,-8.104,139.827,1.241
16:22:36:828,19.931,-0.199,-0.073,-0.599,-8.411,138.623,4.938
16:22:36:829,19.932,-0.292,-0.181,-0.662,-8.475,137.800,7.121
16:22:36:88,19.983,-0.341,-0.202,-0.688,-8.538,137.327,9.821
16:22:36:881,19.984,-0.392,-0.154,-0.683,-8.634,137.710,11.129
16:22:36:882,19.985,-0.451,-0.114,-0.667,-8.888,139.202,12.529
16:22:36:908,20.011,-0.421,-0.002,-0.528,-9.356,143.319,13.260
16:22:36:908,20.011,-0.380,0.000,-0.420,-9.350,145.266,12.605
16:22:36:909,20.012,-0.426,0.111,-0.471,-9.223,146.033,11.782
16:22:36:91,20.013,-0.452,0.226,-0.467,-8.996,147.068,10.134
16:22:37:038,20.142,-0.488,0.207,-0.425,-8.678,147.811,8.734
16:22:37:038,20.142,-0.484,0.056,-0.289,-7.997,149.219,6.189
16:22:37:039,20.142,-0.356,0.004,-0.122,-7.232,151.304,2.976
16:22:37:04,20.143,-0.310,0.025,-0.055,-6.689,153.025,0.482
16:22:37:142,20.245,-0.219,0.100,0.015,-5.705,156.023,-3.661
16:22:37:143,20.246,-0.153,0.267,0.078,-4.831,158.200,-6.576
16:22:37:144,20.247,-0.090,0.376,0.149,-3.136,161.262,-11.015
16:22:37:144,20.247,0.072,0.461,0.297,-1.043,163.756,-15.447
16:22:37:16,20.263,0.200,0.378,0.363,0.370,164.879,-18.527
16:22:37:194,20.297,0.287,0.176,0.341,2.052,165.503,-23.554
16:22:37:195,20.298,0.337,0.108,0.298,2.709,165.405,-27.185
16:22:37:271,20.374,0.432,-0.081,0.355,1.842,163.438,-43.015
16:22:37:271,20.374,0.446,-0.226,0.332,1.062,163.334,-48.579
16:22:37:272,20.375,0.440,-0.306,0.314,0.787,163.573,-51.996
16:22:37:291,20.394,0.431,-0.377,0.265,1.039,164.351,-56.449
16:22:37:316,20.419,0.519,-0.399,0.258,2.211,165.434,-60.013
16:22:37:372,20.475,0.543,-0.421,0.263,3.220,166.090,-61.820
16:22:37:373,20.476,0.513,-0.440,0.241,3.548,166.892,-62.384
16:22:37:395,20.498,0.534,-0.454,0.219,3.621,166.828,-62.995
16:22:37:421,20.524,0.559,-0.420,0.185,2.639,167.363,-62.978
16:22:37:531,20.634,0.635,-0.248,0.097,1.126,167.747,-61.698
16:22:37:531,20.634,0.690,-0.205,0.098,0.629,168.188,-60.218
16:22:37:557,20.660,0.596,-0.250,0.149,-0.047,168.536,-57.053
16:22:37:558,20.661,0.390,-0.293,0.053,-0.937,168.733,-54.404
16:22:37:582,20.685,0.376,-0.180,-0.143,-2.300,169.205,-49.821
16:22:37:583,20.686,0.529,0.000,-0.124,-2.849,170.136,-44.811
16:22:37:773,20.876,0.494,0.043,-0.069,-2.899,170.895,-41.436
16:22:37:774,20.877,0.387,0.170,-0.025,-3.027,172.092,-36.174
16:22:37:774,20.877,0.401,0.260,-0.069,-3.076,173.133,-32.645
16:22:37:775,20.878,0.376,0.248,-0.095,-3.249,174.876,-27.659
16:22:37:878,20.981,0.198,0.175,-0.071,-3.676,175.563,-24.449
16:22:37:878,20.981,-0.012,0.252,-0.170,-4.752,175.524,-19.546
16:22:37:879,20.982,-0.168,0.247,-0.266,-5.610,175.395,-14.532
16:22:37:879,20.982,-0.110,0.217,-0.216,-5.906,175.445,-11.290
16:22:38:271,21.374,-0.415,0.167,-0.198,-6.222,174.731,-6.391
16:22:38:272,21.375,-0.531,0.074,-0.227,-6.297,174.370,-3.201
16:22:38:272,21.375,-0.593,-0.013,-0.249,-6.482,175.213,0.943
16:22:38:273,21.376,-0.544,-0.133,-0.231,-6.967,177.740,4.160
16:22:38:317,21.420,-0.500,-0.164,-0.203,-7.491,179.871,5.672
16:22:38:318,21.421,-0.534,-0.182,-0.218,-8.457,-177.062,7.137
16:22:38:35,21.453,-0.625,-0.086,-0.221,-9.131,-175.366,7.650
16:22:38:35,21.453,-0.666,-0.030,-0.178,-10.084,-172.512,7.697
16:22:38:351,21.454,-0.651,0.017,-0.138,-10.786,-169.520,6.962
16:22:38:376,21.479,-0.408,0.101,-0.107,-11.088,-164.480,4.113
16:22:38:376,21.479,-0.383,0.259,-0.117,-10.958,-162.983,2.586
16:22:38:377,21.480,-0.427,0.331,-0.105,-10.467,-161.202,0.141
16:22:38:403,21.506,-0.342,0.156,0.047,-8.422,-158.678,-3.959
16:22:38:404,21.507,-0.169,0.085,0.105,-6.583,-157.223,-6.694
16:22:38:404,21.507,-0.087,0.135,0.110,-5.229,-156.297,-8.689
16:22:38:404,21.507,0.008,0.222,0.132,-2.962,-154.775,-11.915
16:22:38:421,21.524,0.167,0.359,0.158,-0.318,-153.167,-15.383
16:22:38:612,21.715,0.326,0.388,0.185,1.598,-152.304,-17.767
16:22:38:613,21.716,0.432,0.207,0.164,4.344,-151.742,-21.682
16:22:38:614,21.717,0.514,0.097,0.067,5.866,-151.830,-24.647
16:22:38:615,21.718,0.535,-0.001,0.000,7.410,-152.723,-29.717
16:22:38:638,21.741,0.542,-0.071,0.027,7.645,-154.707,-35.511
16:22:38:639,21.742,0.543,-0.106,0.030,6.983,-156.293,-39.596
16:22:38:64,21.743,0.544,-0.173,0.017,5.074,-158.302,-45.705
16:22:38:64,21.743,0.514,-0.230,-0.001,3.491,-159.130,-49.574
16:22:38:719,21.822,0.492,-0.303,-0.017,1.516,-159.489,-54.944
16:22:38:719,21.822,0.486,-0.381,-0.062,1.032,-159.133,-58.105
16:22:38:72,21.823,0.473,-0.434,-0.080,2.245,-158.032,-62.093
16:22:38:721,21.824,0.469,-0.444,-0.101,5.670,-156.716,-64.871
16:22:38:848,21.951,0.484,-0.477,-0.109,8.759,-155.841,-65.902
16:22:38:849,21.952,0.479,-0.486,-0.135,12.780,-154.663,-66.255
16:22:38:85,21.953,0.533,-0.429,-0.183,14.012,-154.016,-65.714
16:22:38:851,21.954,0.594,-0.358,-0.214,13.786,-153.157,-63.707
16:22:38:875,21.978,0.720,-0.170,-0.231,12.036,-152.499,-60.243
16:22:38:876,21.979,0.734,-0.099,-0.245,10.628,-152.137,-57.184
16:22:38:876,21.979,0.619,-0.132,-0.204,8.450,-151.789,-51.846
16:22:38:877,21.980,0.358,-0.203,-0.169,6.901,-151.758,-48.096
16:22:38:897,22.000,0.362,-0.017,-0.242,4.653,-151.858,-42.466
16:22:38:898,22.001,0.346,0.141,-0.246,3.074,-151.591,-36.933
16:22:38:899,22.002,0.389,0.143,-0.192,2.473,-151.128,-33.571
16:22:38:999,22.102,0.381,0.190,-0.112,1.496,-150.438,-28.952
16:22:39:085,22.188,0.299,0.201,-0.116,0.622,-150.143,-26.157
16:22:39:085,22.188,0.131,0.202,-0.094,-0.891,-149.910,-22.356
16:22:39:086,22.189,-0.057,0.200,-0.059,-2.483,-149.886,-18.703
16:22:39:087,22.190,-0.170,0.180,-0.034,-3.446,-149.797,-16.188
16:22:39:233,22.336,-0.213,0.150,-0.050,-4.629,-149.326,-12.386
16:22:39:322,22.425,-0.320,0.128,0.007,-5.356,-149.107,-9.799
16:22:39:322,22.425,-0.389,0.081,0.001,-6.273,-149.021,-6.061
16:22:39:322,22.426,-0.393,0.036,-0.017,-7.065,-148.744,-2.721
16:22:39:323,22.427,-0.400,-0.019,-0.012,-7.498,-148.748,-0.868
16:22:39:373,22.476,-0.478,-0.095,0.030,-8.060,-149.245,1.411
16:22:39:374,22.477,-0.509,-0.104,0.034,-8.393,-149.663,2.510
16:22:39:375,22.478,-0.565,-0.077,0.060,-8.892,-149.858,3.530
16:22:39:479,22.582,-0.519,-0.011,0.055,-9.479,-148.694,3.755
16:22:39:479,22.582,-0.498,-0.045,0.092,-9.467,-147.926,3.274
16:22:39:48,22.583,-0.459,0.079,0.105,-9.358,-147.392,2.735
16:22:39:481,22.584,-0.469,0.176,0.119,-9.019,-147.408,1.607
16:22:39:61,22.713,-0.441,0.344,0.143,-8.343,-146.226,0.110
16:22:39:61,22.713,-0.365,0.323,0.167,-7.615,-146.079,-1.113
16:22:39:611,22.714,-0.232,0.168,0.172,-6.224,-144.632,-3.489
16:22:39:715,22.818,-0.034,0.161,0.088,-3.682,-143.041,-9.375
16:22:39:715,22.818,0.101,0.287,0.079,-2.547,-142.593,-12.213
16:22:39:716,22.819,0.206,0.348,0.055,-0.650,-141.228,-16.752
16:22:39:717,22.820,0.393,0.371,-0.008,1.383,-140.801,-21.478
16:22:39:768,22.871,0.468,0.298,-0.050,2.617,-140.876,-24.817
16:22:39:772,22.875,0.496,0.157,-0.094,3.807,-142.124,-30.094
16:22:39:772,22.875,0.505,0.056,-0.143,4.092,-143.180,-33.801
16:22:39:772,22.875,0.549,-0.038,-0.158,3.654,-145.032,-39.528
16:22:39:82,22.923,0.532,-0.109,-0.144,2.486,-146.651,-45.176
16:22:39:821,22.924,0.564,-0.181,-0.135,1.732,-147.257,-48.753
16:22:39:822,22.925,0.537,-0.306,-0.141,1.053,-147.685,-53.801
16:22:39:822,22.925,0.524,-0.381,-0.154,1.162,-147.475,-56.916
16:22:39:871,22.974,0.479,-0.473,-0.175,2.540,-146.890,-61.077
16:22:39:872,22.975,0.512,-0.548,-0.184,5.394,-145.974,-64.463
16:22:39:873,22.976,0.556,-0.554,-0.187,7.407,-145.464,-66.154
16:22:39:977,23.080,0.558,-0.482,-0.206,8.471,-144.977,-68.170
16:22:39:977,23.080,0.570,-0.460,-0.227,6.335,-145.050,-67.629
16:22:39:978,23.081,0.586,-0.373,-0.267,3.498,-145.317,-65.729
16:22:39:979,23.082,0.589,-0.287,-0.315,2.139,-145.481,-63.703
16:22:40:187,23.290,0.583,-0.222,-0.327,1.187,-145.777,-59.661
16:22:40:188,23.291,0.695,-0.154,-0.277,0.575,-146.212,-56.347
16:22:40:189,23.292,0.597,-0.076,-0.185,-0.885,-147.306,-50.378
16:22:40:189,23.292,0.306,0.035,-0.231,-2.139,-148.404,-43.603
16:22:40:264,23.367,0.223,0.254,-0.317,-2.502,-148.719,-38.870
16:22:40:264,23.367,0.251,0.308,-0.253,-1.804,-148.184,-32.190
16:22:40:265,23.368,0.370,0.233,-0.105,-1.287,-147.374,-28.107
16:22:40:425,23.528,0.276,0.299,-0.053,-1.254,-146.377,-22.513
16:22:40:425,23.528,0.066,0.226,-0.033,-1.683,-145.219,-17.836
16:22:40:425,23.528,-0.028,0.148,-0.014,-2.152,-144.049,-15.152
16:22:40:426,23.529,-0.125,0.126,0.047,-3.140,-142.709,-11.647
16:22:40:451,23.554,-0.191,0.133,0.065,-3.922,-141.995,-9.500
16:22:40:451,23.554,-0.263,0.092,0.090,-5.071,-141.618,-6.522
16:22:40:451,23.554,-0.306,0.058,0.090,-6.166,-142.147,-3.801
16:22:40:452,23.555,-0.343,-0.005,0.104,-6.806,-142.735,-2.125
16:22:40:502,23.605,-0.410,-0.089,0.110,-7.617,-144.375,0.076
16:22:40:503,23.606,-0.452,-0.138,0.102,-8.074,-145.241,1.264
16:22:40:503,23.606,-0.494,-0.156,0.075,-8.688,-146.571,2.590
16:22:40:504,23.607,-0.614,-0.096,0.050,-9.090,-147.143,3.145
16:22:40:581,23.684,-0.625,-0.020,0.028,-9.598,-147.747,3.422
16:22:40:581,23.684,-0.584,0.117,0.048,-9.873,-147.128,3.159
16:22:40:582,23.685,-0.505,0.128,0.074,-9.859,-146.591,2.769
16:22:40:583,23.686,-0.381,0.114,0.093,-9.544,-145.973,1.902
16:22:40:66,23.763,-0.359,0.144,0.091,-9.232,-145.860,1.148
16:22:40:66,23.763,-0.352,0.259,0.098,-8.754,-145.755,-0.312
16:22:40:661,23.764,-0.360,0.372,0.142,-8.205,-145.679,-2.034
16:22:40:705,23.808,-0.118,0.073,0.120,-6.673,-143.318,-5.882
16:22:40:756,23.859,0.033,-0.017,0.057,-5.913,-141.805,-8.041
16:22:40:788,23.891,0.047,0.001,0.047,-4.704,-139.889,-11.708
16:22:40:788,23.891,0.122,0.045,0.012,-3.287,-137.863,-15.805
16:22:40:789,23.892,0.218,0.160,0.021,-2.153,-136.749,-18.595
16:22:40:808,23.911,0.358,0.262,-0.011,-0.180,-135.389,-22.633
16:22:40:915,24.018,0.441,0.227,-0.041,1.302,-134.878,-25.198
16:22:40:948,24.051,0.473,0.112,-0.098,3.588,-134.496,-28.931
16:22:40:948,24.051,0.535,-0.037,-0.155,5.456,-135.069,-32.720
16:22:40:949,24.052,0.561,-0.108,-0.161,6.212,-136.002,-35.435
16:22:41:099,24.202,0.516,-0.176,-0.124,6.180,-138.869,-42.547
16:22:41:184,24.287,0.540,-0.296,-0.188,5.672,-139.857,-46.837
16:22:41:185,24.288,0.505,-0.349,-0.157,4.598,-140.659,-51.049
16:22:41:186,24.289,0.471,-0.383,-0.152,3.785,-140.894,-53.646
16:22:41:287,24.390,0.501,-0.363,-0.236,3.044,-140.246,-58.782
16:22:41:288,24.391,0.523,-0.371,-0.246,4.062,-139.859,-60.531
16:22:41:317,24.420,0.502,-0.359,-0.258,5.287,-139.109,-59.441
16:22:41:318,24.421,0.505,-0.261,-0.348,5.169,-138.815,-57.679
16:22:41:318,24.421,0.532,-0.177,-0.387,4.658,-139.054,-55.742
16:22:41:319,24.422,0.606,-0.041,-0.411,3.611,-139.238,-51.883
16:22:41:395,24.498,0.506,-0.064,-0.271,2.641,-139.759,-48.665
16:22:41:395,24.498,0.351,-0.090,-0.199,1.189,-140.547,-43.177
16:22:41:396,24.499,0.207,0.078,-0.249,-0.049,-141.177,-37.236
16:22:41:397,24.500,0.160,0.228,-0.248,-0.356,-141.211,-33.247
16:22:41:414,24.517,0.207,0.181,-0.127,0.019,-140.507,-27.652
16:22:41:415,24.518,0.240,0.158,-0.045,0.334,-139.697,-24.167
16:22:41:525,24.628,0.185,0.119,-0.013,0.480,-138.570,-19.524
16:22:41:526,24.629,0.073,0.084,-0.012,0.184,-137.555,-15.666
16:22:41:527,24.630,0.019,0.109,0.015,-0.234,-137.207,-13.434
16:22:41:528,24.631,-0.066,0.117,0.071,-1.077,-137.363,-10.542
16:22:41:543,24.646,-0.226,0.100,0.177,-1.663,-137.913,-8.741
16:22:41:596,24.699,-0.314,0.064,0.198,-2.403,-138.802,-6.078
16:22:41:623,24.726,-0.320,-0.016,0.195,-2.915,-139.385,-3.566
16:22:41:708,24.812,-0.317,-0.079,0.179,-3.190,-139.448,-2.087
16:22:41:709,24.813,-0.364,-0.112,0.196,-3.558,-139.548,-0.240
16:22:41:71,24.813,-0.340,-0.110,0.159,-3.814,-139.205,0.675
16:22:41:758,24.861,-0.311,-0.094,0.143,-4.173,-138.930,1.489
16:22:41:76,24.863,-0.354,0.068,0.198,-4.530,-139.051,1.743
16:22:41:868,24.971,-0.344,0.033,0.227,-4.429,-139.078,1.462
16:22:41:869,24.972,-0.267,0.076,0.220,-4.233,-139.051,1.117
16:22:41:869,24.972,-0.211,0.111,0.210,-3.886,-138.885,0.334
16:22:41:87,24.973,-0.180,0.223,0.239,-3.532,-138.749,-0.751
16:22:42:026,25.129,-0.184,0.327,0.274,-3.325,-138.673,-1.542
16:22:42:027,25.130,-0.191,0.334,0.327,-2.889,-138.021,-2.746
16:22:42:027,25.130,-0.163,0.190,0.333,-2.461,-137.044,-3.606
16:22:42:028,25.131,-0.043,-0.123,0.251,-1.612,-134.392,-5.272
16:22:42:131,25.234,-0.014,-0.144,0.188,-0.727,-130.915,-7.594
16:22:42:132,25.235,0.014,-0.026,0.194,-0.026,-128.424,-9.312
16:22:42:133,25.236,0.127,0.156,0.209,1.425,-124.444,-12.038
16:22:42:134,25.237,0.288,0.339,0.151,2.727,-121.772,-13.857
16:22:42:209,25.312,0.384,0.346,0.082,5.157,-118.053,-16.462
16:22:42:209,25.312,0.454,0.169,-0.035,7.988,-115.223,-19.034
16:22:42:21,25.313,0.466,0.077,-0.084,9.805,-114.070,-21.049
16:22:42:211,25.314,0.435,0.002,-0.142,12.101,-113.469,-24.696
16:22:42:288,25.391,0.519,0.008,-0.220,13.329,-113.637,-27.550
16:22:42:288,25.391,0.526,-0.045,-0.210,14.657,-114.535,-32.313
16:22:42:289,25.392,0.507,-0.162,-0.260,15.449,-115.835,-37.411
16:22:42:29,25.393,0.490,-0.244,-0.262,15.677,-116.821,-40.896
16:22:42:445,25.548,0.454,-0.276,-0.215,15.433,-118.448,-45.971
16:22:42:445,25.548,0.448,-0.299,-0.253,15.229,-119.185,-49.069
16:22:42:446,25.549,0.486,-0.292,-0.318,15.320,-119.903,-53.112
16:22:42:447,25.550,0.528,-0.299,-0.386,15.776,-119.971,-55.277
16:22:42:466,25.569,0.539,-0.333,-0.385,16.855,-120.181,-57.629
16:22:42:467,25.570,0.509,-0.385,-0.393,17.581,-120.704,-58.941
16:22:42:654,25.758,0.515,-0.387,-0.437,17.364,-120.996,-59.277
16:22:42:655,25.759,0.514,-0.317,-0.452,15.283,-122.361,-58.874
16:22:42:656,25.759,0.486,-0.191,-0.476,11.820,-123.587,-57.318
16:22:42:735,25.838,0.188,-0.306,-0.234,6.441,-125.900,-52.530
16:22:42:735,25.838,0.147,-0.311,-0.242,5.006,-126.640,-50.142
16:22:42:735,25.838,0.170,-0.047,-0.382,3.478,-127.190,-46.159
16:22:42:736,25.839,0.142,0.165,-0.357,3.082,-127.139,-43.280
16:22:42:891,25.994,0.172,0.195,-0.292,3.622,-126.159,-38.630
16:22:42:891,25.994,0.256,0.144,-0.253,4.731,-124.105,-33.745
16:22:42:892,25.995,0.151,0.104,-0.084,5.255,-122.410,-30.447
16:22:42:996,26.099,0.005,0.094,0.021,6.186,-115.788,-21.895
16:22:42:996,26.099,0.084,0.106,-0.032,6.558,-109.810,-16.897
16:22:42:997,26.100,0.045,0.118,0.093,6.159,-104.547,-12.279
16:22:42:998,26.101,-0.004,0.139,0.171,5.539,-101.809,-9.440
16:22:43:103,26.206,-0.067,0.063,0.230,4.325,-98.401,-5.706
16:22:43:103,26.206,-0.092,0.015,0.278,3.418,-96.691,-3.617
16:22:43:103,26.206,-0.117,-0.029,0.317,1.988,-94.030,-1.019
16:22:43:104,26.207,-0.119,-0.116,0.330,0.620,-92.125,0.913
16:22:43:337,26.440,-0.135,-0.137,0.347,-0.222,-90.772,1.830
16:22:43:338,26.441,-0.153,-0.059,0.404,-1.342,-89.530,2.787
16:22:43:339,26.442,-0.157,0.005,0.444,-1.924,-88.437,3.244
16:22:43:34,26.443,-0.121,0.042,0.465,-2.429,-87.118,3.743
16:22:43:468,26.571,-0.084,0.039,0.448,-2.425,-85.988,4.049
16:22:43:469,26.572,-0.023,0.039,0.432,-2.155,-85.314,4.124
16:22:43:47,26.573,0.047,0.195,0.445,-1.450,-84.699,3.959
16:22:43:471,26.574,0.110,0.336,0.472,-0.862,-84.245,3.737
16:22:43:495,26.598,0.189,0.322,0.467,0.370,-83.648,3.191
16:22:43:496,26.599,0.291,0.092,0.359,1.945,-83.085,2.167
16:22:43:496,26.599,0.308,-0.005,0.283,3.012,-82.875,0.876
16:22:43:497,26.600,0.280,-0.037,0.167,4.370,-82.549,-1.854
16:22:43:516,26.619,0.300,0.001,0.127,5.120,-82.308,-4.255
16:22:43:517,26.620,0.365,0.101,0.054,6.110,-81.790,-8.223
16:22:43:6,26.703,0.412,0.178,0.028,6.762,-81.355,-11.068
16:22:43:601,26.704,0.448,0.232,-0.088,7.818,-80.646,-15.461
16:22:43:602,26.705,0.451,0.172,-0.227,8.908,-80.053,-19.988
16:22:43:603,26.706,0.398,0.127,-0.312,9.501,-79.779,-23.063
16:22:43:652,26.755,0.327,0.067,-0.488,10.113,-79.480,-27.959
16:22:43:653,26.756,0.306,-0.046,-0.462,10.217,-79.624,-31.462
16:22:43:653,26.756,0.282,-0.068,-0.458,9.827,-80.024,-36.816
16:22:43:654,26.757,0.200,-0.172,-0.481,9.528,-79.750,-42.007
16:22:43:671,26.774,0.192,-0.260,-0.487,9.601,-79.261,-45.275
16:22:43:706,26.809,0.161,-0.315,-0.473,10.391,-78.106,-49.653
16:22:43:706,26.809,0.125,-0.378,-0.444,11.583,-77.081,-52.193
16:22:43:706,26.809,0.098,-0.402,-0.453,14.281,-75.434,-55.280
16:22:43:707,26.810,0.102,-0.423,-0.518,17.281,-74.000,-57.250
16:22:43:727,26.830,0.097,-0.424,-0.555,18.569,-73.411,-57.953
16:22:43:728,26.831,0.092,-0.384,-0.591,18.580,-73.180,-57.978
16:22:43:729,26.832,0.083,-0.346,-0.587,17.446,-73.385,-57.306
16:22:43:748,26.851,0.046,-0.262,-0.567,14.904,-73.966,-55.257
16:22:43:802,26.905,0.032,-0.132,-0.532,12.536,-74.535,-51.979
16:22:43:829,26.932,0.038,-0.048,-0.533,11.620,-74.713,-49.121
16:22:43:83,26.933,0.053,0.002,-0.492,11.030,-74.598,-43.921
16:22:43:853,26.956,0.070,-0.099,-0.287,10.891,-74.360,-40.156
16:22:43:91,27.013,0.022,0.124,-0.268,10.451,-73.719,-34.127
16:22:43:911,27.014,0.032,0.248,-0.173,10.303,-72.359,-28.113
16:22:43:961,27.064,0.061,0.191,-0.158,10.396,-70.908,-24.359
16:22:43:961,27.064,0.139,0.148,-0.193,10.275,-68.496,-19.322
16:22:44:073,27.176,0.130,0.135,-0.153,9.887,-66.987,-16.463
16:22:44:073,27.176,0.094,0.097,-0.055,8.945,-65.221,-12.965
16:22:44:073,27.176,0.094,0.089,0.068,7.791,-64.365,-10.198
16:22:44:074,27.177,0.115,0.105,0.122,7.009,-64.464,-8.572
16:22:44:089,27.192,0.156,0.134,0.228,5.975,-65.421,-6.232
16:22:44:173,27.276,0.176,0.092,0.366,5.417,-66.412,-4.701
16:22:44:174,27.277,0.145,0.031,0.400,4.815,-67.708,-2.525
16:22:44:175,27.278,0.111,-0.098,0.380,4.299,-68.112,-0.619
16:22:44:194,27.297,0.134,-0.167,0.403,3.970,-67.274,0.443
16:22:44:334,27.437,0.152,-0.184,0.404,3.388,-66.081,1.799
16:22:44:335,27.438,0.178,-0.178,0.397,2.991,-64.222,2.498
16:22:44:336,27.439,0.182,-0.132,0.374,2.470,-62.198,2.475
16:22:44:337,27.440,0.231,-0.029,0.337,2.065,-59.237,2.995
16:22:44:536,27.639,0.246,0.001,0.294,1.939,-57.757,3.189
16:22:44:597,27.700,0.265,0.034,0.206,1.972,-55.457,3.192
16:22:44:598,27.701,0.268,0.024,0.193,2.112,-54.874,2.968
16:22:44:599,27.702,0.296,0.024,0.194,2.355,-54.410,2.286
16:22:44:599,27.702,0.367,0.228,0.245,2.530,-54.325,1.384
16:22:44:703,27.807,0.441,0.384,0.254,2.702,-54.228,0.770
16:22:44:704,27.807,0.440,0.275,0.210,3.227,-52.940,-0.199
16:22:44:704,27.807,0.365,-0.056,0.039,3.722,-51.528,-1.039
16:22:44:704,27.808,0.327,-0.102,-0.032,4.411,-48.805,-2.891
16:22:44:747,27.850,0.321,0.059,-0.125,5.028,-45.605,-5.455
16:22:44:802,27.905,0.263,0.106,-0.185,5.532,-43.138,-7.448
16:22:44:803,27.906,0.336,0.179,-0.204,6.483,-39.795,-10.929
16:22:44:833,27.936,0.323,0.234,-0.257,7.292,-37.672,-13.477
16:22:44:834,27.937,0.380,0.302,-0.379,8.839,-34.429,-17.526
16:22:44:835,27.938,0.256,0.237,-0.442,10.788,-30.994,-22.039
16:22:44:836,27.939,0.164,0.158,-0.486,12.291,-28.466,-25.161
16:22:44:858,27.961,0.249,0.226,-0.501,14.932,-24.730,-30.329
16:22:44:859,27.962,0.212,0.202,-0.542,17.408,-21.786,-33.745
16:22:44:86,27.963,0.198,0.143,-0.586,22.421,-16.935,-38.785
16:22:44:88,27.983,-0.008,0.092,-0.584,28.486,-11.973,-43.532
16:22:44:881,27.984,0.006,0.038,-0.503,32.945,-9.004,-46.626
16:22:44:939,28.042,0.048,-0.046,-0.514,40.214,-5.240,-51.436
16:22:44:94,28.043,0.019,-0.134,-0.464,45.392,-2.837,-54.469
16:22:44:94,28.043,-0.067,-0.174,-0.377,53.109,1.096,-58.255
16:22:44:94,28.043,-0.035,-0.095,-0.391,57.907,3.431,-60.612
16:22:45:045,28.148,-0.087,-0.174,-0.348,64.461,6.702,-63.910
16:22:45:045,28.148,-0.032,-0.197,-0.222,69.889,9.627,-66.819
16:22:45:046,28.149,-0.073,-0.159,-0.214,72.947,11.489,-68.588
16:22:45:046,28.149,-0.076,-0.146,-0.301,76.845,14.099,-71.047
16:22:45:149,28.252,-0.086,-0.171,-0.170,78.836,16.113,-72.127
16:22:45:149,28.253,-0.165,-0.131,-0.150,81.074,19.518,-72.883
16:22:45:15,28.253,-0.092,-0.130,-0.108,82.676,22.926,-73.088
16:22:45:151,28.254,-0.099,-0.081,-0.173,83.399,25.081,-72.924
16:22:45:246,28.349,-0.099,-0.110,-0.076,84.301,28.054,-72.722
16:22:45:298,28.401,-0.020,-0.165,-0.028,84.862,29.582,-72.956
16:22:45:379,28.482,-0.054,-0.197,-0.077,85.528,32.183,-73.078
16:22:45:38,28.483,-0.127,-0.134,-0.132,85.954,36.460,-71.648
16:22:45:413,28.516,-0.085,-0.105,-0.006,86.236,39.643,-70.206
16:22:45:413,28.516,-0.021,-0.143,0.040,86.838,42.574,-69.266
16:22:45:413,28.516,-0.003,-0.106,0.007,87.318,42.460,-70.464
16:22:45:414,28.517,0.006,-0.106,0.013,88.054,40.246,-74.056
16:22:45:434,28.537,0.063,-0.125,-0.012,88.870,35.339,-80.141
16:22:45:434,28.537,0.074,-0.130,-0.028,89.395,31.473,-84.675
16:22:45:435,28.538,0.045,-0.089,-0.095,90.140,25.874,-91.251
16:22:45:509,28.612,0.070,-0.079,-0.066,90.626,21.976,-95.811
16:22:45:533,28.636,0.098,-0.090,-0.012,91.398,14.158,-103.857
16:22:45:567,28.670,0.117,-0.076,-0.009,92.214,8.202,-110.551
16:22:45:567,28.670,0.114,-0.059,-0.037,92.749,5.312,-113.208
16:22:45:567,28.670,0.085,-0.065,-0.067,93.492,3.601,-115.737
16:22:45:585,28.688,0.078,-0.047,-0.079,93.968,2.092,-117.128
16:22:45:612,28.715,0.134,-0.045,-0.014,94.620,0.173,-119.975
16:22:45:638,28.741,0.143,-0.051,-0.049,95.184,-1.417,-122.197
16:22:45:664,28.767,0.067,-0.033,-0.074,95.515,-1.870,-123.389
16:22:45:805,28.908,0.102,-0.031,-0.036,95.993,-3.286,-125.567
16:22:45:805,28.908,0.122,-0.021,-0.024,96.341,-3.844,-126.900
16:22:45:806,28.909,0.099,-0.036,-0.041,96.898,-4.449,-128.589
16:22:45:807,28.910,0.130,-0.035,-0.038,97.688,-6.555,-131.575
16:22:45:823,28.926,0.134,-0.042,-0.040,98.258,-6.473,-132.587
16:22:45:852,28.956,0.077,0.030,-0.084,98.768,-5.771,-133.017
16:22:45:852,28.956,0.129,0.049,-0.062,99.090,-5.567,-133.791
16:22:45:874,28.977,0.153,0.050,-0.068,99.596,-5.420,-135.212
16:22:45:929,29.032,0.139,0.053,-0.101,99.873,-4.768,-135.737
16:22:45:93,29.033,0.100,0.070,-0.124,100.156,-2.888,-135.596
16:22:46:012,29.115,0.068,0.013,-0.113,100.384,-0.161,-134.535
16:22:46:012,29.115,0.071,-0.010,-0.100,100.544,1.650,-133.706
16:22:46:013,29.116,0.025,-0.039,-0.151,100.759,4.275,-132.721
16:22:46:033,29.136,0.010,-0.060,-0.132,100.868,5.440,-132.731
16:22:46:087,29.190,0.072,-0.101,-0.092,100.973,6.425,-133.416
16:22:46:088,29.191,0.048,-0.103,-0.152,101.162,8.517,-132.962
16:22:46:11,29.213,0.038,-0.093,-0.175,101.296,10.154,-132.318
16:22:46:166,29.269,0.059,-0.101,-0.173,101.531,12.392,-131.364
16:22:46:166,29.269,0.066,-0.077,-0.213,101.699,13.879,-130.591
16:22:46:218,29.321,0.081,-0.053,-0.197,101.885,15.751,-129.740
16:22:46:219,29.322,0.125,-0.059,-0.160,101.974,17.234,-129.224
16:22:46:241,29.344,0.118,-0.058,-0.153,102.019,18.512,-128.564
16:22:46:268,29.371,0.028,0.002,-0.176,102.038,20.853,-127.223
16:22:46:294,29.397,0.100,-0.027,-0.123,102.019,22.113,-126.701
16:22:46:322,29.425,0.137,-0.041,-0.127,101.982,23.498,-126.407
16:22:46:377,29.480,0.087,-0.024,-0.176,101.970,25.629,-125.400
16:22:46:377,29.480,0.074,-0.007,-0.171,101.951,27.174,-124.608
16:22:46:429,29.532,0.113,-0.060,-0.148,101.925,29.101,-123.823
16:22:46:43,29.533,0.107,-0.066,-0.157,101.924,30.240,-123.397
16:22:46:481,29.584,0.096,-0.021,-0.154,101.922,31.872,-122.824
16:22:46:482,29.585,0.135,-0.028,-0.110,101.911,33.139,-122.659
16:22:46:585,29.688,0.151,-0.054,-0.129,101.953,33.800,-122.612
16:22:46:646,29.749,0.145,-0.008,-0.170,102.053,34.969,-122.290
16:22:46:646,29.749,0.136,0.005,-0.149,102.041,35.704,-122.073
16:22:46:647,29.750,0.142,0.007,-0.126,101.946,36.498,-122.047
16:22:46:647,29.750,0.154,0.025,-0.157,101.830,37.024,-122.144
16:22:46:665,29.768,0.129,0.067,-0.149,102.042,36.589,-123.122
16:22:46:666,29.769,0.087,0.093,-0.106,101.770,36.979,-123.283
16:22:46:747,29.850,0.004,0.119,-0.078,101.631,37.202,-123.447
16:22:46:747,29.850,0.113,0.061,-0.045,101.540,36.828,-124.194
16:22:46:854,29.957,0.146,0.022,-0.097,101.502,36.771,-124.505
16:22:46:854,29.957,0.029,0.070,-0.131,101.475,37.950,-123.720
16:22:46:854,29.957,-0.034,0.068,-0.085,101.288,39.458,-122.673
16:22:46:986,30.089,-0.034,-0.004,-0.022,101.112,39.957,-122.524
16:22:46:988,30.091,0.025,-0.064,0.007,100.925,39.923,-123.267
16:22:46:988,30.091,-0.018,-0.058,0.016,100.848,39.801,-123.769
16:22:46:988,30.091,-0.027,-0.050,0.012,100.900,40.196,-123.793
16:22:47:013,30.116,0.001,-0.039,-0.042,101.141,40.335,-123.878
16:22:47:013,30.116,0.020,-0.033,-0.059,101.320,40.228,-124.122
16:22:47:014,30.117,0.126,-0.072,-0.056,101.539,39.737,-124.853
16:22:47:015,30.118,0.086,-0.069,-0.078,101.687,39.616,-125.135
16:22:47:083,30.186,0.068,-0.065,-0.053,101.885,39.878,-125.248
16:22:47:144,30.247,0.082,-0.075,-0.047,102.217,39.040,-126.232
16:22:47:144,30.247,0.068,-0.082,-0.051,102.688,37.876,-127.613
16:22:47:145,30.248,0.108,-0.087,-0.023,103.274,36.440,-129.195
16:22:47:146,30.249,0.098,-0.043,-0.034,103.538,36.040,-129.592
16:22:47:221,30.324,0.077,-0.043,-0.055,103.973,35.494,-130.036
16:22:47:222,30.325,0.129,-0.052,-0.055,104.450,34.976,-130.665
16:22:47:223,30.326,0.139,-0.053,-0.064,104.741,34.670,-131.148
16:22:47:239,30.342,0.128,-0.014,-0.069,105.353,34.560,-132.095
16:22:47:347,30.450,0.090,0.016,-0.076,105.730,34.768,-132.312
16:22:47:379,30.482,0.124,0.030,-0.122,106.084,34.939,-132.943
16:22:47:38,30.483,0.182,0.024,-0.122,106.274,34.629,-133.685
16:22:47:381,30.484,0.098,0.049,-0.109,106.558,34.914,-134.490
16:22:47:381,30.484,0.057,0.071,-0.109,106.768,35.295,-134.977
16:22:47:456,30.559,0.104,0.002,-0.127,107.119,35.740,-136.118
16:22:47:457,30.560,0.020,0.032,-0.166,107.430,37.078,-136.320
16:22:47:458,30.561,-0.040,0.068,-0.156,107.532,38.366,-135.912
16:22:47:479,30.582,-0.057,0.048,-0.135,107.584,39.905,-135.626
16:22:47:502,30.605,0.035,-0.083,-0.171,107.579,40.749,-135.795
16:22:47:528,30.631,0.014,-0.097,-0.163,107.452,42.242,-135.899
16:22:47:555,30.658,-0.048,-0.025,-0.125,107.268,44.123,-135.676
16:22:47:611,30.714,-0.048,-0.036,-0.105,107.239,45.162,-135.404
16:22:47:611,30.714,-0.035,-0.076,-0.103,107.337,46.754,-134.942
16:22:47:661,30.764,-0.056,-0.070,-0.098,107.411,47.504,-134.659
16:22:47:689,30.792,-0.043,-0.049,-0.054,107.647,48.345,-134.721
16:22:47:69,30.793,0.048,-0.085,-0.105,107.655,48.614,-134.790
16:22:47:712,30.816,0.065,-0.077,-0.103,107.599,49.831,-134.489
16:22:47:738,30.841,0.068,-0.095,-0.100,107.467,51.642,-133.620
16:22:47:793,30.896,0.063,-0.082,-0.117,107.360,53.107,-132.790
16:22:47:794,30.897,0.041,-0.097,-0.118,107.800,53.549,-133.201
16:22:47:817,30.920,0.047,-0.064,-0.114,108.057,53.753,-133.576
16:22:47:958,31.061,0.047,-0.050,-0.116,108.133,53.947,-133.911
16:22:47:958,31.061,0.079,-0.059,-0.118,107.710,54.970,-133.343
16:22:47:959,31.062,0.055,-0.041,-0.090,107.776,54.763,-133.937
16:22:47:959,31.063,0.074,0.022,-0.078,107.321,55.809,-133.185
16:22:48:036,31.139,0.059,0.019,-0.077,107.022,56.385,-132.756
16:22:48:036,31.139,0.071,0.029,-0.061,106.603,57.158,-132.111
16:22:48:036,31.139,0.063,0.072,-0.052,106.159,57.782,-131.518
16:22:48:037,31.140,0.079,0.078,-0.047,105.831,58.111,-131.210
16:22:48:053,31.156,0.059,0.092,-0.058,105.313,58.701,-130.677
16:22:48:079,31.182,0.062,0.112,-0.028,104.935,58.991,-130.265
16:22:48:158,31.261,0.090,0.079,0.001,104.312,59.582,-129.593
16:22:48:219,31.322,-0.002,0.076,0.046,103.811,60.502,-128.564
16:22:48:219,31.322,-0.038,0.070,0.045,103.581,60.868,-128.006
16:22:48:22,31.323,-0.007,-0.022,0.085,103.313,60.746,-127.739
16:22:48:221,31.324,-0.018,-0.054,0.088,103.231,60.560,-127.764
16:22:48:351,31.454,-0.011,-0.042,0.104,103.113,60.480,-127.405
16:22:48:352,31.455,0.017,-0.025,0.152,103.069,60.565,-126.587
16:22:48:562,31.665,0.077,-0.066,-0.026,103.336,60.128,-125.217
16:22:48:563,31.666,0.091,-0.072,-0.038,103.282,59.986,-124.719
16:22:48:563,31.666,0.033,-0.069,-0.031,103.204,60.006,-124.221
16:22:48:564,31.667,0.076,-0.081,-0.007,103.150,59.778,-124.098
16:22:48:614,31.717,0.064,-0.099,0.024,103.165,59.331,-123.980
16:22:48:614,31.717,0.042,-0.110,0.034,103.284,58.898,-124.024
16:22:48:615,31.718,0.125,-0.118,-0.005,103.490,58.037,-124.225
16:22:48:616,31.719,0.115,-0.115,0.010,103.741,57.838,-123.910
16:22:48:667,31.770,0.115,-0.139,0.006,103.911,57.981,-123.401
16:22:48:668,31.771,0.122,-0.181,0.031,104.079,58.307,-122.514
16:22:48:669,31.772,0.208,-0.255,0.055,104.147,58.795,-121.529
16:22:48:669,31.772,0.276,-0.320,0.060,104.098,59.890,-119.451
16:22:48:715,31.818,0.308,-0.431,0.088,103.930,61.133,-117.247
16:22:48:716,31.819,0.052,-0.411,0.142,103.416,63.834,-112.695
16:22:48:716,31.819,-0.069,-0.513,0.155,102.651,66.082,-108.023
16:22:48:765,31.868,0.012,-0.614,0.114,101.612,67.184,-104.641
16:22:48:765,31.869,-0.047,-0.424,0.058,99.101,68.526,-99.235
16:22:48:788,31.891,0.051,-0.449,0.076,96.355,69.157,-95.549
16:22:48:815,31.918,-0.311,-0.116,0.156,89.731,69.472,-89.820
16:22:48:894,31.997,-0.417,-0.257,0.231,78.423,68.283,-84.264
16:22:48:925,32.028,-0.487,-0.269,0.208,64.984,66.717,-79.662
16:22:48:926,32.029,-0.582,0.043,0.095,37.042,63.031,-72.328
16:22:48:927,32.030,-0.410,0.352,0.111,18.976,59.726,-67.080
16:22:48:945,32.048,-0.304,0.338,0.080,3.184,54.045,-58.656
16:22:49:03,32.133,-0.389,0.362,0.021,-3.834,48.207,-50.004
16:22:49:03,32.133,-0.368,0.592,-0.121,-6.813,43.839,-43.883
16:22:49:031,32.134,-0.152,0.785,-0.126,-9.542,36.638,-34.256
16:22:49:083,32.186,0.148,0.852,-0.103,-10.020,32.101,-27.649
16:22:49:084,32.187,0.520,0.764,-0.197,-8.927,26.887,-18.282
16:22:49:084,32.187,0.422,0.363,-0.429,-6.299,25.643,-10.610
16:22:49:161,32.264,0.292,0.177,-0.483,-4.666,26.838,-6.504
16:22:49:162,32.265,0.293,-0.013,-0.442,-3.273,29.785,-1.948
16:22:49:162,32.265,0.336,-0.021,-0.384,-3.012,31.866,0.190
16:22:49:323,32.426,0.320,0.000,-0.374,-3.260,34.959,2.465
16:22:49:323,32.427,0.400,-0.100,-0.409,-3.576,36.517,3.465
16:22:49:324,32.427,0.392,-0.160,-0.391,-4.058,38.038,4.344
16:22:49:345,32.448,0.406,-0.184,-0.402,-4.503,38.969,4.695
16:22:49:346,32.449,0.371,-0.097,-0.396,-4.549,39.495,4.298
16:22:49:346,32.449,0.275,0.026,-0.319,-4.515,40.272,3.451
16:22:49:395,32.498,0.219,0.068,-0.270,-4.393,40.551,2.520
16:22:49:396,32.499,0.129,0.164,-0.192,-4.163,39.939,0.522
16:22:49:447,32.550,0.125,0.156,-0.160,-4.079,38.856,-1.205
16:22:49:448,32.551,0.145,0.176,-0.163,-4.198,36.805,-4.329
16:22:49:528,32.631,0.082,0.247,-0.105,-4.453,35.995,-6.506
16:22:49:529,32.632,-0.021,0.223,-0.029,-4.823,34.849,-9.876
16:22:49:53,32.633,-0.128,0.224,0.071,-5.165,34.375,-13.003
16:22:49:608,32.711,-0.122,0.030,0.063,-5.340,33.757,-14.764
16:22:49:609,32.712,-0.136,-0.184,0.078,-5.556,32.974,-17.148
16:22:49:61,32.713,-0.123,-0.317,0.106,-5.756,32.233,-18.485
16:22:49:657,32.760,-0.159,-0.295,0.177,-6.290,31.849,-20.397
16:22:49:658,32.761,-0.342,-0.213,0.336,-6.967,31.070,-22.230
16:22:49:739,32.842,-0.361,-0.174,0.319,-7.347,30.670,-23.162
16:22:49:74,32.843,-0.344,-0.050,0.197,-7.841,28.866,-23.933
16:22:49:741,32.844,-0.317,-0.013,0.135,-8.113,27.640,-23.912
16:22:49:927,33.030,-0.225,-0.031,0.087,-8.345,24.845,-23.080
16:22:49:928,33.031,-0.092,-0.146,0.032,-8.282,22.625,-21.384
16:22:49:928,33.031,0.035,-0.161,0.067,-8.065,21.244,-19.916
16:22:49:929,33.032,0.005,-0.129,0.031,-7.529,19.903,-17.631
16:22:50:005,33.108,0.012,-0.016,0.117,-6.982,19.219,-15.834
16:22:50:005,33.108,0.267,0.016,-0.144,-5.934,17.906,-13.145
16:22:50:006,33.109,-0.058,-0.035,-0.045,-4.825,17.755,-10.051
16:22:50:007,33.110,0.171,0.064,-0.142,-4.327,16.465,-7.638
16:22:50:026,33.129,0.346,0.025,-0.165,-3.443,14.783,-4.256
16:22:50:026,33.130,0.305,-0.020,-0.180,-2.830,14.549,-2.074
16:22:50:051,33.154,0.377,-0.023,-0.214,-2.105,14.729,0.810
16:22:50:051,33.154,0.415,0.020,-0.196,-1.723,15.249,3.270
16:22:50:156,33.259,0.436,0.049,-0.183,-1.711,16.307,4.613
16:22:50:157,33.260,0.460,0.040,-0.207,-1.917,17.359,6.149
16:22:50:267,33.370,0.477,0.025,-0.223,-2.148,18.275,6.857
16:22:50:268,33.371,0.499,0.054,-0.220,-2.758,18.697,5.911
16:22:50:269,33.372,0.548,0.127,-0.212,-3.278,18.886,6.147
16:22:50:291,33.394,0.520,0.024,-0.242,-4.000,19.773,5.621
16:22:50:292,33.395,0.392,-0.206,-0.201,-4.227,20.433,5.017
16:22:50:292,33.395,0.339,-0.285,-0.170,-4.623,21.811,3.385
16:22:50:397,33.501,0.358,-0.228,-0.148,-4.953,22.911,1.867
16:22:50:397,33.501,0.356,-0.097,-0.160,-5.467,25.032,-0.844
16:22:50:398,33.502,0.252,0.108,-0.161,-5.630,27.884,-3.834
16:22:50:447,33.550,0.126,0.296,-0.178,-5.405,30.571,-5.854
16:22:50:448,33.551,0.042,0.394,-0.141,-4.716,33.662,-8.831
16:22:50:449,33.552,-0.052,0.265,-0.128,-3.999,35.695,-10.850
16:22:50:497,33.600,-0.127,0.116,-0.044,-2.931,37.143,-14.002
16:22:50:498,33.601,-0.154,0.038,-0.013,-2.277,37.785,-17.712
16:22:50:579,33.682,-0.158,0.008,-0.003,-2.112,37.753,-20.442
16:22:50:579,33.682,-0.233,-0.012,0.009,-2.116,37.943,-24.742
16:22:50:631,33.734,-0.271,-0.040,0.044,-2.237,37.945,-27.622
16:22:50:632,33.735,-0.311,-0.094,0.070,-2.549,37.930,-31.824
16:22:50:633,33.736,-0.269,-0.184,0.082,-3.031,37.806,-35.704
16:22:50:652,33.755,-0.276,-0.234,0.088,-3.378,37.741,-38.043
16:22:50:707,33.810,-0.293,-0.246,0.118,-3.861,37.667,-41.051
16:22:50:708,33.811,-0.345,-0.228,0.132,-4.055,37.631,-42.610
16:22:50:872,33.975,-0.386,-0.187,0.156,-4.326,37.528,-43.365
16:22:50:873,33.976,-0.443,-0.110,0.183,-4.191,37.213,-43.663
16:22:50:873,33.976,-0.445,-0.070,0.192,-4.155,36.746,-43.161
16:22:50:874,33.977,-0.401,-0.055,0.198,-4.279,35.601,-41.438
16:22:50:895,33.998,-0.365,-0.027,0.191,-4.370,34.664,-39.712
16:22:50:895,33.998,-0.399,0.111,0.171,-4.329,33.182,-36.450
16:22:50:895,33.998,-0.401,0.194,0.108,-4.037,31.793,-32.394
16:22:50:973,34.076,-0.210,-0.053,0.021,-3.739,30.973,-29.508
16:22:50:973,34.076,-0.033,-0.166,0.016,-3.466,29.851,-25.353
16:22:50:974,34.077,-0.026,-0.015,0.097,-3.433,29.291,-22.717
16:22:50:993,34.096,-0.073,0.059,0.056,-3.302,29.217,-19.178
16:22:51:134,34.237,-0.071,0.114,-0.060,-3.181,28.677,-17.012
16:22:51:134,34.237,-0.034,0.167,-0.133,-3.058,27.577,-13.818
16:22:51:135,34.238,0.103,0.088,-0.167,-2.902,26.149,-10.681
16:22:51:136,34.239,0.224,0.023,-0.170,-2.731,25.141,-8.576
16:22:51:182,34.285,0.248,0.014,-0.159,-2.367,23.773,-5.356
16:22:51:183,34.286,0.309,-0.036,-0.197,-1.903,22.506,-2.168
16:22:51:184,34.287,0.378,-0.052,-0.209,-1.558,21.503,-0.126
16:22:51:203,34.306,0.420,-0.055,-0.233,-1.044,20.416,2.770
16:22:51:229,34.332,0.445,-0.073,-0.244,-0.694,19.766,4.487
16:22:51:255,34.358,0.435,-0.062,-0.230,-0.641,18.973,4.161
16:22:51:341,34.444,0.427,-0.077,-0.202,-0.676,18.380,3.667
16:22:51:341,34.444,0.432,-0.124,-0.196,-0.646,17.621,4.056
16:22:51:342,34.445,0.487,-0.036,-0.210,-0.784,17.688,4.687
16:22:51:361,34.464,0.522,0.015,-0.229,-1.005,17.662,4.930
16:22:51:476,34.579,0.517,0.019,-0.235,-1.436,18.417,5.051
16:22:51:477,34.580,0.469,-0.020,-0.227,-1.753,19.132,5.031
16:22:51:477,34.580,0.446,0.007,-0.228,-2.275,20.911,4.659
16:22:51:478,34.581,0.471,0.179,-0.265,-2.818,22.479,4.047
16:22:51:632,34.735,0.480,0.277,-0.296,-3.122,24.193,3.400
16:22:51:633,34.736,0.440,0.265,-0.314,-3.302,26.926,2.085
16:22:51:634,34.737,0.327,0.083,-0.299,-3.218,29.151,0.819
16:22:51:687,34.790,0.079,0.102,-0.179,-2.705,36.022,-5.471
16:22:51:688,34.791,0.010,0.157,-0.182,-2.327,38.362,-8.182
16:22:51:688,34.791,-0.159,0.298,-0.138,-1.436,41.819,-12.365
16:22:51:689,34.792,-0.251,0.242,-0.066,-0.623,43.851,-15.205
16:22:51:706,34.809,-0.300,0.171,-0.023,0.792,46.235,-19.531
16:22:51:706,34.809,-0.326,0.077,0.024,2.187,47.737,-23.762
16:22:51:868,34.972,-0.410,-0.011,0.075,4.484,49.433,-30.524
16:22:51:869,34.973,-0.471,-0.089,0.074,5.541,50.084,-33.054
16:22:51:87,34.974,-0.484,-0.161,0.094,7.338,50.814,-36.544
16:22:52:,35.103,-0.492,-0.251,0.150,9.302,51.879,-39.660
16:22:52:,35.104,-0.416,-0.323,0.133,10.493,52.234,-41.549
16:22:52:001,35.104,-0.415,-0.308,0.123,12.089,53.143,-43.914
16:22:52:002,35.105,-0.455,-0.311,0.162,13.136,53.448,-45.166
16:22:52:045,35.148,-0.519,-0.317,0.173,14.512,53.969,-46.541
16:22:52:108,35.211,-0.554,-0.288,0.204,15.234,54.442,-47.207
16:22:52:108,35.211,-0.567,-0.296,0.219,15.242,54.145,-47.323
16:22:52:108,35.211,-0.537,-0.297,0.244,14.219,53.549,-47.046
16:22:52:108,35.211,-0.549,-0.144,0.259,12.883,52.707,-46.497
16:22:52:152,35.255,-0.524,-0.040,0.262,10.505,51.610,-44.913
16:22:52:153,35.256,-0.500,0.006,0.293,8.948,50.831,-43.363
16:22:52:209,35.312,-0.429,0.001,0.241,6.610,49.968,-40.381
16:22:52:21,35.313,-0.151,-0.159,0.100,4.509,48.623,-37.038
16:22:52:21,35.313,-0.074,-0.109,0.124,3.254,47.981,-34.583
16:22:52:211,35.314,-0.027,0.136,0.166,1.880,47.427,-30.619
16:22:52:226,35.329,-0.002,0.167,0.133,1.435,47.937,-27.976
16:22:52:312,35.415,-0.064,0.185,0.051,1.035,48.619,-24.039
16:22:52:312,35.415,-0.019,0.203,0.058,0.613,50.087,-20.271
16:22:52:313,35.416,0.158,0.124,0.024,0.407,51.388,-17.990
16:22:52:361,35.464,0.094,0.028,0.014,0.318,53.689,-14.905
16:22:52:361,35.464,0.123,0.021,-0.138,0.157,54.766,-12.832
16:22:52:443,35.546,0.242,0.064,-0.191,-0.185,55.733,-9.562
16:22:52:444,35.547,0.317,0.060,-0.218,-0.409,56.368,-6.367
16:22:52:445,35.548,0.322,0.017,-0.251,-0.377,56.721,-4.423
16:22:52:463,35.566,0.312,-0.018,-0.318,-0.254,57.520,-1.721
16:22:52:49,35.593,0.297,-0.047,-0.354,-0.159,58.308,-0.177
16:22:52:57,35.673,0.277,-0.096,-0.345,-0.006,59.624,1.480
16:22:52:602,35.705,0.197,-0.156,-0.319,0.067,61.067,2.410
16:22:52:602,35.705,0.194,-0.148,-0.319,0.064,61.959,2.649
16:22:52:602,35.705,0.143,-0.062,-0.346,-0.029,63.380,2.581
16:22:52:705,35.808,0.115,-0.011,-0.360,-0.102,64.385,2.344
16:22:52:706,35.809,0.045,0.043,-0.347,-0.164,66.027,1.848
16:22:52:707,35.810,0.005,0.065,-0.322,-0.169,67.553,1.156
16:22:52:779,35.882,-0.050,0.073,-0.294,-0.124,68.366,0.608
16:22:52:889,35.992,-0.076,0.118,-0.317,-0.102,69.088,-0.351
16:22:52:89,35.993,-0.096,0.208,-0.329,-0.149,69.388,-1.015
16:22:53:024,36.127,-0.089,0.255,-0.359,-0.274,70.211,-1.911
16:22:53:025,36.128,-0.095,0.135,-0.368,-0.323,71.700,-2.790
16:22:53:026,36.129,-0.114,0.019,-0.332,-0.311,73.440,-3.486
16:22:53:026,36.129,-0.154,-0.147,-0.259,-0.271,76.843,-4.881
16:22:53:05,36.153,-0.173,-0.140,-0.220,-0.217,79.855,-6.037
16:22:53:05,36.153,-0.217,-0.060,-0.185,0.074,84.626,-7.947
16:22:53:051,36.154,-0.252,0.060,-0.137,0.484,88.127,-9.243
16:22:53:052,36.155,-0.286,0.119,-0.044,1.544,93.339,-11.101
16:22:53:075,36.178,-0.328,0.161,0.041,3.056,98.180,-12.784
16:22:53:076,36.179,-0.372,0.158,0.151,4.257,101.054,-13.802
16:22:53:076,36.179,-0.350,0.050,0.235,6.108,104.578,-15.378
16:22:53:077,36.180,-0.299,-0.094,0.231,7.229,106.221,-16.677
16:22:53:152,36.255,-0.277,-0.100,0.246,8.527,107.762,-18.974
16:22:53:152,36.255,-0.290,-0.085,0.258,9.464,108.595,-21.564
16:22:53:153,36.256,-0.320,-0.096,0.302,9.977,109.002,-23.305
16:22:53:202,36.305,-0.311,-0.119,0.321,10.659,109.590,-25.747
16:22:53:202,36.305,-0.297,-0.180,0.340,11.272,110.272,-27.862
16:22:53:283,36.386,-0.260,-0.214,0.340,11.585,110.783,-29.065
16:22:53:283,36.387,-0.201,-0.185,0.339,11.854,111.516,-30.580
16:22:53:284,36.388,-0.143,-0.137,0.419,11.830,111.837,-31.514
16:22:53:303,36.406,-0.168,-0.113,0.521,11.423,111.583,-32.875
16:22:53:329,36.432,-0.185,-0.075,0.469,10.672,110.784,-33.734
16:22:53:356,36.459,-0.155,-0.027,0.441,8.976,109.406,-34.590
16:22:53:412,36.515,-0.023,0.014,0.426,7.284,108.542,-34.740
16:22:53:412,36.515,0.035,0.104,0.458,6.241,108.158,-34.475
16:22:53:434,36.537,0.044,0.104,0.449,4.897,107.601,-33.575
16:22:53:49,36.593,0.030,0.063,0.417,3.771,106.943,-32.090
16:22:53:491,36.594,0.067,-0.117,0.242,3.024,106.368,-30.729
16:22:53:542,36.645,0.119,-0.226,0.091,1.919,105.310,-28.318
16:22:53:542,36.645,0.179,-0.200,0.142,1.211,104.636,-26.471
16:22:53:565,36.668,0.175,0.007,0.136,0.186,103.612,-23.466
16:22:53:626,36.729,0.118,0.122,0.074,-0.329,102.993,-21.404
16:22:53:627,36.730,0.068,0.157,0.086,-0.715,102.546,-18.106
16:22:53:627,36.730,0.065,0.102,-0.071,-0.845,102.359,-14.644
16:22:53:673,36.776,0.043,0.076,-0.197,-0.823,102.449,-12.227
16:22:53:674,36.777,0.007,0.032,-0.223,-0.628,103.211,-8.677
16:22:53:785,36.888,-0.073,0.028,-0.280,-0.486,103.978,-6.306
16:22:53:785,36.888,-0.091,0.027,-0.316,-0.294,105.379,-2.959
16:22:53:785,36.888,-0.110,0.018,-0.383,-0.209,107.088,0.261
16:22:53:786,36.889,-0.129,0.005,-0.413,-0.193,108.364,2.214
16:22:53:803,36.906,-0.144,-0.059,-0.389,-0.241,110.285,4.705
16:22:53:914,37.017,-0.158,-0.125,-0.386,-0.286,111.371,6.009
16:22:53:915,37.018,-0.144,-0.192,-0.370,-0.392,112.640,7.374
16:22:53:915,37.018,-0.178,-0.233,-0.385,-0.528,114.937,8.088
16:22:53:936,37.039,-0.198,-0.194,-0.409,-0.631,115.423,8.281
16:22:53:936,37.039,-0.255,-0.090,-0.431,-0.762,117.249,8.266
16:22:54:017,37.120,-0.264,-0.010,-0.390,-0.823,117.737,8.085
16:22:54:018,37.121,-0.286,-0.003,-0.346,-0.827,119.516,7.609
16:22:54:019,37.122,-0.316,0.005,-0.311,-0.789,121.016,6.876
16:22:54:038,37.141,-0.354,0.052,-0.289,-0.792,121.069,6.220
16:22:54:15,37.254,-0.392,0.174,-0.324,-0.883,121.782,5.114
16:22:54:151,37.254,-0.456,0.301,-0.312,-0.980,121.926,4.289
16:22:54:152,37.255,-0.499,0.287,-0.263,-1.134,123.318,2.810
16:22:54:231,37.334,-0.560,0.048,-0.203,-1.396,124.854,0.554
16:22:54:232,37.335,-0.506,0.036,-0.090,-1.787,127.410,-1.698
16:22:54:233,37.336,-0.454,0.204,-0.035,-2.654,131.334,-6.620
16:22:54:234,37.337,-0.517,0.337,-0.061,-3.111,135.121,-10.695
16:22:54:277,37.380,-0.322,0.543,0.212,-2.965,143.934,-18.101
16:22:54:278,37.381,-0.456,0.723,0.387,-0.870,153.499,-26.289
16:22:54:301,37.404,-0.322,0.853,0.488,1.892,159.832,-31.773
16:22:54:327,37.430,0.092,0.675,0.674,9.212,169.673,-39.678
16:22:54:353,37.456,0.098,0.520,0.740,16.185,175.603,-44.764
16:22:54:379,37.482,0.352,0.264,0.697,29.157,-177.077,-52.150
16:22:54:435,37.538,0.374,0.046,0.633,39.093,-172.925,-56.719
16:22:54:435,37.538,0.397,-0.020,0.567,53.727,-167.913,-63.050
16:22:54:625,37.728,0.426,-0.338,0.328,66.291,-164.147,-68.894
16:22:54:625,37.728,0.301,-0.539,0.220,72.845,-162.157,-72.530
16:22:54:626,37.729,0.219,-0.563,0.198,80.235,-160.630,-78.081
16:22:54:627,37.730,0.125,-0.407,0.109,83.872,-160.135,-81.734
16:22:54:65,37.753,0.142,-0.375,0.035,87.719,-159.380,-86.380
16:22:54:651,37.754,0.110,-0.379,0.048,90.545,-159.660,-91.041
16:22:54:652,37.755,0.043,-0.358,0.087,92.152,-160.755,-94.584
16:22:54:653,37.756,0.019,-0.384,-0.085,93.915,-162.996,-99.920
16:22:54:697,37.800,-0.010,-0.328,-0.124,94.683,-164.785,-103.433
16:22:54:698,37.801,0.086,-0.200,0.053,95.618,-167.605,-108.696
16:22:54:75,37.853,0.037,-0.124,0.021,96.303,-171.167,-114.260
16:22:54:751,37.854,0.107,-0.062,0.020,96.613,-173.963,-118.141
16:22:54:773,37.876,0.113,-0.108,-0.102,97.088,179.932,-125.694
16:22:54:828,37.931,0.024,-0.101,-0.057,97.514,175.709,-130.659
16:22:54:829,37.932,0.095,-0.019,0.044,98.215,173.950,-133.170
16:22:54:882,37.985,0.105,-0.043,-0.005,98.774,173.047,-134.942
16:22:54:882,37.985,0.013,-0.096,-0.018,99.096,171.514,-137.104
16:22:54:933,38.036,0.065,-0.111,0.024,99.514,170.118,-139.276
16:22:54:934,38.037,0.083,-0.083,-0.018,99.766,169.355,-140.344
16:22:54:984,38.087,0.088,-0.109,-0.002,100.254,168.582,-141.215
16:22:55:01,38.113,0.002,-0.094,0.031,100.887,167.836,-141.836
16:22:55:039,38.143,-0.042,-0.095,-0.019,101.217,166.664,-142.776
16:22:55:039,38.143,-0.015,-0.080,-0.005,101.566,165.388,-143.740
16:22:55:062,38.165,-0.045,-0.085,0.012,101.762,165.207,-143.853
16:22:55:117,38.220,-0.041,-0.073,0.019,101.975,165.019,-143.855
16:22:55:118,38.221,0.034,-0.046,0.064,102.149,165.283,-143.555
16:22:55:141,38.244,-0.021,-0.078,0.025,102.330,164.842,-143.953
16:22:55:227,38.330,-0.086,-0.081,-0.037,102.603,163.670,-145.001
16:22:55:227,38.330,-0.088,-0.053,0.003,102.817,163.496,-145.044
16:22:55:227,38.330,-0.093,-0.037,0.001,103.125,164.717,-144.080
16:22:55:276,38.379,-0.105,-0.040,-0.006,103.509,165.178,-143.871
16:22:55:276,38.379,-0.083,-0.021,0.032,103.939,164.895,-144.626
16:22:55:298,38.401,-0.100,-0.040,0.001,104.140,165.245,-144.877
16:22:55:324,38.427,-0.105,-0.043,-0.009,104.293,165.055,-145.581
16:22:55:379,38.482,-0.113,-0.029,0.028,104.578,165.126,-146.309
16:22:55:38,38.483,-0.155,-0.010,0.000,104.763,165.214,-146.822
16:22:55:405,38.508,-0.115,0.004,0.026,105.003,165.823,-147.000
16:22:55:487,38.591,-0.059,0.062,0.074,105.223,166.692,-147.094
16:22:55:487,38.591,-0.173,0.034,-0.004,105.341,166.679,-148.073
16:22:55:511,38.614,-0.169,0.022,0.025,105.531,167.338,-149.001
16:22:55:511,38.614,-0.149,0.004,0.123,105.770,170.039,-148.103
16:22:55:645,38.748,-0.061,-0.004,0.196,105.886,172.941,-146.276
16:22:55:645,38.748,0.015,-0.045,0.169,106.013,177.075,-143.617
16:22:55:677,38.780,-0.030,-0.054,0.155,106.101,178.977,-142.596
16:22:55:677,38.780,-0.128,-0.125,0.160,106.209,-178.220,-141.405
16:22:55:677,38.780,-0.097,-0.133,0.196,106.354,-174.250,-139.073
16:22:55:677,38.780,-0.087,-0.102,0.211,106.506,-171.012,-136.781
16:22:55:78,38.883,-0.116,-0.122,0.183,106.810,-166.056,-133.025
16:22:55:78,38.883,-0.048,-0.159,0.199,107.054,-162.810,-130.518
16:22:55:781,38.884,-0.051,-0.161,0.167,107.443,-158.563,-127.168
16:22:55:782,38.885,-0.204,-0.328,0.040,107.734,-154.791,-123.681
16:22:55:826,38.929,-0.071,-0.290,0.127,108.034,-151.787,-120.725
16:22:55:826,38.929,0.084,-0.230,0.182,108.701,-147.655,-116.691
16:22:55:878,38.981,-0.075,-0.373,0.097,108.729,-145.792,-114.262
16:22:55:879,38.982,0.055,-0.388,0.071,108.239,-143.484,-110.444
16:22:55:934,39.037,0.174,-0.368,0.078,107.747,-142.127,-107.852
16:22:55:935,39.038,0.114,-0.353,0.083,106.174,-140.345,-103.630
16:22:55:936,39.039,0.031,-0.366,-0.009,102.394,-138.647,-98.596
16:22:55:984,39.087,0.250,-0.039,-0.002,98.451,-137.777,-95.121
16:22:55:984,39.087,0.219,-0.169,-0.096,89.254,-137.000,-89.600
16:22:56:122,39.225,0.206,-0.475,-0.228,80.445,-136.573,-85.062
16:22:56:122,39.225,0.420,-0.364,-0.298,63.610,-136.393,-77.726
16:22:56:122,39.225,0.605,-0.087,-0.342,40.967,-137.871,-69.661
16:22:56:123,39.226,0.900,0.127,-0.340,26.402,-140.051,-63.995
16:22:56:247,39.350,0.999,0.301,-0.194,9.969,-145.289,-54.805
16:22:56:247,39.350,0.916,0.612,-0.086,2.581,-150.060,-48.115
16:22:56:3,39.403,0.667,0.907,-0.041,-3.819,-158.498,-37.403
16:22:56:301,39.404,-0.049,1.073,-0.016,-5.497,-166.951,-27.217
16:22:56:561,39.664,-0.267,0.736,0.112,-4.674,-171.559,-22.063
16:22:56:562,39.665,-0.074,0.399,0.171,-2.531,-175.049,-16.128
16:22:56:725,39.828,-0.248,0.420,0.091,-1.364,-176.029,-13.290
16:22:56:726,39.829,-0.203,0.300,0.090,-0.135,-176.136,-10.077
16:22:56:726,39.829,-0.115,0.230,0.123,0.494,-175.253,-7.856
16:22:56:727,39.830,-0.282,0.086,0.166,0.717,-174.715,-6.622
16:22:56:935,40.038,-0.211,0.049,0.231,0.862,-173.790,-5.363
16:22:56:935,40.038,-0.156,0.020,0.256,0.944,-173.127,-4.372
16:22:56:936,40.039,-0.285,-0.027,0.217,1.108,-172.424,-2.475
16:22:56:957,40.060,-0.632,-0.124,0.169,2.253,-171.278,2.888
16:22:56:957,40.060,-0.579,-0.181,0.176,3.193,-169.749,6.633
16:22:56:988,40.091,-0.459,-0.169,0.229,3.797,-168.660,8.920
16:22:56:989,40.092,-0.448,-0.187,0.229,4.578,-167.330,11.909
16:22:56:99,40.093,-0.447,-0.276,0.240,5.249,-166.926,13.807
16:22:56:99,40.093,-0.466,-0.323,0.226,5.600,-167.289,14.325
16:22:57:07,40.173,-0.533,-0.290,0.230,5.789,-168.367,14.276
16:22:57:07,40.173,-0.554,-0.275,0.227,5.620,-169.066,13.815
16:22:57:07,40.173,-0.609,-0.233,0.268,4.964,-169.528,12.787
16:22:57:07,40.173,-0.553,-0.167,0.297,4.255,-169.205,12.011
16:22:57:223,40.326,-0.500,-0.127,0.327,2.947,-167.934,10.676
16:22:57:224,40.327,-0.437,-0.007,0.321,1.482,-166.203,9.136
16:22:57:225,40.328,-0.463,0.250,0.329,0.466,-164.999,8.093
16:22:57:226,40.329,-0.452,0.404,0.344,-0.871,-162.529,6.573
16:22:57:276,40.379,-0.479,0.413,0.402,-1.497,-161.198,5.534
16:22:57:276,40.379,-0.370,0.196,0.410,-2.037,-158.675,3.590
16:22:57:277,40.380,-0.186,0.098,0.341,-2.583,-155.764,0.662
16:22:57:278,40.381,-0.156,0.050,0.262,-2.973,-153.640,-1.972
16:22:57:299,40.402,-0.070,0.219,0.185,-3.455,-150.181,-6.548
16:22:57:299,40.402,0.066,0.349,0.188,-3.517,-147.413,-9.937
16:22:57:383,40.486,0.179,0.417,0.144,-3.176,-143.481,-15.309
16:22:57:384,40.487,0.397,0.475,-0.012,-2.492,-140.393,-20.699
16:22:57:384,40.487,0.482,0.398,-0.075,-2.100,-139.271,-24.327
16:22:57:384,40.487,0.438,0.209,-0.102,-2.172,-139.009,-29.740
16:22:57:512,40.615,0.455,0.070,-0.166,-2.632,-139.075,-33.369
16:22:57:512,40.616,0.471,-0.083,-0.199,-3.533,-138.890,-38.848
16:22:57:513,40.616,0.457,-0.194,-0.211,-4.614,-138.450,-44.297
16:22:57:514,40.617,0.440,-0.253,-0.194,-5.235,-137.966,-47.726
16:22:57:898,41.001,0.402,-0.354,-0.197,-5.653,-136.896,-52.418
16:22:58:063,41.166,0.370,-0.412,-0.191,-5.562,-136.074,-55.237
16:22:58:064,41.167,0.330,-0.436,-0.194,-4.742,-134.766,-58.783
16:22:58:065,41.168,0.390,-0.468,-0.221,-2.847,-133.514,-61.305
16:22:58:065,41.168,0.401,-0.495,-0.223,-1.207,-132.860,-62.336
16:22:58:197,41.300,0.433,-0.585,-0.206,0.730,-132.300,-62.897
16:22:58:197,41.300,0.375,-0.451,-0.206,0.376,-132.361,-62.651
16:22:58:198,41.301,0.350,-0.325,-0.222,-2.322,-133.015,-61.380
16:22:58:199,41.302,0.432,-0.203,-0.316,-4.422,-133.889,-58.771
16:22:58:274,41.377,0.489,-0.112,-0.326,-5.307,-134.725,-56.193
16:22:58:275,41.378,0.569,0.086,-0.387,-5.968,-136.313,-51.061
16:22:58:276,41.379,0.527,0.172,-0.346,-6.050,-137.527,-46.785
16:22:58:277,41.380,0.292,0.110,-0.221,-5.872,-139.514,-39.605
16:22:58:3,41.403,0.119,0.213,-0.183,-5.446,-141.478,-32.230
16:22:58:301,41.404,0.116,0.286,-0.162,-4.888,-142.594,-27.407
16:22:58:302,41.405,0.103,0.364,-0.053,-3.752,-143.806,-20.592
16:22:58:302,41.405,0.066,0.408,0.040,-3.031,-144.290,-16.377
16:22:58:432,41.535,-0.040,0.414,0.137,-2.256,-144.799,-10.873
16:22:58:433,41.536,-0.195,0.270,0.133,-1.915,-145.068,-6.245
16:22:58:433,41.536,-0.265,0.187,0.168,-1.894,-145.203,-3.610
16:22:58:433,41.536,-0.324,0.154,0.266,-2.061,-145.272,-0.058
16:22:58:485,41.588,-0.378,0.075,0.277,-2.320,-144.848,2.110
16:22:58:485,41.588,-0.546,-0.186,0.411,-3.226,-145.089,16.164
16:22:58:485,41.588,-0.471,0.157,0.449,-4.043,-143.868,14.436
16:22:58:486,41.589,-0.523,0.292,0.509,-4.396,-143.152,13.084
16:22:58:501,41.604,-0.397,0.169,0.491,-4.549,-142.342,11.919
16:22:58:536,41.639,-0.285,-0.001,0.418,-4.710,-140.543,9.491
16:22:58:537,41.640,-0.142,-0.085,0.202,-5.448,-136.124,2.829
16:22:58:537,41.640,-0.131,0.081,0.146,-5.848,-133.105,-2.271
16:22:58:538,41.641,-0.127,0.208,0.065,-5.793,-130.917,-5.889
16:22:58:641,41.744,0.081,0.440,0.072,-4.841,-126.746,-10.912
16:22:58:642,41.745,0.231,0.597,-0.015,-3.871,-124.027,-14.066
16:22:58:643,41.746,0.288,0.487,-0.007,-2.163,-122.304,-18.597
16:22:58:643,41.746,0.409,0.187,-0.241,-0.588,-121.975,-23.017
16:22:58:667,41.770,0.424,0.089,-0.293,0.038,-122.296,-26.146
16:22:58:668,41.771,0.344,0.000,-0.231,-0.085,-123.945,-31.330
16:22:58:669,41.772,0.339,-0.099,-0.221,-0.590,-124.967,-34.815
16:22:58:899,42.002,0.338,-0.263,-0.209,-2.915,-126.865,-44.933
16:22:58:93,42.033,0.256,-0.356,-0.216,-4.131,-126.589,-51.915
16:22:58:931,42.034,0.321,-0.383,-0.263,-3.445,-126.072,-54.048
16:22:58:932,42.035,0.357,-0.416,-0.281,-1.381,-124.958,-56.404
16:22:59:026,42.129,0.415,-0.436,-0.305,2.012,-123.971,-57.690
16:22:59:166,42.269,0.439,-0.347,-0.345,2.144,-124.465,-56.619
16:22:59:167,42.270,0.458,-0.272,-0.377,1.397,-124.883,-55.080
16:22:59:167,42.270,0.446,-0.115,-0.412,-0.296,-126.000,-51.445
16:22:59:168,42.271,0.439,0.086,-0.450,-1.739,-127.635,-46.358
16:22:59:245,42.348,0.447,0.226,-0.385,-2.412,-129.102,-42.211
16:22:59:246,42.349,0.254,0.092,-0.172,-2.833,-131.502,-35.394
16:22:59:247,42.350,0.043,0.005,-0.108,-2.833,-132.986,-30.775
16:22:59:247,42.350,0.052,0.212,-0.151,-2.648,-134.841,-24.210
16:22:59:403,42.506,0.087,0.291,-0.087,-2.068,-135.850,-18.438
16:22:59:403,42.506,0.073,0.305,0.016,-1.732,-136.740,-15.057
16:22:59:404,42.507,-0.035,0.319,0.117,-1.542,-137.561,-10.661
16:22:59:405,42.508,-0.117,0.274,0.144,-1.559,-138.397,-8.176
16:22:59:455,42.558,-0.215,0.191,0.227,-1.723,-139.071,-4.865
16:22:59:456,42.559,-0.272,0.058,0.297,-1.915,-139.696,-1.843
16:22:59:457,42.560,-0.266,-0.004,0.282,-2.078,-139.416,0.009
16:22:59:457,42.560,-0.303,-0.022,0.266,-2.415,-138.991,2.591
16:22:59:481,42.584,-0.305,-0.065,0.278,-2.608,-138.924,4.214
16:22:59:482,42.585,-0.325,-0.089,0.278,-2.825,-139.723,6.406
16:22:59:483,42.586,-0.365,-0.126,0.303,-2.904,-140.571,8.284
16:22:59:483,42.586,-0.381,-0.194,0.310,-2.844,-141.617,9.384
16:22:59:524,42.627,-0.388,-0.230,0.287,-2.662,-142.976,10.731
16:22:59:56,42.663,-0.430,-0.186,0.315,-2.535,-144.181,11.365
16:22:59:56,42.663,-0.486,-0.127,0.339,-2.397,-145.645,12.003
16:22:59:561,42.664,-0.492,-0.059,0.364,-2.386,-146.631,12.238
16:22:59:562,42.665,-0.498,-0.065,0.344,-2.518,-147.207,12.368
16:22:59:613,42.716,-0.427,-0.030,0.332,-2.836,-147.277,12.135
16:22:59:613,42.716,-0.422,0.057,0.330,-3.174,-147.170,11.747
16:22:59:615,42.718,-0.506,0.332,0.345,-4.310,-146.355,9.977
16:22:59:639,42.742,-0.336,0.122,0.300,-4.920,-145.049,8.262
16:22:59:64,42.743,-0.227,-0.176,0.249,-5.189,-144.053,6.712
16:22:59:641,42.744,-0.204,-0.209,0.234,-5.580,-142.481,3.804
16:22:59:642,42.745,-0.156,-0.092,0.158,-6.075,-140.499,0.284
16:22:59:665,42.768,-0.144,-0.049,0.143,-6.330,-139.027,-2.304
16:22:59:666,42.769,-0.117,0.051,0.135,-6.428,-136.545,-6.392
16:22:59:667,42.770,-0.020,0.321,0.112,-6.031,-133.564,-10.269
16:22:59:668,42.771,0.051,0.413,0.064,-5.455,-131.506,-12.775
16:22:59:744,42.847,0.223,0.340,-0.021,-4.131,-129.416,-16.357
16:22:59:744,42.847,0.274,0.212,-0.067,-3.239,-128.633,-18.651
16:22:59:744,42.847,0.263,0.097,-0.094,-2.367,-128.644,-22.375
16:22:59:745,42.848,0.272,0.035,-0.139,-2.074,-128.979,-26.465
16:22:59:849,42.953,0.289,-0.031,-0.146,-2.084,-129.077,-29.327
16:22:59:849,42.953,0.297,-0.126,-0.168,-2.309,-129.039,-33.691
16:22:59:85,42.953,0.312,-0.211,-0.177,-2.548,-128.927,-36.591
16:22:59:851,42.954,0.307,-0.256,-0.176,-2.956,-128.750,-40.679
16:22:59:893,42.996,0.299,-0.300,-0.184,-3.185,-128.273,-44.175
16:22:59:951,43.054,0.304,-0.292,-0.198,-3.070,-127.766,-46.027
16:22:59:951,43.054,0.348,-0.304,-0.246,-2.745,-126.901,-47.113
16:22:59:971,43.075,0.385,-0.316,-0.230,-2.199,-126.474,-47.834
16:23:00:001,43.104,0.382,-0.311,-0.238,-1.638,-126.063,-47.844
16:23:00:001,43.104,0.363,-0.248,-0.228,-2.180,-126.151,-45.633
16:23:00:083,43.186,0.349,-0.169,-0.237,-2.459,-126.428,-43.937
16:23:00:083,43.186,0.370,-0.001,-0.272,-2.934,-127.071,-40.150
16:23:00:084,43.187,0.333,0.104,-0.273,-3.222,-127.626,-36.867
16:23:00:131,43.234,0.249,0.297,-0.273,-3.480,-128.549,-31.134
16:23:00:131,43.234,0.107,0.149,-0.170,-3.439,-129.230,-27.149
16:23:00:154,43.257,0.072,0.058,-0.091,-3.272,-130.638,-21.370
16:23:00:18,43.283,-0.015,0.124,-0.057,-3.275,-132.477,-16.010
16:23:00:207,43.310,-0.116,0.208,-0.006,-3.291,-133.746,-12.962
16:23:00:289,43.393,-0.113,0.212,0.036,-3.240,-135.519,-9.175
16:23:00:29,43.393,-0.044,0.179,0.179,-3.173,-136.604,-6.974
16:23:00:345,43.448,-0.128,0.408,0.047,-3.372,-139.330,-4.233
16:23:00:346,43.449,-0.499,-0.016,0.473,-2.910,-143.049,-2.026
16:23:00:346,43.449,-0.252,0.059,0.241,-2.812,-142.954,-0.570
16:23:00:366,43.469,-0.274,-0.074,0.265,-2.502,-141.952,1.650
16:23:00:423,43.526,-0.291,-0.049,0.251,-2.360,-141.544,3.100
16:23:00:423,43.526,-0.329,-0.136,0.327,-2.062,-141.231,5.498
16:23:00:424,43.527,-0.294,-0.112,0.311,-1.764,-141.122,7.729
16:23:00:472,43.575,-0.315,-0.150,0.352,-1.473,-141.441,9.112
16:23:00:473,43.576,-0.343,-0.207,0.360,-0.994,-142.202,10.864
16:23:00:584,43.687,-0.358,-0.265,0.346,-0.740,-142.716,11.767
16:23:00:584,43.687,-0.402,-0.244,0.362,-0.533,-143.421,12.668
16:23:00:585,43.688,-0.439,-0.129,0.394,-0.615,-143.820,13.199
16:23:00:585,43.688,-0.458,-0.050,0.438,-0.750,-143.814,13.358
16:23:00:6,43.703,-0.419,-0.057,0.422,-1.033,-143.720,13.346
16:23:00:714,43.818,-0.388,-0.080,0.407,-1.283,-143.607,13.137
16:23:00:715,43.818,-0.408,-0.014,0.412,-1.812,-143.489,12.478
16:23:00:716,43.819,-0.531,0.255,0.505,-2.556,-142.959,11.638
16:23:00:76,43.863,-0.431,0.191,0.492,-3.664,-139.854,9.765
16:23:00:819,43.922,-0.265,-0.061,0.399,-3.977,-137.884,8.461
16:23:00:819,43.922,-0.169,-0.199,0.271,-4.532,-134.690,5.613
16:23:00:819,43.922,-0.196,-0.145,0.230,-4.912,-132.577,3.192
16:23:00:951,44.054,-0.169,0.011,0.233,-5.308,-128.945,-0.928
16:23:00:952,44.055,-0.043,0.180,0.200,-5.115,-124.845,-5.302
16:23:00:953,44.056,0.073,0.392,0.151,-4.639,-122.033,-8.203
16:23:00:953,44.056,0.172,0.512,0.075,-3.312,-118.219,-12.232
16:23:00:971,44.075,0.264,0.292,-0.071,-1.426,-115.237,-15.981
16:23:00:972,44.075,0.289,0.176,-0.122,-0.161,-113.774,-18.512
16:23:01:187,44.290,0.334,0.052,-0.205,1.390,-112.784,-22.469
16:23:01:188,44.291,0.345,-0.034,-0.204,2.146,-112.573,-25.303
16:23:01:189,44.292,0.374,-0.107,-0.208,2.777,-112.925,-29.710
16:23:01:19,44.293,0.363,-0.172,-0.226,2.892,-113.341,-34.096
16:23:01:211,44.314,0.338,-0.229,-0.254,2.814,-113.582,-36.931
16:23:01:212,44.315,0.352,-0.296,-0.294,2.373,-113.986,-41.028
16:23:01:213,44.316,0.365,-0.311,-0.267,1.743,-114.618,-43.526
16:23:01:236,44.339,0.356,-0.308,-0.246,0.542,-115.432,-46.597
16:23:01:237,44.340,0.365,-0.314,-0.296,-0.090,-115.766,-48.093
16:23:01:238,44.341,0.362,-0.328,-0.297,-0.802,-116.117,-49.434
16:23:01:344,44.447,0.327,-0.284,-0.283,-3.308,-116.518,-47.003
16:23:01:345,44.448,0.281,-0.245,-0.297,-4.287,-116.660,-45.645
16:23:01:345,44.448,0.237,-0.158,-0.320,-4.904,-116.476,-43.701
16:23:01:346,44.449,0.195,-0.012,-0.292,-5.048,-116.091,-41.501
16:23:01:582,44.685,0.158,0.138,-0.343,-4.845,-115.105,-36.770
16:23:01:582,44.685,0.123,0.317,-0.304,-4.418,-114.307,-30.597
16:23:01:583,44.686,0.073,0.220,-0.145,-4.158,-114.076,-25.970
16:23:01:584,44.687,-0.064,-0.044,-0.020,-3.931,-114.076,-18.869
16:23:01:66,44.763,-0.160,0.012,0.019,-3.900,-114.178,-14.301
16:23:01:66,44.763,-0.187,0.234,0.043,-3.941,-113.979,-8.275
16:23:01:661,44.764,-0.181,0.303,0.118,-4.086,-113.514,-3.174
16:23:01:662,44.765,-0.204,0.350,0.195,-4.316,-113.345,-0.190
16:23:01:714,44.817,-0.334,0.272,0.310,-4.767,-113.259,3.693
16:23:01:715,44.818,-0.337,0.112,0.345,-5.091,-113.246,5.873
16:23:01:715,44.818,-0.360,-0.036,0.427,-5.521,-113.465,8.827
16:23:01:715,44.818,-0.346,-0.124,0.459,-5.839,-113.659,11.483
16:23:01:757,44.860,-0.379,-0.157,0.465,-6.118,-113.333,13.085
16:23:01:786,44.889,-0.391,-0.185,0.494,-6.571,-112.483,15.232
16:23:01:787,44.890,-0.408,-0.200,0.485,-6.860,-111.525,16.523
16:23:01:888,44.991,-0.431,-0.224,0.526,-7.178,-110.105,18.193
16:23:01:95,45.053,-0.298,-0.324,0.479,-7.245,-107.478,19.861
16:23:01:95,45.053,-0.248,-0.336,0.511,-6.919,-106.266,20.161
16:23:01:95,45.053,-0.216,-0.208,0.607,-6.675,-105.445,20.109
16:23:02:158,45.261,-0.163,-0.142,0.586,-6.293,-103.966,19.653
16:23:02:159,45.262,-0.075,-0.079,0.572,-5.736,-102.730,18.804
16:23:02:16,45.263,-0.043,-0.050,0.594,-5.330,-102.085,18.039
16:23:02:161,45.264,-0.006,-0.075,0.575,-4.788,-101.493,16.649
16:23:02:238,45.341,0.040,-0.033,0.530,-4.531,-101.080,15.529
16:23:02:239,45.342,0.053,0.058,0.536,-4.388,-100.599,13.646
16:23:02:24,45.343,0.082,0.183,0.604,-4.553,-99.867,11.729
16:23:02:24,45.343,0.075,0.228,0.638,-4.835,-98.968,10.488
16:23:02:369,45.472,0.111,0.177,0.618,-5.440,-96.275,8.526
16:23:02:37,45.473,0.177,0.066,0.444,-5.900,-93.332,6.941
16:23:02:37,45.473,0.264,0.033,0.253,-6.447,-87.726,3.877
16:23:02:371,45.474,0.263,0.054,0.152,-6.623,-83.748,1.449
16:23:02:395,45.498,0.246,0.169,0.081,-6.493,-77.906,-2.560
16:23:02:396,45.499,0.243,0.392,-0.058,-5.807,-72.537,-6.656
16:23:02:396,45.499,0.325,0.378,-0.076,-5.018,-69.343,-9.331
16:23:02:397,45.500,0.196,0.148,-0.130,-3.342,-64.255,-13.551
16:23:02:422,45.525,0.258,0.247,-0.125,-2.089,-60.790,-16.351
16:23:02:423,45.526,0.230,0.283,-0.227,-0.600,-57.343,-21.229
16:23:02:424,45.527,0.333,0.290,-0.272,0.697,-54.980,-27.087
16:23:02:47,45.573,0.269,0.485,-0.361,4.096,-48.742,-38.181
16:23:02:471,45.574,0.235,0.491,-0.415,7.242,-44.765,-42.666
16:23:02:471,45.574,0.200,0.451,-0.427,15.393,-38.050,-49.267
16:23:02:521,45.624,0.065,0.406,-0.516,27.598,-31.495,-55.987
16:23:02:521,45.624,-0.103,0.240,-0.528,37.765,-27.446,-60.441
16:23:02:543,45.646,-0.069,0.206,-0.503,54.338,-22.782,-67.782
16:23:02:629,45.732,-0.227,-0.171,-0.386,65.201,-20.454,-72.926
16:23:02:629,45.732,-0.262,-0.248,-0.085,78.149,-17.976,-80.019
16:23:02:63,45.733,-0.330,-0.273,-0.081,87.650,-17.152,-87.589
16:23:02:737,45.840,-0.290,-0.419,0.085,92.336,-17.581,-92.758
16:23:02:737,45.840,-0.251,-0.284,0.013,97.459,-19.563,-100.620
16:23:02:738,45.841,-0.380,-0.326,-0.037,100.144,-21.416,-106.071
16:23:02:739,45.842,-0.333,-0.426,0.102,103.119,-25.090,-114.149
16:23:02:785,45.888,-0.297,-0.379,0.175,105.083,-29.405,-121.735
16:23:02:786,45.889,-0.316,-0.301,0.093,106.092,-32.108,-126.306
16:23:02:786,45.889,-0.217,-0.291,0.167,107.263,-35.887,-132.483
16:23:02:893,45.996,-0.245,-0.253,0.018,107.817,-38.012,-135.917
16:23:02:893,45.996,-0.235,-0.257,0.165,108.338,-42.042,-141.406
16:23:02:894,45.997,-0.275,-0.219,0.132,108.725,-45.921,-145.963
16:23:02:895,45.998,-0.282,-0.205,0.019,109.088,-46.924,-147.322
16:23:02:91,46.013,-0.188,-0.175,0.110,109.678,-47.985,-148.919
16:23:02:996,46.099,-0.138,-0.163,0.127,110.050,-49.011,-150.116
16:23:02:997,46.100,-0.136,-0.123,0.027,110.633,-49.578,-151.061
16:23:02:997,46.100,-0.105,-0.093,0.065,111.155,-50.285,-152.343
16:23:03:043,46.146,-0.087,-0.104,0.159,111.491,-51.154,-153.504
16:23:03:069,46.172,-0.073,-0.117,0.082,112.096,-51.305,-154.095
16:23:03:157,46.260,-0.107,-0.087,0.020,112.497,-50.973,-154.056
16:23:03:157,46.260,-0.106,-0.108,0.145,112.998,-51.097,-154.577
16:23:03:157,46.260,-0.096,-0.071,0.107,113.312,-51.084,-154.827
16:23:03:158,46.261,-0.096,-0.059,0.084,113.767,-50.394,-154.672
16:23:03:515,46.618,-0.088,-0.063,0.122,114.179,-50.163,-154.955
16:23:03:597,46.700,-0.081,-0.046,0.112,114.424,-49.994,-155.283
16:23:03:598,46.701,-0.086,-0.040,0.114,114.534,-49.844,-155.888
16:23:03:655,46.758,-0.098,-0.023,0.145,114.283,-50.057,-156.678
16:23:03:655,46.758,-0.085,-0.012,0.101,114.708,-50.213,-157.232
16:23:03:656,46.759,-0.056,0.001,0.132,115.223,-49.701,-157.757
16:23:03:657,46.760,-0.056,0.012,0.147,115.545,-49.783,-158.248
16:23:03:759,46.862,-0.072,0.046,0.109,116.019,-49.164,-158.817
16:23:03:76,46.863,-0.059,0.050,0.128,116.333,-49.136,-159.315
16:23:03:761,46.864,-0.047,0.084,0.119,116.796,-48.654,-160.177
16:23:03:787,46.890,-0.084,0.094,0.015,117.527,-47.040,-160.619
16:23:03:787,46.890,-0.091,0.054,0.012,117.831,-46.014,-160.336
16:23:03:788,46.891,-0.086,0.013,0.005,117.988,-45.086,-160.110
16:23:03:789,46.892,-0.073,-0.029,0.004,118.067,-44.382,-160.285
16:23:03:867,46.970,-0.065,-0.080,-0.012,117.983,-43.700,-161.094
16:23:03:868,46.971,-0.091,-0.082,-0.089,117.928,-42.816,-161.263
16:23:03:868,46.971,-0.134,-0.059,-0.076,117.914,-41.285,-160.937
16:23:03:869,46.972,-0.124,-0.071,-0.027,117.905,-40.595,-160.896
16:23:04:022,47.125,-0.088,-0.063,-0.009,117.942,-40.228,-161.090
16:23:04:023,47.126,-0.127,-0.033,-0.001,117.943,-39.300,-160.982
16:23:04:024,47.127,-0.126,-0.036,0.036,117.905,-38.894,-160.790
16:23:04:024,47.127,-0.096,-0.066,0.039,117.849,-37.743,-160.547
16:23:04:102,47.205,-0.074,-0.067,0.049,117.829,-37.124,-160.287
16:23:04:102,47.205,-0.071,-0.062,0.055,117.761,-35.702,-159.827
16:23:04:103,47.206,-0.063,-0.058,0.043,117.368,-34.658,-159.294
16:23:04:103,47.206,-0.044,-0.068,0.047,116.912,-33.231,-158.749
16:23:04:127,47.230,-0.028,-0.080,0.094,116.670,-32.713,-158.719
16:23:04:128,47.231,-0.024,-0.074,0.083,116.563,-32.198,-158.747
16:23:04:129,47.232,-0.018,-0.054,0.055,116.341,-31.405,-158.664
16:23:04:13,47.233,-0.067,-0.021,0.051,116.182,-30.598,-158.415
16:23:04:232,47.335,-0.060,-0.002,0.066,116.053,-30.518,-158.432
16:23:04:233,47.336,-0.010,0.028,0.073,115.779,-30.625,-158.851
16:23:04:259,47.362,-0.111,0.104,0.046,114.960,-31.149,-159.424
16:23:04:26,47.363,-0.120,0.115,0.102,114.544,-31.590,-159.991
16:23:04:261,47.364,-0.155,0.099,0.112,114.133,-32.489,-160.600
16:23:04:262,47.365,-0.138,0.100,0.104,113.892,-32.651,-160.698
16:23:04:302,47.406,-0.179,0.071,0.037,113.624,-31.637,-159.560
16:23:04:364,47.467,-0.234,0.040,0.032,113.413,-30.807,-158.564
16:23:04:365,47.468,-0.265,-0.005,0.033,113.052,-30.804,-158.044
16:23:04:541,47.644,-0.273,-0.099,0.021,112.697,-32.280,-158.932
16:23:04:542,47.645,-0.182,-0.115,0.074,112.888,-32.373,-158.663
16:23:04:575,47.678,-0.152,-0.106,0.090,113.259,-33.497,-158.767
16:23:04:575,47.678,-0.096,-0.066,0.052,113.632,-33.756,-158.416
16:23:04:576,47.679,-0.105,-0.049,0.047,113.828,-34.252,-158.139
16:23:04:576,47.679,-0.106,-0.066,0.051,114.018,-34.749,-158.173
16:23:04:674,47.777,-0.103,-0.060,0.042,113.713,-35.118,-157.768
16:23:04:674,47.777,-0.094,-0.060,0.083,113.317,-35.309,-157.365
16:23:04:732,47.835,-0.096,-0.061,0.080,113.690,-35.965,-157.308
16:23:04:733,47.836,-0.078,-0.055,0.078,113.754,-36.059,-157.175
16:23:04:733,47.836,-0.039,-0.053,0.115,114.184,-36.724,-157.232
16:23:04:734,47.837,-0.017,-0.049,0.110,114.447,-36.744,-157.210
16:23:04:81,47.913,-0.008,-0.028,0.081,114.813,-36.852,-157.032
16:23:04:811,47.914,-0.024,-0.023,0.070,115.084,-36.952,-157.443
16:23:04:812,47.915,-0.019,-0.042,0.101,115.244,-37.630,-158.024
16:23:04:813,47.916,0.008,-0.010,0.093,115.539,-37.961,-158.803
16:23:04:837,47.940,0.019,0.055,0.054,115.735,-38.456,-159.207
16:23:04:837,47.940,0.015,0.091,0.074,115.984,-38.536,-160.052
16:23:04:837,47.941,-0.011,0.125,0.011,116.203,-38.872,-160.987
16:23:04:838,47.942,-0.013,0.157,-0.033,116.336,-38.703,-161.641
16:23:04:856,47.959,-0.019,0.143,-0.078,116.485,-38.465,-162.249
16:23:04:857,47.960,-0.076,0.130,-0.121,116.544,-37.594,-162.080
16:23:04:933,48.036,-0.083,0.077,-0.119,116.578,-36.856,-162.086
16:23:04:993,48.096,-0.011,0.005,-0.069,116.556,-36.321,-162.552
16:23:04:994,48.097,-0.014,-0.056,-0.085,116.503,-35.249,-163.073
16:23:04:995,48.098,-0.082,-0.079,-0.164,116.477,-33.558,-162.988
16:23:04:995,48.098,-0.102,-0.075,-0.186,116.522,-32.031,-162.851
16:23:05:039,48.142,-0.053,-0.083,-0.109,116.616,-30.949,-163.214
16:23:05:04,48.143,-0.066,-0.094,-0.072,116.690,-29.890,-163.368
16:23:05:092,48.195,-0.093,-0.064,-0.086,116.762,-27.950,-163.083
16:23:05:093,48.196,-0.093,-0.063,-0.048,116.659,-25.988,-162.958
16:23:05:144,48.247,-0.097,-0.067,-0.031,116.509,-25.270,-163.014
16:23:05:172,48.275,-0.130,-0.049,-0.056,116.255,-23.443,-163.052
16:23:05:172,48.275,-0.103,-0.049,-0.044,116.082,-22.799,-163.362
16:23:05:194,48.297,-0.075,-0.061,-0.019,115.813,-21.809,-164.096
16:23:05:22,48.323,-0.074,-0.051,-0.036,115.627,-20.643,-164.511
16:23:05:334,48.437,-0.089,-0.030,-0.043,115.534,-19.754,-164.689
16:23:05:335,48.438,-0.040,-0.031,0.001,115.320,-18.649,-164.940
16:23:05:335,48.439,-0.054,-0.029,-0.028,115.214,-18.052,-165.332
16:23:05:336,48.440,-0.059,-0.014,-0.040,115.056,-17.144,-165.778
16:23:05:409,48.512,-0.064,0.018,-0.008,114.819,-16.583,-166.341
16:23:05:41,48.513,-0.047,0.032,0.018,114.610,-16.699,-167.114
16:23:05:434,48.537,-0.067,0.037,0.021,114.267,-16.809,-168.178
16:23:05:435,48.538,-0.068,0.039,0.034,114.015,-16.952,-168.910
16:23:05:457,48.560,-0.095,0.052,0.040,113.573,-17.292,-170.095
16:23:05:483,48.586,-0.127,0.086,0.048,113.079,-17.783,-171.392
16:23:05:51,48.613,-0.078,0.065,0.070,112.700,-18.516,-172.590
16:23:05:536,48.639,-0.091,0.025,0.042,112.177,-18.841,-173.594
16:23:05:562,48.665,-0.186,0.018,0.033,111.903,-18.537,-173.670
16:23:05:588,48.691,-0.184,-0.026,0.021,111.498,-18.792,-174.443
16:23:05:645,48.748,-0.221,-0.034,0.060,111.220,-19.369,-175.353
16:23:05:645,48.748,-0.221,-0.053,0.091,110.886,-20.836,-177.228
16:23:05:667,48.770,-0.204,-0.067,0.051,110.908,-20.306,-176.981
16:23:05:693,48.796,-0.084,-0.061,0.022,111.026,-19.742,-176.526
16:23:05:778,48.881,-0.052,-0.055,0.019,111.106,-19.050,-176.281
16:23:05:778,48.881,-0.108,-0.040,-0.027,111.062,-17.332,-175.240
16:23:05:779,48.882,-0.146,-0.018,-0.039,111.027,-15.810,-174.624
16:23:05:828,48.931,-0.082,-0.068,-0.003,111.051,-15.102,-174.667
16:23:05:828,48.931,-0.057,-0.097,-0.005,111.146,-14.433,-174.650
16:23:05:938,49.041,-0.084,-0.080,0.007,111.329,-13.414,-174.266
16:23:05:939,49.042,-0.068,-0.047,0.042,111.482,-12.490,-174.062
16:23:05:939,49.042,-0.055,-0.045,0.033,111.605,-11.558,-173.607
16:23:06:014,49.117,-0.063,-0.056,0.032,111.823,-7.556,-170.889
16:23:06:015,49.118,-0.063,-0.056,0.035,111.766,-5.252,-169.423
16:23:06:015,49.118,-0.030,-0.043,0.030,111.726,-4.286,-168.967
16:23:06:061,49.164,-0.035,-0.023,0.033,111.735,-3.186,-168.734
16:23:06:119,49.222,-0.018,-0.013,0.069,111.842,-2.407,-168.808
16:23:06:119,49.222,-0.024,-0.013,0.022,111.967,-1.282,-168.428
16:23:06:12,49.223,-0.020,0.021,0.011,112.202,0.479,-167.660
16:23:06:168,49.271,-0.012,0.031,0.015,112.325,1.466,-167.380
16:23:06:169,49.272,-0.027,0.039,0.013,112.502,2.991,-167.071
16:23:06:306,49.409,-0.064,0.030,0.006,112.723,4.765,-166.757
16:23:06:307,49.410,-0.038,0.023,-0.005,112.903,5.627,-166.865
16:23:06:308,49.411,-0.033,-0.027,-0.032,113.196,7.158,-166.937
16:23:06:308,49.411,-0.087,-0.047,-0.033,113.398,8.761,-166.410
16:23:06:411,49.514,-0.172,-0.045,-0.033,113.738,11.977,-164.848
16:23:06:412,49.515,-0.100,-0.068,-0.065,114.079,14.807,-163.280
16:23:06:412,49.515,-0.094,-0.106,-0.100,114.307,16.859,-162.094
16:23:06:433,49.536,-0.188,-0.024,-0.096,114.596,22.621,-159.038
16:23:06:434,49.537,-0.134,-0.042,-0.050,114.562,25.165,-157.579
16:23:06:484,49.587,-0.102,-0.048,-0.075,114.540,28.111,-155.630
16:23:06:485,49.588,-0.093,-0.049,-0.081,114.446,30.293,-154.143
16:23:06:507,49.610,-0.019,-0.114,-0.061,114.103,33.740,-151.675
16:23:06:533,49.636,0.002,-0.160,-0.053,113.749,36.509,-149.464
16:23:06:559,49.662,0.017,-0.232,-0.032,113.092,41.344,-145.318
16:23:06:586,49.689,-0.030,-0.314,0.049,112.267,46.543,-140.517
16:23:06:612,49.715,0.082,-0.443,0.021,111.652,49.868,-137.161
16:23:06:638,49.741,0.098,-0.476,0.000,110.619,55.232,-131.106
16:23:06:696,49.799,0.071,-0.492,-0.019,109.793,59.201,-126.311
16:23:06:696,49.799,0.028,-0.489,0.023,108.141,65.221,-118.478
16:23:06:747,49.850,-0.127,-0.360,0.150,105.672,70.462,-110.484
16:23:06:748,49.851,-0.251,-0.229,0.226,103.568,72.948,-105.750
16:23:06:936,50.039,-0.120,-0.350,0.247,98.917,75.159,-98.993
16:23:06:937,50.040,-0.385,-0.158,0.304,94.656,76.079,-94.294
16:23:06:937,50.040,-0.518,0.002,0.351,86.822,76.600,-87.469
16:23:06:938,50.041,-0.360,-0.220,0.484,76.761,76.462,-80.457
16:23:06:954,50.057,-0.358,-0.197,0.483,68.475,75.965,-75.423
16:23:07:095,50.198,-0.585,0.073,0.524,53.842,73.829,-68.541
16:23:07:095,50.198,-0.766,0.186,0.560,42.288,71.093,-64.179
16:23:07:096,50.199,-0.942,0.290,0.440,23.917,64.855,-57.127
16:23:07:096,50.199,-0.872,0.589,0.227,7.960,56.231,-49.308
16:23:07:121,50.224,-0.591,0.727,0.077,0.231,49.267,-43.533
16:23:07:121,50.224,0.009,0.695,-0.043,-6.494,37.754,-34.483
16:23:07:121,50.224,0.262,0.523,-0.063,-7.985,30.604,-28.967
16:23:07:122,50.225,0.206,0.334,-0.024,-6.954,23.565,-22.262
16:23:07:143,50.246,-0.063,0.309,-0.063,-4.347,21.604,-17.609
16:23:07:144,50.247,-0.068,0.313,-0.134,-2.686,22.092,-15.203
16:23:07:144,50.247,-0.069,0.256,-0.197,-0.710,23.913,-12.458
16:23:07:189,50.292,-0.038,0.185,-0.222,0.242,25.190,-11.056
16:23:07:217,50.320,-0.008,0.108,-0.248,1.191,26.452,-9.274
16:23:07:33,50.433,0.060,-0.037,-0.218,1.784,26.368,-7.418
16:23:07:331,50.434,0.179,-0.069,-0.241,2.097,25.477,-6.178
16:23:07:332,50.435,0.195,-0.070,-0.222,2.592,23.736,-4.170
16:23:07:333,50.436,0.200,-0.119,-0.193,3.013,22.576,-2.781
16:23:07:35,50.453,0.249,-0.151,-0.192,3.727,20.938,-0.775
16:23:07:351,50.454,0.253,-0.160,-0.207,4.425,19.566,1.178
16:23:07:461,50.564,0.283,-0.205,-0.216,4.849,18.663,2.306
16:23:07:462,50.565,0.337,-0.221,-0.214,5.313,17.371,3.685
16:23:07:462,50.565,0.374,-0.109,-0.238,5.405,16.769,4.464
16:23:07:463,50.566,0.388,-0.106,-0.235,5.252,16.222,5.344
16:23:07:478,50.581,0.384,-0.136,-0.246,4.985,16.562,5.700
16:23:07:645,50.748,0.359,-0.097,-0.242,4.053,16.765,5.139
16:23:07:646,50.749,0.344,-0.021,-0.251,3.054,17.425,4.869
16:23:07:646,50.749,0.370,0.074,-0.243,2.257,17.640,4.434
16:23:07:647,50.750,0.457,0.217,-0.290,0.916,18.462,3.449
16:23:07:668,50.771,0.476,0.269,-0.307,0.000,19.307,2.642
16:23:07:669,50.772,0.291,0.149,-0.269,-1.236,21.623,1.056
16:23:07:669,50.772,0.151,-0.081,-0.183,-2.254,23.962,-1.438
16:23:07:746,50.849,0.211,-0.129,-0.167,-2.965,24.712,-3.561
16:23:07:747,50.850,0.203,0.031,-0.120,-4.220,26.254,-7.296
16:23:07:748,50.851,0.097,0.257,-0.116,-4.966,27.904,-10.096
16:23:07:855,50.958,0.007,0.437,-0.124,-5.564,31.141,-14.437
16:23:07:855,50.958,-0.162,0.525,-0.059,-5.338,35.131,-18.735
16:23:07:856,50.959,-0.275,0.458,0.061,-4.723,37.975,-21.644
16:23:07:901,51.004,-0.466,0.143,0.233,-2.788,42.900,-29.368
16:23:07:902,51.005,-0.426,0.056,0.174,-2.687,43.387,-34.276
16:23:07:924,51.027,-0.450,-0.035,0.198,-3.345,43.329,-39.323
16:23:07:951,51.054,-0.471,-0.103,0.224,-3.937,43.372,-42.621
16:23:08:117,51.220,-0.406,-0.235,0.241,-4.822,43.640,-47.331
16:23:08:118,51.221,-0.369,-0.328,0.232,-5.355,43.921,-50.322
16:23:08:119,51.222,-0.368,-0.358,0.223,-5.959,44.361,-54.424
16:23:08:119,51.222,-0.394,-0.390,0.253,-6.013,44.912,-57.812
16:23:08:142,51.245,-0.416,-0.405,0.269,-5.568,45.308,-59.616
16:23:08:143,51.246,-0.439,-0.382,0.273,-5.436,45.584,-58.130
16:23:08:143,51.246,-0.464,-0.382,0.265,-4.788,45.682,-58.673
16:23:08:219,51.322,-0.440,-0.371,0.269,-4.431,45.382,-58.446
16:23:08:22,51.323,-0.400,-0.256,0.282,-5.658,44.406,-54.850
16:23:08:221,51.324,-0.415,-0.171,0.315,-6.224,43.575,-53.076
16:23:08:241,51.344,-0.476,-0.021,0.328,-6.694,42.058,-49.294
16:23:08:356,51.459,-0.501,0.119,0.324,-6.629,40.899,-46.092
16:23:08:356,51.459,-0.409,0.151,0.235,-5.959,39.169,-40.366
16:23:08:356,51.459,-0.211,0.047,0.162,-5.270,38.121,-36.321
16:23:08:356,51.459,-0.088,0.019,0.101,-4.176,36.779,-30.410
16:23:08:459,51.562,-0.097,0.098,0.072,-3.031,35.965,-25.091
16:23:08:459,51.562,-0.145,0.197,-0.008,-2.289,35.664,-21.819
16:23:08:459,51.562,-0.138,0.240,-0.046,-1.520,35.260,-17.550
16:23:08:46,51.563,-0.034,0.290,-0.087,-1.205,34.876,-14.982
16:23:08:476,51.579,0.025,0.264,-0.110,-1.158,33.547,-11.735
16:23:08:59,51.693,0.123,0.114,-0.174,-1.264,32.333,-8.916
16:23:08:59,51.693,0.185,0.083,-0.195,-1.379,31.369,-7.117
16:23:08:591,51.694,0.279,0.056,-0.213,-1.516,30.556,-4.414
16:23:08:592,51.695,0.285,0.035,-0.215,-1.564,29.897,-2.655
16:23:08:723,51.826,0.340,-0.045,-0.237,-1.548,29.560,-0.113
16:23:08:723,51.826,0.359,-0.072,-0.234,-1.532,29.309,2.232
16:23:08:724,51.827,0.320,-0.101,-0.206,-1.520,29.153,3.552
16:23:08:724,51.827,0.356,-0.178,-0.204,-1.480,28.283,5.071
16:23:08:898,52.001,0.379,-0.185,-0.207,-1.481,27.588,5.786
16:23:08:957,52.060,0.397,-0.138,-0.207,-1.553,26.120,6.492
16:23:08:958,52.061,0.447,-0.090,-0.220,-1.669,25.235,6.850
16:23:08:959,52.062,0.472,-0.075,-0.223,-1.770,24.456,6.963
16:23:08:96,52.063,0.411,-0.045,-0.202,-2.005,24.411,6.927
16:23:08:984,52.087,0.378,-0.035,-0.198,-2.217,24.419,6.723
16:23:08:985,52.088,0.386,-0.024,-0.200,-2.676,24.726,6.114
16:23:08:986,52.089,0.370,0.030,-0.203,-3.308,25.045,5.207
16:23:08:987,52.090,0.381,0.097,-0.200,-3.783,25.667,4.438
16:23:09:115,52.218,0.402,0.203,-0.250,-4.428,26.884,3.162
16:23:09:116,52.219,0.405,0.215,-0.270,-4.753,28.179,2.236
16:23:09:116,52.219,0.305,0.057,-0.258,-4.996,31.053,0.537
16:23:09:117,52.220,0.121,-0.080,-0.189,-5.016,33.373,-0.994
16:23:09:141,52.244,0.066,-0.074,-0.162,-4.898,36.748,-3.937
16:23:09:142,52.245,0.070,0.007,-0.098,-4.646,39.700,-7.533
16:23:09:142,52.245,0.000,0.144,-0.099,-4.300,41.545,-10.142
16:23:09:143,52.246,-0.071,0.264,-0.085,-3.505,44.199,-13.963
16:23:09:187,52.290,-0.184,0.404,-0.075,-2.314,46.216,-17.570
16:23:09:188,52.291,-0.276,0.328,-0.008,-1.299,47.419,-19.856
16:23:09:211,52.314,-0.359,0.128,0.074,0.139,48.371,-23.372
16:23:09:266,52.369,-0.340,0.042,0.091,0.723,48.338,-25.849
16:23:09:269,52.372,-0.342,-0.050,0.100,1.125,47.977,-29.885
16:23:09:316,52.419,-0.357,-0.138,0.113,1.104,47.592,-34.077
16:23:09:374,52.477,-0.368,-0.163,0.118,0.934,47.430,-36.849
16:23:09:375,52.478,-0.375,-0.224,0.139,0.728,47.497,-40.787
16:23:09:376,52.479,-0.355,-0.295,0.153,0.749,47.793,-43.181
16:23:09:457,52.560,-0.341,-0.319,0.154,1.025,48.509,-46.244
16:23:09:457,52.560,-0.354,-0.331,0.184,1.727,49.457,-48.457
16:23:09:457,52.560,-0.367,-0.325,0.215,2.372,50.125,-49.402
16:23:09:458,52.561,-0.365,-0.303,0.223,2.674,50.923,-49.017
16:23:09:5,52.603,-0.407,-0.268,0.238,2.996,51.180,-48.711
16:23:09:719,52.822,-0.458,-0.177,0.301,2.739,51.025,-47.289
16:23:09:719,52.822,-0.465,-0.048,0.337,1.720,50.277,-44.721
16:23:09:72,52.823,-0.442,0.062,0.346,0.921,49.580,-42.459
16:23:09:721,52.824,-0.395,0.204,0.328,0.026,48.473,-38.309
16:23:09:738,52.841,-0.400,0.315,0.304,-0.333,47.730,-35.085
16:23:09:798,52.901,-0.369,0.248,0.196,-0.634,46.553,-29.833
16:23:09:799,52.902,-0.144,0.010,0.060,-0.870,45.626,-26.370
16:23:09:8,52.903,0.067,-0.127,-0.039,-1.258,44.294,-21.439
16:23:09:801,52.904,0.090,-0.038,-0.011,-1.445,44.318,-17.008
16:23:09:82,52.923,-0.006,0.112,-0.039,-1.491,44.474,-14.369
16:23:09:821,52.924,-0.052,0.247,-0.116,-1.581,44.915,-10.852
16:23:09:822,52.925,-0.037,0.337,-0.140,-1.724,44.755,-8.723
16:23:09:845,52.948,0.071,0.151,-0.193,-1.931,43.707,-6.013
16:23:09:845,52.948,0.154,-0.028,-0.170,-2.095,41.656,-3.681
16:23:09:895,52.998,0.192,-0.062,-0.186,-2.196,39.826,-2.258
16:23:09:951,53.054,0.286,-0.088,-0.253,-2.226,36.196,-0.413
16:23:09:952,53.055,0.320,-0.080,-0.250,-2.180,33.939,0.693
16:23:09:953,53.056,0.334,-0.072,-0.254,-2.039,31.018,2.194
16:23:10:031,53.134,0.365,-0.103,-0.231,-1.975,28.813,1.954
16:23:10:031,53.134,0.354,-0.116,-0.204,-1.951,27.760,1.955
16:23:10:032,53.135,0.340,-0.144,-0.170,-1.910,26.546,2.920
