Time,Second,AccelerationX,AccelerationY,AccelerationZ,EulerAnglesX,EulerAnglesY,EulerAnglesZ
16:34:36:291,0.000,0.001,-0.007,-0.002,-7.619,-79.008,3.310
16:34:36:852,0.561,0.009,-0.007,-0.001,-7.641,-78.999,3.308
16:34:36:853,0.562,0.000,-0.007,-0.006,-7.650,-78.987,3.311
16:34:36:854,0.563,0.006,-0.001,0.001,-7.726,-78.973,3.413
16:34:36:855,0.564,0.009,-0.005,0.000,-7.722,-78.974,3.422
16:34:37:82,1.529,0.010,-0.007,-0.004,-7.725,-78.974,3.493
16:34:37:821,1.530,0.003,-0.005,0.007,-7.935,-78.939,3.522
16:34:37:821,1.530,0.009,-0.002,-0.007,-7.931,-78.940,3.531
16:34:38:234,1.943,0.006,-0.014,-0.008,-7.929,-78.936,3.536
16:34:38:793,2.502,0.004,-0.006,-0.004,-7.938,-78.936,3.540
16:34:38:794,2.503,0.014,-0.006,-0.007,-8.260,-79.155,3.968
16:34:38:794,2.503,0.004,-0.008,-0.002,-8.278,-79.157,3.965
16:34:38:795,2.504,0.018,-0.003,-0.004,-8.309,-79.159,3.968
16:34:39:205,2.914,0.009,0.001,-0.007,-8.320,-79.164,3.968
16:34:39:391,3.100,0.003,-0.005,-0.010,-8.683,-79.339,3.819
16:34:39:764,3.474,0.017,-0.006,0.000,-8.765,-79.045,2.939
16:34:39:765,3.474,0.007,-0.009,-0.002,-8.768,-79.007,2.943
16:34:39:766,3.475,0.017,-0.007,-0.011,-8.769,-78.985,2.941
16:34:39:766,3.475,0.001,-0.005,-0.005,-8.461,-78.963,3.586
16:34:40:735,4.444,0.003,-0.006,-0.007,-8.464,-78.957,3.592
16:34:40:736,4.445,-0.001,-0.002,-0.020,-8.483,-78.961,3.612
16:34:40:737,4.446,0.004,-0.008,-0.017,-8.545,-78.989,4.066
16:34:40:738,4.447,0.002,-0.014,-0.006,-9.208,-79.268,3.504
16:34:41:594,5.303,0.006,-0.006,-0.018,-9.236,-79.298,3.454
16:34:42:678,6.387,0.009,-0.002,-0.019,-9.269,-79.334,3.402
16:34:42:679,6.388,-0.003,-0.013,-0.005,-9.266,-79.352,3.370
16:34:42:68,6.389,-0.011,-0.006,0.004,-8.858,-79.430,3.397
16:34:42:681,6.390,0.006,-0.001,-0.008,-8.864,-79.401,3.359
16:34:43:647,7.356,-0.001,0.004,0.000,-8.875,-79.319,3.243
16:34:43:648,7.357,0.005,-0.009,-0.007,-9.300,-79.285,2.633
16:34:43:649,7.358,0.006,-0.009,-0.012,-9.190,-79.294,2.851
16:34:44:061,7.770,0.002,-0.009,-0.005,-9.190,-79.294,2.851
16:34:44:089,7.798,0.005,-0.006,-0.004,-9.199,-79.294,2.855
16:34:44:219,7.928,-0.002,-0.009,-0.019,-9.195,-79.295,2.864
16:34:44:639,8.348,-0.005,-0.006,-0.009,-9.522,-79.121,2.883
16:34:44:771,8.480,0.013,-0.008,-0.027,-9.628,-78.976,2.883
16:34:45:034,8.743,0.008,-0.005,-0.017,-9.660,-78.968,2.886
16:34:45:06,8.769,0.012,-0.004,-0.009,-9.823,-78.909,2.794
16:34:45:297,9.006,0.003,-0.011,-0.014,-9.817,-78.906,2.797
16:34:45:298,9.007,0.005,-0.005,-0.007,-9.812,-78.926,2.796
16:34:45:855,9.564,0.000,-0.004,-0.009,-9.809,-78.956,2.777
16:34:45:855,9.564,0.009,-0.003,-0.016,-10.104,-78.879,2.693
16:34:45:856,9.565,0.006,-0.004,-0.004,-10.111,-78.876,2.690
16:34:45:857,9.566,0.008,-0.005,-0.006,-10.111,-78.886,2.680
16:34:45:959,9.668,-0.003,-0.009,0.000,-10.111,-78.886,2.680
16:34:45:96,9.669,0.006,-0.005,-0.015,-10.043,-78.891,2.468
16:34:45:961,9.670,-0.002,-0.007,-0.005,-10.074,-78.623,2.525
16:34:45:961,9.670,0.006,-0.005,0.000,-10.074,-78.623,2.525
16:34:45:986,9.695,0.000,-0.016,0.001,-10.074,-78.623,2.525
16:34:45:986,9.695,0.009,-0.004,-0.010,-10.072,-78.619,2.529
16:34:45:987,9.696,0.001,-0.010,-0.003,-10.117,-78.624,2.835
16:34:45:988,9.697,0.002,-0.010,0.000,-10.117,-78.624,2.835
16:34:46:012,9.721,0.004,-0.004,-0.004,-10.130,-78.624,2.829
16:34:46:012,9.721,-0.016,-0.011,0.003,-10.002,-78.829,3.048
16:34:46:013,9.722,0.002,-0.007,-0.009,-10.000,-78.831,3.090
16:34:46:014,9.723,-0.002,0.003,0.006,-9.913,-78.789,3.334
16:34:46:092,9.801,0.000,0.019,-0.020,-7.901,-80.184,3.983
16:34:46:092,9.801,0.018,0.105,0.074,-4.172,-82.373,6.813
16:34:46:092,9.801,0.331,-0.343,0.275,3.737,-83.234,17.023
16:34:46:093,9.802,0.432,-0.434,0.472,3.082,-82.445,17.192
16:34:46:248,9.957,-0.506,0.165,-0.255,-11.138,-87.445,5.378
16:34:46:248,9.957,-0.545,0.160,-0.457,-11.813,-87.030,4.618
16:34:46:3,10.010,0.011,0.342,0.651,15.646,-80.770,40.445
16:34:46:301,10.010,0.986,0.706,1.083,17.804,-79.593,45.980
16:34:46:302,10.011,1.113,-0.100,1.060,18.634,-77.425,49.353
16:34:46:303,10.012,0.061,-0.329,0.591,19.891,-72.634,53.709
16:34:46:432,10.141,0.820,-0.843,0.614,19.351,-70.918,55.458
16:34:46:433,10.142,0.958,-0.840,0.647,16.552,-72.078,54.925
16:34:46:434,10.143,0.296,-0.991,0.248,14.825,-72.420,51.708
16:34:46:435,10.144,0.253,-0.683,0.338,12.477,-73.242,48.047
16:34:46:459,10.169,0.395,-0.594,0.442,7.871,-74.915,40.589
16:34:46:46,10.169,0.549,-0.274,0.451,4.361,-76.055,35.044
16:34:46:461,10.170,0.482,0.067,0.293,-0.458,-78.137,26.476
16:34:46:511,10.220,-0.432,0.799,-0.281,-5.967,-83.690,12.894
16:34:46:512,10.221,-0.982,0.430,-0.641,-7.786,-85.474,6.812
16:34:46:512,10.221,-1.193,0.211,-2.099,-8.369,-85.523,5.279
16:34:46:538,10.247,-0.600,0.409,-3.597,-9.340,-82.242,4.107
16:34:46:538,10.247,-3.191,-0.292,-2.613,-9.123,-80.774,6.637
16:34:46:539,10.248,0.123,1.748,-1.288,-12.158,-78.672,3.560
16:34:46:539,10.248,-0.086,0.343,-0.982,-10.845,-77.795,5.831
16:34:46:559,10.268,-0.290,0.739,0.405,-7.176,-76.139,6.868
16:34:46:559,10.268,-0.123,0.507,0.049,-6.675,-75.454,8.207
16:34:46:643,10.352,-0.207,0.287,-0.096,-5.543,-75.423,10.681
16:34:46:643,10.352,0.184,0.338,0.320,-5.428,-75.983,13.596
16:34:46:644,10.353,0.564,0.660,0.687,-5.966,-76.243,15.814
16:34:46:644,10.354,0.774,0.354,0.704,-5.064,-76.206,20.311
16:34:46:664,10.373,0.615,-0.307,0.339,-2.291,-76.876,22.570
16:34:46:665,10.374,-0.003,-0.271,0.466,2.902,-79.243,25.430
16:34:46:666,10.375,-0.121,-0.268,0.587,5.678,-80.441,27.258
16:34:46:957,10.666,-0.229,-0.297,0.436,9.433,-80.861,31.142
16:34:46:958,10.667,-0.632,-0.235,0.333,12.574,-79.341,35.388
16:34:46:959,10.668,-0.407,-0.378,0.401,14.109,-76.776,38.451
16:34:47:011,10.720,1.177,-0.373,0.591,15.539,-71.004,47.620
16:34:47:012,10.721,0.430,1.365,0.433,13.746,-67.581,53.205
16:34:47:013,10.722,1.524,-1.555,1.462,11.099,-66.734,52.695
16:34:47:014,10.723,0.677,-0.411,0.385,13.640,-66.815,53.029
16:34:47:062,10.771,0.707,-0.708,0.328,16.118,-66.720,50.240
16:34:47:062,10.771,0.250,-0.853,0.152,15.862,-65.940,46.864
16:34:47:063,10.772,0.469,-0.639,0.138,12.480,-65.687,39.591
16:34:47:064,10.773,0.614,-0.454,0.213,9.835,-66.094,34.129
16:34:47:187,10.896,0.599,-0.085,0.032,5.323,-66.057,26.185
16:34:47:188,10.897,0.572,0.168,0.016,0.963,-65.115,17.641
16:34:47:219,10.929,0.478,0.411,0.035,-1.519,-65.052,12.384
16:34:47:22,10.929,0.090,0.539,-0.696,-5.041,-65.895,5.806
16:34:47:221,10.930,-0.891,0.454,-0.573,-7.414,-66.221,2.234
16:34:47:221,10.931,-2.132,-0.279,-1.761,-9.662,-65.306,-1.011
16:34:47:245,10.954,-1.724,-0.625,-1.297,-11.835,-62.783,-3.286
16:34:47:246,10.955,-2.312,0.086,-2.710,-11.776,-61.593,-2.853
16:34:47:247,10.956,0.464,-1.033,-0.378,-9.664,-59.557,0.560
16:34:47:248,10.957,-0.844,2.452,0.328,-10.597,-55.807,-3.013
16:34:47:349,11.058,-0.755,-0.872,2.094,-4.292,-57.696,0.049
16:34:47:35,11.059,-0.036,0.522,-0.219,-4.044,-57.298,2.854
16:34:47:351,11.060,-0.175,0.060,-0.183,-3.084,-57.537,4.374
16:34:47:352,11.061,0.167,0.233,0.218,154.315,151.474,-179.310
16:34:47:423,11.132,0.260,0.687,0.577,-1.363,-58.484,7.877
16:34:47:5,11.209,0.450,0.505,0.340,-1.117,-58.666,11.070
16:34:47:535,11.244,1.118,0.412,0.208,-0.645,-58.579,14.002
16:34:47:536,11.245,0.425,-0.157,-0.176,2.832,-58.904,18.211
16:34:47:537,11.246,0.185,-0.170,0.314,8.095,-60.596,20.972
16:34:47:537,11.246,0.213,-0.397,0.854,11.633,-61.222,22.759
16:34:47:553,11.262,-0.048,0.026,0.888,16.392,-60.984,26.873
16:34:47:684,11.393,0.210,-0.112,0.953,19.267,-58.753,30.603
16:34:47:928,11.637,0.248,-0.266,0.731,22.862,-53.039,37.184
16:34:47:929,11.638,0.803,-0.447,0.011,24.930,-47.082,43.770
16:34:47:929,11.638,1.014,-0.126,-0.348,25.224,-42.729,47.944
16:34:47:93,11.639,1.739,-0.090,0.144,22.146,-37.891,50.655
16:34:48:655,12.364,1.317,-0.658,-0.199,21.873,-36.298,49.873
16:34:48:734,12.443,0.873,-0.613,-0.267,24.495,-35.236,48.094
16:34:48:97,12.679,0.797,-0.882,-0.133,24.135,-33.637,42.860
16:34:49:052,12.761,0.862,-0.809,-0.397,20.977,-32.137,37.752
16:34:49:053,12.762,0.877,-0.267,-0.802,14.781,-29.966,29.712
16:34:49:084,12.793,0.467,-0.041,-0.964,10.704,-28.869,24.683
16:34:49:084,12.793,0.560,0.279,-0.888,5.259,-27.147,16.810
16:34:49:085,12.794,-0.067,0.497,-0.643,1.646,-25.747,9.245
16:34:49:127,12.836,-1.741,-0.014,0.117,-4.729,-23.578,0.376
16:34:49:162,12.871,-2.037,-0.113,-0.001,-6.188,-21.180,-1.839
16:34:49:163,12.872,-2.579,-0.708,0.139,-7.894,-17.299,-2.166
16:34:49:163,12.872,-4.772,-1.088,2.741,-7.477,-14.680,-1.689
16:34:49:164,12.873,3.806,-0.921,-3.067,-6.775,-10.114,-1.017
16:34:49:293,13.002,-1.269,0.322,0.507,-3.549,-9.612,-0.669
16:34:49:294,13.003,0.035,0.150,0.293,0.028,-10.611,0.438
16:34:49:294,13.004,-0.181,0.279,-0.399,0.324,-10.171,3.064
16:34:49:295,13.004,-0.160,0.321,-0.276,1.328,-10.375,4.486
16:34:49:346,13.055,0.238,0.513,-0.083,2.384,-10.472,6.693
16:34:49:346,13.055,0.733,0.869,-0.117,2.936,-10.366,10.224
16:34:49:347,13.056,0.969,0.593,-0.554,3.574,-10.249,13.461
16:34:49:348,13.057,0.788,-0.068,-0.681,7.146,-10.841,18.326
16:34:49:369,13.079,-2.640,-0.461,1.687,-10.728,10.618,-3.308
16:34:49:37,13.080,0.028,-0.812,1.066,-8.923,12.619,-1.128
16:34:49:371,13.080,0.695,-0.122,0.280,13.372,10.684,27.086
16:34:49:426,13.135,0.893,-0.166,-0.197,17.247,13.350,32.316
16:34:49:426,13.135,0.507,-0.326,-0.236,19.665,16.339,35.991
16:34:49:426,13.135,0.127,-0.427,-0.474,22.539,21.030,41.797
16:34:49:427,13.136,-0.142,0.455,0.056,24.401,24.412,45.174
16:34:49:451,13.160,0.621,-0.454,-1.809,23.907,25.413,46.685
16:34:49:453,13.162,0.284,-0.343,-1.312,27.733,24.837,46.503
16:34:49:453,13.162,0.351,-0.805,-0.701,29.943,24.644,44.191
16:34:49:477,13.186,0.190,-0.655,-0.723,24.439,25.206,32.083
16:34:49:477,13.186,-0.083,-0.399,-0.954,19.474,26.301,27.733
16:34:49:478,13.187,-0.616,0.011,-0.724,11.710,28.836,21.868
16:34:49:479,13.188,-0.624,0.151,-0.656,6.970,30.469,17.393
16:34:49:555,13.265,-0.586,0.483,-0.415,1.310,32.084,9.772
16:34:49:556,13.265,-0.433,0.425,0.233,-2.696,31.738,3.688
16:34:49:557,13.267,-1.880,1.277,1.780,-5.630,30.797,1.992
16:34:49:573,13.282,-2.445,0.437,2.584,-7.743,36.251,-1.580
16:34:49:604,13.313,-0.416,-0.199,5.569,-5.617,40.176,-0.556
16:34:49:605,13.314,-1.185,0.591,-2.424,-5.885,42.170,-0.448
16:34:49:606,13.315,-0.698,1.752,3.828,-8.275,44.208,1.512
16:34:49:712,13.421,0.914,-0.701,0.311,-0.949,42.965,1.167
16:34:49:713,13.422,-0.442,0.250,-0.058,-0.832,43.638,2.898
16:34:49:714,13.423,-0.127,-0.048,0.217,0.699,43.888,4.817
16:34:49:715,13.424,0.201,0.516,0.058,1.393,43.991,5.942
16:34:49:73,13.439,0.401,0.718,-0.450,1.764,43.924,8.253
16:34:49:757,13.466,-0.210,0.333,-0.805,1.960,44.173,11.881
16:34:49:784,13.493,-0.518,0.234,-0.694,2.366,44.359,15.114
16:34:49:867,13.576,-0.378,-0.179,-0.471,4.863,44.248,18.939
16:34:49:867,13.577,0.222,-0.385,-0.447,7.863,43.035,20.000
16:34:49:868,13.578,0.668,-0.225,-0.226,12.657,41.794,22.086
16:34:49:887,13.596,0.645,-0.174,-0.283,17.528,43.004,25.684
16:34:49:969,13.678,0.543,-0.153,-0.489,20.704,45.600,29.081
16:34:49:97,13.679,0.255,-0.083,-0.511,25.168,51.571,35.332
16:34:49:995,13.704,-0.189,-0.221,-0.910,27.327,55.897,39.484
16:34:49:996,13.705,-0.259,-0.059,-0.866,30.365,62.148,45.630
16:34:50:265,13.974,-0.687,-0.353,-1.600,31.915,65.948,50.059
16:34:50:266,13.975,-0.522,-0.554,-1.235,31.001,66.034,49.922
16:34:50:266,13.975,-0.229,-0.735,-0.517,33.236,67.219,48.135
16:34:50:267,13.976,-0.157,-0.860,-0.756,32.693,67.487,44.926
16:34:50:291,14.000,-0.366,-0.729,-0.564,28.681,68.033,39.217
16:34:50:292,14.001,-0.734,-0.439,-0.657,23.690,68.503,34.573
16:34:50:293,14.002,-0.882,-0.137,-0.419,16.021,69.582,27.920
16:34:50:294,14.003,-0.770,0.017,-0.334,8.977,70.358,20.854
16:34:50:312,14.021,-0.645,0.142,-0.210,4.843,70.861,15.744
16:34:50:313,14.022,-0.584,0.517,0.135,-0.707,71.366,9.026
16:34:50:422,14.131,-0.022,0.744,1.738,-3.803,71.302,5.740
16:34:50:423,14.132,0.624,0.059,1.381,-7.809,71.298,1.453
16:34:50:423,14.132,0.626,-0.328,2.305,-10.661,71.763,0.110
16:34:50:424,14.133,0.189,-0.087,2.727,-11.265,72.776,0.675
16:34:50:447,14.156,3.007,-0.377,4.706,-7.552,76.758,1.444
16:34:50:448,14.157,2.651,2.443,1.298,-9.223,79.756,-0.231
16:34:50:449,14.158,1.627,-1.376,0.468,-4.877,78.847,2.165
16:34:50:449,14.158,0.350,0.399,0.552,-2.354,78.730,4.794
16:34:50:675,14.385,0.130,0.436,0.219,-1.433,78.837,5.939
16:34:50:761,14.470,-0.055,0.420,0.048,-0.151,78.840,8.014
16:34:50:762,14.471,-0.102,0.464,-0.382,0.270,79.020,9.616
16:34:50:763,14.472,-0.365,0.453,-0.564,0.690,79.389,12.774
16:34:50:782,14.491,-0.536,0.141,-0.510,1.387,79.680,15.663
16:34:50:868,14.578,-0.831,0.004,-0.235,2.731,79.417,20.280
16:34:50:869,14.578,-0.083,-0.296,-0.327,7.727,77.139,22.334
16:34:50:87,14.579,0.103,-0.074,-0.165,11.320,75.729,23.576
16:34:50:87,14.579,0.302,-0.132,-0.261,16.559,74.694,26.351
16:34:51:051,14.761,0.221,-0.053,-0.620,19.826,75.486,28.812
16:34:51:052,14.761,0.034,-0.253,-0.705,24.307,78.634,33.543
16:34:51:053,14.762,-0.586,-0.248,-0.866,28.766,82.056,39.150
16:34:51:053,14.763,-0.728,0.412,-1.045,32.169,84.924,43.481
16:34:51:08,14.789,-0.831,-0.467,-0.804,36.138,91.246,48.996
16:34:51:08,14.789,-0.814,-0.731,-0.922,34.882,92.124,49.813
16:34:51:08,14.789,-0.854,-0.690,-0.664,34.848,92.352,50.034
16:34:51:081,14.790,-0.374,-0.694,-0.259,33.725,92.541,48.716
16:34:51:096,14.805,-0.293,-0.857,-0.288,28.617,92.829,44.368
16:34:51:158,14.867,-0.657,-0.430,-0.376,20.392,92.063,37.834
16:34:51:159,14.868,-0.726,-0.317,-0.365,14.606,91.383,33.191
16:34:51:16,14.869,-0.708,-0.036,-0.234,6.472,90.489,25.858
16:34:51:388,15.097,-0.424,0.634,0.214,-4.691,87.686,13.751
16:34:51:388,15.097,0.519,0.890,0.851,-10.297,85.815,7.868
16:34:51:414,15.123,1.354,0.150,1.414,-12.574,85.170,5.113
16:34:51:414,15.123,1.745,-0.469,2.299,-15.897,83.722,4.299
16:34:51:464,15.173,0.676,0.004,2.869,-17.227,82.600,4.332
16:34:51:499,15.208,3.553,-0.680,3.732,-13.734,83.974,4.535
16:34:51:5,15.209,0.100,2.970,-0.663,-14.124,84.552,3.911
16:34:51:5,15.209,1.471,-0.803,-0.769,-9.804,86.893,2.543
16:34:51:501,15.210,0.066,0.575,0.403,-7.189,84.616,7.246
16:34:51:551,15.260,-0.239,0.143,0.129,-6.531,84.752,8.487
16:34:51:551,15.260,-0.002,0.090,0.079,-4.869,84.310,10.436
16:34:51:577,15.286,-0.705,0.270,-0.319,-3.399,84.163,16.977
16:34:51:578,15.287,-0.856,0.331,-0.178,-3.217,84.476,20.277
16:34:51:579,15.288,-0.347,-0.400,-0.528,-0.332,83.625,23.222
16:34:51:58,15.289,0.090,-0.237,-0.473,3.122,82.152,24.418
16:34:51:6,15.309,0.203,-0.262,-0.488,7.095,80.280,26.185
16:34:51:601,15.310,0.378,-0.121,-0.448,11.777,80.057,29.250
16:34:51:602,15.311,0.361,-0.061,-0.453,15.072,81.190,32.033
16:34:51:649,15.358,-0.161,0.039,-0.569,19.750,83.600,37.364
16:34:51:736,15.445,-0.587,-0.089,-0.888,22.970,85.010,40.943
16:34:51:737,15.446,-1.629,0.556,-1.386,28.133,87.527,46.225
16:34:51:738,15.447,0.318,-0.140,0.101,30.887,91.617,50.017
16:34:51:739,15.448,-0.809,-1.074,-0.746,32.727,97.347,52.819
16:34:51:813,15.523,-1.043,-0.451,-0.375,29.944,95.050,52.891
16:34:51:814,15.523,-0.342,-0.980,-0.142,29.425,95.544,51.148
16:34:51:815,15.524,-0.247,-0.617,-0.063,26.016,95.259,45.819
16:34:51:816,15.525,-0.410,-0.613,-0.226,22.291,93.645,40.801
16:34:51:833,15.542,-0.440,-0.440,-0.365,16.242,90.041,32.742
16:34:51:834,15.543,-0.537,-0.154,-0.238,9.321,86.823,25.284
16:34:51:884,15.593,-0.531,0.169,-0.193,4.420,85.441,20.471
16:34:51:962,15.671,-0.058,0.516,0.184,-2.493,83.920,13.768
16:34:52:014,15.723,0.403,0.555,0.529,-6.430,83.089,10.040
16:34:52:129,15.839,1.040,0.511,2.008,-11.445,82.362,7.032
16:34:52:13,15.839,1.500,-0.542,1.402,-13.621,82.579,5.672
16:34:52:131,15.840,1.353,0.005,2.471,-15.406,83.003,5.322
16:34:52:131,15.840,3.730,-0.310,3.796,-13.799,85.636,5.057
16:34:52:178,15.887,-3.356,0.556,-4.269,-12.933,85.179,4.328
16:34:52:179,15.888,1.099,-1.084,0.664,-9.582,87.090,3.235
16:34:52:18,15.889,-0.330,-0.782,-0.040,-6.815,85.847,6.230
16:34:52:206,15.915,-0.110,0.139,-0.234,-5.337,86.221,7.789
16:34:52:207,15.916,0.030,0.209,-0.036,-3.767,85.949,9.558
16:34:52:207,15.916,0.160,0.518,-0.151,-3.063,86.107,10.999
16:34:52:208,15.917,-0.264,1.035,-0.740,-2.633,86.649,13.548
16:34:52:224,15.933,-0.914,0.363,-0.453,-2.221,86.914,16.169
16:34:52:25,15.959,-0.819,0.101,-0.124,-0.777,87.117,21.279
16:34:52:276,15.985,0.043,-0.465,-0.428,3.853,84.902,24.042
16:34:52:303,16.012,0.225,-0.296,-0.342,7.458,83.552,25.574
16:34:52:358,16.067,0.284,-0.191,-0.260,12.731,82.810,28.277
16:34:52:359,16.068,0.041,-0.258,-0.411,15.959,83.302,30.667
16:34:52:382,16.091,-0.021,-0.307,-0.530,20.176,85.454,34.717
16:34:52:466,16.175,-0.159,-0.196,-0.380,22.757,87.630,37.942
16:34:52:466,16.175,-0.712,-0.271,-0.613,26.782,91.012,43.111
16:34:52:467,16.176,-1.042,0.989,-0.877,32.673,95.517,48.899
16:34:52:515,16.224,-1.372,-0.859,-1.182,33.465,96.467,50.135
16:34:52:516,16.225,-0.877,-0.467,-0.678,34.750,96.429,50.657
16:34:52:538,16.247,-0.472,-0.849,-0.315,35.908,96.450,50.034
16:34:52:594,16.303,-0.287,-0.783,-0.195,34.342,96.020,46.973
16:34:52:595,16.304,-0.354,-0.853,-0.376,28.861,94.632,41.162
16:34:52:62,16.329,-0.406,-0.454,-0.388,24.313,93.048,36.648
16:34:52:621,16.330,-0.462,-0.397,-0.330,16.626,91.224,30.367
16:34:52:675,16.384,-0.420,-0.241,-0.280,11.117,90.863,25.952
16:34:52:675,16.384,-0.381,0.206,-0.308,3.237,90.638,19.072
16:34:52:811,16.520,-0.062,0.483,-0.026,-1.547,90.001,14.755
16:34:52:812,16.521,0.329,0.926,0.778,-7.641,89.242,9.598
16:34:52:881,16.590,3.339,1.160,3.468,-13.864,96.263,2.587
16:34:52:995,16.704,0.905,-1.488,1.009,-9.673,99.142,1.713
16:34:52:995,16.704,-0.906,3.183,0.556,-14.593,103.383,1.172
16:34:52:996,16.705,-0.682,-1.466,-0.705,-7.234,100.772,2.792
16:34:52:997,16.706,-0.268,0.537,0.057,-5.114,98.533,6.231
16:34:53:047,16.756,0.391,-0.073,0.255,-3.766,99.582,7.499
16:34:53:048,16.757,0.072,0.308,-0.164,-2.896,99.817,8.337
16:34:53:048,16.757,0.010,0.513,-0.190,-1.781,100.162,9.959
16:34:53:049,16.758,-0.584,0.772,-0.477,-1.808,100.550,11.612
16:34:53:067,16.776,-0.767,0.007,-0.219,-1.572,101.046,15.352
16:34:53:093,16.802,-0.752,-0.007,-0.085,0.151,100.771,18.923
16:34:53:093,16.802,-0.271,-0.483,-0.226,2.797,99.408,20.376
16:34:53:117,16.826,0.018,-0.279,-0.296,7.274,97.578,22.306
16:34:53:23,16.939,0.294,-0.194,-0.661,10.326,97.063,23.872
16:34:53:231,16.940,0.018,-0.173,-0.719,15.209,98.447,27.587
16:34:53:232,16.941,0.051,0.015,-0.718,20.258,102.248,32.621
16:34:53:233,16.942,-0.407,-0.102,-0.632,23.393,105.020,36.471
16:34:53:306,17.015,-1.254,-0.219,-0.616,28.034,108.968,42.176
16:34:53:307,17.016,-0.524,0.783,0.293,31.354,113.788,46.580
16:34:53:307,17.016,-0.655,-0.432,-0.158,32.642,119.743,48.944
16:34:53:356,17.065,-1.508,-0.604,0.048,31.897,119.444,48.413
16:34:53:356,17.065,-0.692,-0.742,0.143,32.122,119.539,46.404
16:34:53:379,17.088,-0.370,-0.657,0.152,30.136,120.224,41.054
16:34:53:405,17.114,-0.582,-0.675,0.225,26.611,120.592,36.244
16:34:53:651,17.360,-0.726,-0.428,0.276,20.318,120.350,28.937
16:34:53:652,17.361,-0.525,-0.161,0.515,15.987,119.994,24.524
16:34:53:653,17.362,-0.538,-0.002,0.446,9.212,120.217,17.899
16:34:53:653,17.362,-0.400,0.330,0.575,2.656,121.052,11.562
16:34:53:783,17.492,-0.101,0.464,0.612,-1.229,122.317,7.956
16:34:53:783,17.492,0.810,0.436,0.500,-6.131,125.188,4.021
16:34:53:783,17.492,1.381,0.293,0.524,-8.449,127.481,2.889
16:34:53:784,17.493,2.758,-0.307,0.900,-9.992,132.886,2.239
16:34:53:862,17.571,3.207,0.088,0.117,-9.531,139.193,0.775
16:34:53:863,17.572,2.884,-0.503,-0.948,-6.081,140.805,0.190
16:34:53:863,17.572,-2.843,1.027,2.449,-10.091,143.833,0.353
16:34:53:864,17.573,-0.292,-0.911,-1.514,-7.516,144.077,1.093
16:34:53:913,17.622,0.157,0.818,-0.193,-2.953,143.991,1.591
16:34:53:914,17.623,0.400,0.089,0.122,-2.305,144.292,2.809
16:34:53:914,17.623,0.209,0.160,0.183,-0.792,144.347,3.822
16:34:53:915,17.624,-0.224,0.128,0.198,0.643,144.494,5.068
16:34:54:018,17.727,-0.328,0.582,0.149,0.690,145.093,6.620
16:34:54:018,17.727,-0.507,0.432,0.311,1.376,145.661,9.942
16:34:54:019,17.728,-0.799,0.132,0.303,2.601,145.922,12.370
16:34:54:02,17.729,-0.621,0.052,0.430,4.945,145.131,15.327
16:34:54:043,17.752,-0.195,-0.393,-0.064,9.856,143.181,16.753
16:34:54:045,17.754,0.087,-0.285,-0.248,13.523,142.307,17.822
16:34:54:045,17.754,0.116,-0.110,-0.261,18.643,142.043,19.932
16:34:54:046,17.755,-0.197,0.010,-0.303,21.697,143.354,21.838
16:34:54:438,18.147,-0.523,-0.065,-0.017,26.319,147.083,25.961
16:34:54:439,18.148,-0.833,0.049,0.449,29.513,149.618,29.407
16:34:54:44,18.149,-1.489,0.641,0.753,34.843,153.563,34.845
16:34:54:44,18.149,-0.619,-0.420,0.286,39.449,160.213,40.096
16:34:54:464,18.173,-1.219,-0.727,0.626,38.993,163.635,41.669
16:34:54:465,18.174,-0.645,-0.803,0.568,37.809,166.545,43.054
16:34:54:466,18.175,-0.228,-0.729,0.381,35.787,168.602,42.453
16:34:54:466,18.175,-0.238,-0.735,0.344,30.722,169.762,39.074
16:34:54:696,18.405,-0.421,-0.619,0.523,23.901,169.934,33.435
16:34:54:696,18.405,-0.408,-0.569,0.554,19.170,170.330,29.357
16:34:54:726,18.435,-0.251,-0.117,0.666,11.767,171.117,23.370
16:34:54:726,18.435,-0.025,0.081,0.611,7.032,171.505,19.245
16:34:54:727,18.436,0.068,0.321,0.436,0.206,171.574,13.102
16:34:54:754,18.464,0.777,0.575,0.327,-4.066,172.272,9.693
16:34:54:754,18.464,1.600,0.510,-0.303,-8.998,173.484,6.343
16:34:54:755,18.464,2.096,-0.207,-1.422,-12.395,174.940,4.681
16:34:54:755,18.465,1.579,-0.468,-1.238,-14.111,175.204,4.191
16:34:54:824,18.533,3.830,1.853,-2.886,-14.115,176.367,5.044
16:34:54:859,18.568,-4.099,-0.532,3.689,-11.065,176.659,4.922
16:34:54:86,18.569,1.535,1.489,-2.688,-8.484,178.095,2.635
16:34:54:861,18.570,0.142,0.301,0.567,-5.340,177.158,5.243
16:34:54:861,18.570,0.278,0.187,0.028,-4.507,177.535,6.664
16:34:54:964,18.673,0.139,0.247,-0.008,-2.973,177.182,8.292
16:34:54:965,18.674,0.036,0.432,0.116,-2.107,177.139,9.510
16:34:54:966,18.675,-0.387,0.491,0.336,-1.681,177.372,11.852
16:34:55:017,18.726,-0.704,0.304,0.569,0.704,177.332,18.250
16:34:55:017,18.726,-0.532,-0.248,0.684,3.952,176.086,21.788
16:34:55:017,18.726,-0.433,-0.400,-0.047,7.162,174.615,23.207
16:34:55:017,18.726,-0.284,-0.275,-0.383,12.153,172.645,25.496
16:34:55:147,18.856,-0.447,-0.247,-0.494,15.660,172.310,27.432
16:34:55:148,18.857,-0.513,-0.064,0.028,24.590,177.522,36.408
16:34:55:305,19.014,-0.957,0.025,0.883,31.220,-176.899,45.205
16:34:55:305,19.014,-0.885,-0.756,1.496,34.446,-173.125,49.058
16:34:55:306,19.015,-0.565,-0.682,1.184,34.290,-170.565,50.058
16:34:55:307,19.016,-0.317,-0.578,0.886,36.480,-169.425,49.283
16:34:55:358,19.067,-0.234,-0.788,0.719,36.252,-168.662,47.119
16:34:55:358,19.067,-0.058,-0.822,0.412,32.640,-167.672,41.795
16:34:55:359,19.068,-0.130,-0.719,0.797,28.105,-167.558,37.159
16:34:55:41,19.119,0.276,-0.183,0.771,13.019,-167.639,24.148
16:34:55:411,19.120,0.145,0.033,0.769,7.863,-167.647,19.562
16:34:55:412,19.121,0.237,0.392,0.615,0.235,-167.694,13.075
16:34:55:412,19.121,0.465,0.559,-0.107,-4.243,-167.463,9.279
16:34:55:593,19.302,0.364,0.579,-0.784,-9.321,-167.820,5.595
16:34:55:593,19.302,2.304,-0.497,-2.672,-11.121,-167.675,5.086
16:34:55:593,19.302,0.497,-0.659,-1.633,-12.586,-164.910,3.232
16:34:55:638,19.347,2.059,1.113,-5.361,-10.248,-159.963,3.441
16:34:55:672,19.381,-1.718,-1.987,3.531,-9.249,-160.626,3.234
16:34:55:673,19.382,0.991,1.594,-0.986,-10.829,-157.752,3.658
16:34:55:673,19.382,-0.588,-0.887,-1.234,-5.571,-159.353,4.826
16:34:55:674,19.383,0.063,0.592,0.200,-3.778,-159.018,6.706
16:34:55:7,19.409,0.277,-0.093,-0.107,-2.191,-159.263,8.530
16:34:55:7,19.409,0.110,0.353,0.013,-1.572,-159.331,9.519
16:34:55:7,19.409,-0.501,0.560,0.290,-0.920,-159.769,10.985
16:34:55:701,19.410,-0.299,0.179,0.533,-0.535,-160.118,12.787
16:34:55:726,19.435,0.002,0.178,0.480,0.374,-160.058,16.849
16:34:55:726,19.435,-0.027,-0.241,0.427,1.352,-160.472,19.100
16:34:55:726,19.435,-0.061,-0.279,0.227,4.890,-161.667,21.201
16:34:55:726,19.435,-0.396,-0.269,-0.040,8.772,-162.406,22.881
16:34:55:803,19.512,-0.541,-0.140,0.050,11.692,-162.206,24.532
16:34:55:804,19.513,-0.689,-0.078,0.099,16.893,-160.200,28.135
16:34:55:805,19.514,-0.719,0.159,0.275,20.714,-158.227,31.496
16:34:55:805,19.514,-0.652,0.072,0.722,26.508,-155.170,37.251
16:34:55:985,19.694,-0.182,0.205,1.700,32.353,-151.411,43.113
16:34:55:985,19.694,0.006,-0.093,1.902,35.347,-146.391,47.321
16:34:55:986,19.695,0.268,-0.388,0.399,38.296,-137.329,51.295
16:34:56:014,19.723,0.634,-0.673,1.609,37.162,-136.688,51.270
16:34:56:015,19.724,0.529,-0.827,0.632,36.939,-137.040,48.263
16:34:56:015,19.724,0.126,-0.857,0.455,34.551,-137.060,41.309
16:34:56:058,19.767,0.549,-0.481,0.543,24.283,-137.242,29.481
16:34:56:12,19.829,0.779,-0.346,0.420,19.346,-137.576,25.815
16:34:56:12,19.829,0.738,-0.025,0.427,11.432,-137.272,20.152
16:34:56:12,19.829,0.454,0.386,0.071,6.224,-136.820,16.356
16:34:56:121,19.830,0.610,0.505,-0.518,-0.939,-135.031,11.733
16:34:56:162,19.871,0.244,0.595,-1.715,-6.368,-132.554,9.150
16:34:56:192,19.901,-0.248,0.130,-1.958,-8.569,-130.565,7.630
16:34:56:193,19.902,-0.090,-0.025,-2.288,-10.170,-126.158,6.971
16:34:56:249,19.958,-1.265,-0.440,-4.731,-9.321,-121.880,6.855
16:34:56:249,19.958,2.272,-0.398,3.940,-8.389,-119.291,6.496
16:34:56:25,19.959,-0.071,-0.200,0.055,-5.892,-118.945,6.901
16:34:56:251,19.960,-0.063,0.575,-0.034,-2.642,-119.319,6.432
16:34:56:425,20.134,0.190,0.234,0.154,-1.575,-118.853,7.910
16:34:56:461,20.170,0.147,0.342,-0.180,-0.729,-119.120,9.136
16:34:56:461,20.170,-0.130,0.414,0.129,0.720,-119.256,11.108
16:34:56:461,20.171,-0.001,0.875,0.902,1.243,-119.389,12.800
16:34:56:462,20.171,0.548,0.403,0.978,2.183,-119.184,16.797
16:34:56:477,20.186,0.647,0.099,0.509,3.786,-118.829,22.713
16:34:56:558,20.267,0.296,-0.354,0.710,6.175,-119.806,24.563
16:34:56:559,20.268,-0.397,-0.348,0.354,11.525,-120.929,26.473
16:34:56:74,20.449,-0.509,-0.077,-0.027,15.419,-120.775,28.301
16:34:56:872,20.581,-0.341,0.032,0.209,20.422,-118.807,32.104
16:34:56:959,20.668,-0.034,-0.189,0.446,24.151,-114.526,36.828
16:34:56:96,20.669,0.158,-0.484,0.547,26.349,-111.426,40.144
16:34:56:96,20.669,0.315,-0.018,0.462,30.948,-107.560,45.374
16:34:56:96,20.669,0.871,0.041,1.907,34.104,-105.152,48.299
16:34:57:063,20.772,0.796,-0.595,0.709,36.406,-102.544,50.386
16:34:57:064,20.773,0.464,-0.648,0.791,38.108,-100.306,49.731
16:34:57:065,20.774,0.599,-0.702,0.618,37.552,-100.070,48.188
16:34:57:092,20.801,0.635,-0.622,0.369,29.160,-99.707,40.052
16:34:57:092,20.801,0.829,-0.381,0.314,21.475,-100.053,33.435
16:34:57:093,20.802,0.890,-0.249,0.089,13.312,-100.422,27.030
16:34:57:093,20.802,0.915,0.022,0.029,7.746,-100.812,22.840
16:34:57:117,20.826,0.730,0.477,-0.292,-0.078,-102.178,16.786
16:34:57:118,20.827,0.130,0.594,-0.499,-4.681,-103.711,13.367
16:34:57:119,20.828,-0.766,0.740,-1.335,-10.828,-106.651,10.194
16:34:57:12,20.829,-1.518,-0.059,-1.676,-15.070,-108.135,8.535
16:34:57:144,20.853,-1.507,-0.387,-1.919,-16.667,-108.030,8.445
16:34:57:144,20.853,-2.054,1.359,-4.120,-16.723,-105.591,8.552
16:34:57:145,20.854,1.934,-1.709,3.400,-12.294,-103.023,6.874
16:34:57:146,20.855,-1.254,2.525,-0.183,-11.567,-101.974,5.509
16:34:57:246,20.956,0.356,-0.559,0.008,-7.645,-102.953,7.636
16:34:57:247,20.957,0.178,0.283,0.143,-6.117,-102.581,9.627
16:34:57:248,20.958,-0.098,0.345,-0.124,-4.286,-102.659,11.517
16:34:57:249,20.958,0.029,0.361,0.022,-3.265,-102.626,12.993
16:34:57:327,21.036,0.192,0.802,0.884,-2.290,-102.410,15.285
16:34:57:327,21.036,0.578,0.357,0.480,-1.543,-102.382,17.843
16:34:57:328,21.037,0.445,0.155,0.323,-0.083,-101.997,22.230
16:34:57:329,21.038,0.374,-0.309,0.353,2.479,-103.152,25.452
16:34:57:397,21.106,0.006,-0.306,0.339,5.202,-104.178,26.979
16:34:57:426,21.135,-0.365,-0.163,0.293,9.748,-105.165,29.051
16:34:57:427,21.136,-0.410,-0.263,0.410,12.959,-104.738,30.982
16:34:57:481,21.190,-0.250,-0.109,0.481,17.333,-102.520,35.094
16:34:57:481,21.190,0.259,-0.076,0.582,20.220,-100.589,38.568
16:34:57:481,21.191,0.769,-0.010,0.768,25.085,-98.105,44.114
16:34:57:501,21.210,1.256,0.662,1.929,30.797,-95.350,49.920
16:34:57:667,21.377,0.271,0.054,0.323,35.316,-90.780,53.198
16:34:57:668,21.377,1.027,-0.749,0.880,36.297,-88.315,54.354
16:34:57:668,21.377,0.903,-0.577,0.342,36.718,-89.787,54.245
16:34:57:669,21.378,0.133,-0.966,0.065,36.002,-90.892,51.324
16:34:57:711,21.420,0.366,-0.677,0.250,30.544,-93.145,45.349
16:34:57:93,21.639,0.307,-0.702,0.154,25.807,-95.248,40.455
16:34:57:931,21.640,0.546,-0.420,0.410,18.050,-99.583,32.261
16:34:58:035,21.744,-0.090,0.574,-0.106,-1.440,-112.092,14.608
16:34:58:035,21.744,-0.501,0.533,-0.430,-6.388,-113.309,11.782
16:34:58:036,21.745,-1.561,0.397,-1.153,-12.638,-112.703,9.021
16:34:58:037,21.746,-1.210,-0.216,-1.680,-15.406,-111.004,8.467
16:34:58:06,21.769,-1.213,-0.615,-1.552,-16.617,-107.129,8.123
16:34:58:061,21.770,-3.531,0.970,-4.527,-15.519,-104.120,8.074
16:34:58:062,21.771,3.062,0.859,3.410,-13.164,-100.481,6.988
16:34:58:088,21.797,0.865,-0.480,0.450,-5.388,-101.591,8.699
16:34:58:088,21.797,-0.176,0.008,-0.048,-4.410,-101.129,9.810
16:34:58:088,21.797,0.104,0.370,-0.139,-3.467,-101.443,10.541
16:34:58:089,21.798,0.131,0.315,0.087,-2.383,-101.773,11.991
16:34:58:166,21.875,0.393,0.744,0.548,-1.548,-101.365,14.136
16:34:58:166,21.875,0.636,1.023,0.757,-1.320,-101.226,16.087
16:34:58:167,21.876,0.383,0.172,0.809,1.082,-101.034,20.094
16:34:58:168,21.877,0.466,-0.333,0.507,2.657,-101.473,22.835
16:34:58:289,21.998,-0.029,-0.421,0.295,7.137,-102.709,25.071
16:34:58:482,22.191,-0.229,-0.262,0.184,10.515,-103.348,26.236
16:34:58:483,22.192,-0.271,-0.137,0.300,15.732,-103.506,28.687
16:34:58:484,22.193,-0.060,-0.132,0.569,21.253,-101.078,32.322
16:34:58:484,22.193,0.049,-0.003,0.514,25.006,-98.531,35.422
16:34:58:585,22.294,0.759,-0.171,0.807,30.281,-95.064,40.478
16:34:58:586,22.295,1.073,0.596,1.037,34.331,-92.960,44.274
16:34:58:587,22.296,0.857,-0.546,0.530,39.779,-86.361,49.822
16:34:58:588,22.297,1.109,-0.569,0.756,38.623,-84.902,50.074
16:34:58:612,22.321,0.815,-0.557,0.320,39.039,-84.870,49.709
16:34:58:613,22.322,0.185,-0.783,0.072,37.033,-84.912,46.188
16:34:58:613,22.322,0.301,-0.743,0.199,33.352,-85.630,42.578
16:34:58:614,22.323,0.530,-0.626,0.318,25.692,-87.231,35.995
16:34:58:638,22.347,0.689,-0.338,0.082,17.359,-88.622,29.637
16:34:58:639,22.348,0.640,-0.275,0.037,11.934,-89.193,25.504
16:34:58:64,22.349,0.477,0.327,-0.261,3.845,-90.052,19.421
16:34:58:641,22.350,-0.091,0.500,-0.354,-1.331,-90.832,15.399
16:34:58:769,22.478,-0.638,0.482,-0.562,-7.966,-92.026,10.828
16:34:58:77,22.479,-1.882,0.412,-1.561,-11.725,-92.430,9.626
16:34:58:771,22.480,-1.684,-0.333,-0.995,-14.905,-91.418,8.764
16:34:58:771,22.480,-2.003,-0.484,-1.905,-14.358,-87.919,8.338
16:34:58:869,22.578,-4.503,0.313,-2.920,-11.598,-83.570,8.582
16:34:58:87,22.579,-0.048,2.943,-0.006,-13.604,-82.266,6.687
16:34:58:893,22.602,-0.125,-1.223,-0.204,-9.941,-83.135,6.430
16:34:58:997,22.706,0.082,0.330,-0.016,-5.043,-84.915,9.577
16:34:59:032,22.741,-0.244,0.132,-0.068,-3.380,-84.217,10.906
16:34:59:033,22.742,-0.076,0.360,-0.020,-2.043,-84.054,11.739
16:34:59:033,22.742,0.144,0.619,0.267,-0.634,-83.263,13.685
16:34:59:034,22.743,0.691,1.020,0.650,-0.045,-82.780,15.496
16:34:59:05,22.759,0.911,0.043,0.398,1.992,-82.127,19.527
16:34:59:077,22.786,0.916,0.140,0.204,3.258,-81.570,23.128
16:34:59:189,22.898,0.148,-0.413,0.557,6.775,-82.579,26.321
16:34:59:19,22.899,-0.031,-0.210,0.585,11.963,-83.287,28.116
16:34:59:191,22.900,-0.202,-0.066,0.445,15.676,-82.805,29.892
16:34:59:192,22.901,0.331,-0.269,0.523,20.936,-80.337,33.613
16:34:59:339,23.048,0.296,-0.304,0.308,23.970,-77.504,36.634
16:34:59:609,23.318,0.732,-0.442,0.588,28.825,-73.121,41.521
16:34:59:61,23.319,1.235,0.901,0.470,35.382,-68.417,46.698
16:34:59:611,23.320,2.149,-0.500,0.443,37.199,-66.306,49.186
16:34:59:733,23.442,0.811,-0.417,-0.007,38.037,-62.902,47.852
16:34:59:864,23.573,0.526,-0.836,-0.081,35.817,-62.711,43.719
16:34:59:978,23.687,0.603,-0.708,-0.006,30.194,-63.584,36.873
16:34:59:978,23.687,0.773,-0.489,0.023,25.223,-64.784,32.145
16:34:59:979,23.688,0.650,-0.297,-0.278,17.307,-65.886,25.874
16:34:59:98,23.689,0.581,0.007,-0.442,11.730,-66.238,22.089
16:35:00:021,23.730,0.534,0.274,-0.348,3.474,-67.154,16.198
16:35:00:108,23.817,-0.176,0.618,-0.106,-1.423,-67.643,12.548
16:35:00:108,23.817,-0.887,0.864,-0.746,-7.649,-67.596,9.020
16:35:00:109,23.818,-2.030,0.165,-0.174,-12.204,-64.721,7.223
16:35:00:16,23.869,-1.944,-0.412,-0.328,-13.866,-62.032,5.657
16:35:00:161,23.870,-4.170,0.172,-1.494,-13.298,-56.737,5.736
16:35:00:162,23.871,4.003,-0.280,-1.161,-10.403,-52.873,5.363
16:35:00:163,23.872,-1.582,2.645,0.729,-13.753,-51.096,4.609
16:35:00:397,24.106,0.485,-1.759,-0.166,-4.923,-53.018,5.347
16:35:00:397,24.106,-0.281,1.053,0.226,-4.077,-52.598,7.313
16:35:00:398,24.107,-0.079,0.005,0.266,-2.081,-51.880,8.718
16:35:00:399,24.108,0.030,0.435,-0.071,-0.985,-51.637,9.799
16:35:00:423,24.132,0.916,0.184,-0.040,2.857,-49.326,17.649
16:35:00:424,24.133,0.739,-0.040,-0.255,4.426,-48.801,22.497
16:35:00:425,24.134,0.496,-0.407,0.128,6.628,-49.380,24.135
16:35:00:425,24.134,0.098,-0.191,0.610,11.588,-49.722,26.004
16:35:00:473,24.182,1.707,-0.424,-0.746,35.819,-34.745,46.189
16:35:00:473,24.182,0.393,-0.385,-0.716,24.927,-30.769,32.700
16:35:00:474,24.183,0.212,-0.258,-0.761,17.256,-30.764,26.731
16:35:00:554,24.263,0.321,-0.036,-0.695,11.934,-31.246,22.560
16:35:00:555,24.264,0.224,0.360,-0.601,4.007,-32.182,16.186
16:35:00:556,24.265,-0.325,0.515,-0.121,-3.730,-31.820,11.168
16:35:00:557,24.266,-0.892,0.506,0.140,-8.200,-30.981,8.994
16:35:00:652,24.361,-1.924,0.107,0.757,-13.434,-28.993,7.353
16:35:00:788,24.497,-2.448,-0.674,0.803,-15.295,-26.870,5.850
16:35:00:788,24.497,-3.287,-0.606,1.071,-15.397,-22.615,4.798
16:35:00:835,24.544,0.969,-1.222,-1.422,-12.465,-18.577,5.336
16:35:00:968,24.677,2.879,2.602,-1.367,-15.650,-18.204,4.852
16:35:00:969,24.678,-1.250,-2.513,1.183,-8.888,-19.609,6.301
16:35:01:361,25.070,-0.255,0.806,0.277,-7.083,-19.369,7.875
16:35:01:394,25.103,0.741,0.733,-0.288,-2.051,-17.830,14.855
16:35:01:395,25.104,0.500,0.017,-0.463,-0.691,-16.842,17.426
16:35:01:396,25.105,0.341,-0.235,-0.258,0.639,-16.120,21.618
16:35:01:397,25.106,0.424,-0.271,-0.125,2.625,-16.759,23.151
16:35:01:495,25.205,0.248,-0.325,0.214,6.575,-17.518,24.854
16:35:01:495,25.205,0.108,-0.220,0.407,11.060,-17.379,26.944
16:35:01:552,25.261,0.367,-0.261,0.272,14.112,-16.493,28.888
16:35:01:553,25.262,0.487,-0.115,0.219,18.562,-13.679,32.668
16:35:01:554,25.263,0.514,-0.095,-0.124,21.649,-11.436,35.889
16:35:01:555,25.264,0.778,0.056,-0.671,26.671,-8.048,40.970
16:35:01:628,25.337,0.486,0.128,-0.874,32.203,-3.474,46.999
16:35:01:629,25.338,0.530,-0.618,-0.814,34.461,0.833,49.581
16:35:01:63,25.339,0.799,-0.579,-1.364,34.275,0.984,49.781
16:35:01:701,25.410,0.160,-0.878,-0.363,35.700,0.765,49.115
16:35:01:731,25.440,0.256,-0.862,-0.133,34.937,0.991,44.177
16:35:01:732,25.441,0.160,-0.686,-0.593,31.678,0.511,39.579
16:35:01:835,25.544,0.245,-0.595,-0.682,24.736,-0.696,32.524
16:35:01:858,25.567,-0.170,-0.346,-0.724,16.916,-1.341,25.999
16:35:01:919,25.628,-1.197,0.526,0.565,-7.940,-0.964,9.342
16:35:01:92,25.629,-1.438,-0.314,1.681,-14.970,4.585,6.354
16:35:01:921,25.630,-2.812,0.575,2.719,-14.880,8.372,5.995
16:35:01:922,25.631,0.483,0.038,-0.122,19.756,16.499,34.441
16:35:01:963,25.672,0.166,-0.253,-0.570,23.416,19.018,37.303
16:35:02:052,25.761,0.682,0.216,-1.816,26.819,23.038,42.296
16:35:02:052,25.761,-0.195,-0.530,-0.715,28.712,28.673,46.587
16:35:02:053,25.762,-0.240,-0.464,-1.158,29.746,35.139,47.661
16:35:02:053,25.762,-0.515,-0.384,-1.033,30.795,35.700,47.798
16:35:02:103,25.812,-0.109,-0.982,-0.546,32.029,35.648,44.936
16:35:02:104,25.813,-0.193,-0.799,-0.609,30.014,35.276,38.852
16:35:02:105,25.814,-0.207,-0.732,-0.738,26.414,34.489,33.904
16:35:02:106,25.815,-0.365,-0.390,-0.664,19.670,33.318,27.204
16:35:02:122,25.831,-0.378,-0.215,-0.702,14.654,32.985,23.287
16:35:02:153,25.862,-0.481,0.049,-0.590,6.649,33.350,17.696
16:35:02:154,25.863,-0.222,0.461,-0.126,-1.196,34.009,12.219
16:35:02:155,25.864,-0.207,0.462,0.537,-5.850,34.757,8.996
16:35:02:208,25.917,-0.391,0.438,1.492,-11.950,36.702,5.955
16:35:02:209,25.918,-0.076,-0.043,2.045,-14.115,38.707,4.576
16:35:02:209,25.918,-0.617,-0.436,3.237,-14.139,42.913,5.180
16:35:02:21,25.919,-0.278,3.175,-2.966,-15.081,46.520,3.557
16:35:02:234,25.943,0.892,-2.515,1.128,-11.422,47.727,3.534
16:35:02:234,25.943,-0.073,0.663,0.400,-9.397,47.633,5.364
16:35:02:234,25.943,0.127,0.069,0.451,-7.230,47.934,6.799
16:35:02:279,25.988,0.017,0.347,0.144,-6.045,47.948,7.833
16:35:02:523,26.232,0.202,0.419,-0.017,-5.079,48.290,9.498
16:35:02:524,26.233,-0.040,0.274,-0.620,-3.701,48.809,14.262
16:35:02:525,26.234,-0.098,0.229,-0.534,-2.740,48.657,18.512
16:35:02:525,26.234,-0.094,-0.212,-0.395,-1.355,47.849,20.096
16:35:02:602,26.311,0.007,-0.317,-0.042,2.035,46.923,22.149
16:35:02:603,26.312,0.307,-0.250,-0.007,5.965,46.484,24.428
16:35:02:604,26.313,0.381,-0.244,-0.212,9.162,46.612,26.506
16:35:02:604,26.313,0.468,0.098,-0.078,14.452,48.080,30.075
16:35:02:753,26.463,0.207,0.175,-0.483,17.743,49.415,32.581
16:35:02:754,26.464,-0.161,0.694,-1.539,22.467,52.077,37.397
16:35:02:89,26.599,-0.535,0.110,-0.998,25.210,56.220,40.843
16:35:02:891,26.600,-0.502,-0.593,-0.947,26.316,63.177,42.632
16:35:02:943,26.653,-0.335,-0.976,-0.220,27.818,64.818,35.503
16:35:02:944,26.653,-0.512,-0.873,-0.476,24.855,64.101,31.096
16:35:02:945,26.654,-0.689,-0.615,-0.468,18.134,63.486,25.117
16:35:02:946,26.655,-0.899,-0.332,-0.171,10.119,64.051,20.042
16:35:03:074,26.783,-0.913,-0.064,-0.058,4.481,64.267,16.608
16:35:03:075,26.784,-0.446,0.510,0.030,-3.382,63.905,11.165
16:35:03:076,26.785,0.104,0.572,0.758,-8.131,63.831,8.075
16:35:03:076,26.785,0.116,0.742,1.780,-14.315,62.854,6.282
16:35:03:152,26.861,1.297,-0.483,2.119,-16.206,63.062,5.158
16:35:03:153,26.862,0.632,-0.028,2.557,-18.807,65.352,4.558
16:35:03:468,27.177,-1.260,2.541,-4.659,-15.998,71.013,1.802
16:35:03:469,27.178,-0.264,-1.316,0.297,-10.032,70.466,2.331
16:35:03:47,27.179,-0.255,-0.021,0.585,-8.666,70.334,3.673
16:35:03:47,27.179,0.153,0.443,0.043,-7.274,70.229,4.962
16:35:03:757,27.466,-0.067,0.487,0.213,-6.110,69.868,6.483
16:35:03:758,27.467,0.041,0.565,-0.109,-5.359,69.784,7.893
16:35:03:758,27.467,-0.119,1.053,-0.762,-4.497,69.555,10.972
16:35:03:759,27.468,-0.315,0.168,-0.528,-1.451,69.961,18.077
16:35:03:861,27.570,-0.235,-0.300,-0.273,1.363,68.432,20.886
16:35:03:862,27.571,0.231,-0.369,-0.161,4.523,67.669,22.177
16:35:03:863,27.572,0.194,-0.127,-0.192,8.882,66.838,24.720
16:35:03:889,27.598,0.287,0.032,-0.157,13.693,67.941,27.746
16:35:03:89,27.599,0.016,-0.018,-0.436,16.651,69.214,29.963
16:35:03:891,27.600,-0.341,-0.143,-0.699,21.302,70.917,34.062
16:35:03:892,27.601,-0.917,0.348,-1.356,24.840,72.737,37.211
16:35:03:909,27.618,-0.818,-0.598,-0.600,29.380,78.468,40.899
16:35:03:994,27.703,-0.763,-0.557,-0.876,30.783,80.663,41.815
16:35:03:995,27.704,-0.766,-0.616,-0.363,31.282,80.969,41.733
16:35:03:995,27.704,-0.382,-0.843,-0.163,29.398,81.039,38.946
16:35:04:016,27.725,-0.560,-0.628,-0.332,19.751,79.054,29.813
16:35:04:016,27.725,-0.650,-0.310,-0.334,11.996,77.817,23.727
16:35:04:047,27.756,-2.573,1.284,-4.580,-17.816,78.644,3.459
16:35:04:048,27.757,1.147,-0.964,1.511,-12.970,78.883,2.665
16:35:04:049,27.758,0.043,0.078,0.067,-10.356,77.934,5.047
16:35:04:049,27.758,-0.205,0.387,0.320,-9.432,77.940,5.812
16:35:04:073,27.782,0.477,-0.177,0.159,6.898,75.505,26.690
16:35:04:074,27.783,0.423,-0.018,-0.151,11.594,77.636,30.026
16:35:04:075,27.784,-0.334,-0.072,-0.323,15.615,79.576,33.961
16:35:04:076,27.785,-0.756,-0.034,-0.860,18.467,80.780,36.682
16:35:04:127,27.836,-1.221,0.571,-1.052,23.280,84.452,40.987
16:35:04:127,27.836,-1.057,-0.625,-0.797,25.033,87.180,41.658
16:35:04:128,27.837,-0.845,-0.504,-0.498,27.997,87.736,42.476
16:35:04:128,27.838,-0.736,-0.676,-0.382,29.084,87.081,41.839
16:35:04:255,27.965,-0.570,-0.869,-0.389,27.081,85.634,38.579
16:35:04:256,27.966,-0.517,-0.705,-0.346,21.629,83.994,33.826
16:35:04:257,27.966,-0.576,-0.551,-0.392,16.897,82.869,30.207
16:35:04:258,27.967,-0.582,-0.268,-0.391,9.155,81.700,24.335
16:35:04:41,28.119,-0.649,0.029,-0.422,3.746,81.126,20.327
16:35:04:41,28.119,-0.495,0.403,-0.225,-4.173,80.182,14.661
16:35:04:411,28.120,0.181,0.877,0.493,-12.202,79.666,10.093
16:35:04:438,28.147,1.041,0.667,1.059,-16.631,79.866,8.257
16:35:04:439,28.148,1.789,-0.136,1.798,-20.128,80.481,6.891
16:35:04:44,28.149,1.525,-0.349,2.589,-21.132,80.914,6.534
16:35:04:467,28.176,3.851,0.233,4.184,-17.505,81.865,5.306
16:35:04:467,28.177,-2.079,1.727,-2.265,-19.193,82.261,5.139
16:35:04:468,28.177,-0.517,-0.874,0.423,-14.019,81.506,5.205
16:35:04:468,28.177,0.614,0.302,0.283,-11.324,81.756,6.920
16:35:04:492,28.201,-0.112,0.520,0.397,-10.319,81.614,8.073
16:35:04:492,28.201,0.176,0.093,-0.039,-8.126,81.032,9.935
16:35:04:493,28.202,-0.027,0.697,-0.416,-7.019,80.967,11.267
16:35:04:494,28.203,-0.133,0.750,-0.405,-6.037,80.688,14.267
16:35:04:513,28.222,-0.375,0.355,-0.650,-4.059,80.607,17.919
16:35:04:514,28.223,-0.386,0.184,-0.348,-2.821,80.953,20.587
16:35:04:538,28.247,-0.207,-0.174,-0.342,-0.395,79.642,23.953
16:35:04:538,28.247,0.002,-0.116,-0.571,2.241,78.795,25.540
16:35:04:59,28.299,0.210,-0.124,-0.642,6.682,79.332,28.501
16:35:04:591,28.300,-0.078,-0.100,-0.567,11.136,82.078,32.371
16:35:04:674,28.383,-0.117,-0.014,-0.447,14.068,83.858,35.200
16:35:04:674,28.383,-0.696,-0.141,-0.904,18.770,85.703,39.617
16:35:04:674,28.383,-0.717,0.644,-0.884,22.509,87.154,42.462
16:35:04:833,28.542,-1.161,-0.511,-0.617,25.508,89.758,43.902
16:35:04:834,28.543,-0.754,-0.613,-0.462,27.252,89.839,43.351
16:35:04:835,28.544,-0.730,-0.729,-0.304,29.600,88.701,41.786
16:35:04:856,28.565,-0.441,-0.836,-0.292,24.601,86.998,33.712
16:35:04:857,28.566,-0.561,-0.531,-0.242,17.772,86.127,27.794
16:35:04:858,28.567,-0.557,-0.277,-0.004,12.677,85.876,24.083
16:35:04:878,28.587,-0.577,-0.034,0.083,4.692,85.416,18.384
16:35:04:903,28.612,-0.151,0.441,0.089,-2.677,84.558,12.330
16:35:04:988,28.697,1.000,0.546,0.849,-13.233,85.991,4.553
16:35:04:989,28.698,1.584,0.050,1.459,-15.466,88.203,3.321
16:35:05:036,28.745,1.745,-0.585,1.132,-16.935,92.592,2.426
16:35:05:037,28.746,5.165,1.278,3.093,-15.167,98.614,1.760
16:35:05:176,28.885,-3.876,0.008,-0.025,-15.344,98.771,2.316
16:35:05:176,28.885,-0.442,-1.977,-0.332,-10.682,98.358,2.329
16:35:05:177,28.886,0.339,0.531,0.507,-7.720,97.295,3.456
16:35:05:178,28.887,-0.064,-0.060,0.175,-6.352,97.658,4.775
16:35:05:192,28.902,0.080,0.210,0.171,-5.681,97.562,5.578
16:35:05:22,28.929,0.009,0.453,0.257,-5.028,97.038,6.754
16:35:05:221,28.930,0.232,0.567,-0.219,-4.350,96.654,8.909
16:35:05:273,28.982,-0.519,1.236,-0.905,-4.511,96.107,11.275
16:35:05:274,28.983,-0.678,-0.047,-0.264,-2.965,95.906,15.990
16:35:05:323,29.032,-0.359,-0.231,0.014,-2.472,95.510,19.294
16:35:05:382,29.091,0.224,-0.486,-0.408,1.174,94.559,21.476
16:35:05:382,29.091,0.442,0.005,-0.709,5.212,96.215,23.936
16:35:05:383,29.092,0.324,-0.164,-0.687,7.989,99.123,26.036
16:35:05:43,29.139,-0.292,-0.331,-0.530,10.919,103.638,29.674
16:35:05:431,29.140,-0.392,-0.489,-0.472,13.095,106.581,32.371
16:35:05:512,29.221,-0.895,0.009,-0.110,15.938,111.440,36.558
16:35:05:513,29.222,-1.927,0.518,0.073,17.809,114.263,38.139
16:35:05:514,29.223,-1.441,-0.354,0.321,21.794,116.542,38.574
16:35:05:532,29.241,-1.283,-0.472,0.002,26.652,115.712,36.722
16:35:05:559,29.268,-1.170,-0.716,0.082,28.292,114.737,34.118
16:35:05:667,29.376,-0.639,-0.909,0.016,27.585,113.687,29.092
16:35:06:036,29.745,-0.779,-0.664,0.178,24.696,113.591,25.490
16:35:06:036,29.745,-0.729,-0.466,0.372,18.967,114.767,20.658
16:35:06:069,29.778,-0.579,-0.183,0.811,12.041,116.184,15.907
16:35:06:069,29.778,-0.556,0.212,0.985,7.030,116.654,12.383
16:35:06:069,29.778,-0.072,0.491,0.756,0.304,116.543,6.759
16:35:06:07,29.779,0.234,0.293,0.521,-3.844,116.586,4.332
16:35:06:094,29.803,1.985,0.009,0.524,-8.971,118.540,3.783
16:35:06:095,29.804,1.864,-0.343,0.139,-12.415,122.144,2.396
16:35:06:095,29.804,2.140,0.078,0.877,-13.606,125.631,1.192
16:35:06:096,29.805,4.074,-0.288,0.105,-8.725,129.745,0.187
16:35:06:166,29.875,-1.516,3.045,0.338,-12.362,130.871,0.754
16:35:06:167,29.876,0.675,-1.618,-0.662,-7.303,130.103,1.203
16:35:06:224,29.934,0.341,0.413,0.469,-4.951,129.821,2.015
16:35:06:225,29.935,0.146,0.234,0.012,-3.408,130.113,3.515
16:35:06:226,29.936,0.077,0.274,0.163,-1.563,129.916,4.764
16:35:06:227,29.936,0.088,0.446,0.022,-0.820,130.148,5.840
16:35:06:536,30.245,-0.506,0.642,0.003,0.198,129.935,8.214
16:35:06:536,30.245,-0.628,0.173,0.254,1.163,130.041,10.329
16:35:06:828,30.537,-0.544,0.298,0.130,2.254,130.146,14.585
16:35:06:829,30.538,-0.336,-0.292,-0.091,4.670,129.233,16.683
16:35:06:83,30.539,-0.146,-0.332,-0.202,7.166,128.799,17.783
16:35:06:83,30.539,-0.265,0.032,-0.315,11.269,129.222,19.917
16:35:06:876,30.585,-0.112,-0.112,-0.292,14.465,131.170,21.922
16:35:06:877,30.586,-0.302,0.003,-0.265,19.134,135.281,25.878
16:35:06:907,30.616,-0.529,-0.015,-0.069,22.219,137.897,28.914
16:35:06:908,30.617,-1.429,0.592,0.307,27.456,141.498,33.758
16:35:06:908,30.617,-0.513,-0.011,0.464,32.801,147.485,39.210
16:35:06:909,30.618,-0.579,-0.541,0.454,34.652,151.389,41.130
16:35:06:959,30.668,-0.947,-0.662,0.945,35.279,153.305,41.533
16:35:06:96,30.669,-0.226,-0.898,0.445,35.806,153.990,40.575
16:35:06:961,30.670,-0.268,-0.794,0.394,34.147,154.768,36.117
16:35:06:962,30.671,-0.417,-0.681,0.581,29.413,154.186,30.042
16:35:07:091,30.800,-0.381,-0.521,0.650,25.162,153.975,26.098
16:35:07:092,30.801,-0.206,-0.288,0.726,17.861,154.569,20.743
16:35:07:092,30.801,-0.065,-0.038,0.832,12.584,155.240,17.447
16:35:07:093,30.802,0.224,0.384,0.678,4.954,155.968,12.676
16:35:07:17,30.879,0.797,0.424,0.285,-1.825,157.619,8.464
16:35:07:17,30.880,1.371,0.427,0.007,-5.745,159.400,6.421
16:35:07:171,30.881,1.940,0.015,-0.835,-9.856,161.730,5.392
16:35:07:268,30.977,-0.410,0.531,0.426,1.737,167.122,12.448
16:35:07:345,31.054,-0.404,-0.092,0.475,3.267,167.183,14.739
16:35:07:479,31.188,-0.165,-0.106,0.490,5.196,167.178,18.688
16:35:07:48,31.189,-0.175,-0.381,0.245,6.781,166.339,20.406
16:35:07:51,31.219,-0.209,-0.307,-0.088,10.909,165.086,22.141
16:35:07:511,31.220,-0.413,-0.154,-0.053,13.900,164.591,23.466
16:35:07:514,31.223,-0.436,-0.094,-0.066,18.975,165.094,26.199
16:35:07:643,31.352,-0.715,0.249,0.425,28.515,167.830,33.150
16:35:07:643,31.352,-0.806,0.306,1.059,34.970,170.672,37.884
16:35:07:644,31.353,-0.484,-0.292,0.230,37.869,174.392,41.091
16:35:07:645,31.354,-0.319,-0.634,0.495,40.286,-179.207,44.416
16:35:07:695,31.404,-0.309,-0.847,0.984,38.736,-178.754,44.606
16:35:07:696,31.405,0.099,-0.878,0.390,37.680,-178.250,43.403
16:35:07:697,31.406,-0.152,-0.825,0.505,33.167,-179.178,38.884
16:35:07:721,31.430,-0.283,-0.448,0.604,21.527,176.582,28.146
16:35:07:721,31.430,-0.162,-0.144,0.545,13.509,174.108,22.160
16:35:07:722,31.431,-0.280,0.051,0.466,7.850,172.928,18.208
16:35:07:747,31.456,0.602,0.666,-0.657,-5.078,172.121,9.613
16:35:07:747,31.456,1.417,0.654,-1.072,-10.757,174.350,7.452
16:35:07:748,31.457,1.889,0.152,-1.634,-12.604,177.065,6.800
16:35:07:774,31.483,0.724,2.274,-2.357,-12.732,-174.439,4.045
16:35:07:774,31.483,-0.421,-1.232,-0.585,-5.653,-176.094,4.623
16:35:07:775,31.484,-0.109,0.199,0.111,-4.644,-175.556,6.048
16:35:07:776,31.485,0.122,0.156,-0.123,-2.656,-175.363,6.986
16:35:07:799,31.508,0.231,0.133,0.046,-1.266,-175.480,7.863
16:35:07:8,31.509,-0.015,0.275,-0.006,-0.513,-175.579,8.550
16:35:07:801,31.510,-0.306,0.336,0.152,0.402,-175.450,10.015
16:35:07:802,31.511,-0.331,0.482,0.503,0.580,-175.664,11.527
16:35:07:826,31.535,-0.107,-0.032,0.595,1.818,-175.450,14.443
16:35:07:829,31.538,-0.089,0.182,0.536,2.977,-175.100,18.677
16:35:07:829,31.538,-0.324,-0.308,0.160,4.315,-175.505,20.686
16:35:07:83,31.539,-0.539,-0.150,0.086,7.904,-176.381,22.830
16:35:07:875,31.584,-0.535,-0.073,0.238,10.957,-176.330,24.430
16:35:07:875,31.584,-0.718,-0.100,0.250,16.171,-175.087,27.897
16:35:07:876,31.585,-0.717,0.000,0.041,22.943,-171.620,32.895
16:35:07:924,31.633,-0.594,0.027,0.469,27.540,-169.138,36.833
16:35:07:925,31.634,-0.377,0.661,1.265,33.907,-165.964,42.043
16:35:07:948,31.657,-0.474,-1.023,1.507,36.812,-162.324,45.139
16:35:08:003,31.712,0.413,-0.801,0.911,38.890,-154.722,48.660
16:35:08:193,31.902,0.151,-0.942,1.387,36.994,-154.447,46.227
16:35:08:194,31.903,0.285,-0.952,0.479,36.918,-155.045,43.586
16:35:08:195,31.904,-0.077,-0.918,0.651,33.417,-156.320,36.055
16:35:08:221,31.930,0.381,-0.314,0.888,22.197,-156.087,24.775
16:35:08:221,31.930,0.554,0.064,0.768,13.794,-153.990,19.849
16:35:08:222,31.931,0.662,0.310,0.591,8.251,-152.296,16.613
16:35:08:222,31.931,0.439,0.636,0.102,0.936,-150.209,11.584
16:35:08:298,32.007,0.624,0.569,-0.404,-2.684,-148.958,8.982
16:35:08:298,32.007,0.870,0.213,-2.106,-6.283,-146.117,7.112
16:35:08:299,32.008,0.111,-0.336,-1.759,-8.075,-143.247,5.254
16:35:08:3,32.009,0.629,-0.029,-2.039,-10.006,-139.064,5.024
16:35:08:315,32.024,-0.302,-0.201,-5.031,-5.992,-133.860,6.296
16:35:08:341,32.050,1.164,0.859,3.225,-7.825,-133.712,5.098
16:35:08:427,32.136,-0.663,-0.689,0.054,-4.708,-133.584,5.457
16:35:08:428,32.137,-0.215,0.418,-0.166,-2.215,-133.554,6.219
16:35:08:428,32.137,0.240,0.321,-0.165,-0.875,-132.888,7.812
16:35:08:476,32.185,0.052,0.111,-0.105,0.340,-133.039,8.736
16:35:08:476,32.185,0.004,0.273,0.127,2.065,-133.058,9.886
16:35:08:529,32.238,-0.048,0.565,0.572,3.000,-132.763,11.849
16:35:08:529,32.238,0.148,0.145,0.560,4.079,-132.514,13.596
16:35:08:551,32.260,0.394,0.098,0.435,5.802,-131.618,17.063
16:35:08:607,32.316,0.200,-0.097,0.406,6.922,-130.949,19.764
16:35:08:608,32.317,0.179,-0.214,0.406,9.412,-131.084,21.995
16:35:08:658,32.367,-0.077,-0.294,0.156,13.008,-131.503,23.480
16:35:08:746,32.455,-0.237,-0.220,0.262,15.963,-131.623,24.619
16:35:08:747,32.456,-0.235,-0.158,0.366,20.876,-130.816,27.005
16:35:08:748,32.457,-0.214,-0.136,0.515,24.688,-129.250,29.363
16:35:08:749,32.458,0.082,0.194,1.081,31.085,-125.523,34.175
16:35:08:761,32.471,0.408,0.519,1.817,37.871,-121.325,39.679
16:35:08:902,32.611,0.700,-0.164,1.052,42.424,-117.443,43.811
16:35:08:903,32.612,0.228,-0.140,0.259,46.553,-111.342,48.752
16:35:08:904,32.613,0.828,-1.269,1.403,46.509,-110.653,49.571
16:35:08:905,32.614,0.432,-0.896,0.315,44.205,-111.107,47.867
16:35:08:924,32.633,0.228,-0.928,0.220,42.313,-110.616,45.635
16:35:08:924,32.633,0.482,-0.838,0.329,36.196,-110.936,40.386
16:35:09:135,32.845,0.641,-0.621,0.373,28.104,-111.454,34.030
16:35:09:136,32.846,0.705,-0.399,0.344,22.240,-111.949,29.765
16:35:09:137,32.846,0.730,0.052,0.329,13.338,-113.008,23.506
16:35:09:165,32.874,0.651,0.536,-0.079,7.603,-113.886,19.678
16:35:09:165,32.874,0.328,0.666,-0.202,-0.399,-114.336,14.710
16:35:09:166,32.875,-0.220,0.766,-1.373,-6.462,-113.093,11.615
16:35:09:166,32.875,-0.560,0.241,-2.216,-9.391,-111.165,11.000
16:35:09:27,32.980,-1.078,-0.294,-1.692,-12.892,-108.942,10.224
16:35:09:27,32.980,-3.525,2.374,-4.496,-13.263,-107.678,10.268
16:35:09:271,32.980,1.161,1.923,4.955,-10.101,-107.593,9.581
16:35:09:272,32.981,-0.792,1.607,-0.467,-9.052,-106.744,6.977
16:35:09:296,33.005,0.099,-0.292,-0.238,-5.884,-107.031,10.499
16:35:09:296,33.005,0.006,0.150,0.390,-3.176,-106.765,11.327
16:35:09:297,33.006,-0.093,0.133,0.066,-1.918,-106.634,12.227
16:35:09:297,33.006,-0.064,0.194,0.126,0.350,-105.978,13.450
16:35:09:312,33.021,0.114,0.535,0.422,1.308,-105.551,14.596
16:35:09:398,33.108,0.095,0.321,0.416,2.716,-104.955,16.928
16:35:09:398,33.108,0.553,0.120,0.347,4.585,-104.583,20.147
16:35:09:399,33.108,0.467,0.070,0.083,5.588,-103.912,23.019
16:35:09:419,33.128,0.269,-0.178,0.261,7.458,-103.834,26.284
16:35:09:527,33.236,-0.022,-0.277,0.218,9.803,-104.306,27.543
16:35:09:528,33.237,-0.031,-0.175,0.360,13.931,-104.863,29.180
16:35:09:555,33.264,0.015,-0.090,0.413,18.763,-103.821,31.745
16:35:09:555,33.264,-0.027,0.082,0.422,22.653,-102.061,34.006
16:35:09:556,33.265,0.759,0.533,1.123,28.209,-99.201,38.272
16:35:09:575,33.284,1.142,0.029,0.919,32.460,-97.306,41.457
16:35:09:76,33.469,0.478,-0.263,0.611,37.923,-93.318,46.057
16:35:09:821,33.530,1.078,-0.949,0.862,40.122,-91.399,47.613
16:35:09:822,33.531,0.919,-1.010,0.558,40.301,-91.251,48.122
16:35:09:822,33.531,0.195,-1.002,0.294,38.778,-91.457,46.529
16:35:09:823,33.532,0.372,-0.879,0.331,35.346,-92.613,44.020
16:35:09:847,33.556,0.407,-0.664,0.426,27.462,-94.771,38.603
16:35:09:848,33.557,0.553,-0.255,0.390,21.424,-96.547,34.775
16:35:09:849,33.558,0.415,-0.021,0.369,12.438,-99.281,28.665
16:35:09:85,33.559,0.379,0.345,0.198,3.936,-102.142,22.896
16:35:09:866,33.575,-0.212,0.576,0.009,-1.046,-104.276,19.632
16:35:09:867,33.576,-0.658,0.501,-0.552,-7.526,-106.438,16.013
16:35:09:944,33.653,-0.989,0.376,-1.740,-11.453,-106.423,15.140
16:35:09:974,33.683,-1.438,0.240,-1.847,-15.411,-105.514,13.882
16:35:09:975,33.684,-2.303,0.329,-3.097,-15.772,-104.163,13.001
16:35:09:976,33.685,1.316,-1.200,2.314,-12.066,-103.437,12.428
16:35:10:102,33.811,-0.554,0.404,-1.336,-11.542,-102.874,9.968
16:35:10:138,33.847,0.050,0.062,-0.300,-9.064,-102.555,11.854
16:35:10:139,33.848,-0.341,0.094,0.349,-6.411,-101.667,13.382
16:35:10:139,33.848,-0.074,0.184,0.040,-4.934,-101.520,14.150
16:35:10:139,33.848,-0.103,0.132,0.003,-2.851,-101.455,15.437
16:35:10:153,33.862,-0.047,0.288,0.281,-1.340,-100.959,16.862
16:35:10:286,33.995,0.130,0.606,0.502,-0.884,-100.766,18.482
16:35:10:399,34.108,0.477,0.303,0.488,0.387,-100.326,21.641
16:35:10:4,34.109,0.781,0.088,0.265,1.177,-100.011,24.436
16:35:10:4,34.109,0.310,-0.331,0.298,2.557,-99.623,28.623
16:35:10:401,34.110,-0.004,-0.259,0.263,6.272,-100.757,30.860
16:35:10:479,34.188,-0.083,-0.303,0.439,9.215,-101.252,32.240
16:35:10:479,34.188,-0.195,-0.161,0.392,13.965,-101.196,34.814
16:35:10:479,34.188,-0.089,-0.230,0.509,17.514,-100.112,37.228
16:35:10:479,34.188,0.071,0.005,0.531,23.324,-97.885,41.717
16:35:10:525,34.234,0.765,0.804,1.055,27.659,-96.392,44.904
16:35:10:525,34.234,1.085,0.238,0.898,34.502,-93.315,49.753
16:35:10:556,34.265,-0.082,0.116,0.145,38.133,-89.317,53.238
16:35:10:556,34.265,0.693,-0.737,0.538,39.142,-88.227,54.002
16:35:10:557,34.266,0.785,-0.726,0.342,38.221,-90.702,52.673
16:35:10:558,34.267,0.379,-0.853,0.209,37.160,-91.496,50.398
16:35:10:574,34.283,0.308,-0.642,0.330,32.737,-94.336,44.657
16:35:10:654,34.363,0.337,-0.571,0.347,26.809,-97.841,37.970
16:35:10:686,34.395,0.468,-0.434,0.465,21.611,-100.442,33.517
16:35:10:687,34.396,0.429,-0.229,0.398,13.547,-103.177,27.577
16:35:10:688,34.397,0.386,-0.195,0.405,7.838,-104.003,23.751
16:35:10:688,34.397,0.238,0.410,0.217,-0.417,-104.622,18.883
16:35:10:704,34.413,-0.285,0.655,-0.401,-5.306,-104.285,16.704
16:35:10:788,34.497,-0.488,0.972,-1.497,-11.639,-102.382,15.274
16:35:10:789,34.498,-1.618,-0.105,-1.860,-14.914,-99.877,12.535
16:35:10:789,34.499,-2.196,0.490,-2.592,-15.613,-99.505,11.896
16:35:10:809,34.518,0.005,-0.377,1.194,-13.205,-100.247,12.059
16:35:10:835,34.544,-2.476,0.735,-1.556,-12.167,-98.865,10.406
16:35:10:889,34.598,-0.829,-1.196,-0.427,-7.178,-99.210,12.628
16:35:10:92,34.629,-0.163,0.153,0.071,-5.190,-98.771,13.993
16:35:10:921,34.630,0.001,0.279,-0.163,-4.010,-98.929,14.893
16:35:10:922,34.631,0.014,0.202,0.076,-2.323,-99.008,16.223
16:35:10:94,34.649,-0.016,0.278,0.275,-1.507,-98.719,17.466
16:35:11:054,34.763,0.329,0.565,0.446,-0.698,-98.619,20.231
16:35:11:054,34.763,0.565,0.125,0.552,1.266,-98.406,23.588
16:35:11:055,34.764,0.387,-0.011,0.237,2.679,-97.870,26.103
16:35:11:056,34.765,0.236,-0.263,0.194,5.006,-98.603,29.039
16:35:11:1,34.810,0.107,-0.270,0.517,7.773,-99.319,30.286
16:35:11:101,34.810,0.186,-0.303,0.518,12.555,-100.097,32.612
16:35:11:213,34.922,-0.205,-0.203,0.554,16.558,-99.912,34.557
16:35:11:213,34.922,-0.318,-0.095,0.640,23.446,-98.237,38.560
16:35:11:213,34.922,0.217,0.065,0.744,30.569,-95.498,43.878
16:35:11:214,34.923,0.796,0.322,1.064,35.512,-93.448,47.461
16:35:11:343,35.052,1.206,-0.081,0.617,41.060,-88.466,52.575
16:35:11:344,35.053,-0.088,-0.291,0.139,42.371,-84.334,54.904
16:35:11:345,35.054,1.163,-0.924,0.674,40.553,-81.856,55.891
16:35:11:345,35.055,0.573,-0.682,0.000,37.685,-82.122,53.803
16:35:11:467,35.176,0.414,-0.703,0.029,34.418,-83.347,50.281
16:35:11:582,35.291,0.397,-0.532,0.124,28.548,-86.442,43.087
16:35:11:583,35.292,0.401,-0.573,0.236,24.220,-89.334,37.599
16:35:11:584,35.293,0.468,-0.305,0.313,17.056,-94.145,29.929
16:35:11:585,35.294,0.440,-0.117,0.397,12.041,-96.775,25.493
16:35:11:632,35.341,0.295,0.200,0.219,4.257,-99.159,19.870
16:35:11:632,35.341,-0.315,0.391,0.008,-3.108,-99.593,15.526
16:35:11:633,35.342,-0.603,0.482,-0.363,-7.686,-99.016,14.071
16:35:11:634,35.343,-1.364,0.266,-1.447,-12.098,-97.478,13.562
16:35:11:763,35.472,-2.071,0.687,-2.167,-13.621,-96.159,13.098
16:35:11:764,35.473,-4.040,0.587,-3.801,-10.977,-93.422,11.025
16:35:11:765,35.474,3.391,1.522,1.965,-13.763,-92.227,11.306
16:35:11:765,35.474,-0.333,-0.981,-0.768,-9.067,-92.556,11.525
16:35:11:789,35.498,0.014,0.162,0.137,-5.505,-91.904,11.821
16:35:11:79,35.499,0.151,0.060,0.163,-4.132,-91.459,12.573
16:35:11:791,35.500,-0.030,0.127,-0.040,-2.198,-91.520,13.876
16:35:11:792,35.501,0.039,0.283,0.158,-0.662,-91.425,15.163
16:35:11:809,35.518,0.092,0.424,0.458,-0.006,-91.234,16.441
16:35:11:81,35.519,0.401,0.431,0.401,1.041,-91.150,19.411
16:35:11:891,35.600,0.690,0.066,0.479,2.187,-91.105,21.654
16:35:11:891,35.600,0.582,0.091,0.232,3.349,-91.146,25.998
16:35:11:892,35.601,0.109,-0.317,0.330,5.460,-91.995,27.584
16:35:11:912,35.621,-0.082,-0.312,0.540,9.713,-92.995,29.241
16:35:11:938,35.647,-0.092,-0.253,0.620,14.664,-92.271,31.731
16:35:11:993,35.702,-0.291,-0.116,0.577,18.409,-90.599,34.108
16:35:11:994,35.703,0.059,-0.018,0.655,24.593,-87.605,38.923
16:35:12:103,35.813,0.835,0.073,0.833,28.972,-85.682,42.208
16:35:12:104,35.814,1.610,0.226,0.683,35.458,-81.378,47.503
16:35:12:105,35.814,1.081,-1.040,0.492,37.936,-71.939,52.444
16:35:12:106,35.815,0.279,-0.432,-0.105,38.249,-65.955,54.636
16:35:12:229,35.939,1.581,-0.689,-0.094,35.223,-66.284,54.226
16:35:12:254,35.963,0.654,-0.524,-0.434,34.696,-65.723,52.633
16:35:12:315,36.024,0.399,-0.811,0.074,31.074,-66.423,46.350
16:35:12:315,36.024,0.525,-0.719,0.042,27.510,-67.570,41.351
16:35:12:316,36.025,0.578,-0.538,0.036,21.017,-70.238,33.770
16:35:12:317,36.026,0.532,-0.236,-0.019,13.745,-72.546,27.045
16:35:12:337,36.046,0.551,-0.081,0.050,8.731,-73.288,22.886
16:35:12:338,36.047,0.272,0.432,-0.028,1.439,-73.178,17.930
16:35:12:339,36.048,-0.505,0.331,0.021,-2.793,-71.726,15.605
16:35:12:417,36.126,-1.200,0.582,-0.575,-8.273,-67.795,13.605
16:35:12:417,36.126,-2.702,0.384,-0.788,-11.086,-61.878,10.804
16:35:12:418,36.127,-5.171,0.722,-0.771,-10.823,-58.634,9.755
16:35:12:523,36.232,0.104,-0.733,-1.163,-10.477,-55.151,11.048
16:35:12:524,36.233,2.751,0.176,-1.675,-9.937,-53.649,11.198
16:35:12:524,36.233,0.399,-0.859,1.485,-4.124,-54.582,10.855
16:35:12:603,36.312,0.171,0.803,-0.351,-3.043,-54.571,12.657
16:35:12:604,36.313,-0.110,0.041,0.367,-2.011,-54.074,13.578
16:35:12:605,36.314,0.024,0.514,0.053,-0.878,-53.976,15.159
16:35:12:649,36.358,1.025,0.608,0.558,-0.126,-54.751,20.143
16:35:12:65,36.359,0.939,0.219,-0.179,0.443,-54.908,23.683
16:35:12:732,36.441,0.489,-0.028,-0.131,2.378,-55.346,28.093
16:35:12:732,36.441,0.031,-0.491,0.563,6.884,-56.180,29.623
16:35:12:733,36.442,-0.347,-0.233,0.939,9.677,-55.767,30.940
16:35:12:751,36.460,0.019,-0.253,0.805,13.400,-52.317,33.910
16:35:12:779,36.488,0.497,-0.254,0.556,15.393,-49.186,36.621
16:35:12:834,36.543,0.751,-0.483,0.261,18.254,-44.247,40.980
16:35:12:835,36.544,0.985,-0.371,-0.263,21.636,-39.073,45.747
16:35:12:91,36.619,0.825,0.557,-0.172,23.780,-34.809,49.381
16:35:13:154,36.863,1.364,-0.260,-0.458,27.040,-30.421,51.417
16:35:13:155,36.864,1.263,-0.282,-0.555,29.175,-29.658,51.744
16:35:13:156,36.865,0.974,-0.653,-0.409,31.900,-28.660,50.313
16:35:13:157,36.866,0.634,-0.680,-0.388,32.202,-27.803,47.888
16:35:13:207,36.916,0.533,-0.726,-0.565,29.047,-25.864,42.649
16:35:13:207,36.916,0.371,-0.451,-0.844,22.880,-24.461,36.017
16:35:13:208,36.917,0.360,-0.397,-0.851,18.166,-24.143,31.276
16:35:13:628,37.337,0.134,0.440,-0.896,4.898,-23.923,20.066
16:35:13:628,37.337,-0.070,0.601,-0.753,-2.445,-23.739,14.256
16:35:13:629,37.338,-0.896,0.444,-0.145,-8.459,-22.957,9.767
16:35:13:63,37.339,-0.943,0.506,0.582,-11.671,-22.754,8.018
16:35:13:699,37.408,-2.189,-0.580,1.232,-13.400,-21.281,7.645
16:35:13:734,37.443,-2.621,-0.015,0.675,-14.667,-19.382,7.832
16:35:13:734,37.444,-4.719,-0.654,2.931,-12.416,-15.033,7.334
16:35:13:735,37.444,1.109,2.464,-1.179,-15.871,-13.820,7.955
16:35:13:736,37.445,0.580,-0.074,0.661,-11.641,-13.294,7.608
16:35:13:749,37.458,-0.295,0.338,0.185,-8.005,-13.316,8.313
16:35:13:838,37.547,-0.120,-0.026,0.240,-7.109,-13.032,9.325
16:35:13:839,37.548,-0.059,0.162,0.192,-5.527,-12.993,10.219
16:35:13:839,37.548,0.122,0.509,-0.004,-4.988,-12.996,11.048
16:35:14:043,37.752,0.463,0.596,-0.305,-4.367,-13.000,16.322
16:35:14:043,37.752,0.507,0.002,-0.414,-3.279,-13.208,18.855
16:35:14:257,37.966,0.583,0.329,-0.385,-1.922,-14.203,22.622
16:35:14:258,37.967,0.720,-0.384,-0.058,0.721,-15.122,23.736
16:35:14:259,37.968,0.643,-0.383,0.115,5.839,-15.577,25.800
16:35:14:259,37.968,0.487,-0.221,0.149,11.703,-14.666,28.963
16:35:14:306,38.015,0.624,-0.191,0.294,16.251,-12.721,31.544
16:35:14:307,38.016,0.578,-0.120,0.054,22.976,-7.810,36.578
16:35:14:388,38.097,0.304,-0.044,-0.018,27.084,-4.048,40.363
16:35:14:389,38.098,0.703,0.491,-0.726,32.299,0.857,45.731
16:35:14:39,38.099,0.735,0.064,-0.637,34.510,5.142,49.468
16:35:14:391,38.100,0.789,-0.924,-1.378,32.155,8.403,51.584
16:35:14:414,38.123,0.075,-0.522,-1.019,31.416,10.048,51.341
16:35:14:415,38.124,-0.252,-0.569,-0.702,30.950,10.741,49.351
16:35:14:416,38.125,0.034,-0.769,-0.564,27.291,9.661,43.031
16:35:14:417,38.126,0.235,-0.670,-0.701,23.492,8.150,37.746
16:35:14:441,38.150,0.256,-0.419,-0.504,16.445,5.387,30.813
16:35:14:442,38.151,0.157,-0.250,-0.515,7.987,4.263,25.463
16:35:14:443,38.152,0.034,-0.022,-0.511,1.764,4.412,22.261
16:35:14:444,38.153,-0.301,0.614,0.109,-6.765,4.822,17.097
16:35:14:46,38.169,-0.203,0.578,0.534,-11.008,5.072,13.503
16:35:14:515,38.224,-1.170,0.501,1.590,-15.095,5.822,10.180
16:35:14:515,38.224,-0.220,-1.824,-2.157,-14.965,16.032,6.171
16:35:14:678,38.387,-0.930,-0.328,3.218,-18.421,18.709,6.062
16:35:14:679,38.388,0.198,0.323,-0.608,-4.977,16.019,15.899
16:35:14:679,38.388,0.068,0.259,-0.819,-3.769,16.265,20.048
16:35:14:68,38.389,0.157,-0.038,-0.414,-2.989,16.543,23.233
16:35:14:722,38.431,0.461,-0.344,-0.139,0.425,15.046,25.387
16:35:14:757,38.466,0.764,-0.317,0.050,4.622,14.146,27.187
16:35:14:757,38.466,0.740,-0.068,0.193,7.675,14.740,28.967
16:35:14:758,38.467,0.818,-0.098,-0.130,12.610,17.534,32.800
16:35:14:759,38.468,0.660,-0.154,-0.516,16.057,19.830,35.901
16:35:14:783,38.492,0.343,0.040,-0.754,21.567,22.724,40.632
16:35:14:783,38.492,0.104,-0.034,-1.890,26.300,27.622,45.652
16:35:14:784,38.493,-0.028,-0.156,-0.060,27.981,34.720,48.345
16:35:14:784,38.493,-0.332,-0.383,-1.509,26.507,37.439,48.697
16:35:14:885,38.594,-0.475,-0.620,-0.708,26.792,37.296,48.336
16:35:14:885,38.594,-0.209,-0.922,-0.288,26.360,37.542,43.852
16:35:14:886,38.595,-0.236,-0.752,-0.593,22.674,36.533,36.200
16:35:14:91,38.619,-0.192,-0.574,-0.629,19.172,35.700,30.828
16:35:14:911,38.620,-0.312,-0.272,-0.663,12.621,34.353,23.537
16:35:14:912,38.621,-0.440,-0.009,-0.632,7.702,34.129,19.565
16:35:14:931,38.640,-0.580,0.398,-0.234,0.311,35.199,14.418
16:35:15:018,38.727,-0.588,0.607,0.154,-4.408,36.705,10.896
16:35:15:019,38.728,-0.346,0.397,0.846,-10.376,40.096,6.205
16:35:15:02,38.729,-0.409,-0.123,2.123,-14.497,45.072,4.177
16:35:15:021,38.730,-1.321,0.060,2.881,-16.272,48.326,3.629
16:35:15:098,38.807,1.211,0.247,5.695,-15.395,53.319,2.272
16:35:15:099,38.808,-1.736,1.321,-3.508,-13.236,53.339,2.689
16:35:15:099,38.808,0.932,2.804,0.063,-14.517,53.988,1.770
16:35:15:099,38.808,-0.167,0.006,-0.168,-9.825,53.179,3.761
16:35:15:123,38.832,-0.232,0.010,0.238,-9.010,53.640,5.271
16:35:15:124,38.833,0.003,0.161,0.222,-6.882,53.282,6.712
16:35:15:125,38.834,0.192,0.310,0.089,-5.685,53.246,7.748
16:35:15:146,38.855,-0.141,0.438,-0.354,-3.563,53.856,13.167
16:35:15:147,38.856,-0.271,0.283,-0.481,-2.745,53.997,15.751
16:35:15:148,38.857,-0.298,-0.061,-0.534,-0.987,54.186,19.352
16:35:15:166,38.876,-0.126,-0.185,-0.488,1.270,53.263,20.638
16:35:15:193,38.902,0.362,-0.405,-0.245,5.600,51.956,22.296
16:35:15:219,38.928,0.509,-0.116,-0.073,8.754,51.364,23.607
16:35:15:381,39.090,0.517,-0.145,-0.111,13.687,51.820,26.302
16:35:15:381,39.090,0.371,-0.120,-0.558,18.822,54.663,30.204
16:35:15:825,39.534,0.179,-0.120,-0.540,22.499,57.574,33.541
16:35:15:859,39.568,-0.234,0.272,-0.780,27.704,61.720,38.890
16:35:15:86,39.569,-0.885,0.055,-0.574,31.368,64.388,42.236
16:35:15:86,39.570,-0.133,0.184,-0.551,34.327,70.001,46.397
16:35:15:861,39.571,-0.840,-0.921,-1.413,31.420,70.276,45.986
16:35:15:882,39.591,-0.763,-0.460,-0.486,30.900,70.503,45.339
16:35:15:883,39.592,-0.421,-0.724,-0.246,29.462,70.572,41.150
16:35:15:884,39.593,-0.505,-0.596,-0.349,26.359,69.516,36.958
16:35:15:938,39.647,-0.591,-0.571,-0.388,20.121,67.303,29.780
16:35:15:938,39.647,-0.581,-0.204,-0.286,12.539,64.433,23.506
16:35:15:938,39.647,-0.487,-0.144,-0.226,7.603,63.085,19.903
16:35:15:939,39.648,-0.269,0.224,-0.099,-0.134,61.792,14.601
16:35:16:018,39.727,0.183,0.526,0.405,-5.176,61.498,11.313
16:35:16:018,39.727,0.561,0.553,0.892,-11.961,62.657,7.419
16:35:16:019,39.728,0.850,0.061,1.793,-15.307,64.325,5.963
16:35:16:019,39.728,0.792,-0.040,2.680,-17.557,67.965,5.196
16:35:16:094,39.803,3.013,-0.244,4.888,-16.179,73.683,2.860
16:35:16:095,39.804,-1.643,-1.202,-1.204,-14.362,75.143,2.641
16:35:16:096,39.805,0.288,2.711,0.629,-15.883,77.325,1.460
16:35:16:097,39.806,-0.077,-0.855,-0.473,-11.483,75.680,3.020
16:35:16:121,39.830,-0.345,0.176,0.275,-9.805,75.494,5.150
16:35:16:121,39.830,0.169,-0.124,0.127,-7.668,75.090,6.421
16:35:16:122,39.831,0.103,0.793,-0.351,-5.977,74.782,9.305
16:35:16:123,39.832,-0.097,0.632,-0.356,-5.559,74.670,11.271
16:35:16:142,39.851,-0.500,0.308,-0.488,-4.308,74.577,15.007
16:35:16:142,39.851,-0.408,0.050,-0.178,-3.481,74.815,18.268
16:35:16:194,39.903,-0.257,-0.210,-0.404,-1.125,73.970,21.431
16:35:16:195,39.904,0.194,-0.279,-0.340,2.914,73.234,23.617
16:35:16:217,39.926,0.201,-0.168,-0.338,5.770,73.406,25.347
16:35:16:36,40.069,0.300,-0.087,-0.204,10.807,74.896,28.777
16:35:16:36,40.069,0.009,-0.029,-0.552,14.105,76.414,31.770
16:35:16:361,40.070,-0.400,0.238,-0.509,19.363,78.954,36.829
16:35:16:362,40.071,-1.000,0.743,-0.985,24.756,81.344,41.601
16:35:16:378,40.087,-0.989,-0.517,-0.377,27.774,84.462,44.588
16:35:16:379,40.088,-0.710,-0.767,-0.582,31.057,88.954,46.878
16:35:16:488,40.197,-1.510,-0.720,-1.205,29.765,87.859,45.709
16:35:16:489,40.198,-0.230,-0.971,-0.196,30.434,87.084,42.985
16:35:16:49,40.199,-0.509,-0.798,-0.272,27.120,86.397,37.356
16:35:16:511,40.220,-0.802,-0.319,-0.156,15.352,85.805,26.382
16:35:16:511,40.220,-0.758,-0.119,0.063,9.989,85.111,22.235
16:35:16:726,40.436,-0.684,0.115,0.041,1.817,83.725,16.131
16:35:16:727,40.436,-0.238,0.726,0.270,-3.632,82.924,12.078
16:35:16:727,40.436,0.507,0.653,0.812,-11.211,83.448,6.756
16:35:16:727,40.436,1.515,0.524,2.222,-17.635,83.729,4.828
16:35:16:752,40.461,1.842,-0.581,1.861,-19.690,83.668,4.584
16:35:16:752,40.461,1.489,-0.209,2.527,-20.705,82.362,4.936
16:35:16:753,40.462,-0.559,-2.201,-2.768,-16.484,83.806,4.226
16:35:16:753,40.462,0.604,2.636,-0.998,-16.272,82.455,2.401
16:35:16:804,40.513,0.145,0.147,0.137,-12.983,82.599,3.024
16:35:16:805,40.514,0.684,-0.146,0.311,-11.438,82.477,4.862
16:35:16:805,40.514,0.015,0.479,0.214,-9.116,82.206,6.394
16:35:16:806,40.515,0.282,-0.128,0.046,-7.391,82.114,7.473
16:35:16:83,40.539,0.182,0.323,-0.108,-5.748,82.146,9.103
16:35:16:83,40.539,-0.094,0.484,-0.148,-4.939,82.270,10.501
16:35:16:831,40.540,-0.299,0.334,-0.198,-3.622,82.424,13.222
16:35:16:832,40.541,-0.521,0.160,-0.171,-2.088,82.559,16.505
16:35:16:961,40.670,-0.273,0.148,-0.143,-0.791,82.775,19.144
16:35:16:962,40.671,-0.238,-0.252,-0.320,1.578,81.971,22.272
16:35:16:963,40.672,0.041,-0.135,-0.380,4.258,80.865,23.730
16:35:16:963,40.672,0.048,0.016,-0.418,8.469,80.414,26.103
16:35:16:986,40.695,-0.040,-0.126,-0.447,13.843,81.610,29.525
16:35:16:987,40.696,-0.120,0.030,-0.562,17.880,82.912,32.532
16:35:16:988,40.697,-0.666,0.460,-0.769,24.444,84.710,37.588
16:35:16:988,40.697,-0.953,0.574,-0.673,29.286,85.711,40.790
16:35:17:034,40.743,-0.254,-0.478,-0.099,33.912,89.311,44.490
16:35:17:034,40.744,-0.931,-1.054,-0.829,35.420,92.813,46.710
16:35:17:056,40.765,-1.204,-0.860,-0.665,32.551,91.212,45.484
16:35:17:083,40.792,-0.191,-0.898,-0.220,30.178,90.175,43.187
16:35:17:109,40.818,-0.231,-0.757,-0.231,26.677,88.908,39.632
16:35:17:136,40.845,-0.423,-0.583,-0.341,19.840,86.483,33.335
16:35:17:192,40.901,-0.529,-0.230,-0.307,14.833,84.425,28.664
16:35:17:192,40.901,-0.423,-0.107,-0.327,7.400,81.273,22.020
16:35:17:27,40.979,-0.261,0.063,-0.283,-0.035,78.913,15.589
16:35:17:271,40.980,0.273,0.422,-0.032,-5.042,77.572,11.789
16:35:17:356,41.065,0.801,0.566,0.601,-12.141,76.926,7.492
16:35:17:356,41.065,1.223,0.295,2.187,-16.248,78.085,6.293
16:35:17:356,41.065,1.283,-0.128,2.381,-19.521,81.383,4.604
16:35:17:357,41.066,4.024,-0.249,4.218,-19.246,85.009,2.265
16:35:17:565,41.274,-1.659,-0.330,-2.396,-17.198,84.105,2.149
16:35:17:566,41.275,1.695,-0.284,2.126,-15.836,84.675,0.294
16:35:17:567,41.276,0.840,-1.145,-0.040,-12.169,83.865,2.539
16:35:17:568,41.277,0.060,0.224,-0.122,-10.266,84.347,4.479
16:35:17:591,41.300,0.190,0.185,0.021,-8.752,84.092,5.123
16:35:17:592,41.301,0.007,0.205,0.184,-6.848,83.982,6.312
16:35:17:592,41.301,0.248,0.341,0.061,-5.308,84.280,7.901
16:35:17:593,41.302,-0.155,0.733,-0.300,-4.752,84.304,9.532
16:35:17:612,41.321,-0.506,0.294,-0.286,-3.415,84.232,12.563
16:35:17:612,41.321,-0.708,0.046,-0.110,-2.397,84.076,15.176
16:35:17:636,41.345,-0.330,-0.159,-0.071,-0.922,83.945,19.644
16:35:17:692,41.401,0.059,-0.218,-0.331,2.605,82.131,21.699
16:35:17:693,41.402,0.128,-0.064,-0.509,5.458,81.132,22.948
16:35:17:693,41.402,0.099,0.009,-0.547,9.966,81.364,25.908
16:35:17:713,41.422,0.043,0.119,-0.448,13.484,82.772,28.528
16:35:17:769,41.478,-0.469,0.015,-0.680,18.373,85.555,32.956
16:35:17:77,41.479,-1.018,0.400,-0.910,23.687,88.726,37.746
16:35:17:877,41.586,-0.760,0.196,-0.377,27.246,91.587,40.687
16:35:17:878,41.587,-1.202,-0.511,-0.884,29.247,94.259,41.833
16:35:17:879,41.588,-0.971,-0.678,-0.443,30.740,94.903,42.138
16:35:17:897,41.606,-0.366,-0.928,-0.051,31.594,95.834,40.420
16:35:17:926,41.635,-0.434,-0.902,-0.105,29.999,96.059,37.567
16:35:17:926,41.635,-0.532,-0.706,-0.150,24.745,95.558,31.961
16:35:17:949,41.658,-0.499,-0.516,0.024,18.162,95.318,25.963
16:35:18:034,41.743,-0.489,-0.340,0.032,13.293,95.234,21.979
16:35:18:034,41.743,-0.353,0.059,0.205,5.868,94.722,15.688
16:35:18:035,41.744,-0.252,0.594,0.148,0.750,94.397,11.328
16:35:18:054,41.763,0.410,0.632,0.462,-5.948,95.378,5.627
16:35:18:109,41.818,1.477,0.387,2.178,-11.562,99.765,3.480
16:35:18:11,41.819,1.906,-0.174,1.657,-13.850,103.474,2.690
16:35:18:134,41.843,5.169,0.589,2.438,-15.440,107.787,0.732
16:35:18:244,41.953,4.999,-1.051,2.434,-12.469,109.042,-0.156
16:35:18:245,41.954,-1.600,2.870,-1.298,-15.011,109.487,-0.365
16:35:18:246,41.955,0.431,-0.590,-0.018,-10.383,107.856,-0.167
16:35:18:265,41.974,0.465,0.490,0.393,-8.250,108.223,1.821
16:35:18:323,42.032,0.269,0.137,0.296,-6.461,108.289,3.108
16:35:18:323,42.032,0.118,0.163,0.311,-5.449,108.038,4.039
16:35:18:324,42.033,0.005,0.329,0.077,-4.082,107.681,5.400
16:35:18:402,42.111,-0.133,0.675,-0.476,-3.347,107.656,6.826
16:35:18:402,42.111,-0.432,0.620,-0.265,-2.640,107.173,9.771
16:35:18:45,42.159,-0.461,-0.025,0.215,-0.252,107.301,16.866
16:35:18:451,42.160,-0.095,-0.326,-0.320,2.756,106.030,19.325
16:35:18:501,42.210,0.117,-0.377,-0.415,5.652,105.304,20.819
16:35:18:558,42.267,0.176,-0.080,-0.635,9.719,105.440,23.590
16:35:18:559,42.268,0.075,-0.050,-0.549,14.466,107.855,27.400
16:35:18:56,42.269,-0.387,-0.155,-0.574,17.365,109.712,30.585
16:35:18:608,42.317,-0.901,0.284,-0.158,21.658,112.779,35.818
16:35:18:609,42.318,-1.665,0.149,-0.054,24.192,115.188,39.061
16:35:18:659,42.368,-0.462,-0.016,0.257,28.240,121.780,43.169
16:35:18:852,42.561,-1.596,-0.555,0.047,29.567,123.740,43.557
16:35:18:852,42.561,-0.954,-0.645,0.428,30.931,123.339,42.751
16:35:18:853,42.562,-0.430,-0.918,0.102,32.107,123.315,38.893
16:35:18:853,42.562,-0.375,-0.872,0.008,31.176,123.191,34.385
16:35:18:904,42.613,-0.709,-0.713,0.252,26.712,122.655,27.101
16:35:18:905,42.614,-0.519,-0.459,0.565,22.430,122.187,22.693
16:35:18:905,42.614,-0.523,-0.224,0.707,15.334,121.590,16.845
16:35:18:906,42.615,-0.272,0.273,0.697,7.969,120.941,11.133
16:35:19:115,42.824,-0.070,0.418,0.570,3.216,121.018,7.247
16:35:19:115,42.824,0.944,0.512,0.468,-3.469,122.864,2.683
16:35:19:115,42.825,1.244,0.401,0.070,-7.354,125.478,1.322
16:35:19:115,42.825,2.496,0.324,1.571,-10.668,130.502,1.435
16:35:19:244,42.953,5.718,0.276,-0.172,-10.002,134.869,0.634
16:35:19:245,42.954,-2.063,-1.308,0.691,-7.234,134.657,1.303
16:35:19:246,42.955,2.671,0.461,-0.049,-8.131,135.779,2.086
16:35:19:247,42.956,-0.291,-0.719,-0.311,-4.955,136.406,2.165
16:35:19:35,43.059,0.041,0.311,-0.190,-2.108,136.868,3.056
16:35:19:35,43.059,0.114,0.310,-0.077,-0.736,136.945,3.730
16:35:19:351,43.060,0.097,0.358,0.049,1.155,136.999,4.973
16:35:19:352,43.061,-0.434,0.627,-0.075,2.589,137.179,7.074
16:35:19:429,43.138,-0.669,0.625,0.029,3.495,137.357,9.253
16:35:19:43,43.139,-0.866,0.142,0.435,4.737,137.745,13.552
16:35:19:43,43.139,-0.603,0.323,0.174,5.890,137.684,16.325
16:35:19:431,43.140,-0.314,-0.515,-0.127,9.912,136.632,17.962
16:35:19:454,43.164,0.172,-0.037,-0.234,14.765,136.960,19.977
16:35:19:455,43.164,0.253,-0.097,-0.290,17.578,138.765,21.618
16:35:19:456,43.165,-0.739,-0.284,0.070,21.044,143.608,25.092
16:35:19:457,43.166,-0.637,-0.273,0.233,23.955,147.515,28.246
16:35:19:533,43.242,-1.121,-0.239,0.387,29.007,151.761,33.580
16:35:19:534,43.243,-0.927,0.616,0.818,32.988,153.634,37.260
16:35:19:535,43.244,-1.376,-0.737,0.769,35.998,153.443,38.474
16:35:19:535,43.244,-0.934,-0.664,0.344,37.774,153.053,36.938
16:35:19:665,43.374,-0.843,-0.683,0.394,37.717,152.980,35.609
16:35:19:665,43.374,-0.189,-0.662,0.422,35.074,154.298,33.268
16:35:19:666,43.375,-0.319,-0.569,0.573,31.315,155.243,30.587
16:35:19:667,43.376,-0.227,-0.396,0.755,24.389,155.898,25.506
16:35:19:717,43.426,-0.147,-0.231,0.715,17.243,155.540,19.398
16:35:19:718,43.427,-0.129,-0.112,0.668,12.556,154.733,15.390
16:35:19:718,43.427,0.027,0.222,0.250,5.917,153.781,9.526
16:35:19:719,43.428,0.164,0.325,0.082,1.407,154.807,6.541
16:35:19:792,43.501,0.979,0.247,-0.272,-5.180,159.876,4.336
16:35:19:793,43.502,1.689,0.208,-0.586,-8.561,163.546,4.012
16:35:19:794,43.503,3.206,0.206,-0.434,-10.361,169.270,3.409
16:35:19:819,43.528,4.378,0.979,-3.638,-7.069,172.716,1.261
16:35:19:819,43.528,-1.614,-1.258,2.519,-7.322,172.490,2.499
16:35:19:82,43.529,-0.147,2.890,-0.218,-5.477,173.431,1.926
16:35:19:954,43.663,-0.083,-0.048,0.081,-1.918,173.519,2.448
16:35:19:954,43.663,0.124,-0.111,0.463,-0.543,173.996,4.190
16:35:19:955,43.664,0.076,-0.035,-0.042,1.441,173.762,5.472
16:35:19:955,43.665,0.184,0.234,0.030,2.436,173.848,6.208
16:35:19:972,43.681,-0.341,0.499,0.117,3.654,174.283,7.917
16:35:20:029,43.738,-0.466,0.703,0.205,4.266,174.528,9.795
16:35:20:03,43.739,-0.408,0.271,0.760,5.410,174.580,13.426
16:35:20:03,43.739,-0.081,0.167,0.636,6.444,174.847,18.361
16:35:20:107,43.816,-0.174,-0.341,0.703,8.160,173.999,19.774
16:35:20:108,43.817,-0.338,-0.413,-0.001,12.651,172.595,21.124
16:35:20:109,43.818,-0.392,-0.087,-0.385,15.777,172.028,22.345
16:35:20:128,43.837,-0.364,-0.094,-0.422,21.025,173.077,25.362
16:35:20:184,43.893,-0.562,-0.031,-0.016,24.372,175.301,28.247
16:35:20:184,43.893,-0.525,-0.150,0.310,29.268,-179.719,33.547
16:35:20:206,43.915,-0.620,0.027,0.946,34.029,-174.566,39.188
16:35:20:233,43.942,-0.880,0.318,1.691,37.381,-170.393,43.453
16:35:20:288,43.997,-0.254,-0.602,0.730,39.996,-164.145,47.398
16:35:20:289,43.998,-0.586,-0.774,1.474,38.975,-164.214,46.711
16:35:20:34,44.049,0.140,-0.712,0.821,39.400,-165.518,44.927
16:35:20:341,44.050,-0.183,-0.740,0.402,37.108,-166.876,39.224
16:35:20:364,44.073,-0.137,-0.710,0.395,33.921,-168.009,34.463
16:35:20:504,44.213,-0.196,-0.587,0.697,27.014,-170.249,27.207
16:35:20:505,44.214,-0.090,-0.396,0.695,21.938,-171.449,23.026
16:35:20:506,44.215,0.079,-0.154,0.587,14.189,-172.071,17.296
16:35:20:507,44.216,0.198,0.212,0.384,8.962,-171.934,13.424
16:35:20:611,44.320,0.335,0.503,0.239,1.400,-171.338,8.010
16:35:20:611,44.320,0.384,0.512,-0.658,-4.075,-169.560,4.675
16:35:20:612,44.321,1.240,0.345,-1.346,-7.015,-167.400,4.312
16:35:20:612,44.321,1.550,0.011,-2.034,-9.367,-161.673,3.602
16:35:20:688,44.397,2.044,-0.339,-5.170,-6.995,-157.093,2.653
16:35:20:688,44.397,-0.248,0.592,4.291,-8.143,-154.561,3.445
16:35:20:689,44.398,-0.768,-0.781,-0.379,-4.692,-154.719,4.018
16:35:20:69,44.399,-0.623,-1.501,0.394,-0.282,-155.688,3.321
16:35:20:794,44.503,0.320,0.193,0.242,-0.298,-154.901,5.886
16:35:20:795,44.504,0.070,0.020,-0.221,1.112,-154.947,6.622
16:35:20:795,44.504,0.075,0.424,0.097,2.325,-155.015,7.906
16:35:20:796,44.505,-0.431,0.738,0.385,3.295,-155.208,9.941
16:35:20:924,44.633,-0.259,0.531,0.551,4.111,-155.258,11.903
16:35:20:925,44.634,0.156,0.089,0.843,5.435,-155.100,15.964
16:35:20:926,44.635,0.381,0.215,0.648,6.324,-154.901,19.092
16:35:20:944,44.653,-0.497,-0.313,0.188,12.125,-156.382,22.087
16:35:20:945,44.654,-0.624,-0.110,0.263,16.829,-156.329,24.396
16:35:20:968,44.677,-0.581,-0.049,0.330,22.726,-154.064,28.420
16:35:21:204,44.913,-0.454,0.034,0.459,26.974,-151.239,32.085
16:35:21:239,44.948,-0.097,0.016,1.168,32.798,-146.387,37.930
16:35:21:24,44.949,-0.329,0.256,2.178,36.620,-142.630,41.867
16:35:21:241,44.950,1.083,-0.042,-0.084,42.397,-134.701,48.097
16:35:21:242,44.951,0.291,-0.908,1.898,42.374,-134.238,48.952
16:35:21:284,44.993,0.274,-0.746,0.841,43.023,-134.170,47.466
16:35:21:37,45.080,-0.044,-1.045,0.510,41.603,-134.629,42.549
16:35:21:371,45.081,-0.018,-0.952,0.414,38.512,-135.483,38.210
16:35:21:372,45.082,0.169,-0.836,0.678,31.301,-136.732,31.621
16:35:21:373,45.082,0.536,-0.594,0.615,25.552,-136.813,27.683
16:35:21:397,45.106,0.701,-0.276,0.544,16.740,-136.528,22.012
16:35:21:398,45.107,0.585,0.255,0.374,8.527,-136.592,15.888
16:35:21:399,45.108,0.305,0.627,0.080,3.459,-136.138,11.955
16:35:21:4,45.109,0.113,0.717,-1.067,-3.405,-133.371,8.102
16:35:21:421,45.130,0.117,0.360,-1.738,-6.525,-131.036,7.283
16:35:21:421,45.130,0.551,0.312,-3.130,-8.458,-125.552,7.131
16:35:21:473,45.182,-1.530,-0.092,-5.289,-8.210,-120.585,6.365
16:35:21:473,45.182,1.083,-1.771,-0.045,-5.057,-116.496,5.797
16:35:21:474,45.183,-0.409,0.983,-1.584,-7.045,-115.627,6.980
16:35:21:522,45.231,-1.976,-1.602,-0.251,-1.529,-116.331,6.509
16:35:21:523,45.232,1.117,0.374,-0.208,-1.283,-115.758,9.740
16:35:21:545,45.254,-0.059,0.144,-0.070,0.206,-115.410,10.495
16:35:21:571,45.280,0.099,0.407,0.009,1.417,-115.281,12.216
16:35:21:598,45.307,-0.086,0.871,0.738,2.150,-115.548,14.643
16:35:21:653,45.362,0.312,0.454,0.999,3.026,-115.477,17.006
16:35:21:654,45.363,0.469,0.104,1.008,4.413,-115.005,22.203
16:35:21:679,45.389,0.302,-0.363,0.706,6.033,-114.920,25.117
16:35:21:703,45.412,-0.197,-0.520,0.306,10.379,-115.694,27.352
16:35:21:759,45.468,-0.501,-0.116,0.552,15.292,-115.733,30.189
16:35:21:759,45.468,-0.541,-0.232,0.369,19.030,-114.526,32.745
16:35:21:782,45.491,-0.200,-0.391,0.809,23.861,-111.396,37.560
16:35:21:808,45.518,0.067,-0.263,0.642,27.298,-108.351,41.286
16:35:21:925,45.634,0.574,-0.499,1.047,31.451,-103.267,47.268
16:35:21:925,45.634,1.152,1.490,0.782,36.056,-96.858,54.018
16:35:21:926,45.635,1.278,-0.824,1.515,35.973,-94.864,55.757
16:35:21:926,45.635,1.142,-0.325,0.463,37.925,-93.939,56.383
16:35:22:079,45.788,0.937,-0.701,0.361,39.137,-94.151,55.265
16:35:22:079,45.788,0.283,-0.984,-0.057,38.065,-94.837,50.001
16:35:22:08,45.789,0.565,-0.949,0.136,34.770,-96.335,44.415
16:35:22:211,45.920,0.527,-0.773,0.345,28.342,-100.218,35.340
16:35:22:212,45.921,0.560,-0.443,0.325,20.724,-104.879,27.423
16:35:22:212,45.921,0.625,-0.158,0.122,15.079,-107.290,23.174
16:35:22:213,45.922,0.481,0.419,0.040,6.090,-109.473,16.976
16:35:22:284,45.993,-0.385,0.501,-0.203,0.649,-109.816,13.319
16:35:22:284,45.993,-0.537,0.749,-1.284,-6.749,-108.815,10.472
16:35:22:318,46.027,-1.424,0.280,-1.996,-10.952,-106.740,9.764
16:35:22:319,46.028,-1.432,0.080,-2.226,-12.037,-104.735,9.703
16:35:22:319,46.028,-3.714,1.205,-4.114,-9.034,-98.497,9.397
16:35:22:319,46.028,2.591,-0.952,3.273,-8.794,-98.410,7.959
16:35:22:334,46.043,-0.379,0.905,-0.517,-8.994,-96.743,8.783
16:35:22:365,46.075,0.027,-0.491,-1.189,-4.944,-99.043,10.697
16:35:22:366,46.076,0.486,0.345,0.209,-3.157,-98.843,12.715
16:35:22:367,46.076,-0.200,0.088,0.246,-0.667,-98.606,14.017
16:35:22:467,46.176,-0.107,0.492,0.237,0.183,-98.445,15.365
16:35:22:468,46.177,0.024,0.755,0.799,1.149,-98.567,18.229
16:35:22:578,46.287,0.704,0.268,0.564,2.274,-98.391,20.841
16:35:22:579,46.288,0.951,0.115,0.283,3.973,-97.458,26.156
16:35:22:58,46.289,0.670,-0.470,0.602,7.367,-98.163,29.500
16:35:22:581,46.290,-0.187,-0.513,0.558,11.461,-98.813,30.648
16:35:22:599,46.308,-0.478,0.060,0.368,17.154,-99.330,32.987
16:35:22:6,46.309,-0.231,-0.042,0.485,21.179,-98.318,35.220
16:35:22:627,46.336,0.280,-0.349,0.735,25.850,-95.431,39.637
16:35:22:628,46.337,0.467,-0.370,0.645,30.505,-91.674,44.553
16:35:22:629,46.338,0.876,-0.259,1.152,33.813,-89.410,47.755
16:35:22:648,46.357,0.885,0.387,0.379,40.062,-83.901,53.488
16:35:22:674,46.383,1.388,-0.845,0.868,39.602,-83.968,53.716
16:35:22:701,46.410,1.201,-0.736,0.367,40.943,-84.401,53.453
16:35:22:968,46.677,0.838,-0.770,0.237,41.419,-85.445,51.759
16:35:22:968,46.677,0.414,-0.952,0.263,38.596,-87.750,46.067
16:35:22:998,46.707,0.493,-0.717,0.362,31.830,-90.831,39.007
16:35:22:999,46.708,0.510,-0.583,0.508,26.152,-92.704,34.719
16:35:23:,46.709,0.575,-0.374,0.401,16.942,-94.299,29.576
16:35:23:001,46.710,0.681,-0.084,0.086,10.398,-94.204,26.790
16:35:23:024,46.733,0.369,0.653,-0.642,0.508,-93.097,21.830
16:35:23:025,46.734,-0.509,0.749,-1.035,-6.984,-92.792,15.819
16:35:23:026,46.735,-1.075,0.730,-1.523,-10.427,-93.422,13.555
16:35:23:027,46.736,-2.005,-0.099,-1.286,-13.787,-94.558,13.133
16:35:23:047,46.756,-1.873,0.118,-2.306,-14.869,-94.556,13.532
16:35:23:048,46.757,-4.091,0.645,-3.015,-10.589,-90.675,12.902
16:35:23:182,46.891,-0.047,-0.223,-0.700,-7.519,-91.168,12.148
16:35:23:183,46.892,-0.515,0.113,-0.295,-5.114,-91.043,14.378
16:35:23:184,46.893,0.143,0.251,-0.340,-3.691,-91.243,15.371
16:35:23:184,46.893,-0.127,0.007,0.135,-1.724,-91.106,16.746
16:35:23:253,46.962,-0.143,0.508,0.384,-0.966,-90.719,17.701
16:35:23:314,47.023,0.321,0.586,0.675,0.003,-90.354,19.843
16:35:23:314,47.023,0.760,0.415,0.522,1.766,-90.304,23.426
16:35:23:315,47.024,0.758,-0.004,0.391,3.456,-89.972,26.472
16:35:23:316,47.025,0.391,-0.573,0.476,6.583,-90.215,30.414
16:35:23:334,47.043,0.099,-0.333,0.377,10.053,-90.931,32.284
16:35:23:334,47.044,0.117,-0.118,0.643,15.042,-91.235,34.945
16:35:23:357,47.066,0.099,-0.106,0.679,21.439,-89.519,38.760
16:35:23:47,47.179,0.201,-0.039,0.755,25.561,-87.414,41.993
16:35:23:471,47.180,0.716,-0.134,0.589,32.165,-84.148,47.321
16:35:23:471,47.180,1.478,0.479,1.097,36.594,-82.520,50.852
16:35:23:515,47.225,1.017,-1.042,0.728,41.872,-76.530,55.867
16:35:23:699,47.408,0.693,-0.745,0.147,41.879,-78.745,55.263
16:35:23:734,47.443,0.160,-1.039,0.082,39.636,-80.886,51.191
16:35:23:735,47.444,0.261,-0.827,0.279,35.633,-83.297,46.954
16:35:23:735,47.444,0.439,-0.607,0.367,27.408,-87.299,39.219
16:35:23:736,47.445,0.573,-0.352,0.366,21.449,-90.310,33.958
16:35:23:76,47.469,0.565,-0.191,0.451,12.852,-94.555,26.575
16:35:23:761,47.470,0.162,0.490,0.240,4.685,-97.570,19.985
16:35:23:762,47.471,-0.205,0.739,-0.079,-0.602,-98.616,16.409
16:35:23:763,47.472,-1.118,0.968,-0.867,-7.022,-97.956,12.564
16:35:23:777,47.486,-1.907,0.645,-2.269,-9.442,-96.801,12.253
16:35:23:835,47.544,-1.608,0.065,-1.669,-12.493,-93.571,10.728
16:35:23:835,47.544,-4.167,0.047,-3.606,-12.372,-90.059,10.125
16:35:23:836,47.545,3.610,-0.471,2.134,-11.030,-88.834,10.220
16:35:23:855,47.564,-0.361,0.940,-1.157,-11.121,-86.964,10.843
16:35:23:881,47.590,0.488,-1.526,0.278,-5.410,-87.027,10.440
16:35:23:966,47.675,0.308,0.617,0.406,-4.306,-86.468,12.223
16:35:23:966,47.676,-0.086,0.209,0.064,-2.844,-86.318,13.087
16:35:23:967,47.677,0.040,0.303,0.032,-1.231,-86.276,14.358
16:35:24:017,47.726,0.007,0.321,0.546,0.092,-86.024,16.059
16:35:24:018,47.727,0.244,0.719,0.709,0.517,-86.040,17.864
16:35:24:121,47.830,0.698,0.153,0.207,1.906,-85.707,21.352
16:35:24:122,47.831,0.514,0.124,0.042,2.724,-85.456,24.622
16:35:24:152,47.862,0.388,-0.215,0.353,4.727,-85.913,28.529
16:35:24:153,47.862,0.083,-0.282,0.517,9.034,-86.630,30.415
16:35:24:154,47.863,0.021,-0.362,0.658,12.118,-86.580,31.986
16:35:24:155,47.864,-0.049,-0.213,0.578,17.541,-84.672,35.622
16:35:24:171,47.880,0.049,-0.064,0.660,21.741,-82.317,38.996
16:35:24:196,47.905,0.835,0.126,0.652,28.535,-78.313,44.878
16:35:24:276,47.986,1.417,0.493,0.747,32.831,-75.349,48.675
16:35:24:39,48.099,0.626,-0.333,0.189,37.564,-69.130,53.253
16:35:24:39,48.099,1.085,-0.643,0.123,40.592,-65.658,56.156
16:35:24:391,48.100,1.620,-0.783,0.466,39.418,-67.974,54.817
16:35:24:412,48.121,0.486,-0.950,0.255,35.696,-69.851,46.898
16:35:24:413,48.122,0.629,-0.877,0.219,28.278,-72.001,40.086
16:35:24:414,48.123,0.775,-0.364,0.072,19.195,-73.776,32.969
16:35:24:459,48.169,0.743,-0.195,0.016,13.209,-74.834,28.239
16:35:24:54,48.249,0.461,0.324,-0.008,4.852,-76.696,21.299
16:35:24:863,48.572,0.195,0.547,0.114,-0.232,-77.666,16.729
16:35:24:863,48.572,-1.118,0.983,-0.617,-6.885,-77.065,12.019
16:35:24:864,48.573,-1.527,0.583,-0.693,-10.491,-74.985,10.342
16:35:24:865,48.574,-1.990,-0.047,-0.993,-12.922,-70.302,8.952
16:35:24:941,48.650,-5.491,1.144,-1.234,-11.375,-63.901,8.834
16:35:24:942,48.651,2.768,-1.568,-0.625,-9.320,-62.231,9.180
16:35:24:942,48.651,-2.868,2.495,0.665,-12.132,-61.197,10.331
16:35:24:943,48.652,0.492,-1.162,0.697,-5.936,-61.257,9.767
16:35:24:994,48.703,0.157,0.359,-0.582,-4.572,-61.076,12.089
16:35:24:995,48.704,-0.104,0.029,-0.018,-2.540,-60.972,13.402
16:35:24:996,48.705,-0.059,0.236,0.183,-1.495,-61.004,14.155
16:35:25:169,48.878,0.472,0.429,0.308,-0.283,-60.445,17.347
16:35:25:282,48.991,0.745,0.089,0.127,0.975,-60.107,20.703
16:35:25:283,48.992,0.588,0.088,-0.083,2.368,-59.898,25.417
16:35:25:284,48.993,0.476,-0.272,0.168,4.303,-60.208,27.386
16:35:25:285,48.994,0.201,-0.309,0.592,8.401,-61.328,29.025
16:35:25:36,49.070,0.203,-0.235,0.593,11.473,-61.421,30.216
16:35:25:361,49.071,0.306,-0.192,0.633,16.410,-59.891,33.343
16:35:25:362,49.071,0.482,-0.169,0.665,20.312,-57.640,36.391
16:35:25:363,49.072,0.932,-0.083,0.489,26.706,-53.245,42.053
16:35:25:464,49.173,1.347,0.503,0.226,33.610,-48.738,47.718
16:35:25:465,49.174,1.242,-0.257,-0.192,37.382,-44.580,51.432
16:35:25:466,49.175,1.066,-0.628,-0.037,38.959,-38.026,55.113
16:35:25:493,49.202,1.687,-0.892,-0.556,36.942,-38.691,54.408
16:35:25:494,49.203,0.301,-0.849,-0.327,36.692,-38.062,52.751
16:35:25:495,49.204,0.683,-0.847,-0.408,32.630,-38.040,47.153
16:35:25:519,49.228,0.583,-0.509,-0.626,19.816,-38.181,34.843
16:35:25:52,49.229,0.543,-0.370,-0.647,14.337,-39.294,29.662
16:35:25:521,49.230,0.617,0.022,-0.603,6.166,-41.509,22.288
16:35:25:522,49.231,0.497,0.582,-0.405,0.822,-42.789,18.005
16:35:25:546,49.255,-0.458,0.726,0.016,-6.450,-41.895,12.926
16:35:25:547,49.256,-2.300,0.734,0.171,-12.159,-37.876,9.866
16:35:25:548,49.257,-2.459,0.197,0.304,-14.492,-34.166,7.900
16:35:25:589,49.298,-0.277,-1.027,-0.226,-11.899,-23.593,6.167
16:35:25:625,49.334,0.242,2.846,-0.115,-16.359,-22.206,6.899
16:35:25:625,49.334,0.510,-1.134,0.523,-10.424,-23.364,8.111
16:35:25:626,49.335,-0.386,0.533,0.238,-8.900,-23.414,9.508
16:35:25:626,49.335,-0.227,-0.031,0.256,-6.912,-22.557,10.777
16:35:25:65,49.359,-0.063,0.154,0.029,-5.639,-22.214,11.539
16:35:25:65,49.359,0.116,0.317,0.108,-4.207,-21.764,12.631
16:35:25:65,49.359,0.482,0.350,0.088,-3.188,-21.273,14.410
16:35:25:651,49.360,0.445,0.442,-0.046,-2.926,-21.104,16.214
16:35:25:667,49.376,0.208,0.177,-0.345,-2.223,-20.677,19.423
16:35:25:693,49.402,0.259,0.025,-0.278,-1.433,-20.555,21.446
16:35:25:833,49.542,0.277,-0.095,-0.076,0.353,-21.071,24.015
16:35:25:834,49.543,0.323,-0.234,0.098,2.359,-21.740,24.934
16:35:25:835,49.544,0.493,-0.234,0.177,6.364,-22.212,26.329
16:35:25:836,49.545,0.540,-0.186,0.114,10.965,-21.551,28.745
16:35:25:956,49.665,0.386,-0.049,0.002,14.568,-20.402,31.175
16:35:26:246,49.955,0.836,0.141,-0.197,21.254,-17.891,35.621
16:35:26:28,49.989,1.343,0.752,-0.328,26.604,-15.517,39.161
16:35:26:281,49.990,1.036,0.267,-0.635,34.615,-10.647,44.909
16:35:26:282,49.991,0.923,-0.655,-0.504,39.834,-4.056,49.829
16:35:26:283,49.992,-0.803,0.220,0.201,41.014,0.200,52.238
16:35:26:298,50.007,1.037,-1.310,-1.271,35.732,0.929,51.645
16:35:26:384,50.093,0.328,-0.656,-0.623,32.161,0.412,49.737
16:35:26:385,50.094,0.265,-0.898,-0.408,26.782,-0.438,43.822
16:35:26:386,50.095,0.249,-0.806,-0.465,22.066,-1.871,38.873
16:35:26:387,50.096,0.460,-0.425,-0.464,14.673,-4.672,30.451
16:35:26:412,50.121,0.318,-0.087,-0.454,6.755,-7.406,23.018
16:35:26:412,50.121,0.387,0.305,-0.221,1.218,-8.700,18.567
16:35:26:413,50.122,-0.308,0.947,0.487,-6.902,-8.918,12.959
16:35:26:414,50.123,-0.950,0.885,0.954,-11.535,-7.868,10.360
16:35:26:43,50.139,-2.166,0.233,1.638,-15.636,-4.678,7.894
16:35:26:491,50.200,-2.394,-0.158,1.553,-16.650,-0.243,6.655
16:35:26:491,50.200,-3.298,1.522,4.993,-16.885,2.898,6.201
16:35:26:492,50.201,1.231,0.956,-3.670,-15.783,4.535,5.894
16:35:26:492,50.201,0.545,-0.655,0.426,-16.923,5.330,5.723
16:35:26:593,50.302,0.355,-1.198,-0.338,-9.567,4.027,6.046
16:35:26:594,50.303,-0.141,0.426,0.074,-9.035,4.992,8.736
16:35:26:595,50.304,0.163,-0.001,0.381,-7.242,5.265,9.434
16:35:26:648,50.357,-0.045,0.287,0.161,-5.499,5.425,10.904
16:35:26:648,50.357,0.237,0.293,-0.027,-4.612,5.348,12.100
16:35:26:649,50.358,0.242,0.355,-0.251,-3.550,5.661,14.483
16:35:26:65,50.359,-0.038,0.157,-0.417,-2.709,6.018,16.412
16:35:26:719,50.428,0.011,0.070,-0.428,-1.203,6.567,19.813
16:35:26:8,50.510,0.160,0.002,-0.154,1.182,6.738,23.277
16:35:26:8,50.510,0.435,-0.200,-0.092,3.295,6.151,24.637
16:35:26:957,50.666,0.507,-0.127,-0.124,7.469,5.631,26.449
16:35:26:958,50.667,0.404,-0.042,-0.256,10.881,5.933,27.951
16:35:26:98,50.689,0.520,0.059,-0.464,17.031,7.177,31.206
16:35:27:015,50.724,0.520,0.761,-0.627,24.329,8.984,35.195
16:35:27:016,50.725,0.213,0.350,-0.589,29.344,11.393,38.107
16:35:27:017,50.726,0.802,-0.510,-1.035,34.077,15.509,41.438
16:35:27:068,50.777,0.355,-0.990,-1.348,33.495,19.177,43.476
16:35:27:068,50.777,0.110,-0.924,-0.379,31.652,20.152,42.875
16:35:27:068,50.777,0.109,-0.835,-0.607,26.770,21.558,39.392
16:35:27:069,50.778,0.049,-0.629,-0.646,19.507,21.727,34.238
16:35:27:093,50.802,0.102,-0.533,-0.702,14.276,21.269,30.247
16:35:27:094,50.803,-0.076,-0.002,-0.749,5.758,20.236,24.051
16:35:27:095,50.804,-0.086,0.319,-0.588,0.116,19.786,19.917
16:35:27:096,50.805,0.076,0.783,-0.165,-7.965,19.505,13.729
16:35:27:115,50.824,-0.905,0.942,1.133,-15.232,21.381,9.239
16:35:27:116,50.825,-1.163,0.703,2.171,-18.910,23.258,7.787
16:35:27:303,51.012,-1.066,-0.580,2.570,-21.677,26.725,5.017
16:35:27:304,51.013,-1.633,0.515,4.763,-21.865,27.813,5.413
16:35:27:305,51.014,0.244,-0.996,3.628,-18.641,31.684,5.019
16:35:27:305,51.014,0.650,2.396,1.611,-20.772,33.277,3.548
16:35:27:356,51.065,-0.118,-0.620,-0.307,-17.395,32.966,4.959
16:35:27:357,51.066,0.415,0.135,0.294,-13.011,32.637,6.782
16:35:27:357,51.066,-0.264,0.327,0.317,-12.275,32.592,8.046
16:35:27:375,51.084,0.144,0.200,0.231,-9.266,32.292,10.449
16:35:27:436,51.145,0.245,0.506,-0.124,-8.548,32.267,11.903
16:35:27:436,51.145,0.194,0.244,-0.185,-7.580,31.932,13.867
16:35:27:436,51.145,0.029,-0.036,-0.227,-6.629,31.843,15.470
16:35:27:437,51.146,-0.014,-0.047,-0.159,-5.322,31.951,18.550
16:35:27:461,51.170,-0.061,-0.045,-0.114,-5.048,31.720,20.962
16:35:27:461,51.170,0.167,-0.219,-0.066,-2.974,31.017,23.075
16:35:27:462,51.171,0.310,0.014,-0.364,-0.024,30.664,25.068
16:35:27:463,51.172,0.335,0.013,-0.348,2.551,30.754,26.692
16:35:27:668,51.378,0.363,0.073,-0.489,7.441,31.411,29.839
16:35:27:669,51.378,0.574,0.286,-0.983,11.582,31.787,32.500
16:35:27:67,51.379,0.718,0.660,-1.318,19.685,32.802,37.376
16:35:27:749,51.458,-0.135,0.533,-0.413,25.278,35.320,41.335
16:35:27:75,51.459,0.130,0.035,-0.628,32.503,40.254,46.069
16:35:27:751,51.460,-0.807,0.139,1.240,33.858,44.743,47.535
16:35:27:829,51.538,-0.404,-0.849,-0.349,25.275,45.073,43.286
16:35:27:829,51.538,0.025,-0.927,-0.298,23.357,44.986,40.004
16:35:27:83,51.539,-0.221,-0.754,-0.438,17.635,44.576,33.043
16:35:27:831,51.540,-0.455,-0.359,-0.415,10.762,44.084,26.340
16:35:27:854,51.563,-0.349,-0.077,-0.352,5.512,43.237,21.861
16:35:27:854,51.564,-0.049,0.473,-0.171,-2.085,42.788,15.177
16:35:27:855,51.565,-0.421,0.970,0.854,-7.267,44.443,11.919
16:35:27:856,51.565,-0.294,1.018,2.014,-12.881,48.701,8.377
16:35:27:9,51.609,-0.501,0.310,3.002,-15.274,52.620,5.210
16:35:27:926,51.635,0.528,-0.079,2.763,-14.613,54.637,4.148
16:35:27:953,51.662,0.467,-1.226,0.744,-13.577,57.065,4.647
16:35:27:954,51.663,-1.283,1.810,-1.131,-14.874,59.359,3.220
16:35:28:003,51.712,0.462,-0.129,-0.418,-9.229,58.470,3.726
16:35:28:032,51.741,0.276,0.602,0.275,-7.085,58.617,5.370
16:35:28:033,51.742,0.083,-0.045,0.320,-5.488,58.560,6.063
16:35:28:055,51.764,0.136,0.239,0.027,-3.953,58.520,7.364
16:35:28:14,51.849,0.253,0.395,-0.126,-3.152,58.638,8.432
16:35:28:141,51.850,0.065,0.500,-0.435,-2.356,58.765,11.050
16:35:28:141,51.850,-0.300,0.200,-0.371,-1.466,59.104,13.115
16:35:28:16,51.869,-0.467,0.171,-0.229,-0.004,59.703,16.696
16:35:28:246,51.955,-0.176,-0.098,-0.137,2.450,59.794,19.983
16:35:28:246,51.956,-0.179,-0.117,-0.228,4.461,59.381,21.337
16:35:28:247,51.957,0.141,-0.209,-0.394,8.310,58.840,22.809
16:35:28:319,52.028,0.051,-0.090,-0.472,11.432,58.959,24.103
16:35:28:376,52.085,-0.106,-0.155,-0.580,17.063,60.139,27.046
16:35:28:376,52.085,-0.204,0.057,-0.672,24.051,62.186,31.034
16:35:28:398,52.107,-0.300,0.791,-1.240,29.130,63.849,33.895
16:35:28:424,52.133,-0.507,0.307,-0.626,36.475,68.798,38.750
16:35:28:509,52.218,-0.232,-0.854,-0.382,38.743,72.340,41.062
16:35:28:51,52.219,-0.334,-0.847,-0.711,39.072,77.778,43.963
16:35:28:511,52.220,-0.895,-1.020,-0.761,33.662,79.033,42.617
16:35:28:61,52.319,-0.264,-0.793,-0.133,30.728,80.960,41.199
16:35:28:611,52.320,-0.445,-0.866,-0.350,23.744,82.330,36.317
16:35:28:749,52.458,-0.463,-0.579,-0.249,18.228,82.434,32.764
16:35:28:75,52.459,-0.568,-0.409,-0.296,10.382,82.455,26.311
16:35:28:75,52.459,-0.698,0.156,-0.154,4.973,82.157,21.994
16:35:28:751,52.460,-0.555,0.393,0.045,-2.649,81.542,15.325
16:35:29:057,52.766,0.122,0.706,0.361,-9.023,81.160,10.176
16:35:29:058,52.767,0.305,0.812,1.254,-12.861,81.698,8.247
16:35:29:115,52.824,1.219,0.077,1.301,-16.699,84.335,5.365
16:35:29:116,52.825,1.248,-0.332,1.936,-17.991,86.115,4.838
16:35:29:117,52.826,1.348,-0.421,2.222,-18.869,87.379,6.150
16:35:29:143,52.852,0.818,2.258,-2.228,-16.861,88.358,5.071
16:35:29:143,52.852,-0.198,-0.118,1.086,-12.924,89.291,5.985
16:35:29:143,52.852,0.819,-0.168,-0.136,-10.609,89.468,7.069
16:35:29:143,52.852,-0.134,0.517,0.336,-8.756,89.380,8.817
16:35:29:22,52.929,0.284,0.014,-0.133,-7.347,89.183,9.908
16:35:29:221,52.930,0.306,0.166,-0.003,-5.958,89.447,11.528
16:35:29:222,52.931,-0.209,0.552,-0.209,-5.856,89.384,14.101
16:35:29:223,52.932,-0.301,0.306,-0.226,-5.186,89.100,16.179
16:35:29:298,53.007,-0.566,0.085,-0.043,-3.868,88.623,20.048
16:35:29:299,53.008,-0.194,0.088,-0.175,-2.865,88.307,22.701
16:35:29:3,53.009,-0.187,-0.240,-0.315,-0.035,86.440,24.972
16:35:29:3,53.009,0.206,-0.278,-0.294,3.933,85.176,26.639
16:35:29:317,53.026,0.057,-0.203,-0.333,6.320,84.836,28.122
16:35:29:483,53.192,-0.091,-0.142,-0.408,10.648,85.684,31.162
16:35:29:483,53.192,0.029,0.146,-0.316,14.344,86.928,33.770
16:35:29:484,53.193,-0.439,0.423,-0.756,19.873,88.857,38.341
16:35:29:485,53.194,-0.981,0.739,-1.196,26.270,90.685,43.027
16:35:29:509,53.218,-0.925,0.132,-0.440,29.715,92.768,45.969
16:35:29:51,53.219,-0.008,-0.363,-0.011,32.839,95.386,48.780
16:35:29:511,53.220,-1.181,-0.997,-0.936,32.163,93.707,48.708
16:35:29:511,53.220,-0.248,-0.968,-0.082,31.144,92.226,46.999
16:35:29:535,53.244,-0.237,-0.944,-0.387,28.337,90.847,43.999
16:35:29:535,53.244,-0.282,-0.788,-0.318,21.785,88.095,38.412
16:35:29:536,53.245,-0.417,-0.555,-0.426,13.981,84.867,31.673
16:35:29:537,53.246,-0.387,-0.314,-0.456,8.598,82.630,27.135
16:35:29:561,53.270,-0.323,0.110,-0.330,0.315,79.594,20.319
16:35:29:562,53.271,0.181,0.628,-0.186,-5.073,77.673,16.185
16:35:29:562,53.271,0.601,0.758,0.406,-12.611,76.765,12.057
16:35:29:563,53.272,1.538,0.318,1.898,-17.948,78.445,9.629
16:35:29:585,53.294,1.320,0.199,2.156,-20.506,79.035,8.455
16:35:29:586,53.295,3.149,0.753,4.231,-20.823,79.078,7.858
16:35:29:586,53.295,-1.873,-0.753,-3.318,-17.811,78.646,8.104
16:35:29:684,53.393,2.301,1.331,1.158,-16.473,78.846,6.554
16:35:29:717,53.426,-0.459,-0.241,-0.029,-13.669,78.691,7.629
16:35:29:718,53.427,0.333,0.437,0.428,-11.543,79.671,8.782
16:35:29:719,53.428,0.130,0.298,0.105,-9.360,79.857,10.103
16:35:29:766,53.475,0.100,0.214,-0.234,-6.699,79.701,13.137
16:35:29:766,53.475,-0.203,0.397,-0.339,-6.452,79.571,15.199
16:35:29:788,53.497,-0.388,0.340,-0.331,-5.252,79.479,18.624
16:35:29:814,53.523,-0.249,0.023,-0.133,-3.861,79.699,23.056
16:35:29:841,53.550,-0.358,-0.159,-0.196,-2.730,78.898,25.143
16:35:29:867,53.576,0.008,-0.245,-0.326,0.990,77.470,27.021
16:35:29:893,53.602,0.155,-0.111,-0.446,3.546,77.072,28.331
16:35:29:949,53.658,0.099,-0.157,-0.448,7.871,77.692,31.194
16:35:29:949,53.658,0.200,-0.112,-0.528,13.204,79.554,35.279
16:35:30:051,53.760,-0.114,-0.015,-0.689,17.198,80.604,38.660
16:35:30:111,53.820,-0.728,0.772,-1.162,23.995,82.460,43.712
16:35:30:111,53.820,-1.138,0.125,-0.788,28.668,84.769,46.894
16:35:30:111,53.820,0.149,0.005,-0.207,31.870,89.163,49.824
16:35:30:135,53.844,-1.131,-0.993,-0.907,31.695,90.384,50.143
16:35:30:136,53.845,-0.797,-0.761,-0.286,30.644,88.356,48.736
16:35:30:136,53.845,-0.175,-0.958,-0.116,27.589,86.968,44.107
16:35:30:156,53.865,-0.300,-0.756,-0.353,23.571,85.382,39.693
16:35:30:269,53.978,-0.370,-0.580,-0.342,16.803,82.603,32.441
16:35:30:27,53.979,-0.477,-0.272,-0.360,11.721,80.496,27.679
16:35:30:271,53.980,-0.376,-0.037,-0.366,4.023,78.029,20.969
16:35:30:271,53.980,-0.082,0.473,-0.070,-3.816,77.086,14.883
16:35:30:315,54.025,0.302,0.688,0.489,-8.931,78.025,11.430
16:35:30:316,54.026,0.979,0.672,1.612,-15.349,80.157,8.196
16:35:30:34,54.049,1.349,0.083,1.986,-17.838,81.530,7.269
16:35:30:395,54.104,1.503,-0.238,2.346,-19.278,83.207,6.558
16:35:30:396,54.105,3.198,-1.642,2.925,-18.379,85.011,5.974
16:35:30:446,54.155,-3.089,1.516,-3.092,-17.643,85.185,5.014
16:35:30:474,54.183,0.524,-1.254,0.487,-14.113,85.204,5.597
16:35:30:475,54.184,-0.135,-0.563,0.036,-11.448,84.955,6.632
16:35:30:555,54.264,0.000,0.201,-0.134,-9.838,85.415,7.936
16:35:30:555,54.264,0.187,0.125,0.013,-8.673,85.236,8.852
16:35:30:556,54.265,0.089,0.244,0.008,-7.278,85.038,10.137
16:35:30:604,54.313,0.019,0.263,-0.232,-6.242,84.904,12.082
16:35:30:63,54.340,-0.194,0.448,-0.294,-5.785,84.589,13.958
16:35:30:631,54.341,-0.424,0.142,-0.275,-4.386,84.304,17.132
16:35:30:655,54.364,-0.269,0.138,-0.256,-3.520,84.242,19.810
16:35:30:681,54.390,-0.338,-0.163,-0.160,-2.196,83.493,23.233
16:35:30:736,54.445,0.086,-0.264,-0.270,1.360,81.999,24.879
16:35:30:736,54.445,0.314,-0.277,-0.540,3.956,81.393,26.039
16:35:30:759,54.468,0.031,-0.055,-0.585,8.271,81.821,28.853
16:35:30:785,54.494,-0.021,0.045,-0.646,11.977,82.795,31.344
16:35:30:812,54.521,-0.295,0.108,-0.722,18.261,84.741,36.401
16:35:30:897,54.606,-0.718,0.941,-0.742,22.498,86.157,39.812
16:35:30:898,54.607,-0.737,0.205,-0.524,28.379,89.722,44.061
16:35:30:899,54.608,-0.135,-0.059,-0.060,31.010,93.936,47.170
16:35:30:919,54.628,-1.417,-0.814,-0.982,30.347,94.471,47.477
16:35:30:972,54.681,-0.420,-0.848,0.063,30.968,95.563,45.947
16:35:30:973,54.682,-0.302,-1.105,-0.111,30.258,95.849,42.920
16:35:31:048,54.757,-0.444,-0.983,-0.161,26.265,95.201,36.535
16:35:31:083,54.792,-0.583,-0.792,-0.212,22.054,94.238,31.790
16:35:31:083,54.792,-0.753,-0.400,-0.131,14.354,93.383,25.152
16:35:31:084,54.793,-0.673,0.038,0.037,5.731,93.868,19.147
16:35:31:365,55.074,0.334,0.768,0.434,-7.678,95.866,10.000
16:35:31:419,55.128,1.228,0.764,1.377,-11.764,97.339,7.274
16:35:31:446,55.155,1.616,0.182,1.052,-15.968,100.905,4.647
16:35:31:447,55.156,4.097,0.057,2.335,-16.354,106.390,2.982
16:35:31:548,55.257,5.039,-1.020,2.385,-13.325,109.023,2.401
16:35:31:608,55.317,-3.335,1.931,0.281,-16.481,110.870,3.004
16:35:31:609,55.318,1.040,-0.832,-1.521,-13.187,109.537,4.094
16:35:31:61,55.319,-0.071,-0.453,0.379,-8.775,109.360,4.255
16:35:31:611,55.320,0.167,-0.074,-0.112,-7.246,110.148,5.716
16:35:31:661,55.370,0.153,0.206,0.006,-6.203,110.080,6.688
16:35:31:662,55.371,0.066,0.253,0.016,-4.815,109.818,8.062
16:35:31:662,55.371,-0.032,0.514,-0.459,-3.972,109.705,9.200
16:35:31:663,55.372,-0.263,0.401,-0.257,-3.358,109.552,11.815
16:35:31:732,55.441,-0.494,0.210,-0.020,-2.559,109.728,15.223
16:35:31:793,55.502,-0.623,0.134,0.132,-1.939,109.845,18.067
16:35:31:793,55.502,-0.307,-0.143,-0.058,-0.102,109.634,21.365
16:35:31:794,55.503,-0.030,-0.299,-0.364,1.949,108.859,22.590
16:35:31:795,55.504,-0.106,-0.166,-0.580,5.528,108.331,24.447
16:35:31:948,55.657,-0.291,-0.041,-0.602,8.375,108.964,26.173
16:35:31:949,55.658,-0.304,-0.075,-0.565,13.683,112.073,30.062
16:35:31:949,55.658,-0.661,0.090,-0.505,19.586,116.323,35.375
16:35:31:994,55.703,-1.145,0.822,-0.215,23.533,118.862,38.829
16:35:32:075,55.784,-1.120,-0.098,-0.255,29.031,123.756,43.441
16:35:32:076,55.785,0.086,0.098,0.755,30.928,127.676,45.857
16:35:32:161,55.870,-1.814,-0.983,0.140,30.389,128.589,46.083
16:35:32:161,55.870,-0.485,-0.828,0.444,30.103,129.061,43.398
16:35:32:161,55.870,-0.506,-0.963,-0.043,28.681,129.296,39.285
16:35:32:162,55.871,-0.619,-0.847,0.210,24.203,128.946,32.226
16:35:32:213,55.922,-0.650,-0.543,0.288,19.999,128.612,27.385
16:35:32:214,55.923,-0.531,-0.196,0.594,12.659,128.577,20.710
16:35:32:214,55.923,-0.356,0.244,0.519,7.529,128.707,16.208
16:35:32:215,55.924,-0.140,0.563,0.585,-0.001,129.009,9.902
16:35:32:289,55.998,0.878,0.716,0.466,-6.452,131.599,5.294
16:35:32:289,55.998,1.633,0.365,0.228,-10.046,135.272,3.544
16:35:32:29,55.999,2.268,-0.117,0.165,-13.471,140.338,2.121
16:35:32:343,56.052,3.098,0.147,0.339,-14.143,143.408,1.456
16:35:32:344,56.053,4.888,-1.329,-1.395,-10.596,146.041,0.833
16:35:32:345,56.054,-2.378,1.797,1.695,-13.529,148.178,0.689
16:35:32:346,56.055,-0.340,-0.457,-0.559,-10.223,147.153,1.431
16:35:32:394,56.103,0.538,0.283,0.353,-7.118,147.118,2.569
16:35:32:394,56.103,0.180,0.101,-0.008,-5.999,147.410,3.430
16:35:32:395,56.104,0.098,0.135,-0.157,-4.238,147.165,4.678
16:35:32:546,56.255,0.032,0.266,0.009,-2.984,146.812,6.122
16:35:32:581,56.290,-0.276,0.457,-0.025,-2.388,146.562,7.483
16:35:32:581,56.290,-0.361,0.412,0.141,-1.528,146.390,10.311
16:35:32:582,56.291,-0.457,0.245,0.407,-0.772,146.509,12.614
16:35:32:582,56.291,-0.349,0.086,0.395,0.727,146.657,16.614
16:35:32:712,56.421,-0.366,-0.239,-0.013,2.384,146.367,18.750
16:35:32:712,56.421,-0.278,-0.232,-0.255,5.769,145.152,20.758
16:35:32:713,56.422,-0.364,-0.101,-0.230,10.169,145.183,22.975
16:35:32:714,56.423,-0.544,-0.046,-0.185,13.481,145.774,25.074
16:35:32:738,56.447,-0.569,-0.059,-0.161,19.832,148.148,29.202
16:35:32:738,56.447,-0.845,0.149,-0.137,24.348,150.390,32.790
16:35:32:739,56.448,-0.820,0.393,0.645,31.036,154.054,38.483
16:35:32:739,56.448,-1.159,-0.182,0.483,35.028,157.406,41.592
16:35:32:763,56.472,0.254,0.089,0.042,37.516,163.669,45.055
16:35:32:764,56.473,-1.267,-0.949,1.336,34.281,164.517,44.682
16:35:32:765,56.474,-0.061,-0.613,0.714,33.745,165.720,43.785
16:35:32:766,56.475,-0.306,-0.971,0.426,30.625,166.636,38.566
16:35:32:813,56.523,-0.177,-0.795,0.633,27.010,166.395,34.392
16:35:32:814,56.524,-0.253,-0.607,0.712,20.530,165.381,27.120
16:35:32:815,56.524,-0.073,-0.177,0.817,12.897,164.082,20.127
16:35:32:839,56.548,-0.022,0.032,0.732,7.582,163.170,15.703
16:35:32:84,56.549,0.012,0.548,0.230,-0.121,162.617,9.723
16:35:32:841,56.550,0.728,0.681,-0.049,-5.092,164.230,6.954
16:35:32:89,56.599,1.593,0.560,-0.696,-11.613,168.378,5.023
16:35:32:891,56.600,2.499,0.135,-1.287,-15.051,172.046,4.237
16:35:32:914,56.623,2.365,-0.312,-1.722,-15.491,173.799,2.959
16:35:33:078,56.787,3.605,-0.423,-3.827,-12.170,175.460,1.913
16:35:33:079,56.788,-1.222,2.277,1.290,-13.545,176.245,1.505
16:35:33:08,56.789,0.338,-1.216,-0.388,-9.415,176.431,2.607
16:35:33:08,56.790,0.438,0.404,-0.297,-6.760,176.554,3.764
16:35:33:105,56.814,0.020,0.266,-0.215,-5.541,176.395,4.476
16:35:33:105,56.814,0.204,0.173,-0.083,-4.165,175.993,5.833
16:35:33:106,56.815,0.078,0.225,0.018,-3.400,175.756,6.710
16:35:33:127,56.836,-0.386,0.511,0.361,-2.349,175.213,10.466
16:35:33:183,56.892,-0.296,0.096,0.535,-1.416,174.990,13.916
16:35:33:183,56.892,-0.031,0.165,0.517,-0.571,174.850,18.265
16:35:33:184,56.893,-0.179,-0.291,0.239,0.809,173.833,19.903
16:35:33:185,56.894,-0.436,-0.377,-0.287,4.606,172.422,21.363
16:35:33:258,56.967,-0.431,-0.224,-0.133,7.058,172.353,22.659
16:35:33:259,56.968,-0.453,-0.073,-0.061,11.191,173.492,25.692
16:35:33:26,56.969,-0.487,0.022,0.140,14.763,175.034,28.443
16:35:33:309,57.019,-0.658,-0.047,0.416,20.538,177.592,33.694
16:35:33:309,57.019,-0.800,0.866,1.061,27.050,179.881,38.884
16:35:33:419,57.128,-0.506,-0.053,1.106,31.654,-177.438,42.198
16:35:33:42,57.129,0.137,0.254,0.034,34.761,-171.868,45.854
16:35:33:466,57.175,-0.201,-0.952,0.405,31.670,-168.729,40.253
16:35:33:466,57.175,-0.065,-0.802,0.439,28.671,-169.179,35.691
16:35:33:577,57.286,-0.134,-0.614,0.598,22.590,-170.497,28.294
16:35:33:577,57.286,0.080,-0.380,0.699,17.614,-171.397,23.808
16:35:33:578,57.287,0.085,-0.105,0.637,9.949,-172.352,17.389
16:35:33:579,57.288,0.176,0.454,0.357,2.467,-172.677,11.594
16:35:33:594,57.303,0.452,0.495,-0.232,-2.137,-171.669,8.555
16:35:33:677,57.386,1.044,0.687,-0.960,-8.685,-168.708,5.851
16:35:33:678,57.387,0.814,-0.098,-1.645,-11.235,-166.218,4.721
16:35:33:73,57.439,2.042,0.781,-4.042,-12.877,-162.293,2.977
16:35:33:73,57.439,-0.207,-1.284,2.679,-9.221,-158.819,2.523
16:35:33:84,57.549,-0.050,1.774,3.621,-12.598,-157.034,2.536
16:35:33:84,57.549,-1.383,-1.291,-0.668,-7.357,-158.002,3.179
16:35:33:841,57.550,0.171,0.507,-0.303,-5.149,-158.532,3.951
16:35:33:842,57.551,0.291,0.129,-0.200,-3.778,-158.324,5.622
16:35:33:858,57.567,0.101,0.209,-0.069,-2.805,-158.620,6.633
16:35:33:884,57.593,-0.045,0.277,-0.062,-1.718,-158.949,8.107
16:35:33:942,57.651,-0.111,0.484,0.262,-1.237,-159.376,10.274
16:35:33:942,57.651,-0.101,0.318,0.421,-0.755,-159.765,12.261
16:35:33:943,57.652,0.049,0.031,0.549,0.214,-160.051,15.637
16:35:33:961,57.670,0.149,0.091,0.450,0.636,-160.375,18.234
16:35:33:988,57.697,-0.276,-0.228,0.138,2.897,-161.839,20.151
16:35:34:014,57.723,-0.465,-0.264,-0.042,5.040,-162.466,21.123
16:35:34:04,57.749,-0.478,-0.127,0.177,8.621,-162.036,23.048
16:35:34:096,57.805,-0.544,-0.027,0.136,12.909,-160.217,26.260
16:35:34:096,57.805,-0.496,0.098,0.237,16.528,-158.268,29.223
16:35:34:119,57.828,-0.621,-0.013,0.612,22.149,-154.937,34.428
16:35:34:145,57.854,-0.119,0.589,1.191,25.982,-153.394,37.627
16:35:34:252,57.962,0.063,0.273,1.457,31.860,-149.968,42.311
16:35:34:283,57.992,0.416,0.373,-0.102,34.820,-142.149,46.366
16:35:34:285,57.994,0.393,-0.868,1.245,34.544,-140.013,46.749
16:35:34:285,57.994,0.592,-0.814,0.589,34.077,-140.441,43.355
16:35:34:335,58.044,-0.038,-1.202,0.415,34.033,-140.798,38.708
16:35:34:335,58.044,0.140,-1.046,0.529,30.957,-142.424,29.884
16:35:34:336,58.045,0.346,-0.652,0.714,24.610,-143.282,23.305
16:35:34:413,58.122,1.060,-0.389,0.413,19.322,-143.064,20.490
16:35:34:414,58.123,0.827,0.063,0.385,10.773,-142.675,15.894
16:35:34:415,58.124,0.086,0.413,0.321,5.256,-142.071,12.420
16:35:34:434,58.143,0.604,0.783,-0.781,-2.011,-139.557,8.471
16:35:34:461,58.170,0.473,0.731,-1.639,-6.020,-136.130,7.247
16:35:34:487,58.196,0.741,0.574,-2.466,-9.970,-131.348,5.917
16:35:34:543,58.252,-1.227,0.800,-5.533,-9.462,-125.932,4.327
16:35:34:543,58.252,-1.303,-0.402,-4.030,-6.748,-124.549,3.843
16:35:34:565,58.275,1.260,1.745,1.531,-9.415,-122.216,3.445
16:35:34:62,58.329,-0.637,-0.937,0.396,-7.170,-122.956,4.542
16:35:34:647,58.356,-0.162,0.711,-0.406,-3.753,-122.621,4.913
16:35:34:648,58.357,0.198,0.232,-0.192,-2.447,-122.426,6.251
16:35:34:699,58.408,0.091,0.044,-0.077,-1.506,-122.709,7.140
16:35:34:7,58.409,-0.044,0.337,0.052,-0.484,-122.999,8.560
16:35:34:753,58.462,-0.087,0.415,0.252,0.162,-123.351,9.774
16:35:34:753,58.462,0.149,0.210,0.361,0.877,-123.729,12.346
16:35:34:775,58.484,0.449,0.023,0.278,1.779,-123.892,15.426
16:35:34:801,58.510,0.327,-0.033,0.176,2.512,-124.043,17.827
16:35:34:884,58.593,0.077,-0.187,0.133,4.290,-124.931,20.427
16:35:34:885,58.594,-0.097,-0.178,0.160,5.954,-125.683,21.568
16:35:34:912,58.621,-0.339,-0.134,0.299,9.189,-126.152,23.007
16:35:34:912,58.621,-0.195,-0.022,0.540,12.995,-125.600,25.266
16:35:34:933,58.642,-0.084,0.040,0.724,16.036,-124.862,27.533
16:35:35:014,58.723,-0.042,0.256,1.070,21.951,-123.435,32.159
16:35:35:172,58.881,0.069,0.582,1.327,27.064,-121.525,36.049
16:35:35:259,58.968,0.644,0.380,0.878,34.490,-116.949,42.233
16:35:35:26,58.969,0.181,-0.747,1.379,38.284,-112.937,45.729
16:35:35:261,58.970,0.331,-0.861,0.127,41.128,-107.413,49.227
16:35:35:262,58.971,0.939,-1.102,1.012,37.836,-107.520,47.842
16:35:35:285,58.994,0.190,-1.032,0.008,36.365,-106.883,45.903
16:35:35:285,58.994,0.414,-0.955,0.276,31.753,-106.701,39.903
16:35:35:286,58.995,0.536,-0.886,0.233,27.247,-107.189,35.223
16:35:35:287,58.996,0.736,-0.511,0.297,19.924,-108.720,27.434
16:35:35:306,59.015,0.533,0.452,0.163,6.851,-112.481,15.605
16:35:35:333,59.042,0.059,0.718,-0.295,-0.770,-112.097,10.575
16:35:35:333,59.042,-0.421,0.701,-1.366,-5.540,-109.248,8.678
16:35:35:334,59.043,-0.594,0.428,-2.120,-10.649,-104.927,7.145
16:35:35:385,59.094,-1.394,0.284,-3.537,-12.356,-100.954,6.568
16:35:35:386,59.095,-3.537,0.228,-4.335,-9.357,-98.536,5.884
16:35:35:386,59.095,2.178,1.675,2.586,-10.619,-98.540,5.027
16:35:35:462,59.171,-0.903,-0.945,-0.085,-9.109,-98.694,4.765
16:35:35:462,59.171,0.334,0.499,-0.326,-5.309,-99.006,6.624
16:35:35:485,59.194,0.214,-0.060,0.045,-4.248,-98.421,7.887
16:35:35:515,59.224,-0.109,-0.039,0.001,-2.219,-98.672,9.500
16:35:35:515,59.224,0.022,0.277,0.209,-0.367,-98.803,10.947
16:35:35:536,59.245,0.185,0.321,0.144,0.359,-98.790,12.270
16:35:35:651,59.360,0.352,0.175,0.212,1.430,-98.690,14.754
16:35:35:651,59.361,0.390,0.032,0.150,2.482,-98.686,16.553
16:35:35:652,59.361,0.321,0.000,0.132,4.044,-98.564,19.905
16:35:35:774,59.483,0.024,-0.158,0.236,8.087,-99.812,23.744
16:35:35:809,59.518,-0.136,-0.149,0.421,11.815,-100.639,25.440
16:35:35:809,59.518,-0.013,-0.105,0.523,14.528,-100.304,27.016
16:35:35:81,59.519,0.352,0.035,0.468,19.071,-98.926,30.551
16:35:35:811,59.520,0.339,0.294,0.802,23.133,-97.685,33.530
16:35:35:88,59.589,0.972,0.621,1.116,30.422,-95.008,38.956
16:35:35:962,59.671,0.648,0.238,0.317,37.895,-91.018,44.958
16:35:35:963,59.672,0.725,-0.197,0.833,41.372,-88.076,47.957
16:35:36:042,59.751,0.309,-0.733,0.081,43.316,-84.043,50.520
16:35:36:043,59.752,1.135,-1.248,0.696,41.009,-83.846,50.231
16:35:36:044,59.753,0.301,-0.872,-0.007,36.057,-83.830,47.151
16:35:36:063,59.772,0.482,-0.923,0.348,30.147,-84.345,41.908
16:35:36:097,59.806,0.562,-0.785,0.197,25.029,-85.003,37.815
16:35:36:098,59.807,0.619,-0.500,0.245,16.994,-86.060,31.137
16:35:36:098,59.807,0.726,0.015,0.125,11.224,-87.069,26.631
16:35:36:099,59.808,0.683,0.396,-0.075,2.864,-88.572,19.869
16:35:36:145,59.854,-0.135,0.837,-0.393,-4.580,-90.906,14.139
16:35:36:146,59.855,-0.757,0.825,-0.836,-8.188,-91.808,11.796
16:35:36:169,59.878,-1.648,0.299,-1.539,-12.236,-92.559,10.360
16:35:36:17,59.879,-1.518,0.443,-1.657,-13.413,-92.078,9.923
16:35:36:275,59.984,-4.535,2.054,-3.394,-11.131,-90.308,9.054
16:35:36:275,59.985,2.752,-0.102,3.216,-11.416,-91.062,9.019
16:35:36:387,60.096,1.475,-0.451,-1.539,-8.397,-90.721,9.130
16:35:36:387,60.096,0.316,-0.039,-0.111,-6.117,-90.143,10.499
16:35:36:388,60.097,-0.140,-0.177,0.562,-4.216,-90.123,11.070
16:35:36:388,60.097,-0.002,0.192,0.024,-2.564,-90.080,12.574
16:35:36:407,60.116,-0.059,0.199,0.158,-1.233,-89.923,13.474
16:35:36:407,60.116,0.124,0.525,0.364,-0.092,-89.835,15.500
16:35:36:461,60.170,0.391,0.202,0.283,1.175,-89.983,18.472
16:35:36:461,60.171,0.507,0.168,0.232,2.034,-90.183,20.895
16:35:36:462,60.172,0.252,-0.132,0.183,3.959,-90.197,24.694
16:35:36:511,60.220,0.360,-0.118,0.173,5.544,-90.758,26.447
16:35:36:512,60.221,0.158,-0.137,0.242,9.268,-91.955,28.475
16:35:36:535,60.244,0.005,-0.209,0.537,12.194,-92.396,29.828
16:35:36:588,60.297,0.264,-0.083,0.625,16.752,-91.936,32.819
16:35:36:645,60.354,0.358,0.010,0.737,22.603,-89.581,37.197
16:35:36:645,60.355,0.576,0.185,0.912,26.894,-87.617,40.739
16:35:36:646,60.356,0.972,0.550,0.596,33.904,-84.383,46.208
16:35:36:781,60.490,0.814,-0.509,0.659,37.222,-81.619,49.171
16:35:36:781,60.490,-0.035,-0.466,-0.108,39.571,-78.287,51.928
16:35:36:782,60.491,0.854,-1.169,0.384,36.899,-79.691,50.773
16:35:36:783,60.492,0.253,-1.029,0.045,35.369,-80.357,48.819
16:35:36:878,60.587,0.373,-0.982,0.292,29.767,-82.892,43.411
16:35:36:912,60.621,0.327,-0.872,0.230,24.971,-84.923,38.864
16:35:36:912,60.621,0.574,-0.576,0.366,16.770,-88.895,31.187
16:35:36:933,60.642,-0.219,0.893,-0.230,-4.754,-96.181,14.166
16:35:36:934,60.643,-0.944,1.002,-0.886,-9.004,-96.041,12.067
16:35:36:985,60.694,-1.496,0.546,-1.671,-13.176,-93.607,9.870
16:35:36:985,60.694,-1.466,0.311,-1.899,-14.577,-91.553,9.157
16:35:37:037,60.746,-4.391,0.717,-3.463,-12.396,-89.314,9.342
16:35:37:037,60.746,1.209,0.657,2.952,-11.081,-89.904,8.379
16:35:37:175,60.884,0.703,-0.257,-1.577,-8.896,-89.672,9.107
16:35:37:175,60.884,0.054,0.128,-0.048,-6.652,-89.054,10.143
16:35:37:175,60.884,-0.114,-0.115,0.336,-4.850,-88.859,10.618
16:35:37:176,60.885,-0.006,0.171,-0.027,-3.701,-89.169,11.816
16:35:37:224,60.933,0.149,0.189,-0.075,-2.483,-89.330,13.027
16:35:37:225,60.934,0.115,0.295,0.056,-1.815,-89.319,14.207
16:35:37:331,61.040,0.441,0.317,0.353,-0.325,-89.768,18.697
16:35:37:331,61.040,0.500,0.050,0.219,1.249,-89.941,22.480
16:35:37:332,61.041,0.213,-0.054,0.130,2.455,-89.920,25.241
16:35:37:348,61.057,-0.027,-0.235,0.633,9.728,-91.263,30.522
16:35:37:374,61.083,0.169,-0.152,0.634,12.672,-90.858,32.714
16:35:37:4,61.110,0.099,-0.089,0.585,17.960,-89.391,37.142
16:35:37:426,61.135,0.137,0.059,0.712,22.413,-87.701,40.736
16:35:37:483,61.192,0.956,0.247,1.298,29.165,-85.687,46.723
16:35:37:484,61.193,0.731,-0.113,0.182,35.897,-81.876,52.306
16:35:37:567,61.276,0.586,-0.652,0.906,38.097,-80.147,53.968
16:35:37:567,61.276,0.800,-1.051,0.295,37.923,-77.963,55.088
16:35:37:568,61.277,0.656,-0.912,0.156,34.340,-80.244,52.452
16:35:37:569,61.278,0.413,-0.836,0.064,30.870,-83.079,47.499
16:35:37:751,61.460,0.483,-0.848,0.321,26.893,-85.651,42.258
16:35:37:751,61.460,0.503,-0.616,0.408,20.366,-90.203,33.715
16:35:37:752,61.461,0.425,-0.332,0.500,13.105,-95.041,25.645
16:35:37:753,61.462,0.347,-0.009,0.435,7.871,-97.371,21.009
16:35:37:798,61.507,-0.044,0.424,0.233,0.051,-99.265,15.546
16:35:37:799,61.508,-0.957,0.625,-0.862,-4.501,-99.055,13.217
16:35:37:854,61.563,-1.270,0.671,-1.383,-10.171,-97.154,9.888
16:35:37:854,61.563,-1.562,0.724,-2.572,-11.119,-93.781,7.942
16:35:37:855,61.564,-3.946,-0.102,-3.872,-8.097,-91.608,8.059
16:35:37:879,61.588,2.757,1.456,0.875,-10.333,-89.343,7.152
16:35:37:879,61.588,-0.579,-1.020,0.947,-6.290,-90.974,7.340
16:35:37:88,61.589,0.020,0.516,-0.704,-4.008,-91.616,8.453
16:35:37:899,61.608,-0.090,0.012,-0.017,-1.993,-91.645,9.630
16:35:37:979,61.688,0.061,0.158,-0.082,-0.691,-91.541,10.378
16:35:38:039,61.748,0.060,0.313,0.183,0.865,-91.084,11.708
16:35:38:04,61.749,0.134,0.635,0.498,1.677,-90.961,13.036
16:35:38:041,61.750,0.389,0.376,0.420,3.219,-90.842,15.894
16:35:38:041,61.750,0.691,0.101,0.134,4.495,-90.758,18.421
16:35:38:085,61.795,0.361,0.015,0.193,6.591,-90.473,22.669
16:35:38:086,61.796,0.242,-0.233,0.510,9.801,-91.365,25.537
16:35:38:11,61.819,0.148,-0.197,0.576,12.839,-91.958,26.949
16:35:38:135,61.844,0.246,-0.114,0.472,18.224,-91.509,29.805
16:35:38:162,61.871,0.338,-0.091,0.624,22.348,-90.218,32.461
16:35:38:188,61.897,0.580,0.282,0.732,29.340,-87.140,37.361
16:35:38:214,61.923,0.970,0.253,0.465,36.156,-83.394,42.303
16:35:38:241,61.950,1.165,-0.373,0.600,39.213,-80.449,45.178
16:35:38:267,61.976,0.828,-0.898,0.438,41.305,-75.659,48.702
16:35:38:293,62.002,0.875,-1.073,0.258,38.835,-75.282,48.413
16:35:38:319,62.028,0.521,-0.936,0.056,35.660,-74.516,46.379
16:35:38:402,62.111,0.611,-0.816,0.234,31.571,-74.947,43.353
16:35:38:402,62.111,0.637,-0.768,0.211,24.143,-76.083,37.034
16:35:38:504,62.213,0.809,-0.358,0.020,16.036,-77.657,30.210
16:35:38:538,62.247,0.637,-0.235,0.106,10.789,-78.592,25.357
16:35:38:539,62.248,0.501,0.243,-0.084,3.005,-79.798,18.359
16:35:38:54,62.249,0.047,0.640,0.057,-1.872,-80.335,14.722
16:35:38:643,62.353,-1.811,0.417,-1.200,-11.866,-73.391,8.814
16:35:38:644,62.354,-2.044,0.420,-1.545,-12.663,-68.768,7.458
16:35:38:645,62.354,-4.875,-0.290,-1.549,-8.676,-62.886,5.969
16:35:38:646,62.355,-0.656,2.839,-0.661,-12.242,-62.100,6.801
16:35:38:663,62.372,-0.486,-0.600,0.107,-8.110,-62.062,7.399
16:35:38:664,62.373,0.071,0.855,-0.500,-4.836,-62.085,8.668
16:35:38:774,62.483,-0.022,0.235,-0.038,-3.354,-61.743,9.579
16:35:38:775,62.484,-0.032,0.106,-0.100,-1.126,-61.551,10.775
16:35:38:776,62.485,0.068,0.378,0.092,-0.222,-61.299,11.627
16:35:38:777,62.486,0.303,0.468,0.405,1.126,-61.134,13.333
16:35:38:792,62.501,0.387,0.163,0.130,2.037,-61.086,15.048
16:35:38:874,62.583,0.526,-0.010,-0.236,3.577,-60.936,18.241
16:35:38:875,62.584,0.510,0.002,-0.084,5.259,-60.679,22.095
16:35:38:899,62.608,0.363,-0.110,0.057,6.854,-61.115,24.036
16:35:38:9,62.609,0.276,-0.220,0.684,10.497,-62.073,26.071
16:35:38:952,62.661,0.527,-0.183,0.625,13.416,-61.913,27.691
16:35:38:953,62.662,0.625,-0.090,0.417,18.701,-59.918,31.414
16:35:38:975,62.684,0.654,-0.033,0.577,25.477,-55.903,36.514
16:35:39:002,62.711,1.287,0.258,0.593,30.421,-52.888,40.704
16:35:39:216,62.925,0.704,0.126,-0.319,37.802,-46.696,47.236
16:35:39:216,62.925,0.628,-0.541,-0.189,40.350,-42.239,50.463
16:35:39:423,63.132,-0.167,0.075,-0.292,41.441,-35.567,53.889
16:35:39:614,63.323,1.317,-0.858,-0.678,37.407,-35.884,52.449
16:35:39:615,63.324,0.390,-0.814,-0.556,34.112,-34.838,48.822
16:35:39:616,63.325,0.629,-0.818,-0.426,28.857,-34.633,42.069
16:35:39:617,63.326,0.582,-0.790,-0.419,24.752,-34.816,37.000
16:35:39:635,63.344,0.801,-0.583,-0.387,17.524,-35.496,29.384
16:35:39:738,63.447,0.490,-0.092,-0.898,11.804,-35.407,25.481
16:35:39:929,63.638,0.226,0.339,-0.786,3.364,-34.729,19.762
16:35:39:93,63.639,0.010,0.633,-0.362,-3.810,-34.176,14.359
16:35:39:931,63.640,-0.870,0.483,-0.052,-7.794,-32.474,11.772
16:35:39:932,63.641,-2.299,0.360,0.164,-12.708,-28.946,9.498
16:35:40:106,63.815,-4.075,0.530,1.403,-14.888,-25.593,7.912
16:35:40:193,63.902,-4.998,-0.202,2.534,-11.369,-20.509,5.830
16:35:40:194,63.903,2.320,1.283,-1.674,-14.099,-19.143,6.198
16:35:40:194,63.903,-1.779,1.834,0.314,-13.043,-19.310,7.042
16:35:40:195,63.904,0.089,-0.499,0.590,-7.770,-18.687,7.322
16:35:40:219,63.928,-0.032,0.248,-0.250,-7.190,-18.112,8.789
16:35:40:22,63.929,0.002,-0.066,0.169,-4.816,-18.120,10.052
16:35:40:22,63.929,-0.037,0.214,-0.016,-3.934,-17.944,10.852
16:35:40:22,63.929,0.274,0.436,0.061,-2.829,-17.760,12.234
