Time,Second,AccelerationX,AccelerationY,AccelerationZ,EulerAnglesX,EulerAnglesY,EulerAnglesZ
17:05:34:158,0.000,-0.021,-0.009,0.001,7.210,14.077,-0.918
17:05:34:185,0.027,-0.027,-0.005,0.015,7.185,14.049,-0.870
17:05:34:3,0.141,-0.008,0.001,-0.019,7.125,13.964,-0.820
17:05:34:3,0.141,-0.015,0.000,-0.010,7.061,13.887,-0.822
17:05:34:3,0.141,0.004,0.001,-0.028,7.010,13.866,-0.830
17:05:34:3,0.142,-0.004,-0.007,-0.017,6.873,13.906,-0.867
17:05:34:316,0.157,-0.028,0.002,-0.047,6.716,14.001,-0.905
17:05:34:342,0.183,-0.091,0.001,-0.018,6.379,14.185,-0.953
17:05:34:427,0.269,-0.122,-0.063,-0.295,5.973,13.943,-1.037
17:05:34:427,0.269,-0.181,-0.021,-0.272,5.478,13.404,-1.073
17:05:34:428,0.270,-0.193,-0.017,-0.299,4.395,12.333,-0.613
17:05:34:475,0.317,-0.090,-0.033,-0.241,3.403,11.546,0.017
17:05:34:476,0.318,0.008,-0.009,-0.167,1.635,11.048,1.270
17:05:34:499,0.341,-0.065,-0.041,-0.101,0.277,11.734,2.245
17:05:34:526,0.367,-0.002,-0.056,-0.102,-1.987,13.857,3.535
17:05:34:552,0.394,-0.008,-0.029,-0.018,-4.133,17.041,4.483
17:05:34:666,0.508,0.070,0.001,0.128,-5.407,18.975,4.866
17:05:34:667,0.509,0.431,0.007,0.542,-6.622,21.504,4.932
17:05:34:668,0.510,0.552,0.105,1.329,-6.661,22.602,4.538
17:05:34:669,0.510,-0.543,0.247,-0.308,-6.176,24.562,3.847
17:05:34:683,0.525,-0.309,-0.010,0.084,-5.950,26.155,3.068
17:05:34:712,0.554,-0.113,0.005,-0.010,-5.819,26.744,2.251
17:05:34:713,0.555,-0.192,0.049,-0.069,-5.274,25.959,0.858
17:05:34:764,0.606,0.193,-0.004,-0.066,-4.666,25.266,-0.147
17:05:34:765,0.607,0.038,-0.046,0.043,-3.851,25.346,-1.800
17:05:34:815,0.657,-0.051,-0.026,0.089,-3.470,26.225,-2.927
17:05:34:844,0.686,0.010,0.001,0.059,-3.066,26.716,-4.456
17:05:34:845,0.686,0.100,-0.021,-0.066,-2.782,26.860,-5.581
17:05:34:867,0.709,0.129,-0.021,-0.063,-2.737,26.772,-5.977
17:05:34:893,0.734,0.041,0.007,0.007,-2.946,26.675,-6.041
17:05:34:919,0.761,-0.027,0.026,0.011,-3.172,26.477,-5.911
17:05:34:947,0.789,-0.042,0.000,-0.017,-3.470,26.225,-5.756
17:05:35:,0.842,-0.012,-0.016,-0.003,-3.688,26.206,-5.718
17:05:35:001,0.843,-0.027,-0.005,0.029,-3.806,26.202,-5.752
17:05:35:025,0.867,-0.033,0.000,-0.004,-3.968,26.314,-5.808
17:05:35:051,0.892,-0.028,0.007,-0.020,-4.060,26.362,-5.863
17:05:35:077,0.918,-0.003,-0.002,0.012,-4.148,26.272,-5.961
17:05:35:103,0.945,0.002,-0.006,0.001,-4.262,26.086,-5.989
17:05:35:129,0.971,-0.015,-0.003,0.010,-4.366,26.268,-5.938
17:05:35:186,1.028,-0.006,0.002,-0.015,-4.512,26.083,-5.789
17:05:35:187,1.029,-0.029,0.005,0.015,-4.604,26.032,-5.688
17:05:35:237,1.079,-0.033,-0.002,0.005,-4.709,25.948,-5.583
17:05:35:238,1.079,-0.019,-0.003,0.004,-4.759,25.975,-5.564
17:05:35:264,1.106,-0.017,-0.001,-0.005,-4.831,25.899,-5.530
17:05:35:287,1.129,-0.017,0.005,0.009,-4.876,25.874,-5.541
17:05:35:314,1.156,-0.012,-0.002,0.009,-4.900,25.841,-5.560
17:05:35:453,1.295,-0.011,0.003,-0.007,-4.928,25.805,-5.595
17:05:35:454,1.296,-0.012,0.002,-0.006,-4.951,25.807,-5.623
17:05:35:455,1.297,-0.013,-0.003,0.003,-4.957,25.858,-5.659
17:05:35:456,1.297,-0.010,0.001,0.006,-4.960,25.919,-5.694
17:05:35:474,1.316,-0.025,-0.002,0.020,-4.953,25.986,-5.707
17:05:35:475,1.317,-0.017,-0.001,-0.002,-4.953,26.051,-5.759
17:05:35:498,1.340,-0.017,0.001,-0.004,-4.952,26.109,-5.803
17:05:35:524,1.366,-0.012,0.000,0.000,-4.934,26.139,-5.883
17:05:35:578,1.420,-0.027,0.003,0.000,-4.912,26.464,-5.946
17:05:35:579,1.421,-0.017,-0.001,0.004,-4.891,26.484,-6.035
17:05:35:66,1.502,-0.032,0.005,0.004,-4.847,26.597,-6.111
17:05:35:661,1.503,-0.015,-0.002,0.002,-4.802,26.502,-6.169
17:05:35:661,1.503,-0.020,0.004,0.004,-4.739,26.349,-6.285
17:05:35:682,1.524,-0.019,0.002,0.005,-4.683,26.233,-6.363
17:05:35:708,1.550,-0.021,-0.003,-0.003,-4.587,26.198,-6.499
17:05:35:76,1.602,-0.010,0.005,0.001,-4.487,25.958,-6.614
17:05:35:819,1.660,-0.020,0.005,-0.004,-4.415,25.809,-6.682
17:05:35:819,1.660,-0.003,-0.002,-0.008,-4.327,25.670,-6.783
17:05:35:819,1.661,-0.004,-0.006,-0.006,-4.269,25.529,-6.844
17:05:35:84,1.682,0.006,-0.004,0.007,-4.203,25.401,-6.912
17:05:35:865,1.707,-0.010,-0.001,0.002,-4.175,25.354,-6.930
17:05:35:89,1.732,-0.021,-0.003,0.014,-4.178,25.470,-6.923
17:05:35:916,1.758,-0.003,-0.003,-0.004,-4.180,25.473,-6.906
17:05:35:973,1.814,-0.009,-0.001,0.003,-4.193,25.750,-6.875
17:05:35:973,1.815,-0.015,0.000,0.007,-4.231,25.817,-6.809
17:05:35:997,1.838,-0.020,-0.001,0.017,-4.269,25.831,-6.745
17:05:36:023,1.865,-0.020,0.001,0.009,-4.340,25.852,-6.644
17:05:36:048,1.890,-0.020,0.002,0.006,-4.414,25.787,-6.572
17:05:36:075,1.917,-0.027,-0.004,0.016,-4.464,25.740,-6.540
17:05:36:101,1.943,-0.016,0.003,-0.002,-4.532,25.578,-6.514
17:05:36:238,2.080,-0.018,-0.001,0.007,-4.575,25.469,-6.536
17:05:36:239,2.081,-0.011,0.001,0.001,-4.616,25.304,-6.584
17:05:36:24,2.082,-0.006,-0.003,0.000,-4.664,25.154,-6.639
17:05:36:263,2.105,-0.008,0.002,0.005,-4.698,25.034,-6.665
17:05:36:264,2.106,-0.009,0.000,0.002,-4.749,24.904,-6.678
17:05:36:265,2.107,-0.013,-0.002,0.006,-4.786,24.826,-6.684
17:05:36:284,2.126,-0.010,-0.002,0.002,-4.833,24.736,-6.671
17:05:36:424,2.266,-0.011,0.004,-0.006,-4.863,24.748,-6.659
17:05:36:425,2.267,-0.012,0.000,0.002,-4.918,24.712,-6.651
17:05:36:426,2.268,-0.010,0.000,-0.005,-4.960,24.640,-6.636
17:05:36:427,2.269,-0.017,-0.002,0.002,-4.990,24.637,-6.602
17:05:36:446,2.288,-0.018,0.004,-0.010,-5.039,24.641,-6.547
17:05:36:446,2.288,-0.021,-0.003,0.007,-5.072,24.649,-6.518
17:05:36:468,2.310,-0.017,-0.004,-0.006,-5.103,24.878,-6.501
17:05:36:553,2.395,-0.004,0.026,0.003,-5.106,24.994,-6.502
17:05:36:553,2.395,-0.011,-0.021,0.003,-5.111,25.103,-6.503
17:05:36:554,2.396,-0.018,0.021,-0.017,-5.178,25.172,-6.464
17:05:36:6,2.442,-0.010,-0.002,0.011,-5.214,25.236,-6.422
17:05:36:629,2.471,0.005,-0.002,-0.019,-5.307,25.125,-6.343
17:05:36:629,2.471,-0.030,-0.004,0.013,-5.357,25.188,-6.294
17:05:36:652,2.493,-0.019,0.011,-0.012,-5.423,25.367,-6.218
17:05:36:679,2.520,-0.009,-0.007,0.012,-5.478,25.423,-6.133
17:05:36:704,2.546,-0.001,-0.009,0.020,-5.517,25.519,-6.052
17:05:36:758,2.600,-0.027,-0.002,-0.002,-5.622,25.593,-5.934
17:05:36:817,2.659,-0.026,0.005,-0.008,-5.695,25.666,-5.854
17:05:36:817,2.659,-0.021,0.004,0.002,-5.784,25.744,-5.769
17:05:36:818,2.660,-0.017,-0.006,0.008,-5.851,25.781,-5.680
17:05:36:839,2.681,-0.013,-0.005,-0.002,-5.900,25.792,-5.633
17:05:36:839,2.681,-0.018,0.002,0.011,-5.971,25.841,-5.555
17:05:36:892,2.734,-0.012,-0.001,0.003,-6.013,25.866,-5.523
17:05:36:892,2.734,-0.020,0.002,0.017,-6.076,25.920,-5.491
17:05:36:94,2.782,-0.012,-0.001,0.001,-6.144,25.929,-5.468
17:05:36:969,2.811,-0.019,-0.001,0.001,-6.193,25.930,-5.452
17:05:36:97,2.812,-0.014,0.000,0.010,-6.268,25.901,-5.443
17:05:36:995,2.837,-0.014,-0.004,0.001,-6.313,25.876,-5.461
17:05:37:021,2.863,-0.006,-0.005,-0.003,-6.382,25.878,-5.504
17:05:37:046,2.888,-0.023,0.001,0.000,-6.444,25.864,-5.525
17:05:37:072,2.913,-0.017,0.002,0.005,-6.525,25.775,-5.503
17:05:37:128,2.970,0.000,0.001,-0.001,-6.617,25.619,-5.444
17:05:37:129,2.971,-0.011,-0.003,-0.008,-6.692,25.508,-5.361
17:05:37:15,2.992,-0.038,0.007,0.008,-6.778,25.397,-5.242
17:05:37:205,3.047,-0.022,0.004,0.005,-6.811,25.374,-5.257
17:05:37:206,3.048,-0.013,0.002,-0.001,-6.814,25.368,-5.397
17:05:37:229,3.071,-0.004,0.002,0.009,-6.787,25.456,-5.607
17:05:37:255,3.097,-0.002,0.002,-0.011,-6.764,25.511,-5.731
17:05:37:341,3.183,-0.004,-0.003,0.002,-6.733,25.573,-5.855
17:05:37:341,3.183,-0.010,0.005,-0.006,-6.720,25.602,-5.885
17:05:37:341,3.183,-0.011,0.000,0.000,-6.701,25.604,-5.875
17:05:37:362,3.204,-0.022,0.005,-0.002,-6.691,25.623,-5.849
17:05:37:387,3.229,-0.017,0.001,-0.001,-6.672,25.662,-5.803
17:05:37:413,3.255,-0.014,-0.004,0.002,-6.629,25.725,-5.784
17:05:37:439,3.281,-0.022,-0.004,0.018,-6.598,25.780,-5.781
17:05:37:467,3.308,-0.005,0.000,-0.008,-6.557,25.862,-5.773
17:05:37:521,3.363,-0.007,-0.003,0.005,-6.533,25.931,-5.778
17:05:37:521,3.363,-0.015,0.000,0.012,-6.498,26.049,-5.772
17:05:37:602,3.444,-0.010,-0.003,0.004,-6.483,26.114,-5.751
17:05:37:603,3.445,-0.018,0.002,0.001,-6.455,26.180,-5.700
17:05:37:604,3.446,-0.005,-0.011,-0.008,-6.445,26.228,-5.629
17:05:37:623,3.465,-0.020,0.006,0.011,-6.427,26.253,-5.582
17:05:37:65,3.491,-0.013,-0.002,0.011,-6.394,26.275,-5.507
17:05:37:676,3.517,-0.010,-0.005,0.003,-6.384,26.272,-5.458
17:05:37:702,3.544,-0.017,0.005,0.003,-6.390,26.272,-5.377
17:05:37:728,3.570,-0.016,0.000,-0.002,-6.379,26.268,-5.307
17:05:37:754,3.596,-0.015,-0.002,0.007,-6.363,26.272,-5.266
17:05:37:781,3.623,-0.018,-0.002,0.012,-6.332,26.261,-5.217
17:05:37:806,3.648,-0.016,-0.004,0.001,-6.307,26.262,-5.201
17:05:37:862,3.704,-0.012,0.000,0.009,-6.260,26.270,-5.186
17:05:37:863,3.705,-0.020,-0.001,0.000,-6.222,26.288,-5.160
17:05:37:914,3.756,-0.017,-0.001,0.005,-6.193,26.301,-5.155
17:05:37:915,3.757,-0.012,0.001,-0.002,-6.150,26.305,-5.136
17:05:37:938,3.780,-0.014,0.000,0.006,-6.118,26.314,-5.134
17:05:37:964,3.806,-0.016,0.000,-0.001,-6.087,26.355,-5.130
17:05:37:992,3.834,-0.014,-0.002,0.010,-6.057,26.395,-5.119
17:05:38:018,3.859,-0.017,0.001,-0.004,-6.046,26.390,-5.109
17:05:38:045,3.886,-0.011,-0.001,0.005,-6.023,26.388,-5.075
17:05:38:098,3.940,-0.023,-0.002,-0.001,-6.019,26.383,-5.057
17:05:38:099,3.941,-0.012,0.001,0.007,-6.023,26.388,-5.015
17:05:38:124,3.966,-0.018,0.002,0.001,-6.026,26.390,-4.991
17:05:38:177,4.019,-0.020,-0.002,0.010,-6.028,26.386,-4.966
17:05:38:178,4.020,-0.015,-0.002,0.006,-6.022,26.409,-4.950
17:05:38:202,4.043,-0.013,0.006,0.003,-6.007,26.430,-4.944
17:05:38:315,4.157,-0.008,-0.005,0.007,-5.967,26.452,-4.936
17:05:38:315,4.157,-0.006,-0.006,0.010,-5.938,26.450,-4.916
17:05:38:315,4.157,-0.012,-0.002,0.003,-5.910,26.450,-4.858
17:05:38:316,4.158,-0.021,-0.001,0.006,-5.890,26.442,-4.798
17:05:38:361,4.203,-0.021,0.000,0.002,-5.851,26.437,-4.723
17:05:38:361,4.203,-0.014,-0.003,0.012,-5.798,26.409,-4.692
17:05:38:385,4.226,-0.010,0.001,0.005,-5.756,26.386,-4.678
17:05:38:411,4.252,-0.012,0.002,0.007,-5.700,26.369,-4.679
17:05:38:437,4.279,-0.011,-0.002,0.013,-5.665,26.382,-4.688
17:05:38:492,4.334,-0.009,0.002,0.003,-5.607,26.378,-4.715
17:05:38:493,4.335,-0.010,-0.001,0.005,-5.567,26.378,-4.759
17:05:38:544,4.385,-0.006,0.001,-0.001,-5.538,26.413,-4.783
17:05:38:572,4.414,-0.011,-0.001,0.007,-5.501,26.462,-4.793
17:05:38:573,4.414,-0.013,0.000,0.001,-5.480,26.467,-4.780
17:05:38:594,4.436,-0.008,0.001,0.002,-5.460,26.468,-4.742
17:05:38:62,4.462,-0.023,0.002,0.004,-5.437,26.466,-4.708
17:05:38:647,4.489,-0.022,0.000,0.012,-5.419,26.431,-4.662
17:05:38:702,4.544,-0.019,0.003,-0.002,-5.392,26.380,-4.639
17:05:38:702,4.544,-0.015,0.001,0.009,-5.371,26.344,-4.624
17:05:38:727,4.568,-0.017,0.001,-0.005,-5.331,26.285,-4.609
17:05:38:753,4.594,-0.012,0.000,0.005,-5.304,26.256,-4.609
17:05:38:778,4.620,-0.014,0.000,0.000,-5.258,26.206,-4.630
17:05:38:804,4.646,-0.011,-0.001,0.007,-5.203,26.191,-4.653
17:05:38:83,4.672,-0.024,-0.002,0.006,-5.175,26.204,-4.654
17:05:38:886,4.728,-0.006,0.000,0.002,-5.117,26.223,-4.643
17:05:38:887,4.729,-0.012,0.000,0.000,-5.084,26.260,-4.643
17:05:38:911,4.752,-0.005,0.002,0.004,-5.035,26.325,-4.644
17:05:38:937,4.778,-0.010,0.001,0.003,-4.982,26.420,-4.636
17:05:38:962,4.804,-0.011,0.000,0.009,-4.954,26.471,-4.615
17:05:38:993,4.835,-0.019,-0.001,0.006,-4.917,26.556,-4.588
17:05:38:994,4.836,-0.013,0.000,0.007,-4.887,26.618,-4.585
17:05:39:014,4.856,-0.018,0.002,0.002,-4.844,26.696,-4.565
17:05:39:154,4.996,-0.009,0.000,0.007,-4.809,26.761,-4.566
17:05:39:155,4.997,-0.005,0.000,-0.002,-4.773,26.883,-4.575
17:05:39:156,4.998,-0.013,0.001,0.007,-4.750,27.019,-4.578
17:05:39:157,4.999,-0.014,-0.004,0.018,-4.746,27.103,-4.574
17:05:39:174,5.016,0.000,-0.005,0.005,-4.737,27.166,-4.577
17:05:39:175,5.017,-0.023,-0.002,0.012,-4.735,27.208,-4.579
17:05:39:227,5.069,-0.010,-0.002,0.005,-4.732,27.241,-4.538
17:05:39:228,5.070,-0.009,0.000,0.006,-4.729,27.275,-4.505
17:05:39:304,5.146,-0.023,0.006,0.015,-4.724,27.313,-4.489
17:05:39:337,5.179,-0.011,-0.002,0.000,-4.726,27.314,-4.450
17:05:39:337,5.179,-0.017,0.004,-0.003,-4.725,27.322,-4.450
17:05:39:337,5.179,-0.011,0.001,0.008,-4.724,27.357,-4.459
17:05:39:355,5.197,-0.015,-0.001,0.001,-4.707,27.353,-4.477
17:05:39:381,5.223,-0.012,-0.003,-0.001,-4.694,27.353,-4.491
17:05:39:41,5.252,-0.006,0.001,-0.003,-4.687,27.353,-4.485
17:05:39:434,5.276,-0.005,0.005,0.006,-4.686,27.352,-4.457
17:05:39:461,5.302,-0.021,0.001,0.000,-4.684,27.350,-4.414
17:05:39:516,5.358,-0.014,-0.002,0.008,-4.690,27.342,-4.379
17:05:39:516,5.358,-0.008,0.000,0.002,-4.675,27.312,-4.336
17:05:39:539,5.381,-0.017,0.001,0.006,-4.671,27.293,-4.318
17:05:39:565,5.407,-0.015,-0.001,0.001,-4.654,27.289,-4.308
17:05:39:593,5.435,-0.011,-0.003,0.013,-4.634,27.267,-4.308
17:05:39:619,5.461,-0.010,-0.003,0.005,-4.624,27.242,-4.303
17:05:39:645,5.487,-0.014,0.000,0.012,-4.631,27.213,-4.288
17:05:39:671,5.512,-0.020,0.000,0.007,-4.633,27.150,-4.264
17:05:39:727,5.569,-0.007,-0.003,0.003,-4.634,27.100,-4.255
17:05:39:727,5.569,-0.016,0.000,0.008,-4.639,27.047,-4.243
17:05:39:749,5.591,-0.024,-0.001,0.018,-4.648,26.998,-4.226
17:05:39:777,5.619,-0.011,-0.001,0.004,-4.641,26.910,-4.234
17:05:39:86,5.701,-0.016,-0.002,0.009,-4.639,26.880,-4.257
17:05:39:861,5.702,-0.010,0.000,-0.005,-4.622,26.817,-4.290
17:05:39:861,5.703,-0.009,0.003,0.009,-4.618,26.777,-4.324
17:05:39:881,5.723,-0.020,0.007,0.015,-4.610,26.738,-4.334
17:05:39:907,5.749,-0.023,-0.001,0.005,-4.576,26.636,-4.348
17:05:39:933,5.775,-0.011,-0.001,0.005,-4.553,26.537,-4.366
17:05:39:959,5.801,-0.004,-0.002,0.008,-4.507,26.393,-4.401
17:05:39:985,5.827,-0.009,-0.001,0.005,-4.475,26.285,-4.444
17:05:40:043,5.884,-0.019,-0.001,0.006,-4.447,26.218,-4.467
17:05:40:043,5.884,-0.002,0.000,0.000,-4.419,26.092,-4.506
17:05:40:064,5.906,-0.019,0.002,0.005,-4.402,26.030,-4.532
17:05:40:12,5.962,-0.012,0.003,0.004,-4.383,25.935,-4.568
17:05:40:12,5.962,-0.018,0.001,-0.003,-4.358,25.848,-4.612
17:05:40:143,5.985,-0.019,-0.003,0.009,-4.331,25.775,-4.642
17:05:40:171,6.013,-0.011,0.002,0.002,-4.287,25.646,-4.706
17:05:40:284,6.126,-0.012,0.000,0.005,-4.258,25.576,-4.761
17:05:40:284,6.126,-0.014,-0.001,-0.006,-4.211,25.472,-4.844
17:05:40:284,6.126,0.000,-0.002,-0.001,-4.178,25.413,-4.896
17:05:40:285,6.127,-0.010,0.000,0.004,-4.135,25.365,-4.974
17:05:40:3,6.142,-0.002,-0.003,0.007,-4.121,25.348,-5.019
17:05:40:327,6.169,-0.003,-0.006,-0.002,-4.118,25.345,-5.030
17:05:40:353,6.195,-0.017,-0.002,0.008,-4.122,25.341,-5.026
17:05:40:438,6.279,-0.013,0.001,0.004,-4.122,25.334,-5.019
17:05:40:438,6.280,-0.023,-0.004,0.011,-4.119,25.310,-5.021
17:05:40:439,6.281,-0.043,-0.002,-0.003,-4.094,25.250,-5.074
17:05:40:486,6.328,-0.033,0.000,0.013,-4.041,25.177,-5.147
17:05:40:513,6.355,-0.025,0.001,0.006,-3.922,25.011,-5.373
17:05:40:514,6.356,-0.008,0.004,0.007,-3.823,24.910,-5.568
17:05:40:538,6.380,0.017,0.000,-0.006,-3.674,24.765,-5.873
17:05:40:563,6.405,0.012,0.001,0.005,-3.584,24.674,-6.044
17:05:40:62,6.461,0.014,0.001,0.005,-3.488,24.562,-6.221
17:05:40:621,6.462,-0.007,-0.002,0.004,-3.446,24.481,-6.316
17:05:40:642,6.484,-0.009,0.000,0.001,-3.425,24.418,-6.358
17:05:40:698,6.539,-0.003,-0.002,0.011,-3.404,24.355,-6.414
17:05:40:698,6.540,-0.001,-0.003,0.000,-3.401,24.328,-6.448
17:05:40:722,6.564,-0.010,0.001,0.009,-3.398,24.324,-6.452
17:05:40:747,6.589,-0.014,-0.003,0.006,-3.401,24.314,-6.448
17:05:40:831,6.673,-0.016,-0.002,0.004,-3.402,24.293,-6.440
17:05:40:832,6.674,-0.014,-0.006,-0.001,-3.413,24.268,-6.422
17:05:40:832,6.674,-0.014,0.000,0.002,-3.414,24.261,-6.436
17:05:40:851,6.693,-0.007,-0.001,0.006,-3.420,24.259,-6.467
17:05:40:878,6.720,-0.008,-0.002,-0.002,-3.414,24.259,-6.488
17:05:40:935,6.777,-0.008,0.003,0.004,-3.420,24.257,-6.512
17:05:40:935,6.777,-0.009,-0.003,-0.002,-3.415,24.267,-6.509
17:05:40:957,6.799,-0.008,-0.001,0.002,-3.414,24.287,-6.510
17:05:41:012,6.854,-0.005,-0.002,-0.008,-3.417,24.322,-6.476
17:05:41:013,6.855,-0.011,-0.001,0.005,-3.434,24.350,-6.433
17:05:41:097,6.939,-0.019,-0.001,-0.003,-3.462,24.371,-6.355
17:05:41:098,6.939,-0.014,0.001,0.009,-3.491,24.398,-6.277
17:05:41:099,6.940,-0.015,-0.001,-0.001,-3.484,24.414,-6.239
17:05:41:099,6.941,-0.008,-0.002,0.006,-3.488,24.421,-6.203
17:05:41:142,6.984,-0.011,-0.002,0.003,-3.487,24.420,-6.190
17:05:41:169,7.011,-0.010,0.001,0.008,-3.488,24.423,-6.158
17:05:41:258,7.100,-0.009,-0.001,0.003,-3.490,24.419,-6.126
17:05:41:258,7.100,-0.009,-0.002,0.007,-3.492,24.429,-6.116
17:05:41:259,7.100,-0.009,-0.002,0.002,-3.507,24.468,-6.105
17:05:41:259,7.100,-0.012,-0.002,0.011,-3.529,24.507,-6.088
17:05:41:272,7.113,-0.010,-0.001,0.000,-3.562,24.575,-6.056
17:05:41:298,7.140,-0.011,-0.002,0.005,-3.582,24.621,-6.032
17:05:41:353,7.195,-0.015,-0.001,0.006,-3.621,24.710,-6.001
17:05:41:354,7.196,-0.015,-0.001,-0.001,-3.632,24.775,-5.949
17:05:41:406,7.248,-0.012,0.002,-0.003,-3.638,24.789,-5.943
17:05:41:407,7.249,-0.008,0.000,0.004,-3.635,24.824,-5.929
17:05:41:459,7.300,-0.006,-0.003,0.006,-3.620,24.830,-5.923
17:05:41:459,7.301,-0.008,0.000,0.009,-3.618,24.858,-5.910
17:05:41:482,7.323,-0.012,-0.001,0.008,-3.612,24.860,-5.872
17:05:41:508,7.350,-0.010,-0.004,0.013,-3.614,24.856,-5.847
17:05:41:534,7.376,-0.016,-0.002,0.005,-3.613,24.862,-5.826
17:05:41:56,7.402,-0.019,0.000,0.000,-3.615,24.880,-5.823
17:05:41:591,7.433,-0.011,0.003,0.004,-3.618,24.883,-5.813
17:05:41:673,7.515,-0.019,-0.002,0.002,-3.619,24.883,-5.827
17:05:41:674,7.515,-0.012,-0.001,0.002,-3.626,24.884,-5.833
17:05:41:674,7.516,-0.016,-0.001,-0.002,-3.619,24.884,-5.841
17:05:41:692,7.534,-0.013,-0.001,0.006,-3.626,24.884,-5.833
17:05:41:718,7.560,-0.022,0.002,-0.003,-3.631,24.860,-5.836
17:05:41:744,7.586,-0.013,-0.001,0.005,-3.632,24.839,-5.842
17:05:41:802,7.644,-0.018,0.001,0.002,-3.635,24.812,-5.869
17:05:41:802,7.644,-0.005,-0.001,0.002,-3.641,24.788,-5.886
17:05:41:824,7.665,-0.010,0.001,-0.004,-3.646,24.748,-5.926
17:05:41:849,7.691,-0.011,-0.002,0.009,-3.650,24.713,-5.954
17:05:41:876,7.718,-0.011,-0.001,0.000,-3.656,24.682,-5.963
17:05:41:902,7.744,-0.008,-0.003,0.002,-3.662,24.630,-5.965
17:05:41:928,7.770,-0.013,0.002,0.002,-3.674,24.606,-5.960
17:05:41:984,7.826,-0.014,-0.002,0.008,-3.701,24.554,-5.953
17:05:41:984,7.826,-0.017,-0.001,0.000,-3.715,24.489,-5.961
17:05:42:008,7.849,-0.009,-0.001,0.006,-3.722,24.444,-5.970
17:05:42:063,7.905,-0.012,-0.002,0.002,-3.732,24.379,-6.013
17:05:42:063,7.905,-0.009,-0.003,0.004,-3.736,24.352,-6.047
17:05:42:086,7.928,-0.010,-0.001,0.001,-3.744,24.308,-6.084
17:05:42:113,7.955,-0.011,0.001,0.001,-3.749,24.253,-6.117
17:05:42:228,8.069,-0.014,0.001,0.000,-3.763,24.222,-6.133
17:05:42:228,8.069,-0.014,-0.001,0.004,-3.767,24.174,-6.152
17:05:42:228,8.069,-0.011,-0.001,0.002,-3.776,24.147,-6.165
17:05:42:228,8.070,-0.010,0.000,0.003,-3.779,24.105,-6.178
17:05:42:243,8.085,-0.008,-0.001,0.005,-3.786,24.081,-6.194
17:05:42:269,8.111,-0.008,-0.001,0.002,-3.789,24.040,-6.214
17:05:42:295,8.137,-0.006,-0.003,0.003,-3.791,24.026,-6.228
17:05:42:38,8.222,-0.005,-0.004,0.000,-3.798,24.026,-6.220
17:05:42:381,8.222,-0.010,0.001,0.001,-3.797,24.026,-6.206
17:05:42:382,8.223,-0.014,0.000,-0.005,-3.799,24.029,-6.188
17:05:42:43,8.272,-0.010,0.000,0.004,-3.803,24.028,-6.153
17:05:42:431,8.273,-0.020,-0.001,-0.002,-3.808,24.027,-6.118
17:05:42:479,8.321,-0.022,-0.001,-0.002,-3.804,24.024,-6.114
17:05:42:507,8.349,-0.015,-0.001,0.001,-3.786,24.038,-6.165
17:05:42:561,8.403,-0.013,-0.003,0.000,-3.730,24.084,-6.264
17:05:42:562,8.403,0.001,0.000,0.002,-3.691,24.119,-6.331
17:05:42:642,8.484,-0.009,-0.003,-0.002,-3.657,24.175,-6.398
17:05:42:643,8.485,-0.011,0.000,0.003,-3.659,24.207,-6.409
17:05:42:644,8.486,-0.018,-0.003,0.004,-3.659,24.207,-6.409
17:05:42:663,8.505,-0.014,-0.001,0.008,-3.658,24.207,-6.395
17:05:42:689,8.531,-0.015,-0.004,0.001,-3.658,24.207,-6.395
17:05:42:717,8.559,-0.013,0.001,0.003,-3.658,24.221,-6.410
17:05:42:774,8.616,-0.014,-0.001,0.002,-3.670,24.219,-6.426
17:05:42:774,8.616,-0.011,-0.001,0.006,-3.668,24.215,-6.444
17:05:42:823,8.665,-0.019,-0.001,0.000,-3.670,24.209,-6.465
17:05:42:824,8.666,-0.012,0.000,0.001,-3.678,24.196,-6.471
17:05:42:847,8.689,-0.013,0.000,0.003,-3.687,24.168,-6.477
17:05:42:873,8.715,-0.009,0.000,0.006,-3.691,24.141,-6.497
17:05:42:901,8.743,-0.011,0.002,-0.004,-3.695,24.131,-6.507
17:05:42:955,8.796,-0.011,-0.002,0.010,-3.699,24.135,-6.510
17:05:42:978,8.820,-0.011,-0.002,0.007,-3.698,24.134,-6.496
17:05:43:005,8.846,-0.008,0.000,0.004,-3.701,24.131,-6.485
17:05:43:031,8.873,-0.009,-0.001,0.004,-3.700,24.130,-6.471
17:05:43:057,8.899,-0.013,-0.001,0.003,-3.707,24.133,-6.418
17:05:43:083,8.925,-0.015,-0.001,0.005,-3.704,24.131,-6.376
17:05:43:109,8.951,-0.023,-0.002,0.005,-3.712,24.106,-6.322
17:05:43:194,9.036,-0.026,0.001,0.004,-3.712,24.091,-6.308
17:05:43:194,9.036,-0.011,-0.002,0.004,-3.702,24.056,-6.336
17:05:43:217,9.059,-0.008,-0.001,-0.001,-3.677,24.018,-6.403
17:05:43:218,9.060,0.006,-0.001,0.003,-3.670,23.994,-6.434
17:05:43:24,9.082,-0.015,0.000,-0.001,-3.674,23.969,-6.423
17:05:43:267,9.109,-0.014,-0.001,0.006,-3.681,23.934,-6.393
17:05:43:294,9.136,-0.017,-0.003,-0.006,-3.689,23.884,-6.363
17:05:43:348,9.190,-0.016,-0.002,0.007,-3.690,23.842,-6.348
17:05:43:349,9.191,-0.013,0.002,-0.005,-3.696,23.839,-6.372
17:05:43:401,9.243,-0.007,-0.002,0.003,-3.677,23.839,-6.408
17:05:43:401,9.243,-0.003,0.002,0.001,-3.674,23.836,-6.412
17:05:43:425,9.266,-0.008,0.001,0.007,-3.673,23.835,-6.398
17:05:43:451,9.292,-0.015,-0.002,0.003,-3.670,23.834,-6.349
17:05:43:477,9.319,-0.014,-0.003,0.004,-3.674,23.840,-6.321
17:05:43:535,9.377,-0.015,0.001,-0.001,-3.674,23.864,-6.283
17:05:43:536,9.378,-0.009,-0.001,0.006,-3.675,23.888,-6.273
17:05:43:536,9.378,-0.014,-0.002,0.000,-3.668,23.911,-6.242
17:05:43:614,9.456,-0.013,-0.001,0.005,-3.672,23.932,-6.215
17:05:43:615,9.456,-0.015,-0.003,0.006,-3.673,23.927,-6.176
17:05:43:615,9.457,-0.017,-0.001,0.006,-3.672,23.927,-6.162
17:05:43:663,9.505,-0.015,-0.002,0.003,-3.679,23.927,-6.154
17:05:43:664,9.506,-0.010,-0.001,0.003,-3.679,23.927,-6.168
17:05:43:689,9.531,-0.012,0.002,0.005,-3.682,23.924,-6.157
17:05:43:742,9.584,-0.014,-0.002,0.006,-3.682,23.923,-6.151
17:05:43:743,9.585,-0.020,-0.002,0.007,-3.686,23.928,-6.161
17:05:43:795,9.636,-0.010,-0.001,0.004,-3.688,23.921,-6.181
17:05:43:795,9.637,-0.008,-0.001,0.004,-3.694,23.912,-6.212
17:05:43:818,9.660,-0.013,-0.001,-0.001,-3.697,23.892,-6.233
17:05:43:844,9.686,-0.012,-0.001,0.005,-3.699,23.871,-6.246
17:05:43:873,9.715,-0.008,0.002,-0.004,-3.701,23.850,-6.253
17:05:43:928,9.770,-0.017,-0.001,0.005,-3.709,23.844,-6.266
17:05:43:928,9.770,-0.014,0.002,-0.002,-3.709,23.827,-6.297
17:05:44:007,9.849,-0.004,-0.001,0.003,-3.715,23.811,-6.321
17:05:44:008,9.850,-0.011,-0.003,0.000,-3.714,23.794,-6.338
17:05:44:009,9.851,-0.012,-0.001,0.007,-3.714,23.772,-6.330
17:05:44:057,9.899,-0.017,-0.001,0.002,-3.722,23.745,-6.322
17:05:44:058,9.900,-0.020,-0.002,0.006,-3.730,23.717,-6.313
17:05:44:081,9.923,-0.016,-0.001,-0.006,-3.729,23.699,-6.331
17:05:44:165,10.007,-0.005,-0.001,0.009,-3.734,23.666,-6.372
17:05:44:166,10.007,-0.009,-0.001,0.003,-3.737,23.653,-6.399
17:05:44:167,10.008,-0.011,0.003,0.006,-3.736,23.629,-6.423
17:05:44:186,10.027,-0.015,-0.004,0.003,-3.744,23.605,-6.454
17:05:44:212,10.054,-0.007,-0.001,0.005,-3.736,23.588,-6.478
17:05:44:238,10.080,-0.010,-0.001,0.000,-3.737,23.565,-6.516
17:05:44:266,10.108,-0.006,0.000,0.004,-3.743,23.555,-6.547
17:05:44:322,10.164,-0.004,-0.004,0.002,-3.745,23.556,-6.575
17:05:44:322,10.164,-0.011,0.002,0.005,-3.745,23.556,-6.575
17:05:44:373,10.215,-0.013,0.004,0.002,-3.751,23.549,-6.546
17:05:44:373,10.215,-0.015,-0.003,0.006,-3.774,23.539,-6.520
17:05:44:395,10.237,-0.021,-0.002,0.004,-3.785,23.536,-6.523
17:05:44:423,10.265,-0.019,-0.001,0.005,-3.783,23.540,-6.548
17:05:44:448,10.290,-0.010,0.000,0.008,-3.786,23.541,-6.590
17:05:44:505,10.347,-0.004,0.000,0.000,-3.780,23.568,-6.672
17:05:44:505,10.347,-0.010,0.000,0.004,-3.779,23.594,-6.725
17:05:44:555,10.397,-0.015,-0.005,0.006,-3.780,23.594,-6.732
17:05:44:556,10.398,-0.017,-0.001,0.007,-3.780,23.594,-6.732
17:05:44:58,10.422,-0.019,0.001,0.002,-3.773,23.594,-6.740
17:05:44:605,10.447,-0.012,-0.001,0.005,-3.776,23.603,-6.789
17:05:44:632,10.474,-0.014,0.001,-0.001,-3.775,23.614,-6.835
17:05:44:716,10.558,-0.017,0.000,0.009,-3.777,23.620,-6.902
17:05:44:717,10.559,-0.013,-0.003,-0.005,-3.771,23.618,-6.969
17:05:44:718,10.560,-0.006,-0.001,0.004,-3.780,23.619,-6.989
17:05:44:739,10.581,-0.013,-0.001,0.001,-3.794,23.613,-6.981
17:05:44:764,10.606,-0.012,-0.002,0.012,-3.824,23.589,-6.940
17:05:44:79,10.631,-0.017,-0.001,-0.002,-3.888,23.516,-6.846
17:05:44:816,10.657,-0.022,-0.003,0.009,-3.968,23.408,-6.729
17:05:44:842,10.684,-0.024,-0.002,0.005,-4.020,23.321,-6.648
17:05:44:897,10.739,-0.025,-0.003,0.009,-4.088,23.192,-6.566
17:05:44:898,10.740,-0.023,0.001,0.001,-4.122,23.112,-6.537
17:05:44:921,10.763,-0.023,-0.003,0.014,-4.136,22.984,-6.563
17:05:44:947,10.789,-0.005,-0.001,-0.008,-4.145,22.901,-6.617
17:05:44:974,10.815,-0.006,0.000,-0.007,-4.133,22.830,-6.717
17:05:44:999,10.841,-0.011,0.000,-0.005,-4.110,22.793,-6.798
17:05:45:028,10.870,-0.006,-0.003,0.002,-4.083,22.753,-6.824
17:05:45:079,10.921,-0.011,0.000,0.012,-4.057,22.700,-6.848
17:05:45:136,10.978,-0.015,-0.003,0.006,-4.056,22.683,-6.866
17:05:45:137,10.979,-0.011,0.000,-0.011,-4.058,22.684,-6.893
17:05:45:138,10.980,-0.015,-0.004,0.018,-4.058,22.719,-6.916
17:05:45:157,10.998,-0.007,0.001,0.002,-4.054,22.737,-6.927
17:05:45:183,11.025,-0.010,0.002,0.004,-4.045,22.800,-6.951
17:05:45:21,11.051,-0.008,0.001,-0.004,-4.039,22.846,-6.956
17:05:45:237,11.079,-0.009,0.000,-0.003,-4.033,22.937,-6.959
17:05:45:291,11.133,-0.014,-0.002,0.006,-4.028,23.014,-6.955
17:05:45:292,11.134,-0.010,0.001,0.005,-4.016,23.129,-6.949
17:05:45:341,11.183,-0.015,-0.002,0.008,-4.001,23.255,-6.940
17:05:45:37,11.212,-0.018,0.002,0.004,-3.987,23.331,-6.922
17:05:45:371,11.212,-0.013,0.000,0.006,-3.975,23.424,-6.887
17:05:45:395,11.236,-0.018,0.005,0.000,-3.974,23.483,-6.871
17:05:45:42,11.262,-0.017,0.000,0.009,-3.966,23.558,-6.832
17:05:45:446,11.288,-0.016,-0.001,-0.002,-3.959,23.635,-6.806
17:05:45:472,11.314,-0.013,0.000,0.002,-3.955,23.675,-6.780
17:05:45:498,11.340,-0.016,-0.002,0.003,-3.949,23.717,-6.739
17:05:45:554,11.395,-0.013,-0.001,0.006,-3.946,23.729,-6.712
17:05:45:554,11.396,-0.019,-0.003,0.004,-3.942,23.756,-6.671
17:05:45:578,11.420,-0.014,-0.004,0.006,-3.946,23.762,-6.635
17:05:45:604,11.446,-0.021,-0.002,0.004,-3.947,23.765,-6.604
17:05:45:69,11.532,-0.012,0.000,0.003,-3.953,23.729,-6.567
17:05:45:691,11.533,-0.017,-0.001,0.002,-3.957,23.711,-6.556
17:05:45:692,11.534,-0.012,-0.001,0.006,-3.958,23.683,-6.541
17:05:45:693,11.535,-0.013,-0.002,0.005,-3.961,23.672,-6.530
17:05:45:737,11.579,-0.012,-0.002,0.009,-3.947,23.657,-6.516
17:05:45:738,11.580,-0.014,-0.003,0.005,-3.932,23.655,-6.503
17:05:45:79,11.632,-0.012,-0.001,0.007,-3.931,23.656,-6.496
17:05:45:79,11.632,-0.013,-0.001,0.003,-3.934,23.659,-6.485
17:05:45:813,11.655,-0.015,-0.002,0.006,-3.934,23.637,-6.478
17:05:45:869,11.711,-0.014,0.001,0.004,-3.942,23.616,-6.462
17:05:45:87,11.711,-0.016,-0.002,0.007,-3.946,23.584,-6.444
17:05:45:95,11.792,-0.015,-0.003,0.007,-3.954,23.556,-6.435
17:05:45:951,11.793,-0.012,-0.002,0.008,-3.953,23.511,-6.437
17:05:45:952,11.794,-0.019,-0.002,0.008,-3.952,23.472,-6.447
17:05:45:971,11.813,-0.018,0.001,0.008,-3.958,23.403,-6.466
17:05:45:997,11.838,-0.008,-0.001,0.004,-3.946,23.329,-6.482
17:05:46:023,11.865,-0.007,-0.002,0.005,-3.930,23.227,-6.511
17:05:46:049,11.891,-0.014,-0.001,0.008,-3.915,23.157,-6.538
17:05:46:105,11.947,-0.010,-0.001,0.004,-3.901,23.111,-6.555
17:05:46:105,11.947,-0.008,-0.001,0.004,-3.876,23.037,-6.586
17:05:46:129,11.971,-0.010,-0.001,-0.001,-3.862,23.005,-6.604
17:05:46:155,11.997,-0.010,-0.001,0.007,-3.862,22.966,-6.614
17:05:46:181,12.022,-0.011,-0.002,-0.001,-3.863,22.946,-6.620
17:05:46:265,12.107,-0.012,-0.002,0.006,-3.862,22.945,-6.606
17:05:46:266,12.108,-0.014,-0.001,0.003,-3.862,22.945,-6.606
17:05:46:266,12.108,-0.012,0.000,0.006,-3.861,22.945,-6.592
17:05:46:315,12.157,-0.010,-0.001,0.003,-3.855,22.945,-6.599
17:05:46:316,12.158,-0.009,-0.003,0.010,-3.853,22.941,-6.617
17:05:46:338,12.180,-0.014,-0.002,0.003,-3.840,22.941,-6.632
17:05:46:365,12.207,-0.008,-0.001,0.007,-3.823,22.944,-6.651
17:05:46:391,12.232,-0.013,-0.002,0.008,-3.823,22.958,-6.651
17:05:46:417,12.259,-0.010,-0.002,0.010,-3.821,22.958,-6.637
17:05:46:443,12.285,-0.015,-0.002,0.004,-3.814,22.957,-6.631
17:05:46:499,12.341,-0.008,-0.002,0.006,-3.814,22.957,-6.631
17:05:46:499,12.341,-0.011,-0.002,0.002,-3.821,22.965,-6.630
17:05:46:522,12.364,-0.010,-0.001,0.011,-3.817,22.961,-6.627
17:05:46:548,12.390,-0.008,-0.001,0.002,-3.817,22.960,-6.620
17:05:46:574,12.416,-0.012,0.000,0.006,-3.811,22.978,-6.617
17:05:46:66,12.501,-0.008,-0.001,0.003,-3.811,22.977,-6.610
17:05:46:66,12.501,-0.013,-0.001,0.010,-3.802,22.998,-6.604
17:05:46:66,12.502,-0.008,0.000,0.001,-3.795,22.997,-6.598
17:05:46:68,12.522,-0.011,-0.002,0.013,-3.790,23.007,-6.588
17:05:46:708,12.550,-0.009,-0.002,0.011,-3.788,23.021,-6.581
17:05:46:761,12.603,-0.011,-0.002,0.012,-3.779,23.049,-6.576
17:05:46:761,12.603,-0.011,-0.001,0.006,-3.779,23.041,-6.569
17:05:46:784,12.626,-0.011,0.000,0.005,-3.778,23.048,-6.562
17:05:46:84,12.681,-0.011,-0.002,0.005,-3.774,23.073,-6.573
17:05:46:84,12.682,-0.010,0.000,0.011,-3.771,23.076,-6.584
17:05:46:921,12.763,-0.008,-0.004,0.013,-3.769,23.088,-6.609
17:05:46:922,12.764,-0.011,-0.001,0.005,-3.762,23.088,-6.617
17:05:46:923,12.765,-0.010,-0.002,0.010,-3.760,23.091,-6.628
17:05:46:942,12.784,-0.011,-0.001,0.005,-3.762,23.088,-6.617
17:05:46:969,12.811,-0.009,-0.003,0.010,-3.755,23.087,-6.610
17:05:47:025,12.867,-0.011,0.001,-0.003,-3.769,23.088,-6.609
17:05:47:025,12.867,-0.010,-0.002,0.007,-3.769,23.088,-6.609
17:05:47:076,12.918,-0.019,-0.003,0.000,-3.773,23.070,-6.605
17:05:47:077,12.919,-0.009,-0.004,0.008,-3.772,23.053,-6.622
17:05:47:103,12.945,-0.013,-0.002,0.005,-3.775,23.047,-6.657
17:05:47:128,12.970,-0.008,-0.002,0.012,-3.777,23.045,-6.716
17:05:47:153,12.995,-0.015,-0.001,-0.001,-3.772,23.046,-6.752
17:05:47:178,13.020,-0.009,-0.002,0.008,-3.776,23.048,-6.801
17:05:47:236,13.077,-0.014,-0.002,0.008,-3.778,23.049,-6.829
17:05:47:236,13.077,-0.007,0.000,0.006,-3.777,23.046,-6.853
17:05:47:286,13.128,-0.012,-0.002,0.005,-3.778,23.046,-6.861
17:05:47:286,13.128,-0.011,-0.003,0.009,-3.778,23.046,-6.861
17:05:47:311,13.153,0.000,0.001,0.002,-3.778,23.039,-6.853
17:05:47:337,13.179,-0.010,-0.001,0.007,-3.794,23.022,-6.827
17:05:47:362,13.204,-0.010,0.003,0.002,-3.828,22.994,-6.782
17:05:47:419,13.261,-0.012,-0.004,0.003,-3.854,22.952,-6.729
17:05:47:419,13.261,-0.005,-0.005,0.002,-3.877,22.934,-6.689
17:05:47:499,13.341,-0.010,-0.004,0.004,-3.906,22.941,-6.624
17:05:47:499,13.341,-0.021,-0.002,0.006,-3.927,22.966,-6.591
17:05:47:5,13.342,-0.022,0.002,0.011,-3.934,22.990,-6.567
17:05:47:519,13.361,-0.018,-0.003,0.010,-3.934,23.004,-6.582
17:05:47:575,13.417,-0.014,0.001,0.005,-3.931,23.013,-6.638
17:05:47:575,13.417,-0.010,0.002,0.003,-3.905,23.032,-6.721
17:05:47:627,13.469,-0.009,0.004,0.006,-3.885,23.029,-6.776
17:05:47:628,13.470,-0.011,-0.001,0.004,-3.860,23.029,-6.819
17:05:47:652,13.493,-0.009,0.000,-0.004,-3.844,23.024,-6.838
17:05:47:678,13.520,-0.009,-0.003,0.007,-3.847,23.026,-6.866
17:05:47:703,13.545,-0.019,-0.002,0.003,-3.845,23.022,-6.884
17:05:47:73,13.572,-0.007,-0.005,0.008,-3.842,23.026,-6.901
17:05:47:755,13.597,-0.020,-0.002,0.007,-3.848,23.062,-6.916
17:05:47:811,13.653,-0.016,-0.001,0.007,-3.865,23.081,-6.926
17:05:47:812,13.653,-0.017,0.003,-0.006,-3.887,23.104,-6.947
17:05:47:893,13.735,-0.012,-0.001,0.000,-3.902,23.105,-6.960
17:05:47:893,13.735,-0.019,0.000,0.007,-3.901,23.103,-6.984
17:05:47:894,13.736,-0.012,-0.001,0.006,-3.893,23.100,-7.023
17:05:47:918,13.760,-0.017,0.001,-0.005,-3.882,23.100,-7.059
17:05:47:919,13.761,-0.009,-0.001,0.010,-3.854,23.096,-7.099
17:05:48:054,13.896,-0.018,-0.001,0.002,-3.832,23.092,-7.126
17:05:48:054,13.896,-0.011,-0.001,0.005,-3.803,23.090,-7.127
17:05:48:055,13.897,-0.013,-0.001,0.005,-3.775,23.074,-7.115
17:05:48:056,13.898,-0.010,-0.002,0.009,-3.755,23.045,-7.108
17:05:48:074,13.916,-0.007,-0.001,0.005,-3.749,23.016,-7.101
17:05:48:074,13.916,-0.017,-0.005,0.006,-3.742,23.015,-7.094
17:05:48:126,13.968,-0.017,0.009,-0.006,-3.753,22.998,-7.083
17:05:48:126,13.968,-0.012,-0.002,0.006,-3.734,23.000,-7.073
17:05:48:209,14.051,-0.011,-0.002,0.004,-3.709,22.995,-7.064
17:05:48:209,14.051,-0.014,-0.003,0.006,-3.676,22.989,-7.049
17:05:48:209,14.051,-0.015,-0.002,0.002,-3.654,22.988,-7.043
17:05:48:257,14.099,-0.011,-0.002,0.009,-3.610,22.999,-7.032
17:05:48:258,14.100,-0.011,0.000,0.004,-3.591,23.022,-7.031
17:05:48:28,14.122,-0.014,-0.002,0.006,-3.557,23.059,-7.031
17:05:48:306,14.148,-0.008,0.000,0.006,-3.523,23.110,-7.045
17:05:48:334,14.175,-0.010,-0.005,0.003,-3.510,23.155,-7.057
17:05:48:389,14.231,-0.008,-0.006,0.006,-3.506,23.219,-7.059
17:05:48:389,14.231,-0.009,0.003,-0.006,-3.503,23.253,-7.039
17:05:48:47,14.312,-0.011,-0.001,0.007,-3.502,23.315,-6.992
17:05:48:471,14.313,-0.017,0.000,-0.002,-3.517,23.366,-6.911
17:05:48:471,14.313,-0.009,-0.001,0.004,-3.518,23.400,-6.863
17:05:48:49,14.332,-0.019,0.001,-0.004,-3.516,23.454,-6.780
17:05:48:517,14.359,-0.010,-0.001,0.003,-3.514,23.470,-6.721
17:05:48:543,14.385,-0.015,0.000,0.000,-3.507,23.503,-6.652
17:05:48:598,14.440,-0.012,0.000,0.005,-3.488,23.536,-6.612
17:05:48:599,14.441,-0.010,-0.004,-0.001,-3.464,23.586,-6.569
17:05:48:624,14.466,-0.012,-0.003,0.005,-3.458,23.680,-6.526
17:05:48:65,14.492,-0.025,0.004,0.011,-3.458,23.749,-6.486
17:05:48:675,14.517,-0.010,-0.001,0.004,-3.457,23.803,-6.417
17:05:48:701,14.543,-0.013,-0.002,0.006,-3.455,23.847,-6.373
17:05:48:727,14.568,-0.017,0.004,0.011,-3.465,23.906,-6.307
17:05:48:782,14.624,-0.016,0.000,0.005,-3.463,23.915,-6.241
17:05:48:783,14.625,-0.018,0.003,0.014,-3.461,23.907,-6.206
17:05:48:806,14.647,-0.011,-0.002,0.007,-3.427,23.862,-6.185
17:05:48:834,14.676,-0.012,-0.001,0.007,-3.410,23.837,-6.182
17:05:48:86,14.702,-0.012,0.001,0.005,-3.386,23.797,-6.165
17:05:48:885,14.727,-0.012,-0.002,0.009,-3.370,23.764,-6.155
17:05:48:911,14.753,-0.008,-0.001,-0.001,-3.359,23.700,-6.147
17:05:48:967,14.809,-0.008,-0.006,0.006,-3.356,23.668,-6.135
17:05:48:968,14.810,-0.017,0.001,0.002,-3.356,23.661,-6.128
17:05:49:018,14.860,-0.007,-0.006,0.010,-3.349,23.660,-6.122
17:05:49:019,14.861,-0.013,-0.001,0.005,-3.352,23.678,-6.132
17:05:49:043,14.885,-0.005,-0.004,0.004,-3.347,23.709,-6.130
17:05:49:069,14.911,-0.015,-0.002,0.005,-3.343,23.743,-6.103
17:05:49:095,14.937,-0.012,0.001,0.001,-3.339,23.764,-6.076
17:05:49:122,14.964,-0.013,0.000,0.005,-3.341,23.776,-6.013
17:05:49:176,15.017,-0.014,-0.001,0.000,-3.342,23.772,-5.974
17:05:49:177,15.018,-0.014,0.000,0.010,-3.341,23.795,-5.922
17:05:49:231,15.073,-0.016,0.002,0.003,-3.337,23.815,-5.888
17:05:49:231,15.073,-0.007,-0.003,0.000,-3.332,23.863,-5.847
17:05:49:252,15.094,-0.009,0.000,-0.001,-3.335,23.936,-5.803
17:05:49:278,15.120,-0.011,-0.001,0.007,-3.340,24.002,-5.773
17:05:49:304,15.146,-0.020,0.000,0.005,-3.353,24.106,-5.726
17:05:49:361,15.202,-0.017,-0.003,0.011,-3.348,24.154,-5.685
17:05:49:361,15.202,-0.009,-0.001,-0.003,-3.343,24.203,-5.658
17:05:49:441,15.283,-0.019,-0.003,0.019,-3.336,24.262,-5.650
17:05:49:442,15.284,-0.025,0.002,0.008,-3.330,24.271,-5.619
17:05:49:443,15.285,-0.013,-0.005,0.008,-3.335,24.257,-5.583
17:05:49:462,15.304,-0.016,0.000,0.003,-3.334,24.242,-5.555
17:05:49:488,15.330,-0.012,-0.001,0.005,-3.346,24.210,-5.543
17:05:49:514,15.356,-0.014,-0.003,0.004,-3.345,24.203,-5.535
17:05:49:571,15.412,-0.009,-0.003,0.003,-3.345,24.203,-5.521
17:05:49:571,15.412,-0.007,-0.003,0.003,-3.344,24.202,-5.507
17:05:49:593,15.435,-0.012,0.002,0.008,-3.346,24.205,-5.490
17:05:49:619,15.461,-0.012,-0.001,0.005,-3.365,24.206,-5.468
17:05:49:645,15.487,-0.020,-0.002,0.008,-3.381,24.224,-5.450
17:05:49:674,15.516,-0.015,0.000,0.004,-3.406,24.259,-5.428
17:05:49:7,15.542,-0.017,-0.005,0.007,-3.428,24.292,-5.417
17:05:49:752,15.594,-0.021,0.003,0.004,-3.448,24.299,-5.402
17:05:49:838,15.680,-0.010,-0.003,0.010,-3.451,24.302,-5.392
17:05:49:838,15.680,-0.022,-0.001,0.013,-3.447,24.306,-5.395
17:05:49:839,15.681,-0.001,-0.002,-0.001,-3.451,24.302,-5.392
17:05:49:84,15.682,-0.016,-0.001,0.007,-3.450,24.302,-5.384
17:05:49:855,15.697,-0.013,-0.001,0.003,-3.450,24.302,-5.378
17:05:49:884,15.725,-0.012,-0.001,0.005,-3.453,24.298,-5.367
17:05:49:909,15.750,-0.019,0.003,0.001,-3.452,24.305,-5.360
17:05:49:934,15.776,-0.014,-0.004,0.008,-3.455,24.301,-5.349
17:05:50:021,15.863,-0.019,-0.001,0.000,-3.455,24.301,-5.342
17:05:50:022,15.864,-0.008,-0.001,0.007,-3.475,24.295,-5.334
17:05:50:023,15.865,-0.018,0.000,0.001,-3.499,24.292,-5.322
17:05:50:024,15.866,-0.016,-0.002,0.007,-3.516,24.296,-5.311
17:05:50:067,15.908,-0.018,0.000,-0.004,-3.549,24.311,-5.295
17:05:50:092,15.934,-0.009,-0.001,0.008,-3.566,24.322,-5.291
17:05:50:15,15.992,-0.022,-0.001,0.000,-3.565,24.343,-5.284
17:05:50:15,15.992,-0.013,-0.002,0.002,-3.579,24.343,-5.284
17:05:50:202,16.044,-0.015,0.003,-0.005,-3.580,24.337,-5.290
17:05:50:203,16.045,-0.011,-0.008,0.010,-3.584,24.334,-5.301
17:05:50:226,16.068,-0.026,0.000,0.012,-3.585,24.312,-5.293
17:05:50:226,16.068,-0.011,-0.005,0.007,-3.586,24.292,-5.299
17:05:50:25,16.091,-0.011,-0.001,-0.001,-3.595,24.271,-5.312
17:05:50:305,16.147,-0.012,-0.002,0.007,-3.595,24.271,-5.312
17:05:50:305,16.147,-0.012,-0.001,-0.001,-3.598,24.275,-5.302
17:05:50:33,16.172,-0.010,-0.001,0.004,-3.597,24.275,-5.294
17:05:50:413,16.254,-0.013,-0.001,-0.001,-3.600,24.285,-5.291
17:05:50:413,16.255,-0.014,-0.002,0.005,-3.609,24.303,-5.281
17:05:50:414,16.256,-0.021,-0.002,0.009,-3.615,24.296,-5.266
17:05:50:433,16.275,-0.015,-0.001,0.005,-3.610,24.334,-5.264
17:05:50:461,16.303,-0.024,0.002,0.000,-3.628,24.369,-5.250
17:05:50:486,16.328,-0.011,-0.004,0.002,-3.647,24.833,-5.234
17:05:50:543,16.385,-0.017,-0.002,0.007,-3.667,24.848,-5.227
17:05:50:543,16.385,-0.016,-0.002,0.007,-3.670,24.991,-5.213
17:05:50:564,16.406,-0.013,-0.001,0.005,-3.676,25.020,-5.221
17:05:50:593,16.435,-0.012,-0.003,0.003,-3.678,25.448,-5.226
17:05:50:619,16.460,-0.011,-0.001,0.000,-3.686,25.442,-5.240
17:05:50:644,16.485,-0.014,0.001,-0.004,-3.687,25.708,-5.247
17:05:50:669,16.511,-0.013,-0.001,0.006,-3.695,25.709,-5.261
17:05:50:725,16.567,-0.018,-0.001,-0.003,-3.699,25.727,-5.272
17:05:50:725,16.567,-0.012,0.001,0.003,-3.703,25.724,-5.283
17:05:50:806,16.648,-0.014,0.000,-0.003,-3.704,25.798,-5.309
17:05:50:807,16.649,-0.013,-0.001,0.006,-3.705,25.799,-5.323
17:05:50:808,16.649,-0.017,0.000,-0.007,-3.714,25.919,-5.340
17:05:50:827,16.668,-0.010,0.001,-0.002,-3.719,25.902,-5.350
17:05:50:853,16.695,-0.018,0.000,0.002,-3.720,25.962,-5.362
17:05:50:882,16.724,-0.013,-0.001,0.002,-3.725,25.952,-5.380
17:05:50:964,16.806,-0.016,0.000,-0.006,-3.729,25.949,-5.383
17:05:50:965,16.807,-0.010,-0.002,0.000,-3.737,26.002,-5.388
17:05:50:966,16.808,-0.013,-0.005,0.002,-3.738,25.981,-5.380
17:05:50:985,16.827,-0.012,-0.002,0.001,-3.748,25.992,-5.390
17:05:51:01,16.852,-0.012,0.001,0.003,-3.748,25.985,-5.383
17:05:51:037,16.879,-0.012,-0.003,0.004,-3.755,25.912,-5.377
17:05:51:063,16.905,-0.013,-0.001,-0.002,-3.754,25.911,-5.363
17:05:51:119,16.961,-0.012,-0.001,0.001,-3.762,25.957,-5.353
17:05:51:119,16.961,-0.008,0.000,-0.002,-3.769,25.957,-5.346
17:05:51:172,17.014,-0.010,0.001,0.007,-3.772,25.967,-5.343
17:05:51:172,17.014,-0.013,-0.003,0.000,-3.774,25.992,-5.333
17:05:51:194,17.036,-0.014,0.002,0.001,-3.774,25.992,-5.347
17:05:51:22,17.062,-0.010,0.000,-0.007,-3.780,26.013,-5.347
17:05:51:247,17.088,-0.016,-0.001,0.006,-3.774,26.080,-5.360
17:05:51:303,17.145,-0.007,-0.001,0.003,-3.768,26.140,-5.366
17:05:51:304,17.146,-0.014,0.001,0.000,-3.764,26.238,-5.369
17:05:51:385,17.227,-0.006,-0.001,0.003,-3.761,26.308,-5.378
17:05:51:385,17.227,-0.008,-0.001,0.000,-3.761,26.449,-5.383
17:05:51:386,17.228,-0.012,0.001,0.001,-3.780,26.551,-5.374
17:05:51:406,17.248,-0.002,0.000,-0.001,-3.792,26.586,-5.354
17:05:51:432,17.274,-0.016,-0.001,0.002,-3.818,26.666,-5.317
17:05:51:457,17.299,-0.013,-0.002,-0.011,-3.838,26.807,-5.286
17:05:51:514,17.356,-0.014,0.002,-0.003,-3.871,26.873,-5.227
17:05:51:515,17.357,-0.019,0.003,-0.003,-3.900,26.942,-5.158
17:05:51:536,17.378,-0.025,0.003,0.003,-3.917,26.990,-5.117
17:05:51:562,17.404,-0.009,0.000,-0.004,-3.950,27.196,-5.035
17:05:51:588,17.430,-0.007,0.000,-0.004,-3.976,27.262,-4.984
17:05:51:615,17.457,-0.011,-0.008,-0.003,-4.024,27.352,-4.887
17:05:51:641,17.483,-0.027,-0.003,0.001,-4.065,27.418,-4.822
17:05:51:696,17.538,-0.028,0.000,-0.002,-4.118,27.578,-4.734
17:05:51:696,17.538,-0.018,-0.002,0.011,-4.164,27.629,-4.633
17:05:51:72,17.562,-0.007,-0.002,-0.002,-4.179,27.645,-4.574
17:05:51:748,17.590,-0.008,-0.001,0.005,-4.212,27.644,-4.510
17:05:51:772,17.614,-0.021,-0.002,-0.002,-4.239,27.717,-4.466
17:05:51:798,17.640,-0.008,-0.001,0.004,-4.279,27.783,-4.387
17:05:51:824,17.666,-0.022,-0.001,0.001,-4.319,27.854,-4.300
17:05:51:851,17.693,-0.020,-0.002,0.005,-4.345,27.867,-4.244
17:05:51:906,17.748,-0.015,0.002,-0.002,-4.373,27.883,-4.170
17:05:51:906,17.748,-0.025,0.000,0.003,-4.395,27.914,-4.132
17:05:51:931,17.773,-0.017,-0.001,0.001,-4.402,27.972,-4.082
17:05:51:957,17.798,-0.015,-0.001,0.007,-4.406,28.027,-4.049
17:05:51:982,17.824,-0.017,0.000,-0.001,-4.410,28.062,-4.029
17:05:52:008,17.850,-0.017,-0.002,0.004,-4.408,28.117,-4.017
17:05:52:034,17.876,-0.009,-0.001,0.002,-4.418,28.134,-4.000
17:05:52:06,17.902,-0.013,0.000,0.006,-4.420,28.158,-3.990
17:05:52:087,17.929,-0.019,0.001,0.006,-4.422,28.189,-3.974
17:05:52:141,17.983,-0.021,-0.001,0.005,-4.421,28.210,-3.968
17:05:52:168,18.010,-0.006,0.000,-0.001,-4.409,28.213,-3.950
17:05:52:169,18.011,-0.017,0.000,0.002,-4.405,28.346,-3.949
17:05:52:192,18.034,-0.016,-0.001,0.002,-4.411,28.345,-3.927
17:05:52:218,18.060,-0.021,0.002,-0.005,-4.410,28.380,-3.922
17:05:52:33,18.172,-0.010,-0.001,0.004,-4.398,28.396,-3.905
17:05:52:331,18.172,-0.014,0.001,-0.004,-4.373,28.392,-3.895
17:05:52:331,18.173,-0.014,-0.001,0.005,-4.359,28.391,-3.881
17:05:52:353,18.195,-0.016,0.000,-0.003,-4.331,28.390,-3.882
17:05:52:354,18.195,-0.008,-0.001,0.003,-4.311,28.382,-3.896
17:05:52:38,18.222,-0.022,0.000,-0.002,-4.286,28.407,-3.922
17:05:52:38,18.222,-0.011,-0.001,0.003,-4.255,28.432,-3.962
17:05:52:431,18.273,-0.018,-0.004,0.002,-4.234,28.453,-3.991
17:05:52:431,18.273,-0.011,-0.001,0.006,-4.207,28.447,-4.027
17:05:52:483,18.325,-0.015,0.002,0.005,-4.194,28.441,-4.062
17:05:52:484,18.326,-0.015,-0.001,0.005,-4.172,28.431,-4.122
17:05:52:533,18.375,-0.009,-0.001,0.001,-4.123,28.402,-4.230
17:05:52:559,18.401,-0.011,0.001,0.006,-4.098,28.375,-4.286
17:05:52:585,18.427,-0.009,0.001,0.002,-4.086,28.355,-4.320
17:05:52:612,18.454,-0.015,-0.002,0.001,-4.057,28.310,-4.365
17:05:52:64,18.482,-0.007,-0.002,0.005,-4.034,28.292,-4.382
17:05:52:665,18.507,-0.013,-0.001,0.001,-4.004,28.288,-4.415
17:05:52:72,18.561,-0.007,-0.001,0.007,-3.983,28.288,-4.436
17:05:52:721,18.562,-0.013,0.000,-0.001,-3.983,28.288,-4.436
17:05:52:743,18.585,-0.012,0.000,0.002,-3.990,28.295,-4.436
17:05:52:769,18.611,-0.012,-0.001,0.004,-3.990,28.288,-4.429
17:05:52:796,18.638,-0.011,-0.001,0.005,-3.993,28.291,-4.419
17:05:52:822,18.664,-0.011,0.000,0.003,-3.996,28.288,-4.408
17:05:52:877,18.719,-0.012,-0.001,0.007,-4.003,28.288,-4.401
17:05:52:878,18.720,-0.013,-0.002,0.003,-4.003,28.288,-4.401
17:05:52:902,18.743,-0.016,0.001,-0.002,-3.996,28.280,-4.401
17:05:52:927,18.768,-0.006,-0.001,0.003,-4.004,28.281,-4.407
17:05:52:953,18.795,-0.018,0.000,-0.002,-4.000,28.285,-4.411
17:05:52:98,18.822,-0.010,0.002,-0.004,-4.000,28.285,-4.411
17:05:53:005,18.847,-0.014,-0.001,-0.001,-4.000,28.277,-4.411
17:05:53:061,18.903,-0.010,-0.002,0.007,-4.000,28.277,-4.411
17:05:53:061,18.903,-0.020,-0.001,-0.001,-4.000,28.277,-4.411
17:05:53:143,18.985,-0.014,0.001,0.008,-4.000,28.277,-4.411
17:05:53:143,18.985,-0.013,-0.002,-0.003,-4.001,28.278,-4.425
17:05:53:144,18.986,-0.014,-0.002,0.008,-4.001,28.278,-4.425
17:05:53:163,19.005,-0.015,0.003,-0.006,-4.001,28.278,-4.432
17:05:53:189,19.031,-0.012,-0.002,0.009,-3.998,28.282,-4.443
17:05:53:33,19.172,-0.011,-0.002,0.006,-4.002,28.279,-4.453
17:05:53:331,19.173,-0.010,-0.001,0.002,-4.002,28.279,-4.467
17:05:53:331,19.173,-0.013,0.000,0.003,-4.002,28.279,-4.467
17:05:53:332,19.174,-0.012,-0.002,0.005,-3.999,28.276,-4.477
17:05:53:35,19.192,-0.017,-0.001,0.006,-3.999,28.277,-4.491
17:05:53:352,19.194,-0.008,0.005,0.000,-3.997,28.274,-4.509
17:05:53:374,19.216,-0.008,-0.001,0.003,-3.990,28.288,-4.531
17:05:53:399,19.241,-0.020,0.000,0.011,-3.989,28.310,-4.552
17:05:53:458,19.299,-0.013,0.001,0.002,-3.990,28.310,-4.574
17:05:53:458,19.299,0.000,0.000,0.004,-3.991,28.318,-4.595
17:05:53:479,19.320,-0.013,-0.001,0.005,-3.986,28.335,-4.585
17:05:53:504,19.346,-0.014,0.000,-0.001,-3.988,28.367,-4.582
17:05:53:53,19.372,-0.013,0.000,0.001,-3.988,28.374,-4.576
17:05:53:557,19.399,-0.008,-0.003,0.004,-3.983,28.377,-4.565
17:05:53:583,19.425,-0.007,0.001,0.005,-3.986,28.394,-4.555
17:05:53:638,19.480,-0.013,0.001,0.008,-3.981,28.418,-4.553
17:05:53:639,19.481,-0.009,-0.001,0.007,-3.973,28.460,-4.547
17:05:53:72,19.562,-0.013,-0.004,-0.001,-3.975,28.491,-4.545
17:05:53:721,19.563,-0.013,-0.004,0.008,-3.973,28.540,-4.539
17:05:53:722,19.564,-0.014,-0.001,0.003,-3.968,28.571,-4.537
17:05:53:74,19.582,-0.013,-0.001,0.007,-3.966,28.628,-4.553
17:05:53:767,19.609,-0.013,-0.002,-0.002,-3.958,28.670,-4.576
17:05:53:796,19.638,-0.011,-0.001,0.001,-3.947,28.702,-4.602
17:05:53:849,19.690,-0.012,-0.001,0.003,-3.911,28.751,-4.646
17:05:53:849,19.691,-0.009,-0.002,0.004,-3.893,28.776,-4.671
17:05:53:874,19.715,-0.010,-0.002,-0.003,-3.864,28.811,-4.708
17:05:53:898,19.740,-0.005,0.000,0.008,-3.847,28.815,-4.733
17:05:53:924,19.766,-0.012,0.002,0.000,-3.851,28.818,-4.730
17:05:53:95,19.792,-0.011,0.000,0.013,-3.847,28.814,-4.719
17:05:54:035,19.877,-0.009,-0.001,0.002,-3.850,28.818,-4.716
17:05:54:036,19.878,-0.009,-0.005,0.012,-3.847,28.814,-4.705
17:05:54:036,19.878,-0.011,-0.001,0.003,-3.850,28.817,-4.702
17:05:54:056,19.897,-0.008,0.002,0.008,-3.847,28.814,-4.705
17:05:54:113,19.955,-0.011,0.000,0.006,-3.851,28.811,-4.722
17:05:54:113,19.955,-0.012,-0.002,0.002,-3.852,28.790,-4.736
17:05:54:134,19.976,-0.008,0.000,0.001,-3.854,28.763,-4.763
17:05:54:161,20.003,-0.019,0.000,0.008,-3.856,28.729,-4.783
17:05:54:187,20.029,-0.008,0.005,0.000,-3.850,28.701,-4.803
17:05:54:301,20.143,-0.010,-0.002,0.010,-3.828,28.670,-4.841
17:05:54:301,20.143,-0.003,-0.001,0.006,-3.812,28.646,-4.858
17:05:54:302,20.144,-0.008,0.002,0.007,-3.797,28.614,-4.889
17:05:54:318,20.160,-0.010,-0.001,0.005,-3.786,28.566,-4.922
17:05:54:345,20.187,-0.013,0.001,0.007,-3.787,28.545,-4.936
17:05:54:424,20.265,-0.013,0.000,-0.005,-3.785,28.521,-4.953
17:05:54:457,20.298,-0.011,0.000,0.011,-3.777,28.490,-4.976
17:05:54:457,20.298,-0.010,0.000,0.004,-3.775,28.466,-4.993
17:05:54:457,20.299,-0.013,0.001,0.008,-3.777,28.439,-5.027
17:05:54:479,20.321,-0.009,-0.002,0.001,-3.773,28.405,-5.068
17:05:54:504,20.346,-0.007,-0.001,0.008,-3.771,28.382,-5.092
17:05:54:529,20.371,-0.009,-0.001,0.002,-3.777,28.358,-5.123
17:05:54:583,20.425,-0.005,-0.003,0.005,-3.770,28.359,-5.144
17:05:54:695,20.537,-0.015,-0.001,0.001,-3.771,28.360,-5.172
17:05:54:695,20.537,-0.008,0.000,0.008,-3.772,28.360,-5.200
17:05:54:696,20.538,-0.015,-0.001,0.001,-3.769,28.357,-5.218
17:05:54:715,20.557,-0.019,0.003,0.004,-3.775,28.356,-5.270
17:05:54:716,20.558,-0.012,-0.001,0.012,-3.773,28.354,-5.330
17:05:54:738,20.580,-0.010,-0.001,0.006,-3.778,28.345,-5.375
17:05:54:769,20.611,-0.008,-0.003,0.011,-3.781,28.326,-5.437
17:05:54:769,20.611,-0.014,-0.002,0.007,-3.780,28.311,-5.496
17:05:54:79,20.632,-0.011,-0.002,0.009,-3.782,28.298,-5.538
17:05:54:846,20.688,-0.012,-0.001,0.003,-3.782,28.275,-5.590
17:05:54:847,20.688,-0.008,-0.001,0.008,-3.787,28.258,-5.614
17:05:54:898,20.740,-0.010,-0.001,0.007,-3.789,28.239,-5.648
17:05:54:899,20.741,-0.012,0.001,0.009,-3.790,28.232,-5.662
17:05:55:008,20.849,-0.016,0.000,0.005,-3.786,28.236,-5.665
17:05:55:008,20.850,-0.012,-0.001,0.011,-3.791,28.233,-5.690
17:05:55:009,20.851,-0.014,-0.002,0.011,-3.791,28.233,-5.704
17:05:55:031,20.873,-0.011,0.000,0.011,-3.793,28.213,-5.724
17:05:55:031,20.873,-0.017,0.000,0.011,-3.798,28.189,-5.727
17:05:55:082,20.924,-0.015,-0.002,0.012,-3.799,28.161,-5.726
17:05:55:083,20.925,-0.015,-0.001,0.007,-3.801,28.126,-5.732
17:05:55:106,20.948,-0.020,0.002,-0.001,-3.799,28.102,-5.742
17:05:55:132,20.974,-0.015,0.002,0.008,-3.808,28.075,-5.762
17:05:55:158,21.000,-0.013,-0.001,0.003,-3.811,28.047,-5.782
17:05:55:184,21.026,-0.013,-0.002,0.014,-3.813,28.020,-5.809
17:05:55:269,21.111,-0.015,-0.001,0.001,-3.807,28.014,-5.837
17:05:55:27,21.112,-0.014,-0.001,0.004,-3.815,28.008,-5.850
17:05:55:27,21.112,-0.017,-0.001,0.004,-3.812,28.005,-5.868
17:05:55:289,21.131,-0.014,-0.002,0.008,-3.809,28.002,-5.878
17:05:55:316,21.158,-0.015,0.000,0.004,-3.810,28.002,-5.892
17:05:55:343,21.184,-0.017,0.002,0.011,-3.811,27.995,-5.906
17:05:55:398,21.240,-0.015,-0.001,0.003,-3.811,27.989,-5.913
17:05:55:398,21.240,-0.015,-0.002,0.008,-3.808,27.985,-5.909
17:05:55:421,21.263,-0.012,0.000,0.006,-3.808,27.985,-5.909
17:05:55:476,21.318,-0.011,-0.001,0.006,-3.811,27.981,-5.899
17:05:55:477,21.319,-0.013,0.000,0.005,-3.814,27.984,-5.888
17:05:55:5,21.342,-0.012,-0.001,0.010,-3.810,27.981,-5.885
17:05:55:527,21.369,-0.013,-0.003,-0.007,-3.813,27.984,-5.874
17:05:55:583,21.424,-0.008,0.003,0.003,-3.817,27.980,-5.863
17:05:55:583,21.424,-0.014,-0.004,0.006,-3.817,27.980,-5.857
17:05:55:604,21.446,-0.010,-0.002,0.011,-3.817,27.980,-5.863
17:05:55:63,21.472,-0.013,-0.001,0.005,-3.814,27.977,-5.867
17:05:55:657,21.499,-0.012,-0.001,0.005,-3.817,27.980,-5.863
17:05:55:683,21.525,-0.011,-0.002,0.006,-3.813,27.976,-5.853
17:05:55:709,21.551,-0.012,0.001,0.012,-3.820,27.976,-5.846
17:05:55:794,21.636,-0.020,0.000,0.010,-3.823,27.980,-5.842
17:05:55:795,21.637,-0.033,-0.001,0.028,-3.824,27.944,-5.806
17:05:55:795,21.637,-0.019,0.003,-0.002,-3.817,27.856,-5.800
17:05:55:814,21.656,-0.014,0.000,0.008,-3.800,27.652,-5.808
17:05:55:845,21.687,-0.002,-0.001,-0.004,-3.773,27.451,-5.827
17:05:55:897,21.739,-0.013,0.000,-0.003,-3.752,27.325,-5.859
17:05:55:897,21.739,-0.009,0.000,0.013,-3.722,27.209,-5.909
17:05:55:979,21.821,-0.001,-0.003,-0.002,-3.710,27.122,-5.938
17:05:55:979,21.821,-0.002,0.000,-0.004,-3.697,27.010,-5.977
17:05:55:979,21.821,-0.010,-0.005,-0.001,-3.704,26.959,-6.007
17:05:55:999,21.841,-0.003,-0.003,0.004,-3.706,26.938,-6.013
17:05:56:025,21.867,-0.023,-0.001,0.008,-3.712,26.938,-6.006
17:05:56:051,21.893,-0.023,0.006,0.012,-3.715,26.942,-5.996
17:05:56:077,21.919,-0.021,0.003,-0.001,-3.722,26.904,-6.026
17:05:56:103,21.945,-0.010,0.001,0.005,-3.710,26.867,-6.092
17:05:56:159,22.001,-0.012,-0.001,0.004,-3.659,26.794,-6.214
17:05:56:16,22.002,-0.009,-0.008,0.007,-3.602,26.700,-6.315
17:05:56:24,22.082,-0.014,-0.003,0.007,-3.574,26.637,-6.378
17:05:56:241,22.083,-0.003,-0.002,0.002,-3.542,26.563,-6.429
17:05:56:241,22.083,-0.009,-0.002,-0.001,-3.535,26.518,-6.453
17:05:56:291,22.133,-0.008,-0.001,0.004,-3.541,26.465,-6.455
17:05:56:291,22.133,-0.022,-0.001,0.001,-3.550,26.423,-6.446
17:05:56:372,22.214,-0.012,-0.002,0.011,-3.556,26.400,-6.463
17:05:56:373,22.215,-0.015,-0.003,0.007,-3.551,26.394,-6.505
17:05:56:374,22.216,-0.010,0.000,0.008,-3.556,26.391,-6.529
17:05:56:392,22.234,-0.008,-0.001,-0.005,-3.561,26.388,-6.553
17:05:56:419,22.261,-0.015,0.000,0.008,-3.566,26.386,-6.570
17:05:56:444,22.286,-0.022,0.003,0.004,-3.569,26.382,-6.553
17:05:56:471,22.313,-0.001,0.001,0.004,-3.572,26.386,-6.549
17:05:56:497,22.339,-0.020,-0.002,0.006,-3.579,26.386,-6.542
17:05:56:552,22.394,-0.008,-0.001,0.005,-3.582,26.382,-6.538
17:05:56:553,22.394,-0.015,0.000,0.005,-3.582,26.389,-6.546
17:05:56:577,22.419,-0.007,-0.001,0.007,-3.583,26.390,-6.573
17:05:56:631,22.473,-0.014,0.000,0.004,-3.588,26.388,-6.598
17:05:56:632,22.474,-0.010,-0.002,0.002,-3.585,26.398,-6.609
17:05:56:655,22.497,-0.011,0.000,0.003,-3.588,26.417,-6.627
17:05:56:681,22.522,-0.014,-0.002,-0.002,-3.584,26.427,-6.624
17:05:56:707,22.549,-0.011,-0.004,0.005,-3.590,26.427,-6.616
17:05:56:793,22.635,-0.006,-0.003,-0.006,-3.590,26.434,-6.610
17:05:56:793,22.635,-0.006,0.004,0.001,-3.592,26.451,-6.606
17:05:56:794,22.636,-0.017,0.000,0.003,-3.582,26.493,-6.601
17:05:56:812,22.654,-0.008,-0.002,0.012,-3.584,26.524,-6.598
17:05:56:838,22.680,-0.009,0.000,-0.008,-3.580,26.580,-6.586
17:05:56:953,22.795,-0.013,-0.001,0.000,-3.584,26.622,-6.587
17:05:56:953,22.795,-0.017,-0.002,-0.003,-3.585,26.675,-6.585
17:05:56:954,22.796,-0.015,-0.001,0.002,-3.586,26.713,-6.576
17:05:56:955,22.797,-0.010,-0.004,0.001,-3.581,26.730,-6.566
17:05:56:969,22.811,-0.005,-0.002,0.003,-3.583,26.755,-6.563
17:05:56:995,22.837,-0.014,-0.001,0.000,-3.585,26.772,-6.560
17:05:57:026,22.868,-0.013,0.000,0.004,-3.586,26.797,-6.550
17:05:57:026,22.868,-0.018,-0.001,0.000,-3.586,26.796,-6.536
17:05:57:078,22.919,-0.016,0.001,0.009,-3.590,26.793,-6.532
17:05:57:078,22.920,-0.008,0.000,0.001,-3.589,26.793,-6.525
17:05:57:128,22.970,-0.010,-0.001,0.005,-3.589,26.793,-6.525
17:05:57:215,23.057,-0.012,0.001,0.002,-3.590,26.771,-6.511
17:05:57:215,23.057,-0.002,-0.003,-0.007,-3.593,26.746,-6.478
17:05:57:216,23.058,-0.016,-0.007,0.003,-3.592,26.745,-6.450
17:05:57:216,23.058,-0.016,0.002,0.004,-3.596,26.758,-6.408
17:05:57:232,23.074,-0.011,-0.001,0.007,-3.598,26.775,-6.384
17:05:57:259,23.100,-0.018,-0.001,-0.001,-3.597,26.820,-6.354
17:05:57:343,23.185,-0.012,-0.002,0.006,-3.599,26.830,-6.330
17:05:57:343,23.185,-0.009,0.001,0.008,-3.595,26.825,-6.312
17:05:57:344,23.186,-0.006,0.000,0.003,-3.594,26.832,-6.291
17:05:57:364,23.206,-0.010,-0.001,0.004,-3.593,26.831,-6.277
17:05:57:389,23.231,-0.016,-0.003,0.001,-3.593,26.831,-6.277
17:05:57:415,23.257,-0.015,0.003,0.003,-3.593,26.824,-6.270
17:05:57:442,23.284,-0.010,-0.001,0.007,-3.578,26.777,-6.259
17:05:57:468,23.310,-0.018,0.000,-0.014,-3.542,26.723,-6.255
17:05:57:524,23.366,-0.019,0.003,0.008,-3.508,26.700,-6.255
17:05:57:524,23.366,-0.006,-0.001,0.006,-3.459,26.698,-6.264
17:05:57:575,23.417,-0.012,-0.002,0.015,-3.431,26.696,-6.265
17:05:57:602,23.444,-0.011,0.000,-0.006,-3.412,26.705,-6.248
17:05:57:603,23.445,-0.013,0.000,0.005,-3.414,26.708,-6.217
17:05:57:626,23.468,-0.022,-0.002,0.005,-3.417,26.706,-6.140
17:05:57:652,23.494,-0.011,-0.001,0.004,-3.414,26.704,-6.062
17:05:57:678,23.520,-0.010,-0.005,-0.001,-3.425,26.724,-6.028
17:05:57:763,23.605,-0.011,0.001,0.006,-3.458,26.777,-5.968
17:05:57:763,23.605,-0.010,-0.005,0.001,-3.489,26.812,-5.919
17:05:57:764,23.606,-0.008,-0.001,0.003,-3.542,26.872,-5.831
17:05:57:783,23.625,-0.020,0.000,0.008,-3.604,26.949,-5.733
17:05:57:809,23.651,-0.009,-0.001,0.006,-3.645,26.995,-5.659
17:05:57:836,23.677,-0.019,-0.002,0.000,-3.711,27.054,-5.557
17:05:57:862,23.703,-0.021,0.000,0.009,-3.752,27.093,-5.491
17:05:57:888,23.730,-0.020,-0.001,0.002,-3.807,27.110,-5.402
17:05:57:972,23.814,-0.021,0.002,0.011,-3.841,27.111,-5.365
17:05:57:973,23.815,-0.015,0.002,0.003,-3.876,27.090,-5.336
17:05:57:974,23.816,-0.018,-0.002,0.006,-3.901,27.052,-5.316
17:05:57:993,23.835,-0.018,0.000,-0.003,-3.924,27.011,-5.307
17:05:58:019,23.861,-0.016,-0.002,0.008,-3.942,26.942,-5.311
17:05:58:046,23.887,-0.014,0.000,0.010,-3.948,26.890,-5.319
17:05:58:101,23.943,-0.015,-0.005,0.006,-3.960,26.814,-5.338
17:05:58:102,23.944,-0.015,-0.003,0.006,-3.972,26.745,-5.377
17:05:58:182,24.024,-0.001,-0.002,0.002,-3.976,26.698,-5.410
17:05:58:183,24.025,-0.013,0.000,0.009,-3.980,26.657,-5.458
17:05:58:184,24.026,-0.012,-0.002,-0.007,-3.982,26.637,-5.478
17:05:58:203,24.045,-0.008,-0.001,0.001,-3.987,26.620,-5.502
17:05:58:229,24.071,-0.013,-0.001,-0.001,-3.995,26.621,-5.523
17:05:58:256,24.098,-0.017,0.002,0.007,-4.016,26.637,-5.530
17:05:58:311,24.153,-0.021,-0.001,-0.004,-4.044,26.653,-5.543
17:05:58:311,24.153,-0.015,-0.004,0.008,-4.048,26.649,-5.554
17:05:58:334,24.176,-0.015,0.001,-0.001,-4.058,26.609,-5.573
17:05:58:36,24.202,-0.020,0.002,0.011,-4.064,26.585,-5.603
17:05:58:387,24.229,-0.022,0.003,-0.003,-4.069,26.531,-5.651
17:05:58:413,24.255,-0.016,-0.002,0.012,-4.046,26.437,-5.715
17:05:58:442,24.284,-0.008,0.000,-0.006,-4.023,26.368,-5.763
17:05:58:492,24.334,-0.003,-0.003,0.008,-4.003,26.292,-5.845
17:05:58:58,24.421,-0.013,-0.002,0.002,-3.986,26.258,-5.887
17:05:58:58,24.422,-0.003,0.002,-0.002,-3.964,26.188,-5.935
17:05:58:581,24.423,-0.009,-0.002,-0.003,-3.949,26.104,-5.961
17:05:58:597,24.439,-0.011,0.000,-0.007,-3.920,26.026,-6.001
17:05:58:625,24.466,-0.005,-0.003,0.002,-3.897,26.022,-6.027
17:05:58:678,24.520,-0.011,0.002,0.007,-3.874,26.018,-6.052
17:05:58:679,24.521,0.001,0.000,0.003,-3.853,26.018,-6.067
17:05:58:704,24.546,-0.002,-0.004,-0.003,-3.842,26.035,-6.072
17:05:58:73,24.572,-0.003,-0.001,-0.001,-3.844,26.059,-6.069
17:05:58:755,24.597,-0.012,-0.002,0.001,-3.849,26.080,-6.048
17:05:58:781,24.623,-0.015,-0.002,0.007,-3.870,26.126,-6.024
17:05:58:807,24.649,-0.012,-0.003,0.005,-3.889,26.147,-5.996
17:05:58:833,24.675,-0.011,-0.003,0.009,-3.911,26.187,-5.993
17:05:58:891,24.733,-0.018,-0.001,0.000,-3.934,26.205,-5.975
17:05:58:891,24.733,-0.020,-0.002,0.010,-3.943,26.216,-5.971
17:05:58:912,24.754,-0.009,-0.002,0.006,-3.952,26.256,-5.983
17:05:58:938,24.780,-0.011,-0.003,-0.004,-3.961,26.280,-5.973
17:05:58:964,24.806,-0.008,-0.002,0.005,-3.997,26.327,-5.962
17:05:58:993,24.834,-0.013,0.000,0.000,-4.025,26.373,-5.931
17:05:59:018,24.859,-0.008,0.000,-0.002,-4.046,26.412,-5.900
17:05:59:072,24.914,-0.013,-0.001,-0.004,-4.074,26.496,-5.845
17:05:59:073,24.915,-0.016,0.000,0.008,-4.089,26.558,-5.791
17:05:59:158,24.999,-0.017,-0.001,-0.003,-4.105,26.658,-5.720
17:05:59:158,25.000,-0.008,-0.002,-0.001,-4.110,26.709,-5.662
17:05:59:159,25.001,-0.021,0.007,-0.001,-4.128,26.766,-5.569
17:05:59:16,25.001,-0.021,-0.002,0.010,-4.137,26.785,-5.485
17:05:59:204,25.045,-0.025,-0.001,0.004,-4.139,26.766,-5.445
17:05:59:204,25.046,-0.018,0.001,0.009,-4.148,26.709,-5.422
17:05:59:285,25.127,-0.012,0.001,0.003,-4.155,26.658,-5.437
17:05:59:286,25.128,-0.011,-0.003,0.012,-4.161,26.568,-5.476
17:05:59:286,25.128,-0.011,-0.003,0.002,-4.172,26.461,-5.525
17:05:59:336,25.178,-0.007,-0.001,0.004,-4.181,26.382,-5.553
17:05:59:336,25.178,-0.011,-0.002,0.004,-4.196,26.279,-5.598
17:05:59:358,25.200,-0.010,-0.001,0.007,-4.200,26.217,-5.624
17:05:59:385,25.226,-0.016,0.000,-0.001,-4.220,26.142,-5.663
17:05:59:469,25.311,-0.009,-0.001,0.007,-4.231,26.102,-5.696
17:05:59:47,25.312,-0.011,-0.001,0.005,-4.264,26.049,-5.742
17:05:59:47,25.312,-0.007,-0.001,0.004,-4.297,26.003,-5.781
17:05:59:489,25.331,-0.012,0.002,0.003,-4.324,25.980,-5.804
17:05:59:516,25.357,-0.016,-0.002,0.002,-4.365,25.951,-5.819
17:05:59:542,25.384,-0.013,0.000,0.004,-4.391,25.936,-5.827
17:05:59:57,25.412,-0.012,-0.001,0.007,-4.404,25.891,-5.828
17:05:59:595,25.437,-0.012,-0.002,0.004,-4.414,25.841,-5.819
17:05:59:647,25.489,-0.010,0.001,0.004,-4.414,25.820,-5.812
17:05:59:705,25.547,-0.012,-0.001,-0.001,-4.418,25.810,-5.807
17:05:59:706,25.548,-0.015,0.000,-0.001,-4.421,25.813,-5.797
17:05:59:707,25.548,-0.010,-0.001,-0.001,-4.424,25.824,-5.801
17:05:59:726,25.567,-0.016,0.001,-0.002,-4.409,25.851,-5.802
17:05:59:754,25.596,-0.009,-0.002,0.008,-4.375,25.895,-5.809
17:05:59:78,25.621,-0.009,-0.004,-0.002,-4.334,25.953,-5.823
17:05:59:805,25.646,-0.011,-0.003,0.006,-4.310,25.994,-5.819
17:05:59:862,25.704,-0.014,-0.001,-0.001,-4.290,26.046,-5.818
17:05:59:862,25.704,-0.014,0.000,0.007,-4.288,26.080,-5.812
17:05:59:883,25.725,-0.017,-0.001,0.002,-4.282,26.111,-5.803
17:05:59:909,25.751,-0.005,-0.001,0.006,-4.285,26.122,-5.793
17:05:59:937,25.779,-0.013,0.001,-0.001,-4.283,26.150,-5.794
17:05:59:963,25.805,-0.017,0.003,0.010,-4.281,26.178,-5.788
17:05:59:989,25.830,-0.014,0.000,-0.003,-4.280,26.184,-5.774
17:06:00:044,25.886,-0.011,-0.001,0.004,-4.287,26.177,-5.760
17:06:00:044,25.886,-0.013,-0.001,0.005,-4.290,26.173,-5.749
17:06:00:126,25.968,-0.009,-0.001,0.004,-4.290,26.173,-5.749
17:06:00:126,25.968,-0.012,0.001,-0.002,-4.291,26.174,-5.763
17:06:00:126,25.968,-0.006,0.001,0.001,-4.294,26.177,-5.752
17:06:00:177,26.018,-0.010,-0.001,-0.005,-4.290,26.173,-5.749
17:06:00:177,26.018,-0.009,-0.001,0.009,-4.297,26.173,-5.741
17:06:00:198,26.040,-0.010,-0.003,0.004,-4.292,26.176,-5.731
17:06:00:224,26.066,-0.014,0.000,0.007,-4.300,26.170,-5.731
17:06:00:252,26.094,-0.011,-0.001,0.007,-4.282,26.187,-5.743
17:06:00:278,26.119,-0.010,0.001,-0.003,-4.272,26.212,-5.775
17:06:00:303,26.145,-0.013,0.001,0.004,-4.255,26.222,-5.794
17:06:00:329,26.171,-0.009,-0.001,0.007,-4.219,26.249,-5.818
17:06:00:356,26.198,-0.013,-0.003,0.010,-4.189,26.268,-5.805
17:06:00:382,26.224,-0.013,0.000,0.010,-4.168,26.267,-5.799
17:06:00:437,26.279,-0.012,0.000,0.005,-4.136,26.262,-5.797
17:06:00:438,26.280,-0.013,0.000,0.000,-4.113,26.258,-5.808
17:06:00:461,26.303,-0.011,0.000,0.004,-4.076,26.246,-5.834
17:06:00:487,26.329,-0.011,-0.001,0.001,-4.049,26.245,-5.856
17:06:00:513,26.355,-0.009,-0.003,0.004,-4.011,26.241,-5.875
17:06:00:54,26.382,-0.012,0.000,-0.003,-3.984,26.240,-5.890
17:06:00:565,26.407,-0.008,-0.001,0.006,-3.970,26.232,-5.883
17:06:00:592,26.434,-0.014,-0.001,0.000,-3.969,26.239,-5.876
17:06:00:648,26.489,-0.012,-0.001,0.007,-3.972,26.242,-5.873
17:06:00:648,26.490,-0.017,-0.001,0.004,-3.971,26.242,-5.859
17:06:00:673,26.514,-0.009,-0.001,0.008,-3.971,26.241,-5.845
17:06:00:698,26.540,-0.013,0.000,0.002,-3.971,26.241,-5.845
17:06:00:723,26.565,-0.010,-0.002,0.009,-3.974,26.238,-5.834
17:06:00:749,26.591,-0.011,-0.001,0.010,-3.970,26.241,-5.831
17:06:00:776,26.618,-0.007,-0.001,0.006,-3.973,26.237,-5.820
17:06:00:831,26.673,-0.013,-0.001,0.002,-3.973,26.237,-5.820
17:06:00:832,26.673,-0.013,-0.002,0.011,-3.970,26.234,-5.824
17:06:00:857,26.698,-0.008,-0.001,0.006,-3.973,26.206,-5.844
17:06:00:882,26.724,-0.008,0.000,0.005,-3.971,26.189,-5.854
17:06:00:907,26.749,-0.011,-0.001,0.003,-3.972,26.183,-5.874
17:06:00:933,26.775,-0.007,-0.002,0.008,-3.976,26.173,-5.878
17:06:00:959,26.801,-0.011,0.002,0.006,-3.973,26.169,-5.874
17:06:01:015,26.856,-0.009,-0.001,0.008,-3.977,26.151,-5.870
17:06:01:016,26.857,-0.009,-0.001,0.005,-3.973,26.155,-5.873
17:06:01:096,26.938,-0.011,0.000,0.004,-3.978,26.145,-5.876
17:06:01:097,26.939,-0.008,0.000,0.004,-3.978,26.131,-5.876
17:06:01:098,26.940,-0.009,-0.001,0.008,-3.979,26.117,-5.875
17:06:01:117,26.959,-0.008,-0.004,0.006,-3.979,26.117,-5.875
17:06:01:143,26.985,-0.010,-0.001,0.009,-3.979,26.117,-5.875
17:06:01:228,27.070,-0.009,-0.001,0.006,-3.979,26.117,-5.875
17:06:01:229,27.070,-0.009,-0.001,0.001,-3.979,26.117,-5.875
17:06:01:229,27.071,-0.010,0.002,0.006,-3.978,26.131,-5.876
17:06:01:249,27.091,-0.012,-0.002,-0.001,-3.978,26.131,-5.876
17:06:01:275,27.116,-0.012,-0.002,0.006,-3.975,26.134,-5.880
17:06:01:301,27.143,-0.015,0.001,0.000,-3.973,26.148,-5.866
17:06:01:327,27.169,-0.013,0.001,0.006,-3.977,26.151,-5.870
17:06:01:353,27.195,-0.014,0.000,0.003,-3.977,26.151,-5.870
17:06:01:411,27.253,-0.014,0.000,0.009,-3.977,26.151,-5.870
17:06:01:412,27.254,-0.017,-0.001,0.005,-3.977,26.151,-5.870
17:06:01:413,27.255,-0.012,-0.005,0.010,-3.977,26.151,-5.870
17:06:01:461,27.303,-0.017,0.001,0.003,-3.977,26.151,-5.870
17:06:01:462,27.303,-0.012,0.001,0.010,-3.977,26.151,-5.870
17:06:01:513,27.355,-0.014,-0.001,0.006,-3.977,26.151,-5.870
17:06:01:514,27.356,-0.009,0.000,0.008,-3.974,26.155,-5.887
17:06:01:539,27.381,-0.014,-0.003,0.008,-3.975,26.156,-5.901
17:06:01:652,27.493,-0.010,-0.002,0.011,-3.952,26.152,-5.927
17:06:01:652,27.494,-0.015,-0.001,0.003,-3.947,26.124,-5.947
17:06:01:652,27.494,-0.011,-0.001,0.007,-3.931,26.107,-5.965
17:06:01:653,27.494,-0.010,-0.003,0.005,-3.911,26.099,-5.979
17:06:01:668,27.510,-0.012,-0.001,0.006,-3.897,26.098,-5.980
17:06:01:694,27.536,-0.012,-0.001,0.005,-3.887,26.094,-5.984
17:06:01:721,27.563,-0.010,-0.001,0.007,-3.887,26.094,-5.984
17:06:01:806,27.647,-0.013,0.000,0.008,-3.890,26.105,-5.981
17:06:01:806,27.648,-0.016,-0.001,0.010,-3.890,26.105,-5.981
17:06:01:807,27.648,-0.012,-0.001,0.009,-3.890,26.105,-5.981
17:06:01:826,27.668,-0.017,-0.001,0.008,-3.890,26.105,-5.981
17:06:01:852,27.694,-0.012,-0.002,0.007,-3.890,26.105,-5.981
17:06:01:878,27.720,-0.014,0.002,0.013,-3.890,26.105,-5.981
17:06:01:905,27.747,-0.014,0.000,0.010,-3.887,26.102,-5.991
17:06:01:93,27.772,-0.015,-0.001,0.004,-3.884,26.105,-6.002
17:06:01:957,27.799,-0.012,-0.001,0.009,-3.884,26.105,-6.002
17:06:01:985,27.827,-0.015,-0.001,0.005,-3.884,26.105,-6.002
17:06:02:01,27.852,-0.011,-0.001,0.010,-3.884,26.105,-6.002
17:06:02:066,27.908,-0.018,0.000,0.002,-3.884,26.105,-6.002
17:06:02:066,27.908,-0.013,-0.003,0.013,-3.884,26.105,-6.002
17:06:02:088,27.930,-0.017,-0.001,0.007,-3.884,26.105,-6.002
17:06:02:114,27.956,-0.011,-0.001,0.013,-3.884,26.105,-6.002
17:06:02:14,27.982,-0.015,-0.002,0.005,-3.884,26.105,-6.002
17:06:02:167,28.009,-0.012,-0.002,0.011,-3.898,26.106,-6.001
17:06:02:195,28.037,-0.018,0.002,0.002,-3.909,26.103,-6.004
17:06:02:221,28.063,-0.018,-0.002,0.012,-3.905,26.106,-5.994
17:06:02:246,28.088,-0.018,-0.002,0.008,-3.904,26.106,-5.980
17:06:02:272,28.114,-0.014,-0.002,0.008,-3.908,26.088,-5.969
17:06:02:298,28.140,-0.012,-0.001,0.008,-3.909,26.074,-5.975
17:06:02:324,28.166,-0.013,-0.002,0.009,-3.910,26.075,-5.989
17:06:02:38,28.222,-0.016,-0.002,0.006,-3.910,26.075,-5.989
17:06:02:381,28.223,-0.012,-0.003,0.008,-3.910,26.075,-5.989
17:06:02:463,28.305,-0.021,-0.001,0.005,-3.909,26.074,-5.975
17:06:02:464,28.306,-0.018,-0.001,0.005,-3.910,26.067,-5.982
17:06:02:464,28.306,-0.018,-0.001,0.006,-3.914,26.064,-5.985
17:06:02:484,28.326,-0.016,-0.003,0.013,-3.911,26.047,-5.988
17:06:02:51,28.352,-0.016,-0.003,0.008,-3.916,26.022,-5.991
17:06:02:563,28.405,-0.013,-0.001,0.006,-3.920,25.974,-6.010
17:06:02:614,28.456,-0.013,0.000,0.003,-3.920,25.953,-6.002
17:06:02:642,28.484,-0.013,0.001,0.006,-3.928,25.932,-5.995
17:06:02:643,28.485,-0.016,-0.002,0.006,-3.928,25.931,-5.981
17:06:02:666,28.508,-0.013,-0.001,0.006,-3.934,25.931,-5.966
17:06:02:692,28.534,-0.011,-0.001,0.009,-3.934,25.931,-5.959
17:06:02:718,28.560,-0.011,-0.002,0.006,-3.937,25.927,-5.949
17:06:02:774,28.616,-0.015,-0.001,-0.001,-3.932,25.930,-5.938
17:06:02:774,28.616,-0.013,0.000,0.006,-3.935,25.927,-5.927
17:06:02:799,28.641,-0.016,-0.002,0.005,-3.938,25.930,-5.917
17:06:02:823,28.665,-0.012,0.001,0.006,-3.941,25.926,-5.906
17:06:02:851,28.693,-0.017,-0.001,0.001,-3.941,25.926,-5.892
17:06:02:877,28.718,-0.013,-0.002,0.009,-3.944,25.922,-5.888
17:06:02:902,28.744,-0.018,0.002,0.003,-3.947,25.925,-5.871
17:06:02:928,28.770,-0.013,-0.003,0.006,-3.946,25.925,-5.857
17:06:02:955,28.797,-0.016,-0.001,0.002,-3.949,25.921,-5.846
17:06:03:039,28.881,-0.013,-0.002,0.006,-3.952,25.925,-5.835
17:06:03:039,28.881,-0.015,0.000,0.001,-3.952,25.917,-5.828
17:06:03:04,28.882,-0.014,-0.002,0.008,-3.954,25.920,-5.810
17:06:03:059,28.901,-0.015,-0.001,0.001,-3.958,25.917,-5.807
17:06:03:088,28.930,-0.013,0.001,0.005,-3.961,25.921,-5.803
17:06:03:112,28.954,-0.014,0.000,0.003,-3.979,25.918,-5.813
17:06:03:167,29.009,-0.003,-0.003,0.011,-3.994,25.919,-5.826
17:06:03:168,29.010,-0.011,-0.001,0.005,-4.029,25.943,-5.840
17:06:03:191,29.033,-0.011,0.004,0.003,-4.052,25.968,-5.843
17:06:03:217,29.059,-0.007,0.002,-0.005,-4.091,26.004,-5.814
17:06:03:243,29.085,-0.015,0.001,-0.003,-4.127,26.060,-5.759
17:06:03:271,29.113,-0.020,0.002,0.000,-4.150,26.102,-5.696
17:06:03:297,29.138,-0.018,-0.002,0.006,-4.146,26.158,-5.610
17:06:03:353,29.195,-0.018,0.000,0.003,-4.153,26.188,-5.559
17:06:03:354,29.196,-0.013,-0.001,0.004,-4.128,26.199,-5.504
17:06:03:432,29.274,-0.014,0.000,0.006,-4.113,26.198,-5.476
17:06:03:433,29.275,-0.012,0.000,0.007,-4.087,26.192,-5.453
17:06:03:434,29.276,-0.021,-0.004,0.006,-4.094,26.149,-5.416
17:06:03:453,29.295,-0.020,0.016,-0.002,-4.104,26.079,-5.399
17:06:03:48,29.321,0.008,-0.019,0.008,-4.094,25.973,-5.389
17:06:03:507,29.349,-0.017,0.001,0.002,-4.096,25.938,-5.380
17:06:03:593,29.435,-0.015,0.005,-0.012,-4.108,25.892,-5.368
17:06:03:593,29.435,-0.012,-0.006,0.005,-4.121,25.833,-5.355
17:06:03:593,29.435,-0.011,-0.005,0.014,-4.114,25.804,-5.347
17:06:03:613,29.455,-0.025,0.004,0.002,-4.114,25.796,-5.326
17:06:03:614,29.456,-0.012,0.001,0.004,-4.126,25.765,-5.328
17:06:03:639,29.480,-0.014,-0.001,0.000,-4.133,25.700,-5.343
17:06:03:665,29.506,-0.027,-0.003,0.015,-4.129,25.658,-5.349
17:06:03:748,29.590,-0.019,0.003,-0.004,-4.142,25.547,-5.372
17:06:03:748,29.590,-0.013,-0.003,0.008,-4.131,25.436,-5.439
17:06:03:749,29.591,-0.002,-0.003,-0.006,-4.116,25.367,-5.494
17:06:03:799,29.641,-0.004,-0.001,0.004,-4.110,25.306,-5.576
17:06:03:799,29.641,-0.007,0.000,-0.003,-4.109,25.304,-5.622
17:06:03:851,29.693,-0.008,-0.001,0.005,-4.115,25.310,-5.667
17:06:03:851,29.693,-0.009,0.000,0.001,-4.110,25.327,-5.658
17:06:03:873,29.715,-0.012,0.000,0.006,-4.110,25.341,-5.658
17:06:03:903,29.745,-0.015,-0.001,0.000,-4.109,25.392,-5.635
17:06:03:927,29.769,-0.011,-0.001,0.003,-4.108,25.413,-5.629
17:06:03:953,29.795,-0.016,0.003,0.001,-4.108,25.466,-5.620
17:06:03:978,29.820,-0.014,-0.003,0.007,-4.101,25.525,-5.612
17:06:04:005,29.846,-0.016,0.000,-0.002,-4.106,25.560,-5.606
17:06:04:06,29.902,-0.014,-0.002,0.010,-4.102,25.615,-5.594
17:06:04:061,29.903,-0.011,-0.002,0.002,-4.093,25.657,-5.589
17:06:04:083,29.925,-0.013,-0.003,0.007,-4.096,25.712,-5.562
17:06:04:138,29.980,-0.013,0.001,0.005,-4.089,25.757,-5.540
17:06:04:139,29.981,-0.019,-0.002,0.009,-4.088,25.823,-5.517
17:06:04:162,30.004,-0.013,0.001,0.002,-4.092,25.871,-5.505
17:06:04:188,30.030,-0.018,0.001,0.007,-4.089,25.906,-5.492
17:06:04:215,30.057,-0.014,0.002,0.007,-4.079,25.954,-5.480
17:06:04:243,30.085,-0.019,0.002,0.002,-4.066,25.992,-5.471
17:06:04:325,30.167,-0.015,0.001,0.002,-4.050,26.019,-5.459
17:06:04:325,30.167,-0.018,0.000,0.001,-4.028,26.031,-5.446
17:06:04:408,30.250,-0.015,-0.001,0.006,-4.017,26.034,-5.436
17:06:04:408,30.250,-0.019,0.001,-0.002,-3.989,26.026,-5.451
17:06:04:409,30.251,-0.013,-0.001,0.006,-3.969,26.026,-5.466
17:06:04:41,30.252,-0.013,0.000,-0.001,-3.940,26.001,-5.498
17:06:04:424,30.266,-0.013,-0.002,0.007,-3.917,25.990,-5.516
17:06:04:451,30.293,-0.014,-0.001,-0.001,-3.892,25.962,-5.544
17:06:04:477,30.319,-0.011,-0.001,0.005,-3.868,25.957,-5.556
17:06:04:503,30.345,-0.011,-0.002,0.003,-3.851,25.960,-5.560
17:06:04:559,30.400,-0.017,-0.001,0.010,-3.843,25.952,-5.546
17:06:04:559,30.401,-0.012,0.000,0.003,-3.846,25.956,-5.543
17:06:04:582,30.424,-0.015,-0.002,0.007,-3.842,25.952,-5.532
17:06:04:609,30.451,-0.014,-0.001,0.006,-3.842,25.951,-5.518
17:06:04:635,30.477,-0.010,-0.001,0.008,-3.837,25.955,-5.508
17:06:04:661,30.503,-0.012,-0.001,0.003,-3.827,25.943,-5.498
17:06:04:714,30.556,-0.012,-0.001,0.007,-3.814,25.936,-5.505
17:06:04:77,30.611,-0.008,-0.003,0.004,-3.790,25.932,-5.523
17:06:04:771,30.612,-0.010,0.000,0.002,-3.780,25.921,-5.527
17:06:04:795,30.636,-0.010,0.000,0.000,-3.773,25.913,-5.520
17:06:04:796,30.637,-0.012,-0.001,0.008,-3.773,25.913,-5.513
17:06:04:819,30.661,-0.019,-0.001,0.002,-3.776,25.909,-5.502
17:06:04:845,30.687,-0.010,0.000,0.006,-3.779,25.913,-5.492
17:06:04:902,30.744,-0.014,-0.002,0.009,-3.775,25.909,-5.488
17:06:04:903,30.745,-0.009,-0.002,0.004,-3.775,25.908,-5.474
17:06:04:982,30.823,-0.010,-0.001,0.005,-3.781,25.908,-5.467
17:06:04:982,30.824,-0.010,-0.001,0.007,-3.774,25.908,-5.460
17:06:04:983,30.825,-0.012,0.001,0.008,-3.781,25.908,-5.453
17:06:05:002,30.844,-0.016,-0.002,0.002,-3.773,25.907,-5.446
17:06:05:028,30.870,-0.011,0.000,0.007,-3.780,25.908,-5.439
17:06:05:054,30.896,-0.013,-0.001,0.002,-3.773,25.907,-5.432
17:06:05:112,30.954,-0.011,-0.001,0.006,-3.779,25.907,-5.425
17:06:05:112,30.954,-0.016,-0.001,-0.003,-3.775,25.910,-5.415
17:06:05:163,31.005,-0.009,-0.002,0.006,-3.778,25.907,-5.411
17:06:05:163,31.005,-0.010,0.000,0.000,-3.781,25.903,-5.400
17:06:05:185,31.027,-0.008,0.001,0.009,-3.778,25.906,-5.397
17:06:05:213,31.055,-0.012,0.000,0.003,-3.778,25.906,-5.397
17:06:05:239,31.080,-0.011,-0.002,0.010,-3.776,26.390,-5.405
17:06:05:294,31.136,-0.012,0.001,0.001,-3.779,26.394,-5.415
17:06:05:295,31.137,-0.017,0.000,0.006,-3.780,26.483,-5.443
17:06:05:317,31.159,-0.008,-0.002,0.004,-3.777,26.480,-5.460
17:06:05:372,31.214,-0.009,-0.002,0.010,-3.777,26.810,-5.491
17:06:05:373,31.215,-0.012,-0.003,0.002,-3.781,26.808,-5.516
17:06:05:396,31.238,-0.006,-0.001,0.011,-3.780,26.790,-5.533
17:06:05:422,31.264,-0.011,-0.001,0.005,-3.780,26.791,-5.547
17:06:05:475,31.317,-0.010,0.001,0.005,-3.780,26.945,-5.552
17:06:05:562,31.404,-0.012,-0.001,0.007,-3.780,26.945,-5.552
17:06:05:562,31.404,-0.013,0.000,0.007,-3.777,26.928,-5.555
17:06:05:563,31.405,-0.014,-0.001,0.003,-3.777,26.928,-5.555
17:06:05:579,31.421,-0.012,0.000,0.007,-3.779,27.166,-5.548
17:06:05:606,31.448,-0.006,-0.001,0.008,-3.777,27.348,-5.554
17:06:05:632,31.474,-0.010,-0.001,0.009,-3.778,27.349,-5.568
17:06:05:688,31.530,-0.010,-0.003,0.005,-3.779,27.387,-5.566
17:06:05:688,31.530,-0.008,-0.001,0.005,-3.779,27.387,-5.566
17:06:05:711,31.553,-0.011,-0.003,0.007,-3.778,27.415,-5.566
17:06:05:737,31.579,-0.010,-0.002,0.009,-3.778,27.415,-5.566
17:06:05:763,31.605,-0.014,-0.001,0.001,-3.777,27.503,-5.566
17:06:05:789,31.631,-0.009,-0.002,0.010,-3.777,27.503,-5.566
17:06:05:873,31.715,-0.016,0.000,0.004,-3.780,27.528,-5.570
17:06:05:873,31.715,-0.010,0.001,0.005,-3.780,27.528,-5.570
17:06:05:898,31.740,-0.015,-0.001,-0.002,-3.779,27.608,-5.562
17:06:05:898,31.740,-0.008,-0.001,0.006,-3.779,27.608,-5.562
17:06:05:924,31.766,-0.014,-0.001,0.002,-3.780,27.874,-5.563
17:06:05:924,31.766,-0.008,-0.002,0.010,-3.780,27.874,-5.563
17:06:05:978,31.820,-0.010,-0.002,0.005,-3.780,27.874,-5.563
17:06:05:978,31.820,-0.007,0.001,0.006,-3.779,27.888,-5.564
17:06:06:029,31.870,-0.009,-0.001,0.002,-3.779,27.888,-5.564
17:06:06:03,31.871,-0.007,-0.001,0.008,-3.778,27.902,-5.564
17:06:06:112,31.954,-0.013,-0.001,0.003,-3.778,27.902,-5.564
17:06:06:112,31.954,-0.007,0.000,0.012,-3.775,28.032,-5.565
17:06:06:112,31.954,-0.012,0.000,0.005,-3.775,28.032,-5.565
17:06:06:133,31.975,-0.007,-0.001,0.010,-3.782,28.039,-5.565
17:06:06:159,32.000,-0.009,-0.002,0.000,-3.782,28.039,-5.565
17:06:06:184,32.026,-0.004,0.000,0.009,-3.776,28.092,-5.563
17:06:06:212,32.054,-0.008,-0.001,0.006,-3.776,28.092,-5.563
17:06:06:238,32.080,-0.010,-0.001,0.006,-3.778,28.130,-5.568
17:06:06:264,32.106,-0.010,-0.001,0.005,-3.778,28.130,-5.568
17:06:06:346,32.188,-0.008,-0.001,0.004,-3.779,28.176,-5.565
17:06:06:347,32.189,-0.005,0.001,0.010,-3.779,28.176,-5.565
17:06:06:348,32.190,-0.010,0.001,0.010,-3.776,28.158,-5.569
17:06:06:367,32.209,-0.009,-0.001,0.009,-3.776,28.158,-5.569
17:06:06:393,32.235,-0.006,-0.001,0.008,-3.776,28.372,-5.565
17:06:06:419,32.261,-0.007,-0.001,0.008,-3.776,28.372,-5.565
17:06:06:504,32.346,-0.004,-0.002,0.007,-3.776,28.372,-5.565
17:06:06:504,32.346,-0.009,0.002,0.005,-3.776,28.372,-5.565
17:06:06:505,32.347,-0.009,-0.001,0.004,-3.779,28.463,-5.568
17:06:06:524,32.366,-0.004,-0.002,0.009,-3.779,28.463,-5.568
17:06:06:551,32.393,-0.009,-0.001,0.007,-3.775,28.460,-5.564
17:06:06:577,32.419,-0.006,0.001,0.011,-3.775,28.460,-5.564
17:06:06:603,32.445,-0.009,-0.001,0.004,-3.776,28.446,-5.564
17:06:06:657,32.499,-0.005,-0.002,0.005,-3.776,28.446,-5.564
17:06:06:718,32.559,-0.008,0.000,0.000,-3.779,28.449,-5.567
17:06:06:718,32.559,-0.002,-0.005,0.009,-3.779,28.449,-5.567
17:06:06:718,32.559,-0.010,0.001,0.003,-3.779,28.449,-5.560
17:06:06:735,32.576,-0.007,-0.002,0.010,-3.779,28.442,-5.553
17:06:06:762,32.604,-0.010,-0.001,0.004,-3.779,28.442,-5.553
17:06:06:789,32.631,-0.006,0.000,0.010,-3.779,28.442,-5.553
17:06:06:842,32.684,-0.005,-0.001,0.008,-3.779,28.442,-5.553
17:06:06:843,32.685,-0.007,-0.001,0.010,-3.777,28.424,-5.556
17:06:06:866,32.708,-0.009,-0.001,0.005,-3.777,28.424,-5.556
17:06:06:892,32.734,-0.007,-0.002,0.013,-3.778,28.456,-5.553
17:06:06:919,32.760,-0.008,-0.002,0.008,-3.778,28.456,-5.553
17:06:06:974,32.816,-0.008,-0.002,0.014,-3.780,28.508,-5.552
17:06:06:974,32.816,-0.005,-0.005,0.006,-3.780,28.508,-5.552
17:06:06:997,32.839,0.008,-0.001,0.000,-3.779,28.515,-5.545
17:06:07:052,32.894,-0.007,0.007,0.010,-3.779,28.515,-5.531
17:06:07:053,32.895,-0.015,-0.002,0.014,-3.775,28.511,-5.513
17:06:07:078,32.920,-0.011,-0.001,0.005,-3.775,28.511,-5.513
17:06:07:104,32.945,-0.010,-0.002,0.011,-3.777,28.535,-5.511
17:06:07:129,32.971,0.005,-0.006,0.010,-3.777,28.535,-5.511
17:06:07:155,32.996,-0.007,-0.002,0.017,-3.787,28.538,-5.486
17:06:07:181,33.023,-0.013,0.000,0.003,-3.789,28.541,-5.454
17:06:07:236,33.078,-0.015,0.000,0.008,-3.795,28.540,-5.433
17:06:07:237,33.079,-0.010,0.000,0.010,-3.791,28.536,-5.401
17:06:07:318,33.160,-0.018,0.000,0.002,-3.794,28.539,-5.391
17:06:07:319,33.160,-0.010,-0.003,0.011,-3.797,28.542,-5.374
17:06:07:32,33.161,-0.003,-0.003,-0.001,-3.796,28.541,-5.346
17:06:07:339,33.181,-0.004,0.000,0.009,-3.809,28.555,-5.332
17:06:07:367,33.209,-0.015,0.000,0.002,-3.839,28.573,-5.286
17:06:07:477,33.318,-0.016,0.006,0.012,-3.851,28.608,-5.266
17:06:07:477,33.319,-0.018,0.000,0.004,-3.846,28.610,-5.242
17:06:07:478,33.320,-0.004,-0.001,0.010,-3.846,28.610,-5.242
17:06:07:499,33.340,-0.007,-0.001,-0.001,-3.846,28.611,-5.256
17:06:07:5,33.341,-0.004,0.000,0.015,-3.843,28.614,-5.252
17:06:07:523,33.364,-0.006,-0.001,0.004,-3.839,28.610,-5.249
17:06:07:548,33.390,-0.003,-0.002,0.007,-3.836,28.606,-5.238
17:06:07:575,33.417,-0.006,-0.003,0.004,-3.839,28.609,-5.221
17:06:07:63,33.472,-0.009,0.000,0.013,-3.831,28.608,-5.200
17:06:07:631,33.473,-0.014,0.001,0.004,-3.838,28.608,-5.193
17:06:07:653,33.495,-0.008,0.001,0.011,-3.831,28.608,-5.186
17:06:07:679,33.521,-0.012,-0.003,0.003,-3.827,28.611,-5.175
17:06:07:706,33.547,-0.005,0.001,0.008,-3.830,28.607,-5.172
17:06:07:733,33.574,-0.005,-0.002,0.007,-3.827,28.604,-5.168
17:06:07:76,33.602,-0.004,-0.002,0.013,-3.819,28.603,-5.161
17:06:07:843,33.685,-0.009,-0.001,0.005,-3.819,28.603,-5.161
17:06:07:843,33.685,-0.010,-0.002,0.007,-3.815,28.606,-5.151
17:06:07:844,33.686,-0.005,-0.002,0.014,-3.819,28.603,-5.147
17:06:07:863,33.705,-0.004,-0.001,0.010,-3.812,28.602,-5.140
17:06:07:89,33.731,-0.006,-0.001,0.009,-3.811,28.609,-5.134
17:06:07:916,33.758,-0.005,-0.001,0.010,-3.808,28.605,-5.130
17:06:07:942,33.784,-0.006,-0.001,0.010,-3.804,28.601,-5.120
17:06:07:968,33.810,-0.011,-0.004,0.001,-3.804,28.601,-5.120
17:06:08:024,33.866,-0.004,-0.003,0.009,-3.800,28.604,-5.109
17:06:08:025,33.867,-0.006,-0.004,0.004,-3.800,28.604,-5.109
17:06:08:05,33.891,-0.005,-0.002,0.009,-3.793,28.603,-5.102
17:06:08:075,33.917,-0.011,0.000,0.006,-3.797,28.600,-5.099
17:06:08:1,33.942,-0.007,0.002,0.009,-3.793,28.603,-5.088
17:06:08:126,33.968,-0.010,-0.003,0.006,-3.789,28.599,-5.085
17:06:08:152,33.994,-0.003,-0.001,0.012,-3.786,28.602,-5.081
17:06:08:178,34.020,-0.009,0.000,0.003,-3.782,28.599,-5.078
17:06:08:204,34.046,-0.003,-0.002,0.011,-3.782,28.598,-5.071
17:06:08:233,34.074,-0.007,0.000,0.004,-3.785,28.602,-5.067
17:06:08:286,34.128,-0.003,-0.001,0.012,-3.782,28.598,-5.064
17:06:08:287,34.128,-0.004,-0.001,0.005,-3.778,28.601,-5.061
17:06:08:312,34.154,-0.005,-0.001,0.010,-3.774,28.598,-5.057
17:06:08:313,34.155,-0.007,-0.001,0.005,-3.770,28.601,-5.046
17:06:08:476,34.318,-0.007,-0.002,0.009,-3.774,28.597,-5.043
17:06:08:477,34.319,-0.009,-0.001,0.005,-3.767,28.597,-5.036
17:06:08:478,34.319,-0.009,-0.001,0.009,-3.767,28.597,-5.036
17:06:08:499,34.341,-0.009,-0.002,0.011,-3.767,28.597,-5.036
17:06:08:5,34.342,-0.006,0.000,0.004,-3.767,28.597,-5.036
17:06:08:5,34.342,-0.008,0.000,0.010,-3.767,28.597,-5.036
17:06:08:52,34.362,-0.007,0.000,0.007,-3.767,28.597,-5.036
17:06:08:546,34.388,-0.007,0.000,0.006,-3.767,28.597,-5.050
17:06:08:601,34.443,-0.008,-0.003,0.005,-3.767,28.597,-5.050
17:06:08:658,34.500,-0.006,0.001,0.009,-3.768,28.576,-5.042
17:06:08:658,34.500,-0.006,-0.001,0.008,-3.773,28.552,-5.045
17:06:08:659,34.500,-0.003,-0.001,0.011,-3.773,28.538,-5.045
17:06:08:679,34.521,-0.008,-0.001,0.006,-3.778,28.513,-5.040
17:06:08:704,34.546,-0.012,0.000,0.003,-3.778,28.499,-5.040
17:06:08:732,34.574,-0.006,-0.001,0.006,-3.779,28.485,-5.039
17:06:08:843,34.685,-0.010,0.000,0.003,-3.779,28.485,-5.039
17:06:08:844,34.686,-0.009,-0.003,0.008,-3.779,28.485,-5.039
17:06:08:845,34.687,-0.009,-0.001,0.005,-3.779,28.485,-5.039
17:06:08:845,34.687,-0.006,-0.001,0.006,-3.779,28.485,-5.039
17:06:08:862,34.704,-0.012,-0.001,0.005,-3.779,28.485,-5.039
17:06:08:888,34.730,-0.008,-0.001,0.013,-3.779,28.485,-5.039
17:06:08:914,34.756,-0.008,-0.001,0.003,-3.779,28.485,-5.039
17:06:08:94,34.781,-0.006,0.000,0.009,-3.779,28.485,-5.039
17:06:08:995,34.837,-0.009,-0.001,0.002,-3.779,28.485,-5.039
17:06:08:996,34.837,0.001,-0.001,0.008,-3.779,28.485,-5.039
17:06:09:02,34.862,-0.007,0.002,0.000,-3.776,28.489,-5.050
17:06:09:046,34.888,-0.007,-0.001,0.005,-3.776,28.489,-5.050
17:06:09:071,34.913,-0.009,0.000,0.013,-3.776,28.489,-5.050
17:06:09:097,34.939,0.003,-0.001,0.003,-3.776,28.489,-5.050
17:06:09:123,34.965,-0.005,-0.001,0.010,-3.776,28.489,-5.050
17:06:09:178,35.020,-0.006,-0.001,0.004,-3.776,28.489,-5.050
17:06:09:265,35.107,-0.011,0.002,0.003,-3.796,28.504,-5.043
17:06:09:265,35.107,-0.007,-0.001,0.010,-3.802,28.518,-5.050
17:06:09:266,35.108,-0.011,0.000,0.007,-3.806,28.522,-5.047
17:06:09:266,35.108,-0.006,-0.002,0.009,-3.806,28.522,-5.047
17:06:09:282,35.124,-0.010,-0.002,0.006,-3.806,28.522,-5.047
17:06:09:307,35.149,-0.009,-0.001,0.005,-3.806,28.522,-5.047
17:06:09:448,35.289,-0.006,-0.001,0.009,-3.806,28.522,-5.047
17:06:09:448,35.290,-0.008,0.002,0.005,-3.806,28.522,-5.047
17:06:09:449,35.291,-0.007,-0.003,0.008,-3.806,28.522,-5.047
17:06:09:45,35.292,-0.005,-0.002,0.007,-3.806,28.522,-5.047
17:06:09:467,35.309,-0.009,-0.002,0.009,-3.806,28.522,-5.047
17:06:09:468,35.310,-0.010,0.000,0.002,-3.806,28.522,-5.047
17:06:09:491,35.333,-0.005,-0.004,0.007,-3.806,28.522,-5.047
17:06:09:517,35.359,-0.010,-0.002,0.002,-3.806,28.522,-5.047
17:06:09:572,35.414,-0.007,-0.001,0.006,-3.806,28.522,-5.047
17:06:09:573,35.415,-0.009,0.000,0.000,-3.806,28.522,-5.047
17:06:09:625,35.467,-0.006,-0.003,0.006,-3.806,28.522,-5.047
17:06:09:626,35.468,-0.009,-0.001,-0.006,-3.809,28.525,-5.050
17:06:09:648,35.490,-0.002,-0.003,0.005,-3.809,28.525,-5.050
17:06:09:674,35.516,-0.009,0.001,-0.004,-3.823,28.526,-5.050
17:06:09:701,35.543,-0.011,-0.001,0.006,-3.837,28.527,-5.050
17:06:09:783,35.625,-0.020,0.002,0.002,-3.837,28.527,-5.050
17:06:09:784,35.626,-0.015,-0.001,0.009,-3.851,28.527,-5.050
17:06:09:808,35.650,-0.020,-0.001,0.012,-3.847,28.544,-5.047
17:06:09:809,35.651,-0.019,0.005,0.003,-3.842,28.576,-5.065
17:06:09:832,35.674,-0.008,-0.001,0.008,-3.847,28.588,-5.104
17:06:09:859,35.701,0.002,0.000,0.005,-3.843,28.599,-5.122
17:06:09:885,35.727,-0.011,0.000,0.005,-3.850,28.600,-5.129
17:06:09:911,35.752,-0.010,-0.001,0.007,-3.858,28.593,-5.129
17:06:09:966,35.808,-0.014,0.001,0.004,-3.871,28.534,-5.123
17:06:09:967,35.809,-0.011,0.003,0.011,-3.877,28.489,-5.146
17:06:09:992,35.834,-0.010,-0.003,0.003,-3.886,28.404,-5.195
17:06:10:017,35.859,-0.002,-0.001,0.009,-3.878,28.329,-5.263
17:06:10:042,35.884,-0.012,0.000,0.008,-3.885,28.278,-5.307
17:06:10:07,35.911,0.001,0.000,-0.004,-3.873,28.184,-5.357
17:06:10:095,35.937,-0.002,0.000,0.002,-3.874,28.112,-5.386
17:06:10:15,35.992,-0.003,0.001,-0.003,-3.879,28.043,-5.419
17:06:10:151,35.993,-0.004,-0.002,0.005,-3.885,28.005,-5.435
17:06:10:232,36.074,-0.008,-0.001,0.003,-3.889,28.002,-5.438
17:06:10:232,36.074,-0.002,-0.003,0.009,-3.886,27.999,-5.456
17:06:10:233,36.075,-0.005,-0.003,-0.001,-3.890,28.003,-5.480
17:06:10:252,36.094,0.000,0.000,0.001,-3.886,28.043,-5.513
17:06:10:278,36.120,-0.009,0.000,0.000,-3.881,28.081,-5.525
17:06:10:335,36.177,0.001,-0.001,0.001,-3.878,28.145,-5.534
17:06:10:335,36.177,-0.021,-0.003,0.012,-3.867,28.221,-5.537
17:06:10:389,36.231,0.008,-0.002,-0.008,-3.876,28.267,-5.542
17:06:10:389,36.231,-0.012,0.000,-0.004,-3.893,28.338,-5.523
17:06:10:39,36.232,-0.010,-0.001,0.006,-3.904,28.380,-5.510
17:06:10:439,36.281,-0.003,-0.002,-0.001,-3.905,28.418,-5.487
17:06:10:44,36.281,-0.006,0.000,0.003,-3.900,28.449,-5.477
17:06:10:491,36.333,-0.007,0.001,-0.010,-3.891,28.490,-5.472
17:06:10:494,36.336,-0.008,-0.001,0.003,-3.892,28.543,-5.477
17:06:10:541,36.383,-0.011,0.000,-0.001,-3.883,28.563,-5.464
17:06:10:57,36.412,-0.007,-0.002,0.007,-3.890,28.563,-5.456
17:06:10:57,36.412,-0.010,-0.001,0.000,-3.890,28.563,-5.456
17:06:10:626,36.467,-0.008,-0.001,0.006,-3.890,28.563,-5.456
17:06:10:626,36.468,-0.007,-0.002,0.001,-3.876,28.563,-5.457
17:06:10:647,36.488,-0.005,-0.003,0.007,-3.862,28.562,-5.457
17:06:10:673,36.515,-0.005,0.001,0.001,-3.848,28.561,-5.457
17:06:10:727,36.569,-0.004,-0.001,0.002,-3.844,28.571,-5.454
17:06:10:728,36.570,-0.006,0.001,0.002,-3.843,28.593,-5.462
17:06:10:751,36.593,-0.006,-0.002,0.006,-3.838,28.624,-5.460
17:06:10:777,36.619,-0.007,0.000,0.004,-3.837,28.652,-5.461
17:06:10:803,36.645,-0.005,-0.002,0.000,-3.839,28.683,-5.458
17:06:10:83,36.672,-0.011,-0.001,0.005,-3.852,28.698,-5.444
17:06:10:858,36.700,-0.009,0.001,-0.001,-3.860,28.729,-5.420
17:06:10:883,36.725,-0.008,-0.001,0.000,-3.858,28.749,-5.400
17:06:10:94,36.782,-0.010,0.001,0.001,-3.857,28.769,-5.380
17:06:10:94,36.782,-0.003,-0.003,0.004,-3.852,28.772,-5.355
17:06:10:962,36.804,-0.008,0.001,-0.004,-3.855,28.775,-5.324
17:06:10:987,36.829,-0.010,-0.001,0.004,-3.853,28.787,-5.282
17:06:11:014,36.856,-0.007,0.000,-0.001,-3.852,28.786,-5.254
17:06:11:04,36.882,-0.004,0.000,0.002,-3.851,28.792,-5.212
17:06:11:067,36.908,-0.011,0.000,-0.006,-3.852,28.815,-5.168
17:06:11:123,36.965,-0.008,0.001,0.004,-3.851,28.821,-5.140
17:06:11:123,36.965,-0.014,0.000,-0.007,-3.847,28.809,-5.094
17:06:11:203,37.045,-0.016,-0.002,0.009,-3.851,28.777,-5.068
17:06:11:203,37.045,-0.015,-0.003,0.002,-3.854,28.707,-5.066
17:06:11:204,37.046,-0.012,-0.001,0.004,-3.850,28.643,-5.071
17:06:11:223,37.065,-0.006,-0.002,-0.007,-3.835,28.532,-5.103
17:06:11:252,37.093,-0.010,-0.001,0.004,-3.810,28.424,-5.152
17:06:11:363,37.205,-0.008,0.001,-0.002,-3.789,28.364,-5.189
17:06:11:364,37.206,-0.004,-0.001,0.001,-3.763,28.277,-5.247
17:06:11:365,37.207,0.000,-0.003,-0.007,-3.742,28.225,-5.277
17:06:11:365,37.207,-0.001,0.001,-0.003,-3.718,28.169,-5.318
17:06:11:382,37.224,-0.004,-0.001,-0.004,-3.710,28.145,-5.349
17:06:11:407,37.249,-0.003,-0.003,0.004,-3.707,28.142,-5.367
17:06:11:434,37.276,-0.003,-0.001,-0.004,-3.703,28.152,-5.363
17:06:11:46,37.301,-0.005,0.000,-0.001,-3.703,28.152,-5.363
17:06:11:516,37.358,-0.008,-0.002,-0.005,-3.702,28.166,-5.364
17:06:11:516,37.358,-0.006,-0.003,0.004,-3.701,28.180,-5.364
17:06:11:567,37.409,-0.006,0.000,-0.006,-3.701,28.180,-5.364
17:06:11:568,37.410,-0.007,-0.001,0.001,-3.701,28.194,-5.365
17:06:11:591,37.433,-0.006,0.000,-0.001,-3.701,28.194,-5.365
17:06:11:618,37.460,-0.007,0.000,-0.001,-3.701,28.194,-5.365
17:06:11:644,37.486,0.000,-0.001,-0.001,-3.701,28.194,-5.365
17:06:11:67,37.511,-0.005,-0.002,0.001,-3.697,28.204,-5.362
17:06:11:696,37.538,-0.003,-0.002,0.000,-3.702,28.232,-5.341
17:06:11:722,37.564,-0.002,-0.003,0.001,-3.707,28.260,-5.321
17:06:11:748,37.590,-0.001,0.000,0.000,-3.735,28.320,-5.291
17:06:11:774,37.616,-0.009,0.001,-0.006,-3.750,28.358,-5.267
17:06:11:801,37.643,-0.005,0.000,-0.004,-3.787,28.421,-5.219
17:06:11:827,37.669,-0.010,0.000,-0.007,-3.822,28.467,-5.167
17:06:11:853,37.695,-0.004,-0.003,-0.002,-3.845,28.491,-5.122
17:06:11:909,37.750,-0.008,0.003,-0.009,-3.872,28.528,-5.056
17:06:11:91,37.751,-0.003,0.000,-0.005,-3.898,28.556,-5.015
17:06:11:934,37.776,-0.011,0.000,-0.009,-3.932,28.601,-4.935
17:06:11:959,37.801,-0.004,0.001,0.000,-3.944,28.634,-4.887
17:06:11:985,37.827,-0.006,0.000,-0.007,-3.963,28.699,-4.815
17:06:12:011,37.853,-0.001,-0.001,-0.002,-3.968,28.792,-4.744
17:06:12:037,37.879,-0.014,0.000,-0.008,-3.960,28.856,-4.694
17:06:12:093,37.934,-0.009,0.000,-0.001,-3.955,28.938,-4.627
17:06:12:093,37.935,-0.014,-0.003,0.001,-3.949,28.989,-4.583
17:06:12:174,38.016,-0.011,-0.001,0.001,-3.928,29.032,-4.546
17:06:12:175,38.017,-0.010,0.003,0.000,-3.896,29.027,-4.529
17:06:12:175,38.017,-0.007,0.000,0.004,-3.873,28.994,-4.525
17:06:12:195,38.037,-0.005,-0.002,0.000,-3.850,28.955,-4.521
17:06:12:221,38.063,0.000,-0.002,-0.007,-3.837,28.926,-4.520
17:06:12:247,38.089,-0.003,-0.002,-0.005,-3.830,28.926,-4.513
17:06:12:273,38.115,-0.002,-0.002,-0.002,-3.829,28.939,-4.485
17:06:12:329,38.171,-0.005,-0.001,-0.008,-3.827,28.959,-4.465
17:06:12:329,38.171,-0.005,0.000,-0.002,-3.800,29.003,-4.435
17:06:12:353,38.195,-0.006,-0.002,0.001,-3.788,29.033,-4.419
17:06:12:379,38.221,-0.008,-0.002,0.004,-3.759,29.060,-4.407
17:06:12:404,38.246,-0.008,0.000,0.000,-3.737,29.066,-4.407
17:06:12:431,38.273,-0.006,0.000,-0.005,-3.709,29.065,-4.408
17:06:12:486,38.328,-0.005,-0.001,-0.001,-3.678,29.046,-4.404
17:06:12:487,38.329,-0.004,0.000,0.002,-3.662,29.021,-4.407
17:06:12:541,38.383,-0.001,-0.002,0.003,-3.650,28.972,-4.406
17:06:12:541,38.383,-0.009,0.000,-0.003,-3.647,28.954,-4.402
17:06:12:562,38.404,0.000,0.000,-0.001,-3.655,28.919,-4.400
17:06:12:591,38.433,-0.005,-0.003,-0.008,-3.656,28.905,-4.400
17:06:12:668,38.510,-0.007,0.000,-0.007,-3.657,28.877,-4.399
17:06:12:699,38.541,-0.003,0.000,0.001,-3.661,28.860,-4.395
17:06:12:7,38.542,-0.007,0.001,-0.007,-3.662,28.838,-4.387
17:06:12:701,38.543,-0.006,-0.002,0.002,-3.662,28.810,-4.358
17:06:12:752,38.594,-0.003,-0.001,-0.005,-3.662,28.802,-4.337
17:06:12:752,38.594,-0.004,-0.002,-0.003,-3.661,28.801,-4.309
17:06:12:802,38.644,-0.004,0.000,-0.007,-3.664,28.811,-4.299
17:06:12:802,38.644,-0.002,-0.002,-0.002,-3.655,28.845,-4.272
17:06:12:825,38.666,-0.004,-0.001,-0.007,-3.653,28.873,-4.252
17:06:12:88,38.722,-0.007,0.001,0.000,-3.630,28.913,-4.218
17:06:12:881,38.722,-0.004,0.001,-0.008,-3.603,28.949,-4.181
17:06:12:904,38.746,-0.004,-0.001,0.000,-3.598,28.973,-4.158
17:06:12:93,38.772,0.007,-0.003,-0.005,-3.574,29.020,-4.125
17:06:12:956,38.798,-0.010,0.000,-0.004,-3.573,29.047,-4.098
17:06:12:982,38.824,-0.004,-0.004,-0.006,-3.559,29.105,-4.054
17:06:13:011,38.852,-0.014,0.000,-0.003,-3.560,29.149,-4.024
17:06:13:036,38.877,0.003,0.003,-0.008,-3.532,29.221,-3.981
17:06:13:061,38.903,-0.006,-0.001,-0.006,-3.504,29.307,-3.966
17:06:13:087,38.929,-0.005,-0.003,0.001,-3.474,29.362,-3.968
17:06:13:142,38.984,-0.013,-0.004,0.006,-3.414,29.406,-4.002
17:06:13:144,38.986,-0.011,0.003,-0.001,-3.372,29.427,-4.052
17:06:13:166,39.008,-0.013,0.000,-0.001,-3.287,29.410,-4.154
17:06:13:192,39.034,-0.001,0.000,-0.003,-3.197,29.350,-4.277
17:06:13:218,39.060,-0.005,0.000,-0.005,-3.134,29.290,-4.357
17:06:13:274,39.116,0.000,-0.004,-0.001,-3.043,29.171,-4.460
17:06:13:274,39.116,-0.003,0.000,-0.006,-2.991,29.086,-4.522
17:06:13:297,39.139,0.001,0.000,0.000,-2.921,28.952,-4.603
17:06:13:323,39.165,0.000,-0.003,-0.011,-2.862,28.822,-4.675
17:06:13:35,39.192,-0.011,-0.001,-0.001,-2.831,28.745,-4.716
17:06:13:376,39.218,-0.010,-0.002,-0.008,-2.774,28.625,-4.784
17:06:13:404,39.246,-0.006,-0.004,-0.007,-2.730,28.547,-4.832
17:06:13:457,39.299,0.007,-0.002,-0.010,-2.677,28.438,-4.897
17:06:13:458,39.300,0.002,-0.002,-0.005,-2.645,28.382,-4.946
17:06:13:481,39.323,-0.003,-0.001,-0.010,-2.614,28.318,-4.987
17:06:13:507,39.349,-0.002,0.003,-0.002,-2.589,28.269,-5.015
17:06:13:533,39.375,-0.006,0.000,-0.011,-2.580,28.230,-5.025
17:06:13:56,39.402,-0.005,0.000,0.001,-2.566,28.177,-5.048
17:06:13:588,39.430,0.000,-0.002,-0.011,-2.564,28.146,-5.051
17:06:13:641,39.483,0.003,0.000,-0.001,-2.568,28.143,-5.055
17:06:13:642,39.484,-0.005,-0.001,-0.012,-2.568,28.143,-5.055
17:06:13:665,39.507,0.001,-0.004,-0.001,-2.574,28.143,-5.047
17:06:13:717,39.559,0.000,0.001,0.000,-2.620,28.179,-4.991
17:06:13:744,39.586,-0.008,-0.002,-0.006,-2.656,28.225,-4.967
17:06:13:769,39.611,-0.001,-0.004,-0.007,-2.675,28.253,-4.946
17:06:13:796,39.638,-0.005,0.002,-0.011,-2.704,28.300,-4.922
17:06:13:852,39.693,0.002,0.000,-0.003,-2.737,28.335,-4.894
17:06:13:852,39.694,-0.004,-0.001,-0.009,-2.757,28.364,-4.880
17:06:13:874,39.716,-0.001,-0.001,-0.005,-2.785,28.417,-4.856
17:06:13:901,39.743,0.007,-0.002,-0.005,-2.804,28.445,-4.835
17:06:13:927,39.769,-0.006,-0.001,-0.003,-2.829,28.502,-4.808
17:06:13:953,39.795,-0.002,0.000,-0.004,-2.864,28.569,-4.777
17:06:13:979,39.821,0.001,-0.002,-0.007,-2.883,28.612,-4.771
17:06:14:035,39.877,-0.002,-0.002,-0.007,-2.915,28.675,-4.744
17:06:14:036,39.877,-0.006,0.000,-0.011,-2.934,28.711,-4.730
17:06:14:116,39.958,-0.001,-0.001,-0.002,-2.963,28.771,-4.714
17:06:14:117,39.959,0.000,-0.001,-0.010,-2.982,28.828,-4.722
17:06:14:118,39.960,-0.001,-0.003,-0.006,-3.002,28.864,-4.722
17:06:14:137,39.979,-0.003,0.001,-0.008,-3.021,28.899,-4.709
17:06:14:165,40.007,-0.012,0.000,-0.005,-3.034,28.914,-4.709
17:06:14:192,40.033,-0.007,0.000,-0.013,-3.048,28.915,-4.709
17:06:14:217,40.059,-0.002,0.000,-0.003,-3.048,28.915,-4.709
17:06:14:273,40.115,-0.007,-0.002,-0.012,-3.048,28.915,-4.709
17:06:14:273,40.115,-0.004,-0.005,-0.004,-3.048,28.915,-4.709
17:06:14:294,40.136,-0.003,0.000,-0.007,-3.048,28.915,-4.709
17:06:14:321,40.163,0.002,-0.002,-0.005,-3.048,28.915,-4.709
17:06:14:347,40.189,0.000,-0.002,-0.009,-3.062,28.922,-4.702
17:06:14:374,40.215,-0.008,-0.003,-0.005,-3.088,28.958,-4.695
17:06:14:429,40.271,-0.003,-0.002,-0.011,-3.108,28.987,-4.689
17:06:14:43,40.272,-0.005,0.000,-0.003,-3.128,29.008,-4.689
17:06:14:481,40.323,-0.005,0.000,-0.007,-3.142,29.009,-4.689
17:06:14:482,40.324,-0.002,0.000,-0.003,-3.156,29.010,-4.688
17:06:14:504,40.346,-0.003,0.000,-0.012,-3.156,29.010,-4.688
17:06:14:532,40.374,-0.004,-0.001,-0.012,-3.149,29.016,-4.689
17:06:14:558,40.399,-0.005,-0.001,-0.016,-3.149,29.016,-4.689
17:06:14:614,40.456,0.004,0.000,-0.010,-3.148,29.030,-4.689
17:06:14:614,40.456,-0.001,0.001,-0.010,-3.155,29.051,-4.690
17:06:14:636,40.478,0.001,-0.001,-0.014,-3.147,29.058,-4.690
17:06:14:662,40.504,-0.004,-0.001,-0.009,-3.147,29.058,-4.690
17:06:14:688,40.530,-0.002,-0.001,-0.007,-3.147,29.058,-4.690
17:06:14:714,40.556,-0.005,-0.001,-0.009,-3.147,29.058,-4.690
17:06:14:741,40.583,-0.007,0.001,-0.017,-3.147,29.058,-4.690
17:06:14:767,40.609,-0.003,0.000,-0.007,-3.147,29.058,-4.690
17:06:14:823,40.665,-0.006,0.002,-0.013,-3.148,29.051,-4.697
17:06:14:823,40.665,-0.003,0.000,-0.005,-3.148,29.052,-4.725
17:06:14:848,40.690,-0.003,-0.003,-0.010,-3.152,29.057,-4.756
17:06:14:872,40.714,-0.001,-0.002,-0.009,-3.146,29.057,-4.777
17:06:14:9,40.742,-0.007,-0.001,-0.015,-3.150,29.061,-4.802
17:06:14:925,40.767,-0.001,-0.001,-0.008,-3.149,29.076,-4.816
17:06:14:955,40.797,-0.004,0.001,-0.021,-3.145,29.093,-4.813
17:06:14:955,40.797,0.002,0.004,-0.009,-3.144,29.121,-4.814
17:06:15:006,40.848,-0.007,-0.002,-0.019,-3.144,29.121,-4.814
17:06:15:007,40.849,-0.006,-0.001,-0.008,-3.144,29.128,-4.821
17:06:15:088,40.930,0.002,-0.002,-0.014,-3.141,29.132,-4.839
17:06:15:088,40.930,-0.001,-0.003,-0.008,-3.140,29.160,-4.861
17:06:15:089,40.931,0.000,0.002,-0.012,-3.139,29.189,-4.876
17:06:15:109,40.951,0.002,-0.003,-0.011,-3.134,29.234,-4.880
17:06:15:135,40.977,-0.005,-0.002,-0.004,-3.127,29.308,-4.886
17:06:15:161,41.003,-0.003,0.000,-0.008,-3.121,29.360,-4.891
17:06:15:245,41.087,-0.016,0.003,-0.015,-3.116,29.412,-4.889
17:06:15:246,41.088,0.002,-0.002,-0.015,-3.119,29.430,-4.893
17:06:15:247,41.089,-0.004,0.001,-0.011,-3.114,29.462,-4.897
17:06:15:266,41.108,-0.002,0.002,-0.009,-3.112,29.489,-4.898
17:06:15:293,41.134,-0.005,0.000,-0.013,-3.112,29.489,-4.898
17:06:15:319,41.161,-0.001,-0.002,-0.012,-3.112,29.489,-4.898
17:06:15:346,41.188,-0.002,-0.001,-0.016,-3.112,29.489,-4.898
17:06:15:402,41.244,-0.002,0.000,-0.012,-3.112,29.489,-4.898
17:06:15:402,41.244,0.004,-0.001,-0.013,-3.113,29.490,-4.912
17:06:15:454,41.296,0.002,-0.003,-0.008,-3.108,29.514,-4.909
17:06:15:454,41.296,-0.004,-0.002,-0.012,-3.107,29.549,-4.910
17:06:15:476,41.318,-0.002,-0.001,-0.012,-3.107,29.549,-4.910
17:06:15:502,41.344,0.001,0.001,-0.011,-3.107,29.549,-4.910
17:06:15:528,41.370,-0.006,-0.001,-0.020,-3.107,29.549,-4.910
17:06:15:584,41.426,-0.002,0.000,-0.013,-3.106,29.549,-4.903
17:06:15:584,41.426,-0.005,0.000,-0.019,-3.106,29.549,-4.903
17:06:15:608,41.450,-0.001,0.000,-0.012,-3.109,29.552,-4.885
17:06:15:633,41.475,-0.003,0.000,-0.019,-3.105,29.562,-4.861
17:06:15:659,41.501,-0.006,-0.003,-0.011,-3.108,29.565,-4.844
17:06:15:686,41.528,-0.006,0.001,-0.017,-3.108,29.564,-4.816
17:06:15:712,41.554,0.000,0.001,-0.010,-3.107,29.564,-4.802
17:06:15:739,41.581,-0.006,-0.002,-0.024,-3.107,29.564,-4.802
17:06:15:796,41.638,0.001,0.000,-0.011,-3.107,29.564,-4.802
17:06:15:796,41.638,-0.002,0.000,-0.013,-3.107,29.564,-4.802
17:06:15:817,41.659,-0.004,-0.001,-0.013,-3.107,29.564,-4.802
17:06:15:843,41.685,-0.006,-0.001,-0.014,-3.107,29.564,-4.802
17:06:15:872,41.714,0.001,-0.001,-0.012,-3.107,29.564,-4.802
17:06:15:897,41.739,-0.003,0.000,-0.015,-3.107,29.564,-4.802
17:06:15:922,41.764,0.002,-0.001,-0.011,-3.107,29.564,-4.802
17:06:15:976,41.818,-0.003,0.000,-0.019,-3.103,29.573,-4.778
17:06:16:004,41.846,-0.001,0.001,-0.013,-3.106,29.577,-4.760
17:06:16:005,41.847,-0.001,-0.003,-0.013,-3.101,29.593,-4.736
17:06:16:027,41.869,-0.003,0.000,-0.013,-3.104,29.604,-4.740
17:06:16:053,41.895,-0.006,0.001,-0.012,-3.104,29.604,-4.740
17:06:16:08,41.921,-0.005,-0.001,-0.012,-3.104,29.604,-4.740
17:06:16:108,41.949,-0.003,0.000,-0.016,-3.101,29.615,-4.744
17:06:16:133,41.975,-0.002,-0.001,-0.015,-3.100,29.629,-4.744
17:06:16:213,42.055,-0.002,0.000,-0.012,-3.099,29.643,-4.744
17:06:16:243,42.085,-0.003,0.000,-0.011,-3.099,29.649,-4.738
17:06:16:244,42.086,-0.003,-0.001,-0.010,-3.085,29.656,-4.745
17:06:16:244,42.086,-0.003,-0.006,-0.010,-3.070,29.669,-4.746
17:06:16:264,42.106,0.000,-0.002,-0.013,-3.031,29.692,-4.750
17:06:16:29,42.132,0.004,0.001,-0.031,-3.017,29.685,-4.757
17:06:16:316,42.158,0.000,-0.001,-0.001,-2.995,29.712,-4.772
17:06:16:371,42.213,0.000,0.002,-0.023,-2.987,29.740,-4.773
17:06:16:372,42.214,-0.006,-0.002,-0.011,-2.979,29.753,-4.752
17:06:16:395,42.237,-0.003,-0.001,-0.019,-2.984,29.780,-4.704
17:06:16:421,42.263,-0.003,-0.001,-0.013,-2.983,29.793,-4.669
17:06:16:447,42.289,-0.007,0.000,-0.019,-2.978,29.824,-4.625
17:06:16:475,42.317,-0.003,-0.001,-0.013,-2.976,29.837,-4.604
17:06:16:501,42.343,-0.012,-0.002,-0.020,-2.976,29.843,-4.583
17:06:16:527,42.369,-0.005,0.001,-0.011,-2.976,29.843,-4.583
17:06:16:552,42.394,-0.008,-0.001,-0.020,-2.970,29.837,-4.604
17:06:16:579,42.421,0.001,-0.001,-0.011,-2.947,29.812,-4.642
17:06:16:634,42.475,0.005,0.001,-0.016,-2.934,29.784,-4.669
17:06:16:635,42.476,0.008,-0.001,-0.012,-2.918,29.753,-4.700
17:06:16:658,42.500,-0.005,-0.005,-0.016,-2.919,29.753,-4.714
17:06:16:683,42.525,-0.005,0.002,-0.011,-2.919,29.753,-4.714
17:06:16:768,42.610,-0.004,0.000,-0.016,-2.919,29.753,-4.714
17:06:16:768,42.610,-0.001,0.000,-0.016,-2.919,29.754,-4.728
17:06:16:769,42.611,0.001,-0.003,-0.024,-2.919,29.754,-4.742
17:06:16:788,42.630,0.002,-0.005,-0.014,-2.919,29.754,-4.742
17:06:16:815,42.656,-0.001,-0.001,-0.019,-2.919,29.754,-4.742
17:06:16:841,42.683,-0.001,-0.001,-0.016,-2.919,29.754,-4.742
17:06:16:869,42.711,-0.001,0.001,-0.016,-2.930,29.751,-4.746
17:06:16:893,42.735,-0.004,-0.003,-0.014,-2.946,29.769,-4.728
17:06:16:948,42.790,-0.001,0.001,-0.012,-2.956,29.794,-4.725
17:06:16:949,42.791,0.002,0.001,-0.013,-2.965,29.840,-4.737
17:06:17:002,42.844,0.002,0.001,-0.013,-2.970,29.882,-4.745
17:06:17:003,42.844,0.001,-0.001,-0.012,-2.977,29.371,-4.746
17:06:17:025,42.867,-0.005,-0.003,-0.012,-2.990,29.407,-4.740
17:06:17:053,42.895,-0.004,0.002,-0.017,-2.993,29.176,-4.741
17:06:17:078,42.920,0.000,-0.001,-0.013,-3.002,29.194,-4.745
17:06:17:131,42.973,-0.001,0.000,-0.019,-3.020,29.198,-4.748
17:06:17:191,43.033,0.000,-0.002,-0.014,-3.031,29.195,-4.758
17:06:17:192,43.033,-0.004,0.001,-0.019,-3.043,29.158,-4.768
17:06:17:192,43.034,-0.002,0.000,-0.012,-3.053,29.161,-4.764
17:06:17:193,43.035,-0.003,0.000,-0.022,-3.064,29.159,-4.774
17:06:17:208,43.050,0.003,-0.001,-0.012,-3.075,29.156,-4.778
17:06:17:264,43.106,-0.003,0.001,-0.018,-3.085,29.159,-4.767
17:06:17:264,43.106,0.007,0.000,-0.007,-3.099,28.743,-4.745
17:06:17:345,43.187,-0.001,0.001,-0.020,-3.105,28.742,-4.724
17:06:17:346,43.188,-0.004,0.000,-0.009,-3.115,28.745,-4.686
17:06:17:347,43.189,0.003,-0.004,-0.008,-3.117,28.741,-4.661
17:06:17:395,43.237,0.001,-0.003,-0.007,-3.120,28.744,-4.622
17:06:17:396,43.237,-0.002,-0.003,-0.013,-3.130,28.740,-4.605
17:06:17:42,43.262,-0.001,-0.001,-0.008,-3.134,28.730,-4.608
17:06:17:445,43.287,-0.002,-0.002,-0.014,-3.162,28.731,-4.607
17:06:17:471,43.313,0.006,-0.001,-0.009,-3.184,28.710,-4.592
17:06:17:554,43.396,0.003,-0.001,-0.013,-3.238,28.718,-4.542
17:06:17:554,43.396,0.001,-0.005,0.000,-3.289,28.642,-4.497
17:06:17:608,43.450,0.000,-0.001,-0.014,-3.373,28.608,-4.431
17:06:17:608,43.450,-0.002,0.001,-0.016,-3.460,28.585,-4.377
17:06:17:609,43.451,-0.008,-0.001,-0.014,-3.513,28.569,-4.351
17:06:17:63,43.472,-0.014,0.004,0.008,-3.582,28.498,-4.329
17:06:17:657,43.499,-0.009,-0.004,-0.015,-3.627,28.422,-4.326
17:06:17:739,43.581,-0.004,0.001,-0.010,-3.682,28.204,-4.349
17:06:17:739,43.581,-0.006,0.001,-0.008,-3.727,28.063,-4.383
17:06:17:764,43.606,-0.003,-0.001,-0.004,-3.735,27.882,-4.412
17:06:17:764,43.606,0.007,0.002,-0.015,-3.759,27.748,-4.452
17:06:17:786,43.628,0.004,-0.003,-0.016,-3.773,27.521,-4.476
17:06:17:812,43.654,0.013,-0.004,-0.016,-3.795,27.421,-4.497
17:06:17:838,43.680,0.000,0.002,-0.024,-3.817,27.306,-4.489
17:06:17:867,43.708,0.003,0.002,-0.015,-3.827,27.302,-4.464
17:06:17:92,43.762,0.003,-0.001,-0.019,-3.819,27.002,-4.409
17:06:17:921,43.763,0.001,0.003,-0.016,-3.815,27.064,-4.369
17:06:17:974,43.816,-0.001,-0.001,-0.021,-3.802,27.212,-4.294
17:06:17:974,43.816,0.000,-0.003,-0.010,-3.782,27.315,-4.242
17:06:17:996,43.838,0.003,-0.001,-0.019,-3.748,27.409,-4.169
17:06:18:023,43.864,0.000,-0.007,-0.004,-3.732,27.603,-4.119
17:06:18:049,43.890,-0.010,-0.002,-0.007,-3.724,27.718,-4.113
17:06:18:077,43.919,-0.009,-0.005,0.004,-3.716,27.943,-4.127
17:06:18:102,43.944,-0.010,-0.004,-0.015,-3.707,28.013,-4.150
17:06:18:156,43.998,-0.002,-0.002,-0.017,-3.704,28.061,-4.211
17:06:18:157,43.999,-0.002,0.007,-0.018,-3.667,28.093,-4.301
17:06:18:179,44.021,0.004,0.003,-0.014,-3.620,28.108,-4.380
17:06:18:206,44.048,-0.001,-0.006,-0.002,-3.552,28.123,-4.480
17:06:18:232,44.074,0.004,-0.002,0.001,-3.520,28.190,-4.542
17:06:18:259,44.100,-0.002,-0.001,-0.022,-3.475,28.141,-4.612
17:06:18:312,44.154,-0.002,0.001,-0.014,-3.438,28.130,-4.644
17:06:18:369,44.211,0.007,-0.001,-0.012,-3.375,28.076,-4.696
17:06:18:37,44.212,0.014,-0.005,-0.005,-3.321,28.026,-4.711
17:06:18:371,44.213,0.007,0.001,-0.015,-3.302,28.049,-4.708
17:06:18:392,44.234,-0.007,0.001,-0.019,-3.299,28.104,-4.668
17:06:18:417,44.259,-0.004,-0.002,-0.007,-3.284,28.110,-4.640
17:06:18:442,44.284,0.007,-0.003,-0.011,-3.248,28.107,-4.606
17:06:18:583,44.425,0.000,-0.002,-0.009,-3.202,28.095,-4.596
17:06:18:584,44.426,0.002,-0.001,-0.008,-3.164,28.258,-4.598
17:06:18:584,44.426,0.007,-0.002,-0.013,-3.119,28.225,-4.595
17:06:18:585,44.427,0.005,0.001,-0.016,-3.098,28.122,-4.575
17:06:18:602,44.444,-0.001,-0.001,-0.002,-3.091,28.092,-4.526
17:06:18:603,44.445,-0.009,0.002,-0.012,-3.094,27.993,-4.495
17:06:18:627,44.469,0.002,-0.001,-0.013,-3.092,27.999,-4.446
17:06:18:71,44.552,-0.004,-0.002,-0.019,-3.090,28.005,-4.404
17:06:18:711,44.553,0.002,-0.002,-0.017,-3.090,27.997,-4.376
17:06:18:712,44.554,-0.013,0.003,-0.013,-3.097,27.968,-4.333
17:06:18:731,44.573,-0.003,-0.003,-0.006,-3.094,27.950,-4.322
17:06:18:757,44.599,-0.001,-0.001,-0.018,-3.088,27.901,-4.321
17:06:18:783,44.625,0.000,-0.002,-0.008,-3.088,27.901,-4.321
17:06:18:809,44.651,-0.001,-0.001,-0.015,-3.074,27.901,-4.321
17:06:18:838,44.680,0.000,-0.003,-0.011,-3.051,27.868,-4.325
17:06:18:891,44.733,0.004,0.001,-0.022,-3.034,27.843,-4.321
17:06:18:892,44.734,0.002,-0.004,-0.005,-3.034,27.843,-4.321
17:06:18:941,44.783,-0.006,0.000,-0.008,-3.034,27.843,-4.321
17:06:18:973,44.815,-0.002,0.001,-0.011,-3.014,27.843,-4.329
17:06:18:973,44.815,0.006,-0.002,-0.015,-2.980,27.835,-4.357
17:06:18:993,44.835,0.003,-0.002,-0.013,-2.953,27.814,-4.378
17:06:19:02,44.861,0.006,-0.001,-0.013,-2.919,27.813,-4.400
17:06:19:135,44.977,0.005,-0.002,-0.012,-2.905,27.812,-4.401
17:06:19:135,44.977,0.003,-0.002,-0.014,-2.908,27.823,-4.398
17:06:19:135,44.977,0.001,-0.002,-0.009,-2.903,27.854,-4.402
17:06:19:135,44.977,-0.001,0.001,-0.008,-2.903,27.868,-4.402
17:06:19:151,44.993,0.002,-0.002,-0.008,-2.903,27.868,-4.402
17:06:19:207,45.049,0.002,-0.001,-0.010,-2.903,27.868,-4.402
17:06:19:207,45.049,0.001,-0.003,-0.009,-2.896,27.868,-4.423
17:06:19:23,45.071,-0.008,0.000,-0.011,-2.894,27.866,-4.455
17:06:19:286,45.128,0.008,-0.003,-0.010,-2.898,27.870,-4.479
17:06:19:287,45.129,0.007,0.001,-0.012,-2.898,27.870,-4.479
17:06:19:338,45.180,0.000,-0.002,-0.014,-2.898,27.870,-4.479
17:06:19:338,45.180,0.003,-0.003,-0.008,-2.898,27.870,-4.465
17:06:19:362,45.204,0.000,-0.001,-0.015,-2.897,27.869,-4.437
17:06:19:389,45.231,0.002,0.000,-0.014,-2.897,27.869,-4.437
17:06:19:415,45.256,0.000,0.000,-0.018,-2.897,27.869,-4.437
17:06:19:44,45.282,0.003,0.000,-0.009,-2.897,27.869,-4.437
17:06:19:471,45.313,-0.004,0.000,-0.017,-2.897,27.869,-4.437
17:06:19:471,45.313,-0.003,-0.003,-0.006,-2.898,27.848,-4.444
17:06:19:522,45.364,-0.004,0.000,-0.017,-2.882,27.816,-4.461
17:06:19:522,45.364,0.005,-0.002,-0.013,-2.850,27.767,-4.503
17:06:19:574,45.415,0.006,-0.003,-0.010,-2.828,27.735,-4.527
17:06:19:575,45.416,0.017,-0.002,-0.011,-2.801,27.720,-4.542
17:06:19:599,45.441,0.006,-0.002,-0.017,-2.794,27.727,-4.542
17:06:19:682,45.524,0.007,-0.002,-0.011,-2.796,27.766,-4.546
17:06:19:682,45.524,0.003,-0.004,-0.014,-2.789,27.832,-4.531
17:06:19:683,45.525,0.003,0.000,-0.009,-2.793,27.888,-4.511
17:06:19:705,45.547,0.005,0.000,-0.014,-2.806,27.968,-4.474
17:06:19:73,45.572,0.008,-0.001,-0.010,-2.813,28.034,-4.444
17:06:19:756,45.598,0.001,0.000,-0.014,-2.840,28.129,-4.407
17:06:19:781,45.623,0.002,-0.001,-0.012,-2.859,28.223,-4.363
17:06:19:865,45.707,0.000,-0.001,-0.018,-2.881,28.283,-4.339
17:06:19:865,45.707,-0.001,-0.001,-0.011,-2.898,28.353,-4.306
17:06:19:89,45.732,0.006,-0.002,-0.017,-2.907,28.391,-4.282
17:06:19:89,45.732,0.007,-0.003,-0.010,-2.925,28.454,-4.248
17:06:19:912,45.754,0.003,-0.003,-0.009,-2.936,28.503,-4.228
17:06:19:94,45.782,0.002,-0.003,-0.016,-2.961,28.566,-4.194
17:06:19:966,45.807,0.000,-0.002,-0.016,-2.986,28.636,-4.160
17:06:19:991,45.833,0.001,-0.001,-0.011,-3.005,28.678,-4.140
17:06:20:017,45.859,0.000,-0.001,-0.006,-3.037,28.741,-4.113
17:06:20:102,45.944,0.003,-0.004,-0.012,-3.059,28.780,-4.096
17:06:20:102,45.944,0.006,-0.003,-0.011,-3.082,28.826,-4.072
17:06:20:104,45.946,-0.006,-0.001,-0.019,-3.108,28.862,-4.065
17:06:20:122,45.964,0.000,-0.002,-0.015,-3.108,28.862,-4.065
17:06:20:149,45.990,0.001,-0.002,-0.018,-3.108,28.862,-4.065
17:06:20:176,46.017,0.005,0.001,-0.012,-3.112,28.859,-4.076
17:06:20:201,46.043,-0.003,0.000,-0.020,-3.106,28.859,-4.097
17:06:20:255,46.097,0.006,-0.002,-0.012,-3.107,28.845,-4.111
17:06:20:313,46.155,0.008,0.002,-0.018,-3.114,28.846,-4.117
17:06:20:313,46.155,0.002,0.000,-0.015,-3.114,28.846,-4.117
17:06:20:313,46.155,-0.001,0.000,-0.021,-3.114,28.846,-4.117
17:06:20:334,46.175,0.006,-0.003,-0.015,-3.114,28.846,-4.117
17:06:20:359,46.200,-0.003,-0.002,-0.011,-3.114,28.846,-4.117
17:06:20:444,46.286,0.011,-0.001,-0.016,-3.111,28.828,-4.113
17:06:20:445,46.287,0.002,0.001,-0.019,-3.111,28.821,-4.113
17:06:20:445,46.287,-0.028,-0.002,0.009,-3.111,28.821,-4.113
17:06:20:49,46.332,0.009,0.001,-0.022,-3.132,28.830,-4.141
17:06:20:519,46.360,0.008,0.001,-0.011,-3.143,28.834,-4.158
17:06:20:52,46.361,-0.003,-0.001,-0.011,-3.151,28.834,-4.173
17:06:20:543,46.384,0.006,0.001,-0.019,-3.164,28.863,-4.180
17:06:20:571,46.413,0.003,0.000,-0.018,-3.180,28.888,-4.177
17:06:20:654,46.496,0.004,-0.001,-0.012,-3.186,28.909,-4.163
17:06:20:655,46.497,-0.003,0.000,-0.014,-3.200,28.917,-4.170
17:06:20:655,46.497,0.000,0.001,-0.015,-3.211,28.921,-4.181
17:06:20:674,46.516,0.000,0.000,-0.013,-3.211,28.922,-4.209
17:06:20:7,46.542,-0.002,-0.001,-0.013,-3.189,28.912,-4.269
17:06:20:726,46.568,0.007,-0.003,-0.014,-3.156,28.885,-4.345
17:06:20:752,46.594,0.000,0.001,-0.012,-3.134,28.867,-4.384
17:06:20:778,46.620,0.003,-0.001,-0.014,-3.102,28.812,-4.446
17:06:20:835,46.677,-0.004,0.000,-0.017,-3.074,28.766,-4.491
17:06:20:835,46.677,0.008,-0.001,-0.012,-3.036,28.690,-4.567
17:06:20:857,46.699,-0.011,-0.001,-0.020,-2.996,28.617,-4.639
17:06:20:913,46.754,0.019,-0.003,-0.008,-2.974,28.586,-4.691
17:06:20:913,46.755,-0.001,0.002,-0.019,-2.975,28.579,-4.726
17:06:20:936,46.778,0.012,-0.002,-0.014,-2.979,28.583,-4.744
17:06:20:962,46.804,0.003,-0.002,-0.019,-2.992,28.598,-4.730
17:06:21:078,46.919,0.005,-0.003,-0.011,-3.011,28.633,-4.716
17:06:21:078,46.919,-0.001,0.003,-0.020,-3.046,28.700,-4.686
17:06:21:078,46.920,0.002,-0.001,-0.014,-3.088,28.775,-4.655
17:06:21:078,46.920,-0.003,-0.001,-0.014,-3.106,28.824,-4.628
17:06:21:094,46.935,0.000,-0.002,-0.008,-3.139,28.866,-4.594
17:06:21:12,46.962,0.000,0.000,-0.011,-3.155,28.891,-4.570
17:06:21:146,46.988,0.002,-0.002,-0.011,-3.184,28.923,-4.538
17:06:21:172,47.014,-0.003,-0.001,-0.017,-3.211,28.951,-4.511
17:06:21:226,47.068,0.000,0.001,-0.008,-3.217,28.965,-4.490
17:06:21:283,47.125,0.002,-0.002,-0.011,-3.226,28.968,-4.465
17:06:21:284,47.126,0.006,0.000,-0.010,-3.230,28.964,-4.462
17:06:21:285,47.126,0.002,-0.001,-0.014,-3.240,28.968,-4.451
17:06:21:304,47.145,0.004,0.001,-0.011,-3.250,28.972,-4.448
17:06:21:33,47.172,-0.002,0.000,-0.017,-3.257,28.965,-4.433
17:06:21:358,47.200,0.003,-0.002,-0.012,-3.265,28.965,-4.440
17:06:21:384,47.226,0.002,0.000,-0.009,-3.272,28.952,-4.447
17:06:21:409,47.251,-0.001,0.001,-0.008,-3.283,28.948,-4.450
17:06:21:435,47.277,0.004,-0.001,-0.012,-3.298,28.928,-4.456
17:06:21:491,47.333,0.005,-0.002,-0.008,-3.302,28.925,-4.459
17:06:21:491,47.333,0.004,0.000,-0.010,-3.312,28.929,-4.470
17:06:21:514,47.355,-0.003,-0.003,-0.018,-3.312,28.929,-4.470
17:06:21:54,47.381,-0.001,-0.001,-0.014,-3.319,28.930,-4.477
17:06:21:566,47.408,-0.006,0.000,-0.019,-3.330,28.927,-4.480
17:06:21:621,47.463,0.002,-0.002,-0.011,-3.341,28.931,-4.483
17:06:21:622,47.464,0.001,0.001,-0.017,-3.348,28.931,-4.490
17:06:21:646,47.488,0.002,-0.002,-0.013,-3.355,28.932,-4.497
17:06:21:672,47.514,-0.002,0.001,-0.014,-3.366,28.929,-4.500
17:06:21:697,47.539,0.003,-0.002,-0.009,-3.369,28.932,-4.504
17:06:21:727,47.569,-0.002,-0.001,-0.016,-3.376,28.947,-4.511
17:06:21:728,47.569,0.003,0.000,-0.009,-3.382,28.968,-4.519
17:06:21:805,47.647,-0.003,-0.001,-0.017,-3.386,28.972,-4.522
17:06:21:806,47.648,0.004,-0.002,-0.007,-3.400,28.980,-4.529
17:06:21:833,47.675,0.001,0.000,-0.009,-3.403,28.997,-4.533
17:06:21:833,47.675,0.003,-0.002,-0.009,-3.402,29.019,-4.541
17:06:21:854,47.696,-0.001,-0.002,-0.012,-3.409,29.026,-4.541
17:06:21:911,47.752,0.004,-0.003,-0.005,-3.398,29.043,-4.552
17:06:21:911,47.752,-0.001,0.001,-0.013,-3.376,29.057,-4.574
17:06:21:933,47.775,0.006,0.000,-0.008,-3.363,29.050,-4.595
17:06:21:96,47.802,0.001,0.001,-0.010,-3.346,29.061,-4.613
17:06:22:013,47.855,0.005,-0.002,-0.008,-3.332,29.060,-4.627
17:06:22:043,47.885,0.004,-0.002,-0.010,-3.328,29.085,-4.638
17:06:22:043,47.885,0.001,-0.002,-0.010,-3.327,29.099,-4.639
17:06:22:065,47.906,0.003,0.000,-0.011,-3.327,29.099,-4.639
17:06:22:091,47.933,0.000,-0.001,-0.010,-3.327,29.107,-4.660
17:06:22:12,47.962,0.005,-0.002,-0.010,-3.317,29.103,-4.685
17:06:22:145,47.987,0.005,0.001,-0.007,-3.300,29.114,-4.724
17:06:22:198,48.040,0.004,0.001,-0.009,-3.284,29.111,-4.755
17:06:22:2,48.042,0.006,-0.001,-0.007,-3.263,29.111,-4.791
17:06:22:223,48.065,0.001,-0.002,-0.012,-3.254,29.108,-4.816
17:06:22:249,48.091,0.004,0.001,-0.013,-3.236,29.104,-4.826
17:06:22:275,48.116,0.004,-0.003,-0.008,-3.219,29.107,-4.823
17:06:22:302,48.144,-0.003,-0.001,-0.013,-3.205,29.106,-4.823
17:06:22:328,48.170,0.005,-0.003,-0.013,-3.173,29.102,-4.834
17:06:22:384,48.226,0.002,-0.001,-0.015,-3.157,29.098,-4.852
17:06:22:384,48.226,0.010,-0.002,-0.008,-3.157,29.098,-4.852
17:06:22:466,48.307,0.004,-0.001,-0.015,-3.153,29.101,-4.841
17:06:22:466,48.307,0.009,0.001,-0.012,-3.156,29.097,-4.824
17:06:22:466,48.308,0.001,-0.003,-0.013,-3.155,29.096,-4.789
17:06:22:486,48.328,0.007,-0.002,-0.007,-3.154,29.103,-4.768
17:06:22:512,48.354,0.000,-0.001,-0.013,-3.154,29.103,-4.768
17:06:22:537,48.379,0.008,0.001,-0.010,-3.154,29.103,-4.768
17:06:22:594,48.436,0.005,-0.003,-0.008,-3.154,29.103,-4.768
17:06:22:594,48.436,0.009,-0.001,-0.009,-3.162,29.096,-4.768
17:06:22:616,48.458,0.008,-0.003,-0.011,-3.168,29.103,-4.768
17:06:22:67,48.512,0.003,0.000,-0.014,-3.196,29.104,-4.739
17:06:22:698,48.540,0.009,-0.003,-0.010,-3.196,29.104,-4.739
17:06:22:721,48.563,0.004,0.001,-0.017,-3.216,29.104,-4.718
17:06:22:776,48.618,0.009,0.000,-0.007,-3.230,29.104,-4.704
17:06:22:777,48.619,0.006,-0.001,-0.012,-3.247,29.107,-4.679
17:06:22:831,48.673,0.007,-0.003,-0.012,-3.246,29.121,-4.658
17:06:22:832,48.673,0.004,-0.001,-0.014,-3.249,29.125,-4.662
17:06:22:852,48.694,0.008,0.000,-0.012,-3.249,29.125,-4.662
17:06:22:879,48.721,0.008,0.000,-0.016,-3.249,29.125,-4.662
17:06:22:905,48.747,0.007,-0.003,-0.012,-3.249,29.124,-4.648
17:06:22:931,48.773,0.008,-0.003,-0.010,-3.252,29.127,-4.630
17:06:23:018,48.860,0.010,0.001,-0.008,-3.244,29.126,-4.609
17:06:23:019,48.860,0.005,-0.001,-0.008,-3.244,29.126,-4.581
17:06:23:019,48.860,0.006,-0.002,-0.017,-3.247,29.129,-4.564
17:06:23:036,48.877,0.011,-0.005,-0.016,-3.246,29.128,-4.536
17:06:23:064,48.906,0.006,-0.002,-0.020,-3.260,29.128,-4.508
17:06:23:09,48.932,0.009,-0.003,-0.012,-3.283,29.131,-4.462
17:06:23:115,48.957,0.004,-0.001,-0.016,-3.310,29.131,-4.412
17:06:23:171,49.013,0.008,-0.001,-0.013,-3.323,29.137,-4.377
17:06:23:171,49.013,0.002,0.001,-0.015,-3.340,29.133,-4.332
17:06:23:222,49.064,0.005,0.001,-0.015,-3.339,29.132,-4.310
17:06:23:223,49.065,0.005,0.002,-0.021,-3.342,29.135,-4.272
17:06:23:247,49.089,0.007,-0.002,-0.009,-3.341,29.134,-4.244
17:06:23:272,49.114,0.008,-0.003,-0.017,-3.341,29.126,-4.202
17:06:23:298,49.140,0.006,-0.003,-0.014,-3.339,29.131,-4.153
17:06:23:354,49.196,0.007,-0.002,-0.018,-3.342,29.127,-4.114
17:06:23:354,49.196,0.013,-0.004,-0.009,-3.341,29.126,-4.072
17:06:23:436,49.278,0.008,0.001,-0.012,-3.350,29.128,-4.019
17:06:23:436,49.278,0.009,-0.003,-0.012,-3.353,29.131,-3.988
17:06:23:437,49.279,0.008,0.001,-0.017,-3.363,29.133,-3.942
17:06:23:456,49.298,0.011,0.002,-0.014,-3.366,29.129,-3.918
17:06:23:482,49.324,0.005,0.000,-0.020,-3.368,29.139,-3.887
17:06:23:508,49.350,0.010,-0.002,-0.014,-3.364,29.135,-3.869
17:06:23:564,49.406,0.011,0.001,-0.015,-3.364,29.135,-3.869
17:06:23:565,49.406,0.012,-0.001,-0.016,-3.364,29.135,-3.869
17:06:23:587,49.429,0.010,-0.003,-0.018,-3.364,29.134,-3.855
17:06:23:613,49.455,0.007,-0.001,-0.012,-3.367,29.137,-3.837
17:06:23:641,49.483,0.009,0.001,-0.014,-3.367,29.137,-3.823
17:06:23:668,49.510,0.011,0.002,-0.015,-3.367,29.137,-3.823
17:06:23:692,49.534,0.013,-0.003,-0.014,-3.367,29.137,-3.823
17:06:23:748,49.590,0.012,-0.002,-0.011,-3.367,29.137,-3.823
17:06:23:749,49.591,0.010,-0.001,-0.015,-3.367,29.137,-3.823
17:06:23:801,49.643,0.007,0.000,-0.019,-3.367,29.137,-3.823
17:06:23:801,49.643,0.012,-0.002,-0.012,-3.367,29.137,-3.823
17:06:23:823,49.665,0.007,0.000,-0.021,-3.366,29.158,-3.817
17:06:23:851,49.693,0.011,-0.003,-0.014,-3.366,29.165,-3.824
17:06:23:877,49.719,0.013,-0.002,-0.018,-3.366,29.165,-3.824
17:06:23:991,49.833,0.014,-0.002,-0.014,-3.366,29.165,-3.824
17:06:23:992,49.834,0.009,0.001,-0.021,-3.366,29.165,-3.824
17:06:23:993,49.835,0.014,-0.003,-0.012,-3.366,29.165,-3.824
17:06:23:993,49.835,0.006,0.002,-0.018,-3.366,29.165,-3.824
17:06:24:007,49.849,0.012,-0.001,-0.012,-3.366,29.165,-3.824
17:06:24:034,49.875,0.011,0.001,-0.023,-3.363,29.161,-3.828
17:06:24:06,49.902,0.015,0.000,-0.015,-3.381,29.167,-3.880
17:06:24:086,49.928,0.013,-0.003,-0.023,-3.389,29.168,-3.908
17:06:24:141,49.983,0.014,0.000,-0.012,-3.397,29.170,-3.957
17:06:24:142,49.984,0.017,-0.003,-0.013,-3.404,29.171,-3.978
17:06:24:198,50.039,0.016,-0.003,-0.011,-3.404,29.171,-3.992
17:06:24:198,50.040,0.008,0.001,-0.016,-3.412,29.172,-4.013
17:06:24:199,50.041,0.011,-0.001,-0.013,-3.419,29.172,-4.013
17:06:24:218,50.059,0.011,-0.001,-0.017,-3.426,29.172,-4.012
17:06:24:243,50.085,0.012,-0.001,-0.013,-3.436,29.176,-4.009
17:06:24:328,50.170,0.011,-0.001,-0.014,-3.440,29.173,-4.019
17:06:24:328,50.170,0.014,-0.002,-0.010,-3.448,29.174,-4.040
17:06:24:329,50.171,0.009,-0.001,-0.012,-3.451,29.178,-4.051
17:06:24:348,50.190,0.013,0.001,-0.014,-3.451,29.178,-4.065
17:06:24:376,50.218,0.013,-0.001,-0.012,-3.458,29.179,-4.072
17:06:24:401,50.243,0.017,-0.001,-0.009,-3.462,29.183,-4.089
17:06:24:457,50.299,0.009,-0.001,-0.012,-3.473,29.180,-4.093
17:06:24:457,50.299,0.017,-0.002,-0.009,-3.477,29.184,-4.103
17:06:24:48,50.322,0.012,-0.001,-0.010,-3.481,29.181,-4.114
17:06:24:536,50.378,0.011,-0.003,-0.016,-3.484,29.185,-4.124
17:06:24:536,50.378,0.012,0.000,-0.011,-3.488,29.181,-4.120
17:06:24:558,50.400,0.006,0.002,-0.017,-3.487,29.181,-4.106
17:06:24:585,50.426,0.011,0.001,-0.009,-3.497,29.184,-4.096
17:06:24:611,50.452,0.005,0.000,-0.016,-3.497,29.184,-4.082
17:06:24:639,50.481,0.013,-0.002,-0.011,-3.500,29.187,-4.064
17:06:24:664,50.506,0.003,-0.002,-0.016,-3.507,29.187,-4.043
17:06:24:72,50.562,0.012,-0.003,-0.007,-3.510,29.190,-4.033
17:06:24:72,50.562,0.005,0.001,-0.018,-3.513,29.186,-4.022
17:06:24:802,50.643,0.009,-0.001,-0.010,-3.517,29.189,-4.012
17:06:24:802,50.643,0.007,0.001,-0.016,-3.520,29.186,-4.001
17:06:24:802,50.644,0.010,0.000,-0.005,-3.526,29.193,-3.987
17:06:24:822,50.664,0.007,0.000,-0.011,-3.526,29.192,-3.973
17:06:24:849,50.691,0.012,-0.002,-0.008,-3.533,29.192,-3.966
17:06:24:959,50.801,0.011,0.000,-0.012,-3.537,29.189,-3.976
17:06:24:96,50.801,0.010,-0.002,-0.008,-3.537,29.196,-3.984
17:06:24:961,50.802,0.008,-0.001,-0.010,-3.541,29.193,-3.994
17:06:24:983,50.824,0.011,-0.001,-0.007,-3.544,29.197,-4.004
17:06:24:983,50.824,0.009,-0.001,-0.013,-3.548,29.194,-4.015
17:06:25:005,50.846,0.009,-0.002,-0.010,-3.552,29.198,-4.025
17:06:25:031,50.873,0.004,-0.001,-0.014,-3.559,29.199,-4.032
17:06:25:057,50.899,0.008,-0.001,-0.006,-3.563,29.195,-4.043
17:06:25:112,50.954,0.011,0.001,-0.009,-3.570,29.196,-4.050
17:06:25:113,50.955,0.011,-0.001,-0.006,-3.570,29.196,-4.064
17:06:25:165,51.007,0.010,0.001,-0.009,-3.577,29.197,-4.071
17:06:25:166,51.008,0.008,-0.001,-0.011,-3.578,29.197,-4.085
17:06:25:19,51.032,0.004,0.001,-0.009,-3.567,29.186,-4.081
17:06:25:218,51.060,0.005,0.001,-0.005,-3.544,29.168,-4.091
17:06:25:241,51.083,0.007,-0.001,-0.005,-3.490,29.132,-4.126
17:06:25:296,51.138,0.014,-0.003,-0.010,-3.455,29.125,-4.154
17:06:25:297,51.139,0.016,-0.003,-0.005,-3.428,29.132,-4.176
17:06:25:321,51.163,0.010,-0.006,-0.013,-3.423,29.156,-4.173
17:06:25:375,51.216,0.013,-0.002,-0.005,-3.439,29.188,-4.163
17:06:25:376,51.217,0.006,0.000,-0.012,-3.479,29.238,-4.143
17:06:25:399,51.241,0.020,-0.002,-0.012,-3.520,29.274,-4.137
17:06:25:425,51.267,0.001,0.001,-0.012,-3.583,29.342,-4.106
17:06:25:451,51.293,-0.003,0.002,-0.006,-3.620,29.388,-4.090
17:06:25:506,51.348,0.002,0.004,-0.016,-3.645,29.452,-4.091
17:06:25:507,51.349,0.006,-0.001,-0.012,-3.640,29.504,-4.097
17:06:25:532,51.373,0.009,-0.001,-0.013,-3.625,29.554,-4.119
17:06:25:557,51.399,0.011,-0.003,-0.006,-3.598,29.626,-4.118
17:06:25:583,51.425,0.008,-0.004,-0.004,-3.581,29.681,-4.106
17:06:25:609,51.451,0.029,-0.002,0.003,-3.557,29.763,-4.074
17:06:25:635,51.477,0.030,-0.004,-0.017,-3.545,29.859,-4.007
17:06:25:661,51.503,0.021,-0.005,0.006,-3.558,29.967,-3.958
17:06:25:745,51.587,-0.009,0.001,-0.010,-3.575,30.128,-3.833
17:06:25:746,51.588,-0.016,0.009,-0.009,-3.583,30.178,-3.747
17:06:25:747,51.589,0.004,-0.012,-0.010,-3.580,30.115,-3.644
17:06:25:766,51.608,0.000,0.003,-0.003,-3.570,30.075,-3.597
17:06:25:792,51.634,0.000,0.001,-0.004,-3.532,30.063,-3.579
17:06:25:818,51.660,0.016,-0.006,-0.003,-3.502,30.024,-3.603
