Time,Second,AccelerationX,AccelerationY,AccelerationZ,EulerAnglesX,EulerAnglesY,EulerAnglesZ
09:17:58:017,0.000,0.008,-0.011,-0.006,-9.147,13.208,7.040
09:17:58:018,0.001,0.014,-0.008,0.002,-9.141,13.208,7.007
09:17:58:019,0.002,0.011,-0.007,-0.007,-9.145,13.202,6.986
09:17:58:039,0.022,0.018,-0.009,0.002,-9.140,13.197,6.972
09:17:58:064,0.047,0.013,-0.009,-0.006,-9.146,13.196,6.980
09:17:58:148,0.131,0.012,-0.008,0.000,-9.149,13.194,7.002
09:17:58:149,0.132,0.008,-0.011,-0.004,-9.146,13.194,7.041
09:17:58:149,0.132,0.009,-0.010,0.002,-9.148,13.198,7.069
09:17:58:17,0.152,0.014,-0.006,-0.001,-9.151,13.197,7.116
09:17:58:226,0.209,0.009,-0.011,0.004,-9.175,13.189,7.179
09:17:58:226,0.209,0.003,-0.010,-0.004,-9.189,13.192,7.224
09:17:58:308,0.291,0.012,-0.008,0.001,-9.213,13.190,7.294
09:17:58:308,0.291,0.009,-0.011,0.002,-9.213,13.186,7.337
09:17:58:308,0.291,0.010,-0.011,0.006,-9.219,13.191,7.405
09:17:58:356,0.339,0.004,-0.009,-0.001,-9.213,13.190,7.458
09:17:58:357,0.339,0.003,-0.014,0.004,-9.214,13.176,7.531
09:17:58:38,0.362,0.008,-0.010,0.002,-9.212,13.138,7.594
09:17:58:432,0.415,0.012,-0.008,0.002,-9.213,13.135,7.630
09:17:58:485,0.468,0.000,-0.012,-0.003,-9.215,13.134,7.677
09:17:58:517,0.500,0.000,-0.013,0.002,-9.198,13.141,7.695
09:17:58:517,0.500,0.009,-0.012,-0.001,-9.185,13.142,7.692
09:17:58:517,0.500,0.010,-0.009,0.008,-9.185,13.142,7.692
09:17:58:565,0.548,0.007,-0.010,0.001,-9.185,13.142,7.692
09:17:58:566,0.549,0.008,-0.010,-0.003,-9.185,13.142,7.692
09:17:58:59,0.573,0.008,-0.012,0.001,-9.185,13.142,7.692
09:17:58:615,0.598,0.010,-0.012,0.008,-9.185,13.142,7.692
09:17:58:641,0.624,0.006,-0.013,0.004,-9.185,13.142,7.692
09:17:58:755,0.738,0.006,-0.012,0.001,-9.188,13.140,7.714
09:17:58:756,0.738,0.008,-0.010,0.002,-9.190,13.144,7.743
09:17:58:757,0.739,0.008,-0.011,0.003,-9.189,13.157,7.755
09:17:58:758,0.740,0.010,-0.011,0.007,-9.190,13.168,7.790
09:17:58:773,0.756,0.005,-0.012,-0.004,-9.194,13.166,7.813
09:17:58:858,0.841,0.006,-0.010,0.002,-9.180,13.165,7.846
09:17:58:858,0.841,0.009,-0.009,-0.004,-9.179,13.172,7.877
09:17:58:859,0.842,0.006,-0.013,0.008,-9.184,13.192,7.897
09:17:58:878,0.861,0.004,-0.009,-0.001,-9.191,13.199,7.923
09:17:58:904,0.887,0.009,-0.010,0.004,-9.188,13.198,7.937
09:17:58:99,0.973,0.003,-0.010,-0.006,-9.188,13.198,7.937
09:17:58:99,0.973,0.002,-0.012,0.005,-9.187,13.217,7.931
09:17:58:99,0.973,0.005,-0.011,0.001,-9.188,13.231,7.930
09:17:59:011,0.994,0.007,-0.012,0.007,-9.193,13.235,7.920
09:17:59:035,1.018,0.012,-0.008,-0.002,-9.191,13.233,7.909
09:17:59:09,1.073,0.010,-0.011,0.001,-9.192,13.247,7.908
09:17:59:091,1.074,0.006,-0.012,0.005,-9.194,13.254,7.901
09:17:59:118,1.100,0.010,-0.010,0.008,-9.194,13.254,7.901
09:17:59:14,1.123,0.011,-0.011,0.004,-9.194,13.254,7.901
09:17:59:224,1.207,0.009,-0.011,0.001,-9.194,13.254,7.901
09:17:59:225,1.208,0.008,-0.009,-0.001,-9.194,13.254,7.901
09:17:59:226,1.209,0.009,-0.010,0.004,-9.194,13.254,7.901
09:17:59:274,1.257,0.012,-0.009,0.002,-9.194,13.254,7.901
09:17:59:275,1.258,0.006,-0.009,-0.001,-9.194,13.255,7.926
09:17:59:299,1.282,0.008,-0.011,0.002,-9.197,13.253,7.948
09:17:59:353,1.336,0.006,-0.011,0.008,-9.181,13.256,7.976
09:17:59:354,1.337,0.009,-0.010,0.004,-9.163,13.249,7.995
09:17:59:405,1.388,0.008,-0.009,0.002,-9.137,13.236,8.012
09:17:59:406,1.389,0.012,-0.009,0.006,-9.110,13.233,8.025
09:17:59:429,1.412,0.003,-0.011,0.008,-9.088,13.228,8.021
09:17:59:486,1.469,0.007,-0.013,0.002,-9.049,13.209,8.029
09:17:59:486,1.469,0.007,-0.010,0.001,-9.020,13.204,8.031
09:17:59:54,1.522,0.003,-0.010,0.004,-8.971,13.175,8.034
09:17:59:54,1.523,0.006,-0.012,0.003,-8.903,13.145,8.038
09:17:59:541,1.524,0.012,-0.009,0.001,-8.872,13.118,8.041
09:17:59:561,1.543,0.008,-0.009,-0.002,-8.842,13.062,8.069
09:17:59:588,1.571,0.013,-0.011,0.005,-8.814,13.039,8.101
09:17:59:724,1.706,0.006,-0.011,-0.003,-8.771,12.999,8.149
09:17:59:724,1.707,-0.002,-0.004,-0.009,-8.752,12.940,8.193
09:17:59:725,1.707,0.007,-0.016,0.013,-8.755,12.596,8.353
09:17:59:725,1.707,0.015,-0.008,0.012,-8.711,12.324,8.468
09:17:59:747,1.729,0.005,-0.008,0.001,-8.699,12.229,8.503
09:17:59:748,1.730,0.000,-0.012,-0.002,-8.676,12.106,8.545
09:17:59:829,1.812,0.003,-0.012,0.016,-8.635,11.971,8.570
09:17:59:829,1.812,0.002,-0.014,0.014,-8.616,11.865,8.561
09:17:59:83,1.813,0.008,-0.009,0.002,-8.613,11.836,8.484
09:17:59:849,1.832,0.011,-0.011,0.010,-8.622,11.838,8.418
09:17:59:875,1.858,0.007,-0.014,0.005,-8.648,11.870,8.310
09:17:59:928,1.911,0.015,-0.011,0.010,-8.678,11.943,8.228
09:17:59:957,1.940,0.022,-0.006,0.005,-8.739,12.072,8.119
09:17:59:958,1.941,0.014,-0.007,-0.001,-8.805,12.172,8.066
09:17:59:982,1.965,0.017,-0.011,0.001,-8.841,12.224,8.058
09:18:00:006,1.989,0.025,-0.006,0.003,-8.872,12.339,8.065
09:18:00:062,2.045,0.012,-0.013,0.009,-8.886,12.402,8.109
09:18:00:063,2.046,0.013,-0.012,0.004,-8.903,12.478,8.198
09:18:00:088,2.071,0.002,-0.016,0.006,-8.912,12.533,8.263
09:18:00:111,2.094,0.005,-0.009,0.008,-8.941,12.541,8.389
09:18:00:138,2.121,0.000,-0.011,0.006,-8.945,12.545,8.490
09:18:00:193,2.176,0.002,-0.010,0.007,-8.947,12.551,8.543
09:18:00:194,2.177,0.003,-0.015,0.007,-8.952,12.594,8.587
09:18:00:245,2.228,0.005,-0.010,0.002,-8.966,12.660,8.594
09:18:00:246,2.229,0.003,-0.012,0.010,-8.974,12.753,8.580
09:18:00:327,2.310,0.010,-0.009,-0.004,-8.991,12.819,8.549
09:18:00:328,2.311,0.009,-0.006,-0.002,-8.996,12.856,8.533
09:18:00:329,2.312,0.004,-0.010,-0.003,-9.007,12.923,8.493
09:18:00:377,2.360,0.010,-0.010,0.007,-9.010,12.958,8.465
09:18:00:377,2.360,-0.002,-0.012,-0.001,-9.016,13.019,8.411
09:18:00:458,2.441,0.005,-0.014,0.011,-9.022,13.055,8.369
09:18:00:459,2.442,0.006,-0.010,-0.003,-9.028,13.101,8.285
09:18:00:46,2.443,0.007,-0.011,0.002,-9.028,13.114,8.187
09:18:00:509,2.491,0.005,-0.011,-0.001,-9.029,13.124,8.119
09:18:00:534,2.517,0.013,-0.009,0.006,-9.026,13.133,8.017
09:18:00:56,2.543,0.017,-0.011,-0.001,-9.026,13.135,7.956
09:18:00:561,2.544,0.013,-0.011,0.005,-9.021,13.131,7.881
09:18:00:584,2.567,0.011,-0.010,0.001,-9.020,13.133,7.820
09:18:00:665,2.648,0.012,-0.013,0.006,-9.021,13.132,7.795
09:18:00:695,2.677,0.014,-0.011,0.005,-9.021,13.129,7.753
09:18:00:696,2.678,0.009,-0.014,-0.001,-9.021,13.126,7.735
09:18:00:696,2.679,0.012,-0.009,-0.001,-9.019,13.124,7.724
09:18:00:715,2.698,0.004,-0.012,0.007,-9.015,13.135,7.726
09:18:00:77,2.753,0.012,-0.009,0.006,-9.023,13.142,7.727
09:18:00:771,2.754,0.009,-0.009,0.005,-9.023,13.142,7.727
09:18:00:823,2.806,0.008,-0.011,0.002,-9.023,13.142,7.727
09:18:00:823,2.806,0.010,-0.010,0.008,-9.023,13.142,7.727
09:18:00:848,2.831,0.009,-0.012,0.004,-9.023,13.142,7.727
09:18:00:9,2.883,0.009,-0.011,0.003,-9.024,13.149,7.720
09:18:00:928,2.911,0.005,-0.012,0.004,-9.024,13.155,7.701
09:18:00:929,2.912,0.013,-0.009,0.004,-9.027,13.155,7.687
09:18:00:951,2.934,0.005,-0.012,0.003,-9.021,13.162,7.660
09:18:00:978,2.961,0.014,-0.009,-0.002,-9.021,13.161,7.636
09:18:01:033,3.016,0.006,-0.011,-0.002,-9.021,13.164,7.600
09:18:01:034,3.016,0.009,-0.009,-0.004,-9.025,13.178,7.560
09:18:01:056,3.039,0.014,-0.013,0.006,-9.025,13.177,7.535
09:18:01:083,3.066,0.012,-0.010,-0.003,-9.013,13.156,7.495
09:18:01:109,3.092,0.018,-0.011,-0.001,-9.019,13.146,7.480
09:18:01:165,3.148,0.009,-0.011,-0.005,-9.014,13.149,7.464
09:18:01:165,3.148,0.012,-0.008,0.007,-9.017,13.149,7.450
09:18:01:219,3.202,0.012,-0.011,-0.004,-9.014,13.146,7.447
09:18:01:219,3.202,0.018,-0.009,0.001,-9.010,13.128,7.444
09:18:01:3,3.283,0.013,-0.012,0.001,-9.010,13.128,7.444
09:18:01:3,3.283,0.013,-0.011,0.008,-9.010,13.128,7.444
09:18:01:3,3.283,0.014,-0.011,0.000,-9.017,13.121,7.446
09:18:01:348,3.331,0.015,-0.009,0.006,-9.009,13.089,7.458
09:18:01:349,3.332,0.009,-0.009,0.000,-9.005,13.060,7.492
09:18:01:371,3.354,0.006,-0.010,0.006,-9.006,13.055,7.510
09:18:01:4,3.383,0.006,-0.010,-0.002,-9.001,13.018,7.527
09:18:01:425,3.408,0.009,-0.009,0.005,-8.989,13.000,7.530
09:18:01:48,3.463,0.013,-0.009,0.006,-8.978,12.999,7.524
09:18:01:48,3.463,0.007,-0.013,0.003,-8.970,12.999,7.530
09:18:01:503,3.486,0.013,-0.015,0.005,-8.966,12.981,7.527
09:18:01:53,3.513,0.012,-0.010,0.004,-8.968,12.963,7.532
09:18:01:555,3.538,0.012,-0.009,0.001,-8.968,12.963,7.532
09:18:01:611,3.594,0.011,-0.010,0.008,-8.968,12.963,7.532
09:18:01:638,3.620,0.007,-0.011,0.004,-8.968,12.969,7.514
09:18:01:638,3.620,0.013,-0.009,-0.001,-8.968,12.966,7.496
09:18:01:66,3.643,0.010,-0.007,0.005,-8.966,12.963,7.460
09:18:01:687,3.670,0.010,-0.010,0.001,-8.965,12.966,7.424
09:18:01:771,3.754,0.016,-0.011,0.005,-8.962,12.968,7.402
09:18:01:772,3.755,0.012,-0.010,-0.003,-8.963,12.967,7.377
09:18:01:772,3.755,0.010,-0.010,0.004,-8.963,12.967,7.377
09:18:01:791,3.774,0.014,-0.008,-0.003,-8.963,12.967,7.377
09:18:01:821,3.804,0.014,-0.010,0.004,-8.963,12.967,7.377
09:18:01:903,3.886,0.013,-0.012,0.000,-8.963,12.967,7.377
09:18:01:903,3.886,0.006,-0.012,0.003,-8.963,12.967,7.377
09:18:01:904,3.887,0.008,-0.009,-0.003,-8.963,12.967,7.377
09:18:01:924,3.907,0.013,-0.009,0.009,-8.963,12.967,7.377
09:18:01:949,3.932,0.015,-0.009,0.005,-8.963,12.967,7.377
09:18:02:004,3.987,0.014,-0.011,0.008,-8.963,12.967,7.377
09:18:02:005,3.988,0.010,-0.013,-0.001,-8.959,12.970,7.380
09:18:02:058,4.041,0.015,-0.011,0.006,-8.959,12.970,7.380
09:18:02:058,4.041,0.015,-0.010,0.004,-8.959,12.970,7.380
09:18:02:08,4.063,0.012,-0.008,0.001,-8.959,12.970,7.380
09:18:02:136,4.119,0.014,-0.010,0.004,-8.959,12.970,7.380
09:18:02:136,4.119,0.016,-0.011,0.007,-8.959,12.970,7.380
09:18:02:188,4.171,0.018,-0.012,0.003,-8.959,12.970,7.380
09:18:02:189,4.171,0.015,-0.010,0.002,-8.959,12.970,7.380
09:18:02:27,4.253,0.012,-0.012,0.003,-8.959,12.970,7.380
09:18:02:27,4.253,0.017,-0.011,0.008,-8.959,12.970,7.380
09:18:02:323,4.306,0.011,-0.008,0.001,-8.959,12.970,7.380
09:18:02:323,4.306,0.014,-0.011,0.004,-8.959,12.970,7.380
09:18:02:323,4.306,0.016,-0.009,0.004,-8.959,12.970,7.380
09:18:02:343,4.326,0.014,-0.013,0.005,-8.959,12.970,7.380
09:18:02:369,4.352,0.011,-0.012,0.001,-8.959,12.970,7.380
09:18:02:395,4.378,0.012,-0.010,0.005,-8.965,12.969,7.389
09:18:02:481,4.464,0.014,-0.012,-0.001,-8.964,12.975,7.395
09:18:02:481,4.464,0.018,-0.011,0.007,-8.965,12.971,7.406
09:18:02:481,4.464,0.010,-0.009,0.000,-8.964,12.970,7.413
09:18:02:502,4.485,0.013,-0.011,0.009,-8.967,12.973,7.417
09:18:02:528,4.511,0.009,-0.009,-0.002,-8.967,12.973,7.417
09:18:02:611,4.594,0.015,-0.011,0.009,-8.967,12.973,7.417
09:18:02:612,4.594,0.013,-0.012,0.003,-8.967,12.973,7.417
09:18:02:613,4.595,0.012,-0.010,0.008,-8.967,12.973,7.417
09:18:02:631,4.614,0.011,-0.012,0.003,-8.967,12.973,7.417
09:18:02:659,4.642,0.012,-0.013,0.010,-8.967,12.973,7.417
09:18:02:742,4.725,0.009,-0.010,0.005,-8.967,12.973,7.417
09:18:02:743,4.726,0.011,-0.013,0.010,-8.967,12.973,7.417
09:18:02:744,4.727,0.012,-0.009,0.007,-8.967,12.973,7.417
09:18:02:762,4.745,0.014,-0.011,0.011,-8.967,12.973,7.417
09:18:02:789,4.772,0.013,-0.009,0.004,-8.970,12.969,7.422
09:18:02:844,4.827,0.014,-0.010,0.008,-8.981,12.972,7.420
09:18:02:845,4.828,0.012,-0.010,0.002,-8.984,12.967,7.425
09:18:02:869,4.852,0.012,-0.012,0.004,-8.992,12.967,7.419
09:18:02:895,4.878,0.010,-0.008,0.004,-8.992,12.967,7.419
09:18:02:921,4.903,0.012,-0.009,0.009,-9.010,12.969,7.419
09:18:02:975,4.958,0.012,-0.014,0.005,-9.017,12.961,7.421
09:18:02:976,4.959,0.009,-0.010,0.001,-9.017,12.961,7.421
09:18:03:,4.983,0.013,-0.008,0.004,-9.017,12.961,7.421
09:18:03:025,5.008,0.012,-0.014,0.004,-9.017,12.961,7.421
09:18:03:051,5.034,0.013,-0.010,0.009,-9.017,12.961,7.421
09:18:03:078,5.061,0.013,-0.011,0.008,-9.017,12.961,7.421
09:18:03:104,5.087,0.014,-0.011,0.005,-9.017,12.961,7.421
09:18:03:16,5.143,0.011,-0.009,-0.004,-9.017,12.961,7.421
09:18:03:16,5.143,0.011,-0.009,0.006,-9.021,12.972,7.417
09:18:03:212,5.194,0.008,-0.008,0.000,-9.018,12.975,7.420
09:18:03:213,5.195,0.012,-0.011,0.006,-9.018,12.975,7.420
09:18:03:236,5.218,0.011,-0.012,-0.002,-9.018,12.975,7.420
09:18:03:291,5.274,0.013,-0.010,0.004,-9.018,12.975,7.420
09:18:03:291,5.274,0.013,-0.008,0.001,-9.018,12.975,7.420
09:18:03:314,5.297,0.015,-0.012,0.009,-9.018,12.975,7.420
09:18:03:34,5.323,0.014,-0.008,-0.001,-9.018,12.975,7.420
09:18:03:367,5.350,0.015,-0.010,0.007,-9.018,12.978,7.438
09:18:03:45,5.432,0.010,-0.010,0.001,-9.021,12.976,7.460
09:18:03:45,5.433,0.013,-0.011,0.011,-9.026,12.976,7.493
09:18:03:476,5.459,0.009,-0.010,0.004,-9.023,12.982,7.513
09:18:03:476,5.459,0.013,-0.011,0.007,-9.024,12.979,7.549
09:18:03:498,5.481,0.010,-0.011,0.002,-9.024,12.973,7.568
09:18:03:583,5.566,0.013,-0.009,0.010,-9.026,12.978,7.596
09:18:03:584,5.567,0.015,-0.010,0.006,-9.024,12.971,7.629
09:18:03:584,5.567,0.012,-0.011,0.003,-9.022,12.950,7.655
09:18:03:603,5.586,0.010,-0.013,0.005,-9.017,12.890,7.702
09:18:03:629,5.612,0.014,-0.013,0.010,-9.007,12.843,7.748
09:18:03:709,5.692,0.017,-0.007,0.002,-9.004,12.817,7.799
09:18:03:739,5.722,0.010,-0.009,0.000,-8.987,12.821,7.852
09:18:03:74,5.723,0.011,-0.010,0.003,-8.986,12.803,7.897
09:18:03:741,5.724,0.013,-0.012,0.008,-8.988,12.776,7.957
09:18:03:761,5.743,0.006,-0.011,0.008,-8.985,12.776,7.995
09:18:03:846,5.829,0.010,-0.011,0.007,-8.982,12.738,8.059
09:18:03:846,5.829,0.009,-0.009,0.003,-8.973,12.693,8.097
09:18:03:847,5.830,0.008,-0.012,0.010,-8.963,12.614,8.148
09:18:03:867,5.850,0.014,-0.013,0.006,-8.958,12.577,8.165
09:18:03:892,5.875,0.013,-0.012,0.011,-8.960,12.579,8.176
09:18:03:948,5.931,0.012,-0.011,0.008,-8.958,12.572,8.183
09:18:03:948,5.931,0.012,-0.010,0.000,-8.958,12.572,8.183
09:18:03:97,5.953,0.011,-0.009,0.008,-8.964,12.597,8.179
09:18:03:999,5.981,0.009,-0.012,0.000,-8.970,12.630,8.173
09:18:04:024,6.006,0.012,-0.011,0.010,-8.971,12.644,8.172
09:18:04:077,6.060,0.010,-0.008,0.004,-8.973,12.666,8.170
09:18:04:136,6.119,0.010,-0.012,0.009,-8.978,12.690,8.166
09:18:04:136,6.119,0.009,-0.009,0.005,-8.977,12.709,8.160
09:18:04:137,6.120,0.010,-0.013,0.007,-8.984,12.715,8.161
09:18:04:154,6.137,0.009,-0.012,0.003,-8.973,12.720,8.162
09:18:04:18,6.163,0.013,-0.011,0.012,-8.971,12.716,8.158
09:18:04:209,6.191,0.012,-0.011,0.004,-8.967,12.728,8.160
09:18:04:262,6.245,0.011,-0.012,0.012,-8.973,12.761,8.154
09:18:04:263,6.246,0.010,-0.011,0.005,-8.974,12.774,8.154
09:18:04:285,6.268,0.010,-0.009,0.013,-8.974,12.807,8.147
09:18:04:311,6.294,0.009,-0.009,0.005,-8.974,12.807,8.147
09:18:04:342,6.325,0.009,-0.009,0.006,-8.975,12.829,8.145
09:18:04:342,6.325,0.009,-0.012,0.009,-8.975,12.829,8.145
09:18:04:422,6.405,0.015,-0.010,0.008,-8.975,12.829,8.145
09:18:04:423,6.406,0.014,-0.008,0.004,-8.975,12.861,8.139
09:18:04:424,6.407,0.012,-0.009,0.010,-8.965,12.920,8.131
09:18:04:472,6.455,0.012,-0.012,0.010,-8.957,12.946,8.124
09:18:04:473,6.456,0.008,-0.010,0.013,-8.954,12.957,8.126
09:18:04:554,6.537,0.013,-0.011,0.012,-8.954,12.957,8.126
09:18:04:555,6.538,0.011,-0.011,0.009,-8.958,12.968,8.122
09:18:04:555,6.538,0.011,-0.012,0.014,-8.955,12.979,8.124
09:18:04:605,6.588,0.011,-0.011,0.013,-8.960,12.990,8.120
09:18:04:605,6.588,0.013,-0.012,0.011,-8.966,13.015,8.115
09:18:04:686,6.669,0.013,-0.008,0.009,-8.968,13.043,8.114
09:18:04:686,6.669,0.016,-0.013,0.013,-8.972,13.094,8.103
09:18:04:686,6.669,0.013,-0.005,0.005,-8.966,13.128,8.088
09:18:04:706,6.689,0.015,-0.009,0.010,-8.961,13.177,8.071
09:18:04:731,6.714,0.012,-0.006,0.002,-8.958,13.240,8.047
09:18:04:787,6.770,0.005,-0.014,0.012,-8.958,13.295,8.039
09:18:04:788,6.771,0.008,-0.011,0.005,-8.952,13.336,8.023
09:18:04:812,6.795,0.005,-0.015,0.014,-8.965,13.371,8.008
09:18:04:837,6.820,0.009,-0.010,0.004,-8.986,13.381,7.969
09:18:04:921,6.904,0.012,-0.012,0.006,-9.006,13.375,7.937
09:18:04:922,6.905,0.009,-0.011,0.002,-9.028,13.396,7.880
09:18:04:922,6.905,0.011,-0.011,0.015,-9.043,13.419,7.820
09:18:04:942,6.924,0.012,-0.011,0.004,-9.047,13.418,7.775
09:18:04:97,6.953,0.013,-0.014,0.010,-9.063,13.419,7.703
09:18:04:995,6.978,0.012,-0.008,0.003,-9.071,13.416,7.655
09:18:05:021,7.003,0.013,-0.013,0.011,-9.080,13.414,7.599
09:18:05:046,7.029,0.007,-0.016,0.006,-9.074,13.418,7.555
09:18:05:075,7.058,0.016,-0.008,0.010,-9.069,13.418,7.522
09:18:05:101,7.084,0.005,-0.011,0.006,-9.062,13.436,7.483
09:18:05:184,7.166,0.011,-0.010,0.007,-9.060,13.452,7.460
09:18:05:184,7.167,0.013,-0.012,0.007,-9.074,13.447,7.421
09:18:05:185,7.168,0.012,-0.011,0.006,-9.076,13.454,7.388
09:18:05:233,7.216,0.009,-0.006,0.006,-9.071,13.454,7.355
09:18:05:234,7.217,0.010,-0.013,0.008,-9.062,13.457,7.325
09:18:05:285,7.268,0.008,-0.011,0.001,-9.059,13.461,7.295
09:18:05:286,7.269,0.010,-0.011,0.006,-9.053,13.459,7.269
09:18:05:309,7.292,0.008,-0.009,0.008,-9.052,13.477,7.264
09:18:05:396,7.379,0.009,-0.009,0.004,-9.050,13.504,7.257
09:18:05:396,7.379,0.008,-0.013,0.007,-9.044,13.505,7.249
09:18:05:396,7.379,0.014,-0.009,0.008,-9.039,13.506,7.241
09:18:05:416,7.399,0.009,-0.013,0.007,-9.033,13.507,7.232
09:18:05:441,7.424,0.007,-0.010,0.003,-9.031,13.526,7.227
09:18:05:525,7.507,0.011,-0.010,0.006,-9.029,13.522,7.223
09:18:05:526,7.508,0.009,-0.011,-0.001,-9.021,13.524,7.221
09:18:05:526,7.509,0.002,-0.015,0.008,-9.012,13.528,7.216
09:18:05:546,7.528,0.007,-0.011,0.003,-9.005,13.530,7.214
09:18:05:572,7.555,0.010,-0.009,0.009,-9.002,13.526,7.210
09:18:05:656,7.639,0.008,-0.012,0.000,-8.992,13.530,7.205
09:18:05:657,7.640,0.010,-0.011,0.007,-8.985,13.532,7.203
09:18:05:657,7.640,0.002,-0.012,0.002,-8.987,13.539,7.195
09:18:05:676,7.659,0.011,-0.011,0.008,-8.978,13.551,7.189
09:18:05:702,7.685,0.011,-0.008,0.000,-8.975,13.556,7.184
09:18:05:789,7.772,0.011,-0.009,0.005,-8.975,13.556,7.184
09:18:05:789,7.772,0.007,-0.010,0.005,-8.979,13.558,7.182
09:18:05:789,7.772,0.008,-0.010,0.010,-8.981,13.581,7.180
09:18:05:809,7.792,0.008,-0.009,0.002,-8.981,13.581,7.180
09:18:05:89,7.873,0.008,-0.012,0.005,-8.981,13.581,7.180
09:18:05:891,7.874,0.008,-0.012,0.011,-8.982,13.594,7.179
09:18:05:913,7.896,0.012,-0.009,0.004,-8.982,13.594,7.179
09:18:05:939,7.922,0.008,-0.013,0.003,-8.982,13.594,7.179
09:18:05:966,7.949,0.009,-0.009,0.002,-8.994,13.612,7.176
09:18:05:992,7.975,0.012,-0.011,0.006,-8.995,13.626,7.175
09:18:06:018,8.000,0.012,-0.009,0.003,-9.006,13.629,7.173
09:18:06:044,8.027,0.011,-0.009,0.002,-9.006,13.629,7.173
09:18:06:07,8.053,0.009,-0.011,0.006,-9.006,13.629,7.173
09:18:06:098,8.081,0.010,-0.009,0.006,-9.006,13.629,7.173
09:18:06:123,8.106,0.007,-0.012,0.006,-9.006,13.629,7.173
09:18:06:149,8.132,0.006,-0.010,-0.003,-9.006,13.629,7.173
09:18:06:205,8.188,0.013,-0.012,0.003,-9.008,13.636,7.166
09:18:06:205,8.188,0.011,-0.010,-0.002,-9.008,13.636,7.166
09:18:06:228,8.210,0.012,-0.007,0.001,-9.008,13.636,7.166
09:18:06:254,8.237,0.011,-0.008,-0.004,-9.008,13.636,7.166
09:18:06:281,8.264,0.015,-0.010,0.005,-9.008,13.636,7.166
09:18:06:365,8.348,0.011,-0.011,-0.003,-9.008,13.636,7.166
09:18:06:365,8.348,0.013,-0.010,0.004,-9.008,13.636,7.166
09:18:06:366,8.349,0.011,-0.009,-0.002,-9.008,13.636,7.166
09:18:06:385,8.368,0.013,-0.012,0.005,-9.008,13.636,7.166
09:18:06:414,8.396,0.008,-0.011,-0.004,-9.008,13.636,7.166
09:18:06:496,8.479,0.011,-0.011,0.004,-9.008,13.636,7.166
09:18:06:497,8.480,0.011,-0.010,0.001,-9.008,13.636,7.166
09:18:06:498,8.481,0.014,-0.010,0.002,-9.010,13.672,7.163
09:18:06:516,8.499,0.009,-0.011,0.001,-9.020,13.708,7.155
09:18:06:543,8.526,0.013,-0.013,0.003,-9.023,13.709,7.141
09:18:06:631,8.614,0.014,-0.011,0.000,-9.024,13.722,7.115
09:18:06:632,8.615,0.009,-0.011,0.002,-9.025,13.741,7.096
09:18:06:632,8.615,0.011,-0.009,0.002,-9.027,13.748,7.063
09:18:06:633,8.616,0.011,-0.008,0.004,-9.027,13.747,7.038
09:18:06:678,8.661,0.015,-0.012,-0.003,-9.026,13.750,7.002
09:18:06:678,8.661,0.015,-0.011,0.003,-9.024,13.745,6.974
09:18:06:761,8.744,0.016,-0.007,-0.001,-9.021,13.750,6.969
09:18:06:762,8.744,0.013,-0.012,0.000,-9.022,13.764,6.968
09:18:06:762,8.744,0.017,-0.011,-0.001,-9.022,13.764,6.968
09:18:06:808,8.791,0.014,-0.011,-0.001,-9.022,13.764,6.968
09:18:06:809,8.792,0.011,-0.012,0.001,-9.022,13.764,6.968
09:18:06:86,8.843,0.010,-0.010,0.000,-9.022,13.764,6.968
09:18:06:861,8.844,0.012,-0.011,0.002,-9.022,13.764,6.968
09:18:06:886,8.869,0.011,-0.011,-0.005,-9.022,13.764,6.968
09:18:06:91,8.893,0.012,-0.012,-0.003,-9.022,13.764,6.968
09:18:06:937,8.919,0.011,-0.009,-0.003,-9.027,13.775,6.965
09:18:06:964,8.947,0.012,-0.012,-0.003,-9.027,13.775,6.965
09:18:06:989,8.972,0.013,-0.011,-0.002,-9.027,13.775,6.965
09:18:07:045,9.028,0.010,-0.011,0.003,-9.025,13.793,6.959
09:18:07:045,9.028,0.008,-0.014,-0.005,-9.032,13.800,6.960
09:18:07:068,9.051,0.012,-0.012,0.000,-9.029,13.811,6.962
09:18:07:097,9.080,0.008,-0.006,-0.007,-9.035,13.836,6.957
09:18:07:123,9.106,0.013,-0.010,0.003,-9.036,13.849,6.956
09:18:07:176,9.159,0.013,-0.008,-0.004,-9.036,13.849,6.956
09:18:07:176,9.159,0.016,-0.008,0.000,-9.036,13.849,6.956
09:18:07:202,9.185,0.011,-0.011,-0.002,-9.033,13.854,6.952
09:18:07:226,9.209,0.014,-0.013,0.003,-9.033,13.854,6.952
09:18:07:251,9.234,0.013,-0.012,-0.002,-9.033,13.854,6.952
09:18:07:337,9.319,0.012,-0.011,0.001,-9.033,13.854,6.952
09:18:07:338,9.320,0.013,-0.010,0.000,-9.033,13.854,6.952
09:18:07:338,9.321,0.014,-0.011,0.002,-9.033,13.854,6.952
09:18:07:359,9.342,0.013,-0.010,-0.005,-9.033,13.854,6.952
09:18:07:383,9.366,0.017,-0.009,0.002,-9.033,13.854,6.952
09:18:07:468,9.451,0.009,-0.012,-0.002,-9.036,13.852,6.974
09:18:07:468,9.451,0.009,-0.012,0.001,-9.033,13.858,6.994
09:18:07:469,9.452,0.010,-0.009,0.002,-9.035,13.859,7.005
09:18:07:488,9.471,0.011,-0.012,0.001,-9.035,13.859,7.005
09:18:07:514,9.497,0.007,-0.011,0.005,-9.039,13.870,7.001
09:18:07:599,9.582,0.010,-0.009,0.002,-9.041,13.893,6.999
09:18:07:6,9.583,0.014,-0.012,0.001,-9.038,13.889,6.996
09:18:07:6,9.583,0.015,-0.009,0.001,-9.038,13.889,6.996
09:18:07:619,9.602,0.014,-0.013,0.003,-9.038,13.889,6.996
09:18:07:645,9.628,0.013,-0.011,0.004,-9.038,13.889,6.996
09:18:07:701,9.684,0.012,-0.010,0.000,-9.038,13.889,6.996
09:18:07:702,9.685,0.009,-0.010,-0.005,-9.038,13.889,6.996
09:18:07:753,9.736,0.012,-0.012,0.004,-9.038,13.889,6.996
09:18:07:754,9.737,0.010,-0.011,0.000,-9.038,13.889,6.996
09:18:07:835,9.818,0.011,-0.011,-0.002,-9.038,13.889,6.996
09:18:07:835,9.818,0.010,-0.009,-0.004,-9.038,13.889,6.996
09:18:07:836,9.819,0.016,-0.012,0.004,-9.038,13.889,6.996
09:18:07:886,9.868,0.014,-0.008,-0.004,-9.038,13.889,6.996
09:18:07:886,9.868,0.016,-0.011,0.005,-9.038,13.889,6.996
09:18:07:936,9.919,0.013,-0.009,-0.006,-9.038,13.889,6.996
09:18:07:963,9.946,0.014,-0.011,0.002,-9.038,13.892,7.013
09:18:07:964,9.947,0.012,-0.011,0.001,-9.042,13.895,7.035
09:18:08:015,9.998,0.012,-0.010,0.003,-9.037,13.893,7.063
09:18:08:016,9.999,0.013,-0.008,-0.001,-9.041,13.892,7.085
09:18:08:068,10.051,0.014,-0.008,0.007,-9.040,13.892,7.110
09:18:08:069,10.052,0.013,-0.011,-0.002,-9.044,13.891,7.132
09:18:08:093,10.076,0.015,-0.009,0.004,-9.044,13.893,7.150
09:18:08:147,10.130,0.012,-0.011,-0.002,-9.044,13.888,7.168
09:18:08:148,10.131,0.014,-0.009,0.005,-9.049,13.893,7.183
09:18:08:17,10.153,0.009,-0.013,0.003,-9.031,13.892,7.208
09:18:08:196,10.179,0.014,-0.013,0.004,-9.022,13.899,7.220
09:18:08:223,10.206,0.011,-0.009,0.000,-9.022,13.899,7.220
09:18:08:277,10.259,0.012,-0.013,0.007,-9.022,13.899,7.220
09:18:08:303,10.286,0.013,-0.011,0.002,-9.022,13.899,7.220
09:18:08:331,10.314,0.013,-0.012,0.005,-9.022,13.899,7.220
09:18:08:331,10.314,0.014,-0.010,0.004,-9.022,13.899,7.220
09:18:08:354,10.337,0.012,-0.012,0.008,-9.023,13.921,7.218
09:18:08:41,10.393,0.014,-0.008,0.007,-9.027,13.932,7.214
09:18:08:411,10.394,0.011,-0.010,-0.002,-9.027,13.932,7.214
09:18:08:435,10.418,0.011,-0.011,0.002,-9.027,13.932,7.214
09:18:08:461,10.443,0.008,-0.012,0.000,-9.028,13.938,7.214
09:18:08:487,10.470,0.011,-0.013,0.008,-9.029,13.946,7.213
09:18:08:539,10.522,0.010,-0.010,-0.002,-9.029,13.946,7.213
09:18:08:567,10.550,0.015,-0.009,0.005,-9.029,13.946,7.213
09:18:08:568,10.551,0.011,-0.010,-0.003,-9.029,13.946,7.213
09:18:08:592,10.575,0.013,-0.010,0.004,-9.029,13.946,7.213
09:18:08:617,10.600,0.013,-0.009,-0.001,-9.029,13.946,7.213
09:18:08:671,10.654,0.019,-0.010,0.008,-9.029,13.946,7.213
09:18:08:698,10.681,0.011,-0.008,-0.001,-9.029,13.946,7.213
09:18:08:699,10.682,0.013,-0.009,0.007,-9.029,13.946,7.213
09:18:08:752,10.735,0.011,-0.011,0.004,-9.029,13.946,7.213
09:18:08:753,10.736,0.012,-0.013,0.008,-9.030,13.953,7.206
09:18:08:863,10.846,0.013,-0.010,-0.002,-9.030,13.953,7.206
09:18:08:863,10.846,0.018,-0.010,0.004,-9.030,13.953,7.206
09:18:08:864,10.847,0.013,-0.010,-0.001,-9.030,13.953,7.206
09:18:08:865,10.848,0.018,-0.012,0.007,-9.030,13.953,7.206
09:18:08:879,10.862,0.015,-0.010,0.003,-9.034,13.951,7.228
09:18:08:937,10.920,0.014,-0.009,0.006,-9.031,13.950,7.242
09:18:08:938,10.921,0.011,-0.011,0.003,-9.031,13.951,7.267
09:18:08:939,10.922,0.014,-0.009,0.005,-9.030,13.952,7.292
09:18:08:989,10.972,0.015,-0.008,0.003,-9.031,13.955,7.309
09:18:08:989,10.972,0.014,-0.011,0.006,-9.033,13.957,7.320
09:18:09:069,11.052,0.011,-0.010,0.008,-9.035,13.967,7.330
09:18:09:069,11.052,0.011,-0.012,0.012,-9.037,14.003,7.327
09:18:09:07,11.053,0.013,-0.011,0.006,-9.039,14.010,7.320
09:18:09:118,11.101,0.015,-0.010,0.003,-9.039,14.010,7.320
09:18:09:119,11.102,0.016,-0.011,0.006,-9.039,14.010,7.320
09:18:09:141,11.124,0.012,-0.009,0.001,-9.044,14.016,7.335
09:18:09:168,11.151,0.013,-0.011,0.007,-9.043,14.037,7.347
09:18:09:194,11.177,0.012,-0.012,-0.002,-9.043,14.037,7.347
09:18:09:28,11.263,0.013,-0.010,0.007,-9.043,14.037,7.347
09:18:09:28,11.263,0.014,-0.012,-0.001,-9.043,14.037,7.347
09:18:09:28,11.263,0.013,-0.008,0.005,-9.043,14.037,7.347
09:18:09:3,11.283,0.015,-0.010,0.001,-9.044,14.042,7.347
09:18:09:326,11.309,0.014,-0.009,0.007,-9.044,14.042,7.347
09:18:09:41,11.393,0.011,-0.011,0.001,-9.044,14.042,7.347
09:18:09:411,11.394,0.015,-0.010,0.007,-9.044,14.042,7.347
09:18:09:412,11.395,0.010,-0.010,0.000,-9.044,14.042,7.347
09:18:09:43,11.413,0.011,-0.010,0.011,-9.044,14.042,7.347
09:18:09:457,11.440,0.012,-0.008,0.001,-9.044,14.042,7.347
09:18:09:512,11.495,0.015,-0.010,0.007,-9.044,14.042,7.347
09:18:09:513,11.496,0.013,-0.008,0.004,-9.044,14.042,7.347
09:18:09:538,11.521,0.012,-0.010,0.010,-9.044,14.042,7.347
09:18:09:562,11.544,0.012,-0.009,0.003,-9.044,14.042,7.347
09:18:09:646,11.629,0.012,-0.010,0.005,-9.042,14.043,7.353
09:18:09:647,11.630,0.014,-0.010,0.006,-9.045,14.041,7.375
09:18:09:648,11.631,0.012,-0.009,0.004,-9.048,14.043,7.386
09:18:09:696,11.679,0.011,-0.012,0.006,-9.048,14.043,7.386
09:18:09:696,11.679,0.010,-0.012,0.009,-9.048,14.043,7.386
09:18:09:807,11.790,0.009,-0.010,0.005,-9.048,14.043,7.386
09:18:09:807,11.790,0.012,-0.012,0.007,-9.047,14.050,7.393
09:18:09:808,11.791,0.010,-0.009,0.007,-9.047,14.050,7.393
09:18:09:809,11.792,0.012,-0.008,0.009,-9.047,14.050,7.393
09:18:09:825,11.808,0.009,-0.010,0.008,-9.047,14.050,7.393
09:18:09:852,11.835,0.011,-0.008,0.010,-9.047,14.050,7.393
09:18:09:908,11.891,0.012,-0.010,0.007,-9.047,14.050,7.393
09:18:09:908,11.891,0.013,-0.009,0.006,-9.046,14.056,7.399
09:18:09:93,11.912,0.015,-0.009,0.009,-9.045,14.051,7.424
09:18:09:956,11.938,0.010,-0.013,0.002,-9.045,14.052,7.449
09:18:10:04,12.023,0.006,-0.012,0.008,-9.037,14.067,7.479
09:18:10:041,12.024,0.014,-0.009,0.002,-9.038,14.064,7.514
09:18:10:041,12.024,0.009,-0.011,0.008,-9.038,14.065,7.539
09:18:10:09,12.073,0.009,-0.010,0.000,-9.036,14.067,7.571
09:18:10:09,12.073,0.013,-0.007,0.009,-9.039,14.065,7.593
09:18:10:143,12.126,0.009,-0.011,0.004,-9.044,14.077,7.614
09:18:10:143,12.126,0.012,-0.008,0.013,-9.042,14.098,7.626
09:18:10:166,12.149,0.007,-0.012,0.004,-9.049,14.117,7.640
09:18:10:25,12.233,0.007,-0.011,0.011,-9.047,14.130,7.653
09:18:10:25,12.233,0.008,-0.010,0.004,-9.047,14.130,7.653
09:18:10:274,12.257,0.013,-0.015,0.012,-9.047,14.130,7.653
09:18:10:274,12.257,0.009,-0.010,0.007,-9.047,14.130,7.653
09:18:10:296,12.279,0.012,-0.011,0.013,-9.047,14.130,7.653
09:18:10:353,12.336,0.011,-0.009,0.007,-9.047,14.130,7.653
09:18:10:354,12.337,0.012,-0.013,0.012,-9.047,14.130,7.653
09:18:10:376,12.359,0.012,-0.010,0.009,-9.047,14.130,7.653
09:18:10:402,12.385,0.011,-0.011,0.010,-9.052,14.141,7.649
09:18:10:428,12.411,0.012,-0.010,0.009,-9.050,14.151,7.644
09:18:10:513,12.495,0.009,-0.009,0.012,-9.050,14.151,7.644
09:18:10:514,12.496,0.009,-0.010,0.008,-9.050,14.151,7.644
09:18:10:514,12.497,0.009,-0.011,0.012,-9.050,14.151,7.644
09:18:10:533,12.516,0.011,-0.014,0.010,-9.050,14.151,7.644
09:18:10:561,12.544,0.015,-0.010,0.011,-9.050,14.151,7.644
09:18:10:615,12.598,0.015,-0.011,0.008,-9.050,14.151,7.644
09:18:10:615,12.598,0.011,-0.013,0.009,-9.050,14.160,7.643
09:18:10:638,12.621,0.012,-0.011,0.013,-9.052,14.162,7.654
09:18:10:666,12.649,0.008,-0.010,0.006,-9.052,14.162,7.654
09:18:10:692,12.675,0.011,-0.009,0.010,-9.054,14.169,7.647
09:18:10:745,12.728,0.009,-0.009,0.002,-9.054,14.169,7.647
09:18:10:773,12.756,0.006,-0.012,0.009,-9.054,14.169,7.647
09:18:10:775,12.758,0.012,-0.010,0.005,-9.054,14.169,7.647
09:18:10:795,12.778,0.009,-0.011,0.012,-9.054,14.169,7.647
09:18:10:88,12.863,0.012,-0.010,0.005,-9.054,14.169,7.647
09:18:10:881,12.864,0.015,-0.010,0.012,-9.054,14.169,7.647
09:18:10:881,12.864,0.013,-0.010,0.006,-9.054,14.169,7.647
09:18:10:929,12.912,0.012,-0.013,0.016,-9.054,14.169,7.647
09:18:10:956,12.938,0.012,-0.010,0.005,-9.054,14.169,7.647
09:18:10:957,12.939,0.014,-0.009,0.010,-9.054,14.169,7.647
09:18:10:98,12.963,0.011,-0.010,0.008,-9.058,14.186,7.650
09:18:11:005,12.988,0.014,-0.011,0.014,-9.058,14.186,7.650
09:18:11:062,13.045,0.012,-0.012,0.009,-9.058,14.186,7.650
09:18:11:062,13.045,0.014,-0.010,0.011,-9.058,14.186,7.650
09:18:11:114,13.096,0.012,-0.007,0.006,-9.058,14.186,7.650
09:18:11:114,13.097,0.014,-0.012,0.013,-9.058,14.186,7.650
09:18:11:137,13.119,0.012,-0.008,0.008,-9.058,14.186,7.650
09:18:11:19,13.173,0.013,-0.011,0.011,-9.058,14.186,7.650
09:18:11:25,13.233,0.010,-0.010,0.006,-9.058,14.186,7.650
09:18:11:251,13.234,0.010,-0.011,0.010,-9.058,14.186,7.650
09:18:11:252,13.235,0.012,-0.012,0.005,-9.058,14.186,7.650
09:18:11:253,13.236,0.016,-0.012,0.014,-9.058,14.186,7.650
09:18:11:326,13.309,0.012,-0.010,0.009,-9.058,14.186,7.650
09:18:11:327,13.310,0.014,-0.011,0.006,-9.058,14.186,7.650
09:18:11:328,13.311,0.014,-0.012,0.012,-9.058,14.186,7.650
09:18:11:377,13.360,0.016,-0.010,0.014,-9.058,14.186,7.650
09:18:11:377,13.360,0.013,-0.009,0.009,-9.058,14.186,7.650
09:18:11:486,13.469,0.014,-0.010,0.010,-9.058,14.186,7.650
09:18:11:487,13.470,0.012,-0.011,0.010,-9.058,14.186,7.650
09:18:11:488,13.471,0.010,-0.009,0.003,-9.058,14.186,7.650
09:18:11:489,13.472,0.013,-0.014,0.010,-9.058,14.186,7.650
09:18:11:505,13.488,0.011,-0.009,0.004,-9.058,14.186,7.650
09:18:11:531,13.514,0.015,-0.011,0.009,-9.058,14.186,7.650
09:18:11:586,13.569,0.011,-0.010,0.004,-9.058,14.186,7.650
09:18:11:587,13.570,0.016,-0.012,0.014,-9.058,14.186,7.650
09:18:11:61,13.593,0.014,-0.011,0.002,-9.042,14.186,7.636
09:18:11:637,13.620,0.012,-0.011,0.014,-9.034,14.191,7.623
09:18:11:663,13.646,0.013,-0.011,0.003,-9.023,14.190,7.617
09:18:11:717,13.700,0.013,-0.012,0.012,-9.015,14.187,7.606
09:18:11:718,13.701,0.009,-0.009,0.007,-9.019,14.198,7.602
09:18:11:741,13.724,0.014,-0.013,0.009,-9.036,14.198,7.591
09:18:11:767,13.750,0.007,-0.008,0.002,-9.047,14.193,7.590
09:18:11:793,13.776,0.017,-0.012,0.006,-9.076,14.189,7.564
09:18:11:907,13.890,0.014,-0.011,0.007,-9.094,14.195,7.520
09:18:11:907,13.890,0.017,-0.011,0.011,-9.110,14.207,7.497
09:18:11:908,13.891,0.015,-0.010,0.004,-9.133,14.204,7.463
09:18:11:909,13.892,0.016,-0.011,0.007,-9.139,14.202,7.447
09:18:11:926,13.909,0.013,-0.007,0.005,-9.157,14.216,7.434
09:18:11:952,13.935,0.013,-0.014,0.011,-9.174,14.238,7.421
09:18:11:977,13.960,0.014,-0.010,0.005,-9.184,14.245,7.408
09:18:12:032,14.015,0.012,-0.012,0.005,-9.193,14.259,7.402
09:18:12:033,14.016,0.015,-0.011,0.007,-9.187,14.260,7.394
09:18:12:056,14.039,0.013,-0.011,0.007,-9.179,14.266,7.381
09:18:12:083,14.066,0.011,-0.015,0.005,-9.173,14.267,7.372
09:18:12:109,14.092,0.013,-0.011,0.002,-9.163,14.265,7.367
09:18:12:161,14.144,0.011,-0.012,0.008,-9.164,14.258,7.361
09:18:12:19,14.172,0.018,-0.006,0.006,-9.153,14.257,7.355
09:18:12:19,14.173,0.013,-0.008,0.009,-9.117,14.230,7.351
09:18:12:215,14.197,0.011,-0.010,-0.002,-9.102,14.218,7.349
09:18:12:241,14.224,0.015,-0.008,0.003,-9.096,14.219,7.341
09:18:12:292,14.275,0.012,-0.009,0.001,-9.076,14.208,7.355
09:18:12:319,14.302,0.012,-0.012,0.008,-9.058,14.194,7.368
09:18:12:347,14.330,0.009,-0.010,-0.003,-9.047,14.171,7.389
09:18:12:348,14.331,0.010,-0.012,0.008,-9.041,14.175,7.398
09:18:12:458,14.441,0.009,-0.008,-0.002,-9.037,14.173,7.426
09:18:12:459,14.442,0.009,-0.011,0.009,-9.028,14.180,7.438
09:18:12:459,14.442,0.011,-0.011,0.004,-9.023,14.169,7.441
09:18:12:46,14.443,0.013,-0.010,0.007,-9.013,14.159,7.437
09:18:12:477,14.460,0.006,-0.010,0.001,-9.005,14.161,7.435
09:18:12:503,14.486,0.008,-0.012,0.006,-9.003,14.157,7.431
09:18:12:586,14.569,0.010,-0.010,0.008,-9.000,14.162,7.427
09:18:12:587,14.570,0.009,-0.011,0.010,-8.997,14.158,7.423
09:18:12:588,14.570,0.011,-0.011,0.002,-8.994,14.163,7.419
09:18:12:607,14.590,0.009,-0.012,0.007,-8.988,14.164,7.410
09:18:12:633,14.616,0.009,-0.011,0.004,-8.981,14.157,7.409
09:18:12:718,14.701,0.011,-0.010,0.009,-8.981,14.157,7.409
09:18:12:718,14.701,0.011,-0.009,0.004,-8.981,14.157,7.409
09:18:12:719,14.702,0.010,-0.011,0.006,-8.981,14.157,7.409
09:18:12:738,14.721,0.011,-0.008,0.002,-8.981,14.157,7.409
09:18:12:764,14.747,0.009,-0.012,0.007,-8.981,14.157,7.409
09:18:12:82,14.803,0.005,-0.011,0.005,-8.982,14.171,7.408
09:18:12:821,14.804,0.005,-0.014,0.008,-8.989,14.186,7.408
09:18:12:872,14.855,0.013,-0.011,0.010,-8.989,14.186,7.408
09:18:12:873,14.856,0.008,-0.012,0.009,-8.989,14.186,7.408
09:18:12:897,14.880,0.010,-0.013,0.009,-8.989,14.186,7.408
09:18:12:951,14.934,0.012,-0.011,0.007,-8.989,14.186,7.408
09:18:12:951,14.934,0.011,-0.011,0.007,-8.989,14.186,7.408
09:18:13:003,14.986,0.006,-0.012,0.001,-8.989,14.186,7.408
09:18:13:004,14.987,0.013,-0.008,0.008,-8.989,14.186,7.408
09:18:13:027,15.010,0.009,-0.011,0.001,-8.989,14.186,7.408
09:18:13:083,15.066,0.011,-0.012,0.006,-8.989,14.186,7.408
09:18:13:083,15.066,0.011,-0.009,-0.002,-8.986,14.189,7.411
09:18:13:135,15.118,0.011,-0.010,0.007,-8.986,14.189,7.411
09:18:13:136,15.118,0.010,-0.009,0.004,-8.988,14.204,7.403
09:18:13:158,15.141,0.011,-0.012,0.008,-8.992,14.213,7.407
09:18:13:186,15.169,0.009,-0.008,-0.002,-8.992,14.213,7.407
09:18:13:21,15.193,0.017,-0.010,0.008,-8.996,14.224,7.403
09:18:13:264,15.247,0.010,-0.012,0.001,-8.997,14.238,7.402
09:18:13:292,15.275,0.014,-0.012,0.008,-8.994,14.243,7.397
09:18:13:293,15.276,0.010,-0.010,0.003,-8.994,14.243,7.397
09:18:13:316,15.298,0.009,-0.011,0.005,-8.994,14.243,7.397
09:18:13:342,15.325,0.010,-0.008,0.005,-8.994,14.243,7.397
09:18:13:456,15.439,0.012,-0.008,0.010,-8.994,14.243,7.397
09:18:13:457,15.440,0.013,-0.010,0.005,-8.997,14.238,7.402
09:18:13:458,15.441,0.014,-0.012,0.004,-8.997,14.238,7.402
09:18:13:458,15.441,0.014,-0.010,0.002,-8.997,14.238,7.402
09:18:13:473,15.456,0.017,-0.011,0.011,-8.997,14.238,7.402
09:18:13:528,15.511,0.014,-0.011,0.003,-8.997,14.238,7.402
09:18:13:529,15.512,0.007,-0.013,0.002,-8.997,14.238,7.402
09:18:13:554,15.537,0.013,-0.009,0.005,-8.997,14.238,7.402
09:18:13:555,15.538,0.017,-0.010,0.008,-8.993,14.235,7.405
09:18:13:578,15.561,0.015,-0.011,0.005,-8.993,14.238,7.422
09:18:13:663,15.646,0.007,-0.011,0.004,-8.996,14.234,7.452
09:18:13:663,15.646,0.011,-0.009,0.006,-8.993,14.234,7.465
09:18:13:664,15.647,0.010,-0.011,0.007,-8.993,14.234,7.465
09:18:13:685,15.668,0.013,-0.009,0.006,-8.993,14.234,7.465
09:18:13:71,15.693,0.010,-0.009,-0.001,-8.993,14.234,7.465
09:18:13:735,15.718,0.012,-0.013,0.008,-8.993,14.234,7.465
09:18:13:792,15.775,0.012,-0.009,0.003,-8.993,14.234,7.465
09:18:13:792,15.775,0.013,-0.010,0.009,-8.993,14.234,7.465
09:18:13:843,15.826,0.009,-0.009,0.000,-8.993,14.234,7.465
09:18:13:869,15.852,0.011,-0.010,0.009,-8.993,14.234,7.465
09:18:13:894,15.877,0.007,-0.011,-0.002,-8.993,14.234,7.465
09:18:13:923,15.906,0.012,-0.013,0.011,-8.993,14.234,7.465
09:18:13:924,15.907,0.011,-0.009,0.001,-8.993,14.234,7.465
09:18:13:975,15.958,0.011,-0.013,0.009,-8.993,14.234,7.465
09:18:13:975,15.958,0.010,-0.008,0.003,-8.993,14.234,7.465
09:18:13:999,15.982,0.009,-0.009,0.013,-8.993,14.234,7.465
09:18:14:024,16.007,0.011,-0.011,0.006,-8.993,14.234,7.465
09:18:14:051,16.034,0.012,-0.007,0.012,-8.993,14.234,7.465
09:18:14:137,16.120,0.011,-0.009,0.005,-8.993,14.234,7.465
09:18:14:137,16.120,0.012,-0.009,0.009,-8.993,14.234,7.465
09:18:14:137,16.120,0.009,-0.011,0.006,-8.993,14.234,7.465
09:18:14:158,16.141,0.013,-0.010,0.012,-8.993,14.234,7.465
09:18:14:184,16.167,0.011,-0.011,0.005,-8.993,14.234,7.465
09:18:14:266,16.249,0.013,-0.012,0.005,-8.993,14.234,7.465
09:18:14:267,16.250,0.010,-0.014,0.003,-8.993,14.234,7.465
09:18:14:268,16.250,0.011,-0.010,0.010,-8.999,14.258,7.461
09:18:14:287,16.269,0.009,-0.010,0.011,-8.999,14.258,7.461
09:18:14:313,16.296,0.008,-0.010,0.007,-8.999,14.258,7.461
09:18:14:367,16.350,0.009,-0.009,0.006,-8.999,14.258,7.461
09:18:14:396,16.379,0.011,-0.010,0.010,-8.999,14.258,7.461
09:18:14:396,16.379,0.010,-0.009,0.011,-8.999,14.258,7.461
09:18:14:418,16.401,0.013,-0.011,0.014,-8.999,14.258,7.461
09:18:14:445,16.427,0.011,-0.011,0.009,-8.999,14.258,7.461
09:18:14:499,16.482,0.011,-0.007,0.004,-8.999,14.258,7.461
09:18:14:5,16.483,0.011,-0.011,0.010,-8.999,14.258,7.461
09:18:14:523,16.506,0.009,-0.010,0.003,-8.999,14.258,7.461
09:18:14:55,16.532,0.010,-0.010,0.007,-8.999,14.258,7.461
09:18:14:634,16.617,0.008,-0.009,0.001,-8.999,14.258,7.461
09:18:14:635,16.618,0.011,-0.009,0.008,-8.999,14.258,7.461
09:18:14:636,16.619,0.007,-0.013,0.004,-8.999,14.258,7.461
09:18:14:654,16.637,0.010,-0.013,0.009,-8.999,14.258,7.461
09:18:14:68,16.663,0.010,-0.009,0.003,-8.999,14.258,7.461
09:18:14:735,16.718,0.010,-0.012,0.010,-8.999,14.258,7.461
09:18:14:762,16.745,0.006,-0.012,0.001,-8.999,14.258,7.461
09:18:14:763,16.746,0.008,-0.013,0.013,-8.999,14.258,7.461
09:18:14:787,16.770,0.011,-0.012,0.007,-8.999,14.258,7.461
09:18:14:812,16.795,0.010,-0.010,0.010,-8.999,14.258,7.461
09:18:14:898,16.881,0.006,-0.009,0.004,-8.999,14.258,7.461
09:18:14:898,16.881,0.007,-0.012,0.011,-8.999,14.258,7.461
09:18:14:898,16.881,0.011,-0.009,0.010,-8.999,14.258,7.461
09:18:14:975,16.958,0.008,-0.010,0.012,-8.999,14.258,7.461
09:18:14:976,16.959,0.006,-0.013,0.007,-8.999,14.258,7.461
09:18:14:977,16.960,0.008,-0.010,0.013,-8.994,14.247,7.465
09:18:14:995,16.978,0.007,-0.012,0.010,-8.994,14.247,7.465
09:18:15:022,17.005,0.007,-0.010,0.008,-8.994,14.247,7.465
09:18:15:107,17.090,0.010,-0.009,0.007,-8.994,14.247,7.465
09:18:15:107,17.090,0.006,-0.013,0.005,-8.994,14.247,7.465
09:18:15:108,17.091,0.010,-0.011,0.010,-8.994,14.247,7.465
09:18:15:127,17.110,0.009,-0.013,0.012,-8.994,14.247,7.465
09:18:15:153,17.136,0.011,-0.008,0.007,-8.997,14.251,7.468
09:18:15:267,17.249,0.005,-0.009,0.008,-8.995,14.250,7.482
09:18:15:268,17.251,0.010,-0.012,0.009,-8.998,14.240,7.505
09:18:15:268,17.251,0.005,-0.009,0.006,-8.996,14.239,7.519
09:18:15:269,17.252,0.005,-0.011,0.012,-8.996,14.240,7.544
09:18:15:285,17.268,0.007,-0.009,0.006,-8.998,14.244,7.547
09:18:15:369,17.352,0.004,-0.013,0.011,-8.994,14.233,7.551
09:18:15:369,17.352,0.009,-0.010,0.008,-8.994,14.233,7.551
09:18:15:37,17.353,0.007,-0.012,0.012,-8.994,14.233,7.551
09:18:15:389,17.372,0.002,-0.008,0.005,-8.998,14.244,7.547
09:18:15:415,17.398,0.005,-0.009,0.011,-9.000,14.257,7.547
09:18:15:468,17.451,0.004,-0.012,0.005,-9.000,14.257,7.547
09:18:15:499,17.482,0.007,-0.011,0.013,-9.000,14.256,7.522
09:18:15:499,17.482,0.005,-0.010,0.001,-8.998,14.255,7.511
09:18:15:521,17.504,0.005,-0.010,0.012,-8.996,14.258,7.500
09:18:15:547,17.530,0.006,-0.010,0.006,-8.996,14.258,7.500
09:18:15:602,17.585,0.006,-0.012,0.011,-8.996,14.258,7.500
09:18:15:603,17.586,0.005,-0.010,0.008,-8.996,14.258,7.500
09:18:15:628,17.610,0.008,-0.011,0.014,-8.996,14.258,7.500
09:18:15:654,17.637,0.003,-0.010,0.009,-8.999,14.262,7.503
09:18:15:679,17.662,0.003,-0.012,0.013,-8.999,14.262,7.503
09:18:15:705,17.688,0.004,-0.011,0.010,-8.999,14.262,7.503
09:18:15:732,17.715,0.005,-0.011,0.006,-8.999,14.259,7.486
09:18:15:758,17.741,0.005,-0.008,0.009,-8.998,14.271,7.474
09:18:15:783,17.766,0.002,-0.011,0.011,-8.998,14.271,7.474
09:18:15:812,17.795,0.007,-0.011,0.011,-8.996,14.269,7.463
09:18:15:813,17.796,0.003,-0.010,0.010,-8.998,14.270,7.449
09:18:15:862,17.845,0.004,-0.009,0.006,-8.998,14.270,7.449
09:18:15:917,17.900,0.002,-0.010,0.011,-8.998,14.270,7.449
09:18:15:943,17.926,0.003,-0.012,0.010,-8.998,14.270,7.449
09:18:15:944,17.927,0.004,-0.009,0.010,-9.000,14.271,7.435
09:18:15:968,17.951,0.001,-0.012,0.002,-9.000,14.277,7.417
09:18:15:995,17.977,0.004,-0.013,0.009,-8.997,14.272,7.388
09:18:16:046,18.029,0.001,-0.011,0.001,-8.997,14.278,7.370
09:18:16:075,18.058,0.007,-0.009,0.009,-9.003,14.293,7.341
09:18:16:076,18.059,0.002,-0.008,-0.002,-9.000,14.298,7.336
09:18:16:098,18.081,0.001,-0.011,0.008,-9.000,14.298,7.336
09:18:16:124,18.107,0.000,-0.012,0.005,-9.001,14.312,7.335
09:18:16:18,18.163,0.002,-0.014,0.010,-9.001,14.312,7.335
09:18:16:181,18.163,-0.001,-0.009,0.004,-9.003,14.313,7.322
09:18:16:204,18.186,0.002,-0.010,0.005,-9.001,14.317,7.317
09:18:16:23,18.212,-0.001,-0.008,0.002,-9.001,14.317,7.317
09:18:16:256,18.239,0.002,-0.011,0.009,-9.001,14.317,7.317
09:18:16:343,18.326,0.002,-0.012,0.011,-9.001,14.317,7.317
09:18:16:343,18.326,0.003,-0.011,0.007,-9.001,14.317,7.292
09:18:16:343,18.326,0.005,-0.012,0.004,-9.003,14.317,7.278
09:18:16:36,18.343,0.001,-0.013,0.010,-9.010,14.362,7.254
09:18:16:389,18.372,0.000,-0.011,0.008,-9.012,14.398,7.251
09:18:16:442,18.425,0.006,-0.010,0.009,-9.013,14.411,7.250
09:18:16:472,18.455,-0.002,-0.010,0.003,-9.013,14.411,7.250
09:18:16:472,18.455,0.000,-0.012,0.012,-9.013,14.411,7.250
09:18:16:494,18.477,0.000,-0.013,0.010,-9.015,14.412,7.237
09:18:16:518,18.501,0.004,-0.009,0.013,-9.013,14.408,7.208
09:18:16:572,18.555,0.002,-0.013,0.006,-9.012,14.413,7.190
09:18:16:6,18.583,0.001,-0.012,0.008,-9.016,14.456,7.154
09:18:16:601,18.584,-0.002,-0.014,0.012,-9.017,14.475,7.135
09:18:16:624,18.606,0.003,-0.009,0.011,-9.019,14.476,7.121
09:18:16:679,18.662,0.003,-0.010,0.005,-9.017,14.474,7.110
09:18:16:679,18.662,-0.005,-0.010,0.007,-9.020,14.495,7.102
09:18:16:702,18.685,0.000,-0.010,0.010,-9.022,14.502,7.070
09:18:16:728,18.711,0.001,-0.009,0.013,-9.022,14.501,7.045
09:18:16:756,18.739,0.003,-0.011,0.006,-9.022,14.497,7.002
09:18:16:808,18.791,-0.001,-0.008,0.000,-9.020,14.507,6.973
09:18:16:838,18.821,-0.001,-0.009,0.006,-9.020,14.532,6.935
09:18:16:838,18.821,-0.008,-0.008,0.004,-9.024,14.545,6.895
09:18:16:948,18.931,0.001,-0.012,0.008,-9.018,14.546,6.862
09:18:16:948,18.931,-0.001,-0.009,0.000,-9.021,14.546,6.823
09:18:16:948,18.931,0.001,-0.013,0.011,-9.021,14.545,6.798
09:18:16:949,18.932,-0.001,-0.011,0.002,-9.022,14.549,6.774
09:18:16:964,18.947,-0.003,-0.014,0.010,-9.024,14.562,6.748
09:18:17:05,19.033,-0.002,-0.008,0.003,-9.020,14.564,6.726
09:18:17:05,19.033,-0.002,-0.011,0.010,-9.027,14.582,6.690
09:18:17:051,19.034,-0.004,-0.010,0.006,-9.023,14.584,6.668
09:18:17:071,19.054,0.000,-0.009,0.008,-9.021,14.579,6.639
09:18:17:096,19.079,-0.003,-0.012,0.007,-9.020,14.585,6.621
09:18:17:151,19.134,-0.001,-0.011,0.011,-9.023,14.579,6.600
09:18:17:177,19.160,-0.006,-0.008,0.009,-9.022,14.588,6.571
09:18:17:178,19.161,0.000,-0.013,0.009,-9.026,14.605,6.549
09:18:17:201,19.184,-0.003,-0.010,0.009,-9.027,14.618,6.523
09:18:17:227,19.210,-0.002,-0.011,0.010,-9.027,14.637,6.503
09:18:17:311,19.294,-0.003,-0.014,0.006,-9.032,14.668,6.480
09:18:17:312,19.295,-0.004,-0.008,0.007,-9.034,14.704,6.477
09:18:17:313,19.296,-0.006,-0.007,0.003,-9.032,14.722,6.472
09:18:17:332,19.315,-0.001,-0.009,0.010,-9.032,14.722,6.472
09:18:17:358,19.341,-0.007,-0.010,0.010,-9.040,14.728,6.473
09:18:17:414,19.397,-0.004,-0.009,0.009,-9.038,14.747,6.467
09:18:17:415,19.398,-0.004,-0.014,0.009,-9.040,14.748,6.453
09:18:17:438,19.421,-0.005,-0.012,0.012,-9.040,14.753,6.435
09:18:17:493,19.476,-0.005,-0.011,0.010,-9.039,14.785,6.403
09:18:17:493,19.476,-0.007,-0.011,0.007,-9.045,14.801,6.375
09:18:17:546,19.528,-0.008,-0.008,0.006,-9.043,14.818,6.344
09:18:17:546,19.528,-0.007,-0.010,0.002,-9.044,14.823,6.319
09:18:17:568,19.551,-0.008,-0.010,0.010,-9.047,14.851,6.285
09:18:17:595,19.578,-0.008,-0.008,0.000,-9.043,14.859,6.245
09:18:17:675,19.658,-0.006,-0.010,0.006,-9.043,14.856,6.227
09:18:17:701,19.684,-0.008,-0.009,0.001,-9.047,14.858,6.199
09:18:17:731,19.714,-0.009,-0.011,0.012,-9.047,14.864,6.181
09:18:17:732,19.715,-0.008,-0.009,0.004,-9.047,14.863,6.156
09:18:17:733,19.715,-0.009,-0.010,0.009,-9.049,14.864,6.142
09:18:17:781,19.764,-0.011,-0.011,0.001,-9.045,14.878,6.108
09:18:17:808,19.791,-0.009,-0.012,0.007,-9.045,14.896,6.064
09:18:17:808,19.791,-0.010,-0.008,0.001,-9.048,14.916,6.031
09:18:17:891,19.874,-0.012,-0.011,0.008,-9.050,14.942,5.979
09:18:17:892,19.875,-0.010,-0.011,0.004,-9.053,14.963,5.946
09:18:17:893,19.876,-0.006,-0.011,0.008,-9.052,14.971,5.891
09:18:17:894,19.877,-0.007,-0.009,0.001,-9.054,14.968,5.835
09:18:17:939,19.921,-0.004,-0.013,0.008,-9.049,14.982,5.801
09:18:17:939,19.922,-0.009,-0.012,0.006,-9.058,15.015,5.750
09:18:18:02,20.003,-0.009,-0.011,0.010,-9.057,15.032,5.720
09:18:18:021,20.004,-0.012,-0.012,0.001,-9.056,15.035,5.684
09:18:18:022,20.005,-0.009,-0.011,0.009,-9.054,15.053,5.653
09:18:18:07,20.053,-0.012,-0.012,0.003,-9.056,15.051,5.622
09:18:18:07,20.053,-0.009,-0.012,0.005,-9.058,15.051,5.583
09:18:18:152,20.135,-0.009,-0.011,0.003,-9.056,15.046,5.555
09:18:18:153,20.136,-0.008,-0.010,0.006,-9.057,15.053,5.522
09:18:18:154,20.137,-0.013,-0.012,0.007,-9.057,15.059,5.504
09:18:18:203,20.186,-0.012,-0.012,0.010,-9.055,15.068,5.474
09:18:18:203,20.186,-0.008,-0.009,0.003,-9.057,15.066,5.443
09:18:18:254,20.237,-0.006,-0.012,0.007,-9.052,15.069,5.427
09:18:18:255,20.238,-0.008,-0.009,0.006,-9.054,15.070,5.413
09:18:18:278,20.261,-0.015,-0.012,0.003,-9.054,15.070,5.413
09:18:18:304,20.286,-0.013,-0.009,0.009,-9.054,15.067,5.396
09:18:18:33,20.313,-0.012,-0.009,0.003,-9.053,15.064,5.378
09:18:18:385,20.368,-0.012,-0.011,0.008,-9.051,15.063,5.367
09:18:18:386,20.369,-0.014,-0.011,0.002,-9.056,15.064,5.340
09:18:18:409,20.392,-0.012,-0.012,0.005,-9.053,15.066,5.318
09:18:18:435,20.418,-0.013,-0.012,0.001,-9.054,15.073,5.285
09:18:18:461,20.444,-0.009,-0.011,0.007,-9.051,15.075,5.263
09:18:18:543,20.526,-0.008,-0.010,0.004,-9.054,15.069,5.243
09:18:18:544,20.527,-0.009,-0.013,0.006,-9.054,15.075,5.224
09:18:18:572,20.555,-0.015,-0.012,0.000,-9.054,15.075,5.224
09:18:18:572,20.555,-0.015,-0.015,0.010,-9.054,15.068,5.218
09:18:18:592,20.575,-0.013,-0.010,0.005,-9.054,15.074,5.200
09:18:18:647,20.630,-0.012,-0.010,0.005,-9.050,15.073,5.160
09:18:18:673,20.655,-0.012,-0.012,0.002,-9.050,15.072,5.135
09:18:18:7,20.683,-0.010,-0.010,0.006,-9.050,15.071,5.110
09:18:18:701,20.684,-0.011,-0.009,0.001,-9.048,15.067,5.082
09:18:18:724,20.707,-0.012,-0.008,0.006,-9.047,15.064,5.064
09:18:18:75,20.733,-0.012,-0.010,0.002,-9.050,15.065,5.050
09:18:18:776,20.759,-0.009,-0.011,0.004,-9.050,15.065,5.050
09:18:18:831,20.814,-0.015,-0.009,0.003,-9.050,15.065,5.050
09:18:18:832,20.815,-0.009,-0.011,0.007,-9.050,15.065,5.050
09:18:18:857,20.839,-0.011,-0.011,0.001,-9.050,15.065,5.050
09:18:18:882,20.865,-0.009,-0.012,0.004,-9.050,15.065,5.050
09:18:18:907,20.890,-0.013,-0.008,0.004,-9.050,15.065,5.050
09:18:18:988,20.971,-0.009,-0.008,0.003,-9.050,15.065,5.050
09:18:19:018,21.001,-0.010,-0.009,0.002,-9.050,15.065,5.050
09:18:19:019,21.002,-0.008,-0.013,0.005,-9.050,15.065,5.050
09:18:19:019,21.002,-0.011,-0.011,0.006,-9.050,15.065,5.050
09:18:19:096,21.079,-0.008,-0.009,-0.003,-9.050,15.065,5.050
09:18:19:096,21.079,-0.012,-0.011,0.009,-9.045,15.062,5.053
09:18:19:149,21.132,-0.010,-0.010,-0.003,-9.045,15.062,5.053
09:18:19:15,21.133,-0.011,-0.009,0.005,-9.045,15.062,5.053
09:18:19:151,21.134,-0.012,-0.007,-0.003,-9.045,15.062,5.053
09:18:19:223,21.206,-0.010,-0.009,-0.003,-9.045,15.062,5.053
09:18:19:253,21.236,-0.013,-0.011,0.004,-9.045,15.062,5.053
09:18:19:253,21.236,-0.013,-0.009,-0.002,-9.045,15.062,5.053
09:18:19:274,21.257,-0.015,-0.010,0.003,-9.045,15.062,5.053
09:18:19:301,21.284,-0.015,-0.008,-0.002,-9.045,15.062,5.053
09:18:19:356,21.339,-0.014,-0.013,0.003,-9.051,15.059,5.044
09:18:19:357,21.340,-0.012,-0.010,0.002,-9.053,15.060,5.030
09:18:19:381,21.364,-0.012,-0.011,0.004,-9.050,15.055,5.001
09:18:19:406,21.389,-0.009,-0.012,-0.003,-9.047,15.057,4.979
09:18:19:432,21.415,-0.009,-0.008,0.002,-9.044,15.061,4.950
09:18:19:487,21.470,-0.010,-0.012,0.000,-9.044,15.058,4.932
09:18:19:488,21.471,-0.012,-0.011,0.004,-9.048,15.061,4.930
09:18:19:54,21.523,-0.010,-0.009,-0.002,-9.048,15.061,4.930
09:18:19:541,21.524,-0.010,-0.009,0.002,-9.048,15.061,4.930
09:18:19:564,21.547,-0.015,-0.013,-0.002,-9.048,15.061,4.930
09:18:19:617,21.600,-0.010,-0.010,0.001,-9.048,15.061,4.930
09:18:19:674,21.657,-0.010,-0.009,0.002,-9.048,15.061,4.930
09:18:19:675,21.658,-0.009,-0.012,0.001,-9.048,15.061,4.930
09:18:19:676,21.658,-0.011,-0.011,0.002,-9.048,15.061,4.930
09:18:19:696,21.678,-0.006,-0.013,0.005,-9.048,15.047,4.931
09:18:19:75,21.733,-0.012,-0.009,0.003,-9.048,15.047,4.931
09:18:19:751,21.734,-0.011,-0.012,0.005,-9.040,15.049,4.929
09:18:19:802,21.785,-0.011,-0.008,0.003,-9.029,15.045,4.931
09:18:19:803,21.786,-0.011,-0.011,0.003,-9.012,15.048,4.931
09:18:19:827,21.810,-0.008,-0.012,0.002,-8.991,15.051,4.927
09:18:19:852,21.835,-0.014,-0.011,-0.003,-8.977,15.052,4.924
09:18:19:879,21.861,-0.010,-0.007,0.006,-8.955,15.052,4.927
09:18:19:963,21.946,-0.014,-0.007,0.002,-8.954,15.045,4.935
09:18:19:964,21.947,-0.015,-0.012,0.002,-8.954,15.045,4.935
09:18:19:964,21.947,-0.017,-0.009,-0.003,-8.948,15.046,4.926
09:18:19:983,21.966,-0.011,-0.009,0.001,-8.940,15.046,4.932
09:18:20:009,21.992,-0.013,-0.012,-0.001,-8.940,15.046,4.932
09:18:20:095,22.078,-0.013,-0.009,0.004,-8.940,15.046,4.932
09:18:20:095,22.078,-0.014,-0.009,-0.004,-8.937,15.050,4.928
09:18:20:095,22.078,-0.010,-0.011,0.008,-8.937,15.050,4.928
09:18:20:116,22.099,-0.016,-0.012,0.003,-8.937,15.050,4.928
09:18:20:142,22.125,-0.015,-0.011,0.004,-8.937,15.050,4.928
09:18:20:225,22.208,-0.013,-0.014,0.003,-8.937,15.050,4.928
09:18:20:226,22.209,-0.014,-0.013,0.006,-8.937,15.050,4.928
09:18:20:227,22.210,-0.016,-0.010,0.003,-8.937,15.050,4.928
09:18:20:249,22.232,-0.009,-0.012,0.005,-8.937,15.050,4.928
09:18:20:249,22.232,-0.013,-0.012,0.004,-8.937,15.050,4.928
09:18:20:274,22.257,-0.014,-0.011,0.002,-8.937,15.050,4.928
09:18:20:329,22.312,-0.009,-0.008,0.000,-8.937,15.050,4.928
09:18:20:329,22.312,-0.011,-0.011,0.005,-8.937,15.050,4.928
09:18:20:38,22.363,-0.012,-0.010,0.004,-8.937,15.050,4.928
09:18:20:38,22.363,-0.009,-0.011,0.005,-8.937,15.050,4.928
09:18:20:403,22.386,-0.012,-0.011,0.005,-8.937,15.050,4.928
09:18:20:459,22.442,-0.015,-0.010,0.006,-8.937,15.050,4.928
09:18:20:46,22.443,-0.024,-0.009,0.006,-8.937,15.050,4.928
09:18:20:484,22.467,-0.001,-0.012,0.006,-8.938,15.036,4.922
09:18:20:509,22.492,-0.004,-0.009,0.005,-8.934,15.026,4.918
09:18:20:535,22.518,-0.013,-0.011,0.007,-8.934,15.026,4.918
09:18:20:561,22.544,-0.010,-0.013,0.004,-8.934,15.026,4.918
09:18:20:588,22.571,-0.009,-0.012,-0.004,-8.934,15.026,4.918
09:18:20:614,22.596,-0.007,-0.010,0.003,-8.934,15.026,4.918
09:18:20:64,22.623,-0.012,-0.011,-0.004,-8.934,15.026,4.918
09:18:20:667,22.650,-0.011,-0.013,0.004,-8.934,15.026,4.918
09:18:20:693,22.676,-0.017,-0.011,0.004,-8.934,15.026,4.918
09:18:20:718,22.701,-0.012,-0.011,0.009,-8.934,15.026,4.918
09:18:20:834,22.817,-0.008,-0.010,-0.005,-8.937,15.022,4.923
09:18:20:835,22.818,-0.009,-0.011,0.006,-8.937,15.022,4.923
09:18:20:835,22.818,-0.014,-0.010,-0.002,-8.937,15.022,4.923
09:18:20:835,22.818,-0.007,-0.012,0.003,-8.937,15.022,4.923
09:18:20:85,22.833,-0.008,-0.010,-0.003,-8.937,15.022,4.923
09:18:20:936,22.919,-0.007,-0.011,0.004,-8.937,15.022,4.923
09:18:20:936,22.919,-0.011,-0.010,0.001,-8.933,15.019,4.926
09:18:20:936,22.919,-0.010,-0.010,0.004,-8.935,15.021,4.937
09:18:20:956,22.939,-0.008,-0.009,0.001,-8.935,15.021,4.937
09:18:20:982,22.964,-0.015,-0.010,0.004,-8.935,15.021,4.937
09:18:21:063,23.046,-0.011,-0.011,0.001,-8.935,15.021,4.937
09:18:21:064,23.047,-0.012,-0.011,0.005,-8.935,15.021,4.937
09:18:21:088,23.071,-0.010,-0.009,0.000,-8.935,15.021,4.937
09:18:21:089,23.072,-0.015,-0.010,0.004,-8.935,15.021,4.937
09:18:21:112,23.095,-0.015,-0.010,0.001,-8.935,15.021,4.937
09:18:21:199,23.182,-0.015,-0.007,0.003,-8.935,15.021,4.937
09:18:21:199,23.182,-0.011,-0.011,0.003,-8.935,15.021,4.937
09:18:21:199,23.182,-0.004,-0.011,0.005,-8.935,15.021,4.937
09:18:21:219,23.202,-0.007,-0.009,0.000,-8.935,15.021,4.937
09:18:21:244,23.227,-0.011,-0.010,0.002,-8.935,15.021,4.937
09:18:21:322,23.305,-0.012,-0.010,0.003,-8.935,15.021,4.937
09:18:21:354,23.337,-0.007,-0.011,0.005,-8.935,15.021,4.937
09:18:21:355,23.338,-0.007,-0.012,0.003,-8.935,15.021,4.937
09:18:21:355,23.338,-0.009,-0.010,-0.004,-8.935,15.021,4.937
09:18:21:375,23.357,-0.009,-0.010,0.001,-8.935,15.021,4.937
09:18:21:43,23.413,-0.011,-0.010,-0.003,-8.935,15.021,4.937
09:18:21:431,23.413,-0.007,-0.012,0.003,-8.935,15.021,4.937
09:18:21:453,23.436,-0.011,-0.010,-0.004,-8.935,15.021,4.937
09:18:21:479,23.462,-0.011,-0.010,0.006,-8.935,15.021,4.937
09:18:21:506,23.489,-0.011,-0.011,-0.002,-8.935,15.021,4.937
09:18:21:532,23.515,-0.007,-0.012,0.003,-8.935,15.021,4.937
09:18:21:617,23.600,-0.012,-0.009,-0.005,-8.932,15.020,4.951
09:18:21:617,23.600,-0.011,-0.013,0.001,-8.936,15.018,4.973
09:18:21:618,23.601,-0.012,-0.010,-0.002,-8.938,15.020,4.984
09:18:21:698,23.681,-0.011,-0.011,0.012,-8.935,15.019,4.998
09:18:21:698,23.681,-0.010,-0.010,0.002,-8.935,15.019,4.998
09:18:21:698,23.681,-0.009,-0.012,0.004,-8.935,15.019,4.998
09:18:21:745,23.728,-0.010,-0.008,0.001,-8.935,15.019,4.998
09:18:21:745,23.728,-0.012,-0.009,0.005,-8.935,15.019,4.998
09:18:21:799,23.782,-0.012,-0.009,0.003,-8.938,15.023,5.001
09:18:21:799,23.782,-0.010,-0.012,0.006,-8.938,15.023,5.001
09:18:21:821,23.804,-0.008,-0.011,0.002,-8.938,15.023,5.001
09:18:21:907,23.890,-0.012,-0.010,0.005,-8.938,15.023,5.001
09:18:21:907,23.890,-0.012,-0.009,0.001,-8.938,15.023,5.001
09:18:21:907,23.890,-0.010,-0.012,0.005,-8.938,15.023,5.001
09:18:21:927,23.910,-0.009,-0.012,0.004,-8.938,15.023,5.001
09:18:21:954,23.937,-0.009,-0.012,0.001,-8.934,15.012,5.005
09:18:22:037,24.020,-0.009,-0.012,0.004,-8.937,15.015,5.009
09:18:22:037,24.020,-0.010,-0.012,0.009,-8.934,15.014,5.023
09:18:22:038,24.021,-0.010,-0.012,0.007,-8.934,15.015,5.047
09:18:22:057,24.040,-0.014,-0.010,-0.006,-8.937,15.013,5.070
09:18:22:083,24.066,-0.014,-0.013,0.007,-8.937,15.014,5.094
09:18:22:138,24.121,-0.013,-0.009,0.000,-8.935,15.013,5.108
09:18:22:165,24.148,-0.009,-0.011,0.007,-8.935,15.013,5.108
09:18:22:166,24.149,-0.015,-0.010,-0.005,-8.933,15.006,5.116
09:18:22:189,24.172,-0.013,-0.013,0.010,-8.933,15.006,5.116
09:18:22:215,24.198,-0.010,-0.009,-0.002,-8.933,15.006,5.116
09:18:22:299,24.282,-0.007,-0.010,0.007,-8.933,15.006,5.116
09:18:22:3,24.283,-0.013,-0.012,-0.001,-8.933,15.006,5.116
09:18:22:3,24.283,-0.009,-0.013,0.008,-8.933,15.006,5.116
09:18:22:32,24.302,-0.015,-0.009,-0.001,-8.933,15.006,5.116
09:18:22:407,24.390,-0.011,-0.010,0.006,-8.936,15.001,5.120
09:18:22:408,24.391,-0.016,-0.012,0.004,-8.936,15.001,5.120
09:18:22:408,24.391,-0.016,-0.010,0.005,-8.934,15.000,5.134
09:18:22:409,24.392,-0.017,-0.006,0.004,-8.934,15.009,5.133
09:18:22:451,24.434,-0.014,-0.012,0.010,-8.934,15.009,5.133
09:18:22:477,24.460,-0.014,-0.010,0.005,-8.934,15.009,5.133
09:18:22:537,24.520,-0.012,-0.012,0.009,-8.934,15.009,5.133
09:18:22:537,24.520,-0.012,-0.012,0.004,-8.934,15.009,5.133
09:18:22:537,24.520,-0.012,-0.009,0.005,-8.934,15.009,5.133
09:18:22:585,24.568,-0.015,-0.008,0.001,-8.934,15.009,5.133
09:18:22:586,24.569,-0.016,-0.009,0.007,-8.934,15.009,5.133
09:18:22:638,24.621,-0.015,-0.011,0.002,-8.934,15.009,5.133
09:18:22:638,24.621,-0.013,-0.012,0.005,-8.934,15.009,5.133
09:18:22:661,24.644,-0.010,-0.012,0.007,-8.934,15.009,5.133
09:18:22:719,24.702,-0.008,-0.012,0.009,-8.934,15.009,5.133
09:18:22:719,24.702,-0.008,-0.011,0.004,-8.934,15.009,5.133
09:18:22:77,24.753,-0.011,-0.012,0.001,-8.939,15.006,5.149
09:18:22:771,24.753,-0.013,-0.012,0.010,-8.937,15.008,5.180
09:18:22:792,24.775,-0.017,-0.009,0.003,-8.936,15.009,5.205
09:18:22:845,24.828,-0.008,-0.010,0.010,-8.936,15.009,5.230
09:18:22:874,24.857,-0.016,-0.010,-0.002,-8.940,15.008,5.252
09:18:22:875,24.858,-0.016,-0.013,0.004,-8.938,15.009,5.283
09:18:22:899,24.882,-0.016,-0.009,0.003,-8.937,15.010,5.308
09:18:22:923,24.906,-0.018,-0.012,0.011,-8.939,15.007,5.319
09:18:23:008,24.991,-0.016,-0.009,0.001,-8.933,15.008,5.336
09:18:23:009,24.992,-0.009,-0.011,0.009,-8.931,15.001,5.343
09:18:23:009,24.992,-0.008,-0.010,-0.002,-8.929,15.000,5.357
09:18:23:028,25.011,-0.011,-0.012,0.010,-8.929,15.000,5.357
09:18:23:055,25.038,-0.008,-0.008,0.002,-8.926,14.999,5.371
09:18:23:108,25.091,-0.010,-0.012,0.008,-8.926,14.999,5.371
09:18:23:136,25.119,-0.013,-0.010,0.004,-8.921,14.994,5.381
09:18:23:137,25.120,-0.008,-0.011,0.011,-8.927,14.993,5.390
09:18:23:159,25.142,-0.009,-0.010,0.010,-8.920,15.010,5.412
09:18:23:186,25.169,-0.016,-0.010,0.010,-8.918,15.009,5.426
09:18:23:239,25.222,-0.014,-0.011,0.006,-8.918,15.012,5.443
09:18:23:268,25.251,-0.015,-0.012,0.011,-8.918,15.032,5.449
09:18:23:268,25.251,-0.012,-0.010,0.009,-8.917,15.038,5.455
09:18:23:291,25.274,-0.011,-0.009,0.010,-8.916,15.031,5.462
09:18:23:317,25.300,-0.014,-0.011,0.007,-8.914,15.030,5.476
09:18:23:372,25.355,-0.011,-0.012,0.005,-8.905,15.030,5.482
09:18:23:373,25.356,-0.013,-0.010,0.003,-8.908,15.032,5.493
09:18:23:397,25.379,-0.008,-0.010,0.009,-8.903,15.029,5.496
09:18:23:422,25.405,-0.008,-0.012,0.008,-8.902,15.027,5.503
09:18:23:449,25.432,-0.009,-0.008,0.005,-8.901,15.028,5.510
09:18:23:475,25.458,-0.009,-0.011,0.010,-8.900,15.026,5.517
09:18:23:501,25.484,-0.013,-0.012,0.011,-8.901,15.023,5.528
09:18:23:528,25.511,-0.010,-0.014,0.008,-8.893,15.023,5.534
09:18:23:554,25.537,-0.013,-0.014,0.001,-8.891,15.022,5.548
09:18:23:582,25.564,-0.011,-0.011,0.008,-8.894,15.017,5.552
09:18:23:606,25.589,-0.011,-0.013,0.002,-8.888,15.021,5.561
09:18:23:633,25.616,-0.013,-0.013,0.009,-8.883,15.016,5.572
09:18:23:687,25.670,-0.018,-0.012,0.003,-8.882,15.017,5.578
09:18:23:688,25.671,-0.014,-0.013,0.012,-8.881,15.015,5.586
09:18:23:711,25.694,-0.012,-0.008,0.004,-8.870,14.972,5.601
09:18:23:738,25.720,-0.014,-0.013,0.007,-8.874,14.949,5.611
09:18:23:764,25.747,-0.016,-0.014,0.003,-8.890,14.909,5.614
09:18:23:842,25.825,-0.016,-0.013,0.012,-8.890,14.860,5.604
09:18:23:869,25.852,-0.012,-0.010,0.002,-8.902,14.821,5.592
09:18:23:9,25.883,-0.006,-0.013,0.004,-8.891,14.770,5.576
09:18:23:901,25.884,-0.012,-0.012,0.004,-8.887,14.756,5.563
09:18:23:902,25.885,-0.006,-0.009,0.007,-8.883,14.718,5.554
09:18:23:981,25.964,-0.004,-0.010,0.001,-8.883,14.690,5.550
09:18:23:981,25.964,-0.004,-0.015,0.005,-8.880,14.660,5.559
09:18:23:982,25.965,-0.010,-0.011,0.003,-8.873,14.654,5.558
09:18:24:002,25.985,-0.005,-0.007,0.007,-8.862,14.658,5.559
09:18:24:027,26.010,-0.008,-0.011,0.000,-8.848,14.659,5.557
09:18:24:111,26.093,-0.005,-0.011,0.004,-8.852,14.657,5.579
09:18:24:111,26.094,-0.008,-0.011,0.004,-8.820,14.660,5.619
09:18:24:112,26.095,-0.006,-0.011,0.012,-8.795,14.681,5.666
09:18:24:132,26.114,-0.003,-0.010,0.007,-8.783,14.701,5.697
09:18:24:158,26.141,-0.013,-0.010,0.007,-8.761,14.735,5.747
09:18:24:211,26.194,-0.011,-0.009,0.007,-8.745,14.764,5.788
09:18:24:239,26.222,-0.013,-0.013,0.010,-8.724,14.792,5.857
09:18:24:239,26.222,-0.012,-0.012,0.014,-8.697,14.826,5.898
09:18:24:264,26.247,-0.009,-0.008,0.007,-8.697,14.849,5.921
09:18:24:289,26.271,-0.011,-0.008,0.007,-8.701,14.867,5.949
09:18:24:344,26.327,-0.009,-0.011,0.005,-8.702,14.884,5.966
09:18:24:345,26.328,-0.004,-0.015,0.008,-8.704,14.914,5.981
09:18:24:368,26.351,-0.007,-0.009,0.000,-8.723,14.954,6.010
09:18:24:393,26.376,-0.013,-0.011,0.006,-8.732,14.997,6.033
09:18:24:42,26.403,-0.013,-0.012,0.002,-8.741,15.069,6.060
09:18:24:475,26.458,-0.013,-0.014,0.013,-8.739,15.111,6.078
09:18:24:476,26.458,-0.017,-0.012,0.003,-8.743,15.157,6.085
09:18:24:529,26.512,-0.017,-0.011,0.010,-8.749,15.182,6.080
09:18:24:529,26.512,-0.011,-0.012,0.005,-8.786,15.216,6.077
09:18:24:551,26.534,-0.017,-0.012,0.014,-8.834,15.277,6.066
09:18:24:608,26.591,-0.011,-0.011,0.005,-8.871,15.303,6.064
09:18:24:608,26.591,-0.013,-0.011,0.017,-8.934,15.351,6.043
09:18:24:659,26.642,-0.014,-0.011,0.005,-8.967,15.360,6.037
09:18:24:66,26.642,-0.010,-0.012,0.003,-9.025,15.319,6.005
09:18:24:683,26.665,-0.030,-0.013,0.009,-9.071,15.329,5.942
09:18:24:708,26.691,-0.010,-0.011,0.022,-9.095,15.360,5.893
09:18:24:735,26.718,-0.009,-0.012,0.005,-9.127,15.321,5.793
09:18:24:815,26.798,-0.007,-0.010,0.004,-9.144,15.281,5.703
09:18:24:849,26.831,-0.009,-0.011,0.001,-9.152,15.250,5.558
09:18:24:849,26.832,-0.008,-0.013,0.008,-9.146,15.245,5.458
09:18:24:85,26.833,-0.002,-0.007,0.005,-9.142,15.190,5.316
09:18:24:851,26.833,0.004,-0.010,0.003,-9.133,15.146,5.190
09:18:24:954,26.937,0.000,-0.009,-0.001,-9.129,15.115,5.121
09:18:24:954,26.937,-0.004,-0.011,0.010,-9.127,15.101,5.044
09:18:24:955,26.938,-0.004,-0.013,0.008,-9.118,15.075,5.009
09:18:24:955,26.938,-0.004,-0.011,-0.001,-9.111,15.038,4.954
09:18:24:971,26.954,-0.005,-0.008,0.005,-9.111,15.006,4.907
09:18:25:055,27.038,-0.008,-0.014,0.009,-9.112,15.005,4.882
09:18:25:056,27.038,-0.005,-0.011,0.008,-9.101,14.998,4.841
09:18:25:08,27.063,-0.002,-0.010,-0.001,-9.100,14.983,4.817
09:18:25:081,27.063,-0.006,-0.009,0.007,-9.097,14.957,4.791
09:18:25:102,27.085,-0.013,-0.011,0.004,-9.094,14.953,4.787
09:18:25:129,27.112,-0.010,-0.011,0.011,-9.091,14.957,4.783
09:18:25:215,27.198,-0.003,-0.010,0.003,-9.108,14.951,4.765
09:18:25:215,27.198,-0.007,-0.012,0.004,-9.115,14.955,4.748
09:18:25:215,27.198,-0.011,-0.012,-0.001,-9.143,14.947,4.747
09:18:25:234,27.216,-0.007,-0.010,0.007,-9.151,14.954,4.748
09:18:25:262,27.244,-0.006,-0.011,-0.001,-9.160,14.947,4.736
09:18:25:314,27.297,-0.009,-0.011,0.007,-9.156,14.950,4.738
09:18:25:344,27.327,-0.013,-0.009,0.004,-9.156,14.950,4.738
09:18:25:344,27.327,-0.005,-0.008,0.006,-9.154,14.951,4.745
09:18:25:365,27.348,-0.005,-0.012,0.005,-9.154,14.951,4.745
09:18:25:449,27.432,-0.002,-0.008,0.008,-9.157,14.946,4.749
09:18:25:45,27.433,-0.004,-0.010,0.005,-9.154,14.949,4.752
09:18:25:451,27.433,-0.004,-0.009,0.010,-9.152,14.944,4.777
09:18:25:499,27.482,-0.006,-0.012,0.003,-9.151,14.938,4.810
09:18:25:5,27.483,-0.009,-0.011,0.006,-9.150,14.925,4.835
09:18:25:523,27.506,-0.006,-0.015,0.006,-9.153,14.924,4.882
09:18:25:548,27.531,-0.007,-0.011,0.003,-9.148,14.922,4.910
09:18:25:575,27.558,-0.006,-0.010,0.002,-9.145,14.922,4.949
09:18:25:63,27.613,-0.010,-0.012,0.008,-9.150,14.936,4.987
09:18:25:63,27.613,-0.010,-0.013,0.005,-9.150,14.939,5.005
09:18:25:654,27.636,-0.008,-0.009,0.004,-9.153,14.934,5.010
09:18:25:68,27.663,-0.009,-0.013,0.005,-9.152,14.941,5.016
09:18:25:708,27.691,-0.012,-0.011,0.006,-9.149,14.966,5.017
09:18:25:789,27.772,-0.009,-0.010,0.004,-9.167,14.973,4.998
09:18:25:79,27.773,-0.003,-0.011,0.011,-9.174,14.985,4.980
09:18:25:814,27.797,-0.002,-0.010,0.002,-9.184,14.987,4.961
09:18:25:814,27.797,-0.009,-0.008,-0.004,-9.182,14.985,4.950
09:18:25:838,27.821,-0.007,-0.011,0.006,-9.183,14.999,4.949
09:18:25:922,27.905,-0.002,-0.007,0.002,-9.183,14.999,4.949
09:18:25:922,27.905,-0.008,-0.011,0.004,-9.183,14.999,4.949
09:18:25:923,27.906,-0.007,-0.007,0.001,-9.187,15.010,4.945
09:18:25:968,27.951,-0.011,-0.014,-0.001,-9.187,15.010,4.945
09:18:26:051,28.034,-0.001,-0.010,0.006,-9.187,15.010,4.945
09:18:26:051,28.034,-0.004,-0.009,0.005,-9.187,15.010,4.945
09:18:26:076,28.059,-0.003,-0.011,0.002,-9.187,15.010,4.945
09:18:26:077,28.060,-0.005,-0.005,-0.001,-9.183,14.999,4.949
09:18:26:101,28.084,-0.005,-0.010,0.006,-9.186,14.994,4.954
09:18:26:184,28.167,-0.005,-0.010,0.001,-9.187,14.990,4.965
09:18:26:185,28.168,-0.005,-0.010,0.006,-9.184,14.996,4.985
09:18:26:185,28.168,-0.007,-0.009,0.005,-9.184,14.990,5.003
09:18:26:204,28.187,-0.014,-0.009,0.008,-9.187,14.992,5.014
09:18:26:231,28.214,-0.006,-0.010,0.009,-9.187,14.992,5.014
09:18:26:286,28.269,-0.007,-0.013,0.009,-9.181,14.975,5.018
09:18:26:287,28.270,-0.002,-0.010,0.001,-9.183,14.949,5.025
09:18:26:311,28.294,-0.008,-0.011,0.010,-9.183,14.949,5.025
09:18:26:336,28.319,-0.006,-0.008,0.006,-9.183,14.949,5.025
09:18:26:364,28.347,-0.005,-0.009,0.004,-9.183,14.949,5.025
09:18:26:389,28.372,-0.004,-0.011,0.003,-9.183,14.949,5.025
09:18:26:416,28.398,-0.004,-0.013,0.006,-9.186,14.952,5.028
09:18:26:472,28.455,-0.004,-0.009,0.009,-9.178,14.952,5.034
09:18:26:472,28.455,-0.007,-0.013,0.010,-9.182,14.950,5.056
09:18:26:493,28.476,-0.006,-0.011,0.005,-9.179,14.949,5.070
09:18:26:52,28.503,-0.003,-0.017,0.009,-9.183,14.961,5.091
09:18:26:546,28.529,-0.006,-0.009,0.011,-9.187,14.973,5.112
09:18:26:602,28.585,-0.005,-0.010,0.000,-9.183,14.965,5.134
09:18:26:603,28.586,0.000,-0.008,0.001,-9.181,14.944,5.167
09:18:26:624,28.607,-0.010,-0.012,0.000,-9.184,14.942,5.189
09:18:26:651,28.634,-0.009,-0.014,0.012,-9.182,14.956,5.227
09:18:26:677,28.660,-0.008,-0.012,0.003,-9.187,14.962,5.241
09:18:26:733,28.716,-0.004,-0.009,0.010,-9.187,14.962,5.241
09:18:26:733,28.716,-0.012,-0.010,0.002,-9.187,14.962,5.241
09:18:26:756,28.739,-0.011,-0.013,0.011,-9.187,14.962,5.241
09:18:26:782,28.765,-0.008,-0.010,0.000,-9.187,14.962,5.241
09:18:26:808,28.791,-0.011,-0.015,0.012,-9.187,14.962,5.241
09:18:26:895,28.878,-0.011,-0.011,0.005,-9.187,14.962,5.241
09:18:26:895,28.878,-0.007,-0.009,0.007,-9.187,14.962,5.241
09:18:26:895,28.878,-0.009,-0.007,0.001,-9.187,14.962,5.241
09:18:26:916,28.898,-0.009,-0.009,0.010,-9.187,14.962,5.241
09:18:26:941,28.924,-0.007,-0.008,0.006,-9.187,14.962,5.241
09:18:26:994,28.977,-0.006,-0.011,0.010,-9.187,14.962,5.241
09:18:27:024,29.007,-0.015,-0.009,0.006,-9.187,14.962,5.241
09:18:27:025,29.008,-0.009,-0.011,0.010,-9.185,14.961,5.255
09:18:27:026,29.009,-0.007,-0.012,0.003,-9.184,14.956,5.280
09:18:27:073,29.056,-0.014,-0.011,0.003,-9.192,14.957,5.299
09:18:27:161,29.144,-0.007,-0.010,0.010,-9.187,14.955,5.327
09:18:27:161,29.144,-0.009,-0.013,0.007,-9.187,14.956,5.352
09:18:27:161,29.144,-0.010,-0.012,0.008,-9.184,14.955,5.366
09:18:27:161,29.144,-0.013,-0.012,0.010,-9.189,14.966,5.362
09:18:27:203,29.186,-0.010,-0.007,0.007,-9.189,14.974,5.361
09:18:27:259,29.242,-0.011,-0.012,0.009,-9.189,14.974,5.361
09:18:27:259,29.242,-0.016,-0.012,0.012,-9.189,14.974,5.361
09:18:27:281,29.264,-0.011,-0.012,0.007,-9.190,14.973,5.355
09:18:27:31,29.293,-0.012,-0.012,0.008,-9.210,14.971,5.341
09:18:27:311,29.294,-0.008,-0.008,-0.001,-9.219,14.956,5.329
09:18:27:334,29.316,-0.011,-0.011,0.008,-9.224,14.952,5.295
09:18:27:389,29.372,-0.011,-0.012,0.005,-9.230,14.970,5.284
09:18:27:39,29.373,-0.012,-0.012,0.004,-9.231,14.980,5.241
09:18:27:443,29.426,-0.009,-0.009,0.003,-9.237,14.976,5.207
09:18:27:443,29.426,-0.008,-0.010,0.005,-9.251,14.974,5.184
09:18:27:465,29.448,-0.013,-0.011,0.003,-9.247,14.976,5.162
09:18:27:491,29.474,-0.011,-0.009,0.005,-9.250,14.971,5.142
09:18:27:52,29.502,-0.010,-0.010,0.001,-9.254,14.979,5.120
09:18:27:573,29.556,-0.010,-0.014,0.011,-9.251,14.990,5.122
09:18:27:573,29.556,-0.007,-0.008,0.001,-9.251,14.990,5.122
09:18:27:597,29.580,-0.012,-0.009,0.005,-9.251,14.990,5.122
09:18:27:623,29.606,-0.010,-0.010,0.003,-9.251,14.990,5.122
09:18:27:648,29.631,-0.005,-0.011,0.008,-9.249,15.009,5.117
09:18:27:733,29.716,-0.007,-0.007,0.003,-9.249,15.009,5.117
09:18:27:734,29.716,-0.007,-0.011,0.007,-9.249,15.009,5.117
09:18:27:735,29.717,-0.014,-0.009,0.005,-9.252,15.018,5.120
09:18:27:754,29.736,-0.006,-0.011,0.008,-9.251,15.033,5.126
09:18:27:78,29.763,-0.013,-0.015,0.005,-9.255,15.031,5.148
09:18:27:862,29.845,-0.003,-0.011,0.003,-9.250,15.026,5.158
09:18:27:863,29.846,-0.006,-0.008,0.002,-9.220,15.029,5.184
09:18:27:888,29.871,-0.009,-0.010,0.008,-9.197,15.046,5.218
09:18:27:888,29.871,-0.010,-0.009,0.007,-9.182,15.062,5.246
09:18:27:911,29.894,-0.002,-0.005,0.008,-9.164,15.090,5.300
09:18:27:997,29.980,-0.012,-0.013,0.016,-9.147,15.099,5.336
09:18:27:997,29.980,-0.008,-0.008,0.009,-9.152,15.100,5.394
09:18:27:997,29.980,-0.006,-0.012,0.005,-9.176,15.093,5.462
09:18:28:018,30.001,-0.010,-0.016,0.007,-9.194,15.105,5.511
09:18:28:044,30.027,-0.008,-0.012,0.013,-9.232,15.173,5.579
09:18:28:128,30.110,-0.017,-0.010,0.007,-9.274,15.234,5.621
09:18:28:128,30.111,-0.017,-0.011,0.012,-9.318,15.265,5.686
09:18:28:129,30.111,-0.008,-0.007,0.002,-9.352,15.256,5.718
09:18:28:149,30.132,-0.015,-0.008,0.005,-9.403,15.247,5.732
09:18:28:175,30.158,-0.015,-0.009,0.001,-9.434,15.241,5.742
09:18:28:229,30.212,-0.009,-0.012,0.005,-9.463,15.252,5.721
09:18:28:229,30.212,-0.010,-0.014,0.004,-9.497,15.280,5.697
09:18:28:252,30.235,-0.005,-0.012,0.010,-9.519,15.273,5.687
09:18:28:278,30.261,-0.012,-0.012,-0.001,-9.551,15.251,5.666
09:18:28:305,30.288,-0.010,-0.014,0.002,-9.584,15.211,5.651
09:18:28:361,30.344,-0.013,-0.007,0.002,-9.604,15.200,5.638
09:18:28:361,30.344,-0.003,-0.014,0.009,-9.615,15.166,5.608
09:18:28:384,30.367,-0.011,-0.009,0.002,-9.613,15.138,5.585
09:18:28:41,30.393,-0.010,-0.012,0.004,-9.606,15.099,5.537
09:18:28:436,30.419,-0.006,-0.009,0.005,-9.604,15.080,5.503
09:18:28:462,30.445,-0.003,-0.007,0.006,-9.598,15.037,5.442
09:18:28:489,30.471,-0.007,-0.011,0.001,-9.594,14.981,5.386
09:18:28:544,30.527,-0.001,-0.012,0.009,-9.587,14.945,5.356
09:18:28:545,30.528,0.000,-0.013,0.006,-9.580,14.881,5.322
09:18:28:567,30.550,0.004,-0.013,0.011,-9.576,14.841,5.321
09:18:28:594,30.577,0.003,-0.008,0.002,-9.563,14.770,5.339
09:18:28:621,30.604,0.000,-0.008,0.002,-9.561,14.718,5.404
09:18:28:706,30.689,-0.008,-0.012,0.000,-9.560,14.706,5.455
09:18:28:706,30.689,-0.006,-0.011,0.014,-9.550,14.683,5.555
09:18:28:706,30.689,-0.016,-0.012,0.010,-9.545,14.656,5.620
09:18:28:727,30.710,-0.009,-0.011,0.003,-9.533,14.577,5.718
09:18:28:753,30.736,-0.014,-0.011,0.008,-9.537,14.543,5.772
09:18:28:81,30.793,-0.015,-0.012,0.010,-9.535,14.537,5.829
09:18:28:81,30.793,-0.012,-0.012,0.009,-9.530,14.535,5.857
09:18:28:83,30.813,-0.007,-0.009,-0.001,-9.526,14.532,5.859
09:18:28:856,30.839,-0.010,-0.010,0.009,-9.520,14.531,5.834
09:18:28:882,30.865,-0.009,-0.009,0.002,-9.514,14.531,5.800
09:18:28:937,30.920,-0.011,-0.011,0.010,-9.495,14.532,5.765
09:18:28:938,30.921,-0.009,-0.010,0.003,-9.476,14.533,5.729
09:18:28:961,30.944,0.002,-0.009,0.006,-9.473,14.529,5.700
09:18:28:989,30.972,-0.001,-0.009,-0.001,-9.466,14.548,5.686
09:18:29:015,30.998,-0.001,-0.013,0.012,-9.453,14.571,5.682
09:18:29:069,31.052,-0.003,-0.009,0.002,-9.437,14.613,5.696
09:18:29:07,31.053,-0.005,-0.012,0.010,-9.433,14.654,5.728
09:18:29:093,31.076,-0.004,-0.009,0.003,-9.443,14.671,5.763
09:18:29:118,31.101,-0.003,-0.010,0.012,-9.434,14.681,5.818
09:18:29:145,31.128,-0.007,-0.009,0.010,-9.424,14.682,5.855
09:18:29:2,31.183,-0.004,-0.013,0.009,-9.420,14.695,5.906
09:18:29:201,31.184,-0.003,-0.008,0.006,-9.417,14.732,5.949
09:18:29:224,31.206,-0.005,-0.010,0.009,-9.420,14.756,5.983
09:18:29:25,31.233,-0.007,-0.014,0.009,-9.420,14.813,6.024
09:18:29:336,31.319,-0.008,-0.007,0.017,-9.421,14.832,6.058
09:18:29:337,31.320,-0.008,-0.011,0.012,-9.426,14.819,6.117
09:18:29:337,31.320,-0.001,-0.011,0.011,-9.421,14.817,6.145
09:18:29:356,31.339,-0.009,-0.011,0.005,-9.426,14.823,6.184
09:18:29:383,31.365,-0.006,-0.012,0.017,-9.428,14.868,6.205
09:18:29:439,31.422,-0.007,-0.010,0.012,-9.434,14.909,6.217
09:18:29:44,31.423,-0.010,-0.013,0.010,-9.441,14.956,6.210
09:18:29:441,31.424,-0.006,-0.011,0.011,-9.443,14.978,6.202
09:18:29:515,31.498,-0.006,-0.014,0.009,-9.443,14.978,6.202
09:18:29:516,31.499,-0.005,-0.009,0.013,-9.457,14.977,6.204
09:18:29:542,31.524,-0.005,-0.012,0.010,-9.468,14.972,6.203
09:18:29:543,31.525,0.000,-0.011,0.009,-9.478,14.982,6.208
09:18:29:565,31.547,-0.008,-0.008,0.005,-9.486,14.982,6.202
09:18:29:591,31.574,-0.008,-0.013,0.015,-9.486,14.982,6.202
09:18:29:645,31.628,-0.004,-0.012,0.000,-9.486,14.982,6.202
09:18:29:673,31.656,-0.008,-0.011,0.009,-9.486,14.982,6.202
09:18:29:673,31.656,-0.008,-0.011,0.001,-9.486,14.982,6.202
09:18:29:696,31.679,-0.003,-0.011,0.012,-9.486,14.982,6.202
09:18:29:723,31.705,-0.005,-0.011,0.003,-9.486,14.982,6.202
09:18:29:778,31.761,-0.004,-0.009,0.012,-9.486,14.989,6.209
09:18:29:779,31.762,-0.010,-0.013,0.007,-9.489,14.987,6.231
09:18:29:802,31.785,-0.002,-0.010,0.012,-9.489,14.987,6.256
09:18:29:829,31.812,-0.008,-0.010,0.005,-9.486,14.973,6.270
09:18:29:855,31.838,-0.010,-0.011,0.013,-9.488,14.974,6.281
09:18:29:907,31.890,-0.007,-0.012,0.010,-9.488,14.974,6.281
09:18:29:935,31.918,-0.002,-0.013,0.015,-9.488,14.975,6.306
09:18:29:936,31.919,-0.007,-0.014,0.010,-9.489,14.971,6.317
09:18:29:959,31.942,-0.006,-0.010,0.017,-9.489,14.972,6.342
09:18:29:986,31.969,-0.008,-0.012,0.014,-9.489,14.975,6.360
09:18:30:069,32.052,-0.004,-0.009,0.020,-9.504,14.968,6.381
09:18:30:07,32.053,-0.011,-0.009,0.011,-9.527,14.950,6.408
09:18:30:071,32.054,-0.008,-0.010,0.013,-9.549,14.929,6.425
09:18:30:09,32.073,-0.008,-0.011,0.009,-9.580,14.908,6.429
09:18:30:116,32.099,-0.011,-0.013,0.013,-9.602,14.907,6.426
09:18:30:174,32.157,-0.012,-0.011,0.009,-9.613,14.902,6.425
09:18:30:174,32.157,-0.006,-0.013,0.013,-9.617,14.911,6.404
09:18:30:195,32.178,-0.007,-0.013,0.013,-9.619,14.920,6.389
09:18:30:221,32.204,-0.007,-0.010,0.011,-9.632,14.922,6.356
09:18:30:249,32.232,-0.007,-0.011,0.010,-9.657,14.916,6.332
09:18:30:305,32.288,-0.005,-0.010,0.010,-9.676,14.911,6.326
09:18:30:305,32.288,-0.006,-0.012,0.015,-9.701,14.919,6.326
09:18:30:355,32.338,-0.012,-0.013,0.018,-9.706,14.910,6.317
09:18:30:356,32.339,-0.009,-0.011,0.014,-9.732,14.911,6.286
09:18:30:437,32.420,-0.012,-0.011,0.012,-9.751,14.912,6.261
09:18:30:437,32.420,-0.006,-0.013,0.011,-9.767,14.901,6.209
09:18:30:438,32.421,-0.006,-0.011,0.006,-9.791,14.891,6.143
09:18:30:544,32.527,-0.004,-0.007,0.011,-9.803,14.899,6.091
09:18:30:544,32.527,-0.006,-0.010,0.006,-9.805,14.902,6.016
09:18:30:545,32.528,-0.006,-0.007,0.009,-9.803,14.911,5.962
09:18:30:565,32.548,-0.010,-0.013,0.013,-9.792,14.932,5.901
09:18:30:566,32.549,0.000,-0.011,0.015,-9.780,14.910,5.836
09:18:30:619,32.602,-0.001,-0.010,0.001,-9.774,14.888,5.805
09:18:30:619,32.602,-0.001,-0.011,0.012,-9.771,14.881,5.759
09:18:30:642,32.625,-0.001,-0.011,0.010,-9.769,14.880,5.748
09:18:30:667,32.650,0.001,-0.009,0.015,-9.758,14.878,5.743
09:18:30:694,32.677,-0.001,-0.013,0.009,-9.755,14.881,5.746
09:18:30:779,32.762,-0.003,-0.011,0.015,-9.747,14.881,5.751
09:18:30:779,32.762,-0.004,-0.010,0.005,-9.748,14.877,5.787
09:18:30:779,32.762,-0.001,-0.011,0.011,-9.740,14.878,5.818
09:18:30:799,32.782,-0.004,-0.010,0.011,-9.730,14.874,5.873
09:18:30:825,32.808,-0.004,-0.013,0.015,-9.731,14.871,5.909
09:18:30:88,32.863,-0.005,-0.012,0.008,-9.711,14.863,5.967
09:18:30:907,32.890,-0.005,-0.010,0.010,-9.712,14.860,6.003
09:18:30:908,32.891,-0.007,-0.011,0.007,-9.707,14.859,6.055
09:18:30:932,32.915,-0.006,-0.009,0.011,-9.699,14.862,6.104
09:18:30:958,32.941,-0.004,-0.011,0.013,-9.697,14.855,6.136
09:18:31:009,32.992,-0.004,-0.012,0.012,-9.693,14.862,6.188
09:18:31:04,33.023,-0.007,-0.013,0.009,-9.690,14.862,6.226
09:18:31:04,33.023,-0.007,-0.009,0.014,-9.681,14.858,6.282
09:18:31:063,33.046,-0.008,-0.013,0.013,-9.678,14.858,6.321
09:18:31:088,33.071,-0.007,-0.010,0.004,-9.673,14.853,6.331
09:18:31:143,33.126,-0.006,-0.013,0.012,-9.671,14.845,6.338
09:18:31:143,33.126,-0.005,-0.009,0.002,-9.662,14.832,6.345
09:18:31:168,33.151,0.002,-0.007,0.009,-9.662,14.832,6.345
09:18:31:195,33.178,-0.005,-0.010,0.007,-9.657,14.827,6.355
09:18:31:22,33.203,-0.005,-0.010,0.014,-9.650,14.823,6.372
09:18:31:275,33.257,-0.006,-0.011,0.008,-9.639,14.803,6.411
09:18:31:275,33.258,-0.004,-0.014,0.017,-9.633,14.804,6.428
09:18:31:297,33.280,-0.006,-0.010,0.007,-9.623,14.803,6.447
09:18:31:324,33.307,-0.011,-0.011,0.014,-9.640,14.798,6.454
09:18:31:35,33.333,-0.010,-0.012,0.004,-9.654,14.797,6.457
09:18:31:376,33.359,-0.009,-0.015,0.018,-9.676,14.816,6.459
09:18:31:402,33.385,-0.008,-0.012,0.007,-9.681,14.821,6.449
09:18:31:458,33.441,-0.004,-0.012,0.013,-9.702,14.816,6.404
09:18:31:459,33.441,-0.010,-0.012,0.006,-9.709,14.825,6.344
09:18:31:482,33.465,-0.005,-0.013,0.014,-9.716,14.828,6.302
09:18:31:508,33.491,-0.005,-0.011,0.005,-9.733,14.866,6.227
09:18:31:534,33.517,-0.005,-0.011,0.014,-9.731,14.882,6.179
09:18:31:589,33.572,0.001,-0.010,0.006,-9.732,14.885,6.104
09:18:31:59,33.573,0.000,-0.010,0.009,-9.731,14.888,6.068
09:18:31:614,33.597,-0.004,-0.011,0.009,-9.729,14.883,6.014
09:18:31:641,33.623,-0.003,-0.009,0.010,-9.728,14.880,5.972
09:18:31:668,33.651,-0.001,-0.010,0.004,-9.725,14.882,5.950
09:18:31:669,33.651,-0.002,-0.009,0.005,-9.727,14.883,5.936
09:18:31:72,33.703,-0.003,-0.012,0.009,-9.727,14.883,5.936
09:18:31:746,33.729,-0.003,-0.014,0.012,-9.727,14.883,5.936
09:18:31:747,33.730,-0.006,-0.013,0.009,-9.727,14.883,5.936
09:18:31:8,33.783,-0.005,-0.012,0.008,-9.727,14.883,5.936
09:18:31:801,33.784,-0.003,-0.005,0.006,-9.727,14.883,5.936
09:18:31:881,33.864,-0.005,-0.011,0.002,-9.727,14.883,5.936
09:18:31:882,33.865,-0.001,-0.012,0.011,-9.727,14.883,5.936
09:18:31:882,33.865,-0.007,-0.009,0.001,-9.727,14.891,5.935
09:18:31:901,33.884,-0.005,-0.012,0.013,-9.731,14.926,5.925
09:18:31:927,33.910,-0.007,-0.011,0.004,-9.729,14.938,5.913
09:18:31:98,33.963,0.001,-0.009,0.007,-9.732,14.939,5.900
09:18:32:009,33.992,-0.007,-0.011,0.002,-9.735,14.936,5.897
09:18:32:01,33.992,-0.004,-0.013,0.015,-9.732,14.938,5.875
09:18:32:034,34.016,-0.004,-0.008,0.006,-9.729,14.941,5.853
09:18:32:06,34.043,-0.001,-0.011,0.013,-9.729,14.940,5.828
09:18:32:116,34.099,-0.006,-0.010,0.002,-9.733,14.948,5.806
09:18:32:116,34.099,0.002,-0.010,0.017,-9.729,14.950,5.784
09:18:32:137,34.120,0.000,-0.007,0.008,-9.729,14.950,5.759
09:18:32:163,34.146,-0.002,-0.012,0.012,-9.732,14.951,5.745
09:18:32:22,34.203,-0.004,-0.012,0.010,-9.732,14.951,5.745
09:18:32:22,34.203,0.001,-0.012,0.011,-9.732,14.951,5.745
09:18:32:242,34.225,-0.002,-0.011,0.006,-9.732,14.951,5.745
09:18:32:298,34.280,0.000,-0.009,0.011,-9.732,14.951,5.745
09:18:32:299,34.281,-0.005,-0.013,0.009,-9.729,14.950,5.759
09:18:32:352,34.335,-0.005,-0.013,0.010,-9.732,14.951,5.770
09:18:32:352,34.335,-0.007,-0.010,0.010,-9.732,14.951,5.770
09:18:32:374,34.357,-0.001,-0.013,0.011,-9.732,14.951,5.770
09:18:32:429,34.412,-0.006,-0.008,0.009,-9.732,14.951,5.770
09:18:32:429,34.412,-0.003,-0.012,0.013,-9.732,14.951,5.770
09:18:32:482,34.465,-0.003,-0.011,0.011,-9.730,14.970,5.765
09:18:32:483,34.466,-0.002,-0.011,0.018,-9.735,14.995,5.760
09:18:32:506,34.489,-0.004,-0.010,0.011,-9.735,14.995,5.760
09:18:32:56,34.543,0.003,-0.012,0.015,-9.735,14.995,5.760
09:18:32:561,34.544,-0.006,-0.009,0.009,-9.735,14.995,5.760
09:18:32:585,34.568,-0.001,-0.010,0.013,-9.739,15.006,5.756
09:18:32:611,34.594,0.000,-0.009,0.013,-9.739,15.012,5.737
09:18:32:638,34.621,-0.004,-0.011,0.003,-9.739,15.012,5.737
09:18:32:694,34.677,-0.004,-0.010,0.008,-9.739,15.012,5.737
09:18:32:694,34.677,-0.001,-0.009,0.004,-9.739,15.012,5.737
09:18:32:715,34.698,0.002,-0.012,0.011,-9.739,15.012,5.737
09:18:32:741,34.724,-0.002,-0.009,0.005,-9.737,15.002,5.752
09:18:32:769,34.752,-0.003,-0.013,0.013,-9.737,15.005,5.770
09:18:32:823,34.806,-0.008,-0.009,0.006,-9.735,14.998,5.802
09:18:32:88,34.863,-0.002,-0.015,0.017,-9.740,15.004,5.817
09:18:32:88,34.863,-0.008,-0.008,0.009,-9.739,14.990,5.818
09:18:32:88,34.863,-0.005,-0.010,0.011,-9.735,14.979,5.822
09:18:32:901,34.884,-0.001,-0.011,0.009,-9.735,14.979,5.822
09:18:32:983,34.966,0.001,-0.008,0.015,-9.739,14.990,5.818
09:18:32:984,34.967,0.000,-0.009,0.009,-9.739,14.990,5.818
09:18:32:985,34.968,-0.004,-0.015,0.014,-9.739,14.990,5.818
09:18:33:003,34.986,-0.003,-0.011,0.009,-9.739,14.990,5.818
09:18:33:03,35.013,-0.001,-0.010,0.013,-9.739,14.990,5.818
09:18:33:085,35.068,-0.006,-0.014,0.016,-9.738,15.022,5.811
09:18:33:086,35.069,-0.005,-0.010,0.014,-9.738,15.022,5.811
09:18:33:139,35.122,-0.007,-0.011,0.011,-9.738,15.022,5.811
09:18:33:139,35.122,-0.006,-0.012,0.015,-9.740,15.038,5.803
09:18:33:161,35.144,-0.005,-0.011,0.012,-9.740,15.049,5.784
09:18:33:218,35.201,-0.002,-0.009,0.011,-9.738,15.047,5.748
09:18:33:218,35.201,-0.001,-0.011,0.015,-9.741,15.048,5.734
09:18:33:271,35.254,0.000,-0.011,0.015,-9.741,15.048,5.734
09:18:33:272,35.255,-0.002,-0.010,0.011,-9.741,15.048,5.734
09:18:33:292,35.275,-0.001,-0.009,0.012,-9.745,15.050,5.731
09:18:33:348,35.331,-0.004,-0.009,0.014,-9.751,15.043,5.733
09:18:33:348,35.331,-0.005,-0.012,0.014,-9.751,15.043,5.733
09:18:33:4,35.383,-0.006,-0.009,0.013,-9.751,15.043,5.733
09:18:33:401,35.384,-0.010,-0.009,0.005,-9.751,15.043,5.733
09:18:33:424,35.407,-0.005,-0.012,0.011,-9.751,15.043,5.733
09:18:33:45,35.433,-0.009,-0.011,0.006,-9.751,15.043,5.733
09:18:33:476,35.459,-0.004,-0.009,0.013,-9.751,15.043,5.733
09:18:33:531,35.514,-0.005,-0.011,0.009,-9.751,15.043,5.733
09:18:33:532,35.515,-0.003,-0.011,0.015,-9.751,15.043,5.733
09:18:33:556,35.539,-0.005,-0.012,0.005,-9.751,15.043,5.733
09:18:33:581,35.564,-0.001,-0.011,0.009,-9.751,15.043,5.733
09:18:33:607,35.590,-0.005,-0.008,0.006,-9.751,15.043,5.733
09:18:33:663,35.646,-0.004,-0.009,0.013,-9.751,15.043,5.733
09:18:33:663,35.646,-0.007,-0.009,0.008,-9.756,15.054,5.729
09:18:33:687,35.670,-0.008,-0.014,0.012,-9.756,15.054,5.729
09:18:33:713,35.695,-0.003,-0.009,0.007,-9.756,15.054,5.729
09:18:33:739,35.722,-0.006,-0.012,0.009,-9.757,15.068,5.728
09:18:33:797,35.780,-0.009,-0.011,0.013,-9.762,15.093,5.723
09:18:33:798,35.781,-0.005,-0.011,0.013,-9.771,15.087,5.711
09:18:33:798,35.781,-0.001,-0.011,0.009,-9.789,15.088,5.686
09:18:33:844,35.827,-0.002,-0.010,0.011,-9.797,15.088,5.681
09:18:33:873,35.856,-0.002,-0.008,0.010,-9.797,15.088,5.681
09:18:33:874,35.856,-0.001,-0.011,0.012,-9.797,15.088,5.681
09:18:33:956,35.939,-0.003,-0.010,0.008,-9.797,15.088,5.681
09:18:33:956,35.939,-0.003,-0.009,0.012,-9.797,15.088,5.681
09:18:33:956,35.939,-0.005,-0.012,0.010,-9.797,15.088,5.681
09:18:33:975,35.958,-0.005,-0.010,0.011,-9.797,15.088,5.681
09:18:34:002,35.985,0.000,-0.011,0.010,-9.797,15.088,5.681
09:18:34:057,36.040,-0.002,-0.010,0.015,-9.797,15.088,5.681
09:18:34:058,36.041,-0.004,-0.012,0.009,-9.797,15.088,5.681
09:18:34:109,36.092,-0.002,-0.008,0.009,-9.797,15.088,5.681
09:18:34:11,36.093,-0.002,-0.010,0.011,-9.797,15.088,5.681
09:18:34:134,36.117,0.001,-0.008,0.005,-9.797,15.088,5.681
09:18:34:189,36.172,-0.002,-0.013,0.011,-9.797,15.088,5.681
09:18:34:19,36.173,-0.006,-0.010,0.004,-9.797,15.088,5.681
09:18:34:242,36.225,-0.003,-0.012,0.011,-9.797,15.088,5.681
09:18:34:242,36.225,-0.005,-0.009,0.006,-9.797,15.088,5.681
09:18:34:324,36.307,-0.004,-0.011,0.012,-9.797,15.088,5.681
09:18:34:324,36.307,-0.010,-0.010,0.003,-9.793,15.077,5.684
09:18:34:324,36.307,0.000,-0.011,0.016,-9.793,15.077,5.684
09:18:34:372,36.355,-0.001,-0.009,0.007,-9.793,15.077,5.684
09:18:34:372,36.355,0.001,-0.012,0.011,-9.795,15.058,5.690
09:18:34:395,36.378,-0.009,-0.008,0.008,-9.794,15.065,5.697
09:18:34:421,36.404,-0.008,-0.008,0.014,-9.795,15.079,5.695
09:18:34:447,36.430,-0.007,-0.008,0.013,-9.795,15.079,5.695
09:18:34:503,36.486,-0.004,-0.011,0.016,-9.795,15.079,5.695
09:18:34:504,36.487,-0.003,-0.011,0.010,-9.795,15.079,5.695
09:18:34:528,36.511,-0.004,-0.011,0.015,-9.795,15.087,5.694
09:18:34:554,36.537,0.000,-0.010,0.014,-9.793,15.105,5.689
09:18:34:579,36.562,-0.003,-0.012,0.012,-9.793,15.105,5.689
09:18:34:633,36.615,-0.003,-0.008,0.009,-9.793,15.105,5.689
09:18:34:662,36.645,-0.010,-0.015,0.014,-9.793,15.105,5.689
09:18:34:662,36.645,-0.003,-0.012,0.008,-9.793,15.105,5.689
09:18:34:684,36.667,-0.003,-0.010,0.013,-9.798,15.102,5.680
09:18:34:71,36.693,-0.006,-0.011,0.007,-9.798,15.102,5.680
09:18:34:765,36.748,-0.004,-0.013,0.012,-9.798,15.110,5.679
09:18:34:766,36.749,-0.006,-0.009,0.012,-9.798,15.110,5.679
09:18:34:79,36.773,-0.005,-0.009,0.007,-9.798,15.110,5.679
09:18:34:815,36.798,-0.004,-0.010,0.013,-9.797,15.114,5.667
09:18:34:842,36.824,-0.003,-0.012,0.013,-9.797,15.133,5.648
09:18:34:895,36.878,-0.002,-0.013,0.014,-9.800,15.154,5.614
09:18:34:924,36.907,-0.001,-0.012,0.004,-9.810,15.155,5.595
09:18:34:924,36.907,-0.002,-0.011,0.006,-9.810,15.154,5.570
09:18:34:949,36.932,-0.003,-0.010,0.005,-9.805,15.155,5.562
09:18:34:972,36.955,-0.004,-0.010,0.014,-9.806,15.163,5.554
09:18:35:028,37.011,-0.010,-0.010,0.003,-9.806,15.163,5.554
09:18:35:029,37.012,-0.003,-0.012,0.011,-9.804,15.161,5.543
09:18:35:081,37.064,-0.004,-0.011,0.001,-9.809,15.163,5.515
09:18:35:081,37.064,-0.002,-0.012,0.011,-9.807,15.161,5.504
09:18:35:162,37.145,-0.002,-0.008,0.003,-9.808,15.166,5.479
09:18:35:163,37.145,0.000,-0.011,0.012,-9.805,15.162,5.451
09:18:35:164,37.146,-0.003,-0.009,0.003,-9.803,15.160,5.440
09:18:35:212,37.195,-0.003,-0.011,0.008,-9.803,15.160,5.440
09:18:35:213,37.196,-0.002,-0.011,0.005,-9.806,15.156,5.445
09:18:35:263,37.246,-0.003,-0.010,0.012,-9.806,15.156,5.445
09:18:35:29,37.273,0.001,-0.011,0.006,-9.806,15.156,5.445
09:18:35:291,37.274,-0.001,-0.011,0.010,-9.806,15.156,5.445
09:18:35:344,37.327,-0.006,-0.009,0.012,-9.806,15.156,5.445
09:18:35:344,37.327,-0.004,-0.010,0.009,-9.806,15.156,5.445
09:18:35:366,37.349,-0.004,-0.008,0.010,-9.806,15.156,5.445
09:18:35:393,37.375,-0.003,-0.011,0.007,-9.806,15.156,5.445
09:18:35:421,37.404,-0.003,-0.007,0.005,-9.806,15.156,5.445
09:18:35:474,37.457,-0.007,-0.012,0.010,-9.807,15.163,5.437
09:18:35:475,37.458,-0.004,-0.011,0.007,-9.807,15.171,5.436
09:18:35:527,37.510,-0.002,-0.009,0.007,-9.804,15.173,5.414
09:18:35:527,37.510,-0.001,-0.011,0.006,-9.806,15.174,5.400
09:18:35:55,37.533,-0.002,-0.010,0.011,-9.806,15.174,5.400
09:18:35:604,37.587,-0.001,-0.013,0.011,-9.806,15.174,5.400
09:18:35:634,37.616,0.000,-0.010,0.009,-9.806,15.174,5.400
09:18:35:634,37.616,0.001,-0.010,0.005,-9.806,15.174,5.400
09:18:35:655,37.638,-0.004,-0.013,0.006,-9.806,15.174,5.400
09:18:35:681,37.664,-0.001,-0.013,0.009,-9.806,15.174,5.400
09:18:35:737,37.720,-0.004,-0.008,0.004,-9.806,15.174,5.400
09:18:35:737,37.720,-0.004,-0.013,0.003,-9.806,15.174,5.400
09:18:35:76,37.743,-0.005,-0.011,0.005,-9.806,15.174,5.400
09:18:35:787,37.770,-0.004,-0.011,0.012,-9.806,15.174,5.400
09:18:35:813,37.796,-0.004,-0.011,0.002,-9.806,15.174,5.400
09:18:35:871,37.853,-0.004,-0.009,0.006,-9.806,15.174,5.400
09:18:35:871,37.853,-0.003,-0.012,0.003,-9.806,15.174,5.400
09:18:35:892,37.875,-0.002,-0.010,0.011,-9.806,15.174,5.400
09:18:35:918,37.901,-0.004,-0.011,0.007,-9.806,15.174,5.400
09:18:35:944,37.927,-0.005,-0.009,0.010,-9.806,15.174,5.400
09:18:35:999,37.982,-0.006,-0.012,0.007,-9.806,15.174,5.400
09:18:36:055,38.038,-0.007,-0.013,0.011,-9.806,15.174,5.400
09:18:36:055,38.038,-0.008,-0.012,0.012,-9.806,15.174,5.400
09:18:36:056,38.039,-0.002,-0.011,0.008,-9.806,15.166,5.401
09:18:36:19,38.172,0.000,-0.010,0.011,-9.802,15.163,5.404
09:18:36:19,38.173,-0.003,-0.007,0.004,-9.802,15.163,5.404
09:18:36:191,38.174,-0.002,-0.012,0.011,-9.802,15.163,5.404
09:18:36:192,38.175,-0.002,-0.013,0.006,-9.802,15.163,5.404
09:18:36:239,38.222,0.000,-0.012,0.006,-9.802,15.163,5.404
09:18:36:239,38.222,-0.003,-0.009,0.007,-9.807,15.162,5.412
09:18:36:24,38.223,-0.008,-0.011,0.011,-9.807,15.163,5.437
09:18:36:259,38.242,-0.007,-0.011,0.011,-9.804,15.174,5.439
09:18:36:315,38.298,-0.004,-0.011,0.007,-9.804,15.174,5.439
09:18:36:315,38.298,-0.005,-0.011,0.007,-9.804,15.174,5.439
09:18:36:366,38.349,-0.006,-0.009,0.013,-9.804,15.174,5.439
09:18:36:367,38.350,-0.005,-0.013,0.009,-9.804,15.174,5.439
09:18:36:392,38.374,-0.005,-0.014,0.008,-9.803,15.160,5.440
09:18:36:504,38.487,-0.008,-0.012,0.010,-9.803,15.160,5.440
09:18:36:504,38.487,-0.007,-0.010,0.002,-9.806,15.156,5.445
09:18:36:505,38.488,-0.005,-0.010,0.011,-9.805,15.162,5.451
09:18:36:506,38.489,-0.012,-0.011,0.002,-9.804,15.148,5.452
09:18:36:521,38.504,-0.011,-0.009,0.008,-9.804,15.148,5.452
09:18:36:607,38.590,-0.009,-0.012,0.006,-9.804,15.148,5.452
09:18:36:607,38.590,-0.002,-0.010,0.009,-9.804,15.148,5.452
09:18:36:608,38.591,-0.011,-0.010,0.001,-9.803,15.126,5.454
09:18:36:627,38.610,-0.005,-0.008,0.014,-9.803,15.126,5.454
09:18:36:653,38.636,-0.006,-0.012,0.006,-9.803,15.126,5.454
09:18:36:708,38.691,-0.006,-0.012,0.013,-9.799,15.115,5.458
09:18:36:735,38.718,-0.009,-0.009,0.004,-9.798,15.101,5.459
09:18:36:735,38.718,-0.006,-0.011,0.013,-9.797,15.087,5.460
09:18:36:757,38.740,-0.006,-0.010,0.006,-9.799,15.069,5.466
09:18:36:786,38.769,-0.008,-0.014,0.013,-9.794,15.044,5.471
09:18:36:84,38.823,-0.012,-0.011,0.008,-9.793,15.030,5.472
09:18:36:84,38.823,-0.005,-0.014,0.008,-9.793,15.021,5.473
09:18:36:893,38.876,-0.004,-0.011,0.007,-9.788,14.996,5.478
09:18:36:893,38.876,-0.004,-0.012,0.007,-9.787,14.983,5.479
09:18:36:915,38.898,-0.010,-0.012,0.008,-9.787,14.983,5.479
09:18:36:97,38.953,-0.004,-0.009,0.014,-9.785,14.953,5.488
09:18:36:971,38.954,-0.008,-0.014,0.005,-9.784,14.939,5.489
09:18:36:996,38.979,-0.009,-0.008,0.004,-9.779,14.906,5.495
09:18:37:022,39.005,-0.008,-0.007,0.008,-9.778,14.892,5.496
09:18:37:047,39.030,-0.009,-0.010,0.010,-9.777,14.870,5.498
09:18:37:102,39.085,-0.010,-0.010,0.016,-9.778,14.872,5.491
09:18:37:102,39.085,-0.004,-0.011,0.011,-9.779,14.877,5.466
09:18:37:154,39.137,-0.001,-0.010,0.006,-9.776,14.872,5.437
09:18:37:155,39.138,-0.003,-0.010,0.011,-9.776,14.879,5.444
09:18:37:179,39.162,-0.004,-0.012,0.009,-9.774,14.897,5.438
09:18:37:236,39.219,-0.004,-0.010,0.007,-9.772,14.918,5.450
09:18:37:236,39.219,-0.002,-0.009,0.016,-9.783,14.943,5.478
09:18:37:288,39.270,-0.008,-0.011,0.004,-9.783,14.975,5.525
09:18:37:288,39.270,-0.008,-0.013,0.010,-9.786,15.008,5.558
09:18:37:309,39.292,-0.008,-0.010,0.008,-9.791,15.037,5.620
09:18:37:335,39.318,-0.007,-0.011,0.013,-9.791,15.040,5.663
09:18:37:42,39.403,-0.005,-0.011,0.001,-9.793,15.052,5.722
09:18:37:421,39.404,-0.010,-0.010,0.009,-9.800,15.073,5.754
09:18:37:421,39.404,-0.020,-0.007,0.007,-9.802,15.141,5.797
09:18:37:441,39.424,-0.012,-0.013,0.016,-9.806,15.208,5.834
09:18:37:468,39.450,-0.019,-0.010,0.004,-9.805,15.243,5.845
09:18:37:495,39.478,-0.008,-0.010,0.012,-9.801,15.281,5.859
09:18:37:546,39.529,-0.008,-0.011,0.006,-9.804,15.285,5.862
09:18:37:576,39.559,-0.001,-0.011,0.009,-9.796,15.285,5.868
09:18:37:576,39.559,-0.005,-0.009,0.008,-9.797,15.321,5.865
09:18:37:597,39.580,-0.008,-0.012,0.009,-9.795,15.346,5.866
09:18:37:624,39.607,-0.012,-0.010,0.012,-9.790,15.363,5.874
09:18:37:679,39.661,-0.009,-0.012,0.013,-9.790,15.369,5.880
09:18:37:706,39.689,-0.007,-0.011,0.008,-9.778,15.326,5.897
09:18:37:706,39.689,-0.010,-0.011,0.007,-9.771,15.293,5.909
09:18:37:729,39.712,-0.008,-0.009,0.005,-9.762,15.249,5.919
09:18:37:755,39.738,-0.002,-0.010,0.015,-9.751,15.182,5.966
09:18:37:811,39.794,-0.004,-0.012,0.011,-9.744,15.151,6.003
09:18:37:812,39.795,-0.007,-0.010,0.010,-9.732,15.117,6.068
09:18:37:836,39.818,-0.009,-0.011,0.012,-9.728,15.109,6.114
09:18:37:861,39.844,-0.006,-0.015,0.017,-9.716,15.056,6.199
09:18:37:887,39.870,-0.002,-0.012,0.012,-9.703,15.015,6.271
09:18:37:942,39.925,-0.006,-0.012,0.009,-9.696,15.003,6.314
09:18:37:995,39.978,-0.009,-0.008,0.007,-9.674,14.937,6.430
09:18:37:995,39.978,-0.006,-0.008,0.011,-9.669,14.933,6.465
09:18:38:018,40.001,-0.012,-0.010,0.008,-9.657,14.933,6.491
09:18:38:046,40.029,-0.009,-0.014,0.015,-9.652,14.928,6.501
09:18:38:07,40.053,-0.007,-0.010,0.009,-9.644,14.928,6.507
09:18:38:125,40.108,-0.004,-0.013,0.016,-9.634,14.926,6.501
09:18:38:126,40.109,-0.008,-0.007,0.001,-9.630,14.957,6.484
09:18:38:149,40.132,-0.004,-0.011,0.016,-9.629,14.989,6.477
09:18:38:175,40.158,-0.006,-0.010,0.007,-9.622,15.037,6.468
09:18:38:201,40.184,-0.001,-0.009,0.014,-9.620,15.076,6.467
09:18:38:257,40.239,-0.005,-0.009,0.001,-9.615,15.106,6.464
09:18:38:258,40.240,-0.005,-0.012,0.016,-9.615,15.134,6.468
09:18:38:281,40.264,-0.004,-0.010,0.009,-9.612,15.137,6.471
09:18:38:306,40.289,-0.001,-0.008,0.009,-9.604,15.145,6.475
09:18:38:333,40.316,-0.008,-0.013,0.008,-9.608,15.183,6.483
09:18:38:42,40.403,-0.005,-0.012,0.017,-9.603,15.207,6.498
09:18:38:421,40.404,-0.008,-0.009,0.008,-9.595,15.215,6.503
09:18:38:422,40.405,-0.014,-0.012,0.009,-9.595,15.227,6.509
09:18:38:423,40.405,-0.011,-0.009,0.013,-9.592,15.267,6.515
09:18:38:438,40.420,-0.006,-0.014,0.013,-9.585,15.288,6.494
09:18:38:523,40.506,-0.005,-0.012,0.009,-9.584,15.286,6.477
09:18:38:523,40.506,-0.009,-0.012,0.012,-9.577,15.304,6.438
09:18:38:524,40.507,-0.003,-0.011,0.015,-9.582,15.328,6.408
09:18:38:543,40.526,-0.006,-0.011,0.012,-9.585,15.349,6.375
09:18:38:569,40.552,-0.004,-0.007,0.009,-9.585,15.368,6.355
09:18:38:651,40.634,-0.007,-0.013,0.010,-9.588,15.383,6.340
09:18:38:652,40.635,-0.003,-0.009,0.011,-9.588,15.383,6.340
09:18:38:677,40.659,-0.003,-0.011,0.008,-9.588,15.383,6.340
09:18:38:678,40.660,-0.010,-0.014,0.015,-9.590,15.419,6.337
09:18:38:701,40.684,-0.008,-0.010,0.009,-9.589,15.431,6.325
09:18:38:726,40.709,-0.002,-0.009,0.011,-9.593,15.433,6.297
09:18:38:784,40.767,-0.005,-0.010,0.004,-9.593,15.433,6.272
09:18:38:784,40.767,-0.005,-0.013,0.014,-9.594,15.447,6.271
09:18:38:805,40.788,-0.009,-0.008,0.008,-9.589,15.447,6.263
09:18:38:831,40.814,-0.006,-0.011,0.011,-9.591,15.449,6.249
09:18:38:858,40.841,-0.006,-0.011,0.005,-9.589,15.432,6.233
09:18:38:913,40.896,-0.003,-0.013,0.011,-9.592,15.433,6.219
09:18:38:914,40.896,-0.005,-0.010,0.002,-9.592,15.432,6.194
09:18:38:938,40.921,-0.004,-0.012,0.016,-9.588,15.415,6.191
09:18:38:963,40.946,-0.004,-0.009,0.006,-9.586,15.399,6.200
09:18:38:989,40.972,-0.003,-0.013,0.013,-9.586,15.399,6.200
09:18:39:015,40.998,-0.001,-0.009,0.009,-9.586,15.399,6.200
09:18:39:043,41.026,-0.002,-0.010,0.018,-9.579,15.401,6.198
09:18:39:097,41.080,0.000,-0.008,0.010,-9.579,15.402,6.223
09:18:39:098,41.080,-0.001,-0.010,0.015,-9.579,15.411,6.247
09:18:39:121,41.103,-0.007,-0.011,0.014,-9.585,15.433,6.278
09:18:39:147,41.130,-0.004,-0.012,0.015,-9.585,15.433,6.303
09:18:39:173,41.156,-0.007,-0.011,0.014,-9.587,15.430,6.339
09:18:39:228,41.211,-0.005,-0.013,0.014,-9.588,15.439,6.357
09:18:39:229,41.212,-0.005,-0.010,0.010,-9.591,15.472,6.389
09:18:39:252,41.235,0.000,-0.008,0.016,-9.598,15.520,6.432
09:18:39:307,41.289,-0.008,-0.014,0.009,-9.601,15.538,6.460
09:18:39:308,41.290,-0.004,-0.014,0.017,-9.609,15.609,6.501
09:18:39:359,41.342,-0.006,-0.012,0.019,-9.617,15.667,6.529
09:18:39:36,41.343,-0.008,-0.012,0.010,-9.626,15.752,6.569
09:18:39:384,41.367,-0.006,-0.010,0.019,-9.644,15.826,6.608
09:18:39:41,41.393,-0.006,-0.011,0.016,-9.648,15.870,6.622
09:18:39:435,41.418,-0.006,-0.011,0.016,-9.663,15.941,6.657
09:18:39:489,41.471,-0.016,-0.008,0.004,-9.672,15.996,6.668
09:18:39:517,41.500,-0.011,-0.013,0.013,-9.676,16.069,6.686
09:18:39:518,41.501,-0.019,-0.007,0.011,-9.681,16.114,6.687
09:18:39:54,41.523,-0.010,-0.013,0.014,-9.673,16.122,6.692
09:18:39:567,41.550,-0.008,-0.012,0.001,-9.655,16.086,6.681
09:18:39:651,41.634,-0.005,-0.011,0.010,-9.652,16.062,6.672
09:18:39:652,41.635,-0.005,-0.009,0.005,-9.643,16.039,6.655
09:18:39:653,41.635,-0.008,-0.012,0.014,-9.640,16.043,6.650
09:18:39:672,41.655,-0.009,-0.011,0.008,-9.626,16.016,6.644
09:18:39:698,41.681,-0.004,-0.012,0.010,-9.620,15.988,6.631
09:18:39:754,41.737,-0.006,-0.008,-0.001,-9.614,15.991,6.615
09:18:39:754,41.737,-0.002,-0.014,0.015,-9.612,15.988,6.612
09:18:39:805,41.788,-0.001,-0.013,0.012,-9.604,15.988,6.617
09:18:39:806,41.789,-0.007,-0.015,0.017,-9.596,16.010,6.621
09:18:39:829,41.812,-0.008,-0.011,0.011,-9.601,16.013,6.618
09:18:39:885,41.868,-0.008,-0.012,0.014,-9.622,16.033,6.627
09:18:39:885,41.868,-0.012,-0.013,0.014,-9.650,16.043,6.638
09:18:39:908,41.891,-0.014,-0.010,0.017,-9.661,16.040,6.630
09:18:39:934,41.917,-0.008,-0.008,0.009,-9.692,16.018,6.609
09:18:39:962,41.945,-0.008,-0.010,0.006,-9.711,16.012,6.577
09:18:39:986,41.969,-0.012,-0.011,0.004,-9.729,15.984,6.523
09:18:40:014,41.997,-0.010,-0.013,0.016,-9.725,15.951,6.465
09:18:40:097,42.080,-0.002,-0.010,0.009,-9.722,15.918,6.432
09:18:40:098,42.081,0.000,-0.009,0.005,-9.724,15.863,6.377
09:18:40:099,42.082,-0.005,-0.009,0.010,-9.717,15.827,6.347
09:18:40:119,42.102,-0.007,-0.012,0.012,-9.710,15.776,6.311
09:18:40:145,42.128,-0.003,-0.011,0.007,-9.694,15.714,6.275
09:18:40:199,42.182,-0.003,-0.011,0.007,-9.688,15.692,6.244
09:18:40:2,42.183,-0.003,-0.010,0.007,-9.670,15.640,6.203
09:18:40:223,42.206,-0.005,-0.013,0.001,-9.648,15.611,6.177
09:18:40:249,42.232,0.000,-0.008,0.007,-9.622,15.574,6.147
09:18:40:275,42.258,0.000,-0.008,0.002,-9.594,15.527,6.133
09:18:40:331,42.314,0.001,-0.011,0.008,-9.589,15.502,6.137
09:18:40:387,42.370,-0.003,-0.007,0.002,-9.570,15.506,6.144
09:18:40:387,42.370,-0.003,-0.013,0.019,-9.552,15.505,6.169
09:18:40:387,42.370,-0.007,-0.011,0.004,-9.514,15.507,6.209
09:18:40:408,42.391,-0.010,-0.011,0.011,-9.498,15.509,6.238
09:18:40:462,42.445,-0.008,-0.008,0.000,-9.464,15.508,6.274
09:18:40:462,42.445,-0.004,-0.010,0.015,-9.412,15.519,6.310
09:18:40:486,42.469,-0.007,-0.008,0.008,-9.375,15.516,6.336
09:18:40:512,42.495,-0.005,-0.011,0.013,-9.337,15.552,6.361
09:18:40:538,42.520,-0.001,-0.010,0.002,-9.332,15.576,6.376
09:18:40:596,42.579,-0.003,-0.011,0.015,-9.319,15.629,6.401
09:18:40:597,42.580,-0.004,-0.016,0.010,-9.292,15.669,6.449
09:18:40:598,42.581,-0.014,-0.019,0.010,-9.286,15.680,6.490
09:18:40:616,42.599,0.020,0.004,0.017,-9.277,15.629,6.585
09:18:40:643,42.626,-0.004,-0.001,0.012,-9.258,15.584,6.667
09:18:40:723,42.706,-0.057,-0.024,0.005,-9.258,15.389,6.842
09:18:40:754,42.737,-0.026,-0.021,0.021,-9.185,15.179,6.900
09:18:40:755,42.738,0.072,0.008,0.018,-9.082,14.790,6.913
09:18:40:755,42.738,-0.011,-0.016,0.004,-9.066,14.656,6.954
09:18:40:803,42.786,-0.018,-0.016,0.016,-9.069,14.690,7.012
09:18:40:804,42.787,-0.011,-0.010,0.014,-9.085,14.749,7.084
09:18:40:854,42.837,-0.018,-0.009,0.010,-9.101,14.779,7.127
09:18:40:911,42.894,-0.001,-0.010,0.007,-9.122,14.800,7.161
09:18:40:912,42.894,-0.013,-0.009,0.011,-9.125,14.850,7.157
09:18:40:913,42.895,-0.006,-0.008,0.016,-9.119,14.886,7.160
09:18:40:932,42.915,0.000,-0.011,0.006,-9.134,14.959,7.135
09:18:40:958,42.941,-0.013,-0.009,0.007,-9.141,15.025,7.109
09:18:41:042,43.025,-0.008,-0.013,0.023,-9.142,15.118,7.062
09:18:41:043,43.026,-0.002,-0.005,0.003,-9.136,15.179,7.026
09:18:41:043,43.026,-0.001,-0.010,0.008,-9.140,15.267,6.959
09:18:41:063,43.045,-0.002,-0.010,0.009,-9.131,15.370,6.888
09:18:41:089,43.072,-0.007,-0.013,0.010,-9.114,15.435,6.854
09:18:41:117,43.100,-0.009,-0.012,0.006,-9.108,15.522,6.806
09:18:41:17,43.153,-0.008,-0.012,0.009,-9.108,15.567,6.773
09:18:41:171,43.154,-0.010,-0.011,0.004,-9.106,15.639,6.734
09:18:41:194,43.177,-0.009,-0.014,0.012,-9.115,15.707,6.694
09:18:41:22,43.203,-0.014,-0.009,0.005,-9.112,15.755,6.665
09:18:41:247,43.229,-0.007,-0.011,0.014,-9.120,15.808,6.626
09:18:41:302,43.285,-0.015,-0.036,0.014,-9.119,15.840,6.595
09:18:41:302,43.285,-0.001,0.009,0.018,-9.111,15.876,6.544
09:18:41:325,43.308,0.001,-0.019,0.006,-9.120,15.916,6.492
09:18:41:351,43.334,-0.020,-0.022,0.003,-9.125,15.948,6.494
09:18:41:378,43.361,0.006,-0.002,0.010,-9.128,15.956,6.472
09:18:41:434,43.416,-0.001,-0.016,0.013,-9.126,15.975,6.467
09:18:41:46,43.443,-0.015,-0.009,0.010,-9.122,15.992,6.475
09:18:41:46,43.443,0.002,-0.016,0.002,-9.114,15.998,6.462
09:18:41:483,43.466,-0.015,-0.014,0.000,-9.117,16.041,6.452
09:18:41:51,43.493,-0.006,-0.012,0.019,-9.116,16.081,6.445
09:18:41:594,43.576,-0.016,-0.028,0.014,-9.113,16.104,6.428
09:18:41:595,43.577,0.027,0.008,0.016,-9.102,16.093,6.399
09:18:41:595,43.578,-0.009,-0.024,0.000,-9.095,16.106,6.379
09:18:41:615,43.597,-0.015,-0.013,0.007,-9.123,16.158,6.375
09:18:41:642,43.625,-0.003,-0.004,0.023,-9.129,16.223,6.356
09:18:41:695,43.678,-0.010,-0.013,0.017,-9.139,16.224,6.337
09:18:41:696,43.679,0.002,0.002,0.004,-9.170,16.201,6.291
09:18:41:719,43.702,-0.007,-0.014,0.003,-9.174,16.211,6.262
09:18:41:745,43.728,-0.010,-0.012,0.006,-9.176,16.278,6.221
09:18:41:772,43.755,-0.016,-0.013,0.012,-9.177,16.317,6.182
09:18:41:829,43.812,-0.009,-0.012,0.007,-9.172,16.320,6.100
09:18:41:829,43.812,0.002,-0.008,-0.002,-9.169,16.319,5.996
09:18:41:879,43.862,0.000,-0.012,0.008,-9.168,16.329,5.935
09:18:41:881,43.864,-0.010,-0.010,0.004,-9.161,16.365,5.845
09:18:41:903,43.886,-0.004,-0.010,0.007,-9.159,16.374,5.791
09:18:41:957,43.940,-0.004,-0.011,0.004,-9.157,16.373,5.712
09:18:42:014,43.997,0.002,-0.009,0.011,-9.152,16.372,5.648
09:18:42:015,43.998,-0.004,-0.008,0.005,-9.149,16.375,5.618
09:18:42:015,43.998,0.002,-0.009,0.006,-9.148,16.378,5.583
09:18:42:065,44.048,-0.003,-0.011,0.008,-9.130,16.376,5.583
09:18:42:065,44.048,0.001,-0.012,0.013,-9.105,16.381,5.582
09:18:42:087,44.070,0.000,-0.010,0.004,-9.099,16.383,5.598
09:18:42:142,44.125,-0.003,-0.012,0.012,-9.093,16.380,5.640
09:18:42:142,44.125,-0.008,-0.010,0.010,-9.090,16.387,5.685
09:18:42:168,44.151,-0.006,-0.012,0.010,-9.082,16.389,5.709
09:18:42:194,44.177,-0.008,-0.011,0.005,-9.081,16.383,5.741
09:18:42:219,44.202,-0.009,-0.010,0.012,-9.073,16.383,5.747
09:18:42:272,44.255,-0.004,-0.013,0.009,-9.071,16.382,5.761
09:18:42:298,44.281,-0.004,-0.009,0.007,-9.067,16.399,5.769
09:18:42:325,44.308,-0.005,-0.012,0.012,-9.070,16.417,5.772
09:18:42:326,44.309,-0.005,-0.009,0.007,-9.063,16.410,5.771
09:18:42:349,44.332,-0.006,-0.009,0.007,-9.059,16.413,5.774
09:18:42:406,44.389,-0.004,-0.011,0.010,-9.058,16.406,5.781
09:18:42:406,44.389,-0.003,-0.013,0.008,-9.062,16.423,5.784
09:18:42:457,44.440,-0.003,-0.011,0.010,-9.054,16.423,5.790
09:18:42:458,44.441,-0.001,-0.011,0.006,-9.046,16.423,5.795
09:18:42:482,44.465,-0.009,-0.009,0.009,-9.046,16.423,5.795
09:18:42:537,44.520,-0.004,-0.014,0.013,-9.042,16.434,5.797
09:18:42:537,44.520,-0.006,-0.009,0.004,-9.038,16.445,5.799
09:18:42:559,44.542,-0.004,-0.012,0.010,-9.035,16.448,5.802
09:18:42:586,44.568,-0.009,-0.008,0.001,-9.035,16.448,5.802
09:18:42:613,44.596,-0.008,-0.013,0.011,-9.040,16.473,5.797
09:18:42:671,44.653,-0.007,-0.009,0.003,-9.052,16.510,5.775
09:18:42:671,44.653,-0.007,-0.012,0.005,-9.054,16.511,5.761
09:18:42:691,44.673,-0.008,-0.009,0.001,-9.051,16.506,5.732
09:18:42:717,44.700,-0.006,-0.015,0.013,-9.052,16.519,5.706
09:18:42:743,44.726,-0.003,-0.009,0.003,-9.054,16.540,5.673
09:18:42:802,44.785,-0.002,-0.012,0.008,-9.059,16.535,5.639
09:18:42:803,44.786,0.000,-0.007,0.001,-9.062,16.538,5.618
09:18:42:803,44.786,-0.004,-0.013,0.009,-9.063,16.543,5.593
09:18:42:849,44.831,-0.007,-0.011,0.008,-9.060,16.541,5.582
09:18:42:879,44.862,-0.005,-0.011,0.012,-9.064,16.549,5.560
09:18:42:879,44.862,-0.003,-0.011,0.001,-9.060,16.551,5.538
09:18:42:93,44.913,-0.003,-0.013,0.011,-9.063,16.552,5.524
09:18:42:931,44.914,-0.001,-0.008,0.003,-9.063,16.552,5.524
09:18:42:98,44.963,-0.008,-0.013,0.008,-9.060,16.557,5.520
09:18:43:067,45.050,-0.001,-0.011,0.009,-9.064,16.568,5.516
09:18:43:067,45.050,0.000,-0.009,0.008,-9.064,16.568,5.516
09:18:43:068,45.051,-0.007,-0.010,0.004,-9.064,16.568,5.516
09:18:43:069,45.052,-0.003,-0.013,0.009,-9.062,16.578,5.511
09:18:43:113,45.096,-0.006,-0.009,0.001,-9.065,16.581,5.515
09:18:43:114,45.097,-0.007,-0.011,0.007,-9.065,16.581,5.515
09:18:43:165,45.148,-0.006,-0.013,0.006,-9.065,16.581,5.515
09:18:43:167,45.150,-0.007,-0.011,0.009,-9.062,16.586,5.510
09:18:43:19,45.173,-0.002,-0.010,0.008,-9.066,16.595,5.514
09:18:43:303,45.286,-0.005,-0.012,0.006,-9.066,16.595,5.514
09:18:43:303,45.286,-0.001,-0.010,0.007,-9.066,16.595,5.514
09:18:43:304,45.287,-0.008,-0.008,0.000,-9.066,16.595,5.514
09:18:43:305,45.288,-0.006,-0.011,0.006,-9.066,16.595,5.514
09:18:43:321,45.304,-0.007,-0.008,0.000,-9.066,16.595,5.514
09:18:43:376,45.358,-0.005,-0.011,0.008,-9.066,16.595,5.514
09:18:43:377,45.359,-0.009,-0.009,0.001,-9.066,16.595,5.514
09:18:43:399,45.382,-0.005,-0.008,0.006,-9.066,16.595,5.514
09:18:43:425,45.408,-0.010,-0.010,0.002,-9.066,16.595,5.514
09:18:43:454,45.437,-0.004,-0.011,0.008,-9.066,16.595,5.514
09:18:43:536,45.519,-0.007,-0.010,0.000,-9.066,16.595,5.514
09:18:43:537,45.520,-0.008,-0.012,0.010,-9.066,16.595,5.514
09:18:43:537,45.520,-0.006,-0.011,0.000,-9.066,16.595,5.514
09:18:43:556,45.539,-0.008,-0.013,0.005,-9.064,16.594,5.528
09:18:43:583,45.566,-0.018,-0.013,0.007,-9.067,16.618,5.537
09:18:43:669,45.652,-0.005,-0.012,0.010,-9.067,16.618,5.537
09:18:43:67,45.652,-0.008,-0.012,0.006,-9.067,16.618,5.537
09:18:43:67,45.652,-0.008,-0.009,0.009,-9.064,16.623,5.532
09:18:43:69,45.673,-0.010,-0.010,0.002,-9.064,16.623,5.532
09:18:43:716,45.699,-0.008,-0.011,0.013,-9.071,16.629,5.533
09:18:43:799,45.781,-0.009,-0.012,0.006,-9.068,16.645,5.510
09:18:43:799,45.782,-0.008,-0.012,0.008,-9.071,16.648,5.489
09:18:43:8,45.783,-0.010,-0.007,0.004,-9.069,16.649,5.460
09:18:43:819,45.802,-0.006,-0.013,0.008,-9.071,16.678,5.426
09:18:43:846,45.829,-0.010,-0.010,0.004,-9.074,16.672,5.406
09:18:43:9,45.883,-0.005,-0.012,0.012,-9.070,16.674,5.384
09:18:43:901,45.884,-0.009,-0.011,0.004,-9.070,16.673,5.359
09:18:43:953,45.936,-0.006,-0.010,0.004,-9.066,16.675,5.337
09:18:43:954,45.937,-0.005,-0.012,0.007,-9.069,16.670,5.316
09:18:44:007,45.990,-0.008,-0.011,0.007,-9.069,16.670,5.316
09:18:44:007,45.990,-0.008,-0.011,0.005,-9.069,16.670,5.316
09:18:44:029,46.012,-0.007,-0.011,-0.001,-9.069,16.670,5.316
09:18:44:084,46.067,-0.007,-0.010,0.003,-9.070,16.683,5.315
09:18:44:085,46.068,-0.014,-0.010,0.000,-9.074,16.695,5.312
09:18:44:108,46.091,-0.010,-0.011,0.002,-9.072,16.713,5.306
09:18:44:134,46.117,-0.009,-0.011,0.000,-9.073,16.727,5.305
09:18:44:161,46.143,-0.006,-0.010,0.003,-9.073,16.727,5.305
09:18:44:246,46.228,-0.007,-0.009,0.001,-9.073,16.727,5.305
09:18:44:246,46.229,-0.007,-0.011,0.007,-9.073,16.727,5.305
09:18:44:246,46.229,-0.007,-0.011,0.002,-9.073,16.727,5.305
09:18:44:266,46.248,-0.005,-0.011,0.006,-9.073,16.727,5.305
09:18:44:292,46.275,-0.007,-0.008,0.001,-9.073,16.727,5.305
09:18:44:347,46.330,-0.007,-0.011,0.008,-9.071,16.726,5.319
09:18:44:348,46.331,-0.010,-0.011,0.009,-9.077,16.725,5.327
09:18:44:373,46.356,-0.012,-0.010,0.007,-9.074,16.724,5.341
09:18:44:397,46.380,-0.012,-0.012,0.002,-9.074,16.724,5.341
09:18:44:424,46.407,-0.007,-0.013,0.008,-9.074,16.724,5.341
09:18:44:479,46.462,-0.011,-0.011,0.010,-9.076,16.731,5.334
09:18:44:48,46.462,-0.009,-0.012,0.014,-9.075,16.738,5.340
09:18:44:502,46.484,-0.008,-0.010,0.005,-9.075,16.738,5.340
09:18:44:53,46.513,-0.008,-0.010,0.006,-9.075,16.738,5.340
09:18:44:554,46.537,-0.011,-0.008,0.005,-9.075,16.738,5.340
09:18:44:638,46.621,-0.009,-0.013,0.011,-9.077,16.753,5.332
09:18:44:639,46.622,-0.008,-0.012,0.007,-9.077,16.753,5.332
09:18:44:64,46.623,-0.012,-0.008,0.003,-9.077,16.753,5.332
09:18:44:661,46.643,-0.011,-0.010,0.010,-9.080,16.763,5.335
09:18:44:686,46.668,-0.007,-0.011,0.009,-9.079,16.775,5.323
09:18:44:799,46.782,-0.008,-0.011,0.006,-9.081,16.776,5.309
09:18:44:8,46.783,-0.008,-0.012,0.004,-9.079,16.774,5.298
09:18:44:8,46.783,-0.005,-0.012,0.007,-9.077,16.786,5.286
09:18:44:801,46.784,-0.008,-0.010,0.001,-9.082,16.789,5.283
09:18:44:847,46.830,-0.005,-0.011,0.009,-9.082,16.789,5.283
09:18:44:847,46.830,-0.005,-0.011,0.000,-9.082,16.789,5.283
09:18:44:869,46.852,-0.011,-0.011,0.006,-9.082,16.789,5.283
09:18:44:926,46.909,-0.010,-0.009,0.004,-9.079,16.793,5.279
09:18:44:926,46.909,-0.007,-0.009,0.009,-9.079,16.793,5.279
09:18:44:948,46.931,-0.009,-0.011,0.004,-9.079,16.793,5.279
09:18:44:974,46.957,-0.006,-0.012,0.006,-9.079,16.793,5.279
09:18:45:,46.983,-0.010,-0.013,0.001,-9.079,16.793,5.279
09:18:45:059,47.041,-0.004,-0.013,0.008,-9.079,16.793,5.279
09:18:45:059,47.042,-0.005,-0.007,0.003,-9.079,16.793,5.279
09:18:45:06,47.043,-0.008,-0.012,0.008,-9.079,16.793,5.279
09:18:45:11,47.093,-0.010,-0.012,0.003,-9.079,16.793,5.279
09:18:45:11,47.093,-0.007,-0.010,0.009,-9.079,16.793,5.279
09:18:45:19,47.173,-0.005,-0.011,0.005,-9.079,16.793,5.279
09:18:45:19,47.173,-0.007,-0.010,0.006,-9.079,16.793,5.279
09:18:45:191,47.174,-0.011,-0.012,0.003,-9.079,16.793,5.279
09:18:45:24,47.222,-0.009,-0.012,0.005,-9.079,16.793,5.279
09:18:45:24,47.223,-0.012,-0.010,0.002,-9.079,16.793,5.279
09:18:45:264,47.247,-0.008,-0.010,0.011,-9.079,16.793,5.279
09:18:45:349,47.332,-0.008,-0.011,0.001,-9.079,16.793,5.279
09:18:45:349,47.332,-0.012,-0.012,0.004,-9.079,16.793,5.279
09:18:45:349,47.332,-0.008,-0.011,0.001,-9.079,16.793,5.279
09:18:45:369,47.352,-0.008,-0.010,0.010,-9.079,16.793,5.279
09:18:45:395,47.378,-0.009,-0.009,0.004,-9.079,16.793,5.279
09:18:45:451,47.434,-0.008,-0.010,0.004,-9.079,16.793,5.279
09:18:45:451,47.434,-0.010,-0.011,0.004,-9.079,16.793,5.279
09:18:45:504,47.487,-0.012,-0.010,0.004,-9.079,16.793,5.279
09:18:45:504,47.487,-0.010,-0.011,0.008,-9.079,16.793,5.279
09:18:45:525,47.508,-0.004,-0.012,0.007,-9.079,16.793,5.279
09:18:45:581,47.564,-0.007,-0.011,0.004,-9.079,16.793,5.279
09:18:45:581,47.564,-0.014,-0.014,0.004,-9.079,16.793,5.279
09:18:45:606,47.589,-0.010,-0.013,0.008,-9.079,16.793,5.279
09:18:45:632,47.615,-0.015,-0.009,0.000,-9.079,16.793,5.279
09:18:45:657,47.640,-0.009,-0.012,0.006,-9.079,16.793,5.279
09:18:45:714,47.697,-0.013,-0.011,-0.002,-9.079,16.793,5.279
09:18:45:714,47.697,-0.012,-0.011,0.007,-9.081,16.795,5.290
09:18:45:735,47.718,-0.014,-0.011,0.003,-9.081,16.795,5.290
09:18:45:761,47.744,-0.010,-0.011,0.009,-9.081,16.795,5.290
09:18:45:788,47.771,-0.012,-0.010,-0.001,-9.081,16.795,5.290
09:18:45:814,47.797,-0.008,-0.013,0.010,-9.081,16.795,5.290
09:18:45:841,47.823,-0.011,-0.010,0.002,-9.081,16.795,5.290
09:18:45:896,47.879,-0.010,-0.010,0.010,-9.081,16.795,5.290
09:18:45:896,47.879,-0.010,-0.014,0.005,-9.081,16.795,5.290
09:18:45:919,47.902,-0.007,-0.013,0.012,-9.081,16.795,5.290
09:18:45:945,47.928,-0.009,-0.010,0.003,-9.081,16.795,5.290
09:18:45:972,47.955,-0.011,-0.011,0.012,-9.081,16.795,5.290
09:18:46:028,48.011,-0.008,-0.012,0.008,-9.081,16.795,5.290
09:18:46:028,48.011,-0.007,-0.009,0.010,-9.081,16.795,5.290
09:18:46:077,48.060,-0.008,-0.010,0.011,-9.081,16.795,5.290
09:18:46:103,48.086,-0.010,-0.012,0.008,-9.081,16.795,5.290
09:18:46:189,48.172,-0.008,-0.011,0.006,-9.081,16.795,5.290
09:18:46:189,48.172,-0.007,-0.011,0.007,-9.081,16.795,5.290
09:18:46:189,48.172,-0.005,-0.013,0.010,-9.081,16.795,5.290
09:18:46:21,48.193,-0.006,-0.012,0.010,-9.081,16.795,5.290
09:18:46:234,48.217,-0.005,-0.013,0.013,-9.081,16.795,5.290
09:18:46:291,48.274,-0.005,-0.010,0.008,-9.081,16.795,5.290
09:18:46:291,48.274,-0.008,-0.011,0.009,-9.079,16.794,5.304
09:18:46:313,48.296,-0.009,-0.010,0.012,-9.079,16.795,5.329
09:18:46:339,48.322,-0.012,-0.009,0.004,-9.080,16.798,5.346
09:18:46:365,48.348,-0.009,-0.010,0.011,-9.081,16.792,5.365
09:18:46:42,48.403,-0.008,-0.010,0.002,-9.083,16.796,5.368
09:18:46:421,48.404,-0.007,-0.011,0.009,-9.081,16.795,5.382
09:18:46:445,48.428,-0.008,-0.009,0.003,-9.081,16.795,5.382
09:18:46:472,48.454,-0.007,-0.011,0.009,-9.079,16.794,5.396
09:18:46:497,48.480,-0.010,-0.008,0.003,-9.079,16.795,5.421
09:18:46:553,48.536,-0.007,-0.010,0.010,-9.084,16.786,5.436
09:18:46:553,48.536,-0.008,-0.007,0.001,-9.079,16.784,5.464
09:18:46:604,48.587,-0.006,-0.009,0.012,-9.080,16.785,5.489
09:18:46:605,48.588,-0.008,-0.010,0.003,-9.080,16.780,5.508
09:18:46:628,48.611,-0.009,-0.006,0.013,-9.083,16.771,5.537
09:18:46:683,48.666,-0.009,-0.012,0.005,-9.080,16.776,5.557
09:18:46:684,48.667,-0.005,-0.011,0.008,-9.084,16.774,5.579
09:18:46:708,48.691,-0.012,-0.008,0.002,-9.084,16.775,5.604
09:18:46:733,48.716,0.001,-0.014,0.014,-9.085,16.779,5.647
09:18:46:786,48.769,-0.006,-0.007,0.005,-9.087,16.799,5.706
09:18:46:815,48.797,-0.010,-0.014,0.015,-9.087,16.809,5.755
09:18:46:815,48.798,-0.005,-0.011,0.008,-9.089,16.807,5.815
09:18:46:867,48.850,-0.012,-0.013,0.004,-9.090,16.810,5.858
09:18:46:868,48.851,-0.012,-0.010,0.007,-9.089,16.805,5.915
09:18:46:893,48.876,-0.014,-0.013,0.014,-9.092,16.809,5.944
09:18:46:945,48.928,-0.014,-0.010,0.007,-9.091,16.810,5.950
09:18:46:946,48.929,-0.011,-0.009,0.012,-9.091,16.810,5.950
09:18:47:,48.982,-0.008,-0.011,0.006,-9.091,16.810,5.950
09:18:47:,48.983,-0.006,-0.011,0.008,-9.091,16.810,5.950
09:18:47:022,49.005,-0.007,-0.010,0.005,-9.091,16.810,5.950
09:18:47:048,49.031,-0.008,-0.013,0.008,-9.090,16.808,5.957
09:18:47:076,49.059,-0.010,-0.008,0.006,-9.093,16.812,5.961
09:18:47:163,49.146,-0.011,-0.012,0.002,-9.088,16.807,5.971
09:18:47:163,49.146,-0.008,-0.012,0.012,-9.088,16.807,5.971
09:18:47:163,49.146,-0.012,-0.012,0.003,-9.088,16.807,5.971
09:18:47:164,49.146,-0.012,-0.012,0.008,-9.088,16.807,5.971
09:18:47:205,49.188,-0.011,-0.010,0.004,-9.088,16.807,5.971
09:18:47:293,49.275,-0.011,-0.010,0.006,-9.088,16.807,5.971
09:18:47:293,49.276,-0.010,-0.009,0.002,-9.088,16.807,5.971
09:18:47:293,49.276,-0.007,-0.011,0.011,-9.088,16.807,5.971
09:18:47:314,49.297,-0.009,-0.010,0.000,-9.091,16.811,5.975
09:18:47:314,49.297,-0.010,-0.011,0.013,-9.092,16.805,5.993
09:18:47:39,49.373,-0.012,-0.012,-0.001,-9.092,16.808,6.011
09:18:47:421,49.404,-0.011,-0.011,0.013,-9.092,16.800,6.012
09:18:47:422,49.405,-0.011,-0.010,0.008,-9.092,16.800,6.012
09:18:47:423,49.406,-0.011,-0.011,0.013,-9.092,16.786,6.013
09:18:47:444,49.427,-0.012,-0.006,0.007,-9.092,16.786,6.013
09:18:47:528,49.511,-0.009,-0.012,0.011,-9.092,16.786,6.013
09:18:47:528,49.511,-0.012,-0.011,0.010,-9.091,16.792,6.019
09:18:47:528,49.511,-0.008,-0.011,0.013,-9.090,16.779,6.020
09:18:47:547,49.530,-0.012,-0.008,0.006,-9.092,16.780,6.031
09:18:47:575,49.558,-0.013,-0.012,0.015,-9.092,16.780,6.031
09:18:47:6,49.583,-0.014,-0.014,0.011,-9.087,16.784,6.041
09:18:47:656,49.638,-0.012,-0.012,0.013,-9.087,16.784,6.041
09:18:47:656,49.638,-0.013,-0.009,0.006,-9.087,16.784,6.041
09:18:47:678,49.661,-0.011,-0.011,0.008,-9.087,16.784,6.041
09:18:47:706,49.689,-0.009,-0.009,0.012,-9.087,16.784,6.041
09:18:47:788,49.771,-0.013,-0.012,0.015,-9.087,16.784,6.041
09:18:47:789,49.772,-0.015,-0.012,0.011,-9.087,16.784,6.041
09:18:47:79,49.773,-0.009,-0.010,0.011,-9.087,16.784,6.041
09:18:47:839,49.821,-0.013,-0.013,0.012,-9.090,16.780,6.045
09:18:47:839,49.822,-0.016,-0.010,0.006,-9.090,16.780,6.045
09:18:47:862,49.845,-0.015,-0.012,0.014,-9.090,16.786,6.052
09:18:47:89,49.873,-0.017,-0.013,0.004,-9.080,16.778,6.065
09:18:47:915,49.898,-0.012,-0.011,0.008,-9.078,16.778,6.079
09:18:47:969,49.952,-0.015,-0.011,0.005,-9.076,16.777,6.093
09:18:47:97,49.953,-0.010,-0.012,0.012,-9.071,16.772,6.103
09:18:47:993,49.976,-0.014,-0.010,0.006,-9.066,16.776,6.112
09:18:48:019,50.002,-0.011,-0.012,0.012,-9.064,16.768,6.120
09:18:48:045,50.028,-0.016,-0.009,0.004,-9.062,16.767,6.134
09:18:48:101,50.084,-0.011,-0.013,0.014,-9.057,16.763,6.144
09:18:48:101,50.084,-0.018,-0.008,0.007,-9.052,16.766,6.153
09:18:48:125,50.108,-0.016,-0.013,0.012,-9.046,16.768,6.170
09:18:48:15,50.133,-0.011,-0.011,0.008,-9.041,16.743,6.175
09:18:48:177,50.160,-0.009,-0.009,0.009,-9.029,16.705,6.172
09:18:48:232,50.215,-0.016,-0.012,0.005,-9.037,16.677,6.162
09:18:48:233,50.215,-0.012,-0.012,0.011,-9.027,16.640,6.146
09:18:48:256,50.239,-0.011,-0.011,0.002,-9.031,16.587,6.126
09:18:48:282,50.265,-0.006,-0.010,0.008,-9.024,16.554,6.114
09:18:48:308,50.291,-0.011,-0.013,0.009,-9.020,16.534,6.094
09:18:48:362,50.345,-0.013,-0.011,0.009,-9.014,16.515,6.080
09:18:48:39,50.372,-0.007,-0.011,0.005,-9.006,16.464,6.044
09:18:48:39,50.373,-0.009,-0.010,0.005,-8.999,16.430,6.007
09:18:48:413,50.396,-0.007,-0.013,0.001,-8.999,16.421,5.983
09:18:48:439,50.422,-0.008,-0.012,0.009,-8.998,16.417,5.940
09:18:48:495,50.478,-0.005,-0.007,0.008,-8.998,16.423,5.922
09:18:48:495,50.478,-0.007,-0.013,0.007,-8.990,16.436,5.902
09:18:48:519,50.502,-0.003,-0.011,0.010,-8.992,16.451,5.893
09:18:48:545,50.528,-0.009,-0.009,0.009,-8.986,16.479,5.897
09:18:48:571,50.553,-0.011,-0.011,0.008,-8.986,16.528,5.907
09:18:48:626,50.609,-0.009,-0.009,0.007,-8.989,16.558,5.923
09:18:48:626,50.609,-0.009,-0.013,0.009,-8.988,16.594,5.959
09:18:48:679,50.662,-0.016,-0.012,0.004,-8.986,16.628,5.984
09:18:48:679,50.662,-0.010,-0.012,0.012,-8.986,16.658,6.013
09:18:48:763,50.746,-0.013,-0.010,0.005,-8.985,16.670,6.026
09:18:48:763,50.746,-0.012,-0.011,0.007,-8.981,16.681,6.028
09:18:48:763,50.746,-0.010,-0.010,0.003,-8.982,16.710,6.033
09:18:48:81,50.793,-0.006,-0.010,0.008,-8.979,16.735,6.034
09:18:48:81,50.793,-0.012,-0.009,0.002,-8.983,16.773,6.042
09:18:48:834,50.817,-0.008,-0.009,0.010,-8.980,16.798,6.043
09:18:48:859,50.842,-0.011,-0.009,0.004,-8.981,16.820,6.041
09:18:48:886,50.868,-0.007,-0.013,0.012,-8.978,16.817,6.062
09:18:48:942,50.925,-0.010,-0.011,0.002,-8.976,16.816,6.076
09:18:48:942,50.925,-0.008,-0.010,0.009,-8.976,16.832,6.106
09:18:48:994,50.977,-0.012,-0.012,0.003,-8.975,16.825,6.139
09:18:48:994,50.977,-0.008,-0.010,0.007,-8.963,16.826,6.190
09:18:49:017,51.000,-0.015,-0.012,0.013,-8.961,16.854,6.233
09:18:49:103,51.086,-0.007,-0.011,0.010,-8.962,16.855,6.258
09:18:49:103,51.086,-0.013,-0.012,0.004,-8.952,16.849,6.296
09:18:49:103,51.086,-0.013,-0.012,0.008,-8.956,16.847,6.318
09:18:49:122,51.105,-0.010,-0.011,0.005,-8.952,16.845,6.346
09:18:49:15,51.133,-0.010,-0.012,0.014,-8.950,16.844,6.360
09:18:49:204,51.187,-0.011,-0.012,0.010,-8.946,16.847,6.363
09:18:49:204,51.187,-0.012,-0.011,0.002,-8.944,16.819,6.365
09:18:49:229,51.212,-0.011,-0.013,0.007,-8.940,16.808,6.368
09:18:49:254,51.237,-0.005,-0.011,0.010,-8.941,16.776,6.375
09:18:49:279,51.262,-0.008,-0.011,0.007,-8.938,16.772,6.371
09:18:49:367,51.350,-0.010,-0.011,0.005,-8.938,16.772,6.371
09:18:49:367,51.350,-0.005,-0.013,0.011,-8.941,16.768,6.376
09:18:49:368,51.351,-0.007,-0.009,0.010,-8.937,16.758,6.372
09:18:49:369,51.352,-0.006,-0.009,0.007,-8.937,16.758,6.372
09:18:49:413,51.396,-0.013,-0.012,0.003,-8.937,16.758,6.372
09:18:49:414,51.397,-0.009,-0.011,0.008,-8.937,16.758,6.372
09:18:49:496,51.478,-0.011,-0.010,0.003,-8.937,16.758,6.372
09:18:49:496,51.479,-0.008,-0.010,0.009,-8.937,16.758,6.372
09:18:49:497,51.479,-0.015,-0.013,0.001,-8.945,16.757,6.374
09:18:49:545,51.528,-0.012,-0.011,0.009,-8.945,16.757,6.374
09:18:49:545,51.528,-0.007,-0.011,0.000,-8.944,16.756,6.349
09:18:49:594,51.577,-0.008,-0.010,0.007,-8.939,16.750,6.334
09:18:49:654,51.637,-0.009,-0.012,0.001,-8.949,16.751,6.315
09:18:49:654,51.637,-0.009,-0.013,0.010,-8.957,16.758,6.315
09:18:49:655,51.638,-0.006,-0.008,0.001,-8.965,16.766,6.309
09:18:49:675,51.657,-0.005,-0.009,0.010,-8.965,16.766,6.309
09:18:49:7,51.683,-0.012,-0.011,0.002,-8.965,16.766,6.309
09:18:49:725,51.708,-0.013,-0.008,0.007,-8.965,16.766,6.309
09:18:49:754,51.737,-0.007,-0.012,0.005,-8.962,16.762,6.305
09:18:49:779,51.762,-0.008,-0.016,0.013,-8.964,16.763,6.291
09:18:49:805,51.788,-0.007,-0.009,0.000,-8.964,16.762,6.266
09:18:49:83,51.813,-0.007,-0.013,0.007,-8.960,16.764,6.244
09:18:49:857,51.840,-0.005,-0.009,0.002,-8.964,16.766,6.217
09:18:49:912,51.895,-0.008,-0.008,0.004,-8.962,16.764,6.206
09:18:49:913,51.896,-0.011,-0.015,0.003,-8.966,16.766,6.178
09:18:49:964,51.947,-0.003,-0.010,0.007,-8.965,16.763,6.160
09:18:49:965,51.948,-0.007,-0.010,0.004,-8.965,16.763,6.160
09:18:49:988,51.971,-0.009,-0.015,0.004,-8.965,16.763,6.160
09:18:50:042,52.024,-0.008,-0.010,0.002,-8.965,16.763,6.160
09:18:50:071,52.054,-0.007,-0.011,0.005,-8.965,16.763,6.160
09:18:50:071,52.054,-0.009,-0.011,0.002,-8.965,16.763,6.160
09:18:50:093,52.076,-0.007,-0.012,0.008,-8.965,16.763,6.160
09:18:50:119,52.102,-0.007,-0.016,0.006,-8.965,16.763,6.160
09:18:50:174,52.157,-0.009,-0.008,-0.001,-8.965,16.763,6.160
09:18:50:175,52.158,-0.004,-0.011,0.004,-8.965,16.763,6.160
09:18:50:198,52.181,-0.010,-0.009,0.001,-8.957,16.763,6.166
09:18:50:224,52.207,-0.009,-0.011,0.006,-8.967,16.780,6.177
09:18:50:251,52.234,-0.015,-0.012,0.006,-8.964,16.805,6.178
09:18:50:307,52.290,-0.010,-0.013,0.007,-8.964,16.805,6.178
09:18:50:307,52.290,-0.010,-0.006,-0.004,-8.978,16.804,6.180
09:18:50:332,52.315,-0.014,-0.011,0.004,-8.989,16.799,6.179
09:18:50:357,52.340,-0.016,-0.014,0.000,-8.989,16.799,6.179
09:18:50:383,52.365,-0.013,-0.013,0.011,-8.989,16.833,6.165
09:18:50:439,52.422,-0.011,-0.012,0.002,-9.000,16.862,6.143
09:18:50:439,52.422,-0.007,-0.010,0.006,-9.002,16.862,6.105
09:18:50:46,52.443,-0.008,-0.011,0.002,-9.005,16.857,6.084
09:18:50:49,52.473,-0.008,-0.010,0.004,-9.001,16.858,6.062
09:18:50:515,52.498,-0.012,-0.010,-0.001,-9.003,16.859,6.048
09:18:50:598,52.581,-0.011,-0.010,0.008,-9.015,16.876,6.020
