Time,Second,AccelerationX,AccelerationY,AccelerationZ,EulerAnglesX,EulerAnglesY,EulerAnglesZ
16:17:39:32,0.000,0.001,-0.003,-0.009,-10.349,-5.792,-0.385
16:17:39:346,0.027,-0.001,-0.004,-0.005,-10.343,-5.808,-0.385
16:17:39:374,0.054,-0.001,-0.003,-0.008,-10.339,-5.819,-0.382
16:17:39:401,0.082,-0.004,-0.004,-0.005,-10.327,-5.815,-0.382
16:17:39:425,0.105,-0.001,0.002,-0.009,-10.305,-5.815,-0.381
16:17:39:451,0.131,-0.005,-0.003,-0.004,-10.287,-5.817,-0.383
16:17:39:478,0.158,-0.002,-0.004,-0.014,-10.265,-5.817,-0.382
16:17:39:504,0.184,-0.004,-0.005,0.001,-10.254,-5.813,-0.382
16:17:39:585,0.266,-0.002,-0.004,0.000,-10.236,-5.802,-0.385
16:17:39:586,0.267,-0.001,-0.003,-0.009,-10.236,-5.802,-0.385
16:17:39:609,0.290,-0.002,-0.001,-0.001,-10.236,-5.802,-0.385
16:17:39:635,0.315,-0.005,-0.003,-0.006,-10.236,-5.802,-0.385
16:17:39:661,0.342,-0.005,-0.002,-0.001,-10.236,-5.802,-0.385
16:17:39:688,0.368,0.000,-0.006,-0.003,-10.236,-5.802,-0.385
16:17:39:714,0.394,-0.003,-0.003,-0.002,-10.236,-5.802,-0.385
16:17:39:74,0.420,-0.001,-0.002,-0.005,-10.236,-5.802,-0.385
16:17:39:767,0.447,0.000,-0.003,-0.002,-10.236,-5.802,-0.385
16:17:39:794,0.475,-0.003,-0.001,-0.007,-10.236,-5.802,-0.385
16:17:39:818,0.499,0.000,-0.008,-0.007,-10.236,-5.802,-0.385
16:17:39:845,0.525,-0.007,-0.008,-0.003,-10.241,-5.803,-0.376
16:17:39:872,0.552,-0.013,-0.003,-0.003,-10.241,-5.803,-0.376
16:17:39:957,0.638,-0.003,-0.001,0.000,-10.241,-5.816,-0.375
16:17:39:957,0.638,-0.004,-0.008,-0.004,-10.241,-5.816,-0.375
16:17:39:957,0.638,-0.001,-0.003,-0.005,-10.241,-5.813,-0.386
16:17:39:978,0.658,-0.005,-0.005,-0.006,-10.238,-5.818,-0.401
16:17:40:003,0.684,0.000,-0.001,-0.001,-10.240,-5.811,-0.408
16:17:40:029,0.709,-0.002,-0.005,-0.003,-10.240,-5.811,-0.408
16:17:40:056,0.736,-0.003,-0.004,-0.003,-10.238,-5.792,-0.414
16:17:40:084,0.764,-0.006,0.001,-0.010,-10.237,-5.780,-0.427
16:17:40:107,0.788,-0.002,-0.005,-0.004,-10.240,-5.773,-0.434
16:17:40:136,0.816,0.000,-0.002,-0.007,-10.241,-5.770,-0.441
16:17:40:161,0.842,-0.005,-0.006,-0.003,-10.243,-5.773,-0.459
16:17:40:186,0.867,-0.009,0.003,-0.012,-10.240,-5.776,-0.496
16:17:40:214,0.895,-0.012,0.004,-0.002,-10.234,-5.770,-0.539
16:17:40:241,0.921,-0.019,-0.015,-0.015,-10.193,-5.733,-0.661
16:17:40:267,0.948,-0.023,-0.008,-0.023,-10.185,-5.748,-0.768
16:17:40:291,0.972,0.022,0.009,0.006,-10.182,-5.843,-0.999
16:17:40:318,0.998,0.013,-0.021,0.008,-10.196,-5.925,-1.190
16:17:40:344,1.024,0.011,-0.016,-0.007,-10.230,-6.029,-1.266
16:17:40:37,1.050,0.017,-0.017,0.000,-10.324,-6.257,-1.317
16:17:40:396,1.076,-0.007,-0.007,-0.012,-10.395,-6.415,-1.322
16:17:40:423,1.103,-0.009,-0.008,-0.004,-10.522,-6.689,-1.318
16:17:40:45,1.131,-0.023,-0.010,-0.004,-10.672,-7.036,-1.318
16:17:40:475,1.156,-0.012,0.001,-0.013,-10.795,-7.330,-1.341
16:17:40:501,1.182,0.015,-0.002,-0.006,-11.017,-7.848,-1.404
16:17:40:527,1.208,0.012,-0.006,0.004,-11.154,-8.123,-1.457
16:17:40:553,1.234,-0.007,-0.007,0.006,-11.386,-8.453,-1.546
16:17:40:581,1.262,-0.013,-0.012,0.007,-11.561,-8.707,-1.602
16:17:40:607,1.287,0.008,-0.012,0.000,-11.874,-9.145,-1.690
16:17:40:636,1.316,0.009,-0.013,0.005,-12.217,-9.454,-1.831
16:17:40:659,1.339,0.008,-0.043,0.036,-12.442,-9.555,-1.976
16:17:40:685,1.366,-0.002,0.024,0.004,-12.866,-9.665,-2.183
16:17:40:711,1.392,0.084,0.079,0.008,-13.235,-9.951,-2.214
16:17:40:768,1.448,0.037,0.014,-0.026,-13.690,-10.271,-2.132
16:17:40:768,1.448,-0.074,0.020,-0.034,-13.915,-9.833,-2.199
16:17:40:79,1.471,-0.058,0.016,-0.039,-13.952,-9.391,-2.458
16:17:40:817,1.497,-0.024,0.004,-0.031,-13.878,-8.854,-3.051
16:17:40:843,1.523,-0.025,-0.005,-0.028,-13.760,-8.548,-3.587
16:17:40:901,1.581,-0.029,-0.015,-0.007,-13.551,-8.154,-4.547
16:17:40:901,1.582,-0.024,-0.005,-0.019,-13.408,-7.975,-5.268
16:17:40:902,1.583,-0.010,-0.010,0.000,-13.252,-7.762,-6.434
16:17:40:95,1.631,-0.013,0.000,-0.021,-13.176,-8.082,-7.677
16:17:40:951,1.631,0.026,0.017,0.012,-13.166,-7.891,-8.486
16:17:40:974,1.654,-0.034,0.014,-0.015,-13.154,-7.753,-9.709
16:17:41:,1.681,-0.021,0.022,-0.020,-13.175,-7.457,-10.523
16:17:41:055,1.736,-0.053,0.034,-0.034,-13.150,-7.255,-11.885
16:17:41:056,1.736,-0.077,0.085,-0.008,-13.083,-6.833,-12.906
16:17:41:109,1.789,-0.082,0.132,0.037,-12.820,-6.326,-14.631
16:17:41:134,1.814,-0.166,0.176,-0.009,-12.254,-5.849,-16.665
16:17:41:135,1.815,-0.256,0.263,-0.004,-11.682,-5.077,-18.170
16:17:41:187,1.867,-0.326,0.202,0.014,-10.476,-4.308,-20.674
16:17:41:187,1.867,-0.478,0.171,0.031,-9.465,-3.543,-22.580
16:17:41:212,1.892,-0.602,0.100,-0.009,-7.664,-2.824,-25.865
16:17:41:236,1.917,-0.983,0.087,-0.294,-5.389,-2.020,-29.983
16:17:41:268,1.949,-1.124,-0.011,-0.479,-3.781,-1.582,-33.341
16:17:41:318,1.999,-1.132,0.296,-0.377,-3.112,-1.694,-39.604
16:17:41:319,1.999,-0.888,0.298,-0.407,-3.540,-2.276,-44.157
16:17:41:341,2.022,-0.876,-0.219,-0.213,-2.983,-2.366,-50.045
16:17:41:368,2.048,-0.055,-0.129,-0.155,-2.057,-2.443,-52.913
16:17:41:424,2.104,-0.181,-0.351,-0.163,0.546,-1.669,-55.113
16:17:41:424,2.104,-0.346,-0.924,-0.008,4.583,0.008,-53.968
16:17:41:446,2.127,-0.187,-0.971,0.082,5.740,0.932,-51.366
16:17:41:473,2.153,-0.324,-0.767,0.131,3.879,1.290,-45.626
16:17:41:499,2.180,-0.320,-0.496,0.117,1.685,0.987,-40.628
16:17:41:525,2.205,-0.341,-0.310,0.050,-1.372,0.006,-31.764
16:17:41:582,2.263,-0.277,0.107,0.138,-3.861,-1.341,-21.595
16:17:41:582,2.263,-0.037,0.479,0.220,-5.070,-2.447,-14.514
16:17:41:604,2.284,0.276,0.532,0.193,-6.022,-3.922,-3.895
16:17:41:632,2.313,0.711,0.568,-0.046,-6.445,-4.574,3.100
16:17:41:656,2.337,1.273,0.534,-0.139,-7.493,-5.900,13.036
16:17:41:684,2.365,1.865,-0.001,0.007,-8.061,-9.413,21.042
16:17:41:709,2.390,2.196,-0.405,0.134,-8.058,-11.839,24.132
16:17:41:737,2.417,1.569,-0.279,0.077,-7.837,-13.416,23.742
16:17:41:763,2.444,0.022,0.662,0.185,-7.728,-13.532,20.499
16:17:41:816,2.497,0.388,-0.106,0.564,-7.577,-14.764,15.499
16:17:41:817,2.498,0.932,-0.474,-0.486,-8.071,-17.105,11.727
16:17:41:871,2.552,0.197,0.181,0.088,-9.070,-17.501,5.189
16:17:41:952,2.633,-0.079,0.300,0.031,-9.887,-16.524,3.629
16:17:41:952,2.633,0.115,-0.027,-0.034,-10.703,-16.167,2.079
16:17:41:953,2.633,0.145,-0.002,-0.017,-11.123,-15.822,1.250
16:17:41:972,2.653,0.008,0.025,-0.002,-11.453,-14.110,0.060
16:17:42:028,2.709,-0.041,-0.001,-0.047,-11.646,-12.359,-0.868
16:17:42:028,2.709,-0.030,0.009,-0.032,-11.744,-11.433,-1.452
16:17:42:08,2.760,-0.085,-0.019,-0.054,-11.912,-9.988,-2.454
16:17:42:08,2.760,-0.081,-0.009,-0.059,-12.008,-9.056,-3.388
16:17:42:103,2.783,-0.061,0.012,-0.036,-12.207,-8.089,-4.878
16:17:42:131,2.811,-0.092,0.047,-0.056,-12.356,-7.294,-6.768
16:17:42:155,2.836,-0.123,0.133,0.070,-12.479,-6.810,-8.165
16:17:42:182,2.863,-0.225,0.140,0.118,-12.479,-5.785,-10.715
16:17:42:209,2.889,-0.217,0.191,0.071,-12.412,-5.240,-12.803
16:17:42:263,2.943,-0.307,0.252,0.031,-12.014,-4.561,-16.397
16:17:42:263,2.944,-0.518,0.274,-0.025,-11.394,-3.955,-19.147
16:17:42:317,2.997,-0.869,0.567,-0.044,-9.688,-1.681,-24.075
16:17:42:317,2.997,-1.683,0.063,-0.336,-6.451,0.851,-30.068
16:17:42:339,3.019,-1.177,0.212,-0.318,-4.712,2.322,-34.378
16:17:42:367,3.047,-0.665,0.450,-0.235,-5.194,2.250,-42.050
16:17:42:42,3.101,-0.971,-0.320,-0.267,-4.706,2.894,-46.626
16:17:42:421,3.101,-0.627,-0.573,-0.123,-2.060,4.732,-51.429
16:17:42:444,3.124,-0.151,-0.571,-0.088,1.888,6.946,-53.570
16:17:42:501,3.181,-0.350,-0.934,0.120,5.513,9.143,-53.288
16:17:42:501,3.181,-0.228,-1.074,0.217,8.393,11.578,-50.143
16:17:42:523,3.203,-0.251,-0.966,0.217,7.044,11.735,-46.980
16:17:42:549,3.229,-0.269,-0.627,0.096,2.269,9.752,-40.905
16:17:42:575,3.255,-0.286,-0.530,0.026,-0.723,7.578,-35.571
16:17:42:601,3.282,-0.238,-0.221,-0.037,-3.514,4.253,-25.455
16:17:42:631,3.312,-0.011,0.355,0.041,-5.046,1.450,-13.684
16:17:42:654,3.334,0.619,0.883,0.000,-5.785,0.005,-5.564
16:17:42:683,3.363,1.207,0.833,-0.210,-6.833,-0.406,5.914
16:17:42:708,3.389,1.557,0.560,0.142,-8.287,0.329,12.611
16:17:42:733,3.413,1.636,0.187,-0.006,-10.444,-0.760,19.417
16:17:42:759,3.439,2.081,-0.460,0.031,-10.443,-4.153,20.198
16:17:42:785,3.465,-2.517,1.491,1.478,-10.122,-5.298,17.257
16:17:42:839,3.519,0.916,0.079,-0.339,-9.471,-4.504,13.970
16:17:42:867,3.547,0.819,0.329,0.315,-9.991,-5.988,10.395
16:17:42:867,3.547,0.462,-0.342,-0.293,-10.255,-10.099,6.901
16:17:42:892,3.572,0.442,-0.169,0.232,-10.797,-11.418,4.814
16:17:42:945,3.626,0.064,0.090,0.094,-11.350,-9.899,3.405
16:17:42:946,3.627,-0.140,0.017,-0.076,-12.351,-8.480,1.766
16:17:42:969,3.650,0.077,0.054,-0.068,-13.024,-8.260,1.159
16:17:43:025,3.706,0.012,0.009,-0.040,-13.543,-6.869,0.074
16:17:43:025,3.706,-0.172,-0.025,-0.044,-13.700,-4.077,-1.319
16:17:43:077,3.757,-0.247,-0.014,-0.095,-13.748,-2.601,-2.419
16:17:43:077,3.758,-0.172,0.003,-0.034,-13.722,-1.437,-4.205
16:17:43:1,3.781,-0.068,0.033,0.008,-13.678,-0.997,-5.584
16:17:43:157,3.837,-0.047,0.067,0.038,-13.655,-0.119,-7.794
16:17:43:157,3.838,-0.134,0.010,-0.067,-13.600,0.570,-9.272
16:17:43:179,3.859,-0.128,0.084,-0.043,-13.541,1.546,-11.563
16:17:43:233,3.913,-0.236,0.136,0.158,-13.459,4.587,-14.142
16:17:43:289,3.970,-0.276,0.093,0.218,-13.278,5.697,-16.134
16:17:43:29,3.971,-0.385,0.198,0.043,-12.906,8.420,-19.710
16:17:43:291,3.971,-0.471,0.214,-0.036,-12.493,8.893,-22.498
16:17:43:314,3.994,-0.658,0.276,0.042,-11.185,11.653,-27.612
16:17:43:314,3.994,-1.505,0.422,0.156,-8.149,14.296,-33.921
16:17:43:365,4.046,-1.643,-0.064,-0.008,-5.142,17.010,-38.183
16:17:43:366,4.047,-0.891,0.411,0.063,-3.504,19.326,-45.580
16:17:43:418,4.098,-0.993,-0.162,0.193,-2.454,20.612,-50.004
16:17:43:419,4.099,-0.808,-0.493,0.090,2.553,23.543,-54.712
16:17:43:443,4.123,0.171,-0.418,-0.470,7.125,25.368,-56.321
16:17:43:469,4.150,-0.078,-0.914,0.092,12.848,30.291,-56.254
16:17:43:495,4.176,-0.177,-1.145,0.578,14.083,33.483,-53.143
16:17:43:521,4.202,-0.148,-1.025,0.503,11.082,34.672,-50.139
16:17:43:547,4.227,-0.153,-0.667,0.268,3.659,33.591,-44.449
16:17:43:602,4.282,-0.221,-0.544,0.122,-0.725,32.226,-39.336
16:17:43:602,4.282,-0.230,-0.200,0.057,-4.902,30.613,-29.508
16:17:43:625,4.306,0.180,0.505,0.264,-6.903,31.368,-18.617
16:17:43:652,4.332,0.485,0.452,0.290,-7.546,33.536,-11.776
16:17:43:678,4.358,0.595,0.481,-0.256,-8.787,37.909,-1.653
16:17:43:704,4.384,0.949,0.680,-0.234,-10.732,41.255,4.388
16:17:43:73,4.411,1.193,0.437,-0.357,-13.934,42.505,12.015
16:17:43:756,4.437,1.615,-0.231,-1.242,-14.931,39.877,15.407
16:17:43:783,4.463,-0.141,0.584,1.539,-14.143,36.139,15.088
16:17:43:809,4.490,0.793,0.211,-1.087,-13.462,35.625,12.639
16:17:43:837,4.517,0.503,0.320,0.039,-13.417,33.722,10.134
16:17:43:892,4.572,0.251,-0.160,-0.335,-13.331,30.272,7.346
16:17:43:892,4.573,0.229,-0.132,-0.046,-13.611,29.488,5.866
16:17:43:914,4.594,0.019,0.081,0.035,-13.953,31.252,4.171
16:17:43:94,4.620,-0.095,0.004,-0.020,-14.735,32.205,3.056
16:17:43:967,4.647,0.009,0.018,-0.167,-15.366,31.881,2.819
16:17:44:022,4.702,0.103,0.032,-0.139,-16.004,32.331,2.413
16:17:44:022,4.703,-0.056,0.003,-0.051,-16.252,34.155,1.822
16:17:44:047,4.727,-0.330,0.019,-0.037,-16.450,37.496,0.633
16:17:44:073,4.753,-0.250,-0.002,0.100,-16.267,39.255,-0.312
16:17:44:098,4.778,-0.186,0.037,0.189,-15.733,41.589,-2.418
16:17:44:124,4.804,-0.109,-0.005,0.065,-15.334,42.874,-4.889
16:17:44:152,4.832,-0.053,0.031,-0.079,-15.213,43.197,-6.513
16:17:44:179,4.859,-0.100,0.126,-0.085,-15.069,44.223,-9.095
16:17:44:204,4.884,-0.081,0.145,0.235,-14.975,45.723,-10.912
16:17:44:229,4.910,-0.006,0.147,0.311,-14.780,48.193,-13.717
16:17:44:255,4.936,-0.252,0.087,0.266,-14.467,49.945,-16.886
16:17:44:281,4.962,-0.269,0.154,0.204,-14.379,50.595,-19.371
16:17:44:309,4.990,-0.289,0.236,0.276,-14.239,51.424,-23.775
16:17:44:423,5.104,-0.076,0.676,0.626,-13.731,53.218,-27.329
16:17:44:423,5.104,-1.291,0.172,1.217,-9.424,58.493,-33.587
16:17:44:424,5.104,-0.777,0.250,0.848,-3.221,64.604,-37.427
16:17:44:424,5.105,-0.429,0.616,0.529,-0.281,67.701,-44.717
16:17:44:439,5.120,-0.659,-0.430,0.738,2.360,69.540,-50.446
16:17:44:465,5.146,-0.161,-0.510,-0.246,4.645,71.068,-52.302
16:17:44:491,5.172,0.062,-0.959,0.131,7.745,76.345,-52.697
16:17:44:518,5.198,0.269,-1.025,0.380,8.890,79.014,-50.856
16:17:44:546,5.226,0.420,-1.108,0.526,7.672,83.257,-46.339
16:17:44:571,5.251,0.260,-0.632,0.340,3.075,83.369,-40.384
16:17:44:627,5.307,0.170,-0.571,0.390,-0.125,82.381,-35.331
16:17:44:627,5.308,-0.023,-0.239,0.131,-3.388,80.681,-25.628
16:17:44:649,5.329,0.231,0.257,0.017,-4.655,80.370,-18.377
16:17:44:677,5.357,0.384,0.530,-0.012,-5.568,81.851,-7.151
16:17:44:702,5.383,0.169,0.815,-0.912,-6.572,83.784,4.198
16:17:44:728,5.408,-0.056,0.837,-1.253,-7.882,85.641,11.226
16:17:44:754,5.434,0.282,0.124,-2.096,-10.221,84.822,20.058
16:17:44:78,5.461,0.240,-0.292,-1.887,-10.100,81.582,22.634
16:17:44:806,5.487,0.364,-0.039,-0.728,-8.901,77.685,20.621
16:17:44:833,5.513,0.244,-0.173,-0.615,-8.453,77.057,18.742
16:17:44:859,5.539,0.382,0.272,-0.411,-8.730,75.161,14.989
16:17:44:885,5.565,0.078,-0.237,-0.427,-9.064,73.702,11.663
16:17:44:912,5.592,0.158,-0.110,-0.362,-9.508,74.222,10.038
16:17:44:938,5.618,-0.025,0.119,-0.013,-10.233,76.235,8.199
16:17:44:964,5.644,-0.136,0.004,-0.027,-10.750,76.827,7.236
16:17:45:019,5.700,-0.103,0.012,-0.154,-11.329,76.830,6.200
16:17:45:02,5.700,-0.079,-0.018,-0.083,-11.600,78.504,4.875
16:17:45:042,5.723,-0.070,-0.007,0.142,-11.677,80.091,3.857
16:17:45:069,5.750,-0.139,-0.004,0.045,-11.740,81.354,2.256
16:17:45:124,5.805,-0.098,-0.006,0.009,-11.704,81.726,1.083
16:17:45:125,5.806,-0.060,0.025,0.007,-11.602,82.491,-0.928
16:17:45:206,5.886,-0.042,0.027,-0.013,-11.561,83.028,-2.335
16:17:45:207,5.887,-0.074,0.059,0.005,-11.520,83.821,-4.454
16:17:45:208,5.888,-0.044,0.099,-0.002,-11.534,84.733,-6.694
16:17:45:226,5.907,0.130,0.121,0.106,-11.546,85.559,-8.319
16:17:45:253,5.933,0.056,0.153,0.225,-11.333,87.970,-11.150
16:17:45:279,5.959,-0.037,0.206,0.284,-11.128,88.709,-13.398
16:17:45:307,5.987,-0.002,0.218,0.285,-10.545,90.508,-17.377
16:17:45:362,6.043,0.151,0.536,0.529,-8.853,92.287,-22.385
16:17:45:362,6.043,-0.117,0.293,1.551,-6.309,94.844,-26.330
16:17:45:384,6.064,-0.328,0.243,1.120,-2.552,98.553,-32.347
16:17:45:41,6.090,-0.134,0.502,0.619,-2.228,98.855,-37.183
16:17:45:468,6.149,0.002,0.096,0.765,-1.402,99.512,-44.007
16:17:45:469,6.149,-0.326,-0.484,0.507,0.686,100.878,-47.095
16:17:45:47,6.150,-0.360,-0.509,-0.099,3.816,102.288,-50.169
16:17:45:519,6.199,-0.073,-0.913,0.219,7.275,104.909,-50.051
16:17:45:519,6.199,0.339,-1.119,0.293,8.996,106.785,-47.864
16:17:45:541,6.222,0.371,-0.848,0.196,8.409,107.971,-42.695
16:17:45:57,6.251,0.290,-0.610,0.231,6.332,107.394,-38.438
16:17:45:623,6.303,0.160,-0.501,0.367,3.199,105.723,-30.463
16:17:45:624,6.304,0.093,-0.073,0.256,0.741,103.718,-20.466
16:17:45:675,6.356,0.107,0.325,0.099,-0.467,102.446,-13.141
16:17:45:676,6.356,-0.061,1.064,-0.470,-1.835,100.258,-1.946
16:17:45:701,6.381,-0.428,0.660,-1.071,-2.086,98.644,5.344
16:17:45:725,6.406,-0.432,0.464,-1.429,-2.549,97.797,15.311
16:17:45:752,6.432,-0.517,-0.068,-1.809,-2.875,96.264,20.469
16:17:45:78,6.460,-0.483,-0.416,-1.843,-2.409,91.777,24.594
16:17:45:805,6.485,-0.191,-0.250,-1.150,-2.056,89.079,23.267
16:17:45:83,6.511,0.657,0.303,0.270,-2.111,88.884,20.202
16:17:45:856,6.537,-0.321,0.348,-0.417,-2.377,89.357,17.297
16:17:45:883,6.563,-0.248,0.246,-0.706,-3.028,87.918,14.456
16:17:45:912,6.592,-0.146,-0.187,-0.422,-3.771,84.727,11.255
16:17:45:937,6.617,0.029,-0.037,-0.417,-4.725,83.285,9.069
16:17:45:961,6.642,-0.087,0.062,-0.111,-5.359,84.129,7.941
16:17:45:988,6.668,-0.076,0.018,-0.069,-6.345,85.672,6.554
16:17:46:014,6.694,-0.063,0.054,-0.007,-6.945,86.318,5.866
16:17:46:042,6.723,-0.096,0.019,-0.043,-7.638,86.819,5.026
16:17:46:068,6.748,-0.112,-0.014,-0.038,-7.921,87.247,4.352
16:17:46:093,6.773,-0.147,-0.030,0.102,-8.237,88.893,3.094
16:17:46:119,6.800,-0.065,-0.005,0.099,-8.407,90.874,1.509
16:17:46:147,6.828,-0.024,0.043,0.052,-8.467,91.782,0.243
16:17:46:171,6.852,-0.067,-0.008,-0.024,-8.587,92.620,-1.862
16:17:46:198,6.878,-0.092,0.028,0.024,-8.671,93.270,-3.349
16:17:46:225,6.905,-0.019,0.083,0.042,-8.777,94.237,-5.602
16:17:46:25,6.931,-0.087,0.070,0.071,-8.873,95.328,-8.169
16:17:46:278,6.958,0.133,0.198,0.161,-8.834,96.133,-10.219
16:17:46:304,6.984,0.071,0.287,0.265,-8.392,97.313,-13.812
16:17:46:329,7.009,-0.067,0.339,0.477,-7.811,97.993,-16.711
16:17:46:355,7.036,-0.016,0.549,0.749,-6.312,99.075,-21.887
16:17:46:411,7.091,0.066,0.552,1.213,-4.520,100.657,-25.932
16:17:46:411,7.092,-0.033,-0.007,1.477,-1.032,103.981,-32.251
16:17:46:435,7.115,-0.219,0.485,0.777,0.173,105.202,-39.871
16:17:46:461,7.142,-0.014,0.047,0.780,1.563,106.154,-44.179
16:17:46:486,7.167,-0.149,-0.372,0.642,4.981,107.692,-48.499
16:17:46:513,7.193,-0.267,-0.462,-0.122,7.274,108.473,-49.955
16:17:46:539,7.219,0.142,-1.114,0.279,10.556,110.501,-49.597
16:17:46:565,7.246,0.335,-1.038,0.117,10.624,111.473,-46.202
16:17:46:594,7.274,0.309,-0.884,0.111,8.414,110.540,-43.007
16:17:46:618,7.298,0.116,-0.652,0.212,4.123,107.861,-36.998
16:17:46:645,7.325,0.063,-0.592,0.195,1.590,105.686,-31.834
16:17:46:671,7.351,0.045,-0.274,0.146,-0.911,102.618,-22.224
16:17:46:697,7.377,0.037,0.141,0.050,-1.869,101.194,-14.891
16:17:46:722,7.403,0.105,0.693,-0.128,-2.963,99.464,-3.451
16:17:46:749,7.429,-0.383,0.870,-1.182,-3.510,97.598,7.563
16:17:46:777,7.458,-0.282,0.633,-1.550,-3.779,97.554,14.198
16:17:46:801,7.482,-0.614,0.347,-1.501,-4.251,96.217,21.999
16:17:46:828,7.508,-0.524,-0.716,-1.890,-3.808,93.485,24.532
16:17:46:854,7.534,-0.574,0.154,-0.690,-2.706,89.946,22.824
16:17:46:88,7.561,-0.481,-0.003,-1.004,-2.924,90.027,19.164
16:17:46:936,7.616,-0.217,-0.046,-1.088,-3.657,89.911,16.074
16:17:46:936,7.617,-0.239,-0.370,-0.426,-4.408,90.568,11.806
16:17:46:989,7.669,0.010,-0.213,-0.114,-4.732,91.035,10.266
16:17:46:989,7.670,-0.009,0.076,-0.113,-5.486,90.593,8.628
16:17:47:013,7.693,-0.151,0.079,-0.138,-6.109,90.022,7.622
16:17:47:039,7.719,-0.103,-0.087,-0.215,-6.679,89.934,6.365
16:17:47:066,7.747,-0.112,0.035,0.037,-7.241,91.757,5.092
16:17:47:09,7.771,-0.044,0.057,0.051,-7.510,92.972,4.187
16:17:47:116,7.797,-0.104,-0.018,0.034,-7.749,93.863,2.873
16:17:47:143,7.823,-0.071,-0.008,-0.028,-7.819,94.265,1.887
16:17:47:169,7.849,-0.077,0.008,0.061,-7.881,95.223,0.129
16:17:47:195,7.875,-0.061,0.039,-0.028,-7.961,95.680,-1.772
16:17:47:223,7.903,-0.090,0.004,0.003,-8.002,95.900,-3.048
16:17:47:248,7.929,-0.080,0.040,-0.007,-8.087,96.341,-5.044
16:17:47:274,7.955,-0.145,0.115,0.054,-8.107,96.772,-6.465
16:17:47:329,8.010,0.111,0.211,0.131,-8.052,97.697,-8.824
16:17:47:33,8.010,0.131,0.206,0.230,-7.628,98.907,-11.626
16:17:47:352,8.033,0.045,0.244,0.353,-7.199,99.746,-13.948
16:17:47:38,8.060,-0.057,0.324,0.465,-6.153,100.167,-18.238
16:17:47:407,8.087,-0.042,0.527,0.645,-4.988,100.609,-21.750
16:17:47:431,8.112,0.075,0.281,1.702,-1.641,102.758,-27.786
16:17:47:487,8.167,-0.221,0.370,0.914,1.614,104.806,-34.258
16:17:47:487,8.168,-0.156,0.429,0.743,1.938,104.350,-39.515
16:17:47:512,8.192,0.013,-0.206,0.948,3.461,104.495,-45.825
16:17:47:537,8.218,-0.370,-0.321,-0.093,5.100,104.833,-48.649
16:17:47:563,8.243,-0.102,-0.598,0.128,8.341,106.346,-50.656
16:17:47:591,8.271,0.047,-0.998,0.426,12.199,108.731,-49.631
16:17:47:617,8.297,0.158,-1.058,0.286,12.948,109.786,-47.332
16:17:47:7,8.381,0.070,-0.753,0.240,10.284,109.200,-42.341
16:17:47:7,8.381,0.046,-0.500,0.303,7.367,107.719,-38.087
16:17:47:701,8.381,-0.150,-0.259,0.278,3.626,105.077,-29.880
16:17:47:72,8.401,-0.197,0.068,0.195,1.851,103.348,-23.340
16:17:47:747,8.427,-0.060,0.466,0.056,-0.188,100.892,-12.807
16:17:47:773,8.453,-0.192,0.545,-0.411,-1.484,98.399,-2.528
16:17:47:799,8.479,-0.225,0.378,-0.528,-1.921,97.319,4.294
16:17:47:826,8.506,-0.354,0.467,-0.900,-3.186,97.279,14.638
16:17:47:853,8.534,-0.376,0.289,-1.279,-4.751,96.861,21.020
16:17:47:907,8.588,-0.289,-0.342,-1.522,-6.775,94.655,28.573
16:17:47:908,8.589,-0.199,-0.772,-1.711,-6.974,92.480,31.407
16:17:47:933,8.613,-0.029,-0.886,-1.610,-6.070,89.356,31.859
16:17:47:934,8.614,-0.066,1.205,1.634,-5.026,87.420,27.497
16:17:47:987,8.668,-0.573,-0.648,-2.331,-5.447,86.096,24.976
16:17:47:987,8.668,-0.511,1.258,-0.851,-4.624,84.106,22.450
16:17:48:035,8.716,-0.362,-0.941,-0.360,-4.223,80.899,19.047
16:17:48:065,8.745,0.256,-0.286,-0.911,-4.396,76.173,16.956
16:17:48:065,8.745,-0.014,0.132,-0.165,-5.970,78.359,15.166
16:17:48:148,8.828,-0.074,0.092,0.275,-7.320,80.671,14.571
16:17:48:148,8.828,-0.162,0.046,-0.002,-8.604,79.690,14.044
16:17:48:148,8.828,-0.345,-0.030,-0.059,-9.111,78.796,13.711
16:17:48:167,8.847,-0.229,-0.056,-0.009,-9.691,80.484,11.880
16:17:48:193,8.873,-0.031,0.096,0.017,-10.261,84.088,8.986
16:17:48:219,8.900,0.005,0.038,0.079,-10.252,85.663,6.942
16:17:48:303,8.984,-0.039,0.019,-0.129,-10.233,86.903,4.100
16:17:48:304,8.984,-0.013,0.056,-0.162,-10.195,87.644,2.192
16:17:48:305,8.985,-0.061,0.043,-0.033,-10.120,89.423,-0.506
16:17:48:324,9.004,-0.102,0.077,0.014,-10.024,90.628,-2.260
16:17:48:35,9.031,-0.059,0.125,0.025,-9.918,92.091,-4.822
16:17:48:377,9.057,0.091,0.135,0.156,-9.655,94.178,-7.741
16:17:48:403,9.083,0.063,0.126,0.278,-9.307,95.152,-10.082
16:17:48:431,9.111,-0.002,0.250,0.333,-8.557,96.268,-14.291
16:17:48:455,9.136,0.100,0.545,0.466,-7.750,96.834,-17.725
16:17:48:484,9.164,0.233,1.010,0.839,-5.621,99.043,-24.116
16:17:48:509,9.190,-0.366,-0.144,1.745,0.107,104.646,-30.338
16:17:48:536,9.217,-0.195,0.277,0.899,2.213,106.347,-35.102
16:17:48:563,9.243,-0.213,0.213,0.620,3.155,106.775,-42.213
16:17:48:591,9.272,-0.022,-0.224,0.726,4.711,108.110,-45.371
16:17:48:613,9.294,-0.483,-0.552,-0.279,8.967,111.175,-47.738
16:17:48:639,9.319,-0.113,-0.940,0.112,12.061,114.704,-47.607
16:17:48:666,9.346,0.443,-1.153,0.225,14.599,120.176,-44.731
16:17:48:694,9.374,0.499,-0.865,0.132,11.828,123.204,-40.418
16:17:48:747,9.427,0.299,-0.762,0.174,8.039,123.513,-37.199
16:17:48:747,9.428,0.183,-0.575,0.313,1.398,122.057,-30.604
16:17:48:799,9.480,0.132,-0.106,0.136,-2.275,120.459,-24.667
16:17:48:8,9.480,0.208,0.173,-0.042,-5.819,119.059,-14.184
16:17:48:825,9.506,0.173,0.581,-0.540,-7.926,118.669,-3.150
16:17:48:878,9.558,-0.202,0.802,-0.675,-8.987,119.455,4.300
16:17:48:879,9.559,-1.086,0.812,-0.486,-11.863,121.844,14.837
16:17:48:902,9.583,-0.621,0.521,-2.046,-14.588,120.762,20.870
16:17:48:929,9.609,-0.957,-0.662,-1.851,-15.147,116.669,25.786
16:17:48:985,9.665,0.758,0.639,-0.570,-14.578,114.634,25.831
16:17:48:985,9.666,0.858,0.540,0.257,-13.336,114.071,21.820
16:17:49:006,9.687,-0.474,0.064,-0.329,-12.459,112.178,18.695
16:17:49:032,9.713,-0.364,0.095,-0.617,-12.335,109.543,16.677
16:17:49:117,9.798,-0.137,-0.136,-0.485,-12.209,107.800,14.322
16:17:49:118,9.799,0.005,0.099,-0.138,-12.240,108.437,12.979
16:17:49:167,9.847,-0.174,0.016,-0.114,-13.624,110.163,9.983
16:17:49:167,9.848,-0.201,0.002,-0.250,-13.998,110.224,9.409
16:17:49:19,9.871,-0.057,-0.006,-0.126,-14.327,112.255,8.215
16:17:49:216,9.897,-0.004,0.027,0.090,-14.566,114.227,7.345
16:17:49:243,9.923,-0.039,-0.026,0.016,-14.795,116.119,6.109
16:17:49:298,9.979,-0.057,-0.010,-0.024,-14.899,116.824,5.320
16:17:49:299,9.979,-0.013,0.056,-0.035,-15.151,117.955,3.925
16:17:49:322,10.002,-0.007,-0.021,0.001,-15.328,119.285,2.150
16:17:49:433,10.114,-0.030,0.024,0.002,-15.435,120.067,0.820
16:17:49:434,10.114,-0.020,0.036,-0.058,-15.631,121.425,-1.333
16:17:49:435,10.115,-0.026,0.035,-0.024,-15.762,122.202,-2.954
16:17:49:484,10.165,-0.030,0.194,-0.048,-15.998,123.807,-5.700
16:17:49:485,10.166,0.172,0.209,-0.009,-16.055,125.116,-7.816
16:17:49:486,10.166,0.166,0.273,0.015,-15.878,127.754,-11.411
16:17:49:505,10.186,0.192,0.300,0.198,-15.309,130.603,-15.813
16:17:49:532,10.212,0.477,0.528,0.659,-14.383,132.755,-19.243
16:17:49:558,10.239,0.760,0.485,1.161,-11.961,137.311,-25.196
16:17:49:611,10.291,0.418,0.398,0.351,-9.623,144.512,-36.424
16:17:49:636,10.317,0.469,-0.024,0.477,-8.581,148.544,-42.913
16:17:49:663,10.343,0.044,-0.434,0.352,-6.354,151.801,-45.978
16:17:49:689,10.370,-0.411,-0.599,-0.075,-1.994,157.274,-48.323
16:17:49:715,10.396,0.366,-1.240,-0.083,1.185,161.833,-48.136
16:17:49:743,10.424,0.759,-1.061,-0.523,2.537,167.990,-45.282
16:17:49:768,10.449,0.810,-0.713,-0.448,-2.640,169.834,-40.913
16:17:49:794,10.474,0.841,-0.648,-0.321,-6.915,169.155,-36.633
16:17:49:85,10.530,0.458,-0.242,-0.274,-11.350,167.096,-28.090
16:17:49:851,10.531,0.151,0.238,-0.470,-12.747,166.310,-21.502
16:17:49:873,10.554,0.256,0.213,-0.655,-12.961,168.166,-11.405
16:17:49:899,10.579,-0.303,0.388,-0.656,-12.942,171.044,-1.059
16:17:49:925,10.606,-0.805,0.638,-0.395,-13.218,173.492,5.347
16:17:49:952,10.632,-1.551,1.227,-0.792,-14.679,174.607,14.231
16:17:49:979,10.660,-2.316,-0.236,0.180,-13.871,171.450,18.767
16:17:50:066,10.746,-2.671,-0.469,0.093,-12.011,166.206,19.005
16:17:50:066,10.747,-0.241,0.005,-0.967,-11.692,163.935,15.776
16:17:50:067,10.747,-0.495,0.177,0.016,-12.328,164.368,12.862
16:17:50:068,10.748,-0.345,-0.016,-0.254,-12.944,166.591,9.363
16:17:50:142,10.822,0.010,-0.121,-0.240,-13.238,168.442,7.800
16:17:50:142,10.822,-0.009,0.065,0.033,-14.141,168.758,6.269
16:17:50:142,10.823,-0.149,0.054,0.061,-14.722,167.893,5.619
16:17:50:192,10.873,-0.286,-0.004,0.025,-15.209,167.692,4.688
16:17:50:192,10.873,-0.031,0.012,-0.042,-15.639,169.612,3.622
16:17:50:274,10.954,0.019,0.096,-0.044,-15.901,170.705,3.047
16:17:50:274,10.955,-0.097,0.008,-0.024,-16.242,171.753,2.383
16:17:50:275,10.955,-0.012,0.014,0.000,-16.385,172.715,1.817
16:17:50:351,11.031,0.023,-0.008,-0.013,-16.552,174.723,0.675
16:17:50:351,11.032,0.040,0.009,0.028,-16.603,175.959,-0.222
16:17:50:352,11.033,-0.034,0.027,-0.010,-16.625,177.312,-1.623
16:17:50:372,11.052,-0.011,0.065,-0.020,-16.545,178.697,-3.216
16:17:50:398,11.078,0.102,0.119,-0.057,-16.419,179.930,-4.519
16:17:50:424,11.105,0.167,0.068,-0.128,-16.073,-178.095,-6.932
16:17:50:479,11.160,0.283,0.154,-0.143,-15.781,-176.275,-8.856
16:17:50:48,11.161,0.310,0.149,-0.028,-15.069,-175.225,-12.158
16:17:50:504,11.184,0.377,0.167,-0.001,-14.218,-173.801,-16.175
16:17:50:529,11.210,0.521,0.369,-0.120,-13.501,-173.076,-19.427
16:17:50:557,11.238,1.467,0.248,-0.041,-11.519,-170.683,-25.432
16:17:50:584,11.264,1.162,0.340,-0.066,-10.114,-168.736,-29.783
16:17:50:609,11.289,0.698,0.626,-0.081,-10.082,-167.409,-37.065
16:17:50:635,11.316,0.995,0.008,-0.168,-9.515,-166.237,-41.827
16:17:50:663,11.343,0.938,-0.341,0.074,-6.610,-163.686,-47.101
16:17:50:687,11.367,-0.172,-0.217,0.379,-4.004,-162.491,-50.285
16:17:50:713,11.393,0.150,-0.785,-0.007,-2.273,-160.848,-50.971
16:17:50:741,11.421,0.345,-1.152,-0.236,-0.177,-159.768,-48.948
16:17:50:767,11.447,0.108,-0.847,-0.237,-0.637,-159.429,-46.086
16:17:50:823,11.504,0.207,-0.682,-0.227,-3.026,-161.235,-40.128
16:17:50:823,11.504,0.283,-0.527,-0.134,-5.136,-163.645,-32.218
16:17:50:844,11.525,0.273,-0.283,-0.104,-6.074,-165.231,-25.843
16:17:50:87,11.551,0.106,0.148,-0.140,-7.022,-167.072,-15.102
16:17:50:897,11.577,-0.154,0.666,-0.200,-7.550,-167.954,-7.580
16:17:50:925,11.605,-0.818,0.639,-0.019,-8.113,-168.918,3.416
16:17:50:95,11.630,-1.210,0.535,0.214,-9.035,-168.756,13.258
16:17:50:977,11.657,-1.300,0.442,0.165,-9.634,-169.851,18.552
16:17:51:002,11.682,-1.909,-0.429,0.575,-8.863,-175.000,23.448
16:17:51:057,11.737,-1.988,-0.408,0.552,-7.746,-178.537,23.368
16:17:51:057,11.738,-0.539,0.117,0.339,-7.586,-179.790,19.057
16:17:51:08,11.761,-0.693,0.247,-0.489,-8.179,-179.484,16.745
16:17:51:107,11.788,-0.643,-0.056,0.140,-9.045,179.917,12.011
16:17:51:133,11.813,-0.088,-0.216,-0.128,-9.499,-179.376,8.744
16:17:51:273,11.954,-0.244,0.110,-0.041,-10.100,-179.094,7.252
16:17:51:274,11.954,-0.123,0.191,-0.009,-11.150,-179.150,5.385
16:17:51:275,11.955,-0.229,-0.084,0.099,-11.585,-179.070,4.413
16:17:51:323,12.004,0.036,0.051,-0.033,-12.368,-175.966,2.072
16:17:51:324,12.004,0.008,0.005,0.008,-12.560,-175.395,1.427
16:17:51:324,12.004,-0.015,-0.036,0.024,-12.787,-174.591,0.303
16:17:51:344,12.024,0.039,-0.017,-0.008,-12.894,-173.828,-0.637
16:17:51:369,12.050,0.011,0.018,-0.029,-13.088,-172.880,-2.219
16:17:51:454,12.135,-0.073,0.038,-0.018,-13.220,-172.484,-3.330
16:17:51:455,12.136,0.018,0.059,-0.030,-13.326,-171.698,-5.063
16:17:51:456,12.136,0.161,0.159,-0.135,-13.358,-170.666,-7.048
16:17:51:474,12.154,0.135,0.146,-0.198,-13.280,-169.946,-8.645
16:17:51:53,12.210,0.180,0.201,-0.141,-13.050,-168.998,-11.677
16:17:51:531,12.211,0.379,0.241,-0.041,-12.611,-168.576,-14.288
16:17:51:555,12.236,0.489,0.331,-0.048,-11.558,-167.993,-18.899
16:17:51:58,12.260,1.199,0.564,-0.109,-9.517,-166.370,-24.759
16:17:51:606,12.286,1.607,0.099,-0.164,-7.217,-164.129,-29.029
16:17:51:632,12.312,0.864,0.499,0.040,-5.457,-162.242,-36.345
16:17:51:658,12.338,0.695,0.421,0.132,-5.350,-161.877,-41.503
16:17:51:713,12.393,0.794,-0.042,-0.203,-3.564,-160.342,-47.174
16:17:51:714,12.394,0.529,-0.595,-0.048,-1.165,-159.377,-49.663
16:17:51:74,12.420,0.113,-0.692,0.117,3.064,-156.485,-50.899
16:17:51:823,12.504,0.263,-1.117,-0.352,6.073,-153.317,-48.928
16:17:51:823,12.504,0.107,-1.039,-0.370,5.756,-152.458,-46.017
16:17:51:824,12.504,0.106,-0.840,-0.268,2.789,-152.971,-40.368
16:17:51:841,12.522,0.270,-0.820,-0.110,0.301,-154.005,-35.719
16:17:51:868,12.548,0.280,-0.490,-0.088,-3.463,-156.651,-26.749
16:17:51:952,12.633,0.079,-0.045,-0.107,-5.984,-158.921,-15.554
16:17:51:953,12.634,0.035,0.433,-0.361,-7.141,-159.006,-7.530
16:17:51:954,12.634,-0.971,1.168,0.207,-9.240,-158.634,4.439
16:17:51:973,12.653,-1.093,0.997,0.437,-11.110,-157.728,11.917
16:17:51:999,12.679,-1.877,0.586,0.201,-15.065,-158.585,21.703
16:17:52:025,12.706,-1.962,-0.581,0.707,-16.054,-161.293,26.050
16:17:52:054,12.734,-1.709,-0.793,0.516,-15.722,-164.789,27.953
16:17:52:079,12.759,0.178,0.507,-0.835,-14.824,-165.791,24.321
16:17:52:134,12.814,-0.334,0.703,0.494,-14.361,-164.614,22.319
16:17:52:134,12.815,-0.749,0.524,-0.432,-14.426,-167.389,18.018
16:17:52:159,12.839,-0.385,-0.189,0.086,-13.740,-169.944,16.009
16:17:52:184,12.865,-0.579,-0.267,-0.017,-14.091,-171.166,14.052
16:17:52:209,12.890,-0.137,0.134,-0.010,-15.044,-169.389,11.990
16:17:52:235,12.916,-0.006,-0.005,0.033,-15.784,-168.389,10.830
16:17:52:262,12.942,-0.187,0.048,0.084,-16.712,-167.424,9.638
16:17:52:349,13.030,-0.053,0.031,-0.051,-17.049,-166.139,8.675
16:17:52:35,13.030,0.082,0.011,-0.050,-17.453,-163.318,6.993
16:17:52:351,13.031,0.133,-0.031,-0.019,-17.606,-161.095,5.137
16:17:52:351,13.032,0.004,0.006,-0.032,-17.576,-160.436,3.909
16:17:52:394,13.074,-0.063,0.051,-0.013,-17.546,-159.937,1.979
16:17:52:451,13.131,-0.093,0.016,-0.016,-17.540,-159.396,0.616
16:17:52:452,13.132,-0.025,0.006,-0.009,-17.509,-158.287,-1.478
16:17:52:452,13.133,-0.062,0.062,-0.060,-17.510,-157.640,-2.857
16:17:52:501,13.181,-0.034,0.055,-0.035,-17.574,-156.702,-5.005
16:17:52:502,13.182,0.020,0.113,-0.158,-17.635,-154.859,-7.496
16:17:52:555,13.236,0.033,0.143,-0.150,-17.602,-154.079,-9.294
16:17:52:555,13.236,0.178,0.136,-0.075,-17.348,-152.777,-12.476
16:17:52:576,13.257,0.197,0.218,-0.097,-17.093,-152.215,-14.969
16:17:52:632,13.312,0.289,0.379,-0.197,-16.381,-150.468,-19.563
16:17:52:632,13.313,0.823,0.571,-0.375,-14.700,-147.498,-25.273
16:17:52:686,13.367,1.063,0.486,-0.367,-12.820,-144.353,-29.447
16:17:52:686,13.367,0.519,0.311,-0.120,-9.434,-138.620,-35.979
16:17:52:708,13.388,0.469,0.407,-0.214,-7.720,-135.356,-40.478
16:17:52:763,13.444,0.512,-0.102,-0.319,-4.499,-130.911,-46.081
16:17:52:764,13.444,-0.015,-0.621,0.165,-1.699,-127.844,-48.815
16:17:52:787,13.467,0.056,-0.868,-0.088,3.521,-122.565,-50.173
16:17:52:813,13.493,-0.214,-1.161,-0.638,7.203,-117.210,-48.729
16:17:52:839,13.519,-0.319,-0.825,-0.515,6.127,-115.149,-46.745
16:17:52:866,13.546,-0.200,-0.762,-0.428,0.909,-114.287,-43.060
16:17:52:892,13.573,-0.016,-0.646,-0.455,-3.143,-114.419,-39.329
16:17:52:918,13.598,0.046,-0.184,-0.371,-8.450,-115.321,-31.721
16:17:52:973,13.653,-0.504,0.518,-0.477,-11.710,-115.191,-22.818
16:17:52:974,13.654,-0.617,0.322,-0.214,-12.455,-113.607,-17.255
16:17:52:997,13.677,-0.374,0.200,-0.109,-12.745,-109.302,-9.080
16:17:53:024,13.704,-0.324,0.489,-0.048,-13.873,-106.023,-3.725
16:17:53:107,13.788,-0.387,0.738,0.505,-17.264,-104.377,4.110
16:17:53:108,13.789,-1.371,0.532,1.488,-18.774,-106.874,9.679
16:17:53:109,13.789,-0.785,-0.377,1.473,-18.665,-111.255,15.700
16:17:53:128,13.808,0.112,0.527,0.724,-17.981,-113.820,16.094
16:17:53:185,13.865,-0.195,0.518,-0.675,-17.293,-115.426,13.576
16:17:53:185,13.865,-0.415,0.254,0.162,-17.033,-117.088,11.440
16:17:53:236,13.916,-0.137,-0.156,0.436,-16.744,-116.986,9.082
16:17:53:237,13.917,-0.156,-0.058,-0.070,-17.129,-114.664,6.260
16:17:53:26,13.941,-0.051,0.134,-0.031,-17.503,-113.309,4.304
16:17:53:286,13.966,-0.029,0.045,0.105,-17.769,-113.295,3.386
16:17:53:341,14.022,-0.080,0.012,0.104,-17.981,-113.193,2.343
16:17:53:341,14.022,-0.112,0.034,0.025,-18.028,-112.630,1.628
16:17:53:393,14.073,-0.082,0.032,-0.035,-18.050,-111.376,0.554
16:17:53:394,14.075,-0.011,-0.017,-0.030,-18.046,-110.710,-0.037
16:17:53:417,14.098,-0.062,-0.057,-0.055,-17.980,-109.738,-1.069
16:17:53:443,14.124,0.010,0.023,-0.094,-18.017,-108.636,-2.466
16:17:53:469,14.149,-0.048,0.067,-0.025,-18.013,-108.110,-3.561
16:17:53:524,14.205,0.012,-0.020,-0.059,-17.893,-107.207,-5.366
16:17:53:525,14.206,-0.029,0.016,-0.056,-17.852,-106.665,-6.623
16:17:53:55,14.230,-0.042,0.056,-0.075,-17.792,-106.029,-8.618
16:17:53:576,14.257,-0.040,0.065,-0.058,-17.693,-105.275,-10.865
16:17:53:6,14.281,-0.090,0.116,-0.079,-17.603,-104.520,-12.518
16:17:53:627,14.307,-0.222,0.221,-0.294,-17.219,-102.770,-15.171
16:17:53:654,14.334,0.005,0.194,-0.328,-16.846,-102.241,-17.165
16:17:53:679,14.359,0.073,0.196,-0.351,-15.925,-100.963,-20.760
16:17:53:705,14.386,0.066,0.263,-0.540,-14.941,-100.102,-23.768
16:17:53:732,14.412,0.213,0.333,-1.072,-12.686,-97.779,-29.231
16:17:53:758,14.438,0.358,0.128,-1.326,-9.491,-94.368,-35.478
16:17:53:784,14.465,0.390,0.310,-0.860,-8.396,-92.986,-40.181
16:17:53:811,14.491,0.277,0.347,-0.724,-8.599,-91.935,-47.070
16:17:53:839,14.519,0.191,-0.312,-0.697,-7.346,-90.619,-50.717
16:17:53:894,14.574,0.054,-0.561,-0.177,-3.121,-88.699,-54.209
16:17:53:894,14.575,0.239,-0.768,0.090,2.365,-84.920,-54.590
16:17:53:945,14.625,-0.085,-1.108,-0.174,5.450,-82.304,-52.910
16:17:53:945,14.626,-0.427,-1.148,-0.329,6.150,-78.805,-48.445
16:17:53:97,14.650,-0.370,-0.915,-0.335,3.632,-77.974,-44.874
16:17:53:997,14.678,-0.180,-0.594,-0.289,-1.863,-78.613,-38.233
16:17:54:021,14.701,-0.144,-0.173,-0.329,-5.104,-79.681,-32.641
16:17:54:047,14.727,-0.296,0.289,-0.251,-8.274,-80.931,-22.558
16:17:54:073,14.753,-0.413,0.558,0.076,-9.979,-81.443,-12.429
16:17:54:099,14.779,-0.331,0.444,0.364,-10.442,-81.366,-5.606
16:17:54:125,14.806,0.046,0.531,0.425,-11.433,-79.833,4.423
16:17:54:181,14.862,0.122,0.799,0.991,-13.545,-79.409,10.717
16:17:54:182,14.862,-0.261,-0.032,1.839,-15.518,-82.838,19.553
16:17:54:206,14.887,0.370,-0.526,1.716,-15.836,-85.966,23.078
16:17:54:232,14.912,0.100,-0.530,1.463,-15.204,-89.297,24.089
16:17:54:257,14.937,-0.902,0.481,-0.558,-14.342,-91.238,19.913
16:17:54:283,14.963,0.196,0.024,1.084,-13.306,-92.045,18.265
16:17:54:311,14.991,-0.771,0.539,0.434,-13.387,-94.861,13.510
16:17:54:337,15.017,0.009,-0.185,0.348,-13.205,-97.261,11.125
16:17:54:362,15.042,-0.250,-0.281,0.558,-13.426,-99.677,9.004
16:17:54:388,15.069,-0.172,0.222,0.060,-13.952,-98.626,6.831
16:17:54:414,15.095,-0.007,-0.009,-0.035,-14.388,-98.214,5.608
16:17:54:44,15.121,-0.005,0.029,0.105,-15.158,-98.511,4.424
16:17:54:495,15.176,-0.016,-0.014,0.075,-15.503,-98.250,3.593
16:17:54:496,15.177,-0.064,-0.021,-0.018,-15.729,-96.398,1.903
16:17:54:52,15.200,-0.016,-0.013,-0.112,-15.883,-94.185,0.045
16:17:54:547,15.227,-0.028,-0.007,-0.104,-15.937,-93.234,-1.224
16:17:54:604,15.284,-0.085,0.019,-0.053,-16.014,-92.299,-3.230
16:17:54:604,15.285,-0.044,0.020,-0.023,-16.072,-91.778,-4.689
16:17:54:605,15.286,-0.051,0.014,-0.037,-16.109,-90.768,-7.008
16:17:54:658,15.338,-0.047,0.111,-0.017,-16.074,-90.016,-8.602
16:17:54:658,15.338,-0.065,0.143,-0.045,-15.999,-88.978,-10.979
16:17:54:677,15.357,-0.190,0.161,-0.203,-15.836,-87.553,-13.515
16:17:54:704,15.384,-0.189,0.240,-0.260,-15.551,-86.526,-15.484
16:17:54:758,15.439,-0.086,0.222,-0.444,-14.859,-85.360,-19.022
16:17:54:759,15.440,-0.067,0.248,-0.487,-14.215,-84.735,-21.814
16:17:54:811,15.491,-0.168,0.496,-0.880,-12.725,-83.784,-26.960
16:17:54:812,15.492,-0.011,0.177,-1.537,-9.483,-80.910,-33.064
16:17:54:863,15.544,0.145,0.233,-0.776,-6.958,-78.622,-37.216
16:17:54:864,15.544,0.106,0.284,-0.624,-5.934,-77.000,-44.363
16:17:54:886,15.567,-0.062,-0.207,-0.741,-4.862,-75.655,-48.310
16:17:54:942,15.623,0.087,-0.453,-0.036,-0.952,-73.342,-52.339
16:17:54:943,15.623,0.138,-0.968,-0.235,3.028,-71.305,-53.542
16:17:54:965,15.646,-0.188,-1.172,-0.352,8.199,-67.389,-52.821
16:17:54:992,15.672,-0.363,-0.972,-0.275,8.512,-64.980,-49.814
16:17:55:047,15.728,-0.237,-0.758,-0.241,4.660,-65.412,-46.857
16:17:55:048,15.728,-0.206,-0.658,-0.354,-1.672,-67.297,-40.778
16:17:55:07,15.751,-0.109,-0.375,-0.245,-4.962,-69.066,-35.199
16:17:55:126,15.807,-0.177,-0.032,-0.199,-7.706,-71.445,-25.086
16:17:55:127,15.807,-0.285,0.483,-0.047,-8.547,-72.214,-14.177
16:17:55:152,15.832,-0.229,0.728,0.257,-8.734,-72.188,-6.900
16:17:55:176,15.857,0.124,0.707,0.490,-9.437,-70.664,3.601
16:17:55:202,15.882,0.466,1.090,0.667,-11.666,-69.921,10.047
16:17:55:228,15.908,0.017,0.176,1.959,-14.110,-73.259,18.652
16:17:55:254,15.935,0.719,-0.479,1.595,-14.209,-76.937,21.803
16:17:55:281,15.961,0.443,-0.595,1.608,-13.673,-80.222,21.850
16:17:55:307,15.987,-1.357,0.875,-0.557,-13.012,-81.646,17.207
16:17:55:336,16.016,0.559,0.715,0.297,-12.313,-82.358,14.650
16:17:55:419,16.100,-0.714,0.122,0.780,-12.935,-86.041,9.962
16:17:55:42,16.100,0.044,-0.164,0.450,-12.830,-88.054,7.613
16:17:55:42,16.100,-0.208,0.013,0.431,-13.376,-87.410,5.003
16:17:55:467,16.147,-0.140,0.108,-0.200,-13.810,-84.161,2.244
16:17:55:468,16.148,-0.040,-0.007,-0.230,-14.288,-83.595,1.095
16:17:55:52,16.200,0.044,0.034,0.046,-14.952,-84.328,-0.089
16:17:55:52,16.201,-0.013,0.014,0.172,-15.091,-84.182,-0.951
16:17:55:543,16.223,-0.068,-0.045,-0.159,-15.056,-82.235,-2.582
16:17:55:598,16.279,-0.049,0.024,-0.182,-15.121,-81.093,-3.636
16:17:55:599,16.279,-0.007,-0.023,-0.068,-15.214,-80.637,-5.142
16:17:55:623,16.304,-0.043,0.027,-0.073,-15.396,-80.131,-6.886
16:17:55:649,16.329,-0.032,0.014,-0.109,-15.542,-79.572,-8.203
16:17:55:674,16.354,-0.061,0.025,-0.084,-15.755,-78.957,-10.240
16:17:55:7,16.381,-0.077,0.151,-0.110,-15.895,-78.572,-11.679
16:17:55:727,16.407,-0.218,0.217,-0.187,-16.050,-77.641,-14.278
16:17:55:753,16.434,-0.208,0.190,-0.267,-15.843,-76.422,-17.437
16:17:55:78,16.461,-0.199,0.198,-0.353,-15.511,-75.718,-19.885
16:17:55:806,16.486,-0.139,0.197,-0.539,-14.704,-75.016,-24.118
16:17:55:831,16.512,-0.216,0.346,-0.815,-13.843,-74.441,-27.566
16:17:55:888,16.568,-0.407,0.175,-1.443,-11.629,-72.507,-33.716
16:17:55:888,16.569,-0.261,0.310,-1.304,-9.818,-70.713,-38.189
16:17:55:912,16.592,-0.086,0.384,-0.972,-9.228,-69.630,-45.686
16:17:55:937,16.617,-0.352,-0.208,-1.097,-8.532,-68.767,-52.253
16:17:55:963,16.644,-0.178,-0.572,-0.958,-6.574,-67.939,-55.233
16:17:56:019,16.699,0.294,-0.297,0.028,-2.617,-66.896,-57.498
16:17:56:019,16.699,-0.100,-0.991,-0.261,0.890,-65.359,-57.215
16:17:56:042,16.722,-0.351,-1.159,-0.205,4.002,-63.425,-53.820
16:17:56:07,16.750,-0.339,-0.964,-0.248,1.792,-63.456,-48.245
16:17:56:095,16.775,-0.277,-0.706,-0.323,-1.127,-64.545,-43.589
16:17:56:15,16.830,-0.198,-0.421,-0.344,-4.835,-67.146,-34.780
16:17:56:151,16.831,-0.171,-0.001,-0.210,-6.254,-68.986,-27.759
16:17:56:173,16.854,-0.213,0.251,-0.140,-7.199,-70.971,-15.991
16:17:56:199,16.879,0.000,1.049,0.349,-7.577,-72.107,-7.723
16:17:56:256,16.936,0.682,0.915,1.036,-7.829,-73.665,4.296
16:17:56:256,16.936,0.598,0.480,1.513,-9.205,-73.430,14.534
16:17:56:278,16.959,0.534,0.129,1.842,-10.370,-74.683,19.757
16:17:56:304,16.985,0.751,-0.442,1.648,-10.712,-77.870,23.093
16:17:56:333,17.013,0.962,-0.122,0.908,-10.592,-79.135,21.944
16:17:56:358,17.039,-1.277,0.507,0.170,-10.898,-80.184,17.253
16:17:56:384,17.065,0.291,0.446,0.472,-9.866,-81.960,13.336
16:17:56:411,17.091,-0.019,-0.003,0.349,-10.611,-83.862,10.612
16:17:56:436,17.117,-0.085,0.053,0.561,-11.600,-87.118,7.217
16:17:56:463,17.143,-0.076,0.111,0.218,-12.145,-87.584,5.604
16:17:56:488,17.169,-0.168,0.037,-0.089,-12.849,-84.273,2.642
16:17:56:543,17.224,-0.048,0.045,-0.081,-13.580,-82.219,0.543
16:17:56:544,17.224,0.031,0.032,0.055,-14.037,-82.273,-0.387
16:17:56:569,17.249,-0.012,0.012,0.081,-14.380,-82.071,-1.684
16:17:56:595,17.275,-0.056,-0.091,-0.022,-14.430,-81.147,-2.666
16:17:56:621,17.301,-0.028,0.008,-0.193,-14.540,-79.249,-4.299
16:17:56:646,17.327,-0.032,-0.001,-0.144,-14.634,-78.300,-6.042
16:17:56:672,17.352,-0.029,0.009,-0.093,-14.777,-78.118,-7.306
16:17:56:698,17.378,-0.053,0.054,-0.048,-15.003,-77.658,-9.486
16:17:56:724,17.404,-0.022,0.153,-0.134,-15.066,-77.018,-11.095
16:17:56:752,17.432,-0.258,0.240,-0.118,-15.076,-75.863,-13.689
16:17:56:777,17.458,-0.213,0.155,-0.255,-14.827,-74.994,-15.714
16:17:56:803,17.484,-0.147,0.167,-0.377,-14.273,-73.860,-19.326
16:17:56:829,17.510,-0.125,0.215,-0.553,-13.408,-73.183,-23.721
16:17:56:858,17.539,-0.220,0.270,-0.702,-12.569,-72.969,-27.320
16:17:56:885,17.565,-0.382,0.258,-1.524,-10.160,-70.784,-33.698
16:17:56:909,17.590,-0.174,0.277,-1.247,-8.265,-68.940,-38.265
16:17:56:937,17.617,-0.070,0.324,-1.045,-7.773,-67.889,-46.106
16:17:56:938,17.618,-0.284,-0.264,-0.976,-6.477,-66.709,-52.253
16:17:56:991,17.672,-0.009,-0.473,-0.828,-4.518,-66.006,-55.035
16:17:56:991,17.672,0.414,-0.399,-0.087,-0.541,-64.973,-56.650
16:17:57:071,17.752,-0.171,-1.247,-0.362,2.594,-63.192,-55.733
16:17:57:072,17.752,-0.278,-1.143,-0.188,3.966,-61.464,-51.319
16:17:57:072,17.753,-0.272,-0.895,-0.179,1.547,-61.640,-47.497
16:17:57:123,17.803,-0.196,-0.649,-0.270,-3.186,-63.326,-40.096
16:17:57:123,17.803,-0.138,-0.290,-0.305,-6.538,-65.543,-30.452
16:17:57:173,17.854,-0.168,0.033,-0.122,-8.031,-66.799,-23.024
16:17:57:174,17.855,-0.375,0.575,0.130,-9.307,-67.694,-11.485
16:17:57:198,17.879,-0.068,0.752,0.633,-9.855,-67.786,-3.832
16:17:57:254,17.934,0.500,0.836,0.987,-11.217,-66.998,6.986
16:17:57:254,17.935,0.299,0.820,1.498,-13.469,-67.807,16.319
16:17:57:275,17.956,0.609,-0.070,1.745,-13.667,-71.154,20.783
16:17:57:301,17.982,0.688,-0.599,1.893,-13.020,-75.494,22.657
16:17:57:328,18.008,0.295,0.228,0.517,-12.492,-76.869,20.221
16:17:57:354,18.035,1.130,-0.010,1.140,-12.136,-75.503,16.313
16:17:57:439,18.120,-0.518,0.577,1.131,-12.579,-76.433,12.405
16:17:57:44,18.120,0.133,-0.402,0.312,-12.782,-78.481,8.055
16:17:57:44,18.121,-0.124,-0.101,0.328,-13.275,-78.693,5.361
16:17:57:49,18.170,-0.067,0.198,0.154,-13.812,-77.827,3.716
16:17:57:49,18.170,-0.003,0.033,0.025,-14.680,-76.680,1.698
16:17:57:512,18.193,0.024,0.030,0.029,-15.144,-76.008,0.657
16:17:57:538,18.219,-0.002,0.008,-0.006,-15.560,-74.626,-0.803
16:17:57:567,18.247,-0.068,-0.013,-0.035,-15.700,-73.183,-2.155
16:17:57:62,18.300,-0.036,-0.011,-0.087,-15.785,-72.393,-2.938
16:17:57:62,18.301,-0.034,-0.048,-0.114,-15.913,-71.283,-4.340
16:17:57:643,18.323,-0.059,0.030,-0.064,-16.023,-70.645,-5.429
16:17:57:702,18.382,-0.062,0.049,-0.038,-16.232,-69.860,-7.258
16:17:57:702,18.382,-0.048,0.031,-0.037,-16.315,-69.408,-8.599
16:17:57:723,18.403,-0.083,0.054,-0.094,-16.435,-68.320,-10.691
16:17:57:75,18.431,-0.094,0.084,-0.124,-16.572,-67.397,-13.057
16:17:57:862,18.542,-0.232,0.169,-0.144,-16.571,-66.503,-14.951
16:17:57:863,18.543,-0.208,0.184,-0.263,-16.362,-65.285,-18.389
16:17:57:864,18.544,-0.166,0.206,-0.414,-15.994,-64.375,-21.137
16:17:57:865,18.545,-0.218,0.418,-0.595,-14.984,-63.023,-26.060
16:17:57:88,18.560,-0.544,0.531,-1.348,-13.647,-61.503,-30.127
16:17:57:906,18.586,-0.352,0.117,-1.244,-10.420,-57.653,-36.732
16:17:57:933,18.613,-0.266,0.319,-0.679,-8.160,-53.808,-44.094
16:17:57:958,18.638,-0.316,-0.039,-0.735,-6.685,-51.360,-48.482
16:17:57:984,18.665,-0.116,-0.379,-0.553,-1.862,-47.333,-53.239
16:17:58:04,18.720,0.510,-0.462,0.069,2.329,-44.623,-55.137
16:17:58:041,18.721,-0.511,-1.330,-0.083,9.048,-39.117,-55.027
16:17:58:066,18.746,-0.825,-1.123,0.124,10.886,-34.346,-51.868
16:17:58:09,18.771,-0.551,-0.817,0.129,7.863,-32.846,-49.028
16:17:58:116,18.797,-0.422,-0.698,-0.194,0.701,-32.633,-43.658
16:17:58:142,18.822,-0.424,-0.534,-0.121,-3.667,-33.134,-38.733
16:17:58:168,18.848,-0.309,0.055,0.023,-7.620,-32.995,-29.494
16:17:58:224,18.904,-0.506,0.236,0.277,-8.678,-30.178,-19.661
16:17:58:224,18.904,-0.137,0.370,0.299,-8.988,-27.785,-12.919
16:17:58:249,18.929,0.189,0.765,0.215,-10.470,-24.135,-3.143
16:17:58:274,18.955,0.614,0.603,0.735,-12.411,-23.404,3.291
16:17:58:3,18.981,1.423,0.408,1.107,-14.350,-27.172,11.705
16:17:58:355,19.036,1.510,-0.221,0.860,-14.735,-29.720,14.931
16:17:58:356,19.036,1.093,-0.242,0.600,-14.618,-32.174,15.053
16:17:58:378,19.058,0.425,-0.035,0.765,-13.783,-34.975,11.777
16:17:58:406,19.086,0.897,0.257,0.334,-13.165,-36.365,10.391
16:17:58:433,19.113,0.667,-0.264,0.085,-13.364,-38.681,6.470
16:17:58:516,19.196,0.288,-0.210,0.297,-13.456,-39.528,4.501
16:17:58:516,19.197,0.042,-0.018,0.108,-13.617,-37.888,2.056
16:17:58:517,19.197,-0.192,0.102,-0.111,-14.123,-35.638,0.311
16:17:58:536,19.216,-0.004,0.012,-0.060,-14.517,-35.806,-0.365
16:17:58:562,19.242,0.104,0.042,0.016,-14.920,-36.252,-1.266
16:17:58:649,19.329,0.049,0.006,0.065,-15.002,-35.796,-1.934
16:17:58:649,19.330,-0.076,-0.015,-0.078,-15.179,-34.313,-2.984
16:17:58:649,19.330,-0.090,-0.016,-0.108,-15.267,-33.566,-3.655
16:17:58:668,19.349,-0.091,-0.007,-0.103,-15.360,-32.813,-4.889
16:17:58:722,19.402,-0.079,0.011,-0.068,-15.475,-32.123,-6.544
16:17:58:723,19.403,-0.073,0.006,-0.090,-15.530,-31.560,-7.853
16:17:58:746,19.426,-0.037,0.048,-0.027,-15.627,-30.903,-9.964
16:17:58:859,19.539,-0.038,0.107,-0.032,-15.689,-30.487,-11.389
16:17:58:86,19.540,-0.068,0.116,-0.068,-15.671,-29.314,-13.704
16:17:58:861,19.541,-0.260,0.158,0.047,-15.478,-27.627,-16.290
16:17:58:861,19.542,-0.296,0.163,-0.020,-15.241,-26.589,-18.240
16:17:58:877,19.557,-0.387,0.167,-0.211,-14.694,-25.439,-21.692
16:17:58:903,19.583,-0.412,0.224,-0.230,-14.132,-25.274,-24.457
16:17:58:929,19.609,-0.821,0.348,-0.366,-12.288,-23.369,-29.623
16:17:58:956,19.636,-1.268,0.198,-0.809,-9.998,-21.014,-33.611
16:17:59:011,19.691,-0.939,0.200,-0.758,-6.830,-17.464,-40.035
16:17:59:012,19.692,-0.674,0.321,-0.427,-5.623,-14.823,-47.065
16:17:59:036,19.716,-0.794,-0.139,-0.396,-3.606,-12.639,-50.960
16:17:59:061,19.742,-0.456,-0.571,-0.346,1.774,-9.326,-54.908
16:17:59:087,19.767,0.100,-0.624,-0.244,5.702,-6.868,-56.060
16:17:59:113,19.793,-0.348,-1.105,0.154,10.918,-1.980,-54.828
16:17:59:173,19.854,-0.473,-1.071,0.502,10.991,1.887,-50.657
16:17:59:173,19.854,-0.446,-0.830,0.454,7.638,2.907,-47.235
16:17:59:173,19.854,-0.400,-0.628,0.170,0.972,2.564,-40.904
16:17:59:221,19.901,-0.378,-0.285,0.249,-3.077,1.488,-35.541
16:17:59:222,19.902,-0.193,0.117,0.292,-6.732,0.145,-25.589
16:17:59:244,19.925,-0.173,0.462,0.541,-7.725,0.360,-18.482
16:17:59:271,19.951,0.257,0.545,0.570,-8.066,1.954,-7.774
16:17:59:299,19.979,0.728,0.828,-0.128,-8.710,4.796,2.645
16:17:59:382,20.062,0.792,0.788,-0.108,-10.461,5.985,9.028
16:17:59:383,20.063,1.799,-0.095,0.020,-10.926,1.043,17.232
16:17:59:383,20.063,2.198,-0.614,-0.112,-10.208,-3.211,19.771
16:17:59:431,20.112,-0.253,0.410,-0.197,-9.445,-5.264,18.205
16:17:59:432,20.113,0.965,-0.116,-0.547,-8.965,-4.473,14.555
16:17:59:454,20.135,0.906,0.132,-0.376,-9.111,-4.963,11.744
16:17:59:484,20.164,0.634,-0.389,-0.282,-9.432,-6.157,7.504
16:17:59:507,20.187,0.231,-0.175,0.107,-9.775,-5.997,5.623
16:17:59:562,20.242,0.027,0.051,0.055,-10.234,-4.941,3.457
16:17:59:589,20.269,-0.018,0.071,-0.036,-10.662,-4.511,2.326
16:17:59:589,20.270,0.073,-0.007,-0.065,-11.287,-4.664,1.066
16:17:59:638,20.318,-0.062,-0.006,-0.062,-11.833,-3.073,-0.910
16:17:59:664,20.345,-0.089,-0.030,-0.071,-12.003,-1.639,-2.129
16:17:59:69,20.371,-0.083,-0.015,-0.064,-12.070,-0.818,-2.988
16:17:59:718,20.398,-0.071,0.008,-0.036,-12.114,0.241,-4.439
16:17:59:804,20.484,-0.084,0.034,-0.030,-12.169,1.121,-6.028
16:17:59:804,20.484,-0.096,0.023,-0.034,-12.200,1.597,-7.132
16:17:59:804,20.484,-0.087,0.065,-0.056,-12.224,2.243,-8.928
16:17:59:851,20.532,-0.110,0.136,-0.036,-12.229,2.717,-10.246
16:17:59:852,20.532,-0.214,0.124,0.123,-12.071,4.015,-12.554
16:17:59:874,20.555,-0.300,0.219,0.118,-11.778,5.009,-14.387
16:17:59:902,20.582,-0.371,0.199,0.026,-11.146,5.812,-17.694
16:17:59:927,20.608,-0.491,0.229,-0.030,-10.062,6.547,-21.775
16:17:59:953,20.634,-0.637,0.388,0.002,-8.890,7.285,-25.058
16:17:59:98,20.660,-1.539,0.156,0.001,-5.741,9.645,-30.812
16:18:00:006,20.686,-0.995,0.362,-0.216,-3.046,11.776,-34.884
16:18:00:032,20.712,-0.927,0.419,-0.095,-1.596,12.822,-42.140
16:18:00:058,20.738,-0.945,-0.073,-0.004,-0.254,13.620,-48.739
16:18:00:085,20.765,-0.664,-0.472,-0.126,2.147,14.694,-51.839
16:18:00:14,20.820,0.024,-0.568,-0.200,5.917,15.847,-54.658
16:18:00:141,20.821,-0.160,-0.874,-0.214,8.653,17.513,-54.614
16:18:00:164,20.844,-0.269,-1.152,0.232,11.242,19.931,-51.735
16:18:00:189,20.870,-0.190,-0.779,0.253,10.166,20.588,-48.494
16:18:00:215,20.896,-0.345,-0.681,0.157,5.781,19.783,-42.536
16:18:00:242,20.922,-0.353,-0.509,0.040,1.306,18.004,-34.381
16:18:00:27,20.950,-0.303,-0.159,0.039,-0.967,16.781,-27.743
16:18:00:295,20.975,-0.179,0.365,0.189,-3.137,15.901,-16.643
16:18:00:35,21.030,0.374,0.875,-0.034,-4.259,15.465,-9.082
16:18:00:35,21.031,0.817,0.871,-0.322,-5.646,15.329,1.976
16:18:00:402,21.083,1.286,0.576,-0.391,-7.433,16.354,11.678
16:18:00:403,21.083,1.598,0.249,-0.248,-8.647,14.957,16.288
16:18:00:455,21.135,1.687,-0.376,-0.312,-8.752,10.754,18.772
16:18:00:456,21.136,1.629,-0.438,-0.352,-8.197,8.033,17.385
16:18:00:482,21.162,0.177,0.239,0.418,-7.660,6.140,13.310
16:18:00:535,21.216,0.810,0.105,-0.704,-7.433,5.677,10.827
16:18:00:535,21.216,0.495,0.596,0.492,-8.417,3.953,6.233
16:18:00:557,21.237,0.145,-0.205,-0.056,-8.719,2.493,3.199
16:18:00:583,21.264,0.203,0.020,0.064,-9.107,2.736,1.777
16:18:00:638,21.319,-0.077,0.149,-0.004,-9.718,4.001,-0.149
16:18:00:639,21.319,-0.059,0.001,-0.059,-10.120,4.391,-1.082
16:18:00:781,21.462,-0.073,0.037,-0.062,-10.689,4.996,-2.236
16:18:00:781,21.462,-0.073,0.023,-0.053,-10.876,6.206,-3.571
16:18:00:782,21.462,-0.147,-0.047,-0.028,-10.858,7.355,-4.530
16:18:00:782,21.462,-0.210,-0.035,-0.040,-10.789,8.835,-6.113
16:18:00:797,21.478,-0.174,0.012,-0.027,-10.737,9.412,-7.283
16:18:00:797,21.478,-0.102,0.032,-0.017,-10.745,10.010,-9.184
16:18:00:819,21.500,-0.143,0.013,-0.066,-10.717,11.031,-10.535
16:18:00:848,21.528,-0.142,0.063,-0.021,-10.685,11.875,-12.567
16:18:00:903,21.583,-0.200,0.108,-0.069,-10.626,13.154,-14.635
16:18:00:903,21.583,-0.194,0.166,0.167,-10.496,13.951,-16.156
16:18:00:983,21.664,-0.366,0.085,0.044,-10.047,15.737,-18.991
16:18:00:983,21.664,-0.456,0.132,0.041,-9.450,16.496,-22.496
16:18:00:984,21.665,-0.514,0.152,0.014,-8.780,16.778,-25.226
16:18:01:003,21.684,-0.789,0.367,0.155,-6.957,17.603,-30.244
16:18:01:031,21.711,-1.610,0.114,0.235,-4.634,19.007,-34.203
16:18:01:086,21.766,-1.487,0.035,0.159,-0.514,21.651,-40.367
16:18:01:086,21.767,-0.843,0.322,-0.048,1.176,22.691,-47.517
16:18:01:108,21.789,-0.906,-0.009,0.134,2.697,23.584,-51.631
16:18:01:134,21.815,-0.511,-0.578,0.000,7.358,25.383,-56.054
16:18:01:161,21.841,0.073,-0.442,-0.432,11.297,26.780,-57.531
16:18:01:187,21.868,-0.200,-1.137,0.168,16.929,30.263,-56.859
16:18:01:214,21.894,-0.037,-1.035,0.404,18.271,32.486,-54.505
16:18:01:24,21.920,-0.100,-0.911,0.450,15.158,34.085,-49.773
16:18:01:266,21.946,-0.180,-0.655,0.195,8.975,33.884,-43.690
16:18:01:293,21.973,-0.408,-0.627,0.211,4.779,33.147,-38.558
16:18:01:318,21.999,-0.268,-0.009,0.287,-0.289,31.732,-28.918
16:18:01:344,22.025,-0.039,0.509,0.329,-2.314,31.440,-21.765
16:18:01:37,22.051,0.252,0.610,0.274,-3.933,32.370,-11.088
16:18:01:399,22.079,0.593,0.756,-0.360,-5.188,34.020,-0.138
16:18:01:424,22.104,0.576,0.971,-0.502,-6.508,36.010,6.541
16:18:01:45,22.130,0.993,0.330,-0.531,-8.759,35.544,15.215
16:18:01:476,22.156,1.635,-0.348,-1.076,-9.272,32.623,19.094
16:18:01:535,22.216,1.180,-0.450,-0.896,-8.829,29.813,19.731
16:18:01:536,22.216,-0.322,0.509,1.129,-8.501,29.069,17.010
16:18:01:536,22.216,0.605,-0.113,-0.610,-8.023,28.768,14.234
16:18:01:585,22.265,0.673,0.234,-0.477,-8.094,27.143,9.961
16:18:01:585,22.265,0.329,-0.311,-0.475,-8.296,25.522,7.781
16:18:01:607,22.287,0.324,-0.101,-0.172,-8.835,24.316,5.216
16:18:01:661,22.341,0.046,0.028,-0.025,-9.200,25.265,3.943
16:18:01:689,22.369,-0.075,0.067,-0.037,-9.856,26.755,2.439
16:18:01:69,22.370,-0.023,0.031,-0.073,-10.599,27.183,1.655
16:18:01:741,22.422,-0.031,0.040,-0.087,-10.958,27.516,1.319
16:18:01:742,22.422,-0.137,-0.050,-0.069,-11.238,28.797,0.695
16:18:01:764,22.445,-0.219,-0.053,-0.022,-11.336,30.174,0.090
16:18:01:792,22.473,-0.215,-0.029,0.022,-11.426,32.026,-1.125
16:18:01:818,22.498,-0.121,0.034,0.016,-11.501,32.831,-2.078
16:18:01:874,22.554,-0.160,-0.007,-0.001,-11.598,33.572,-3.766
16:18:01:874,22.554,-0.133,0.007,-0.022,-11.717,34.260,-5.629
16:18:01:896,22.577,-0.204,0.035,0.021,-11.757,34.788,-6.986
16:18:01:922,22.602,-0.136,0.044,0.035,-11.799,35.668,-9.295
16:18:01:978,22.658,-0.159,0.066,-0.012,-11.838,36.316,-11.054
16:18:01:978,22.659,-0.158,0.089,-0.033,-11.906,37.479,-13.910
16:18:02:,22.681,-0.116,0.226,0.203,-11.739,39.725,-16.992
16:18:02:057,22.737,-0.223,0.181,0.194,-11.514,40.646,-19.332
16:18:02:057,22.737,-0.345,0.230,0.107,-10.813,42.610,-23.488
16:18:02:08,22.760,-0.677,0.523,0.408,-9.699,44.316,-26.733
16:18:02:194,22.874,-1.161,0.412,0.621,-6.052,49.047,-32.162
16:18:02:194,22.874,-0.839,0.176,0.330,-2.289,53.433,-35.971
16:18:02:195,22.875,-0.727,0.167,0.566,1.929,58.510,-42.346
16:18:02:196,22.876,-0.567,-0.013,0.300,5.823,62.334,-47.561
16:18:02:213,22.893,-0.484,-0.347,0.358,8.735,65.002,-49.959
16:18:02:266,22.946,-0.014,-0.679,-0.315,12.989,69.565,-50.815
16:18:02:267,22.947,0.215,-1.307,0.566,15.655,73.436,-49.584
16:18:02:29,22.970,0.423,-0.990,0.740,15.626,78.566,-45.419
16:18:02:316,22.996,0.205,-0.633,0.656,10.148,80.211,-40.868
16:18:02:342,23.022,-0.017,-0.593,0.626,5.641,79.900,-36.828
16:18:02:368,23.049,0.056,-0.186,0.495,-0.205,78.556,-28.779
16:18:02:395,23.075,0.282,0.284,0.268,-2.497,78.359,-22.412
16:18:02:421,23.101,0.346,0.384,0.032,-3.948,80.123,-12.716
16:18:02:447,23.127,0.235,0.571,-0.279,-4.576,82.276,-6.274
16:18:02:473,23.154,0.222,0.957,-0.148,-6.911,85.103,2.873
16:18:02:558,23.239,0.451,0.420,-1.512,-9.221,82.086,11.210
16:18:02:559,23.239,0.427,-0.072,-1.743,-8.847,79.926,15.610
16:18:02:559,23.239,0.198,-0.396,-1.402,-8.479,78.773,18.783
16:18:02:58,23.260,-0.145,-0.147,-1.507,-7.982,77.746,18.453
16:18:02:606,23.287,0.433,0.685,-0.283,-7.314,75.749,14.742
16:18:02:631,23.312,-0.020,-0.023,-0.229,-7.485,75.274,11.463
16:18:02:657,23.337,-0.099,-0.334,-0.629,-7.687,75.581,8.946
16:18:02:683,23.364,0.052,-0.073,-0.062,-8.135,77.402,5.957
16:18:02:709,23.390,-0.102,0.097,-0.078,-8.658,78.310,4.469
16:18:02:823,23.503,-0.129,0.057,-0.054,-9.323,78.873,2.663
16:18:02:823,23.503,-0.092,0.010,-0.176,-9.503,78.863,1.651
16:18:02:823,23.503,-0.069,0.010,-0.125,-9.629,79.385,0.374
16:18:02:843,23.524,-0.093,0.016,-0.070,-9.646,80.235,-0.589
16:18:02:845,23.525,-0.082,-0.016,-0.055,-9.651,80.604,-0.984
16:18:02:868,23.548,-0.086,-0.027,-0.003,-9.661,81.245,-1.489
16:18:02:894,23.574,-0.130,-0.022,0.008,-9.755,81.883,-1.964
16:18:02:919,23.600,-0.110,0.015,-0.027,-9.973,82.965,-2.938
16:18:03:002,23.683,-0.141,0.009,0.026,-10.113,84.171,-4.163
16:18:03:003,23.684,-0.127,0.062,0.049,-10.166,84.938,-5.103
16:18:03:028,23.709,-0.105,0.058,0.077,-10.182,85.985,-6.811
16:18:03:029,23.709,-0.034,0.144,0.127,-10.181,86.756,-8.241
16:18:03:08,23.760,0.039,0.249,0.097,-9.986,88.003,-10.811
16:18:03:08,23.761,-0.020,0.241,0.268,-9.696,89.957,-12.776
16:18:03:103,23.784,-0.121,0.203,0.328,-8.946,91.271,-16.331
16:18:03:129,23.810,-0.148,0.432,0.548,-7.638,93.838,-20.812
16:18:03:185,23.865,-0.155,0.477,1.006,-6.077,95.479,-24.390
16:18:03:186,23.866,-0.171,0.160,1.208,-2.943,99.380,-30.274
16:18:03:237,23.918,-0.201,0.387,0.682,-1.590,101.619,-34.727
16:18:03:238,23.918,-0.120,0.283,0.762,-0.366,104.366,-41.654
16:18:03:261,23.942,-0.074,-0.222,0.711,2.920,107.705,-46.467
16:18:03:287,23.967,0.080,-0.743,0.153,5.784,109.735,-48.479
16:18:03:314,23.994,0.159,-1.199,0.384,9.038,113.878,-48.809
16:18:03:34,24.020,0.548,-0.995,0.260,10.213,116.424,-47.114
16:18:03:368,24.048,0.533,-0.763,0.253,8.345,118.263,-42.171
16:18:03:448,24.129,0.355,-0.538,0.374,5.522,117.990,-38.268
16:18:03:449,24.129,0.320,-0.281,0.466,1.153,116.245,-30.928
16:18:03:473,24.154,0.238,0.205,0.131,-2.182,113.628,-21.667
16:18:03:474,24.155,0.291,0.414,-0.117,-3.054,112.504,-14.941
16:18:03:5,24.180,0.270,0.432,-0.276,-3.126,112.842,-4.709
16:18:03:523,24.203,-0.199,0.401,-0.236,-3.043,113.745,2.133
16:18:03:549,24.230,-0.560,0.776,-0.634,-4.139,114.189,12.190
16:18:03:576,24.256,-0.489,0.001,-1.637,-4.979,110.201,20.809
16:18:03:664,24.344,-0.767,-0.315,-2.075,-3.560,105.689,24.897
16:18:03:681,24.361,-0.903,-0.167,-1.364,-0.948,99.976,21.161
16:18:03:707,24.388,0.011,-0.091,-0.893,-1.594,99.162,15.913
16:18:03:735,24.416,-0.492,-0.203,-0.582,-2.188,98.335,13.098
16:18:03:761,24.441,-0.045,-0.201,-0.371,-2.569,96.967,9.488
16:18:03:79,24.471,-0.100,0.204,-0.196,-3.008,96.971,7.916
16:18:03:79,24.471,-0.077,-0.014,-0.026,-3.855,97.818,5.876
16:18:03:812,24.492,-0.166,0.012,-0.106,-4.365,98.063,4.815
16:18:03:839,24.519,-0.141,0.038,-0.102,-4.953,98.615,3.500
16:18:03:866,24.547,-0.112,0.007,-0.097,-5.315,99.697,2.378
16:18:03:892,24.572,-0.114,-0.016,-0.028,-5.539,100.614,1.681
16:18:03:917,24.598,-0.131,0.000,0.019,-5.775,102.066,0.571
16:18:03:944,24.624,-0.124,-0.030,0.079,-5.883,102.978,-0.281
16:18:04:029,24.709,-0.087,0.010,0.010,-6.083,104.013,-1.757
16:18:04:029,24.709,-0.098,0.012,0.062,-6.280,104.831,-3.443
16:18:04:029,24.710,-0.115,0.037,0.089,-6.410,105.203,-4.691
16:18:04:049,24.730,0.044,0.235,0.018,-6.496,105.885,-6.885
16:18:04:075,24.755,0.130,0.230,0.177,-6.337,106.798,-8.654
16:18:04:101,24.781,0.032,0.240,0.298,-5.779,107.828,-12.013
16:18:04:127,24.808,-0.061,0.249,0.461,-4.743,108.474,-16.338
16:18:04:153,24.834,0.040,0.516,0.665,-3.631,109.191,-19.966
16:18:04:265,24.946,0.430,0.347,1.623,-0.686,111.831,-26.368
16:18:04:266,24.946,0.411,0.250,1.512,1.127,113.325,-30.931
16:18:04:267,24.947,-0.055,0.482,0.789,2.270,113.505,-38.820
16:18:04:287,24.968,0.100,-0.019,0.835,3.525,114.027,-43.221
16:18:04:288,24.968,-0.022,-0.637,0.522,5.890,114.830,-47.769
16:18:04:311,24.992,-0.169,-0.745,0.286,8.463,115.980,-49.252
16:18:04:338,25.019,0.106,-1.200,0.505,10.414,117.462,-48.371
16:18:04:363,25.044,0.154,-0.981,0.144,10.658,118.348,-44.196
16:18:04:39,25.070,0.140,-0.713,0.175,8.903,117.737,-40.512
16:18:04:445,25.125,0.081,-0.627,0.270,5.639,115.628,-33.413
16:18:04:446,25.126,0.019,-0.390,0.299,2.860,112.986,-24.312
16:18:04:468,25.149,-0.074,-0.010,0.197,1.524,111.307,-17.184
16:18:04:494,25.175,-0.135,0.518,-0.025,0.092,108.969,-5.599
16:18:04:521,25.201,-0.282,0.818,-0.455,-0.711,107.370,2.323
16:18:04:547,25.227,-0.915,0.579,-1.261,-1.657,105.583,13.455
16:18:04:574,25.254,-0.498,0.240,-1.810,-2.812,105.427,20.113
16:18:04:6,25.280,-0.654,-0.492,-1.800,-4.731,104.550,27.017
16:18:04:626,25.306,-0.401,-0.542,-1.641,-5.003,102.394,27.854
16:18:04:652,25.332,-0.743,0.082,-0.306,-4.245,100.349,25.382
16:18:04:678,25.359,0.041,-0.434,-1.665,-3.188,97.968,21.372
16:18:04:707,25.387,-1.195,-0.211,-0.955,-2.549,96.587,17.694
16:18:04:733,25.413,-0.260,-0.116,-0.629,-3.696,93.560,12.781
16:18:04:76,25.440,-0.080,-0.176,-0.612,-3.664,92.062,10.155
16:18:04:812,25.493,-0.072,0.113,-0.266,-4.272,93.061,7.471
16:18:04:813,25.493,-0.118,0.046,0.083,-4.886,95.549,5.022
16:18:04:836,25.516,-0.158,0.000,-0.073,-5.286,95.770,3.889
16:18:04:862,25.542,-0.178,-0.002,-0.159,-5.584,95.693,2.641
16:18:04:888,25.569,-0.077,-0.009,-0.047,-5.570,96.268,1.883
16:18:04:914,25.595,-0.080,-0.012,0.048,-5.624,97.619,0.848
16:18:05:028,25.709,-0.103,-0.017,0.079,-5.669,98.659,-0.302
16:18:05:029,25.709,-0.102,0.004,0.062,-5.666,98.987,-1.242
16:18:05:03,25.710,-0.097,0.058,-0.032,-5.727,99.140,-2.911
16:18:05:03,25.711,-0.103,0.040,-0.018,-5.749,99.471,-4.219
16:18:05:046,25.726,0.029,0.192,0.060,-5.686,100.276,-6.349
16:18:05:072,25.752,0.035,0.164,0.154,-5.439,101.252,-8.800
16:18:05:098,25.779,-0.095,0.172,0.243,-5.143,101.796,-10.821
16:18:05:127,25.807,-0.148,0.231,0.349,-4.356,102.255,-14.535
16:18:05:182,25.862,-0.090,0.288,0.494,-3.449,102.841,-17.532
16:18:05:182,25.862,0.023,0.542,1.149,-1.263,104.188,-23.029
16:18:05:203,25.884,0.140,0.327,1.435,0.843,105.833,-27.255
16:18:05:229,25.910,-0.081,0.351,0.952,3.690,108.156,-33.907
16:18:05:256,25.936,-0.170,0.156,0.771,5.272,109.034,-41.348
16:18:05:282,25.962,0.051,-0.113,0.766,6.848,110.080,-44.958
16:18:05:311,25.991,-0.520,-0.293,-0.210,10.427,111.637,-48.583
16:18:05:337,26.017,0.199,-1.220,0.388,13.240,113.740,-49.069
16:18:05:363,26.043,0.341,-1.077,0.302,15.820,116.968,-47.004
16:18:05:418,26.099,0.245,-0.746,0.142,13.466,117.702,-42.919
16:18:05:418,26.099,0.153,-0.700,0.218,10.188,116.713,-39.565
16:18:05:439,26.120,0.146,-0.557,0.213,5.239,114.252,-32.753
16:18:05:466,26.146,-0.007,-0.319,0.241,2.616,112.274,-26.972
16:18:05:493,26.173,-0.056,0.121,0.107,0.319,109.656,-16.528
16:18:05:52,26.201,0.160,0.484,-0.054,-0.423,108.906,-9.094
16:18:05:574,26.254,-0.483,0.663,-0.699,-1.192,108.972,1.950
16:18:05:574,26.255,-0.572,0.941,-0.884,-2.416,109.014,8.900
16:18:05:598,26.279,-0.478,0.169,-1.341,-4.092,106.452,17.732
16:18:05:624,26.305,-0.644,-0.352,-1.735,-4.351,102.518,22.829
16:18:05:65,26.330,-0.516,-0.504,-1.551,-4.241,100.493,23.748
16:18:05:677,26.357,0.456,0.289,-0.322,-4.002,98.668,20.507
16:18:05:731,26.412,-0.743,-0.058,-1.028,-3.015,97.742,16.754
16:18:05:732,26.412,-0.795,0.258,-0.669,-3.339,95.729,13.198
16:18:05:754,26.435,-0.677,-0.421,-0.431,-4.088,92.366,9.037
16:18:05:781,26.461,-0.017,-0.169,-0.449,-4.528,90.548,7.230
16:18:05:807,26.487,0.036,0.217,-0.178,-4.847,90.955,5.226
16:18:05:833,26.514,-0.055,-0.044,0.069,-5.295,92.243,3.988
16:18:05:86,26.540,-0.130,-0.040,0.074,-6.170,93.002,2.584
16:18:05:886,26.566,-0.175,0.026,-0.118,-6.871,92.932,1.557
16:18:05:942,26.623,-0.028,-0.007,0.083,-7.228,96.155,-0.185
16:18:05:965,26.645,-0.099,-0.024,0.181,-7.420,97.334,-0.915
16:18:05:992,26.673,-0.097,0.008,0.032,-7.728,96.998,-2.043
16:18:06:017,26.697,-0.073,0.007,0.047,-7.966,97.797,-3.369
16:18:06:044,26.725,-0.095,0.001,0.130,-8.064,97.675,-4.424
16:18:06:07,26.750,-0.106,0.027,0.197,-8.174,98.693,-6.318
16:18:06:099,26.779,-0.101,0.115,0.100,-8.235,98.421,-7.884
16:18:06:1,26.780,-0.159,0.136,0.162,-8.231,99.584,-10.722
16:18:06:151,26.832,0.107,0.297,0.200,-8.073,99.813,-12.898
16:18:06:152,26.832,0.040,0.230,0.403,-7.442,101.344,-16.626
16:18:06:176,26.856,-0.086,0.286,0.505,-6.566,101.583,-21.105
16:18:06:23,26.910,-0.018,0.376,0.678,-5.634,102.140,-24.571
16:18:06:23,26.911,0.116,0.325,1.614,-2.278,104.277,-30.651
16:18:06:255,26.935,0.089,-0.022,1.610,0.854,106.686,-34.731
16:18:06:28,26.961,-0.256,0.400,0.928,3.070,108.434,-42.166
16:18:06:306,26.986,0.112,-0.120,0.857,4.239,109.157,-46.811
16:18:06:332,27.013,-0.121,-0.436,0.721,7.608,110.946,-51.272
16:18:06:359,27.039,-0.274,-0.647,0.192,12.107,113.191,-52.896
16:18:06:385,27.065,0.341,-1.213,0.298,14.596,115.350,-51.995
16:18:06:411,27.091,0.388,-1.139,0.196,14.069,116.812,-47.829
16:18:06:437,27.117,0.151,-0.791,0.180,10.660,116.307,-44.310
16:18:06:463,27.144,0.129,-0.670,0.348,4.638,114.217,-37.361
16:18:06:49,27.170,0.121,-0.277,0.282,-0.109,111.430,-28.004
16:18:06:517,27.198,0.093,0.053,0.051,-2.078,109.961,-20.641
16:18:06:572,27.253,0.219,0.627,-0.081,-3.638,109.439,-8.959
16:18:06:573,27.253,-0.068,0.922,-0.761,-4.499,109.462,-1.241
16:18:06:594,27.275,-0.317,0.578,-0.871,-5.565,111.415,9.318
16:18:06:623,27.303,-0.314,0.806,-1.510,-7.330,111.529,17.922
16:18:06:676,27.357,-0.682,-0.230,-2.020,-7.047,108.806,22.157
16:18:06:677,27.358,-0.677,-0.431,-1.788,-5.774,104.292,23.710
16:18:06:701,27.382,0.395,0.752,0.588,-4.947,102.639,21.697
16:18:06:784,27.464,-0.927,0.253,-1.042,-5.332,103.747,17.869
16:18:06:785,27.465,-0.156,0.067,-0.884,-5.903,103.927,14.291
16:18:06:785,27.466,-0.152,-0.394,-0.335,-6.546,103.629,10.036
16:18:06:805,27.485,-0.079,0.015,-0.200,-7.094,103.827,7.156
16:18:06:831,27.511,-0.116,0.141,-0.105,-7.560,103.883,5.558
16:18:06:857,27.538,-0.147,-0.046,-0.160,-8.326,103.956,3.531
16:18:06:913,27.593,-0.152,0.046,-0.047,-8.715,104.468,2.420
16:18:06:914,27.594,-0.114,0.039,0.064,-9.163,106.396,0.934
16:18:06:936,27.616,-0.086,-0.001,0.001,-9.283,107.598,-0.268
16:18:06:964,27.644,-0.095,0.003,0.008,-9.345,108.040,-0.862
16:18:06:989,27.669,-0.082,-0.033,0.092,-9.435,108.986,-1.838
16:18:07:044,27.724,-0.061,-0.024,0.086,-9.512,109.628,-2.622
16:18:07:044,27.725,-0.123,0.024,0.056,-9.673,110.510,-4.053
16:18:07:067,27.748,-0.090,0.064,0.029,-9.753,111.145,-5.152
16:18:07:093,27.774,-0.098,0.103,0.114,-9.808,112.491,-7.029
16:18:07:149,27.830,0.144,0.152,0.118,-9.769,113.634,-9.258
16:18:07:15,27.830,0.054,0.124,0.199,-9.627,114.686,-11.067
16:18:07:172,27.852,0.021,0.194,0.263,-9.245,115.450,-14.390
16:18:07:198,27.879,0.006,0.225,0.450,-8.697,116.294,-17.044
16:18:07:254,27.934,0.074,0.308,0.569,-7.266,118.045,-21.986
16:18:07:254,27.935,0.300,0.510,1.342,-4.895,120.953,-27.945
16:18:07:277,27.957,0.117,0.273,1.285,-2.753,123.832,-32.254
16:18:07:304,27.985,0.148,0.363,0.809,-0.581,127.371,-39.440
16:18:07:33,28.010,0.284,0.145,0.765,1.142,129.755,-43.407
16:18:07:358,28.038,0.105,-0.447,0.594,5.487,133.951,-47.312
16:18:07:384,28.064,-0.522,-0.522,-0.027,8.631,137.166,-48.223
16:18:07:41,28.091,0.565,-1.330,0.031,12.577,143.423,-46.830
16:18:07:435,28.115,0.928,-1.088,-0.132,10.597,147.174,-42.641
16:18:07:463,28.144,0.592,-0.643,-0.119,6.179,147.103,-39.617
16:18:07:487,28.167,0.397,-0.600,0.168,-1.062,144.792,-33.592
16:18:07:515,28.195,0.283,-0.133,-0.032,-4.768,142.910,-27.931
16:18:07:542,28.222,0.108,0.180,-0.285,-7.590,142.154,-17.796
16:18:07:595,28.275,0.191,0.288,-0.575,-8.070,146.212,-7.424
16:18:07:596,28.276,-0.217,0.276,-0.559,-8.590,150.905,-0.490
16:18:07:62,28.301,-0.082,0.500,-0.371,-11.942,157.388,8.921
16:18:07:674,28.354,-0.708,0.234,-0.946,-15.137,156.653,14.523
16:18:07:674,28.355,-1.588,0.009,-0.998,-15.653,149.874,22.183
16:18:07:698,28.378,-1.645,-0.706,-0.679,-14.519,146.057,24.855
16:18:07:753,28.433,-0.994,-0.142,-0.883,-12.927,143.228,23.677
16:18:07:753,28.433,-1.197,-0.042,-0.629,-11.823,142.204,20.323
16:18:07:776,28.457,0.031,0.376,-0.547,-11.626,141.035,17.335
16:18:07:802,28.483,-0.317,-0.257,-0.244,-11.513,140.598,13.691
16:18:07:858,28.538,-0.211,-0.199,-0.232,-11.659,141.196,11.759
16:18:07:885,28.565,-0.104,0.139,-0.081,-12.182,142.497,9.739
16:18:07:885,28.565,-0.165,-0.014,-0.033,-12.820,143.048,8.164
16:18:07:907,28.588,-0.185,0.003,-0.017,-13.129,143.538,7.202
16:18:07:934,28.614,-0.123,-0.001,-0.031,-13.445,144.910,5.785
16:18:07:96,28.640,-0.062,-0.007,-0.029,-13.598,145.810,4.985
16:18:07:986,28.666,-0.099,-0.033,0.001,-13.818,146.462,4.092
16:18:08:012,28.693,-0.143,-0.016,-0.040,-13.946,146.600,3.646
16:18:08:039,28.720,-0.121,0.005,-0.057,-14.252,147.220,2.889
16:18:08:126,28.806,0.005,0.015,0.046,-14.655,148.428,1.920
16:18:08:127,28.807,-0.049,0.021,0.003,-14.925,149.034,1.187
16:18:08:127,28.807,-0.021,0.076,0.013,-15.289,149.898,-0.198
16:18:08:128,28.808,-0.054,0.087,0.031,-15.505,151.639,-1.401
16:18:08:171,28.851,-0.067,0.099,0.076,-15.780,153.360,-3.751
16:18:08:196,28.877,0.166,0.239,-0.120,-15.852,156.603,-6.566
16:18:08:225,28.905,0.202,0.256,-0.100,-15.720,157.907,-8.557
16:18:08:226,28.906,0.245,0.226,-0.023,-15.293,160.330,-12.153
16:18:08:279,28.960,0.413,0.295,0.172,-14.671,161.559,-15.051
16:18:08:279,28.960,0.909,0.508,0.321,-12.946,164.310,-20.422
16:18:08:302,28.983,1.208,0.355,0.476,-11.339,166.925,-24.684
16:18:08:359,29.039,0.569,0.531,0.340,-10.004,170.341,-31.500
16:18:08:359,29.039,0.512,0.374,0.129,-10.605,172.418,-38.959
16:18:08:409,29.089,0.894,-0.134,0.325,-9.594,174.863,-42.911
16:18:08:409,29.090,0.203,-0.500,0.188,-6.422,178.591,-46.739
16:18:08:434,29.115,-0.001,-0.779,0.251,-3.896,-178.086,-47.946
16:18:08:46,29.140,0.609,-1.341,-0.362,-0.007,-172.860,-46.527
16:18:08:485,29.165,0.501,-0.959,-0.631,-0.101,-169.578,-41.770
16:18:08:511,29.191,0.374,-0.660,-0.523,-2.373,-169.395,-37.853
16:18:08:537,29.218,0.400,-0.406,-0.322,-6.251,-171.168,-30.360
16:18:08:564,29.244,0.265,-0.117,-0.334,-8.159,-172.930,-24.090
16:18:08:591,29.272,-0.045,0.300,-0.452,-9.382,-174.539,-13.374
16:18:08:616,29.297,-0.179,0.500,-0.582,-9.498,-174.146,-6.134
16:18:08:642,29.322,-0.797,0.552,-0.179,-9.602,-172.654,4.868
16:18:08:668,29.349,-1.204,0.657,0.178,-10.885,-170.652,14.988
16:18:08:695,29.375,-1.366,0.585,0.151,-12.042,-171.501,20.775
16:18:08:721,29.402,-2.300,-0.552,0.512,-11.164,-177.477,26.669
16:18:08:747,29.428,-1.152,-0.198,0.669,-9.614,179.485,26.807
16:18:08:773,29.454,-0.845,0.123,0.069,-9.705,179.366,22.433
16:18:08:8,29.481,-0.832,-0.127,-0.284,-10.294,-179.912,18.511
16:18:08:826,29.506,-0.637,0.005,0.183,-10.886,179.666,15.750
16:18:08:852,29.532,-0.221,-0.201,-0.121,-11.135,-179.935,12.446
16:18:08:879,29.559,-0.237,0.088,-0.005,-11.600,-179.734,10.985
16:18:08:934,29.614,-0.176,0.123,0.006,-12.429,-179.804,9.344
16:18:08:934,29.615,-0.259,-0.043,0.035,-12.758,-179.874,8.478
16:18:08:958,29.639,-0.129,0.019,-0.011,-13.240,-179.043,7.357
16:18:08:984,29.664,-0.082,0.028,-0.024,-13.642,-177.605,6.302
16:18:09:009,29.690,-0.071,-0.002,0.030,-13.874,-176.815,5.691
16:18:09:066,29.746,0.026,-0.024,0.021,-14.115,-175.401,4.558
16:18:09:066,29.746,0.009,-0.011,0.002,-14.243,-174.655,3.570
16:18:09:092,29.772,-0.077,0.023,-0.002,-14.438,-173.980,1.862
16:18:09:115,29.795,-0.134,0.017,-0.009,-14.606,-173.447,0.058
16:18:09:141,29.821,-0.134,0.058,-0.041,-14.726,-172.947,-1.124
16:18:09:168,29.849,-0.003,0.095,-0.045,-14.873,-171.916,-3.020
16:18:09:193,29.874,0.149,0.147,-0.126,-14.920,-171.082,-4.532
16:18:09:22,29.900,0.108,0.235,-0.151,-14.742,-169.893,-7.353
16:18:09:246,29.926,0.230,0.241,-0.061,-14.407,-169.163,-9.650
16:18:09:273,29.953,0.256,0.270,-0.087,-13.514,-168.006,-13.738
16:18:09:298,29.979,0.779,0.514,-0.142,-11.825,-165.570,-18.872
16:18:09:354,30.034,1.240,0.288,-0.287,-10.107,-163.347,-22.877
16:18:09:355,30.035,1.048,0.280,-0.266,-8.286,-160.627,-29.589
16:18:09:377,30.058,0.662,0.545,-0.109,-8.413,-160.155,-34.649
16:18:09:403,30.084,0.818,0.244,-0.145,-7.924,-159.111,-41.436
16:18:09:43,30.110,0.656,-0.454,-0.005,-5.926,-157.162,-45.942
16:18:09:456,30.137,-0.348,-0.311,0.469,-4.666,-156.531,-47.504
16:18:09:484,30.165,0.103,-0.854,0.121,-2.432,-154.498,-47.196
16:18:09:508,30.189,0.198,-1.128,-0.215,-1.485,-153.464,-45.164
16:18:09:535,30.215,0.159,-0.943,-0.253,-1.981,-153.020,-39.671
16:18:09:562,30.243,0.243,-0.611,-0.238,-3.930,-154.017,-32.643
16:18:09:589,30.269,0.331,-0.460,-0.302,-5.312,-155.071,-26.903
16:18:09:616,30.296,0.119,-0.045,-0.265,-7.031,-156.632,-16.814
16:18:09:641,30.322,-0.037,0.241,-0.227,-7.877,-157.344,-9.387
16:18:09:695,30.376,-0.945,0.827,0.109,-9.880,-158.878,9.917
16:18:09:719,30.400,-1.302,0.207,0.586,-11.763,-159.087,20.273
16:18:09:745,30.426,-1.874,-0.414,0.656,-12.573,-161.895,27.757
16:18:09:772,30.452,-1.845,-0.783,0.696,-12.047,-164.510,29.830
16:18:09:798,30.478,0.340,0.696,-0.175,-10.844,-166.953,27.753
16:18:09:882,30.562,-0.951,-0.419,0.695,-10.605,-166.528,24.775
16:18:09:882,30.563,-0.653,0.313,0.503,-10.981,-166.308,20.914
16:18:09:883,30.564,-0.538,-0.430,0.347,-11.336,-168.180,17.035
16:18:09:904,30.584,-0.325,-0.149,-0.015,-11.541,-168.834,15.151
16:18:09:957,30.638,-0.230,0.040,-0.052,-12.091,-168.844,13.318
16:18:09:958,30.639,-0.127,0.117,0.021,-12.671,-168.831,12.334
16:18:09:981,30.661,-0.222,-0.032,0.086,-13.432,-169.267,11.227
16:18:10:007,30.688,-0.069,0.025,0.026,-13.910,-168.833,10.567
16:18:10:062,30.743,-0.050,0.003,0.007,-14.486,-167.402,9.336
16:18:10:063,30.744,-0.039,0.004,0.043,-14.939,-165.990,7.993
16:18:10:088,30.769,-0.038,-0.016,0.023,-15.178,-165.020,6.921
16:18:10:112,30.793,-0.023,-0.014,-0.031,-15.383,-163.435,4.998
16:18:10:138,30.819,-0.010,0.044,-0.069,-15.515,-162.553,3.562
16:18:10:167,30.847,-0.128,0.037,0.016,-15.712,-161.795,1.414
16:18:10:191,30.872,-0.057,0.067,-0.017,-15.858,-160.849,-0.741
16:18:10:246,30.927,-0.006,0.092,-0.005,-15.900,-159.975,-2.273
16:18:10:247,30.928,0.009,0.123,-0.148,-15.887,-158.370,-4.971
16:18:10:271,30.952,0.019,0.231,-0.280,-15.734,-157.088,-7.111
16:18:10:328,31.008,0.238,0.197,-0.163,-15.204,-154.932,-10.726
16:18:10:329,31.009,0.331,0.286,-0.138,-14.624,-154.140,-13.521
16:18:10:329,31.010,0.506,0.573,-0.276,-13.395,-152.740,-18.611
16:18:10:379,31.059,1.412,0.388,-0.520,-11.016,-149.791,-24.875
16:18:10:379,31.059,1.167,0.189,-0.373,-9.319,-147.464,-29.311
16:18:10:401,31.082,0.467,0.411,-0.289,-9.218,-145.885,-36.860
16:18:10:427,31.108,0.567,0.090,-0.385,-8.734,-144.467,-41.320
16:18:10:511,31.191,0.360,-0.541,-0.194,-6.338,-141.719,-46.297
16:18:10:511,31.192,0.230,-0.802,0.190,-4.137,-139.579,-48.158
16:18:10:535,31.215,0.324,-1.322,-0.282,-0.562,-135.709,-48.456
16:18:10:536,31.216,0.037,-0.947,-0.399,-1.348,-133.772,-45.470
16:18:10:618,31.298,0.155,-0.782,-0.304,-3.806,-133.793,-42.411
16:18:10:618,31.298,0.147,-0.650,-0.325,-7.600,-134.485,-35.932
16:18:10:618,31.299,0.068,-0.354,-0.335,-9.636,-135.181,-30.343
16:18:10:668,31.349,-0.012,0.012,-0.503,-11.408,-135.627,-20.218
16:18:10:668,31.349,-0.460,0.562,-0.038,-12.569,-134.827,-8.945
16:18:10:69,31.370,-0.627,0.918,0.135,-13.479,-133.648,-1.391
16:18:10:716,31.396,-1.121,0.776,0.586,-15.958,-132.486,9.864
16:18:10:83,31.511,-1.634,0.321,1.294,-17.708,-133.077,16.761
16:18:10:831,31.511,-1.500,-0.588,1.223,-19.850,-135.579,24.033
16:18:10:831,31.512,-1.284,-0.647,1.043,-19.997,-137.555,24.978
16:18:10:832,31.513,0.902,0.678,-0.379,-19.230,-138.897,22.067
16:18:10:847,31.527,-1.241,0.661,0.855,-18.517,-139.830,19.725
16:18:10:873,31.554,-1.173,0.306,0.363,-18.410,-140.925,16.631
16:18:10:927,31.607,-0.295,-0.454,0.253,-18.504,-141.729,13.768
16:18:10:955,31.636,-0.389,-0.188,0.273,-18.918,-142.352,12.478
16:18:10:956,31.636,-0.189,0.052,0.062,-19.872,-141.715,11.576
16:18:11:007,31.688,-0.076,0.041,0.018,-20.834,-140.366,10.864
16:18:11:008,31.689,0.061,0.015,0.028,-21.465,-139.092,10.431
16:18:11:031,31.712,0.130,0.003,-0.007,-21.908,-137.110,9.417
16:18:11:057,31.738,0.011,0.003,-0.088,-21.970,-135.593,8.266
16:18:11:086,31.766,-0.022,0.002,-0.113,-21.902,-133.444,5.831
16:18:11:138,31.818,-0.056,0.050,-0.087,-21.717,-132.187,3.295
16:18:11:165,31.845,-0.098,0.050,-0.006,-21.608,-131.807,1.708
16:18:11:166,31.846,-0.124,0.007,0.018,-21.447,-130.794,-0.705
16:18:11:189,31.869,-0.076,0.010,-0.034,-21.337,-129.651,-2.410
16:18:11:244,31.924,-0.069,0.072,-0.079,-21.264,-128.051,-4.974
16:18:11:244,31.925,-0.159,0.047,-0.147,-21.280,-127.000,-6.736
16:18:11:267,31.948,-0.097,0.174,-0.242,-21.212,-125.323,-9.691
16:18:11:295,31.975,0.022,0.154,-0.271,-20.965,-123.737,-13.083
16:18:11:351,32.031,0.110,0.137,-0.307,-20.645,-122.695,-15.748
16:18:11:351,32.032,0.224,0.188,-0.431,-19.905,-120.597,-20.728
16:18:11:372,32.053,0.548,0.644,-1.055,-19.271,-118.803,-24.880
16:18:11:428,32.108,0.852,0.649,-1.326,-17.742,-114.482,-32.231
16:18:11:428,32.109,0.259,0.497,-0.553,-16.677,-110.323,-39.702
16:18:11:452,32.133,0.254,0.358,-0.637,-15.870,-107.405,-44.672
16:18:11:477,32.158,0.347,-0.238,-0.400,-11.832,-102.290,-50.239
16:18:11:504,32.184,0.022,-0.500,0.271,-8.307,-99.189,-52.740
16:18:11:53,32.210,-0.099,-1.254,-0.326,-1.551,-93.204,-53.560
16:18:11:585,32.266,-0.642,-1.326,-0.597,1.290,-89.496,-52.070
16:18:11:586,32.267,-0.652,-0.863,-0.407,-1.366,-86.763,-48.025
16:18:11:639,32.319,-0.359,-0.701,-0.457,-8.041,-87.432,-42.546
16:18:11:639,32.320,-0.293,-0.487,-0.399,-11.476,-88.809,-37.235
16:18:11:691,32.371,-0.302,-0.155,-0.158,-13.963,-90.472,-27.243
16:18:11:691,32.372,-0.493,0.077,-0.073,-14.327,-90.137,-20.127
16:18:11:715,32.395,-0.629,0.348,0.071,-13.933,-87.196,-9.833
16:18:11:74,32.420,-0.118,0.890,0.524,-14.595,-82.713,0.005
16:18:11:766,32.447,-0.262,0.758,0.724,-16.574,-81.542,6.482
16:18:11:792,32.473,0.039,0.024,2.095,-17.773,-87.044,15.733
16:18:11:82,32.500,0.399,-0.574,1.809,-17.165,-90.465,19.381
16:18:11:845,32.525,-0.093,-0.401,1.270,-16.967,-92.628,19.949
16:18:11:871,32.551,-0.316,0.258,-0.440,-16.627,-93.575,17.698
16:18:11:898,32.579,0.271,0.260,1.164,-16.128,-93.713,15.285
16:18:11:926,32.606,-0.375,0.300,0.304,-16.837,-94.750,11.452
16:18:11:951,32.631,-0.116,-0.267,0.408,-16.869,-96.068,9.816
16:18:11:977,32.657,-0.164,0.012,0.283,-17.363,-95.549,7.236
16:18:12:003,32.683,-0.136,0.090,0.002,-17.671,-93.588,5.550
16:18:12:029,32.709,-0.073,-0.016,-0.053,-18.083,-91.685,3.653
16:18:12:055,32.735,-0.071,0.059,0.026,-18.452,-91.280,2.400
16:18:12:081,32.761,-0.062,-0.017,0.075,-18.562,-90.951,1.595
16:18:12:108,32.788,-0.097,-0.047,-0.006,-18.638,-89.688,0.239
16:18:12:134,32.814,-0.057,-0.008,-0.131,-18.646,-88.487,-0.800
16:18:12:218,32.899,-0.054,0.006,-0.088,-18.645,-87.216,-2.500
16:18:12:219,32.900,-0.052,0.011,-0.047,-18.636,-86.432,-4.409
16:18:12:22,32.900,-0.077,0.010,-0.026,-18.628,-85.854,-5.796
16:18:12:241,32.921,-0.094,0.049,-0.057,-18.631,-84.966,-7.983
16:18:12:267,32.947,-0.110,0.118,-0.037,-18.626,-84.449,-9.465
16:18:12:292,32.972,-0.250,0.141,-0.127,-18.554,-83.364,-11.958
16:18:12:318,32.998,-0.302,0.191,-0.195,-18.334,-82.288,-13.931
16:18:12:343,33.024,-0.175,0.157,-0.383,-17.667,-80.759,-17.403
16:18:12:37,33.050,-0.089,0.212,-0.476,-16.599,-79.566,-21.623
16:18:12:396,33.077,-0.118,0.370,-0.648,-15.691,-78.932,-24.981
16:18:12:424,33.104,-0.196,0.304,-1.555,-13.375,-77.013,-31.183
16:18:12:449,33.130,-0.179,0.230,-1.241,-11.491,-75.238,-35.572
16:18:12:476,33.156,-0.106,0.370,-0.798,-10.633,-73.979,-42.882
16:18:12:502,33.182,-0.081,-0.229,-0.843,-9.453,-72.703,-49.540
16:18:12:527,33.208,0.095,-0.425,-0.589,-7.449,-71.575,-52.600
16:18:12:554,33.234,0.175,-0.460,0.097,-3.511,-69.640,-54.839
16:18:12:58,33.261,-0.200,-1.290,-0.397,-0.101,-67.676,-54.996
16:18:12:638,33.318,-0.308,-1.130,-0.290,2.253,-65.451,-52.105
16:18:12:639,33.319,-0.339,-0.761,-0.148,0.451,-65.314,-48.608
16:18:12:64,33.320,-0.240,-0.630,-0.259,-3.554,-66.351,-41.953
16:18:12:659,33.339,-0.190,-0.456,-0.355,-6.877,-68.080,-33.109
16:18:12:688,33.369,-0.220,-0.204,-0.314,-8.540,-69.411,-26.088
16:18:12:711,33.392,-0.338,0.287,-0.173,-10.239,-71.379,-14.645
16:18:12:737,33.418,-0.147,0.978,0.391,-11.156,-73.172,-6.719
16:18:12:793,33.473,0.388,0.974,1.061,-11.927,-75.842,4.920
16:18:12:793,33.474,0.399,0.479,1.317,-13.036,-77.304,15.107
16:18:12:847,33.527,0.361,0.153,1.770,-14.069,-79.656,20.109
16:18:12:847,33.527,0.378,-0.405,1.675,-14.576,-82.423,22.961
16:18:12:869,33.549,-0.696,0.636,-0.755,-14.564,-83.469,21.583
16:18:12:924,33.604,-1.217,0.256,-0.287,-14.024,-83.667,17.156
16:18:12:925,33.605,0.411,0.248,0.430,-13.240,-84.886,13.235
16:18:12:948,33.628,-0.058,0.138,0.842,-13.937,-87.010,10.771
16:18:12:974,33.654,-0.072,-0.147,0.586,-14.439,-90.730,7.946
16:18:13:,33.680,-0.197,-0.122,0.496,-14.742,-90.898,6.625
16:18:13:026,33.706,-0.144,0.066,0.000,-15.129,-88.894,4.407
16:18:13:053,33.733,-0.094,0.012,-0.079,-15.633,-88.239,3.418
16:18:13:08,33.761,-0.042,0.049,-0.020,-16.615,-88.594,2.515
16:18:13:105,33.785,0.015,0.032,0.153,-17.152,-88.429,1.581
16:18:13:131,33.812,-0.099,-0.017,0.031,-17.252,-86.658,0.493
16:18:13:159,33.840,-0.077,-0.025,-0.285,-17.266,-83.425,-1.427
16:18:13:186,33.867,-0.061,-0.023,-0.242,-17.269,-82.416,-2.596
16:18:13:21,33.890,-0.042,0.005,-0.057,-17.323,-82.009,-4.329
16:18:13:236,33.917,-0.136,0.023,-0.008,-17.355,-81.582,-5.662
16:18:13:263,33.943,-0.118,0.048,-0.101,-17.292,-80.646,-7.744
16:18:13:289,33.969,-0.095,0.085,-0.105,-17.192,-80.133,-9.801
16:18:13:315,33.995,-0.093,0.075,-0.122,-17.105,-79.738,-11.349
16:18:13:341,34.022,-0.260,0.231,-0.171,-16.832,-78.642,-14.183
16:18:13:37,34.050,-0.194,0.162,-0.340,-16.413,-77.785,-16.424
16:18:13:394,34.074,-0.140,0.185,-0.368,-15.602,-76.944,-20.244
16:18:13:42,34.100,-0.173,0.312,-0.497,-14.587,-76.608,-24.692
16:18:13:446,34.127,-0.282,0.499,-0.905,-13.406,-76.139,-28.136
16:18:13:473,34.154,-0.270,-0.059,-1.372,-10.008,-73.790,-33.857
16:18:13:528,34.208,-0.077,0.037,-1.082,-8.160,-72.458,-38.058
16:18:13:528,34.209,-0.012,0.304,-0.707,-7.859,-72.109,-44.958
16:18:13:552,34.232,-0.220,-0.166,-0.869,-7.131,-71.548,-48.836
16:18:13:579,34.259,0.042,-0.543,-0.689,-4.581,-70.455,-53.133
16:18:13:605,34.285,0.242,-0.401,-0.057,-0.687,-68.646,-54.987
16:18:13:63,34.311,-0.142,-1.165,-0.415,2.322,-66.978,-54.685
16:18:13:657,34.337,-0.128,-1.074,-0.207,3.906,-65.202,-51.619
16:18:13:711,34.392,-0.072,-0.795,-0.197,1.919,-65.340,-48.560
16:18:13:712,34.392,-0.128,-0.708,-0.282,-2.999,-67.115,-42.498
16:18:13:735,34.416,-0.120,-0.357,-0.361,-6.919,-69.564,-34.144
16:18:13:761,34.441,-0.126,-0.004,-0.382,-8.741,-71.283,-27.502
16:18:13:787,34.467,-0.257,0.354,-0.225,-10.760,-73.854,-16.793
16:18:13:814,34.494,-0.092,0.794,0.225,-11.743,-75.507,-9.398
16:18:13:841,34.522,0.221,0.979,0.682,-12.993,-77.024,1.769
16:18:13:867,34.548,0.017,0.549,1.353,-15.157,-77.952,12.117
16:18:13:921,34.602,0.116,0.087,2.023,-16.724,-78.734,17.524
16:18:13:922,34.603,0.376,-0.579,1.912,-17.625,-80.817,21.017
16:18:13:945,34.625,-0.520,0.290,0.928,-17.473,-82.299,20.203
16:18:13:971,34.651,0.550,0.161,1.138,-16.163,-83.231,15.506
16:18:13:998,34.678,0.632,0.112,0.799,-15.959,-84.134,12.819
16:18:14:024,34.704,0.527,-0.142,0.503,-16.602,-86.435,8.011
16:18:14:05,34.730,-0.205,-0.295,0.314,-16.669,-86.218,4.775
16:18:14:076,34.756,-0.228,0.034,0.147,-16.865,-84.762,2.967
16:18:14:131,34.812,-0.098,0.154,-0.070,-17.463,-83.592,0.906
16:18:14:132,34.813,0.021,-0.046,0.098,-17.889,-84.057,0.107
16:18:14:155,34.836,-0.032,0.030,0.139,-18.366,-84.349,-0.897
16:18:14:208,34.888,-0.104,0.008,-0.133,-18.465,-82.649,-2.356
16:18:14:238,34.918,-0.093,-0.014,-0.162,-18.526,-81.377,-3.313
16:18:14:238,34.918,-0.049,-0.019,-0.066,-18.614,-80.361,-4.664
16:18:14:26,34.940,-0.084,0.019,-0.083,-18.642,-79.805,-5.711
16:18:14:375,35.055,-0.086,0.013,-0.062,-18.674,-78.885,-7.525
16:18:14:375,35.055,-0.134,0.055,-0.027,-18.655,-78.273,-8.828
16:18:14:375,35.056,-0.115,0.073,-0.039,-18.609,-77.411,-10.801
16:18:14:376,35.056,-0.252,0.187,-0.204,-18.463,-76.283,-12.925
16:18:14:42,35.100,-0.334,0.158,-0.200,-18.153,-75.299,-14.635
16:18:14:421,35.101,-0.168,0.139,-0.334,-17.456,-74.069,-17.816
16:18:14:472,35.153,-0.203,0.179,-0.433,-16.808,-73.554,-20.298
16:18:14:473,35.154,-0.219,0.167,-0.567,-15.512,-72.959,-24.701
16:18:14:496,35.176,-0.253,0.267,-1.023,-13.639,-71.781,-30.250
16:18:14:523,35.203,-0.357,0.084,-1.483,-11.960,-70.351,-34.502
16:18:14:549,35.229,-0.224,0.391,-0.954,-10.770,-68.859,-41.525
16:18:14:575,35.255,-0.145,0.181,-0.885,-11.271,-68.608,-46.486
16:18:14:601,35.282,-0.363,-0.212,-0.920,-10.148,-67.300,-52.339
16:18:14:627,35.308,0.081,-0.540,-0.285,-7.627,-66.443,-54.964
16:18:14:653,35.334,0.185,-0.551,-0.086,-2.765,-64.187,-56.484
16:18:14:709,35.389,-0.182,-1.103,-0.305,2.471,-60.939,-54.464
16:18:14:71,35.390,-0.333,-1.150,-0.158,3.544,-59.194,-51.447
16:18:14:735,35.416,-0.499,-0.914,-0.227,0.807,-58.378,-45.541
16:18:14:761,35.441,-0.377,-0.617,-0.234,-2.042,-58.863,-40.572
16:18:14:787,35.467,-0.356,-0.376,-0.262,-5.880,-60.647,-31.695
16:18:14:812,35.492,-0.352,0.066,-0.180,-7.613,-62.067,-24.714
16:18:14:837,35.518,-0.448,0.552,-0.054,-9.288,-64.149,-13.565
16:18:14:864,35.544,0.098,0.737,0.537,-9.814,-66.687,-2.212
16:18:14:923,35.603,0.747,0.966,0.904,-9.939,-67.672,5.113
16:18:14:923,35.603,0.914,0.552,1.261,-11.182,-69.205,14.703
16:18:14:924,35.604,0.678,-0.181,1.940,-12.510,-71.473,19.374
16:18:14:969,35.650,0.693,-0.535,1.725,-12.853,-74.225,21.347
16:18:15:,35.680,-0.697,0.639,-0.415,-12.614,-75.712,17.440
16:18:15:,35.681,0.069,-0.260,0.655,-11.921,-76.234,14.888
16:18:15:022,35.703,-0.118,0.267,0.964,-12.117,-79.648,10.713
16:18:15:048,35.729,-0.174,0.304,0.697,-13.246,-81.438,7.901
16:18:15:103,35.783,0.021,-0.266,0.307,-13.850,-81.880,4.701
16:18:15:103,35.784,-0.152,0.094,0.000,-14.346,-79.802,2.024
16:18:15:156,35.836,-0.146,0.132,-0.060,-14.798,-79.109,0.694
16:18:15:156,35.837,-0.028,-0.023,0.097,-15.511,-79.544,-0.580
16:18:15:179,35.859,-0.044,0.023,0.111,-15.862,-79.606,-1.231
16:18:15:205,35.885,-0.086,0.011,0.020,-16.081,-78.392,-2.429
16:18:15:231,35.912,-0.053,-0.057,-0.146,-16.180,-77.124,-3.314
16:18:15:287,35.967,-0.057,-0.041,-0.136,-16.369,-75.603,-4.629
16:18:15:287,35.967,-0.130,0.032,-0.107,-16.594,-74.775,-6.054
16:18:15:339,36.020,-0.083,0.035,-0.027,-16.805,-74.506,-7.062
16:18:15:34,36.020,-0.113,0.044,-0.046,-16.970,-73.814,-8.794
16:18:15:363,36.043,-0.130,0.108,-0.142,-17.001,-73.190,-10.094
16:18:15:391,36.071,-0.126,0.090,-0.165,-16.940,-72.236,-12.406
16:18:15:417,36.097,-0.238,0.194,-0.295,-16.618,-71.887,-15.589
16:18:15:441,36.122,-0.274,0.286,-0.314,-16.205,-70.992,-18.091
16:18:15:468,36.148,-0.232,0.232,-0.520,-14.992,-70.788,-22.524
16:18:15:494,36.175,-0.234,0.418,-0.744,-13.877,-69.961,-26.067
16:18:15:522,36.202,-0.327,0.284,-1.577,-11.229,-67.914,-32.490
16:18:15:548,36.228,-0.097,0.269,-0.836,-9.100,-65.896,-36.953
16:18:15:573,36.254,-0.170,0.424,-0.626,-8.140,-63.900,-44.405
16:18:15:6,36.280,-0.172,-0.091,-0.737,-6.345,-61.730,-50.722
16:18:15:625,36.305,0.008,-0.705,-0.634,-3.496,-59.940,-53.745
16:18:15:651,36.331,0.248,-0.598,-0.072,1.743,-56.695,-55.826
16:18:15:678,36.358,-0.343,-1.200,-0.315,5.583,-53.721,-55.579
16:18:15:704,36.384,-0.488,-1.019,-0.151,7.567,-49.929,-52.545
16:18:15:732,36.413,-0.372,-0.791,-0.118,3.906,-48.442,-47.708
16:18:15:757,36.438,-0.416,-0.817,-0.305,0.297,-48.453,-43.619
16:18:15:784,36.464,-0.344,-0.630,-0.360,-4.818,-49.447,-35.525
16:18:15:81,36.491,-0.413,-0.151,-0.213,-7.640,-50.475,-28.878
16:18:15:837,36.517,-0.293,0.411,0.188,-10.603,-51.563,-17.558
16:18:15:862,36.542,-0.031,1.197,0.491,-11.982,-51.383,-9.903
16:18:15:889,36.569,0.422,0.897,0.989,-13.877,-49.506,1.318
16:18:15:916,36.597,0.742,0.814,1.968,-17.083,-48.742,10.600
16:18:15:941,36.621,0.792,-0.087,1.640,-18.583,-50.385,14.270
16:18:15:966,36.647,-0.886,0.173,0.727,-18.536,-54.369,15.175
16:18:15:992,36.673,0.508,-0.027,1.079,-17.661,-56.434,12.580
16:18:16:018,36.699,0.660,0.208,0.612,-16.860,-57.025,9.385
16:18:16:103,36.784,0.458,-0.413,0.149,-17.090,-58.846,5.406
16:18:16:104,36.784,0.113,-0.279,0.220,-17.167,-59.338,3.608
16:18:16:105,36.785,-0.187,0.071,0.157,-17.333,-58.113,1.435
16:18:16:124,36.804,-0.085,0.112,-0.054,-17.662,-57.312,0.197
16:18:16:15,36.830,0.042,0.015,0.009,-18.130,-56.756,-1.195
16:18:16:205,36.885,-0.069,0.024,0.002,-18.152,-55.863,-2.227
16:18:16:289,36.970,-0.139,-0.008,-0.081,-17.918,-53.797,-3.940
16:18:16:29,36.970,-0.104,-0.017,-0.091,-17.740,-52.399,-5.495
16:18:16:29,36.970,-0.090,-0.047,-0.077,-17.644,-51.825,-6.500
16:18:16:31,36.991,-0.098,-0.012,-0.060,-17.618,-51.206,-8.089
16:18:16:311,36.992,-0.112,0.016,-0.056,-17.633,-50.818,-9.266
16:18:16:363,37.043,-0.105,0.011,0.006,-17.658,-50.097,-11.149
16:18:16:364,37.044,-0.135,0.079,-0.010,-17.691,-49.236,-13.148
16:18:16:386,37.067,-0.203,0.097,-0.036,-17.688,-48.512,-14.610
16:18:16:442,37.123,-0.269,0.080,-0.148,-17.581,-47.252,-17.161
16:18:16:442,37.123,-0.210,0.166,-0.277,-17.414,-46.549,-19.205
16:18:16:466,37.146,-0.255,0.185,-0.330,-16.766,-45.374,-22.970
16:18:16:521,37.201,-0.389,0.326,-0.534,-16.019,-44.409,-26.051
16:18:16:521,37.202,-0.702,0.471,-0.919,-14.092,-41.996,-31.834
16:18:16:573,37.254,-0.767,0.204,-1.170,-10.919,-37.957,-38.553
16:18:16:573,37.254,-0.497,0.246,-0.706,-8.835,-34.610,-43.279
16:18:16:596,37.276,-0.468,0.079,-0.660,-5.355,-29.323,-50.043
16:18:16:625,37.305,-0.351,-0.350,-0.378,-1.471,-25.781,-53.184
16:18:16:65,37.330,-0.073,-0.743,-0.045,6.319,-19.779,-55.804
16:18:16:676,37.356,-0.749,-1.425,0.217,14.051,-12.166,-54.787
16:18:16:702,37.382,-0.893,-0.991,0.382,15.392,-7.875,-52.665
16:18:16:728,37.408,-0.727,-0.739,0.331,9.839,-5.049,-49.057
16:18:16:754,37.435,-0.578,-0.671,0.183,4.060,-4.912,-45.850
16:18:16:78,37.461,-0.600,-0.609,0.130,-3.598,-6.088,-38.925
16:18:16:806,37.486,-0.363,-0.019,0.252,-7.997,-7.060,-29.590
16:18:16:833,37.513,-0.362,0.216,0.358,-9.094,-6.686,-22.829
16:18:16:859,37.539,0.177,0.944,0.472,-10.005,-4.531,-12.597
16:18:16:885,37.565,0.425,0.764,0.551,-11.043,-2.778,-5.732
16:18:16:911,37.592,0.901,0.305,0.645,-13.574,-3.869,3.605
16:18:16:937,37.618,2.018,0.017,0.730,-14.191,-8.883,9.855
16:18:16:964,37.644,1.661,-0.068,0.085,-13.960,-11.381,10.840
16:18:16:99,37.671,-0.923,0.714,0.164,-13.199,-14.998,7.648
16:18:17:018,37.698,0.699,0.296,0.064,-13.342,-15.461,5.703
16:18:17:072,37.752,0.351,-0.146,-0.162,-13.325,-15.031,1.771
16:18:17:072,37.753,-0.025,-0.172,0.155,-13.262,-13.080,-1.080
16:18:17:095,37.776,-0.066,0.048,0.056,-13.421,-12.425,-2.420
16:18:17:121,37.802,0.034,0.080,-0.042,-13.943,-12.365,-3.893
16:18:17:149,37.829,0.102,0.025,-0.035,-14.207,-12.162,-4.736
16:18:17:174,37.855,-0.099,0.024,-0.036,-14.213,-10.555,-6.046
16:18:17:257,37.937,-0.105,0.025,-0.033,-14.091,-9.328,-6.831
16:18:17:257,37.938,-0.084,-0.010,-0.057,-13.914,-8.208,-7.702
16:18:17:284,37.965,-0.166,-0.043,-0.021,-13.676,-7.077,-8.529
16:18:17:285,37.966,-0.226,-0.047,-0.045,-13.565,-6.221,-9.300
16:18:17:286,37.966,-0.131,0.030,-0.074,-13.549,-5.410,-10.708
16:18:17:305,37.985,-0.083,0.014,-0.052,-13.511,-5.017,-11.770
16:18:17:36,38.041,-0.145,0.063,-0.033,-13.329,-4.110,-13.479
16:18:17:361,38.042,-0.187,0.124,-0.027,-13.056,-2.951,-15.425
16:18:17:415,38.095,-0.365,0.122,0.133,-12.789,-2.030,-16.912
16:18:17:415,38.096,-0.461,0.118,0.012,-12.140,-1.730,-19.626
16:18:17:466,38.146,-0.497,0.149,-0.087,-11.633,-1.381,-21.942
16:18:17:466,38.147,-0.578,0.180,-0.164,-10.686,-2.150,-26.321
16:18:17:489,38.169,-1.025,0.657,-0.160,-9.731,-1.680,-29.944
16:18:17:516,38.196,-1.450,0.329,-0.465,-6.715,0.619,-36.177
16:18:17:541,38.221,-0.697,0.191,-0.352,-1.858,4.315,-42.546
16:18:17:569,38.250,-0.628,0.280,-0.369,-0.009,6.087,-47.287
16:18:17:594,38.275,-0.864,-0.271,-0.159,3.170,8.679,-52.995
16:18:17:62,38.300,-0.101,-0.471,-0.184,6.309,10.352,-55.452
16:18:17:675,38.356,-0.282,-1.203,-0.014,14.254,14.469,-56.048
16:18:17:676,38.356,-0.343,-1.089,0.440,19.962,19.129,-53.211
16:18:17:698,38.379,-0.273,-0.850,0.383,18.926,20.475,-50.735
16:18:17:725,38.405,-0.371,-0.849,0.027,12.772,20.021,-46.281
16:18:17:751,38.432,-0.454,-0.802,0.023,7.473,18.714,-42.313
16:18:17:779,38.460,-0.619,-0.346,0.133,-0.371,15.147,-34.424
16:18:17:833,38.513,-0.354,0.171,-0.070,-4.145,12.174,-27.919
16:18:17:834,38.514,0.042,1.012,-0.084,-6.172,9.778,-17.687
16:18:17:856,38.537,0.588,0.885,-0.119,-6.687,12.337,-6.714
16:18:17:882,38.563,0.573,0.559,-0.061,-8.058,14.147,-0.069
16:18:17:911,38.591,1.593,0.638,0.113,-10.503,13.665,7.827
16:18:17:965,38.645,1.424,-0.043,-0.146,-11.252,11.682,10.993
16:18:17:965,38.646,1.598,-0.232,-0.150,-10.980,6.088,12.123
16:18:17:988,38.668,-1.140,0.460,0.952,-10.523,0.777,8.993
16:18:18:014,38.694,1.746,0.025,0.004,-10.026,-0.250,7.956
16:18:18:041,38.722,-0.076,0.386,0.644,-10.575,-0.399,3.800
16:18:18:066,38.747,0.187,-0.289,-0.408,-10.790,-1.351,1.810
16:18:18:095,38.775,0.314,-0.070,0.040,-11.397,-2.196,-0.569
16:18:18:12,38.800,-0.054,0.114,0.035,-11.648,-1.163,-1.831
16:18:18:148,38.828,-0.170,-0.030,-0.041,-12.080,0.161,-3.504
16:18:18:172,38.852,-0.133,0.061,-0.071,-12.704,0.695,-4.700
16:18:18:199,38.880,-0.119,0.012,-0.103,-12.867,1.268,-5.536
16:18:18:225,38.905,-0.208,-0.040,-0.060,-12.835,2.840,-7.025
16:18:18:281,38.961,-0.270,-0.024,-0.074,-12.751,3.895,-8.192
16:18:18:281,38.961,-0.237,-0.009,-0.032,-12.533,4.968,-10.076
16:18:18:332,39.013,-0.184,-0.006,-0.022,-12.328,5.772,-12.171
16:18:18:333,39.013,-0.121,0.034,-0.013,-12.202,6.392,-13.617
16:18:18:355,39.035,-0.208,0.037,-0.033,-11.939,7.465,-15.791
16:18:18:382,39.063,-0.228,0.066,-0.031,-11.778,8.102,-17.232
16:18:18:407,39.088,-0.347,0.158,0.183,-11.460,9.251,-19.594
16:18:18:464,39.144,-0.470,0.092,0.066,-11.097,10.905,-21.464
16:18:18:464,39.144,-0.475,0.174,0.025,-10.520,11.686,-24.941
16:18:18:487,39.167,-0.607,0.176,0.020,-9.414,13.161,-29.256
16:18:18:516,39.196,-0.956,0.290,0.036,-7.906,14.039,-32.707
16:18:18:539,39.219,-1.772,-0.011,0.229,-4.075,16.337,-38.683
16:18:18:565,39.245,-1.560,-0.052,0.227,-1.408,18.224,-42.931
16:18:18:593,39.274,-0.997,0.289,-0.008,0.789,20.120,-50.252
16:18:18:619,39.300,-1.045,-0.304,0.189,4.973,22.285,-56.129
16:18:18:646,39.326,-0.592,-0.768,0.050,9.409,23.566,-58.699
16:18:18:671,39.352,-0.154,-0.739,-0.169,16.339,26.017,-60.291
16:18:18:725,39.406,-0.145,-0.910,-0.068,19.350,27.858,-59.677
16:18:18:726,39.407,-0.191,-1.158,0.401,19.229,30.369,-56.260
16:18:18:75,39.430,-0.162,-0.877,0.286,16.233,30.906,-52.885
16:18:18:775,39.456,-0.258,-0.768,0.240,9.776,30.275,-46.809
16:18:18:801,39.481,-0.344,-0.534,0.143,3.416,28.299,-38.795
16:18:18:828,39.508,-0.366,-0.247,0.168,0.457,26.850,-32.255
16:18:18:854,39.534,-0.518,0.321,0.410,-1.881,26.030,-21.100
16:18:18:881,39.561,-0.043,0.707,0.086,-2.965,25.693,-13.294
16:18:18:964,39.645,0.710,1.302,-0.409,-4.446,25.462,-1.991
16:18:18:965,39.646,0.842,0.297,-0.541,-5.636,25.553,8.503
16:18:18:966,39.646,1.937,0.145,-0.721,-6.897,23.726,13.184
16:18:18:985,39.665,1.678,-0.251,-0.510,-7.003,20.119,15.097
16:18:19:011,39.692,-1.192,0.842,0.906,-6.407,17.985,12.832
16:18:19:038,39.718,0.195,0.644,-0.896,-6.246,17.721,8.871
16:18:19:064,39.744,0.556,-0.095,-0.694,-6.901,16.477,5.320
16:18:19:119,39.800,0.084,-0.222,-0.065,-7.288,15.863,1.401
16:18:19:12,39.800,-0.025,0.006,0.085,-7.553,16.693,-0.669
16:18:19:143,39.823,-0.145,0.196,0.027,-7.958,16.853,-1.625
16:18:19:17,39.851,-0.029,-0.025,-0.151,-8.962,15.958,-2.824
16:18:19:196,39.876,-0.002,-0.006,-0.159,-9.572,15.694,-3.416
16:18:19:221,39.902,-0.136,0.022,-0.035,-9.917,17.465,-4.596
16:18:19:248,39.928,-0.318,-0.026,0.017,-9.856,20.393,-5.936
16:18:19:274,39.954,-0.282,-0.019,0.016,-9.839,21.724,-6.847
16:18:19:302,39.983,-0.233,-0.043,-0.030,-9.777,22.884,-8.447
16:18:19:326,40.007,-0.186,0.028,-0.019,-9.731,23.518,-9.681
16:18:19:354,40.035,-0.143,0.000,-0.041,-9.658,24.413,-11.715
16:18:19:38,40.061,-0.066,0.028,-0.028,-9.621,25.053,-13.031
16:18:19:406,40.086,-0.153,0.060,0.017,-9.540,26.063,-14.806
16:18:19:432,40.112,-0.287,0.025,-0.030,-9.411,27.242,-16.647
16:18:19:487,40.167,-0.290,0.139,0.068,-9.284,28.109,-18.133
16:18:19:488,40.168,-0.345,0.192,0.181,-8.749,29.925,-20.870
16:18:19:515,40.195,-0.512,0.185,0.190,-8.202,30.759,-23.062
16:18:19:515,40.195,-0.640,0.298,0.155,-6.823,32.134,-27.310
16:18:19:536,40.217,-1.365,0.398,0.520,-3.964,34.383,-32.668
16:18:19:565,40.245,-1.545,0.006,0.564,-0.613,37.284,-36.554
16:18:19:59,40.270,-0.731,0.341,0.202,2.844,40.366,-43.314
16:18:19:615,40.295,-0.657,0.188,0.230,5.173,41.896,-47.732
16:18:19:641,40.322,-0.737,-0.436,0.288,10.400,44.575,-52.277
16:18:19:695,40.375,-0.438,-0.677,-0.029,13.645,46.138,-54.139
16:18:19:754,40.434,-0.193,-0.780,-0.179,17.484,48.761,-54.905
16:18:19:754,40.434,-0.020,-0.977,0.440,14.429,51.718,-49.672
16:18:19:774,40.454,-0.101,-0.683,0.343,8.449,50.978,-44.220
16:18:19:799,40.479,-0.312,-0.645,0.367,4.551,49.955,-39.522
16:18:19:825,40.505,-0.161,-0.186,0.310,0.126,48.620,-30.587
16:18:19:851,40.532,-0.098,0.246,0.288,-2.156,48.260,-20.405
16:18:19:878,40.558,0.328,0.494,-0.173,-2.877,48.925,-13.320
16:18:19:904,40.585,0.295,0.878,-0.353,-4.251,51.826,-2.320
16:18:19:931,40.612,0.660,0.336,-0.612,-5.805,53.370,4.595
16:18:19:956,40.637,1.235,0.341,-1.227,-7.728,53.230,13.025
16:18:19:982,40.663,1.301,-0.219,-1.303,-8.235,52.315,16.017
16:18:20:038,40.718,0.912,-0.251,-1.072,-7.931,50.597,16.584
16:18:20:038,40.719,-0.689,0.956,1.277,-7.332,48.357,13.235
16:18:20:063,40.743,0.705,0.032,-1.194,-7.143,48.633,12.416
16:18:20:119,40.799,0.308,0.309,-0.159,-7.383,49.269,8.490
16:18:20:119,40.799,-0.053,-0.232,-0.272,-7.474,49.499,6.497
16:18:20:14,40.821,0.052,-0.091,-0.174,-7.893,49.505,4.252
16:18:20:196,40.877,-0.039,0.078,-0.097,-8.179,49.548,3.264
16:18:20:196,40.877,0.022,0.035,-0.145,-8.622,49.471,2.247
16:18:20:219,40.899,-0.066,0.062,-0.044,-9.224,50.037,1.636
16:18:20:246,40.926,-0.095,0.027,-0.099,-9.668,50.440,1.366
16:18:20:273,40.954,-0.195,-0.060,-0.082,-10.134,51.523,1.031
16:18:20:327,41.007,-0.305,-0.056,-0.009,-10.310,52.786,0.619
16:18:20:327,41.008,-0.290,-0.020,0.066,-10.293,54.780,-0.537
16:18:20:352,41.032,-0.158,0.047,0.080,-10.094,56.173,-2.248
16:18:20:405,41.086,-0.155,-0.008,0.073,-9.900,56.892,-3.629
16:18:20:406,41.086,-0.113,0.019,-0.039,-9.702,57.709,-5.843
16:18:20:429,41.109,-0.115,0.071,-0.020,-9.577,58.382,-7.413
16:18:20:455,41.136,-0.213,0.040,-0.006,-9.374,60.078,-9.925
16:18:20:54,41.220,-0.079,0.091,0.211,-9.276,62.828,-11.772
16:18:20:54,41.221,-0.069,0.253,0.256,-8.948,64.417,-14.822
16:18:20:541,41.222,-0.257,0.223,0.313,-8.581,66.677,-18.515
16:18:20:56,41.240,-0.362,0.428,0.343,-8.225,67.315,-21.497
16:18:20:617,41.297,-0.595,0.541,0.710,-6.631,69.579,-26.897
16:18:20:617,41.297,-0.966,0.210,1.184,-4.226,72.631,-30.872
16:18:20:639,41.319,-0.498,0.343,0.455,-0.294,77.953,-36.963
16:18:20:665,41.346,-0.334,0.214,0.638,3.017,82.604,-43.453
16:18:20:749,41.430,-0.361,-0.133,0.789,6.478,85.947,-46.551
16:18:20:75,41.431,0.011,-0.789,0.314,11.919,90.402,-49.604
16:18:20:751,41.431,0.263,-0.972,0.127,14.622,93.721,-50.003
16:18:20:801,41.481,0.473,-1.190,0.429,16.814,97.985,-48.247
16:18:20:801,41.481,0.568,-0.901,0.457,13.186,100.009,-44.006
16:18:20:823,41.503,0.307,-0.578,0.298,8.757,98.613,-40.780
16:18:20:907,41.587,0.122,-0.495,0.374,2.674,94.950,-34.507
16:18:20:908,41.588,0.025,-0.333,0.302,0.126,92.621,-28.817
16:18:20:908,41.589,0.349,0.190,0.218,-1.239,91.341,-18.861
16:18:20:928,41.609,0.124,0.379,-0.109,-1.188,92.049,-11.880
16:18:20:954,41.634,-0.304,0.939,-0.409,-1.067,95.253,-0.959
16:18:20:981,41.661,-0.065,0.471,-0.869,-2.908,97.654,9.743
16:18:21:035,41.716,-0.346,0.159,-1.459,-4.024,96.110,15.451
16:18:21:036,41.717,-0.115,-0.496,-2.165,-3.452,91.223,20.720
16:18:21:06,41.741,-0.236,0.086,-0.932,-3.064,88.876,21.637
16:18:21:086,41.766,0.508,0.817,0.336,-2.650,86.874,18.411
16:18:21:112,41.792,-0.643,-0.216,-0.664,-2.884,86.729,15.478
16:18:21:138,41.818,-0.122,-0.061,-0.415,-3.520,86.186,13.258
16:18:21:164,41.844,-0.044,-0.051,-0.330,-4.059,85.759,10.702
16:18:21:19,41.870,-0.049,-0.020,-0.262,-4.474,86.091,9.601
16:18:21:216,41.897,-0.165,0.026,-0.028,-5.300,87.423,8.272
16:18:21:243,41.923,-0.186,0.000,-0.063,-5.799,87.951,7.485
16:18:21:27,41.950,-0.215,0.030,-0.035,-6.482,89.118,6.337
16:18:21:295,41.976,-0.126,-0.009,0.059,-6.789,91.141,4.969
16:18:21:35,42.031,-0.138,-0.005,0.056,-6.875,92.282,3.988
16:18:21:351,42.031,-0.153,-0.011,0.019,-6.901,93.498,2.388
16:18:21:374,42.054,-0.140,0.008,-0.007,-6.845,94.245,1.221
16:18:21:4,42.081,-0.135,0.020,0.036,-6.744,95.487,-0.677
16:18:21:426,42.107,-0.115,0.013,0.023,-6.636,96.555,-2.645
16:18:21:482,42.162,-0.115,0.063,0.041,-6.592,97.177,-4.043
16:18:21:483,42.163,-0.094,0.061,0.056,-6.577,98.273,-6.396
16:18:21:505,42.186,0.058,0.201,0.173,-6.486,99.067,-8.234
16:18:21:532,42.213,0.016,0.282,0.198,-6.149,99.914,-11.337
16:18:21:59,42.270,-0.159,0.177,0.338,-5.699,100.348,-13.745
16:18:21:591,42.271,-0.178,0.204,0.398,-4.487,101.088,-18.055
16:18:21:591,42.272,-0.042,0.514,0.984,-2.148,103.195,-23.345
16:18:21:639,42.320,0.098,0.281,1.613,0.349,105.791,-27.088
16:18:21:64,42.320,-0.236,0.449,0.616,3.086,108.365,-33.542
16:18:21:663,42.343,-0.086,0.429,0.714,3.836,108.985,-38.477
16:18:21:718,42.398,0.001,-0.251,0.992,6.893,111.117,-43.822
16:18:21:718,42.399,-0.263,-0.499,0.133,10.651,112.731,-47.054
16:18:21:771,42.451,-0.405,-0.446,-0.150,12.708,114.133,-47.856
16:18:21:771,42.452,0.002,-1.086,0.278,14.831,116.596,-45.936
16:18:21:824,42.504,0.262,-1.037,0.184,14.319,117.575,-43.039
16:18:21:824,42.504,0.178,-0.688,0.184,11.063,116.729,-37.489
16:18:21:846,42.527,0.030,-0.538,0.254,8.390,115.245,-33.024
16:18:21:873,42.553,0.026,-0.410,0.254,5.030,112.663,-24.569
16:18:21:899,42.580,-0.084,0.033,0.183,2.695,110.336,-14.440
16:18:21:926,42.606,0.012,0.418,0.201,1.552,109.048,-7.208
16:18:21:952,42.632,-0.480,0.768,-0.531,0.325,107.138,4.064
16:18:21:978,42.658,-0.758,0.969,-0.912,-0.645,106.171,11.265
16:18:22:005,42.685,-0.527,0.203,-1.518,-1.745,103.470,20.946
16:18:22:03,42.711,-0.652,-0.585,-1.730,-1.317,98.770,26.349
16:18:22:056,42.737,-0.444,-0.882,-1.880,-0.914,96.563,27.122
16:18:22:082,42.763,0.630,1.412,1.387,-0.092,93.968,23.171
16:18:22:112,42.792,-0.534,0.531,-0.534,0.188,94.106,21.000
16:18:22:135,42.816,0.302,0.555,-0.906,-0.500,92.544,15.592
16:18:22:161,42.842,-0.268,-0.394,-0.244,-0.779,91.317,12.585
16:18:22:188,42.868,-0.040,-0.241,-0.452,-1.264,90.187,9.494
16:18:22:216,42.896,-0.144,0.184,-0.163,-2.048,90.836,7.439
16:18:22:241,42.922,-0.134,0.070,-0.087,-2.600,91.487,6.270
16:18:22:267,42.947,-0.168,0.008,-0.069,-3.412,92.603,4.947
16:18:22:295,42.975,-0.169,0.001,-0.028,-3.777,93.636,4.130
16:18:22:32,43.000,-0.108,-0.032,0.037,-4.281,95.459,2.856
16:18:22:346,43.026,-0.166,0.005,0.059,-4.530,96.956,1.697
16:18:22:371,43.052,-0.184,-0.017,0.058,-4.626,97.649,0.836
16:18:22:398,43.078,-0.148,0.020,0.000,-4.731,98.537,-0.624
16:18:22:424,43.104,-0.135,0.033,0.007,-4.793,99.177,-1.688
16:18:22:45,43.130,-0.132,0.009,0.025,-4.839,100.076,-3.391
16:18:22:476,43.157,-0.143,0.045,0.081,-5.270,100.596,-4.495
16:18:22:503,43.183,0.028,0.162,0.146,-5.251,100.840,-6.591
16:18:22:529,43.209,0.022,0.192,0.153,-5.045,101.484,-9.219
16:18:22:555,43.236,-0.058,0.226,0.244,-4.764,102.034,-11.417
16:18:22:582,43.262,-0.166,0.213,0.373,-4.020,102.422,-15.262
16:18:22:61,43.290,-0.078,0.400,0.550,-3.351,102.708,-18.273
16:18:22:634,43.314,0.026,0.457,1.258,-1.628,103.795,-23.671
16:18:22:662,43.342,0.211,0.206,1.518,1.392,106.556,-29.707
16:18:22:687,43.367,-0.138,0.463,0.929,2.966,107.859,-34.282
16:18:22:714,43.394,-0.092,0.160,0.834,4.593,108.741,-41.605
16:18:22:74,43.421,0.171,-0.149,0.821,6.660,109.982,-45.225
16:18:22:765,43.446,-0.321,-0.298,-0.048,10.450,111.252,-48.961
16:18:22:793,43.473,-0.160,-0.841,0.144,12.780,112.389,-49.719
16:18:22:846,43.527,0.276,-1.095,0.235,14.609,114.028,-47.926
16:18:22:847,43.528,0.159,-0.892,0.192,12.648,113.565,-43.420
16:18:22:872,43.552,0.050,-0.749,0.219,10.010,112.367,-39.544
16:18:22:898,43.578,-0.019,-0.539,0.242,5.889,109.700,-32.231
16:18:22:923,43.604,0.012,-0.257,0.284,3.912,107.840,-26.064
16:18:22:949,43.630,-0.136,0.073,0.136,2.216,106.068,-15.119
16:18:22:976,43.656,-0.124,0.754,0.003,1.022,105.345,-3.180
16:18:23:002,43.683,-0.517,1.000,-0.824,0.242,104.631,4.648
16:18:23:028,43.709,-0.553,0.523,-1.168,-1.231,103.838,15.087
16:18:23:054,43.734,-0.791,-0.121,-2.219,-1.696,100.773,19.924
16:18:23:08,43.761,-0.501,-0.504,-1.806,-0.995,95.667,22.348
16:18:23:106,43.787,-0.374,0.284,-0.446,-0.214,92.468,20.839
16:18:23:134,43.815,-0.418,0.237,-1.442,0.284,90.914,15.995
16:18:23:16,43.840,0.347,0.084,-0.871,-0.689,89.588,10.373
16:18:23:186,43.867,-0.482,-0.243,-0.618,-1.156,88.978,7.030
16:18:23:213,43.893,0.028,-0.202,-0.234,-1.762,88.939,4.029
16:18:23:239,43.919,-0.102,0.232,-0.154,-2.516,89.278,2.431
16:18:23:265,43.946,-0.150,0.154,0.000,-3.571,89.581,0.403
16:18:23:293,43.973,-0.154,-0.063,-0.116,-4.007,89.724,-0.595
16:18:23:317,43.997,-0.154,0.015,0.057,-4.424,90.972,-1.902
16:18:23:343,44.024,-0.088,0.003,0.062,-4.663,91.989,-3.001
16:18:23:37,44.051,-0.145,-0.034,0.033,-4.901,92.178,-3.615
16:18:23:453,44.134,-0.139,-0.013,0.069,-5.227,92.776,-4.637
16:18:23:454,44.135,-0.090,0.015,0.079,-5.431,93.345,-5.463
16:18:23:455,44.135,-0.106,0.001,0.089,-5.725,94.258,-6.894
16:18:23:476,44.157,-0.129,0.009,0.082,-6.004,94.986,-8.497
16:18:23:502,44.182,-0.120,0.021,0.055,-6.171,95.494,-9.643
16:18:23:527,44.207,-0.204,0.132,0.188,-6.301,96.565,-11.591
16:18:23:553,44.233,0.032,0.225,0.207,-6.320,97.273,-13.078
16:18:23:579,44.259,-0.034,0.137,0.352,-5.959,98.773,-15.856
16:18:23:605,44.286,-0.080,0.227,0.417,-5.629,99.403,-18.146
16:18:23:633,44.314,-0.123,0.211,0.531,-4.768,100.220,-22.272
16:18:23:659,44.339,-0.058,0.410,0.918,-3.317,101.245,-27.352
16:18:23:684,44.364,-0.019,0.246,1.646,-1.460,102.734,-31.264
16:18:23:71,44.391,-0.025,0.138,1.301,2.515,106.379,-37.341
16:18:23:737,44.417,-0.170,0.331,0.981,4.423,108.104,-42.288
16:18:23:763,44.443,0.028,0.032,1.099,7.727,110.092,-48.866
16:18:23:79,44.471,-0.044,-0.413,0.520,13.256,112.103,-52.828
16:18:23:846,44.526,-0.322,-0.450,0.100,17.133,113.707,-53.944
16:18:23:846,44.526,0.264,-1.092,0.282,20.221,116.188,-52.681
16:18:23:871,44.551,0.282,-0.988,0.166,19.482,117.272,-50.007
16:18:23:871,44.551,0.214,-0.710,0.233,14.295,116.840,-44.769
16:18:23:897,44.577,0.097,-0.513,0.342,8.257,115.150,-37.940
16:18:23:922,44.602,0.138,-0.273,0.285,5.014,113.933,-32.205
16:18:23:947,44.628,0.118,0.171,-0.099,2.037,113.265,-22.388
16:18:23:974,44.655,0.251,0.272,-0.146,1.018,114.127,-15.660
16:18:23:999,44.680,0.035,0.311,-0.432,-0.604,115.394,-5.630
16:18:24:025,44.706,-0.304,0.369,-0.682,-1.849,115.604,0.627
16:18:24:081,44.761,-0.440,0.480,-1.034,-3.377,113.977,9.746
16:18:24:081,44.762,-0.468,0.054,-1.673,-2.749,108.460,16.916
16:18:24:133,44.813,-0.720,-0.158,-1.634,-1.548,104.990,19.739
16:18:24:134,44.814,-0.765,-0.296,-1.078,0.013,101.993,20.617
16:18:24:157,44.838,0.098,1.002,1.455,0.598,99.752,19.182
16:18:24:182,44.863,-1.015,-0.284,-1.632,0.398,98.695,17.012
16:18:24:297,44.978,-0.211,0.210,-0.390,-0.698,98.677,12.236
16:18:24:297,44.978,-0.430,-0.296,-0.569,-1.222,98.204,9.912
16:18:24:297,44.978,-0.093,-0.086,-0.316,-2.195,98.394,6.172
16:18:24:316,44.997,-0.142,0.059,-0.069,-2.783,99.137,4.453
16:18:24:317,44.998,-0.108,0.068,0.049,-3.470,100.125,2.287
16:18:24:341,45.021,-0.138,0.032,-0.028,-3.891,100.241,1.131
16:18:24:367,45.047,-0.166,-0.008,-0.041,-4.505,100.116,-0.327
16:18:24:422,45.102,-0.098,0.004,-0.072,-4.852,99.273,-1.572
16:18:24:422,45.103,-0.097,-0.002,0.075,-4.966,100.105,-2.280
16:18:24:503,45.184,-0.137,-0.004,0.147,-5.141,100.601,-3.326
16:18:24:504,45.185,-0.107,-0.020,0.103,-5.271,101.269,-4.146
16:18:24:505,45.185,-0.157,-0.017,0.148,-5.481,101.358,-5.664
16:18:24:553,45.234,-0.135,0.059,0.067,-5.696,102.197,-7.480
16:18:24:554,45.234,-0.171,0.076,0.076,-5.793,101.883,-8.781
16:18:24:577,45.257,0.071,0.242,0.139,-5.798,102.958,-10.848
16:18:24:633,45.313,-0.035,0.122,0.306,-5.597,103.255,-12.463
16:18:24:633,45.314,-0.067,0.183,0.304,-5.113,104.493,-15.570
16:18:24:655,45.335,-0.112,0.207,0.435,-4.680,104.349,-18.094
16:18:24:684,45.364,-0.004,0.338,0.577,-3.600,105.043,-22.528
16:18:24:709,45.389,0.067,0.417,1.327,-1.386,106.374,-27.895
16:18:24:736,45.416,0.097,0.106,1.509,1.186,108.405,-31.758
16:18:24:79,45.470,-0.123,0.379,0.936,3.783,110.790,-38.614
16:18:24:79,45.471,-0.110,0.209,0.686,4.885,111.790,-43.056
16:18:24:815,45.495,-0.210,-0.200,0.665,8.419,114.339,-47.851
16:18:24:842,45.522,-0.260,-0.546,0.006,13.211,117.726,-49.870
16:18:24:865,45.546,-0.013,-1.069,0.242,16.251,120.839,-49.183
16:18:24:892,45.572,0.458,-1.064,0.104,17.694,125.149,-45.279
16:18:24:92,45.600,0.349,-0.763,0.090,15.770,126.488,-42.016
16:18:24:946,45.626,0.398,-0.763,0.211,10.460,126.488,-36.217
16:18:25:001,45.682,0.266,-0.415,0.256,6.467,125.506,-31.304
16:18:25:002,45.682,0.120,-0.022,0.105,1.612,123.441,-22.212
16:18:25:081,45.761,0.191,0.428,-0.183,-0.958,123.174,-11.647
16:18:25:082,45.762,0.138,0.481,-0.413,-1.873,124.405,-4.397
16:18:25:083,45.763,-0.255,0.563,-0.559,-3.412,127.777,6.483
16:18:25:102,45.782,-0.577,0.213,-0.529,-5.507,129.632,13.164
16:18:25:13,45.810,-0.627,0.357,-1.764,-8.700,127.336,21.645
16:18:25:183,45.864,-0.971,-0.482,-1.587,-8.162,123.063,26.801
16:18:25:184,45.864,-0.895,-0.585,-1.464,-7.486,120.974,27.037
16:18:25:207,45.888,1.169,0.954,0.527,-6.000,118.666,23.103
16:18:25:234,45.915,-0.367,0.179,-0.124,-5.192,117.473,20.999
16:18:25:26,45.940,-0.606,-0.217,-0.760,-4.789,113.435,16.489
16:18:25:315,45.996,-0.289,-0.273,-0.392,-4.806,111.451,14.026
16:18:25:315,45.996,-0.094,-0.112,-0.312,-5.222,111.608,11.676
16:18:25:338,46.018,-0.059,0.110,-0.018,-5.758,112.887,9.872
16:18:25:365,46.046,-0.095,0.026,-0.029,-6.280,112.906,8.806
16:18:25:391,46.071,-0.216,0.001,-0.056,-7.155,112.193,7.521
16:18:25:446,46.126,-0.236,-0.037,-0.164,-7.534,112.147,6.788
16:18:25:447,46.127,-0.148,0.005,-0.119,-8.011,113.974,5.486
16:18:25:469,46.150,-0.049,0.001,0.120,-8.515,116.629,4.088
16:18:25:496,46.176,-0.100,-0.023,0.068,-8.779,117.693,3.092
16:18:25:522,46.202,-0.112,0.033,0.008,-9.071,118.786,1.596
16:18:25:548,46.228,-0.047,0.032,0.054,-9.239,119.596,0.507
16:18:25:575,46.255,-0.101,-0.004,0.080,-9.492,120.405,-1.232
16:18:25:6,46.281,-0.105,0.070,-0.063,-9.786,121.367,-3.075
16:18:25:627,46.307,-0.122,0.089,-0.029,-9.987,121.887,-4.400
16:18:25:653,46.333,-0.162,0.082,0.104,-10.232,123.740,-6.572
16:18:25:68,46.361,0.002,0.144,0.029,-10.325,124.792,-8.088
16:18:25:705,46.386,0.004,0.141,0.186,-10.183,127.220,-10.682
16:18:25:731,46.412,0.024,0.203,0.218,-9.960,128.298,-12.724
16:18:25:758,46.438,0.097,0.222,0.234,-9.386,130.251,-16.371
16:18:25:814,46.494,0.237,0.520,0.427,-8.082,132.599,-21.004
16:18:25:814,46.494,0.268,0.650,0.959,-6.298,135.332,-24.589
16:18:25:837,46.517,0.090,0.029,0.807,-2.404,141.835,-29.830
16:18:25:863,46.543,0.122,0.299,0.619,-0.701,145.389,-33.901
16:18:25:889,46.570,0.191,0.221,0.539,0.611,149.426,-39.994
16:18:25:918,46.598,0.112,-0.379,0.234,3.654,154.912,-43.633
16:18:25:941,46.622,0.352,-0.901,0.084,7.747,160.240,-43.816
16:18:26:026,46.707,0.732,-1.068,-0.381,11.897,168.407,-41.519
16:18:26:027,46.707,0.597,-0.652,-0.428,11.041,171.773,-39.465
16:18:26:028,46.708,0.630,-0.722,-0.221,6.061,174.134,-35.771
16:18:26:047,46.727,0.567,-0.351,-0.320,1.299,173.847,-32.251
16:18:26:073,46.754,0.382,-0.095,-0.152,-5.363,171.349,-24.758
16:18:26:158,46.839,0.126,0.299,-0.489,-8.868,170.490,-15.207
16:18:26:159,46.839,0.025,0.265,-0.658,-9.917,172.104,-8.807
16:18:26:16,46.840,-0.180,0.537,-0.404,-10.899,176.759,0.763
16:18:26:182,46.862,-0.017,0.544,-0.322,-12.431,-179.814,6.879
16:18:26:182,46.862,-1.160,0.400,-0.643,-16.510,179.377,16.524
16:18:26:204,46.885,-2.086,-0.456,-0.348,-15.855,173.110,25.166
16:18:26:231,46.911,-1.855,-0.793,-0.091,-14.920,170.578,27.763
16:18:26:257,46.937,-1.193,-0.054,0.106,-13.593,168.433,26.633
16:18:26:283,46.963,-0.541,-0.188,0.012,-12.412,167.266,23.675
16:18:26:338,47.018,-0.911,-0.109,-0.152,-12.016,166.639,20.913
16:18:26:339,47.019,-0.313,-0.237,0.052,-12.103,166.206,18.496
16:18:26:391,47.071,-0.367,-0.096,-0.074,-12.300,166.195,15.621
16:18:26:392,47.072,-0.225,0.069,-0.024,-12.782,166.663,13.598
16:18:26:414,47.095,-0.203,-0.006,0.015,-13.170,167.121,12.417
16:18:26:442,47.122,-0.205,-0.004,-0.003,-13.717,167.897,11.013
16:18:26:467,47.147,-0.148,0.030,0.004,-14.071,168.778,10.075
16:18:26:493,47.173,-0.095,-0.001,-0.022,-14.410,170.592,8.617
16:18:26:519,47.199,-0.060,-0.010,0.053,-14.603,172.302,7.186
16:18:26:545,47.225,-0.049,0.001,0.039,-14.661,173.211,6.228
16:18:26:572,47.252,-0.070,0.026,0.011,-14.637,174.175,4.809
16:18:26:598,47.278,-0.084,0.011,0.006,-14.590,174.717,3.827
16:18:26:626,47.307,-0.050,0.019,0.004,-14.487,175.547,2.154
16:18:26:651,47.332,-0.065,0.082,0.009,-14.427,176.010,0.928
16:18:26:678,47.359,-0.049,0.084,0.053,-14.345,176.910,-1.181
16:18:26:732,47.412,-0.004,0.175,-0.158,-14.187,178.459,-3.789
16:18:26:733,47.413,0.060,0.192,-0.150,-13.943,179.517,-5.804
16:18:26:756,47.437,0.165,0.222,-0.004,-13.365,-178.310,-9.237
16:18:26:84,47.520,0.310,0.298,-0.001,-12.763,-177.749,-11.920
16:18:26:841,47.521,0.496,0.524,-0.045,-11.412,-175.950,-16.852
16:18:26:841,47.521,1.374,0.491,0.140,-8.753,-172.907,-22.956
16:18:26:86,47.541,1.221,0.151,0.205,-6.424,-169.912,-27.163
16:18:26:889,47.569,0.568,0.512,0.068,-5.010,-167.509,-34.541
16:18:26:942,47.622,0.830,-0.030,-0.034,-3.874,-165.901,-38.804
16:18:26:943,47.623,0.757,-0.353,-0.002,-0.716,-162.937,-43.351
16:18:26:967,47.648,-0.298,-0.388,0.323,2.840,-159.485,-45.389
16:18:26:991,47.672,0.077,-0.820,-0.104,4.676,-157.228,-45.169
16:18:27:02,47.700,0.219,-1.093,-0.472,5.126,-154.265,-42.273
16:18:27:045,47.726,0.177,-0.961,-0.465,3.039,-154.378,-39.264
16:18:27:099,47.780,0.149,-0.595,-0.245,-1.328,-156.568,-33.230
16:18:27:1,47.781,0.218,-0.416,-0.148,-3.845,-158.583,-27.945
16:18:27:123,47.804,0.060,-0.034,-0.173,-6.231,-161.175,-18.333
16:18:27:15,47.830,-0.296,0.327,-0.324,-7.350,-161.174,-7.813
16:18:27:205,47.885,-0.389,0.386,-0.333,-8.001,-159.965,-1.189
16:18:27:206,47.886,-0.786,0.494,-0.002,-9.505,-158.366,8.583
16:18:27:229,47.910,-0.969,0.661,0.262,-11.167,-157.626,14.643
16:18:27:255,47.935,-1.491,0.487,0.219,-13.154,-161.084,23.010
16:18:27:28,47.961,-1.672,-0.348,0.680,-11.417,-167.097,28.682
16:18:27:307,47.987,-1.673,-0.747,0.759,-10.087,-169.876,29.525
16:18:27:335,48.015,0.975,1.183,-0.926,-9.233,-171.751,26.651
16:18:27:36,48.040,-0.707,-0.358,0.237,-9.038,-171.551,24.481
16:18:27:385,48.066,-0.370,0.335,0.116,-9.221,-172.394,20.740
16:18:27:412,48.092,-0.372,-0.079,0.184,-9.417,-174.136,18.648
16:18:27:526,48.206,-0.561,-0.260,0.104,-9.694,-176.655,15.927
16:18:27:526,48.207,-0.384,0.071,-0.087,-10.322,-176.004,13.501
16:18:27:527,48.207,-0.080,0.065,-0.051,-10.876,-174.528,11.927
16:18:27:528,48.208,-0.180,-0.002,0.031,-11.510,-173.840,10.121
16:18:27:543,48.223,-0.222,-0.010,0.056,-11.820,-173.844,9.145
16:18:27:599,48.279,-0.224,-0.017,0.014,-12.089,-173.232,7.779
16:18:27:599,48.279,-0.036,-0.022,-0.008,-12.357,-171.784,6.353
16:18:27:622,48.302,-0.001,-0.002,0.019,-12.526,-170.926,5.390
16:18:27:648,48.328,-0.042,0.017,-0.020,-12.716,-170.354,3.894
16:18:27:676,48.356,-0.133,0.008,0.009,-12.852,-170.211,2.822
16:18:27:7,48.380,-0.101,0.039,-0.011,-13.105,-169.671,1.035
16:18:27:728,48.409,-0.090,0.100,0.012,-13.231,-169.125,-0.255
16:18:27:755,48.435,-0.066,0.114,-0.018,-13.374,-168.262,-2.345
16:18:27:779,48.460,-0.013,0.213,-0.103,-13.391,-166.982,-4.843
16:18:27:806,48.487,0.043,0.212,-0.136,-13.167,-166.001,-6.873
16:18:27:832,48.512,0.225,0.279,-0.030,-12.435,-164.269,-10.422
16:18:27:859,48.539,0.286,0.308,-0.057,-11.671,-163.642,-13.126
16:18:27:884,48.564,0.631,0.558,-0.137,-9.955,-162.151,-17.943
16:18:27:942,48.622,1.277,0.217,-0.266,-6.924,-159.192,-23.677
16:18:27:942,48.622,0.671,0.502,0.053,-4.945,-157.092,-27.790
16:18:27:963,48.643,0.597,0.476,0.120,-4.221,-156.140,-34.909
16:18:27:989,48.669,0.647,-0.049,-0.221,-3.830,-155.500,-39.172
16:18:28:015,48.696,0.421,-0.482,-0.024,-1.917,-153.550,-43.805
16:18:28:041,48.722,0.114,-0.620,0.208,1.224,-150.668,-45.874
16:18:28:068,48.748,0.339,-1.097,-0.131,3.537,-147.664,-45.576
16:18:28:094,48.775,0.237,-1.103,-0.490,4.587,-144.143,-42.348
16:18:28:148,48.828,0.178,-0.688,-0.276,2.611,-143.419,-39.139
16:18:28:176,48.857,0.349,-0.699,-0.379,-2.139,-144.122,-33.170
16:18:28:176,48.857,0.166,-0.280,-0.288,-6.751,-145.983,-24.863
16:18:28:199,48.879,0.030,0.004,-0.327,-9.075,-147.112,-18.154
16:18:28:255,48.935,-0.274,0.466,-0.465,-11.594,-147.444,-7.264
16:18:28:256,48.936,-0.739,0.970,0.013,-12.949,-147.049,0.289
16:18:28:307,48.987,-1.242,0.899,0.354,-15.414,-145.393,11.230
16:18:28:308,48.988,-1.690,0.404,0.543,-17.178,-146.051,17.900
16:18:28:359,49.039,-1.773,-0.326,1.084,-17.375,-150.782,24.958
16:18:28:415,49.095,-1.838,-0.775,0.838,-15.902,-155.487,25.955
16:18:28:415,49.096,0.898,1.071,-1.030,-14.601,-157.190,22.997
16:18:28:416,49.097,-0.479,0.917,0.313,-14.353,-156.750,19.410
16:18:28:436,49.116,-0.836,0.079,0.499,-14.345,-157.634,16.064
16:18:28:523,49.203,-0.521,-0.354,0.168,-14.189,-158.988,12.500
16:18:28:523,49.204,-0.269,-0.124,-0.010,-14.445,-158.389,10.363
16:18:28:524,49.205,-0.119,0.130,-0.068,-14.838,-158.037,9.366
16:18:28:525,49.206,-0.146,0.018,0.063,-15.577,-158.364,8.226
16:18:28:54,49.221,-0.139,-0.002,0.086,-16.088,-158.083,7.528
16:18:28:596,49.276,-0.069,0.012,0.010,-16.667,-156.223,6.099
16:18:28:596,49.277,0.063,-0.005,-0.059,-16.924,-154.502,4.916
16:18:28:648,49.328,0.111,-0.039,-0.045,-17.156,-152.246,3.110
16:18:28:649,49.329,0.082,-0.005,-0.041,-17.196,-150.986,1.080
16:18:28:701,49.381,0.001,0.037,-0.087,-17.203,-150.383,-0.426
16:18:28:702,49.382,-0.030,0.028,-0.010,-17.235,-149.709,-2.913
16:18:28:726,49.406,-0.109,0.052,-0.028,-17.316,-149.292,-4.588
16:18:28:779,49.460,-0.080,0.083,-0.030,-17.500,-148.401,-7.051
16:18:28:78,49.460,-0.022,0.121,-0.103,-17.651,-147.235,-9.474
16:18:28:805,49.485,-0.025,0.138,-0.237,-17.605,-146.266,-11.153
16:18:28:83,49.510,0.179,0.130,-0.162,-17.342,-144.789,-14.230
16:18:28:855,49.536,0.292,0.204,-0.132,-17.064,-143.356,-16.679
16:18:28:941,49.621,0.375,0.299,-0.244,-16.425,-142.094,-21.156
16:18:28:941,49.622,0.830,0.675,-0.457,-15.754,-140.764,-24.884
16:18:28:942,49.622,1.278,0.650,-0.534,-13.655,-136.843,-31.510
16:18:28:96,49.641,0.692,0.261,-0.343,-10.435,-131.102,-38.597
16:18:28:988,49.668,0.718,0.126,-0.398,-8.740,-127.692,-43.511
16:18:29:014,49.694,0.457,-0.259,-0.380,-4.543,-122.480,-48.775
16:18:29:068,49.749,0.130,-0.584,0.005,-0.992,-118.962,-51.023
16:18:29:069,49.749,0.029,-1.279,-0.484,4.527,-112.586,-51.570
16:18:29:092,49.772,-0.386,-1.127,-0.962,4.662,-108.067,-49.073
16:18:29:148,49.829,-0.409,-0.798,-0.757,-0.194,-107.007,-46.720
16:18:29:148,49.829,-0.124,-0.680,-0.607,-8.934,-108.495,-41.420
16:18:29:2,49.880,-0.244,-0.278,-0.476,-13.280,-110.263,-36.123
16:18:29:2,49.880,-0.473,0.059,-0.423,-16.016,-111.717,-26.305
16:18:29:224,49.905,-0.483,0.197,-0.162,-15.475,-109.402,-16.295
16:18:29:28,49.961,-0.530,0.271,0.064,-14.827,-106.572,-9.584
16:18:29:28,49.961,-0.423,0.894,-0.113,-16.150,-101.731,0.273
16:18:29:302,49.982,-0.720,0.578,0.903,-18.262,-102.152,7.482
16:18:29:328,50.008,-0.495,-0.095,1.672,-18.981,-106.299,17.461
16:18:29:354,50.035,-0.579,-0.336,1.674,-19.319,-108.231,20.955
16:18:29:381,50.061,-0.371,-0.395,1.397,-18.681,-111.294,21.794
16:18:29:407,50.087,-0.222,0.255,-0.303,-17.483,-113.875,18.299
16:18:29:462,50.142,-0.226,0.146,1.361,-16.959,-114.173,17.236
16:18:29:463,50.143,-0.655,0.228,0.191,-16.982,-115.204,13.242
16:18:29:487,50.168,-0.244,-0.106,0.300,-16.851,-116.293,11.389
16:18:29:512,50.192,-0.226,-0.089,0.223,-17.386,-117.002,9.071
16:18:29:538,50.218,-0.087,0.098,-0.005,-17.875,-116.202,7.387
16:18:29:566,50.246,-0.071,0.000,0.071,-18.256,-116.030,6.552
16:18:29:62,50.301,-0.054,0.014,0.073,-18.866,-115.725,5.556
16:18:29:62,50.301,-0.055,0.018,0.065,-19.124,-115.154,4.911
16:18:29:644,50.324,-0.005,-0.007,-0.035,-19.328,-113.486,3.607
16:18:29:67,50.351,0.015,-0.036,-0.059,-19.396,-112.252,2.597
16:18:29:695,50.376,-0.075,0.008,-0.054,-19.416,-110.552,0.945
16:18:29:751,50.431,-0.078,0.018,-0.046,-19.452,-109.120,-0.841
16:18:29:752,50.432,-0.066,0.014,0.004,-19.546,-108.384,-2.009
16:18:29:802,50.482,-0.040,0.075,-0.103,-19.722,-106.352,-5.209
16:18:29:885,50.565,-0.023,0.091,-0.089,-19.777,-105.120,-7.524
16:18:29:886,50.566,0.063,0.068,-0.140,-19.752,-103.436,-10.450
16:18:29:887,50.567,-0.215,0.232,-0.357,-19.671,-101.640,-12.704
16:18:29:905,50.586,-0.183,0.249,-0.345,-19.353,-100.216,-16.431
16:18:29:934,50.614,-0.071,0.314,-0.427,-19.075,-98.731,-19.377
16:18:29:959,50.640,-0.048,0.445,-0.604,-18.243,-97.399,-24.494
16:18:29:985,50.665,0.346,0.270,-1.508,-16.779,-95.741,-28.497
16:18:30:01,50.691,0.343,0.081,-1.095,-13.248,-91.933,-34.884
16:18:30:037,50.717,0.044,0.352,-0.655,-13.042,-90.021,-42.104
