Time,Second,AccelerationX,AccelerationY,AccelerationZ,EulerAnglesX,EulerAnglesY,EulerAnglesZ
16:28:59:318,0.000,0.720,-0.272,-0.279,5.228,4.437,47.302
16:28:59:318,0.000,-0.120,-0.065,-0.283,7.852,5.081,49.613
16:28:59:343,0.025,0.342,-0.892,-0.028,10.292,4.543,51.068
16:28:59:344,0.026,0.455,-1.292,-0.087,10.008,5.595,49.965
16:28:59:395,0.077,0.279,-1.019,-0.055,7.882,6.070,47.755
16:28:59:395,0.077,0.278,-0.741,-0.073,3.784,7.665,43.093
16:28:59:446,0.127,0.313,-0.684,-0.059,1.392,8.914,38.572
16:28:59:447,0.128,0.360,-0.416,-0.073,-1.122,10.441,29.727
16:28:59:471,0.152,0.329,-0.126,-0.070,-2.212,10.987,22.620
16:28:59:528,0.210,0.219,0.245,-0.054,-4.165,11.632,10.458
16:28:59:528,0.210,-0.637,1.354,0.181,-7.270,12.785,-2.587
16:28:59:577,0.259,-3.602,1.830,1.679,-9.519,14.064,-11.248
16:28:59:578,0.260,-3.010,-0.640,0.866,-11.942,18.294,-20.402
16:28:59:602,0.284,-2.874,-0.256,1.504,-12.731,20.689,-22.766
16:28:59:628,0.310,-0.088,0.790,-0.222,-11.623,21.793,-19.783
16:28:59:654,0.335,-0.567,0.064,-0.437,-12.268,20.601,-16.237
16:28:59:739,0.421,-0.442,-0.315,0.137,-12.349,20.686,-13.469
16:28:59:739,0.421,-0.176,-0.119,0.129,-12.588,19.834,-9.933
16:28:59:739,0.421,-0.028,0.116,-0.015,-12.846,18.779,-8.130
16:28:59:76,0.442,0.044,0.012,-0.189,-12.965,17.380,-5.754
16:28:59:84,0.522,0.140,0.015,-0.131,-12.663,15.982,-3.081
16:28:59:87,0.552,0.161,0.028,-0.077,-12.159,15.151,-0.871
16:28:59:871,0.552,-0.006,0.020,-0.011,-11.192,14.667,2.705
16:28:59:871,0.552,-0.046,0.029,-0.043,-10.493,14.511,5.057
16:28:59:89,0.572,-0.011,0.096,-0.086,-9.448,13.986,8.433
16:28:59:916,0.598,0.076,0.306,0.203,-8.360,13.273,11.422
16:28:59:999,0.681,0.237,0.278,0.143,-7.467,12.522,13.272
16:28:59:999,0.681,0.378,0.295,-0.143,-5.886,11.610,16.191
16:29:00:052,0.734,0.736,0.324,-0.304,-4.650,11.155,18.516
16:29:00:053,0.735,0.868,0.309,-0.431,-2.049,10.419,23.067
16:29:00:054,0.736,1.574,0.276,-0.910,0.459,9.546,27.010
16:29:00:073,0.755,1.519,0.648,-0.858,5.461,7.835,33.922
16:29:00:099,0.781,1.195,-0.102,-0.950,9.349,8.325,41.946
16:29:00:184,0.865,0.846,-0.269,-0.435,12.322,8.552,45.560
16:29:00:185,0.866,-0.327,-0.103,-0.095,15.851,10.568,49.200
16:29:00:186,0.867,0.351,-1.041,-0.251,16.200,11.353,49.231
16:29:00:207,0.888,0.137,-0.896,-0.185,14.121,13.507,46.374
16:29:00:26,0.942,-0.009,-0.835,-0.268,10.822,15.853,40.808
16:29:00:261,0.943,0.018,-0.758,-0.326,8.496,17.682,35.824
16:29:00:283,0.965,0.135,-0.641,-0.372,5.696,20.289,26.644
16:29:00:311,0.993,-0.057,-0.128,-0.387,4.060,22.144,19.607
16:29:00:335,1.017,-0.187,0.158,-0.293,1.748,24.655,8.023
16:29:00:362,1.044,-0.910,1.132,-0.211,-0.244,26.567,0.173
16:29:00:39,1.072,-1.363,1.028,0.467,-3.655,31.319,-10.411
16:29:00:415,1.097,-1.604,0.599,1.278,-6.265,36.965,-19.107
16:29:00:443,1.125,-1.768,-0.253,1.207,-7.427,40.649,-22.739
16:29:00:496,1.178,-1.084,-0.369,1.386,-7.242,45.949,-23.377
16:29:00:497,1.179,-1.238,-0.196,1.393,-5.969,49.935,-21.018
16:29:00:549,1.231,-1.031,0.592,2.285,-3.983,53.852,-15.762
16:29:00:549,1.231,-0.111,0.046,-0.222,-4.887,53.399,-9.642
16:29:00:572,1.253,-0.691,-0.344,0.597,-5.590,54.670,-6.187
16:29:00:599,1.280,-0.056,0.139,0.431,-5.347,54.109,-2.477
16:29:00:682,1.364,0.083,0.096,0.027,-5.421,52.750,-0.808
16:29:00:683,1.365,0.016,0.106,0.049,-5.552,52.046,1.017
16:29:00:684,1.366,-0.004,-0.036,-0.037,-5.512,51.332,2.304
16:29:00:703,1.385,0.082,-0.063,-0.119,-5.306,50.225,3.214
16:29:00:729,1.411,-0.175,0.018,-0.135,-4.984,49.424,5.081
16:29:00:756,1.437,-0.043,0.198,-0.036,-4.646,49.106,6.478
16:29:00:841,1.523,0.075,0.206,-0.002,-3.889,48.333,8.521
16:29:00:842,1.524,0.179,0.277,-0.223,-2.647,47.285,10.575
16:29:00:842,1.524,0.337,0.325,-0.480,-1.527,46.450,12.117
16:29:00:861,1.543,0.574,0.325,-0.689,0.658,45.954,15.417
16:29:00:887,1.569,0.765,0.275,-0.873,2.509,46.234,18.627
16:29:00:943,1.624,0.779,0.215,-1.684,6.285,46.815,24.989
16:29:00:943,1.625,0.541,0.643,-1.938,9.438,47.088,29.931
16:29:00:966,1.647,0.137,-0.096,-1.565,12.578,50.044,38.715
16:29:00:994,1.676,-0.146,-0.411,-1.035,15.035,53.387,45.193
16:29:01:018,1.700,-0.340,-0.147,-0.005,16.148,55.191,48.025
16:29:01:1,1.782,0.024,-1.211,-0.481,17.941,57.753,47.428
16:29:01:101,1.783,-0.267,-1.082,0.017,18.131,59.424,44.398
16:29:01:127,1.809,-0.384,-1.055,-0.222,17.206,62.718,38.234
16:29:01:127,1.809,-0.605,-0.961,-0.425,14.590,66.311,29.720
16:29:01:178,1.860,-0.677,-0.512,-0.596,12.278,68.557,23.331
16:29:01:179,1.861,-0.750,0.086,-0.641,8.342,71.882,13.108
16:29:01:203,1.885,-0.960,1.319,-0.325,5.094,75.058,6.171
16:29:01:259,1.941,-1.380,0.865,1.219,1.139,81.346,-4.001
16:29:01:259,1.941,-0.856,1.050,1.724,-2.658,84.240,-13.733
16:29:01:28,1.962,0.292,0.072,2.467,-5.351,85.848,-18.492
16:29:01:396,2.078,1.132,-0.454,2.668,-6.013,90.437,-20.600
16:29:01:396,2.078,0.148,0.217,1.490,-4.599,93.953,-18.401
16:29:01:396,2.078,0.124,0.401,1.619,-2.787,99.968,-11.031
16:29:01:396,2.078,0.396,-0.171,1.051,-3.436,102.387,-7.797
16:29:01:416,2.098,0.318,-0.083,0.455,-3.758,103.353,-3.741
16:29:01:416,2.098,0.120,0.129,-0.154,-4.147,100.874,-0.936
16:29:01:467,2.149,-0.098,0.066,-0.228,-4.744,99.836,0.532
16:29:01:468,2.150,-0.097,0.071,0.295,-5.419,99.953,2.534
16:29:01:493,2.174,-0.041,0.012,-0.231,-5.371,98.620,3.927
16:29:01:517,2.199,-0.155,0.050,-0.183,-5.279,96.513,6.096
16:29:01:543,2.225,-0.106,0.196,0.032,-5.224,96.010,8.380
16:29:01:569,2.251,0.013,0.187,-0.127,-4.983,95.518,9.848
16:29:01:595,2.277,-0.060,0.259,-0.211,-4.356,94.554,12.132
16:29:01:622,2.304,-0.085,0.408,-0.385,-3.663,93.984,13.862
16:29:01:676,2.358,-0.131,0.252,-1.199,-0.342,92.421,20.056
16:29:01:701,2.382,-0.703,0.229,-1.654,3.260,92.160,26.455
16:29:01:759,2.440,-0.924,0.516,-1.941,8.229,91.336,34.460
16:29:01:759,2.441,-0.897,0.109,-1.687,10.708,91.960,40.466
16:29:01:809,2.491,-0.646,-0.254,-0.733,14.569,93.066,47.031
16:29:01:809,2.491,-0.591,-1.146,-0.615,16.909,93.237,50.033
16:29:01:831,2.513,-0.324,-1.554,-0.748,18.487,93.275,49.782
16:29:01:858,2.540,-0.166,-0.875,0.201,16.193,93.456,45.011
16:29:01:915,2.597,-0.296,-1.128,-0.063,13.930,93.606,40.368
16:29:01:915,2.597,-0.394,-0.894,-0.375,9.517,93.758,31.107
16:29:01:937,2.618,-0.375,-0.389,-0.280,6.304,93.893,23.863
16:29:01:963,2.645,-0.268,0.295,-0.251,1.247,94.566,12.191
16:29:01:989,2.671,0.034,1.281,0.555,-4.669,96.729,0.159
16:29:02:016,2.698,0.449,1.132,1.811,-8.078,98.983,-7.521
16:29:02:042,2.724,0.955,0.141,2.776,-11.839,102.132,-17.175
16:29:02:07,2.751,1.361,-0.329,2.601,-13.444,104.495,-20.725
16:29:02:122,2.803,1.214,-0.405,2.518,-12.786,109.158,-19.954
16:29:02:178,2.860,1.888,0.277,2.388,-11.130,112.311,-15.721
16:29:02:179,2.861,-0.472,0.075,0.911,-9.101,116.561,-10.209
16:29:02:18,2.862,0.967,-0.039,0.953,-10.076,120.138,-4.431
16:29:02:199,2.881,0.653,0.107,0.319,-9.807,118.614,-1.382
16:29:02:225,2.907,-0.164,0.103,-0.240,-9.916,114.753,2.087
16:29:02:254,2.935,-0.009,0.028,0.047,-10.044,114.138,3.622
16:29:02:309,2.991,-0.075,0.109,0.340,-10.415,115.032,5.292
16:29:02:309,2.991,-0.064,0.112,-0.092,-10.206,113.702,6.624
16:29:02:331,3.012,-0.279,0.152,-0.244,-10.089,112.110,7.627
16:29:02:358,3.040,-0.049,0.243,-0.157,-9.927,110.943,9.195
16:29:02:385,3.067,-0.152,0.111,-0.208,-9.612,110.160,10.505
16:29:02:41,3.092,-0.343,0.276,-0.323,-8.634,108.692,13.037
16:29:02:436,3.117,-0.352,0.137,-0.654,-7.425,106.979,15.419
16:29:02:462,3.144,-0.295,0.214,-1.032,-4.980,105.367,20.384
16:29:02:519,3.200,-0.973,0.318,-1.370,-2.071,105.220,27.275
16:29:02:519,3.200,-1.148,0.470,-1.403,0.972,104.192,32.591
16:29:02:541,3.223,-1.100,0.237,-1.423,5.404,103.216,41.528
16:29:02:569,3.251,-0.637,-0.042,-0.542,8.008,103.531,46.874
16:29:02:593,3.275,-0.143,-0.385,-0.192,13.239,102.622,51.674
16:29:02:62,3.301,-0.155,-1.479,-0.465,17.004,100.677,51.825
16:29:02:646,3.327,0.022,-1.114,-0.211,16.424,99.293,49.560
16:29:02:672,3.353,-0.078,-1.041,-0.181,12.756,97.329,43.276
16:29:02:727,3.409,-0.094,-0.985,-0.511,9.177,96.501,38.216
16:29:02:728,3.410,-0.039,-0.777,-0.610,3.538,95.884,28.648
16:29:02:78,3.462,0.043,0.068,-0.436,-1.707,96.487,17.645
16:29:02:78,3.462,0.298,0.734,-0.166,-4.922,97.569,9.405
16:29:02:832,3.514,0.608,1.234,1.221,-9.366,100.149,-3.527
16:29:02:833,3.515,0.675,1.035,2.472,-11.592,102.521,-11.536
16:29:02:887,3.568,1.493,-0.522,3.245,-13.756,108.731,-19.983
16:29:02:887,3.568,0.588,0.577,-0.005,-13.642,111.624,-20.915
16:29:02:908,3.590,1.239,1.002,0.898,-11.372,113.457,-15.214
16:29:02:992,3.673,0.185,-0.601,1.187,-10.629,114.867,-8.908
16:29:02:992,3.673,0.742,-0.258,0.737,-11.179,116.499,-4.940
16:29:03:015,3.697,0.205,0.166,-0.050,-10.867,114.365,-0.640
16:29:03:074,3.756,0.063,0.117,-0.070,-11.201,113.223,1.315
16:29:03:074,3.756,0.122,0.037,0.150,-11.538,113.374,3.223
16:29:03:075,3.756,0.110,0.029,0.274,-11.844,113.614,4.256
16:29:03:092,3.774,-0.097,0.035,-0.152,-11.713,112.460,4.916
16:29:03:119,3.801,-0.201,0.020,-0.124,-11.713,110.476,6.000
16:29:03:173,3.855,-0.099,0.065,-0.008,-11.661,109.779,6.932
16:29:03:174,3.856,-0.121,0.120,-0.081,-11.266,108.387,8.969
16:29:03:226,3.907,-0.087,0.310,-0.242,-10.834,107.328,10.620
16:29:03:227,3.908,-0.115,0.219,-0.442,-9.799,105.375,13.433
16:29:03:25,3.931,-0.165,0.250,-0.790,-8.293,103.904,16.865
16:29:03:276,3.958,-0.236,0.307,-0.848,-7.044,103.643,20.250
16:29:03:332,4.014,-0.953,0.521,-1.520,-4.031,102.777,26.781
16:29:03:332,4.014,-1.020,0.683,-1.518,-0.307,100.843,31.575
16:29:03:354,4.036,-0.927,0.360,-1.562,5.040,99.232,39.752
16:29:03:381,4.062,-0.294,-0.115,-0.740,7.740,100.323,47.011
16:29:03:407,4.089,-0.163,0.435,0.341,10.669,100.700,50.039
16:29:03:462,4.144,-0.399,-1.268,-0.306,15.920,98.804,51.703
16:29:03:463,4.145,0.249,-1.088,-0.387,16.462,98.175,50.498
16:29:03:515,4.197,0.131,-1.317,-0.172,14.364,97.127,46.359
16:29:03:515,4.197,-0.070,-1.114,-0.336,9.585,97.241,39.980
16:29:03:541,4.223,-0.008,-0.800,-0.376,5.732,97.754,34.589
16:29:03:542,4.223,-0.004,-0.499,-0.400,0.895,99.049,24.885
16:29:03:649,4.331,0.175,0.115,-0.197,-1.611,99.924,17.399
16:29:03:649,4.331,0.378,0.762,0.364,-5.031,101.201,4.735
16:29:03:65,4.332,0.726,1.802,1.682,-7.184,102.244,-3.795
16:29:03:67,4.352,0.404,0.837,2.754,-9.465,105.937,-14.823
16:29:03:863,4.545,2.019,0.226,3.571,-9.424,113.073,-20.518
16:29:03:863,4.545,-1.211,1.218,-1.365,-7.587,115.959,-17.780
16:29:03:864,4.546,-0.684,-0.104,0.401,-7.352,115.917,-11.645
16:29:03:865,4.547,0.485,-0.231,0.451,-7.651,116.335,-7.281
16:29:03:915,4.597,0.427,0.114,0.224,-7.957,115.134,-2.388
16:29:03:915,4.597,0.169,0.272,-0.042,-8.228,114.178,0.759
16:29:03:916,4.598,0.091,0.038,0.168,-8.394,114.288,2.220
16:29:03:917,4.599,-0.045,0.092,0.314,-8.651,114.143,4.019
16:29:03:967,4.649,-0.057,-0.058,-0.038,-8.399,112.804,4.949
16:29:03:968,4.649,-0.279,-0.002,-0.219,-7.935,110.482,6.256
16:29:03:968,4.650,-0.060,0.130,-0.118,-7.866,109.931,7.085
16:29:03:969,4.650,-0.091,0.082,-0.014,-7.612,109.422,8.817
16:29:04:012,4.694,-0.083,0.241,-0.057,-6.984,108.391,10.886
16:29:04:04,4.722,-0.266,0.253,-0.232,-6.324,107.467,12.283
16:29:04:041,4.723,-0.231,0.157,-0.669,-4.879,105.882,14.686
16:29:04:063,4.745,-0.257,0.317,-0.988,-3.504,105.130,17.030
16:29:04:09,4.772,-0.519,0.273,-1.067,-0.615,104.714,22.340
16:29:04:116,4.797,-1.151,0.464,-1.532,3.730,103.849,29.277
16:29:04:143,4.824,-1.332,0.752,-1.638,7.113,103.533,34.626
16:29:04:226,4.908,-0.911,-0.507,-1.206,10.441,105.535,43.050
16:29:04:227,4.909,-0.801,-0.113,-0.292,13.261,106.468,46.637
16:29:04:228,4.910,-0.450,-0.800,-0.156,16.959,107.230,49.840
16:29:04:247,4.929,-0.245,-1.072,-0.298,17.743,108.021,48.196
16:29:04:44,5.122,-0.194,-1.074,-0.002,17.439,108.591,43.177
16:29:04:44,5.122,-0.416,-0.948,-0.135,15.209,109.158,35.476
16:29:04:441,5.123,-0.436,-0.715,-0.134,13.123,109.768,29.418
16:29:04:442,5.124,-0.487,-0.194,-0.046,9.283,111.638,18.676
16:29:04:573,5.255,-0.338,0.305,0.101,6.911,112.829,10.697
16:29:04:574,5.256,-0.088,1.238,0.925,2.485,115.454,-1.753
16:29:04:574,5.256,1.045,1.305,1.690,-1.369,121.652,-11.547
16:29:04:574,5.256,1.376,0.620,1.815,-2.689,126.617,-17.032
16:29:04:597,5.279,1.599,-0.328,1.630,-2.672,133.150,-19.538
16:29:04:598,5.280,1.299,-0.167,1.372,-1.510,137.107,-17.917
16:29:04:677,5.359,0.087,-0.359,0.234,-1.208,144.278,0.529
16:29:04:677,5.359,0.266,0.057,0.179,-0.949,144.563,4.342
16:29:04:677,5.359,0.112,0.329,0.093,-0.669,144.444,6.052
16:29:04:678,5.359,0.044,0.131,-0.041,0.131,144.080,8.141
16:29:04:693,5.375,-0.069,0.236,-0.059,0.658,144.186,9.100
16:29:04:719,5.401,-0.119,0.308,-0.218,1.380,144.093,10.060
16:29:04:775,5.456,-0.091,-0.096,-0.078,1.993,144.231,11.077
16:29:04:775,5.457,-0.059,-0.260,0.038,2.263,144.642,11.791
16:29:04:887,5.568,0.033,-0.106,0.164,2.595,145.456,12.999
16:29:04:888,5.569,-0.080,0.010,-0.023,2.906,145.718,13.811
16:29:04:889,5.570,-0.250,0.152,-0.206,3.664,145.527,15.018
16:29:04:889,5.571,-0.587,0.226,-0.284,4.839,145.606,16.900
16:29:04:905,5.587,-0.712,0.214,-0.260,6.110,145.843,18.914
16:29:05:07,5.752,-1.206,0.109,-0.117,9.333,145.932,23.303
16:29:05:071,5.752,-1.770,0.266,-0.210,12.150,146.112,27.124
16:29:05:072,5.754,-1.993,0.341,-0.169,15.988,148.523,34.591
16:29:05:073,5.754,-1.253,-0.294,0.042,19.379,151.890,41.718
16:29:05:122,5.804,-0.978,-0.637,0.146,20.698,154.156,45.308
16:29:05:123,5.804,-0.469,-0.752,0.253,21.388,158.465,47.485
16:29:05:123,5.805,-0.624,-1.096,0.078,20.063,160.364,46.471
16:29:05:124,5.806,-0.206,-0.962,0.270,18.156,163.126,42.144
16:29:05:168,5.850,-0.327,-0.917,0.256,15.040,165.749,35.824
16:29:05:169,5.851,-0.379,-0.764,0.368,12.295,167.998,30.476
16:29:05:223,5.905,-0.333,-0.242,0.498,8.388,171.172,20.998
16:29:05:223,5.905,-0.254,0.308,0.618,5.662,173.053,13.801
16:29:05:244,5.926,0.382,1.041,0.680,1.162,176.511,2.786
16:29:05:271,5.952,1.363,1.012,0.672,-1.530,179.159,-4.514
16:29:05:297,5.978,2.289,0.803,0.052,-6.037,-177.012,-13.982
16:29:05:326,6.007,2.524,-0.172,-0.564,-9.428,-174.646,-19.948
16:29:05:409,6.091,2.248,-0.550,-0.715,-9.902,-172.914,-20.261
16:29:05:409,6.091,-1.246,0.890,-0.925,-8.562,-168.451,-15.721
16:29:05:409,6.091,2.099,0.316,-0.571,-7.073,-165.757,-13.085
16:29:05:508,6.190,0.188,-0.099,-0.136,-7.824,-161.518,-7.267
16:29:05:537,6.219,0.562,0.256,-0.371,-8.228,-159.463,-3.305
16:29:05:538,6.220,-0.098,0.129,-0.291,-8.031,-162.825,-1.177
16:29:05:566,6.248,-0.387,0.050,0.108,-8.137,-165.687,1.336
16:29:05:566,6.248,0.171,0.043,0.030,-8.507,-164.473,2.531
16:29:05:567,6.249,0.295,0.077,-0.011,-8.707,-163.975,3.973
16:29:05:617,6.299,-0.301,-0.048,0.133,-8.455,-166.551,5.695
16:29:05:617,6.299,-0.121,0.070,0.143,-8.303,-167.424,6.961
16:29:05:639,6.320,-0.014,0.007,0.093,-7.898,-168.019,8.898
16:29:05:665,6.346,-0.019,0.154,-0.040,-7.585,-168.423,10.208
16:29:05:69,6.372,-0.246,0.278,-0.087,-6.760,-169.848,12.229
16:29:05:746,6.428,-0.545,0.218,0.095,-5.997,-170.995,13.741
16:29:05:746,6.428,-0.563,0.140,0.254,-4.605,-171.725,16.566
16:29:05:859,6.541,-0.793,0.257,0.266,-2.387,-171.661,21.033
16:29:05:859,6.541,-1.110,0.429,0.583,-0.195,-171.706,24.953
16:29:05:859,6.541,-1.883,0.128,1.004,4.919,-172.665,31.772
16:29:05:86,6.541,-1.552,0.378,0.951,8.309,-172.738,37.014
16:29:05:877,6.559,-1.080,-0.523,0.737,11.183,-170.349,45.267
16:29:05:878,6.559,-0.595,-0.364,0.582,13.567,-168.585,50.144
16:29:05:93,6.612,0.209,-0.170,0.234,15.129,-168.175,51.767
16:29:05:931,6.613,-0.356,-1.225,0.227,14.665,-167.437,50.285
16:29:06:041,6.723,-0.014,-0.974,0.022,13.504,-167.608,47.146
16:29:06:041,6.723,-0.002,-0.905,0.194,10.791,-167.913,40.666
16:29:06:042,6.724,-0.292,-0.746,0.172,8.378,-168.162,35.160
16:29:06:043,6.725,-0.371,-0.551,0.141,4.728,-168.681,25.128
16:29:06:06,6.742,-0.451,0.071,0.076,0.863,-169.314,13.715
16:29:06:114,6.795,-0.129,0.679,-0.135,-2.349,-168.499,5.852
16:29:06:114,6.796,0.787,1.065,-0.539,-7.041,-164.451,-5.390
16:29:06:14,6.821,1.621,1.484,-0.885,-9.312,-159.826,-12.265
16:29:06:163,6.844,2.742,-0.280,-1.158,-9.445,-151.410,-20.587
16:29:06:189,6.871,2.429,-0.570,-1.570,-8.739,-145.876,-22.000
16:29:06:217,6.899,-0.474,0.852,0.510,-7.836,-144.819,-18.994
16:29:06:243,6.925,0.711,1.145,-0.445,-6.862,-145.494,-14.166
16:29:06:27,6.952,0.919,-0.459,-0.071,-6.900,-145.446,-9.779
16:29:06:297,6.978,0.567,-0.203,-0.378,-7.776,-142.017,-5.226
16:29:06:323,7.004,0.250,0.262,-0.434,-7.852,-141.453,-2.032
16:29:06:374,7.056,-0.156,0.122,-0.129,-7.843,-143.194,-0.424
16:29:06:405,7.087,-0.041,0.032,-0.060,-8.113,-144.175,1.599
16:29:06:405,7.087,0.046,0.043,-0.007,-8.392,-144.096,2.718
16:29:06:426,7.108,-0.004,-0.029,0.089,-8.465,-145.141,4.266
16:29:06:481,7.163,-0.114,0.002,0.154,-8.383,-146.287,5.451
16:29:06:482,7.163,-0.075,0.053,0.216,-8.033,-147.742,7.541
16:29:06:505,7.187,0.017,0.137,0.072,-7.554,-148.625,9.846
16:29:06:562,7.244,-0.227,0.254,-0.070,-7.017,-149.377,11.478
16:29:06:562,7.244,-0.414,0.280,0.132,-5.814,-150.873,14.101
16:29:06:583,7.265,-0.566,0.205,0.421,-4.824,-151.459,16.139
16:29:06:609,7.291,-0.735,0.360,0.538,-2.858,-151.510,20.518
16:29:06:635,7.317,-0.919,0.436,0.912,0.391,-151.674,26.682
16:29:06:691,7.373,-1.525,0.202,1.608,3.967,-152.566,31.343
16:29:06:692,7.373,-1.214,0.211,1.404,9.626,-152.744,39.224
16:29:06:715,7.397,-0.839,-0.434,1.019,11.755,-150.947,44.650
16:29:06:743,7.424,-0.346,-0.467,0.868,15.404,-149.129,49.468
16:29:06:794,7.476,-0.117,-0.982,0.291,16.637,-146.989,51.594
16:29:06:822,7.504,-0.233,-1.233,0.405,15.678,-144.897,50.236
16:29:06:823,7.505,0.109,-0.969,0.139,13.924,-143.885,44.991
16:29:06:846,7.528,0.106,-0.988,0.230,12.375,-143.394,40.246
16:29:06:872,7.553,-0.070,-0.836,0.432,9.358,-142.508,31.369
16:29:06:957,7.639,-0.070,-0.499,0.380,7.166,-141.877,24.393
16:29:06:957,7.639,-0.057,0.206,0.322,3.939,-141.321,12.751
16:29:06:958,7.640,0.324,0.908,-0.121,-0.293,-139.610,0.796
16:29:06:977,7.659,1.040,1.323,-0.648,-3.091,-136.393,-6.266
16:29:07:003,7.685,1.647,0.613,-1.628,-5.345,-128.846,-15.269
16:29:07:029,7.711,1.805,-0.225,-1.920,-6.026,-123.815,-19.210
16:29:07:056,7.737,0.983,-0.505,-2.245,-6.058,-119.319,-19.738
16:29:07:112,7.793,-0.713,0.593,1.910,-4.871,-116.284,-14.334
16:29:07:276,7.957,1.762,1.176,-3.537,-4.849,-114.949,-11.174
16:29:07:277,7.958,0.336,-0.761,-0.676,-5.440,-111.298,-4.685
16:29:07:277,7.959,-0.029,-0.177,-0.504,-5.704,-109.840,-1.948
16:29:07:278,7.960,0.062,0.329,-0.164,-6.080,-110.181,1.572
16:29:07:295,7.977,-0.129,0.038,-0.021,-6.162,-111.196,3.262
16:29:07:296,7.977,0.057,0.060,-0.122,-6.187,-111.488,5.166
16:29:07:354,8.036,-0.030,0.047,-0.054,-5.995,-112.437,6.540
16:29:07:354,8.036,-0.026,-0.038,0.327,-5.874,-113.470,7.403
16:29:07:354,8.036,-0.091,0.118,0.052,-5.739,-114.113,8.887
16:29:07:355,8.037,0.009,0.095,0.120,-5.404,-114.580,10.104
16:29:07:37,8.052,-0.028,0.204,0.125,-4.708,-114.983,12.096
16:29:07:485,8.166,-0.185,0.264,0.366,-3.542,-115.828,14.370
16:29:07:486,8.167,-0.382,0.266,0.532,-2.408,-116.383,16.292
16:29:07:488,8.169,-0.323,0.243,1.011,-0.138,-116.643,20.434
16:29:07:488,8.170,-0.194,0.210,1.473,1.938,-116.640,24.225
16:29:07:56,8.242,-0.032,0.271,1.739,6.130,-116.730,31.217
16:29:07:561,8.243,-0.167,0.344,1.706,8.760,-115.873,36.932
16:29:07:562,8.244,0.138,-0.386,1.324,11.286,-113.259,44.748
16:29:07:639,8.320,0.211,-0.499,0.520,14.738,-111.363,49.693
16:29:07:64,8.321,0.389,-0.528,0.455,16.286,-110.356,51.191
16:29:07:64,8.322,0.008,-1.087,0.531,15.336,-108.318,49.070
16:29:07:687,8.369,0.160,-0.914,0.020,14.290,-107.181,45.545
16:29:07:713,8.395,0.207,-0.886,0.350,12.192,-105.793,38.217
16:29:07:742,8.424,0.260,-0.741,0.403,8.975,-104.021,28.773
16:29:07:742,8.424,0.317,-0.377,0.440,6.677,-102.625,21.672
16:29:07:764,8.446,0.381,0.378,0.150,3.002,-99.959,10.149
16:29:07:792,8.474,0.529,1.069,-0.517,0.038,-97.326,2.320
16:29:07:818,8.499,0.417,1.028,-2.038,-4.078,-91.661,-8.481
16:29:07:843,8.525,0.304,0.493,-2.600,-5.715,-88.388,-15.027
16:29:08:037,8.718,-0.335,-0.295,-2.828,-8.108,-84.796,-20.723
16:29:08:037,8.719,-1.949,0.629,-2.028,-8.040,-82.808,-19.260
16:29:08:038,8.719,0.052,0.653,0.493,-5.947,-81.104,-14.100
16:29:08:039,8.720,0.219,-0.387,-1.278,-6.850,-77.811,-7.240
16:29:08:065,8.746,-0.403,-0.188,-0.383,-7.657,-76.218,-3.064
16:29:08:065,8.747,-0.310,0.061,-0.233,-7.402,-77.817,0.809
16:29:08:065,8.747,-0.188,0.182,0.080,-7.827,-79.209,3.566
16:29:08:066,8.747,-0.010,0.083,-0.168,-8.082,-79.012,5.099
16:29:08:08,8.761,0.048,-0.077,-0.200,-8.152,-79.375,6.725
16:29:08:164,8.846,0.008,0.079,0.107,-7.937,-80.599,7.527
16:29:08:164,8.846,-0.003,0.122,0.206,-7.928,-82.328,8.645
16:29:08:221,8.902,-0.069,0.095,0.131,-8.011,-83.158,9.777
16:29:08:221,8.902,0.034,0.030,0.142,-7.885,-83.696,10.859
16:29:08:222,8.903,0.055,0.247,0.125,-7.502,-84.402,12.804
16:29:08:222,8.904,0.068,0.246,0.412,-6.932,-85.230,14.380
16:29:08:324,9.006,0.145,0.210,0.743,-5.510,-86.548,17.406
16:29:08:325,9.007,0.180,0.293,1.093,-4.143,-87.109,20.238
16:29:08:325,9.007,0.434,0.271,1.327,-1.134,-87.759,26.035
16:29:08:326,9.008,0.845,0.540,1.749,3.517,-88.868,33.154
16:29:08:343,9.025,0.806,0.469,1.813,6.021,-88.407,38.786
16:29:08:426,9.108,0.394,-0.410,1.022,8.586,-86.935,45.890
16:29:08:427,9.109,0.482,-0.408,0.363,11.352,-86.992,48.717
16:29:08:428,9.109,0.283,-1.186,0.412,14.534,-86.718,49.948
16:29:08:447,9.129,0.105,-1.107,0.272,13.667,-86.563,46.685
16:29:08:503,9.185,0.214,-0.938,0.038,11.506,-86.089,42.726
16:29:08:503,9.185,0.325,-0.818,0.289,7.263,-84.752,34.885
16:29:08:526,9.208,0.328,-0.601,0.323,4.404,-83.508,28.279
16:29:08:553,9.235,0.264,-0.020,0.294,0.460,-81.554,16.922
16:29:08:58,9.261,0.218,0.959,-0.142,-2.178,-80.116,8.637
16:29:08:605,9.287,-0.009,1.215,-0.919,-6.809,-77.127,-3.567
16:29:08:66,9.341,-0.655,0.941,-2.095,-10.808,-73.448,-14.685
16:29:08:661,9.342,-1.133,0.220,-2.626,-12.989,-71.147,-20.365
16:29:08:714,9.395,-1.344,-0.369,-2.057,-14.661,-68.188,-23.791
16:29:08:714,9.395,-1.713,0.331,-1.253,-13.492,-65.781,-21.994
16:29:08:736,9.418,-0.694,0.025,-1.697,-10.791,-64.038,-16.085
16:29:08:763,9.445,-0.373,-0.335,-0.859,-11.097,-62.310,-10.002
16:29:08:788,9.470,-0.418,-0.152,-0.496,-11.542,-60.971,-6.887
16:29:08:903,9.584,-0.365,0.102,-0.175,-11.330,-63.017,-3.473
16:29:08:903,9.585,0.077,0.044,0.299,-11.533,-65.519,-1.710
16:29:08:903,9.585,0.081,0.035,-0.103,-12.155,-65.806,0.152
16:29:08:904,9.586,-0.022,0.045,-0.366,-12.503,-65.275,1.376
16:29:08:92,9.601,-0.004,0.012,0.140,-12.319,-66.908,2.577
16:29:09:033,9.715,0.207,0.015,0.159,-12.085,-69.483,4.637
16:29:09:034,9.715,0.152,0.045,0.006,-11.897,-70.112,6.068
16:29:09:035,9.716,-0.085,0.158,-0.014,-11.384,-70.578,8.503
16:29:09:036,9.717,-0.130,0.286,0.295,-10.949,-71.291,10.219
16:29:09:051,9.733,0.027,0.308,0.433,-9.873,-73.091,12.961
16:29:09:079,9.761,0.281,0.218,0.541,-8.565,-74.187,16.252
16:29:09:103,9.785,0.283,0.240,0.722,-7.354,-74.592,19.228
16:29:09:131,9.813,0.556,0.307,1.025,-4.758,-75.181,25.201
16:29:09:156,9.838,1.169,0.310,1.634,-2.110,-76.153,29.901
16:29:09:182,9.864,1.109,0.409,1.594,3.352,-78.035,37.576
16:29:09:238,9.920,0.787,-0.342,1.087,5.293,-77.438,43.372
16:29:09:238,9.920,0.650,-0.109,0.543,8.853,-76.961,49.063
16:29:09:261,9.942,0.359,-1.102,0.452,12.306,-77.123,52.099
16:29:09:374,10.056,0.091,-1.154,0.371,13.263,-77.456,51.298
16:29:09:375,10.057,0.014,-1.028,0.110,12.244,-78.285,46.814
16:29:09:376,10.058,0.084,-0.884,0.263,9.942,-78.501,42.512
16:29:09:393,10.075,0.183,-0.410,0.451,1.372,-77.643,23.778
16:29:09:447,10.129,0.124,-0.057,0.436,-1.389,-76.795,15.972
16:29:09:448,10.130,-0.191,0.951,-0.011,-5.926,-74.156,3.115
16:29:09:503,10.185,-0.485,1.443,-1.190,-8.893,-71.552,-5.396
16:29:09:503,10.185,-0.753,0.889,-2.125,-12.365,-67.034,-17.025
16:29:09:524,10.206,-1.541,-0.718,-2.647,-14.634,-62.386,-24.229
16:29:09:578,10.260,-1.516,-0.411,-2.161,-14.861,-60.999,-24.689
16:29:09:579,10.261,0.174,1.172,1.540,-12.603,-61.169,-19.019
16:29:09:632,10.314,0.134,-0.230,-0.647,-11.996,-61.553,-15.537
16:29:09:632,10.314,-0.342,-0.209,-1.068,-12.078,-58.677,-9.122
16:29:09:685,10.367,-0.661,-0.037,-0.265,-12.053,-59.290,-4.632
16:29:09:685,10.367,0.021,0.253,0.296,-11.972,-61.671,-2.308
16:29:09:708,10.390,0.022,-0.023,-0.023,-12.498,-62.660,-0.043
16:29:09:794,10.475,-0.021,0.062,-0.397,-12.857,-61.694,0.934
16:29:09:794,10.475,-0.067,-0.018,-0.082,-12.892,-62.309,2.115
16:29:09:794,10.476,0.132,0.057,0.212,-12.742,-64.244,3.099
16:29:09:812,10.493,0.166,0.014,0.070,-12.603,-66.285,4.610
16:29:09:839,10.521,0.234,0.018,-0.023,-12.125,-67.606,6.644
16:29:09:864,10.546,0.077,0.184,0.000,-11.693,-68.559,8.237
16:29:09:89,10.572,0.018,0.227,0.171,-10.729,-70.421,10.833
16:29:09:917,10.599,0.056,0.260,0.388,-9.895,-71.665,12.650
16:29:09:973,10.655,0.149,0.192,0.544,-8.424,-73.158,15.853
16:29:09:974,10.655,0.158,0.350,0.889,-6.353,-73.740,20.323
16:29:09:996,10.677,0.364,0.199,1.050,-4.502,-74.020,24.101
16:29:10:051,10.733,1.060,0.185,1.615,-0.356,-75.089,30.747
16:29:10:052,10.734,1.180,0.616,1.465,3.337,-75.960,35.681
16:29:10:076,10.758,0.977,-0.303,1.114,6.253,-74.290,44.211
16:29:10:101,10.783,0.583,-0.010,0.229,7.972,-72.956,48.265
16:29:10:188,10.869,0.407,-0.155,-0.286,12.234,-72.337,52.402
16:29:10:189,10.870,0.169,-0.921,0.201,14.645,-71.723,51.584
16:29:10:19,10.871,0.041,-0.955,0.132,14.849,-71.312,49.076
16:29:10:232,10.913,0.349,-0.899,0.145,11.571,-70.000,37.835
16:29:10:261,10.943,0.415,-0.721,0.126,7.810,-68.312,28.271
16:29:10:262,10.944,0.470,-0.216,0.134,4.197,-66.092,17.246
16:29:10:313,10.995,0.337,0.319,-0.072,1.773,-64.384,9.286
16:29:10:314,10.996,0.100,1.213,-0.731,-2.548,-61.041,-2.928
16:29:10:419,11.101,-0.915,1.147,-2.076,-5.379,-57.834,-10.374
16:29:10:42,11.102,-1.323,0.406,-1.969,-8.889,-54.476,-20.531
16:29:10:451,11.133,-1.781,-0.511,-1.691,-11.940,-52.122,-25.281
16:29:10:451,11.133,-1.725,-0.462,-1.248,-11.746,-50.244,-24.341
16:29:10:451,11.133,-1.672,-0.024,-1.190,-8.671,-46.905,-18.337
16:29:10:468,11.150,0.193,-0.438,-1.066,-7.823,-45.622,-14.310
16:29:10:523,11.205,-0.618,-0.279,-0.797,-8.762,-42.661,-7.632
16:29:10:55,11.232,-0.460,0.060,0.029,-8.471,-42.216,-4.522
16:29:10:551,11.232,0.125,0.276,0.128,-8.105,-45.521,-1.017
16:29:10:602,11.284,0.006,-0.014,-0.026,-8.358,-46.674,1.452
16:29:10:603,11.284,-0.122,0.066,-0.208,-8.506,-46.028,2.700
16:29:10:655,11.337,-0.049,-0.074,-0.160,-8.152,-46.667,4.120
16:29:10:656,11.338,0.198,0.067,0.100,-7.725,-48.593,5.188
16:29:10:678,11.360,0.215,0.012,-0.045,-7.170,-50.434,6.772
16:29:10:763,11.444,0.016,0.122,0.154,-6.794,-51.143,7.846
16:29:10:763,11.445,-0.060,0.230,0.138,-5.970,-52.113,9.840
16:29:10:764,11.446,0.070,0.216,0.190,-4.903,-53.225,12.002
16:29:10:784,11.465,0.195,0.319,0.482,-4.022,-53.914,13.617
16:29:10:838,11.520,0.517,0.240,0.598,-2.343,-54.434,16.592
16:29:10:839,11.521,0.768,0.326,0.568,-0.987,-54.222,19.349
16:29:10:862,11.544,1.213,0.395,0.721,1.942,-53.948,25.132
16:29:10:947,11.628,1.624,0.495,0.903,7.146,-55.390,31.879
16:29:10:947,11.629,1.670,0.210,0.931,10.650,-55.183,37.224
16:29:10:948,11.630,0.794,-0.056,0.324,13.406,-52.363,44.604
16:29:10:967,11.649,0.411,-0.276,-0.152,16.056,-51.203,47.845
16:29:10:994,11.676,0.491,-1.150,0.172,19.067,-49.654,50.344
16:29:11:02,11.702,0.097,-0.836,0.040,19.311,-47.564,48.019
16:29:11:134,11.815,0.122,-0.973,-0.076,19.060,-46.744,44.670
16:29:11:134,11.816,0.339,-0.939,-0.009,17.206,-45.440,37.534
16:29:11:135,11.816,0.503,-0.764,-0.101,14.815,-43.932,31.822
16:29:11:136,11.817,0.608,-0.384,-0.208,10.833,-40.510,22.169
16:29:11:151,11.832,0.494,0.058,-0.342,8.408,-37.994,14.965
16:29:11:179,11.861,0.321,0.660,-0.593,4.788,-33.511,3.412
16:29:11:203,11.885,-0.676,1.271,-1.742,1.159,-27.356,-7.514
16:29:11:23,11.912,-1.172,0.649,-1.688,-0.338,-23.592,-14.393
16:29:11:255,11.937,-1.966,-0.106,-0.856,-3.856,-18.880,-22.059
16:29:11:284,11.965,-1.651,-0.403,-0.261,-5.193,-16.328,-24.699
16:29:11:31,11.992,-1.494,-0.361,0.163,-5.307,-12.627,-23.544
16:29:11:364,12.045,0.428,0.568,-0.115,-3.111,-6.400,-18.599
16:29:11:364,12.046,-1.631,0.663,1.654,-2.182,-3.079,-14.438
16:29:11:417,12.099,0.063,-0.368,-0.034,-2.388,-0.020,-7.964
16:29:11:417,12.099,-0.493,-0.247,-0.048,-3.018,2.523,-4.766
16:29:11:529,12.210,-0.246,0.118,0.164,-3.216,3.060,-0.882
16:29:11:529,12.211,0.038,0.083,0.015,-3.331,2.051,0.922
16:29:11:529,12.211,-0.178,0.108,0.077,-3.487,1.829,3.157
16:29:11:529,12.211,-0.184,0.061,0.004,-3.628,1.830,4.826
16:29:11:573,12.255,0.091,0.036,0.013,-3.481,1.145,5.707
16:29:11:574,12.256,0.018,0.022,-0.116,-3.280,-0.168,6.960
16:29:11:6,12.282,0.057,0.129,-0.030,-3.189,-0.652,7.837
16:29:11:623,12.305,0.103,0.168,0.011,-2.871,-1.500,9.225
16:29:11:65,12.332,0.155,0.186,-0.009,-2.267,-2.504,10.867
16:29:11:707,12.389,0.261,0.286,0.018,-1.669,-3.134,12.170
16:29:11:71,12.391,0.576,0.261,0.026,-0.325,-3.986,14.566
16:29:11:73,12.411,0.780,0.228,-0.210,0.817,-4.208,16.677
16:29:11:837,12.519,1.765,0.255,-0.672,7.264,-4.843,27.313
16:29:11:838,12.520,1.551,0.447,-0.595,10.357,-4.881,32.143
16:29:11:862,12.544,1.215,-0.214,-0.595,13.422,-2.611,40.686
16:29:11:863,12.545,0.651,-0.267,-0.459,15.917,-1.717,44.508
16:29:11:887,12.568,-0.007,-0.557,-0.382,18.805,-0.992,48.622
16:29:12:026,12.708,0.547,-1.150,-0.200,18.247,0.528,48.406
16:29:12:027,12.709,0.066,-0.897,-0.142,16.686,1.073,45.997
16:29:12:028,12.709,0.194,-0.912,-0.267,14.113,1.393,39.875
16:29:12:029,12.710,0.253,-0.749,-0.275,11.696,1.522,34.644
16:29:12:046,12.728,0.393,-0.560,-0.220,7.636,1.951,25.128
16:29:12:047,12.728,0.425,0.024,-0.170,4.979,2.206,17.998
16:29:12:101,12.783,0.232,0.585,-0.159,0.544,3.338,6.348
16:29:12:101,12.783,-1.128,1.444,-0.068,-4.478,7.212,-5.330
16:29:12:122,12.804,-1.765,1.293,0.147,-6.686,11.020,-12.880
16:29:12:149,12.831,-2.655,-0.149,0.593,-8.729,16.937,-21.823
16:29:12:205,12.886,-2.383,-0.532,1.158,-9.807,19.894,-24.706
16:29:12:205,12.887,-1.884,-0.568,1.027,-9.620,21.596,-23.033
16:29:12:256,12.937,0.986,0.475,1.261,-8.053,22.956,-16.993
16:29:12:341,13.023,-1.241,0.676,-0.248,-6.579,24.606,-14.611
16:29:12:342,13.024,-0.729,0.358,0.882,-7.521,28.699,-8.669
16:29:12:343,13.025,-0.618,0.029,0.453,-7.354,29.867,-5.669
16:29:12:343,13.025,0.034,0.034,-0.003,-7.366,26.552,-2.206
16:29:12:419,13.101,0.180,0.040,-0.088,-7.613,23.846,0.370
16:29:12:42,13.102,-0.190,0.104,0.038,-7.913,24.188,1.595
16:29:12:421,13.102,-0.151,0.001,0.023,-8.069,24.205,2.919
16:29:12:422,13.103,0.121,0.050,-0.072,-7.912,22.672,3.838
16:29:12:464,13.145,0.048,-0.029,-0.207,-7.613,20.241,5.333
16:29:12:521,13.203,0.055,0.098,-0.068,-7.298,19.265,6.551
16:29:12:522,13.204,0.103,0.174,0.060,-6.739,18.273,8.520
16:29:12:523,13.205,0.178,0.185,0.005,-5.869,17.097,10.688
16:29:12:571,13.253,0.347,0.266,-0.117,-5.134,16.511,12.360
16:29:12:572,13.254,0.495,0.223,-0.211,-3.812,15.935,15.375
16:29:12:684,13.366,0.667,0.366,-0.308,-2.612,15.928,18.202
16:29:12:684,13.366,0.958,0.332,-0.610,0.255,15.301,23.572
16:29:12:685,13.367,1.566,0.132,-1.078,4.927,13.633,29.946
16:29:12:685,13.367,1.417,0.427,-1.123,8.277,13.236,35.001
16:29:12:699,13.381,1.008,-0.310,-0.962,10.853,15.385,43.128
16:29:12:726,13.408,0.406,-0.189,-0.652,13.137,16.301,46.498
16:29:12:811,13.493,-0.411,-0.164,-0.309,15.834,17.367,49.865
16:29:12:811,13.493,0.327,-1.075,-0.241,16.123,18.950,47.962
16:29:12:812,13.493,0.062,-0.896,-0.086,15.564,19.165,44.802
16:29:12:832,13.514,0.065,-0.995,-0.244,14.045,18.987,37.691
16:29:12:885,13.567,0.221,-0.864,-0.291,12.137,18.873,31.813
16:29:12:942,13.624,0.240,-0.621,-0.349,8.428,19.593,21.907
16:29:12:943,13.625,0.263,-0.161,-0.374,5.765,20.569,14.667
16:29:12:943,13.625,0.040,0.472,-0.153,1.452,23.196,3.018
16:29:12:963,13.645,-1.005,1.345,0.207,-2.694,28.690,-8.154
16:29:12:989,13.670,-1.799,0.785,0.700,-3.970,33.684,-14.955
16:29:13:015,13.696,-2.188,0.240,1.454,-5.262,40.945,-22.254
16:29:13:1,13.782,-1.607,-0.494,1.682,-5.625,44.099,-24.390
16:29:13:101,13.782,-1.145,-0.310,1.289,-5.101,45.949,-22.258
16:29:13:101,13.782,1.345,0.808,-1.340,-3.642,48.436,-16.364
16:29:13:121,13.802,-1.363,0.504,0.861,-2.972,49.740,-13.472
16:29:13:173,13.854,-0.836,-0.502,0.939,-3.861,52.707,-7.341
16:29:13:203,13.885,-0.056,0.043,0.526,-4.004,52.626,-4.476
16:29:13:203,13.885,0.026,0.190,-0.045,-4.376,50.534,-1.171
16:29:13:224,13.906,-0.070,0.044,-0.046,-4.522,49.944,0.668
16:29:13:281,13.963,-0.151,0.066,0.088,-4.687,50.268,2.962
16:29:13:282,13.964,-0.168,0.068,0.172,-4.371,49.664,4.631
16:29:13:303,13.985,0.021,0.046,-0.025,-4.016,48.356,5.548
16:29:13:359,14.040,-0.039,0.051,-0.207,-3.619,46.751,6.718
16:29:13:359,14.041,0.106,0.054,-0.136,-3.291,46.047,7.449
16:29:13:382,14.064,0.062,0.066,-0.153,-2.642,45.439,9.021
16:29:13:409,14.091,-0.021,0.171,-0.176,-1.791,45.096,11.061
16:29:13:465,14.147,0.108,0.249,-0.291,-0.925,45.441,12.652
16:29:13:465,14.147,0.495,0.209,-0.481,0.788,44.626,15.673
16:29:13:487,14.169,0.553,0.324,-0.708,2.298,45.564,18.552
16:29:13:515,14.197,0.699,0.274,-1.366,5.677,45.791,24.336
16:29:13:568,14.250,0.390,0.492,-1.728,10.165,46.078,31.578
16:29:13:569,14.251,0.359,0.303,-1.694,12.591,47.310,37.151
16:29:13:592,14.274,0.200,-0.233,-0.937,15.516,49.788,44.088
16:29:13:618,14.300,-0.072,-0.275,-0.991,17.522,50.865,47.206
16:29:13:648,14.330,-0.082,-0.699,-0.333,18.912,53.239,48.570
16:29:13:671,14.352,0.030,-1.119,-0.367,18.804,54.425,46.999
16:29:13:724,14.406,-0.124,-0.865,-0.066,17.497,56.163,41.839
16:29:13:753,14.435,-0.094,-0.909,-0.327,14.821,57.552,34.709
16:29:13:754,14.435,-0.138,-0.736,-0.407,12.237,59.062,28.729
16:29:13:776,14.458,-0.201,-0.443,-0.447,8.560,61.683,18.645
16:29:13:802,14.484,-0.231,0.192,-0.399,6.169,63.829,11.387
16:29:13:857,14.539,-0.530,1.021,0.066,2.189,69.232,0.315
16:29:13:858,14.540,-0.923,1.246,1.222,-0.681,76.991,-9.893
16:29:13:883,14.564,-0.891,0.672,1.806,-1.346,81.816,-16.006
16:29:13:934,14.615,-0.389,-0.544,2.616,-1.923,88.219,-21.102
16:29:13:964,14.646,0.039,-0.435,2.198,-2.032,90.442,-21.244
16:29:13:965,14.647,0.000,1.207,-0.378,-0.857,91.171,-16.439
16:29:14:015,14.697,0.150,0.775,-0.522,-0.982,90.997,-11.795
16:29:14:016,14.698,0.300,-0.688,1.439,-1.910,93.312,-4.490
16:29:14:038,14.720,0.125,-0.092,0.318,-1.731,94.482,0.079
16:29:14:065,14.746,-0.028,0.464,0.126,-2.025,94.201,2.195
16:29:14:093,14.774,0.078,0.084,-0.019,-2.320,93.767,4.505
16:29:14:146,14.828,0.024,0.043,0.249,-2.438,93.741,5.962
16:29:14:147,14.829,-0.063,-0.004,0.061,-2.377,92.837,7.217
16:29:14:17,14.852,-0.076,0.010,-0.044,-2.136,91.177,7.860
16:29:14:195,14.877,-0.151,0.030,-0.023,-2.033,90.158,8.270
16:29:14:222,14.904,-0.067,0.050,-0.214,-1.754,88.391,8.947
16:29:14:248,14.930,0.003,0.081,-0.297,-1.440,87.236,9.641
16:29:14:302,14.983,-0.011,0.088,-0.194,-0.878,86.552,11.227
16:29:14:333,15.015,-0.111,0.200,-0.215,-0.199,86.833,13.203
16:29:14:333,15.015,-0.135,0.205,-0.347,0.500,86.802,14.798
16:29:14:353,15.035,-0.141,0.286,-0.638,2.103,86.727,17.970
16:29:14:38,15.062,-0.161,0.286,-0.756,3.676,86.744,20.814
16:29:14:436,15.118,-0.443,0.267,-1.494,7.539,86.032,26.178
16:29:14:437,15.118,-0.635,0.193,-1.798,11.225,85.140,30.312
16:29:14:458,15.140,-0.877,0.377,-1.869,15.797,86.386,38.343
16:29:14:486,15.167,-0.604,-0.481,-0.884,17.919,89.997,45.621
16:29:14:513,15.195,-0.292,-0.319,0.300,19.788,91.218,48.512
16:29:14:537,15.219,-0.399,-0.779,-0.268,21.401,93.517,49.986
16:29:14:593,15.274,-0.201,-0.907,-0.156,20.383,94.888,48.396
16:29:14:595,15.277,-0.205,-0.925,0.012,18.264,96.098,42.973
16:29:14:645,15.326,-0.391,-1.046,-0.096,15.393,97.143,35.438
16:29:14:646,15.328,-0.477,-0.723,-0.203,12.391,98.326,29.441
16:29:14:669,15.350,-0.574,-0.237,-0.181,7.822,100.763,19.586
16:29:14:724,15.406,-0.495,0.226,-0.052,4.888,102.388,12.381
16:29:14:724,15.406,-0.353,0.910,0.447,-0.146,106.113,1.364
16:29:14:747,15.429,0.333,1.055,1.908,-4.545,111.299,-8.968
16:29:14:773,15.455,0.766,0.431,1.812,-6.698,112.932,-15.243
16:29:14:802,15.483,0.978,-0.115,1.992,-10.031,114.369,-21.021
16:29:14:827,15.509,1.396,-0.238,1.439,-11.064,115.659,-21.841
16:29:14:855,15.536,1.530,-0.092,1.247,-10.660,117.618,-18.774
16:29:14:855,15.537,1.573,0.662,-1.462,-9.192,120.127,-14.906
16:29:14:909,15.591,0.125,0.697,0.717,-7.582,124.062,-10.865
16:29:14:909,15.591,0.070,-0.527,0.663,-7.759,128.841,-6.141
16:29:14:96,15.642,0.500,0.485,0.489,-8.430,129.763,-3.515
16:29:14:961,15.643,0.118,-0.005,0.168,-8.480,126.864,0.032
16:29:14:986,15.667,-0.034,0.017,-0.244,-8.454,124.869,1.844
16:29:15:011,15.693,0.110,0.134,0.082,-8.839,124.298,4.066
16:29:15:037,15.719,-0.031,0.069,0.118,-9.068,123.640,5.802
16:29:15:063,15.745,-0.073,-0.006,0.004,-8.960,122.606,6.811
16:29:15:119,15.801,-0.145,0.082,-0.083,-8.711,120.733,8.332
16:29:15:119,15.801,-0.171,0.028,-0.067,-8.415,119.695,9.469
16:29:15:14,15.822,-0.129,0.175,-0.118,-7.918,118.420,11.452
16:29:15:196,15.878,-0.146,0.179,-0.161,-7.467,117.525,13.020
16:29:15:197,15.878,-0.190,0.251,-0.297,-6.519,116.079,15.708
16:29:15:22,15.901,-0.420,0.155,-0.512,-5.215,114.986,19.037
16:29:15:304,15.986,-0.521,0.276,-0.763,-4.077,114.704,21.996
16:29:15:304,15.986,-0.696,0.315,-0.907,-1.529,114.336,27.861
16:29:15:305,15.987,-1.489,0.306,-1.418,1.530,113.247,32.421
16:29:15:324,16.006,-1.422,0.268,-1.387,7.780,111.306,39.737
16:29:15:378,16.059,-1.003,-0.355,-0.958,11.358,112.008,47.611
16:29:15:464,16.146,-0.575,-0.288,-0.564,15.028,111.584,50.562
16:29:15:465,16.147,-0.369,-0.898,-0.170,20.251,110.257,53.273
16:29:15:466,16.148,-0.298,-1.267,-0.393,20.879,109.654,52.529
16:29:15:467,16.149,0.012,-1.049,-0.194,18.353,108.613,48.714
16:29:15:509,16.191,-0.152,-0.879,-0.143,12.458,108.383,42.596
16:29:15:566,16.248,-0.156,-0.785,-0.313,8.325,108.340,37.211
16:29:15:567,16.249,-0.149,-0.512,-0.449,3.044,108.340,27.266
16:29:15:568,16.249,-0.027,0.039,-0.519,0.100,108.192,19.775
16:29:15:587,16.268,0.066,0.457,-0.316,-4.208,108.578,7.724
16:29:15:615,16.297,0.618,1.238,0.843,-7.208,109.713,-0.439
16:29:15:697,16.379,1.078,1.344,1.727,-11.027,111.778,-12.130
16:29:15:698,16.380,1.732,-0.234,2.822,-13.167,116.535,-20.629
16:29:15:699,16.381,1.644,-0.491,2.363,-13.301,118.725,-22.004
16:29:15:719,16.400,-0.197,1.264,-2.004,-11.311,119.727,-17.309
16:29:15:745,16.426,0.170,1.103,0.479,-9.981,119.112,-14.107
16:29:15:797,16.479,0.512,-0.159,1.010,-9.722,121.771,-7.496
16:29:15:828,16.510,0.510,0.021,0.498,-9.798,122.596,-2.694
16:29:15:829,16.511,0.233,0.063,0.011,-9.395,120.111,-0.307
16:29:15:85,16.532,-0.133,0.030,-0.232,-9.479,117.428,2.534
16:29:15:963,16.645,-0.091,0.054,0.113,-9.780,118.015,3.915
16:29:15:964,16.645,-0.024,0.036,0.324,-9.859,118.075,5.387
16:29:15:965,16.646,-0.109,0.027,-0.179,-9.260,115.319,6.978
16:29:15:966,16.647,-0.197,0.041,-0.188,-8.949,113.818,8.024
16:29:15:981,16.662,-0.348,-0.009,-0.003,-8.501,112.435,9.724
16:29:16:007,16.689,-0.007,0.143,-0.173,-8.087,111.539,11.021
16:29:16:036,16.718,0.060,0.166,-0.209,-7.188,110.034,13.307
16:29:16:089,16.771,-0.161,0.315,-0.394,-6.478,109.155,14.991
16:29:16:09,16.772,-0.339,0.199,-0.566,-5.119,108.030,18.025
16:29:16:141,16.822,-0.457,0.259,-0.790,-3.188,107.614,22.449
16:29:16:142,16.823,-0.637,0.257,-1.022,-1.288,107.398,26.436
16:29:16:164,16.846,-1.449,0.415,-1.462,3.372,106.112,33.441
16:29:16:304,16.985,-1.372,0.354,-1.451,8.211,104.329,38.156
16:29:16:304,16.985,-0.933,-0.112,-1.119,13.719,104.337,46.376
16:29:16:304,16.986,-0.256,-0.039,-0.558,20.340,104.292,51.654
16:29:16:329,17.011,-0.470,-0.121,0.141,24.870,104.069,54.538
16:29:16:329,17.011,-0.133,-1.034,-0.258,26.747,104.329,54.918
16:29:16:33,17.011,0.107,-1.171,0.006,25.088,104.226,53.523
16:29:16:378,17.060,0.008,-1.036,0.040,19.162,104.630,49.230
16:29:16:378,17.060,-0.002,-0.964,-0.341,14.783,104.797,45.023
16:29:16:43,17.112,0.011,-0.745,-0.472,9.053,104.890,36.773
16:29:16:456,17.138,-0.025,-0.452,-0.527,4.479,105.371,27.016
16:29:16:457,17.139,-0.013,-0.189,-0.425,1.946,106.042,19.590
16:29:16:509,17.190,0.075,0.562,0.049,-1.488,107.747,7.257
16:29:16:509,17.191,0.213,1.114,0.961,-4.593,110.116,-5.324
16:29:16:534,17.216,0.754,1.096,1.913,-6.266,113.341,-12.817
16:29:16:56,17.242,1.493,-0.380,2.673,-7.272,119.519,-20.243
16:29:16:586,17.268,1.381,-0.437,2.176,-7.606,121.540,-21.558
16:29:16:7,17.382,-0.066,2.040,-1.871,-5.947,122.728,-16.362
16:29:16:701,17.382,0.740,1.209,1.956,-4.924,123.093,-12.274
16:29:16:701,17.382,0.413,-0.381,1.591,-5.224,126.965,-4.646
16:29:16:701,17.382,0.478,0.026,-0.008,-5.136,126.046,0.447
16:29:16:717,17.398,-0.031,0.287,-0.060,-5.083,124.162,2.831
16:29:16:773,17.455,0.076,-0.014,0.061,-5.453,123.415,5.126
16:29:16:773,17.455,-0.100,0.087,0.264,-5.725,123.455,6.334
16:29:16:795,17.477,-0.035,0.023,0.235,-5.570,122.182,7.308
16:29:16:82,17.502,-0.210,0.049,-0.106,-4.950,119.425,8.060
16:29:16:902,17.583,-0.159,0.149,-0.210,-4.770,118.185,8.482
16:29:16:985,17.667,-0.066,0.069,-0.186,-4.338,116.655,9.458
16:29:16:986,17.668,-0.215,-0.059,-0.081,-3.909,115.172,10.481
16:29:16:986,17.668,-0.243,0.123,-0.045,-3.024,114.403,12.605
16:29:17:01,17.692,-0.143,0.286,-0.335,-2.158,113.023,14.260
16:29:17:011,17.693,-0.312,0.078,-0.627,-0.518,111.904,17.193
16:29:17:012,17.694,-0.430,0.329,-0.977,1.739,111.571,21.860
16:29:17:163,17.845,-0.797,0.286,-1.027,3.858,111.725,26.183
16:29:17:188,17.870,-1.525,0.635,-1.412,8.686,110.748,33.583
16:29:17:216,17.898,-1.118,0.011,-0.961,12.194,110.442,38.980
16:29:17:381,18.063,-0.700,-0.168,-0.786,16.384,111.617,46.738
16:29:17:382,18.064,-0.394,-0.457,-0.042,22.037,111.082,50.815
16:29:17:383,18.065,-0.317,-1.371,-0.380,24.527,110.615,50.902
16:29:17:384,18.066,-0.144,-1.172,-0.174,24.080,110.209,47.487
16:29:17:407,18.089,-0.258,-0.929,-0.016,21.923,110.059,43.550
16:29:17:408,18.090,-0.330,-0.797,-0.135,17.079,111.031,36.202
16:29:17:408,18.090,-0.311,-0.680,-0.143,12.426,112.133,26.414
16:29:17:428,18.110,-0.323,-0.248,-0.098,9.627,112.671,18.940
16:29:17:429,18.110,-0.221,0.391,-0.025,5.330,113.596,7.003
16:29:17:458,18.139,-0.090,1.116,0.654,1.960,115.898,-0.596
16:29:17:459,18.140,0.666,1.198,1.383,-2.303,123.687,-10.014
16:29:17:46,18.141,1.389,0.614,1.843,-3.537,131.014,-15.360
16:29:17:486,18.167,1.626,-0.772,1.533,-4.145,138.082,-19.563
16:29:17:486,18.168,1.652,-0.535,1.223,-3.247,143.173,-17.324
16:29:17:487,18.169,-1.495,0.570,0.994,-1.991,147.347,-13.098
16:29:17:488,18.169,-0.983,0.304,-0.645,-2.689,148.734,-4.694
16:29:17:504,18.186,0.634,-0.491,0.191,-2.871,149.545,-0.482
16:29:17:588,18.270,0.535,0.046,-0.142,-2.787,150.271,4.365
16:29:17:588,18.270,0.043,0.424,0.061,-2.482,149.955,7.163
16:29:17:589,18.271,0.092,0.089,0.054,-2.083,150.089,8.434
16:29:17:61,18.292,0.033,0.070,0.089,-1.328,149.895,9.673
16:29:17:664,18.345,-0.112,0.297,-0.200,-0.836,149.309,10.049
16:29:17:664,18.346,-0.162,-0.060,0.005,-0.203,148.524,10.408
16:29:17:768,18.450,-0.110,-0.131,0.133,0.052,148.493,10.657
16:29:17:8,18.482,-0.188,-0.067,0.062,0.653,148.284,11.264
16:29:17:801,18.483,-0.153,0.046,-0.005,1.447,148.132,12.297
16:29:17:802,18.484,-0.178,0.094,-0.035,2.100,148.148,13.215
16:29:17:803,18.485,-0.469,0.085,-0.236,3.618,147.721,14.981
16:29:17:959,18.641,-0.763,0.137,-0.187,4.865,147.887,16.785
16:29:17:96,18.642,-0.980,0.206,-0.193,7.424,148.817,20.919
16:29:17:96,18.642,-1.849,0.346,0.057,11.595,149.875,26.820
16:29:17:961,18.643,-1.678,0.309,0.100,14.647,150.994,31.638
16:29:17:981,18.663,-1.456,0.077,0.211,18.492,154.424,40.034
16:29:17:982,18.664,-1.034,-0.377,0.147,20.914,156.382,44.321
16:29:17:983,18.665,-0.160,-0.289,0.345,24.177,158.622,48.767
16:29:18:032,18.713,-0.566,-1.182,0.069,24.458,161.346,48.618
16:29:18:032,18.714,-0.315,-0.900,0.099,23.139,162.425,46.388
16:29:18:055,18.736,-0.285,-0.943,0.227,20.306,164.311,41.071
16:29:18:141,18.823,-0.406,-0.834,0.235,17.284,166.018,36.535
16:29:18:141,18.823,-0.390,-0.514,0.381,12.115,169.492,28.198
16:29:18:141,18.823,-0.386,-0.281,0.412,8.945,171.945,21.777
16:29:18:188,18.870,-0.239,0.332,0.551,4.390,176.113,11.020
16:29:18:189,18.871,0.821,1.263,0.736,-0.162,-178.945,-0.129
16:29:18:243,18.925,1.686,0.950,0.561,-2.561,-176.086,-7.587
16:29:18:244,18.925,2.623,0.426,-0.114,-6.199,-173.579,-16.719
16:29:18:323,19.005,2.159,-0.349,-0.722,-8.139,-172.583,-20.114
16:29:18:323,19.005,2.035,-0.437,-0.940,-8.528,-169.902,-19.476
16:29:18:324,19.006,0.196,0.608,-1.004,-6.143,-165.903,-13.613
16:29:18:536,19.218,0.749,0.098,0.704,-5.339,-163.606,-10.053
16:29:18:537,19.219,1.236,-0.369,-0.394,-6.332,-159.156,-4.108
16:29:18:538,19.220,0.767,0.116,-0.577,-6.336,-157.673,-1.472
16:29:18:539,19.221,-0.401,0.052,0.011,-5.924,-161.256,1.594
16:29:18:59,19.271,-0.151,-0.011,0.045,-6.028,-162.711,3.195
16:29:18:59,19.272,0.312,0.063,0.045,-6.586,-161.453,4.942
16:29:18:591,19.273,-0.093,-0.037,0.032,-6.411,-162.024,6.107
16:29:18:592,19.273,-0.305,-0.018,0.106,-6.148,-163.635,6.941
16:29:18:64,19.322,-0.093,0.056,0.097,-5.955,-164.761,8.268
16:29:18:642,19.323,-0.089,0.133,0.032,-5.766,-165.033,9.299
16:29:18:643,19.324,-0.130,0.216,-0.058,-5.244,-165.626,11.071
16:29:18:643,19.325,-0.305,0.215,0.032,-4.257,-166.890,13.070
16:29:18:659,19.341,-0.493,0.134,0.274,-3.353,-167.681,14.620
16:29:18:713,19.395,-0.615,0.203,0.329,-1.732,-167.892,17.647
16:29:18:714,19.396,-0.707,0.335,0.528,-0.372,-167.475,20.551
16:29:18:766,19.448,-1.245,0.385,0.985,2.721,-167.097,26.333
16:29:18:767,19.448,-1.343,0.329,1.175,6.076,-167.533,30.828
16:29:18:79,19.471,-1.332,0.253,1.051,11.880,-168.112,38.271
16:29:18:818,19.499,-0.807,-0.379,0.516,16.413,-167.000,45.754
16:29:18:843,19.525,-0.661,-0.571,0.506,19.465,-166.837,48.724
16:29:18:898,19.580,-0.202,-1.067,0.410,23.308,-166.644,51.132
16:29:18:898,19.580,-0.298,-1.236,0.168,22.869,-166.548,50.464
16:29:18:95,19.631,-0.043,-1.072,0.020,19.417,-166.670,46.198
16:29:19:006,19.687,-0.178,-0.869,0.121,16.126,-167.056,42.158
16:29:19:006,19.687,-0.322,-0.728,0.098,10.154,-167.193,34.590
16:29:19:029,19.711,-0.429,-0.448,0.115,4.728,-166.912,25.305
16:29:19:029,19.711,-0.575,-0.014,0.089,1.453,-166.389,18.325
16:29:19:052,19.734,-0.263,0.550,0.038,-3.391,-164.222,6.926
16:29:19:078,19.760,0.920,0.901,-0.276,-7.895,-160.251,-4.810
16:29:19:104,19.786,1.714,1.141,-0.621,-10.605,-157.194,-12.270
16:29:19:16,19.842,2.618,-0.090,-1.473,-12.612,-151.998,-20.800
16:29:19:161,19.842,1.978,-0.539,-1.517,-13.789,-150.544,-22.635
16:29:19:186,19.867,-0.842,0.753,1.021,-12.875,-149.684,-19.309
16:29:19:21,19.891,1.845,-0.147,-1.951,-11.422,-147.970,-15.446
16:29:19:236,19.918,1.015,-0.342,0.170,-9.534,-145.351,-10.011
16:29:19:294,19.976,0.799,-0.026,-0.498,-9.991,-141.070,-5.028
16:29:19:294,19.976,0.250,0.143,-0.770,-9.836,-142.086,-1.973
16:29:19:295,19.977,-0.281,0.065,0.149,-9.534,-146.276,1.704
16:29:19:343,20.025,0.064,0.015,-0.104,-9.557,-146.889,3.338
16:29:19:396,20.078,0.332,0.173,-0.096,-9.853,-145.880,5.015
16:29:19:397,20.078,-0.093,0.033,0.082,-9.380,-147.675,6.564
16:29:19:422,20.104,-0.159,0.039,0.192,-8.978,-149.529,7.474
16:29:19:423,20.105,-0.233,-0.015,0.226,-8.397,-151.360,8.799
16:29:19:476,20.158,-0.147,0.057,0.060,-8.019,-151.949,9.855
16:29:19:476,20.158,-0.077,0.078,0.024,-7.350,-152.160,11.874
16:29:19:498,20.180,-0.146,0.107,0.084,-6.772,-152.502,13.442
16:29:19:525,20.207,-0.324,0.193,0.150,-5.564,-153.253,16.040
16:29:19:551,20.232,-0.483,0.245,0.372,-4.073,-153.670,19.086
16:29:19:609,20.291,-0.683,0.297,0.405,-2.776,-153.715,21.702
16:29:19:609,20.291,-0.970,0.318,0.918,0.132,-153.856,26.806
16:29:19:687,20.369,-1.328,0.209,1.389,3.351,-154.452,30.934
16:29:19:688,20.370,-1.227,0.434,1.429,9.360,-154.998,38.027
16:29:19:689,20.371,-0.745,-0.340,1.035,12.425,-152.103,46.249
16:29:19:711,20.393,-0.533,-0.176,0.712,14.466,-150.504,49.970
16:29:19:764,20.446,0.184,-0.386,0.348,18.151,-148.285,53.656
16:29:19:764,20.446,-0.059,-1.040,0.218,18.935,-147.335,53.374
16:29:19:787,20.469,-0.071,-1.052,0.152,18.255,-146.257,49.861
16:29:19:872,20.554,0.072,-0.955,0.161,17.074,-145.865,45.904
16:29:19:873,20.555,-0.085,-0.828,0.311,13.599,-144.896,38.438
16:29:19:873,20.555,-0.142,-0.635,0.372,9.517,-143.540,29.031
16:29:19:892,20.574,-0.198,-0.325,0.428,7.050,-142.595,21.973
16:29:19:918,20.600,-0.162,0.383,0.401,3.354,-140.746,10.382
16:29:19:974,20.656,0.493,1.656,0.074,0.451,-138.095,2.344
16:29:19:975,20.657,1.401,1.230,-0.544,-3.214,-131.606,-8.729
16:29:19:998,20.680,1.912,0.160,-2.197,-4.518,-122.979,-17.736
16:29:20:024,20.706,1.555,-0.618,-2.169,-5.170,-119.027,-20.829
16:29:20:049,20.731,0.716,-0.092,-1.437,-5.931,-118.771,-20.228
16:29:20:076,20.757,0.971,0.373,-2.169,-4.934,-118.331,-16.318
16:29:20:16,20.842,1.006,1.380,-0.647,-4.140,-117.240,-9.666
16:29:20:161,20.843,0.155,-0.474,-0.585,-5.156,-113.828,-2.534
16:29:20:162,20.844,0.002,-0.022,-0.279,-4.984,-113.533,0.465
16:29:20:181,20.863,0.062,0.335,0.021,-4.988,-115.237,4.093
16:29:20:207,20.889,-0.044,0.076,-0.100,-4.633,-115.680,5.630
16:29:20:292,20.973,0.112,-0.021,-0.136,-4.117,-115.744,7.436
16:29:20:292,20.974,0.035,0.016,-0.035,-3.611,-116.118,8.026
16:29:20:293,20.975,-0.160,0.195,0.129,-2.944,-117.045,8.648
16:29:20:314,20.996,-0.115,-0.013,0.098,-2.503,-117.810,9.249
16:29:20:338,21.020,-0.089,-0.120,0.144,-2.216,-118.038,9.826
16:29:20:503,21.185,-0.067,0.045,0.138,-1.675,-117.962,11.062
16:29:20:503,21.185,-0.052,0.046,0.151,-1.208,-117.595,12.144
16:29:20:504,21.185,-0.106,0.230,0.251,-0.345,-117.058,14.049
16:29:20:559,21.241,-0.150,0.136,0.546,1.150,-116.938,16.531
16:29:20:56,21.242,-0.131,0.115,0.691,2.534,-116.561,18.841
16:29:20:56,21.242,-0.068,0.228,1.083,5.739,-115.953,23.746
16:29:20:56,21.242,0.131,0.403,1.845,8.936,-115.769,27.805
16:29:20:608,21.290,0.139,0.243,1.784,13.487,-113.987,35.285
16:29:20:608,21.290,0.229,-0.171,1.308,15.475,-111.474,40.797
16:29:20:608,21.290,0.056,-0.508,1.054,17.840,-108.404,46.738
16:29:20:685,21.367,0.216,0.024,0.019,19.879,-106.764,49.820
16:29:20:686,21.367,0.231,-1.116,0.454,19.747,-105.831,49.485
16:29:20:687,21.368,0.066,-0.953,0.163,18.166,-105.639,45.650
16:29:20:706,21.387,0.164,-0.989,0.214,16.582,-105.556,41.888
16:29:20:732,21.414,0.172,-0.814,0.339,11.948,-104.451,34.909
16:29:20:758,21.440,0.151,-0.490,0.362,6.951,-102.672,26.030
16:29:20:784,21.466,0.138,-0.268,0.431,3.951,-101.447,19.245
16:29:20:81,21.492,0.156,0.379,0.332,-0.753,-98.080,7.934
16:29:20:837,21.519,0.372,1.106,-0.731,-3.909,-94.424,0.122
16:29:20:893,21.574,0.156,1.366,-1.622,-7.459,-88.190,-11.107
16:29:20:893,21.575,0.011,0.177,-2.756,-9.046,-82.173,-20.007
16:29:20:976,21.658,-0.729,-0.550,-2.591,-9.885,-79.467,-22.579
16:29:20:976,21.658,-0.602,-0.391,-2.097,-8.943,-77.295,-20.211
16:29:20:976,21.658,-1.054,0.040,-2.439,-7.635,-76.094,-15.852
16:29:20:996,21.678,-0.029,-0.132,-0.635,-7.523,-74.577,-9.480
16:29:21:022,21.703,-0.183,-0.417,-1.057,-7.724,-72.345,-4.253
16:29:21:075,21.756,-0.278,-0.112,-0.182,-7.707,-73.745,-1.717
16:29:21:104,21.786,-0.069,0.240,0.081,-8.212,-75.772,1.039
16:29:21:104,21.786,-0.118,0.115,-0.078,-8.449,-75.977,2.286
16:29:21:127,21.809,0.053,0.007,-0.206,-8.619,-76.798,3.461
16:29:21:152,21.834,0.035,0.019,0.079,-8.415,-78.195,3.947
16:29:21:18,21.862,0.034,0.072,0.160,-8.160,-80.528,4.703
16:29:21:206,21.887,0.046,-0.013,0.129,-7.969,-81.874,5.595
16:29:21:231,21.912,0.138,-0.102,0.236,-7.778,-82.369,6.479
16:29:21:257,21.939,0.042,-0.018,0.146,-7.516,-82.183,8.361
16:29:21:372,22.054,-0.087,0.173,-0.007,-7.332,-81.615,9.860
16:29:21:372,22.054,-0.108,0.239,0.155,-6.642,-81.550,12.230
16:29:21:372,22.054,0.078,0.169,0.442,-5.575,-81.741,14.883
16:29:21:373,22.055,0.224,0.270,0.481,-4.658,-81.262,17.112
16:29:21:448,22.129,0.395,0.348,0.621,-2.477,-80.985,21.580
16:29:21:448,22.129,0.556,0.449,1.107,-0.069,-81.482,25.306
16:29:21:448,22.130,0.882,0.255,1.522,5.260,-82.683,31.605
16:29:21:526,22.208,0.839,0.310,1.181,8.078,-81.974,36.817
16:29:21:526,22.208,0.761,-0.275,0.927,10.233,-79.355,44.299
16:29:21:527,22.209,0.276,-0.325,0.043,12.468,-77.233,49.019
16:29:21:546,22.228,0.177,-0.016,-0.134,13.386,-76.943,50.438
16:29:21:634,22.316,0.268,-1.171,0.295,13.693,-76.043,48.797
16:29:21:634,22.316,0.092,-1.078,0.007,12.824,-76.407,45.651
16:29:21:635,22.316,0.184,-0.959,0.048,9.704,-76.373,39.553
16:29:21:636,22.317,0.269,-0.715,0.316,5.235,-75.696,31.646
16:29:21:68,22.362,0.253,-0.453,0.307,2.374,-75.077,25.408
16:29:21:68,22.362,0.181,-0.114,0.340,-1.706,-74.123,14.936
16:29:21:704,22.386,0.073,0.680,0.019,-4.753,-72.530,7.330
16:29:21:838,22.519,-0.341,1.225,-0.991,-9.335,-68.778,-4.453
16:29:21:839,22.520,-0.875,1.019,-1.719,-12.959,-65.720,-15.972
16:29:21:869,22.551,-1.362,0.028,-2.503,-15.067,-63.825,-21.514
16:29:21:87,22.552,-1.724,-0.519,-1.756,-17.052,-62.267,-24.150
16:29:21:871,22.553,-0.906,-0.332,-1.771,-15.709,-61.166,-21.539
16:29:21:916,22.598,0.191,-0.030,0.030,-12.445,-58.077,-11.891
16:29:21:917,22.599,-1.018,0.139,-0.833,-12.529,-54.198,-7.485
16:29:21:94,22.622,-0.363,0.158,0.117,-12.534,-58.641,-3.051
16:29:22:024,22.705,0.192,0.127,0.415,-12.753,-61.383,-0.761
16:29:22:025,22.706,-0.028,-0.004,-0.100,-13.108,-60.642,1.093
16:29:22:026,22.707,-0.069,-0.006,-0.267,-13.212,-60.198,1.995
16:29:22:045,22.727,0.002,0.003,0.088,-12.690,-62.563,3.578
16:29:22:098,22.780,0.070,0.042,0.092,-12.319,-64.343,4.966
16:29:22:151,22.832,0.094,-0.015,0.170,-12.050,-65.232,5.986
16:29:22:237,22.919,-0.042,0.118,0.103,-11.663,-65.950,7.819
16:29:22:239,22.921,-0.002,0.044,0.061,-11.388,-66.378,9.182
16:29:22:239,22.921,0.059,0.147,0.172,-10.748,-67.333,11.573
16:29:22:286,22.968,0.356,0.250,0.462,-8.959,-68.516,16.903
16:29:22:287,22.969,0.318,0.322,0.707,-7.126,-68.779,21.784
16:29:22:288,22.970,0.562,0.370,0.877,-5.209,-69.316,25.837
16:29:22:307,22.989,1.163,0.385,1.562,-0.540,-71.285,32.890
16:29:22:364,23.045,1.093,0.401,1.295,2.478,-71.960,38.280
16:29:22:364,23.046,0.858,-0.324,0.956,5.046,-71.503,45.949
16:29:22:414,23.096,0.502,-0.139,0.334,9.054,-72.343,50.295
16:29:22:465,23.147,0.306,-0.811,0.142,12.058,-73.834,51.260
16:29:22:526,23.207,0.064,-1.368,0.464,14.250,-76.193,48.917
16:29:22:527,23.208,-0.015,-1.064,0.153,12.645,-77.395,45.624
16:29:22:527,23.209,0.034,-0.815,0.269,7.433,-77.438,39.521
16:29:22:528,23.210,0.086,-0.765,0.401,2.271,-76.788,31.122
16:29:22:545,23.226,0.108,-0.502,0.427,-0.540,-76.303,24.462
16:29:22:6,23.282,-0.023,-0.017,0.366,-4.348,-75.206,13.346
16:29:22:601,23.283,-0.159,0.454,0.046,-7.063,-73.694,5.241
16:29:22:622,23.304,-0.431,1.075,-1.167,-10.763,-71.677,-6.890
16:29:22:648,23.330,-0.695,1.230,-1.747,-13.243,-70.164,-14.473
16:29:22:676,23.358,-1.442,-0.370,-3.005,-15.922,-65.925,-22.826
16:29:22:73,23.412,-1.832,-0.389,-1.808,-16.339,-63.150,-23.335
16:29:22:731,23.412,-0.269,1.234,1.867,-13.783,-61.649,-19.400
16:29:22:84,23.522,-0.165,0.820,-0.036,-12.045,-59.577,-14.168
16:29:22:841,23.523,-0.865,0.067,-1.100,-12.228,-56.426,-10.314
16:29:22:842,23.524,-0.598,-0.155,-0.405,-12.546,-56.411,-5.871
16:29:22:843,23.525,-0.126,0.138,0.305,-12.524,-61.405,-1.990
16:29:22:89,23.571,0.082,0.043,0.168,-12.967,-62.225,-0.281
16:29:22:89,23.571,-0.019,0.008,-0.238,-13.667,-60.223,1.186
16:29:22:911,23.592,-0.158,0.039,-0.404,-13.720,-60.213,2.039
16:29:22:937,23.619,0.090,0.038,0.300,-13.410,-63.170,3.855
16:29:22:992,23.674,0.149,0.060,0.033,-13.384,-64.299,4.939
16:29:22:993,23.675,0.087,0.048,-0.037,-13.193,-64.904,6.800
16:29:23:016,23.698,-0.122,0.269,0.021,-12.803,-65.897,9.034
16:29:23:042,23.724,-0.036,0.212,0.181,-12.267,-67.124,10.707
16:29:23:068,23.750,0.206,0.217,0.389,-11.118,-68.763,13.383
16:29:23:095,23.776,0.323,0.259,0.542,-10.228,-69.369,15.471
16:29:23:121,23.802,0.364,0.278,0.747,-8.285,-69.993,19.703
16:29:23:176,23.858,0.581,0.271,0.969,-5.309,-70.653,25.665
16:29:23:177,23.859,1.283,0.352,1.613,-2.215,-71.729,30.399
16:29:23:2,23.882,1.199,0.488,1.348,3.391,-72.984,38.090
16:29:23:226,23.908,0.822,-0.322,0.940,4.879,-71.783,43.663
16:29:23:252,23.934,0.578,-0.310,0.413,7.967,-70.801,48.898
16:29:23:279,23.960,0.405,-0.605,0.166,12.597,-72.384,51.442
16:29:23:307,23.989,0.193,-1.052,0.251,14.269,-73.009,50.467
16:29:23:36,24.042,-0.062,-1.092,0.181,14.386,-74.655,46.512
16:29:23:36,24.042,0.048,-1.079,0.231,12.455,-74.873,42.601
16:29:23:385,24.067,0.154,-0.763,0.318,7.718,-74.257,35.237
16:29:23:41,24.092,0.152,-0.611,0.244,4.750,-73.574,29.152
16:29:23:495,24.176,0.159,-0.218,0.330,1.037,-72.816,18.575
16:29:23:495,24.177,-0.106,0.369,0.194,-2.754,-71.465,6.754
16:29:23:496,24.178,-0.330,0.837,-0.437,-5.272,-69.132,-1.249
16:29:23:515,24.196,-0.878,1.029,-1.562,-7.398,-64.175,-12.030
16:29:23:541,24.222,-1.329,-0.041,-2.659,-7.962,-59.796,-18.289
16:29:23:569,24.251,-1.928,-0.025,-2.288,-7.756,-53.665,-22.534
16:29:23:594,24.276,0.511,1.073,0.225,-5.550,-50.159,-18.624
16:29:23:619,24.301,-1.082,0.138,-2.230,-4.822,-48.658,-14.148
16:29:23:646,24.327,-0.953,-0.669,-0.865,-5.674,-45.730,-6.973
16:29:23:672,24.354,-0.619,-0.189,0.174,-5.566,-46.632,-4.084
16:29:23:698,24.380,0.012,0.194,0.019,-5.484,-49.356,-0.854
16:29:23:728,24.409,-0.052,0.165,-0.128,-5.886,-49.603,0.453
16:29:23:751,24.433,-0.086,0.014,-0.245,-5.868,-48.682,2.150
16:29:23:807,24.489,0.005,-0.086,-0.021,-5.450,-49.712,3.051
16:29:23:808,24.490,0.156,0.091,0.145,-5.200,-50.994,3.640
16:29:23:832,24.513,0.233,-0.076,0.003,-5.095,-51.045,4.357
16:29:23:857,24.539,0.060,0.100,0.091,-4.970,-50.818,5.052
16:29:23:961,24.643,0.015,0.185,0.148,-4.343,-51.185,6.987
16:29:23:997,24.679,0.111,0.240,0.141,-3.402,-51.760,9.266
16:29:23:998,24.680,0.214,0.261,0.232,-2.563,-52.105,10.919
16:29:23:998,24.680,0.409,0.249,0.377,-0.973,-52.170,13.951
16:29:23:998,24.680,0.761,0.393,0.501,0.466,-52.241,16.751
16:29:24:074,24.756,1.398,0.523,0.637,3.498,-51.946,22.526
16:29:24:075,24.757,1.867,0.327,0.806,8.360,-52.659,29.485
16:29:24:076,24.757,1.460,0.322,0.712,11.927,-52.738,34.500
16:29:24:077,24.758,0.773,-0.040,0.291,16.687,-51.411,41.393
16:29:24:208,24.890,0.728,-0.432,0.381,19.731,-50.781,44.625
16:29:24:208,24.890,0.766,-1.442,0.389,22.207,-49.158,47.146
16:29:24:208,24.890,0.373,-0.919,0.183,21.005,-47.845,46.325
16:29:24:209,24.890,0.139,-1.076,-0.139,18.138,-45.796,42.743
16:29:24:313,24.995,0.330,-0.793,-0.007,13.598,-43.124,36.866
16:29:24:313,24.995,0.337,-0.704,-0.026,10.453,-41.072,31.729
16:29:24:313,24.995,0.399,-0.405,-0.055,6.730,-38.137,22.402
16:29:24:314,24.996,0.397,0.054,-0.100,4.593,-36.173,15.438
16:29:24:331,25.013,0.234,0.442,-0.204,1.248,-32.064,4.176
16:29:24:332,25.014,-0.541,1.151,-0.927,-1.933,-25.262,-6.547
16:29:24:355,25.037,-1.500,0.587,-0.891,-2.864,-19.506,-13.294
16:29:24:38,25.062,-2.447,-0.126,-1.276,-2.956,-11.760,-20.952
16:29:24:436,25.118,-2.390,-0.507,-0.568,-3.291,-9.033,-23.239
16:29:24:437,25.119,-1.760,0.102,-0.031,-3.119,-7.125,-21.573
16:29:24:49,25.172,-2.585,0.698,-1.191,-1.574,-5.799,-17.169
16:29:24:545,25.227,0.056,0.119,0.500,-2.158,-3.969,-10.343
16:29:24:546,25.228,-0.801,-0.270,0.104,-2.326,-1.214,-4.706
16:29:24:546,25.228,-0.387,-0.018,0.169,-2.346,-1.971,-2.183
16:29:24:623,25.304,0.068,0.347,0.129,-2.595,-3.563,0.537
16:29:24:624,25.305,-0.282,-0.003,-0.175,-2.521,-3.081,1.938
16:29:24:624,25.306,-0.128,-0.102,-0.065,-2.302,-2.862,3.485
16:29:24:671,25.353,0.159,0.076,0.007,-1.961,-3.884,4.691
16:29:24:699,25.381,0.028,0.114,-0.022,-1.873,-3.967,5.536
16:29:24:699,25.381,-0.028,0.150,0.031,-1.760,-3.901,6.972
16:29:24:751,25.433,0.072,0.095,-0.052,-1.446,-4.315,8.013
16:29:24:752,25.434,0.220,0.333,-0.001,-0.679,-4.898,9.842
16:29:24:775,25.457,0.555,0.403,0.103,0.115,-5.420,11.323
16:29:24:827,25.509,0.779,0.160,-0.155,1.884,-6.171,13.968
16:29:24:886,25.568,1.095,0.299,-0.555,4.558,-5.973,18.312
16:29:24:886,25.568,1.578,0.421,-0.721,7.063,-5.850,22.443
16:29:24:887,25.569,1.737,0.392,-0.715,11.974,-6.049,29.772
16:29:24:937,25.619,1.667,0.203,-0.747,14.784,-4.880,35.579
16:29:24:938,25.620,0.695,-0.327,-0.549,18.439,-2.818,42.367
16:29:25:046,25.728,0.863,-1.028,-0.450,21.177,-3.297,46.036
16:29:25:046,25.728,0.534,-1.446,-0.214,20.772,-1.921,46.119
16:29:25:047,25.729,0.032,-0.831,-0.163,18.037,-1.304,42.204
16:29:25:048,25.730,0.193,-0.976,-0.241,15.969,-0.893,38.303
16:29:25:065,25.747,0.325,-0.787,-0.264,11.414,0.153,30.297
16:29:25:117,25.799,0.307,-0.338,-0.232,6.455,1.781,20.339
16:29:25:174,25.855,0.238,0.060,-0.192,3.308,3.035,12.843
16:29:25:175,25.856,-0.336,0.784,0.000,-1.796,6.067,0.800
16:29:25:176,25.857,-1.262,1.194,0.203,-5.012,8.693,-6.824
16:29:25:255,25.937,-2.610,0.840,0.631,-8.478,13.348,-17.029
16:29:25:255,25.937,-2.788,-0.266,0.890,-9.465,16.242,-22.442
16:29:25:255,25.937,-2.590,-0.614,1.336,-10.150,20.080,-24.527
16:29:25:333,26.014,2.673,1.491,0.121,-8.602,21.625,-19.759
16:29:25:333,26.014,-1.113,-0.164,0.837,-6.831,22.914,-17.132
16:29:25:333,26.015,-0.488,0.182,-0.036,-6.716,25.983,-11.778
16:29:25:381,26.063,-0.891,-0.098,0.375,-7.366,28.672,-8.854
16:29:25:382,26.063,-0.339,0.156,0.303,-7.615,27.626,-5.032
16:29:25:434,26.116,0.354,0.055,-0.146,-7.760,23.409,-2.006
16:29:25:434,26.116,-0.050,0.042,0.013,-8.065,23.158,-0.514
16:29:25:515,26.197,-0.362,0.133,0.036,-8.414,23.547,1.201
16:29:25:516,26.198,0.083,0.013,-0.135,-8.268,22.225,2.356
16:29:25:517,26.199,0.079,0.050,-0.261,-7.909,19.484,4.099
16:29:25:536,26.218,-0.001,0.071,-0.238,-7.551,18.277,5.409
16:29:25:562,26.243,0.067,0.248,0.145,-6.948,17.168,7.507
16:29:25:617,26.299,0.316,0.321,-0.051,-5.963,15.528,9.865
16:29:25:618,26.300,0.504,0.319,-0.170,-5.077,14.376,11.673
16:29:25:642,26.324,0.757,0.215,-0.282,-3.287,13.328,15.291
16:29:25:669,26.351,0.932,0.322,-0.337,-1.722,13.397,18.829
16:29:25:722,26.404,1.515,0.446,-1.021,1.548,13.458,25.701
16:29:25:723,26.405,1.427,0.604,-1.151,6.579,12.218,33.431
16:29:25:746,26.428,1.450,0.081,-1.054,9.172,12.837,39.445
16:29:25:772,26.454,0.581,-0.226,-0.523,12.619,14.337,46.091
16:29:25:798,26.480,0.218,-0.694,-0.499,14.935,14.842,49.272
16:29:25:825,26.507,0.447,-1.483,-0.282,17.216,15.040,49.944
16:29:25:853,26.535,-0.060,-0.865,-0.096,15.780,15.479,46.434
16:29:25:96,26.642,0.023,-1.016,-0.146,14.072,15.735,42.678
16:29:25:961,26.643,0.259,-0.907,-0.221,10.574,16.348,34.717
16:29:26:018,26.700,0.287,-0.656,-0.244,7.952,16.959,28.069
16:29:26:019,26.701,0.245,-0.057,-0.233,4.292,17.741,16.448
16:29:26:019,26.701,-0.030,0.753,0.006,1.610,18.613,7.894
16:29:26:02,26.702,-0.902,1.701,0.352,-2.847,21.921,-4.828
16:29:26:037,26.719,-2.241,1.098,0.751,-5.771,28.664,-16.056
16:29:26:062,26.744,-3.089,-0.324,1.676,-6.061,34.952,-21.650
16:29:26:089,26.771,-2.176,-0.788,1.775,-5.470,40.580,-23.267
16:29:26:226,26.908,-0.121,0.562,0.907,-4.486,41.596,-20.052
16:29:26:227,26.909,-2.077,0.962,0.342,-4.051,40.913,-14.137
16:29:26:227,26.909,-0.592,-0.346,0.527,-5.177,42.034,-7.365
16:29:26:254,26.936,-0.155,-0.181,0.203,-4.933,42.717,-4.591
16:29:26:254,26.936,-0.120,0.258,0.041,-5.325,41.985,-1.453
16:29:26:255,26.937,-0.085,0.093,0.000,-5.432,41.271,0.090
16:29:26:255,26.937,-0.220,-0.025,0.061,-5.432,40.976,2.021
16:29:26:271,26.953,0.010,-0.070,-0.014,-5.168,40.263,2.949
16:29:26:327,27.008,-0.035,0.076,-0.102,-4.943,39.001,4.126
16:29:26:327,27.008,0.013,0.114,-0.048,-4.849,38.169,5.299
16:29:26:35,27.031,0.132,0.133,-0.057,-4.549,37.234,6.203
16:29:26:377,27.059,0.142,0.203,-0.164,-3.826,35.985,7.866
16:29:26:403,27.085,0.165,0.207,-0.211,-3.196,35.443,9.228
16:29:26:429,27.111,0.327,0.192,-0.313,-1.875,34.702,11.992
16:29:26:486,27.167,0.568,0.331,-0.500,0.182,34.218,16.145
16:29:26:486,27.168,0.545,0.336,-0.779,2.045,34.175,19.636
16:29:26:507,27.189,1.045,0.303,-1.579,6.022,33.298,25.714
16:29:26:563,27.245,0.794,0.380,-1.532,9.782,32.128,30.014
16:29:26:564,27.246,0.605,-0.116,-1.312,13.852,33.817,38.398
16:29:26:691,27.373,0.082,-0.184,-0.730,15.642,35.888,42.871
16:29:26:726,27.408,-0.383,-0.194,-0.239,18.443,39.159,47.609
16:29:26:727,27.409,0.145,-1.309,-0.600,18.398,42.433,48.302
16:29:26:728,27.409,-0.096,-0.744,-0.204,17.010,45.014,46.385
16:29:26:729,27.410,-0.263,-0.994,-0.270,15.377,47.872,41.017
16:29:26:775,27.457,-0.229,-0.845,-0.371,14.026,49.509,35.775
16:29:26:776,27.458,-0.191,-0.686,-0.435,11.590,51.666,26.005
16:29:26:777,27.459,-0.253,-0.051,-0.447,9.062,53.033,14.644
16:29:26:796,27.478,-0.357,0.378,-0.314,6.709,54.493,6.713
16:29:26:822,27.504,-1.058,1.487,0.308,2.446,59.770,-4.126
16:29:26:908,27.589,-1.418,0.966,1.700,0.547,65.521,-10.733
16:29:26:908,27.590,-1.163,0.274,2.425,-1.549,73.768,-18.723
16:29:26:909,27.590,-0.561,-0.270,2.015,-3.540,77.272,-22.680
16:29:26:928,27.610,0.082,-0.232,1.830,-3.827,78.662,-21.657
16:29:26:953,27.635,-0.663,0.203,-1.262,-2.416,82.340,-16.462
16:29:27:009,27.691,-0.500,1.177,1.420,-2.680,83.921,-13.754
16:29:27:009,27.691,-0.128,-0.565,0.340,-3.008,85.399,-7.516
16:29:27:062,27.743,-0.047,-0.136,0.506,-3.408,87.383,-5.213
16:29:27:063,27.745,-0.125,0.188,0.247,-3.771,88.253,-1.280
16:29:27:085,27.767,0.079,0.054,0.035,-3.650,87.446,1.251
16:29:27:112,27.794,0.061,0.149,0.086,-3.609,87.536,2.533
16:29:27:169,27.851,-0.055,0.016,-0.025,-3.456,87.523,4.214
16:29:27:169,27.851,-0.034,-0.020,-0.068,-3.259,87.152,5.285
16:29:27:22,27.902,-0.190,0.062,-0.094,-2.729,86.713,7.087
16:29:27:22,27.902,0.013,0.175,-0.053,-2.357,86.547,8.292
16:29:27:242,27.924,-0.023,0.109,-0.148,-1.545,85.776,9.984
16:29:27:297,27.979,-0.066,0.238,-0.230,-0.542,85.055,11.636
16:29:27:298,27.980,-0.199,0.151,-0.522,0.292,84.632,12.840
16:29:27:321,28.003,-0.100,0.214,-0.663,2.145,84.202,15.417
16:29:27:347,28.029,-0.147,0.214,-0.907,3.869,84.064,17.969
16:29:27:403,28.084,-0.345,0.181,-1.442,7.314,84.004,23.031
16:29:27:403,28.085,-0.710,0.320,-1.668,12.021,84.018,29.376
16:29:27:485,28.167,-0.733,0.408,-1.672,14.542,85.516,34.914
16:29:27:485,28.167,-0.553,-0.379,-0.787,17.488,89.104,42.950
16:29:27:486,28.167,-0.689,-0.452,-0.657,19.562,92.097,46.554
16:29:27:506,28.188,-0.306,-1.158,-0.421,21.420,94.352,49.833
16:29:27:531,28.213,-0.327,-0.771,-0.118,19.689,98.200,48.213
16:29:27:558,28.240,-0.308,-0.886,0.102,18.570,99.421,45.324
16:29:27:614,28.296,-0.422,-1.019,-0.125,16.462,100.607,38.770
16:29:27:615,28.296,-0.539,-0.678,-0.182,14.109,101.426,33.085
16:29:27:665,28.347,-0.566,-0.325,-0.178,10.150,102.518,23.431
16:29:27:666,28.347,-0.530,0.430,0.070,5.644,103.772,12.703
16:29:27:69,28.372,-0.347,1.040,0.630,2.005,105.267,5.414
16:29:27:743,28.425,0.492,1.024,1.598,-3.150,108.354,-5.042
16:29:27:744,28.426,0.970,0.750,2.349,-6.063,110.643,-11.215
16:29:27:768,28.450,1.554,-0.090,1.904,-9.334,113.947,-16.909
16:29:27:794,28.475,1.641,-0.350,1.380,-10.190,115.984,-17.876
16:29:27:851,28.533,-0.530,0.710,-1.176,-8.666,119.665,-14.564
16:29:27:852,28.533,-0.229,-0.172,0.834,-8.612,123.545,-10.199
16:29:27:931,28.613,0.755,0.076,0.854,-9.188,126.340,-7.062
16:29:27:932,28.614,0.416,0.197,0.216,-9.315,125.036,-3.077
16:29:27:932,28.614,0.177,-0.101,-0.122,-9.145,121.583,-0.857
16:29:27:953,28.634,-0.151,0.057,-0.097,-9.734,119.945,1.380
16:29:28:005,28.686,0.013,0.101,0.390,-10.200,121.079,2.344
16:29:28:118,28.800,-0.013,0.043,0.134,-10.335,120.297,3.953
16:29:28:119,28.801,-0.145,0.019,-0.154,-10.226,117.963,5.904
16:29:28:12,28.802,-0.197,-0.027,-0.012,-10.058,117.161,7.268
16:29:28:121,28.803,-0.162,0.122,0.052,-9.733,116.223,9.541
16:29:28:142,28.823,-0.007,0.243,-0.126,-9.436,115.352,11.172
16:29:28:142,28.823,-0.078,0.272,-0.332,-8.491,113.392,13.789
16:29:28:143,28.824,-0.355,0.225,-0.522,-7.314,111.854,17.016
16:29:28:19,28.872,-0.491,0.307,-0.662,-6.224,111.273,19.821
16:29:28:191,28.873,-0.630,0.311,-1.057,-3.652,110.495,25.569
16:29:28:24,28.922,-1.454,0.254,-1.566,-0.987,109.561,30.172
16:29:28:269,28.951,-1.114,0.349,-1.425,4.950,107.033,37.497
16:29:28:27,28.952,-1.029,-0.252,-1.195,8.529,107.403,45.867
16:29:28:321,29.003,-0.442,-0.348,-0.861,11.521,107.173,49.216
16:29:28:322,29.004,-0.452,-0.459,-0.011,16.125,105.717,52.501
16:29:28:398,29.080,-0.173,-1.290,-0.555,17.061,104.782,51.814
16:29:28:428,29.110,0.030,-1.096,-0.341,15.098,102.903,47.909
16:29:28:428,29.110,0.025,-0.892,-0.132,12.161,102.226,44.130
16:29:28:452,29.134,-0.039,-0.776,-0.369,6.943,101.766,36.361
16:29:28:453,29.135,-0.012,-0.600,-0.390,2.226,101.693,26.360
16:29:28:476,29.158,-0.029,-0.253,-0.494,-0.424,101.547,18.787
16:29:28:534,29.215,0.206,0.611,-0.134,-4.765,102.618,6.489
16:29:28:534,29.216,0.534,1.379,1.013,-7.676,104.393,-1.788
16:29:28:555,29.237,0.923,1.037,1.931,-10.959,108.589,-13.628
16:29:28:61,29.292,1.657,-0.334,2.806,-12.692,114.456,-21.106
16:29:28:611,29.293,1.379,-0.419,2.493,-12.528,116.839,-21.879
16:29:28:662,29.344,-0.521,1.338,-1.887,-10.599,117.367,-16.002
16:29:28:663,29.345,0.467,0.105,1.435,-9.673,117.588,-12.522
16:29:28:713,29.395,0.254,-0.555,1.723,-10.035,119.988,-6.356
16:29:28:741,29.423,0.626,0.025,0.694,-10.077,119.835,-3.189
16:29:28:742,29.424,0.261,0.098,0.000,-9.980,116.677,0.385
16:29:28:767,29.449,-0.049,0.018,-0.057,-10.455,115.615,2.936
16:29:28:793,29.475,-0.066,0.107,0.250,-10.799,115.997,4.114
16:29:28:817,29.499,0.001,0.007,0.056,-10.601,114.783,5.576
16:29:28:843,29.525,-0.116,0.060,-0.229,-10.308,112.932,6.581
16:29:28:87,29.552,-0.226,0.090,-0.130,-9.973,110.938,8.228
16:29:28:896,29.578,-0.124,0.114,-0.133,-9.408,109.439,10.368
16:29:28:924,29.605,-0.122,0.113,-0.054,-8.912,108.590,12.009
16:29:28:977,29.659,-0.165,0.269,-0.241,-7.884,107.126,14.580
16:29:28:978,29.660,-0.145,0.278,-0.517,-6.904,105.811,16.553
16:29:29:001,29.683,-0.413,0.141,-0.881,-4.838,104.387,20.443
16:29:29:058,29.740,-0.622,0.212,-1.153,-1.908,103.835,26.394
16:29:29:058,29.740,-0.956,0.190,-1.339,1.109,102.887,31.240
16:29:29:08,29.761,-1.348,0.449,-1.777,7.136,100.644,39.490
16:29:29:106,29.787,-0.680,0.208,-0.924,9.524,101.090,45.451
16:29:29:133,29.814,-0.698,0.121,-0.761,14.584,101.617,52.064
16:29:29:161,29.843,-0.413,-1.189,-0.561,19.406,100.968,54.909
16:29:29:186,29.868,-0.053,-0.984,-0.400,22.161,100.773,55.025
16:29:29:211,29.893,0.016,-0.985,0.021,20.642,100.523,51.698
16:29:29:237,29.919,-0.087,-1.051,0.026,17.910,100.433,48.037
16:29:29:263,29.945,-0.070,-0.974,-0.260,11.894,100.599,40.648
16:29:29:29,29.971,-0.049,-0.771,-0.346,8.301,100.628,34.459
16:29:29:316,29.998,-0.085,-0.502,-0.437,3.430,101.083,24.106
16:29:29:344,30.026,0.028,0.064,-0.400,-1.324,102.875,12.312
16:29:29:37,30.052,0.144,0.574,-0.111,-4.374,105.257,3.623
16:29:29:423,30.105,0.576,1.420,1.531,-7.629,110.278,-9.411
16:29:29:424,30.106,0.807,0.828,2.223,-8.642,114.074,-17.438
16:29:29:447,30.129,1.668,-0.435,2.714,-10.050,119.695,-24.850
16:29:29:474,30.155,0.869,-0.555,2.119,-10.192,121.613,-25.467
16:29:29:5,30.181,-2.823,1.514,-2.137,-8.701,122.398,-20.635
16:29:29:553,30.235,1.110,1.866,1.709,-8.082,121.925,-15.837
16:29:29:583,30.265,0.381,-0.784,1.282,-7.714,123.331,-11.081
16:29:29:583,30.265,0.508,0.019,0.450,-8.200,125.250,-5.932
16:29:29:604,30.286,0.153,0.066,-0.016,-8.216,123.363,-3.437
16:29:29:66,30.341,-0.064,0.149,-0.153,-8.503,120.373,-0.832
16:29:29:661,30.342,0.003,0.088,0.152,-8.803,120.053,0.768
16:29:29:741,30.423,-0.074,0.053,0.202,-8.889,119.505,1.427
16:29:29:742,30.424,-0.055,0.048,-0.062,-8.720,117.389,2.593
16:29:29:743,30.425,-0.267,-0.004,-0.090,-8.520,115.656,3.496
16:29:29:762,30.444,-0.240,-0.030,-0.104,-7.923,113.503,5.312
16:29:29:79,30.472,-0.052,0.089,-0.097,-7.084,112.073,7.517
16:29:29:817,30.498,-0.090,0.183,-0.129,-6.362,111.111,9.189
16:29:29:842,30.524,-0.163,0.221,-0.330,-4.924,109.124,11.934
16:29:29:869,30.551,-0.280,0.230,-0.633,-3.742,108.361,14.157
16:29:29:894,30.576,-0.223,0.355,-0.798,-1.575,108.044,18.894
16:29:29:92,30.602,-0.759,0.346,-0.997,0.422,108.114,22.985
16:29:29:976,30.658,-1.390,0.451,-1.720,4.831,107.487,30.387
16:29:29:976,30.658,-1.341,0.491,-1.402,9.962,107.279,38.703
16:29:30:028,30.709,-0.922,-0.220,-0.947,11.513,109.364,44.542
16:29:30:028,30.710,-0.645,-0.416,-0.408,15.195,110.859,49.975
16:29:30:051,30.732,-0.454,-0.825,-0.101,18.006,110.773,51.743
16:29:30:22,30.902,-0.222,-1.199,-0.224,20.242,110.396,49.862
16:29:30:22,30.902,-0.039,-1.083,-0.139,19.937,109.207,44.416
16:29:30:22,30.902,-0.113,-1.001,-0.116,17.894,109.123,39.768
16:29:30:221,30.902,-0.262,-0.853,-0.204,13.087,110.484,31.480
16:29:30:296,30.978,-0.271,-0.738,-0.265,9.916,111.995,25.037
16:29:30:297,30.979,-0.309,-0.174,-0.217,5.542,114.967,13.954
16:29:30:298,30.980,-0.245,0.483,-0.003,2.647,118.109,5.888
16:29:30:299,30.981,0.203,1.930,1.337,-0.957,125.952,-5.524
16:29:30:343,31.025,0.996,0.330,2.383,-1.159,135.961,-15.054
16:29:30:343,31.025,1.740,-0.277,1.781,-1.256,141.806,-18.261
16:29:30:398,31.079,1.329,-0.155,0.966,-0.456,147.618,-17.784
16:29:30:398,31.079,1.954,1.118,4.610,0.909,149.772,-14.235
16:29:30:454,31.136,1.610,-1.687,1.082,-0.281,150.278,-4.406
16:29:30:455,31.137,0.647,-0.663,0.295,-0.508,150.078,0.660
16:29:30:456,31.138,0.484,0.099,-0.094,-0.580,149.731,2.966
16:29:30:457,31.138,0.057,0.527,0.042,-0.893,149.643,5.209
16:29:30:473,31.155,-0.023,0.032,0.090,-0.640,149.463,6.000
16:29:30:526,31.208,-0.002,0.017,0.070,-0.123,148.510,6.788
16:29:30:527,31.209,-0.129,0.194,-0.091,0.191,147.617,7.050
16:29:30:687,31.369,-0.190,-0.043,-0.053,0.530,146.718,7.367
16:29:30:688,31.370,-0.143,-0.094,0.049,0.953,146.508,8.126
16:29:30:689,31.371,-0.191,-0.013,-0.018,1.461,146.368,9.119
16:29:30:709,31.391,-0.121,0.141,-0.038,2.531,146.333,11.222
16:29:30:742,31.424,-0.239,0.136,-0.072,3.411,146.177,12.739
16:29:30:743,31.425,-0.362,0.184,-0.089,4.916,146.118,15.187
16:29:30:744,31.426,-0.682,0.175,-0.264,6.874,146.046,18.169
16:29:30:745,31.427,-1.060,0.157,-0.333,8.610,146.509,20.927
16:29:30:874,31.556,-1.733,0.304,-0.012,12.051,147.062,26.723
16:29:30:875,31.557,-1.794,0.404,0.032,14.696,147.603,31.480
16:29:30:876,31.558,-1.504,0.055,0.120,18.456,150.020,39.564
16:29:30:876,31.558,-0.959,-0.205,0.160,22.567,151.857,45.233
16:29:30:894,31.576,-0.294,-0.282,0.168,25.213,152.655,47.738
16:29:30:894,31.576,-0.528,-1.190,0.055,25.097,155.625,47.755
16:29:30:945,31.626,-0.305,-0.894,0.105,23.280,156.998,45.675
16:29:31:059,31.741,-0.166,-0.912,0.187,20.578,158.671,40.131
16:29:31:059,31.741,-0.379,-0.795,0.193,18.034,160.059,35.579
16:29:31:059,31.741,-0.403,-0.647,0.317,13.036,163.324,27.298
16:29:31:06,31.741,-0.452,-0.195,0.456,8.309,167.271,17.648
16:29:31:076,31.758,-0.381,0.397,0.643,5.227,170.686,10.585
16:29:31:105,31.787,0.953,1.295,1.085,0.741,177.747,0.159
16:29:31:105,31.787,2.062,0.617,0.944,-1.224,-177.841,-6.729
16:29:31:127,31.809,2.293,0.292,0.024,-4.802,-175.661,-15.744
16:29:31:153,31.835,2.159,-0.300,-0.568,-7.894,-175.488,-20.100
16:29:31:182,31.863,1.657,-0.337,-0.899,-8.096,-173.198,-19.562
16:29:31:206,31.888,-1.805,1.270,-1.013,-5.689,-167.205,-14.736
16:29:31:232,31.914,2.062,0.339,-0.521,-4.078,-163.438,-11.270
16:29:31:258,31.940,0.910,-0.320,-0.295,-4.908,-158.996,-5.278
16:29:31:425,32.107,0.733,0.190,-0.518,-5.024,-157.565,-2.441
16:29:31:426,32.108,0.028,0.029,-0.184,-4.559,-161.463,0.893
16:29:31:427,32.108,-0.300,0.020,0.056,-4.634,-163.963,3.279
16:29:31:428,32.109,0.242,0.103,0.026,-5.094,-163.157,4.563
16:29:31:471,32.153,0.256,0.052,-0.011,-5.160,-163.311,6.034
16:29:31:472,32.154,-0.229,-0.046,0.076,-4.886,-164.899,6.831
16:29:31:502,32.184,-0.161,0.046,0.125,-4.684,-166.574,8.128
16:29:31:503,32.185,-0.048,0.076,0.091,-4.406,-167.164,9.662
16:29:31:503,32.185,-0.042,0.192,0.106,-4.111,-167.645,10.771
16:29:31:521,32.203,-0.401,0.268,-0.014,-3.238,-168.965,12.598
16:29:31:547,32.229,-0.502,0.342,0.071,-2.440,-169.666,14.161
16:29:31:602,32.283,-0.597,0.214,0.313,-1.026,-169.862,17.186
16:29:31:628,32.309,-0.882,0.319,0.559,1.054,-169.371,21.604
16:29:31:684,32.366,-1.055,0.300,0.691,3.108,-169.061,25.560
16:29:31:685,32.367,-1.444,0.314,1.103,7.727,-169.505,32.396
16:29:31:686,32.368,-1.430,0.269,0.998,11.045,-169.474,37.459
16:29:31:734,32.416,-1.006,-0.445,0.779,14.528,-167.389,45.173
16:29:31:734,32.416,-0.511,-0.329,0.641,16.903,-166.595,48.236
16:29:31:757,32.439,0.070,-0.193,0.446,19.523,-164.859,51.139
16:29:31:783,32.465,-0.367,-1.097,0.311,18.980,-163.455,49.549
16:29:31:868,32.550,-0.115,-0.989,0.196,17.776,-163.718,46.503
16:29:31:868,32.550,-0.138,-0.928,0.269,14.317,-163.780,40.518
16:29:31:888,32.570,-0.336,-0.433,0.268,5.900,-162.223,26.374
16:29:31:914,32.596,-0.240,0.178,0.278,1.497,-161.140,15.535
16:29:31:941,32.623,0.043,0.714,0.123,-1.718,-159.627,7.510
16:29:31:967,32.649,1.231,1.309,-0.403,-6.200,-156.401,-4.297
16:29:31:996,32.677,1.991,1.122,-0.874,-8.279,-153.830,-11.520
16:29:32:02,32.702,2.377,-0.184,-1.758,-11.103,-149.868,-18.840
16:29:32:048,32.730,1.629,-0.367,-1.974,-11.794,-147.358,-19.745
16:29:32:073,32.755,-2.371,1.211,0.318,-10.145,-144.569,-15.194
16:29:32:098,32.780,0.820,0.602,-0.112,-8.546,-141.097,-10.846
16:29:32:125,32.806,0.655,0.153,-0.670,-9.412,-138.423,-7.030
16:29:32:151,32.832,0.269,-0.023,-0.512,-9.899,-138.417,-2.661
16:29:32:177,32.859,-0.419,0.102,0.249,-9.712,-142.156,-0.124
16:29:32:233,32.915,-0.120,0.034,0.146,-10.004,-144.354,2.839
16:29:32:233,32.915,0.410,0.081,-0.033,-10.418,-142.641,4.673
16:29:32:256,32.938,0.092,0.021,-0.113,-10.158,-143.208,5.920
16:29:32:311,32.993,-0.199,0.064,0.269,-9.453,-146.267,7.853
16:29:32:312,32.994,0.024,0.039,0.276,-9.117,-147.104,8.998
16:29:32:335,33.016,-0.099,0.190,0.066,-8.424,-147.974,10.961
16:29:32:365,33.046,-0.137,0.191,0.075,-7.415,-149.236,13.266
16:29:32:388,33.070,-0.198,0.166,0.222,-6.551,-150.183,14.889
16:29:32:415,33.097,-0.465,0.180,0.371,-4.921,-151.648,17.717
16:29:32:499,33.181,-0.690,0.152,0.464,-3.487,-152.395,20.231
16:29:32:499,33.181,-0.936,0.302,0.680,-0.678,-152.944,25.615
16:29:32:5,33.181,-1.407,0.404,1.318,2.148,-153.724,30.074
16:29:32:548,33.229,-1.207,0.356,1.377,7.996,-155.453,37.092
16:29:32:548,33.230,-0.936,-0.451,1.070,11.834,-154.327,44.884
16:29:32:602,33.284,-0.259,-0.070,0.683,14.806,-154.037,47.922
16:29:32:602,33.284,0.005,-0.901,0.473,18.452,-153.449,51.070
16:29:32:626,33.308,-0.491,-1.385,0.472,19.029,-153.217,50.270
16:29:32:627,33.309,-0.058,-0.876,0.157,16.702,-152.645,46.003
16:29:32:651,33.333,-0.080,-0.887,0.375,13.173,-151.877,39.086
16:29:32:676,33.358,-0.287,-0.865,0.415,10.808,-151.613,33.074
16:29:32:702,33.384,-0.326,-0.245,0.382,7.103,-151.082,22.537
16:29:32:729,33.411,-0.361,0.098,0.356,4.618,-150.282,14.827
16:29:32:755,33.436,0.097,1.016,0.282,0.536,-146.397,2.725
16:29:32:781,33.463,1.264,1.386,-0.277,-1.696,-141.093,-4.896
16:29:32:838,33.520,2.207,0.604,-1.032,-2.227,-129.581,-14.932
16:29:32:838,33.520,1.750,-0.607,-2.306,-1.728,-119.169,-19.976
16:29:32:89,33.571,0.895,-0.321,-1.260,-1.831,-116.718,-20.178
16:29:32:89,33.572,0.296,0.109,-0.837,-1.077,-115.348,-16.306
16:29:32:913,33.594,1.650,2.317,-1.531,-0.221,-114.405,-11.762
16:29:32:939,33.620,0.557,-0.932,-0.456,-1.957,-113.090,-3.733
16:29:32:995,33.677,0.027,-0.414,-0.352,-2.131,-112.197,0.995
16:29:32:995,33.677,0.177,0.310,-0.158,-2.295,-112.790,3.422
16:29:33:017,33.699,-0.015,0.230,-0.132,-2.217,-113.654,6.007
16:29:33:047,33.729,0.093,-0.039,-0.125,-1.928,-113.630,7.373
16:29:33:1,33.781,0.010,-0.083,-0.009,-1.237,-114.151,8.475
16:29:33:1,33.782,-0.087,0.248,0.118,-0.848,-114.591,8.934
16:29:33:122,33.804,-0.071,0.065,0.091,-0.591,-115.112,9.637
16:29:33:148,33.830,-0.100,-0.061,0.205,-0.166,-115.995,10.545
16:29:33:174,33.856,-0.025,-0.006,0.202,0.158,-115.929,11.553
16:29:33:201,33.883,0.066,0.100,0.067,0.610,-115.202,13.318
16:29:33:229,33.910,-0.093,0.252,0.281,1.196,-115.122,14.568
16:29:33:283,33.964,-0.218,0.306,0.636,2.681,-115.469,16.778
16:29:33:283,33.965,-0.099,0.210,0.925,4.879,-115.244,19.993
16:29:33:363,34.045,0.079,0.259,1.388,7.093,-114.945,23.172
16:29:33:363,34.045,0.195,0.292,1.754,11.884,-114.913,29.152
16:29:33:415,34.097,0.177,0.282,1.678,14.886,-113.686,34.316
16:29:33:416,34.097,0.163,-0.302,1.089,18.285,-110.111,42.379
16:29:33:529,34.211,0.087,-0.329,0.129,21.255,-107.879,47.642
16:29:33:529,34.211,0.245,-0.988,0.486,22.766,-106.367,49.282
16:29:33:53,34.212,0.155,-0.907,0.387,20.869,-104.558,48.192
16:29:33:53,34.212,0.177,-0.905,0.198,18.862,-104.087,45.202
16:29:33:545,34.227,0.187,-0.916,0.401,15.280,-103.416,39.032
16:29:33:571,34.253,0.173,-0.602,0.436,11.944,-102.363,33.742
16:29:33:572,34.254,0.167,-0.296,0.416,6.989,-100.230,24.219
16:29:33:624,34.305,0.184,0.253,0.362,2.495,-97.532,13.309
16:29:33:624,34.306,0.360,1.084,-0.197,-0.676,-94.466,5.549
16:29:33:647,34.329,0.220,1.300,-1.247,-4.538,-88.373,-5.791
16:29:33:674,34.356,0.197,0.765,-2.928,-5.762,-83.521,-12.955
16:29:33:702,34.384,-0.708,-0.391,-2.997,-7.281,-77.543,-19.828
16:29:33:727,34.409,-1.137,-0.494,-2.114,-7.771,-75.516,-19.896
16:29:33:753,34.434,0.318,1.080,1.531,-6.616,-75.231,-16.228
16:29:33:779,34.460,0.300,0.020,-0.662,-6.009,-72.687,-10.143
16:29:33:831,34.513,-0.541,0.125,-1.109,-6.693,-70.018,-6.197
16:29:33:86,34.542,-0.405,0.053,-0.502,-7.014,-68.818,-1.917
16:29:33:861,34.543,-0.013,0.078,0.335,-6.881,-71.095,0.343
16:29:33:912,34.594,0.007,0.110,0.072,-7.290,-72.941,2.963
16:29:33:913,34.595,0.018,0.063,-0.287,-7.797,-72.504,4.826
16:29:33:936,34.618,0.005,0.022,-0.120,-7.794,-73.235,5.718
16:29:33:962,34.644,0.043,0.008,0.176,-7.602,-75.474,7.151
16:29:33:988,34.670,0.153,0.049,0.031,-7.538,-76.583,8.209
16:29:34:015,34.696,0.109,0.115,0.124,-7.267,-77.885,9.888
16:29:34:157,34.838,-0.036,0.200,0.224,-6.574,-79.381,11.833
16:29:34:157,34.838,0.003,0.337,0.299,-5.916,-80.240,13.323
16:29:34:157,34.838,0.130,0.155,0.719,-4.632,-81.482,16.056
16:29:34:158,34.839,0.223,0.289,0.887,-3.454,-81.920,18.654
16:29:34:174,34.856,0.596,0.461,1.065,-1.056,-81.634,24.282
16:29:34:411,35.093,1.151,0.508,1.549,1.589,-82.036,28.919
16:29:34:442,35.124,1.049,0.472,1.439,7.636,-83.893,36.243
16:29:34:442,35.124,0.669,-0.336,0.999,11.371,-82.738,44.682
16:29:34:443,35.125,0.534,-0.344,0.658,13.829,-82.257,48.236
16:29:34:497,35.179,0.251,-0.458,-0.065,19.066,-83.315,51.228
16:29:34:497,35.179,0.158,-1.208,0.442,20.514,-83.643,50.665
16:29:34:498,35.180,-0.055,-1.024,0.261,18.881,-83.893,47.280
16:29:34:499,35.181,0.140,-0.883,0.023,15.210,-83.762,41.246
16:29:34:548,35.229,0.258,-0.863,0.239,11.331,-82.966,36.539
16:29:34:548,35.230,0.220,-0.671,0.399,5.301,-81.269,27.773
16:29:34:548,35.230,0.225,-0.046,0.340,1.848,-80.108,20.820
16:29:34:602,35.283,-0.012,0.661,0.038,-3.336,-77.305,9.124
16:29:34:603,35.284,-0.445,1.391,-1.235,-8.461,-73.160,-3.185
16:29:34:603,35.285,-0.839,0.892,-2.288,-10.716,-70.871,-10.743
16:29:34:604,35.286,-1.322,-0.016,-2.318,-14.409,-69.337,-19.061
16:29:34:628,35.310,-1.582,-0.500,-2.225,-15.914,-68.203,-20.933
16:29:34:628,35.310,1.005,1.135,2.755,-14.380,-66.359,-17.195
16:29:34:629,35.311,-0.437,1.281,-1.116,-12.973,-64.581,-14.077
16:29:34:63,35.312,0.032,-0.267,-0.768,-11.958,-60.422,-8.553
16:29:34:672,35.354,-0.614,-0.002,-0.465,-12.510,-58.092,-4.339
16:29:34:785,35.467,-0.358,0.113,-0.017,-12.312,-60.422,-1.672
16:29:34:786,35.467,0.096,0.056,0.262,-12.261,-64.122,1.432
16:29:34:787,35.468,-0.015,0.077,-0.102,-12.537,-63.922,2.702
16:29:34:788,35.469,-0.096,0.046,-0.356,-12.706,-63.182,3.989
16:29:34:863,35.545,0.119,0.020,0.277,-12.282,-65.460,5.586
16:29:34:864,35.546,0.159,0.040,0.106,-12.114,-66.626,6.624
16:29:34:865,35.547,0.066,0.052,0.049,-11.761,-67.351,8.403
16:29:34:866,35.548,-0.089,0.216,0.093,-11.494,-67.657,9.745
16:29:34:881,35.563,0.034,0.209,0.242,-10.777,-68.704,11.991
16:29:34:936,35.618,0.233,0.173,0.413,-10.089,-69.753,13.688
16:29:34:937,35.619,0.342,0.213,0.517,-8.750,-70.783,16.793
16:29:34:96,35.642,0.388,0.375,0.743,-6.903,-71.091,21.298
16:29:34:986,35.667,0.588,0.369,0.900,-5.091,-71.522,25.082
16:29:35:072,35.754,1.255,0.227,1.394,-0.636,-73.382,31.747
16:29:35:072,35.754,1.060,0.389,1.391,3.486,-75.095,36.638
16:29:35:072,35.754,0.911,-0.277,1.198,7.790,-75.129,45.067
16:29:35:119,35.801,0.478,-0.240,0.399,12.105,-74.619,50.546
16:29:35:205,35.887,0.403,-0.815,0.202,15.286,-74.883,53.136
16:29:35:206,35.888,0.071,-1.262,0.457,16.740,-75.054,52.819
16:29:35:206,35.888,-0.106,-1.054,0.142,15.177,-75.383,50.331
16:29:35:207,35.889,0.038,-0.875,0.261,11.094,-75.704,44.254
16:29:35:222,35.904,0.096,-0.719,0.425,6.004,-75.428,35.774
16:29:35:309,35.990,0.142,-0.533,0.448,2.896,-74.876,28.892
16:29:35:309,35.991,0.066,0.080,0.407,-1.242,-73.627,17.190
16:29:35:309,35.991,-0.226,0.815,-0.134,-4.129,-72.191,8.709
16:29:35:329,36.011,-0.405,1.411,-1.224,-8.194,-69.276,-3.958
16:29:35:382,36.064,-0.969,0.732,-2.408,-10.446,-66.787,-11.389
16:29:35:383,36.065,-1.242,-0.171,-2.572,-13.156,-62.247,-20.361
16:29:35:406,36.088,-1.512,-0.501,-2.029,-14.359,-60.844,-21.409
16:29:35:432,36.114,-0.050,0.563,0.334,-13.480,-60.721,-18.062
16:29:35:458,36.140,-0.284,0.200,-1.495,-11.667,-59.254,-13.019
16:29:35:485,36.166,-0.252,-0.092,-1.096,-12.411,-56.479,-9.094
16:29:35:511,36.193,-0.404,0.107,-0.450,-13.288,-54.611,-5.059
16:29:35:537,36.219,-0.223,0.148,0.005,-13.099,-59.057,-1.824
16:29:35:564,36.246,0.093,-0.022,0.403,-13.139,-61.065,-0.119
16:29:35:643,36.325,0.004,0.016,-0.132,-13.656,-60.297,1.376
16:29:35:674,36.356,-0.040,0.102,-0.239,-13.802,-60.037,2.032
16:29:35:675,36.356,0.067,-0.054,0.174,-13.607,-62.113,3.691
16:29:35:676,36.357,0.160,0.058,0.125,-13.474,-63.677,4.981
16:29:35:695,36.376,0.103,0.092,0.038,-13.159,-64.950,7.187
16:29:35:748,36.430,0.046,0.196,0.034,-12.618,-66.471,9.703
16:29:35:805,36.487,-0.095,0.225,0.294,-11.820,-68.120,11.478
16:29:35:806,36.488,0.047,0.220,0.537,-10.427,-70.010,14.542
16:29:35:807,36.489,0.235,0.183,0.575,-9.407,-70.552,17.019
16:29:35:827,36.509,0.336,0.312,0.722,-7.500,-70.805,21.990
16:29:35:881,36.563,0.801,0.438,1.043,-4.309,-71.617,28.510
16:29:35:882,36.564,1.314,0.334,1.618,-0.632,-73.425,33.278
16:29:35:906,36.587,1.110,0.147,1.356,5.805,-75.451,41.148
16:29:35:96,36.642,0.820,-0.452,1.028,7.520,-74.274,46.516
16:29:35:961,36.643,0.637,-0.330,0.290,11.301,-73.950,51.122
16:29:35:983,36.665,0.330,-0.623,0.110,14.783,-74.449,52.463
16:29:36:097,36.779,0.231,-1.017,0.201,14.777,-74.531,50.760
16:29:36:098,36.780,0.033,-1.023,0.049,13.512,-74.550,45.577
16:29:36:099,36.780,0.184,-0.985,0.099,11.715,-74.603,40.658
16:29:36:1,36.781,0.256,-0.815,0.251,7.628,-74.107,31.891
16:29:36:116,36.798,0.234,-0.443,0.354,4.693,-73.278,25.227
16:29:36:141,36.823,0.283,-0.082,0.326,0.257,-70.913,14.171
16:29:36:167,36.849,-0.036,0.960,-0.095,-4.665,-65.927,2.034
16:29:36:194,36.876,-0.389,1.406,-0.944,-7.445,-60.990,-5.823
16:29:36:249,36.931,-1.044,0.701,-2.253,-9.281,-53.596,-16.272
16:29:36:249,36.931,-1.522,-0.105,-2.032,-10.828,-50.589,-20.937
16:29:36:273,36.954,-1.703,-0.388,-1.628,-12.593,-48.998,-22.839
16:29:36:298,36.980,-1.292,0.647,0.443,-11.739,-48.974,-18.585
16:29:36:439,37.121,-0.502,-0.128,-0.604,-9.994,-48.895,-15.329
16:29:36:439,37.121,-0.507,0.366,-0.496,-10.673,-46.225,-9.992
16:29:36:44,37.122,-0.444,-0.024,-0.472,-10.882,-44.636,-6.695
16:29:36:441,37.123,-0.184,-0.108,0.043,-10.573,-47.653,-2.680
16:29:36:544,37.226,0.039,0.075,0.174,-10.356,-50.112,-0.356
16:29:36:545,37.227,-0.043,0.076,0.006,-10.606,-49.906,1.806
16:29:36:545,37.227,-0.194,0.123,-0.300,-10.729,-49.072,3.060
16:29:36:546,37.228,-0.074,0.000,-0.069,-10.395,-50.583,3.945
16:29:36:622,37.304,0.181,-0.025,0.160,-9.912,-53.392,5.427
16:29:36:623,37.305,0.129,0.004,0.001,-9.519,-54.546,6.530
16:29:36:623,37.305,0.141,0.046,-0.036,-8.812,-55.951,8.497
16:29:36:624,37.306,-0.046,0.213,0.186,-7.865,-57.593,10.542
16:29:36:669,37.350,0.115,0.261,0.285,-7.013,-58.733,12.008
16:29:36:67,37.351,0.267,0.174,0.460,-5.473,-60.111,14.587
16:29:36:724,37.406,0.338,0.287,0.565,-4.219,-60.390,17.032
16:29:36:724,37.406,0.652,0.445,0.698,-1.614,-60.597,22.115
16:29:36:745,37.427,1.561,0.596,1.372,2.841,-62.017,28.409
16:29:36:832,37.513,1.433,0.361,0.921,6.655,-63.130,32.779
16:29:36:832,37.514,1.185,-0.073,0.693,9.975,-61.163,41.112
16:29:36:833,37.514,0.814,-0.225,0.560,11.897,-59.959,44.911
16:29:36:877,37.558,0.068,-0.430,-0.516,14.661,-58.992,48.541
16:29:36:905,37.587,0.334,-1.336,0.026,15.715,-58.638,48.268
16:29:36:906,37.587,0.173,-1.164,0.080,16.508,-58.433,45.051
16:29:36:929,37.611,0.198,-1.031,0.067,15.249,-58.012,39.146
16:29:36:985,37.667,0.298,-0.883,0.020,12.975,-56.523,34.552
16:29:36:985,37.667,0.432,-0.691,0.038,8.712,-52.839,26.349
16:29:37:007,37.689,0.553,-0.290,0.072,6.272,-50.096,19.829
16:29:37:095,37.776,0.463,0.269,-0.176,2.828,-44.993,8.789
16:29:37:095,37.777,0.019,1.210,-0.867,0.490,-40.701,1.076
16:29:37:096,37.778,-0.566,1.199,-1.584,-2.327,-33.961,-9.651
16:29:37:097,37.778,-1.953,0.480,-0.952,-5.190,-27.166,-18.334
16:29:37:17,37.852,-2.257,-0.589,-0.979,-6.113,-22.932,-21.712
16:29:37:171,37.853,-1.545,-0.336,-0.169,-6.118,-19.040,-21.979
16:29:37:172,37.854,-0.906,1.002,0.375,-4.515,-15.673,-18.896
16:29:37:25,37.932,-2.657,1.439,-1.109,-3.418,-11.913,-11.619
16:29:37:25,37.932,-0.329,-0.625,-0.316,-3.941,-10.776,-5.506
16:29:37:251,37.932,-0.568,-0.414,0.031,-3.726,-9.762,-2.805
16:29:37:323,38.005,-0.187,0.397,0.032,-3.659,-10.408,0.200
16:29:37:354,38.036,0.033,0.192,0.087,-3.467,-10.846,1.500
16:29:37:355,38.037,-0.125,0.016,0.189,-3.143,-10.517,2.888
16:29:37:355,38.037,0.273,0.092,0.108,-2.547,-10.275,4.074
16:29:37:375,38.057,0.146,0.183,0.184,-2.377,-9.486,4.885
16:29:37:43,38.112,0.101,-0.172,-0.070,-1.956,-7.935,6.378
16:29:37:431,38.112,-0.025,-0.049,-0.385,-1.663,-6.764,7.602
16:29:37:512,38.194,-0.078,0.120,-0.439,-1.193,-5.337,9.650
16:29:37:512,38.194,0.098,0.170,-0.162,-0.755,-5.174,11.034
16:29:37:513,38.195,0.415,0.179,0.115,0.342,-5.766,13.241
16:29:37:591,38.272,0.698,0.126,0.016,1.998,-6.086,16.285
16:29:37:592,38.273,0.818,0.234,-0.085,3.538,-5.730,19.182
16:29:37:592,38.274,1.474,0.295,-0.545,7.149,-5.406,24.828
16:29:37:611,38.292,1.248,0.475,-0.800,9.808,-4.690,29.617
16:29:37:696,38.378,1.181,0.435,-0.602,12.345,-2.284,37.827
16:29:37:697,38.379,0.709,-0.266,-0.309,14.944,-0.520,44.010
16:29:37:698,38.380,0.174,-0.244,-0.515,16.698,0.116,46.804
16:29:37:747,38.429,0.302,-1.068,-0.285,19.132,-0.393,47.078
16:29:37:747,38.429,0.262,-0.953,-0.019,18.920,-0.330,45.435
16:29:37:827,38.508,0.055,-1.002,-0.081,16.889,0.006,40.723
16:29:37:827,38.509,0.249,-0.911,-0.201,14.301,0.606,36.474
16:29:37:828,38.510,0.310,-0.697,-0.229,9.303,2.187,28.549
16:29:37:878,38.560,0.346,-0.348,-0.231,4.466,3.987,18.814
16:29:37:878,38.560,0.283,0.187,-0.238,1.205,5.724,11.619
16:29:37:9,38.582,-0.426,1.397,-0.202,-3.993,10.121,0.045
16:29:37:926,38.608,-1.451,1.338,0.230,-6.916,12.892,-7.530
16:29:37:982,38.663,-2.293,0.609,0.563,-10.838,15.964,-17.918
16:29:37:982,38.664,-2.365,-0.663,1.283,-13.738,18.111,-23.186
16:29:38:061,38.743,-2.010,-0.564,1.548,-13.609,19.678,-22.369
16:29:38:062,38.744,-0.591,-0.094,0.781,-10.297,22.567,-17.538
16:29:38:086,38.768,-0.274,0.381,-0.193,-10.027,24.153,-13.825
16:29:38:087,38.769,-1.563,0.003,0.636,-10.279,28.475,-8.609
16:29:38:11,38.792,-0.194,0.108,0.449,-9.900,25.592,-4.285
16:29:38:136,38.818,0.488,0.100,-0.012,-9.614,22.158,-1.871
16:29:38:164,38.846,0.030,0.016,-0.024,-10.000,22.222,0.496
16:29:38:192,38.873,-0.524,0.096,0.085,-10.281,23.451,1.479
16:29:38:215,38.897,0.078,0.011,0.002,-9.995,21.647,3.172
16:29:38:243,38.925,0.194,0.025,-0.122,-9.730,19.640,4.326
16:29:38:269,38.951,0.033,-0.038,-0.135,-9.477,18.312,5.985
16:29:38:295,38.977,-0.042,0.152,0.036,-9.202,18.034,7.706
16:29:38:374,39.056,0.095,0.221,0.093,-8.837,17.449,9.004
16:29:38:433,39.115,0.233,0.203,-0.082,-7.895,16.028,11.236
16:29:38:434,39.116,0.377,0.172,-0.138,-7.162,15.326,12.978
16:29:38:435,39.117,0.482,0.191,-0.287,-5.787,14.890,16.171
16:29:38:436,39.118,0.666,0.350,-0.405,-3.836,15.397,20.799
16:29:38:504,39.186,0.815,0.484,-0.671,-1.863,15.277,24.683
16:29:38:531,39.213,1.151,0.331,-1.154,2.761,13.800,31.184
16:29:38:644,39.326,0.913,0.324,-0.809,5.935,12.646,35.901
16:29:38:645,39.327,0.917,-0.309,-0.696,9.713,12.044,42.689
16:29:38:646,39.328,0.330,-0.406,-0.391,12.945,10.972,45.396
16:29:38:646,39.328,-0.055,-0.642,-0.269,17.278,8.511,47.512
16:29:38:668,39.350,0.611,-1.410,0.049,18.356,5.913,46.137
16:29:38:669,39.351,0.261,-0.967,0.159,16.267,4.502,43.318
16:29:38:669,39.351,0.429,-0.781,0.142,11.138,3.793,38.136
16:29:38:747,39.428,0.554,-0.673,0.127,7.393,3.866,33.555
16:29:38:747,39.428,0.632,-0.451,0.095,2.521,4.399,24.943
16:29:38:747,39.429,0.507,0.176,0.104,-1.586,6.140,14.566
16:29:38:768,39.449,0.196,0.566,0.067,-3.874,8.481,6.714
16:29:38:823,39.505,-0.987,1.197,0.051,-6.675,12.630,-5.028
16:29:38:824,39.506,-1.881,1.074,0.076,-8.152,16.821,-12.520
16:29:38:845,39.527,-3.200,-0.432,1.224,-8.586,24.352,-19.815
16:29:38:901,39.582,-1.911,-0.075,1.816,-8.252,27.652,-19.807
16:29:38:901,39.582,-0.106,0.554,-0.082,-6.490,29.015,-15.433
16:29:38:924,39.606,-0.428,0.643,0.269,-7.015,29.765,-8.784
16:29:38:95,39.631,-0.235,-0.215,0.224,-6.946,29.655,-4.589
16:29:39:034,39.716,-0.252,0.002,0.304,-6.469,28.936,-0.431
16:29:39:035,39.717,-0.025,0.260,0.176,-6.395,28.548,1.537
16:29:39:036,39.718,-0.166,0.188,0.014,-6.327,28.599,3.502
16:29:39:057,39.739,-0.036,0.018,0.096,-5.868,27.825,5.024
16:29:39:113,39.795,0.093,0.139,-0.167,-5.521,26.812,5.773
16:29:39:113,39.795,0.096,0.070,-0.036,-5.154,25.662,6.660
16:29:39:196,39.878,-0.074,-0.162,-0.209,-4.820,25.187,7.325
16:29:39:196,39.878,-0.063,-0.027,-0.137,-4.128,24.464,8.760
16:29:39:196,39.878,0.067,0.029,-0.069,-3.164,23.609,10.618
16:29:39:197,39.879,0.153,0.092,-0.070,-2.400,23.139,12.028
16:29:39:212,39.894,0.378,0.191,-0.184,-1.043,22.536,14.481
16:29:39:265,39.947,0.603,0.132,-0.268,0.134,22.204,16.607
16:29:39:295,39.977,0.911,0.313,-0.512,2.694,22.031,21.269
16:29:39:295,39.977,1.396,0.312,-1.268,6.879,21.523,27.732
16:29:39:347,40.028,1.221,0.957,-1.507,9.777,21.761,32.949
16:29:39:372,40.054,0.763,-0.009,-1.112,12.292,24.809,41.462
16:29:39:399,40.081,0.324,-0.070,-0.958,13.956,26.589,45.343
16:29:39:399,40.081,-0.167,-0.305,-0.439,16.873,28.633,48.896
16:29:39:424,40.106,0.252,-1.207,-0.540,17.975,29.437,48.151
16:29:39:509,40.190,0.125,-0.980,-0.297,17.660,30.954,44.177
16:29:39:509,40.190,-0.123,-0.757,-0.248,15.751,33.156,37.858
16:29:39:509,40.191,-0.102,-0.814,-0.397,13.829,35.077,32.677
16:29:39:557,40.238,-0.078,-0.622,-0.522,10.626,38.663,23.589
16:29:39:557,40.239,-0.212,-0.310,-0.583,8.688,41.304,16.892
16:29:39:64,40.322,-0.486,0.204,-0.303,5.834,45.709,6.039
16:29:39:64,40.322,-1.202,1.047,0.234,2.523,51.467,-4.573
16:29:39:64,40.322,-1.664,0.808,1.350,1.003,55.855,-11.116
16:29:39:688,40.369,-1.339,0.506,1.696,-1.453,59.514,-19.767
16:29:39:689,40.370,-0.891,-0.273,1.943,-3.196,60.812,-23.320
16:29:39:712,40.393,-0.467,-0.459,1.919,-4.261,62.414,-24.055
16:29:39:737,40.419,1.623,1.213,-0.816,-3.032,64.265,-21.577
16:29:39:794,40.476,-1.539,0.301,1.617,-0.994,65.701,-16.373
16:29:39:794,40.476,-0.666,-0.567,1.237,-2.331,67.822,-9.066
16:29:39:816,40.498,-0.146,-0.228,0.307,-2.522,68.573,-5.896
16:29:39:842,40.524,-0.066,0.164,0.016,-2.276,66.587,-2.130
16:29:39:87,40.552,-0.022,0.170,0.084,-1.991,65.662,-0.240
16:29:39:896,40.577,-0.133,0.032,0.310,-1.395,66.509,1.625
16:29:39:922,40.603,-0.090,-0.106,0.069,-0.568,66.746,2.469
16:29:39:947,40.629,0.060,-0.014,-0.017,-0.027,66.308,2.744
16:29:39:974,40.656,-0.041,0.018,-0.183,0.531,65.606,3.382
16:29:40:,40.682,-0.142,0.005,-0.074,0.918,65.396,4.019
16:29:40:026,40.708,0.001,0.133,-0.060,1.714,64.856,5.362
16:29:40:052,40.734,0.136,0.246,-0.117,2.482,64.215,6.360
16:29:40:108,40.789,0.075,0.394,-0.372,3.850,63.809,7.985
16:29:40:108,40.790,0.023,0.275,-0.688,5.765,63.996,10.209
16:29:40:161,40.843,-0.062,0.411,-1.011,7.502,64.582,12.558
16:29:40:162,40.844,-0.166,0.398,-1.582,11.170,65.562,17.595
16:29:40:212,40.894,-0.438,0.235,-1.899,14.344,66.289,21.825
16:29:40:213,40.895,-0.379,0.107,-1.554,19.216,68.871,29.419
16:29:40:237,40.919,-0.424,-0.201,-0.806,22.833,73.725,37.448
16:29:40:262,40.944,-0.439,-0.480,-0.697,24.319,76.743,41.421
16:29:40:318,40.999,-0.531,-1.450,-0.622,24.629,81.579,44.534
16:29:40:319,41.000,-0.500,-0.774,-0.309,21.671,85.137,44.282
16:29:40:402,41.083,-0.563,-0.844,0.093,18.159,88.997,40.513
16:29:40:402,41.083,-0.580,-0.811,-0.161,15.327,91.473,34.244
16:29:40:402,41.084,-0.550,-0.616,-0.126,13.096,92.964,28.675
16:29:40:423,41.105,-0.560,-0.298,-0.065,9.862,94.216,18.762
16:29:40:447,41.129,-0.538,0.200,-0.041,7.496,94.564,11.402
16:29:40:501,41.183,-0.423,0.961,0.557,2.419,96.641,0.144
16:29:40:502,41.184,0.242,1.098,1.632,-1.279,99.780,-6.789
16:29:40:525,41.207,0.657,0.765,2.600,-5.165,105.565,-16.122
16:29:40:553,41.235,0.923,-0.297,2.372,-7.615,109.150,-21.498
16:29:40:58,41.261,1.473,-0.471,2.153,-8.366,111.073,-21.665
16:29:40:605,41.287,0.409,1.267,-2.274,-7.046,113.396,-17.169
16:29:40:63,41.312,-0.085,0.567,0.661,-5.612,114.653,-14.470
16:29:40:656,41.338,-0.002,-0.529,1.468,-6.233,119.027,-8.629
16:29:40:682,41.364,0.449,0.068,0.746,-6.827,120.358,-4.635
16:29:40:709,41.390,0.180,0.038,-0.116,-6.791,116.357,-2.523
16:29:40:764,41.445,-0.109,0.134,-0.257,-7.077,113.184,-0.025
16:29:40:764,41.446,-0.116,0.045,0.300,-7.512,114.196,1.155
16:29:40:79,41.471,-0.091,-0.052,0.227,-7.587,114.078,2.704
16:29:40:872,41.554,-0.206,0.058,-0.194,-7.411,112.150,3.799
16:29:40:872,41.554,-0.221,0.002,-0.074,-7.201,110.371,5.593
16:29:40:873,41.555,-0.151,0.100,-0.044,-6.852,110.102,7.696
16:29:40:892,41.574,-0.002,0.272,-0.079,-6.402,109.725,9.272
16:29:40:919,41.600,-0.093,0.305,-0.273,-5.353,108.042,11.703
16:29:40:945,41.626,-0.369,0.101,-0.451,-4.027,106.863,14.563
16:29:40:971,41.653,-0.471,0.172,-0.644,-2.797,106.410,16.975
16:29:40:999,41.681,-0.577,0.285,-0.914,-0.263,106.383,22.168
16:29:41:024,41.706,-0.930,0.359,-1.121,2.183,106.274,26.439
16:29:41:079,41.761,-1.268,0.443,-1.345,7.605,104.855,33.391
16:29:41:08,41.762,-1.077,-0.295,-1.141,11.743,105.822,42.124
16:29:41:102,41.784,-0.588,-0.282,-0.787,14.162,106.769,46.504
16:29:41:155,41.837,-0.526,-0.480,-0.242,17.993,107.193,50.994
16:29:41:184,41.866,-0.309,-1.180,-0.657,19.247,107.209,51.475
16:29:41:184,41.866,-0.134,-0.902,-0.238,17.866,106.864,48.605
16:29:41:207,41.889,-0.135,-1.037,-0.095,15.786,106.637,45.153
16:29:41:264,41.946,-0.237,-0.768,-0.215,10.386,107.290,37.911
16:29:41:265,41.947,-0.189,-0.611,-0.321,5.162,107.800,27.975
16:29:41:286,41.968,-0.224,-0.264,-0.409,2.253,107.657,20.223
16:29:41:312,41.994,0.135,0.928,-0.168,-2.865,108.459,7.369
16:29:41:339,42.020,0.755,1.724,1.070,-6.500,109.855,-1.493
16:29:41:365,42.047,0.918,1.279,2.218,-11.026,112.198,-13.543
16:29:41:391,42.073,1.810,-0.567,2.965,-13.666,116.738,-21.793
16:29:41:419,42.101,1.914,-0.807,2.975,-13.671,119.233,-22.408
16:29:41:444,42.126,0.541,0.473,-0.871,-11.876,119.437,-16.834
16:29:41:53,42.212,0.434,0.912,0.898,-10.753,118.893,-13.882
16:29:41:53,42.212,0.542,-0.082,1.346,-11.106,122.539,-7.752
16:29:41:53,42.212,0.466,0.153,0.438,-11.440,123.475,-4.805
16:29:41:639,42.321,0.067,0.029,-0.177,-11.113,119.142,-1.007
16:29:41:639,42.321,-0.105,0.101,-0.061,-11.534,117.069,1.589
16:29:41:639,42.321,0.020,0.052,0.543,-11.898,117.847,2.695
16:29:41:639,42.321,0.016,-0.052,0.041,-11.714,116.737,4.202
16:29:41:657,42.338,-0.291,0.115,-0.223,-11.468,114.509,5.399
16:29:41:657,42.339,-0.289,0.055,-0.124,-11.238,112.302,7.184
16:29:41:739,42.421,-0.059,0.137,-0.125,-10.738,110.610,9.300
16:29:41:739,42.421,-0.086,0.182,-0.075,-10.219,109.559,10.999
16:29:41:74,42.422,-0.181,0.245,-0.382,-9.115,107.377,13.907
16:29:41:759,42.441,-0.205,0.135,-0.601,-8.049,105.794,16.207
16:29:41:815,42.497,-0.306,0.337,-1.024,-5.938,104.530,20.800
16:29:41:815,42.497,-0.790,0.436,-1.231,-2.909,103.944,27.203
16:29:41:867,42.548,-1.151,0.576,-1.630,0.370,102.678,32.106
16:29:41:867,42.549,-1.098,0.295,-1.792,6.560,100.552,39.869
16:29:41:916,42.598,-0.574,-0.201,-0.044,12.523,101.413,50.310
16:29:41:942,42.624,-0.370,-1.682,-0.656,15.732,99.954,52.055
16:29:41:968,42.650,-0.011,-1.074,-0.441,17.437,97.863,49.881
16:29:42:049,42.730,-0.080,-1.096,-0.275,15.136,95.773,44.566
16:29:42:082,42.763,-0.166,-0.893,-0.395,11.848,95.124,39.847
16:29:42:082,42.764,-0.092,-0.635,-0.510,6.432,94.601,30.772
16:29:42:082,42.764,-0.084,-0.161,-0.546,2.889,94.927,23.716
16:29:42:129,42.811,0.091,0.714,-0.306,-2.154,96.727,11.449
16:29:42:129,42.811,0.319,1.445,1.322,-6.573,99.933,-2.109
16:29:42:155,42.837,0.361,1.362,1.930,-8.901,102.356,-10.457
16:29:42:237,42.919,1.573,-0.238,2.981,-11.479,108.808,-20.142
16:29:42:238,42.920,1.311,-0.515,2.660,-11.904,112.658,-22.647
16:29:42:239,42.920,0.363,1.790,-1.668,-10.047,116.078,-19.267
16:29:42:257,42.939,-0.256,0.250,1.332,-8.425,117.968,-12.785
16:29:42:285,42.966,1.060,-0.191,1.225,-8.779,120.084,-8.381
16:29:42:31,42.992,0.330,-0.051,0.320,-8.506,119.485,-3.804
16:29:42:396,43.078,-0.104,0.137,-0.277,-8.207,116.824,-1.461
16:29:42:396,43.078,-0.081,0.119,-0.054,-8.673,115.021,0.893
16:29:42:396,43.078,-0.042,0.039,0.337,-8.970,115.567,2.041
16:29:42:444,43.126,-0.030,-0.097,0.034,-8.910,114.818,3.089
16:29:42:445,43.126,-0.170,0.098,-0.158,-8.745,112.072,4.406
16:29:42:467,43.149,-0.257,0.012,0.058,-8.653,110.839,5.376
16:29:42:524,43.206,-0.095,0.111,-0.118,-8.190,109.181,7.171
16:29:42:524,43.206,-0.060,0.163,-0.189,-7.660,108.000,8.656
16:29:42:575,43.257,-0.084,0.295,-0.185,-6.625,106.200,11.338
16:29:42:601,43.283,-0.151,0.203,-0.449,-5.209,104.355,14.304
16:29:42:602,43.284,-0.249,0.293,-0.649,-3.961,103.467,16.749
16:29:42:654,43.336,-0.339,0.281,-0.994,-1.577,102.644,21.670
16:29:42:654,43.336,-0.873,0.421,-1.291,0.583,102.089,25.819
16:29:42:764,43.446,-1.074,0.577,-1.291,5.101,100.305,32.736
16:29:42:765,43.447,-1.008,0.052,-1.363,8.654,99.080,37.635
16:29:42:766,43.448,-0.645,0.343,-0.481,11.917,100.235,45.027
16:29:42:767,43.449,-0.781,0.066,-0.088,17.230,100.263,50.146
16:29:42:783,43.465,-0.333,-1.436,-0.589,22.032,98.964,51.133
16:29:42:809,43.491,0.057,-1.143,-0.068,25.721,97.089,48.569
16:29:42:835,43.516,-0.115,-1.248,-0.052,26.214,95.548,45.165
16:29:42:89,43.572,-0.057,-1.221,-0.435,23.636,93.417,38.622
16:29:42:891,43.573,-0.151,-0.735,-0.535,16.956,93.816,31.447
16:29:42:915,43.597,-0.222,-0.462,-0.473,11.742,95.772,26.233
16:29:42:941,43.622,-0.177,0.134,-0.286,4.373,100.822,16.953
16:29:43:184,43.865,-0.049,0.442,0.052,0.496,105.651,9.672
16:29:43:184,43.866,0.125,1.550,1.274,-2.867,113.774,-2.172
16:29:43:184,43.866,0.411,0.918,2.289,-3.204,118.432,-9.312
16:29:43:292,43.973,1.056,-0.156,2.452,-3.593,123.418,-18.121
16:29:43:292,43.973,1.656,-0.320,1.835,-4.216,127.670,-20.458
16:29:43:292,43.974,0.317,0.125,0.900,-3.491,129.253,-18.761
16:29:43:293,43.974,1.457,-0.080,1.445,-1.619,131.994,-12.971
16:29:43:317,43.998,0.593,-0.138,0.521,-1.917,134.301,-8.669
16:29:43:317,43.999,0.647,-0.197,0.093,-2.567,134.826,-2.998
16:29:43:318,43.999,-0.007,0.133,0.027,-2.345,132.524,0.429
16:29:43:319,44.001,-0.084,0.258,-0.023,-2.437,131.822,1.931
16:29:43:421,44.103,0.010,0.133,0.254,-2.357,132.098,3.614
16:29:43:422,44.104,0.079,-0.004,0.195,-1.957,131.518,4.120
16:29:43:423,44.105,-0.124,0.073,-0.060,-1.328,129.734,4.699
16:29:43:424,44.106,-0.108,0.031,-0.034,-0.962,128.520,5.234
16:29:43:501,44.182,-0.062,-0.011,-0.062,-0.625,127.680,5.810
16:29:43:501,44.183,-0.140,-0.080,-0.082,0.020,126.486,7.083
16:29:43:503,44.184,-0.225,0.148,0.003,0.545,126.098,8.183
16:29:43:503,44.185,-0.260,0.227,-0.103,1.633,125.376,10.063
16:29:43:522,44.204,-0.432,0.222,-0.463,2.646,124.835,11.636
16:29:43:523,44.204,-0.546,0.332,-0.627,4.750,124.931,15.421
16:29:43:573,44.255,-0.913,0.348,-0.664,7.611,125.796,20.925
16:29:43:574,44.256,-1.871,0.458,-0.791,10.322,126.071,25.238
16:29:43:628,44.310,-1.594,0.165,-0.589,14.965,126.873,32.513
16:29:43:628,44.310,-1.405,-0.072,-0.429,17.140,128.899,38.232
16:29:43:71,44.392,-0.800,-0.289,-0.251,21.151,130.639,43.888
16:29:43:711,44.393,-0.315,-0.704,0.075,24.250,131.876,46.887
16:29:43:712,44.393,-0.642,-1.386,-0.349,23.911,133.185,46.459
16:29:43:713,44.394,-0.265,-0.922,0.034,21.737,134.658,42.539
16:29:43:729,44.410,-0.216,-0.976,0.138,19.970,135.936,38.866
16:29:43:755,44.437,-0.545,-0.904,-0.008,15.778,139.319,31.598
16:29:43:811,44.493,-0.493,-0.418,0.161,12.858,142.431,25.718
16:29:43:812,44.494,-0.496,-0.152,0.306,9.410,147.537,15.705
16:29:43:813,44.495,-0.330,0.612,0.858,6.192,153.587,4.847
16:29:43:862,44.543,0.236,1.072,1.536,4.160,157.833,-1.986
16:29:43:862,44.544,1.353,0.687,1.469,1.412,164.980,-11.387
16:29:43:973,44.654,2.285,0.012,0.932,-0.077,168.836,-16.002
16:29:43:973,44.655,2.084,-0.232,-0.047,-1.945,171.665,-19.303
16:29:43:974,44.655,2.393,0.175,-1.346,-0.507,175.621,-15.869
16:29:43:974,44.656,1.660,1.053,0.797,0.544,179.496,-10.315
16:29:43:99,44.671,0.975,-0.687,0.250,-1.165,-177.580,-3.583
16:29:44:043,44.725,0.501,-0.376,0.199,-1.329,-176.616,-0.579
16:29:44:071,44.753,-0.052,0.276,-0.132,-1.190,-178.842,2.498
16:29:44:072,44.754,-0.048,0.185,-0.034,-1.582,-178.712,4.659
16:29:44:125,44.807,0.177,0.085,0.147,-1.667,-178.164,5.756
16:29:44:125,44.807,0.045,-0.106,-0.043,-1.297,-178.632,6.971
16:29:44:148,44.829,-0.203,0.055,0.075,-1.086,-179.242,7.618
16:29:44:174,44.855,-0.014,0.144,0.179,-1.014,-179.076,8.766
16:29:44:201,44.883,-0.054,-0.057,0.152,-0.822,-179.296,9.591
16:29:44:226,44.908,-0.191,0.097,0.052,-0.190,179.862,11.005
16:29:44:252,44.934,-0.224,0.242,0.034,0.686,179.517,12.763
16:29:44:393,45.074,-0.468,0.246,0.159,1.548,179.300,14.172
16:29:44:394,45.075,-0.699,0.181,0.274,3.291,178.979,16.842
16:29:44:394,45.076,-0.945,0.229,0.512,4.949,179.035,19.369
16:29:44:395,45.077,-1.504,0.276,0.668,8.714,178.976,24.719
16:29:44:437,45.119,-1.476,0.282,0.767,13.562,178.867,31.585
16:29:44:468,45.150,-1.539,0.288,0.905,16.171,-179.892,37.190
16:29:44:469,45.151,-0.899,-0.504,0.637,20.675,-178.478,43.523
16:29:44:469,45.151,-0.668,-0.549,0.706,22.661,-177.554,46.624
16:29:44:547,45.228,-0.604,-1.397,0.149,22.918,-174.671,48.141
16:29:44:548,45.229,-0.125,-0.788,0.264,20.432,-173.013,46.816
16:29:44:549,45.230,-0.059,-0.917,0.281,16.473,-170.713,42.325
16:29:44:594,45.276,-0.174,-0.731,0.364,12.221,-168.545,35.347
16:29:44:652,45.334,-0.232,-0.616,0.431,9.342,-166.938,29.677
16:29:44:656,45.338,-0.122,-0.208,0.438,5.564,-164.753,19.894
16:29:44:656,45.338,0.184,0.427,0.435,2.973,-163.179,12.714
16:29:44:732,45.413,0.917,0.862,0.240,-1.309,-160.357,1.595
16:29:44:732,45.413,1.707,0.878,-0.411,-5.651,-157.049,-8.996
16:29:44:732,45.414,2.480,0.776,-1.366,-8.365,-154.784,-14.454
16:29:44:752,45.434,2.201,-0.233,-1.637,-11.681,-153.914,-18.895
16:29:44:778,45.460,1.620,-0.331,-1.697,-12.270,-153.150,-18.184
16:29:44:864,45.546,-3.240,1.116,0.155,-10.415,-149.232,-13.921
16:29:44:864,45.546,0.123,0.383,0.183,-9.280,-145.634,-10.486
16:29:44:864,45.546,1.048,-0.177,0.086,-9.617,-142.019,-8.139
16:29:44:882,45.564,0.717,0.075,-0.367,-9.727,-141.279,-4.545
16:29:44:938,45.619,-0.572,0.054,-0.079,-9.481,-145.365,-2.354
16:29:44:938,45.620,-0.422,0.052,0.116,-9.445,-147.616,0.375
16:29:44:963,45.645,0.413,0.052,0.154,-9.773,-146.474,1.708
16:29:44:987,45.669,0.007,-0.064,0.059,-9.491,-146.833,3.673
16:29:45:042,45.724,-0.227,0.065,0.235,-8.998,-149.110,5.935
16:29:45:043,45.725,-0.037,0.059,0.113,-8.564,-149.586,7.581
16:29:45:071,45.752,0.075,0.154,0.074,-7.811,-149.929,10.058
16:29:45:092,45.774,-0.153,0.290,0.004,-7.095,-150.757,11.773
16:29:45:148,45.830,-0.342,0.236,0.092,-5.573,-152.636,14.425
16:29:45:148,45.830,-0.468,0.152,0.440,-3.727,-153.979,17.541
16:29:45:172,45.854,-0.561,0.236,0.536,-2.322,-154.117,20.314
16:29:45:227,45.909,-0.751,0.330,0.805,0.816,-154.318,25.920
16:29:45:228,45.910,-1.208,0.231,1.365,4.201,-155.321,30.411
16:29:45:25,45.931,-1.269,0.385,1.362,10.572,-156.981,37.723
16:29:45:278,45.960,-0.964,-0.367,1.006,13.941,-156.417,43.438
16:29:45:303,45.985,-0.681,-0.282,0.632,19.291,-155.918,49.129
16:29:45:359,46.041,0.377,-0.166,0.208,23.716,-155.385,52.630
16:29:45:359,46.041,-0.354,-1.414,0.351,23.984,-155.485,52.242
16:29:45:381,46.063,-0.065,-1.019,0.132,21.232,-156.372,48.135
16:29:45:411,46.093,-0.081,-0.882,0.122,18.116,-157.157,44.214
16:29:45:55,46.232,-0.312,-0.673,0.118,12.995,-158.409,36.321
16:29:45:551,46.233,-0.528,-0.475,0.065,8.767,-160.018,26.487
16:29:45:551,46.233,-0.584,-0.245,0.048,6.007,-160.680,19.364
16:29:45:551,46.233,-0.309,0.457,0.129,1.380,-158.907,8.210
16:29:45:568,46.250,0.197,1.040,-0.035,-1.773,-155.412,0.504
16:29:45:569,46.251,1.532,1.364,-0.456,-5.240,-146.072,-10.570
16:29:45:62,46.302,2.947,-0.124,-1.880,-5.963,-137.921,-16.345
16:29:45:621,46.303,1.996,-0.406,-1.917,-6.928,-132.391,-20.604
16:29:45:645,46.326,1.012,0.078,-1.599,-7.183,-132.167,-17.765
16:29:45:701,46.382,0.394,0.279,-1.111,-5.726,-131.324,-13.464
16:29:45:701,46.383,-0.232,0.341,-0.216,-6.132,-128.649,-6.814
16:29:45:722,46.404,0.431,-0.424,-0.086,-6.672,-127.076,-3.095
16:29:45:748,46.430,0.119,0.045,-0.369,-6.829,-127.357,1.363
16:29:45:775,46.457,-0.094,0.220,0.130,-6.981,-129.013,4.619
16:29:45:802,46.484,-0.013,0.087,-0.093,-7.132,-128.620,6.247
16:29:45:828,46.509,0.114,0.043,-0.170,-7.122,-128.192,8.030
16:29:45:854,46.535,-0.048,0.064,0.103,-6.721,-129.449,9.022
16:29:45:942,46.624,-0.016,0.097,0.208,-6.329,-131.224,10.210
16:29:45:942,46.624,-0.119,0.069,0.163,-5.914,-132.454,11.456
16:29:45:943,46.625,-0.062,0.031,0.194,-5.495,-133.096,12.597
16:29:45:944,46.626,-0.077,0.220,0.171,-4.576,-134.168,14.631
16:29:46:039,46.721,-0.215,0.200,0.272,-3.568,-135.303,16.155
16:29:46:151,46.833,-0.502,0.052,0.450,-1.733,-136.739,18.850
16:29:46:152,46.834,-0.515,0.249,0.721,-0.236,-136.880,21.422
16:29:46:153,46.835,-0.676,0.241,1.186,3.239,-137.425,26.828
16:29:46:174,46.856,-0.641,0.531,1.728,11.851,-138.927,39.221
16:29:46:174,46.856,-0.428,-0.479,1.326,15.279,-136.571,47.167
16:29:46:196,46.878,0.027,-0.588,0.928,18.264,-135.823,50.197
16:29:46:227,46.908,0.052,-0.938,0.407,20.622,-133.325,52.702
16:29:46:228,46.909,-0.068,-0.910,0.425,19.385,-130.599,50.330
16:29:46:228,46.910,0.096,-0.882,0.179,18.044,-128.666,47.272
16:29:46:277,46.959,0.216,-0.841,0.278,15.579,-125.477,40.354
16:29:46:277,46.959,0.264,-0.836,0.402,13.726,-123.337,34.682
16:29:46:329,47.011,0.408,-0.568,0.484,10.908,-120.171,25.020
16:29:46:329,47.011,0.502,-0.074,0.529,9.008,-118.158,17.978
16:29:46:352,47.034,0.688,0.374,0.341,5.369,-113.911,7.076
16:29:46:408,47.089,1.469,1.241,-0.923,0.915,-106.987,-2.888
16:29:46:434,47.115,1.063,0.539,-1.581,-1.485,-103.218,-9.349
16:29:46:435,47.116,0.043,0.227,-2.156,-5.946,-100.480,-16.643
16:29:46:488,47.170,0.026,-0.273,-2.157,-7.640,-99.227,-19.065
16:29:46:489,47.171,0.088,0.094,-1.512,-6.968,-94.384,-17.109
16:29:46:51,47.192,0.042,0.928,-3.371,-5.377,-90.817,-11.135
16:29:46:536,47.218,-0.542,-0.282,0.179,-6.083,-88.583,-5.519
16:29:46:621,47.302,-0.423,-0.187,-0.569,-6.524,-85.492,-0.750
16:29:46:621,47.303,-0.240,0.261,-0.183,-6.268,-86.350,1.820
16:29:46:622,47.304,-0.044,0.282,0.185,-6.471,-88.154,4.283
16:29:46:641,47.323,0.083,0.130,-0.175,-6.589,-88.117,5.497
16:29:46:667,47.349,-0.005,-0.013,-0.150,-6.566,-88.496,6.674
16:29:46:695,47.377,0.038,0.022,0.263,-6.080,-90.726,7.733
16:29:46:72,47.402,0.198,-0.059,0.268,-5.760,-91.871,8.525
16:29:46:746,47.428,0.092,0.036,0.112,-5.251,-92.995,10.105
16:29:46:773,47.454,-0.064,0.154,0.098,-4.768,-93.628,11.334
16:29:46:801,47.482,-0.018,0.259,0.237,-3.821,-94.542,13.233
16:29:46:827,47.509,0.051,0.245,0.615,-2.359,-95.709,15.625
16:29:46:852,47.534,-0.079,0.231,0.826,-1.141,-96.112,17.859
16:29:46:878,47.560,-0.071,0.239,1.135,1.347,-95.993,22.721
16:29:47:175,47.857,0.474,0.243,1.895,3.788,-95.815,26.995
16:29:47:176,47.858,0.728,0.427,1.631,8.918,-96.142,34.456
16:29:47:177,47.858,0.654,-0.342,1.274,12.636,-94.356,43.284
16:29:47:254,47.936,0.269,-0.234,-0.090,17.620,-91.740,51.712
16:29:47:255,47.937,0.291,-1.394,0.370,18.285,-90.007,51.487
16:29:47:256,47.938,0.107,-0.922,0.051,16.558,-88.815,47.726
16:29:47:256,47.938,0.232,-0.957,0.072,14.972,-88.103,43.454
16:29:47:334,48.015,0.328,-0.867,0.305,11.610,-86.931,35.166
16:29:47:334,48.015,0.444,-0.449,0.216,7.264,-85.027,24.886
16:29:47:334,48.016,0.440,0.019,0.168,4.455,-83.881,17.269
16:29:47:359,48.041,0.235,0.523,-0.169,-0.438,-81.595,5.510
16:29:47:359,48.041,0.132,1.456,-1.362,-4.137,-78.479,-1.754
16:29:47:36,48.041,-0.617,0.679,-1.952,-8.072,-73.103,-11.638
16:29:47:379,48.061,-0.821,-0.028,-2.387,-10.838,-68.725,-18.439
16:29:47:41,48.092,-1.353,-0.373,-2.043,-11.682,-66.098,-19.655
16:29:47:41,48.092,-1.004,1.143,2.085,-10.899,-62.771,-16.623
16:29:47:411,48.093,-0.973,0.463,-1.882,-9.037,-60.833,-13.238
16:29:47:43,48.112,-0.087,0.152,0.128,-9.413,-57.306,-7.839
16:29:47:461,48.143,-0.784,0.024,-0.638,-9.883,-54.503,-5.238
16:29:47:461,48.143,-0.248,0.088,-0.031,-9.839,-56.066,-1.953
16:29:47:462,48.144,0.265,0.086,0.533,-9.985,-60.173,0.909
16:29:47:482,48.164,0.162,-0.033,0.077,-10.469,-59.607,2.277
16:29:47:566,48.248,-0.050,0.066,-0.296,-10.803,-58.748,4.025
16:29:47:567,48.248,0.055,-0.043,0.240,-10.605,-60.437,5.467
16:29:47:567,48.249,0.145,0.085,0.182,-10.371,-62.353,7.711
16:29:47:675,48.357,0.073,0.086,-0.028,-10.138,-62.780,9.939
16:29:47:675,48.357,-0.102,0.271,0.067,-9.912,-63.024,11.395
16:29:47:675,48.357,0.062,0.308,0.310,-9.142,-64.358,13.643
16:29:47:676,48.358,0.303,0.254,0.536,-8.392,-65.301,15.346
16:29:47:691,48.373,0.420,0.149,0.607,-6.863,-66.292,18.549
16:29:47:749,48.430,0.558,0.296,0.771,-4.619,-66.562,23.479
16:29:47:749,48.431,1.167,0.253,1.160,-2.219,-67.162,27.598
16:29:47:77,48.451,1.209,0.485,1.315,2.801,-68.814,34.781
16:29:47:796,48.478,1.229,0.292,1.281,5.432,-68.955,40.497
16:29:48:011,48.693,0.496,-0.148,0.621,9.178,-68.894,47.287
16:29:48:012,48.694,0.307,-0.694,0.075,12.196,-69.403,50.413
16:29:48:068,48.749,0.459,-1.515,0.607,14.947,-70.685,51.767
16:29:48:069,48.750,0.017,-1.071,0.182,13.777,-72.063,48.750
16:29:48:07,48.751,0.019,-1.030,0.133,11.305,-72.740,45.271
16:29:48:095,48.776,0.105,-0.627,0.440,3.041,-73.313,31.673
16:29:48:096,48.777,0.158,-0.198,0.496,-1.639,-72.876,20.880
16:29:48:097,48.778,-0.116,0.609,0.166,-6.635,-70.848,8.403
16:29:48:098,48.779,-0.565,1.258,-0.711,-9.904,-69.275,-0.236
16:29:48:146,48.827,-1.311,1.338,-1.963,-14.455,-66.803,-12.122
16:29:48:146,48.828,-1.579,-0.211,-2.661,-16.753,-63.973,-18.260
16:29:48:148,48.830,-1.843,-0.649,-2.286,-18.337,-60.611,-21.453
16:29:48:149,48.830,-0.291,1.086,2.867,-17.061,-58.887,-18.796
16:29:48:193,48.875,-1.433,0.359,-0.909,-14.946,-56.334,-14.992
16:29:48:193,48.875,-0.065,-0.198,-1.282,-14.486,-52.862,-9.407
16:29:48:302,48.983,-0.960,0.077,-0.634,-15.163,-50.326,-6.812
16:29:48:302,48.983,-0.237,0.067,0.030,-15.142,-53.220,-2.551
16:29:48:302,48.984,0.275,-0.005,0.429,-14.965,-56.662,0.049
16:29:48:354,49.036,-0.038,0.050,0.006,-15.403,-56.805,2.379
16:29:48:354,49.036,-0.130,0.132,-0.225,-15.732,-56.104,3.944
16:29:48:355,49.037,0.089,0.003,0.142,-15.665,-57.530,5.323
16:29:48:404,49.086,0.131,0.071,0.140,-15.664,-59.875,7.482
16:29:48:404,49.086,0.134,0.036,0.189,-15.541,-60.980,9.063
16:29:48:426,49.108,-0.004,0.181,0.206,-15.162,-62.522,11.502
16:29:48:453,49.134,0.104,0.216,0.262,-14.519,-64.237,14.140
16:29:48:479,49.160,0.209,0.230,0.369,-13.838,-65.410,16.098
16:29:48:507,49.188,0.236,0.125,0.662,-12.590,-66.759,19.642
16:29:48:56,49.242,0.172,0.220,0.786,-11.585,-67.032,22.808
16:29:48:561,49.243,0.889,0.270,1.106,-9.227,-67.648,28.801
16:29:48:584,49.266,1.054,0.727,1.424,-6.410,-68.872,33.618
16:29:48:61,49.292,1.099,0.523,1.432,-1.501,-70.487,41.573
16:29:48:637,49.318,0.571,-0.413,1.017,1.146,-70.256,48.805
16:29:48:692,49.374,0.650,-0.142,0.277,3.917,-70.522,51.725
16:29:48:693,49.374,0.172,-0.883,0.394,8.281,-72.417,53.582
16:29:48:715,49.397,-0.126,-1.225,0.397,11.380,-73.809,51.877
16:29:48:743,49.425,-0.124,-1.075,0.265,11.506,-75.579,46.771
16:29:48:798,49.480,-0.048,-0.824,0.323,7.584,-75.377,39.617
16:29:48:798,49.480,0.036,-0.771,0.429,5.051,-75.045,33.544
16:29:48:881,49.562,0.011,-0.266,0.518,1.746,-74.537,22.978
16:29:48:881,49.562,0.010,0.250,0.484,-0.268,-73.984,15.285
16:29:48:881,49.563,-0.259,1.345,-0.299,-3.495,-71.385,3.160
16:29:48:898,49.580,-0.301,1.373,-1.447,-5.119,-69.143,-4.598
16:29:48:926,49.608,-0.635,0.620,-2.495,-6.873,-63.580,-15.285
16:29:49:038,49.720,-1.317,-0.416,-2.688,-7.279,-57.535,-20.883
16:29:49:039,49.721,-1.548,-0.354,-2.020,-7.717,-56.529,-20.712
16:29:49:04,49.722,-0.293,0.397,0.949,-6.700,-57.379,-15.174
16:29:49:041,49.722,-0.238,0.387,-0.834,-6.354,-56.663,-12.294
16:29:49:058,49.739,-0.209,-0.132,-1.442,-7.722,-54.539,-7.048
16:29:49:084,49.766,-0.316,0.044,-0.285,-8.382,-54.327,-3.272
16:29:49:11,49.792,-0.081,0.032,0.149,-8.445,-55.784,-1.319
16:29:49:135,49.817,-0.080,0.052,0.100,-8.943,-56.673,0.915
16:29:49:161,49.843,-0.043,0.059,-0.163,-9.437,-56.316,1.934
16:29:49:187,49.869,-0.029,0.070,-0.085,-9.891,-56.474,3.004
16:29:49:215,49.896,0.072,-0.010,0.135,-9.930,-57.732,3.776
16:29:49:241,49.922,0.163,-0.017,0.061,-9.979,-59.593,5.038
16:29:49:266,49.947,0.166,-0.012,0.033,-9.726,-61.148,6.846
16:29:49:321,50.003,0.170,0.011,0.050,-9.446,-62.147,8.320
16:29:49:322,50.004,0.058,0.279,0.222,-8.749,-63.431,10.709
16:29:49:345,50.027,0.070,0.277,0.391,-7.966,-64.398,12.357
16:29:49:431,50.113,0.224,0.279,0.589,-6.463,-65.649,15.194
16:29:49:431,50.113,0.347,0.318,0.811,-4.461,-66.148,19.370
16:29:49:432,50.113,0.812,0.533,1.011,-2.713,-65.995,23.206
16:29:49:452,50.134,1.626,0.322,1.611,1.574,-66.582,30.358
16:29:49:477,50.159,1.131,0.340,0.977,4.681,-66.971,35.517
16:29:49:502,50.184,0.794,-0.215,0.772,7.047,-65.101,44.155
16:29:49:531,50.213,0.856,-0.644,0.643,9.312,-63.530,49.841
16:29:49:642,50.323,0.229,-0.772,0.369,10.376,-63.056,52.269
16:29:49:642,50.323,0.119,-0.781,0.281,11.175,-61.961,51.582
16:29:49:642,50.324,0.057,-0.962,0.079,11.463,-61.755,49.181
16:29:49:69,50.372,0.138,-0.961,0.157,11.030,-61.126,43.122
16:29:49:691,50.373,0.307,-0.852,0.128,10.065,-60.653,37.462
16:29:49:714,50.396,0.434,-0.631,0.215,7.702,-59.908,27.565
16:29:49:8,50.481,0.475,0.027,0.065,3.980,-57.865,16.258
16:29:49:801,50.482,0.307,0.484,-0.182,0.945,-55.114,8.261
16:29:49:801,50.483,-0.200,1.516,-1.306,-3.632,-48.856,-3.212
16:29:49:802,50.484,-1.454,0.794,-1.749,-5.449,-43.574,-10.264
16:29:49:819,50.501,-1.791,-0.059,-1.753,-7.461,-38.100,-18.009
16:29:49:844,50.526,-2.356,-0.175,-0.564,-8.428,-34.500,-19.833
16:29:49:87,50.552,0.726,0.775,-0.001,-6.792,-32.458,-16.911
16:29:49:926,50.608,-0.257,0.509,1.226,-7.496,-30.804,-9.963
16:29:49:927,50.609,-0.496,-0.408,-0.141,-7.763,-30.133,-4.650
16:29:49:949,50.630,-0.217,-0.203,0.072,-7.589,-30.829,-0.049
16:29:49:975,50.657,-0.073,0.380,0.104,-7.642,-32.294,2.288
16:29:50:001,50.683,-0.153,0.229,-0.058,-8.079,-31.975,4.423
16:29:50:085,50.767,-0.151,-0.054,-0.208,-7.947,-31.356,6.061
16:29:50:086,50.768,0.013,-0.059,0.027,-7.477,-32.488,6.748
16:29:50:087,50.769,0.076,0.114,0.033,-6.759,-34.319,7.546
16:29:50:106,50.788,0.028,0.116,0.097,-6.459,-35.054,7.997
16:29:50:132,50.814,0.114,0.046,0.076,-5.998,-35.929,8.727
16:29:50:19,50.872,0.184,0.050,0.095,-5.110,-36.955,9.982
16:29:50:19,50.872,0.162,0.245,0.119,-4.388,-37.253,11.200
16:29:50:211,50.893,0.287,0.186,0.281,-3.047,-37.583,13.436
16:29:50:294,50.976,0.539,0.190,0.483,-1.944,-37.772,15.287
16:29:50:294,50.976,0.736,0.273,0.502,0.085,-37.069,19.345
16:29:50:322,51.003,1.567,0.398,0.618,1.795,-36.301,23.016
16:29:50:323,51.004,1.800,0.704,0.561,5.530,-35.675,29.619
16:29:50:323,51.005,1.386,0.025,0.069,8.614,-33.106,37.315
16:29:50:373,51.055,1.151,-0.262,0.144,9.829,-30.324,42.161
16:29:50:374,51.055,0.489,-0.612,-0.490,11.820,-26.973,46.966
16:29:50:425,51.107,0.772,-1.232,-0.084,12.610,-25.207,48.602
16:29:50:425,51.107,0.407,-0.871,-0.230,13.877,-22.463,46.772
16:29:50:478,51.160,0.288,-0.931,-0.421,14.627,-20.874,41.903
16:29:50:478,51.160,0.389,-1.003,-0.456,14.134,-19.736,37.252
16:29:50:588,51.270,0.522,-0.783,-0.608,11.426,-17.381,28.579
16:29:50:589,51.271,0.533,-0.334,-0.764,9.270,-15.270,22.275
16:29:50:589,51.271,0.136,0.426,-1.096,5.370,-10.796,11.717
16:29:50:59,51.272,-0.779,1.030,-1.439,2.574,-7.331,4.556
16:29:50:663,51.345,-1.900,0.630,-1.458,-1.598,-3.294,-5.667
16:29:50:664,51.346,-1.884,0.518,0.244,-7.352,-2.725,-13.532
16:29:50:665,51.347,-2.401,-0.010,0.773,-10.430,-2.561,-16.444
