Time,Second,AccelerationX,AccelerationY,AccelerationZ,EulerAnglesX,EulerAnglesY,EulerAnglesZ
14:49:37:149,0.000,0.099,0.010,-0.001,-3.405,-3.722,15.646
14:49:37:175,0.026,0.012,0.000,-0.008,-3.361,-2.947,15.986
14:49:37:202,0.053,-0.011,-0.056,0.007,-3.362,-1.849,16.313
14:49:37:23,0.081,-0.036,-0.066,0.017,-3.401,-0.765,16.577
14:49:37:256,0.107,-0.044,-0.064,0.027,-3.436,-0.191,16.787
14:49:37:31,0.161,-0.083,0.009,0.032,-3.529,0.317,17.032
14:49:37:31,0.161,-0.091,0.036,0.047,-3.539,0.376,17.141
14:49:37:333,0.184,-0.070,0.036,0.044,-3.515,0.095,17.206
14:49:37:359,0.210,-0.079,0.035,0.048,-3.463,-0.228,17.211
14:49:37:385,0.236,-0.049,0.004,0.022,-3.139,-1.010,17.559
14:49:37:412,0.263,-0.010,-0.006,0.019,-2.866,-2.170,17.543
14:49:37:438,0.289,-0.008,-0.007,0.022,-2.713,-3.018,17.583
14:49:37:464,0.315,0.016,0.003,0.028,-2.473,-4.412,17.673
14:49:37:491,0.342,0.019,0.008,0.022,-2.339,-5.238,17.746
14:49:37:517,0.368,0.025,0.004,0.018,-2.162,-6.255,17.881
14:49:37:571,0.422,0.031,0.000,0.013,-2.042,-6.955,18.112
14:49:37:572,0.423,0.032,0.009,0.009,-1.987,-7.288,18.298
14:49:37:595,0.446,0.031,0.008,0.004,-1.917,-7.720,18.599
14:49:37:623,0.474,0.050,0.002,-0.003,-1.868,-7.867,18.778
14:49:37:648,0.499,0.083,-0.016,0.006,-1.790,-8.350,18.995
14:49:37:675,0.526,0.106,-0.016,0.015,-1.698,-8.620,19.163
14:49:37:73,0.581,0.129,-0.045,0.024,-1.561,-9.223,19.271
14:49:37:73,0.581,0.081,-0.004,0.009,-1.516,-9.754,19.195
14:49:37:753,0.604,0.086,0.006,0.010,-1.515,-10.071,19.048
14:49:37:779,0.630,0.084,0.000,0.018,-1.488,-10.535,18.585
14:49:37:835,0.686,0.101,-0.024,0.036,-1.427,-10.809,18.093
14:49:37:836,0.687,0.104,-0.030,0.038,-1.337,-11.087,17.700
14:49:37:859,0.710,0.070,-0.012,0.046,-1.371,-10.971,17.372
14:49:37:884,0.735,0.051,-0.005,0.040,-1.477,-10.678,17.208
14:49:37:911,0.762,0.034,0.014,0.043,-1.678,-9.947,17.001
14:49:37:936,0.787,0.002,0.029,0.004,-1.766,-9.325,16.912
14:49:37:962,0.813,-0.033,0.021,0.002,-1.744,-8.391,16.730
14:49:38:018,0.869,-0.009,-0.014,0.002,-1.675,-7.910,16.462
14:49:38:019,0.870,-0.008,-0.016,0.022,-1.613,-7.896,16.260
14:49:38:041,0.892,-0.014,-0.018,0.001,-1.537,-8.308,15.955
14:49:38:068,0.919,-0.015,-0.015,0.001,-1.519,-8.634,15.762
14:49:38:094,0.945,0.019,0.000,-0.004,-1.510,-9.182,15.466
14:49:38:121,0.972,0.020,0.003,0.005,-1.475,-9.386,15.315
14:49:38:146,0.997,0.001,0.007,0.003,-1.468,-9.622,15.160
14:49:38:173,1.024,-0.008,-0.002,0.006,-1.528,-9.794,15.113
14:49:38:199,1.050,0.009,-0.016,0.008,-1.586,-9.887,15.125
14:49:38:225,1.076,0.002,-0.009,0.007,-1.640,-10.042,15.198
14:49:38:252,1.103,0.029,-0.021,0.016,-1.618,-10.146,15.277
14:49:38:28,1.131,0.021,-0.006,0.017,-1.583,-10.054,15.322
14:49:38:333,1.184,0.020,-0.004,0.020,-1.541,-10.043,15.316
14:49:38:333,1.184,0.012,0.002,0.016,-1.528,-9.841,15.297
14:49:38:356,1.207,0.006,0.000,0.013,-1.512,-9.693,15.297
14:49:38:382,1.233,0.008,-0.011,0.010,-1.489,-9.536,15.305
14:49:38:409,1.260,0.008,-0.007,0.012,-1.460,-9.307,15.315
14:49:38:435,1.286,0.007,-0.008,0.008,-1.441,-9.119,15.344
14:49:38:493,1.344,0.002,-0.003,0.015,-1.441,-8.816,15.406
14:49:38:494,1.345,-0.005,0.003,0.006,-1.416,-8.518,15.474
14:49:38:495,1.346,0.001,-0.001,0.015,-1.387,-8.329,15.546
14:49:38:543,1.394,0.002,-0.001,0.002,-1.342,-8.047,15.691
14:49:38:544,1.395,0.001,-0.007,0.011,-1.316,-7.856,15.814
14:49:38:596,1.447,0.007,-0.006,0.005,-1.274,-7.539,15.985
14:49:38:597,1.448,0.002,-0.017,0.016,-1.228,-7.240,16.148
14:49:38:649,1.500,0.007,-0.014,0.008,-1.213,-7.060,16.270
14:49:38:649,1.500,0.012,0.007,0.013,-1.204,-6.698,16.451
14:49:38:672,1.523,-0.009,0.013,0.005,-1.191,-6.565,16.546
14:49:38:698,1.548,-0.003,0.001,0.017,-1.153,-6.377,16.637
14:49:38:724,1.575,-0.004,-0.007,0.006,-1.098,-6.303,16.787
14:49:38:75,1.601,0.025,-0.012,0.017,-1.043,-6.324,16.893
14:49:38:778,1.629,0.028,0.013,0.002,-0.976,-6.339,17.054
14:49:38:803,1.654,0.033,0.017,-0.003,-0.928,-6.280,17.119
14:49:38:829,1.680,0.034,0.017,-0.007,-0.831,-6.222,17.165
14:49:38:855,1.706,0.034,0.005,0.008,-0.756,-6.056,17.189
14:49:38:881,1.732,0.044,-0.012,-0.002,-0.641,-5.922,17.185
14:49:38:908,1.759,0.041,-0.009,0.007,-0.602,-5.643,17.137
14:49:38:934,1.785,0.025,-0.002,-0.002,-0.618,-5.460,17.109
14:49:38:96,1.811,0.005,-0.001,0.003,-0.660,-5.031,17.092
14:49:38:987,1.838,-0.004,-0.013,0.000,-0.683,-4.838,17.103
14:49:39:013,1.864,0.000,0.002,0.009,-0.749,-4.623,17.120
14:49:39:039,1.890,-0.001,0.009,0.012,-0.825,-4.437,17.148
14:49:39:095,1.946,-0.014,0.011,0.012,-0.870,-4.335,17.154
14:49:39:095,1.946,-0.011,0.010,0.013,-0.891,-4.259,17.167
14:49:39:118,1.969,-0.009,0.005,0.001,-0.890,-4.243,17.173
14:49:39:144,1.995,0.002,-0.007,0.012,-0.869,-4.275,17.173
14:49:39:17,2.021,0.000,0.000,-0.002,-0.893,-4.337,17.180
14:49:39:196,2.047,-0.008,0.013,0.005,-0.906,-4.395,17.180
14:49:39:222,2.073,0.002,0.008,0.000,-0.914,-4.515,17.200
14:49:39:249,2.100,0.010,0.005,0.004,-0.905,-4.606,17.220
14:49:39:277,2.128,0.007,0.001,0.007,-0.882,-4.727,17.243
14:49:39:302,2.153,0.016,-0.005,0.008,-0.845,-4.815,17.259
14:49:39:328,2.179,0.011,0.010,-0.005,-0.835,-4.926,17.269
14:49:39:383,2.234,0.013,0.001,0.010,-0.790,-5.065,17.265
14:49:39:384,2.235,0.012,0.001,0.007,-0.756,-5.159,17.255
14:49:39:407,2.258,0.011,-0.004,0.009,-0.727,-5.284,17.243
14:49:39:433,2.284,0.009,0.002,0.001,-0.707,-5.340,17.240
14:49:39:462,2.313,0.017,-0.002,0.004,-0.682,-5.417,17.255
14:49:39:486,2.337,0.008,0.008,-0.002,-0.676,-5.452,17.271
14:49:39:513,2.363,-0.001,0.010,0.000,-0.682,-5.474,17.268
14:49:39:538,2.389,0.003,0.001,0.005,-0.666,-5.512,17.291
14:49:39:564,2.415,0.006,0.001,0.012,-0.632,-5.538,17.320
14:49:39:59,2.441,0.010,0.003,0.008,-0.587,-5.559,17.382
14:49:39:616,2.467,0.005,0.010,0.002,-0.572,-5.556,17.427
14:49:39:643,2.494,0.002,0.007,0.001,-0.559,-5.552,17.493
14:49:39:671,2.522,0.015,0.001,0.006,-0.499,-5.582,17.569
14:49:39:696,2.547,0.015,0.001,0.000,-0.455,-5.594,17.631
14:49:39:722,2.573,0.023,0.000,0.005,-0.437,-5.587,17.699
14:49:39:749,2.600,0.021,0.001,0.000,-0.443,-5.568,17.728
14:49:39:774,2.625,0.006,0.005,0.000,-0.460,-5.522,17.762
14:49:39:8,2.651,0.014,0.003,0.002,-0.477,-5.481,17.801
14:49:39:827,2.678,0.009,0.004,0.009,-0.477,-5.476,17.837
14:49:39:853,2.704,0.017,0.002,0.009,-0.500,-5.472,17.878
14:49:39:879,2.730,0.013,0.006,-0.002,-0.528,-5.439,17.899
14:49:39:905,2.756,0.004,0.013,0.003,-0.550,-5.369,17.896
14:49:39:932,2.783,0.000,0.000,0.000,-0.556,-5.298,17.896
14:49:39:958,2.809,0.002,-0.014,0.011,-0.562,-5.273,17.901
14:49:39:984,2.835,0.005,0.008,-0.007,-0.602,-5.211,17.930
14:49:40:01,2.861,0.006,0.016,0.003,-0.637,-5.154,17.923
14:49:40:067,2.917,-0.010,0.019,-0.002,-0.646,-5.105,17.870
14:49:40:067,2.917,-0.017,0.004,0.011,-0.638,-5.075,17.822
14:49:40:089,2.940,-0.013,-0.003,0.001,-0.620,-5.042,17.797
14:49:40:116,2.967,0.002,-0.002,0.016,-0.604,-5.086,17.804
14:49:40:141,2.992,-0.002,0.001,0.006,-0.601,-5.142,17.808
14:49:40:168,3.019,-0.007,0.001,0.014,-0.620,-5.234,17.795
14:49:40:194,3.045,-0.003,-0.005,0.011,-0.627,-5.292,17.796
14:49:40:223,3.074,-0.004,-0.001,0.011,-0.636,-5.371,17.796
14:49:40:275,3.126,0.004,0.006,0.003,-0.650,-5.394,17.802
14:49:40:276,3.127,-0.006,0.012,0.007,-0.658,-5.369,17.796
14:49:40:299,3.150,-0.010,0.003,0.005,-0.664,-5.348,17.806
14:49:40:355,3.206,0.000,0.007,0.013,-0.664,-5.347,17.827
14:49:40:356,3.207,0.002,0.008,0.010,-0.665,-5.316,17.848
14:49:40:378,3.229,-0.002,0.000,0.011,-0.664,-5.311,17.843
14:49:40:404,3.255,-0.002,0.004,0.006,-0.656,-5.300,17.845
14:49:40:461,3.312,-0.006,0.003,0.007,-0.651,-5.366,17.849
14:49:40:462,3.313,0.001,0.004,0.007,-0.640,-5.442,17.854
14:49:40:485,3.336,0.002,-0.001,0.009,-0.617,-5.551,17.857
14:49:40:51,3.360,0.009,-0.003,0.003,-0.604,-5.602,17.858
14:49:40:535,3.386,0.005,-0.001,0.008,-0.617,-5.614,17.875
14:49:40:562,3.413,0.004,0.007,0.000,-0.629,-5.611,17.877
14:49:40:587,3.438,0.006,0.012,0.001,-0.638,-5.596,17.881
14:49:40:641,3.492,0.001,0.004,0.005,-0.653,-5.562,17.873
14:49:40:673,3.524,0.006,0.004,-0.001,-0.662,-5.547,17.877
14:49:40:673,3.524,0.006,0.010,0.005,-0.671,-5.518,17.875
14:49:40:674,3.525,0.006,0.005,-0.001,-0.668,-5.508,17.856
14:49:40:749,3.600,0.007,0.000,0.008,-0.664,-5.509,17.825
14:49:40:75,3.601,0.002,-0.001,0.001,-0.671,-5.512,17.772
14:49:40:774,3.625,-0.006,0.005,0.008,-0.702,-5.505,17.744
14:49:40:775,3.626,-0.002,0.003,-0.005,-0.737,-5.497,17.730
14:49:40:798,3.649,0.001,0.005,0.002,-0.761,-5.484,17.730
14:49:40:851,3.702,-0.001,0.004,-0.001,-0.799,-5.439,17.722
14:49:40:877,3.727,-0.001,0.003,0.004,-0.825,-5.371,17.717
14:49:40:906,3.757,0.002,0.004,-0.001,-0.839,-5.326,17.721
14:49:40:907,3.758,-0.002,0.002,0.010,-0.856,-5.273,17.692
14:49:40:955,3.806,-0.001,0.006,0.011,-0.864,-5.252,17.671
14:49:40:985,3.836,0.001,0.006,0.012,-0.865,-5.244,17.649
14:49:40:986,3.837,-0.003,0.005,0.003,-0.860,-5.255,17.599
14:49:41:037,3.888,-0.003,0.007,0.006,-0.856,-5.281,17.563
14:49:41:037,3.888,0.001,0.006,0.000,-0.837,-5.332,17.524
14:49:41:06,3.911,0.004,0.003,0.010,-0.820,-5.376,17.511
14:49:41:087,3.938,0.004,-0.001,0.009,-0.805,-5.431,17.508
14:49:41:113,3.964,0.001,0.007,0.012,-0.790,-5.461,17.511
14:49:41:139,3.990,0.009,0.002,0.005,-0.765,-5.451,17.513
14:49:41:167,4.018,0.010,-0.002,0.001,-0.731,-5.395,17.512
14:49:41:192,4.043,0.007,-0.005,-0.002,-0.713,-5.330,17.508
14:49:41:22,4.071,-0.002,0.008,0.000,-0.732,-5.223,17.534
14:49:41:245,4.095,-0.002,0.011,0.001,-0.752,-5.184,17.540
14:49:41:27,4.121,-0.005,0.014,0.007,-0.727,-5.166,17.521
14:49:41:326,4.177,0.000,0.003,0.008,-0.658,-5.205,17.490
14:49:41:327,4.178,0.012,0.007,0.001,-0.600,-5.268,17.493
14:49:41:349,4.200,0.017,0.009,-0.001,-0.507,-5.363,17.487
14:49:41:376,4.227,0.015,0.002,-0.004,-0.448,-5.408,17.458
14:49:41:402,4.253,0.011,-0.002,0.003,-0.380,-5.461,17.402
14:49:41:428,4.279,0.010,-0.003,-0.004,-0.346,-5.484,17.352
14:49:41:455,4.305,0.012,-0.002,-0.001,-0.327,-5.493,17.325
14:49:41:48,4.331,0.006,0.004,-0.009,-0.327,-5.473,17.296
14:49:41:507,4.358,0.003,0.010,-0.002,-0.336,-5.440,17.268
14:49:41:533,4.384,-0.002,0.007,-0.005,-0.347,-5.417,17.219
14:49:41:559,4.410,-0.005,0.006,0.009,-0.338,-5.439,17.179
14:49:41:615,4.466,0.001,0.005,0.004,-0.308,-5.510,17.111
14:49:41:615,4.466,0.006,0.007,0.014,-0.276,-5.610,17.054
14:49:41:668,4.519,0.007,0.001,0.004,-0.252,-5.675,17.021
14:49:41:669,4.520,0.014,-0.002,0.009,-0.224,-5.761,16.968
14:49:41:691,4.542,0.010,0.005,0.000,-0.222,-5.778,16.932
14:49:41:717,4.567,0.014,0.001,0.003,-0.206,-5.772,16.890
14:49:41:742,4.593,0.019,-0.003,0.001,-0.188,-5.740,16.844
14:49:41:769,4.620,0.016,-0.003,0.005,-0.189,-5.716,16.798
14:49:41:795,4.646,0.015,-0.001,0.001,-0.217,-5.629,16.712
14:49:41:851,4.702,0.009,-0.001,0.002,-0.243,-5.527,16.652
14:49:41:851,4.702,0.007,-0.001,0.001,-0.309,-5.327,16.565
14:49:41:874,4.725,-0.006,0.000,0.005,-0.423,-5.118,16.492
14:49:41:929,4.780,-0.005,0.004,0.008,-0.495,-5.004,16.457
14:49:41:93,4.781,-0.017,0.001,0.018,-0.589,-4.863,16.427
14:49:41:953,4.804,-0.014,-0.002,0.012,-0.647,-4.799,16.445
14:49:42:008,4.859,-0.016,0.011,0.004,-0.704,-4.738,16.479
14:49:42:009,4.860,-0.013,0.014,0.004,-0.734,-4.710,16.493
14:49:42:032,4.883,-0.001,0.004,0.004,-0.757,-4.724,16.487
14:49:42:058,4.909,0.005,0.019,0.004,-0.749,-4.812,16.450
14:49:42:084,4.935,-0.003,0.012,0.006,-0.724,-4.872,16.413
14:49:42:14,4.991,-0.011,0.008,0.006,-0.656,-5.037,16.336
14:49:42:141,4.992,0.015,-0.005,0.005,-0.584,-5.199,16.282
14:49:42:163,5.014,0.003,-0.011,0.003,-0.488,-5.432,16.200
14:49:42:189,5.039,0.012,-0.005,0.001,-0.452,-5.635,16.141
14:49:42:215,5.066,0.015,-0.003,0.002,-0.448,-5.755,16.092
14:49:42:241,5.092,0.007,0.000,-0.009,-0.482,-5.843,16.050
14:49:42:297,5.148,-0.003,0.004,-0.002,-0.503,-5.883,16.048
14:49:42:297,5.148,0.006,-0.004,-0.005,-0.535,-5.928,16.090
14:49:42:32,5.171,0.013,-0.006,0.009,-0.573,-5.962,16.131
14:49:42:346,5.197,0.008,-0.003,-0.002,-0.668,-5.998,16.204
14:49:42:374,5.225,-0.001,0.004,0.003,-0.769,-6.026,16.256
14:49:42:401,5.252,0.003,0.006,-0.004,-0.816,-6.047,16.280
14:49:42:455,5.306,0.005,0.007,0.003,-0.840,-6.064,16.320
14:49:42:455,5.306,0.011,0.005,-0.002,-0.848,-6.040,16.354
14:49:42:478,5.329,0.004,0.010,0.003,-0.871,-6.015,16.366
14:49:42:505,5.356,0.001,0.003,0.002,-0.909,-5.974,16.363
14:49:42:53,5.381,-0.003,0.000,0.007,-0.926,-5.939,16.386
14:49:42:585,5.436,0.003,-0.001,0.004,-0.951,-5.910,16.442
14:49:42:586,5.437,0.010,-0.004,0.007,-0.965,-5.890,16.481
14:49:42:609,5.460,0.001,0.008,-0.004,-0.990,-5.815,16.513
14:49:42:635,5.486,-0.007,0.006,-0.001,-1.015,-5.736,16.519
14:49:42:661,5.512,-0.006,0.008,-0.003,-1.030,-5.675,16.538
14:49:42:717,5.568,0.000,0.005,0.004,-1.057,-5.590,16.590
14:49:42:718,5.569,-0.004,0.001,0.013,-1.075,-5.530,16.619
14:49:42:74,5.591,-0.008,-0.002,0.013,-1.096,-5.439,16.627
14:49:42:767,5.618,-0.013,0.005,0.008,-1.121,-5.354,16.649
14:49:42:793,5.643,-0.012,0.011,0.005,-1.128,-5.319,16.653
14:49:42:819,5.670,-0.018,0.010,0.014,-1.111,-5.347,16.667
14:49:42:874,5.725,-0.020,0.007,0.006,-1.079,-5.394,16.694
14:49:42:875,5.726,0.004,-0.009,0.006,-1.021,-5.555,16.730
14:49:42:897,5.748,0.012,-0.006,-0.005,-1.005,-5.646,16.762
14:49:42:924,5.775,0.013,-0.004,-0.003,-1.051,-5.675,16.807
14:49:42:984,5.835,-0.002,0.010,-0.003,-1.135,-5.682,16.801
14:49:42:984,5.835,-0.007,0.003,0.014,-1.189,-5.690,16.808
14:49:42:984,5.835,-0.008,0.003,0.012,-1.222,-5.736,16.799
14:49:43:03,5.881,-0.004,0.002,0.013,-1.235,-5.763,16.800
14:49:43:058,5.909,0.001,0.003,-0.004,-1.262,-5.799,16.802
14:49:43:059,5.910,0.003,0.003,0.005,-1.283,-5.837,16.802
14:49:43:14,5.991,0.012,0.003,0.001,-1.300,-5.866,16.802
14:49:43:141,5.992,0.005,0.006,0.011,-1.336,-5.882,16.802
14:49:43:142,5.993,0.014,0.006,0.005,-1.340,-5.882,16.781
14:49:43:16,6.011,0.011,0.010,0.008,-1.362,-5.804,16.757
14:49:43:186,6.037,0.017,0.006,0.005,-1.371,-5.703,16.695
14:49:43:213,6.064,0.010,0.004,0.002,-1.376,-5.606,16.660
14:49:43:268,6.119,0.012,0.004,0.000,-1.386,-5.454,16.610
14:49:43:269,6.120,0.008,0.005,0.003,-1.390,-5.367,16.576
14:49:43:292,6.143,0.005,0.010,0.001,-1.417,-5.274,16.545
14:49:43:318,6.169,0.002,0.015,0.003,-1.442,-5.226,16.530
14:49:43:344,6.195,0.000,0.020,-0.002,-1.479,-5.194,16.547
14:49:43:371,6.222,0.006,0.019,0.000,-1.480,-5.172,16.579
14:49:43:397,6.247,0.007,0.020,-0.013,-1.463,-5.170,16.593
14:49:43:422,6.273,0.008,0.009,-0.002,-1.427,-5.190,16.628
14:49:43:449,6.300,0.023,0.000,-0.008,-1.386,-5.252,16.631
14:49:43:475,6.326,0.031,-0.009,-0.005,-1.329,-5.349,16.580
14:49:43:501,6.352,0.028,-0.008,-0.012,-1.310,-5.468,16.484
14:49:43:557,6.408,0.018,-0.011,-0.008,-1.319,-5.553,16.407
14:49:43:558,6.409,0.024,-0.036,-0.002,-1.293,-5.682,16.271
14:49:43:58,6.431,0.024,-0.034,-0.006,-1.273,-5.760,16.185
14:49:43:608,6.459,0.027,-0.019,-0.008,-1.297,-5.813,16.069
14:49:43:634,6.485,0.007,0.012,-0.024,-1.420,-5.779,16.008
14:49:43:66,6.511,0.003,0.029,-0.021,-1.500,-5.728,15.980
14:49:43:686,6.537,0.000,0.038,-0.009,-1.590,-5.644,15.933
14:49:43:712,6.563,-0.008,0.031,0.000,-1.630,-5.552,15.909
14:49:43:738,6.589,-0.022,0.014,0.009,-1.635,-5.413,15.875
14:49:43:764,6.614,-0.012,-0.003,0.023,-1.591,-5.367,15.866
14:49:43:79,6.641,0.006,-0.015,0.011,-1.508,-5.398,15.835
14:49:43:816,6.667,-0.002,-0.001,0.007,-1.474,-5.508,15.789
14:49:43:843,6.694,-0.009,0.012,-0.013,-1.486,-5.562,15.765
14:49:43:869,6.720,-0.004,0.011,-0.001,-1.515,-5.674,15.739
14:49:43:895,6.746,-0.014,0.009,-0.001,-1.515,-5.778,15.716
14:49:43:921,6.772,-0.009,-0.004,0.013,-1.478,-5.940,15.669
14:49:43:948,6.799,0.000,-0.005,0.012,-1.447,-6.045,15.649
14:49:43:974,6.825,0.000,-0.003,0.012,-1.429,-6.077,15.658
14:49:44:,6.851,0.008,-0.008,0.008,-1.409,-6.081,15.688
14:49:44:027,6.878,0.002,0.000,0.001,-1.424,-6.040,15.717
14:49:44:053,6.904,-0.006,0.008,-0.011,-1.446,-5.960,15.775
14:49:44:079,6.930,0.000,0.006,-0.009,-1.441,-5.922,15.793
14:49:44:105,6.956,-0.004,-0.002,-0.011,-1.436,-5.869,15.806
14:49:44:132,6.983,-0.009,-0.002,-0.013,-1.436,-5.811,15.813
14:49:44:159,7.010,0.009,-0.006,0.005,-1.445,-5.782,15.811
14:49:44:185,7.036,-0.022,0.011,0.008,-1.492,-5.685,15.853
14:49:44:211,7.062,-0.015,0.013,0.007,-1.510,-5.634,15.891
14:49:44:267,7.118,-0.023,0.006,0.002,-1.505,-5.533,15.952
14:49:44:267,7.118,-0.006,0.000,0.001,-1.466,-5.491,15.999
14:49:44:29,7.141,-0.012,0.002,-0.002,-1.447,-5.462,16.030
14:49:44:318,7.169,-0.011,-0.001,-0.013,-1.432,-5.396,16.077
14:49:44:369,7.220,-0.010,-0.001,-0.018,-1.422,-5.395,16.080
14:49:44:397,7.248,-0.024,0.004,-0.005,-1.428,-5.402,16.083
14:49:44:397,7.248,-0.013,0.002,-0.006,-1.460,-5.447,16.125
14:49:44:421,7.272,-0.013,0.011,-0.004,-1.488,-5.505,16.164
14:49:44:447,7.298,-0.011,0.004,-0.007,-1.488,-5.638,16.213
14:49:44:473,7.324,-0.010,0.004,-0.008,-1.471,-5.718,16.235
14:49:44:499,7.350,0.013,-0.002,-0.007,-1.438,-5.839,16.240
14:49:44:525,7.376,0.006,-0.002,-0.003,-1.431,-5.857,16.262
14:49:44:552,7.403,0.011,0.004,-0.023,-1.453,-5.853,16.304
14:49:44:578,7.429,0.004,0.006,0.001,-1.493,-5.808,16.305
14:49:44:605,7.456,-0.002,0.015,-0.003,-1.510,-5.747,16.293
14:49:44:657,7.507,-0.003,-0.001,0.001,-1.481,-5.594,16.318
14:49:44:683,7.534,-0.003,0.004,0.008,-1.452,-5.568,16.316
14:49:44:709,7.560,-0.020,0.012,-0.002,-1.431,-5.511,16.266
14:49:44:735,7.586,-0.021,0.006,-0.002,-1.411,-5.514,16.255
14:49:44:761,7.612,-0.004,-0.003,0.008,-1.373,-5.626,16.278
14:49:44:789,7.640,-0.001,-0.006,0.011,-1.337,-5.734,16.304
14:49:44:814,7.665,0.011,0.003,0.003,-1.284,-5.903,16.303
14:49:44:84,7.691,0.010,0.003,0.002,-1.244,-5.995,16.305
14:49:44:867,7.718,-0.003,0.009,0.007,-1.228,-6.030,16.303
14:49:44:922,7.773,0.000,-0.003,0.013,-1.222,-6.064,16.319
14:49:44:923,7.774,0.000,0.011,0.015,-1.206,-6.089,16.317
14:49:44:947,7.798,0.005,0.013,0.018,-1.195,-6.149,16.328
14:49:44:972,7.823,0.012,0.010,0.026,-1.169,-6.207,16.323
14:49:44:999,7.850,0.000,0.008,0.031,-1.096,-6.238,16.309
14:49:45:025,7.875,0.003,0.011,0.022,-0.966,-6.305,16.267
14:49:45:05,7.901,0.020,-0.001,0.011,-0.875,-6.330,16.241
14:49:45:078,7.929,0.014,0.007,0.009,-0.763,-6.291,16.182
14:49:45:103,7.954,0.001,0.007,-0.007,-0.695,-6.200,16.140
14:49:45:129,7.980,0.003,0.001,0.000,-0.590,-5.997,16.074
14:49:45:155,8.006,0.008,-0.003,0.004,-0.488,-5.810,16.013
14:49:45:211,8.062,0.020,-0.001,0.019,-0.410,-5.699,15.963
14:49:45:211,8.062,0.017,0.000,0.015,-0.300,-5.531,15.863
14:49:45:234,8.085,0.009,0.002,0.019,-0.234,-5.396,15.786
14:49:45:261,8.112,0.015,0.004,0.002,-0.178,-5.177,15.683
14:49:45:319,8.170,0.012,0.003,0.011,-0.115,-4.908,15.569
14:49:45:319,8.170,0.001,0.002,-0.002,-0.075,-4.679,15.484
14:49:45:32,8.171,-0.006,0.002,0.001,-0.035,-4.280,15.370
14:49:45:368,8.219,0.007,0.003,0.002,-0.006,-4.034,15.299
14:49:45:369,8.220,0.004,0.005,0.010,0.070,-3.707,15.177
14:49:45:392,8.243,-0.003,0.002,0.018,0.122,-3.510,15.052
14:49:45:417,8.268,-0.008,0.001,0.012,0.149,-3.302,14.825
14:49:45:444,8.295,-0.004,0.000,-0.012,0.036,-3.189,14.611
14:49:45:472,8.323,-0.031,0.010,0.012,-0.048,-3.164,14.485
14:49:45:497,8.348,0.028,-0.020,-0.009,-0.188,-3.172,14.275
14:49:45:522,8.373,0.013,-0.009,-0.003,-0.321,-3.136,14.110
14:49:45:578,8.429,-0.005,0.014,-0.012,-0.559,-2.995,13.883
14:49:45:579,8.430,-0.014,0.011,0.011,-0.798,-2.838,13.670
14:49:45:602,8.453,-0.015,0.012,0.009,-0.954,-2.744,13.546
14:49:45:629,8.480,-0.020,0.013,0.011,-1.208,-2.683,13.373
14:49:45:656,8.507,-0.022,0.005,0.012,-1.344,-2.686,13.298
14:49:45:682,8.533,-0.033,0.002,-0.002,-1.471,-2.816,13.207
14:49:45:707,8.558,0.001,-0.009,-0.011,-1.595,-3.052,13.132
14:49:45:733,8.584,-0.001,-0.003,-0.015,-1.675,-3.198,13.086
14:49:45:759,8.610,-0.003,-0.002,-0.011,-1.806,-3.403,13.021
14:49:45:786,8.636,0.005,-0.001,-0.018,-1.891,-3.502,12.991
14:49:45:812,8.663,0.000,0.000,-0.007,-2.008,-3.623,12.972
14:49:45:838,8.689,0.006,0.001,-0.006,-2.051,-3.701,12.970
14:49:45:864,8.715,0.016,-0.004,0.008,-2.119,-3.771,12.940
14:49:45:891,8.742,0.016,-0.004,0.005,-2.193,-3.789,12.930
14:49:45:917,8.767,0.001,-0.001,0.008,-2.252,-3.738,12.930
14:49:45:944,8.795,-0.004,0.008,0.003,-2.316,-3.640,12.946
14:49:45:969,8.820,-0.009,0.008,0.008,-2.351,-3.587,12.952
14:49:45:996,8.847,-0.002,0.007,-0.005,-2.400,-3.547,12.955
14:49:46:022,8.873,0.003,0.000,0.006,-2.462,-3.507,12.954
14:49:46:047,8.898,-0.008,-0.002,-0.004,-2.506,-3.464,12.958
14:49:46:074,8.925,-0.008,-0.001,0.001,-2.566,-3.454,12.978
14:49:46:1,8.951,-0.008,0.006,-0.002,-2.605,-3.442,12.994
14:49:46:127,8.978,0.009,0.000,0.002,-2.638,-3.404,13.037
14:49:46:182,9.033,-0.004,0.001,-0.003,-2.681,-3.373,13.061
14:49:46:183,9.034,-0.001,0.000,0.003,-2.711,-3.375,13.074
14:49:46:206,9.057,0.007,0.005,-0.002,-2.748,-3.404,13.101
14:49:46:233,9.084,0.006,0.006,0.003,-2.765,-3.427,13.116
14:49:46:258,9.109,0.005,-0.001,0.001,-2.775,-3.459,13.144
14:49:46:285,9.135,0.010,-0.001,0.001,-2.774,-3.480,13.165
14:49:46:31,9.161,0.005,0.012,-0.010,-2.776,-3.484,13.191
14:49:46:336,9.187,0.004,0.007,-0.012,-2.783,-3.506,13.188
14:49:46:364,9.215,0.003,0.003,-0.013,-2.778,-3.547,13.189
14:49:46:389,9.240,0.020,-0.012,-0.002,-2.727,-3.578,13.208
14:49:46:415,9.266,0.014,-0.006,-0.008,-2.710,-3.576,13.223
14:49:46:442,9.293,0.014,-0.018,-0.002,-2.663,-3.559,13.236
14:49:46:497,9.348,0.016,-0.019,-0.004,-2.650,-3.495,13.272
14:49:46:498,9.349,0.006,-0.013,-0.007,-2.674,-3.400,13.313
14:49:46:521,9.372,-0.002,0.007,-0.002,-2.724,-3.254,13.378
14:49:46:576,9.427,0.001,0.028,-0.015,-2.753,-3.153,13.413
14:49:46:577,9.428,-0.006,0.041,-0.010,-2.780,-2.954,13.454
14:49:46:6,9.451,-0.008,0.020,-0.013,-2.760,-2.806,13.482
14:49:46:626,9.477,0.000,0.001,0.006,-2.645,-2.668,13.537
14:49:46:652,9.503,0.009,-0.019,0.005,-2.526,-2.576,13.577
14:49:46:678,9.528,0.007,-0.014,0.013,-2.498,-2.496,13.591
14:49:46:704,9.555,-0.010,-0.001,-0.001,-2.520,-2.363,13.607
14:49:46:73,9.581,-0.013,0.004,-0.001,-2.522,-2.274,13.644
14:49:46:757,9.608,-0.006,0.002,-0.008,-2.533,-2.145,13.710
14:49:46:783,9.634,-0.006,0.000,0.002,-2.562,-2.027,13.772
14:49:46:809,9.660,-0.019,0.004,-0.007,-2.592,-1.926,13.806
14:49:46:836,9.687,-0.019,0.001,0.007,-2.619,-1.829,13.868
14:49:46:862,9.712,-0.013,0.003,-0.002,-2.650,-1.806,13.906
14:49:46:887,9.738,-0.012,0.005,0.007,-2.694,-1.784,13.951
14:49:46:915,9.766,-0.022,0.008,-0.005,-2.735,-1.773,13.955
14:49:46:94,9.791,-0.023,0.005,-0.003,-2.749,-1.790,13.956
14:49:46:996,9.847,-0.012,-0.006,-0.005,-2.771,-1.892,13.985
14:49:46:997,9.848,-0.008,-0.003,0.001,-2.796,-1.977,13.998
14:49:47:019,9.870,-0.014,0.004,-0.005,-2.869,-2.104,14.012
14:49:47:045,9.896,-0.019,0.009,0.000,-2.926,-2.194,14.026
14:49:47:072,9.923,-0.020,0.015,-0.002,-2.991,-2.378,14.058
14:49:47:098,9.949,-0.001,0.003,-0.001,-3.031,-2.617,14.101
14:49:47:125,9.976,0.000,0.005,-0.010,-3.055,-2.779,14.109
14:49:47:151,10.002,-0.007,0.004,-0.009,-3.095,-2.991,14.106
14:49:47:177,10.028,0.007,0.009,-0.008,-3.127,-3.157,14.111
14:49:47:204,10.055,0.011,0.010,-0.009,-3.192,-3.443,14.102
14:49:47:231,10.082,0.028,-0.001,-0.007,-3.232,-3.728,14.078
14:49:47:255,10.106,0.019,-0.003,-0.004,-3.240,-3.879,14.049
14:49:47:281,10.132,0.023,-0.009,-0.007,-3.271,-4.039,13.977
14:49:47:308,10.159,0.011,-0.004,-0.017,-3.298,-4.100,13.933
14:49:47:336,10.187,0.015,-0.002,-0.019,-3.344,-4.124,13.870
14:49:47:362,10.213,0.004,0.015,-0.027,-3.377,-4.099,13.808
14:49:47:387,10.238,0.008,0.009,-0.010,-3.392,-4.089,13.764
14:49:47:413,10.264,0.001,0.010,-0.006,-3.408,-4.081,13.728
14:49:47:439,10.290,0.004,0.007,0.003,-3.409,-4.078,13.711
14:49:47:465,10.316,0.004,0.002,-0.006,-3.394,-4.096,13.685
14:49:47:494,10.345,0.008,-0.003,-0.002,-3.374,-4.119,13.664
14:49:47:521,10.372,0.018,-0.005,-0.006,-3.340,-4.111,13.637
14:49:47:522,10.373,0.008,0.002,-0.004,-3.366,-4.046,13.625
14:49:47:574,10.425,0.002,0.006,-0.009,-3.364,-3.968,13.621
14:49:47:574,10.425,0.000,0.007,0.000,-3.335,-3.841,13.608
14:49:47:627,10.478,-0.003,0.021,-0.008,-3.309,-3.745,13.605
14:49:47:628,10.479,0.001,0.008,0.001,-3.228,-3.629,13.570
14:49:47:651,10.502,0.012,-0.012,0.010,-3.115,-3.544,13.529
14:49:47:675,10.526,0.000,0.002,0.005,-3.067,-3.451,13.506
14:49:47:701,10.552,-0.014,0.002,-0.001,-3.026,-3.290,13.477
14:49:47:729,10.580,-0.023,0.004,0.004,-2.992,-3.200,13.450
14:49:47:785,10.636,-0.015,-0.013,0.001,-2.922,-3.130,13.419
14:49:47:786,10.637,-0.012,-0.013,0.002,-2.884,-3.100,13.403
14:49:47:807,10.658,-0.017,0.011,-0.006,-2.880,-3.038,13.415
14:49:47:833,10.684,-0.022,0.016,-0.002,-2.868,-2.943,13.440
14:49:47:859,10.710,-0.019,0.010,-0.002,-2.842,-2.878,13.469
14:49:47:886,10.737,-0.005,-0.003,0.011,-2.764,-2.842,13.528
14:49:47:912,10.763,-0.006,-0.005,0.009,-2.716,-2.831,13.557
14:49:47:938,10.789,-0.001,0.000,0.009,-2.689,-2.874,13.559
14:49:47:966,10.817,-0.004,0.006,0.006,-2.664,-2.972,13.569
14:49:47:991,10.841,0.001,0.002,0.008,-2.638,-3.062,13.575
14:49:48:046,10.897,0.008,0.000,0.006,-2.615,-3.157,13.555
14:49:48:046,10.897,-0.007,0.003,-0.001,-2.611,-3.173,13.550
14:49:48:069,10.920,-0.002,-0.005,0.007,-2.609,-3.172,13.562
14:49:48:097,10.948,0.006,0.000,0.006,-2.595,-3.160,13.597
14:49:48:122,10.973,0.003,0.004,0.008,-2.582,-3.127,13.611
14:49:48:15,11.001,0.003,0.004,0.008,-2.555,-3.041,13.640
14:49:48:174,11.025,0.014,0.005,0.021,-2.526,-2.990,13.665
14:49:48:231,11.082,0.022,0.001,0.017,-2.454,-2.909,13.676
14:49:48:232,11.083,0.026,0.003,0.024,-2.392,-2.835,13.668
14:49:48:253,11.104,0.026,0.002,0.001,-2.294,-2.640,13.614
14:49:48:28,11.131,0.015,0.007,0.001,-2.211,-2.323,13.576
14:49:48:306,11.157,0.006,0.008,-0.009,-2.155,-2.053,13.559
14:49:48:332,11.183,0.011,-0.010,0.009,-2.083,-1.609,13.525
14:49:48:358,11.209,-0.019,0.000,0.005,-2.072,-1.276,13.492
14:49:48:414,11.265,-0.015,-0.004,0.004,-2.103,-0.726,13.504
14:49:48:414,11.265,-0.049,0.001,-0.006,-2.159,-0.195,13.533
14:49:48:439,11.290,-0.052,-0.004,0.000,-2.191,0.026,13.543
14:49:48:464,11.314,-0.028,-0.006,0.003,-2.215,0.156,13.597
14:49:48:518,11.369,-0.031,0.007,-0.004,-2.246,0.176,13.682
14:49:48:518,11.369,-0.037,0.013,-0.014,-2.279,0.169,13.782
14:49:48:541,11.392,-0.023,0.007,-0.005,-2.331,0.123,13.860
14:49:48:568,11.419,-0.019,0.004,-0.007,-2.368,0.094,13.916
14:49:48:595,11.446,-0.003,-0.004,0.006,-2.407,0.001,13.971
14:49:48:62,11.471,-0.014,0.001,-0.001,-2.441,-0.071,14.006
14:49:48:648,11.499,-0.011,0.003,-0.002,-2.483,-0.215,14.059
14:49:48:703,11.554,0.001,0.004,-0.005,-2.504,-0.353,14.081
14:49:48:703,11.554,0.003,0.005,-0.004,-2.526,-0.579,14.108
14:49:48:725,11.576,0.008,0.001,0.004,-2.574,-0.820,14.126
14:49:48:811,11.662,0.006,0.005,0.008,-2.614,-0.981,14.133
14:49:48:812,11.663,0.010,0.009,0.010,-2.666,-1.220,14.161
14:49:48:813,11.664,0.014,0.004,0.003,-2.689,-1.379,14.183
14:49:48:831,11.681,0.015,0.001,0.010,-2.697,-1.641,14.198
14:49:48:856,11.707,0.022,-0.003,-0.004,-2.681,-1.883,14.184
14:49:48:941,11.792,0.022,0.004,-0.001,-2.690,-2.024,14.174
14:49:48:941,11.792,0.023,-0.001,-0.007,-2.720,-2.164,14.142
14:49:48:942,11.793,0.017,0.002,0.003,-2.743,-2.198,14.125
14:49:49:02,11.871,-0.003,0.004,-0.005,-2.765,-2.206,14.082
14:49:49:021,11.872,-0.007,0.005,0.003,-2.774,-2.219,14.048
14:49:49:021,11.872,0.001,0.007,-0.008,-2.768,-2.274,14.034
14:49:49:041,11.892,0.005,0.001,0.003,-2.756,-2.342,14.010
14:49:49:096,11.947,0.004,0.001,-0.006,-2.732,-2.422,13.985
14:49:49:096,11.947,-0.001,0.008,-0.011,-2.719,-2.493,13.956
14:49:49:119,11.970,-0.005,0.006,-0.005,-2.717,-2.557,13.924
14:49:49:146,11.997,0.000,0.001,0.006,-2.708,-2.687,13.867
14:49:49:172,12.023,0.000,-0.004,-0.007,-2.703,-2.832,13.826
14:49:49:198,12.049,0.010,0.002,0.000,-2.714,-2.916,13.811
14:49:49:224,12.075,-0.005,0.012,-0.008,-2.741,-3.023,13.772
14:49:49:25,12.101,0.003,0.009,0.001,-2.755,-3.102,13.731
14:49:49:276,12.127,0.000,0.004,-0.007,-2.753,-3.180,13.704
14:49:49:303,12.154,-0.004,0.002,-0.003,-2.747,-3.221,13.685
14:49:49:329,12.180,-0.014,-0.004,-0.006,-2.733,-3.283,13.646
14:49:49:355,12.206,-0.020,-0.013,-0.007,-2.730,-3.330,13.641
14:49:49:382,12.233,-0.014,-0.004,-0.014,-2.739,-3.335,13.654
14:49:49:408,12.259,-0.014,0.002,-0.014,-2.774,-3.398,13.638
14:49:49:434,12.285,-0.010,0.016,-0.018,-2.796,-3.452,13.611
14:49:49:462,12.313,-0.008,0.016,-0.015,-2.799,-3.540,13.552
14:49:49:516,12.367,-0.004,0.021,-0.004,-2.781,-3.675,13.483
14:49:49:517,12.368,0.006,0.011,0.007,-2.755,-3.795,13.427
14:49:49:54,12.391,-0.005,0.002,0.006,-2.714,-3.943,13.338
14:49:49:567,12.418,0.012,-0.012,-0.002,-2.681,-4.068,13.278
14:49:49:592,12.442,0.013,-0.018,-0.002,-2.655,-4.227,13.206
14:49:49:618,12.469,0.000,-0.017,-0.021,-2.698,-4.169,13.164
14:49:49:644,12.495,-0.014,-0.013,-0.024,-2.768,-4.027,13.162
14:49:49:702,12.553,-0.013,-0.002,-0.032,-2.893,-3.838,13.198
14:49:49:703,12.554,-0.023,0.007,-0.017,-2.973,-3.750,13.233
14:49:49:704,12.555,0.007,0.009,-0.015,-3.082,-3.734,13.272
14:49:49:723,12.574,-0.016,0.022,0.006,-3.154,-3.752,13.273
14:49:49:778,12.629,0.016,0.013,0.030,-3.184,-3.972,13.253
14:49:49:779,12.630,0.015,-0.006,0.040,-3.172,-4.216,13.229
14:49:49:831,12.681,0.017,-0.005,0.030,-3.143,-4.290,13.179
14:49:49:832,12.682,0.002,-0.001,0.022,-3.130,-4.277,13.131
14:49:49:912,12.763,0.009,-0.002,-0.002,-3.149,-4.254,13.131
14:49:49:913,12.764,0.005,-0.002,-0.006,-3.185,-4.237,13.122
14:49:49:914,12.765,0.003,-0.002,-0.014,-3.231,-4.248,13.084
14:49:49:933,12.784,-0.016,0.012,-0.004,-3.254,-4.255,13.041
14:49:49:989,12.840,-0.013,0.011,-0.006,-3.276,-4.298,13.025
14:49:49:989,12.840,0.004,0.000,0.007,-3.265,-4.349,13.028
14:49:50:012,12.862,0.009,0.001,0.007,-3.247,-4.377,13.033
14:49:50:038,12.889,-0.002,0.000,0.016,-3.215,-4.354,13.020
14:49:50:065,12.916,0.012,0.001,0.010,-3.178,-4.334,13.015
14:49:50:091,12.942,0.023,0.003,0.015,-3.126,-4.258,13.039
14:49:50:119,12.970,0.007,0.006,0.008,-3.099,-4.141,13.057
14:49:50:144,12.995,0.020,0.004,0.009,-3.049,-4.000,13.082
14:49:50:169,13.020,-0.003,0.006,0.002,-3.035,-3.881,13.091
14:49:50:196,13.047,0.004,-0.001,0.006,-3.007,-3.727,13.126
14:49:50:222,13.073,-0.009,0.000,0.005,-2.976,-3.598,13.146
14:49:50:248,13.099,-0.010,0.000,0.006,-2.952,-3.534,13.163
14:49:50:275,13.125,-0.005,0.001,0.006,-2.927,-3.449,13.201
14:49:50:3,13.151,-0.015,0.006,-0.002,-2.902,-3.395,13.219
14:49:50:329,13.180,-0.005,0.001,0.003,-2.867,-3.333,13.255
14:49:50:353,13.204,-0.003,0.002,-0.002,-2.830,-3.294,13.291
14:49:50:38,13.231,-0.005,0.001,0.002,-2.805,-3.268,13.320
14:49:50:405,13.256,0.002,0.000,-0.007,-2.762,-3.253,13.363
14:49:50:432,13.283,-0.001,0.004,0.002,-2.735,-3.240,13.391
14:49:50:488,13.339,0.011,0.002,-0.003,-2.706,-3.200,13.436
14:49:50:488,13.339,0.003,0.010,0.003,-2.697,-3.141,13.454
14:49:50:511,13.362,-0.005,0.003,-0.003,-2.676,-3.087,13.482
14:49:50:537,13.388,-0.010,-0.004,0.009,-2.638,-3.068,13.508
14:49:50:563,13.414,0.002,-0.004,0.001,-2.621,-3.070,13.539
14:49:50:589,13.440,0.008,-0.003,0.002,-2.611,-3.074,13.577
14:49:50:616,13.467,-0.004,0.006,-0.004,-2.611,-3.069,13.593
14:49:50:642,13.492,-0.005,0.004,0.000,-2.615,-3.068,13.624
14:49:50:667,13.518,0.001,0.003,0.001,-2.613,-3.073,13.671
14:49:50:696,13.547,-0.004,0.003,0.010,-2.609,-3.098,13.687
14:49:50:749,13.600,-0.002,0.005,0.003,-2.601,-3.143,13.715
14:49:50:75,13.601,0.004,-0.001,0.007,-2.571,-3.172,13.733
14:49:50:772,13.623,0.004,-0.005,-0.002,-2.543,-3.224,13.766
14:49:50:799,13.650,0.008,-0.001,0.008,-2.537,-3.248,13.794
14:49:50:826,13.677,-0.004,0.011,0.000,-2.533,-3.248,13.815
14:49:50:851,13.702,-0.011,0.014,-0.002,-2.515,-3.276,13.821
14:49:50:878,13.729,-0.008,0.003,0.002,-2.508,-3.298,13.842
14:49:50:906,13.757,0.001,0.004,0.007,-2.486,-3.388,13.878
14:49:50:931,13.782,-0.002,0.004,0.006,-2.470,-3.448,13.903
14:49:50:958,13.809,-0.005,0.006,0.006,-2.455,-3.513,13.901
14:49:50:984,13.835,-0.001,0.000,0.002,-2.422,-3.602,13.919
14:49:51:009,13.860,0.008,-0.006,0.000,-2.407,-3.678,13.937
14:49:51:035,13.886,-0.001,0.008,0.001,-2.382,-3.773,13.948
14:49:51:061,13.912,-0.012,0.013,-0.004,-2.374,-3.850,13.955
14:49:51:088,13.939,-0.004,0.001,0.012,-2.338,-3.981,13.962
14:49:51:116,13.967,0.005,0.000,0.006,-2.301,-4.135,13.996
14:49:51:169,14.020,0.000,0.001,0.010,-2.278,-4.217,14.011
14:49:51:17,14.021,-0.008,0.007,0.000,-2.246,-4.342,14.012
14:49:51:194,14.045,-0.007,0.004,0.012,-2.219,-4.442,14.018
14:49:51:219,14.070,0.005,0.006,0.001,-2.178,-4.592,14.057
14:49:51:245,14.096,0.006,0.010,0.001,-2.159,-4.677,14.067
14:49:51:272,14.123,-0.005,0.011,-0.007,-2.114,-4.790,14.072
14:49:51:328,14.179,-0.004,-0.001,0.005,-2.081,-4.911,14.068
14:49:51:328,14.179,0.005,-0.004,-0.005,-2.057,-4.995,14.098
14:49:51:352,14.203,0.018,-0.009,0.000,-2.031,-5.109,14.171
14:49:51:378,14.229,0.014,-0.002,-0.012,-2.015,-5.160,14.194
14:49:51:43,14.281,-0.001,0.007,0.000,-1.991,-5.255,14.174
14:49:51:46,14.311,-0.003,0.011,0.000,-1.984,-5.373,14.148
14:49:51:46,14.311,0.001,0.008,0.007,-1.983,-5.470,14.152
14:49:51:481,14.332,0.001,0.007,0.004,-1.975,-5.619,14.156
14:49:51:508,14.359,-0.009,0.001,0.016,-1.962,-5.696,14.163
14:49:51:563,14.414,-0.011,0.000,0.010,-1.939,-5.790,14.163
14:49:51:564,14.415,-0.012,-0.001,0.009,-1.912,-5.894,14.173
14:49:51:588,14.439,0.000,0.000,0.002,-1.885,-5.984,14.178
14:49:51:613,14.464,-0.006,0.003,0.003,-1.854,-6.115,14.184
14:49:51:639,14.490,-0.005,0.004,0.000,-1.837,-6.226,14.176
14:49:51:665,14.516,-0.003,0.004,0.001,-1.803,-6.430,14.149
14:49:51:692,14.543,0.004,-0.001,0.005,-1.770,-6.641,14.134
14:49:51:718,14.569,0.008,0.004,0.006,-1.751,-6.779,14.131
14:49:51:744,14.595,0.005,0.001,0.005,-1.734,-6.945,14.107
14:49:51:77,14.621,0.004,0.002,-0.002,-1.731,-7.033,14.080
14:49:51:798,14.649,0.005,0.006,0.004,-1.721,-7.161,14.045
14:49:51:823,14.674,0.001,0.005,-0.002,-1.723,-7.275,14.011
14:49:51:85,14.701,0.004,0.003,0.007,-1.714,-7.366,13.982
14:49:51:876,14.727,0.006,0.007,-0.003,-1.684,-7.487,13.925
14:49:51:901,14.752,-0.003,0.019,0.004,-1.679,-7.575,13.868
14:49:51:927,14.778,0.001,-0.002,0.008,-1.664,-7.750,13.796
14:49:51:954,14.805,0.007,-0.002,0.009,-1.667,-7.837,13.769
14:49:51:98,14.831,0.000,0.000,0.001,-1.634,-7.926,13.724
14:49:52:007,14.858,0.007,-0.004,0.011,-1.595,-8.031,13.644
14:49:52:036,14.887,0.000,-0.007,0.000,-1.580,-8.085,13.591
14:49:52:036,14.887,-0.003,-0.007,-0.001,-1.556,-8.172,13.518
14:49:52:087,14.938,0.001,0.000,-0.001,-1.537,-8.257,13.465
14:49:52:144,14.995,-0.002,0.004,-0.004,-1.513,-8.343,13.351
14:49:52:144,14.995,-0.007,0.007,-0.007,-1.490,-8.430,13.237
14:49:52:164,15.015,-0.004,0.001,-0.013,-1.502,-8.567,13.099
14:49:52:191,15.042,-0.004,-0.006,-0.001,-1.515,-8.614,13.050
14:49:52:217,15.068,-0.009,-0.004,-0.007,-1.538,-8.695,12.966
14:49:52:243,15.094,-0.016,0.002,-0.003,-1.557,-8.733,12.915
14:49:52:298,15.149,-0.002,0.000,-0.001,-1.570,-8.833,12.845
14:49:52:299,15.150,-0.009,0.002,-0.002,-1.589,-8.907,12.788
14:49:52:323,15.174,-0.014,0.001,-0.002,-1.609,-8.945,12.758
14:49:52:348,15.199,-0.008,-0.001,0.001,-1.636,-9.025,12.715
14:49:52:374,15.225,-0.003,-0.004,-0.003,-1.654,-9.074,12.705
14:49:52:431,15.282,-0.008,-0.002,-0.003,-1.685,-9.127,12.708
14:49:52:431,15.282,0.002,-0.005,-0.002,-1.710,-9.191,12.692
14:49:52:453,15.304,-0.003,-0.001,-0.001,-1.735,-9.220,12.680
14:49:52:479,15.330,0.000,-0.003,-0.001,-1.772,-9.265,12.682
14:49:52:505,15.356,0.001,0.001,-0.007,-1.798,-9.272,12.682
14:49:52:532,15.383,0.003,-0.004,0.002,-1.814,-9.270,12.683
14:49:52:558,15.409,0.006,-0.006,-0.008,-1.841,-9.257,12.682
14:49:52:584,15.435,-0.004,0.003,-0.004,-1.875,-9.234,12.680
14:49:52:611,15.462,0.006,-0.003,0.000,-1.896,-9.232,12.680
14:49:52:637,15.487,0.006,0.003,-0.006,-1.898,-9.227,12.685
14:49:52:663,15.514,-0.002,0.016,-0.013,-1.912,-9.188,12.682
14:49:52:718,15.569,0.000,0.002,0.003,-1.922,-9.204,12.665
14:49:52:719,15.570,-0.002,0.002,-0.007,-1.961,-9.223,12.641
14:49:52:771,15.622,-0.005,-0.005,0.005,-1.967,-9.198,12.655
14:49:52:771,15.622,0.006,0.002,0.001,-1.957,-9.197,12.657
14:49:52:794,15.645,-0.005,0.008,0.003,-1.965,-9.198,12.625
14:49:52:82,15.671,0.001,0.005,0.001,-1.984,-9.181,12.610
14:49:52:847,15.698,0.004,-0.003,0.005,-1.988,-9.171,12.640
14:49:52:902,15.753,0.002,0.003,0.000,-1.993,-9.105,12.675
14:49:52:903,15.754,0.005,0.002,0.001,-1.998,-9.064,12.675
14:49:52:926,15.777,0.007,-0.001,-0.002,-1.992,-9.017,12.671
14:49:52:952,15.803,0.000,-0.005,0.000,-1.996,-8.951,12.697
14:49:52:978,15.829,0.007,-0.004,-0.002,-1.992,-8.843,12.734
14:49:53:004,15.855,0.007,0.000,-0.001,-1.982,-8.781,12.727
14:49:53:03,15.881,0.000,0.001,-0.005,-1.973,-8.734,12.714
14:49:53:057,15.908,0.000,0.000,0.001,-1.985,-8.688,12.717
14:49:53:141,15.992,-0.008,0.007,0.000,-1.993,-8.654,12.710
14:49:53:142,15.993,-0.008,0.003,0.004,-2.007,-8.600,12.702
14:49:53:143,15.994,-0.010,-0.004,0.011,-2.012,-8.574,12.707
14:49:53:163,16.014,-0.004,-0.009,0.014,-2.022,-8.539,12.730
14:49:53:189,16.040,-0.013,-0.001,-0.001,-2.037,-8.469,12.758
14:49:53:214,16.065,0.008,0.002,-0.004,-2.033,-8.422,12.764
14:49:53:241,16.092,-0.017,0.016,-0.003,-2.040,-8.362,12.784
14:49:53:297,16.148,0.008,0.001,-0.002,-2.042,-8.351,12.825
14:49:53:297,16.148,0.018,0.004,0.002,-2.055,-8.306,12.878
14:49:53:319,16.170,-0.014,0.019,-0.013,-2.033,-8.242,12.925
14:49:53:346,16.197,0.018,0.002,0.004,-2.018,-8.219,12.939
14:49:53:399,16.249,0.013,0.005,0.004,-2.021,-8.182,12.996
14:49:53:427,16.278,0.008,0.001,0.007,-2.026,-8.168,13.030
14:49:53:427,16.278,0.005,-0.002,0.007,-2.035,-8.117,13.059
14:49:53:45,16.301,-0.004,0.000,0.020,-2.041,-8.107,13.058
14:49:53:507,16.358,0.000,-0.008,0.002,-2.039,-8.077,13.059
14:49:53:507,16.358,-0.007,0.003,0.003,-2.015,-8.013,13.075
14:49:53:529,16.380,0.017,0.001,-0.008,-2.002,-7.991,13.078
14:49:53:583,16.434,-0.016,0.013,-0.001,-1.997,-7.965,13.065
14:49:53:611,16.462,-0.004,0.001,-0.009,-1.984,-7.938,13.063
14:49:53:611,16.462,-0.003,0.004,-0.003,-1.973,-7.871,13.091
14:49:53:634,16.485,-0.016,-0.001,-0.003,-1.975,-7.839,13.102
14:49:53:661,16.512,0.009,-0.007,0.005,-1.976,-7.835,13.086
14:49:53:687,16.538,0.005,-0.001,-0.002,-1.987,-7.784,13.084
14:49:53:714,16.565,0.007,-0.003,0.006,-1.992,-7.763,13.094
14:49:53:74,16.591,-0.003,-0.003,0.003,-2.004,-7.725,13.101
14:49:53:765,16.616,0.000,0.014,0.008,-2.015,-7.668,13.115
14:49:53:792,16.643,-0.001,0.017,0.007,-2.019,-7.650,13.124
14:49:53:818,16.669,0.002,0.006,0.007,-2.022,-7.633,13.129
14:49:53:844,16.695,0.005,0.004,0.012,-2.025,-7.599,13.144
14:49:53:871,16.722,-0.010,0.001,0.016,-2.024,-7.562,13.181
14:49:53:897,16.748,0.013,-0.004,0.011,-2.007,-7.524,13.180
14:49:53:923,16.774,-0.010,0.007,0.007,-1.998,-7.466,13.178
14:49:53:951,16.802,0.000,0.003,0.001,-1.977,-7.418,13.198
14:49:53:976,16.827,-0.005,0.002,-0.006,-1.962,-7.390,13.208
14:49:54:031,16.882,-0.004,0.001,-0.004,-1.941,-7.337,13.223
14:49:54:031,16.882,-0.003,0.002,-0.006,-1.927,-7.299,13.232
14:49:54:054,16.905,-0.002,0.004,0.000,-1.928,-7.284,13.248
14:49:54:08,16.931,0.004,0.005,-0.007,-1.905,-7.229,13.295
14:49:54:107,16.958,-0.003,0.005,0.000,-1.897,-7.182,13.323
14:49:54:135,16.986,0.007,-0.009,0.002,-1.884,-7.149,13.358
14:49:54:16,17.011,0.005,-0.008,0.006,-1.887,-7.071,13.394
14:49:54:186,17.037,-0.001,0.007,-0.008,-1.873,-6.988,13.419
14:49:54:212,17.063,-0.004,0.009,0.005,-1.851,-6.903,13.415
14:49:54:238,17.089,-0.003,0.002,0.005,-1.849,-6.873,13.416
14:49:54:264,17.115,0.003,-0.006,0.010,-1.854,-6.821,13.447
14:49:54:291,17.142,0.009,-0.002,0.005,-1.845,-6.769,13.469
14:49:54:349,17.200,-0.006,0.001,0.005,-1.838,-6.701,13.488
14:49:54:349,17.200,-0.005,0.009,-0.001,-1.849,-6.655,13.491
14:49:54:35,17.201,-0.001,0.000,0.003,-1.855,-6.619,13.516
14:49:54:369,17.220,-0.006,-0.005,-0.005,-1.869,-6.569,13.565
14:49:54:395,17.246,0.006,-0.003,-0.002,-1.869,-6.543,13.591
14:49:54:451,17.302,-0.003,0.004,-0.008,-1.881,-6.477,13.604
14:49:54:451,17.302,-0.006,0.007,-0.006,-1.892,-6.437,13.644
14:49:54:503,17.354,0.009,-0.003,-0.003,-1.898,-6.422,13.678
14:49:54:504,17.355,0.004,0.000,0.001,-1.914,-6.366,13.732
14:49:54:527,17.378,0.000,0.004,0.000,-1.917,-6.340,13.768
14:49:54:554,17.405,0.001,0.006,0.004,-1.929,-6.295,13.811
14:49:54:58,17.431,0.001,0.004,0.003,-1.940,-6.253,13.871
14:49:54:635,17.486,0.003,-0.001,0.000,-1.951,-6.228,13.916
14:49:54:635,17.486,0.009,-0.002,0.003,-1.976,-6.184,13.967
14:49:54:659,17.510,0.012,0.003,0.001,-1.994,-6.170,13.989
14:49:54:685,17.536,-0.020,0.009,0.011,-2.025,-6.148,13.996
14:49:54:737,17.588,-0.004,0.002,0.007,-2.041,-6.161,14.002
14:49:54:793,17.643,-0.012,0.006,-0.006,-2.041,-6.161,14.002
14:49:54:793,17.643,-0.002,0.004,0.002,-2.023,-6.189,14.006
14:49:54:815,17.666,-0.010,-0.001,-0.002,-2.014,-6.234,14.034
14:49:54:841,17.692,0.004,-0.002,0.000,-2.009,-6.274,14.055
14:49:54:868,17.719,0.000,0.007,-0.009,-2.003,-6.283,14.077
14:49:54:894,17.745,-0.005,0.011,0.002,-2.006,-6.283,14.107
14:49:54:92,17.771,0.017,-0.001,-0.006,-1.999,-6.302,14.130
14:49:54:947,17.798,0.014,0.005,0.005,-2.007,-6.277,14.184
14:49:54:975,17.826,-0.002,0.005,0.001,-2.010,-6.272,14.210
14:49:54:999,17.850,0.002,0.003,0.015,-2.011,-6.256,14.225
14:49:55:026,17.877,-0.002,-0.002,0.007,-2.016,-6.235,14.235
14:49:55:052,17.903,-0.002,0.000,0.008,-2.002,-6.234,14.259
14:49:55:078,17.929,0.022,-0.002,-0.012,-1.983,-6.184,14.321
14:49:55:105,17.956,0.004,0.005,0.000,-1.996,-6.103,14.350
14:49:55:131,17.982,-0.009,0.007,-0.006,-1.989,-5.988,14.344
14:49:55:159,18.010,0.000,0.005,0.005,-1.989,-5.900,14.360
14:49:55:183,18.034,0.002,0.007,0.007,-1.993,-5.767,14.402
14:49:55:209,18.060,-0.008,0.005,0.012,-2.005,-5.654,14.412
14:49:55:236,18.087,-0.012,0.006,0.008,-2.009,-5.583,14.412
14:49:55:291,18.142,-0.007,0.006,0.007,-1.982,-5.513,14.414
14:49:55:292,18.143,-0.008,0.008,0.008,-1.961,-5.495,14.425
14:49:55:314,18.165,-0.002,0.002,0.007,-1.921,-5.480,14.425
14:49:55:34,18.191,-0.001,0.003,0.001,-1.874,-5.474,14.427
14:49:55:367,18.218,-0.005,0.001,0.000,-1.834,-5.459,14.427
14:49:55:393,18.244,0.001,0.000,0.000,-1.779,-5.447,14.416
14:49:55:422,18.273,0.001,-0.001,-0.003,-1.756,-5.439,14.406
14:49:55:446,18.297,-0.002,0.000,0.007,-1.724,-5.436,14.404
14:49:55:473,18.324,-0.003,0.003,0.002,-1.704,-5.428,14.404
14:49:55:499,18.350,-0.006,0.003,0.006,-1.709,-5.388,14.403
14:49:55:525,18.376,-0.008,0.003,-0.005,-1.718,-5.338,14.412
14:49:55:552,18.402,-0.006,0.001,0.003,-1.720,-5.306,14.423
14:49:55:577,18.428,-0.008,0.003,-0.004,-1.715,-5.258,14.441
14:49:55:633,18.484,-0.008,0.003,0.003,-1.726,-5.225,14.443
14:49:55:633,18.484,-0.014,0.004,-0.001,-1.729,-5.189,14.438
14:49:55:656,18.507,-0.005,0.003,0.006,-1.706,-5.170,14.439
14:49:55:681,18.532,0.001,0.003,0.000,-1.701,-5.154,14.436
14:49:55:708,18.559,-0.001,0.000,0.007,-1.685,-5.090,14.441
14:49:55:734,18.585,-0.002,0.009,0.000,-1.676,-5.026,14.455
14:49:55:76,18.611,-0.003,0.002,0.010,-1.673,-4.944,14.478
14:49:55:787,18.638,-0.002,-0.001,0.011,-1.664,-4.886,14.476
14:49:55:813,18.664,0.000,-0.005,0.016,-1.663,-4.848,14.473
14:49:55:839,18.690,-0.002,-0.002,0.010,-1.680,-4.804,14.474
14:49:55:866,18.717,-0.002,0.002,0.008,-1.682,-4.780,14.489
14:49:55:892,18.743,-0.004,0.008,0.000,-1.694,-4.728,14.508
14:49:55:918,18.769,-0.006,0.006,0.006,-1.708,-4.693,14.500
14:49:55:944,18.795,-0.010,0.002,0.004,-1.694,-4.630,14.515
14:49:55:972,18.823,0.002,-0.002,0.011,-1.687,-4.576,14.539
14:49:56:055,18.906,-0.001,-0.001,0.008,-1.697,-4.532,14.552
14:49:56:055,18.906,-0.013,0.003,0.008,-1.721,-4.440,14.559
14:49:56:056,18.907,-0.010,0.002,0.004,-1.727,-4.400,14.558
14:49:56:075,18.926,-0.005,0.003,0.010,-1.736,-4.370,14.577
14:49:56:101,18.952,-0.007,0.006,0.009,-1.740,-4.350,14.597
14:49:56:128,18.979,-0.003,-0.004,0.010,-1.742,-4.328,14.597
14:49:56:154,19.005,-0.007,0.002,0.006,-1.744,-4.324,14.601
14:49:56:18,19.031,-0.001,0.000,0.000,-1.747,-4.324,14.611
14:49:56:206,19.057,0.003,-0.001,0.008,-1.746,-4.314,14.622
14:49:56:262,19.113,-0.005,0.000,0.000,-1.761,-4.289,14.624
14:49:56:263,19.114,-0.013,0.000,0.007,-1.758,-4.277,14.625
14:49:56:286,19.137,-0.001,0.001,0.000,-1.756,-4.303,14.651
14:49:56:312,19.163,-0.005,0.007,0.008,-1.752,-4.309,14.656
14:49:56:338,19.189,-0.002,0.001,0.003,-1.752,-4.309,14.656
14:49:56:365,19.216,-0.008,0.001,0.011,-1.751,-4.318,14.657
14:49:56:42,19.270,-0.007,0.003,0.000,-1.755,-4.334,14.660
14:49:56:421,19.271,-0.003,0.003,0.006,-1.751,-4.365,14.661
14:49:56:443,19.294,-0.005,0.000,0.010,-1.748,-4.384,14.662
14:49:56:471,19.322,-0.010,-0.003,0.008,-1.743,-4.425,14.662
14:49:56:497,19.348,-0.003,0.012,-0.001,-1.750,-4.447,14.660
14:49:56:551,19.402,0.001,0.003,0.003,-1.745,-4.488,14.660
14:49:56:551,19.402,-0.002,0.001,0.004,-1.729,-4.533,14.648
14:49:56:575,19.426,-0.008,-0.005,0.013,-1.721,-4.554,14.628
14:49:56:601,19.452,-0.002,-0.001,0.004,-1.730,-4.590,14.621
14:49:56:659,19.510,-0.007,0.010,0.006,-1.746,-4.603,14.627
14:49:56:659,19.510,-0.010,0.013,-0.002,-1.756,-4.604,14.624
14:49:56:66,19.511,-0.013,0.003,0.003,-1.754,-4.613,14.624
14:49:56:709,19.560,-0.007,0.001,0.001,-1.752,-4.640,14.629
14:49:56:709,19.560,-0.003,-0.004,0.007,-1.733,-4.688,14.623
14:49:56:759,19.610,-0.003,0.000,0.007,-1.741,-4.716,14.626
14:49:56:813,19.664,-0.009,0.005,0.006,-1.745,-4.732,14.629
14:49:56:813,19.664,-0.005,0.004,0.006,-1.736,-4.761,14.631
14:49:56:839,19.690,-0.003,0.002,0.005,-1.730,-4.782,14.621
14:49:56:84,19.691,-0.006,0.001,0.006,-1.722,-4.822,14.613
14:49:56:864,19.715,-0.003,-0.001,0.000,-1.720,-4.827,14.608
14:49:56:89,19.741,-0.009,0.005,0.003,-1.728,-4.827,14.596
14:49:56:916,19.767,-0.013,0.007,-0.001,-1.721,-4.843,14.581
14:49:56:942,19.793,-0.003,0.004,0.005,-1.712,-4.874,14.563
14:49:56:968,19.819,-0.003,0.000,-0.001,-1.711,-4.889,14.547
14:49:56:994,19.845,-0.005,0.000,0.006,-1.711,-4.889,14.547
14:49:57:022,19.873,-0.007,0.002,-0.001,-1.711,-4.889,14.547
14:49:57:048,19.899,-0.007,0.006,0.005,-1.711,-4.889,14.547
14:49:57:073,19.924,-0.003,0.001,0.000,-1.711,-4.889,14.547
14:49:57:1,19.951,-0.006,0.000,0.009,-1.711,-4.889,14.547
14:49:57:125,19.976,-0.015,0.005,-0.001,-1.712,-4.879,14.547
14:49:57:151,20.002,-0.018,0.007,0.006,-1.711,-4.889,14.547
14:49:57:178,20.029,-0.002,-0.006,0.007,-1.696,-4.939,14.540
14:49:57:204,20.055,0.003,0.001,0.006,-1.677,-5.009,14.543
14:49:57:23,20.081,-0.013,0.010,0.001,-1.673,-5.018,14.534
14:49:57:286,20.137,-0.019,0.010,0.006,-1.662,-5.066,14.499
14:49:57:286,20.137,-0.004,-0.004,0.005,-1.630,-5.170,14.490
14:49:57:309,20.160,0.003,-0.006,0.008,-1.617,-5.230,14.492
14:49:57:336,20.187,0.001,0.006,0.002,-1.596,-5.311,14.475
14:49:57:363,20.214,-0.010,0.006,-0.001,-1.586,-5.341,14.456
14:49:57:388,20.239,-0.001,0.004,0.000,-1.583,-5.388,14.430
14:49:57:414,20.265,0.008,-0.003,-0.001,-1.569,-5.458,14.432
14:49:57:441,20.292,0.000,0.001,-0.001,-1.562,-5.489,14.423
14:49:57:467,20.318,-0.005,0.000,0.003,-1.551,-5.518,14.395
14:49:57:493,20.343,-0.002,0.000,0.003,-1.548,-5.538,14.375
14:49:57:52,20.371,0.000,0.001,0.006,-1.543,-5.569,14.375
14:49:57:545,20.396,-0.001,-0.004,0.003,-1.546,-5.575,14.369
14:49:57:571,20.422,-0.006,0.005,-0.004,-1.546,-5.575,14.369
14:49:57:598,20.449,0.000,0.004,-0.001,-1.544,-5.580,14.364
14:49:57:624,20.475,-0.003,0.001,-0.007,-1.546,-5.576,14.348
14:49:57:65,20.501,-0.006,0.001,-0.001,-1.543,-5.576,14.338
14:49:57:676,20.527,-0.001,0.000,-0.002,-1.543,-5.576,14.338
14:49:57:705,20.556,0.004,0.001,0.002,-1.543,-5.576,14.338
14:49:57:731,20.582,0.003,0.001,-0.004,-1.551,-5.556,14.337
14:49:57:756,20.607,0.002,0.000,0.001,-1.553,-5.530,14.332
14:49:57:782,20.633,-0.005,0.006,-0.004,-1.578,-5.471,14.337
14:49:57:808,20.659,-0.006,0.000,0.001,-1.594,-5.423,14.333
14:49:57:834,20.685,-0.003,0.005,-0.007,-1.612,-5.362,14.331
14:49:57:862,20.712,-0.013,0.007,0.001,-1.625,-5.302,14.328
14:49:57:888,20.739,-0.009,0.002,-0.003,-1.632,-5.282,14.327
14:49:57:913,20.764,-0.008,0.007,0.001,-1.630,-5.261,14.328
14:49:57:939,20.790,-0.008,0.003,0.000,-1.633,-5.268,14.321
14:49:57:966,20.817,-0.003,-0.003,0.014,-1.625,-5.292,14.287
14:49:57:992,20.843,-0.003,-0.009,0.004,-1.621,-5.303,14.277
14:49:58:018,20.869,-0.001,-0.003,0.002,-1.621,-5.308,14.282
14:49:58:044,20.895,0.002,0.001,-0.006,-1.628,-5.298,14.281
14:49:58:071,20.922,-0.006,0.007,-0.003,-1.632,-5.267,14.281
14:49:58:097,20.948,0.000,-0.002,-0.007,-1.639,-5.241,14.295
14:49:58:123,20.974,0.001,0.000,0.001,-1.642,-5.216,14.310
14:49:58:15,21.001,-0.004,0.000,0.000,-1.658,-5.167,14.327
14:49:58:176,21.027,-0.006,0.003,0.008,-1.667,-5.132,14.341
14:49:58:231,21.082,-0.008,0.006,-0.001,-1.675,-5.112,14.340
14:49:58:231,21.082,0.003,0.001,0.002,-1.678,-5.112,14.370
14:49:58:255,21.106,0.001,0.006,0.002,-1.680,-5.101,14.390
14:49:58:28,21.131,0.000,0.000,0.000,-1.675,-5.074,14.398
14:49:58:307,21.158,-0.001,0.004,0.000,-1.684,-5.044,14.416
14:49:58:333,21.184,0.004,0.001,0.003,-1.684,-5.038,14.432
14:49:58:359,21.210,-0.005,0.003,0.003,-1.695,-5.024,14.445
14:49:58:386,21.237,0.006,-0.001,-0.001,-1.694,-5.019,14.440
14:49:58:412,21.263,-0.001,0.002,0.007,-1.695,-4.992,14.466
14:49:58:467,21.318,0.003,-0.001,-0.004,-1.712,-4.937,14.499
14:49:58:468,21.319,0.002,0.000,0.005,-1.717,-4.891,14.515
14:49:58:49,21.341,0.001,0.000,-0.004,-1.732,-4.831,14.522
14:49:58:517,21.368,-0.004,0.007,0.001,-1.732,-4.773,14.529
14:49:58:544,21.395,-0.004,0.008,-0.007,-1.723,-4.700,14.522
14:49:58:569,21.420,-0.003,-0.002,0.007,-1.724,-4.658,14.523
14:49:58:595,21.446,-0.002,-0.003,0.000,-1.730,-4.603,14.517
14:49:58:622,21.473,-0.002,0.009,0.000,-1.753,-4.543,14.533
14:49:58:648,21.499,-0.006,0.008,0.002,-1.757,-4.507,14.527
14:49:58:675,21.526,-0.006,0.003,0.008,-1.742,-4.485,14.521
14:49:58:701,21.552,-0.003,-0.002,0.003,-1.728,-4.473,14.505
14:49:58:727,21.578,0.000,0.001,0.005,-1.704,-4.497,14.505
14:49:58:753,21.604,0.006,-0.001,-0.002,-1.704,-4.497,14.505
14:49:58:782,21.632,0.001,0.002,-0.001,-1.713,-4.473,14.508
14:49:58:806,21.657,-0.004,0.002,-0.005,-1.723,-4.438,14.491
14:49:58:831,21.682,0.000,0.000,0.000,-1.731,-4.418,14.489
14:49:58:858,21.709,-0.002,0.001,-0.002,-1.734,-4.396,14.489
14:49:58:885,21.736,-0.010,0.006,-0.001,-1.744,-4.358,14.487
14:49:58:911,21.762,-0.003,0.001,-0.004,-1.750,-4.348,14.485
14:49:58:937,21.788,-0.003,-0.002,0.005,-1.750,-4.348,14.485
14:49:58:966,21.817,-0.004,-0.001,0.002,-1.770,-4.355,14.485
14:49:58:966,21.817,0.005,-0.003,-0.004,-1.800,-4.338,14.488
14:49:59:015,21.866,-0.008,0.002,-0.001,-1.813,-4.318,14.486
14:49:59:045,21.896,-0.010,0.004,-0.002,-1.837,-4.322,14.479
14:49:59:046,21.897,-0.002,0.009,0.000,-1.863,-4.336,14.481
14:49:59:097,21.948,-0.004,0.001,0.003,-1.883,-4.343,14.481
14:49:59:098,21.949,-0.011,0.003,0.004,-1.908,-4.350,14.480
14:49:59:122,21.973,-0.004,0.000,0.000,-1.918,-4.351,14.478
14:49:59:148,21.998,-0.001,0.000,0.002,-1.923,-4.353,14.476
14:49:59:173,22.024,-0.004,0.003,-0.004,-1.930,-4.333,14.474
14:49:59:199,22.050,-0.003,0.005,0.003,-1.938,-4.314,14.473
14:49:59:225,22.076,-0.008,0.009,-0.007,-1.941,-4.292,14.473
14:49:59:252,22.103,0.000,0.000,0.003,-1.939,-4.298,14.488
14:49:59:279,22.130,-0.012,0.004,-0.010,-1.941,-4.282,14.524
14:49:59:305,22.156,0.001,0.008,0.000,-1.957,-4.236,14.557
14:49:59:33,22.181,-0.009,0.008,-0.008,-1.956,-4.206,14.558
14:49:59:386,22.237,-0.008,0.004,0.009,-1.962,-4.196,14.557
14:49:59:387,22.238,0.000,-0.004,0.003,-1.961,-4.194,14.568
14:49:59:438,22.289,0.001,0.000,0.003,-1.964,-4.168,14.604
14:49:59:439,22.290,-0.010,0.007,-0.006,-1.976,-4.139,14.632
14:49:59:462,22.313,0.001,0.008,-0.004,-1.987,-4.077,14.641
14:49:59:488,22.339,-0.001,0.005,-0.005,-1.998,-4.033,14.654
14:49:59:514,22.365,-0.006,0.001,0.007,-2.001,-4.011,14.675
14:49:59:541,22.392,0.001,-0.002,0.004,-2.015,-3.972,14.702
14:49:59:568,22.419,-0.007,0.003,0.003,-2.021,-3.951,14.712
14:49:59:622,22.473,0.000,0.001,-0.001,-2.026,-3.930,14.722
14:49:59:623,22.474,-0.001,0.002,0.004,-2.026,-3.930,14.722
14:49:59:646,22.497,-0.008,0.002,0.000,-2.024,-3.931,14.732
14:49:59:672,22.523,-0.002,0.000,0.006,-2.024,-3.931,14.732
14:49:59:727,22.578,-0.005,0.006,0.003,-2.024,-3.931,14.732
14:49:59:728,22.579,-0.009,0.006,0.004,-2.024,-3.931,14.732
14:49:59:751,22.602,-0.005,0.001,0.001,-2.023,-3.940,14.732
14:49:59:777,22.628,-0.004,0.003,0.004,-2.019,-3.971,14.733
14:49:59:803,22.653,-0.007,0.004,0.003,-2.005,-4.001,14.736
14:49:59:829,22.680,-0.005,0.005,0.002,-1.995,-4.025,14.733
14:49:59:855,22.706,-0.002,0.004,0.001,-1.991,-4.056,14.733
14:49:59:911,22.762,-0.005,0.004,-0.004,-1.992,-4.061,14.738
14:49:59:911,22.762,-0.004,0.003,0.002,-1.991,-4.071,14.739
14:49:59:937,22.788,-0.002,0.003,0.001,-1.975,-4.105,14.737
14:49:59:96,22.811,0.007,0.000,0.002,-1.967,-4.124,14.739
14:49:59:987,22.838,0.001,0.003,-0.003,-1.961,-4.135,14.740
14:50:00:013,22.864,-0.001,0.000,0.006,-1.961,-4.135,14.740
14:50:00:098,22.949,-0.011,0.007,-0.008,-1.956,-4.140,14.746
14:50:00:099,22.950,-0.002,0.006,0.001,-1.935,-4.157,14.752
14:50:00:099,22.950,0.003,-0.004,-0.001,-1.907,-4.169,14.754
14:50:00:119,22.970,-0.003,-0.007,0.011,-1.895,-4.178,14.736
14:50:00:174,23.024,-0.019,0.007,-0.001,-1.895,-4.178,14.736
14:50:00:175,23.025,-0.006,0.004,0.008,-1.887,-4.198,14.737
14:50:00:197,23.048,0.005,0.002,0.000,-1.868,-4.221,14.737
14:50:00:223,23.074,-0.007,0.003,0.000,-1.866,-4.233,14.737
14:50:00:25,23.101,-0.011,0.002,0.002,-1.865,-4.242,14.737
14:50:00:275,23.126,0.000,0.000,0.006,-1.856,-4.272,14.739
14:50:00:302,23.153,-0.003,0.003,-0.003,-1.846,-4.313,14.741
14:50:00:359,23.210,-0.002,-0.002,0.004,-1.837,-4.342,14.743
14:50:00:359,23.210,-0.004,0.001,-0.001,-1.826,-4.383,14.744
14:50:00:381,23.232,-0.001,-0.001,0.003,-1.809,-4.427,14.743
14:50:00:407,23.258,0.001,0.002,0.000,-1.808,-4.436,14.744
14:50:00:434,23.285,-0.004,0.007,0.002,-1.808,-4.436,14.744
14:50:00:46,23.311,-0.011,0.007,0.002,-1.806,-4.448,14.743
14:50:00:488,23.339,-0.008,0.005,0.007,-1.795,-4.496,14.746
14:50:00:513,23.364,0.000,-0.001,0.003,-1.777,-4.557,14.749
14:50:00:539,23.390,-0.002,0.000,0.001,-1.766,-4.598,14.750
14:50:00:564,23.415,-0.004,0.003,0.001,-1.753,-4.653,14.748
14:50:00:59,23.441,0.000,0.000,-0.004,-1.743,-4.692,14.750
14:50:00:617,23.468,0.001,0.003,0.003,-1.733,-4.738,14.757
14:50:00:643,23.494,0.002,0.003,-0.003,-1.724,-4.753,14.753
14:50:00:669,23.520,-0.008,0.004,0.004,-1.722,-4.752,14.744
14:50:00:696,23.547,-0.009,0.007,-0.005,-1.724,-4.754,14.732
14:50:00:752,23.602,-0.006,0.005,0.006,-1.721,-4.773,14.733
14:50:00:752,23.602,-0.001,0.002,0.000,-1.710,-4.809,14.730
14:50:00:774,23.625,-0.001,0.001,0.005,-1.702,-4.834,14.715
14:50:00:8,23.651,0.001,0.009,-0.003,-1.700,-4.853,14.716
14:50:00:826,23.677,0.001,0.009,0.003,-1.692,-4.874,14.697
14:50:00:853,23.704,-0.009,0.003,-0.001,-1.686,-4.893,14.668
14:50:00:879,23.730,-0.007,-0.004,0.007,-1.673,-4.945,14.649
14:50:00:906,23.757,0.001,-0.003,0.000,-1.665,-4.974,14.651
14:50:00:932,23.783,0.001,0.004,0.001,-1.660,-5.000,14.646
14:50:00:958,23.809,-0.009,0.012,-0.005,-1.659,-5.001,14.625
14:50:00:985,23.835,-0.009,0.000,0.002,-1.655,-5.010,14.616
14:50:01:01,23.861,0.001,-0.004,0.004,-1.646,-5.034,14.613
14:50:01:037,23.888,-0.003,-0.002,0.003,-1.646,-5.034,14.613
14:50:01:063,23.914,-0.008,0.002,-0.005,-1.649,-5.032,14.586
14:50:01:089,23.940,-0.008,0.005,0.003,-1.642,-5.040,14.567
14:50:01:115,23.966,0.002,-0.001,0.004,-1.640,-5.067,14.572
14:50:01:141,23.992,0.000,-0.001,0.007,-1.633,-5.086,14.573
14:50:01:168,24.019,-0.002,0.001,0.001,-1.633,-5.086,14.573
14:50:01:194,24.045,-0.005,0.002,0.003,-1.643,-5.045,14.572
14:50:01:221,24.072,-0.011,0.005,0.001,-1.651,-5.026,14.571
14:50:01:277,24.128,-0.007,0.003,0.007,-1.652,-5.016,14.570
14:50:01:277,24.128,-0.002,-0.003,0.005,-1.651,-5.011,14.565
14:50:01:303,24.154,-0.001,-0.001,0.006,-1.658,-5.006,14.569
14:50:01:303,24.154,0.002,-0.001,0.000,-1.662,-4.970,14.564
14:50:01:355,24.206,0.000,0.001,-0.003,-1.672,-4.936,14.566
14:50:01:356,24.207,-0.004,0.003,0.002,-1.683,-4.895,14.565
14:50:01:379,24.230,-0.007,0.002,-0.002,-1.701,-4.842,14.566
14:50:01:464,24.315,-0.007,0.002,0.003,-1.705,-4.811,14.565
14:50:01:464,24.315,-0.007,0.002,0.000,-1.716,-4.775,14.569
14:50:01:464,24.315,-0.004,0.006,0.000,-1.719,-4.761,14.573
14:50:01:485,24.336,-0.005,0.001,-0.002,-1.720,-4.735,14.599
14:50:01:511,24.362,0.001,0.002,0.005,-1.711,-4.724,14.602
14:50:01:536,24.387,0.001,0.007,-0.007,-1.720,-4.683,14.631
14:50:01:563,24.414,-0.008,0.006,0.005,-1.733,-4.642,14.639
14:50:01:588,24.439,-0.014,0.002,0.002,-1.728,-4.621,14.631
14:50:01:616,24.467,-0.007,-0.004,0.009,-1.730,-4.617,14.635
14:50:01:641,24.492,0.000,-0.002,0.000,-1.732,-4.621,14.661
14:50:01:666,24.517,-0.003,0.003,0.007,-1.742,-4.596,14.685
14:50:01:722,24.573,0.001,0.002,-0.010,-1.748,-4.555,14.684
14:50:01:723,24.574,-0.006,0.004,0.003,-1.757,-4.531,14.687
14:50:01:745,24.596,-0.005,0.000,0.005,-1.761,-4.500,14.687
14:50:01:774,24.625,-0.003,0.001,0.006,-1.769,-4.480,14.685
14:50:01:8,24.651,-0.007,0.007,0.002,-1.781,-4.449,14.693
14:50:01:854,24.705,-0.006,0.005,0.007,-1.781,-4.435,14.688
14:50:01:854,24.705,-0.008,0.002,-0.001,-1.783,-4.430,14.693
14:50:01:878,24.729,-0.005,-0.002,0.010,-1.783,-4.430,14.693
14:50:01:904,24.755,0.000,0.000,0.003,-1.783,-4.430,14.693
14:50:01:93,24.780,-0.001,0.005,-0.002,-1.783,-4.430,14.693
14:50:01:955,24.806,-0.010,0.011,0.002,-1.783,-4.430,14.693
14:50:02:01,24.861,0.001,0.001,0.000,-1.784,-4.435,14.698
14:50:02:011,24.862,-0.013,0.003,0.001,-1.785,-4.426,14.697
14:50:02:035,24.886,0.001,0.001,0.006,-1.785,-4.426,14.697
14:50:02:061,24.912,0.001,0.001,0.004,-1.790,-4.420,14.691
14:50:02:087,24.938,0.000,0.000,-0.002,-1.793,-4.400,14.711
14:50:02:113,24.964,0.001,0.000,0.000,-1.799,-4.365,14.715
14:50:02:139,24.990,-0.004,0.002,-0.008,-1.812,-4.319,14.719
14:50:02:166,25.017,-0.010,0.007,-0.001,-1.818,-4.289,14.728
14:50:02:192,25.043,0.003,0.004,-0.005,-1.831,-4.259,14.756
14:50:02:22,25.071,0.001,0.001,0.004,-1.842,-4.223,14.759
14:50:02:245,25.096,-0.006,0.007,-0.007,-1.851,-4.194,14.757
14:50:02:271,25.122,-0.008,0.005,0.006,-1.854,-4.174,14.777
14:50:02:297,25.147,0.008,-0.005,-0.001,-1.859,-4.162,14.787
14:50:02:323,25.174,-0.014,0.011,0.002,-1.883,-4.082,14.813
14:50:02:351,25.202,-0.013,0.009,-0.001,-1.883,-4.068,14.808
14:50:02:376,25.227,-0.022,0.007,0.005,-1.876,-4.065,14.800
14:50:02:402,25.253,0.002,-0.004,0.002,-1.850,-4.099,14.801
14:50:02:428,25.279,0.005,-0.002,0.005,-1.842,-4.135,14.807
14:50:02:454,25.305,-0.004,0.005,-0.004,-1.857,-4.090,14.820
14:50:02:481,25.332,-0.010,0.007,-0.002,-1.868,-4.049,14.818
14:50:02:507,25.358,-0.004,0.000,0.001,-1.875,-4.029,14.817
14:50:02:533,25.384,-0.001,-0.002,0.011,-1.875,-4.029,14.817
14:50:02:56,25.411,-0.009,0.005,0.003,-1.879,-3.998,14.816
14:50:02:586,25.437,-0.010,0.007,0.003,-1.881,-3.989,14.816
14:50:02:611,25.462,-0.005,0.005,0.001,-1.867,-4.019,14.819
14:50:02:638,25.489,0.003,0.001,0.004,-1.849,-4.062,14.818
14:50:02:664,25.515,-0.010,0.004,-0.002,-1.843,-4.072,14.819
14:50:02:692,25.543,0.003,-0.002,0.005,-1.851,-4.058,14.822
14:50:02:717,25.568,-0.007,0.001,0.001,-1.856,-4.027,14.822
14:50:02:743,25.594,-0.008,0.006,0.002,-1.873,-3.983,14.823
14:50:02:769,25.620,-0.007,0.002,0.002,-1.876,-3.947,14.818
14:50:02:796,25.647,-0.012,0.004,0.005,-1.885,-3.933,14.821
14:50:02:822,25.673,-0.005,0.001,0.008,-1.885,-3.933,14.821
14:50:02:848,25.699,-0.001,0.002,0.000,-1.885,-3.933,14.821
14:50:02:874,25.725,-0.007,0.004,0.000,-1.895,-3.891,14.820
14:50:02:9,25.751,-0.011,0.003,-0.005,-1.900,-3.840,14.830
14:50:02:927,25.778,-0.006,0.001,0.001,-1.911,-3.826,14.842
14:50:02:983,25.834,-0.005,0.003,-0.001,-1.913,-3.790,14.868
14:50:03:006,25.857,-0.007,0.007,-0.002,-1.924,-3.765,14.892
14:50:03:032,25.883,-0.007,0.002,0.008,-1.925,-3.764,14.912
14:50:03:058,25.908,-0.007,0.002,0.000,-1.926,-3.763,14.933
14:50:03:086,25.937,-0.006,0.003,0.005,-1.930,-3.749,14.958
14:50:03:11,25.961,-0.009,0.003,0.004,-1.931,-3.748,14.979
14:50:03:138,25.989,0.000,0.000,0.005,-1.929,-3.743,15.005
14:50:03:165,26.016,-0.005,0.011,-0.001,-1.943,-3.701,15.034
14:50:03:189,26.040,-0.010,0.014,0.004,-1.924,-3.679,15.049
14:50:03:217,26.068,-0.011,0.006,0.008,-1.861,-3.686,15.040
14:50:03:243,26.094,-0.010,0.000,0.012,-1.808,-3.701,15.013
14:50:03:268,26.119,-0.018,0.009,0.009,-1.742,-3.782,14.972
14:50:03:294,26.145,-0.020,0.008,0.021,-1.703,-3.892,14.948
14:50:03:321,26.172,-0.025,0.009,0.004,-1.615,-4.109,14.915
14:50:03:38,26.231,-0.024,0.003,0.009,-1.514,-4.413,14.899
14:50:03:381,26.232,-0.013,-0.001,-0.002,-1.453,-4.669,14.883
14:50:03:382,26.233,-0.020,0.002,0.005,-1.378,-5.131,14.845
14:50:03:426,26.276,-0.014,0.004,0.002,-1.349,-5.464,14.829
14:50:03:452,26.303,-0.004,0.008,0.001,-1.297,-5.930,14.853
14:50:03:482,26.333,0.003,0.009,-0.006,-1.271,-6.211,14.899
14:50:03:482,26.333,0.004,0.002,0.003,-1.267,-6.578,15.015
14:50:03:504,26.355,0.010,-0.003,0.003,-1.248,-6.866,15.152
14:50:03:559,26.410,0.004,-0.013,-0.001,-1.235,-6.984,15.287
14:50:03:56,26.411,0.019,-0.021,0.003,-1.224,-7.040,15.535
14:50:03:583,26.434,0.038,-0.011,-0.013,-1.244,-6.981,15.702
14:50:03:609,26.460,0.027,-0.008,-0.004,-1.305,-6.830,15.866
14:50:03:636,26.487,0.033,-0.011,-0.013,-1.368,-6.566,16.033
14:50:03:662,26.513,0.033,-0.007,-0.008,-1.412,-6.311,16.132
14:50:03:689,26.540,0.030,-0.003,-0.017,-1.494,-5.870,16.283
14:50:03:715,26.566,0.032,0.002,-0.009,-1.556,-5.546,16.348
14:50:03:741,26.592,0.020,-0.004,-0.008,-1.635,-4.996,16.424
14:50:03:767,26.618,0.004,-0.002,0.006,-1.698,-4.588,16.460
14:50:03:794,26.644,-0.004,0.006,-0.002,-1.810,-3.906,16.552
14:50:03:819,26.670,-0.011,0.010,0.010,-1.902,-3.200,16.670
14:50:03:846,26.697,-0.013,0.008,0.017,-1.954,-2.726,16.751
14:50:03:872,26.723,-0.038,0.014,0.026,-2.026,-2.007,16.840
14:50:03:898,26.749,-0.037,0.012,0.010,-2.019,-1.557,16.916
14:50:03:924,26.775,-0.029,0.011,0.016,-1.984,-0.908,17.072
14:50:03:951,26.802,-0.033,0.003,0.004,-1.949,-0.290,17.237
14:50:03:977,26.828,-0.025,0.002,0.013,-1.948,0.085,17.328
14:50:04:005,26.856,-0.038,0.012,0.002,-1.967,0.610,17.434
14:50:04:059,26.910,-0.037,0.017,0.001,-1.964,0.898,17.508
14:50:04:059,26.910,-0.022,-0.004,0.011,-1.948,1.187,17.544
14:50:04:081,26.932,-0.057,-0.001,0.016,-1.971,1.478,17.689
14:50:04:108,26.959,-0.037,0.004,0.010,-1.980,1.586,17.786
14:50:04:134,26.985,-0.018,0.003,0.014,-2.001,1.644,17.892
14:50:04:187,27.038,-0.038,0.009,0.017,-2.048,1.687,18.049
14:50:04:213,27.064,-0.024,0.005,0.010,-2.052,1.557,18.123
14:50:04:268,27.119,-0.032,0.020,0.018,-2.080,1.501,18.165
14:50:04:269,27.120,-0.017,0.007,0.012,-2.084,1.281,18.220
14:50:04:293,27.144,-0.020,0.007,-0.001,-2.093,1.107,18.237
14:50:04:347,27.198,-0.005,0.003,0.009,-2.112,0.768,18.272
14:50:04:348,27.199,0.003,0.002,0.002,-2.118,0.515,18.273
14:50:04:371,27.222,-0.001,0.007,-0.002,-2.149,0.146,18.246
14:50:04:398,27.249,0.015,0.007,-0.003,-2.170,-0.243,18.200
14:50:04:423,27.274,0.012,0.007,0.004,-2.196,-0.479,18.185
14:50:04:449,27.300,0.028,0.005,-0.002,-2.206,-0.885,18.164
14:50:04:506,27.357,-0.004,-0.001,0.006,-2.231,-1.097,18.151
14:50:04:506,27.357,-0.004,0.001,-0.001,-2.257,-1.429,18.122
14:50:04:558,27.409,0.011,0.002,0.005,-2.273,-1.647,18.085
14:50:04:558,27.409,0.003,0.010,-0.003,-2.294,-1.964,18.050
14:50:04:581,27.432,0.020,0.000,0.006,-2.301,-2.268,18.029
14:50:04:606,27.457,0.014,-0.001,-0.003,-2.302,-2.431,18.018
14:50:04:633,27.484,0.007,0.008,0.001,-2.295,-2.650,17.994
14:50:04:66,27.511,0.014,0.007,-0.006,-2.276,-2.778,17.969
14:50:04:685,27.536,0.008,0.006,0.004,-2.245,-2.926,17.968
14:50:04:712,27.563,0.018,0.000,-0.006,-2.214,-3.051,17.989
14:50:04:767,27.618,0.013,0.007,-0.008,-2.181,-3.129,17.996
14:50:04:791,27.642,0.015,-0.004,0.003,-2.155,-3.146,18.012
14:50:04:818,27.669,0.029,-0.001,-0.013,-2.142,-3.122,18.027
14:50:04:844,27.695,0.019,0.009,-0.002,-2.133,-3.049,18.011
14:50:04:87,27.721,0.009,0.009,0.001,-2.114,-3.011,17.980
14:50:04:924,27.775,0.008,0.006,0.007,-2.078,-2.954,17.940
14:50:04:951,27.802,0.011,0.006,0.004,-2.060,-2.903,17.941
14:50:04:952,27.803,0.017,0.004,0.009,-2.019,-2.805,17.934
14:50:04:975,27.825,0.001,0.004,0.000,-1.977,-2.676,17.886
14:50:05:,27.851,0.000,0.006,0.003,-1.965,-2.575,17.846
14:50:05:026,27.877,0.001,-0.011,0.001,-1.931,-2.472,17.821
14:50:05:053,27.904,-0.001,-0.004,-0.009,-1.910,-2.418,17.797
14:50:05:079,27.930,-0.008,0.001,-0.003,-1.892,-2.333,17.711
14:50:05:105,27.956,0.000,-0.002,-0.010,-1.879,-2.287,17.647
14:50:05:132,27.983,-0.019,0.001,-0.003,-1.868,-2.213,17.591
14:50:05:187,28.038,-0.014,-0.004,-0.010,-1.876,-2.144,17.548
14:50:05:188,28.039,-0.006,-0.005,0.000,-1.896,-2.100,17.518
14:50:05:211,28.062,-0.008,0.003,-0.013,-1.911,-2.015,17.520
14:50:05:236,28.087,-0.008,0.003,-0.005,-1.938,-1.950,17.520
14:50:05:263,28.114,-0.003,0.010,-0.007,-1.962,-1.870,17.485
14:50:05:318,28.169,-0.014,0.013,0.008,-1.977,-1.821,17.471
14:50:05:319,28.170,-0.004,0.003,-0.002,-2.019,-1.775,17.461
14:50:05:343,28.194,-0.008,0.004,0.016,-2.065,-1.745,17.454
14:50:05:37,28.221,-0.010,0.004,0.020,-2.077,-1.757,17.461
14:50:05:396,28.247,-0.006,0.010,0.023,-2.076,-1.763,17.445
14:50:05:421,28.271,-0.007,0.014,0.015,-2.063,-1.761,17.438
14:50:05:446,28.297,-0.006,0.007,0.021,-2.045,-1.763,17.449
14:50:05:473,28.324,-0.004,0.003,0.010,-2.018,-1.759,17.467
14:50:05:499,28.350,0.000,0.000,0.010,-1.987,-1.754,17.486
14:50:05:555,28.406,0.001,0.004,-0.001,-1.949,-1.742,17.513
14:50:05:555,28.406,0.001,0.007,-0.002,-1.917,-1.721,17.539
14:50:05:639,28.490,-0.002,0.002,-0.002,-1.871,-1.708,17.578
14:50:05:64,28.491,0.000,-0.008,-0.001,-1.851,-1.651,17.638
14:50:05:641,28.492,0.002,0.007,-0.012,-1.843,-1.593,17.668
14:50:05:642,28.493,-0.002,0.006,-0.003,-1.817,-1.546,17.698
14:50:05:686,28.537,0.002,-0.001,0.001,-1.807,-1.528,17.707
14:50:05:687,28.538,-0.002,-0.002,-0.003,-1.816,-1.475,17.758
14:50:05:71,28.561,0.007,-0.004,0.000,-1.806,-1.441,17.794
14:50:05:765,28.616,0.008,0.005,0.000,-1.807,-1.432,17.793
14:50:05:766,28.617,0.001,0.012,-0.001,-1.830,-1.408,17.783
14:50:05:817,28.668,0.007,0.005,0.000,-1.851,-1.413,17.766
14:50:05:817,28.668,0.007,0.002,0.008,-1.859,-1.418,17.759
14:50:05:84,28.691,0.010,0.002,0.004,-1.862,-1.414,17.732
14:50:05:898,28.749,0.007,0.008,0.009,-1.892,-1.390,17.661
14:50:05:898,28.749,-0.001,0.014,-0.001,-1.912,-1.359,17.556
14:50:05:919,28.770,0.001,0.003,0.009,-1.911,-1.351,17.483
14:50:05:946,28.797,0.000,0.005,0.002,-1.920,-1.355,17.366
14:50:05:972,28.823,-0.002,0.001,0.006,-1.941,-1.363,17.264
14:50:05:999,28.850,-0.012,0.002,-0.005,-1.961,-1.392,17.090
14:50:06:024,28.875,-0.015,-0.004,0.006,-1.960,-1.442,16.979
14:50:06:051,28.902,-0.031,0.002,-0.005,-1.982,-1.553,16.833
14:50:06:077,28.928,-0.018,-0.001,0.002,-2.009,-1.685,16.748
14:50:06:103,28.954,-0.003,-0.011,-0.005,-2.005,-1.760,16.705
14:50:06:13,28.981,-0.003,-0.021,-0.007,-2.007,-1.844,16.650
14:50:06:156,29.006,0.001,-0.026,-0.018,-2.040,-1.928,16.592
14:50:06:181,29.032,0.002,-0.011,-0.015,-2.078,-1.956,16.538
14:50:06:208,29.059,0.000,0.001,-0.021,-2.154,-2.010,16.463
14:50:06:234,29.085,0.019,-0.007,-0.012,-2.215,-2.041,16.414
14:50:06:261,29.112,0.017,0.012,-0.015,-2.329,-2.000,16.294
14:50:06:316,29.167,0.004,0.032,-0.009,-2.398,-1.939,16.192
14:50:06:317,29.168,0.007,0.042,-0.017,-2.479,-1.833,16.041
14:50:06:34,29.191,0.023,0.032,-0.001,-2.541,-1.738,16.004
14:50:06:367,29.217,0.032,0.018,0.002,-2.571,-1.658,16.059
14:50:06:392,29.243,0.066,-0.003,0.018,-2.613,-1.488,16.172
14:50:06:418,29.269,0.063,-0.017,0.019,-2.613,-1.305,16.202
14:50:06:444,29.295,0.066,-0.007,0.004,-2.630,-0.847,16.186
14:50:06:471,29.322,0.031,-0.004,0.000,-2.689,-0.277,16.007
14:50:06:497,29.348,0.023,-0.006,0.002,-2.724,0.073,15.951
14:50:06:524,29.374,0.002,0.017,0.005,-2.812,0.579,15.888
14:50:06:579,29.430,-0.010,0.025,-0.005,-2.834,0.891,15.814
14:50:06:579,29.430,-0.025,0.010,0.023,-2.834,1.262,15.732
14:50:06:602,29.453,-0.005,-0.012,0.028,-2.808,1.395,15.664
14:50:06:628,29.479,-0.041,-0.004,0.026,-2.777,1.549,15.545
14:50:06:654,29.505,-0.020,-0.014,0.008,-2.741,1.702,15.396
14:50:06:68,29.531,-0.033,-0.005,0.013,-2.746,1.773,15.290
14:50:06:707,29.558,-0.052,0.006,-0.006,-2.791,1.721,15.148
14:50:06:733,29.584,-0.046,0.029,-0.005,-2.820,1.599,15.020
14:50:06:761,29.612,-0.088,0.056,-0.017,-2.776,1.393,14.676
14:50:06:788,29.639,-0.072,0.018,-0.001,-2.549,0.895,14.364
14:50:06:813,29.663,-0.039,0.000,-0.007,-2.356,0.404,14.157
14:50:06:838,29.689,-0.041,-0.006,0.001,-2.145,-0.320,13.944
14:50:06:864,29.715,-0.018,-0.013,-0.008,-2.019,-0.860,13.856
14:50:06:89,29.741,-0.013,-0.002,-0.001,-1.905,-1.734,13.788
14:50:06:917,29.768,-0.006,0.005,-0.015,-1.869,-2.558,13.756
14:50:06:972,29.823,-0.015,0.012,-0.014,-1.867,-3.035,13.779
14:50:06:973,29.824,-0.002,0.007,-0.029,-1.862,-3.711,13.856
14:50:06:995,29.846,0.004,0.005,-0.024,-1.854,-4.154,13.933
14:50:07:022,29.873,0.008,0.004,-0.036,-1.875,-4.763,14.062
14:50:07:048,29.899,0.025,-0.005,-0.026,-1.891,-5.166,14.134
14:50:07:075,29.926,0.029,-0.007,-0.033,-1.934,-5.757,14.226
14:50:07:101,29.952,0.037,-0.014,-0.018,-1.978,-6.329,14.278
14:50:07:127,29.978,0.038,-0.024,-0.017,-2.032,-6.685,14.301
14:50:07:153,30.004,0.039,-0.019,-0.015,-2.116,-7.136,14.306
14:50:07:181,30.032,0.044,-0.037,-0.002,-2.167,-7.378,14.322
14:50:07:205,30.056,0.042,-0.046,0.004,-2.200,-7.629,14.331
14:50:07:231,30.082,0.049,-0.044,0.012,-2.225,-7.719,14.371
14:50:07:258,30.109,0.053,-0.012,0.008,-2.270,-7.667,14.397
14:50:07:284,30.135,0.082,0.036,0.014,-2.333,-7.506,14.673
14:50:07:311,30.162,0.091,0.055,0.012,-2.453,-7.235,14.879
14:50:07:337,30.188,0.081,0.048,0.011,-2.704,-6.414,15.081
14:50:07:363,30.214,0.032,0.036,0.019,-2.954,-5.252,15.130
14:50:07:389,30.240,0.006,-0.003,0.020,-3.090,-4.503,15.133
14:50:07:416,30.267,-0.045,-0.027,0.016,-3.241,-3.657,15.086
14:50:07:442,30.293,-0.050,-0.034,0.028,-3.276,-3.360,15.007
14:50:07:468,30.319,-0.036,-0.030,0.013,-3.219,-3.309,14.820
14:50:07:497,30.348,-0.042,0.002,0.014,-3.146,-3.308,14.719
14:50:07:523,30.374,-0.043,0.025,0.001,-3.072,-3.281,14.469
14:50:07:548,30.399,-0.049,0.041,0.012,-3.025,-3.277,14.315
14:50:07:574,30.424,-0.053,0.026,-0.002,-2.993,-3.138,14.274
14:50:07:599,30.450,-0.060,0.006,0.011,-2.922,-2.886,14.415
14:50:07:627,30.478,-0.066,-0.004,0.004,-2.908,-2.700,14.458
14:50:07:682,30.533,-0.060,-0.010,0.011,-2.886,-2.426,14.624
14:50:07:683,30.534,-0.045,0.002,0.009,-2.872,-2.315,14.902
14:50:07:705,30.556,-0.043,0.011,0.009,-2.858,-2.338,15.036
14:50:07:731,30.582,-0.018,0.006,0.014,-2.798,-2.469,15.160
14:50:07:757,30.607,-0.007,0.008,0.018,-2.752,-2.592,15.208
14:50:07:783,30.634,0.010,0.012,0.015,-2.694,-2.788,15.267
14:50:07:838,30.689,0.015,0.017,0.021,-2.631,-2.983,15.276
14:50:07:839,30.690,0.009,0.004,0.021,-2.591,-3.096,15.270
14:50:07:862,30.713,0.023,0.005,0.015,-2.512,-3.196,15.254
14:50:07:888,30.739,0.002,0.013,-0.004,-2.479,-3.172,15.242
14:50:07:914,30.765,-0.004,0.012,-0.007,-2.459,-3.134,15.263
14:50:07:944,30.795,-0.006,0.014,-0.007,-2.459,-3.131,15.295
14:50:07:944,30.795,-0.003,0.006,-0.006,-2.459,-3.156,15.342
14:50:07:967,30.818,0.002,0.001,0.001,-2.456,-3.191,15.420
14:50:08:022,30.873,0.000,0.000,-0.003,-2.442,-3.216,15.470
14:50:08:023,30.874,-0.001,-0.006,0.001,-2.416,-3.201,15.519
14:50:08:046,30.897,-0.004,-0.006,-0.014,-2.378,-3.268,15.549
14:50:08:073,30.924,0.007,-0.012,-0.009,-2.306,-3.289,15.589
14:50:08:098,30.949,0.012,-0.005,-0.016,-2.253,-3.302,15.634
14:50:08:126,30.977,0.013,-0.003,-0.007,-2.270,-3.293,15.682
14:50:08:15,31.001,0.014,-0.003,-0.011,-2.256,-3.260,15.727
14:50:08:177,31.028,0.016,-0.004,-0.003,-2.235,-3.228,15.751
14:50:08:203,31.054,0.015,0.007,-0.007,-2.230,-3.104,15.795
14:50:08:259,31.110,0.011,0.009,0.005,-2.268,-2.982,15.840
14:50:08:26,31.111,0.004,0.015,-0.005,-2.333,-2.776,15.915
14:50:08:282,31.133,0.002,0.015,0.005,-2.348,-2.526,15.979
14:50:08:309,31.160,0.005,0.013,0.002,-2.333,-2.363,16.023
14:50:08:335,31.185,0.001,0.007,0.001,-2.296,-2.326,16.076
14:50:08:36,31.211,0.001,-0.003,-0.003,-2.251,-2.167,16.098
14:50:08:387,31.238,-0.001,-0.003,-0.001,-2.200,-1.957,16.143
14:50:08:413,31.264,-0.005,-0.003,-0.013,-2.163,-1.779,16.194
14:50:08:439,31.290,-0.002,-0.008,-0.004,-2.107,-1.708,16.191
14:50:08:465,31.316,-0.003,-0.007,-0.008,-2.014,-1.676,16.156
14:50:08:494,31.345,0.001,0.005,-0.001,-1.983,-1.679,16.128
14:50:08:519,31.370,0.000,0.007,0.000,-2.017,-1.677,16.113
14:50:08:545,31.396,0.001,0.021,0.000,-2.057,-1.662,16.113
14:50:08:571,31.422,0.002,0.009,-0.002,-2.009,-1.640,16.090
14:50:08:597,31.448,-0.007,0.001,0.014,-1.925,-1.626,16.025
14:50:08:623,31.474,-0.016,-0.002,0.005,-1.894,-1.621,15.993
14:50:08:65,31.501,-0.007,-0.002,0.001,-1.829,-1.563,15.981
14:50:08:676,31.527,0.013,-0.021,-0.004,-1.755,-1.636,15.990
14:50:08:704,31.554,0.005,-0.004,-0.005,-1.752,-1.730,15.989
14:50:08:73,31.581,-0.009,0.014,-0.009,-1.826,-1.703,15.973
14:50:08:756,31.607,-0.008,0.014,-0.009,-1.869,-1.725,15.965
14:50:08:781,31.632,0.006,0.008,0.000,-1.884,-1.748,15.971
14:50:08:807,31.658,0.004,0.002,0.000,-1.881,-1.722,15.967
14:50:08:833,31.684,-0.002,0.004,0.008,-1.877,-1.722,15.937
14:50:08:86,31.711,-0.003,0.002,0.000,-1.871,-1.732,15.907
14:50:08:885,31.736,0.002,0.001,0.003,-1.861,-1.751,15.900
14:50:08:912,31.763,0.009,-0.005,-0.005,-1.855,-1.777,15.895
14:50:08:938,31.789,0.002,0.000,-0.002,-1.878,-1.780,15.899
14:50:08:965,31.816,-0.007,0.005,-0.011,-1.907,-1.784,15.891
14:50:08:991,31.842,-0.002,0.004,0.000,-1.903,-1.820,15.896
14:50:09:018,31.869,0.007,-0.003,-0.004,-1.894,-1.849,15.898
14:50:09:044,31.895,0.007,0.000,0.004,-1.884,-1.875,15.894
14:50:09:07,31.921,0.003,0.006,-0.001,-1.884,-1.875,15.894
14:50:09:096,31.947,0.001,0.005,0.001,-1.895,-1.839,15.898
14:50:09:121,31.972,0.004,-0.002,0.000,-1.907,-1.784,15.891
14:50:09:148,31.999,0.009,-0.006,0.002,-1.931,-1.730,15.890
14:50:09:174,32.025,-0.009,0.003,-0.004,-1.967,-1.593,15.889
14:50:09:2,32.051,-0.012,-0.004,0.008,-1.989,-1.513,15.884
14:50:09:228,32.079,-0.010,0.010,-0.004,-2.020,-1.433,15.909
14:50:09:254,32.105,-0.001,0.007,0.002,-2.024,-1.380,15.930
14:50:09:28,32.131,-0.001,0.004,0.004,-2.023,-1.328,15.952
14:50:09:306,32.157,-0.006,0.001,0.006,-2.009,-1.300,15.963
14:50:09:332,32.183,0.000,-0.004,0.000,-1.998,-1.302,15.982
14:50:09:358,32.209,0.005,-0.003,0.005,-1.995,-1.276,16.009
14:50:09:385,32.236,-0.008,0.008,-0.001,-2.010,-1.241,16.021
14:50:09:411,32.262,-0.010,0.008,0.002,-2.016,-1.205,16.025
14:50:09:437,32.288,-0.008,0.006,-0.002,-2.016,-1.214,16.047
14:50:09:464,32.314,-0.010,0.008,0.001,-1.997,-1.234,16.062
14:50:09:489,32.340,0.001,0.010,0.002,-1.972,-1.291,16.079
14:50:09:515,32.366,-0.002,0.015,-0.003,-1.954,-1.342,16.082
14:50:09:542,32.393,0.004,0.005,0.005,-1.897,-1.439,16.085
14:50:09:568,32.419,0.010,-0.002,-0.003,-1.858,-1.517,16.084
14:50:09:624,32.475,0.015,-0.005,0.008,-1.813,-1.600,16.100
14:50:09:624,32.475,-0.003,0.001,-0.006,-1.815,-1.625,16.104
14:50:09:647,32.498,-0.008,0.002,-0.003,-1.819,-1.637,16.102
14:50:09:675,32.526,-0.004,0.007,-0.008,-1.807,-1.675,16.136
14:50:09:699,32.550,0.003,0.001,0.002,-1.788,-1.714,16.162
14:50:09:728,32.579,0.006,-0.001,-0.003,-1.758,-1.736,16.195
14:50:09:753,32.604,0.000,0.002,0.007,-1.747,-1.727,16.225
14:50:09:779,32.630,0.001,0.008,0.000,-1.728,-1.719,16.247
14:50:09:806,32.657,0.007,0.004,0.008,-1.648,-1.698,16.259
14:50:09:859,32.710,0.009,0.004,-0.006,-1.580,-1.673,16.254
14:50:09:86,32.711,-0.004,0.005,0.002,-1.497,-1.605,16.253
14:50:09:883,32.734,0.005,-0.001,0.000,-1.422,-1.585,16.244
14:50:09:909,32.760,0.005,0.008,0.007,-1.386,-1.569,16.245
14:50:09:935,32.786,0.006,0.015,-0.001,-1.307,-1.570,16.235
14:50:09:962,32.813,-0.003,0.009,0.011,-1.245,-1.582,16.201
14:50:09:989,32.840,-0.003,0.000,0.007,-1.144,-1.645,16.134
14:50:10:015,32.866,0.001,-0.005,0.008,-1.074,-1.704,16.095
14:50:10:041,32.892,0.004,-0.002,0.004,-1.022,-1.761,16.045
14:50:10:067,32.918,-0.006,0.002,0.003,-1.015,-1.773,15.994
14:50:10:093,32.944,-0.016,0.008,-0.002,-1.024,-1.775,15.971
14:50:10:12,32.971,-0.013,0.005,-0.002,-1.012,-1.811,15.967
14:50:10:148,32.999,-0.015,0.000,0.008,-0.997,-1.833,15.966
14:50:10:175,33.026,-0.013,-0.003,0.008,-0.952,-1.874,15.962
14:50:10:176,33.027,-0.018,-0.001,0.005,-0.924,-1.934,15.968
14:50:10:227,33.078,-0.011,0.002,0.007,-0.904,-1.998,15.987
14:50:10:228,33.079,0.001,-0.002,0.005,-0.867,-2.107,16.025
14:50:10:28,33.131,-0.001,-0.004,-0.003,-0.849,-2.166,16.049
14:50:10:281,33.132,0.000,0.001,0.002,-0.838,-2.232,16.096
14:50:10:303,33.154,0.002,0.003,-0.001,-0.860,-2.262,16.162
14:50:10:355,33.206,-0.002,0.003,0.000,-0.904,-2.259,16.270
14:50:10:381,33.232,0.002,-0.001,0.003,-0.923,-2.255,16.312
14:50:10:408,33.259,0.006,-0.001,0.000,-0.939,-2.224,16.381
14:50:10:434,33.285,0.001,0.002,0.002,-0.946,-2.198,16.427
14:50:10:46,33.311,0.004,0.001,-0.003,-0.965,-2.140,16.492
14:50:10:487,33.338,0.003,0.003,0.003,-0.986,-2.063,16.556
14:50:10:513,33.364,0.003,0.003,-0.003,-1.005,-2.013,16.594
14:50:10:54,33.391,0.002,-0.001,0.011,-1.037,-1.915,16.646
14:50:10:566,33.417,0.000,0.009,0.001,-1.052,-1.843,16.676
14:50:10:593,33.444,0.002,0.015,0.001,-1.088,-1.737,16.737
14:50:10:619,33.470,-0.008,0.004,0.005,-1.087,-1.652,16.761
14:50:10:644,33.495,-0.011,0.001,0.011,-1.061,-1.621,16.765
14:50:10:67,33.521,0.002,-0.005,0.004,-1.006,-1.629,16.785
14:50:10:697,33.548,0.008,-0.001,0.005,-0.980,-1.631,16.808
14:50:10:724,33.575,0.003,0.007,-0.005,-0.987,-1.603,16.834
14:50:10:75,33.601,-0.004,0.010,0.000,-0.984,-1.567,16.841
14:50:10:776,33.627,0.000,0.004,0.000,-0.952,-1.551,16.851
14:50:10:802,33.653,0.000,0.000,0.006,-0.930,-1.542,16.863
14:50:10:828,33.679,0.000,-0.001,0.002,-0.910,-1.534,16.864
14:50:10:855,33.706,-0.004,0.001,-0.001,-0.904,-1.535,16.864
14:50:10:881,33.732,-0.008,0.005,0.000,-0.904,-1.535,16.864
14:50:10:908,33.758,0.001,0.000,0.002,-0.894,-1.559,16.862
14:50:10:934,33.785,-0.001,-0.001,0.005,-0.895,-1.564,16.866
14:50:10:96,33.811,-0.005,0.001,0.008,-0.896,-1.569,16.871
14:50:10:985,33.836,-0.007,0.007,0.001,-0.917,-1.570,16.887
14:50:11:012,33.863,-0.008,0.009,-0.003,-0.923,-1.571,16.905
14:50:11:067,33.918,-0.006,0.000,0.001,-0.912,-1.595,16.934
14:50:11:068,33.919,0.004,-0.002,0.000,-0.900,-1.639,16.972
14:50:11:092,33.943,-0.002,0.000,0.003,-0.889,-1.663,17.000
14:50:11:117,33.968,-0.002,0.002,0.000,-0.878,-1.701,17.034
14:50:11:143,33.994,-0.005,0.006,0.002,-0.876,-1.726,17.059
14:50:11:17,34.021,-0.004,0.002,-0.004,-0.888,-1.773,17.101
14:50:11:198,34.049,-0.005,0.002,0.003,-0.887,-1.803,17.132
14:50:11:222,34.073,-0.007,0.002,0.000,-0.871,-1.847,17.171
14:50:11:248,34.099,-0.003,0.001,0.012,-0.866,-1.896,17.233
14:50:11:277,34.127,-0.003,0.014,-0.002,-0.885,-1.912,17.285
14:50:11:301,34.152,-0.005,0.014,0.003,-0.871,-1.960,17.350
14:50:11:326,34.177,-0.006,0.005,0.007,-0.843,-2.034,17.370
14:50:11:354,34.205,-0.002,0.004,0.019,-0.786,-2.203,17.380
14:50:11:38,34.231,0.001,0.005,0.000,-0.704,-2.373,17.381
14:50:11:433,34.284,0.001,0.009,0.011,-0.647,-2.502,17.350
14:50:11:462,34.313,0.012,0.003,0.004,-0.596,-2.742,17.276
14:50:11:462,34.313,0.001,0.008,0.008,-0.587,-2.886,17.253
14:50:11:484,34.335,-0.003,0.008,-0.001,-0.562,-3.145,17.197
14:50:11:511,34.362,-0.004,0.009,0.010,-0.538,-3.394,17.142
14:50:11:567,34.418,-0.011,-0.005,0.004,-0.524,-3.853,17.045
14:50:11:567,34.418,-0.022,-0.006,0.010,-0.516,-4.416,16.933
14:50:11:589,34.440,-0.016,-0.006,0.000,-0.499,-4.861,16.870
14:50:11:616,34.467,-0.012,0.004,-0.004,-0.475,-5.576,16.758
14:50:11:642,34.493,-0.019,0.020,-0.011,-0.460,-6.063,16.662
14:50:11:668,34.519,-0.011,0.021,-0.010,-0.430,-6.805,16.572
14:50:11:694,34.545,0.000,0.019,-0.007,-0.381,-7.504,16.546
14:50:11:721,34.572,0.005,0.005,-0.001,-0.328,-7.918,16.544
14:50:11:747,34.598,0.011,-0.010,0.007,-0.278,-8.444,16.601
14:50:11:775,34.626,0.022,-0.015,0.008,-0.247,-8.725,16.671
14:50:11:828,34.679,0.033,-0.016,0.016,-0.177,-8.971,16.827
14:50:11:855,34.705,0.039,-0.027,0.003,-0.110,-8.899,17.033
14:50:11:855,34.706,0.035,-0.017,-0.003,-0.103,-8.661,17.203
14:50:11:878,34.729,0.039,-0.015,-0.019,-0.092,-8.172,17.454
14:50:11:904,34.755,0.044,-0.013,-0.022,-0.125,-7.772,17.583
14:50:11:93,34.781,0.048,-0.015,-0.031,-0.230,-7.079,17.760
14:50:11:957,34.808,0.049,-0.013,-0.030,-0.337,-6.593,17.820
14:50:11:983,34.834,0.052,-0.011,-0.030,-0.523,-5.840,17.828
14:50:12:01,34.861,0.025,-0.002,-0.007,-0.723,-5.017,17.781
14:50:12:036,34.887,0.013,0.012,-0.003,-0.825,-4.430,17.797
14:50:12:062,34.913,-0.026,0.004,0.029,-0.996,-3.433,17.851
14:50:12:088,34.939,-0.066,0.012,0.029,-1.093,-2.738,17.892
14:50:12:143,34.994,-0.068,0.001,0.042,-1.163,-1.760,17.924
14:50:12:144,34.995,-0.124,0.001,0.023,-1.133,-1.073,17.880
14:50:12:167,35.018,-0.110,0.005,0.030,-1.088,-0.849,17.796
14:50:12:193,35.044,-0.131,0.045,0.006,-0.998,-0.651,18.088
14:50:12:22,35.071,-0.104,0.040,0.009,-0.965,-0.622,18.041
14:50:12:246,35.097,-0.050,0.012,0.011,-0.865,-0.776,18.032
14:50:12:272,35.123,-0.006,-0.015,0.020,-0.724,-0.968,18.039
14:50:12:298,35.149,-0.006,-0.017,0.018,-0.674,-1.028,18.067
14:50:12:325,35.176,-0.006,-0.007,0.025,-0.729,-1.065,18.123
14:50:12:354,35.205,-0.021,0.011,0.023,-0.813,-1.056,18.172
14:50:12:354,35.205,-0.032,0.008,0.025,-0.937,-1.005,18.306
14:50:12:407,35.258,-0.047,0.004,0.017,-1.023,-1.025,18.375
14:50:12:407,35.258,-0.041,0.004,0.013,-1.088,-1.225,18.479
14:50:12:43,35.281,-0.039,0.008,0.007,-1.098,-1.572,18.594
14:50:12:484,35.335,-0.031,0.005,0.013,-1.085,-1.861,18.659
14:50:12:485,35.336,-0.033,0.003,0.009,-1.070,-2.342,18.723
14:50:12:537,35.388,-0.005,0.002,0.000,-1.064,-2.670,18.748
14:50:12:538,35.389,-0.003,0.002,0.003,-1.059,-3.158,18.762
14:50:12:56,35.411,0.013,-0.005,0.000,-1.022,-3.611,18.776
14:50:12:587,35.438,0.009,0.003,0.001,-1.019,-3.855,18.783
14:50:12:613,35.464,0.011,0.012,-0.004,-1.044,-4.159,18.807
14:50:12:64,35.491,0.013,0.004,0.007,-1.054,-4.364,18.832
14:50:12:695,35.546,0.020,0.006,0.001,-1.062,-4.638,18.878
14:50:12:696,35.547,0.016,0.006,0.004,-1.068,-4.778,18.908
14:50:12:719,35.570,0.019,0.004,0.001,-1.069,-4.959,18.927
14:50:12:745,35.596,0.008,0.004,0.008,-1.054,-5.097,18.942
14:50:12:829,35.680,0.027,-0.004,-0.004,-1.040,-5.146,18.964
14:50:12:829,35.680,0.017,0.000,0.001,-1.028,-5.200,18.991
14:50:12:83,35.681,0.010,0.007,-0.010,-1.046,-5.212,18.987
14:50:12:849,35.700,0.003,0.008,-0.006,-1.086,-5.176,19.009
14:50:12:876,35.727,0.014,-0.003,-0.012,-1.113,-5.113,19.061
14:50:12:901,35.752,0.022,-0.002,-0.003,-1.142,-5.054,19.087
14:50:12:928,35.779,0.022,0.009,-0.010,-1.211,-4.918,19.106
14:50:12:983,35.834,0.012,0.018,-0.002,-1.259,-4.802,19.087
14:50:12:984,35.835,0.006,0.018,0.006,-1.310,-4.612,19.071
14:50:13:007,35.858,0.010,0.014,0.014,-1.321,-4.447,19.064
14:50:13:033,35.884,0.009,0.008,0.012,-1.320,-4.329,19.042
14:50:13:088,35.939,-0.007,-0.003,0.008,-1.280,-4.129,18.954
14:50:13:115,35.966,-0.015,0.002,0.002,-1.259,-4.019,18.875
14:50:13:115,35.966,-0.013,0.001,0.000,-1.238,-3.901,18.734
14:50:13:138,35.989,-0.018,0.002,-0.006,-1.232,-3.872,18.643
14:50:13:164,36.015,-0.011,-0.004,0.003,-1.203,-3.941,18.497
14:50:13:191,36.042,-0.017,-0.012,0.004,-1.215,-4.143,18.252
14:50:13:217,36.068,-0.035,-0.012,-0.004,-1.256,-4.282,18.029
14:50:13:244,36.095,-0.027,-0.017,-0.015,-1.306,-4.511,17.774
14:50:13:299,36.149,-0.033,0.015,-0.022,-1.360,-4.675,17.625
14:50:13:3,36.151,-0.051,0.030,0.003,-1.433,-4.982,17.379
14:50:13:322,36.173,-0.041,0.044,0.017,-1.407,-5.334,17.091
14:50:13:378,36.229,-0.024,0.042,0.031,-1.330,-5.513,16.980
14:50:13:378,36.229,0.017,-0.001,0.023,-1.186,-5.670,16.959
14:50:13:4,36.251,0.029,-0.012,0.031,-1.145,-5.705,16.948
14:50:13:427,36.278,0.018,-0.005,0.013,-1.171,-5.603,16.887
14:50:13:453,36.304,0.022,0.012,-0.006,-1.197,-5.494,16.823
14:50:13:479,36.330,0.008,0.015,-0.003,-1.189,-5.326,16.720
14:50:13:509,36.360,0.008,0.030,0.028,-1.206,-5.227,16.574
14:50:13:531,36.382,-0.003,0.012,0.032,-1.250,-5.118,16.498
14:50:13:558,36.409,-0.012,-0.019,0.050,-1.271,-4.911,16.442
14:50:13:584,36.435,0.014,-0.026,0.044,-1.290,-4.814,16.455
14:50:13:61,36.461,0.019,-0.016,0.045,-1.375,-4.680,16.509
14:50:13:666,36.517,0.024,0.002,0.015,-1.355,-4.424,16.454
14:50:13:667,36.518,0.033,0.020,0.008,-1.358,-4.146,16.430
14:50:13:69,36.541,0.032,0.003,-0.015,-1.342,-3.588,16.415
14:50:13:717,36.568,0.032,-0.025,-0.025,-1.357,-3.190,16.407
14:50:13:743,36.594,0.020,-0.035,-0.035,-1.444,-2.630,16.358
14:50:13:769,36.620,-0.012,-0.038,-0.015,-1.574,-2.253,16.191
14:50:13:795,36.646,-0.032,-0.006,-0.004,-1.691,-2.162,15.952
14:50:13:822,36.673,-0.080,0.027,0.023,-1.891,-2.256,15.481
14:50:13:847,36.698,-0.129,0.065,0.042,-2.004,-2.408,15.159
14:50:13:874,36.724,-0.146,0.075,0.041,-2.040,-2.732,14.767
14:50:13:899,36.750,-0.116,0.038,0.023,-1.949,-3.064,14.602
14:50:13:925,36.776,-0.081,0.004,0.018,-1.761,-3.826,14.519
14:50:13:982,36.833,-0.052,0.000,0.005,-1.688,-4.666,14.511
14:50:13:982,36.833,-0.050,0.012,-0.003,-1.666,-5.189,14.516
14:50:14:005,36.856,-0.047,0.022,-0.004,-1.622,-6.001,14.620
14:50:14:031,36.882,-0.026,0.020,-0.010,-1.508,-6.786,14.870
14:50:14:058,36.909,-0.019,0.014,-0.003,-1.424,-7.235,15.066
14:50:14:084,36.935,-0.009,0.008,-0.013,-1.251,-7.779,15.415
14:50:14:11,36.961,0.008,0.002,-0.015,-1.112,-8.085,15.665
14:50:14:136,36.987,0.020,-0.011,-0.021,-0.872,-8.453,16.051
14:50:14:162,37.013,0.033,-0.008,-0.025,-0.739,-8.666,16.310
14:50:14:189,37.040,0.052,-0.002,-0.037,-0.605,-8.920,16.636
14:50:14:216,37.067,0.050,0.000,-0.029,-0.565,-9.037,16.811
14:50:14:241,37.091,0.058,-0.010,-0.035,-0.519,-9.147,17.023
14:50:14:266,37.117,0.057,-0.007,-0.030,-0.538,-9.190,17.218
14:50:14:294,37.144,0.054,-0.006,-0.037,-0.592,-9.173,17.361
14:50:14:32,37.171,0.048,-0.013,-0.021,-0.697,-9.107,17.639
14:50:14:346,37.197,0.059,-0.013,-0.019,-0.831,-9.000,17.956
14:50:14:372,37.223,0.055,-0.009,-0.007,-0.932,-8.881,18.149
14:50:14:398,37.249,0.065,-0.013,0.001,-1.079,-8.655,18.365
14:50:14:425,37.276,0.062,-0.018,0.008,-1.149,-8.473,18.433
14:50:14:451,37.302,0.059,-0.032,0.000,-1.268,-8.117,18.379
14:50:14:477,37.328,0.049,-0.034,0.004,-1.368,-7.796,18.262
14:50:14:531,37.382,-0.001,-0.010,0.014,-1.788,-6.925,17.841
14:50:14:556,37.407,-0.012,0.002,0.020,-1.975,-6.656,17.648
14:50:14:582,37.433,-0.036,0.007,0.034,-2.292,-6.197,17.369
14:50:14:638,37.489,-0.056,0.013,0.052,-2.502,-5.858,17.189
14:50:14:638,37.489,-0.078,0.024,0.051,-2.758,-5.345,16.911
14:50:14:661,37.512,-0.099,0.021,0.057,-2.882,-4.864,16.633
14:50:14:69,37.541,-0.102,0.035,0.052,-2.885,-4.618,16.439
14:50:14:69,37.541,-0.095,0.027,0.039,-2.611,-4.467,16.543
14:50:14:743,37.594,-0.082,0.019,0.018,-2.358,-4.471,16.712
14:50:14:744,37.595,-0.085,0.013,0.021,-2.051,-4.542,16.972
14:50:14:792,37.643,-0.067,-0.002,0.012,-1.671,-4.833,17.442
14:50:14:818,37.669,-0.056,0.010,0.000,-1.506,-5.084,17.633
14:50:14:845,37.696,-0.050,0.013,0.002,-1.412,-5.254,17.724
14:50:14:871,37.722,-0.042,0.023,-0.014,-1.283,-5.469,17.854
14:50:14:984,37.835,-0.034,0.015,-0.006,-1.196,-5.619,17.944
14:50:14:985,37.836,-0.013,0.010,-0.011,-1.093,-5.874,18.080
14:50:14:986,37.837,-0.002,-0.002,0.002,-1.015,-6.100,18.232
14:50:14:987,37.838,0.002,-0.004,-0.004,-0.958,-6.271,18.307
14:50:15:032,37.883,0.010,-0.004,0.015,-0.874,-6.507,18.428
14:50:15:032,37.883,0.016,0.001,0.010,-0.826,-6.637,18.512
14:50:15:055,37.906,0.025,0.007,0.015,-0.758,-6.798,18.626
14:50:15:082,37.933,0.030,-0.003,0.014,-0.676,-6.910,18.720
14:50:15:108,37.958,0.035,-0.001,0.015,-0.636,-6.966,18.748
14:50:15:133,37.984,0.038,-0.007,0.011,-0.596,-7.036,18.750
14:50:15:187,38.038,0.028,-0.002,0.014,-0.606,-7.033,18.743
14:50:15:215,38.066,0.013,-0.005,0.010,-0.638,-7.004,18.720
14:50:15:215,38.066,-0.002,0.009,0.001,-0.677,-6.962,18.698
14:50:15:238,38.089,-0.004,0.006,0.004,-0.670,-6.972,18.699
14:50:15:264,38.115,-0.014,0.003,0.008,-0.672,-7.036,18.665
14:50:15:32,38.171,-0.015,0.007,0.010,-0.675,-7.083,18.647
14:50:15:321,38.172,-0.016,0.014,0.009,-0.681,-7.161,18.659
14:50:15:343,38.194,-0.006,0.010,0.015,-0.664,-7.268,18.663
14:50:15:371,38.222,-0.001,-0.001,0.016,-0.619,-7.498,18.666
14:50:15:396,38.247,0.002,-0.008,0.019,-0.561,-7.722,18.635
14:50:15:451,38.302,0.006,-0.003,0.015,-0.534,-7.826,18.623
14:50:15:452,38.303,0.001,0.007,0.013,-0.514,-7.969,18.601
14:50:15:475,38.325,0.003,0.006,0.000,-0.508,-8.051,18.569
14:50:15:5,38.351,-0.006,0.015,0.001,-0.498,-8.119,18.512
14:50:15:527,38.378,-0.005,0.004,-0.005,-0.476,-8.179,18.443
14:50:15:553,38.404,-0.007,-0.005,0.009,-0.456,-8.220,18.394
14:50:15:579,38.430,-0.018,-0.003,-0.001,-0.465,-8.273,18.360
14:50:15:606,38.457,-0.013,-0.002,0.007,-0.475,-8.294,18.368
14:50:15:632,38.483,-0.018,0.004,-0.002,-0.481,-8.284,18.407
14:50:15:658,38.509,-0.016,0.004,0.006,-0.475,-8.278,18.444
14:50:15:685,38.536,-0.017,0.011,0.001,-0.467,-8.290,18.482
14:50:15:74,38.591,-0.022,0.000,0.015,-0.455,-8.269,18.553
14:50:15:741,38.592,-0.016,-0.004,0.008,-0.414,-8.278,18.608
14:50:15:764,38.615,-0.004,0.006,0.004,-0.366,-8.272,18.696
14:50:15:791,38.642,0.000,0.006,-0.006,-0.340,-8.256,18.754
14:50:15:816,38.667,-0.004,0.001,-0.002,-0.301,-8.196,18.816
14:50:15:87,38.721,-0.010,-0.004,-0.001,-0.302,-8.138,18.864
14:50:15:871,38.722,-0.006,-0.001,0.003,-0.320,-8.107,18.913
14:50:15:894,38.745,-0.001,0.003,0.000,-0.352,-8.079,18.980
14:50:15:92,38.771,-0.003,0.006,0.008,-0.370,-8.056,19.011
14:50:15:947,38.798,0.005,0.005,0.001,-0.398,-8.023,19.033
14:50:16:002,38.853,-0.018,0.004,0.001,-0.406,-7.998,19.048
14:50:16:003,38.854,-0.012,0.004,-0.003,-0.435,-7.917,19.106
14:50:16:026,38.877,-0.006,0.003,-0.003,-0.457,-7.861,19.170
14:50:16:052,38.903,0.004,0.003,0.001,-0.467,-7.826,19.206
14:50:16:078,38.929,-0.008,0.002,0.002,-0.503,-7.731,19.258
14:50:16:105,38.956,-0.013,0.000,0.002,-0.515,-7.685,19.293
14:50:16:131,38.982,-0.001,0.000,0.009,-0.560,-7.619,19.357
14:50:16:159,39.010,0.001,0.005,0.006,-0.606,-7.555,19.427
14:50:16:183,39.034,0.004,0.006,0.007,-0.624,-7.521,19.470
14:50:16:211,39.062,0.000,0.009,0.005,-0.650,-7.457,19.482
14:50:16:236,39.087,-0.002,0.009,0.001,-0.667,-7.382,19.496
14:50:16:262,39.113,0.001,0.004,0.002,-0.691,-7.282,19.515
14:50:16:288,39.139,-0.001,0.009,-0.001,-0.696,-7.163,19.534
14:50:16:314,39.165,-0.008,0.003,0.005,-0.719,-7.062,19.553
14:50:16:341,39.192,-0.008,0.001,0.000,-0.735,-6.945,19.590
14:50:16:367,39.218,-0.003,0.003,0.006,-0.763,-6.881,19.612
14:50:16:394,39.245,-0.003,0.003,0.000,-0.797,-6.781,19.649
14:50:16:419,39.270,0.001,0.001,0.007,-0.829,-6.694,19.665
14:50:16:445,39.296,0.001,0.008,0.002,-0.852,-6.614,19.673
14:50:16:472,39.323,-0.022,0.011,-0.002,-0.880,-6.510,19.685
14:50:16:498,39.349,-0.015,0.002,0.002,-0.895,-6.470,19.694
14:50:16:524,39.375,-0.018,0.010,0.003,-0.916,-6.364,19.698
14:50:16:551,39.402,-0.013,0.008,0.001,-0.942,-6.259,19.722
14:50:16:606,39.457,-0.006,0.005,0.007,-0.946,-6.234,19.737
14:50:16:607,39.458,-0.009,0.021,-0.001,-0.981,-6.166,19.741
14:50:16:63,39.481,-0.006,0.011,0.001,-0.976,-6.113,19.745
14:50:16:656,39.506,-0.003,-0.005,-0.004,-0.929,-6.091,19.720
14:50:16:681,39.532,0.013,-0.010,0.000,-0.881,-6.173,19.682
14:50:16:709,39.560,0.017,-0.008,-0.008,-0.883,-6.252,19.643
14:50:16:735,39.586,0.015,0.001,0.002,-0.926,-6.346,19.545
14:50:16:76,39.611,-0.002,0.012,-0.001,-0.991,-6.358,19.489
14:50:16:787,39.638,-0.007,0.005,0.000,-1.100,-6.330,19.448
14:50:16:813,39.664,-0.004,0.000,0.002,-1.175,-6.342,19.450
14:50:16:869,39.720,0.005,-0.008,0.010,-1.216,-6.358,19.451
14:50:16:87,39.721,-0.002,-0.002,0.000,-1.311,-6.358,19.454
14:50:16:892,39.743,0.005,-0.008,-0.006,-1.346,-6.370,19.450
14:50:16:918,39.769,0.001,-0.008,0.003,-1.375,-6.423,19.394
14:50:16:947,39.798,-0.028,0.010,-0.013,-1.403,-6.445,19.330
14:50:17:003,39.854,0.005,0.009,0.005,-1.460,-6.476,19.264
14:50:17:004,39.855,-0.015,0.019,0.002,-1.470,-6.532,19.197
14:50:17:005,39.856,-0.035,0.013,0.005,-1.505,-6.460,19.196
14:50:17:024,39.874,-0.012,0.001,0.003,-1.519,-6.405,19.230
14:50:17:049,39.900,-0.027,0.001,0.007,-1.545,-6.340,19.263
14:50:17:105,39.956,-0.035,0.009,0.005,-1.557,-6.239,19.393
14:50:17:105,39.956,-0.035,0.006,0.010,-1.537,-6.255,19.470
14:50:17:155,40.006,-0.042,0.012,-0.006,-1.496,-6.317,19.561
14:50:17:185,40.036,-0.025,0.001,0.002,-1.474,-6.428,19.693
14:50:17:185,40.036,-0.016,-0.006,-0.002,-1.449,-6.557,19.746
14:50:17:236,40.087,-0.008,-0.008,0.002,-1.431,-6.781,19.795
14:50:17:237,40.088,-0.002,0.001,0.002,-1.422,-6.950,19.797
14:50:17:26,40.111,0.012,-0.003,0.006,-1.391,-7.220,19.790
14:50:17:286,40.137,0.008,0.031,-0.008,-1.364,-7.380,19.782
14:50:17:312,40.163,0.022,0.026,0.002,-1.330,-7.473,19.781
14:50:17:338,40.189,0.027,0.007,-0.001,-1.266,-7.562,19.767
14:50:17:365,40.216,0.014,-0.013,-0.001,-1.246,-7.569,19.781
14:50:17:392,40.242,0.015,-0.020,-0.004,-1.239,-7.573,19.798
14:50:17:417,40.268,0.010,-0.024,0.008,-1.275,-7.582,19.796
14:50:17:443,40.294,-0.006,-0.016,0.012,-1.310,-7.606,19.760
14:50:17:47,40.321,-0.028,0.016,0.019,-1.386,-7.629,19.712
14:50:17:495,40.346,-0.026,0.020,0.015,-1.387,-7.651,19.690
14:50:17:582,40.433,-0.015,0.006,0.014,-1.313,-7.726,19.731
14:50:17:582,40.433,0.006,-0.001,-0.008,-1.227,-7.734,19.827
14:50:17:582,40.433,0.013,-0.005,-0.016,-1.177,-7.678,19.887
14:50:17:601,40.452,0.010,-0.001,-0.020,-1.169,-7.534,19.961
14:50:17:629,40.480,0.006,0.007,-0.022,-1.188,-7.433,20.002
14:50:17:654,40.505,0.003,0.011,-0.004,-1.265,-7.283,20.056
14:50:17:68,40.531,-0.002,0.005,0.000,-1.309,-7.181,20.106
14:50:17:706,40.557,-0.005,0.005,0.015,-1.373,-7.012,20.180
14:50:17:733,40.584,-0.013,0.009,0.014,-1.415,-6.860,20.249
14:50:17:759,40.610,-0.004,0.009,0.019,-1.426,-6.778,20.290
14:50:17:785,40.635,0.003,0.012,0.004,-1.402,-6.683,20.356
14:50:17:84,40.691,-0.003,0.009,0.000,-1.380,-6.626,20.395
14:50:17:84,40.691,0.003,0.002,-0.010,-1.345,-6.573,20.450
14:50:17:863,40.714,0.002,0.007,0.004,-1.318,-6.567,20.468
14:50:17:889,40.740,0.002,0.011,-0.004,-1.297,-6.596,20.471
14:50:17:916,40.767,0.015,0.003,0.002,-1.236,-6.652,20.489
14:50:17:972,40.822,0.028,-0.004,-0.006,-1.181,-6.646,20.508
14:50:17:972,40.822,0.030,0.001,0.001,-1.135,-6.540,20.528
14:50:17:995,40.846,0.026,0.002,0.001,-1.139,-6.432,20.525
14:50:18:022,40.873,0.026,0.010,0.010,-1.181,-6.200,20.514
14:50:18:047,40.898,0.013,0.018,0.002,-1.203,-5.908,20.524
14:50:18:073,40.924,0.002,0.007,0.012,-1.195,-5.707,20.534
14:50:18:099,40.950,-0.011,0.006,0.003,-1.189,-5.447,20.545
14:50:18:126,40.977,-0.025,0.009,0.011,-1.189,-5.333,20.528
14:50:18:152,41.003,-0.040,0.014,0.012,-1.155,-5.335,20.490
14:50:18:178,41.029,-0.050,0.017,0.020,-1.022,-5.557,20.467
14:50:18:204,41.055,-0.050,0.017,0.024,-0.878,-5.846,20.449
14:50:18:231,41.082,-0.035,0.023,0.014,-0.573,-6.446,20.389
14:50:18:257,41.108,0.011,0.025,0.012,-0.379,-6.903,20.323
14:50:18:284,41.135,0.008,0.021,0.007,-0.152,-7.521,20.246
14:50:18:31,41.161,0.017,0.006,0.006,-0.001,-7.938,20.204
14:50:18:364,41.215,0.011,0.005,0.002,0.084,-8.087,20.238
14:50:18:366,41.217,0.022,-0.013,-0.004,0.220,-8.123,20.427
14:50:18:388,41.239,0.044,-0.015,-0.005,0.309,-8.048,20.606
14:50:18:414,41.265,0.052,-0.016,-0.005,0.431,-7.790,20.800
14:50:18:44,41.291,0.049,-0.011,-0.023,0.475,-7.473,20.903
14:50:18:467,41.318,0.052,-0.022,-0.021,0.495,-6.877,21.036
14:50:18:522,41.373,0.052,-0.031,-0.025,0.481,-6.202,21.108
14:50:18:523,41.374,0.056,-0.032,-0.023,0.415,-5.702,21.129
14:50:18:546,41.397,0.041,-0.029,-0.024,0.235,-4.858,21.149
14:50:18:572,41.423,0.038,-0.034,-0.011,0.105,-4.251,21.142
14:50:18:627,41.478,0.023,-0.005,-0.012,-0.189,-3.215,21.151
14:50:18:628,41.479,-0.011,0.004,0.020,-0.578,-2.058,21.236
14:50:18:651,41.502,-0.035,0.026,0.027,-0.886,-1.241,21.291
14:50:18:677,41.528,-0.040,0.025,0.059,-1.264,0.057,21.384
14:50:18:704,41.555,-0.083,0.029,0.052,-1.455,0.917,21.456
14:50:18:732,41.582,-0.075,0.006,0.054,-1.504,1.962,21.494
14:50:18:755,41.606,-0.076,0.012,0.031,-1.326,2.447,21.740
14:50:18:783,41.634,-0.062,0.006,0.024,-1.138,2.568,21.886
14:50:18:809,41.660,-0.058,0.016,0.005,-0.996,2.553,21.759
14:50:18:835,41.686,-0.056,0.022,0.003,-0.931,2.515,21.760
14:50:18:861,41.712,-0.040,0.038,-0.003,-0.863,2.349,21.794
14:50:18:917,41.768,-0.033,0.019,0.002,-0.811,2.199,21.801
14:50:18:917,41.768,-0.001,-0.006,0.013,-0.605,1.815,21.784
14:50:18:94,41.791,0.012,-0.011,0.020,-0.372,1.346,21.743
14:50:18:967,41.818,0.019,-0.001,0.019,-0.294,1.137,21.743
14:50:18:992,41.842,0.006,0.006,0.017,-0.243,0.880,21.732
14:50:19:019,41.870,0.008,-0.002,0.011,-0.218,0.725,21.720
14:50:19:045,41.896,0.013,-0.006,0.010,-0.193,0.485,21.692
14:50:19:1,41.951,0.004,0.011,0.006,-0.216,0.175,21.630
14:50:19:101,41.952,0.005,0.013,0.009,-0.204,-0.060,21.556
14:50:19:124,41.975,0.001,0.017,0.008,-0.148,-0.426,21.424
14:50:19:15,42.001,0.000,0.009,-0.001,-0.096,-0.704,21.371
14:50:19:206,42.057,0.005,0.004,0.004,-0.012,-1.034,21.319
14:50:19:206,42.057,0.011,0.004,-0.005,0.048,-1.394,21.273
14:50:19:228,42.079,0.007,0.008,-0.006,0.075,-1.555,21.234
14:50:19:255,42.106,0.008,-0.001,-0.009,0.118,-1.792,21.180
14:50:19:281,42.132,0.005,0.002,-0.002,0.133,-1.945,21.138
14:50:19:31,42.161,0.005,0.005,-0.008,0.141,-2.156,21.087
14:50:19:311,42.162,0.011,-0.002,0.001,0.152,-2.265,21.068
14:50:19:363,42.213,0.011,-0.004,-0.007,0.150,-2.471,21.061
14:50:19:363,42.213,0.008,-0.003,0.000,0.143,-2.456,21.055
14:50:19:416,42.267,0.007,0.015,-0.012,0.119,-2.411,21.068
14:50:19:416,42.267,0.014,0.017,-0.010,0.106,-2.356,21.093
14:50:19:438,42.289,0.016,0.025,-0.021,0.095,-2.246,21.111
14:50:19:493,42.344,0.008,0.019,-0.011,0.058,-2.072,21.153
14:50:19:52,42.371,0.014,0.004,-0.003,0.024,-1.944,21.198
14:50:19:521,42.372,0.022,0.001,0.011,-0.010,-1.875,21.244
14:50:19:543,42.394,0.036,-0.001,0.015,-0.019,-1.732,21.287
14:50:19:569,42.420,0.037,-0.006,0.019,-0.002,-1.545,21.276
14:50:19:596,42.447,0.028,-0.011,0.024,0.024,-1.292,21.214
14:50:19:622,42.473,0.011,-0.005,0.016,-0.001,-0.915,21.160
14:50:19:648,42.499,-0.004,-0.010,0.008,-0.014,-0.660,21.165
14:50:19:675,42.526,-0.011,-0.009,0.008,0.020,-0.386,21.154
14:50:19:701,42.552,-0.017,0.008,-0.012,0.052,-0.287,21.117
14:50:19:727,42.578,-0.021,0.008,-0.009,0.093,-0.160,21.089
14:50:19:754,42.605,-0.012,-0.014,-0.006,0.143,-0.088,21.097
14:50:19:779,42.630,-0.004,-0.001,-0.017,0.189,0.057,21.108
14:50:19:805,42.656,-0.022,0.017,-0.007,0.169,0.190,21.090
14:50:19:832,42.683,-0.017,0.018,0.001,0.196,0.189,21.061
14:50:19:858,42.709,-0.004,0.018,0.011,0.215,0.211,21.026
14:50:19:886,42.737,0.003,0.015,0.000,0.208,0.245,21.010
14:50:19:911,42.762,0.002,0.016,0.008,0.199,0.307,21.001
14:50:19:938,42.789,0.000,0.008,0.007,0.217,0.304,21.000
14:50:19:964,42.815,0.000,0.005,0.019,0.213,0.330,20.996
14:50:19:99,42.841,-0.003,0.003,0.013,0.224,0.365,20.974
14:50:20:018,42.869,-0.013,0.011,0.013,0.201,0.399,20.974
14:50:20:044,42.895,-0.009,0.011,-0.008,0.141,0.432,20.980
14:50:20:069,42.920,-0.002,0.005,0.000,0.136,0.342,20.999
14:50:20:095,42.946,-0.004,0.005,-0.013,0.122,0.335,21.010
14:50:20:123,42.974,0.000,0.009,-0.007,0.030,0.268,21.053
14:50:20:148,42.998,0.004,0.021,-0.013,-0.060,0.289,21.092
14:50:20:173,43.024,0.002,0.022,-0.006,-0.191,0.290,21.158
14:50:20:2,43.051,0.008,0.026,-0.003,-0.237,0.277,21.170
14:50:20:225,43.076,0.015,0.030,0.003,-0.234,0.223,21.157
14:50:20:252,43.103,0.028,0.014,0.001,-0.168,0.192,21.133
14:50:20:278,43.129,0.032,0.000,0.009,-0.096,0.228,21.098
14:50:20:304,43.155,0.035,-0.008,-0.006,0.002,0.387,20.999
14:50:20:331,43.182,0.030,-0.006,-0.007,0.064,0.562,20.901
14:50:20:357,43.208,0.008,0.003,-0.007,0.099,0.904,20.769
14:50:20:383,43.234,-0.006,-0.004,0.008,0.188,1.162,20.610
14:50:20:41,43.261,-0.005,-0.010,0.013,0.294,1.241,20.473
14:50:20:436,43.287,0.001,-0.016,0.017,0.393,1.298,20.285
14:50:20:464,43.315,0.001,-0.002,0.020,0.471,1.365,20.202
14:50:20:489,43.340,0.004,-0.008,0.019,0.589,1.413,20.047
14:50:20:516,43.366,0.004,0.001,0.002,0.641,1.434,19.916
14:50:20:541,43.392,0.005,0.005,0.000,0.676,1.434,19.832
14:50:20:567,43.418,0.007,0.003,0.005,0.699,1.371,19.682
14:50:20:593,43.444,0.005,0.001,-0.004,0.686,1.330,19.580
14:50:20:62,43.471,0.007,-0.015,0.008,0.650,1.288,19.462
14:50:20:646,43.497,0.009,-0.025,0.000,0.638,1.249,19.403
14:50:20:673,43.524,0.005,-0.021,0.009,0.616,1.208,19.309
14:50:20:701,43.551,-0.004,-0.012,-0.008,0.616,1.207,19.209
14:50:20:725,43.576,-0.001,-0.019,0.005,0.625,1.195,19.158
14:50:20:751,43.602,0.001,-0.014,-0.003,0.640,1.162,19.098
14:50:20:777,43.628,0.003,-0.023,0.002,0.632,1.175,19.080
14:50:20:803,43.654,0.027,-0.023,-0.014,0.613,1.269,19.022
14:50:20:83,43.681,-0.004,0.008,-0.012,0.580,1.367,18.955
14:50:20:856,43.707,0.000,0.027,-0.013,0.534,1.381,18.904
14:50:20:883,43.734,-0.001,0.033,0.009,0.453,1.348,18.798
14:50:20:908,43.759,-0.001,0.028,0.004,0.402,1.303,18.727
14:50:20:935,43.786,-0.005,0.008,0.004,0.341,1.284,18.669
14:50:20:961,43.812,-0.010,0.050,-0.009,0.285,1.286,18.653
14:50:20:988,43.839,-0.024,0.063,-0.011,0.113,1.294,18.616
14:50:21:044,43.895,-0.022,0.026,0.002,0.062,1.160,18.524
14:50:21:044,43.895,-0.012,-0.024,0.024,0.134,0.974,18.489
14:50:21:066,43.917,-0.006,-0.047,0.013,0.145,0.691,18.467
14:50:21:093,43.943,-0.011,-0.014,0.013,0.062,0.434,18.418
14:50:21:147,43.998,-0.024,0.006,0.001,-0.014,0.256,18.369
14:50:21:148,43.999,-0.016,0.017,0.000,-0.094,-0.028,18.274
14:50:21:171,44.022,-0.014,0.019,-0.009,-0.136,-0.169,18.238
14:50:21:197,44.048,-0.003,0.011,-0.008,-0.184,-0.294,18.265
14:50:21:224,44.075,-0.002,-0.005,-0.002,-0.203,-0.365,18.292
14:50:21:25,44.101,0.004,-0.012,0.000,-0.232,-0.422,18.323
14:50:21:276,44.126,0.000,0.000,0.010,-0.291,-0.471,18.345
14:50:21:302,44.153,-0.006,0.012,0.015,-0.336,-0.530,18.360
14:50:21:328,44.179,-0.003,0.011,0.019,-0.382,-0.583,18.361
14:50:21:354,44.205,-0.004,-0.018,0.002,-0.393,-0.583,18.379
14:50:21:381,44.232,-0.003,-0.033,0.007,-0.425,-0.574,18.454
14:50:21:408,44.259,-0.003,-0.043,-0.009,-0.500,-0.536,18.543
14:50:21:435,44.286,-0.006,-0.030,-0.015,-0.552,-0.473,18.568
14:50:21:46,44.311,-0.004,-0.005,-0.032,-0.634,-0.360,18.570
14:50:21:486,44.337,-0.010,0.027,-0.024,-0.711,-0.283,18.546
14:50:21:512,44.363,-0.011,0.046,-0.019,-0.843,-0.185,18.526
14:50:21:57,44.421,0.004,0.033,-0.015,-0.889,-0.121,18.563
14:50:21:571,44.422,0.030,-0.004,-0.006,-0.924,0.012,18.711
14:50:21:572,44.423,0.050,0.011,0.031,-0.978,0.169,18.840
14:50:21:62,44.471,0.028,0.021,0.019,-1.062,0.429,18.899
14:50:21:621,44.472,0.011,0.030,0.014,-1.227,1.109,18.848
14:50:21:644,44.494,-0.012,0.052,0.004,-1.304,1.563,18.743
14:50:21:669,44.520,-0.028,0.059,0.025,-1.352,2.004,18.550
14:50:21:696,44.547,-0.067,0.050,0.035,-1.408,2.240,18.300
14:50:21:722,44.573,-0.084,0.042,0.076,-1.413,2.215,18.111
14:50:21:748,44.599,-0.072,-0.027,0.093,-1.405,1.826,17.844
14:50:21:774,44.625,-0.068,-0.028,0.097,-1.411,1.447,17.668
14:50:21:83,44.681,-0.048,-0.025,0.080,-1.426,0.813,17.427
14:50:21:853,44.704,-0.029,0.003,0.056,-1.429,0.158,17.186
14:50:21:882,44.733,-0.025,0.010,0.026,-1.361,-0.170,16.980
14:50:21:883,44.734,-0.004,-0.014,-0.008,-1.248,-0.305,16.772
14:50:21:908,44.759,0.005,-0.010,-0.042,-1.165,-0.141,16.725
14:50:21:932,44.783,-0.027,-0.007,-0.068,-1.089,0.293,16.737
14:50:21:959,44.810,-0.027,-0.008,-0.083,-1.071,0.410,16.694
14:50:21:985,44.836,-0.043,-0.012,-0.071,-1.091,0.014,16.416
14:50:22:011,44.862,-0.040,-0.027,-0.038,-1.398,-1.082,16.021
14:50:22:036,44.887,-0.061,-0.028,-0.015,-1.488,-2.040,15.595
14:50:22:063,44.914,-0.068,-0.009,0.004,-1.648,-3.390,15.012
14:50:22:09,44.941,-0.067,0.024,-0.002,-1.733,-4.257,14.730
14:50:22:116,44.967,-0.066,0.033,0.003,-1.832,-5.214,14.510
14:50:22:142,44.993,-0.056,0.038,-0.016,-1.892,-5.881,14.535
14:50:22:168,45.019,-0.045,0.022,-0.012,-1.925,-6.275,14.695
14:50:22:194,45.045,-0.035,0.014,-0.019,-1.972,-6.824,15.051
14:50:22:221,45.072,-0.026,0.000,-0.005,-1.988,-7.162,15.289
14:50:22:248,45.099,-0.018,-0.015,-0.014,-1.986,-7.632,15.659
14:50:22:274,45.125,-0.012,-0.017,-0.008,-1.975,-7.900,15.908
14:50:22:3,45.151,0.001,-0.016,-0.015,-1.936,-8.269,16.261
14:50:22:326,45.177,0.005,-0.004,-0.007,-1.901,-8.591,16.588
14:50:22:352,45.203,0.015,0.005,-0.017,-1.875,-8.732,16.802
14:50:22:408,45.259,0.017,0.012,-0.015,-1.854,-8.882,17.128
14:50:22:408,45.259,0.028,0.005,-0.022,-1.856,-8.933,17.359
14:50:22:431,45.282,0.028,-0.001,-0.015,-1.902,-8.964,17.708
14:50:22:457,45.308,0.036,-0.014,-0.018,-1.977,-8.935,18.064
14:50:22:511,45.362,0.038,-0.017,-0.008,-2.051,-8.917,18.300
14:50:22:538,45.389,0.046,-0.018,0.013,-2.185,-8.842,18.639
14:50:22:539,45.390,0.056,-0.013,0.021,-2.268,-8.814,18.813
14:50:22:562,45.413,0.057,-0.011,0.021,-2.358,-8.613,18.957
14:50:22:588,45.439,0.050,-0.022,0.009,-2.410,-8.201,19.053
14:50:22:614,45.465,0.046,-0.025,0.004,-2.469,-7.826,19.120
14:50:22:641,45.492,0.045,-0.034,0.021,-2.610,-7.228,19.171
14:50:22:668,45.518,0.034,0.011,0.026,-2.838,-6.765,19.191
14:50:22:693,45.544,0.017,0.030,0.041,-3.389,-5.890,19.319
14:50:22:719,45.570,-0.061,0.048,0.090,-4.127,-4.751,19.603
14:50:22:747,45.598,-0.091,0.051,0.105,-4.586,-3.868,19.739
14:50:22:799,45.650,-0.120,0.037,0.093,-4.944,-2.644,19.921
14:50:22:827,45.678,-0.115,0.020,0.026,-4.858,-2.011,20.015
14:50:22:828,45.679,-0.005,-0.019,0.025,-4.292,-2.242,20.024
14:50:22:851,45.702,0.036,-0.026,-0.001,-3.772,-2.745,19.928
14:50:22:877,45.728,0.026,-0.010,-0.007,-3.210,-3.352,19.707
14:50:22:904,45.755,0.023,0.010,-0.017,-2.845,-3.689,19.459
14:50:22:93,45.781,0.016,0.014,-0.012,-2.679,-3.797,19.296
14:50:22:956,45.807,-0.007,0.009,-0.022,-2.514,-3.832,19.055
14:50:22:982,45.833,-0.015,0.006,-0.011,-2.441,-3.820,18.902
14:50:23:01,45.861,-0.043,0.002,0.004,-2.460,-3.628,18.745
14:50:23:036,45.887,-0.078,0.007,0.011,-2.665,-3.293,18.579
14:50:23:09,45.941,-0.047,0.002,0.003,-2.856,-3.127,18.448
14:50:23:09,45.941,-0.085,0.021,0.027,-3.016,-2.897,18.546
14:50:23:113,45.964,-0.082,0.027,0.015,-3.023,-2.812,18.672
14:50:23:139,45.990,-0.076,0.015,0.025,-2.959,-2.859,18.736
14:50:23:166,46.017,-0.049,0.020,0.003,-2.778,-3.039,18.995
14:50:23:193,46.044,-0.008,0.016,0.003,-2.486,-3.481,19.145
14:50:23:218,46.069,0.012,0.010,-0.014,-2.154,-3.948,19.240
14:50:23:245,46.096,0.045,-0.005,0.001,-1.952,-4.136,19.324
14:50:23:271,46.122,0.030,0.001,-0.004,-1.811,-4.476,19.412
14:50:23:297,46.148,0.014,0.008,-0.014,-1.890,-4.541,19.400
14:50:23:323,46.174,0.041,-0.005,-0.021,-2.070,-4.644,19.351
14:50:23:352,46.203,0.047,-0.014,-0.006,-2.184,-4.899,19.227
14:50:23:377,46.228,0.043,-0.015,0.000,-2.241,-4.984,19.105
14:50:23:403,46.254,0.030,-0.008,0.002,-2.338,-4.943,18.945
14:50:23:429,46.279,0.005,0.019,0.001,-2.510,-4.741,18.866
14:50:23:454,46.305,0.000,0.023,0.000,-2.613,-4.612,18.823
14:50:23:48,46.331,0.003,0.011,0.005,-2.668,-4.482,18.764
14:50:23:507,46.358,0.001,0.013,0.008,-2.700,-4.426,18.726
14:50:23:533,46.384,-0.010,0.009,0.011,-2.766,-4.274,18.676
14:50:23:561,46.412,-0.017,0.012,-0.001,-2.833,-4.204,18.638
14:50:23:586,46.437,-0.018,0.011,0.009,-2.921,-4.145,18.586
14:50:23:612,46.463,-0.004,0.004,0.004,-2.931,-4.147,18.532
14:50:23:638,46.489,-0.002,0.001,0.004,-2.917,-4.147,18.472
14:50:23:665,46.516,-0.006,-0.005,-0.002,-2.892,-4.140,18.369
14:50:23:691,46.542,-0.008,-0.012,0.001,-2.871,-4.117,18.323
14:50:23:717,46.568,-0.006,-0.019,-0.001,-2.853,-4.069,18.292
14:50:23:745,46.596,-0.002,0.004,-0.002,-2.842,-4.047,18.243
14:50:23:772,46.623,-0.010,0.022,-0.007,-2.852,-4.018,18.189
14:50:23:798,46.649,-0.034,0.027,0.000,-2.848,-3.969,18.096
14:50:23:823,46.673,-0.021,-0.009,0.009,-2.770,-3.995,18.017
14:50:23:848,46.699,-0.007,-0.027,0.016,-2.570,-4.135,17.889
14:50:23:875,46.726,-0.003,-0.031,0.009,-2.448,-4.225,17.772
14:50:23:901,46.752,-0.005,-0.016,0.007,-2.409,-4.278,17.693
14:50:23:927,46.778,-0.003,0.013,0.001,-2.419,-4.308,17.580
14:50:23:954,46.805,-0.012,0.032,0.002,-2.483,-4.302,17.538
14:50:23:983,46.834,-0.011,0.042,0.007,-2.562,-4.321,17.469
14:50:23:984,46.835,-0.031,0.027,0.021,-2.544,-4.360,17.412
14:50:24:034,46.885,-0.030,0.016,0.019,-2.409,-4.428,17.309
14:50:24:035,46.886,-0.022,0.009,0.022,-2.238,-4.588,17.188
14:50:24:087,46.938,-0.021,0.006,0.010,-2.140,-4.716,17.112
14:50:24:088,46.939,-0.022,0.001,0.014,-2.027,-4.952,17.021
14:50:24:111,46.962,-0.026,0.003,0.009,-1.995,-5.114,16.984
14:50:24:167,47.018,-0.022,0.007,-0.001,-1.954,-5.347,16.988
14:50:24:167,47.018,-0.019,0.006,0.002,-1.910,-5.587,17.026
14:50:24:19,47.041,-0.019,-0.002,0.002,-1.867,-5.793,17.067
14:50:24:216,47.067,-0.013,-0.015,0.000,-1.815,-5.953,17.185
14:50:24:242,47.093,-0.003,-0.017,-0.012,-1.781,-6.032,17.301
14:50:24:268,47.119,-0.002,-0.017,-0.006,-1.712,-6.132,17.481
14:50:24:296,47.147,0.009,-0.001,-0.020,-1.653,-6.202,17.639
14:50:24:323,47.174,0.012,0.002,-0.012,-1.618,-6.236,17.729
14:50:24:35,47.201,0.017,0.008,-0.015,-1.584,-6.264,17.855
14:50:24:374,47.224,0.012,0.018,0.000,-1.580,-6.256,17.934
14:50:24:399,47.250,0.003,0.033,-0.002,-1.596,-6.204,18.036
14:50:24:425,47.276,-0.010,0.029,0.004,-1.617,-6.143,18.094
14:50:24:452,47.303,-0.012,0.007,0.001,-1.652,-6.024,18.261
14:50:24:478,47.329,-0.004,-0.014,0.012,-1.692,-5.889,18.473
14:50:24:505,47.356,-0.013,-0.017,0.005,-1.715,-5.817,18.624
14:50:24:53,47.381,-0.013,-0.010,0.012,-1.753,-5.676,18.821
14:50:24:557,47.408,-0.010,-0.004,0.006,-1.749,-5.568,18.909
14:50:24:583,47.434,-0.009,0.003,0.008,-1.693,-5.402,18.990
14:50:24:639,47.490,-0.009,0.006,0.000,-1.619,-5.197,19.062
14:50:24:639,47.490,-0.008,0.006,0.002,-1.563,-5.029,19.123
14:50:24:662,47.513,-0.005,0.008,-0.010,-1.494,-4.755,19.223
14:50:24:689,47.540,-0.002,0.011,0.003,-1.454,-4.565,19.286
14:50:24:715,47.566,0.001,0.016,-0.014,-1.428,-4.306,19.406
14:50:24:741,47.592,-0.001,0.010,-0.004,-1.424,-4.152,19.480
14:50:24:767,47.618,0.001,0.004,-0.002,-1.401,-3.995,19.580
14:50:24:794,47.645,0.010,-0.003,0.011,-1.348,-3.878,19.681
14:50:24:845,47.696,0.033,-0.010,0.017,-1.241,-3.580,19.889
14:50:24:872,47.723,0.037,-0.016,0.006,-1.183,-3.384,19.960
14:50:24:928,47.779,0.037,-0.015,0.011,-1.185,-2.978,19.965
14:50:24:929,47.780,0.024,-0.002,0.000,-1.334,-2.455,19.929
14:50:24:951,47.802,0.006,0.010,-0.002,-1.430,-2.140,19.921
14:50:24:978,47.829,-0.002,0.008,0.009,-1.598,-1.713,19.897
14:50:25:033,47.884,-0.004,-0.006,0.008,-1.707,-1.417,19.888
14:50:25:033,47.884,-0.018,-0.004,0.020,-1.857,-0.983,19.889
14:50:25:056,47.907,-0.014,0.003,0.016,-1.935,-0.591,19.897
14:50:25:084,47.935,-0.030,0.002,0.019,-1.945,-0.330,19.894
14:50:25:136,47.986,-0.037,0.013,0.007,-1.867,-0.017,19.882
14:50:25:193,48.044,-0.016,0.014,0.010,-1.768,0.135,19.885
14:50:25:193,48.044,-0.024,0.011,-0.007,-1.625,0.364,19.959
14:50:25:194,48.045,-0.002,0.004,-0.002,-1.529,0.491,20.030
14:50:25:214,48.065,0.002,0.001,-0.014,-1.450,0.700,20.137
14:50:25:24,48.091,-0.006,0.007,-0.011,-1.423,0.871,20.190
14:50:25:268,48.119,-0.008,0.003,-0.014,-1.403,0.944,20.205
14:50:25:322,48.173,-0.012,-0.004,-0.005,-1.386,1.009,20.202
14:50:25:322,48.173,-0.011,0.001,-0.005,-1.393,1.008,20.190
14:50:25:347,48.197,-0.013,0.012,-0.006,-1.391,1.007,20.169
14:50:25:373,48.224,-0.017,0.013,0.000,-1.392,0.994,20.115
14:50:25:426,48.277,-0.016,0.003,0.002,-1.379,0.973,20.076
14:50:25:427,48.278,-0.021,0.015,-0.003,-1.381,0.975,20.048
14:50:25:449,48.300,-0.027,0.016,0.002,-1.377,0.961,20.044
14:50:25:476,48.327,-0.019,0.009,0.002,-1.348,0.923,20.030
14:50:25:502,48.353,-0.012,0.012,0.000,-1.333,0.889,20.038
14:50:25:528,48.379,-0.012,0.002,-0.008,-1.331,0.869,20.059
14:50:25:554,48.405,-0.020,-0.016,0.000,-1.338,0.846,20.156
14:50:25:581,48.432,-0.007,-0.005,0.001,-1.367,0.791,20.219
14:50:25:607,48.458,0.005,0.007,0.000,-1.417,0.707,20.280
14:50:25:633,48.484,-0.010,0.017,-0.002,-1.444,0.671,20.280
14:50:25:66,48.511,-0.014,0.012,0.000,-1.464,0.613,20.272
14:50:25:687,48.538,-0.013,0.006,-0.003,-1.473,0.485,20.273
14:50:25:713,48.564,-0.008,0.003,0.001,-1.460,0.339,20.270
14:50:25:738,48.589,0.005,-0.009,0.013,-1.427,0.040,20.247
14:50:25:764,48.615,0.000,-0.003,0.013,-1.425,-0.164,20.206
14:50:25:791,48.642,-0.005,0.005,0.014,-1.440,-0.418,20.101
14:50:25:817,48.668,-0.006,0.014,-0.004,-1.422,-0.608,20.024
14:50:25:845,48.696,0.001,0.004,-0.004,-1.383,-0.704,19.963
14:50:25:87,48.721,0.003,-0.002,-0.016,-1.334,-0.790,19.883
14:50:25:896,48.747,-0.004,0.004,-0.013,-1.306,-0.843,19.863
14:50:25:922,48.773,0.013,-0.006,-0.019,-1.307,-0.918,19.859
14:50:25:949,48.800,0.003,0.001,0.000,-1.345,-0.972,19.851
14:50:25:976,48.827,-0.009,0.002,-0.005,-1.399,-0.990,19.856
14:50:26:03,48.880,-0.005,0.010,0.015,-1.487,-1.035,19.861
14:50:26:031,48.881,-0.022,0.010,0.028,-1.533,-1.056,19.895
14:50:26:053,48.904,-0.010,-0.001,0.032,-1.519,-1.090,19.954
14:50:26:079,48.930,-0.019,0.015,0.012,-1.414,-1.078,19.917
14:50:26:106,48.957,-0.022,0.005,0.014,-1.321,-1.060,19.865
14:50:26:132,48.983,-0.003,-0.002,0.001,-1.209,-1.035,19.814
14:50:26:159,49.010,-0.015,0.016,-0.010,-1.166,-0.988,19.776
14:50:26:185,49.036,-0.021,0.009,-0.008,-1.137,-0.893,19.804
14:50:26:211,49.062,-0.027,0.014,0.017,-1.094,-0.889,19.822
14:50:26:237,49.088,-0.013,-0.004,0.010,-0.982,-0.979,19.856
14:50:26:263,49.114,-0.005,-0.003,0.027,-0.864,-1.144,19.845
14:50:26:322,49.173,-0.005,0.006,0.021,-0.800,-1.262,19.836
14:50:26:323,49.174,-0.005,0.007,0.018,-0.723,-1.423,19.813
14:50:26:323,49.174,0.000,0.002,0.009,-0.681,-1.527,19.794
14:50:26:343,49.194,0.001,-0.005,0.002,-0.613,-1.686,19.764
14:50:26:369,49.220,-0.029,0.008,-0.002,-0.582,-1.775,19.769
14:50:26:423,49.274,0.031,-0.012,0.008,-0.546,-1.853,19.754
14:50:26:424,49.275,-0.028,0.015,0.002,-0.540,-1.906,19.732
14:50:26:447,49.298,-0.002,0.002,0.002,-0.505,-1.983,19.739
14:50:26:473,49.324,-0.004,0.002,0.011,-0.463,-2.149,19.737
14:50:26:499,49.350,0.000,0.001,0.005,-0.434,-2.249,19.740
14:50:26:526,49.377,-0.003,0.004,0.006,-0.399,-2.405,19.737
14:50:26:552,49.403,0.001,0.003,-0.002,-0.368,-2.564,19.732
14:50:26:578,49.429,0.003,0.003,0.002,-0.347,-2.670,19.728
14:50:26:605,49.456,0.001,0.002,-0.007,-0.329,-2.803,19.716
14:50:26:631,49.482,0.004,0.004,-0.003,-0.301,-2.877,19.705
14:50:26:657,49.508,0.014,-0.005,-0.004,-0.272,-2.978,19.687
14:50:26:684,49.535,0.006,0.002,0.003,-0.275,-3.041,19.684
14:50:26:71,49.560,0.004,0.004,-0.008,-0.280,-3.078,19.686
14:50:26:736,49.587,0.000,0.002,0.004,-0.287,-3.122,19.681
14:50:26:762,49.613,0.005,0.002,0.000,-0.300,-3.154,19.687
14:50:26:79,49.641,0.007,0.002,0.004,-0.306,-3.177,19.684
14:50:26:815,49.666,0.003,0.003,0.000,-0.322,-3.147,19.702
14:50:26:841,49.692,-0.001,0.002,0.005,-0.342,-3.098,19.720
14:50:26:897,49.747,0.008,0.004,-0.005,-0.376,-3.007,19.757
14:50:26:897,49.747,0.007,0.006,0.000,-0.412,-2.912,19.799
14:50:26:919,49.770,-0.005,0.006,0.000,-0.465,-2.762,19.843
14:50:26:946,49.797,-0.006,0.006,0.007,-0.481,-2.680,19.863
14:50:26:972,49.823,-0.003,0.003,0.003,-0.494,-2.576,19.896
14:50:26:998,49.849,-0.001,0.004,0.006,-0.513,-2.483,19.917
14:50:27:025,49.876,0.001,0.003,0.000,-0.521,-2.417,19.922
14:50:27:079,49.930,-0.001,0.007,0.002,-0.561,-2.318,19.938
14:50:27:104,49.955,-0.003,0.001,0.000,-0.568,-2.251,19.954
14:50:27:132,49.983,-0.003,0.003,0.001,-0.589,-2.170,19.953
14:50:27:133,49.984,-0.007,0.005,0.001,-0.601,-2.083,19.958
14:50:27:156,50.007,-0.008,0.003,0.004,-0.613,-2.037,19.952
14:50:27:182,50.033,-0.007,0.002,0.003,-0.609,-1.989,19.961
14:50:27:211,50.062,-0.003,0.002,-0.001,-0.588,-1.981,19.962
14:50:27:264,50.115,-0.002,0.005,0.003,-0.588,-1.981,19.962
14:50:27:265,50.116,-0.003,0.003,-0.006,-0.588,-1.981,19.962
14:50:27:288,50.138,-0.001,0.003,-0.001,-0.599,-1.963,19.949
14:50:27:313,50.164,-0.003,0.002,-0.006,-0.601,-1.962,19.939
14:50:27:341,50.192,-0.003,0.004,0.002,-0.603,-1.964,19.927
14:50:27:395,50.246,-0.007,0.006,-0.002,-0.603,-1.964,19.927
14:50:27:395,50.246,-0.005,0.002,0.005,-0.593,-1.978,19.924
14:50:27:418,50.269,-0.005,0.003,-0.005,-0.585,-1.997,19.925
14:50:27:444,50.295,-0.010,0.008,0.002,-0.596,-2.025,19.926
14:50:27:471,50.322,-0.009,0.006,-0.009,-0.607,-2.055,19.926
14:50:27:497,50.348,-0.005,0.012,0.000,-0.600,-2.141,19.920
14:50:27:524,50.375,-0.001,0.008,-0.002,-0.572,-2.233,19.901
14:50:27:55,50.401,-0.001,-0.004,0.002,-0.538,-2.416,19.851
14:50:27:576,50.427,-0.009,0.007,-0.004,-0.542,-2.650,19.807
14:50:27:602,50.453,-0.019,-0.004,0.003,-0.550,-2.862,19.764
14:50:27:63,50.481,-0.022,-0.013,0.005,-0.551,-3.321,19.685
14:50:27:683,50.534,-0.022,0.013,0.008,-0.564,-3.696,19.629
14:50:27:684,50.535,-0.026,0.032,-0.004,-0.524,-4.314,19.524
14:50:27:707,50.558,-0.025,0.026,-0.002,-0.465,-4.760,19.452
14:50:27:733,50.584,-0.013,0.005,-0.003,-0.354,-5.488,19.392
14:50:27:759,50.610,-0.006,-0.004,0.002,-0.275,-6.216,19.406
14:50:27:786,50.637,-0.008,0.008,-0.016,-0.252,-6.681,19.450
14:50:27:813,50.664,-0.052,0.033,-0.013,-0.193,-7.412,19.568
14:50:27:839,50.690,-0.126,0.085,0.042,-0.241,-7.800,19.733
14:50:27:865,50.716,-0.013,0.058,0.048,-0.706,-7.681,20.351
14:50:27:892,50.743,-0.101,0.103,0.023,-1.371,-6.805,21.580
14:50:27:946,50.797,-0.078,0.070,0.030,-1.682,-6.189,22.652
14:50:27:947,50.798,-0.107,0.093,0.005,-2.269,-4.818,24.540
14:50:27:97,50.821,-0.139,0.126,-0.012,-2.742,-3.630,25.981
14:50:27:996,50.847,-0.105,0.131,-0.007,-3.157,-2.372,28.380
14:50:28:052,50.902,-0.038,0.088,-0.003,-3.212,-1.821,30.139
14:50:28:052,50.902,-0.001,0.065,0.005,-3.226,-1.326,32.926
14:50:28:103,50.954,0.023,0.023,-0.002,-3.354,-0.568,35.721
14:50:28:104,50.955,0.038,0.013,-0.003,-3.571,-0.128,37.512
14:50:28:129,50.980,0.057,-0.016,-0.018,-3.893,0.525,40.049
14:50:28:155,51.006,0.060,0.002,-0.020,-4.023,0.763,41.621
14:50:28:209,51.060,0.080,0.030,-0.015,-3.955,1.014,43.836
14:50:28:209,51.060,0.064,0.116,0.000,-4.023,1.390,46.058
14:50:28:26,51.111,0.035,0.194,0.025,-4.152,1.635,47.648
14:50:28:286,51.137,-0.056,0.295,0.053,-4.297,2.117,50.438
14:50:28:313,51.164,-0.121,0.457,0.080,-4.128,2.360,52.641
14:50:28:314,51.165,-0.051,0.510,0.129,-2.483,2.366,56.499
14:50:28:366,51.217,-0.044,0.491,0.104,0.679,2.328,61.244
14:50:28:367,51.218,-0.009,0.528,0.053,3.731,2.648,65.108
14:50:28:392,51.243,0.014,0.476,0.065,13.365,3.674,71.719
14:50:28:417,51.268,0.093,0.428,0.025,26.251,4.664,76.523
14:50:28:503,51.354,0.238,0.261,-0.039,62.374,6.915,84.447
14:50:28:504,51.355,0.287,0.193,-0.092,91.162,9.024,90.269
14:50:28:505,51.356,0.292,0.083,-0.212,119.772,12.939,99.621
14:50:28:506,51.357,0.260,-0.135,-0.210,134.122,17.662,109.400
14:50:28:55,51.401,0.221,-0.278,-0.208,140.317,21.036,115.928
14:50:28:551,51.402,0.253,-0.359,-0.226,145.671,26.432,126.396
14:50:28:574,51.425,0.082,-0.535,-0.264,147.012,30.570,133.835
14:50:28:627,51.478,-0.029,-0.600,-0.192,148.066,37.464,145.371
14:50:28:653,51.504,-0.050,-0.555,-0.111,148.810,43.844,156.344
14:50:28:681,51.532,-0.116,-0.548,-0.084,148.821,47.113,162.712
14:50:28:682,51.533,-0.149,-0.551,0.027,147.758,50.952,170.764
14:50:28:704,51.555,-0.202,-0.502,0.178,146.458,53.479,175.313
14:50:28:731,51.582,-0.234,-0.436,0.248,144.242,57.145,-179.037
14:50:28:757,51.608,-0.158,-0.300,0.230,142.059,59.851,-175.071
14:50:28:783,51.634,-0.044,-0.213,0.276,140.747,61.479,-173.120
14:50:28:81,51.661,-0.047,-0.111,0.201,139.125,63.330,-170.962
14:50:28:836,51.687,0.029,-0.108,0.156,138.402,63.787,-170.463
14:50:28:862,51.713,0.269,-0.053,-0.008,137.903,64.153,-170.229
14:50:28:918,51.769,0.129,0.087,0.278,138.300,65.756,-169.309
14:50:28:918,51.769,0.232,0.034,-0.124,139.097,66.271,-168.685
14:50:28:942,51.793,0.126,0.064,0.022,139.597,66.072,-168.710
14:50:28:968,51.819,0.044,-0.004,0.050,139.700,66.093,-168.634
14:50:29:024,51.875,0.044,-0.018,0.052,139.785,66.311,-168.378
14:50:29:049,51.899,0.058,-0.039,0.031,139.776,66.387,-168.230
14:50:29:05,51.900,0.043,-0.032,0.040,139.648,66.841,-167.749
14:50:29:13,51.981,0.023,-0.013,0.043,139.419,67.244,-167.258
14:50:29:131,51.982,0.055,-0.010,0.004,139.317,67.316,-167.111
14:50:29:132,51.983,0.036,-0.035,-0.009,139.246,67.520,-166.885
14:50:29:15,52.001,0.009,-0.029,0.031,139.233,67.660,-166.750
14:50:29:206,52.057,0.025,-0.029,0.018,139.192,67.476,-166.875
14:50:29:207,52.058,0.106,0.009,0.036,139.117,66.770,-167.346
14:50:29:23,52.081,0.015,-0.055,0.020,139.151,66.344,-167.767
14:50:29:256,52.107,-0.030,-0.112,0.002,139.300,65.596,-168.351
14:50:29:282,52.133,-0.037,-0.103,0.003,139.484,65.377,-168.580
14:50:29:31,52.161,0.070,0.005,0.003,139.781,65.151,-168.696
14:50:29:337,52.188,0.083,0.022,0.006,139.962,65.156,-168.701
14:50:29:42,52.270,0.039,-0.013,0.012,140.181,65.003,-168.683
14:50:29:42,52.270,0.014,-0.027,0.022,140.330,65.028,-168.696
