Time,Second,AccelerationX,AccelerationY,AccelerationZ,EulerAnglesX,EulerAnglesY,EulerAnglesZ
14:18:30:209,0.000,0.001,0.000,-0.006,-8.214,-51.920,4.730
14:18:30:209,0.000,0.007,-0.001,-0.007,-8.208,-51.940,4.700
14:18:30:21,0.001,0.010,0.001,-0.007,-8.201,-51.992,4.628
14:18:30:211,0.002,0.014,0.002,-0.007,-8.199,-52.035,4.609
14:18:30:568,0.359,0.008,0.001,-0.005,-8.197,-52.068,4.600
14:18:30:75,0.541,0.017,0.002,-0.003,-8.195,-52.124,4.582
14:18:31:12,0.911,0.005,0.004,-0.005,-8.194,-52.146,4.584
14:18:31:18,0.971,0.013,0.000,-0.009,-8.187,-52.202,4.590
14:18:31:18,0.971,0.007,-0.002,-0.003,-8.166,-52.241,4.597
14:18:31:181,0.972,0.009,0.001,-0.002,-7.846,-52.616,5.169
14:18:31:182,0.973,-0.002,0.000,-0.002,-7.786,-52.731,5.398
14:18:32:151,1.941,-0.001,0.001,0.000,-7.774,-52.743,5.494
14:18:32:152,1.942,0.002,0.000,-0.013,-7.782,-52.707,5.549
14:18:32:153,1.943,0.004,-0.002,-0.003,-7.780,-52.713,5.568
14:18:32:153,1.943,0.003,-0.001,-0.005,-7.780,-52.716,5.579
14:18:32:336,2.126,0.010,0.001,-0.007,-7.780,-52.716,5.579
14:18:32:337,2.127,0.010,0.001,-0.007,-7.777,-52.732,5.586
14:18:32:338,2.128,0.000,0.000,-0.006,-7.789,-52.753,5.570
14:18:32:339,2.129,0.016,-0.001,-0.009,-7.805,-52.786,5.519
14:18:32:388,2.178,0.016,0.001,0.001,-7.819,-52.820,5.487
14:18:32:388,2.178,0.019,0.004,-0.004,-7.830,-52.866,5.461
14:18:32:389,2.179,0.007,-0.001,-0.006,-7.806,-53.232,5.417
14:18:32:39,2.180,0.034,0.007,-0.017,-7.810,-53.128,5.683
14:18:32:719,2.510,0.017,0.005,-0.008,-7.814,-53.170,5.699
14:18:32:938,2.729,0.017,0.000,-0.004,-7.778,-53.230,5.736
14:18:32:939,2.730,0.024,0.001,0.001,-7.744,-53.236,5.747
14:18:32:94,2.731,0.005,0.000,-0.007,-6.602,-53.333,6.595
14:18:32:941,2.732,0.012,-0.002,-0.011,-5.947,-53.505,7.097
14:18:33:121,2.911,0.035,0.038,0.019,-4.800,-54.476,8.650
14:18:33:121,2.911,-0.007,0.038,0.004,-4.639,-54.484,9.305
14:18:33:299,3.090,-0.043,0.013,0.008,-4.448,-54.505,10.025
14:18:33:3,3.091,-0.045,0.004,0.015,-4.327,-54.431,10.463
14:18:33:462,3.253,-0.018,-0.029,-0.047,-4.166,-54.221,11.078
14:18:33:462,3.253,0.294,-0.296,0.330,-3.570,-47.979,21.810
14:18:33:463,3.254,0.271,-0.209,0.290,-3.788,-46.982,18.989
14:18:33:647,3.438,0.222,-0.060,0.229,-3.636,-46.520,15.150
14:18:33:648,3.439,0.164,0.055,0.171,-3.456,-46.278,12.193
14:18:33:648,3.439,-0.105,0.149,-0.243,-2.803,-43.038,-5.268
14:18:33:649,3.440,-0.149,0.075,-0.323,-2.625,-42.066,-8.057
14:18:34:095,3.886,-0.227,-0.055,-0.494,-2.370,-40.564,-11.662
14:18:34:095,3.886,-0.287,-0.111,-0.477,-2.565,-39.603,-14.477
14:18:34:096,3.887,-0.274,-0.107,-0.445,-2.981,-39.514,-15.857
14:18:34:252,4.042,-0.356,-0.186,-0.485,-4.132,-39.509,-16.897
14:18:34:253,4.043,-0.649,0.095,0.128,-4.636,-38.842,-15.712
14:18:34:254,4.044,0.011,-0.004,-0.026,-9.338,-31.482,-1.001
14:18:34:255,4.045,0.015,-0.005,-0.020,-10.352,-32.494,5.585
14:18:34:278,4.068,0.012,-0.004,-0.005,-10.534,-32.143,6.631
14:18:34:279,4.069,-0.004,0.013,-0.008,-10.857,-32.298,8.168
14:18:34:28,4.070,0.050,0.005,0.010,-11.213,-32.089,9.714
14:18:34:281,4.071,0.054,0.227,0.060,-12.535,-33.202,16.285
14:18:34:434,4.225,0.059,0.212,0.225,-12.689,-33.751,18.063
14:18:34:435,4.226,1.004,0.282,0.544,-8.425,-42.286,40.248
14:18:34:436,4.227,0.638,-0.042,0.748,-8.912,-42.157,45.881
14:18:34:437,4.228,0.148,-1.030,0.167,-2.998,-40.033,50.294
14:18:34:742,4.532,0.262,-0.821,0.208,-2.718,-38.606,47.524
14:18:34:802,4.593,0.249,-0.047,-0.143,-1.090,-32.416,29.697
14:18:34:802,4.593,-0.060,0.632,-0.370,-0.181,-31.209,5.369
14:18:34:803,4.594,-0.291,0.623,-0.480,-0.860,-30.549,-0.864
14:18:34:804,4.595,-1.038,0.453,-0.909,-2.176,-28.692,-9.405
14:18:35:065,4.855,-1.324,0.102,-0.540,-3.140,-27.683,-14.205
14:18:35:066,4.856,0.060,-0.010,-0.024,-8.481,-23.804,-2.540
14:18:35:066,4.856,0.014,-0.014,-0.004,-8.490,-24.418,-0.594
14:18:35:067,4.857,0.042,-0.021,-0.011,-8.535,-24.844,1.328
14:18:35:117,4.908,-0.002,-0.008,-0.030,-8.601,-24.435,2.597
14:18:35:118,4.909,0.027,0.002,-0.020,-8.989,-24.192,7.634
14:18:35:118,4.909,0.012,0.015,-0.008,-9.228,-23.602,9.554
14:18:35:119,4.910,0.049,0.040,0.044,-9.380,-23.725,10.846
14:18:35:224,5.015,0.102,0.040,0.052,-9.595,-23.802,12.887
14:18:35:224,5.015,0.126,0.161,0.056,-9.744,-24.037,14.364
14:18:35:224,5.015,0.122,0.222,0.094,-9.877,-23.896,16.781
14:18:35:225,5.016,0.215,0.199,0.133,-9.879,-24.149,19.555
14:18:35:302,5.093,0.492,0.481,0.116,-9.280,-24.443,25.539
14:18:35:303,5.094,0.904,0.597,0.693,-8.421,-25.562,28.509
14:18:35:304,5.095,1.223,0.372,0.896,-6.129,-28.490,33.456
14:18:35:348,5.139,1.257,0.221,0.418,-3.748,-30.462,38.756
14:18:35:348,5.139,0.389,-0.292,-0.507,1.491,-2.974,35.920
14:18:35:406,5.197,0.370,-0.141,-0.596,2.506,-0.380,30.998
14:18:35:407,5.198,0.221,0.125,-0.682,3.715,3.105,22.868
14:18:35:408,5.199,0.050,0.463,-0.653,4.189,5.165,17.059
14:18:35:408,5.199,-0.357,0.547,-0.645,4.596,7.674,8.085
14:18:35:423,5.214,1.145,0.606,-0.222,1.856,17.749,-14.964
14:18:35:449,5.240,-1.020,0.302,0.646,1.672,19.203,-14.021
14:18:35:591,5.381,-0.446,0.177,-0.328,0.784,20.224,-11.380
14:18:35:591,5.381,-0.228,0.135,-0.196,-0.165,22.503,-8.593
14:18:35:593,5.383,-0.464,-0.207,0.099,-0.711,23.693,-7.322
14:18:35:594,5.384,0.234,-0.026,-0.044,-1.771,23.886,-6.048
14:18:35:722,5.513,0.044,0.039,0.035,-2.445,24.653,-5.253
14:18:35:722,5.513,-0.149,0.011,-0.140,-3.353,25.640,-3.908
14:18:35:723,5.514,0.108,0.021,-0.156,-3.933,24.901,-2.444
14:18:35:724,5.515,0.118,-0.002,-0.068,-4.165,24.535,-1.324
14:18:35:773,5.564,0.010,-0.012,-0.040,-4.456,24.646,0.523
14:18:35:774,5.565,-0.012,-0.007,-0.032,-4.707,24.715,2.430
14:18:35:775,5.566,0.024,-0.001,-0.029,-4.840,24.661,3.674
14:18:35:775,5.566,0.011,-0.001,-0.028,-5.058,24.537,5.497
14:18:36:027,5.818,0.021,-0.004,-0.037,-5.208,24.411,6.688
14:18:36:184,5.975,0.060,-0.010,-0.051,-5.398,24.176,8.491
14:18:36:274,6.064,0.045,0.011,-0.069,-5.677,24.025,10.123
14:18:36:275,6.065,0.048,0.011,-0.061,-5.815,23.883,11.379
14:18:36:275,6.065,0.115,0.019,-0.042,-5.995,24.323,13.368
14:18:36:275,6.065,0.173,0.050,-0.042,-6.114,24.128,14.847
14:18:36:325,6.115,0.183,0.110,-0.061,-6.221,24.838,17.368
14:18:36:326,6.116,0.342,0.249,-0.215,-6.170,25.073,20.248
14:18:36:327,6.117,0.327,0.267,-0.206,-6.040,25.866,22.453
14:18:36:327,6.117,0.344,0.293,-0.285,-5.547,25.821,26.339
14:18:36:343,6.133,0.454,0.517,-0.418,-4.861,25.534,29.326
14:18:36:4,6.191,1.070,0.435,-0.356,-2.687,23.485,34.162
14:18:36:4,6.191,1.431,0.208,-0.480,-0.044,21.229,37.475
14:18:36:456,6.247,1.272,0.046,-0.791,3.920,19.444,42.735
14:18:36:457,6.248,0.877,-0.378,-0.639,4.018,22.076,48.705
14:18:36:457,6.248,0.644,-0.655,-0.489,3.749,24.322,51.895
14:18:36:509,6.300,-0.085,0.157,-0.120,1.253,30.366,56.144
14:18:36:509,6.300,0.207,-0.710,-0.207,0.304,34.048,56.428
14:18:36:51,6.301,0.072,-1.028,-0.363,0.110,36.483,55.538
14:18:36:511,6.302,0.017,-0.879,-0.479,-0.976,40.611,52.497
14:18:36:639,6.430,-0.134,-0.490,-0.398,-2.312,45.535,47.968
14:18:36:64,6.431,-0.372,0.645,-0.128,0.903,53.792,6.357
14:18:36:641,6.432,1.047,0.589,-0.128,-4.196,55.750,-15.992
14:18:36:642,6.433,-0.418,0.362,0.871,-4.246,56.651,-14.924
14:18:36:692,6.483,-0.417,0.449,0.049,-4.841,57.797,-12.322
14:18:36:693,6.484,-0.367,0.005,-0.027,-5.229,58.799,-10.625
14:18:36:694,6.485,-0.142,-0.152,0.205,-5.831,59.322,-8.460
14:18:36:695,6.486,0.252,0.007,-0.098,-6.627,58.659,-6.809
14:18:36:741,6.531,-0.012,0.017,-0.027,-7.114,59.118,-5.816
14:18:36:741,6.531,-0.177,0.003,-0.078,-7.821,59.308,-4.206
14:18:36:825,6.615,-0.035,0.009,-0.108,-8.176,58.705,-3.069
14:18:36:825,6.615,0.068,0.038,-0.122,-8.533,57.580,-1.281
14:18:36:825,6.615,-0.012,-0.005,-0.132,-8.701,56.852,0.648
14:18:36:826,6.616,0.000,-0.013,-0.120,-8.744,56.362,1.999
14:18:36:876,6.667,0.055,-0.016,-0.071,-8.821,55.804,4.026
14:18:36:876,6.667,0.057,-0.007,-0.070,-8.913,55.655,5.390
14:18:36:877,6.668,-0.005,-0.007,-0.083,-9.080,55.319,7.508
14:18:36:878,6.669,0.034,-0.009,-0.049,-9.186,55.073,8.926
14:18:36:981,6.772,0.063,0.008,-0.096,-9.401,54.511,11.039
14:18:36:981,6.772,0.017,0.017,-0.092,-9.665,54.075,13.180
14:18:36:981,6.772,0.012,0.044,-0.058,-9.845,53.822,14.616
14:18:37:001,6.792,0.058,0.054,-0.099,-10.082,53.072,16.810
14:18:37:165,6.956,0.120,0.075,-0.163,-10.214,52.522,18.323
14:18:37:166,6.957,0.233,0.171,-0.111,-10.352,51.550,20.778
14:18:37:166,6.957,0.251,0.159,-0.253,-10.463,51.248,23.689
14:18:37:167,6.958,0.168,0.192,-0.416,-10.481,50.961,25.992
14:18:37:191,6.982,0.302,0.401,-0.594,-10.177,50.472,30.205
14:18:37:191,6.982,0.499,0.438,-0.632,-9.536,49.608,33.453
14:18:37:192,6.983,1.125,0.585,-0.898,-7.287,46.953,38.702
14:18:37:193,6.984,1.002,0.023,-1.326,-3.564,43.994,44.223
14:18:37:244,7.035,0.573,0.055,-1.169,-3.005,44.218,48.160
14:18:37:244,7.035,0.526,-0.515,-0.651,-2.600,45.125,53.351
14:18:37:245,7.036,-0.068,-0.216,-0.468,-0.147,44.969,55.489
14:18:37:246,7.037,-0.113,0.130,-0.141,-0.264,45.364,57.395
14:18:37:296,7.087,0.394,-0.882,-0.137,1.531,45.344,57.593
14:18:37:297,7.088,0.311,-1.134,-0.166,4.147,45.472,56.349
14:18:37:348,7.139,0.112,-0.305,-0.312,0.618,51.788,44.337
14:18:37:349,7.140,0.004,-0.241,-0.235,0.278,53.661,39.605
14:18:37:35,7.141,-0.016,-0.003,-0.310,0.684,55.446,31.382
14:18:37:351,7.142,-0.050,0.170,-0.371,1.410,55.607,22.281
14:18:37:427,7.217,-0.094,0.348,-0.334,1.494,55.355,15.964
14:18:37:427,7.217,-0.315,0.644,0.066,1.069,55.528,6.199
14:18:37:428,7.218,-0.540,0.701,0.392,0.458,56.091,-0.142
14:18:37:429,7.219,-0.800,0.404,0.574,-0.824,56.872,-8.869
14:18:37:53,7.321,-0.725,0.137,1.021,-2.274,57.725,-16.181
14:18:37:531,7.322,-0.957,-0.235,1.352,-2.694,58.377,-19.704
14:18:37:532,7.323,-1.150,-0.397,0.984,-3.625,57.715,-21.277
14:18:37:551,7.342,-0.104,0.039,1.063,-4.134,57.571,-20.179
14:18:37:552,7.343,1.737,0.989,-0.157,-3.720,58.260,-17.612
14:18:37:605,7.396,-0.213,0.361,0.925,-3.251,59.959,-16.623
14:18:37:605,7.396,-0.465,0.353,0.379,-3.607,62.387,-14.027
14:18:37:655,7.446,-0.533,0.014,-0.271,-4.439,63.784,-11.282
14:18:37:733,7.524,-0.114,-0.138,0.215,-4.839,64.504,-9.509
14:18:37:761,7.551,-0.125,0.084,0.032,-5.470,64.201,-7.403
14:18:37:794,7.584,-0.129,0.004,0.101,-6.046,64.165,-6.101
14:18:37:795,7.585,-0.191,0.092,0.147,-6.707,65.230,-4.478
14:18:37:796,7.586,-0.032,-0.022,-0.084,-7.249,64.319,-3.008
14:18:37:797,7.587,0.058,0.011,-0.132,-7.538,63.415,-2.101
14:18:37:841,7.631,0.004,-0.001,-0.139,-7.895,62.758,-0.594
14:18:37:842,7.632,-0.016,-0.020,-0.096,-8.056,62.318,0.561
14:18:37:893,7.684,0.064,-0.013,-0.060,-8.183,61.396,2.434
14:18:37:894,7.685,0.031,-0.006,-0.115,-8.274,60.968,3.695
14:18:37:975,7.766,0.012,-0.004,-0.113,-8.470,60.561,5.609
14:18:37:975,7.766,0.034,-0.012,-0.077,-8.697,60.172,7.574
14:18:37:976,7.767,0.023,-0.006,-0.102,-8.880,59.971,8.890
14:18:38:026,7.817,0.009,0.017,-0.096,-9.197,59.661,10.851
14:18:38:026,7.817,0.039,0.015,-0.139,-9.513,59.166,12.869
14:18:38:077,7.868,0.125,0.011,-0.224,-9.692,58.706,14.369
14:18:38:078,7.869,0.099,0.090,-0.290,-9.942,58.723,17.038
14:18:38:13,7.920,0.068,0.132,-0.282,-10.059,58.450,19.135
14:18:38:13,7.920,0.230,0.271,-0.252,-10.154,58.489,22.687
14:18:38:347,8.137,0.273,0.364,-0.414,-10.067,58.104,26.907
14:18:38:348,8.138,0.349,0.439,-0.557,-9.791,57.386,30.159
14:18:38:348,8.138,0.725,0.475,-0.993,-8.754,55.455,35.567
14:18:38:349,8.139,0.864,0.489,-1.142,-7.456,53.471,39.458
14:18:38:393,8.183,0.798,-0.019,-1.409,-3.769,50.148,45.263
14:18:38:393,8.183,0.474,-0.232,-0.826,-2.715,49.723,49.166
14:18:38:583,8.374,0.027,-0.329,-0.475,-1.973,50.190,53.824
14:18:38:584,8.375,-0.010,-0.405,-0.475,-1.389,50.588,56.461
14:18:38:585,8.376,0.247,-0.793,-0.208,-1.205,50.781,56.923
14:18:38:601,8.392,0.175,-0.878,-0.020,2.349,50.693,54.041
14:18:38:631,8.422,0.125,-0.709,-0.045,1.984,52.059,50.147
14:18:38:631,8.422,0.175,-0.607,-0.163,1.338,53.892,44.699
14:18:38:714,8.504,0.127,-0.437,-0.156,0.892,55.218,40.254
14:18:38:714,8.504,0.086,-0.199,-0.153,0.598,56.938,32.682
14:18:38:715,8.505,-0.001,0.103,-0.164,0.537,57.750,27.301
14:18:38:716,8.506,-0.099,0.272,-0.100,0.279,58.683,18.703
14:18:38:863,8.654,-0.354,0.674,0.134,-0.388,60.210,9.717
14:18:38:916,8.707,-0.555,0.733,0.383,-0.852,61.347,3.869
14:18:39:002,8.793,-0.797,0.821,0.751,-1.742,62.361,-4.461
14:18:39:003,8.794,-0.562,0.250,1.079,-2.619,63.201,-9.172
14:18:39:004,8.795,-0.495,-0.055,1.311,-3.618,64.874,-14.337
14:18:39:004,8.795,-1.054,-0.316,1.525,-3.617,65.886,-16.063
14:18:39:055,8.845,0.524,0.564,-0.728,-3.769,66.309,-14.596
14:18:39:056,8.846,-0.383,0.421,1.243,-3.845,66.712,-12.938
14:18:39:057,8.847,-0.030,0.398,0.001,-4.289,67.095,-11.126
14:18:39:057,8.847,-0.087,0.140,0.372,-4.854,69.899,-8.712
14:18:39:108,8.898,-0.133,-0.222,0.380,-5.279,70.901,-7.216
14:18:39:108,8.898,0.049,-0.056,-0.174,-6.229,69.644,-5.485
14:18:39:109,8.899,-0.026,0.022,-0.018,-7.082,69.432,-4.198
14:18:39:11,8.900,-0.174,0.027,0.047,-7.609,69.486,-3.298
14:18:39:125,8.916,0.007,0.011,-0.190,-8.228,67.319,-1.868
14:18:39:258,9.048,-0.006,0.015,-0.120,-8.485,66.594,-0.818
14:18:39:32,9.110,-0.059,0.008,-0.075,-8.698,65.094,0.844
14:18:39:32,9.110,0.024,0.009,-0.087,-8.805,64.468,2.530
14:18:39:32,9.110,0.037,0.004,-0.075,-8.866,63.530,3.637
14:18:39:321,9.111,-0.001,-0.020,-0.127,-8.958,63.065,5.324
14:18:39:475,9.266,0.020,-0.009,-0.097,-9.029,62.073,6.457
14:18:39:476,9.267,0.011,-0.010,-0.073,-9.157,61.715,8.154
14:18:39:476,9.267,0.011,-0.010,-0.073,-9.157,61.715,8.154
14:18:39:477,9.268,0.017,0.023,-0.056,-9.453,60.613,10.963
14:18:39:654,9.445,0.024,0.016,-0.040,-9.638,59.780,12.653
14:18:39:655,9.446,0.030,-0.008,-0.108,-9.764,59.366,13.793
14:18:39:921,9.712,0.059,0.022,-0.117,-9.971,58.339,15.261
14:18:39:921,9.712,0.142,0.038,-0.134,-10.054,57.977,16.053
14:18:39:922,9.713,0.189,0.089,-0.138,-10.212,57.267,18.210
14:18:39:923,9.714,0.128,0.123,-0.186,-10.406,57.363,20.666
14:18:40:018,9.809,0.092,0.123,-0.232,-10.501,57.076,22.500
14:18:40:106,9.896,0.044,0.234,-0.340,-10.435,56.878,25.674
14:18:40:106,9.896,0.327,0.404,-0.402,-10.127,56.145,28.103
14:18:40:107,9.897,0.580,0.447,-0.429,-8.966,54.465,32.240
14:18:40:107,9.897,0.921,0.201,-0.955,-7.490,52.616,35.301
14:18:40:21,10.001,0.608,0.134,-1.122,-5.147,50.373,40.133
14:18:40:211,10.002,0.342,0.092,-0.828,-4.959,50.612,45.301
14:18:40:211,10.002,0.595,-0.115,-0.492,-5.392,51.396,48.736
14:18:40:212,10.003,0.435,-1.128,-0.782,-2.323,51.429,52.401
14:18:40:258,10.049,-0.039,-0.627,-0.602,0.133,51.446,53.862
14:18:40:258,10.049,-0.157,0.001,-0.093,-1.046,53.861,55.155
14:18:40:341,10.132,0.114,-0.784,-0.227,-1.163,56.749,54.639
14:18:40:342,10.133,-0.006,-0.804,-0.288,-1.351,59.176,53.296
14:18:40:343,10.134,-0.103,-0.664,-0.421,-1.523,63.322,49.556
14:18:40:396,10.187,-0.200,-0.356,-0.449,1.126,68.836,40.514
14:18:40:396,10.187,-0.343,-0.087,-0.419,2.704,71.306,33.344
14:18:40:397,10.188,-0.411,-0.050,-0.453,3.176,72.902,28.177
14:18:40:398,10.189,-0.664,0.350,1.231,-0.464,84.860,-7.381
14:18:40:447,10.237,-0.008,-0.008,1.605,-1.611,87.156,-13.106
14:18:40:448,10.238,-0.335,-0.326,1.717,-1.851,88.022,-15.606
14:18:40:448,10.238,0.043,-0.119,1.197,-2.578,88.091,-15.650
14:18:40:449,10.239,-0.102,0.257,0.254,-3.132,94.830,-8.039
14:18:40:468,10.258,-0.127,-0.046,0.252,-3.748,96.238,-5.985
14:18:40:468,10.258,0.100,-0.036,-0.273,-4.426,95.298,-4.966
14:18:40:761,10.552,0.062,0.001,-0.065,-5.307,95.214,-3.663
14:18:40:762,10.553,-0.131,0.011,-0.021,-6.187,95.885,-2.396
14:18:40:763,10.554,-0.086,0.027,-0.045,-6.642,95.796,-1.519
14:18:40:763,10.554,-0.071,0.026,-0.124,-7.094,95.340,-0.108
14:18:40:893,10.684,-0.039,0.018,-0.079,-7.332,95.107,1.405
14:18:40:896,10.687,-0.023,-0.005,-0.083,-7.420,94.947,2.442
14:18:40:896,10.687,0.015,-0.009,-0.044,-7.532,94.798,3.959
14:18:40:896,10.687,-0.021,-0.008,-0.074,-7.634,94.653,4.924
14:18:40:948,10.739,-0.011,-0.020,-0.086,-7.793,94.364,6.318
14:18:40:948,10.739,-0.002,-0.003,-0.080,-7.940,94.143,7.676
14:18:40:948,10.739,0.003,-0.004,-0.087,-8.043,94.508,8.438
14:18:40:949,10.740,-0.018,-0.006,-0.090,-8.220,94.288,9.831
14:18:41:26,11.051,-0.025,-0.003,-0.119,-8.334,94.456,10.773
14:18:41:261,11.052,-0.047,0.014,-0.103,-8.539,94.295,11.862
14:18:41:262,11.053,-0.029,-0.015,-0.247,-8.641,94.335,13.540
14:18:41:262,11.053,-0.024,0.005,-0.219,-8.718,94.132,14.846
14:18:41:382,11.173,-0.007,0.060,-0.144,-8.823,94.462,17.093
14:18:41:419,11.210,-0.014,0.087,-0.135,-8.845,94.490,18.739
14:18:41:419,11.210,-0.062,0.254,-0.200,-8.792,95.288,21.354
14:18:41:419,11.210,-0.050,0.353,-0.374,-8.628,95.279,23.218
14:18:41:42,11.210,-0.018,0.358,-0.450,-8.035,95.522,26.360
14:18:41:444,11.234,-0.016,0.376,-0.707,-7.066,95.053,30.025
14:18:41:444,11.234,0.028,0.157,-0.935,-4.421,93.591,37.098
14:18:41:445,11.235,-0.063,-0.028,-0.880,-2.624,92.586,40.201
14:18:41:446,11.236,-0.061,-0.146,-0.847,-0.535,92.499,45.080
14:18:41:624,11.415,-0.095,-0.499,-0.838,0.436,94.221,49.595
14:18:41:624,11.415,-0.378,0.028,-0.244,-0.320,99.589,54.312
14:18:41:625,11.416,-0.254,-0.368,-0.176,-2.558,102.846,55.009
14:18:41:83,11.620,-0.384,-0.904,-0.341,-3.891,107.336,54.481
14:18:41:865,11.655,-0.419,-0.609,-0.164,-4.608,110.576,52.998
14:18:41:865,11.655,-0.426,-0.420,-0.026,-5.158,115.886,49.666
14:18:41:865,11.655,-0.494,-0.328,0.018,-3.482,120.411,45.083
14:18:41:866,11.656,-0.682,-0.329,-0.071,-1.380,122.378,41.180
14:18:42:042,11.833,-0.656,-0.151,-0.009,0.834,124.729,34.230
14:18:42:042,11.833,1.058,-0.120,1.070,-3.800,135.710,-12.799
14:18:42:152,11.943,0.642,-0.367,1.106,-4.684,135.499,-15.502
14:18:42:153,11.944,0.481,-0.093,0.534,-5.970,134.728,-16.107
14:18:42:154,11.945,0.747,0.274,-0.621,-6.386,135.757,-14.329
14:18:42:154,11.945,-0.396,0.067,0.680,-5.920,141.911,-9.974
14:18:42:382,12.173,-0.230,0.106,0.316,-6.625,143.735,-7.951
14:18:42:57,12.361,0.478,0.010,0.140,-7.043,145.194,-5.907
14:18:42:57,12.361,-0.121,-0.016,-0.252,-7.644,144.317,-4.706
14:18:42:57,12.361,-0.025,0.014,0.027,-8.495,144.436,-3.214
14:18:42:703,12.494,-0.041,-0.008,0.113,-8.973,145.009,-2.331
14:18:42:704,12.495,-0.109,0.019,-0.090,-9.615,144.136,-0.987
14:18:42:704,12.495,-0.094,0.048,-0.103,-10.037,143.486,0.362
14:18:42:705,12.496,-0.058,0.001,0.015,-10.222,143.352,1.324
14:18:42:758,12.549,-0.034,-0.009,-0.073,-10.363,142.780,2.852
14:18:42:758,12.549,-0.041,-0.015,-0.126,-10.431,142.303,3.865
14:18:42:758,12.549,-0.032,-0.005,-0.076,-10.769,141.574,6.339
14:18:42:758,12.549,-0.105,0.004,-0.109,-11.772,140.976,12.380
14:18:42:801,12.592,-0.156,-0.011,-0.143,-11.944,140.838,13.795
14:18:42:836,12.627,-0.156,0.017,-0.153,-12.158,140.512,15.800
14:18:42:836,12.627,-0.084,0.048,-0.127,-12.298,140.771,17.326
14:18:42:837,12.628,-0.169,0.137,-0.067,-12.422,140.816,19.864
14:18:42:837,12.628,-0.370,0.426,-0.524,-11.763,139.929,27.450
14:18:42:887,12.678,-0.548,0.431,-0.646,-10.982,138.923,31.706
14:18:42:888,12.679,-0.739,-0.037,-0.538,-6.418,134.980,44.934
14:18:43:019,12.809,-0.375,-0.215,-0.073,-6.104,138.879,54.788
14:18:43:019,12.809,-0.006,0.655,0.194,-1.839,157.954,9.574
14:18:43:02,12.810,1.165,0.245,0.550,-4.845,160.886,-9.884
14:18:43:021,12.811,1.504,-0.315,0.576,-5.826,162.072,-15.438
14:18:43:193,12.984,-0.442,0.584,-0.881,-6.299,164.022,-13.929
14:18:43:492,13.283,1.067,0.079,-0.169,-6.083,165.324,-13.019
14:18:43:492,13.283,0.153,0.385,0.074,-6.667,166.429,-11.126
14:18:43:492,13.283,-0.110,0.018,0.311,-7.413,167.135,-9.192
14:18:43:493,13.284,0.147,-0.050,0.065,-7.777,167.932,-7.955
14:18:43:676,13.467,0.016,-0.019,-0.179,-8.401,168.287,-6.349
14:18:43:677,13.468,0.030,0.038,-0.073,-8.915,168.428,-5.390
14:18:43:677,13.468,0.061,0.013,0.064,-9.669,169.317,-4.048
14:18:43:677,13.468,-0.003,0.036,0.038,-10.154,169.617,-3.181
14:18:43:806,13.597,-0.115,0.026,-0.014,-10.706,169.204,-1.830
14:18:43:807,13.598,-0.091,-0.003,-0.045,-11.042,168.610,-0.344
14:18:43:808,13.599,-0.065,0.004,-0.017,-11.175,168.377,0.712
14:18:43:808,13.599,-0.068,-0.020,-0.057,-11.322,167.919,2.357
14:18:43:929,13.719,-0.051,-0.007,-0.052,-11.431,167.675,3.447
14:18:43:963,13.754,-0.048,-0.012,-0.042,-11.616,167.471,5.083
14:18:43:964,13.755,-0.052,0.005,-0.050,-11.792,167.230,6.711
14:18:43:965,13.756,-0.060,-0.006,-0.060,-11.909,167.018,7.768
14:18:43:966,13.757,-0.075,0.013,-0.057,-12.121,166.695,9.313
14:18:43:991,13.782,-0.075,0.014,-0.040,-12.217,166.539,10.225
14:18:43:992,13.783,-0.110,0.016,-0.045,-12.415,165.925,11.844
14:18:43:992,13.783,-0.130,-0.005,-0.096,-12.387,165.075,13.112
14:18:43:993,13.784,-0.149,0.020,-0.082,-12.486,164.749,14.454
14:18:44:042,13.832,-0.223,0.176,-0.160,-12.706,163.992,21.042
14:18:44:043,13.833,-0.637,-0.632,0.038,-6.846,161.180,51.852
14:18:44:044,13.834,-0.459,-0.256,0.147,-6.442,162.582,53.590
14:18:44:045,13.835,-0.311,-0.579,0.048,-7.811,165.811,55.059
14:18:44:139,13.930,-0.438,-0.911,0.062,-7.630,167.974,54.919
14:18:44:165,13.956,-0.365,-0.297,0.573,-3.767,-175.048,40.893
14:18:44:245,14.036,-0.315,-0.097,0.653,-2.454,-172.381,36.456
14:18:44:541,14.332,-0.186,0.005,0.658,-1.064,-168.842,29.113
14:18:44:541,14.332,-0.106,0.236,0.572,-0.718,-166.654,23.900
14:18:44:542,14.333,0.386,0.482,0.415,-1.295,-160.604,7.505
14:18:44:543,14.334,0.652,0.553,0.360,-1.827,-159.357,1.901
14:18:44:593,14.384,1.289,0.497,-0.037,-3.129,-157.220,-6.000
14:18:44:594,14.385,1.170,0.167,-0.645,-4.190,-155.829,-10.430
14:18:44:595,14.386,0.674,-0.045,-0.975,-5.796,-151.603,-15.131
14:18:44:596,14.387,-0.011,0.232,-0.778,-5.481,-149.237,-13.048
14:18:44:823,14.613,0.333,0.256,-0.480,-5.448,-147.418,-12.172
14:18:44:876,14.667,0.620,0.131,0.468,-6.302,-146.291,-10.216
14:18:44:877,14.668,0.253,-0.238,-0.150,-6.938,-145.074,-8.881
14:18:45:121,14.912,0.330,-0.070,-0.352,-7.627,-144.094,-7.178
14:18:45:121,14.912,-0.276,-0.032,0.007,-8.671,-144.551,-5.808
14:18:45:122,14.913,0.006,0.032,-0.062,-9.260,-143.439,-5.192
14:18:45:138,14.929,-0.117,0.038,0.096,-10.522,-143.584,-3.620
14:18:45:201,14.991,-0.186,0.021,0.046,-10.969,-144.596,-2.444
14:18:45:201,14.991,0.012,-0.006,-0.002,-11.288,-145.249,-1.049
14:18:45:201,14.991,-0.050,-0.014,0.005,-11.454,-145.911,-0.084
14:18:45:201,14.991,-0.092,-0.007,-0.037,-11.694,-146.773,1.322
14:18:45:381,15.172,-0.055,-0.016,0.012,-11.864,-147.178,2.238
14:18:45:382,15.173,-0.052,0.001,0.006,-12.118,-147.683,3.616
14:18:45:383,15.174,-0.113,0.049,0.045,-14.517,-146.949,14.750
14:18:45:434,15.225,-0.124,0.022,0.014,-14.766,-147.023,16.379
14:18:45:434,15.225,-0.097,0.096,0.026,-15.110,-146.751,18.983
14:18:45:435,15.226,-0.197,0.229,0.112,-15.241,-147.193,20.864
14:18:45:436,15.227,-0.306,0.299,0.079,-15.213,-148.245,24.032
14:18:45:566,15.356,-0.619,0.411,0.097,-14.801,-149.847,27.860
14:18:45:566,15.356,-0.972,0.391,0.293,-14.194,-151.165,30.885
14:18:45:567,15.357,-0.004,-0.140,0.023,-13.965,-149.032,52.424
14:18:45:568,15.358,-0.316,-0.676,0.164,-12.953,-147.407,52.618
14:18:46:029,15.820,-0.002,-0.423,0.280,-7.372,-139.579,44.932
14:18:46:09,15.881,0.087,0.330,0.310,-1.668,-132.246,13.279
14:18:46:09,15.881,0.365,0.684,0.040,-2.321,-130.534,4.219
14:18:46:091,15.882,0.663,0.653,-0.188,-2.860,-129.520,-1.828
14:18:46:092,15.883,1.071,0.376,-0.879,-3.935,-127.601,-9.856
14:18:46:719,16.510,1.070,-0.160,-1.496,-4.790,-126.807,-14.015
14:18:46:72,16.511,1.272,-0.376,-1.164,-5.446,-126.888,-17.472
14:18:46:721,16.512,0.718,-0.269,-1.103,-5.846,-126.774,-16.151
14:18:46:722,16.513,-0.750,0.420,0.330,-5.545,-126.171,-14.387
14:18:46:768,16.559,0.477,0.185,-1.036,-5.642,-124.738,-12.737
14:18:46:768,16.559,0.165,0.115,-0.180,-6.722,-121.734,-9.011
14:18:46:904,16.695,0.196,-0.059,-0.215,-7.398,-120.987,-7.264
14:18:46:905,16.696,-0.052,-0.026,-0.035,-8.066,-121.793,-6.298
14:18:46:906,16.697,-0.086,0.036,-0.036,-8.999,-121.938,-5.076
14:18:46:906,16.697,0.079,0.023,-0.020,-9.583,-121.634,-4.285
14:18:47:087,16.878,0.072,0.043,0.037,-10.336,-121.902,-2.992
14:18:47:088,16.879,-0.063,0.036,0.091,-10.825,-122.738,-1.585
14:18:47:088,16.879,-0.065,0.010,0.066,-11.024,-123.079,-0.590
14:18:47:268,17.058,-0.053,-0.010,0.002,-11.359,-123.871,2.150
14:18:47:268,17.058,-0.055,-0.017,0.027,-11.546,-124.475,3.850
14:18:47:429,17.219,-0.031,-0.010,0.041,-11.682,-125.200,4.989
14:18:47:43,17.220,-0.422,-0.464,0.502,-8.779,-134.251,49.823
14:18:47:43,17.220,-0.002,-0.351,0.422,-6.870,-134.365,52.383
14:18:47:431,17.221,0.031,-0.362,-0.030,-7.455,-132.989,53.434
14:18:47:507,17.298,-0.271,-0.792,0.159,-6.186,-132.599,53.070
14:18:47:508,17.299,-0.248,-0.970,0.234,-4.695,-131.335,50.652
14:18:47:508,17.299,0.015,0.025,-0.019,-10.355,-110.860,-7.520
14:18:47:509,17.300,0.168,0.032,-0.117,-10.781,-110.351,-6.733
14:18:47:69,17.481,0.050,0.026,0.046,-11.348,-111.301,-5.441
14:18:47:691,17.482,-0.026,0.043,0.098,-11.586,-112.059,-4.516
14:18:47:692,17.483,0.007,0.001,0.070,-11.736,-112.909,-2.954
14:18:47:693,17.484,-0.018,-0.018,-0.003,-11.768,-113.349,-1.805
14:18:47:741,17.532,-0.061,-0.017,0.019,-11.803,-115.102,1.696
14:18:47:742,17.533,-0.024,-0.009,0.006,-11.890,-115.427,2.811
14:18:47:742,17.533,-0.043,-0.011,0.013,-12.059,-115.995,4.460
14:18:47:762,17.553,-0.032,0.013,-0.004,-12.182,-116.223,5.531
14:18:47:87,17.661,-0.066,0.014,0.091,-12.901,-117.917,11.647
14:18:47:87,17.661,-0.083,0.024,0.126,-12.992,-118.272,13.032
14:18:47:98,17.771,-0.116,0.093,0.076,-13.007,-118.501,15.134
14:18:47:981,17.772,-0.140,0.197,0.214,-12.944,-118.670,17.748
14:18:47:998,17.789,0.171,-0.074,0.011,-4.527,-126.967,51.480
14:18:48:184,17.975,-0.202,-0.552,0.104,-4.212,-126.756,51.752
14:18:48:185,17.976,-0.223,-0.919,0.182,-2.355,-126.953,50.308
14:18:48:212,18.003,-0.263,-0.881,0.304,-1.836,-126.548,48.300
14:18:48:212,18.003,-0.106,-0.552,0.193,-2.196,-124.911,43.949
14:18:48:244,18.035,-0.037,-0.335,0.167,-2.406,-123.657,40.130
14:18:48:244,18.035,0.005,-0.202,0.257,-2.044,-122.441,33.307
14:18:48:245,18.036,-0.107,-0.070,0.340,-1.663,-122.268,25.366
14:18:48:245,18.036,0.248,0.718,-0.133,-4.224,-118.981,2.619
14:18:48:401,18.192,0.327,0.967,-0.582,-5.140,-118.029,-3.308
14:18:48:401,18.192,0.514,0.378,-1.308,-6.710,-117.125,-11.350
14:18:48:401,18.192,0.504,0.162,-1.069,-7.568,-117.141,-15.638
14:18:48:401,18.192,1.021,-0.577,-1.515,-8.192,-116.789,-19.643
14:18:48:418,18.209,0.333,-0.176,-1.049,-9.105,-117.609,-19.104
14:18:48:578,18.369,-0.188,-0.174,-1.226,-8.766,-117.168,-17.554
14:18:48:579,18.370,-0.153,0.314,-0.314,-7.888,-115.424,-15.769
14:18:48:706,18.496,0.229,0.354,-0.277,-7.814,-114.026,-14.593
14:18:48:847,18.638,1.003,0.123,-0.075,-8.133,-112.286,-12.638
14:18:48:848,18.639,0.011,0.002,-0.150,-8.752,-110.448,-9.517
14:18:48:849,18.640,-0.205,-0.030,0.139,-9.601,-111.218,-8.049
14:18:49:373,19.164,0.117,0.027,-0.079,-10.610,-109.747,-6.182
14:18:49:374,19.165,-0.018,0.037,0.089,-11.343,-111.094,-4.175
14:18:49:375,19.166,-0.013,-0.013,0.017,-11.492,-113.049,0.946
14:18:49:376,19.167,-0.019,-0.019,-0.019,-11.537,-113.540,2.479
14:18:49:521,19.312,-0.062,-0.012,-0.002,-11.622,-115.174,3.971
14:18:49:786,19.577,-0.018,0.004,-0.037,-11.706,-115.457,4.927
14:18:49:787,19.578,-0.031,-0.002,0.006,-11.856,-116.925,6.327
14:18:49:81,19.601,-0.043,0.015,0.012,-11.978,-117.241,7.233
14:18:49:925,19.716,-0.049,0.012,0.071,-12.105,-118.829,8.491
14:18:49:925,19.716,-0.072,-0.012,0.157,-12.305,-119.496,10.109
14:18:49:927,19.718,-0.083,0.010,0.184,-12.428,-120.878,11.421
14:18:49:927,19.718,-0.067,0.064,0.085,-12.536,-121.279,13.755
14:18:50:287,20.078,-0.056,0.094,0.094,-12.544,-122.303,15.488
14:18:50:287,20.078,-0.170,0.276,0.198,-12.418,-122.793,18.362
14:18:50:288,20.079,-0.199,0.324,0.113,-12.234,-124.063,20.492
14:18:50:343,20.133,-0.800,0.448,0.718,-10.076,-128.608,31.855
14:18:50:343,20.133,-0.788,0.276,0.786,-8.265,-131.038,37.192
14:18:50:344,20.134,-0.012,-0.686,0.260,-4.476,-125.415,46.918
14:18:50:345,20.135,0.099,-0.411,0.270,-4.770,-121.231,41.678
14:18:50:604,20.395,0.154,-0.330,0.362,-3.937,-117.436,34.903
14:18:50:605,20.396,0.218,-0.117,0.338,-3.040,-115.571,29.728
14:18:50:606,20.397,0.232,0.059,0.298,-1.893,-113.675,21.186
14:18:50:649,20.440,0.043,0.018,0.082,-8.489,-98.567,-4.844
14:18:50:758,20.548,0.014,0.019,0.108,-8.780,-98.864,-4.053
14:18:50:758,20.548,0.052,0.012,0.046,-9.025,-98.869,-2.626
14:18:50:886,20.677,-0.002,-0.017,0.029,-9.132,-99.177,-0.987
14:18:51:126,20.917,0.004,0.026,0.068,-9.714,-97.546,8.753
14:18:51:126,20.917,0.062,0.238,0.281,-9.329,-96.419,21.038
14:18:51:577,21.367,-0.025,0.403,0.382,-8.700,-96.765,24.886
14:18:51:578,21.368,0.026,-0.068,1.129,-1.182,-102.217,41.492
14:18:51:579,21.369,-0.080,-0.364,0.559,-2.325,-98.808,46.715
14:18:51:579,21.369,0.049,-0.521,0.563,-2.822,-96.213,49.382
14:18:51:672,21.463,0.232,-0.157,0.181,-3.623,-92.524,51.923
14:18:51:812,21.603,0.141,-0.707,0.265,-5.155,-89.487,52.807
14:18:51:813,21.604,0.167,0.537,-0.849,0.627,-58.243,-2.262
14:18:51:814,21.605,-0.285,0.403,-1.083,-0.485,-57.175,-7.276
14:18:51:814,21.605,0.000,0.000,0.000,-11.749,-94.818,25.145
14:18:51:865,21.656,-0.646,-0.367,-1.328,-3.325,-55.264,-17.635
14:18:51:865,21.656,-0.539,-0.239,-0.868,-4.092,-55.238,-18.281
14:18:51:866,21.657,-1.091,-0.070,-0.414,-4.510,-54.050,-16.908
14:18:51:867,21.658,-0.374,0.537,0.934,-4.110,-52.586,-15.207
14:18:51:917,21.707,0.056,-0.005,0.018,-6.237,-45.393,-6.072
14:18:51:917,21.707,-0.020,0.017,-0.181,-7.037,-44.288,-4.999
14:18:51:917,21.707,0.044,0.022,-0.136,-7.565,-44.118,-4.352
14:18:52:364,22.155,0.076,0.038,0.095,-8.210,-44.865,-3.360
14:18:52:364,22.155,0.042,-0.024,0.042,-8.914,-46.012,-0.437
14:18:52:365,22.156,0.002,0.000,0.036,-9.073,-46.712,0.956
14:18:52:366,22.157,0.077,-0.023,0.107,-10.638,-48.974,10.640
14:18:52:496,22.286,0.125,0.278,0.154,-11.006,-50.083,20.691
14:18:52:496,22.286,0.154,0.312,0.258,-10.837,-50.588,22.815
14:18:52:497,22.287,0.400,0.094,-0.124,0.849,-38.070,21.266
14:18:52:498,22.288,0.296,0.222,-0.199,0.664,-37.200,15.951
14:18:52:542,22.333,0.071,0.454,-0.368,-0.002,-35.795,7.687
14:18:52:543,22.334,-0.158,0.560,-0.595,-0.603,-35.189,2.058
14:18:52:731,22.522,-0.963,-0.167,-0.115,-5.338,-32.948,-17.887
14:18:52:732,22.523,-0.050,0.457,0.913,-4.811,-31.109,-15.449
14:18:52:733,22.524,-0.656,0.071,-0.162,-4.177,-29.418,-14.292
14:18:52:733,22.524,-0.315,0.314,-0.188,-4.099,-27.023,-12.528
14:18:52:779,22.570,0.105,-0.023,-0.775,-4.661,-25.752,-10.524
14:18:52:78,22.571,-0.134,0.013,-0.007,-5.056,-24.664,-9.156
14:18:52:838,22.629,-0.199,0.021,-0.061,-5.482,-23.714,-7.395
14:18:52:838,22.629,0.104,-0.011,0.126,-6.067,-24.239,-6.403
14:18:52:839,22.630,-0.063,0.032,-0.108,-6.841,-23.630,-5.169
14:18:52:839,22.630,-0.009,0.014,-0.137,-7.532,-22.918,-4.012
14:18:52:863,22.654,0.048,0.043,-0.066,-7.919,-23.231,-3.261
14:18:52:864,22.655,0.090,0.034,0.016,-8.327,-23.843,-2.081
14:18:52:865,22.656,0.147,0.052,0.030,-9.900,-26.157,12.947
14:18:52:865,22.656,0.188,0.059,0.048,-9.961,-26.041,14.443
14:18:53:485,23.275,0.127,0.118,0.033,-9.956,-26.046,16.980
14:18:53:51,23.300,0.179,0.273,0.146,-9.885,-25.942,18.859
14:18:53:826,23.617,0.381,0.529,0.255,-9.090,-26.924,25.826
14:18:54:044,23.834,0.605,0.502,0.416,-8.434,-27.945,28.743
14:18:54:044,23.834,0.883,0.461,0.779,-6.432,-30.251,33.924
14:18:54:044,23.834,1.029,0.129,0.617,-4.631,-31.990,37.342
14:18:54:166,23.957,0.935,-0.039,0.198,-2.417,-32.987,42.430
14:18:54:306,24.097,0.477,-0.382,0.178,-2.751,-31.352,47.285
14:18:54:307,24.098,0.371,-0.893,0.131,-3.216,-23.655,51.610
14:18:54:307,24.098,0.274,-0.743,0.025,-2.705,-20.568,49.054
14:18:54:308,24.099,0.287,-0.530,-0.022,-2.712,-17.838,46.292
14:18:54:358,24.149,0.301,-0.436,-0.130,-2.393,-13.506,41.144
14:18:54:359,24.150,0.319,-0.244,-0.218,-1.081,-9.935,34.460
14:18:54:359,24.150,0.269,-0.083,-0.253,-0.078,-8.238,29.368
14:18:54:36,24.151,0.295,0.187,-0.256,1.036,-6.509,20.876
14:18:54:49,24.280,0.192,0.499,-0.279,1.266,-5.516,14.905
14:18:54:491,24.281,-0.201,0.789,-0.472,1.186,-3.235,6.072
14:18:54:492,24.282,-1.026,0.567,-0.557,0.690,0.209,-1.866
14:18:54:493,24.283,-1.795,0.317,-0.036,0.254,1.366,-6.471
14:18:54:596,24.387,-1.372,-0.084,-0.649,-0.047,1.534,-11.758
14:18:54:597,24.388,-1.017,-0.215,-0.425,-0.516,1.429,-13.490
14:18:54:597,24.388,-1.258,-0.229,-0.098,-1.134,1.521,-13.056
14:18:54:598,24.389,0.130,0.004,-0.006,-8.883,9.389,10.608
14:18:54:644,24.435,0.117,-0.004,-0.021,-9.041,9.251,11.670
14:18:54:645,24.436,0.347,-0.354,-0.324,-5.665,13.633,55.040
14:18:54:646,24.437,0.079,-0.609,-0.302,-6.806,26.492,50.691
14:18:54:665,24.456,-0.014,-0.355,-0.367,-5.654,30.826,45.828
14:18:54:796,24.586,-0.069,-0.019,-0.458,-1.147,36.860,29.509
14:18:54:823,24.613,-0.861,0.343,0.664,-3.801,43.076,-6.556
14:18:54:852,24.642,-1.287,-0.008,0.848,-4.276,44.997,-12.100
14:18:54:853,24.643,-1.258,-0.338,0.918,-4.714,45.844,-14.427
14:18:55:006,24.797,-0.825,-0.141,0.638,-5.116,45.952,-13.824
14:18:55:147,24.938,1.074,0.464,-0.183,-5.136,46.488,-11.458
14:18:55:147,24.938,-0.207,0.169,0.709,-5.043,47.436,-10.648
14:18:55:148,24.939,-0.107,0.342,0.123,-5.562,48.809,-8.935
14:18:55:149,24.940,-0.725,-0.042,-0.120,-6.274,49.956,-7.134
14:18:55:461,25.252,0.038,-0.020,0.127,-7.487,50.147,-4.452
14:18:55:462,25.253,0.169,-0.004,-0.038,-8.081,49.672,-3.651
14:18:55:463,25.254,-0.035,0.047,0.002,-8.960,50.402,-2.646
14:18:55:463,25.254,-0.063,0.016,-0.067,-9.476,50.702,-1.963
14:18:55:514,25.305,0.032,0.039,-0.096,-10.077,50.241,-0.858
14:18:55:514,25.305,0.088,0.044,-0.117,-10.472,49.717,0.411
14:18:55:566,25.356,0.106,-0.019,-0.041,-10.768,48.870,3.842
14:18:55:567,25.357,0.059,-0.005,-0.043,-10.877,48.721,5.372
14:18:55:568,25.358,0.077,-0.016,-0.037,-10.970,48.586,6.394
14:18:55:569,25.359,0.083,-0.013,-0.050,-11.111,48.578,7.871
14:18:55:644,25.435,0.065,0.013,-0.029,-11.295,48.589,9.299
14:18:55:645,25.436,0.084,0.010,-0.053,-11.407,48.492,10.229
14:18:55:646,25.437,0.093,0.007,-0.074,-11.515,48.522,11.439
14:18:55:692,25.483,0.506,0.408,-0.513,-9.443,46.806,31.102
14:18:55:693,25.484,0.846,0.345,-0.750,-7.708,44.863,35.764
14:18:55:804,25.594,0.861,0.146,-0.909,-6.009,43.295,39.089
14:18:55:804,25.594,0.544,-0.045,-0.790,-4.048,42.526,44.197
14:18:55:805,25.595,0.286,-0.459,-0.524,-3.827,43.392,48.912
14:18:55:806,25.596,0.135,-0.676,-0.191,-3.968,48.133,48.511
14:18:55:826,25.616,0.033,0.155,-0.277,-4.435,55.364,20.351
14:18:55:826,25.616,-0.082,0.593,-0.024,-4.728,55.160,11.220
14:18:55:827,25.617,-0.409,0.766,0.382,-5.698,54.985,2.014
14:18:55:899,25.690,-0.523,0.522,0.604,-6.800,55.213,-3.737
14:18:56:355,26.146,-0.569,0.275,1.364,-8.476,56.392,-11.183
14:18:56:355,26.146,-1.023,-0.291,1.295,-9.186,56.774,-15.033
14:18:56:356,26.147,-0.777,-0.365,1.036,-9.999,56.791,-17.832
14:18:56:357,26.148,-0.406,-0.275,1.071,-10.354,57.175,-16.707
14:18:56:531,26.322,0.645,0.230,0.544,-9.965,57.950,-15.046
14:18:56:532,26.323,0.050,0.167,0.771,-9.301,59.882,-13.633
14:18:56:59,26.381,-0.188,0.438,0.233,-9.249,61.213,-12.485
14:18:56:591,26.382,-0.660,0.104,0.055,-9.496,63.294,-10.508
14:18:56:591,26.382,-0.032,-0.047,0.356,-9.723,64.548,-9.120
14:18:56:592,26.383,0.011,-0.018,0.108,-10.147,64.550,-7.075
14:18:56:634,26.425,0.184,-0.005,-0.144,-10.929,63.712,-5.454
14:18:56:774,26.565,-0.096,0.029,0.086,-11.347,64.297,-4.589
14:18:56:775,26.566,-0.040,0.019,-0.038,-11.914,63.859,-3.197
14:18:56:775,26.566,0.094,0.011,-0.068,-12.195,63.081,-2.263
14:18:56:776,26.567,0.007,0.018,-0.024,-12.502,62.413,-0.867
14:18:56:957,26.748,0.055,-0.008,-0.066,-12.658,61.571,0.621
14:18:56:958,26.749,0.091,-0.010,-0.034,-12.710,61.027,1.620
14:18:56:959,26.750,0.050,-0.006,-0.033,-12.802,60.413,3.104
14:18:56:959,26.750,0.062,-0.001,-0.041,-12.870,59.956,4.123
14:18:57:038,26.829,0.063,-0.001,-0.035,-12.991,59.363,5.683
14:18:57:038,26.829,0.052,-0.002,-0.030,-13.104,57.990,7.240
14:18:57:038,26.829,0.062,0.009,-0.011,-13.175,57.741,8.290
14:18:57:038,26.829,0.240,0.295,-0.266,-13.536,52.209,24.337
14:18:57:16,26.951,0.344,0.301,-0.242,-13.128,50.887,27.823
14:18:57:405,27.196,0.630,0.347,-0.468,-12.312,49.390,31.882
14:18:57:405,27.196,0.730,0.292,-0.573,-11.517,47.877,34.910
14:18:57:406,27.197,0.193,-0.442,-0.452,-8.499,43.554,50.175
14:18:57:406,27.197,-0.067,-0.393,-0.311,-7.251,43.102,52.584
14:18:57:588,27.378,0.083,-0.517,-0.125,-7.184,43.287,53.401
14:18:57:588,27.378,0.274,-0.959,-0.195,-6.028,43.259,52.773
14:18:57:589,27.379,0.268,-0.856,-0.149,-4.499,43.608,50.227
14:18:57:59,27.380,0.163,-0.490,-0.172,-4.648,44.692,47.630
14:18:57:744,27.535,0.081,-0.066,-0.291,-5.322,50.756,31.283
14:18:57:745,27.536,0.097,0.127,-0.230,-5.064,51.914,23.646
14:18:57:746,27.537,0.012,0.353,-0.148,-5.026,52.415,18.372
14:18:57:747,27.538,-0.064,0.438,-0.046,-5.315,53.198,10.162
14:18:57:772,27.563,-0.299,0.663,0.182,-5.999,54.037,1.728
14:18:57:773,27.564,-0.815,-0.323,0.959,-10.146,54.038,-17.036
14:18:57:824,27.615,0.313,0.144,0.158,-9.725,55.742,-12.903
14:18:57:825,27.616,-0.126,0.017,0.607,-9.487,57.172,-12.298
14:18:57:826,27.617,-0.326,0.207,0.165,-9.479,59.302,-11.010
14:18:57:827,27.618,-0.329,0.073,0.009,-9.663,60.253,-9.907
14:18:57:877,27.668,0.020,-0.037,0.322,-10.019,61.480,-8.225
14:18:57:878,27.669,0.051,0.033,-0.069,-12.186,61.496,-2.956
14:18:57:878,27.669,0.014,-0.004,-0.025,-12.390,58.942,2.176
14:18:57:879,27.670,0.047,0.004,-0.048,-12.407,58.364,3.433
14:18:57:895,27.686,0.068,-0.003,-0.028,-12.427,58.500,4.273
14:18:57:929,27.720,0.062,-0.004,-0.053,-12.464,58.087,5.500
14:18:57:93,27.721,0.072,-0.016,-0.124,-12.492,57.581,9.270
14:18:58:008,27.798,0.055,0.024,-0.092,-12.643,57.117,14.829
14:18:58:008,27.798,0.188,0.279,-0.196,-12.154,56.814,21.615
14:18:58:009,27.799,0.368,0.238,-0.183,-11.716,56.133,24.466
14:18:58:01,27.800,0.319,0.322,-0.348,-11.358,55.863,26.684
14:18:58:104,27.895,0.346,0.470,-0.545,-10.662,55.247,30.522
14:18:58:191,27.981,0.553,0.464,-0.747,-9.855,54.354,33.399
14:18:58:192,27.982,0.662,0.203,-0.831,-7.974,51.686,38.144
14:18:58:193,27.983,0.366,0.083,-0.823,-6.596,50.199,41.427
14:18:58:194,27.984,0.071,0.000,-0.390,-6.394,49.876,46.028
14:18:58:317,28.108,-0.030,-0.059,-0.326,-6.477,50.164,49.918
14:18:58:319,28.110,0.227,-0.253,-0.304,-5.333,49.482,51.719
14:18:58:481,28.272,0.284,-0.814,-0.123,-2.095,48.178,53.316
14:18:58:482,28.273,0.258,-0.813,0.006,-0.555,47.842,53.370
14:18:58:482,28.273,0.224,-0.823,0.050,-0.650,48.719,52.387
14:18:58:483,28.274,0.178,-0.803,-0.098,-2.454,50.903,49.894
14:18:58:525,28.316,0.152,-0.706,-0.143,-3.940,52.873,47.358
14:18:58:559,28.349,0.098,-0.466,-0.225,-5.348,55.863,42.408
14:18:58:559,28.349,0.033,-0.240,-0.246,-5.430,57.437,38.403
14:18:58:56,28.350,0.024,-0.137,-0.289,-4.652,58.664,31.473
14:18:58:561,28.351,0.042,0.143,-0.262,-3.860,58.845,23.559
14:18:58:611,28.401,-0.019,0.406,-0.155,-3.735,58.835,17.891
14:18:58:612,28.402,-0.193,0.590,0.075,-4.066,58.824,9.209
14:18:58:613,28.403,0.000,0.001,0.001,-149.462,-74.198,-137.304
14:18:58:654,28.445,-0.426,0.349,0.920,-6.934,58.916,-9.708
14:18:58:713,28.504,-0.907,-0.230,1.152,-8.007,58.625,-15.102
14:18:58:714,28.505,-0.417,-0.141,0.983,-9.228,57.240,-17.053
14:18:58:715,28.506,-0.092,-0.119,1.002,-9.450,56.909,-16.153
14:18:58:742,28.533,0.678,0.229,0.015,-8.576,58.080,-13.981
14:18:58:743,28.534,-0.102,0.139,0.365,-8.047,59.885,-13.244
14:18:58:744,28.535,-0.187,0.247,0.160,-7.893,61.923,-11.708
14:18:58:744,28.535,-0.428,0.029,-0.068,-8.118,63.106,-9.999
14:18:58:849,28.640,0.008,-0.027,0.387,-8.249,64.189,-8.806
14:18:58:849,28.640,0.004,-0.058,0.110,-8.530,64.608,-7.084
14:18:58:85,28.641,0.101,-0.016,-0.083,-9.004,63.670,-6.109
14:18:58:851,28.642,-0.053,-0.008,0.067,-9.650,63.935,-4.918
14:18:58:979,28.769,-0.033,0.032,-0.039,-10.107,63.523,-4.156
14:18:58:98,28.770,-0.013,0.024,0.013,-10.715,63.249,-3.051
14:18:58:981,28.771,-0.022,0.041,-0.032,-11.201,63.057,-2.048
14:18:58:982,28.772,-0.051,0.028,-0.034,-11.419,62.918,-1.386
14:18:59:163,28.954,0.050,-0.012,-0.061,-11.622,62.373,-0.295
14:18:59:164,28.955,0.034,-0.012,-0.049,-11.720,61.979,0.517
14:18:59:165,28.956,0.010,-0.014,-0.024,-11.861,60.905,1.802
14:18:59:166,28.957,0.065,-0.013,-0.016,-11.978,60.362,3.097
14:18:59:469,29.260,0.063,-0.010,-0.025,-12.062,59.826,3.938
14:19:00:002,29.793,0.030,-0.003,-0.016,-12.203,59.601,5.174
14:19:00:003,29.794,0.030,0.010,-0.014,-12.290,58.938,5.978
14:19:00:004,29.795,0.052,0.007,-0.037,-12.421,58.575,7.186
14:19:00:005,29.796,0.036,0.010,-0.084,-12.482,57.854,7.937
14:19:00:134,29.924,0.064,-0.017,-0.029,-12.520,57.489,8.879
14:19:00:135,29.925,0.061,0.000,-0.075,-12.518,56.839,9.815
14:19:00:136,29.926,0.046,0.009,-0.078,-12.554,56.662,10.550
14:19:00:136,29.926,0.067,0.032,-0.055,-12.554,56.361,12.017
14:19:00:187,29.978,0.060,0.008,-0.067,-12.532,56.163,13.319
14:19:00:187,29.978,0.007,0.046,-0.097,-12.450,55.771,15.423
14:19:00:187,29.978,0.113,0.189,-0.105,-12.302,55.270,17.739
14:19:00:188,29.979,0.170,0.249,-0.104,-12.163,54.886,19.375
14:19:00:371,30.162,0.276,0.266,-0.140,-11.826,54.074,22.097
14:19:00:372,30.163,0.345,0.347,-0.254,-11.522,53.519,24.165
14:19:00:372,30.163,0.426,0.314,-0.395,-10.875,52.372,27.702
14:19:00:372,30.163,0.510,0.252,-0.429,-9.964,50.673,31.728
14:19:00:422,30.212,0.526,0.092,-0.528,-9.180,49.145,34.602
14:19:00:423,30.213,0.295,0.068,-0.498,-8.363,47.594,38.840
14:19:00:494,30.284,0.070,-0.488,-0.285,-7.096,46.510,46.448
14:19:00:554,30.345,-0.003,0.070,-0.300,-2.943,52.513,26.529
14:19:00:554,30.345,0.043,0.028,-0.005,-5.432,79.297,-9.076
14:19:00:555,30.346,-0.056,-0.001,0.275,-5.629,80.939,-7.650
14:19:00:555,30.346,0.071,-0.028,-0.146,-6.157,80.458,-6.832
14:19:00:601,30.392,-0.023,-0.018,-0.003,-6.881,80.340,-5.789
14:19:00:602,30.393,-0.017,0.064,0.045,-7.957,81.251,-4.239
14:19:00:658,30.449,-0.003,0.021,-0.031,-8.448,81.519,-3.313
14:19:00:659,30.450,-0.051,0.028,0.010,-8.686,81.748,-2.699
14:19:00:66,30.451,-0.013,0.014,-0.016,-8.942,81.815,-1.761
14:19:00:661,30.452,0.040,-0.010,-0.020,-9.079,81.579,-0.822
14:19:00:687,30.478,0.009,-0.018,-0.035,-9.172,81.486,-0.208
14:19:00:687,30.478,0.000,-0.011,-0.007,-9.323,81.528,0.689
14:19:00:687,30.478,0.024,-0.007,-0.023,-9.415,81.952,1.281
14:19:00:688,30.479,-0.022,0.008,-0.029,-9.672,82.721,2.958
14:19:00:735,30.526,-0.005,-0.001,-0.017,-9.736,82.807,3.530
14:19:00:736,30.527,-0.002,-0.002,-0.038,-9.794,83.312,4.391
14:19:00:736,30.527,0.001,-0.001,-0.027,-9.810,83.314,4.958
14:19:01:29,31.081,-0.010,0.001,-0.046,-9.826,83.740,5.840
14:19:01:29,31.081,0.010,0.000,-0.028,-9.812,84.096,6.772
14:19:01:291,31.082,0.004,0.004,-0.042,-9.773,83.996,7.422
14:19:01:294,31.085,0.000,-0.007,-0.057,-9.684,84.299,8.420
14:19:01:359,31.150,0.003,-0.003,-0.052,-9.594,84.243,9.101
14:19:01:449,31.239,-0.005,-0.008,-0.061,-9.437,84.356,10.261
14:19:01:449,31.239,-0.006,0.064,-0.070,-9.241,84.221,11.579
14:19:01:449,31.239,-0.002,0.067,-0.060,-9.009,84.248,12.728
14:19:01:45,31.240,-0.015,0.107,-0.076,-8.524,83.936,14.612
14:19:01:473,31.263,0.070,0.201,-0.127,-8.079,84.043,15.948
14:19:01:473,31.263,0.118,0.277,-0.193,-7.319,83.596,18.069
14:19:01:474,31.264,0.132,0.246,-0.269,-6.487,83.599,20.501
14:19:01:578,31.369,0.033,0.170,-0.409,-4.850,83.443,25.350
14:19:01:578,31.369,0.111,0.164,-0.548,-4.007,82.837,27.601
14:19:01:579,31.370,0.135,0.102,-0.566,-2.591,82.002,31.280
14:19:01:58,31.371,0.030,0.086,-0.494,-1.476,81.743,35.099
14:19:01:622,31.413,-0.025,0.019,-0.462,-1.011,82.265,37.637
14:19:01:709,31.500,-0.101,-0.200,-0.259,-0.796,83.714,41.118
14:19:01:709,31.500,-0.047,-0.409,-0.329,-0.697,85.274,42.912
14:19:01:761,31.551,-0.109,0.251,0.681,-1.912,115.233,-6.043
14:19:01:762,31.552,0.118,0.116,0.728,-3.090,116.749,-11.601
14:19:01:763,31.553,0.575,0.021,0.798,-4.052,117.415,-14.772
14:19:01:764,31.554,0.380,-0.238,0.947,-4.851,118.354,-18.243
14:19:01:814,31.604,0.458,-0.234,0.671,-5.048,123.304,-17.998
14:19:01:815,31.605,0.251,0.198,-0.373,-4.633,125.822,-15.951
14:19:01:816,31.606,0.049,0.247,-0.423,-3.671,129.551,-14.672
14:19:01:816,31.606,0.650,0.143,0.447,-3.342,131.964,-13.935
14:19:01:84,31.630,0.319,0.086,0.307,-3.664,133.066,-12.487
14:19:01:841,31.631,-0.268,0.128,0.232,-4.278,132.624,-11.488
14:19:01:893,31.684,0.025,-0.001,-0.055,-5.923,133.856,-7.680
14:19:01:894,31.685,-0.021,-0.017,0.053,-6.656,134.574,-6.652
14:19:01:894,31.685,0.045,0.020,0.104,-7.120,135.319,-6.077
14:19:01:895,31.686,0.010,0.033,0.038,-7.786,135.823,-5.274
14:19:01:945,31.736,-0.066,0.013,0.040,-8.384,136.269,-4.478
14:19:01:946,31.737,-0.033,0.022,0.097,-8.702,136.554,-3.926
14:19:01:947,31.738,-0.050,0.030,0.038,-9.042,136.323,-2.999
14:19:01:947,31.738,-0.040,0.003,-0.018,-9.191,135.979,-2.315
14:19:01:999,31.790,-0.020,-0.014,0.013,-9.359,135.953,-1.253
14:19:02:,31.791,-0.013,-0.013,0.026,-9.463,135.746,-0.538
14:19:02:,31.791,-0.004,-0.014,-0.004,-9.605,135.859,0.520
14:19:02:,31.791,-0.013,0.000,-0.008,-9.757,135.953,1.537
14:19:02:076,31.867,-0.016,0.011,0.023,-9.871,135.908,2.190
14:19:02:076,31.867,-0.053,-0.001,-0.006,-10.024,136.262,3.198
14:19:02:077,31.868,-0.045,0.012,-0.001,-10.103,136.151,3.898
14:19:02:078,31.869,-0.075,0.001,-0.014,-10.275,136.052,4.910
14:19:02:093,31.884,-0.030,-0.005,-0.012,-10.391,135.808,6.060
14:19:02:12,31.911,-0.067,-0.003,-0.055,-10.422,135.657,6.968
14:19:02:174,31.965,-0.078,-0.006,-0.001,-10.443,135.438,8.463
14:19:02:175,31.966,-0.083,0.017,-0.037,-10.432,135.383,9.560
14:19:02:199,31.990,-0.053,0.061,-0.043,-10.353,135.169,11.370
14:19:02:254,32.045,-0.020,0.042,-0.001,-10.267,135.168,12.665
14:19:02:254,32.045,-0.048,0.052,-0.005,-10.097,134.794,14.688
14:19:02:445,32.236,-0.036,0.122,-0.011,-9.801,134.687,16.796
14:19:02:445,32.236,-0.082,0.253,-0.154,-9.516,134.166,18.290
14:19:02:446,32.237,-0.135,0.225,-0.237,-8.997,133.428,20.683
14:19:02:447,32.238,-0.248,0.272,-0.290,-8.566,132.938,22.488
14:19:02:602,32.393,-0.271,0.309,-0.338,-7.749,132.450,25.609
14:19:02:602,32.393,-0.328,0.220,-0.572,-6.556,131.056,29.323
14:19:02:603,32.394,-0.425,0.173,-0.658,-5.571,130.110,32.135
14:19:02:604,32.395,-0.517,0.112,-0.569,-4.255,129.273,36.666
14:19:02:628,32.419,-0.591,0.011,-0.465,-3.693,129.504,39.758
14:19:02:629,32.420,-0.470,-0.128,-0.436,-4.049,130.918,44.167
14:19:02:63,32.421,-0.489,-0.419,-0.198,-4.880,133.442,47.622
14:19:02:631,32.422,-0.071,-0.145,0.199,87.685,-15.621,-86.638
14:19:02:68,32.471,-0.373,-0.816,-0.270,-5.804,138.079,49.191
14:19:02:68,32.471,-0.462,-0.884,-0.293,-5.203,139.859,48.099
14:19:02:681,32.472,-0.371,-0.523,-0.004,-4.696,143.688,45.079
14:19:02:681,32.472,-0.406,-0.293,0.054,-4.298,146.246,42.254
14:19:02:864,32.655,-0.534,-0.293,0.089,-3.107,150.053,36.903
14:19:02:865,32.656,-0.444,-0.013,0.229,-1.913,153.606,30.494
14:19:02:865,32.656,-0.202,0.132,0.325,-1.208,155.644,25.841
14:19:02:997,32.787,-0.072,0.310,0.421,-0.407,159.868,13.707
14:19:02:998,32.788,0.061,0.328,0.455,-0.341,161.392,5.930
14:19:02:998,32.788,0.288,0.422,0.599,-0.785,161.767,-1.979
14:19:02:999,32.789,0.679,0.471,0.726,-1.521,161.924,-7.016
14:19:03:014,32.804,1.038,-0.058,0.263,-3.410,161.026,-13.336
14:19:03:104,32.895,1.033,-0.092,0.610,-4.501,160.235,-16.529
14:19:03:104,32.895,1.138,-0.414,0.479,-6.015,159.296,-18.906
14:19:03:104,32.895,1.137,-0.159,0.081,-6.678,159.069,-18.580
14:19:03:104,32.895,-0.115,0.435,-0.733,-6.360,159.998,-16.277
14:19:03:153,32.944,0.724,0.223,-0.196,-5.729,162.379,-14.634
14:19:03:154,32.945,0.333,0.327,0.296,-5.847,163.483,-13.192
14:19:03:154,32.945,0.057,0.230,0.328,-6.288,165.186,-10.986
14:19:03:155,32.946,0.307,-0.173,-0.012,-6.353,166.193,-9.445
14:19:03:233,33.024,0.098,-0.021,-0.131,-6.844,165.775,-7.622
14:19:03:233,33.024,0.003,-0.030,0.034,-7.607,165.703,-6.179
14:19:03:233,33.024,0.142,0.036,0.159,-8.060,166.299,-5.365
14:19:03:234,33.025,0.016,0.007,0.122,-8.715,165.976,-4.213
14:19:03:28,33.070,-0.014,0.035,0.017,-9.071,165.372,-3.456
14:19:03:28,33.070,-0.108,0.031,0.023,-9.467,164.555,-2.215
14:19:03:386,33.177,-0.088,0.005,0.071,-9.604,164.099,-1.271
14:19:03:386,33.177,-0.102,-0.013,-0.001,-9.663,163.229,0.312
14:19:03:466,33.257,-0.055,-0.008,0.017,-9.691,162.000,3.243
14:19:03:467,33.258,-0.072,-0.008,0.001,-9.742,161.479,5.091
14:19:03:468,33.259,-0.055,0.004,-0.025,-9.784,161.107,6.330
14:19:03:469,33.260,-0.027,0.005,0.010,-9.870,160.811,8.222
14:19:03:572,33.363,-0.026,0.029,-0.011,-9.999,160.435,10.123
14:19:03:572,33.363,-0.053,0.022,-0.004,-10.096,160.109,11.411
14:19:03:573,33.364,-0.067,0.015,-0.065,-10.267,159.550,13.414
14:19:03:574,33.365,-0.112,0.065,-0.047,-10.379,159.253,14.822
14:19:03:749,33.539,-0.159,0.129,-0.053,-10.485,159.123,17.143
14:19:03:836,33.626,-0.208,0.167,-0.215,-10.530,158.906,19.832
14:19:03:837,33.627,-0.262,0.140,-0.146,-10.515,158.839,21.936
14:19:03:837,33.627,-0.367,0.336,0.048,-10.328,158.508,25.653
14:19:03:838,33.628,-0.520,0.575,-0.150,-9.762,157.573,28.562
14:19:03:984,33.775,-0.997,0.475,-0.781,-7.759,154.547,33.462
14:19:04:171,33.961,-1.122,0.274,-0.701,-5.250,151.992,38.745
14:19:04:205,33.996,-1.099,0.204,-0.266,-4.503,151.934,42.348
14:19:04:205,33.996,-0.734,-0.046,-0.490,-5.608,153.936,47.712
14:19:04:723,34.513,-0.368,-0.756,-0.052,-5.092,159.847,54.474
14:19:04:724,34.514,-0.438,-0.964,-0.032,-3.553,162.659,54.258
14:19:04:858,34.649,-0.249,-0.773,0.187,-2.190,166.225,52.251
14:19:04:859,34.650,-0.215,-0.670,0.271,-1.787,169.157,50.060
14:19:04:86,34.651,-0.242,-0.498,0.393,-1.081,173.848,45.493
14:19:04:861,34.652,-0.333,-0.353,0.519,-0.008,176.557,41.585
14:19:05:356,35.147,-0.243,-0.165,0.574,1.611,179.836,34.691
14:19:05:356,35.147,-0.204,-0.049,0.583,2.752,-177.805,26.856
14:19:05:357,35.148,-0.151,0.087,0.541,3.016,-176.629,21.300
14:19:05:412,35.202,0.103,0.356,0.467,2.822,-175.043,12.552
14:19:05:412,35.202,0.253,0.526,0.505,2.392,-174.030,6.574
14:19:05:413,35.203,1.189,0.977,0.334,1.404,-171.441,-1.884
14:19:05:413,35.203,1.877,0.272,-0.075,0.818,-168.810,-6.698
14:19:05:594,35.384,1.335,-0.057,0.029,0.171,-166.647,-12.098
14:19:05:595,35.385,1.442,-0.277,0.070,-0.273,-165.362,-14.635
14:19:05:596,35.386,1.361,-0.089,-0.390,-0.712,-164.520,-14.325
14:19:05:596,35.386,-0.831,0.672,-0.273,-0.436,-162.810,-11.778
14:19:05:647,35.437,0.471,0.197,-0.113,-0.626,-161.681,-10.696
14:19:05:647,35.437,-0.016,0.530,0.658,-1.719,-160.363,-8.206
14:19:05:648,35.438,0.416,-0.237,-0.154,-2.344,-158.019,-5.873
14:19:05:649,35.439,0.140,0.039,0.026,-2.946,-158.024,-4.724
14:19:05:779,35.570,-0.151,-0.047,-0.054,-3.932,-158.959,-3.332
14:19:05:779,35.570,-0.103,0.009,0.059,-8.144,-161.636,12.843
14:19:05:779,35.570,-0.265,0.146,0.034,-8.347,-161.801,19.743
14:19:05:876,35.667,-0.221,0.199,0.089,-8.253,-161.717,22.683
14:19:05:877,35.668,-0.261,0.316,0.185,-7.991,-161.963,24.893
14:19:06:007,35.797,-0.621,0.452,0.168,-7.038,-163.044,28.709
14:19:06:688,36.478,0.485,0.515,0.210,0.623,-132.125,7.897
14:19:06:853,36.644,0.929,0.584,-0.158,-0.850,-132.176,-1.219
14:19:06:854,36.645,1.112,0.508,-0.589,-2.350,-131.917,-6.730
14:19:06:855,36.646,0.873,-0.039,-1.047,-4.700,-131.911,-13.241
14:19:06:855,36.646,1.147,-0.446,-1.228,-5.747,-131.863,-16.207
14:19:06:901,36.692,0.492,-0.086,-0.960,-6.896,-131.404,-16.818
14:19:06:901,36.692,-1.433,0.565,0.227,-6.173,-128.752,-14.297
14:19:06:982,36.773,1.441,0.126,0.355,-5.729,-121.843,-9.748
14:19:06:983,36.774,0.215,-0.262,-0.749,-6.104,-119.216,-7.219
14:19:06:983,36.774,0.056,0.121,-0.142,-6.539,-119.825,-5.848
14:19:07:037,36.828,-0.149,-0.033,0.128,-7.414,-121.193,-4.146
14:19:07:038,36.829,0.252,0.021,-0.111,-8.051,-119.394,-2.998
14:19:07:039,36.830,0.114,-0.010,0.077,-8.483,-119.523,-2.204
14:19:07:04,36.831,-0.108,0.026,0.177,-8.913,-120.598,-0.991
14:19:07:057,36.848,0.030,-0.006,0.067,-9.125,-120.963,-0.041
14:19:07:109,36.899,0.052,-0.008,0.037,-9.331,-121.283,1.618
14:19:07:17,36.960,-0.060,-0.007,0.072,-9.434,-122.132,3.354
14:19:07:171,36.961,-0.070,-0.010,0.063,-9.511,-122.549,4.470
14:19:07:171,36.961,-0.032,-0.001,0.069,-9.690,-123.035,6.122
14:19:07:346,37.137,-0.034,-0.004,0.057,-10.056,-123.720,8.816
14:19:07:905,37.695,-0.200,0.193,0.183,-10.914,-126.396,20.969
14:19:07:906,37.696,-0.589,0.496,0.078,-5.280,-121.993,-13.129
14:19:07:906,37.696,0.442,0.445,-0.038,-5.333,-118.063,-9.860
14:19:07:907,37.697,0.070,-0.304,-0.341,-5.708,-116.113,-7.532
14:19:08:055,37.846,-0.099,-0.045,0.029,-6.322,-116.655,-5.691
14:19:08:376,38.167,-0.228,-0.080,0.134,-6.844,-117.411,-4.664
14:19:08:377,38.168,0.134,0.038,0.035,-7.609,-116.996,-3.295
14:19:08:377,38.168,0.075,0.022,0.070,-8.113,-116.961,-2.336
14:19:08:378,38.169,0.024,0.029,0.072,-8.688,-117.598,-0.856
14:19:08:428,38.219,-0.030,0.026,0.152,-8.947,-118.107,0.160
14:19:08:429,38.220,0.033,0.022,0.087,-9.186,-118.259,1.758
14:19:08:43,38.221,-0.027,-0.012,0.074,-9.306,-118.707,3.488
14:19:08:605,38.395,0.022,-0.016,0.045,-9.547,-119.473,6.402
14:19:08:691,38.482,-0.006,-0.012,0.058,-9.659,-119.717,7.533
14:19:08:693,38.483,-0.034,0.008,0.027,-9.841,-120.269,9.174
14:19:08:693,38.484,-0.015,0.007,0.023,-10.049,-120.731,10.759
14:19:08:693,38.484,-0.012,0.018,0.048,-10.190,-121.002,11.783
14:19:08:792,38.583,-0.043,0.021,0.052,-10.396,-121.530,13.265
14:19:08:793,38.584,-0.110,-0.015,0.153,-10.514,-121.855,13.984
14:19:09:366,39.156,-0.126,-0.015,0.229,-10.723,-122.471,15.659
14:19:09:401,39.191,-0.177,0.342,0.417,-10.598,-124.087,27.780
14:19:09:401,39.191,0.441,0.781,-0.166,-3.524,-121.416,3.434
14:19:09:402,39.192,0.636,0.753,-0.808,-5.014,-120.954,-5.675
14:19:09:403,39.193,0.829,0.083,-1.357,-6.795,-121.363,-13.032
14:19:09:426,39.216,1.035,-0.349,-1.386,-7.649,-121.800,-16.453
14:19:09:427,39.217,0.070,-0.041,-0.284,-6.998,-112.166,-6.958
14:19:09:428,39.218,-0.058,-0.016,0.074,-9.737,-115.522,2.548
14:19:09:429,39.219,-0.001,-0.021,0.091,-9.709,-116.291,4.231
14:19:09:575,39.366,-0.008,-0.007,0.067,-9.694,-116.726,5.380
14:19:09:61,39.401,-0.036,-0.012,0.052,-9.696,-117.316,7.068
14:19:09:611,39.402,-0.015,0.004,0.059,-9.730,-118.356,8.146
14:19:09:612,39.403,-0.018,0.003,0.068,-9.808,-118.687,9.724
14:19:09:613,39.404,-0.024,0.013,0.064,-9.864,-119.576,10.760
14:19:09:739,39.530,-0.044,0.016,0.078,-9.948,-120.048,12.313
14:19:09:74,39.531,-0.217,0.252,0.244,-9.786,-123.254,22.255
14:19:09:741,39.532,-0.215,0.323,0.376,-9.346,-124.280,25.638
14:19:09:796,39.587,-0.275,0.395,0.428,-8.938,-124.706,28.219
14:19:09:796,39.587,-0.667,0.441,0.858,-7.639,-126.182,32.785
14:19:09:796,39.587,-0.664,0.372,0.862,-6.470,-127.515,36.047
14:19:09:796,39.587,-0.691,0.040,0.998,-3.749,-130.139,41.080
14:19:09:847,39.637,-0.381,-0.180,0.749,-1.681,-131.060,46.155
14:19:09:847,39.637,0.114,0.403,-0.092,-5.631,-109.101,-7.051
14:19:09:848,39.638,0.313,0.262,-0.071,-6.053,-107.611,-5.668
14:19:09:849,39.639,0.160,-0.041,-0.211,-6.488,-106.960,-3.791
14:19:09:864,39.654,-0.181,-0.062,0.214,-7.212,-108.491,-2.404
14:19:09:969,39.760,-0.118,-0.038,0.162,-7.712,-108.463,-1.712
14:19:10:031,39.822,0.095,0.029,0.012,-8.453,-107.795,-0.762
14:19:10:032,39.823,0.057,0.033,0.162,-8.842,-107.989,-0.087
14:19:10:032,39.823,-0.030,0.001,0.220,-9.230,-108.738,1.066
14:19:10:033,39.824,0.013,0.020,0.159,-9.423,-109.133,2.455
14:19:10:267,40.057,0.012,-0.012,0.148,-9.438,-109.439,3.505
14:19:10:267,40.057,-0.041,-0.021,0.136,-9.358,-110.036,5.165
14:19:10:268,40.058,-0.051,-0.026,0.146,-9.302,-110.385,6.294
14:19:10:269,40.059,-0.023,-0.014,0.129,-9.281,-110.785,8.027
14:19:11:709,41.500,-0.035,-0.021,0.124,-9.307,-110.351,9.762
14:19:11:71,41.501,-0.051,-0.004,0.092,-9.349,-110.523,10.899
14:19:11:711,41.502,-0.042,-0.001,0.114,-9.441,-109.971,12.571
14:19:11:833,41.623,-0.050,-0.007,0.117,-9.601,-109.925,15.220
14:19:11:946,41.737,-0.074,-0.017,0.182,-9.670,-110.180,16.581
14:19:11:947,41.738,-0.019,0.016,0.258,-9.724,-109.710,17.820
14:19:11:947,41.738,-0.052,0.047,0.222,-9.720,-109.708,19.987
14:19:11:948,41.739,-0.044,0.076,0.247,-9.572,-109.089,22.538
14:19:12:026,41.817,-0.077,0.213,0.351,-9.372,-109.214,24.448
14:19:12:026,41.817,-0.115,0.324,0.469,-8.789,-109.275,27.812
14:19:12:027,41.818,-0.244,0.412,0.617,-7.769,-109.968,31.910
14:19:12:028,41.819,-0.466,0.372,1.061,-6.660,-110.935,35.092
14:19:12:127,41.918,-0.627,0.453,1.051,-4.710,-112.506,40.280
14:19:12:127,41.918,-0.438,0.052,1.140,-2.509,-113.860,43.738
14:19:12:205,41.995,-0.142,-0.292,1.012,-0.065,-114.049,48.833
14:19:12:205,41.995,0.097,-0.514,0.490,-0.973,-111.746,53.256
14:19:12:393,42.183,0.162,-0.511,0.355,-1.769,-109.977,55.180
14:19:12:394,42.184,0.097,-0.929,0.386,-4.547,-101.893,54.487
14:19:12:395,42.185,0.207,-0.681,0.279,-5.145,-97.592,51.008
14:19:12:396,42.186,0.385,-0.383,0.317,-5.443,-94.199,47.812
14:19:12:525,42.316,0.430,-0.368,0.252,-4.791,-89.334,41.877
14:19:12:525,42.316,0.358,-0.059,0.042,-6.608,-49.811,31.196
14:19:12:526,42.317,0.300,0.112,0.049,-5.424,-48.425,22.551
14:19:12:527,42.318,0.238,0.499,-0.005,-5.200,-47.861,16.444
14:19:12:572,42.363,0.075,0.738,-0.207,-5.466,-47.092,6.977
14:19:12:572,42.363,-0.532,0.158,0.468,-10.096,-44.104,-14.729
14:19:12:941,42.731,-0.295,0.256,0.845,-9.653,-43.109,-12.630
14:19:12:942,42.732,-0.546,0.031,-0.237,-9.135,-39.861,-11.559
14:19:12:942,42.732,-0.291,0.349,-0.015,-9.260,-37.911,-10.631
14:19:13:101,42.892,0.248,0.114,-0.747,-9.656,-35.983,-8.964
14:19:13:101,42.892,-0.260,0.104,0.063,-10.022,-34.790,-7.729
14:19:13:102,42.893,-0.182,0.016,0.038,-10.511,-34.272,-6.079
14:19:13:103,42.894,0.109,-0.008,0.142,-11.444,-34.654,-4.642
14:19:13:128,42.919,-0.012,0.031,-0.110,-11.936,-33.718,-3.956
14:19:13:129,42.920,-0.009,0.033,-0.033,-12.605,-32.562,-2.859
14:19:13:13,42.921,0.066,0.035,0.089,-12.958,-32.979,-2.127
14:19:13:131,42.922,0.064,0.028,0.103,-13.375,-32.624,-1.004
14:19:13:47,43.261,0.005,-0.010,0.002,-13.583,-32.720,-0.172
14:19:13:47,43.261,0.032,-0.002,0.115,-14.375,-34.403,5.748
14:19:13:471,43.262,0.000,-0.008,0.078,-14.466,-34.746,6.846
14:19:13:472,43.263,0.016,0.001,0.088,-14.676,-34.558,8.051
14:19:13:488,43.279,0.010,0.007,0.079,-14.832,-34.753,8.839
14:19:13:549,43.340,0.123,-0.014,0.108,-15.084,-34.936,10.783
14:19:13:549,43.340,0.153,-0.002,0.124,-15.226,-34.926,12.366
14:19:13:549,43.340,0.121,0.023,0.139,-15.289,-35.178,13.624
14:19:13:55,43.341,0.080,0.029,0.102,-15.336,-35.278,15.757
14:19:13:62,43.411,0.051,0.064,0.113,-15.307,-35.620,18.112
14:19:14:014,43.805,0.064,0.190,0.123,-15.225,-35.778,19.776
14:19:14:064,43.855,0.281,-0.637,0.113,-12.312,-40.202,53.579
14:19:14:093,43.884,0.343,-1.016,0.390,-11.965,-39.410,53.195
14:19:14:093,43.884,0.308,-0.415,0.117,-9.785,-33.075,43.420
14:19:14:457,44.248,0.279,0.020,-0.032,-6.326,-26.266,23.980
14:19:14:626,44.416,0.194,0.347,0.006,-5.608,-25.484,18.112
14:19:14:626,44.416,0.060,0.685,-0.221,-5.062,-24.376,8.875
14:19:14:627,44.417,-0.341,0.568,-0.583,-4.972,-22.100,-0.317
14:19:14:627,44.417,-1.272,0.470,-0.812,-5.249,-19.690,-5.876
14:19:14:826,44.617,-1.457,0.029,-0.714,-5.613,-17.904,-12.280
14:19:14:887,44.678,-1.351,-0.335,-0.908,-5.822,-17.581,-14.960
14:19:14:887,44.678,-1.239,-0.159,-0.660,-6.176,-16.690,-15.326
14:19:14:888,44.679,0.116,-0.040,0.156,-8.825,-12.014,-4.689
14:19:14:889,44.680,-0.030,0.046,-0.005,-9.634,-10.984,-3.824
14:19:15:009,44.800,-0.094,0.044,-0.023,-10.135,-10.450,-3.269
14:19:15:071,44.862,0.095,0.041,0.035,-10.759,-10.597,-2.357
14:19:15:071,44.862,0.101,0.027,0.051,-11.064,-10.747,-1.718
14:19:15:071,44.862,0.072,-0.003,-0.002,-11.375,-10.611,-0.664
14:19:15:072,44.863,0.077,-0.026,0.070,-11.535,-10.782,0.628
14:19:15:124,44.915,0.076,-0.021,0.081,-11.623,-10.871,1.538
14:19:15:125,44.916,0.029,-0.009,0.044,-11.791,-10.292,2.919
14:19:15:125,44.916,0.014,0.002,0.069,-11.894,-10.148,3.855
14:19:15:125,44.916,0.776,0.392,0.234,-9.872,-11.574,30.276
14:19:15:228,45.019,0.923,0.362,0.300,-9.009,-12.310,33.317
14:19:15:228,45.019,0.933,0.139,0.338,-7.003,-14.083,38.159
14:19:15:229,45.020,0.897,-0.099,0.098,-5.183,-15.129,41.383
14:19:15:23,45.021,-0.988,0.143,0.487,-5.817,27.163,-11.438
14:19:15:779,45.570,-0.648,-0.070,0.954,-6.841,30.540,-16.263
14:19:15:78,45.571,0.885,0.386,0.185,-6.417,31.959,-13.878
14:19:15:781,45.572,-0.661,0.051,0.798,-6.185,34.468,-12.492
14:19:15:911,45.701,-0.056,0.045,0.037,-9.914,39.231,-3.531
14:19:15:911,45.701,0.073,0.039,-0.010,-10.270,38.962,-2.834
14:19:15:912,45.702,0.023,0.033,-0.027,-10.621,38.833,-1.791
14:19:15:913,45.703,-0.013,0.002,-0.018,-10.757,38.824,-1.034
14:19:16:016,45.807,0.092,-0.019,-0.001,-10.819,38.343,0.251
14:19:16:017,45.808,0.055,0.003,0.040,-11.068,37.501,4.089
14:19:16:018,45.809,0.055,-0.005,0.036,-11.179,38.187,5.536
14:19:16:019,45.810,0.036,-0.001,0.041,-11.266,38.073,6.473
14:19:16:043,45.834,0.053,0.016,0.013,-11.416,38.505,7.864
14:19:16:043,45.834,0.077,0.044,-0.007,-11.504,38.344,8.810
14:19:16:044,45.835,0.140,0.027,-0.050,-11.564,38.634,10.400
14:19:16:045,45.836,0.136,0.039,-0.079,-11.534,38.176,12.349
14:19:16:094,45.885,0.128,0.078,-0.047,-11.458,38.812,13.862
14:19:16:094,45.885,0.164,0.130,-0.033,-11.233,38.975,16.411
14:19:16:095,45.886,0.228,0.304,-0.105,-11.040,39.728,18.262
14:19:16:278,46.069,0.401,0.460,-0.271,-9.887,39.569,25.169
14:19:16:278,46.069,0.722,0.396,-0.519,-9.190,38.880,27.957
14:19:16:279,46.070,-0.430,0.678,0.489,-5.446,55.882,0.047
14:19:16:28,46.071,-0.382,0.466,0.669,-6.404,55.837,-5.570
14:19:16:332,46.123,-0.489,0.217,1.005,-7.860,56.719,-12.905
14:19:16:333,46.124,-0.904,-0.239,1.318,-8.315,57.552,-16.843
14:19:16:334,46.125,-0.475,-0.253,0.983,-9.424,57.834,-19.212
14:19:16:335,46.126,0.846,0.473,-0.026,-9.036,58.671,-17.586
14:19:16:401,46.191,-0.244,0.069,1.076,-8.161,61.038,-16.179
14:19:16:462,46.252,-0.166,0.339,0.336,-8.242,61.844,-15.023
14:19:16:462,46.252,-0.500,0.017,0.060,-8.640,62.943,-13.098
14:19:16:463,46.253,-0.059,-0.098,0.349,-9.074,64.347,-11.193
14:19:16:464,46.254,-0.014,-0.076,0.230,-9.356,64.577,-10.036
14:19:16:51,46.300,0.131,-0.012,-0.077,-10.215,63.789,-8.510
14:19:16:511,46.301,-0.108,0.020,0.113,-10.687,64.170,-7.677
14:19:16:645,46.436,-0.082,0.026,0.078,-11.350,64.552,-6.456
14:19:16:646,46.437,0.026,0.010,-0.023,-11.740,64.170,-5.623
14:19:16:647,46.438,0.035,0.042,-0.027,-12.181,63.436,-4.290
14:19:16:648,46.439,-0.018,0.008,-0.011,-12.450,62.858,-2.830
14:19:16:821,46.612,0.016,-0.005,0.029,-12.546,62.342,-1.786
14:19:16:933,46.723,0.052,-0.004,-0.006,-12.634,61.384,-0.178
14:19:16:933,46.723,0.028,-0.014,-0.007,-12.684,60.347,0.891
14:19:16:934,46.724,0.037,-0.007,0.024,-12.757,59.662,2.448
14:19:17:064,46.855,0.079,-0.001,-0.012,-12.899,58.514,4.021
14:19:17:065,46.856,0.060,0.001,0.019,-13.030,58.188,5.048
14:19:17:117,46.908,0.054,0.018,-0.075,-13.537,56.524,9.483
14:19:17:118,46.909,0.105,0.009,-0.083,-13.607,56.101,10.836
14:19:17:119,46.910,0.083,0.045,-0.071,-13.558,55.618,12.751
14:19:17:119,46.910,0.167,0.161,-0.027,-13.554,55.309,15.334
14:19:17:17,46.961,0.175,0.235,-0.031,-13.502,55.225,17.157
14:19:17:171,46.962,0.167,0.240,-0.141,-13.338,54.828,20.228
14:19:17:172,46.963,0.187,0.400,-0.277,-13.073,54.433,22.583
14:19:17:172,46.963,0.561,0.470,-0.337,-12.383,53.089,26.668
14:19:17:191,46.982,0.914,0.457,-0.623,-11.034,50.730,31.306
14:19:17:191,46.982,0.823,0.268,-0.829,-9.821,48.841,34.686
14:19:17:25,47.041,0.290,0.103,-0.742,-8.726,47.543,39.824
14:19:17:25,47.041,0.385,-0.054,-0.576,-8.862,47.617,43.183
14:19:17:251,47.042,0.155,-0.463,-0.490,-8.808,47.864,47.489
14:19:17:252,47.043,-0.014,-0.235,-0.109,-8.332,47.505,49.357
14:19:17:381,47.172,0.182,-0.414,-0.322,-5.912,51.900,40.859
14:19:17:381,47.172,0.105,-0.346,-0.302,-5.879,54.765,34.305
14:19:17:382,47.173,-0.015,-0.026,-0.231,-5.307,57.197,26.440
14:19:17:382,47.173,-0.128,0.599,-0.152,-4.281,57.628,11.218
14:19:17:432,47.223,-0.552,0.836,0.251,-4.463,57.186,4.738
14:19:17:433,47.224,-0.674,0.503,0.695,-5.577,56.650,-4.855
14:19:17:434,47.225,-0.633,0.205,1.256,-6.935,56.447,-10.584
14:19:17:434,47.225,-1.122,-0.169,1.340,-8.769,55.881,-17.549
14:19:17:485,47.276,-0.626,-0.176,0.936,-10.019,55.335,-20.996
14:19:17:485,47.276,-0.382,-0.223,1.196,-10.315,55.566,-20.347
14:19:17:486,47.277,0.895,0.469,0.015,-9.158,57.401,-17.784
14:19:17:487,47.278,-0.335,0.136,0.843,-8.309,59.432,-16.828
14:19:17:537,47.328,-0.413,0.406,0.147,-8.059,61.821,-14.777
14:19:17:538,47.329,-0.092,0.210,0.284,-8.200,64.278,-12.569
14:19:17:539,47.330,-0.109,-0.164,0.470,-8.207,65.390,-11.010
14:19:17:54,47.331,0.131,-0.029,0.052,-8.755,64.589,-9.125
14:19:17:616,47.407,-0.026,0.009,0.047,-9.276,64.032,-8.078
14:19:17:616,47.407,-0.153,0.019,0.141,-9.854,65.002,-6.861
14:19:17:617,47.408,-0.041,0.004,-0.014,-10.450,64.430,-5.532
14:19:17:618,47.409,0.062,0.048,-0.043,-10.765,63.525,-4.597
14:19:17:669,47.460,-0.033,0.007,-0.023,-11.054,62.718,-3.132
14:19:17:67,47.461,-0.014,0.003,-0.010,-11.150,62.267,-2.058
14:19:17:751,47.542,0.017,-0.003,-0.025,-11.374,60.474,2.681
14:19:17:751,47.542,0.036,0.002,0.016,-11.519,60.053,4.510
14:19:17:751,47.542,0.032,0.009,0.008,-11.623,59.785,5.709
14:19:17:752,47.543,0.047,0.004,0.002,-11.790,59.419,7.494
14:19:17:799,47.590,0.035,0.028,0.010,-11.907,59.135,8.704
14:19:17:8,47.591,0.064,0.035,-0.034,-12.081,58.664,10.607
14:19:17:801,47.592,0.096,0.033,-0.101,-12.203,58.077,12.709
14:19:17:817,47.608,0.258,0.208,-0.087,-12.197,57.660,16.998
14:19:17:871,47.661,0.166,0.269,-0.264,-12.131,57.731,19.140
14:19:17:956,47.746,0.167,0.406,-0.380,-11.892,57.591,22.951
14:19:17:957,47.747,0.540,0.607,-0.643,-11.307,56.683,27.684
14:19:17:957,47.747,0.883,0.617,-0.876,-10.484,55.048,31.341
14:19:18:343,48.133,0.929,0.408,-1.078,-8.773,52.277,37.121
14:19:18:373,48.163,0.658,0.214,-1.155,-7.749,51.446,40.820
14:19:18:373,48.163,0.322,-0.315,-0.618,-8.327,52.384,45.835
14:19:18:401,48.191,0.072,-0.412,-0.407,-9.112,53.707,48.882
14:19:18:402,48.192,-0.070,-0.273,-0.164,-9.290,54.245,49.748
14:19:18:402,48.192,0.388,-1.114,-0.356,-7.439,54.249,49.144
14:19:18:456,48.247,0.218,-0.825,-0.225,-6.658,54.808,47.544
14:19:18:457,48.248,0.092,-0.623,-0.142,-6.504,57.026,43.687
14:19:18:458,48.249,0.093,-0.441,-0.238,-6.210,58.830,40.143
14:19:18:459,48.250,0.002,-0.229,-0.231,-5.356,61.435,33.634
14:19:18:527,48.318,-0.072,-0.073,-0.105,-4.079,63.169,26.164
14:19:18:95,48.741,-0.102,0.006,-0.108,-3.226,63.705,20.848
14:19:18:951,48.742,-0.152,0.210,-0.043,-2.464,64.093,12.484
14:19:19:007,48.798,-0.292,0.253,0.177,-2.276,64.649,6.632
14:19:19:008,48.799,-0.585,0.289,0.628,-2.489,66.113,-2.113
14:19:19:009,48.800,-0.687,0.103,1.069,-3.108,67.543,-10.126
14:19:19:01,48.801,-0.653,0.002,1.152,-3.814,67.849,-14.769
14:19:19:06,48.851,-0.594,-0.130,0.981,-4.929,67.705,-20.232
14:19:19:061,48.852,-0.529,-0.406,1.177,-5.549,67.904,-22.746
14:19:19:062,48.853,-0.468,-0.414,1.106,-6.831,67.432,-24.287
14:19:19:112,48.903,0.130,0.269,0.464,-8.148,66.700,-21.390
14:19:19:113,48.903,1.279,0.708,-0.368,-7.552,68.081,-20.570
14:19:19:114,48.905,-0.260,0.016,1.189,-7.064,69.856,-19.861
14:19:19:115,48.905,-0.618,-0.040,0.655,-7.272,71.563,-18.013
14:19:19:14,48.930,-1.016,0.153,-0.137,-7.592,72.549,-16.535
14:19:19:14,48.930,-0.103,-0.270,0.590,-7.854,74.015,-14.228
14:19:19:141,48.931,0.124,0.065,0.058,-8.642,73.100,-12.304
14:19:19:297,49.088,-0.200,0.022,0.276,-9.710,74.247,-10.145
14:19:19:297,49.088,-0.154,-0.006,0.131,-10.123,73.924,-9.375
14:19:19:298,49.089,0.033,0.042,-0.064,-10.617,72.816,-8.226
14:19:19:299,49.090,0.019,0.003,-0.033,-10.842,72.378,-7.351
14:19:19:393,49.184,0.007,0.003,0.047,-11.828,66.193,4.319
14:19:19:422,49.213,0.027,0.009,0.030,-12.081,65.919,5.969
14:19:19:423,49.214,0.022,0.040,0.028,-12.255,65.224,7.063
14:19:19:691,49.481,0.049,-0.005,-0.113,-12.477,64.518,8.840
14:19:19:692,49.482,0.045,0.068,-0.123,-12.586,63.925,10.198
14:19:19:695,49.485,0.076,0.086,-0.093,-12.685,63.697,12.588
14:19:19:695,49.485,0.041,0.175,-0.090,-12.677,63.120,15.431
14:19:19:743,49.533,0.249,0.361,-0.170,-12.600,62.738,17.548
14:19:19:743,49.534,0.296,0.434,-0.282,-12.291,61.907,21.250
14:19:19:743,49.534,0.480,0.556,-0.501,-11.970,61.340,24.057
14:19:19:745,49.536,0.633,0.510,-0.712,-10.919,59.733,29.113
14:19:19:926,49.717,0.667,0.320,-0.800,-9.534,57.401,34.571
14:19:19:927,49.718,0.470,0.066,-0.869,-8.609,56.405,38.201
14:19:19:928,49.719,0.385,-0.225,-0.557,-8.606,56.630,43.309
14:19:19:98,49.771,0.169,-0.348,-0.454,-9.225,58.689,48.677
14:19:19:98,49.771,0.234,-0.923,-0.386,-9.288,59.781,49.230
14:19:19:981,49.772,0.291,-1.024,-0.438,-8.246,60.624,48.191
14:19:19:982,49.773,0.045,-0.679,-0.251,-7.144,62.800,44.943
14:19:20:033,49.823,0.045,-0.586,-0.229,-6.711,64.871,41.741
14:19:20:033,49.823,0.001,-0.363,-0.324,-5.718,68.158,35.603
14:19:20:034,49.824,-0.118,-0.202,-0.329,-4.197,71.036,28.124
14:19:20:035,49.825,-0.189,0.003,-0.238,-3.180,72.661,22.466
14:19:20:209,50.000,-0.205,0.268,-0.174,-1.929,74.205,13.245
14:19:20:21,50.001,-0.263,0.610,-0.031,-1.475,74.686,6.790
14:19:20:268,50.059,-0.705,-0.466,1.759,-3.227,78.046,-21.604
14:19:20:268,50.059,-0.704,-0.339,0.961,-3.476,78.413,-22.298
14:19:20:338,50.129,0.048,0.250,0.851,-2.542,83.272,-16.632
14:19:20:394,50.184,-0.803,0.207,0.289,-3.170,85.237,-14.325
14:19:20:395,50.185,-0.039,-0.398,0.312,-3.486,86.595,-12.741
14:19:20:53,50.321,-0.027,0.025,0.152,-4.239,86.204,-11.063
14:19:20:531,50.322,-0.125,0.088,0.161,-5.753,85.959,-9.111
14:19:20:531,50.322,-0.178,0.001,0.106,-6.542,86.206,-8.009
14:19:20:532,50.323,-0.017,0.053,-0.149,-6.918,85.499,-7.283
14:19:20:601,50.392,0.035,0.026,-0.150,-7.258,84.583,-5.985
14:19:20:685,50.476,-0.069,0.010,0.072,-7.376,84.445,-4.424
14:19:20:686,50.477,-0.011,-0.011,-0.013,-7.411,83.985,-3.323
14:19:20:687,50.478,0.031,0.002,0.005,-7.414,83.537,-1.663
14:19:20:711,50.502,0.001,-0.013,-0.002,-7.429,83.399,-0.538
14:19:20:711,50.502,-0.022,0.000,0.040,-7.486,83.569,1.137
14:19:20:898,50.689,0.005,0.000,0.013,-7.515,83.708,2.762
14:19:20:899,50.690,0.000,0.008,0.013,-7.519,83.651,3.820
14:19:20:899,50.690,0.001,0.017,0.019,-7.527,83.680,5.421
14:19:20:9,50.691,-0.001,0.015,-0.029,-7.510,83.571,6.500
14:19:20:952,50.742,0.047,0.012,-0.072,-7.451,83.398,8.215
14:19:20:952,50.742,-0.018,0.045,-0.117,-7.399,83.342,9.525
14:19:20:952,50.742,0.040,0.060,-0.033,-7.235,83.625,11.760
14:19:20:953,50.743,0.037,0.179,-0.123,-6.922,83.876,14.295
14:19:20:977,50.768,0.034,0.222,-0.147,-6.646,84.302,16.175
14:19:20:977,50.768,-0.021,0.438,-0.391,-5.234,84.314,21.825
14:19:20:977,50.768,0.061,0.566,-0.698,-3.778,83.483,25.975
14:19:20:978,50.769,0.159,0.311,-0.931,0.463,80.769,33.906
14:19:21:003,50.794,-0.264,-0.478,-0.694,3.905,82.726,42.404
14:19:21:003,50.794,-0.258,-0.266,-0.191,2.100,87.629,46.536
14:19:21:004,50.795,-0.044,-0.075,-0.200,0.013,92.237,48.898
14:19:21:005,50.796,-0.211,-0.683,-0.409,-1.151,95.463,49.688
14:19:21:135,50.926,-0.425,-0.513,-0.070,-2.527,108.927,44.097
14:19:21:135,50.926,-0.520,-0.378,-0.036,-2.393,112.688,41.000
14:19:21:135,50.926,-0.510,-0.370,0.003,-1.013,117.163,35.159
14:19:21:136,50.927,-0.605,-0.127,0.077,0.911,119.973,27.902
14:19:21:233,51.023,-0.622,0.029,0.131,1.891,121.172,22.407
14:19:21:234,51.024,-0.576,0.190,0.158,2.462,122.459,13.506
14:19:21:423,51.214,0.331,0.442,1.250,-0.407,124.466,-10.449
14:19:21:424,51.215,0.943,-0.018,1.245,-1.516,124.996,-15.063
14:19:21:424,51.215,0.798,-0.688,1.720,-2.338,125.980,-19.741
14:19:21:425,51.216,0.533,-0.074,0.686,-2.968,126.301,-20.399
14:19:21:502,51.293,1.212,0.033,0.289,-2.960,128.025,-18.606
14:19:21:503,51.294,0.763,0.248,0.186,-2.159,129.592,-16.824
14:19:21:503,51.294,0.787,0.122,0.605,-1.774,132.361,-15.006
14:19:21:504,51.295,-0.325,-0.032,0.819,-2.269,133.783,-12.803
14:19:21:87,51.660,-0.213,0.134,0.364,-2.580,135.174,-11.301
14:19:21:871,51.661,0.441,-0.053,0.225,-2.863,136.379,-9.346
14:19:21:921,51.712,0.016,-0.004,0.256,-4.872,137.807,-5.913
14:19:21:921,51.712,-0.085,0.031,0.063,-5.244,137.547,-5.265
14:19:21:922,51.713,-0.139,0.042,-0.089,-5.634,136.876,-4.168
14:19:21:923,51.714,-0.076,-0.015,0.078,-5.777,136.858,-3.252
14:19:21:965,51.756,-0.036,-0.016,0.049,-5.889,136.470,-1.679
14:19:22:019,51.810,-0.012,-0.002,-0.014,-5.923,135.605,-0.060
14:19:22:052,51.843,-0.062,-0.025,-0.032,-5.956,135.111,1.039
14:19:22:053,51.844,-0.031,-0.003,0.017,-6.006,134.628,2.693
14:19:22:15,51.941,-0.027,0.021,0.037,-6.174,134.361,6.400
14:19:22:212,52.002,-0.037,0.024,0.035,-6.249,134.108,7.866
14:19:22:212,52.002,-0.112,-0.013,-0.059,-6.263,134.103,9.360
14:19:22:212,52.002,-0.200,-0.001,-0.119,-6.246,133.778,10.504
14:19:22:213,52.003,-0.151,0.066,-0.035,-6.156,134.176,12.623
14:19:22:29,52.080,-0.158,0.066,-0.065,-5.988,134.132,14.296
14:19:22:291,52.081,-0.180,0.261,-0.061,-5.544,134.473,17.088
14:19:22:291,52.081,-0.152,0.396,-0.212,-4.847,134.832,20.227
14:19:22:292,52.082,-0.462,-0.432,-0.125,4.942,134.197,48.814
14:19:22:342,52.133,-0.290,-0.652,-0.196,4.533,136.061,50.365
14:19:22:343,52.134,-0.409,-0.923,-0.213,4.181,137.976,50.239
14:19:22:343,52.134,-0.335,-0.794,-0.080,2.673,140.846,48.541
14:19:22:344,52.135,-0.278,-0.529,0.072,0.412,144.878,45.235
14:19:22:366,52.157,-0.369,-0.358,0.122,-0.677,147.641,42.146
14:19:22:366,52.157,-0.338,-0.441,0.113,-0.835,151.079,36.193
14:19:22:367,52.158,-0.400,-0.102,0.161,-0.507,152.834,31.460
14:19:22:464,52.254,-0.366,0.020,0.190,0.073,154.627,23.629
14:19:22:885,52.675,-0.344,0.278,0.177,0.080,156.142,15.110
14:19:23:068,52.859,-0.028,0.529,0.295,-0.196,157.281,9.143
14:19:23:778,53.568,0.304,0.746,0.564,-0.901,158.698,-0.023
14:19:23:97,53.761,0.707,0.458,0.707,-1.673,159.623,-5.887
14:19:23:971,53.762,1.513,0.029,0.380,-3.248,160.357,-13.262
14:19:23:971,53.762,1.550,-0.523,0.931,-4.167,159.998,-16.963
14:19:23:972,53.763,1.164,-0.308,0.518,-5.338,159.495,-19.229
14:19:23:996,53.787,1.100,-0.057,-0.337,-5.904,159.337,-17.574
14:19:23:997,53.788,-0.322,0.476,-1.057,-5.439,159.741,-15.843
14:19:23:998,53.789,0.787,0.063,0.006,-4.900,162.196,-14.432
14:19:23:998,53.789,0.148,0.329,0.253,-4.927,163.844,-13.245
14:19:24:171,53.961,-0.071,0.043,0.791,-5.365,165.023,-11.426
14:19:24:781,54.572,0.348,-0.162,-0.006,-5.772,166.000,-9.490
14:19:24:781,54.572,0.099,0.039,-0.020,-6.136,165.897,-8.436
14:19:24:782,54.573,-0.042,-0.007,0.100,-7.004,165.671,-7.007
14:19:24:941,54.732,0.136,0.008,0.221,-7.425,166.327,-6.204
14:19:24:941,54.732,-0.023,0.020,0.112,-8.074,165.938,-5.003
14:19:24:942,54.733,-0.087,0.042,0.027,-8.406,165.300,-4.290
14:19:24:943,54.734,-0.072,0.031,0.040,-8.764,164.574,-3.201
14:19:24:967,54.757,-0.092,-0.022,0.052,-8.944,163.540,-1.888
14:19:24:968,54.758,-0.087,-0.016,-0.004,-9.002,162.684,-0.933
14:19:24:969,54.759,-0.091,-0.020,-0.001,-9.080,161.676,0.546
14:19:24:97,54.760,-0.344,0.332,-0.067,-10.447,157.050,24.617
14:19:25:252,55.042,-0.381,-0.406,0.170,-5.678,152.721,51.918
14:19:25:253,55.043,-0.083,0.033,0.060,-5.172,-167.251,1.375
14:19:25:254,55.044,-0.074,0.001,0.048,-5.685,-167.562,4.878
14:19:25:3,55.090,-0.044,-0.010,0.085,-5.803,-167.559,5.790
14:19:25:562,55.353,-0.081,-0.006,0.043,-5.945,-167.640,7.161
14:19:25:731,55.521,-0.028,0.012,0.043,-6.031,-167.662,8.077
14:19:25:732,55.522,-0.040,-0.004,0.042,-6.141,-167.659,9.412
14:19:25:732,55.522,-0.060,-0.007,0.042,-6.217,-167.763,10.714
14:19:25:732,55.522,-0.071,0.002,0.047,-6.309,-167.794,11.456
14:19:26:096,55.886,-0.095,0.005,0.065,-6.553,-167.913,12.314
14:19:26:097,55.887,-0.201,0.155,0.137,-6.053,-167.687,20.261
14:19:26:098,55.888,0.661,0.724,-0.145,-1.267,-139.833,1.067
14:19:26:54,56.331,0.867,0.125,-0.809,-3.275,-137.211,-9.711
14:19:26:541,56.332,-0.116,0.207,-0.499,-4.041,-133.367,-12.172
14:19:26:542,56.333,0.168,0.182,-0.837,-3.429,-130.581,-10.112
14:19:26:908,56.699,0.211,0.300,-0.192,-3.518,-128.897,-8.640
14:19:26:908,56.699,0.357,0.299,0.000,-4.197,-126.701,-6.343
14:19:26:908,56.699,0.241,-0.086,-0.238,-4.495,-125.211,-4.747
14:19:27:431,57.222,-0.034,-0.010,0.071,-5.186,-125.410,-2.923
14:19:27:432,57.223,-0.131,-0.044,0.053,-5.997,-126.410,-1.474
14:19:27:485,57.276,-0.040,-0.019,0.068,-8.463,-127.545,4.253
14:19:27:486,57.277,-0.041,-0.012,0.076,-8.665,-127.951,5.459
14:19:27:487,57.278,-0.044,-0.005,0.103,-8.811,-128.184,6.297
14:19:28:041,57.832,-0.037,-0.005,0.073,-9.010,-128.211,7.628
14:19:28:042,57.833,-0.482,0.360,0.458,-8.111,-131.109,29.441
14:19:28:042,57.833,-0.818,0.193,0.877,-4.476,-135.062,38.449
14:19:28:042,57.833,-0.512,0.071,0.790,-2.915,-136.048,41.769
14:19:28:241,58.031,-0.468,-0.286,0.659,-2.091,-135.935,46.839
14:19:28:398,58.189,-0.194,-0.504,0.342,-2.515,-135.125,49.774
14:19:28:486,58.277,0.377,0.742,0.086,-0.866,-122.815,7.971
14:19:28:486,58.277,0.565,1.003,-0.381,-1.049,-122.337,1.581
14:19:28:487,58.278,1.075,0.505,-1.399,-1.956,-120.960,-6.999
14:19:28:488,58.279,1.195,-0.179,-1.187,-2.808,-120.893,-13.181
14:19:28:635,58.425,-0.001,-0.030,0.091,-8.408,-116.867,2.210
14:19:28:825,58.616,-0.041,-0.004,0.039,-8.529,-117.089,3.237
14:19:28:826,58.617,-0.028,-0.010,0.068,-9.102,-117.583,7.359
14:19:28:852,58.643,-0.551,0.047,0.880,-5.103,-126.702,40.663
14:19:28:853,58.644,1.027,-0.351,-1.450,-4.527,-116.425,-14.795
14:19:28:853,58.644,0.712,-0.243,-1.221,-5.190,-116.564,-16.589
14:19:28:854,58.645,-0.599,0.352,0.070,-5.462,-117.010,-15.481
14:19:28:952,58.742,-0.500,0.470,0.480,-4.887,-116.174,-13.347
14:19:28:953,58.743,0.259,0.224,-0.443,-4.943,-114.790,-11.438
14:19:29:188,58.979,0.689,0.197,-0.048,-5.143,-113.452,-10.082
14:19:29:189,58.980,-0.048,-0.003,0.178,-9.975,-118.634,12.253
14:19:29:291,59.081,-0.078,0.005,0.210,-10.027,-118.983,13.544
14:19:29:316,59.107,-0.044,0.075,0.134,-10.075,-119.381,15.864
14:19:29:421,59.212,-0.014,0.097,0.175,-9.974,-119.441,18.530
14:19:29:453,59.244,-0.106,-0.583,0.470,0.146,-127.642,51.070
14:19:29:455,59.246,-0.117,-0.573,0.244,-1.972,-122.852,45.876
14:19:29:455,59.246,-0.071,-0.436,0.284,-3.118,-120.651,42.243
14:19:29:507,59.298,-0.030,-0.314,0.311,-3.712,-117.619,35.578
14:19:29:508,59.299,0.045,-0.106,0.230,-3.580,-116.129,30.429
14:19:29:691,59.482,0.285,0.143,-0.783,-5.777,-111.746,-12.669
14:19:29:692,59.483,0.816,0.336,-0.027,-5.978,-109.446,-10.340
14:19:29:693,59.484,0.107,-0.301,-0.334,-6.423,-107.802,-8.083
14:19:29:693,59.484,0.091,0.007,-0.104,-6.906,-108.379,-6.882
14:19:30:001,59.791,-0.166,-0.063,0.136,-7.745,-109.814,-5.454
14:19:30:578,60.368,0.074,0.058,-0.039,-8.275,-109.505,-4.774
14:19:30:786,60.577,0.150,0.049,-0.069,-9.015,-109.140,-3.786
14:19:31:181,60.972,0.033,0.017,0.149,-9.596,-110.260,-2.704
14:19:31:315,61.105,-0.016,0.029,0.201,-9.857,-111.156,-1.875
14:19:31:316,61.106,0.052,0.010,0.090,-10.019,-111.960,-0.439
14:19:31:364,61.154,0.004,0.007,0.029,-10.141,-115.347,7.920
14:19:31:555,61.345,-0.009,0.009,0.044,-10.242,-116.668,9.497
14:19:31:556,61.346,-0.013,0.066,0.176,-10.545,-119.476,15.270
14:19:31:557,61.347,-0.097,0.111,0.121,-10.506,-119.690,17.749
14:19:31:557,61.347,-0.454,0.476,0.513,-8.935,-123.500,29.243
14:19:31:687,61.478,-0.934,0.362,0.937,-7.100,-126.079,34.162
14:19:31:687,61.478,-0.629,0.227,1.015,-5.747,-127.519,37.641
14:19:31:688,61.479,-0.463,0.072,0.906,-4.497,-128.388,42.888
14:19:31:689,61.480,-0.478,-0.167,0.458,-5.011,-127.459,46.363
14:19:31:739,61.530,-0.112,-0.582,0.519,-4.870,-125.789,50.541
14:19:31:739,61.530,0.014,-0.191,0.359,-5.115,-123.781,52.821
14:19:31:74,61.531,-0.130,-0.744,0.267,-5.294,-122.186,53.441
14:19:31:741,61.532,0.139,-0.762,0.315,-3.099,-117.619,50.821
14:19:31:922,61.713,0.244,-0.523,0.385,-2.743,-113.453,47.109
14:19:31:923,61.714,0.322,-0.391,0.365,-2.210,-108.824,42.029
14:19:31:924,61.715,0.368,-0.333,0.423,-1.276,-106.200,37.902
14:19:31:925,61.716,0.074,0.325,-0.200,-3.490,-83.198,-10.410
14:19:32:003,61.794,0.009,0.092,0.180,-9.359,-82.929,19.983
14:19:32:003,61.794,0.232,-0.325,0.737,-0.487,-88.188,48.794
14:19:32:004,61.795,-0.731,0.082,-1.064,-3.735,-56.003,-10.726
14:19:32:004,61.795,-0.523,-0.354,-1.457,-4.296,-54.998,-14.713
14:19:32:206,61.996,-0.528,-0.193,-0.997,-4.794,-54.695,-15.305
14:19:32:363,62.154,-0.038,0.021,-0.091,-5.723,-47.938,-7.232
14:19:32:363,62.154,-0.002,0.048,-0.126,-8.453,-46.390,-2.321
14:19:32:551,62.341,0.037,0.023,-0.038,-8.952,-46.342,-1.743
14:19:32:551,62.341,0.101,0.013,0.121,-9.560,-46.770,-0.877
14:19:32:552,62.342,0.106,0.031,0.067,-9.893,-45.890,-0.238
14:19:32:682,62.473,0.060,-0.017,0.111,-10.318,-45.663,1.893
14:19:32:683,62.474,0.060,-0.011,0.088,-10.439,-46.383,3.407
14:19:32:683,62.474,0.053,-0.012,0.055,-10.546,-45.917,4.977
14:19:32:71,62.500,0.043,-0.007,0.099,-10.609,-46.247,6.027
14:19:32:711,62.501,0.025,-0.016,0.105,-10.701,-45.900,7.584
14:19:32:738,62.528,0.052,0.006,0.096,-11.132,-46.366,11.524
14:19:32:739,62.529,0.114,0.001,0.116,-11.276,-46.584,13.835
14:19:32:74,62.530,0.114,0.023,0.109,-11.340,-46.433,14.846
14:19:32:74,62.530,0.104,0.060,0.139,-11.400,-46.676,17.108
14:19:32:781,62.571,0.134,0.141,0.183,-11.389,-46.086,19.641
14:19:33:019,62.810,0.077,0.203,0.166,-11.377,-46.145,21.483
14:19:33:306,63.097,0.223,0.293,0.227,-11.191,-46.310,24.644
14:19:33:341,63.132,0.270,0.355,0.285,-10.866,-46.823,27.044
14:19:33:341,63.132,0.400,0.444,0.700,-9.854,-48.210,31.150
14:19:33:342,63.133,0.294,-0.914,0.222,-5.613,-45.121,53.951
14:19:33:343,63.134,0.344,-0.537,0.045,-4.628,-40.127,48.920
14:19:33:498,63.288,0.355,-0.344,-0.032,-4.658,-37.464,45.665
14:19:33:498,63.288,-0.078,0.631,-0.401,-2.618,-26.235,4.220
14:19:33:499,63.289,-0.507,0.487,-0.691,-3.369,-25.464,-1.513
14:19:33:569,63.359,-1.209,-0.173,0.064,-6.607,-20.960,-15.647
14:19:33:868,63.658,0.458,0.450,0.807,-6.068,-19.298,-13.852
14:19:33:868,63.658,-1.079,0.129,0.093,-5.422,-16.476,-12.273
14:19:33:868,63.658,-0.205,0.207,-0.860,-5.840,-14.734,-10.185
14:19:33:868,63.658,-0.142,0.326,-0.243,-6.303,-13.165,-8.799
14:19:34:129,63.920,-0.368,-0.056,-0.117,-6.671,-11.440,-6.704
14:19:34:129,63.920,-0.078,0.003,0.062,-7.174,-12.040,-5.609
14:19:34:129,63.920,0.099,-0.015,0.139,-8.069,-13.069,-4.267
14:19:34:13,63.921,-0.064,0.037,-0.103,-8.614,-12.515,-3.558
14:19:34:33,64.120,-0.001,0.025,-0.086,-9.354,-12.366,-2.513
14:19:34:356,64.146,0.139,0.022,0.055,-9.886,-13.223,-1.399
14:19:34:467,64.258,0.126,0.038,0.016,-10.125,-13.661,-0.581
14:19:34:467,64.258,0.064,0.001,0.050,-10.740,-15.098,8.025
14:19:34:468,64.259,0.217,0.212,0.114,-10.874,-15.844,20.311
14:19:34:489,64.280,0.321,0.299,0.093,-10.633,-15.940,23.382
14:19:34:49,64.281,0.427,0.425,0.114,-10.101,-16.419,26.967
14:19:34:653,64.444,0.855,0.450,0.425,-9.434,-17.109,29.793
14:19:34:654,64.445,0.922,0.418,0.632,-7.497,-19.041,34.655
14:19:34:655,64.446,1.066,-0.129,0.078,-2.939,-21.907,42.998
14:19:34:856,64.646,0.497,-0.388,-0.060,-4.828,-17.940,50.739
14:19:34:959,64.750,0.164,-0.189,-0.158,-5.866,-15.437,53.213
14:19:35:099,64.890,0.330,-0.429,-0.260,-6.452,-4.246,48.350
14:19:35:1,64.891,-1.318,0.354,0.075,-3.239,13.270,-5.368
14:19:35:101,64.892,-1.358,0.024,0.350,-3.832,16.834,-11.721
14:19:35:101,64.892,-1.765,-0.341,0.057,-3.735,18.757,-14.557
14:19:35:204,64.995,-1.333,-0.142,0.285,-3.988,20.507,-15.992
14:19:35:205,64.996,0.188,-0.044,0.072,-6.433,28.496,-3.860
14:19:35:205,64.996,-0.109,0.035,-0.038,-7.047,29.136,-3.060
14:19:35:206,64.997,-0.090,0.036,-0.049,-7.881,30.206,-1.909
14:19:35:284,65.074,0.097,0.022,-0.064,-8.485,29.667,-0.660
14:19:35:284,65.074,0.034,0.000,-0.015,-9.504,28.239,7.513
14:19:35:285,65.075,0.081,0.013,0.027,-9.634,27.951,9.235
14:19:35:285,65.075,0.123,0.014,0.024,-9.941,28.328,13.245
14:19:35:353,65.144,0.187,0.001,0.000,-9.995,28.574,15.050
14:19:35:519,65.310,0.205,0.075,-0.029,-10.042,28.375,17.107
14:19:35:52,65.311,0.207,0.181,-0.009,-10.070,29.450,18.638
14:19:35:521,65.312,0.230,0.210,-0.183,-9.939,30.563,23.267
14:19:35:564,65.355,1.065,0.443,-0.379,-7.345,28.704,34.065
14:19:35:642,65.432,1.126,0.180,-0.545,-4.675,26.222,38.991
14:19:35:702,65.493,0.840,-0.067,-0.702,-2.732,25.260,42.412
14:19:35:703,65.494,0.063,-0.400,-0.361,-5.268,44.829,37.911
14:19:35:704,65.495,-0.246,0.751,-0.043,-3.455,47.113,8.244
14:19:35:705,65.496,-0.626,0.666,0.339,-4.320,47.720,1.799
14:19:35:984,65.775,-0.676,0.854,0.808,-5.873,49.617,-6.919
14:19:36:248,66.039,-1.252,0.022,1.177,-6.862,51.114,-13.734
14:19:36:248,66.039,-1.063,-0.335,0.931,-7.336,51.306,-16.205
14:19:36:351,66.142,-0.683,-0.121,0.820,-8.028,51.409,-15.537
14:19:36:387,66.178,1.343,0.530,-0.108,-7.763,52.209,-13.732
14:19:36:387,66.178,0.428,0.345,0.554,-7.116,54.247,-12.085
14:19:36:388,66.179,-0.093,0.399,0.212,-7.369,56.336,-10.151
14:19:36:412,66.202,-0.109,0.149,0.036,-8.355,59.017,-6.822
14:19:36:412,66.202,0.035,-0.128,0.358,-8.651,59.355,-5.658
14:19:36:413,66.203,0.241,-0.015,-0.118,-9.513,58.652,-4.161
14:19:36:414,66.204,0.090,0.023,-0.143,-11.407,58.975,-1.019
14:19:36:49,66.280,0.030,-0.002,-0.094,-11.926,57.895,1.353
14:19:36:491,66.281,0.097,-0.015,-0.062,-12.011,57.301,2.500
14:19:36:492,66.282,0.145,-0.022,-0.067,-12.085,56.379,4.272
14:19:36:493,66.283,0.099,-0.026,-0.082,-12.211,55.850,6.078
14:19:36:589,66.380,0.097,-0.014,-0.100,-12.520,55.328,9.129
14:19:36:59,66.381,0.086,0.025,-0.040,-12.667,54.792,10.348
14:19:36:612,66.403,0.067,0.002,-0.056,-12.867,54.458,12.147
14:19:36:675,66.466,0.117,0.008,-0.101,-13.052,53.668,13.967
14:19:36:675,66.466,0.118,0.023,-0.083,-13.088,53.380,14.989
14:19:36:675,66.466,0.108,0.034,-0.127,-12.991,52.602,16.208
14:19:36:676,66.467,-0.005,-0.391,-0.158,-8.069,46.414,54.956
14:19:36:91,66.701,0.052,0.015,-0.252,-4.174,56.057,25.009
14:19:36:91,66.701,0.048,0.420,-0.271,-3.731,56.397,18.783
14:19:36:911,66.702,-0.988,0.135,1.472,-5.799,58.008,-13.537
14:19:36:912,66.703,-1.220,-0.373,1.217,-6.234,57.854,-16.471
14:19:36:928,66.719,-0.884,-0.083,0.957,-6.776,57.658,-16.368
14:19:36:964,66.755,1.080,0.446,-0.422,-6.128,58.986,-13.656
14:19:36:964,66.755,-0.095,0.262,1.081,-5.819,60.635,-12.576
14:19:36:965,66.756,-0.155,0.350,0.142,-6.251,62.478,-10.044
14:19:36:968,66.759,-1.068,-0.020,-0.074,-6.637,64.241,-8.523
14:19:37:041,66.832,-0.113,-0.257,0.378,-7.284,66.254,-6.305
14:19:37:042,66.833,0.140,-0.008,-0.039,-7.792,65.918,-5.085
14:19:37:043,66.834,0.220,-0.035,-0.133,-8.686,64.578,-3.443
14:19:37:044,66.835,-0.095,0.056,0.040,-9.495,65.582,-2.185
14:19:37:095,66.886,-0.113,0.024,0.084,-9.973,65.732,-1.322
14:19:37:096,66.887,0.025,0.025,-0.070,-10.511,64.357,0.049
14:19:37:096,66.887,0.092,-0.002,-0.143,-10.749,63.508,0.990
14:19:37:097,66.888,0.029,0.002,-0.055,-11.001,63.065,2.507
14:19:37:147,66.938,0.072,-0.023,-0.074,-11.144,62.255,4.171
14:19:37:148,66.939,0.124,-0.006,-0.062,-11.238,61.789,5.303
14:19:37:148,66.939,0.055,-0.014,-0.069,-11.446,61.350,7.048
14:19:37:149,66.940,0.048,0.004,-0.064,-11.589,61.060,8.212
14:19:37:227,67.017,0.079,-0.007,-0.033,-11.783,60.597,9.963
14:19:37:227,67.017,0.073,0.008,-0.038,-11.992,60.223,11.704
14:19:37:228,67.018,0.060,0.020,-0.064,-12.129,59.959,12.871
14:19:37:228,67.019,0.093,0.015,-0.068,-12.313,59.895,14.657
14:19:37:329,67.119,0.120,0.020,-0.119,-12.411,59.433,15.920
14:19:37:329,67.119,0.115,0.039,-0.199,-12.521,59.116,18.047
14:19:37:329,67.119,0.273,0.191,-0.199,-12.562,58.857,19.668
14:19:37:583,67.374,0.283,0.161,-0.204,-12.552,58.921,22.436
14:19:37:64,67.431,0.216,0.299,-0.382,-12.431,58.730,25.885
14:19:37:641,67.432,0.253,0.351,-0.472,-12.218,58.796,28.687
14:19:37:927,67.718,0.622,0.518,-0.725,-11.298,57.249,33.634
14:19:38:137,67.927,0.987,0.450,-1.078,-10.157,55.484,37.282
14:19:38:172,67.963,0.878,0.210,-1.279,-7.622,52.592,42.996
14:19:38:173,67.964,0.395,-0.023,-0.988,-6.984,52.330,48.567
14:19:38:173,67.964,0.066,-0.194,-0.451,-7.772,53.206,51.902
14:19:38:174,67.965,0.159,-0.213,-0.310,-8.093,54.075,55.071
14:19:38:198,67.989,0.229,-0.613,-0.295,-8.026,54.361,56.140
14:19:38:198,67.989,0.460,-1.044,-0.292,-6.083,54.553,55.987
14:19:38:199,67.990,0.291,-0.799,-0.153,-5.509,55.337,54.746
14:19:38:199,67.990,0.130,-0.562,-0.097,-5.929,57.617,51.501
14:19:38:381,68.172,0.138,-0.468,-0.220,-6.038,60.295,46.612
14:19:38:381,68.172,0.065,-0.391,-0.192,-5.782,62.082,42.621
14:19:38:382,68.173,0.069,-0.175,-0.025,-4.770,64.170,35.869
14:19:38:383,68.174,0.135,-0.188,-0.111,-3.751,64.837,31.066
14:19:38:488,68.278,0.109,-0.129,-0.128,-2.613,65.678,23.455
14:19:38:488,68.278,-0.083,0.079,-0.015,-2.079,67.418,15.168
14:19:38:488,68.278,-0.481,0.236,0.509,-1.890,69.382,9.363
14:19:38:488,68.278,-0.642,0.337,0.997,-1.691,72.312,0.862
14:19:38:538,68.329,-0.661,0.245,1.060,-1.615,73.270,-4.264
14:19:38:538,68.329,-0.674,0.110,0.925,-2.053,72.982,-10.884
14:19:38:539,68.330,-0.563,-0.069,1.114,-3.200,72.127,-15.584
14:19:38:54,68.331,2.020,1.241,-2.106,-6.413,67.301,-16.074
14:19:38:564,68.355,-0.035,-0.005,-0.057,-11.324,70.491,-2.358
14:19:38:564,68.355,0.057,-0.011,-0.063,-12.358,65.667,5.572
14:19:38:565,68.356,0.045,0.002,-0.038,-12.646,65.055,7.024
14:19:38:566,68.357,0.045,-0.004,-0.041,-12.831,64.919,7.970
14:19:38:923,68.714,0.048,0.001,-0.035,-13.076,64.251,9.356
14:19:39:004,68.795,0.061,-0.014,-0.069,-13.310,63.886,10.768
14:19:39:035,68.826,0.078,-0.009,-0.104,-13.335,63.209,11.400
14:19:39:036,68.827,0.062,0.008,-0.162,-13.533,62.857,13.047
14:19:39:037,68.828,0.084,0.018,-0.117,-13.625,62.161,14.287
14:19:39:405,69.196,0.088,0.020,-0.118,-13.705,61.980,16.379
14:19:39:406,69.197,0.035,0.046,-0.102,-13.738,61.598,18.705
14:19:39:406,69.197,0.017,0.138,-0.120,-13.690,61.386,20.383
14:19:39:407,69.198,0.247,0.261,-0.191,-13.441,60.328,23.046
14:19:39:587,69.378,0.376,0.289,-0.192,-13.196,59.735,25.025
14:19:39:588,69.379,0.409,0.349,-0.372,-12.713,58.568,28.409
14:19:39:589,69.380,0.530,0.330,-0.632,-12.242,57.837,31.012
14:19:39:59,69.381,0.600,0.289,-0.664,-11.333,55.892,35.372
14:19:39:634,69.425,0.542,0.098,-0.780,-9.723,53.132,40.117
14:19:39:635,69.426,0.395,0.009,-0.726,-8.886,51.833,43.217
14:19:39:772,69.563,0.192,-0.147,-0.299,-8.811,51.194,47.456
14:19:39:772,69.563,0.017,-0.551,-0.354,-8.221,50.608,49.674
14:19:39:773,69.564,0.134,-0.528,-0.332,-6.624,49.655,51.494
14:19:39:774,69.565,0.375,-0.838,-0.151,-5.039,48.965,51.664
14:19:39:824,69.614,0.514,-0.914,-0.215,-3.629,48.727,50.600
14:19:39:825,69.615,0.269,-0.525,-0.142,-3.096,49.211,47.712
14:19:39:826,69.616,0.182,-0.505,-0.157,-3.192,50.337,45.015
14:19:39:826,69.616,-0.454,0.470,0.316,-2.846,65.052,-1.971
14:19:40:01,69.801,-0.601,0.162,0.617,-3.204,67.141,-8.179
14:19:40:01,69.801,-0.480,0.002,0.904,-3.628,67.980,-11.540
14:19:40:01,69.801,-0.681,-0.189,0.729,-4.366,67.454,-15.232
14:19:40:011,69.802,-0.313,-0.293,0.743,-5.831,66.811,-15.894
14:19:40:297,70.088,-0.023,0.020,0.070,-8.583,77.968,-3.771
14:19:40:298,70.089,0.003,0.042,-0.045,-9.075,77.927,-3.166
14:19:40:298,70.089,0.010,0.035,-0.026,-9.653,77.986,-2.362
14:19:40:299,70.090,-0.017,0.024,-0.035,-10.104,78.074,-1.568
14:19:40:322,70.113,0.037,-0.010,-0.050,-10.640,76.667,1.951
14:19:40:323,70.114,0.036,0.006,-0.036,-10.729,76.536,2.708
14:19:40:324,70.115,0.022,-0.004,-0.067,-10.852,76.379,3.815
14:19:40:325,70.116,0.036,0.011,-0.045,-10.917,76.511,4.817
14:19:40:48,70.270,0.012,0.011,-0.043,-10.946,76.569,5.457
14:19:40:481,70.271,0.046,-0.010,-0.059,-10.951,76.653,6.519
14:19:40:482,70.272,0.032,-0.004,-0.063,-10.874,76.521,8.280
14:19:40:483,70.273,0.064,-0.008,-0.063,-10.687,76.361,9.158
14:19:40:613,70.404,0.030,-0.008,-0.104,-10.536,76.284,9.714
14:19:40:614,70.405,0.042,-0.005,-0.129,-10.406,76.100,11.167
14:19:40:615,70.406,0.039,0.016,-0.150,-10.280,76.240,12.023
14:19:40:616,70.407,0.037,0.027,-0.071,-10.024,76.168,13.878
14:19:40:657,70.448,0.021,0.055,-0.077,-9.638,76.171,15.920
14:19:40:743,70.534,0.013,0.086,-0.051,-9.299,76.108,17.328
14:19:40:744,70.535,0.224,0.249,-0.243,-8.113,75.694,21.118
14:19:40:745,70.536,0.192,0.274,-0.377,-7.245,75.591,23.770
14:19:40:746,70.537,0.126,0.315,-0.516,-6.234,75.516,26.914
14:19:40:815,70.605,0.107,0.272,-0.661,-5.397,75.342,29.338
14:19:40:816,70.606,-0.032,-0.702,-0.398,0.494,80.237,45.429
14:19:40:877,70.667,-0.178,-0.385,-0.183,0.361,82.880,42.494
14:19:40:877,70.667,-0.221,-0.363,-0.394,0.639,84.478,39.745
14:19:40:877,70.667,-0.304,-0.192,-0.370,0.902,87.067,34.905
14:19:40:878,70.668,-0.351,0.083,-0.252,0.817,89.117,31.301
14:19:40:927,70.718,-0.389,0.158,-0.237,0.400,92.772,25.640
14:19:40:927,70.718,-0.426,0.234,-0.066,-0.293,97.331,19.886
14:19:40:927,70.718,-0.480,0.244,-0.035,-0.767,100.673,15.999
14:19:40:928,70.719,-0.555,0.324,0.194,-1.459,106.138,10.160
14:19:40:979,70.770,-0.476,0.332,0.381,-1.983,111.445,4.366
14:19:40:979,70.770,-0.364,0.305,0.491,-2.295,114.428,0.587
14:19:40:98,70.771,-0.168,0.182,0.586,-2.897,117.639,-4.874
14:19:40:981,70.772,-0.027,0.098,0.524,-3.537,118.821,-8.347
14:19:41:023,70.814,0.228,0.021,0.586,-4.983,119.784,-13.110
14:19:41:161,70.952,0.240,-0.117,0.570,-6.601,119.820,-17.025
14:19:41:161,70.952,0.308,-0.233,0.675,-7.590,119.847,-18.843
14:19:41:162,70.953,0.445,-0.250,0.445,-10.018,119.559,-20.057
14:19:41:182,70.973,0.451,-0.226,0.362,-10.669,120.420,-19.206
14:19:41:268,71.058,0.446,-0.096,0.312,-10.653,122.473,-17.823
14:19:41:268,71.058,0.107,0.186,-0.270,-10.338,124.453,-16.732
14:19:41:269,71.059,-0.038,0.526,-1.110,-9.458,127.903,-15.657
14:19:41:27,71.060,0.987,-0.060,0.534,-8.694,130.502,-15.440
14:19:41:347,71.137,0.272,0.229,0.223,-8.479,132.442,-13.966
14:19:41:348,71.138,-0.425,0.151,0.468,-8.730,133.659,-12.015
14:19:41:349,71.139,0.298,-0.238,0.316,-8.744,135.507,-10.647
14:19:41:35,71.140,0.141,0.048,-0.021,-8.814,136.447,-8.661
14:19:41:452,71.243,-0.008,-0.044,-0.172,-9.189,135.821,-7.413
14:19:41:452,71.243,0.063,0.000,0.067,-9.683,136.340,-5.939
14:19:41:453,71.244,0.037,0.001,0.109,-10.219,137.157,-4.811
14:19:41:454,71.245,0.059,0.021,0.008,-10.555,137.056,-4.139
14:19:41:525,71.316,0.005,0.010,-0.046,-11.024,136.621,-3.249
14:19:41:526,71.317,-0.027,0.034,0.013,-11.308,136.529,-2.719
14:19:42:082,71.873,-0.034,-0.009,-0.009,-11.600,136.053,-1.809
14:19:42:083,71.874,-0.064,-0.020,-0.082,-11.777,135.039,-0.650
14:19:42:084,71.875,-0.028,-0.003,-0.027,-11.867,134.550,0.197
14:19:42:24,72.030,-0.024,-0.001,-0.092,-11.996,134.102,2.407
14:19:42:241,72.031,-0.017,0.001,-0.061,-12.062,134.626,3.730
14:19:42:242,72.032,0.009,0.003,-0.015,-12.157,134.309,5.058
14:19:42:265,72.056,-0.008,0.006,-0.061,-12.194,134.337,7.171
14:19:42:266,72.057,-0.008,0.008,-0.051,-12.162,134.868,7.955
14:19:42:266,72.057,-0.032,0.009,-0.056,-12.202,134.391,9.403
14:19:42:318,72.109,-0.079,0.010,-0.084,-12.086,134.497,11.583
14:19:42:318,72.109,-0.051,0.044,-0.063,-11.984,134.939,13.467
14:19:42:319,72.110,-0.061,0.052,-0.068,-11.871,134.773,14.991
14:19:42:32,72.111,-0.078,0.265,-0.130,-11.603,135.082,17.478
14:19:42:389,72.179,-0.104,0.260,-0.258,-11.313,134.747,19.268
14:19:42:499,72.290,-0.183,0.341,-0.333,-10.750,134.724,22.324
14:19:42:5,72.291,-0.253,0.407,-0.416,-10.022,134.770,25.883
14:19:42:5,72.291,-0.482,0.386,-0.556,-9.360,134.107,28.535
14:19:42:523,72.314,-0.502,0.212,-0.585,-8.137,132.672,32.867
14:19:42:524,72.315,-0.538,0.083,-0.555,-7.045,131.228,35.929
14:19:42:573,72.363,0.197,0.479,0.467,-2.491,145.657,0.873
14:19:42:603,72.393,0.558,0.337,0.736,-3.082,147.474,-6.522
14:19:42:603,72.393,0.751,0.135,0.598,-3.769,148.324,-10.958
14:19:42:703,72.494,0.788,-0.108,0.715,-4.934,148.391,-16.395
14:19:42:871,72.662,0.774,0.056,-0.143,-7.242,147.452,-18.513
14:19:42:871,72.662,-0.022,0.469,-1.157,-7.060,147.801,-16.987
14:19:42:871,72.662,0.409,0.014,0.170,-5.887,151.015,-15.558
14:19:42:872,72.663,0.479,0.219,-0.001,-5.820,153.276,-14.623
14:19:43:045,72.836,0.106,0.072,0.528,-6.324,154.956,-13.068
14:19:43:202,72.993,0.226,0.125,-0.014,-6.895,155.479,-11.974
14:19:43:29,73.080,0.457,-0.019,0.133,-7.415,156.884,-10.276
14:19:43:291,73.081,-0.113,0.021,-0.112,-8.382,156.092,-8.828
14:19:43:571,73.362,-0.002,0.023,0.021,-10.123,156.452,-6.156
14:19:43:886,73.676,-0.036,0.024,-0.015,-10.707,155.823,-5.165
14:19:44:203,73.993,-0.009,-0.006,0.041,-11.159,155.197,-4.103
14:19:44:204,73.994,-0.010,-0.011,-0.002,-11.391,154.641,-3.323
14:19:44:549,74.340,0.019,0.005,-0.035,-11.662,153.649,-2.143
14:19:44:55,74.341,-0.014,-0.009,-0.046,-11.819,152.954,-1.356
14:19:44:551,74.342,-0.024,0.001,-0.013,-12.040,152.261,-0.167
14:19:44:552,74.343,-0.023,0.004,-0.009,-12.215,151.656,1.029
14:19:45:041,74.831,-0.027,0.002,-0.014,-12.302,151.375,1.835
14:19:45:228,75.019,-0.014,-0.004,-0.023,-12.423,151.075,3.037
14:19:45:229,75.020,0.003,-0.001,-0.022,-12.503,150.896,3.845
14:19:45:302,75.092,-0.048,-0.004,-0.036,-12.757,150.334,6.361
14:19:45:363,75.153,-0.057,0.009,-0.028,-12.939,149.897,8.561
14:19:45:364,75.154,-0.046,0.014,-0.032,-12.993,149.750,9.684
14:19:45:365,75.155,-0.026,0.019,-0.042,-13.066,149.520,11.656
14:19:45:366,75.156,0.028,0.027,-0.030,-13.116,149.405,13.056
14:19:45:521,75.312,-0.715,0.271,-0.495,-9.830,141.959,36.016
14:19:45:521,75.312,-0.236,-0.832,-0.302,-9.775,146.333,49.898
14:19:45:643,75.434,-0.427,-0.429,0.053,-4.019,153.426,43.346
14:19:45:671,75.462,-0.498,-0.202,0.208,-2.336,157.434,38.466
14:19:45:963,75.754,0.978,-0.201,0.103,-3.490,-176.100,-16.166
14:19:45:964,75.755,0.105,0.053,0.025,-7.640,-162.239,-4.706
14:19:45:965,75.756,-0.039,0.008,-0.001,-9.931,-162.826,2.921
14:19:46:093,75.884,-0.038,0.013,0.028,-10.049,-162.680,4.013
14:19:46:093,75.884,-0.172,0.202,0.041,-8.431,-164.883,19.315
14:19:46:15,75.940,-0.295,0.197,-0.016,-7.788,-165.233,21.624
14:19:46:151,75.941,-0.333,0.231,0.032,-7.281,-165.353,23.382
14:19:46:152,75.942,-0.423,0.306,0.103,-6.319,-165.437,26.458
14:19:46:153,75.943,0.594,0.225,-0.080,-3.548,-134.249,-0.489
14:19:46:195,75.985,0.382,-0.007,-0.493,-6.994,-133.517,-11.766
14:19:46:615,76.406,0.580,-0.201,-0.574,-8.371,-133.855,-14.745
14:19:46:669,76.460,-1.039,0.315,0.228,-9.419,-130.476,-13.046
14:19:46:67,76.461,0.163,0.074,-0.765,-8.864,-127.176,-12.238
14:19:46:939,76.729,0.332,0.125,-0.127,-8.881,-125.976,-11.249
14:19:46:939,76.729,0.449,0.140,0.221,-9.330,-125.489,-9.596
14:19:46:939,76.729,0.092,0.066,-0.415,-9.629,-123.926,-7.886
14:19:46:94,76.730,-0.121,-0.028,0.143,-10.630,-124.961,-5.130
14:19:46:991,76.781,0.177,0.025,-0.079,-10.979,-124.365,-4.389
14:19:46:991,76.781,0.054,0.003,0.007,-11.447,-124.169,-3.378
14:19:46:992,76.782,-0.074,0.017,0.030,-11.826,-124.830,-2.460
14:19:46:993,76.783,-0.095,-0.012,0.052,-12.344,-126.233,-0.141
14:19:47:304,77.094,-0.046,0.009,0.027,-12.480,-126.713,0.980
14:19:47:304,77.094,-0.035,0.008,0.072,-13.664,-129.372,11.165
14:19:47:305,77.095,-0.061,0.003,0.048,-13.713,-129.852,12.754
14:19:47:83,77.621,-0.034,0.048,0.053,-13.800,-130.600,15.646
14:19:47:83,77.621,-0.169,0.107,0.050,-13.815,-131.633,18.815
14:19:47:831,77.622,-0.156,0.122,0.095,-13.788,-132.293,20.951
14:19:48:091,77.881,-0.232,0.205,0.194,-13.553,-133.507,25.311
14:19:48:091,77.881,-0.464,0.304,0.240,-13.138,-134.715,28.606
14:19:48:092,77.882,-0.684,0.341,0.360,-12.616,-135.931,31.195
14:19:48:332,78.122,-0.761,0.231,0.733,-10.163,-139.788,39.175
14:19:48:332,78.122,0.503,0.531,-0.110,-1.359,-130.716,0.803
14:19:48:332,78.122,0.857,0.360,-0.433,-1.657,-128.470,-6.491
14:19:48:333,78.123,0.793,-0.237,-0.527,-3.733,-127.765,-18.479
14:19:48:434,78.225,0.356,0.114,-0.237,-4.249,-122.339,-12.001
14:19:48:434,78.225,0.461,0.127,0.172,-4.912,-121.273,-10.456
14:19:48:435,78.226,0.059,-0.120,-0.269,-5.223,-120.302,-9.383
14:19:48:436,78.227,-0.005,0.034,-0.012,-5.914,-120.120,-8.010
14:19:48:821,78.612,-0.081,-0.053,0.088,-6.508,-120.309,-7.147
14:19:48:873,78.664,0.095,-0.001,-0.041,-7.256,-119.537,-6.058
14:19:49:064,78.855,0.007,0.026,0.009,-8.004,-119.382,-5.037
14:19:49:065,78.856,-0.004,0.045,0.012,-8.417,-119.214,-4.432
14:19:49:065,78.856,-0.021,0.010,0.033,-9.903,-121.673,2.226
14:19:49:066,78.857,-0.009,0.011,0.043,-10.052,-121.893,3.206
14:19:49:245,79.036,-0.032,0.007,0.055,-10.249,-122.734,5.897
14:19:49:246,79.037,-0.325,0.103,0.639,-3.559,-129.915,37.783
14:19:49:247,79.038,-0.213,-0.019,0.468,-2.095,-131.241,41.951
14:19:49:477,79.267,0.018,-0.303,0.300,-1.424,-131.463,44.546
14:19:49:534,79.324,-0.167,-0.466,0.217,-0.490,-131.788,47.268
14:19:49:534,79.324,-0.139,0.039,0.084,-0.721,-130.037,29.737
14:19:49:591,79.382,-0.165,0.153,0.099,-1.007,-129.918,23.629
14:19:49:591,79.382,0.050,0.331,-0.126,-2.595,-126.528,9.007
14:19:49:591,79.382,0.434,-0.207,-0.631,-4.030,-117.555,-17.006
14:19:49:592,79.383,0.363,-0.243,-0.579,-4.650,-118.402,-17.856
14:19:50:088,79.879,0.361,-0.263,-0.531,-5.406,-119.505,-17.619
14:19:50:088,79.879,0.179,-0.156,-0.413,-5.840,-119.814,-16.359
14:19:50:089,79.880,-0.409,0.139,0.014,-5.836,-119.406,-15.243
14:19:50:09,79.881,-0.154,0.156,0.156,-5.476,-118.077,-14.337
14:19:50:192,79.983,-0.107,0.189,-0.235,-5.448,-116.972,-13.938
14:19:50:192,79.983,0.105,0.125,-0.270,-5.643,-116.227,-12.905
14:19:50:192,79.983,0.003,-0.005,0.010,-11.496,-116.047,-1.042
14:19:50:219,80.010,-0.014,0.000,0.021,-11.664,-116.713,-0.143
14:19:50:22,80.011,0.003,0.010,0.014,-12.243,-118.164,3.719
14:19:50:221,80.012,-0.014,-0.003,0.059,-12.315,-118.544,4.625
14:19:50:221,80.012,-0.017,0.001,0.060,-12.349,-118.836,5.208
14:19:50:324,80.114,-0.018,-0.004,0.040,-12.401,-119.328,6.035
14:19:50:325,80.115,-0.038,0.015,0.062,-12.457,-120.691,9.870
14:19:50:376,80.167,-0.323,0.222,0.344,-9.501,-127.195,29.450
14:19:50:378,80.168,-0.423,0.151,0.566,-8.659,-128.379,31.766
14:19:50:378,80.169,-0.467,0.124,0.593,-7.134,-130.355,35.690
14:19:50:378,80.169,-0.272,0.087,0.535,-6.173,-131.399,39.946
14:19:50:507,80.298,-0.284,0.007,0.476,-6.012,-131.605,42.802
14:19:50:508,80.299,-0.084,-0.200,0.361,-5.148,-132.167,46.364
14:19:50:509,80.300,-0.002,-0.500,0.364,-3.923,-132.834,47.954
14:19:50:51,80.301,0.443,-0.150,-0.743,-9.115,-119.886,-16.081
14:19:50:561,80.352,0.624,-0.351,-0.982,-10.695,-120.853,-18.786
14:19:50:562,80.353,0.175,-0.248,-0.740,-11.556,-121.340,-18.791
14:19:50:562,80.353,-0.313,-0.046,-0.715,-11.734,-120.612,-17.255
14:19:50:563,80.354,-1.073,0.378,0.310,-10.723,-118.419,-15.495
14:19:50:639,80.429,0.039,0.002,-0.698,-9.854,-115.940,-15.057
14:19:50:64,80.431,0.160,0.265,-0.319,-9.284,-113.025,-13.792
14:19:50:641,80.431,1.040,0.264,-0.065,-9.225,-111.881,-12.723
14:19:50:641,80.431,0.056,-0.306,-0.211,-9.288,-109.741,-10.838
14:19:50:745,80.535,-0.052,0.032,0.017,-9.437,-109.171,-9.155
14:19:50:745,80.535,-0.144,-0.032,0.164,-9.942,-109.832,-8.093
14:19:50:746,80.536,0.133,0.016,-0.114,-10.404,-109.025,-6.930
14:19:50:875,80.666,-0.008,0.032,0.005,-11.293,-109.627,-5.101
14:19:50:876,80.667,0.051,0.017,0.048,-11.744,-110.426,-4.097
14:19:50:877,80.668,0.087,0.023,0.033,-11.938,-111.028,-3.374
14:19:50:877,80.668,-0.010,-0.009,0.048,-12.103,-112.221,-2.168
14:19:50:929,80.720,-0.032,-0.007,0.015,-12.216,-113.311,-0.909
14:19:50:929,80.720,0.000,-0.011,-0.007,-12.307,-113.845,-0.071
14:19:50:93,80.721,-0.006,0.007,0.010,-12.442,-114.519,1.161
14:19:50:931,80.722,-0.025,-0.004,0.035,-12.531,-115.853,1.960
14:19:51:025,80.815,0.019,0.005,0.009,-12.650,-116.145,3.059
14:19:51:105,80.895,-0.002,-0.004,0.019,-12.738,-117.423,4.178
14:19:51:61,81.401,-0.003,0.005,0.010,-12.786,-117.684,4.908
14:19:51:611,81.402,-0.003,-0.001,0.011,-12.875,-118.903,5.952
14:19:51:612,81.403,-0.025,-0.004,0.050,-12.932,-119.110,6.654
14:19:51:613,81.404,-0.017,0.000,0.032,-13.028,-120.243,7.719
14:19:51:787,81.577,-0.016,0.005,0.041,-13.149,-120.544,8.875
14:19:51:838,81.628,-0.017,0.002,0.062,-13.231,-121.569,9.697
14:19:51:898,81.689,-0.017,0.012,0.042,-13.332,-121.836,11.075
14:19:51:898,81.689,-0.038,0.009,0.049,-13.369,-122.843,12.144
14:19:51:898,81.689,-0.027,0.031,0.033,-13.439,-123.179,13.856
14:19:51:953,81.744,-0.036,0.042,0.053,-13.494,-123.907,15.067
14:19:51:953,81.744,-0.099,0.091,0.112,-13.549,-124.320,16.972
14:19:52:023,81.814,-0.214,0.253,0.193,-13.455,-126.909,23.383
14:19:52:136,81.926,-0.381,0.337,0.232,-13.290,-127.480,25.487
14:19:52:137,81.927,-0.529,0.372,0.401,-12.791,-129.081,29.097
14:19:52:138,81.928,-0.605,0.228,0.520,-11.789,-131.283,33.352
14:19:52:139,81.929,-0.619,0.204,0.718,-10.659,-133.041,36.564
14:19:52:18,81.970,-0.284,0.125,0.437,-9.753,-134.650,41.093
14:19:53:002,82.793,-0.503,-0.069,0.187,-9.904,-134.791,44.052
14:19:53:003,82.794,-0.362,-0.606,0.412,-8.334,-135.352,47.602
14:19:53:003,82.794,0.089,-0.384,0.309,-5.438,-136.150,49.572
14:19:53:004,82.795,0.341,-0.125,-0.713,-0.177,-102.339,-14.767
14:19:53:103,82.893,0.540,-0.305,-1.038,-0.747,-102.058,-17.971
14:19:53:103,82.893,0.412,-0.311,-0.714,-1.056,-101.630,-18.390
14:19:53:314,83.105,0.228,-0.264,-0.813,-1.068,-99.848,-17.099
14:19:53:315,83.106,0.019,-0.020,-0.302,-2.618,-90.507,-7.419
14:19:53:316,83.107,-0.048,-0.028,0.147,-3.304,-91.194,-6.588
14:19:53:334,83.125,0.045,0.035,-0.029,-4.233,-90.986,-5.568
14:19:53:922,83.712,0.081,0.020,-0.129,-4.792,-90.115,-4.990
14:19:53:923,83.713,0.090,0.058,-0.011,-5.591,-89.853,-4.206
14:19:53:924,83.714,0.044,0.015,0.100,-6.194,-90.349,-3.394
14:19:53:924,83.714,0.059,0.019,0.057,-6.480,-90.477,-2.745
14:19:54:335,84.126,0.040,-0.011,0.034,-6.783,-90.736,-1.620
14:19:54:628,84.419,0.003,-0.015,0.044,-6.931,-91.037,-0.816
14:19:54:629,84.420,0.010,-0.005,0.043,-7.147,-91.351,0.415
14:19:54:63,84.421,0.002,0.004,0.030,-7.464,-91.581,2.479
14:19:54:631,84.422,0.008,-0.002,0.053,-7.624,-91.278,3.651
14:19:54:699,84.490,0.042,0.004,0.009,-7.716,-91.236,4.452
14:19:54:867,84.657,0.018,0.002,0.025,-7.812,-90.852,5.629
14:19:54:867,84.657,0.019,0.021,0.072,-7.946,-91.108,8.800
14:19:54:868,84.658,0.311,0.352,-0.409,0.862,-59.790,7.071
14:19:54:869,84.659,0.200,0.383,-0.583,0.644,-58.015,2.592
14:19:54:91,84.700,0.053,0.273,-0.747,0.082,-56.264,-3.866
14:19:55:541,85.332,-0.149,0.102,-0.894,-0.969,-55.144,-9.542
14:19:55:682,85.473,-0.433,0.086,-0.682,-2.002,-54.876,-12.823
14:19:55:682,85.473,-0.360,-0.166,-0.793,-3.156,-54.846,-16.786
14:19:55:682,85.473,-0.166,0.190,-0.141,-4.528,-47.496,-12.851
14:19:55:683,85.474,0.388,0.158,-0.258,-4.937,-47.300,-11.826
14:19:55:864,85.654,0.278,-0.025,-0.359,-5.448,-46.190,-10.147
14:19:55:864,85.654,-0.329,-0.022,-0.109,-5.813,-45.046,-8.662
14:19:55:865,85.655,0.098,0.011,0.035,-10.991,-45.204,11.463
14:19:55:915,85.706,0.038,0.006,0.051,-10.930,-45.872,14.685
14:19:55:916,85.707,0.052,0.061,0.009,-10.893,-46.269,16.729
14:19:55:917,85.708,0.358,-0.210,0.015,-0.137,-45.617,37.342
14:19:55:917,85.708,-0.291,0.275,-0.582,-0.746,-32.004,-1.837
14:19:55:959,85.750,-0.392,0.190,-0.564,-1.143,-30.953,-5.744
14:19:56:065,85.856,-0.485,0.099,-0.408,-1.930,-29.901,-10.951
14:19:56:197,85.987,-0.547,-0.047,-0.405,-2.367,-29.257,-13.827
14:19:56:41,86.201,-0.556,-0.029,-0.105,-3.740,-27.089,-16.719
14:19:56:485,86.276,-0.196,0.139,0.005,-3.216,-22.899,-13.078
14:19:56:646,86.437,-0.176,0.085,-0.219,-3.598,-22.904,-12.234
14:19:56:646,86.437,0.138,0.098,-0.283,-4.348,-23.054,-10.829
14:19:56:669,86.460,-0.164,0.004,-0.056,-5.699,-20.937,-7.532
14:19:56:837,86.628,0.063,0.048,-0.030,-9.905,-23.239,15.788
14:19:56:838,86.629,0.181,0.216,0.184,-9.441,-24.132,19.209
14:19:56:839,86.630,0.232,0.206,0.237,-9.165,-24.539,20.802
14:19:57:176,86.966,0.436,0.329,0.243,-8.220,-25.361,27.121
14:19:57:176,86.966,0.570,-0.058,0.198,-3.642,-30.054,42.046
14:19:57:177,86.967,0.179,-0.265,-0.001,-3.373,-29.902,44.772
14:19:57:178,86.968,0.240,-0.458,-0.067,-2.740,-29.477,47.824
14:19:57:359,87.150,0.224,-0.539,0.016,-1.411,-29.554,49.083
14:19:57:359,87.150,0.378,-0.880,0.296,-0.090,-29.692,48.934
14:19:57:36,87.151,0.388,-0.739,0.274,1.650,-29.440,47.161
14:19:57:404,87.195,0.428,-0.361,0.106,1.567,-25.999,41.444
14:19:57:438,87.229,0.411,-0.218,-0.038,1.146,-22.877,36.662
14:19:57:438,87.229,0.240,0.161,-0.194,0.826,-14.979,22.986
14:19:57:439,87.230,-0.661,0.046,-0.189,2.635,5.375,-9.451
14:19:57:44,87.231,-0.929,-0.354,-0.268,2.968,10.372,-15.077
14:19:57:536,87.326,-0.604,0.004,0.198,2.252,10.184,-13.721
14:19:57:639,87.430,0.073,-0.043,-0.020,-1.097,15.397,-6.020
14:19:57:674,87.465,-0.069,0.062,-0.017,-2.734,15.852,-4.496
14:19:57:674,87.465,-0.057,0.039,-0.064,-3.727,16.641,-3.692
14:19:57:675,87.466,0.070,-0.014,-0.040,-5.868,17.341,-0.807
14:19:57:676,87.467,0.014,0.005,-0.019,-6.554,16.906,1.436
14:19:57:727,87.518,0.033,-0.003,-0.029,-6.753,16.824,2.197
14:19:57:728,87.519,0.030,0.001,-0.042,-7.035,17.587,3.278
14:19:57:729,87.520,0.042,-0.004,-0.051,-7.230,17.590,3.936
14:19:57:729,87.520,0.071,0.066,-0.068,-6.818,19.542,16.930
14:19:57:773,87.564,0.102,0.180,-0.093,-6.441,19.441,19.004
14:19:57:774,87.565,0.250,0.246,-0.097,-6.054,19.747,20.456
14:19:57:824,87.615,0.353,0.265,-0.062,-5.314,19.465,22.946
14:19:57:936,87.726,0.859,0.272,-0.375,-0.761,18.887,35.055
14:19:57:936,87.726,0.763,0.055,-0.486,1.730,18.488,39.713
14:19:58:039,87.830,0.305,-0.371,-0.437,3.294,21.095,47.429
14:19:58:04,87.831,0.370,-0.270,-0.207,2.091,23.815,50.570
14:19:58:04,87.831,0.383,-0.578,-0.212,0.972,25.977,51.764
14:19:58:139,87.930,0.410,-0.935,-0.269,-0.135,28.334,51.923
14:19:58:594,88.384,0.175,-0.626,-0.218,-0.991,30.288,50.988
14:19:58:596,88.386,0.065,-0.490,-0.174,-2.640,33.445,48.269
14:19:58:597,88.387,0.098,-0.087,-0.242,-2.173,40.486,33.956
14:19:58:597,88.387,0.082,-0.015,-0.241,-1.725,41.722,29.310
14:19:58:645,88.436,0.025,0.224,-0.188,-1.371,43.557,21.909
14:19:58:645,88.436,-0.235,0.416,-0.065,-1.301,45.474,14.086
14:19:58:646,88.437,-0.487,0.485,0.031,-1.241,46.579,8.886
14:19:58:647,88.438,-0.666,0.390,0.211,-1.333,48.330,1.410
14:19:58:697,88.488,-0.754,0.404,0.491,-1.623,49.521,-3.188
14:19:58:698,88.489,-0.742,0.125,0.805,-2.338,50.723,-9.225
14:19:58:699,88.490,-0.856,-0.153,0.686,-2.939,50.918,-13.651
14:19:58:751,88.542,-0.736,-0.152,0.687,-3.742,51.256,-14.993
14:19:58:752,88.543,0.523,0.304,-0.085,-3.805,51.467,-13.605
14:19:58:752,88.543,0.086,0.248,0.351,-3.661,52.216,-12.242
14:19:58:753,88.544,-0.050,0.291,0.219,-4.037,53.444,-10.687
14:19:58:772,88.563,-0.544,0.023,-0.056,-4.512,54.239,-9.562
14:19:58:773,88.564,-0.148,0.133,0.164,-5.230,56.146,-7.807
14:19:59:136,88.927,-0.118,0.030,0.175,-5.564,56.987,-6.782
14:19:59:376,89.166,0.190,-0.047,-0.196,-6.518,56.047,-5.566
14:19:59:377,89.167,-0.113,0.022,0.019,-7.941,57.179,-3.963
14:19:59:434,89.225,0.036,-0.019,-0.067,-9.555,55.370,-0.358
14:19:59:434,89.225,0.034,0.027,-0.070,-11.247,49.569,15.220
14:19:59:434,89.225,0.045,0.031,-0.058,-11.217,49.223,16.579
14:19:59:435,89.226,0.056,0.081,-0.064,-11.125,48.561,18.695
14:19:59:485,89.276,0.198,0.135,-0.105,-11.004,48.004,20.181
14:19:59:486,89.277,0.232,0.148,-0.126,-10.788,47.220,22.574
14:19:59:487,89.278,0.267,0.240,-0.243,-10.411,46.472,25.383
14:19:59:487,89.278,0.388,0.294,-0.240,-10.003,45.907,27.556
14:19:59:564,89.355,0.624,0.351,-0.526,-9.013,44.688,31.408
14:19:59:565,89.356,0.818,0.229,-0.801,-8.090,43.585,34.345
14:19:59:566,89.357,0.645,0.270,-0.869,-6.566,42.081,39.215
14:19:59:608,89.399,0.391,-0.023,-0.310,-7.174,42.547,47.500
14:19:59:721,89.512,0.012,-0.509,-0.320,-6.797,43.100,51.345
14:19:59:722,89.513,-0.004,-0.213,-0.174,-6.425,43.444,52.829
14:19:59:723,89.514,0.306,-0.947,-0.209,-5.384,43.891,53.702
14:19:59:723,89.514,0.189,-0.775,-0.183,-3.766,44.132,53.043
14:19:59:747,89.538,0.100,-0.670,-0.159,-2.730,45.439,50.727
14:19:59:748,89.539,0.123,-0.456,-0.274,-2.705,47.665,46.926
14:19:59:749,89.540,-0.427,0.375,0.331,-3.630,60.474,1.692
14:19:59:801,89.591,-0.160,-0.148,0.718,-8.543,58.243,-16.407
14:19:59:801,89.591,0.844,0.348,-0.117,-8.351,58.697,-14.918
14:19:59:906,89.696,-0.682,0.045,0.295,-7.099,65.456,-11.109
14:19:59:906,89.696,0.079,0.234,0.246,-7.569,66.844,-9.124
14:19:59:907,89.697,-0.162,-0.120,0.292,-7.776,67.239,-7.817
14:19:59:908,89.698,0.106,-0.021,-0.112,-8.510,66.316,-6.330
14:19:59:933,89.723,-0.089,0.015,0.040,-9.156,66.193,-5.131
14:19:59:933,89.723,-0.074,0.017,0.039,-9.602,65.998,-4.409
14:19:59:933,89.723,-0.010,0.031,-0.063,-10.148,65.069,-3.424
14:19:59:934,89.724,-0.025,0.028,-0.121,-10.429,64.398,-2.772
14:19:59:984,89.774,-0.023,0.000,-0.084,-10.640,63.546,-1.651
14:19:59:985,89.775,0.043,-0.017,-0.066,-10.698,62.865,-0.773
14:19:59:986,89.776,0.053,-0.015,-0.042,-10.728,62.020,0.569
14:19:59:987,89.777,0.011,0.000,-0.041,-10.815,61.460,1.903
14:20:00:031,89.822,0.020,0.010,-0.031,-10.889,61.117,2.780
14:20:00:032,89.823,0.022,-0.008,-0.050,-11.004,60.609,4.070
14:20:00:06,89.851,0.007,-0.002,-0.032,-11.071,60.358,4.899
14:20:00:06,89.851,0.008,0.005,-0.035,-11.152,60.107,6.126
14:20:00:081,89.872,0.019,0.002,-0.055,-11.225,59.259,7.296
14:20:00:117,89.908,0.012,0.011,-0.046,-11.282,59.114,8.005
14:20:00:117,89.908,0.042,-0.006,-0.072,-11.325,58.318,9.264
14:20:00:117,89.908,0.016,0.020,-0.092,-11.395,58.193,9.900
14:20:00:118,89.909,0.014,-0.004,-0.082,-11.433,57.446,11.227
14:20:00:169,89.960,0.036,0.002,-0.067,-11.396,57.216,12.295
14:20:00:169,89.960,0.054,0.010,-0.075,-11.324,56.507,14.016
14:20:00:169,89.960,0.010,0.033,-0.059,-11.239,56.282,15.861
14:20:00:169,89.960,0.003,0.041,-0.054,-11.155,55.738,17.137
14:20:00:243,90.034,0.097,0.135,-0.118,-10.944,55.256,19.125
14:20:00:244,90.035,0.152,0.183,-0.161,-10.744,54.586,20.571
14:20:00:245,90.036,0.191,0.226,-0.249,-10.330,54.059,23.040
14:20:00:265,90.056,0.373,0.274,-0.332,-9.777,53.239,26.101
14:20:00:291,90.081,0.417,0.315,-0.375,-9.328,52.818,28.542
14:20:00:345,90.135,0.481,0.384,-0.597,-8.488,51.731,32.690
14:20:00:346,90.136,0.455,0.198,-0.664,-7.684,50.423,35.705
14:20:00:591,90.382,0.319,0.038,-0.597,-6.273,48.366,40.175
14:20:00:591,90.382,0.080,-0.094,-0.329,-5.817,47.819,43.032
14:20:00:591,90.382,-0.067,-0.332,-0.234,-5.291,47.525,46.826
14:20:00:591,90.382,0.020,-0.413,-0.226,-3.712,46.608,48.968
14:20:00:643,90.434,0.275,-0.799,-0.128,-2.129,45.654,49.372
14:20:00:643,90.434,0.370,-0.851,-0.166,0.930,43.940,48.386
14:20:00:643,90.434,0.097,-0.533,-0.068,2.298,43.103,46.698
14:20:00:644,90.434,0.165,-0.508,-0.131,3.460,42.225,42.931
14:20:00:771,90.562,0.232,-0.296,-0.261,3.632,41.708,37.915
14:20:00:772,90.563,0.176,0.071,-0.220,3.042,41.872,34.266
14:20:00:773,90.564,0.130,0.148,-0.182,1.888,42.593,28.658
14:20:00:773,90.564,0.104,0.174,-0.164,1.140,43.255,24.969
14:20:00:815,90.606,-0.022,0.238,-0.098,-0.297,45.119,19.473
14:20:01:061,90.851,-0.103,0.255,-0.041,-1.710,47.606,13.903
14:20:01:061,90.851,-0.153,0.296,-0.007,-2.501,49.471,10.147
14:20:01:062,90.852,-0.196,0.314,0.044,-3.339,52.444,4.536
14:20:01:063,90.853,-0.282,0.307,0.139,-3.690,54.441,0.862
14:20:01:244,91.034,-0.318,0.209,0.273,-4.075,57.207,-4.428
14:20:01:245,91.035,-0.331,0.111,0.483,-4.325,58.637,-7.659
14:20:01:246,91.036,-0.336,0.020,0.399,-4.703,59.661,-11.919
14:20:01:247,91.037,-0.400,-0.139,0.469,-5.244,59.349,-15.179
14:20:01:373,91.163,-0.351,-0.167,0.498,-5.895,58.608,-16.646
14:20:01:373,91.163,-0.341,-0.210,0.509,-6.962,57.183,-17.652
14:20:01:374,91.164,-0.234,-0.191,0.386,-7.659,56.087,-17.592
14:20:01:506,91.297,-0.261,-0.207,0.383,-8.325,55.277,-16.783
14:20:01:507,91.298,-0.080,-0.052,0.379,-8.419,56.065,-15.490
14:20:01:508,91.299,0.512,0.232,-0.235,-8.302,57.188,-14.475
14:20:01:509,91.300,0.669,0.326,-0.231,-7.931,59.102,-13.689
14:20:01:56,91.351,-0.010,0.153,0.513,-7.658,60.599,-13.555
14:20:01:561,91.352,0.079,0.153,0.315,-7.612,62.114,-12.528
14:20:01:561,91.352,-0.308,0.126,-0.253,-8.157,61.715,-11.144
14:20:01:562,91.353,-0.239,-0.030,-0.159,-8.493,61.714,-10.045
14:20:01:688,91.479,-0.021,0.000,0.313,-8.679,62.949,-8.439
14:20:01:689,91.480,-0.011,-0.013,0.033,-8.926,63.063,-7.324
14:20:01:69,91.481,-0.025,0.000,0.020,-9.483,62.956,-5.898
14:20:02:11,91.901,-0.116,0.004,0.039,-9.896,63.221,-5.117
14:20:02:111,91.902,-0.055,0.007,0.028,-10.536,63.136,-4.125
14:20:02:112,91.903,-0.004,0.047,-0.068,-11.116,62.663,-3.336
14:20:02:113,91.904,-0.067,0.035,-0.031,-11.404,62.363,-2.820
14:20:02:129,91.920,-0.025,0.019,-0.086,-11.659,61.484,-1.948
14:20:02:217,92.007,0.020,0.002,-0.059,-11.717,60.607,-1.246
14:20:02:218,92.008,0.014,-0.011,-0.073,-11.740,59.267,-0.113
14:20:02:218,92.008,0.021,-0.014,-0.075,-11.770,57.985,1.008
14:20:02:219,92.009,0.017,-0.004,-0.045,-11.767,57.326,1.831
14:20:02:364,92.155,0.019,-0.007,-0.039,-11.751,56.562,3.065
14:20:02:478,92.269,0.014,-0.011,-0.049,-11.741,56.238,3.878
14:20:02:479,92.270,0.026,-0.007,-0.050,-11.757,55.941,5.029
14:20:02:479,92.270,0.028,-0.010,-0.039,-11.822,55.820,6.054
14:20:02:522,92.313,0.034,-0.020,-0.121,-12.060,55.723,8.187
14:20:02:653,92.443,0.019,-0.002,-0.055,-12.214,55.815,9.153
14:20:02:812,92.603,0.030,0.025,-0.043,-12.440,55.830,10.717
14:20:02:996,92.787,0.028,0.007,-0.089,-12.575,55.615,11.848
14:20:03:19,92.981,0.018,0.027,-0.087,-12.776,55.349,13.621
14:20:03:19,92.981,0.020,0.032,-0.061,-12.951,55.005,15.547
14:20:03:19,92.981,0.027,0.031,-0.081,-13.069,54.765,16.919
14:20:03:19,92.981,0.046,0.055,-0.054,-13.246,54.426,19.132
14:20:03:362,93.152,0.339,-0.876,-0.116,-2.609,42.793,50.486
14:20:03:678,93.468,0.251,-0.801,-0.111,-1.254,42.856,48.894
14:20:03:976,93.767,0.106,-0.595,-0.089,-0.283,43.725,45.257
14:20:03:976,93.767,0.097,-0.417,-0.128,0.116,45.346,40.277
14:20:03:976,93.767,0.121,-0.288,-0.204,0.370,46.504,36.273
14:20:03:977,93.768,0.003,-0.052,-0.247,0.761,48.161,29.482
14:20:04:235,94.026,-0.050,0.077,-0.287,0.951,49.118,24.702
14:20:04:235,94.026,-0.155,0.301,-0.164,0.716,51.068,17.407
14:20:04:236,94.027,-0.327,0.417,0.051,0.280,53.400,10.005
14:20:04:289,94.080,-0.651,-0.221,0.759,-1.313,62.183,-16.194
14:20:04:29,94.081,-0.687,-0.258,0.717,-1.637,62.658,-16.551
14:20:04:291,94.082,0.074,0.087,0.478,-1.848,63.015,-15.679
14:20:04:473,94.264,0.011,0.047,0.596,-1.377,65.590,-13.010
14:20:04:473,94.264,-0.693,-0.066,0.033,-2.717,67.888,-9.843
14:20:04:474,94.265,-0.097,0.011,0.023,-5.846,69.840,-4.360
14:20:04:475,94.266,-0.015,-0.014,-0.030,-7.992,67.996,1.626
14:20:04:526,94.316,0.001,-0.004,-0.095,-9.446,67.128,8.643
14:20:04:527,94.317,0.007,0.041,-0.084,-9.426,66.411,12.705
14:20:04:528,94.318,0.004,0.017,-0.074,-9.331,66.292,14.015
14:20:04:528,94.318,-0.040,0.043,-0.070,-9.125,66.056,16.062
14:20:04:577,94.368,0.067,0.174,-0.104,-8.920,65.791,17.479
14:20:04:578,94.369,0.086,-0.104,-0.478,-2.569,60.681,41.973
14:20:04:579,94.370,-0.349,0.300,0.028,-0.305,80.788,13.036
14:20:04:58,94.371,-0.093,-0.202,0.816,-1.745,95.173,-17.378
14:20:04:657,94.447,0.004,-0.271,0.782,-1.953,96.825,-18.011
14:20:04:658,94.448,0.057,-0.139,0.644,-2.019,97.738,-17.465
14:20:04:659,94.449,0.030,-0.185,0.548,-1.954,99.574,-15.848
14:20:04:659,94.449,0.054,-0.069,0.133,-3.320,108.719,-7.760
14:20:04:704,94.494,0.020,0.038,0.010,-4.068,109.033,-6.468
14:20:04:705,94.495,0.002,-0.019,-0.021,-4.577,109.333,-5.736
14:20:04:756,94.547,-0.053,0.015,0.057,-5.390,110.008,-4.822
14:20:04:757,94.548,-0.052,0.006,0.014,-5.912,110.343,-4.288
14:20:04:841,94.632,0.003,0.012,0.007,-6.651,111.241,-3.599
14:20:04:842,94.633,-0.055,0.023,0.011,-7.346,112.138,-2.976
14:20:04:843,94.634,-0.070,-0.003,-0.072,-8.327,111.939,-1.218
14:20:04:844,94.635,-0.031,-0.018,-0.031,-8.544,112.027,-0.221
14:20:04:884,94.675,-0.029,-0.006,-0.028,-8.711,111.718,0.808
14:20:05:208,94.999,-0.017,-0.002,-0.036,-8.818,112.233,1.473
14:20:05:208,94.999,-0.040,-0.005,-0.033,-8.976,112.240,2.453
14:20:05:209,95.000,-0.045,0.006,-0.028,-9.126,112.701,2.995
14:20:05:21,95.001,-0.042,-0.005,-0.025,-9.282,112.816,3.892
14:20:05:308,95.099,-0.025,-0.008,-0.038,-9.373,113.281,4.848
14:20:05:308,95.099,-0.044,0.002,-0.040,-9.453,113.277,5.429
14:20:05:395,95.185,-0.041,0.009,-0.018,-9.569,113.486,6.324
14:20:05:395,95.185,-0.041,-0.002,-0.075,-9.583,113.320,7.025
14:20:05:396,95.186,-0.038,-0.006,-0.054,-9.637,113.427,9.069
14:20:05:55,95.341,-0.013,-0.002,-0.091,-9.595,113.600,9.944
14:20:05:55,95.341,-0.067,0.007,-0.036,-9.534,113.489,11.378
14:20:05:55,95.341,-0.021,-0.003,-0.050,-9.449,113.645,12.422
14:20:05:551,95.342,-0.029,0.019,-0.068,-9.281,113.349,14.109
14:20:05:673,95.464,-0.077,0.041,-0.053,-9.032,113.497,15.901
14:20:05:734,95.525,-0.061,0.082,-0.059,-8.802,113.249,17.156
14:20:05:735,95.526,-0.066,0.184,-0.170,-8.357,113.217,19.105
14:20:05:735,95.526,-0.003,0.179,-0.248,-7.975,112.924,20.527
14:20:05:736,95.527,-0.149,0.241,-0.288,-7.322,112.832,22.920
14:20:05:761,95.551,-0.144,0.282,-0.300,-6.810,112.797,24.717
14:20:05:762,95.552,-0.231,0.259,-0.461,-5.785,112.372,27.801
14:20:05:762,95.552,-0.204,0.200,-0.592,-4.407,111.375,31.385
14:20:05:763,95.553,-0.266,-0.441,-0.306,-1.026,112.916,47.404
14:20:05:812,95.602,-0.207,-0.523,-0.329,-0.912,114.046,48.268
