Time,Second,AccelerationX,AccelerationY,AccelerationZ,EulerAnglesX,EulerAnglesY,EulerAnglesZ
14:28:57:598,0.000,0.010,0.006,0.009,-9.346,16.608,0.682
14:28:57:625,0.027,0.007,0.007,0.002,-9.335,16.612,0.683
14:28:57:651,0.053,0.010,0.006,0.009,-9.314,16.606,0.678
14:28:57:677,0.079,0.009,0.008,0.004,-9.303,16.610,0.679
14:28:57:704,0.106,0.011,0.008,0.006,-9.281,16.610,0.681
14:28:57:732,0.134,0.007,0.003,0.002,-9.259,16.610,0.683
14:28:57:843,0.245,0.012,0.003,0.009,-9.245,16.610,0.680
14:28:57:843,0.245,0.010,0.007,0.002,-9.245,16.610,0.680
14:28:57:844,0.246,0.009,0.006,0.011,-9.237,16.610,0.685
14:28:57:845,0.247,0.010,0.007,0.002,-9.216,16.612,0.680
14:28:57:861,0.263,0.014,0.005,0.013,-9.205,16.608,0.682
14:28:57:888,0.290,0.011,0.007,0.001,-9.192,16.608,0.678
14:28:57:913,0.315,0.012,0.008,0.011,-9.183,16.608,0.684
14:28:58:022,0.424,0.007,0.002,0.007,-9.181,16.612,0.679
14:28:58:022,0.424,0.012,0.004,0.010,-9.169,16.617,0.680
14:28:58:05,0.452,0.010,0.009,0.007,-9.147,16.617,0.682
14:28:58:051,0.453,0.012,0.005,0.010,-9.147,16.617,0.682
14:28:58:052,0.454,0.013,0.008,0.006,-9.147,16.617,0.682
14:28:58:071,0.473,0.014,0.005,0.016,-9.134,16.617,0.678
14:28:58:127,0.529,0.014,0.004,0.008,-9.129,16.618,0.670
14:28:58:127,0.529,0.016,0.005,0.011,-9.119,16.615,0.664
14:28:58:149,0.551,0.015,0.006,0.006,-9.107,16.623,0.654
14:28:58:176,0.578,0.015,0.004,0.012,-9.092,16.622,0.639
14:28:58:206,0.608,0.013,0.008,0.010,-9.087,16.623,0.631
14:28:58:206,0.608,0.015,0.008,0.012,-9.073,16.623,0.628
14:28:58:258,0.660,0.015,0.006,0.008,-9.068,16.624,0.619
14:28:58:258,0.660,0.011,0.005,0.013,-9.052,16.628,0.611
14:28:58:307,0.709,0.014,0.009,0.011,-9.047,16.629,0.603
14:28:58:367,0.769,0.015,0.004,0.007,-9.033,16.630,0.600
14:28:58:367,0.769,0.014,0.003,0.010,-9.023,16.631,0.583
14:28:58:367,0.769,0.017,0.005,0.008,-9.015,16.636,0.570
14:28:58:415,0.817,0.010,0.004,0.009,-9.006,16.636,0.575
14:28:58:416,0.818,0.007,0.010,0.007,-9.003,16.635,0.589
14:28:58:44,0.842,0.009,0.010,0.007,-9.000,16.639,0.584
14:28:58:465,0.867,0.007,0.008,0.002,-8.987,16.640,0.581
14:28:58:491,0.893,0.014,0.004,0.011,-8.982,16.640,0.572
14:28:58:517,0.919,0.010,0.007,0.005,-8.969,16.634,0.563
14:28:58:544,0.946,0.017,0.008,0.010,-8.960,16.624,0.558
14:28:58:601,1.002,0.011,0.005,0.001,-8.954,16.611,0.550
14:28:58:601,1.002,0.015,0.002,0.008,-8.942,16.605,0.541
14:28:58:621,1.023,0.015,0.007,0.001,-8.937,16.597,0.533
14:28:58:648,1.050,0.016,0.004,0.009,-8.930,16.576,0.533
14:28:58:674,1.076,0.013,0.007,0.002,-8.916,16.557,0.549
14:28:58:701,1.103,0.013,0.008,0.009,-8.914,16.522,0.577
14:28:58:727,1.129,0.011,0.003,0.007,-8.907,16.506,0.605
14:28:58:753,1.155,0.011,0.003,0.010,-8.896,16.479,0.637
14:28:58:78,1.182,0.009,0.007,0.006,-8.893,16.450,0.671
14:28:58:806,1.208,0.012,0.005,0.007,-8.892,16.431,0.690
14:28:58:832,1.234,0.012,0.005,0.002,-8.884,16.421,0.725
14:28:58:859,1.261,0.012,0.006,0.005,-8.877,16.405,0.754
14:28:58:998,1.400,0.010,0.008,0.002,-8.875,16.387,0.798
14:28:58:999,1.401,0.012,0.007,0.007,-8.869,16.386,0.836
14:28:59:,1.402,0.010,0.005,0.002,-8.869,16.386,0.865
14:28:59:001,1.403,0.009,0.007,0.010,-8.858,16.389,0.913
14:28:59:022,1.424,0.010,0.007,0.005,-8.854,16.391,0.944
14:28:59:022,1.424,0.007,0.006,0.010,-8.850,16.387,0.994
14:28:59:043,1.445,0.011,0.006,0.003,-8.852,16.393,1.033
14:28:59:183,1.585,0.009,0.006,0.006,-8.845,16.394,1.078
14:28:59:184,1.586,0.006,0.006,0.006,-8.848,16.394,1.140
14:28:59:184,1.586,0.008,0.005,0.006,-8.845,16.387,1.172
14:28:59:185,1.587,0.011,0.006,0.005,-8.844,16.372,1.220
14:28:59:202,1.604,0.011,0.005,0.001,-8.846,16.370,1.243
14:28:59:203,1.605,0.013,0.006,0.004,-8.849,16.373,1.293
14:28:59:227,1.629,0.004,0.006,0.002,-8.842,16.374,1.338
14:28:59:252,1.654,0.013,0.011,0.010,-8.845,16.374,1.372
14:28:59:279,1.681,0.006,0.006,-0.001,-8.849,16.374,1.434
14:28:59:336,1.738,0.009,0.002,-0.002,-8.847,16.371,1.470
14:28:59:336,1.738,0.007,0.001,-0.002,-8.844,16.381,1.518
14:28:59:357,1.759,0.010,0.008,0.008,-8.842,16.378,1.554
14:28:59:384,1.786,0.011,0.011,-0.005,-8.847,16.380,1.580
14:28:59:41,1.812,0.010,0.002,0.006,-8.847,16.379,1.627
14:28:59:436,1.838,0.011,0.005,-0.002,-8.845,16.380,1.652
14:28:59:492,1.894,0.010,0.006,0.003,-8.847,16.377,1.703
14:28:59:492,1.894,0.011,0.010,0.006,-8.846,16.378,1.728
14:28:59:544,1.946,0.016,0.003,0.006,-8.847,16.379,1.768
14:28:59:545,1.947,0.006,0.005,-0.001,-8.842,16.379,1.806
14:28:59:596,1.998,0.006,0.005,0.012,-8.844,16.377,1.828
14:28:59:597,1.999,0.009,0.009,0.001,-8.846,16.376,1.851
14:28:59:62,2.022,0.012,0.003,0.001,-8.850,16.365,1.849
14:28:59:646,2.048,0.007,0.003,0.002,-8.849,16.345,1.868
14:28:59:753,2.155,0.008,0.008,0.011,-8.844,16.320,1.873
14:28:59:786,2.188,0.015,0.009,0.002,-8.855,16.302,1.873
14:28:59:786,2.188,0.014,0.004,0.006,-8.879,16.253,1.879
14:28:59:787,2.189,0.009,0.002,0.006,-8.890,16.221,1.881
14:28:59:788,2.190,0.010,0.006,0.010,-8.912,16.164,1.894
14:28:59:804,2.206,0.012,0.011,0.000,-8.931,16.099,1.904
14:28:59:829,2.231,0.008,0.004,0.003,-8.947,16.035,1.917
14:28:59:909,2.311,0.010,0.004,0.008,-8.957,15.995,1.919
14:28:59:97,2.372,0.006,0.008,0.009,-8.971,15.972,1.924
14:28:59:97,2.372,0.008,0.008,0.000,-8.994,15.918,1.931
14:28:59:971,2.373,0.008,0.007,-0.004,-9.001,15.880,1.935
14:28:59:972,2.374,0.006,0.004,0.003,-8.999,15.850,1.945
14:28:59:989,2.391,0.007,0.009,-0.001,-8.998,15.836,1.946
14:29:00:014,2.416,0.013,0.008,0.003,-9.001,15.832,1.950
14:29:00:068,2.470,0.007,0.005,0.001,-9.001,15.832,1.950
14:29:00:069,2.471,0.008,0.006,0.002,-9.001,15.832,1.950
14:29:00:121,2.523,0.005,0.008,0.000,-9.001,15.832,1.950
14:29:00:121,2.523,0.012,0.009,0.007,-9.001,15.832,1.950
14:29:00:146,2.548,0.010,0.006,-0.003,-9.001,15.832,1.950
14:29:00:172,2.574,0.009,0.007,0.007,-9.001,15.832,1.950
14:29:00:199,2.601,0.006,0.008,0.002,-9.002,15.848,1.942
14:29:00:311,2.713,0.013,0.005,0.007,-8.996,15.855,1.940
14:29:00:312,2.714,0.011,0.008,0.004,-9.004,15.855,1.935
14:29:00:312,2.714,0.010,0.009,0.007,-9.001,15.877,1.918
14:29:00:313,2.715,0.008,0.008,0.003,-8.988,15.917,1.882
14:29:00:328,2.730,0.015,0.007,0.006,-8.975,15.937,1.860
14:29:00:385,2.787,0.004,0.007,0.006,-8.950,15.985,1.813
14:29:00:386,2.788,0.007,0.008,0.004,-8.932,16.028,1.781
14:29:00:411,2.813,0.014,0.009,0.004,-8.892,16.095,1.701
14:29:00:411,2.813,0.011,0.008,0.010,-8.846,16.159,1.620
14:29:00:492,2.894,0.013,0.005,0.000,-8.822,16.201,1.567
14:29:00:493,2.895,0.012,0.012,0.004,-8.773,16.257,1.483
14:29:00:494,2.896,0.015,0.005,0.007,-8.745,16.301,1.433
14:29:00:568,2.970,0.016,0.004,0.008,-8.693,16.369,1.361
14:29:00:568,2.970,0.019,0.005,0.006,-8.663,16.406,1.319
14:29:00:593,2.995,0.014,0.008,0.003,-8.620,16.459,1.265
14:29:00:62,3.022,0.017,0.004,0.005,-8.581,16.498,1.216
14:29:00:621,3.023,0.010,0.004,0.005,-8.555,16.527,1.190
14:29:00:673,3.075,0.014,0.005,0.008,-8.520,16.575,1.149
14:29:00:673,3.075,0.013,0.003,0.001,-8.487,16.610,1.121
14:29:00:754,3.156,0.015,0.006,0.007,-8.450,16.654,1.076
14:29:00:755,3.157,0.015,0.008,0.002,-8.412,16.687,1.051
14:29:00:756,3.158,0.017,0.002,0.007,-8.392,16.708,1.044
14:29:00:775,3.177,0.015,0.007,0.001,-8.357,16.739,1.041
14:29:00:802,3.203,0.014,0.005,0.009,-8.337,16.760,1.035
14:29:00:826,3.228,0.009,0.008,-0.001,-8.308,16.775,1.034
14:29:00:935,3.337,0.008,0.004,0.013,-8.287,16.791,1.028
14:29:00:967,3.369,0.008,0.010,0.004,-8.258,16.807,1.027
14:29:00:968,3.370,0.018,0.005,0.008,-8.230,16.806,1.010
14:29:00:968,3.370,0.012,0.005,0.002,-8.219,16.807,0.993
14:29:00:969,3.371,0.013,0.002,0.010,-8.194,16.801,0.980
14:29:00:987,3.389,0.018,0.006,0.005,-8.186,16.807,0.967
14:29:01:011,3.413,0.017,0.007,0.010,-8.175,16.802,0.969
14:29:01:066,3.468,0.011,0.007,0.007,-8.164,16.807,0.969
14:29:01:067,3.469,0.016,0.005,0.008,-8.164,16.807,0.969
14:29:01:09,3.492,0.011,0.009,0.004,-8.164,16.807,0.969
14:29:01:117,3.519,0.014,0.008,0.010,-8.164,16.807,0.969
14:29:01:143,3.545,0.013,0.007,0.007,-8.164,16.807,0.969
14:29:01:17,3.571,0.012,0.005,0.008,-8.164,16.807,0.969
14:29:01:195,3.597,0.015,0.009,0.005,-8.150,16.807,0.966
14:29:01:279,3.681,0.018,0.007,0.011,-8.159,16.807,0.961
14:29:01:28,3.682,0.016,0.011,0.005,-8.159,16.807,0.961
14:29:01:28,3.682,0.014,0.006,0.008,-8.145,16.808,0.958
14:29:01:301,3.703,0.014,0.005,0.008,-8.135,16.805,0.952
14:29:01:326,3.728,0.013,0.007,0.010,-8.116,16.810,0.929
14:29:01:352,3.754,0.016,0.007,0.012,-8.090,16.810,0.898
14:29:01:378,3.780,0.016,0.004,0.011,-8.077,16.807,0.877
14:29:01:405,3.807,0.013,0.006,0.010,-8.052,16.807,0.846
14:29:01:46,3.862,0.015,0.008,0.003,-8.036,16.809,0.821
14:29:01:461,3.863,0.022,0.007,0.011,-8.007,16.816,0.774
14:29:01:513,3.915,0.017,0.006,0.005,-7.965,16.847,0.722
14:29:01:514,3.916,0.013,0.006,0.013,-7.939,16.868,0.689
14:29:01:536,3.938,0.011,0.009,0.005,-7.902,16.915,0.634
14:29:01:561,3.963,0.013,0.007,0.012,-7.875,16.949,0.590
14:29:01:589,3.991,0.015,0.003,0.004,-7.831,17.008,0.514
14:29:01:642,4.044,0.013,0.002,0.010,-7.804,17.045,0.459
14:29:01:668,4.070,0.007,0.006,0.006,-7.761,17.103,0.359
14:29:01:697,4.099,-0.008,0.003,0.012,-7.715,17.160,0.225
14:29:01:697,4.099,0.006,0.014,0.005,-7.686,17.168,0.103
14:29:01:72,4.122,0.007,0.010,0.012,-7.652,17.194,-0.111
14:29:01:746,4.148,0.000,0.000,0.008,-7.621,17.231,-0.276
14:29:01:772,4.174,-0.010,0.004,0.018,-7.561,17.273,-0.580
14:29:01:826,4.228,-0.021,0.016,0.002,-7.497,17.298,-0.963
14:29:01:881,4.283,0.011,0.026,0.006,-7.450,17.282,-1.282
14:29:01:882,4.284,0.013,0.014,0.005,-7.381,17.317,-1.825
14:29:01:907,4.309,0.013,0.019,0.012,-7.327,17.392,-2.206
14:29:01:908,4.310,-0.009,0.027,0.033,-7.208,17.515,-2.776
14:29:01:93,4.332,-0.009,0.028,0.026,-7.116,17.576,-3.178
14:29:01:956,4.358,-0.016,0.030,0.009,-7.010,17.641,-3.868
14:29:01:982,4.384,-0.034,0.031,0.010,-6.895,17.749,-4.674
14:29:02:009,4.411,-0.063,0.042,0.010,-6.816,17.866,-5.263
14:29:02:064,4.466,-0.087,0.151,0.069,-6.734,18.093,-6.496
14:29:02:065,4.467,-0.092,0.134,0.100,-6.700,18.207,-7.475
14:29:02:09,4.492,-0.100,0.146,0.101,-6.674,18.508,-9.166
14:29:02:114,4.516,-0.122,0.177,0.129,-6.882,18.692,-10.982
14:29:02:14,4.542,-0.100,0.138,0.057,-7.056,18.797,-12.255
14:29:02:166,4.568,-0.055,0.067,-0.018,-7.101,19.114,-14.335
14:29:02:193,4.595,-0.014,-0.010,-0.063,-7.119,19.387,-15.717
14:29:02:247,4.649,-0.223,-0.283,-0.032,-7.140,19.928,-17.552
14:29:02:248,4.650,-0.290,-0.362,0.116,-7.072,20.713,-18.441
14:29:02:271,4.673,-0.287,-0.324,0.124,-6.867,21.488,-18.261
14:29:02:297,4.699,-0.358,-0.283,0.164,-6.459,22.716,-16.933
14:29:02:323,4.725,-0.333,-0.212,0.183,-6.290,23.317,-15.447
14:29:02:35,4.752,-0.333,-0.100,0.154,-6.215,23.848,-12.561
14:29:02:376,4.778,-0.296,-0.052,0.147,-6.297,23.965,-10.276
14:29:02:432,4.834,-0.224,0.043,0.113,-6.526,23.906,-6.409
14:29:02:432,4.834,-0.123,0.129,0.050,-6.791,23.695,-2.240
14:29:02:484,4.886,-0.017,0.161,-0.037,-6.971,23.557,0.594
14:29:02:485,4.887,0.060,0.153,-0.076,-7.276,23.406,4.770
14:29:02:507,4.909,0.141,0.102,-0.142,-7.535,23.425,7.420
14:29:02:536,4.938,0.199,0.050,-0.178,-8.081,23.657,11.161
14:29:02:561,4.962,0.269,-0.030,-0.182,-8.846,24.077,14.545
14:29:02:618,5.020,0.301,-0.064,-0.169,-9.514,24.482,16.576
14:29:02:618,5.020,0.384,-0.035,-0.163,-10.705,25.217,19.203
14:29:02:619,5.021,0.430,-0.168,-0.111,-11.522,25.789,20.576
14:29:02:666,5.068,0.728,-0.214,-0.314,-12.257,26.102,21.937
14:29:02:691,5.093,0.946,-0.226,-0.272,-12.603,25.809,21.830
14:29:02:721,5.123,-0.897,0.809,1.144,-12.597,25.093,21.199
14:29:02:721,5.123,0.980,0.049,-0.340,-12.174,23.390,20.225
14:29:02:8,5.202,0.144,-0.198,-0.215,-12.399,19.387,18.227
14:29:02:8,5.202,0.000,-0.071,-0.108,-12.509,18.663,17.338
14:29:02:852,5.254,0.010,-0.035,0.129,-12.771,18.771,15.962
14:29:02:853,5.255,0.017,0.028,0.123,-13.160,18.182,14.728
14:29:02:875,5.277,-0.038,0.020,-0.033,-13.466,17.461,13.957
14:29:02:932,5.333,0.101,0.008,-0.091,-13.832,16.674,12.858
14:29:02:932,5.333,0.054,0.029,0.033,-14.033,16.732,12.081
14:29:02:953,5.355,0.157,0.042,0.034,-14.380,17.061,10.987
14:29:02:979,5.381,0.148,0.000,-0.033,-14.761,17.679,10.109
14:29:03:006,5.408,0.143,-0.001,0.021,-15.071,18.612,9.630
14:29:03:032,5.434,-0.046,0.018,-0.034,-15.597,20.599,8.877
14:29:03:059,5.461,-0.010,0.015,-0.077,-15.857,21.814,8.336
14:29:03:087,5.489,-0.081,0.021,0.011,-16.031,23.510,7.412
14:29:03:112,5.514,-0.027,0.011,0.053,-16.047,24.407,6.686
14:29:03:167,5.569,-0.035,0.006,0.041,-16.020,25.544,5.382
14:29:03:167,5.569,0.009,0.018,0.048,-15.981,26.245,3.957
14:29:03:219,5.621,0.014,0.010,0.044,-15.986,26.628,2.927
14:29:03:22,5.622,0.004,0.008,0.033,-16.072,27.083,1.297
14:29:03:242,5.644,0.051,0.019,-0.024,-16.186,27.328,0.159
14:29:03:298,5.700,-0.007,0.043,-0.020,-16.433,27.957,-1.624
14:29:03:299,5.701,-0.022,0.037,0.017,-16.747,28.975,-3.602
14:29:03:32,5.722,-0.030,0.084,0.132,-16.964,29.732,-5.029
14:29:03:347,5.749,0.005,0.140,0.225,-17.270,30.625,-7.391
14:29:03:403,5.805,-0.151,0.226,0.213,-17.487,30.990,-9.172
14:29:03:404,5.806,-0.174,0.311,0.189,-17.806,31.592,-12.308
14:29:03:484,5.886,-0.209,0.300,0.485,-18.053,32.965,-16.233
14:29:03:485,5.887,-0.224,0.309,0.634,-18.195,34.104,-19.165
14:29:03:486,5.888,-0.623,0.334,0.851,-18.118,36.662,-24.041
14:29:03:505,5.907,-0.845,0.253,0.713,-18.038,38.638,-27.757
14:29:03:531,5.933,-0.757,0.231,0.483,-19.275,40.378,-33.793
14:29:03:557,5.959,-0.430,-0.347,0.512,-20.208,41.374,-37.738
14:29:03:586,5.988,-0.683,-0.626,0.390,-19.174,43.621,-42.169
14:29:03:611,6.013,-0.093,-0.087,-0.284,-18.097,45.100,-44.777
14:29:03:665,6.067,-0.318,-0.867,0.455,-17.420,46.066,-45.100
14:29:03:666,6.068,-0.160,-0.939,0.435,-16.067,46.748,-43.784
14:29:03:688,6.090,-0.100,-0.723,0.234,-15.116,46.577,-41.716
14:29:03:715,6.117,-0.173,-0.526,0.128,-14.199,45.534,-36.959
14:29:03:741,6.143,-0.194,-0.418,0.316,-13.580,43.781,-30.426
14:29:03:767,6.169,-0.134,-0.296,0.326,-12.875,42.668,-25.298
14:29:03:793,6.195,-0.060,0.001,0.240,-11.580,41.545,-16.765
14:29:03:82,6.222,-0.076,0.167,0.280,-10.660,41.421,-10.699
14:29:03:846,6.248,0.046,0.553,0.218,-9.558,41.719,-1.199
14:29:03:872,6.274,0.203,0.731,0.044,-9.041,42.030,5.421
14:29:03:899,6.301,0.618,0.830,-0.634,-8.780,42.719,15.483
14:29:03:925,6.327,1.068,0.309,-1.137,-9.644,44.074,24.694
14:29:03:952,6.354,1.187,-0.238,-1.441,-11.071,45.739,29.887
14:29:03:978,6.380,0.627,-0.893,-1.168,-13.992,49.848,34.125
14:29:04:033,6.435,0.691,-0.631,-1.015,-15.256,52.204,33.246
14:29:04:033,6.435,0.617,0.286,-0.024,-15.004,53.814,29.310
14:29:04:056,6.458,-0.101,0.383,0.512,-14.372,54.144,25.422
14:29:04:083,6.485,0.503,0.131,-0.097,-13.574,52.843,23.408
14:29:04:109,6.511,0.738,0.188,-0.433,-12.460,49.252,20.536
14:29:04:135,6.537,-0.208,0.065,-0.901,-12.370,47.706,18.705
14:29:04:191,6.593,0.122,-0.183,-0.214,-12.745,45.772,15.993
14:29:04:192,6.594,0.209,-0.055,-0.260,-12.998,45.714,14.133
14:29:04:242,6.644,0.123,0.022,0.033,-13.457,47.002,11.586
14:29:04:27,6.672,0.069,0.006,-0.057,-13.867,47.687,9.891
14:29:04:27,6.672,0.149,-0.009,-0.165,-14.128,47.877,9.077
14:29:04:292,6.694,0.073,0.017,-0.056,-14.461,49.018,8.002
14:29:04:319,6.721,0.053,-0.005,0.000,-14.663,50.058,7.357
14:29:04:345,6.747,0.042,0.004,-0.034,-14.953,51.134,6.610
14:29:04:4,6.802,0.007,0.009,-0.027,-15.171,52.130,5.910
14:29:04:401,6.803,-0.001,0.018,0.056,-15.267,52.916,5.364
14:29:04:424,6.826,-0.015,-0.004,0.084,-15.369,53.921,4.354
14:29:04:45,6.852,0.003,-0.003,0.072,-15.402,54.454,3.527
14:29:04:507,6.909,0.006,-0.010,0.077,-15.298,55.024,2.314
14:29:04:507,6.909,-0.003,0.047,0.015,-15.342,55.267,1.257
14:29:04:558,6.960,-0.038,0.038,0.084,-15.536,55.641,-0.678
14:29:04:558,6.960,-0.028,0.075,0.136,-15.766,56.088,-2.999
14:29:04:611,7.013,0.008,0.221,0.107,-15.948,56.397,-4.841
14:29:04:611,7.013,0.132,0.270,0.214,-16.117,57.028,-8.039
14:29:04:634,7.036,-0.010,0.262,0.383,-16.194,57.546,-10.491
14:29:04:689,7.091,-0.316,0.434,0.443,-16.331,58.298,-14.787
14:29:04:69,7.092,-0.065,0.520,0.789,-16.391,60.171,-20.183
14:29:04:742,7.143,-0.328,0.426,1.320,-16.197,62.300,-24.235
14:29:04:742,7.143,-0.652,0.426,1.154,-16.227,66.056,-31.259
14:29:04:797,7.199,-0.653,0.202,1.105,-16.736,67.435,-35.982
14:29:04:797,7.199,-0.341,-0.448,0.370,-15.352,68.805,-41.341
14:29:04:799,7.201,-0.174,-0.198,0.119,-13.596,70.126,-44.374
14:29:04:876,7.278,-0.168,-0.351,-0.225,-12.819,70.529,-44.868
14:29:04:876,7.278,0.022,-1.085,0.394,-11.759,71.328,-44.103
14:29:04:877,7.279,0.130,-1.040,0.319,-11.423,71.030,-42.439
14:29:04:923,7.325,-0.105,-0.800,0.252,-11.888,69.311,-38.172
14:29:05:011,7.413,-0.083,-0.460,0.113,-12.689,67.326,-34.266
14:29:05:012,7.414,-0.055,-0.355,0.203,-12.999,64.424,-27.033
14:29:05:012,7.414,0.030,-0.100,0.195,-12.477,62.325,-18.483
14:29:05:012,7.414,0.052,0.051,0.162,-11.818,61.777,-12.388
14:29:05:027,7.429,0.140,0.310,0.056,-10.996,61.771,-2.803
14:29:05:112,7.514,0.155,0.726,-0.172,-10.691,62.090,3.905
14:29:05:113,7.515,0.367,0.911,-0.797,-10.996,62.228,14.508
14:29:05:114,7.516,0.549,0.817,-1.377,-12.404,63.217,24.586
14:29:05:159,7.561,0.859,-0.179,-1.599,-14.266,65.578,29.933
14:29:05:188,7.590,0.453,-1.048,-2.182,-18.528,70.758,35.505
14:29:05:188,7.590,0.451,-0.223,-1.149,-21.222,74.544,35.745
14:29:05:239,7.641,0.388,-0.437,-0.604,-22.100,78.567,32.009
14:29:05:296,7.698,0.758,0.568,0.620,-21.668,79.175,29.733
14:29:05:297,7.699,0.334,0.249,-0.232,-20.041,76.365,28.168
14:29:05:298,7.700,0.693,0.221,-0.869,-18.579,71.674,26.953
14:29:05:457,7.859,0.048,0.086,-0.528,-18.469,70.374,25.626
14:29:05:458,7.860,0.005,-0.028,-0.329,-18.523,68.829,23.784
14:29:05:459,7.861,0.220,-0.092,-0.424,-18.484,67.810,22.863
14:29:05:46,7.862,0.103,0.005,-0.037,-18.996,67.985,21.429
14:29:05:474,7.876,0.011,0.022,-0.108,-19.596,68.539,20.063
14:29:05:508,7.910,-0.020,0.031,-0.136,-19.921,69.158,19.036
14:29:05:508,7.910,0.055,0.029,-0.005,-20.258,70.549,17.319
14:29:05:508,7.910,0.067,-0.001,-0.051,-20.404,71.670,15.963
14:29:05:528,7.930,0.077,0.003,-0.051,-20.504,73.161,13.866
14:29:05:553,7.955,0.065,0.018,-0.019,-20.517,74.626,11.835
14:29:05:633,8.035,0.077,0.004,0.066,-20.481,75.551,10.481
14:29:05:686,8.088,0.075,0.008,0.001,-20.401,76.539,8.441
14:29:05:719,8.121,0.098,0.017,0.000,-20.390,77.064,7.041
14:29:05:72,8.122,0.131,0.006,-0.079,-20.481,77.512,4.985
14:29:05:72,8.122,0.130,-0.026,-0.115,-20.633,77.827,3.617
14:29:05:722,8.123,0.046,0.049,-0.035,-21.054,78.582,1.567
14:29:05:765,8.167,0.072,0.056,0.002,-21.588,79.765,-0.634
14:29:05:766,8.168,0.201,0.067,0.073,-21.959,80.722,-2.246
14:29:05:788,8.190,0.117,0.176,0.132,-22.510,81.796,-4.885
14:29:05:817,8.219,0.168,0.263,0.266,-22.882,82.501,-6.969
14:29:05:868,8.270,0.162,0.313,0.360,-23.415,83.835,-10.807
14:29:05:898,8.300,0.438,0.473,0.577,-23.950,85.826,-15.710
14:29:05:898,8.300,0.668,0.592,1.059,-24.198,88.032,-19.696
14:29:05:978,8.380,0.457,0.447,1.339,-24.501,92.782,-26.652
14:29:05:979,8.381,0.062,0.480,1.006,-25.532,94.899,-31.418
14:29:05:98,8.382,0.328,-0.019,0.529,-27.195,97.234,-38.195
14:29:06:029,8.431,-0.034,-0.188,0.282,-26.306,99.586,-41.528
14:29:06:029,8.431,-0.273,-0.193,-0.405,-24.891,102.925,-44.818
14:29:06:08,8.482,0.414,-1.152,0.508,-23.204,106.654,-45.396
14:29:06:08,8.482,0.504,-1.154,0.209,-21.825,108.302,-44.465
14:29:06:162,8.564,0.403,-0.755,0.124,-20.780,109.236,-41.107
14:29:06:163,8.565,0.261,-0.669,0.108,-20.475,109.063,-37.737
14:29:06:163,8.565,0.382,-0.465,0.170,-20.161,107.866,-30.982
14:29:06:183,8.585,0.425,-0.213,0.074,-19.196,106.742,-22.820
14:29:06:209,8.611,0.432,-0.095,0.002,-18.153,106.834,-17.004
14:29:06:262,8.664,0.541,0.135,-0.056,-16.414,108.379,-7.967
14:29:06:289,8.691,0.488,0.564,-0.087,-15.519,109.670,-1.629
14:29:06:316,8.718,0.197,0.967,-0.457,-14.756,110.937,8.663
14:29:06:317,8.719,-0.572,1.068,-1.333,-14.652,111.137,15.755
14:29:06:398,8.800,-0.579,0.102,-1.908,-15.490,112.275,25.247
14:29:06:399,8.801,-1.323,-0.843,-1.714,-17.850,116.338,32.015
14:29:06:399,8.801,-0.830,-0.496,-1.025,-20.269,120.603,33.699
14:29:06:419,8.821,-0.789,-0.568,-1.227,-21.880,125.915,30.865
14:29:06:446,8.848,1.515,0.838,0.182,-21.443,127.752,28.095
14:29:06:471,8.873,-0.574,0.115,-0.791,-20.646,127.566,25.509
14:29:06:497,8.899,-0.884,0.484,-0.113,-19.962,124.290,23.844
14:29:06:523,8.925,-0.478,0.202,-0.679,-19.918,122.015,22.935
14:29:06:55,8.952,-0.197,0.046,-0.245,-19.943,121.249,21.036
14:29:06:635,9.036,0.084,-0.013,-0.117,-20.242,121.877,19.772
14:29:06:635,9.036,-0.004,0.026,-0.089,-20.594,122.232,18.551
14:29:06:683,9.085,0.027,0.003,-0.044,-20.988,123.772,16.179
14:29:06:684,9.086,0.067,0.006,-0.094,-21.030,125.348,14.279
14:29:06:707,9.109,0.084,0.004,-0.033,-20.981,126.296,12.996
14:29:06:762,9.164,0.079,-0.011,-0.083,-20.800,127.941,10.883
14:29:06:763,9.165,0.075,0.003,-0.059,-20.660,128.944,9.490
14:29:06:816,9.218,0.088,0.011,-0.033,-20.404,130.065,7.435
14:29:06:816,9.218,0.101,0.026,-0.066,-20.174,130.778,5.300
14:29:06:953,9.355,0.092,0.018,-0.096,-20.067,131.025,3.867
14:29:06:954,9.356,0.051,0.022,-0.113,-19.981,131.448,1.712
14:29:06:955,9.357,0.041,0.007,-0.120,-19.980,131.777,0.298
14:29:06:955,9.357,0.060,0.044,-0.068,-20.009,132.456,-1.841
14:29:07:002,9.404,0.206,0.018,-0.056,-19.933,133.319,-4.142
14:29:07:002,9.404,0.271,0.118,-0.087,-20.012,133.763,-5.834
14:29:07:058,9.460,0.227,0.190,0.036,-20.138,134.088,-8.759
14:29:07:058,9.460,0.358,0.218,0.045,-20.227,134.345,-11.065
14:29:07:058,9.460,0.407,0.260,0.159,-20.377,134.752,-15.119
14:29:07:059,9.461,0.600,0.470,0.182,-20.512,135.238,-18.295
14:29:07:104,9.506,0.999,0.460,0.397,-20.450,137.218,-23.831
14:29:07:104,9.506,1.133,0.342,0.794,-20.028,140.744,-30.444
14:29:07:127,9.529,0.996,0.387,1.013,-20.584,142.264,-35.216
14:29:07:184,9.586,0.857,-0.332,0.755,-20.941,143.942,-41.917
14:29:07:238,9.640,0.341,-0.449,0.452,-19.745,144.840,-44.761
14:29:07:239,9.641,-0.106,-0.113,-0.064,-18.618,145.620,-47.746
14:29:07:239,9.641,0.477,-0.947,0.222,-18.161,146.134,-48.189
14:29:07:345,9.747,0.443,-1.084,-0.007,-17.644,146.299,-47.453
14:29:07:346,9.748,0.457,-0.945,-0.062,-16.997,145.454,-44.576
14:29:07:347,9.749,0.236,-0.585,0.007,-17.331,143.962,-41.600
14:29:07:395,9.797,0.312,-0.471,0.030,-17.684,141.085,-35.620
14:29:07:396,9.798,0.394,-0.316,-0.033,-17.303,139.224,-30.787
14:29:07:397,9.799,0.337,-0.191,-0.080,-15.965,137.023,-22.549
14:29:07:416,9.818,0.337,0.021,-0.105,-14.016,136.360,-13.646
14:29:07:472,9.874,0.356,0.302,-0.115,-12.778,136.499,-7.338
14:29:07:472,9.874,0.193,0.768,-0.163,-11.340,136.704,2.760
14:29:07:524,9.926,-0.689,1.145,-0.471,-10.708,136.453,9.939
14:29:07:525,9.927,-1.234,0.754,-0.862,-10.373,135.538,20.377
14:29:07:547,9.949,-1.575,-0.165,-1.176,-11.379,136.156,29.173
14:29:07:575,9.977,-2.279,-1.199,-1.352,-12.784,138.061,33.346
14:29:07:601,10.003,-1.017,0.031,-0.174,-14.433,140.995,33.360
14:29:07:656,10.058,-1.366,-0.814,-0.712,-13.963,140.998,30.696
14:29:07:656,10.058,0.490,0.521,-0.185,-12.896,140.004,26.531
14:29:07:679,10.081,-0.666,0.059,-0.769,-12.597,139.012,23.984
14:29:07:734,10.136,-0.692,0.351,0.243,-12.549,137.114,20.262
14:29:07:735,10.137,-0.479,-0.516,-0.392,-13.052,132.475,17.427
14:29:07:786,10.188,-0.400,0.018,-0.345,-13.502,131.859,15.388
14:29:07:787,10.189,-0.057,0.014,-0.297,-14.312,133.934,12.397
14:29:07:81,10.212,0.050,0.032,-0.135,-14.764,135.397,10.922
14:29:07:837,10.239,0.030,-0.023,-0.154,-15.470,135.584,9.659
14:29:07:919,10.321,-0.117,0.024,-0.151,-16.129,135.532,8.872
14:29:07:919,10.321,-0.007,0.002,-0.059,-16.486,136.395,8.279
14:29:07:945,10.347,0.123,-0.017,-0.092,-16.906,137.546,7.497
14:29:07:945,10.347,0.024,0.004,-0.083,-17.155,137.793,7.082
14:29:07:967,10.369,0.041,0.010,-0.034,-17.543,138.509,6.308
14:29:08:022,10.424,0.110,0.022,-0.083,-17.843,139.627,5.270
14:29:08:023,10.425,0.118,0.010,-0.051,-18.018,140.329,4.422
14:29:08:153,10.555,0.129,0.014,-0.059,-18.053,141.089,3.084
14:29:08:187,10.589,0.014,0.008,-0.105,-18.028,141.429,2.102
14:29:08:188,10.590,0.007,0.030,-0.084,-18.331,141.922,0.428
14:29:08:189,10.591,0.078,0.040,-0.058,-18.524,142.380,-0.707
14:29:08:189,10.591,0.179,0.072,-0.103,-18.792,143.326,-2.641
14:29:08:207,10.609,0.296,0.181,-0.043,-19.042,144.203,-4.965
14:29:08:207,10.609,0.224,0.186,-0.057,-19.175,144.629,-6.735
14:29:08:23,10.632,0.322,0.169,-0.103,-19.346,145.322,-9.955
14:29:08:257,10.659,0.395,0.352,-0.014,-19.456,145.754,-12.465
14:29:08:34,10.742,0.551,0.396,0.015,-19.530,146.749,-16.850
14:29:08:34,10.742,1.190,0.361,0.180,-19.212,149.105,-22.071
14:29:08:364,10.766,1.307,0.199,0.425,-18.816,151.072,-25.999
14:29:08:364,10.766,1.084,0.487,0.697,-19.865,152.225,-32.479
14:29:08:387,10.789,1.068,0.182,0.776,-21.254,152.355,-37.127
14:29:08:442,10.844,0.638,-0.325,0.429,-22.097,152.283,-42.982
14:29:08:443,10.845,-0.373,-0.058,-0.123,-21.876,152.208,-45.559
14:29:08:519,10.921,0.610,-0.741,0.369,-21.557,151.946,-47.532
14:29:08:546,10.948,0.469,-0.937,0.140,-20.528,151.726,-47.205
14:29:08:577,10.979,0.245,-0.614,-0.102,-19.313,150.943,-45.719
14:29:08:578,10.980,0.208,-0.520,0.053,-17.382,149.272,-42.095
14:29:08:579,10.981,0.181,-0.397,0.034,-16.358,147.768,-38.748
14:29:08:627,11.029,0.156,-0.342,-0.031,-14.710,145.300,-32.621
14:29:08:628,11.030,0.061,-0.041,-0.060,-12.978,142.891,-25.579
14:29:08:65,11.052,0.060,-0.091,0.043,-11.542,141.817,-20.661
14:29:08:706,11.108,0.044,-0.011,0.081,-9.521,140.604,-13.285
14:29:08:706,11.108,-0.038,0.040,0.039,-8.541,139.529,-8.299
14:29:08:729,11.131,-0.426,0.099,-0.063,-7.466,137.695,-0.458
14:29:08:755,11.157,-0.950,0.200,-0.262,-7.147,136.191,7.578
14:29:08:81,11.212,-0.973,0.169,-0.320,-7.377,135.874,12.862
14:29:08:811,11.213,-1.063,0.075,-0.695,-8.528,136.771,20.335
14:29:08:894,11.296,-1.096,0.017,-0.488,-9.819,138.667,24.387
14:29:08:894,11.296,-1.280,-0.288,-0.498,-12.025,141.577,28.621
14:29:08:894,11.296,-1.226,-0.399,-0.831,-14.233,144.014,29.935
14:29:08:942,11.344,-0.571,-0.136,-1.194,-15.303,145.473,28.397
14:29:08:942,11.344,1.364,0.465,-0.989,-14.821,145.419,26.609
14:29:08:993,11.395,0.215,0.444,-0.388,-14.175,143.426,25.338
14:29:09:02,11.422,-0.804,0.448,0.019,-14.571,140.490,22.822
14:29:09:02,11.422,-0.599,0.124,-0.439,-14.538,137.139,21.576
14:29:09:131,11.533,-0.448,-0.007,-0.726,-14.483,135.324,19.680
14:29:09:132,11.534,0.142,-0.082,-0.081,-15.392,136.725,17.848
14:29:09:133,11.535,0.141,0.041,0.004,-15.863,136.249,17.129
14:29:09:134,11.536,-0.170,-0.020,-0.004,-16.360,135.718,16.036
14:29:09:178,11.580,0.190,0.003,0.140,-16.655,136.863,14.827
14:29:09:179,11.581,0.151,-0.023,-0.108,-16.927,138.291,12.811
14:29:09:231,11.633,0.026,-0.009,-0.094,-17.183,138.888,10.735
14:29:09:232,11.634,-0.012,0.019,-0.123,-17.341,139.468,9.349
14:29:09:254,11.655,0.137,-0.007,-0.076,-17.488,137.578,7.254
14:29:09:368,11.770,0.128,0.003,-0.025,-17.555,138.486,5.884
14:29:09:369,11.771,0.117,0.006,-0.028,-17.585,135.884,3.862
14:29:09:369,11.771,0.112,0.003,-0.042,-17.516,136.308,1.694
14:29:09:37,11.772,0.107,-0.010,-0.079,-17.492,133.548,0.212
14:29:09:417,11.819,0.073,0.002,-0.070,-17.582,133.762,-1.953
14:29:09:417,11.819,0.087,0.011,-0.078,-17.703,131.230,-3.363
14:29:09:418,11.820,0.135,0.035,-0.008,-17.935,131.775,-5.471
14:29:09:496,11.898,0.154,0.042,0.052,-18.093,129.707,-6.997
14:29:09:496,11.898,0.194,0.158,0.076,-18.256,130.329,-9.666
14:29:09:497,11.899,0.388,0.240,0.129,-18.282,128.641,-12.887
14:29:09:543,11.945,0.408,0.374,0.279,-18.281,129.134,-15.481
14:29:09:57,11.972,0.717,0.451,0.416,-18.264,130.135,-20.262
14:29:09:656,12.058,0.939,0.690,0.833,-18.333,130.936,-23.997
14:29:09:656,12.058,0.833,0.396,0.996,-18.543,133.254,-30.332
14:29:09:657,12.059,0.772,0.098,0.827,-18.329,137.136,-37.416
14:29:09:658,12.060,0.803,-0.413,0.936,-17.229,139.708,-41.828
14:29:09:673,12.075,0.322,-0.313,0.429,-15.300,142.178,-46.160
14:29:09:699,12.101,0.440,-0.535,0.242,-14.481,143.345,-48.114
14:29:09:728,12.130,0.632,-1.238,0.241,-14.420,144.628,-49.147
14:29:09:84,12.242,0.313,-0.913,0.074,-15.283,144.301,-48.552
14:29:09:841,12.243,0.195,-0.773,0.122,-18.431,142.213,-45.927
14:29:09:842,12.244,0.205,-0.600,0.164,-21.313,138.892,-41.084
14:29:09:843,12.245,0.281,-0.420,0.089,-22.160,136.427,-36.696
14:29:09:858,12.260,0.304,-0.249,0.039,-21.746,133.012,-28.856
14:29:09:886,12.288,0.370,-0.082,-0.016,-20.621,131.418,-23.091
14:29:09:968,12.370,0.347,0.140,-0.044,-18.368,130.561,-14.009
14:29:09:968,12.370,0.315,0.513,-0.082,-16.357,131.425,-4.531
14:29:09:989,12.391,0.186,0.719,-0.203,-15.514,132.469,2.064
14:29:10:047,12.449,-0.411,0.962,-0.656,-15.444,134.264,12.089
14:29:10:047,12.449,-0.789,0.261,-1.124,-16.301,135.712,18.311
14:29:10:048,12.450,-1.207,-0.320,-0.938,-18.421,139.423,26.014
14:29:10:067,12.469,-1.223,-0.677,-0.851,-20.515,143.156,29.436
14:29:10:121,12.523,-0.930,-0.213,-0.714,-23.639,149.701,29.963
14:29:10:151,12.553,-0.715,-0.530,-1.097,-24.829,154.769,26.651
14:29:10:151,12.553,0.516,0.256,-0.988,-24.541,156.163,24.144
14:29:10:172,12.574,0.039,0.235,-0.835,-23.156,153.838,22.576
14:29:10:199,12.601,-0.615,0.495,-0.800,-22.489,150.937,21.985
14:29:10:225,12.627,-0.643,0.144,0.189,-22.461,148.700,20.044
14:29:10:28,12.682,-0.507,-0.036,-0.196,-22.240,146.234,18.568
14:29:10:281,12.683,-0.190,0.032,-0.236,-22.276,145.720,17.739
14:29:10:333,12.735,0.089,0.029,-0.099,-22.577,146.270,16.571
14:29:10:333,12.735,0.129,0.017,0.103,-22.770,146.712,15.811
14:29:10:387,12.789,0.022,0.011,0.014,-22.919,147.638,14.259
14:29:10:387,12.789,0.096,-0.005,-0.062,-22.909,148.424,13.109
14:29:10:409,12.811,0.137,0.002,-0.040,-22.836,149.898,11.207
14:29:10:526,12.928,0.139,0.003,-0.052,-22.769,151.675,9.054
14:29:10:526,12.928,0.084,-0.001,-0.096,-22.697,152.973,7.556
14:29:10:526,12.928,0.140,0.001,-0.037,-22.487,154.758,5.393
14:29:10:526,12.928,0.119,0.004,-0.031,-22.181,153.500,4.271
14:29:10:706,13.108,0.082,-0.007,-0.125,-21.809,154.350,2.426
14:29:10:707,13.109,0.078,-0.006,-0.098,-21.674,153.047,0.319
14:29:10:708,13.110,0.053,-0.018,-0.088,-21.668,153.383,-1.089
14:29:10:709,13.111,0.044,0.010,-0.076,-21.763,152.136,-3.193
14:29:10:731,13.133,0.057,0.035,-0.055,-21.919,152.563,-4.561
14:29:10:731,13.133,0.118,0.028,-0.035,-22.205,151.919,-6.746
14:29:10:814,13.216,0.236,0.110,-0.084,-22.392,152.687,-8.361
14:29:10:815,13.217,0.336,0.165,-0.026,-22.700,152.024,-11.062
14:29:10:815,13.217,0.411,0.240,0.020,-23.115,151.516,-14.462
14:29:10:816,13.218,0.521,0.345,0.082,-23.433,152.275,-17.225
14:29:10:834,13.236,0.755,0.308,-0.068,-23.976,154.075,-22.230
14:29:10:834,13.236,1.327,0.515,0.107,-24.356,155.857,-26.071
14:29:10:943,13.344,1.299,0.246,0.305,-24.836,159.848,-32.759
14:29:10:943,13.344,1.306,0.327,0.569,-26.414,163.396,-40.062
14:29:10:943,13.345,1.103,-0.293,0.281,-27.209,165.430,-44.615
14:29:10:945,13.346,0.543,-0.311,0.119,-24.990,168.839,-48.884
14:29:11:018,13.420,-0.445,-0.026,0.363,-23.169,170.872,-50.671
14:29:11:019,13.421,0.571,-1.128,-0.308,-20.706,174.102,-50.822
14:29:11:038,13.440,0.346,-0.889,-0.292,-18.779,175.889,-45.980
14:29:11:065,13.467,0.218,-0.646,-0.180,-20.044,174.382,-40.262
14:29:11:091,13.493,0.350,-0.428,-0.352,-20.423,172.935,-35.427
14:29:11:119,13.521,0.376,-0.222,-0.471,-19.710,171.125,-27.102
14:29:11:144,13.546,0.356,0.019,-0.473,-17.833,170.735,-18.102
14:29:11:171,13.573,0.278,0.176,-0.497,-16.441,171.093,-11.798
14:29:11:197,13.599,0.148,0.567,-0.422,-14.471,172.321,-1.949
14:29:11:253,13.655,-0.500,0.997,-0.232,-13.453,173.298,4.823
14:29:11:253,13.655,-1.065,0.791,-0.156,-12.687,174.602,14.822
14:29:11:275,13.677,-1.355,0.456,-0.001,-12.932,176.491,20.816
14:29:11:302,13.704,-1.816,-0.562,0.327,-14.683,-178.073,27.710
14:29:11:356,13.758,-1.177,-0.416,0.251,-18.028,-170.430,29.816
14:29:11:357,13.759,-1.184,-0.317,0.239,-18.947,-166.632,27.929
14:29:11:379,13.781,0.317,0.613,-1.153,-18.823,-162.497,23.830
14:29:11:408,13.810,-0.148,0.511,-0.387,-18.522,-160.919,21.809
14:29:11:433,13.835,-0.643,0.372,0.071,-17.955,-162.265,19.317
14:29:11:488,13.890,-0.457,0.167,0.590,-17.835,-165.954,17.517
14:29:11:489,13.891,-0.286,-0.422,0.155,-17.555,-167.480,16.163
14:29:11:541,13.943,-0.064,0.048,-0.039,-17.894,-166.723,13.874
14:29:11:541,13.943,-0.134,0.036,-0.076,-18.138,-165.878,12.531
14:29:11:564,13.966,-0.098,0.053,-0.063,-18.537,-165.285,11.143
14:29:11:591,13.993,0.001,0.009,-0.013,-18.836,-164.141,9.946
14:29:11:619,14.021,0.032,0.024,-0.048,-18.974,-163.258,9.241
14:29:11:62,14.022,0.152,0.028,-0.015,-19.055,-161.862,8.062
14:29:11:672,14.074,0.122,0.012,-0.026,-18.971,-162.524,7.064
14:29:11:697,14.099,0.034,0.008,-0.080,-18.719,-161.185,5.400
14:29:11:698,14.100,0.091,0.012,-0.040,-18.536,-160.464,4.283
14:29:11:751,14.153,0.077,0.013,-0.053,-18.230,-159.573,2.584
14:29:11:751,14.153,0.095,0.009,-0.120,-17.926,-158.811,0.766
14:29:11:803,14.205,0.039,0.033,-0.061,-17.791,-158.498,-0.462
14:29:11:804,14.206,0.017,0.027,-0.080,-17.659,-158.041,-2.339
14:29:11:826,14.228,-0.002,0.011,-0.078,-17.621,-157.656,-3.585
14:29:11:911,14.313,0.043,0.010,-0.090,-17.623,-156.919,-5.477
14:29:11:912,14.314,0.129,0.044,-0.184,-17.689,-156.163,-7.441
14:29:11:912,14.314,0.098,0.062,-0.169,-17.758,-155.767,-8.826
14:29:11:932,14.334,0.184,0.082,-0.111,-17.871,-155.381,-11.194
14:29:11:957,14.359,0.209,0.153,-0.219,-17.931,-155.099,-13.069
14:29:11:983,14.385,0.225,0.146,-0.246,-18.090,-154.647,-16.400
14:29:12:01,14.412,0.343,0.350,-0.357,-18.309,-154.256,-18.983
14:29:12:066,14.468,0.429,0.366,-0.523,-18.477,-152.945,-23.518
14:29:12:066,14.468,0.993,0.188,-0.971,-18.181,-150.279,-28.760
14:29:12:09,14.491,0.957,0.256,-0.736,-18.043,-148.391,-32.730
14:29:12:144,14.546,1.112,0.363,-0.474,-19.815,-147.047,-39.233
14:29:12:144,14.546,1.124,-0.048,-0.449,-21.383,-146.576,-43.686
14:29:12:196,14.598,0.708,-0.568,-0.218,-21.213,-146.044,-48.684
14:29:12:197,14.599,-0.233,-0.120,0.393,-19.406,-145.405,-51.579
14:29:12:249,14.651,0.458,-0.566,-0.075,-18.246,-145.178,-51.981
14:29:12:25,14.652,0.218,-1.053,-0.288,-15.909,-144.658,-51.073
14:29:12:301,14.703,0.107,-0.781,-0.191,-14.285,-144.922,-49.312
14:29:12:302,14.704,0.219,-0.619,-0.122,-12.806,-146.248,-45.054
14:29:12:325,14.727,0.322,-0.425,-0.165,-12.304,-147.517,-41.244
14:29:12:38,14.782,0.298,-0.316,-0.192,-11.496,-149.384,-34.311
14:29:12:38,14.782,0.233,-0.130,-0.222,-10.700,-150.996,-26.290
14:29:12:403,14.805,0.242,0.071,-0.244,-10.102,-151.674,-20.532
14:29:12:43,14.832,0.198,0.328,-0.231,-9.328,-152.289,-11.461
14:29:12:456,14.858,-0.011,0.699,-0.101,-8.973,-152.824,-5.095
14:29:12:512,14.914,-0.452,0.889,0.219,-8.605,-153.851,4.825
14:29:12:512,14.914,-0.780,0.656,0.544,-8.500,-154.211,14.379
14:29:12:565,14.967,-1.057,0.355,0.626,-8.737,-153.356,20.054
14:29:12:565,14.967,-1.448,-0.472,0.979,-10.423,-149.732,27.224
14:29:12:588,14.990,-0.549,-0.082,0.702,-12.463,-146.092,29.927
14:29:12:615,15.017,-0.609,-0.129,0.832,-14.527,-141.094,29.339
14:29:12:64,15.042,-0.878,-0.502,0.600,-15.771,-137.187,26.146
14:29:12:696,15.097,-0.229,0.329,-0.787,-15.941,-135.976,23.960
14:29:12:696,15.097,-0.395,0.071,-0.299,-15.250,-136.924,22.409
14:29:12:747,15.149,-0.519,0.460,0.057,-14.808,-138.799,21.627
14:29:12:748,15.150,0.177,0.329,0.976,-15.291,-139.799,19.803
14:29:12:772,15.174,-0.145,-0.373,0.064,-15.455,-141.183,18.756
14:29:12:824,15.226,0.096,-0.009,-0.168,-16.270,-140.726,15.751
14:29:12:88,15.282,0.018,0.052,0.080,-16.615,-140.770,14.906
14:29:12:88,15.282,0.012,0.013,0.091,-16.982,-139.467,13.240
14:29:12:932,15.334,0.009,0.027,-0.074,-17.125,-138.220,12.152
14:29:12:932,15.334,0.026,0.021,-0.062,-17.152,-136.828,10.616
14:29:12:955,15.357,0.014,-0.020,-0.026,-17.058,-135.525,8.986
14:29:12:983,15.385,-0.053,-0.009,-0.013,-16.988,-134.722,7.950
14:29:13:009,15.411,0.007,-0.014,-0.009,-16.928,-135.411,6.496
14:29:13:064,15.466,0.013,-0.001,-0.033,-16.889,-134.739,5.565
14:29:13:064,15.466,-0.018,-0.011,-0.086,-16.789,-135.517,4.129
14:29:13:115,15.517,0.016,0.007,-0.048,-16.754,-135.256,3.204
14:29:13:116,15.518,0.014,-0.009,-0.050,-16.796,-136.485,1.786
14:29:13:197,15.599,0.015,-0.012,-0.068,-16.877,-136.030,0.166
14:29:13:198,15.600,0.025,0.012,-0.063,-16.989,-137.114,-0.985
14:29:13:198,15.600,0.057,0.050,-0.073,-17.253,-136.530,-2.814
14:29:13:217,15.619,0.085,0.065,-0.104,-17.435,-137.320,-4.195
14:29:13:244,15.646,0.140,0.114,-0.107,-17.677,-136.378,-6.580
14:29:13:299,15.701,0.104,0.154,-0.270,-17.803,-135.198,-9.515
14:29:13:3,15.702,0.114,0.269,-0.308,-17.895,-134.457,-11.759
14:29:13:352,15.754,0.152,0.296,-0.406,-18.097,-133.059,-15.774
14:29:13:353,15.755,0.291,0.300,-0.743,-18.217,-131.719,-18.950
14:29:13:375,15.777,0.639,0.328,-1.061,-18.521,-130.136,-24.361
14:29:13:402,15.804,0.605,0.542,-1.073,-18.941,-128.416,-28.546
14:29:13:429,15.831,0.741,0.450,-0.986,-20.866,-126.502,-35.439
14:29:13:534,15.936,0.357,0.065,-0.694,-22.693,-124.727,-42.187
14:29:13:566,15.968,0.551,-0.602,-0.453,-21.846,-123.157,-45.476
14:29:13:566,15.968,-0.070,-0.127,0.561,-20.085,-121.194,-48.635
14:29:13:567,15.969,0.150,-0.946,-0.518,-19.094,-119.703,-49.292
14:29:13:588,15.990,-0.057,-1.153,-0.409,-16.473,-117.869,-48.514
14:29:13:589,15.991,-0.110,-0.826,-0.256,-14.534,-117.133,-45.548
14:29:13:669,16.071,-0.051,-0.677,-0.196,-13.841,-117.033,-42.593
14:29:13:67,16.072,-0.041,-0.590,-0.353,-13.157,-117.338,-36.619
14:29:13:671,16.073,-0.099,-0.406,-0.398,-12.786,-117.699,-31.746
14:29:13:751,16.153,-0.120,-0.121,-0.343,-12.013,-117.818,-23.506
14:29:13:752,16.154,-0.118,-0.016,-0.315,-11.282,-117.263,-17.565
14:29:13:753,16.155,-0.148,0.416,-0.306,-10.233,-115.527,-8.220
14:29:13:754,16.156,-0.258,0.826,-0.042,-9.601,-113.465,1.695
14:29:13:798,16.200,-0.413,1.025,0.436,-9.571,-111.983,8.453
14:29:13:799,16.201,-0.337,0.931,0.922,-10.429,-108.759,17.969
14:29:13:851,16.253,-0.364,-0.081,1.805,-11.591,-105.714,23.142
14:29:13:852,16.253,0.007,-0.578,1.705,-14.156,-101.175,28.854
14:29:13:903,16.305,-0.372,-0.276,1.151,-16.229,-97.292,29.541
14:29:13:903,16.305,-0.585,-0.575,1.398,-16.434,-95.515,27.566
14:29:13:926,16.328,-0.670,0.859,-1.180,-15.267,-95.895,24.369
14:29:14:011,16.413,-0.176,-0.018,1.101,-14.236,-98.587,23.418
14:29:14:011,16.413,0.112,0.271,0.563,-13.631,-102.980,21.546
14:29:14:012,16.414,0.432,0.057,0.533,-13.677,-105.079,19.378
14:29:14:09,16.492,-0.136,-0.138,0.327,-13.643,-105.900,18.011
14:29:14:09,16.492,-0.128,0.013,0.153,-13.911,-105.899,16.457
14:29:14:091,16.493,0.066,0.029,0.037,-14.245,-105.662,15.770
14:29:14:14,16.542,0.120,0.030,-0.007,-14.629,-105.571,14.933
14:29:14:141,16.543,0.094,0.003,-0.105,-14.787,-104.918,14.096
14:29:14:163,16.565,-0.012,0.017,-0.042,-14.845,-103.506,12.444
14:29:14:191,16.593,-0.020,-0.007,0.049,-14.797,-102.432,10.590
14:29:14:215,16.617,-0.018,-0.007,0.048,-14.748,-101.741,9.384
14:29:14:27,16.672,-0.012,-0.010,-0.052,-14.649,-100.486,7.639
14:29:14:271,16.673,0.027,-0.014,-0.099,-14.592,-99.692,6.501
14:29:14:323,16.725,0.013,-0.002,-0.063,-14.490,-98.966,4.847
14:29:14:323,16.725,-0.017,-0.002,-0.023,-14.391,-98.403,3.090
14:29:14:346,16.748,-0.011,-0.001,-0.078,-14.325,-97.918,1.790
14:29:14:373,16.775,0.005,0.007,-0.058,-14.294,-97.305,-0.258
14:29:14:399,16.801,-0.020,0.045,-0.036,-14.350,-96.945,-1.671
14:29:14:425,16.827,0.020,0.060,-0.084,-14.492,-96.447,-3.849
14:29:14:451,16.853,0.027,0.113,-0.120,-14.591,-96.091,-5.431
14:29:14:478,16.880,-0.034,0.235,-0.276,-14.622,-95.503,-8.382
14:29:14:504,16.906,-0.213,0.273,-0.251,-14.552,-94.798,-11.901
14:29:14:53,16.932,-0.058,0.333,-0.344,-14.546,-94.293,-14.640
14:29:14:558,16.960,-0.171,0.453,-0.483,-14.619,-93.224,-19.385
14:29:14:584,16.986,-0.285,0.497,-1.217,-14.523,-91.843,-23.014
14:29:14:638,17.040,-0.248,0.381,-1.358,-14.156,-88.541,-29.199
14:29:14:638,17.040,0.188,0.318,-1.398,-14.581,-85.863,-35.984
14:29:14:692,17.094,0.047,-0.226,-1.088,-14.934,-85.195,-40.390
14:29:14:692,17.094,0.221,-0.200,-0.533,-13.291,-84.162,-44.443
14:29:14:714,17.116,0.061,-0.265,0.137,-12.295,-83.505,-46.292
14:29:14:74,17.142,-0.122,-0.890,-0.442,-11.275,-82.312,-46.805
14:29:14:766,17.168,-0.272,-1.047,-0.325,-9.505,-81.423,-45.905
14:29:14:793,17.195,-0.261,-0.824,-0.231,-8.129,-81.440,-43.034
14:29:14:819,17.221,-0.076,-0.598,-0.270,-8.763,-83.270,-38.450
14:29:14:874,17.276,-0.095,-0.506,-0.316,-9.350,-84.940,-34.406
14:29:14:875,17.277,-0.139,-0.282,-0.249,-9.640,-87.551,-27.089
14:29:14:897,17.299,-0.132,-0.099,-0.160,-9.384,-88.990,-21.513
14:29:14:953,17.355,-0.170,0.069,-0.147,-8.309,-90.071,-12.479
14:29:14:954,17.356,-0.131,0.428,-0.102,-7.004,-90.112,-2.740
14:29:15:007,17.409,-0.050,0.673,0.050,-6.233,-90.062,4.156
14:29:15:007,17.409,0.181,1.041,0.780,-5.450,-90.376,14.827
14:29:15:057,17.459,0.467,0.581,1.631,-5.456,-90.241,21.535
14:29:15:058,17.460,0.235,-0.157,1.901,-6.926,-88.657,30.035
14:29:15:081,17.483,0.765,-0.739,1.739,-9.424,-85.197,35.367
14:29:15:137,17.539,0.463,-0.037,0.614,-11.169,-82.628,34.951
14:29:15:137,17.539,-0.270,-0.336,0.830,-11.026,-81.701,31.147
14:29:15:16,17.562,-1.045,0.783,-0.119,-10.271,-82.237,28.699
14:29:15:186,17.588,0.204,-0.052,0.918,-9.330,-84.158,25.420
14:29:15:242,17.644,-0.025,0.398,0.406,-9.191,-85.815,23.236
14:29:15:242,17.644,-0.130,-0.016,1.013,-8.957,-90.478,20.701
14:29:15:266,17.668,0.079,0.055,0.420,-9.157,-91.126,17.983
14:29:15:291,17.693,-0.018,0.020,0.337,-9.632,-90.059,16.427
14:29:15:376,17.778,-0.085,0.004,0.066,-10.285,-88.770,14.856
14:29:15:377,17.779,0.043,-0.004,0.140,-10.700,-89.188,14.366
14:29:15:378,17.780,0.070,0.030,0.202,-11.288,-89.875,13.976
14:29:15:425,17.827,0.057,0.024,0.140,-11.797,-88.946,13.576
14:29:15:426,17.828,-0.028,-0.012,0.027,-12.149,-87.796,13.297
14:29:15:478,17.880,0.032,-0.001,-0.119,-12.735,-86.242,12.720
14:29:15:478,17.880,0.075,0.007,-0.138,-13.026,-85.225,12.029
14:29:15:501,17.903,-0.055,0.041,-0.058,-13.203,-83.786,10.488
14:29:15:527,17.929,-0.019,0.020,-0.035,-13.191,-83.033,8.644
14:29:15:554,17.956,0.013,0.021,0.010,-13.146,-82.769,7.310
14:29:15:581,17.983,-0.028,0.024,0.054,-13.086,-83.250,5.173
14:29:15:607,18.009,-0.012,0.011,0.053,-13.083,-83.064,3.738
14:29:15:662,18.064,0.015,0.056,0.069,-13.173,-83.639,1.636
14:29:15:663,18.065,-0.039,0.040,-0.046,-13.238,-83.286,0.212
14:29:15:685,18.087,-0.059,0.073,-0.081,-13.341,-83.409,-2.107
14:29:15:742,18.144,-0.089,0.215,-0.136,-13.373,-82.941,-4.851
14:29:15:742,18.144,-0.195,0.257,-0.100,-13.413,-83.347,-6.941
14:29:15:764,18.166,-0.054,0.346,-0.271,-13.444,-82.857,-10.669
14:29:15:791,18.192,-0.236,0.471,-0.430,-13.455,-82.928,-13.626
14:29:15:816,18.218,-0.472,0.533,-0.627,-13.393,-81.323,-18.771
14:29:15:842,18.244,-0.551,0.368,-1.187,-12.924,-78.492,-24.743
14:29:15:868,18.270,-0.215,0.389,-1.331,-12.859,-76.653,-29.131
14:29:15:895,18.297,-0.060,0.242,-1.206,-13.807,-75.364,-36.137
14:29:15:921,18.323,0.107,-0.520,-0.856,-13.869,-75.031,-40.246
14:29:15:948,18.350,0.112,0.173,-0.419,-12.407,-74.802,-43.793
14:29:15:975,18.377,-0.066,-0.677,-0.573,-11.792,-75.007,-45.516
14:29:16:,18.402,-0.149,-0.937,-0.312,-11.506,-75.051,-45.323
14:29:16:026,18.428,-0.222,-0.971,-0.194,-9.821,-75.203,-43.458
14:29:16:082,18.484,-0.030,-0.752,-0.281,-9.009,-76.009,-41.125
14:29:16:083,18.485,0.030,-0.587,-0.310,-9.143,-78.581,-36.095
14:29:16:106,18.508,0.002,-0.394,-0.305,-9.461,-81.021,-31.788
14:29:16:132,18.534,0.009,-0.202,-0.307,-9.318,-84.978,-24.150
14:29:16:161,18.562,0.011,0.068,-0.213,-8.379,-88.374,-15.358
14:29:16:161,18.562,0.027,0.214,-0.180,-7.420,-89.803,-9.075
14:29:16:213,18.615,0.055,0.669,0.009,-5.922,-90.878,0.862
14:29:16:214,18.616,0.233,0.999,0.337,-5.013,-91.050,7.809
14:29:16:266,18.668,0.495,0.715,1.370,-4.481,-90.724,18.294
14:29:16:267,18.669,0.306,0.020,1.789,-5.919,-88.317,27.454
14:29:16:347,18.749,0.683,-0.965,2.133,-7.621,-85.921,32.308
14:29:16:348,18.750,0.403,0.392,0.908,-11.034,-81.693,35.432
14:29:16:349,18.751,0.080,-0.597,1.229,-12.198,-79.791,33.569
14:29:16:398,18.800,-1.165,0.773,-0.108,-11.091,-80.613,29.597
14:29:16:398,18.800,-0.091,0.010,0.633,-10.053,-82.334,27.390
14:29:16:42,18.822,0.053,0.140,0.710,-8.576,-86.438,24.262
14:29:16:447,18.849,1.195,0.018,0.601,-8.535,-89.771,21.093
14:29:16:474,18.876,-0.209,0.007,0.707,-8.760,-92.198,19.251
14:29:16:526,18.928,0.033,0.037,0.460,-9.223,-92.476,16.222
14:29:16:584,18.986,-0.050,0.014,0.110,-9.683,-91.463,14.471
14:29:16:584,18.986,-0.005,0.032,0.046,-10.303,-90.432,12.590
14:29:16:585,18.987,0.048,0.009,0.240,-10.818,-90.969,11.506
14:29:16:603,19.005,0.033,0.018,0.164,-11.123,-90.543,10.864
14:29:16:631,19.033,-0.040,-0.017,0.051,-11.479,-89.013,10.001
14:29:16:709,19.111,-0.041,-0.014,0.026,-11.715,-88.373,9.550
14:29:16:739,19.141,0.042,0.008,0.017,-12.036,-87.850,8.909
14:29:16:74,19.142,-0.003,-0.002,0.012,-12.306,-87.018,8.061
14:29:16:764,19.166,-0.038,0.012,-0.006,-12.452,-86.539,7.386
14:29:16:765,19.167,-0.031,0.006,-0.009,-12.660,-86.092,6.199
14:29:16:817,19.219,0.000,0.005,-0.014,-12.803,-85.796,5.270
14:29:16:817,19.219,-0.005,0.026,0.024,-13.084,-85.384,3.699
14:29:16:899,19.301,-0.017,0.041,-0.092,-13.285,-85.019,2.507
14:29:16:9,19.302,-0.023,0.044,-0.150,-13.543,-85.659,0.323
14:29:16:9,19.302,0.020,0.172,-0.151,-13.728,-85.228,-2.422
14:29:16:919,19.321,-0.093,0.238,-0.013,-13.793,-85.942,-4.595
14:29:16:945,19.347,-0.132,0.338,-0.142,-13.823,-85.236,-8.287
14:29:17:001,19.403,-0.067,0.386,-0.274,-13.872,-85.566,-11.137
14:29:17:001,19.403,-0.257,0.432,-0.525,-13.901,-83.998,-16.060
14:29:17:055,19.457,-0.437,0.530,-0.960,-14.003,-82.227,-21.724
14:29:17:055,19.457,-0.398,0.440,-1.041,-14.054,-80.139,-25.942
14:29:17:077,19.479,-0.154,0.290,-1.181,-14.295,-77.124,-32.690
14:29:17:104,19.505,-0.036,-0.219,-0.782,-14.300,-75.767,-37.060
14:29:17:128,19.530,0.109,-0.349,-0.553,-13.201,-74.936,-41.463
14:29:17:184,19.586,0.107,-0.304,-0.099,-12.305,-73.914,-43.232
14:29:17:185,19.587,-0.320,-0.877,-0.518,-10.508,-72.190,-43.854
14:29:17:239,19.641,-0.342,-1.054,-0.327,-8.296,-70.906,-42.188
14:29:17:24,19.642,-0.229,-0.851,-0.273,-8.478,-71.411,-40.025
14:29:17:26,19.662,-0.108,-0.560,-0.289,-10.430,-74.112,-35.317
14:29:17:287,19.689,-0.130,-0.397,-0.278,-11.553,-76.617,-31.147
14:29:17:313,19.715,-0.158,-0.190,-0.220,-12.146,-80.504,-23.575
14:29:17:339,19.741,-0.185,0.060,-0.132,-11.363,-83.257,-14.943
14:29:17:365,19.767,-0.182,0.183,-0.090,-10.294,-83.924,-8.854
14:29:17:421,19.823,-0.102,0.527,0.027,-8.674,-83.587,0.786
14:29:17:421,19.823,0.062,0.822,0.216,-7.867,-82.898,7.526
14:29:17:444,19.845,0.495,0.732,1.246,-7.511,-82.160,17.793
14:29:17:559,19.960,0.462,0.435,1.383,-8.208,-81.227,24.225
14:29:17:559,19.960,0.601,-0.472,1.791,-10.778,-78.005,32.267
14:29:17:559,19.960,0.654,-0.802,1.182,-14.727,-72.524,36.274
14:29:17:559,19.961,0.340,-0.147,1.216,-16.700,-69.160,35.198
14:29:17:602,20.004,-0.642,0.199,0.535,-17.275,-65.827,31.323
14:29:17:63,20.032,-0.385,0.452,0.034,-16.718,-65.730,29.378
14:29:17:631,20.033,0.327,0.045,0.947,-14.926,-69.822,27.824
14:29:17:654,20.056,0.812,-0.019,0.461,-14.474,-73.535,25.977
14:29:17:683,20.085,0.904,0.055,0.188,-14.521,-74.807,24.679
14:29:17:706,20.108,0.045,-0.155,0.473,-14.563,-75.920,22.872
14:29:17:733,20.135,-0.054,0.027,0.281,-14.860,-75.956,21.954
14:29:17:79,20.191,0.009,0.024,0.034,-15.556,-75.959,20.956
14:29:17:791,20.192,0.144,0.022,0.088,-15.886,-76.169,20.372
14:29:17:811,20.213,0.082,0.016,-0.004,-16.354,-75.281,19.102
14:29:17:837,20.239,-0.046,0.018,0.032,-16.638,-73.950,17.576
14:29:17:864,20.266,0.011,-0.013,0.088,-16.762,-73.156,16.418
14:29:17:892,20.294,0.013,-0.009,0.111,-16.923,-71.834,14.563
14:29:17:918,20.320,-0.043,0.011,0.041,-17.073,-70.193,12.730
14:29:17:973,20.375,-0.057,0.001,-0.031,-17.133,-69.053,11.493
14:29:17:974,20.376,-0.051,0.014,-0.003,-17.085,-67.959,9.650
14:29:18:024,20.426,-0.015,-0.001,0.080,-17.019,-67.671,8.451
14:29:18:025,20.427,-0.044,0.017,0.073,-17.016,-67.187,6.527
14:29:18:049,20.451,-0.024,0.031,0.072,-17.069,-66.882,5.195
14:29:18:074,20.476,-0.050,0.010,0.073,-17.325,-66.454,3.156
14:29:18:1,20.502,-0.038,0.036,-0.012,-17.680,-65.221,1.008
14:29:18:126,20.528,0.050,0.111,-0.052,-17.900,-64.874,-0.592
14:29:18:153,20.555,-0.182,0.242,-0.117,-18.168,-63.350,-3.419
14:29:18:208,20.610,-0.208,0.259,-0.014,-18.287,-62.698,-5.598
14:29:18:209,20.611,-0.279,0.341,-0.193,-18.528,-60.825,-9.518
14:29:18:232,20.634,-0.544,0.501,-0.250,-18.934,-58.704,-14.398
14:29:18:258,20.660,-0.782,0.614,-0.418,-19.275,-57.131,-18.163
14:29:18:287,20.689,-0.790,0.562,-0.689,-19.718,-53.021,-24.632
14:29:18:339,20.741,-0.589,0.344,-0.849,-20.006,-49.854,-29.234
14:29:18:34,20.742,-0.411,-0.159,-0.368,-20.312,-46.042,-35.982
14:29:18:363,20.764,-0.409,-0.488,-0.443,-18.976,-43.583,-39.273
14:29:18:392,20.794,0.647,-0.274,0.181,-16.807,-39.883,-42.442
14:29:18:392,20.794,-0.550,-1.013,-0.049,-15.456,-36.512,-43.147
14:29:18:415,20.817,-0.585,-1.110,0.057,-14.084,-34.574,-42.373
14:29:18:442,20.844,-0.423,-0.842,0.102,-13.660,-33.515,-39.441
14:29:18:494,20.896,-0.297,-0.599,-0.054,-14.317,-33.943,-36.465
14:29:18:524,20.926,-0.386,-0.433,-0.062,-15.720,-35.971,-30.370
14:29:18:524,20.926,-0.299,-0.183,0.006,-16.316,-38.706,-22.606
14:29:18:576,20.978,-0.277,-0.034,0.088,-16.082,-40.110,-16.778
14:29:18:577,20.979,-0.275,0.200,0.163,-14.988,-40.438,-7.669
14:29:18:599,21.001,-0.192,0.615,0.246,-14.252,-39.519,-1.271
14:29:18:654,21.056,0.227,0.879,0.447,-13.800,-37.314,8.843
14:29:18:655,21.057,1.134,0.733,0.754,-14.247,-35.546,15.358
14:29:18:765,21.167,1.001,0.358,1.027,-16.283,-32.349,23.831
14:29:18:765,21.167,1.847,-0.767,0.758,-18.894,-27.825,29.643
14:29:18:782,21.184,-1.050,0.569,0.379,-20.962,-18.860,24.501
14:29:18:896,21.298,0.110,0.112,0.495,-19.838,-20.596,22.920
14:29:18:897,21.299,0.476,0.298,0.601,-18.786,-24.816,21.836
14:29:18:898,21.300,0.485,0.176,0.123,-18.768,-26.013,20.662
14:29:18:899,21.301,0.061,-0.119,0.007,-18.811,-27.737,18.974
14:29:18:943,21.345,0.295,-0.150,0.205,-18.829,-28.707,18.158
14:29:18:944,21.346,0.053,0.016,0.181,-19.281,-28.745,16.898
14:29:18:994,21.396,0.069,0.058,-0.006,-19.597,-28.754,16.246
14:29:19:024,21.426,0.096,0.023,-0.002,-19.946,-28.454,15.242
14:29:19:024,21.426,-0.133,0.017,-0.016,-20.113,-27.085,13.905
14:29:19:045,21.447,-0.043,0.015,0.036,-20.127,-26.142,12.834
14:29:19:072,21.474,0.010,-0.007,0.077,-20.063,-24.757,11.091
14:29:19:127,21.529,-0.050,-0.011,0.043,-19.985,-23.654,9.898
14:29:19:127,21.529,-0.116,-0.011,0.029,-19.890,-22.010,8.149
14:29:19:208,21.610,-0.063,0.007,0.054,-19.787,-20.609,6.433
14:29:19:209,21.611,-0.090,-0.010,0.089,-19.673,-19.779,5.270
14:29:19:209,21.611,-0.080,0.003,0.091,-19.537,-19.044,3.568
14:29:19:228,21.630,-0.059,0.014,0.080,-19.533,-17.989,2.456
14:29:19:255,21.657,-0.024,-0.017,0.075,-19.654,-17.679,0.734
14:29:19:281,21.683,-0.014,0.008,0.035,-19.876,-16.314,-1.044
14:29:19:308,21.710,-0.115,0.021,0.035,-20.030,-15.837,-2.341
14:29:19:363,21.764,-0.113,0.052,0.039,-20.313,-14.362,-4.500
14:29:19:364,21.765,-0.137,0.160,0.045,-20.471,-13.857,-6.173
14:29:19:387,21.789,-0.225,0.168,0.222,-20.666,-11.978,-9.103
14:29:19:413,21.815,-0.277,0.287,0.113,-20.836,-11.318,-11.287
14:29:19:44,21.842,-0.364,0.313,0.084,-21.070,-9.324,-15.116
14:29:19:495,21.897,-0.670,0.375,0.326,-21.232,-7.191,-19.767
14:29:19:495,21.897,-1.203,0.404,0.377,-21.244,-4.783,-23.361
14:29:19:548,21.950,-1.170,0.363,0.192,-21.331,-1.203,-29.563
14:29:19:548,21.950,-1.100,0.331,-0.089,-22.412,0.209,-33.951
14:29:19:57,21.972,-0.913,-0.125,-0.079,-24.148,1.691,-40.474
14:29:19:596,21.998,-0.742,-0.511,-0.110,-23.108,4.223,-45.089
14:29:19:622,22.024,0.041,-0.141,-0.036,-22.035,5.605,-47.252
14:29:19:678,22.080,-0.552,-0.868,0.126,-20.186,8.562,-48.095
14:29:19:679,22.081,-0.390,-1.122,0.248,-18.397,9.768,-47.324
14:29:19:701,22.103,-0.222,-0.799,0.273,-16.498,10.159,-44.345
14:29:19:728,22.130,-0.306,-0.591,0.160,-15.888,9.099,-39.398
14:29:19:754,22.156,-0.326,-0.515,0.176,-15.697,7.816,-35.057
14:29:19:834,22.236,-0.306,-0.309,0.231,-15.028,5.602,-27.345
14:29:19:865,22.267,-0.284,-0.097,0.237,-14.356,4.256,-21.589
14:29:19:866,22.268,-0.214,0.144,0.243,-12.942,3.166,-12.395
14:29:19:867,22.269,-0.122,0.558,0.258,-11.961,3.079,-5.936
14:29:19:886,22.288,0.218,0.927,0.158,-10.775,3.409,4.296
14:29:19:912,22.314,1.175,0.859,-0.234,-10.217,3.926,14.542
14:29:19:966,22.368,1.447,0.546,-0.318,-10.660,5.016,20.771
14:29:19:967,22.369,2.029,-0.722,-0.615,-12.575,8.444,28.266
14:29:20:016,22.418,1.453,-0.860,-0.701,-14.412,11.765,30.894
14:29:20:184,22.586,0.939,-0.672,-0.314,-16.496,17.151,28.972
14:29:20:184,22.586,0.018,0.509,0.946,-16.204,18.872,25.504
14:29:20:185,22.587,-0.015,0.318,0.386,-15.523,17.657,24.149
14:29:20:186,22.588,0.638,0.332,0.122,-14.530,13.972,22.670
14:29:20:237,22.639,0.127,0.075,-0.500,-14.661,12.386,21.273
14:29:20:237,22.639,-0.013,-0.077,-0.320,-15.059,11.115,19.187
14:29:20:238,22.640,0.350,-0.046,0.009,-15.255,10.221,17.933
14:29:20:238,22.640,0.142,0.076,0.084,-15.699,9.213,16.466
14:29:20:254,22.656,0.069,0.071,-0.058,-16.311,9.109,15.056
14:29:20:282,22.684,0.112,0.033,-0.117,-16.637,9.031,14.245
14:29:20:283,22.685,-0.087,0.030,0.056,-16.885,9.531,13.114
14:29:20:363,22.765,-0.052,-0.010,0.069,-16.969,10.345,12.096
14:29:20:364,22.766,0.027,-0.012,0.061,-17.003,11.325,10.362
14:29:20:365,22.767,0.042,-0.013,0.061,-17.020,12.315,8.607
14:29:20:384,22.786,0.005,-0.006,0.081,-17.040,13.085,7.482
14:29:20:41,22.812,0.024,-0.013,0.067,-16.887,14.107,5.943
14:29:20:466,22.868,0.021,-0.006,0.068,-16.894,14.733,4.883
14:29:20:467,22.869,-0.029,0.005,0.083,-16.826,15.463,3.278
14:29:20:489,22.891,-0.006,-0.006,0.082,-16.693,15.760,2.261
14:29:20:545,22.947,-0.027,-0.002,0.070,-16.756,16.157,0.606
14:29:20:545,22.947,-0.087,-0.008,0.079,-16.942,18.164,-1.161
14:29:20:568,22.970,-0.195,0.036,0.063,-17.105,18.463,-2.509
14:29:20:594,22.996,-0.185,0.117,0.066,-17.275,20.314,-4.976
14:29:20:623,23.025,-0.051,0.201,0.091,-17.307,20.605,-6.906
14:29:20:624,23.026,-0.164,0.306,0.169,-17.297,22.678,-10.393
14:29:20:647,23.049,-0.252,0.397,0.387,-17.327,24.135,-14.641
14:29:20:673,23.075,-0.305,0.353,0.526,-17.420,26.592,-17.929
14:29:20:701,23.103,-0.673,0.440,0.792,-17.765,28.786,-23.549
14:29:20:725,23.127,-0.768,0.440,0.896,-18.140,30.784,-27.799
14:29:20:781,23.183,-1.165,0.254,0.739,-18.605,34.739,-34.775
14:29:20:781,23.183,-0.987,-0.257,0.603,-19.018,37.589,-41.565
14:29:20:833,23.235,-0.427,-0.529,0.108,-18.153,38.869,-44.714
14:29:20:834,23.236,-0.019,-0.339,0.013,-16.959,41.597,-47.361
14:29:20:886,23.288,-0.328,-1.049,0.550,-16.825,42.759,-47.672
14:29:20:886,23.288,-0.216,-1.184,0.490,-14.268,45.472,-45.993
14:29:20:938,23.340,-0.081,-0.900,0.332,-13.539,45.717,-43.613
14:29:20:939,23.341,-0.137,-0.601,0.277,-14.263,44.982,-38.488
14:29:20:962,23.364,-0.064,-0.425,0.405,-15.043,42.679,-31.623
14:29:20:988,23.390,-0.055,-0.313,0.429,-14.980,41.277,-26.303
14:29:21:014,23.416,0.064,-0.023,0.414,-14.375,39.866,-17.620
14:29:21:094,23.496,0.174,0.281,0.437,-13.661,39.664,-11.546
14:29:21:122,23.524,0.179,0.536,0.319,-12.599,40.031,-1.980
14:29:21:123,23.525,0.566,0.896,-0.250,-11.904,40.126,8.135
14:29:21:208,23.610,0.850,0.726,-0.670,-11.573,40.300,14.633
14:29:21:208,23.610,0.978,0.543,-1.085,-11.857,41.987,23.318
14:29:21:208,23.610,1.175,-0.392,-1.478,-13.037,44.728,28.002
14:29:21:209,23.611,0.942,-0.631,-1.645,-16.571,50.846,31.620
14:29:21:254,23.656,0.633,-0.382,-1.014,-17.862,54.325,30.458
14:29:21:254,23.656,0.513,0.581,1.157,-17.530,56.236,26.837
14:29:21:276,23.678,0.698,0.205,-0.696,-16.395,53.848,24.922
14:29:21:303,23.705,0.457,0.148,-0.561,-15.918,51.573,23.578
14:29:21:33,23.732,-0.137,-0.005,-0.627,-15.884,48.689,21.680
14:29:21:355,23.757,0.049,-0.120,-0.065,-16.055,47.291,20.488
14:29:21:523,23.925,0.283,-0.003,-0.201,-16.367,46.637,18.731
14:29:21:523,23.925,0.188,0.040,0.006,-17.044,46.947,17.324
14:29:21:523,23.925,0.068,0.024,-0.049,-17.486,46.881,16.699
14:29:21:524,23.926,-0.015,0.008,-0.076,-18.027,47.092,15.758
14:29:21:544,23.946,-0.056,0.006,0.044,-18.287,47.841,14.943
14:29:21:545,23.947,-0.005,0.009,0.143,-18.620,49.197,13.327
14:29:21:546,23.948,0.055,-0.010,0.011,-18.809,49.916,12.087
14:29:21:565,23.967,0.069,0.005,-0.026,-19.057,51.196,10.135
14:29:21:677,24.079,-0.007,-0.008,0.115,-19.216,52.817,8.158
14:29:21:678,24.080,0.013,-0.008,0.107,-19.272,53.689,6.844
14:29:21:679,24.081,0.029,0.004,0.073,-19.348,54.434,4.870
14:29:21:7,24.102,0.077,0.049,0.069,-19.441,54.762,3.532
14:29:21:701,24.103,0.079,-0.006,0.069,-19.715,55.340,1.407
14:29:21:889,24.291,0.056,0.005,0.029,-20.178,55.876,-0.667
14:29:21:89,24.292,0.055,0.026,0.061,-20.572,58.194,-2.087
14:29:21:891,24.293,-0.032,0.155,0.069,-21.243,59.167,-4.357
14:29:21:891,24.293,-0.009,0.249,0.340,-21.661,61.708,-6.100
14:29:21:935,24.337,0.147,0.200,0.333,-22.167,63.206,-9.173
14:29:21:994,24.396,0.012,0.342,0.415,-22.749,66.102,-12.910
14:29:21:995,24.397,0.151,0.402,0.593,-23.221,67.389,-15.986
14:29:21:996,24.398,0.380,0.460,1.010,-23.786,71.830,-21.668
14:29:21:997,24.399,-0.001,0.000,0.000,-156.336,-113.573,113.392
14:29:22:012,24.414,-0.305,0.384,1.385,-25.325,79.528,-33.211
14:29:22:043,24.445,-0.114,0.297,1.003,-26.860,81.468,-37.801
14:29:22:044,24.446,-0.280,-0.647,0.806,-26.284,85.134,-43.370
14:29:22:044,24.446,-0.337,-0.125,-0.353,-24.083,89.930,-46.699
14:29:22:149,24.551,0.335,-1.193,0.693,-22.721,92.751,-47.392
14:29:22:15,24.552,0.532,-1.044,0.312,-19.759,95.532,-46.180
14:29:22:15,24.552,0.405,-0.793,0.217,-18.632,96.149,-43.989
14:29:22:231,24.633,0.254,-0.636,0.299,-17.905,95.604,-39.085
14:29:22:232,24.634,0.321,-0.438,0.293,-17.827,94.258,-34.677
14:29:22:232,24.634,0.279,-0.303,0.273,-16.980,91.740,-26.778
14:29:22:233,24.635,0.250,-0.035,0.194,-15.118,90.123,-18.097
14:29:22:25,24.652,0.285,0.158,0.169,-13.491,90.046,-12.024
14:29:22:331,24.733,0.199,0.555,0.079,-11.162,91.233,-2.447
14:29:22:332,24.734,0.010,0.953,-0.342,-9.931,92.459,4.346
14:29:22:358,24.760,-0.382,0.768,-1.245,-9.013,94.267,14.622
14:29:22:359,24.761,-0.103,0.211,-1.660,-10.320,97.098,23.792
14:29:22:406,24.808,-0.900,-0.822,-2.082,-12.009,99.988,28.624
14:29:22:485,24.887,-0.490,-0.352,-1.162,-14.699,104.970,31.403
14:29:22:514,24.916,0.700,0.240,0.153,-15.504,107.658,29.165
14:29:22:599,25.001,0.940,0.560,-0.194,-14.701,108.757,25.549
14:29:22:599,25.001,-0.306,-0.009,-0.841,-13.674,105.911,23.275
14:29:22:6,25.002,0.156,0.582,-0.740,-13.501,102.977,21.917
14:29:22:601,25.003,-0.420,0.078,-0.422,-13.694,99.825,19.985
14:29:22:678,25.080,-0.038,0.052,-0.412,-13.963,99.478,18.515
14:29:22:679,25.081,0.146,0.057,-0.182,-14.522,100.377,16.735
14:29:22:68,25.082,0.024,0.057,0.041,-15.171,100.876,15.581
14:29:22:681,25.083,-0.134,0.028,0.029,-15.474,100.735,14.930
14:29:22:756,25.158,0.012,0.000,0.095,-15.715,102.063,13.321
14:29:22:756,25.158,0.112,0.007,0.086,-15.782,103.124,12.036
14:29:22:757,25.159,0.058,-0.002,0.020,-15.850,104.210,10.001
14:29:22:758,25.160,0.028,-0.001,-0.028,-15.891,104.971,8.629
14:29:22:773,25.174,0.079,-0.008,0.023,-15.875,106.331,6.609
14:29:22:825,25.227,0.095,-0.006,0.073,-15.814,107.362,4.587
14:29:22:933,25.335,0.048,0.024,0.087,-15.761,107.608,3.194
14:29:22:934,25.336,0.051,0.016,-0.034,-15.734,107.868,1.043
14:29:22:967,25.369,0.070,-0.001,-0.009,-15.937,108.499,-2.495
14:29:22:969,25.371,0.110,0.057,0.079,-16.198,109.031,-4.709
14:29:22:969,25.371,0.086,0.089,0.139,-16.376,109.194,-6.382
14:29:23:018,25.420,0.183,0.268,0.174,-16.554,109.794,-9.374
14:29:23:018,25.420,0.328,0.248,0.147,-16.625,110.021,-11.759
14:29:23:018,25.420,0.243,0.349,0.393,-16.773,110.753,-15.997
14:29:23:094,25.496,0.444,0.488,0.427,-16.920,111.442,-19.366
14:29:23:095,25.497,0.838,0.583,0.934,-16.750,113.781,-25.297
14:29:23:095,25.497,0.890,0.408,1.313,-16.194,117.431,-32.161
14:29:23:143,25.545,0.531,0.157,1.318,-16.802,118.607,-37.017
14:29:23:144,25.546,0.152,-0.493,0.905,-17.290,119.386,-43.506
14:29:23:197,25.599,0.150,0.071,0.411,-16.478,119.815,-45.999
14:29:23:198,25.600,-0.433,-0.268,-0.389,-15.976,119.592,-48.640
14:29:23:248,25.650,0.319,-1.137,0.376,-14.881,120.461,-48.723
14:29:23:249,25.651,0.316,-1.073,0.211,-13.710,120.451,-47.552
14:29:23:3,25.702,0.185,-0.805,0.083,-12.900,119.172,-44.291
14:29:23:301,25.703,0.097,-0.652,0.238,-12.987,117.543,-41.079
14:29:23:324,25.726,0.170,-0.514,0.326,-13.050,114.193,-34.729
14:29:23:38,25.782,0.141,-0.293,0.211,-12.717,111.605,-29.609
14:29:23:38,25.782,0.135,-0.109,0.213,-11.456,108.054,-20.918
14:29:23:46,25.862,0.090,0.166,0.224,-9.451,105.776,-11.394
14:29:23:46,25.862,0.065,0.554,0.138,-8.072,104.943,-4.651
14:29:23:513,25.915,-0.319,1.140,-0.186,-6.168,104.275,5.957
14:29:23:514,25.916,-0.635,1.038,-1.008,-5.355,103.940,13.139
14:29:23:515,25.917,-0.673,0.402,-1.534,-5.899,105.881,22.772
14:29:23:563,25.965,-1.400,-1.060,-2.253,-7.860,109.104,29.952
14:29:23:564,25.966,-1.202,-0.692,-1.105,-9.021,111.170,31.260
14:29:23:674,26.076,-0.176,-0.347,-1.064,-9.360,112.455,27.588
14:29:23:675,26.077,-0.002,0.564,-0.276,-8.142,111.083,24.667
14:29:23:676,26.078,-0.581,-0.007,-0.810,-7.916,109.147,20.597
14:29:23:676,26.078,-0.398,0.757,-0.464,-8.238,106.007,17.189
14:29:23:692,26.094,-0.288,-0.397,-0.676,-8.658,102.655,15.007
14:29:23:748,26.150,-0.198,0.086,-0.316,-9.279,102.624,11.589
14:29:23:748,26.150,0.090,-0.001,-0.155,-9.710,104.316,9.362
14:29:23:828,26.230,0.192,0.042,-0.043,-10.143,105.521,7.199
14:29:23:829,26.231,-0.036,-0.023,-0.089,-10.548,105.381,6.163
14:29:23:83,26.232,-0.057,0.041,-0.203,-11.027,105.273,4.964
14:29:23:849,26.251,0.070,-0.005,0.024,-11.372,106.771,3.885
14:29:23:875,26.277,0.107,-0.023,0.040,-11.602,107.545,3.297
14:29:23:901,26.303,-0.045,0.019,-0.029,-11.981,107.992,2.526
14:29:24:008,26.410,0.033,0.012,0.049,-12.198,108.555,1.943
14:29:24:038,26.440,0.072,0.011,0.023,-12.442,109.587,0.951
14:29:24:039,26.441,0.043,0.012,0.030,-12.671,110.303,-0.168
14:29:24:066,26.468,0.047,-0.001,0.038,-12.782,110.744,-0.956
14:29:24:066,26.468,0.022,0.041,-0.007,-12.997,111.334,-2.325
14:29:24:067,26.469,-0.012,0.034,0.014,-13.143,111.778,-3.266
14:29:24:086,26.488,0.105,0.029,0.121,-13.342,112.819,-4.788
14:29:24:112,26.514,0.217,0.110,0.167,-13.433,113.222,-6.012
14:29:24:217,26.619,0.195,0.268,0.198,-13.532,113.791,-8.343
14:29:24:252,26.654,0.281,0.262,0.286,-13.558,114.218,-11.524
14:29:24:253,26.655,0.257,0.371,0.369,-13.561,114.541,-14.187
14:29:24:253,26.655,0.465,0.548,0.540,-13.555,115.233,-19.176
14:29:24:254,26.656,0.863,0.637,1.065,-13.455,116.390,-23.106
14:29:24:27,26.672,0.611,0.489,1.206,-13.003,119.382,-29.614
14:29:24:297,26.699,0.450,0.180,1.159,-13.053,121.011,-34.211
14:29:24:351,26.753,0.099,-0.384,0.698,-12.382,122.438,-40.839
14:29:24:351,26.753,-0.040,0.110,0.132,-11.923,122.377,-44.870
14:29:24:404,26.806,0.398,-0.438,0.478,-12.317,122.057,-46.697
14:29:24:404,26.806,0.434,-0.997,0.344,-12.473,122.272,-47.641
14:29:24:427,26.829,0.203,-0.721,0.131,-11.839,121.904,-47.139
14:29:24:512,26.914,0.085,-0.738,0.150,-12.309,120.066,-44.829
14:29:24:513,26.915,0.048,-0.606,0.236,-13.533,117.095,-40.696
14:29:24:513,26.915,0.047,-0.521,0.175,-13.915,114.880,-36.954
14:29:24:589,26.991,0.084,-0.373,0.163,-13.388,111.934,-30.204
14:29:24:59,26.992,0.116,-0.280,0.144,-12.508,110.525,-25.187
14:29:24:591,26.993,0.133,-0.102,0.185,-10.709,109.402,-17.078
14:29:24:61,27.012,0.080,0.204,0.162,-9.090,108.928,-8.242
14:29:24:8,27.202,-0.038,0.520,0.064,-8.200,108.759,-1.921
14:29:24:801,27.203,-0.318,0.854,-0.392,-7.426,108.015,8.210
14:29:24:802,27.204,-0.648,0.755,-1.127,-7.471,107.716,14.868
14:29:24:83,27.232,-0.544,0.294,-1.371,-8.524,109.523,23.499
14:29:24:831,27.233,-1.255,-1.258,-2.119,-10.518,112.490,29.274
14:29:24:832,27.234,-0.660,-0.251,-0.544,-11.466,114.219,29.195
14:29:24:832,27.234,0.062,-0.252,0.394,-10.785,113.914,24.815
14:29:24:849,27.251,1.032,0.566,-1.017,-10.614,113.246,22.812
14:29:24:875,27.277,0.041,0.491,-0.633,-10.117,111.828,19.078
14:29:24:876,27.278,-0.608,0.280,-0.160,-10.226,111.052,16.537
14:29:24:899,27.301,0.333,0.469,-0.646,-10.819,105.988,13.815
14:29:24:958,27.360,-0.312,-0.010,-0.605,-11.031,103.058,11.074
14:29:24:958,27.360,-0.076,0.109,-0.220,-11.425,104.174,9.332
14:29:24:959,27.361,0.138,0.042,0.007,-11.870,106.007,7.512
14:29:25:004,27.406,0.079,-0.015,0.065,-12.313,106.010,6.806
14:29:25:033,27.435,-0.017,0.040,-0.070,-12.974,105.525,6.061
14:29:25:034,27.436,-0.059,0.009,-0.047,-13.245,106.113,5.488
14:29:25:085,27.487,0.072,-0.021,0.090,-13.440,107.010,4.495
14:29:25:086,27.488,0.108,-0.004,0.074,-13.680,107.326,3.610
14:29:25:139,27.541,0.001,0.015,0.060,-13.855,107.774,3.019
14:29:25:139,27.541,0.062,0.000,0.136,-13.954,108.075,1.857
14:29:25:162,27.564,0.144,-0.010,0.115,-13.994,108.705,0.952
14:29:25:217,27.619,0.063,0.005,0.079,-14.122,108.401,-0.527
14:29:25:218,27.620,0.059,0.019,0.078,-14.285,108.823,-2.214
14:29:25:24,27.642,0.050,0.006,0.053,-14.398,108.258,-3.370
14:29:25:266,27.668,0.050,0.024,0.106,-14.596,108.716,-5.147
14:29:25:293,27.695,0.123,0.029,0.114,-14.760,108.532,-6.428
14:29:25:32,27.722,0.059,0.094,0.200,-15.047,109.046,-8.548
14:29:25:346,27.748,0.072,0.165,0.244,-15.215,108.915,-11.181
14:29:25:372,27.774,0.226,0.245,0.224,-15.253,109.421,-13.281
14:29:25:398,27.800,0.212,0.391,0.443,-15.336,109.754,-17.135
14:29:25:424,27.826,0.422,0.400,0.576,-15.406,110.598,-20.305
14:29:25:451,27.852,0.534,0.433,0.930,-15.575,112.363,-25.931
14:29:25:476,27.878,0.480,0.427,1.064,-15.838,114.087,-30.134
14:29:25:502,27.904,0.527,0.357,1.181,-16.015,117.845,-36.967
14:29:25:56,27.962,0.478,-0.432,1.056,-14.893,121.705,-43.731
14:29:25:56,27.962,0.022,-0.477,0.300,-13.162,123.392,-46.924
14:29:25:581,27.983,-0.465,-0.247,-0.268,-10.042,125.878,-49.518
14:29:25:666,28.068,0.482,-1.304,0.343,-9.147,126.564,-49.902
14:29:25:667,28.069,0.445,-1.285,0.230,-8.900,127.201,-48.449
14:29:25:668,28.070,0.207,-0.819,0.165,-11.346,125.920,-45.073
14:29:25:687,28.089,0.209,-0.592,0.150,-13.422,124.159,-41.797
14:29:25:8,28.202,0.379,-0.437,0.150,-15.068,121.277,-35.387
14:29:25:8,28.202,0.400,-0.314,0.123,-15.086,119.576,-30.329
14:29:25:801,28.203,0.444,-0.015,0.111,-14.020,117.814,-21.918
14:29:25:848,28.250,0.402,0.271,0.083,-12.907,117.227,-15.857
14:29:25:848,28.250,0.315,0.537,0.019,-11.390,116.965,-6.110
14:29:25:873,28.275,-0.056,1.024,-0.301,-10.270,116.231,4.298
14:29:25:874,28.276,-0.489,0.906,-0.883,-9.546,115.323,11.137
14:29:25:897,28.299,-0.806,0.254,-0.908,-8.894,115.911,20.161
14:29:25:923,28.325,-1.157,-0.459,-1.291,-9.639,119.052,25.036
14:29:26:006,28.408,-1.008,-0.668,-0.869,-13.382,127.273,29.080
14:29:26:007,28.409,-0.875,-0.397,-0.882,-16.185,134.788,27.750
14:29:26:09,28.492,-0.161,-0.352,-0.782,-17.403,139.263,25.205
14:29:26:09,28.492,1.288,0.478,0.272,-17.448,142.377,21.651
14:29:26:091,28.493,0.550,0.299,-0.359,-16.747,140.868,20.874
14:29:26:092,28.494,-0.394,0.382,-0.770,-15.625,136.522,20.055
14:29:26:106,28.508,-0.450,0.194,0.357,-15.865,135.461,18.208
14:29:26:194,28.596,-0.161,-0.056,0.219,-15.978,134.581,17.015
14:29:26:194,28.596,-0.206,-0.036,-0.206,-15.993,132.899,15.714
14:29:26:194,28.596,0.033,0.039,-0.094,-16.213,132.629,14.875
14:29:26:299,28.701,-0.028,0.037,0.002,-16.599,132.475,13.850
14:29:26:3,28.702,-0.089,0.021,-0.007,-16.847,132.514,13.207
14:29:26:301,28.703,0.045,0.011,0.106,-17.131,133.153,12.224
14:29:26:301,28.703,0.083,0.021,0.084,-17.251,134.223,11.043
14:29:26:317,28.719,0.036,0.001,0.036,-17.253,134.965,10.069
14:29:26:431,28.833,0.016,-0.006,-0.024,-17.195,136.216,8.529
14:29:26:431,28.833,0.054,0.004,0.054,-17.158,137.168,7.515
14:29:26:432,28.834,0.063,-0.003,0.028,-17.075,138.726,6.038
14:29:26:433,28.835,0.150,-0.020,0.070,-16.887,140.235,4.637
14:29:26:448,28.850,0.111,-0.018,0.036,-16.803,140.861,3.516
14:29:26:474,28.876,0.066,0.001,0.024,-16.737,141.334,1.821
14:29:26:501,28.903,0.096,-0.009,0.035,-16.755,141.633,0.602
14:29:26:529,28.931,0.066,0.031,0.009,-16.958,141.855,-1.281
14:29:26:612,29.014,0.024,0.033,0.018,-17.199,142.027,-2.570
14:29:26:612,29.014,0.100,0.080,0.105,-17.573,142.703,-4.701
14:29:26:613,29.015,0.121,0.125,0.100,-17.892,143.574,-7.156
14:29:26:632,29.034,0.113,0.186,0.046,-18.070,144.150,-8.998
14:29:26:658,29.060,0.232,0.251,0.042,-18.291,145.341,-12.179
14:29:26:713,29.115,0.427,0.323,0.053,-18.483,146.373,-14.656
14:29:26:714,29.116,0.660,0.422,0.004,-18.810,148.507,-19.093
14:29:26:795,29.197,1.242,0.461,0.069,-19.081,151.450,-24.301
14:29:26:796,29.198,1.267,0.397,0.187,-19.178,154.268,-28.489
14:29:26:797,29.199,0.921,0.229,0.542,-20.390,157.474,-34.839
14:29:26:816,29.218,0.786,0.062,0.459,-21.044,159.178,-38.930
14:29:26:842,29.244,0.553,-0.552,0.389,-19.276,162.716,-43.060
14:29:26:956,29.358,-0.602,-0.111,0.208,-17.982,164.664,-44.977
14:29:26:956,29.358,0.572,-0.892,-0.055,-16.264,167.660,-45.626
14:29:26:956,29.358,0.508,-1.084,-0.164,-14.093,169.566,-44.078
14:29:26:957,29.359,0.301,-0.743,-0.193,-13.543,169.702,-41.944
14:29:26:973,29.375,0.302,-0.609,-0.056,-13.471,168.471,-37.201
14:29:27:028,29.430,0.353,-0.438,-0.075,-13.631,167.034,-33.046
14:29:27:029,29.431,0.360,-0.320,-0.108,-13.367,164.500,-25.557
14:29:27:081,29.483,0.278,-0.028,-0.090,-12.350,162.469,-17.095
14:29:27:081,29.483,0.221,0.156,-0.112,-11.373,161.840,-11.084
14:29:27:105,29.507,0.105,0.552,-0.174,-9.865,162.045,-1.629
14:29:27:131,29.533,-0.183,0.862,-0.170,-8.969,162.757,4.900
14:29:27:19,29.592,-0.907,0.822,-0.229,-8.138,164.359,14.672
14:29:27:19,29.592,-1.583,0.335,-0.056,-8.594,167.240,23.439
14:29:27:191,29.593,-1.652,-0.152,-0.070,-9.903,170.114,28.366
14:29:27:212,29.614,-1.673,-0.964,0.192,-13.407,176.082,32.282
14:29:27:235,29.637,-1.178,-0.256,0.025,-15.173,-179.983,31.164
14:29:27:29,29.692,-0.027,0.298,-0.732,-16.101,-175.284,27.390
14:29:27:291,29.693,0.885,0.709,-1.134,-15.941,-174.277,25.359
14:29:27:341,29.743,-0.759,-0.074,-0.017,-14.549,-177.122,23.962
14:29:27:367,29.769,-0.640,0.288,0.086,-14.045,179.890,22.414
14:29:27:396,29.798,-0.417,0.086,0.702,-14.124,178.938,21.264
14:29:27:396,29.798,-0.080,-0.252,-0.024,-14.115,177.736,19.610
14:29:27:419,29.821,-0.167,0.064,-0.076,-14.333,177.327,18.802
14:29:27:446,29.848,-0.104,0.011,0.022,-14.809,176.993,17.859
14:29:27:501,29.903,-0.011,0.026,0.137,-15.228,177.235,16.852
14:29:27:502,29.904,-0.025,0.018,0.077,-15.414,177.860,16.044
14:29:27:524,29.926,0.033,0.031,0.008,-15.588,178.998,14.699
14:29:27:61,30.011,-0.007,-0.002,0.003,-15.614,179.778,13.685
14:29:27:61,30.011,-0.021,-0.004,-0.029,-15.617,-178.716,12.013
14:29:27:61,30.012,0.012,-0.005,-0.024,-15.602,-177.582,10.900
14:29:27:629,30.031,-0.006,-0.004,0.009,-15.589,-176.223,9.271
14:29:27:685,30.087,0.059,-0.007,-0.051,-15.505,-174.729,7.664
14:29:27:685,30.087,-0.003,-0.004,-0.043,-15.470,-174.273,6.620
14:29:27:738,30.140,-0.007,0.000,-0.045,-15.446,-173.687,5.006
14:29:27:739,30.141,0.016,-0.002,-0.023,-15.457,-173.383,3.855
14:29:27:761,30.163,-0.016,0.013,-0.011,-15.583,-172.967,2.052
14:29:27:816,30.218,0.044,0.074,-0.030,-15.834,-172.445,0.176
14:29:27:817,30.219,0.124,0.046,-0.024,-16.005,-172.010,-1.221
14:29:27:841,30.242,0.097,0.212,0.006,-16.214,-171.364,-3.605
14:29:27:866,30.268,0.130,0.179,-0.179,-16.269,-170.617,-5.501
14:29:27:892,30.294,0.121,0.209,-0.234,-16.368,-169.177,-8.780
14:29:27:918,30.320,0.340,0.317,-0.141,-16.527,-167.748,-12.609
14:29:27:945,30.347,0.414,0.387,-0.366,-16.656,-166.467,-15.539
14:29:27:97,30.372,1.082,0.363,-0.691,-16.765,-163.723,-20.648
14:29:27:996,30.398,0.989,0.317,-0.785,-16.956,-161.800,-24.611
14:29:28:052,30.454,1.077,0.400,-0.350,-18.480,-159.967,-31.048
14:29:28:053,30.455,1.008,0.100,-0.162,-19.832,-159.091,-35.490
14:29:28:076,30.478,0.686,-0.530,-0.074,-19.962,-157.705,-41.127
14:29:28:102,30.504,-0.159,-0.083,0.103,-18.516,-156.133,-44.622
14:29:28:128,30.530,0.617,-0.647,-0.279,-17.361,-155.217,-45.419
14:29:28:154,30.556,0.256,-1.059,-0.317,-14.717,-154.323,-44.721
14:29:28:182,30.584,0.048,-0.821,-0.100,-12.900,-154.497,-43.046
14:29:28:236,30.638,0.148,-0.756,-0.063,-11.178,-155.931,-38.984
14:29:28:237,30.639,0.296,-0.605,-0.114,-10.160,-158.403,-33.097
14:29:28:289,30.691,0.300,-0.322,-0.081,-9.492,-160.468,-28.299
14:29:28:29,30.691,0.331,0.024,-0.025,-8.444,-163.824,-20.133
14:29:28:311,30.713,0.281,0.150,0.032,-7.593,-165.834,-14.205
14:29:28:337,30.739,0.134,0.550,0.150,-6.253,-168.089,-4.792
14:29:28:364,30.766,-0.305,0.899,0.374,-4.970,-168.850,5.147
14:29:28:419,30.821,-0.848,0.847,0.575,-4.578,-168.111,11.808
14:29:28:42,30.822,-1.260,0.381,0.617,-5.556,-164.077,21.033
14:29:28:472,30.874,-1.210,-0.012,0.441,-7.407,-159.937,26.294
14:29:28:473,30.875,-1.184,-0.833,0.883,-11.038,-153.417,32.004
14:29:28:496,30.898,-1.113,-0.329,0.439,-13.829,-149.316,33.246
14:29:28:522,30.924,-1.130,-0.540,0.455,-16.436,-144.455,31.421
14:29:28:548,30.950,-0.657,0.350,-0.859,-17.082,-142.429,28.023
14:29:28:576,30.978,1.240,0.569,-0.797,-15.881,-144.408,26.071
14:29:28:602,31.004,-1.129,-0.023,-0.134,-13.674,-151.080,25.699
14:29:28:628,31.030,-1.198,0.123,-0.041,-12.234,-155.537,25.165
14:29:28:653,31.055,0.085,0.234,0.243,-12.282,-157.184,23.128
14:29:28:679,31.081,-0.252,-0.133,0.383,-12.791,-158.412,21.153
14:29:28:735,31.137,-0.400,-0.118,0.155,-12.784,-160.211,20.254
14:29:28:735,31.137,-0.098,0.032,-0.101,-13.178,-160.477,18.792
14:29:28:787,31.189,0.022,0.066,0.099,-13.664,-159.822,17.819
14:29:28:788,31.190,-0.054,-0.020,0.184,-13.950,-160.174,16.870
14:29:28:84,31.242,0.115,0.026,-0.001,-14.108,-159.252,15.964
14:29:28:84,31.242,0.018,-0.003,-0.043,-14.231,-157.819,14.251
14:29:28:863,31.265,-0.117,-0.019,0.034,-14.301,-157.072,12.587
14:29:28:918,31.320,-0.039,-0.015,0.007,-14.361,-156.327,11.495
14:29:28:919,31.321,-0.014,-0.007,-0.056,-14.457,-155.048,9.867
14:29:28:943,31.345,-0.030,-0.010,0.003,-14.502,-154.391,8.826
14:29:28:968,31.370,0.010,0.007,-0.011,-14.526,-153.605,7.279
14:29:29:026,31.428,-0.016,0.024,-0.021,-14.569,-153.058,5.739
14:29:29:026,31.428,-0.046,0.014,-0.017,-14.619,-152.757,4.702
14:29:29:074,31.476,0.036,0.005,-0.034,-14.735,-152.217,3.074
14:29:29:102,31.504,0.055,0.012,-0.049,-14.848,-151.851,1.858
14:29:29:102,31.504,0.122,0.062,-0.025,-15.001,-151.390,-0.291
14:29:29:125,31.527,0.112,0.125,0.041,-15.007,-150.902,-2.927
14:29:29:152,31.554,0.058,0.218,-0.098,-14.932,-150.363,-4.999
14:29:29:207,31.609,0.096,0.317,-0.230,-14.855,-149.381,-8.477
14:29:29:208,31.610,0.191,0.411,-0.297,-14.897,-148.528,-11.140
14:29:29:258,31.660,0.234,0.407,-0.474,-15.069,-146.927,-15.763
14:29:29:287,31.689,0.536,0.508,-0.795,-15.213,-144.100,-21.348
14:29:29:287,31.689,0.687,0.505,-0.729,-15.317,-141.529,-25.417
14:29:29:309,31.711,0.802,0.152,-0.550,-15.505,-137.552,-31.765
14:29:29:336,31.738,0.333,-0.308,-0.298,-15.342,-135.139,-35.699
14:29:29:362,31.764,0.416,-0.491,-0.266,-13.726,-131.546,-39.529
14:29:29:388,31.790,0.283,-0.549,-0.265,-12.945,-129.554,-41.054
14:29:29:415,31.817,0.140,-1.043,-0.607,-11.657,-125.935,-41.017
14:29:29:442,31.844,-0.092,-0.919,-0.572,-10.173,-123.174,-38.622
14:29:29:469,31.871,-0.037,-0.774,-0.438,-10.461,-122.557,-35.983
14:29:29:47,31.872,-0.004,-0.485,-0.391,-11.796,-123.162,-30.601
14:29:29:493,31.895,-0.014,-0.352,-0.407,-12.426,-124.031,-26.163
14:29:29:548,31.950,-0.107,-0.079,-0.353,-12.710,-125.292,-18.503
14:29:29:549,31.951,-0.165,0.157,-0.303,-12.088,-125.227,-10.058
14:29:29:601,32.003,-0.220,0.312,-0.233,-11.480,-124.224,-4.129
14:29:29:601,32.003,-0.211,0.631,-0.075,-10.905,-122.001,5.134
14:29:29:681,32.083,-0.462,0.814,0.608,-10.937,-120.472,11.502
14:29:29:682,32.084,-0.606,0.514,1.100,-11.818,-117.817,20.373
14:29:29:706,32.108,-0.637,-0.056,1.357,-13.175,-115.921,25.649
14:29:29:707,32.109,-0.487,-0.911,2.060,-16.008,-111.785,31.451
14:29:29:729,32.131,-0.485,-0.217,0.892,-18.869,-106.630,31.434
14:29:29:756,32.158,-0.793,-0.525,1.028,-19.060,-104.677,29.055
14:29:29:782,32.184,-0.855,0.585,-0.916,-17.769,-105.225,26.225
14:29:29:809,32.211,-0.315,0.026,1.208,-16.850,-107.392,25.220
14:29:29:863,32.265,0.946,0.306,0.981,-16.431,-110.397,23.300
14:29:29:946,32.348,-0.195,-0.383,0.464,-15.865,-113.535,21.739
14:29:29:946,32.348,-0.077,0.007,0.323,-15.913,-113.450,20.530
14:29:29:997,32.399,0.046,0.042,0.118,-16.822,-112.767,18.720
14:29:30:047,32.449,-0.034,0.024,-0.024,-17.667,-109.709,15.389
14:29:30:048,32.450,-0.029,-0.006,0.022,-17.745,-108.122,13.483
14:29:30:071,32.473,-0.077,-0.009,0.000,-17.709,-107.041,12.143
14:29:30:125,32.527,-0.050,0.007,-0.027,-17.632,-105.738,10.168
14:29:30:153,32.555,-0.020,0.012,-0.011,-17.539,-105.151,8.874
14:29:30:153,32.555,-0.094,-0.001,0.036,-17.316,-104.461,6.842
14:29:30:177,32.579,-0.063,0.018,0.025,-17.144,-104.105,4.785
14:29:30:23,32.632,-0.077,0.027,0.040,-17.082,-103.962,3.452
14:29:30:231,32.633,-0.102,0.006,0.106,-17.121,-103.479,1.557
14:29:30:254,32.656,-0.095,0.025,0.065,-17.221,-103.185,0.332
14:29:30:31,32.712,-0.054,0.007,-0.025,-17.431,-102.421,-1.543
14:29:30:311,32.713,-0.052,0.114,-0.185,-17.588,-101.921,-2.916
14:29:30:362,32.764,-0.046,0.191,-0.159,-17.781,-101.240,-5.287
14:29:30:363,32.765,-0.138,0.216,-0.227,-17.968,-100.408,-8.249
14:29:30:415,32.817,-0.059,0.354,-0.343,-18.113,-99.861,-10.641
14:29:30:416,32.818,-0.200,0.454,-0.512,-18.371,-98.348,-15.063
14:29:30:441,32.843,-0.393,0.505,-1.244,-18.475,-96.585,-18.650
14:29:30:466,32.868,-0.373,0.378,-1.226,-18.430,-92.619,-24.969
14:29:30:491,32.893,0.192,0.417,-1.262,-19.505,-89.821,-31.860
14:29:30:516,32.918,0.113,-0.028,-0.872,-20.598,-88.599,-36.439
14:29:30:543,32.945,0.113,-0.446,-0.637,-20.070,-86.625,-41.647
14:29:30:598,33.000,0.046,-0.202,0.300,-19.234,-84.761,-43.957
14:29:30:599,33.001,-0.117,-0.968,-0.512,-18.242,-83.055,-45.256
14:29:30:621,33.023,-0.288,-1.053,-0.251,-16.136,-81.300,-44.126
14:29:30:65,33.052,-0.279,-0.904,-0.153,-14.952,-81.305,-42.272
14:29:30:676,33.078,-0.150,-0.723,-0.266,-14.106,-81.656,-38.003
14:29:30:701,33.103,-0.171,-0.485,-0.345,-13.858,-82.925,-34.162
14:29:30:757,33.159,-0.165,-0.289,-0.340,-13.371,-85.606,-27.051
14:29:30:757,33.159,-0.179,-0.015,-0.293,-12.869,-87.583,-21.691
14:29:30:779,33.181,-0.166,0.141,-0.241,-11.508,-89.881,-12.803
14:29:30:835,33.237,-0.128,0.526,-0.107,-9.851,-90.964,-3.208
14:29:30:836,33.238,-0.009,0.931,0.078,-8.825,-91.180,3.563
14:29:30:859,33.260,0.230,0.914,0.799,-7.720,-91.310,13.602
14:29:30:885,33.287,0.396,0.366,1.606,-7.822,-90.489,19.696
14:29:30:968,33.370,0.251,-0.172,1.492,-10.120,-86.753,27.187
14:29:30:969,33.371,0.673,-0.593,1.426,-12.603,-82.620,30.886
14:29:30:97,33.372,0.280,-0.049,0.749,-13.790,-80.343,29.729
14:29:31:019,33.421,-0.623,-0.169,0.900,-13.143,-80.575,26.221
14:29:31:019,33.421,-0.843,0.557,-0.441,-12.237,-82.397,24.348
14:29:31:042,33.444,0.162,-0.017,0.792,-11.395,-86.032,22.118
14:29:31:07,33.472,0.258,0.399,0.273,-11.656,-88.250,20.591
14:29:31:095,33.497,0.209,0.094,0.555,-11.921,-91.668,18.801
14:29:31:15,33.552,-0.083,0.000,0.465,-12.207,-92.155,16.895
14:29:31:151,33.553,-0.142,0.051,0.123,-12.706,-91.201,15.700
14:29:31:173,33.575,-0.082,0.061,-0.046,-13.412,-90.910,14.418
14:29:31:2,33.602,0.066,0.008,0.161,-13.846,-91.217,13.451
14:29:31:282,33.684,0.035,0.007,0.008,-14.049,-90.421,12.688
14:29:31:282,33.684,-0.105,0.000,-0.168,-14.248,-88.903,11.365
14:29:31:307,33.709,-0.092,-0.013,-0.101,-14.357,-88.250,10.303
14:29:31:308,33.710,-0.048,-0.005,-0.004,-14.552,-87.344,8.535
14:29:31:33,33.732,-0.073,0.010,-0.016,-14.643,-86.674,7.331
14:29:31:386,33.788,-0.062,0.001,-0.090,-14.750,-85.681,5.517
14:29:31:386,33.788,-0.066,0.008,-0.031,-14.694,-85.283,3.775
14:29:31:409,33.811,-0.037,-0.009,-0.043,-14.740,-85.066,2.470
14:29:31:435,33.837,-0.055,0.014,-0.022,-14.864,-85.551,0.488
14:29:31:491,33.893,-0.046,0.046,-0.059,-14.948,-85.299,-0.826
14:29:31:492,33.894,-0.080,0.048,-0.091,-15.116,-85.639,-2.867
14:29:31:514,33.916,-0.110,0.068,-0.156,-15.286,-85.075,-5.205
14:29:31:541,33.943,-0.099,0.197,-0.182,-15.385,-85.271,-7.049
14:29:31:567,33.969,-0.259,0.272,-0.223,-15.467,-84.851,-10.313
14:29:31:621,34.023,-0.128,0.351,-0.370,-15.504,-85.238,-12.871
14:29:31:648,34.050,-0.187,0.369,-0.521,-15.606,-84.727,-17.423
14:29:31:649,34.051,-0.260,0.542,-0.784,-15.716,-84.373,-20.885
14:29:31:672,34.074,-0.312,0.480,-1.094,-15.849,-82.629,-26.649
14:29:31:698,34.100,-0.160,0.281,-1.224,-15.667,-79.618,-33.266
14:29:31:725,34.127,-0.136,-0.044,-1.170,-15.669,-77.868,-37.795
14:29:31:753,34.155,0.022,-0.465,-0.520,-14.427,-75.890,-43.323
14:29:31:754,34.156,0.018,-0.071,-0.588,-13.049,-74.630,-45.615
14:29:31:806,34.208,-0.262,-0.618,-0.646,-12.139,-73.422,-47.698
14:29:31:806,34.208,-0.387,-1.155,-0.481,-11.581,-72.617,-47.857
14:29:31:861,34.263,-0.317,-0.913,-0.296,-11.562,-72.890,-46.228
14:29:31:861,34.263,-0.154,-0.694,-0.261,-13.309,-74.839,-42.622
14:29:31:913,34.315,-0.290,-0.542,-0.246,-14.630,-76.849,-39.102
14:29:31:913,34.315,-0.312,-0.439,-0.269,-15.204,-80.015,-32.359
14:29:31:935,34.337,-0.304,-0.159,-0.228,-14.244,-82.651,-24.253
14:29:31:961,34.363,-0.321,-0.033,-0.207,-13.032,-83.750,-18.327
14:29:31:987,34.389,-0.302,0.361,-0.168,-10.930,-84.503,-8.686
14:29:32:014,34.415,-0.188,0.748,-0.129,-9.625,-84.640,-1.807
14:29:32:039,34.441,0.064,1.218,0.468,-8.181,-84.616,8.953
14:29:32:065,34.467,0.694,0.896,1.468,-7.734,-84.132,15.830
14:29:32:121,34.523,0.453,-0.196,1.682,-8.975,-82.122,24.624
14:29:32:121,34.523,0.911,-0.640,1.807,-10.987,-79.215,30.322
14:29:32:145,34.547,0.564,-0.308,0.926,-11.856,-77.289,29.846
14:29:32:171,34.573,-1.219,0.549,-0.165,-11.258,-77.363,25.833
14:29:32:197,34.599,-0.122,0.200,1.077,-10.489,-78.629,23.231
14:29:32:252,34.654,0.352,0.106,0.846,-10.314,-79.944,19.249
14:29:32:278,34.680,0.736,0.390,0.337,-10.781,-82.835,15.770
14:29:32:279,34.681,0.381,-0.431,0.577,-11.024,-85.883,13.781
14:29:32:302,34.704,0.013,0.110,0.379,-11.645,-86.311,10.849
14:29:32:359,34.761,-0.082,0.015,-0.048,-12.000,-84.959,9.219
14:29:32:36,34.762,-0.103,-0.007,0.038,-12.586,-83.577,7.476
14:29:32:381,34.782,-0.028,0.044,0.197,-13.001,-83.733,6.824
14:29:32:436,34.838,0.038,0.004,0.109,-13.595,-83.614,6.179
14:29:32:437,34.839,-0.041,-0.010,-0.019,-14.027,-82.258,5.617
14:29:32:459,34.861,-0.114,-0.008,-0.025,-14.280,-81.483,5.326
14:29:32:486,34.888,0.008,0.001,0.001,-14.681,-80.855,4.980
14:29:32:541,34.943,-0.002,0.007,-0.016,-14.906,-80.291,4.663
14:29:32:542,34.944,-0.086,0.003,-0.076,-15.168,-79.259,3.985
14:29:32:622,35.024,-0.099,-0.003,-0.103,-15.333,-78.647,3.352
14:29:32:623,35.025,-0.078,0.013,-0.114,-15.572,-77.940,2.024
14:29:32:624,35.026,-0.029,0.014,-0.073,-15.835,-77.404,0.290
14:29:32:643,35.045,-0.075,0.049,-0.234,-16.016,-76.991,-1.060
14:29:32:669,35.071,-0.136,0.090,-0.103,-16.282,-76.381,-3.475
14:29:32:725,35.127,-0.093,0.229,-0.124,-16.491,-76.057,-5.348
14:29:32:725,35.127,-0.218,0.300,-0.223,-16.678,-75.300,-8.701
14:29:32:748,35.150,-0.304,0.351,-0.305,-16.806,-74.441,-12.643
14:29:32:774,35.176,-0.308,0.399,-0.408,-16.910,-73.739,-15.834
14:29:32:801,35.203,-0.602,0.485,-0.667,-17.102,-72.166,-21.324
14:29:32:827,35.229,-0.778,0.517,-1.057,-17.047,-70.188,-25.562
14:29:32:853,35.255,-0.599,0.267,-1.327,-16.969,-66.678,-32.653
14:29:32:88,35.282,-0.441,0.012,-1.313,-17.839,-64.982,-39.857
14:29:32:932,35.334,-0.118,0.065,-0.618,-16.328,-64.262,-46.890
14:29:32:958,35.360,-0.289,-0.635,-0.557,-16.217,-64.351,-47.655
14:29:33:013,35.415,-0.264,-1.108,-0.209,-15.491,-64.189,-47.207
14:29:33:014,35.416,-0.236,-0.948,-0.135,-14.167,-64.942,-44.358
14:29:33:037,35.439,-0.113,-0.810,-0.234,-13.975,-66.233,-41.369
14:29:33:092,35.494,-0.092,-0.571,-0.250,-14.539,-69.591,-35.243
14:29:33:093,35.495,-0.173,-0.391,-0.219,-14.454,-72.154,-30.193
14:29:33:174,35.576,-0.152,-0.166,-0.178,-13.380,-75.619,-21.527
14:29:33:175,35.577,-0.144,0.068,-0.137,-12.252,-77.228,-15.260
14:29:33:175,35.577,-0.147,0.372,-0.068,-10.353,-78.502,-5.222
14:29:33:194,35.596,0.044,0.947,0.146,-8.668,-78.797,5.569
14:29:33:25,35.652,0.379,1.153,0.673,-7.894,-79.005,12.979
14:29:33:251,35.653,0.796,0.559,1.446,-8.108,-77.950,23.279
14:29:33:274,35.676,0.629,-0.090,1.635,-9.757,-75.456,29.022
14:29:33:3,35.702,1.004,-1.099,1.273,-12.965,-70.745,34.130
14:29:33:326,35.727,0.487,-0.649,1.319,-14.802,-67.199,31.870
14:29:33:352,35.754,-0.043,-0.303,0.978,-14.407,-66.245,28.826
14:29:33:432,35.834,-0.765,0.491,-0.291,-13.665,-66.589,24.979
14:29:33:463,35.865,0.354,0.152,0.834,-12.869,-68.521,22.948
14:29:33:464,35.866,0.148,0.429,0.489,-12.697,-71.357,19.670
14:29:33:464,35.866,-0.291,0.110,0.692,-12.888,-73.827,17.885
14:29:33:483,35.885,0.300,-0.089,0.354,-13.049,-75.410,14.835
14:29:33:509,35.911,-0.126,0.072,0.233,-13.556,-74.369,12.262
14:29:33:564,35.966,-0.086,0.031,0.048,-13.906,-73.408,10.984
14:29:33:592,35.994,0.010,-0.011,0.138,-14.514,-73.468,9.789
14:29:33:592,35.994,0.032,0.025,0.190,-14.873,-73.509,9.257
14:29:33:615,36.017,-0.026,-0.006,0.058,-15.298,-72.417,8.476
14:29:33:642,36.044,-0.083,-0.021,0.028,-15.680,-71.197,7.868
14:29:33:696,36.097,-0.050,0.012,0.049,-15.959,-70.746,7.573
14:29:33:697,36.098,0.005,0.004,0.022,-16.328,-69.992,7.055
14:29:33:719,36.121,-0.115,0.004,-0.012,-16.506,-69.301,6.596
14:29:33:745,36.147,-0.128,0.008,-0.056,-16.775,-68.361,5.694
14:29:33:772,36.174,-0.092,-0.006,-0.087,-16.952,-67.881,4.910
14:29:33:798,36.200,-0.080,-0.008,-0.084,-17.196,-67.233,3.315
14:29:33:824,36.226,-0.088,0.020,-0.066,-17.472,-66.726,1.279
14:29:33:85,36.252,-0.120,0.053,-0.115,-17.680,-66.313,-0.323
14:29:33:877,36.279,-0.078,0.112,-0.041,-18.033,-65.752,-3.082
14:29:33:903,36.305,-0.123,0.220,-0.046,-18.249,-67.145,-5.177
14:29:33:929,36.331,-0.287,0.330,-0.254,-18.476,-66.381,-8.817
14:29:33:958,36.360,-0.289,0.400,-0.331,-18.698,-66.696,-13.181
14:29:34:014,36.416,-0.576,0.408,-0.366,-18.908,-65.484,-16.712
14:29:34:015,36.417,-0.906,0.599,-0.869,-19.316,-64.025,-22.809
14:29:34:016,36.418,-0.934,0.561,-0.999,-19.675,-61.679,-27.418
14:29:34:064,36.466,-0.753,0.260,-1.395,-20.018,-57.543,-34.998
14:29:34:065,36.467,-0.466,-0.413,-0.826,-20.287,-55.689,-40.008
14:29:34:116,36.518,-0.131,-0.282,-0.483,-18.727,-53.962,-44.969
14:29:34:117,36.519,0.536,-0.275,0.383,-18.414,-52.865,-47.734
14:29:34:169,36.571,-0.607,-1.048,-0.268,-18.137,-51.661,-48.020
14:29:34:17,36.572,-0.401,-1.189,-0.094,-15.876,-50.133,-46.477
14:29:34:192,36.594,-0.209,-0.845,-0.072,-15.553,-50.123,-44.039
14:29:34:218,36.620,-0.248,-0.613,-0.104,-16.677,-51.780,-38.804
14:29:34:244,36.646,-0.359,-0.442,-0.147,-17.290,-54.513,-31.552
14:29:34:3,36.702,-0.320,-0.239,-0.076,-17.074,-56.374,-25.857
14:29:34:301,36.703,-0.333,-0.023,-0.002,-15.810,-58.167,-16.562
14:29:34:324,36.726,-0.364,0.185,0.067,-14.685,-58.427,-10.016
14:29:34:349,36.751,-0.228,0.704,0.138,-13.219,-57.595,0.351
14:29:34:406,36.808,0.425,1.119,0.745,-12.579,-56.297,11.276
14:29:34:431,36.833,0.767,0.840,1.019,-12.642,-55.451,18.366
14:29:34:432,36.834,1.216,0.130,1.342,-14.094,-52.864,27.596
14:29:34:481,36.883,1.548,-1.233,1.312,-16.241,-49.322,32.083
14:29:34:537,36.939,1.059,0.018,0.724,-20.239,-42.179,33.337
14:29:34:537,36.939,0.379,-0.719,0.505,-21.599,-38.151,30.713
14:29:34:563,36.965,-1.286,0.646,0.383,-21.556,-34.487,25.929
14:29:34:563,36.965,0.332,0.085,0.738,-20.146,-36.057,23.559
14:29:34:586,36.988,0.819,0.400,0.775,-19.155,-38.795,22.259
14:29:34:612,37.014,1.091,0.262,-0.394,-18.813,-41.241,19.464
14:29:34:666,37.068,0.449,-0.222,0.363,-18.484,-43.465,17.847
14:29:34:693,37.095,0.227,0.005,0.309,-18.206,-44.596,15.335
14:29:34:694,37.096,-0.016,0.014,0.229,-18.454,-43.561,13.145
14:29:34:745,37.147,0.031,0.023,0.137,-18.731,-43.103,12.251
14:29:34:773,37.175,0.102,0.000,0.132,-19.184,-42.828,11.649
14:29:34:773,37.175,0.040,0.008,0.124,-19.452,-42.168,11.404
14:29:34:796,37.198,-0.025,-0.020,0.072,-19.879,-40.915,11.162
14:29:34:822,37.224,0.044,-0.016,0.044,-20.173,-40.322,11.153
14:29:34:848,37.250,-0.102,0.017,-0.140,-20.517,-38.747,10.695
14:29:34:875,37.277,-0.272,0.027,-0.044,-20.582,-36.734,9.418
14:29:34:901,37.303,-0.234,0.032,-0.011,-20.517,-35.832,8.275
14:29:34:956,37.358,-0.081,0.003,0.040,-20.414,-35.229,6.430
14:29:34:957,37.359,-0.102,-0.014,0.035,-20.378,-34.850,5.067
14:29:34:979,37.381,-0.096,-0.002,0.076,-20.454,-34.344,2.845
14:29:35:035,37.437,-0.083,-0.006,0.047,-20.741,-33.892,0.427
14:29:35:036,37.438,-0.052,0.061,0.069,-21.024,-33.728,-1.220
14:29:35:058,37.460,-0.037,0.075,0.033,-21.440,-33.036,-3.870
14:29:35:113,37.515,-0.127,0.115,-0.013,-21.699,-32.528,-5.806
14:29:35:114,37.516,-0.255,0.201,0.108,-22.105,-31.455,-8.975
14:29:35:193,37.595,-0.268,0.242,-0.012,-22.415,-31.061,-11.342
14:29:35:193,37.595,-0.474,0.341,-0.003,-22.914,-29.302,-15.466
14:29:35:221,37.623,-0.806,0.350,0.196,-23.403,-26.946,-20.309
14:29:35:221,37.623,-1.234,0.320,0.095,-23.595,-24.386,-24.154
14:29:35:242,37.644,-1.212,0.272,-0.107,-24.093,-20.122,-30.708
14:29:35:269,37.670,-1.051,0.487,-0.421,-25.434,-17.988,-35.290
14:29:35:294,37.696,-1.054,-0.023,-0.332,-27.321,-15.610,-41.982
14:29:35:321,37.723,-0.715,-0.482,-0.306,-25.539,-12.556,-46.283
14:29:35:347,37.749,0.383,-0.161,-0.046,-24.453,-10.929,-48.265
14:29:35:373,37.775,-0.629,-1.199,0.126,-22.044,-7.714,-48.503
14:29:35:399,37.801,-0.356,-0.977,0.242,-19.966,-6.329,-47.308
14:29:35:426,37.828,-0.376,-0.904,0.184,-18.209,-5.797,-43.650
14:29:35:454,37.856,-0.340,-0.519,0.079,-18.127,-7.046,-38.083
14:29:35:506,37.908,-0.409,-0.441,0.165,-17.959,-8.361,-33.401
14:29:35:535,37.937,-0.316,-0.291,0.150,-17.103,-10.323,-25.270
14:29:35:535,37.937,-0.296,-0.070,0.164,-16.257,-11.207,-19.323
14:29:35:557,37.959,-0.193,0.207,0.277,-14.637,-11.267,-9.917
14:29:35:584,37.986,-0.106,0.410,0.295,-13.655,-10.489,-3.347
14:29:35:638,38.040,0.325,0.858,0.279,-12.712,-9.135,7.139
14:29:35:639,38.041,1.485,0.851,0.030,-12.678,-8.025,17.502
14:29:35:662,38.064,1.796,0.387,0.151,-13.463,-6.729,23.544
14:29:35:716,38.118,2.160,-0.928,-0.493,-15.913,-2.701,30.324
14:29:35:744,38.146,0.965,-0.360,-0.164,-18.415,1.313,32.052
14:29:35:744,38.146,1.231,-0.484,0.322,-20.378,6.074,29.372
14:29:35:767,38.169,-1.006,0.664,1.162,-19.771,7.383,25.452
14:29:35:795,38.197,-0.355,0.369,1.070,-18.959,5.972,24.361
14:29:35:82,38.222,0.942,0.316,0.215,-17.557,1.558,23.193
14:29:35:846,38.248,0.504,0.230,-0.270,-17.648,-0.116,21.880
14:29:35:872,38.274,0.241,-0.029,-0.009,-17.864,-1.907,19.931
14:29:35:898,38.300,0.429,0.031,0.114,-17.830,-3.038,18.850
14:29:35:926,38.328,0.127,0.041,0.131,-18.248,-3.218,17.468
14:29:35:952,38.354,0.042,0.040,-0.054,-18.743,-3.350,16.456
14:29:36:007,38.408,0.003,0.017,-0.039,-18.976,-3.265,15.744
14:29:36:007,38.408,-0.138,0.009,0.022,-19.170,-2.242,14.296
14:29:36:058,38.460,-0.008,0.002,0.072,-19.227,-1.458,13.129
14:29:36:059,38.461,0.068,-0.013,0.065,-19.244,-0.453,11.273
14:29:36:083,38.485,0.007,-0.009,0.080,-19.257,0.823,9.439
14:29:36:108,38.510,-0.057,-0.019,0.082,-19.260,1.749,8.247
14:29:36:134,38.536,-0.130,-0.009,0.106,-19.273,3.016,6.447
14:29:36:193,38.595,-0.068,-0.006,0.089,-19.305,3.486,5.300
14:29:36:193,38.595,0.003,0.016,0.085,-19.396,4.080,3.458
14:29:36:194,38.596,-0.067,-0.002,0.099,-19.456,4.448,2.129
14:29:36:243,38.645,-0.100,-0.022,0.092,-19.574,4.995,-0.107
14:29:36:243,38.645,-0.120,0.047,0.040,-19.877,5.402,-2.542
14:29:36:267,38.669,-0.093,0.099,0.031,-20.080,5.816,-4.381
14:29:36:321,38.723,-0.125,0.184,0.132,-20.298,7.865,-7.509
14:29:36:322,38.724,-0.295,0.255,0.265,-20.374,8.571,-9.929
14:29:36:375,38.776,-0.325,0.356,0.229,-20.682,10.591,-13.922
14:29:36:375,38.776,-0.454,0.428,0.371,-21.036,13.061,-18.706
14:29:36:427,38.829,-0.707,0.442,0.699,-21.307,14.683,-22.313
14:29:36:428,38.830,-1.047,0.437,0.834,-21.452,18.379,-28.700
14:29:36:45,38.852,-1.305,0.320,0.448,-21.648,21.053,-33.369
14:29:36:506,38.908,-1.160,0.073,0.425,-22.978,23.828,-40.560
14:29:36:506,38.908,-0.271,-0.509,0.141,-23.139,25.041,-44.572
14:29:36:528,38.930,-0.190,-0.185,-0.018,-21.729,26.926,-48.148
14:29:36:555,38.957,-0.592,-1.035,0.379,-21.499,28.184,-49.440
14:29:36:61,39.012,-0.250,-1.201,0.335,-20.556,29.420,-48.974
14:29:36:611,39.013,-0.137,-0.918,0.322,-18.823,30.060,-46.241
14:29:36:634,39.036,-0.184,-0.699,0.182,-18.163,29.774,-43.302
14:29:36:66,39.062,-0.254,-0.529,0.260,-17.878,28.202,-37.290
14:29:36:686,39.088,-0.247,-0.347,0.318,-17.111,25.967,-29.479
14:29:36:712,39.114,-0.225,-0.126,0.304,-16.231,24.609,-23.410
14:29:36:738,39.140,-0.120,0.180,0.323,-14.531,23.626,-13.740
14:29:36:764,39.166,-0.016,0.632,0.282,-13.442,23.769,-6.950
14:29:36:791,39.193,0.255,0.955,0.077,-12.381,24.594,3.710
14:29:36:818,39.220,1.125,0.861,-0.700,-12.097,25.701,13.992
14:29:36:843,39.245,1.185,0.819,-0.488,-12.742,27.573,20.012
14:29:36:87,39.272,1.423,-0.410,-1.328,-14.717,32.844,26.956
14:29:36:896,39.298,1.125,-0.139,-0.570,-16.969,37.430,28.650
14:29:36:951,39.353,1.420,-0.590,-0.792,-18.321,43.164,25.476
14:29:36:977,39.379,-0.291,0.862,1.911,-18.076,45.304,22.512
14:29:36:978,39.380,0.531,0.259,0.371,-17.032,43.510,20.355
14:29:37:,39.402,0.622,0.592,-0.249,-16.622,39.719,18.482
14:29:37:056,39.458,-0.240,0.159,-1.046,-16.783,38.296,17.153
14:29:37:056,39.458,0.215,-0.209,-0.160,-16.857,36.758,15.128
14:29:37:079,39.481,0.309,0.037,-0.173,-17.068,36.752,13.949
14:29:37:106,39.508,0.061,0.014,0.059,-17.574,36.999,12.670
14:29:37:132,39.534,-0.087,0.035,-0.034,-18.071,36.884,11.786
14:29:37:158,39.560,-0.121,-0.001,-0.007,-18.303,37.393,10.968
14:29:37:214,39.616,-0.115,0.003,0.146,-18.498,38.679,9.397
14:29:37:214,39.616,-0.057,0.004,0.065,-18.579,39.513,8.186
14:29:37:238,39.640,-0.012,0.002,0.040,-18.612,40.966,6.213
14:29:37:293,39.695,-0.070,0.003,0.136,-18.582,42.166,4.878
14:29:37:293,39.695,-0.069,0.006,0.160,-18.433,43.788,2.887
14:29:37:345,39.746,-0.066,0.030,0.120,-18.291,44.854,0.859
14:29:37:345,39.747,-0.014,0.029,0.124,-18.234,45.419,-0.566
14:29:37:397,39.799,0.014,0.005,0.086,-18.251,46.011,-2.702
14:29:37:398,39.800,0.027,-0.017,0.074,-18.338,47.857,-4.109
14:29:37:479,39.881,0.032,-0.026,0.094,-18.599,48.562,-6.205
14:29:37:48,39.882,-0.029,0.070,0.106,-19.025,50.919,-8.317
14:29:37:481,39.883,-0.092,0.024,0.129,-19.275,51.531,-9.858
14:29:37:528,39.930,-0.099,0.146,0.225,-19.630,53.699,-12.413
14:29:37:529,39.931,-0.018,0.181,0.371,-19.864,54.408,-14.437
14:29:37:581,39.983,-0.136,0.254,0.380,-20.274,56.500,-17.976
14:29:37:582,39.984,-0.097,0.374,0.584,-20.551,57.462,-20.755
14:29:37:719,40.121,-0.004,0.432,1.027,-20.688,60.967,-25.737
14:29:37:72,40.122,-0.346,0.275,1.442,-20.380,65.095,-31.767
14:29:37:72,40.122,-0.605,0.320,1.309,-20.936,67.103,-36.136
14:29:37:721,40.123,-0.590,0.103,0.942,-23.039,68.923,-42.650
14:29:37:737,40.139,-0.372,-0.586,0.588,-22.828,70.285,-46.318
14:29:37:823,40.225,0.012,-0.108,-0.167,-20.703,73.088,-49.851
14:29:37:824,40.226,0.022,-0.955,0.613,-18.813,76.510,-51.134
14:29:37:825,40.227,0.220,-1.129,0.495,-16.610,78.326,-50.723
14:29:37:825,40.227,0.350,-0.869,0.352,-14.175,80.292,-48.209
14:29:37:87,40.272,0.231,-0.716,0.338,-13.717,80.272,-45.528
14:29:37:87,40.272,0.158,-0.548,0.352,-13.859,79.375,-39.952
14:29:37:893,40.295,0.194,-0.452,0.405,-13.704,78.353,-35.300
14:29:37:949,40.351,0.245,-0.153,0.341,-12.910,76.951,-27.285
14:29:37:95,40.352,0.264,0.056,0.327,-11.069,77.089,-18.500
14:29:37:974,40.376,0.272,0.242,0.304,-9.696,78.052,-12.311
14:29:37:999,40.401,0.194,0.690,0.162,-8.021,79.759,-2.397
14:29:38:025,40.427,0.114,1.088,-0.534,-7.281,80.730,4.583
14:29:38:078,40.480,-0.232,0.781,-1.206,-6.640,82.169,14.751
14:29:38:107,40.509,-0.088,0.097,-1.927,-7.353,84.743,23.307
14:29:38:107,40.509,-0.345,-0.975,-2.140,-8.822,87.872,27.525
14:29:38:129,40.531,-0.247,-0.251,-0.889,-11.172,92.786,28.588
14:29:38:157,40.559,-0.040,-0.475,-1.243,-11.330,94.308,26.271
14:29:38:211,40.613,0.733,0.667,0.721,-10.198,93.164,22.721
14:29:38:212,40.614,-0.118,0.039,-0.875,-9.211,90.058,19.923
14:29:38:235,40.637,-0.107,0.404,-0.413,-9.261,88.216,17.802
14:29:38:26,40.662,-0.756,0.131,-0.418,-9.781,86.068,14.808
14:29:38:287,40.689,-0.075,-0.158,-0.230,-10.057,84.969,12.724
14:29:38:313,40.715,0.054,0.038,-0.232,-10.446,85.489,9.753
14:29:38:372,40.774,0.029,0.047,-0.030,-10.728,86.466,8.080
14:29:38:372,40.774,0.050,0.044,-0.065,-11.203,86.357,6.471
14:29:38:373,40.775,-0.023,0.012,-0.171,-11.662,86.053,5.504
14:29:38:421,40.823,0.002,0.023,-0.056,-11.877,86.656,5.025
14:29:38:422,40.824,0.010,-0.021,0.049,-12.150,88.095,4.537
14:29:38:472,40.874,-0.057,0.005,0.067,-12.391,88.782,4.381
14:29:38:5,40.902,-0.087,0.021,0.040,-12.768,89.598,4.160
14:29:38:5,40.902,0.002,-0.010,0.199,-12.950,91.174,3.557
14:29:38:523,40.925,0.041,-0.020,0.255,-13.008,92.145,2.946
14:29:38:552,40.954,-0.013,-0.002,0.256,-13.094,92.819,1.569
14:29:38:604,41.006,0.003,0.035,0.119,-13.164,92.918,0.308
14:29:38:66,41.062,-0.037,0.009,0.088,-13.337,93.034,-1.845
14:29:38:661,41.063,0.011,0.016,0.157,-13.474,93.360,-3.396
14:29:38:662,41.064,0.000,0.066,0.136,-13.749,93.926,-5.974
14:29:38:71,41.112,-0.030,0.209,0.124,-13.927,94.586,-9.024
14:29:38:711,41.113,0.170,0.264,0.256,-13.951,95.294,-11.326
14:29:38:734,41.136,0.185,0.262,0.344,-14.057,96.417,-15.194
14:29:38:76,41.162,0.171,0.387,0.514,-14.113,97.309,-18.152
14:29:38:873,41.275,0.460,0.442,0.685,-14.011,99.404,-23.182
14:29:38:873,41.275,0.525,0.319,1.385,-13.280,102.934,-29.054
14:29:38:874,41.276,0.278,0.305,1.291,-13.196,104.945,-33.401
14:29:38:875,41.277,0.127,0.119,1.179,-14.019,106.660,-40.151
14:29:38:92,41.322,-0.068,-0.435,0.728,-13.187,107.597,-43.801
14:29:38:92,41.322,-0.096,-0.084,0.271,-11.401,109.040,-47.225
14:29:38:972,41.374,-0.109,-0.466,0.468,-10.653,109.698,-48.313
14:29:38:973,41.375,0.283,-1.096,0.395,-9.259,111.250,-48.082
14:29:39:022,41.424,0.309,-0.940,0.199,-7.595,111.755,-45.665
14:29:39:052,41.454,0.229,-0.807,0.231,-7.417,111.300,-43.049
14:29:39:052,41.454,0.108,-0.575,0.340,-8.409,109.275,-37.646
14:29:39:163,41.565,0.176,-0.405,0.346,-9.013,107.321,-33.123
14:29:39:164,41.566,0.136,-0.189,0.311,-9.209,104.044,-25.122
14:29:39:164,41.566,0.098,0.119,0.252,-8.396,101.382,-16.077
14:29:39:166,41.568,0.096,0.298,0.187,-7.442,100.352,-9.592
14:29:39:211,41.613,-0.057,0.814,0.021,-5.915,99.595,0.796
14:29:39:211,41.613,-0.537,1.135,-0.935,-5.032,99.216,7.961
14:29:39:233,41.634,-0.819,0.688,-1.449,-4.514,99.606,18.018
14:29:39:288,41.690,-0.741,-0.092,-1.694,-5.830,101.955,26.236
14:29:39:288,41.690,-1.083,-1.081,-2.064,-7.098,103.907,29.857
14:29:39:31,41.712,-0.376,-0.326,-1.120,-8.870,106.893,29.137
14:29:39:337,41.739,-0.207,-0.355,-1.115,-8.542,107.213,26.329
14:29:39:423,41.825,0.677,0.396,0.160,-7.572,105.799,22.580
14:29:39:423,41.825,-0.300,-0.055,-0.924,-7.005,103.905,20.328
14:29:39:424,41.826,-1.244,0.148,-0.233,-7.184,101.511,16.852
14:29:39:443,41.845,0.138,0.001,-0.769,-7.751,97.754,13.929
14:29:39:528,41.930,-0.182,0.036,-0.414,-8.012,97.265,12.141
14:29:39:528,41.930,0.110,0.046,-0.122,-8.603,98.868,9.928
14:29:39:528,41.930,-0.016,0.014,-0.003,-8.970,99.805,9.034
14:29:39:605,42.007,-0.036,0.007,-0.033,-9.614,99.293,8.332
14:29:39:606,42.008,-0.093,0.028,-0.096,-10.178,99.187,7.892
14:29:39:607,42.009,-0.067,0.006,-0.011,-10.413,100.035,7.566
14:29:39:655,42.057,0.040,-0.007,0.054,-10.686,101.606,7.053
14:29:39:655,42.057,0.015,0.005,0.067,-10.901,102.262,6.724
14:29:39:678,42.080,-0.028,0.004,0.086,-11.186,103.170,5.990
14:29:39:785,42.187,0.070,-0.003,0.168,-11.308,104.008,5.285
14:29:39:819,42.221,0.100,0.001,0.195,-11.448,104.989,3.861
14:29:39:82,42.222,-0.014,0.009,0.077,-11.591,105.280,2.063
14:29:39:821,42.223,-0.041,0.014,0.128,-11.649,105.530,0.676
14:29:39:822,42.224,0.044,0.024,0.125,-11.726,105.592,-1.657
14:29:39:865,42.267,0.008,0.078,0.078,-11.858,105.836,-3.368
14:29:39:866,42.268,-0.025,0.124,0.112,-12.061,105.812,-6.138
14:29:39:889,42.291,0.117,0.236,0.170,-12.116,106.380,-9.296
14:29:39:941,42.343,0.205,0.280,0.188,-12.112,106.612,-11.661
14:29:39:969,42.371,0.129,0.377,0.346,-12.182,107.464,-15.812
14:29:39:996,42.398,0.383,0.483,0.631,-12.132,108.302,-19.054
14:29:39:997,42.399,0.774,0.505,1.015,-11.834,110.533,-24.547
14:29:40:019,42.421,0.567,0.409,1.346,-11.185,113.709,-30.851
14:29:40:075,42.477,0.438,0.196,1.495,-11.235,115.177,-35.456
14:29:40:075,42.477,0.308,-0.476,1.203,-11.656,116.019,-42.193
14:29:40:099,42.501,0.024,-0.448,0.698,-10.974,115.847,-45.150
14:29:40:155,42.557,-0.339,-0.326,0.339,-11.892,114.940,-47.859
14:29:40:155,42.557,0.380,-0.982,0.646,-12.671,114.762,-48.048
14:29:40:208,42.610,0.218,-1.024,0.259,-11.094,114.378,-46.229
14:29:40:208,42.610,0.020,-0.751,0.297,-9.586,113.167,-42.178
14:29:40:283,42.685,0.018,-0.713,0.349,-9.339,111.539,-38.339
14:29:40:335,42.737,0.078,-0.422,0.320,-8.934,108.289,-31.055
14:29:40:369,42.771,0.018,-0.128,0.263,-8.278,106.228,-25.486
14:29:40:37,42.772,0.045,0.121,0.323,-6.943,103.774,-16.213
14:29:40:371,42.773,-0.028,0.634,0.232,-5.640,102.217,-6.173
14:29:40:371,42.773,-0.190,0.979,-0.014,-4.983,101.454,0.818
14:29:40:387,42.789,-0.632,0.891,-1.163,-4.490,100.189,11.316
14:29:40:443,42.845,-0.522,0.523,-1.464,-4.406,99.610,17.665
14:29:40:444,42.846,-0.854,-0.403,-1.824,-4.797,100.180,25.512
14:29:40:495,42.896,-0.723,-0.668,-1.322,-6.478,103.378,29.643
14:29:40:496,42.897,-0.522,-0.225,-1.470,-7.658,105.477,29.154
14:29:40:519,42.921,0.845,0.692,0.222,-8.295,107.736,25.146
14:29:40:602,43.004,0.750,0.365,0.318,-8.398,108.706,22.357
14:29:40:603,43.005,-0.942,-0.117,-0.989,-7.548,107.322,19.324
14:29:40:63,43.032,-0.288,0.215,0.138,-7.766,105.277,17.379
14:29:40:63,43.032,-0.475,-0.384,-0.252,-7.987,102.173,14.702
14:29:40:631,43.033,-0.066,0.085,-0.482,-8.390,101.051,12.078
14:29:40:681,43.082,-0.016,-0.037,-0.218,-8.688,101.980,10.516
14:29:40:681,43.082,0.069,0.068,0.104,-9.338,103.086,8.742
14:29:40:76,43.162,-0.120,0.002,-0.208,-9.720,102.699,7.924
14:29:40:761,43.163,-0.102,0.040,-0.173,-10.154,102.726,7.032
14:29:40:761,43.163,-0.003,-0.007,-0.031,-10.452,104.226,6.311
14:29:40:782,43.184,0.028,-0.015,-0.006,-10.675,104.925,6.019
14:29:40:807,43.209,-0.088,0.019,-0.031,-11.050,105.417,5.790
14:29:40:859,43.261,-0.078,0.008,0.036,-11.264,106.180,5.541
14:29:40:914,43.316,0.044,0.006,0.097,-11.495,107.606,4.916
14:29:40:943,43.345,0.022,0.001,0.153,-11.629,108.311,4.296
14:29:40:943,43.345,0.028,-0.008,0.200,-11.779,109.097,2.874
14:29:40:966,43.368,0.015,0.040,0.080,-11.932,109.325,1.030
14:29:40:995,43.397,-0.028,0.035,0.044,-12.054,109.509,-0.310
14:29:40:995,43.397,0.077,0.087,0.095,-12.260,109.818,-2.471
14:29:41:018,43.420,0.124,0.161,0.166,-12.420,110.054,-4.083
14:29:41:046,43.448,0.047,0.141,0.150,-12.684,110.181,-6.833
14:29:41:099,43.501,0.023,0.204,0.143,-12.861,110.471,-10.130
14:29:41:099,43.501,0.083,0.248,0.250,-12.909,110.576,-12.742
14:29:41:122,43.524,0.262,0.393,0.434,-12.926,111.670,-17.297
14:29:41:148,43.550,0.520,0.474,0.597,-12.905,112.743,-20.809
14:29:41:175,43.577,0.716,0.517,1.077,-12.716,115.318,-26.774
14:29:41:23,43.632,0.480,0.258,1.282,-12.581,118.350,-33.530
14:29:41:231,43.633,0.429,0.085,1.153,-12.601,119.904,-38.103
14:29:41:312,43.714,-0.011,-0.510,0.457,-10.994,121.506,-43.170
14:29:41:314,43.716,-0.384,-0.313,-0.261,-10.527,122.283,-45.300
14:29:41:314,43.716,0.363,-0.620,0.488,-10.444,123.025,-46.513
14:29:41:332,43.734,0.482,-1.260,0.295,-9.459,123.924,-45.949
14:29:41:359,43.761,0.308,-0.885,0.199,-8.746,124.084,-43.167
14:29:41:385,43.787,0.226,-0.627,0.258,-10.082,122.272,-38.414
14:29:41:412,43.813,0.305,-0.468,0.256,-11.053,120.289,-34.173
14:29:41:437,43.839,0.301,-0.273,0.205,-11.343,117.257,-26.504
14:29:41:463,43.865,0.265,0.002,0.120,-10.919,115.579,-20.723
14:29:41:577,43.979,0.277,0.233,0.072,-9.579,114.383,-11.353
14:29:41:578,43.980,0.152,0.569,-0.048,-8.145,114.675,-1.273
14:29:41:578,43.980,-0.116,0.910,-0.290,-7.425,115.139,5.812
14:29:41:58,43.982,-0.843,0.729,-1.134,-6.817,115.899,16.372
14:29:41:597,43.999,-0.912,0.432,-1.268,-7.057,117.287,22.722
14:29:41:65,44.052,-1.328,-0.643,-1.408,-9.095,121.545,30.366
14:29:41:651,44.053,-1.112,-0.412,-1.226,-11.626,125.524,33.182
14:29:41:73,44.132,-0.900,-0.653,-0.975,-14.257,131.064,31.830
14:29:41:731,44.133,1.973,1.024,-0.156,-14.494,134.291,27.911
14:29:41:754,44.156,0.121,0.321,-0.453,-13.724,133.631,26.443
14:29:41:78,44.182,-0.401,0.329,-0.672,-12.643,129.858,24.357
14:29:41:836,44.238,-0.871,-0.026,-0.087,-12.641,127.711,22.953
14:29:41:837,44.239,-0.170,-0.234,-0.024,-12.568,125.476,20.708
14:29:41:838,44.240,-0.093,0.033,-0.277,-12.817,125.051,18.839
14:29:41:857,44.259,-0.015,-0.028,-0.143,-13.206,125.242,17.885
14:29:41:913,44.315,-0.211,0.024,-0.075,-13.805,124.727,17.066
14:29:41:914,44.316,-0.153,-0.003,-0.047,-14.161,124.650,16.666
14:29:41:936,44.338,0.045,0.023,0.163,-14.640,125.669,15.831
14:29:41:993,44.394,-0.033,0.019,0.015,-14.884,126.642,14.939
14:29:42:017,44.419,-0.074,-0.005,-0.045,-15.117,128.017,13.279
14:29:42:018,44.420,0.002,0.010,0.033,-15.274,129.819,11.499
14:29:42:099,44.501,0.030,0.009,0.027,-15.307,131.032,10.308
14:29:42:1,44.502,0.058,0.004,0.013,-15.256,132.519,8.483
14:29:42:101,44.503,0.086,0.006,0.030,-15.171,133.268,7.188
14:29:42:18,44.582,0.025,0.025,-0.021,-15.063,133.572,5.210
14:29:42:181,44.583,-0.023,-0.012,-0.069,-15.142,133.826,3.099
14:29:42:181,44.583,-0.038,0.001,-0.064,-15.326,133.690,1.699
14:29:42:198,44.600,-0.025,0.068,-0.028,-15.719,134.282,-0.391
14:29:42:255,44.657,0.001,0.111,0.049,-15.989,134.557,-1.841
14:29:42:255,44.657,0.028,0.136,0.078,-16.355,135.429,-4.251
14:29:42:305,44.707,0.172,0.211,-0.012,-16.645,136.450,-7.059
14:29:42:33,44.732,0.245,0.242,0.076,-16.862,137.289,-9.273
14:29:42:357,44.759,0.365,0.359,0.124,-17.218,138.779,-13.184
14:29:42:385,44.787,0.631,0.443,0.077,-17.457,140.216,-16.237
14:29:42:385,44.787,1.163,0.482,0.354,-17.671,143.294,-21.576
14:29:42:408,44.810,1.044,0.462,0.451,-17.807,145.962,-25.660
14:29:42:435,44.837,0.779,0.364,0.615,-18.982,148.949,-32.148
14:29:42:519,44.921,0.280,-0.242,0.149,-19.569,150.511,-36.407
14:29:42:52,44.922,0.569,-0.463,0.452,-18.082,153.678,-40.910
14:29:42:545,44.947,-0.096,-0.178,0.312,-16.557,156.582,-43.480
14:29:42:545,44.947,0.577,-1.101,-0.086,-15.656,158.816,-43.898
14:29:42:566,44.968,0.408,-0.881,-0.289,-13.428,161.088,-42.383
14:29:42:593,44.995,0.364,-0.665,-0.126,-12.737,161.449,-38.842
14:29:42:619,45.021,0.375,-0.565,-0.081,-12.998,160.610,-35.216
14:29:42:647,45.049,0.413,-0.389,-0.109,-13.137,158.456,-28.259
14:29:42:7,45.102,0.315,-0.188,-0.103,-12.741,156.926,-22.795
14:29:42:727,45.129,0.219,0.036,-0.114,-11.338,155.678,-13.929
14:29:42:727,45.129,0.174,0.341,-0.167,-10.144,155.753,-7.657
14:29:42:751,45.152,-0.021,0.663,-0.127,-8.555,156.923,2.305
14:29:42:776,45.178,-0.801,0.889,-0.204,-7.692,158.488,12.584
14:29:42:802,45.204,-1.183,0.662,-0.243,-7.723,159.795,19.137
14:29:42:857,45.259,-1.483,0.107,-0.399,-9.262,163.092,27.776
14:29:42:858,45.260,-2.109,-1.000,-0.157,-11.259,166.506,32.004
14:29:42:884,45.286,-1.311,-0.061,0.054,-14.548,172.215,33.514
14:29:42:884,45.286,-0.956,-0.630,-0.081,-15.891,176.885,29.881
14:29:42:937,45.339,0.467,0.575,-0.902,-15.786,178.122,27.538
14:29:43:014,45.416,-0.781,0.390,-0.291,-13.539,173.184,24.922
14:29:43:042,45.444,-0.701,0.174,0.271,-13.474,170.387,23.188
14:29:43:043,45.445,-0.128,-0.045,-0.001,-13.625,169.476,21.944
14:29:43:126,45.528,-0.394,-0.035,-0.096,-13.845,168.699,20.445
14:29:43:127,45.528,-0.051,0.042,-0.028,-14.450,168.607,19.281
14:29:43:129,45.530,-0.042,0.042,0.059,-14.803,168.487,18.584
14:29:43:129,45.530,-0.135,0.027,0.098,-15.204,168.910,17.295
14:29:43:172,45.574,0.006,0.003,0.039,-15.398,169.714,16.345
14:29:43:173,45.575,0.053,0.013,0.003,-15.603,171.008,14.816
14:29:43:313,45.715,-0.073,-0.011,-0.025,-15.712,172.245,13.127
14:29:43:313,45.715,-0.055,-0.002,-0.029,-15.777,173.225,11.990
14:29:43:313,45.715,0.055,0.001,0.003,-15.864,175.581,10.334
14:29:43:314,45.716,0.000,0.007,-0.033,-15.871,176.400,9.248
14:29:43:33,45.732,0.046,-0.005,-0.038,-15.812,177.969,7.601
14:29:43:331,45.733,0.012,0.012,-0.037,-15.758,178.573,5.902
14:29:43:444,45.846,0.012,0.017,-0.030,-15.765,179.604,4.714
14:29:43:444,45.846,-0.019,-0.003,-0.036,-15.897,179.960,2.893
14:29:43:444,45.846,-0.035,0.008,-0.028,-16.057,-179.224,1.678
14:29:43:445,45.847,0.038,0.021,-0.011,-16.333,-178.652,-0.229
14:29:43:487,45.889,0.084,0.071,-0.002,-16.516,-177.742,-1.617
14:29:43:488,45.890,0.076,0.146,0.056,-16.703,-177.064,-3.973
14:29:43:512,45.914,0.159,0.232,-0.245,-16.808,-175.545,-6.831
14:29:43:538,45.940,0.193,0.254,-0.263,-16.899,-174.678,-9.008
14:29:43:593,45.995,0.339,0.368,-0.268,-17.079,-172.777,-12.853
14:29:43:593,45.995,0.574,0.521,-0.479,-17.216,-171.410,-15.891
14:29:43:646,46.048,1.165,0.418,-0.674,-17.253,-168.319,-21.287
14:29:43:647,46.049,1.041,0.502,-0.306,-17.857,-165.558,-27.514
14:29:43:669,46.071,0.934,0.269,-0.181,-18.965,-164.533,-31.828
14:29:43:723,46.125,0.312,-0.120,-0.253,-19.678,-162.619,-37.732
14:29:43:724,46.126,0.322,-0.399,-0.038,-18.759,-160.669,-40.472
14:29:43:777,46.179,0.499,-0.395,0.010,-17.341,-158.342,-43.115
14:29:43:777,46.179,0.377,-1.128,-0.345,-16.272,-156.579,-43.505
14:29:43:799,46.201,0.226,-0.979,-0.336,-13.838,-155.125,-41.943
14:29:43:826,46.228,0.158,-0.711,-0.160,-12.685,-155.330,-38.445
14:29:43:852,46.254,0.282,-0.575,-0.165,-12.479,-156.337,-35.081
14:29:43:88,46.282,0.290,-0.435,-0.174,-12.291,-158.698,-28.626
14:29:43:963,46.365,0.240,-0.271,-0.165,-11.934,-160.521,-23.577
14:29:43:963,46.365,0.211,0.027,-0.097,-10.930,-162.885,-15.183
14:29:43:964,46.366,0.155,0.386,-0.091,-9.999,-163.873,-9.177
14:29:44:013,46.415,-0.001,0.617,0.027,-8.512,-164.387,0.366
14:29:44:013,46.415,-0.595,0.948,0.445,-7.327,-164.184,10.379
14:29:44:036,46.438,-1.047,0.597,0.823,-7.121,-163.384,16.871
14:29:44:091,46.493,-1.288,0.056,0.774,-8.736,-160.022,25.521
14:29:44:092,46.494,-1.297,-0.628,1.068,-11.353,-155.986,30.062
14:29:44:115,46.517,-0.692,-0.514,0.697,-16.139,-149.361,33.369
14:29:44:141,46.543,-1.044,-0.637,0.240,-18.986,-144.609,31.418
14:29:44:197,46.599,-1.105,-0.228,-0.374,-18.871,-144.201,29.126
14:29:44:197,46.599,0.161,0.545,-1.104,-16.848,-148.240,27.035
14:29:44:278,46.680,-1.116,-0.115,0.658,-15.197,-152.911,26.655
14:29:44:279,46.681,-0.606,-0.006,0.693,-14.431,-157.951,24.976
14:29:44:28,46.682,0.113,0.096,0.648,-15.004,-158.718,22.713
14:29:44:327,46.729,-0.434,-0.205,0.126,-15.114,-159.256,21.399
14:29:44:328,46.730,-0.171,0.022,-0.084,-15.632,-159.233,19.912
14:29:44:351,46.753,-0.037,0.038,0.109,-16.160,-158.705,18.989
14:29:44:377,46.779,-0.069,0.007,0.201,-16.721,-158.414,17.718
14:29:44:462,46.864,0.063,0.014,-0.029,-16.989,-157.702,16.780
14:29:44:462,46.864,-0.002,0.014,-0.036,-17.291,-156.021,15.041
14:29:44:463,46.865,-0.062,-0.008,0.001,-17.463,-154.653,13.061
14:29:44:482,46.884,-0.076,0.020,0.035,-17.523,-153.812,11.780
14:29:44:51,46.912,0.002,0.005,-0.045,-17.532,-152.511,9.936
14:29:44:566,46.968,0.065,0.018,-0.070,-17.498,-151.766,8.681
14:29:44:566,46.968,-0.043,0.012,-0.040,-17.445,-151.053,6.739
14:29:44:643,47.045,-0.068,0.009,-0.038,-17.564,-150.786,4.833
14:29:44:644,47.046,-0.109,-0.010,-0.010,-17.744,-150.519,3.576
14:29:44:669,47.071,-0.135,-0.017,0.004,-18.151,-149.997,1.805
14:29:44:67,47.072,-0.087,-0.019,-0.014,-18.502,-149.526,0.650
14:29:44:693,47.095,0.013,0.012,-0.014,-19.090,-148.706,-1.177
14:29:44:719,47.121,0.104,0.199,-0.157,-19.609,-147.872,-3.289
14:29:44:745,47.147,0.074,0.212,-0.266,-19.911,-147.321,-4.963
14:29:44:829,47.231,0.134,0.236,-0.300,-20.385,-146.452,-8.039
14:29:44:83,47.232,0.182,0.324,-0.258,-20.762,-145.802,-10.610
14:29:44:831,47.233,0.137,0.358,-0.546,-21.322,-143.900,-15.420
14:29:44:85,47.252,0.465,0.547,-1.092,-21.633,-141.862,-19.183
14:29:44:905,47.307,0.581,0.251,-1.119,-21.948,-137.489,-25.620
14:29:44:906,47.308,0.769,0.379,-0.706,-23.509,-134.450,-32.233
14:29:44:931,47.333,0.364,0.250,-0.488,-24.488,-132.685,-36.446
14:29:44:984,47.386,0.602,-0.454,-0.374,-23.086,-128.682,-41.252
14:29:44:984,47.386,-0.058,-0.162,0.206,-21.273,-125.813,-43.552
14:29:45:009,47.411,0.150,-0.845,-0.580,-18.423,-121.527,-44.637
14:29:45:067,47.469,-0.211,-1.044,-0.575,-14.820,-118.415,-43.127
14:29:45:067,47.469,-0.310,-0.840,-0.499,-13.445,-117.526,-40.904
14:29:45:068,47.470,-0.087,-0.663,-0.415,-12.973,-117.818,-36.110
14:29:45:114,47.516,-0.089,-0.468,-0.343,-13.087,-118.797,-31.947
14:29:45:168,47.570,-0.118,-0.251,-0.346,-13.235,-120.844,-24.455
14:29:45:169,47.571,-0.159,-0.029,-0.267,-12.928,-121.917,-18.887
14:29:45:194,47.596,-0.175,0.091,-0.260,-11.817,-122.167,-10.084
14:29:45:195,47.597,-0.194,0.468,-0.116,-10.712,-121.247,-0.699
14:29:45:305,47.707,-0.202,0.780,0.195,-10.301,-120.295,5.927
14:29:45:306,47.708,-0.521,0.796,0.968,-10.548,-118.744,15.896
14:29:45:307,47.709,-0.568,0.398,1.273,-11.474,-116.747,22.010
14:29:45:308,47.710,-0.473,-0.405,1.651,-14.276,-111.758,29.351
14:29:45:351,47.753,-0.418,-0.798,1.460,-18.186,-105.754,33.132
14:29:45:352,47.754,-0.582,-0.289,1.014,-19.477,-102.681,31.892
14:29:45:46,47.862,-0.533,0.696,-0.947,-18.840,-101.208,28.288
14:29:45:461,47.863,-0.540,0.256,0.044,-18.025,-102.200,27.031
14:29:45:462,47.864,-0.402,0.397,0.757,-16.715,-105.839,25.437
14:29:45:483,47.885,0.479,0.141,0.663,-16.666,-108.114,23.469
14:29:45:484,47.886,-0.096,-0.118,0.121,-16.636,-109.224,22.139
14:29:45:533,47.935,-0.182,-0.012,0.287,-16.794,-109.682,20.512
14:29:45:62,48.022,-0.174,0.025,0.087,-17.189,-109.515,19.668
14:29:45:621,48.023,-0.017,0.038,0.128,-17.679,-109.862,18.864
14:29:45:623,48.025,0.055,0.006,0.047,-17.964,-109.587,18.171
14:29:45:623,48.025,-0.043,0.021,-0.062,-18.245,-108.444,16.793
14:29:45:638,48.040,-0.059,-0.012,0.046,-18.388,-107.241,15.109
14:29:45:664,48.066,-0.056,-0.001,0.080,-18.439,-106.492,13.915
14:29:45:718,48.120,-0.060,-0.013,0.025,-18.491,-105.113,12.102
14:29:45:804,48.206,-0.077,0.003,-0.025,-18.488,-104.105,10.900
14:29:45:804,48.206,-0.077,-0.003,-0.022,-18.456,-102.878,9.129
14:29:45:805,48.207,-0.069,-0.008,-0.063,-18.383,-101.950,7.298
14:29:45:805,48.207,-0.086,0.010,-0.027,-18.331,-101.547,6.014
14:29:45:852,48.254,-0.083,-0.015,0.012,-18.318,-100.394,3.990
14:29:45:852,48.254,-0.061,0.011,0.006,-18.405,-100.024,2.611
14:29:45:874,48.276,-0.069,0.053,-0.039,-18.669,-98.848,0.491
14:29:45:9,48.302,-0.031,0.061,-0.083,-18.876,-98.359,-1.028
14:29:45:955,48.357,-0.013,0.158,-0.067,-19.183,-97.186,-3.580
14:29:45:956,48.358,-0.247,0.254,-0.247,-19.464,-96.281,-6.704
14:29:45:979,48.381,-0.210,0.298,-0.290,-19.650,-95.368,-9.107
14:29:46:006,48.408,-0.178,0.445,-0.429,-20.039,-94.239,-13.412
14:29:46:031,48.433,-0.503,0.525,-0.733,-20.349,-92.951,-16.819
14:29:46:087,48.489,-0.588,0.516,-1.165,-20.668,-89.884,-22.835
14:29:46:087,48.489,-0.151,0.343,-1.275,-20.731,-85.469,-29.868
14:29:46:139,48.541,-0.023,0.324,-1.196,-21.460,-83.269,-34.752
14:29:46:139,48.541,0.008,-0.379,-0.376,-22.138,-81.203,-41.279
14:29:46:163,48.565,0.029,-0.423,-0.709,-20.698,-79.680,-43.923
14:29:46:188,48.590,0.393,-0.138,0.007,-19.590,-78.435,-46.651
14:29:46:215,48.617,-0.200,-1.135,-0.482,-19.249,-77.602,-46.926
14:29:46:241,48.643,-0.316,-1.046,-0.262,-17.660,-76.974,-45.353
14:29:46:267,48.669,-0.261,-0.801,-0.218,-16.227,-77.773,-41.663
14:29:46:293,48.695,-0.160,-0.626,-0.262,-15.871,-79.063,-38.136
14:29:46:32,48.722,-0.238,-0.454,-0.347,-15.576,-81.869,-31.320
14:29:46:346,48.748,-0.207,-0.197,-0.285,-15.126,-84.073,-25.948
14:29:46:4,48.802,-0.200,0.008,-0.235,-13.956,-87.358,-16.915
14:29:46:428,48.830,-0.230,0.362,-0.147,-12.190,-89.586,-7.149
14:29:46:428,48.830,-0.168,0.796,-0.018,-10.916,-90.415,-0.311
14:29:46:48,48.882,0.100,1.111,0.636,-9.097,-91.143,10.348
14:29:46:481,48.883,0.596,0.876,1.543,-8.179,-91.159,17.299
14:29:46:504,48.906,0.325,-0.057,1.911,-8.846,-88.845,26.169
14:29:46:56,48.962,0.804,-0.764,2.018,-10.628,-86.137,30.278
14:29:46:56,48.962,0.382,-0.277,0.918,-13.020,-82.444,31.978
14:29:46:583,48.985,-1.525,0.483,-0.214,-12.389,-82.337,28.281
14:29:46:608,49.010,-0.474,0.389,0.137,-11.396,-84.043,26.558
14:29:46:634,49.036,0.216,-0.169,0.924,-10.915,-86.838,24.123
14:29:46:691,49.093,0.624,0.232,0.396,-11.242,-88.871,22.657
14:29:46:691,49.093,-0.084,0.074,0.439,-11.477,-92.200,20.820
14:29:46:743,49.145,-0.078,0.006,0.446,-11.927,-92.767,18.961
14:29:46:743,49.145,-0.108,-0.016,0.021,-12.618,-92.192,17.988
14:29:46:766,49.168,-0.038,0.077,0.030,-13.528,-92.609,17.124
14:29:46:792,49.194,0.065,0.011,0.116,-13.980,-92.928,16.678
14:29:46:849,49.251,0.034,0.030,-0.129,-14.616,-91.689,15.553
14:29:46:849,49.251,-0.083,0.010,-0.123,-15.041,-90.445,14.010
14:29:46:872,49.274,-0.044,-0.012,0.053,-15.254,-89.916,12.807
14:29:46:898,49.300,-0.048,0.014,0.072,-15.548,-88.804,10.910
14:29:46:925,49.327,-0.072,-0.005,-0.009,-15.709,-87.852,9.639
14:29:46:979,49.381,-0.062,0.003,-0.074,-15.887,-86.620,7.705
14:29:46:979,49.381,-0.073,0.012,-0.010,-15.944,-86.197,6.407
14:29:47:002,49.404,-0.051,0.013,0.023,-16.005,-86.173,4.357
14:29:47:028,49.430,-0.061,0.040,0.015,-16.129,-86.303,2.224
14:29:47:055,49.457,-0.070,0.060,0.063,-16.309,-86.032,0.837
14:29:47:11,49.512,-0.104,0.035,-0.049,-16.592,-85.779,-1.342
14:29:47:111,49.513,-0.055,0.120,-0.111,-16.781,-85.230,-2.961
14:29:47:134,49.536,-0.078,0.195,-0.142,-16.996,-85.210,-5.835
14:29:47:16,49.562,-0.277,0.276,-0.214,-17.139,-84.446,-9.362
14:29:47:215,49.617,-0.195,0.349,-0.285,-17.267,-84.140,-12.142
14:29:47:216,49.618,-0.375,0.407,-0.497,-17.473,-82.843,-17.017
14:29:47:239,49.641,-0.493,0.529,-0.671,-17.583,-81.629,-20.663
14:29:47:295,49.697,-0.514,0.360,-1.223,-17.360,-78.304,-26.949
14:29:47:295,49.697,-0.170,0.272,-1.304,-17.936,-75.588,-33.894
14:29:47:318,49.720,-0.256,-0.214,-1.069,-18.353,-74.340,-38.396
14:29:47:343,49.745,-0.084,-0.423,-0.564,-16.735,-72.675,-42.949
14:29:47:372,49.774,0.351,-0.284,0.369,-16.432,-71.995,-45.199
14:29:47:373,49.775,-0.348,-0.989,-0.591,-16.190,-70.906,-46.120
14:29:47:396,49.798,-0.335,-1.127,-0.307,-14.875,-69.940,-45.449
14:29:47:482,49.884,-0.254,-0.871,-0.201,-13.579,-69.769,-42.511
14:29:47:482,49.884,-0.108,-0.669,-0.327,-13.947,-71.319,-37.526
14:29:47:482,49.884,-0.206,-0.515,-0.363,-14.459,-73.214,-33.073
14:29:47:53,49.932,-0.205,-0.267,-0.266,-14.410,-76.333,-25.075
14:29:47:531,49.933,-0.218,-0.032,-0.191,-13.868,-78.138,-19.048
14:29:47:554,49.956,-0.257,0.231,-0.144,-12.493,-79.752,-9.327
14:29:47:609,50.011,-0.201,0.795,0.027,-11.082,-80.132,1.102
14:29:47:61,50.012,-0.060,1.152,0.358,-10.398,-80.210,8.401
14:29:47:633,50.035,0.537,0.824,1.390,-9.803,-80.118,19.088
14:29:47:659,50.061,0.486,0.169,2.044,-10.309,-79.500,25.150
14:29:47:715,50.116,1.123,-1.185,2.155,-12.252,-77.230,31.899
14:29:47:716,50.117,0.330,-0.260,1.003,-13.918,-75.029,32.894
14:29:47:795,50.197,0.042,-0.410,1.237,-14.316,-73.061,29.329
14:29:47:796,50.198,-0.359,0.464,0.058,-12.711,-74.645,25.337
14:29:47:797,50.199,0.453,-0.144,0.823,-12.182,-76.607,23.074
14:29:47:845,50.247,0.557,0.371,0.189,-11.975,-79.840,19.835
14:29:47:846,50.248,0.215,-0.341,0.700,-12.102,-83.047,18.087
14:29:47:869,50.271,0.048,0.010,0.476,-12.335,-83.941,15.011
14:29:47:895,50.297,-0.209,0.037,0.182,-12.836,-82.588,12.456
14:29:47:921,50.323,-0.098,0.013,0.046,-13.246,-81.944,11.330
14:29:47:976,50.378,0.010,0.010,0.121,-13.927,-82.580,10.354
14:29:47:977,50.379,0.005,0.041,0.238,-14.338,-82.988,9.954
14:29:48:031,50.433,-0.018,-0.016,0.080,-14.824,-81.974,9.239
14:29:48:031,50.433,-0.085,-0.023,0.019,-15.229,-80.335,8.579
14:29:48:083,50.485,-0.066,0.006,0.006,-15.519,-79.707,8.272
14:29:48:083,50.485,-0.013,0.013,0.034,-15.910,-78.910,7.703
14:29:48:104,50.506,-0.106,0.010,-0.080,-16.077,-78.101,7.121
14:29:48:132,50.534,-0.129,0.005,-0.108,-16.269,-76.947,5.984
14:29:48:158,50.560,-0.071,0.007,-0.087,-16.401,-76.546,5.055
14:29:48:183,50.585,-0.061,0.029,-0.008,-16.633,-76.062,3.292
14:29:48:21,50.612,-0.076,0.044,-0.097,-16.921,-75.590,1.252
14:29:48:237,50.639,-0.120,0.053,-0.142,-17.119,-75.172,-0.276
14:29:48:262,50.664,-0.111,0.136,-0.100,-17.412,-74.622,-2.936
14:29:48:29,50.692,-0.190,0.291,-0.100,-17.569,-74.669,-5.003
