Time,Second,AccelerationX,AccelerationY,AccelerationZ,EulerAnglesX,EulerAnglesY,EulerAnglesZ
14:43:04:475,0.000,0.000,0.001,-0.024,12.674,10.276,6.953
14:43:04:505,0.030,0.000,-0.001,-0.014,12.661,10.272,6.928
14:43:04:528,0.052,-0.001,-0.003,-0.021,12.637,10.273,6.915
14:43:04:554,0.079,0.001,-0.001,-0.009,12.628,10.272,6.912
14:43:04:583,0.107,-0.003,-0.001,-0.025,12.611,10.274,6.913
14:43:04:606,0.131,-0.001,0.002,-0.014,12.597,10.270,6.913
14:43:04:634,0.159,-0.002,-0.003,-0.016,12.580,10.272,6.913
14:43:04:659,0.184,0.002,-0.001,-0.016,12.571,10.271,6.910
14:43:04:688,0.213,-0.002,-0.004,-0.018,12.556,10.268,6.905
14:43:04:742,0.267,0.001,-0.001,-0.014,12.535,10.272,6.904
14:43:04:743,0.267,-0.001,0.000,-0.010,12.526,10.271,6.901
14:43:04:764,0.289,-0.001,-0.003,-0.016,12.520,10.269,6.899
14:43:04:79,0.315,-0.003,-0.004,-0.016,12.516,10.270,6.898
14:43:04:816,0.341,0.002,0.000,-0.009,12.526,10.271,6.901
14:43:04:843,0.367,-0.001,-0.002,-0.014,12.539,10.279,6.912
14:43:04:872,0.397,-0.003,0.001,-0.018,12.551,10.275,6.920
14:43:04:896,0.420,-0.001,0.001,-0.010,12.560,10.275,6.949
14:43:04:951,0.475,-0.002,-0.001,-0.014,12.579,10.280,6.976
14:43:04:951,0.476,-0.003,0.001,-0.016,12.588,10.285,7.000
14:43:05:032,0.556,-0.001,-0.001,-0.016,12.608,10.290,7.038
14:43:05:033,0.557,-0.001,0.004,-0.001,12.621,10.289,7.067
14:43:05:033,0.558,-0.005,-0.003,-0.019,12.639,10.291,7.099
14:43:05:054,0.579,-0.002,-0.002,-0.010,12.639,10.299,7.116
14:43:05:079,0.604,0.007,0.000,-0.014,12.663,10.326,7.121
14:43:05:106,0.630,0.005,0.002,-0.006,12.683,10.345,7.125
14:43:05:132,0.656,0.000,0.003,-0.016,12.680,10.346,7.134
14:43:05:159,0.684,-0.001,-0.002,-0.003,12.672,10.348,7.163
14:43:05:188,0.712,-0.002,-0.007,-0.028,12.665,10.346,7.186
14:43:05:21,0.734,-0.001,0.007,-0.007,12.664,10.319,7.214
14:43:05:237,0.762,-0.004,0.002,-0.007,12.699,10.323,7.261
14:43:05:263,0.788,-0.005,0.000,0.001,12.722,10.327,7.289
14:43:05:289,0.814,-0.004,0.004,-0.012,12.748,10.365,7.323
14:43:05:321,0.845,0.009,0.006,-0.011,12.753,10.381,7.321
14:43:05:321,0.845,0.004,-0.002,-0.005,12.778,10.381,7.344
14:43:05:344,0.868,-0.012,0.004,0.000,12.795,10.356,7.367
14:43:05:397,0.921,-0.022,0.004,-0.013,12.798,10.269,7.383
14:43:05:397,0.922,-0.001,0.000,-0.006,12.759,10.191,7.324
14:43:05:421,0.946,-0.004,-0.006,-0.021,12.716,10.120,7.256
14:43:05:449,0.974,-0.012,-0.005,-0.015,12.641,10.008,7.120
14:43:05:475,0.999,-0.004,0.001,-0.023,12.590,9.989,7.020
14:43:05:528,1.052,0.020,-0.006,-0.017,12.560,9.971,6.885
14:43:05:529,1.053,0.013,-0.006,-0.019,12.599,9.971,6.855
14:43:05:554,1.078,0.001,0.005,-0.012,12.632,9.971,6.870
14:43:05:578,1.103,-0.001,0.004,-0.010,12.695,9.977,6.926
14:43:05:604,1.129,-0.001,0.001,-0.015,12.731,9.976,6.968
14:43:05:63,1.155,-0.003,-0.002,-0.017,12.775,9.940,7.023
14:43:05:657,1.181,-0.007,0.001,-0.016,12.825,9.893,7.059
14:43:05:685,1.209,-0.001,0.001,-0.008,12.844,9.877,7.083
14:43:05:71,1.234,-0.003,0.003,-0.011,12.891,9.863,7.106
14:43:05:735,1.260,-0.001,0.003,-0.009,12.913,9.872,7.119
14:43:05:761,1.286,-0.004,0.001,-0.021,12.944,9.873,7.144
14:43:05:788,1.313,-0.007,0.003,-0.005,12.966,9.896,7.154
14:43:05:843,1.368,0.002,-0.001,-0.005,13.017,9.961,7.173
14:43:05:844,1.368,-0.005,0.001,-0.014,13.055,9.987,7.167
14:43:05:867,1.391,-0.007,-0.002,-0.022,13.059,9.990,7.153
14:43:05:893,1.418,0.009,0.001,-0.002,13.084,10.013,7.117
14:43:05:919,1.444,0.013,-0.001,-0.004,13.114,10.060,7.096
14:43:05:945,1.470,0.007,0.003,-0.006,13.163,10.090,7.090
14:43:05:971,1.496,-0.005,0.001,-0.011,13.184,10.091,7.086
14:43:05:998,1.523,-0.003,0.003,-0.004,13.210,10.099,7.090
14:43:06:024,1.549,0.002,-0.001,-0.011,13.239,10.119,7.096
14:43:06:05,1.575,0.004,0.002,-0.008,13.257,10.157,7.102
14:43:06:106,1.630,0.001,-0.002,-0.016,13.282,10.192,7.104
14:43:06:106,1.631,0.004,0.001,-0.008,13.301,10.216,7.113
14:43:06:129,1.653,0.001,0.003,-0.015,13.300,10.226,7.114
14:43:06:155,1.680,-0.001,0.003,-0.009,13.296,10.231,7.108
14:43:06:181,1.706,-0.004,0.002,-0.011,13.292,10.219,7.105
14:43:06:208,1.732,0.003,0.001,-0.009,13.285,10.217,7.093
14:43:06:234,1.759,0.000,0.001,-0.025,13.276,10.221,7.085
14:43:06:262,1.787,-0.002,-0.002,-0.011,13.262,10.218,7.080
14:43:06:287,1.812,0.002,0.000,-0.009,13.252,10.217,7.077
14:43:06:314,1.838,0.002,0.000,-0.012,13.252,10.217,7.077
14:43:06:37,1.894,0.001,0.002,-0.021,13.238,10.214,7.072
14:43:06:37,1.894,0.001,0.000,-0.013,13.228,10.213,7.069
14:43:06:392,1.916,-0.001,-0.002,-0.014,13.207,10.217,7.068
14:43:06:447,1.971,0.000,-0.002,-0.019,13.177,10.206,7.063
14:43:06:447,1.972,0.000,0.000,-0.013,13.163,10.207,7.059
14:43:06:47,1.995,0.005,-0.002,-0.013,13.159,10.209,7.052
14:43:06:498,2.023,0.003,-0.001,-0.009,13.149,10.208,7.049
14:43:06:523,2.048,0.001,-0.002,-0.020,13.140,10.207,7.046
14:43:06:55,2.075,0.006,0.002,-0.008,13.130,10.206,7.043
14:43:06:575,2.100,0.008,0.002,-0.010,13.138,10.239,7.050
14:43:06:603,2.128,0.005,0.001,-0.012,13.140,10.247,7.078
14:43:06:629,2.154,0.000,0.000,-0.017,13.151,10.246,7.097
14:43:06:654,2.179,0.002,0.002,-0.005,13.174,10.255,7.146
14:43:06:71,2.235,0.000,0.001,-0.015,13.187,10.254,7.176
14:43:06:71,2.235,0.001,0.004,-0.005,13.188,10.254,7.212
14:43:06:733,2.257,0.004,-0.001,-0.016,13.180,10.256,7.241
14:43:06:759,2.284,0.003,0.005,-0.007,13.173,10.254,7.264
14:43:06:786,2.311,0.001,0.000,-0.018,13.165,10.257,7.293
14:43:06:811,2.336,0.003,0.000,-0.012,13.165,10.260,7.314
14:43:06:839,2.363,-0.001,0.000,-0.011,13.159,10.258,7.338
14:43:06:864,2.388,0.002,0.002,-0.009,13.153,10.260,7.357
14:43:06:89,2.415,-0.005,-0.002,-0.017,13.149,10.239,7.373
14:43:06:919,2.444,0.002,0.002,-0.006,13.137,10.239,7.380
14:43:06:944,2.469,0.000,-0.001,-0.017,13.127,10.238,7.377
14:43:06:97,2.495,0.002,-0.002,-0.007,13.118,10.237,7.374
14:43:06:997,2.521,-0.001,0.001,-0.016,13.118,10.237,7.374
14:43:07:022,2.546,0.002,-0.002,-0.016,13.103,10.234,7.369
14:43:07:078,2.603,0.003,0.000,-0.011,13.094,10.238,7.361
14:43:07:078,2.603,0.001,0.001,-0.015,13.090,10.239,7.360
14:43:07:1,2.625,0.002,-0.001,-0.013,13.080,10.235,7.356
14:43:07:157,2.682,0.003,0.001,-0.016,13.075,10.236,7.355
14:43:07:157,2.682,0.001,0.001,-0.012,13.066,10.235,7.352
14:43:07:179,2.704,0.002,-0.003,-0.014,13.061,10.233,7.350
14:43:07:205,2.730,0.001,0.004,-0.004,13.056,10.234,7.349
14:43:07:232,2.756,0.004,0.001,-0.016,13.048,10.237,7.342
14:43:07:258,2.782,0.009,0.001,-0.004,13.037,10.228,7.322
14:43:07:285,2.810,0.005,-0.001,-0.011,13.033,10.231,7.316
14:43:07:369,2.894,0.001,0.002,-0.004,13.030,10.236,7.310
14:43:07:369,2.894,0.002,0.001,-0.013,13.024,10.234,7.308
14:43:07:37,2.895,0.006,-0.001,-0.004,13.017,10.228,7.300
14:43:07:389,2.913,0.004,0.000,-0.015,13.018,10.232,7.296
14:43:07:415,2.940,0.005,0.001,-0.004,13.008,10.231,7.293
14:43:07:441,2.966,0.003,-0.004,-0.014,12.999,10.230,7.290
14:43:07:469,2.994,0.003,0.002,-0.006,13.000,10.225,7.285
14:43:07:495,3.020,0.005,-0.003,-0.014,13.011,10.230,7.283
14:43:07:521,3.045,0.004,-0.001,-0.006,13.016,10.232,7.285
14:43:07:547,3.071,0.001,-0.001,-0.013,13.023,10.230,7.277
14:43:07:573,3.097,0.002,0.001,-0.010,13.038,10.233,7.282
14:43:07:599,3.123,0.006,0.000,-0.017,13.050,10.233,7.275
14:43:07:625,3.150,0.006,0.001,-0.006,13.085,10.243,7.282
14:43:07:652,3.177,0.000,-0.002,-0.018,13.106,10.244,7.278
14:43:07:68,3.204,0.004,0.000,-0.010,13.137,10.249,7.299
14:43:07:705,3.229,0.007,-0.003,-0.013,13.163,10.248,7.302
14:43:07:736,3.260,0.000,0.000,-0.013,13.206,10.258,7.337
14:43:07:736,3.260,-0.003,0.000,-0.017,13.245,10.261,7.349
14:43:07:787,3.311,0.010,0.001,-0.010,13.281,10.265,7.350
14:43:07:787,3.311,0.002,0.002,-0.007,13.315,10.270,7.362
14:43:07:809,3.333,0.003,-0.001,-0.010,13.331,10.273,7.377
14:43:07:865,3.389,0.005,0.000,-0.009,13.362,10.279,7.398
14:43:07:865,3.390,0.001,0.002,-0.009,13.385,10.278,7.410
14:43:07:917,3.441,0.002,-0.002,-0.020,13.404,10.276,7.421
14:43:07:918,3.442,0.005,0.001,-0.012,13.416,10.280,7.435
14:43:07:942,3.466,0.007,0.001,-0.009,13.430,10.283,7.440
14:43:07:969,3.494,0.000,0.002,-0.013,13.454,10.288,7.469
14:43:07:994,3.519,-0.002,0.000,-0.003,13.465,10.287,7.488
14:43:08:02,3.545,-0.001,0.002,-0.018,13.484,10.293,7.515
14:43:08:046,3.571,0.005,0.004,-0.002,13.499,10.292,7.535
14:43:08:072,3.596,-0.001,0.002,-0.008,13.500,10.287,7.550
14:43:08:1,3.625,-0.002,0.005,-0.012,13.500,10.287,7.550
14:43:08:185,3.709,0.008,-0.001,-0.014,13.500,10.287,7.550
14:43:08:185,3.710,0.000,0.003,-0.005,13.503,10.295,7.557
14:43:08:185,3.710,0.001,0.000,-0.014,13.501,10.295,7.567
14:43:08:203,3.728,0.006,0.001,-0.003,13.501,10.295,7.567
14:43:08:231,3.756,0.002,0.001,-0.016,13.501,10.295,7.567
14:43:08:257,3.782,0.003,0.000,-0.004,13.501,10.295,7.567
14:43:08:311,3.835,0.003,-0.003,-0.018,13.501,10.295,7.567
14:43:08:311,3.836,0.001,0.003,-0.009,13.501,10.295,7.567
14:43:08:334,3.859,0.001,0.001,-0.013,13.501,10.295,7.567
14:43:08:36,3.885,0.004,0.001,-0.007,13.491,10.294,7.564
14:43:08:387,3.912,0.002,-0.002,-0.014,13.481,10.293,7.561
14:43:08:414,3.939,0.003,-0.003,-0.013,13.471,10.276,7.560
14:43:08:441,3.965,0.001,-0.001,-0.017,13.462,10.275,7.557
14:43:08:467,3.991,0.003,0.002,-0.007,13.462,10.275,7.557
14:43:08:492,4.016,-0.001,0.002,-0.013,13.461,10.270,7.561
14:43:08:518,4.042,-0.001,-0.002,-0.011,13.445,10.263,7.561
14:43:08:574,4.099,0.001,0.001,-0.018,13.430,10.260,7.556
14:43:08:574,4.099,0.009,0.000,-0.011,13.421,10.259,7.553
14:43:08:597,4.121,0.003,-0.003,-0.010,13.399,10.258,7.556
14:43:08:623,4.147,0.001,-0.001,-0.011,13.370,10.238,7.550
14:43:08:651,4.176,0.002,-0.003,-0.019,13.354,10.231,7.549
14:43:08:676,4.201,0.004,-0.002,-0.013,13.327,10.228,7.550
14:43:08:701,4.226,0.000,0.007,-0.008,13.309,10.216,7.543
14:43:08:757,4.281,0.007,0.001,-0.016,13.285,10.212,7.535
14:43:08:758,4.282,0.006,-0.001,-0.004,13.283,10.217,7.541
14:43:08:782,4.306,-0.002,0.000,-0.014,13.283,10.217,7.541
14:43:08:837,4.361,0.002,0.002,-0.008,13.283,10.217,7.541
14:43:08:837,4.361,0.001,0.000,-0.012,13.283,10.217,7.541
14:43:08:859,4.383,0.008,0.004,-0.008,13.283,10.217,7.541
14:43:08:914,4.439,0.001,-0.004,-0.019,13.273,10.216,7.538
14:43:08:915,4.440,0.001,-0.001,-0.007,13.273,10.216,7.538
14:43:08:94,4.464,0.000,0.001,-0.015,13.273,10.216,7.538
14:43:08:968,4.492,-0.001,0.002,-0.008,13.273,10.216,7.538
14:43:09:02,4.544,0.001,-0.004,-0.014,13.273,10.216,7.538
14:43:09:02,4.545,0.000,0.003,-0.008,13.273,10.216,7.538
14:43:09:043,4.567,0.003,0.003,-0.021,13.273,10.216,7.538
14:43:09:071,4.596,-0.001,-0.002,-0.013,13.273,10.216,7.538
14:43:09:096,4.621,0.002,-0.001,-0.014,13.273,10.216,7.538
14:43:09:122,4.646,0.001,0.000,-0.016,13.273,10.216,7.538
14:43:09:148,4.672,-0.002,0.001,-0.014,13.273,10.216,7.538
14:43:09:174,4.699,0.000,0.003,-0.013,13.273,10.216,7.538
14:43:09:201,4.725,0.000,-0.001,-0.017,13.273,10.216,7.538
14:43:09:228,4.752,-0.001,0.000,-0.011,13.273,10.216,7.538
14:43:09:284,4.809,-0.002,0.002,-0.015,13.273,10.216,7.538
14:43:09:284,4.809,0.001,-0.001,-0.015,13.273,10.216,7.538
14:43:09:305,4.830,-0.002,-0.001,-0.019,13.274,10.207,7.537
14:43:09:332,4.856,0.002,0.003,-0.015,13.281,10.191,7.532
14:43:09:359,4.884,0.001,0.001,-0.014,13.281,10.191,7.532
14:43:09:384,4.909,-0.004,-0.004,-0.016,13.275,10.185,7.534
14:43:09:41,4.935,-0.002,0.001,-0.017,13.277,10.179,7.529
14:43:09:436,4.961,-0.003,0.001,-0.016,13.277,10.179,7.529
14:43:09:462,4.987,0.000,0.002,-0.009,13.277,10.179,7.529
14:43:09:489,5.014,0.000,-0.001,-0.012,13.277,10.179,7.529
14:43:09:544,5.069,0.000,0.002,-0.008,13.277,10.179,7.529
14:43:09:545,5.070,-0.002,0.001,-0.014,13.277,10.179,7.529
14:43:09:568,5.092,0.000,0.000,-0.005,13.275,10.185,7.534
14:43:09:594,5.119,-0.001,-0.002,-0.012,13.275,10.185,7.534
14:43:09:62,5.145,0.001,0.001,-0.007,13.275,10.185,7.534
14:43:09:646,5.171,-0.003,-0.003,-0.017,13.275,10.185,7.534
14:43:09:673,5.197,-0.005,0.005,-0.013,13.280,10.196,7.537
14:43:09:728,5.253,-0.009,0.001,-0.016,13.274,10.221,7.533
14:43:09:729,5.253,0.003,0.000,-0.008,13.273,10.239,7.540
14:43:09:752,5.277,-0.004,-0.002,-0.017,13.273,10.239,7.540
14:43:09:778,5.302,-0.001,0.001,-0.009,13.273,10.239,7.540
14:43:09:805,5.329,-0.002,-0.002,-0.013,13.273,10.239,7.540
14:43:09:831,5.356,-0.003,0.000,-0.005,13.273,10.239,7.540
14:43:09:856,5.381,-0.005,0.000,-0.013,13.273,10.239,7.540
14:43:09:884,5.408,-0.005,-0.001,-0.009,13.273,10.239,7.540
14:43:09:911,5.435,-0.004,-0.002,-0.016,13.268,10.241,7.534
14:43:09:935,5.460,0.002,0.003,-0.011,13.274,10.239,7.515
14:43:09:994,5.518,0.000,-0.003,-0.010,13.269,10.240,7.514
14:43:09:994,5.519,0.003,-0.001,-0.010,13.269,10.240,7.514
14:43:09:997,5.521,0.000,-0.001,-0.012,13.269,10.240,7.514
14:43:10:072,5.597,-0.001,0.000,-0.010,13.271,10.222,7.507
14:43:10:073,5.598,-0.003,0.000,-0.018,13.277,10.202,7.506
14:43:10:074,5.598,-0.002,0.002,-0.013,13.275,10.185,7.498
14:43:10:122,5.646,-0.002,0.002,-0.010,13.281,10.165,7.497
14:43:10:123,5.647,-0.003,-0.003,-0.017,13.278,10.148,7.489
14:43:10:174,5.699,-0.003,0.002,-0.014,13.285,10.128,7.488
14:43:10:175,5.699,-0.006,-0.003,-0.013,13.287,10.100,7.480
14:43:10:197,5.722,-0.005,0.004,-0.009,13.288,10.091,7.479
14:43:10:253,5.778,-0.005,-0.001,-0.013,13.288,10.091,7.479
14:43:10:254,5.779,-0.004,0.001,-0.007,13.288,10.091,7.479
14:43:10:277,5.801,-0.002,0.002,-0.009,13.287,10.100,7.480
14:43:10:305,5.829,-0.004,-0.001,-0.003,13.287,10.100,7.480
14:43:10:331,5.855,-0.005,0.001,-0.014,13.287,10.100,7.480
14:43:10:356,5.881,-0.003,0.000,-0.002,13.287,10.100,7.480
14:43:10:383,5.908,-0.011,0.002,-0.013,13.287,10.100,7.480
14:43:10:41,5.935,-0.002,0.000,-0.006,13.287,10.100,7.480
14:43:10:436,5.960,-0.004,0.000,-0.015,13.287,10.100,7.480
14:43:10:461,5.986,-0.002,0.001,-0.008,13.287,10.100,7.480
14:43:10:487,6.012,-0.005,0.000,-0.009,13.287,10.100,7.480
14:43:10:513,6.038,-0.009,0.001,-0.005,13.287,10.100,7.480
14:43:10:539,6.064,-0.003,0.000,-0.019,13.273,10.100,7.476
14:43:10:566,6.091,-0.004,-0.001,-0.003,13.273,10.100,7.476
14:43:10:592,6.117,-0.004,0.001,-0.014,13.268,10.098,7.474
14:43:10:618,6.143,-0.004,-0.001,-0.010,13.241,10.095,7.475
14:43:10:644,6.169,-0.003,-0.002,-0.014,13.237,10.096,7.474
14:43:10:7,6.224,-0.006,-0.001,-0.010,13.222,10.093,7.469
14:43:10:7,6.224,-0.005,0.000,-0.006,13.212,10.088,7.471
14:43:10:724,6.248,-0.003,0.000,-0.005,13.194,10.086,7.475
14:43:10:75,6.274,-0.005,0.000,-0.014,13.159,10.086,7.470
14:43:10:776,6.301,-0.003,0.000,-0.008,13.140,10.085,7.464
14:43:10:804,6.329,-0.003,-0.001,-0.015,13.105,10.075,7.457
14:43:10:828,6.352,-0.002,0.000,-0.008,13.089,10.078,7.457
14:43:10:854,6.379,-0.009,0.000,-0.015,13.059,10.070,7.453
14:43:10:882,6.407,-0.004,-0.002,-0.012,13.027,10.065,7.452
14:43:10:907,6.431,-0.005,0.002,-0.012,13.005,10.064,7.456
14:43:10:962,6.487,-0.005,0.000,-0.013,12.982,10.051,7.447
14:43:10:962,6.487,-0.006,0.000,-0.010,12.956,10.038,7.448
14:43:10:987,6.511,-0.004,0.001,-0.018,12.935,10.042,7.447
14:43:11:012,6.536,-0.003,0.004,-0.006,12.935,10.042,7.447
14:43:11:038,6.562,-0.003,-0.003,-0.013,12.935,10.042,7.447
14:43:11:064,6.589,-0.004,0.000,-0.007,12.929,10.035,7.449
14:43:11:09,6.615,-0.009,-0.002,-0.011,12.929,10.035,7.449
14:43:11:117,6.641,-0.008,0.001,-0.006,12.929,10.035,7.449
14:43:11:143,6.668,-0.007,-0.003,-0.014,12.932,10.034,7.440
14:43:11:169,6.694,-0.011,0.002,-0.010,12.928,10.046,7.414
14:43:11:224,6.749,-0.006,-0.003,-0.015,12.924,10.074,7.386
14:43:11:225,6.750,-0.001,-0.001,-0.009,12.918,10.090,7.365
14:43:11:249,6.773,-0.008,-0.002,-0.022,12.914,10.114,7.341
14:43:11:274,6.799,-0.003,0.000,-0.008,12.913,10.133,7.323
14:43:11:3,6.825,-0.003,-0.002,-0.019,12.917,10.177,7.304
14:43:11:326,6.851,-0.001,0.002,-0.009,12.910,10.201,7.290
14:43:11:352,6.877,-0.003,-0.002,-0.017,12.914,10.219,7.272
14:43:11:379,6.904,-0.006,-0.001,-0.012,12.908,10.225,7.277
14:43:11:405,6.930,-0.005,-0.004,-0.017,12.909,10.229,7.272
14:43:11:432,6.956,-0.004,0.000,-0.012,12.907,10.243,7.258
14:43:11:487,7.012,0.000,-0.003,-0.013,12.909,10.252,7.249
14:43:11:487,7.012,-0.003,-0.002,-0.013,12.907,10.248,7.218
14:43:11:51,7.035,-0.004,-0.001,-0.019,12.905,10.258,7.208
14:43:11:536,7.061,-0.002,0.000,-0.011,12.920,10.275,7.209
14:43:11:563,7.087,-0.002,0.000,-0.011,12.944,10.293,7.214
14:43:11:591,7.115,-0.007,0.001,-0.015,12.954,10.298,7.213
14:43:11:616,7.141,-0.002,-0.002,-0.012,12.969,10.301,7.218
14:43:11:642,7.166,-0.004,-0.003,-0.013,12.995,10.314,7.217
14:43:11:668,7.192,-0.004,0.003,-0.011,13.011,10.321,7.218
14:43:11:694,7.218,-0.008,0.002,-0.015,13.020,10.322,7.221
14:43:11:751,7.276,-0.007,0.002,-0.007,13.020,10.322,7.221
14:43:11:751,7.276,-0.002,0.001,-0.009,13.031,10.318,7.218
14:43:11:773,7.297,-0.003,0.002,-0.007,13.031,10.318,7.218
14:43:11:799,7.324,-0.004,0.001,-0.015,13.031,10.318,7.218
14:43:11:825,7.350,-0.002,0.000,-0.007,13.037,10.320,7.220
14:43:11:881,7.406,-0.002,0.001,-0.016,13.037,10.320,7.220
14:43:11:881,7.406,-0.001,0.003,-0.007,13.047,10.325,7.219
14:43:11:935,7.459,-0.005,-0.002,-0.014,13.068,10.321,7.220
14:43:11:935,7.459,-0.001,-0.001,-0.006,13.078,10.327,7.219
14:43:11:957,7.481,-0.002,0.000,-0.020,13.093,10.330,7.224
14:43:11:983,7.507,-0.001,0.000,-0.008,13.113,10.336,7.225
14:43:12:009,7.534,-0.006,-0.002,-0.022,13.140,10.339,7.224
14:43:12:035,7.560,-0.002,0.001,-0.012,13.155,10.346,7.224
14:43:12:064,7.589,-0.005,0.000,-0.015,13.165,10.347,7.227
14:43:12:089,7.614,-0.002,-0.001,-0.014,13.167,10.342,7.222
14:43:12:115,7.640,-0.002,-0.001,-0.014,13.166,10.351,7.223
14:43:12:142,7.666,-0.002,0.005,-0.011,13.166,10.351,7.223
14:43:12:198,7.723,0.000,-0.001,-0.007,13.169,10.359,7.230
14:43:12:199,7.724,-0.002,0.001,-0.012,13.168,10.368,7.231
14:43:12:2,7.724,-0.008,-0.002,-0.020,13.168,10.368,7.231
14:43:12:248,7.773,-0.007,-0.002,-0.015,13.167,10.368,7.221
14:43:12:249,7.773,-0.001,-0.001,-0.007,13.165,10.370,7.205
14:43:12:331,7.856,-0.002,-0.003,-0.018,13.170,10.364,7.190
14:43:12:332,7.856,-0.001,0.001,-0.016,13.164,10.366,7.173
14:43:12:332,7.856,-0.002,0.001,-0.012,13.158,10.386,7.174
14:43:12:38,7.904,-0.004,-0.002,-0.018,13.161,10.394,7.181
14:43:12:381,7.905,0.000,0.001,-0.019,13.161,10.394,7.181
14:43:12:432,7.956,-0.003,-0.001,-0.016,13.161,10.394,7.181
14:43:12:433,7.957,0.000,-0.002,-0.012,13.161,10.394,7.181
14:43:12:458,7.983,0.001,0.001,-0.010,13.161,10.394,7.181
14:43:12:482,8.006,-0.002,-0.002,-0.014,13.161,10.394,7.181
14:43:12:537,8.061,-0.002,0.002,-0.008,13.161,10.394,7.181
14:43:12:538,8.062,0.001,-0.001,-0.016,13.161,10.394,7.181
14:43:12:591,8.116,0.002,0.000,-0.010,13.161,10.394,7.181
14:43:12:591,8.116,-0.003,0.001,-0.018,13.161,10.394,7.181
14:43:12:613,8.137,0.002,0.003,-0.011,13.161,10.394,7.181
14:43:12:639,8.164,0.000,0.001,-0.020,13.161,10.394,7.181
14:43:12:665,8.190,0.001,0.002,-0.006,13.161,10.394,7.181
14:43:12:721,8.245,-0.004,-0.003,-0.021,13.161,10.394,7.181
14:43:12:722,8.246,0.002,-0.002,-0.012,13.161,10.394,7.181
14:43:12:746,8.271,-0.001,0.002,-0.018,13.161,10.394,7.181
14:43:12:771,8.296,-0.003,-0.001,-0.016,13.161,10.394,7.181
14:43:12:798,8.323,0.001,0.002,-0.017,13.161,10.394,7.181
14:43:12:823,8.348,0.001,0.000,-0.011,13.161,10.394,7.181
14:43:12:849,8.374,-0.003,0.000,-0.021,13.161,10.394,7.181
14:43:12:907,8.431,-0.001,0.003,-0.014,13.161,10.394,7.181
14:43:12:907,8.431,0.002,-0.002,-0.020,13.161,10.394,7.181
14:43:12:928,8.452,0.000,-0.001,-0.015,13.161,10.394,7.181
14:43:12:954,8.479,0.000,-0.003,-0.020,13.161,10.394,7.181
14:43:12:98,8.505,0.001,0.000,-0.011,13.161,10.394,7.181
14:43:13:006,8.531,0.000,0.001,-0.015,13.161,10.394,7.181
14:43:13:033,8.558,-0.003,0.000,-0.019,13.161,10.394,7.181
14:43:13:059,8.584,-0.002,0.000,-0.017,13.161,10.394,7.181
14:43:13:087,8.611,0.000,0.000,-0.017,13.161,10.394,7.181
14:43:13:113,8.637,0.001,-0.002,-0.019,13.161,10.394,7.181
14:43:13:167,8.692,0.000,0.002,-0.018,13.161,10.394,7.181
14:43:13:167,8.692,-0.003,-0.001,-0.018,13.161,10.394,7.181
14:43:13:19,8.715,-0.003,0.001,-0.018,13.161,10.394,7.181
14:43:13:217,8.741,-0.002,0.005,-0.007,13.161,10.394,7.181
14:43:13:243,8.768,-0.001,0.002,-0.015,13.161,10.394,7.181
14:43:13:271,8.795,-0.002,0.001,-0.013,13.161,10.394,7.181
14:43:13:297,8.822,-0.006,0.000,-0.018,13.161,10.394,7.181
14:43:13:323,8.847,-0.001,0.005,-0.012,13.152,10.397,7.173
14:43:13:348,8.872,-0.003,-0.002,-0.020,13.152,10.397,7.173
14:43:13:375,8.900,0.000,0.001,-0.013,13.152,10.397,7.173
14:43:13:43,8.955,0.000,0.002,-0.014,13.151,10.402,7.179
14:43:13:431,8.955,-0.002,0.002,-0.008,13.151,10.402,7.179
14:43:13:453,8.977,-0.005,0.002,-0.020,13.151,10.402,7.179
14:43:13:48,9.004,-0.003,0.000,-0.015,13.151,10.402,7.179
14:43:13:507,9.031,-0.002,-0.003,-0.019,13.151,10.402,7.179
14:43:13:531,9.056,-0.004,-0.001,-0.013,13.151,10.402,7.179
14:43:13:56,9.085,0.000,0.001,-0.020,13.151,10.402,7.179
14:43:13:585,9.110,-0.002,0.002,-0.014,13.151,10.402,7.179
14:43:13:611,9.135,-0.007,-0.003,-0.017,13.151,10.402,7.179
14:43:13:637,9.162,-0.003,0.000,-0.014,13.151,10.402,7.179
14:43:13:692,9.216,-0.005,0.002,-0.015,13.151,10.402,7.179
14:43:13:693,9.217,-0.001,0.001,-0.009,13.151,10.402,7.179
14:43:13:717,9.241,-0.004,-0.002,-0.019,13.151,10.402,7.179
14:43:13:742,9.267,-0.003,0.002,-0.017,13.151,10.402,7.179
14:43:13:768,9.293,-0.010,0.001,-0.013,13.151,10.402,7.179
14:43:13:795,9.319,-0.002,0.003,-0.022,13.151,10.402,7.179
14:43:13:82,9.345,-0.001,0.001,-0.007,13.154,10.423,7.183
14:43:13:875,9.400,-0.006,-0.001,-0.019,13.154,10.423,7.183
14:43:13:876,9.401,-0.008,-0.001,-0.020,13.154,10.423,7.183
14:43:13:9,9.425,-0.006,0.000,-0.013,13.154,10.423,7.183
14:43:13:956,9.481,-0.008,-0.003,-0.016,13.149,10.434,7.182
14:43:13:956,9.481,-0.004,0.002,-0.013,13.151,10.451,7.191
14:43:13:979,9.503,-0.006,0.005,-0.004,13.151,10.451,7.191
14:43:14:035,9.559,-0.003,0.000,-0.012,13.151,10.451,7.191
14:43:14:035,9.560,-0.004,0.001,-0.010,13.151,10.451,7.191
14:43:14:056,9.581,-0.006,-0.002,-0.018,13.151,10.451,7.191
14:43:14:14,9.665,-0.002,-0.002,-0.013,13.143,10.476,7.197
14:43:14:14,9.665,-0.006,0.002,-0.012,13.143,10.476,7.197
14:43:14:22,9.744,-0.008,0.000,-0.020,13.143,10.476,7.197
14:43:14:22,9.745,-0.001,0.003,-0.009,13.143,10.476,7.197
14:43:14:221,9.746,-0.006,-0.002,-0.017,13.143,10.476,7.197
14:43:14:241,9.765,-0.005,-0.001,-0.008,13.143,10.476,7.197
14:43:14:267,9.791,-0.009,-0.002,-0.016,13.143,10.476,7.197
14:43:14:292,9.817,-0.007,-0.003,-0.015,13.143,10.476,7.197
14:43:14:322,9.846,-0.009,0.001,-0.020,13.143,10.476,7.197
14:43:14:347,9.871,-0.003,-0.002,-0.016,13.143,10.476,7.197
14:43:14:398,9.923,-0.002,0.000,-0.015,13.143,10.476,7.197
14:43:14:427,9.952,-0.006,0.001,-0.008,13.143,10.476,7.197
14:43:14:428,9.953,-0.008,0.000,-0.014,13.143,10.476,7.197
14:43:14:45,9.975,-0.005,0.001,-0.011,13.143,10.476,7.197
14:43:14:479,10.004,-0.004,0.000,-0.015,13.143,10.476,7.197
14:43:14:506,10.031,-0.004,-0.002,-0.014,13.143,10.476,7.197
14:43:14:507,10.032,-0.008,0.002,-0.013,13.146,10.462,7.190
14:43:14:558,10.083,-0.007,-0.003,-0.013,13.146,10.462,7.190
14:43:14:559,10.083,-0.006,0.000,-0.013,13.146,10.462,7.190
14:43:14:582,10.106,-0.003,-0.003,-0.011,13.146,10.462,7.190
14:43:14:666,10.191,-0.009,0.002,-0.018,13.146,10.462,7.190
14:43:14:667,10.192,-0.006,0.000,-0.010,13.146,10.462,7.190
14:43:14:667,10.192,-0.006,0.000,-0.017,13.146,10.462,7.190
14:43:14:686,10.211,-0.008,0.001,-0.018,13.146,10.462,7.190
14:43:14:715,10.239,-0.003,0.001,-0.007,13.146,10.462,7.190
14:43:14:74,10.265,-0.008,0.000,-0.013,13.146,10.462,7.190
14:43:14:766,10.291,-0.008,0.001,-0.004,13.146,10.462,7.190
14:43:14:792,10.316,-0.008,0.000,-0.013,13.146,10.462,7.190
14:43:14:848,10.373,-0.007,0.002,-0.007,13.146,10.462,7.190
14:43:14:848,10.373,-0.009,-0.002,-0.019,13.146,10.462,7.190
14:43:14:87,10.395,-0.007,0.001,-0.006,13.146,10.462,7.190
14:43:14:897,10.421,-0.005,-0.002,-0.010,13.146,10.462,7.190
14:43:14:924,10.449,-0.004,0.005,-0.003,13.146,10.462,7.190
14:43:14:95,10.475,-0.010,0.003,-0.012,13.146,10.462,7.190
14:43:14:977,10.501,-0.004,-0.001,-0.004,13.146,10.462,7.190
14:43:15:002,10.526,-0.008,0.000,-0.014,13.146,10.462,7.190
14:43:15:028,10.553,-0.008,0.000,-0.005,13.146,10.462,7.190
14:43:15:054,10.579,-0.011,-0.001,-0.021,13.146,10.462,7.190
14:43:15:11,10.634,-0.008,-0.001,-0.009,13.146,10.462,7.190
14:43:15:111,10.635,-0.005,-0.003,-0.012,13.147,10.466,7.186
14:43:15:134,10.658,-0.010,0.002,-0.011,13.147,10.466,7.186
14:43:15:189,10.713,-0.007,-0.001,-0.012,13.145,10.463,7.175
14:43:15:189,10.713,-0.007,0.003,-0.012,13.147,10.467,7.150
14:43:15:212,10.736,-0.006,0.000,-0.011,13.147,10.463,7.129
14:43:15:238,10.763,-0.002,-0.001,-0.010,13.141,10.465,7.112
14:43:15:266,10.790,-0.004,-0.001,-0.019,13.141,10.465,7.112
14:43:15:291,10.815,-0.007,-0.002,-0.011,13.141,10.465,7.112
14:43:15:317,10.841,-0.008,0.003,-0.010,13.141,10.465,7.112
14:43:15:372,10.896,-0.008,0.000,-0.013,13.141,10.465,7.112
14:43:15:372,10.897,-0.008,-0.002,-0.018,13.141,10.465,7.112
14:43:15:428,10.953,-0.006,0.002,-0.016,13.141,10.465,7.112
14:43:15:428,10.953,-0.005,0.001,-0.013,13.141,10.465,7.112
14:43:15:448,10.973,-0.005,0.000,-0.017,13.141,10.465,7.112
14:43:15:477,11.001,-0.001,0.000,-0.010,13.141,10.465,7.112
14:43:15:501,11.025,-0.005,-0.002,-0.013,13.141,10.465,7.112
14:43:15:556,11.080,-0.007,0.002,-0.007,13.141,10.465,7.112
14:43:15:556,11.081,-0.007,-0.001,-0.016,13.141,10.465,7.112
14:43:15:58,11.104,-0.004,0.000,-0.008,13.141,10.465,7.112
14:43:15:658,11.183,-0.005,0.002,-0.012,13.141,10.465,7.112
14:43:15:69,11.214,-0.004,0.002,-0.008,13.141,10.465,7.112
14:43:15:691,11.215,-0.005,0.000,-0.018,13.141,10.465,7.112
14:43:15:691,11.216,-0.002,0.000,-0.008,13.141,10.465,7.112
14:43:15:711,11.235,-0.005,0.001,-0.016,13.141,10.465,7.112
14:43:15:736,11.261,-0.004,0.005,-0.007,13.141,10.465,7.112
14:43:15:763,11.288,-0.007,0.002,-0.020,13.141,10.465,7.112
14:43:15:818,11.343,-0.005,0.002,-0.008,13.141,10.465,7.112
14:43:15:819,11.344,-0.007,-0.003,-0.019,13.141,10.465,7.112
14:43:15:845,11.369,-0.003,-0.001,-0.014,13.141,10.465,7.112
14:43:15:897,11.421,-0.008,-0.001,-0.017,13.141,10.465,7.112
14:43:15:898,11.422,-0.009,0.000,-0.012,13.141,10.465,7.112
14:43:15:922,11.447,-0.006,0.002,-0.010,13.141,10.465,7.112
14:43:15:978,11.503,-0.003,0.002,-0.008,13.141,10.465,7.112
14:43:15:979,11.503,-0.008,-0.003,-0.014,13.141,10.465,7.112
14:43:15:999,11.524,-0.004,0.000,-0.013,13.141,10.465,7.112
14:43:16:026,11.550,-0.005,-0.004,-0.018,13.141,10.465,7.112
14:43:16:081,11.605,-0.005,0.002,-0.016,13.141,10.465,7.112
14:43:16:081,11.606,-0.007,0.000,-0.014,13.141,10.465,7.112
14:43:16:105,11.630,-0.005,-0.001,-0.014,13.141,10.465,7.112
14:43:16:161,11.685,-0.004,0.000,-0.014,13.141,10.465,7.112
14:43:16:161,11.685,-0.004,0.000,-0.012,13.141,10.465,7.112
14:43:16:183,11.707,-0.010,-0.001,-0.017,13.141,10.465,7.112
14:43:16:209,11.734,-0.005,0.003,-0.011,13.141,10.465,7.112
14:43:16:236,11.760,-0.006,0.000,-0.004,13.141,10.465,7.112
14:43:16:291,11.815,-0.008,0.001,-0.016,13.141,10.465,7.112
14:43:16:291,11.816,-0.004,0.001,-0.003,13.141,10.465,7.112
14:43:16:343,11.868,-0.007,0.001,-0.017,13.141,10.465,7.112
14:43:16:344,11.868,-0.007,0.002,-0.005,13.141,10.465,7.112
14:43:16:367,11.891,-0.001,-0.003,-0.016,13.141,10.465,7.112
14:43:16:393,11.918,-0.004,0.000,-0.005,13.141,10.465,7.112
14:43:16:419,11.944,-0.004,-0.001,-0.015,13.141,10.465,7.112
14:43:16:445,11.970,-0.006,0.000,-0.004,13.141,10.465,7.112
14:43:16:474,11.998,-0.006,0.001,-0.012,13.141,10.465,7.112
14:43:16:499,12.024,-0.004,0.003,-0.005,13.141,10.465,7.112
14:43:16:525,12.049,-0.006,-0.001,-0.011,13.141,10.465,7.112
14:43:16:55,12.075,-0.003,0.000,-0.007,13.141,10.465,7.112
14:43:16:577,12.102,-0.006,-0.001,-0.013,13.141,10.465,7.112
14:43:16:603,12.127,-0.006,0.002,-0.012,13.141,10.465,7.112
14:43:16:63,12.154,-0.003,0.000,-0.010,13.141,10.465,7.112
14:43:16:657,12.182,-0.006,0.001,-0.007,13.141,10.465,7.112
14:43:16:683,12.207,-0.004,-0.002,-0.008,13.141,10.465,7.112
14:43:16:711,12.235,-0.007,0.001,-0.011,13.141,10.465,7.112
14:43:16:711,12.236,0.000,0.004,-0.005,13.141,10.465,7.112
14:43:16:79,12.315,-0.005,-0.001,-0.005,13.141,10.465,7.112
14:43:16:79,12.315,-0.008,0.000,-0.011,13.141,10.465,7.112
14:43:16:816,12.340,-0.004,0.000,-0.009,13.141,10.465,7.112
14:43:16:816,12.341,-0.005,0.000,-0.014,13.141,10.465,7.112
14:43:16:865,12.390,-0.004,0.000,-0.007,13.141,10.465,7.112
14:43:16:895,12.419,-0.006,0.003,-0.007,13.141,10.465,7.112
14:43:16:895,12.420,-0.006,0.001,-0.011,13.131,10.464,7.109
14:43:16:918,12.442,-0.003,0.000,-0.011,13.131,10.464,7.109
14:43:16:944,12.469,-0.003,0.000,-0.010,13.131,10.464,7.109
14:43:16:972,12.497,-0.007,0.002,-0.004,13.131,10.464,7.109
14:43:16:997,12.522,-0.007,0.000,-0.012,13.125,10.458,7.111
14:43:17:052,12.577,0.000,0.001,-0.002,13.125,10.458,7.111
14:43:17:053,12.577,-0.008,-0.001,-0.006,13.125,10.458,7.111
14:43:17:077,12.602,-0.005,0.001,-0.007,13.105,10.461,7.110
14:43:17:104,12.628,-0.005,-0.001,-0.009,13.105,10.461,7.110
14:43:17:13,12.655,-0.003,0.001,-0.002,13.105,10.461,7.110
14:43:17:155,12.680,-0.003,0.002,-0.008,13.105,10.461,7.110
14:43:17:182,12.706,-0.002,0.006,-0.008,13.105,10.461,7.110
14:43:17:209,12.733,-0.003,-0.001,-0.006,13.105,10.461,7.110
14:43:17:235,12.759,-0.002,0.002,-0.006,13.105,10.461,7.110
14:43:17:26,12.785,-0.005,0.000,-0.011,13.105,10.461,7.110
14:43:17:286,12.811,-0.003,0.000,-0.006,13.105,10.461,7.110
14:43:17:312,12.837,-0.002,0.000,-0.011,13.105,10.461,7.110
14:43:17:338,12.863,-0.001,0.000,-0.006,13.105,10.461,7.110
14:43:17:365,12.889,-0.002,0.000,-0.014,13.105,10.461,7.110
14:43:17:391,12.915,-0.002,0.004,-0.007,13.105,10.461,7.110
14:43:17:417,12.941,-0.005,-0.003,-0.015,13.105,10.461,7.110
14:43:17:444,12.968,0.000,-0.002,-0.007,13.105,10.461,7.110
14:43:17:469,12.994,-0.003,-0.001,-0.010,13.105,10.461,7.110
14:43:17:497,13.022,-0.002,-0.001,-0.008,13.105,10.461,7.110
14:43:17:522,13.047,-0.001,0.002,-0.011,13.105,10.461,7.110
14:43:17:578,13.103,-0.001,0.002,-0.008,13.105,10.461,7.110
14:43:17:578,13.103,-0.003,0.001,-0.014,13.105,10.461,7.110
14:43:17:6,13.125,-0.005,-0.003,-0.012,13.105,10.461,7.110
14:43:17:627,13.151,-0.002,-0.002,-0.011,13.105,10.461,7.110
14:43:17:653,13.177,-0.003,0.001,-0.012,13.105,10.461,7.110
14:43:17:679,13.204,-0.004,0.002,-0.011,13.105,10.461,7.110
14:43:17:705,13.230,-0.002,0.000,-0.013,13.105,10.461,7.110
14:43:17:761,13.285,-0.001,0.002,-0.003,13.105,10.461,7.110
14:43:17:761,13.286,-0.003,0.000,-0.010,13.105,10.461,7.110
14:43:17:785,13.310,-0.002,0.003,-0.004,13.105,10.461,7.110
14:43:17:842,13.367,-0.004,0.000,-0.013,13.105,10.461,7.110
14:43:17:842,13.367,-0.004,0.001,-0.005,13.105,10.461,7.110
14:43:17:863,13.388,-0.002,0.001,-0.006,13.105,10.461,7.110
14:43:17:889,13.414,-0.003,0.002,-0.002,13.105,10.461,7.110
14:43:17:916,13.440,-0.004,-0.003,-0.014,13.105,10.461,7.110
14:43:17:942,13.467,-0.003,0.003,-0.004,13.105,10.461,7.110
14:43:17:968,13.492,-0.006,-0.001,-0.015,13.105,10.461,7.110
14:43:18:024,13.549,-0.004,0.003,-0.005,13.105,10.461,7.110
14:43:18:025,13.549,-0.006,0.001,-0.016,13.105,10.461,7.110
14:43:18:047,13.571,-0.003,0.000,-0.009,13.105,10.461,7.110
14:43:18:075,13.600,-0.007,-0.001,-0.011,13.105,10.461,7.110
14:43:18:1,13.625,-0.004,0.001,-0.011,13.105,10.461,7.110
14:43:18:126,13.650,-0.003,0.002,-0.011,13.105,10.461,7.110
14:43:18:152,13.676,-0.004,0.002,-0.004,13.105,10.461,7.110
14:43:18:178,13.702,-0.002,0.000,-0.014,13.105,10.461,7.110
14:43:18:204,13.729,-0.001,0.003,-0.010,13.105,10.461,7.110
14:43:18:232,13.757,-0.005,0.001,-0.009,13.105,10.461,7.110
14:43:18:259,13.784,-0.006,0.001,-0.008,13.105,10.461,7.110
14:43:18:285,13.809,-0.008,0.002,-0.013,13.105,10.461,7.110
14:43:18:31,13.835,-0.007,0.002,-0.011,13.105,10.461,7.110
14:43:18:364,13.889,-0.004,0.001,-0.012,13.105,10.461,7.110
14:43:18:365,13.890,-0.006,0.000,-0.014,13.105,10.461,7.110
14:43:18:388,13.913,-0.007,0.000,-0.015,13.105,10.461,7.110
14:43:18:414,13.939,-0.004,0.000,-0.012,13.105,10.461,7.110
14:43:18:471,13.995,-0.003,-0.001,-0.009,13.105,10.461,7.110
14:43:18:471,13.995,-0.006,0.001,-0.015,13.105,10.461,7.110
14:43:18:493,14.017,-0.003,0.001,-0.003,13.105,10.461,7.110
14:43:18:519,14.044,-0.006,0.002,-0.012,13.105,10.461,7.110
14:43:18:547,14.071,-0.004,0.002,-0.006,13.105,10.461,7.110
14:43:18:572,14.097,-0.006,-0.001,-0.012,13.105,10.461,7.110
14:43:18:598,14.123,-0.003,0.001,-0.006,13.105,10.461,7.110
14:43:18:626,14.150,-0.005,-0.003,-0.012,13.105,10.461,7.110
14:43:18:681,14.205,-0.005,0.000,-0.002,13.105,10.461,7.110
14:43:18:681,14.205,-0.004,-0.001,-0.015,13.105,10.461,7.110
14:43:18:732,14.256,-0.005,0.001,-0.006,13.105,10.461,7.110
14:43:18:733,14.258,-0.004,-0.001,-0.014,13.105,10.461,7.110
14:43:18:756,14.281,-0.003,0.002,-0.008,13.105,10.461,7.110
14:43:18:782,14.306,-0.007,-0.001,-0.016,13.105,10.461,7.110
14:43:18:84,14.364,-0.005,0.000,-0.008,13.105,10.461,7.110
14:43:18:841,14.365,-0.004,-0.001,-0.013,13.105,10.461,7.110
14:43:18:842,14.366,-0.011,0.001,-0.005,13.105,10.461,7.110
14:43:18:89,14.414,-0.006,-0.003,-0.014,13.105,10.461,7.110
14:43:18:891,14.415,-0.007,-0.001,-0.005,13.105,10.461,7.110
14:43:18:942,14.467,-0.005,0.002,-0.010,13.105,10.461,7.110
14:43:18:943,14.468,-0.004,-0.002,-0.008,13.105,10.461,7.110
14:43:18:992,14.517,-0.006,-0.002,-0.016,13.105,10.461,7.110
14:43:19:074,14.599,-0.007,0.000,-0.005,13.105,10.461,7.110
14:43:19:075,14.599,-0.008,0.000,-0.010,13.105,10.461,7.110
14:43:19:096,14.621,-0.008,0.000,-0.010,13.105,10.461,7.110
14:43:19:152,14.677,-0.006,-0.002,-0.011,13.105,10.461,7.110
14:43:19:153,14.677,-0.007,0.002,-0.007,13.105,10.461,7.110
14:43:19:175,14.700,-0.007,-0.001,-0.010,13.105,10.461,7.110
14:43:19:202,14.726,-0.005,-0.002,-0.009,13.105,10.461,7.110
14:43:19:229,14.753,-0.004,0.003,-0.001,13.105,10.461,7.110
14:43:19:254,14.778,-0.005,-0.002,-0.007,13.105,10.461,7.110
14:43:19:28,14.805,-0.007,0.004,-0.005,13.105,10.461,7.110
14:43:19:307,14.832,-0.008,-0.001,-0.012,13.105,10.461,7.110
14:43:19:333,14.857,-0.005,0.002,-0.005,13.105,10.461,7.110
14:43:19:361,14.885,-0.009,0.000,-0.009,13.105,10.461,7.110
14:43:19:386,14.910,-0.003,0.002,-0.001,13.105,10.461,7.110
14:43:19:442,14.967,-0.004,-0.001,-0.004,13.105,10.461,7.110
14:43:19:442,14.967,-0.007,0.002,-0.004,13.105,10.461,7.110
14:43:19:464,14.989,-0.009,-0.001,-0.009,13.105,10.461,7.110
14:43:19:491,15.016,-0.009,0.004,-0.002,13.105,10.461,7.110
14:43:19:517,15.042,-0.007,-0.001,-0.011,13.105,10.461,7.110
14:43:19:543,15.068,-0.005,0.001,-0.006,13.105,10.461,7.110
14:43:19:569,15.094,-0.008,-0.001,-0.011,13.105,10.461,7.110
14:43:19:596,15.121,-0.006,0.000,-0.005,13.105,10.461,7.110
14:43:19:622,15.146,-0.008,0.000,-0.008,13.105,10.461,7.110
14:43:19:65,15.174,-0.004,-0.002,-0.005,13.105,10.461,7.110
14:43:19:705,15.230,-0.007,0.002,-0.008,13.105,10.461,7.110
14:43:19:706,15.230,-0.006,0.004,-0.006,13.105,10.461,7.110
14:43:19:727,15.251,-0.005,0.000,-0.012,13.105,10.461,7.110
14:43:19:782,15.306,-0.005,0.000,-0.005,13.105,10.461,7.110
14:43:19:783,15.307,-0.007,0.002,-0.003,13.105,10.461,7.110
14:43:19:807,15.331,-0.007,0.002,-0.004,13.105,10.461,7.110
14:43:19:832,15.356,-0.001,0.000,-0.008,13.105,10.461,7.110
14:43:19:858,15.383,-0.006,-0.001,-0.013,13.105,10.461,7.110
14:43:19:884,15.409,-0.009,-0.002,-0.010,13.105,10.461,7.110
14:43:19:911,15.435,-0.008,-0.001,-0.008,13.105,10.461,7.110
14:43:19:967,15.491,-0.005,-0.001,-0.007,13.105,10.461,7.110
14:43:19:967,15.491,-0.006,0.000,-0.009,13.105,10.461,7.110
14:43:20:048,15.573,-0.003,0.001,0.000,13.105,10.461,7.110
14:43:20:048,15.573,-0.005,0.002,-0.006,13.105,10.461,7.110
14:43:20:049,15.574,-0.002,0.003,0.001,13.105,10.461,7.110
14:43:20:068,15.593,-0.006,0.000,-0.009,13.105,10.461,7.110
14:43:20:095,15.620,-0.004,0.000,0.000,13.105,10.461,7.110
14:43:20:122,15.647,-0.005,-0.001,-0.006,13.105,10.461,7.110
14:43:20:176,15.700,-0.005,0.002,0.003,13.105,10.461,7.110
14:43:20:176,15.701,-0.010,-0.002,-0.009,13.105,10.461,7.110
14:43:20:229,15.754,-0.003,0.001,0.002,13.105,10.461,7.110
14:43:20:229,15.754,-0.006,0.001,-0.008,13.105,10.461,7.110
14:43:20:252,15.776,-0.004,0.001,-0.001,13.105,10.461,7.110
14:43:20:308,15.832,-0.004,-0.002,-0.009,13.105,10.461,7.110
14:43:20:308,15.832,-0.003,0.001,-0.006,13.105,10.461,7.110
14:43:20:33,15.855,-0.001,0.002,-0.008,13.105,10.452,7.109
14:43:20:359,15.883,-0.006,0.004,-0.001,13.112,10.446,7.105
14:43:20:384,15.908,-0.007,-0.001,-0.006,13.106,10.430,7.107
14:43:20:409,15.934,-0.004,0.002,-0.004,13.114,10.404,7.101
14:43:20:435,15.960,-0.006,-0.001,-0.008,13.116,10.399,7.095
14:43:20:491,16.015,-0.002,-0.001,0.001,13.116,10.399,7.095
14:43:20:492,16.016,-0.007,0.000,-0.005,13.116,10.399,7.095
14:43:20:514,16.039,-0.004,-0.001,-0.004,13.116,10.399,7.095
14:43:20:541,16.065,-0.004,-0.002,-0.012,13.116,10.399,7.095
14:43:20:569,16.093,-0.006,0.000,-0.003,13.116,10.399,7.095
14:43:20:594,16.118,-0.005,0.001,-0.005,13.116,10.399,7.095
14:43:20:619,16.144,-0.003,-0.001,-0.006,13.116,10.399,7.095
14:43:20:675,16.200,-0.006,0.003,-0.006,13.116,10.399,7.095
14:43:20:675,16.200,-0.006,0.001,-0.005,13.116,10.399,7.095
14:43:20:698,16.222,-0.003,-0.001,-0.008,13.116,10.399,7.095
14:43:20:724,16.249,-0.001,0.001,-0.004,13.116,10.399,7.095
14:43:20:751,16.275,-0.004,0.003,0.002,13.116,10.399,7.095
14:43:20:777,16.301,-0.005,0.000,-0.002,13.116,10.399,7.095
14:43:20:805,16.330,-0.004,0.000,0.002,13.116,10.399,7.095
14:43:20:831,16.356,-0.003,0.000,-0.002,13.116,10.399,7.095
14:43:20:857,16.381,-0.003,0.001,0.003,13.116,10.399,7.095
14:43:20:884,16.408,-0.007,0.001,-0.007,13.116,10.399,7.095
14:43:20:908,16.432,-0.007,0.001,0.000,13.116,10.399,7.095
14:43:20:937,16.461,-0.006,-0.001,-0.008,13.116,10.399,7.095
14:43:20:962,16.486,-0.001,0.001,0.000,13.116,10.399,7.095
14:43:21:019,16.544,-0.003,0.002,-0.005,13.116,10.399,7.095
14:43:21:019,16.544,-0.003,0.001,0.004,13.116,10.399,7.095
14:43:21:02,16.545,-0.001,0.000,-0.009,13.116,10.399,7.095
14:43:21:066,16.590,-0.001,0.001,-0.003,13.116,10.399,7.095
14:43:21:096,16.620,0.000,0.000,-0.002,13.116,10.399,7.095
14:43:21:096,16.620,-0.006,0.002,-0.006,13.116,10.399,7.095
14:43:21:149,16.673,-0.005,-0.001,-0.006,13.116,10.399,7.095
14:43:21:149,16.673,-0.004,0.001,0.000,13.116,10.399,7.095
14:43:21:2,16.725,-0.003,0.001,-0.004,13.116,10.399,7.095
14:43:21:202,16.727,-0.005,0.001,0.000,13.116,10.399,7.095
14:43:21:224,16.749,-0.001,0.000,-0.005,13.116,10.399,7.095
14:43:21:28,16.804,-0.001,-0.001,-0.004,13.116,10.399,7.095
14:43:21:28,16.804,-0.003,0.002,-0.007,13.116,10.399,7.095
14:43:21:302,16.826,-0.005,0.000,-0.003,13.116,10.399,7.095
14:43:21:328,16.852,-0.001,0.001,0.000,13.114,10.404,7.101
14:43:21:383,16.908,0.000,0.001,-0.002,13.113,10.414,7.102
14:43:21:384,16.909,-0.001,0.001,-0.007,13.113,10.414,7.102
14:43:21:409,16.933,-0.004,-0.001,-0.007,13.113,10.414,7.102
14:43:21:434,16.958,-0.006,0.000,-0.005,13.113,10.414,7.102
14:43:21:459,16.984,-0.004,-0.001,-0.005,13.113,10.414,7.102
14:43:21:486,17.010,-0.004,0.002,0.000,13.113,10.414,7.102
14:43:21:512,17.036,-0.001,0.001,-0.004,13.113,10.414,7.102
14:43:21:538,17.063,-0.001,0.003,0.003,13.113,10.414,7.102
14:43:21:564,17.089,-0.004,0.001,-0.003,13.113,10.414,7.102
14:43:21:593,17.117,-0.003,0.002,0.004,13.113,10.414,7.102
14:43:21:646,17.170,-0.004,0.001,-0.005,13.113,10.414,7.102
14:43:21:647,17.171,-0.003,0.000,0.000,13.099,10.414,7.097
14:43:21:669,17.194,-0.003,0.000,-0.010,13.093,10.407,7.100
14:43:21:695,17.220,-0.004,0.001,0.003,13.084,10.407,7.097
14:43:21:722,17.247,-0.005,-0.001,-0.009,13.073,10.411,7.099
14:43:21:748,17.273,0.000,0.001,-0.002,13.067,10.409,7.097
14:43:21:774,17.299,-0.002,0.001,-0.008,13.057,10.404,7.098
14:43:21:801,17.325,-0.003,0.000,-0.007,13.057,10.404,7.098
14:43:21:828,17.353,-0.004,-0.002,-0.010,13.057,10.404,7.098
14:43:21:853,17.378,-0.003,0.002,-0.004,13.057,10.404,7.098
14:43:21:909,17.433,-0.005,-0.002,-0.009,13.057,10.404,7.098
14:43:21:909,17.434,-0.007,0.001,-0.005,13.057,10.404,7.098
14:43:21:932,17.456,-0.003,0.003,-0.001,13.057,10.404,7.098
14:43:21:959,17.484,-0.003,0.000,-0.001,13.057,10.404,7.098
14:43:21:985,17.509,0.000,0.002,-0.005,13.057,10.404,7.098
14:43:22:011,17.535,0.000,0.003,-0.001,13.057,10.404,7.098
14:43:22:037,17.561,-0.003,0.000,-0.006,13.062,10.393,7.098
14:43:22:063,17.587,-0.005,0.004,-0.003,13.064,10.388,7.093
14:43:22:089,17.614,-0.003,0.002,-0.001,13.064,10.388,7.093
14:43:22:117,17.642,-0.004,0.001,-0.003,13.064,10.388,7.093
14:43:22:142,17.667,-0.006,-0.001,-0.004,13.044,10.369,7.090
14:43:22:168,17.693,-0.009,0.003,-0.005,13.044,10.369,7.090
14:43:22:194,17.719,-0.002,0.000,-0.007,13.044,10.369,7.090
14:43:22:249,17.774,-0.004,0.000,-0.005,13.044,10.369,7.090
14:43:22:25,17.775,-0.004,0.005,-0.007,13.048,10.366,7.096
14:43:22:273,17.797,-0.007,-0.003,-0.004,13.048,10.366,7.096
14:43:22:299,17.823,-0.004,0.004,0.001,13.048,10.366,7.096
14:43:22:355,17.880,-0.007,0.002,-0.007,13.037,10.371,7.098
14:43:22:356,17.880,-0.003,0.004,0.003,13.037,10.371,7.098
14:43:22:378,17.903,-0.005,0.001,-0.003,13.032,10.369,7.096
14:43:22:434,17.958,-0.007,0.002,-0.003,13.022,10.368,7.093
14:43:22:434,17.959,-0.002,0.000,-0.009,13.012,10.363,7.094
14:43:22:457,17.982,-0.002,0.001,-0.002,13.012,10.363,7.094
14:43:22:483,18.007,-0.004,-0.002,-0.011,13.012,10.363,7.094
14:43:22:509,18.034,-0.004,0.002,-0.003,13.012,10.363,7.094
14:43:22:539,18.063,-0.001,-0.002,-0.008,13.012,10.363,7.094
14:43:22:562,18.086,-0.005,0.000,-0.005,13.012,10.363,7.094
14:43:22:617,18.142,-0.011,-0.001,-0.010,13.012,10.363,7.094
14:43:22:618,18.142,-0.004,0.000,-0.009,13.011,10.372,7.095
14:43:22:642,18.167,-0.003,0.000,-0.010,13.011,10.372,7.095
14:43:22:696,18.220,-0.008,0.000,-0.003,13.011,10.372,7.095
14:43:22:696,18.221,-0.007,0.003,-0.012,13.011,10.372,7.095
14:43:22:721,18.246,-0.005,-0.001,-0.007,13.009,10.377,7.101
14:43:22:746,18.271,-0.005,0.000,-0.006,13.015,10.384,7.098
14:43:22:772,18.296,-0.006,-0.001,-0.004,13.015,10.384,7.098
14:43:22:798,18.322,-0.004,0.000,-0.009,13.015,10.384,7.098
14:43:22:824,18.349,-0.004,0.001,-0.010,13.015,10.384,7.098
14:43:22:851,18.375,-0.010,0.001,-0.014,13.015,10.384,7.098
14:43:22:877,18.401,-0.003,0.001,-0.004,13.025,10.385,7.101
14:43:22:903,18.427,-0.005,-0.001,-0.004,13.047,10.386,7.098
14:43:22:931,18.456,-0.006,-0.001,-0.008,13.047,10.386,7.098
14:43:22:956,18.481,-0.006,0.001,-0.010,13.047,10.386,7.098
14:43:22:982,18.506,-0.006,-0.001,-0.007,13.052,10.388,7.100
14:43:23:008,18.532,-0.002,0.002,0.000,13.052,10.388,7.100
14:43:23:034,18.559,-0.002,0.000,-0.010,13.056,10.390,7.122
14:43:23:063,18.587,-0.007,0.002,0.001,13.083,10.393,7.157
14:43:23:088,18.612,-0.006,0.001,-0.006,13.097,10.396,7.182
14:43:23:144,18.669,-0.010,0.002,-0.001,13.105,10.397,7.210
14:43:23:144,18.669,-0.007,0.001,-0.011,13.114,10.393,7.218
14:43:23:224,18.748,-0.005,0.000,-0.003,13.119,10.395,7.220
14:43:23:224,18.749,-0.005,-0.002,-0.008,13.129,10.401,7.218
14:43:23:225,18.750,-0.001,-0.001,-0.005,13.153,10.428,7.224
14:43:23:244,18.769,-0.003,0.000,-0.007,13.177,10.459,7.231
14:43:23:271,18.795,-0.005,0.001,0.004,13.197,10.477,7.234
14:43:23:296,18.821,-0.008,0.004,-0.006,13.215,10.489,7.241
14:43:23:323,18.848,-0.002,0.002,-0.001,13.209,10.509,7.242
14:43:23:355,18.880,-0.007,-0.001,-0.011,13.209,10.509,7.242
14:43:23:355,18.880,-0.004,0.000,-0.002,13.214,10.511,7.244
14:43:23:434,18.958,-0.005,-0.001,-0.006,13.223,10.522,7.248
14:43:23:435,18.959,-0.007,0.003,-0.005,13.225,10.525,7.259
14:43:23:436,18.960,-0.006,-0.001,-0.007,13.233,10.531,7.268
14:43:23:483,19.008,-0.006,0.002,-0.001,13.233,10.531,7.268
14:43:23:484,19.009,-0.003,0.003,-0.002,13.233,10.531,7.268
14:43:23:536,19.061,-0.003,0.000,-0.001,13.233,10.531,7.268
14:43:23:537,19.061,-0.010,0.002,-0.007,13.233,10.531,7.268
14:43:23:56,19.084,-0.005,-0.001,-0.004,13.233,10.531,7.268
14:43:23:586,19.110,-0.008,-0.002,-0.010,13.232,10.527,7.272
14:43:23:612,19.136,-0.006,0.001,-0.003,13.232,10.527,7.272
14:43:23:638,19.162,-0.010,0.000,-0.006,13.232,10.527,7.272
14:43:23:664,19.189,-0.006,0.001,-0.002,13.232,10.527,7.272
14:43:23:691,19.215,-0.005,0.000,-0.002,13.232,10.527,7.272
14:43:23:72,19.245,-0.006,-0.001,-0.004,13.232,10.527,7.272
14:43:23:743,19.267,-0.003,0.002,0.002,13.232,10.527,7.272
14:43:23:771,19.295,-0.007,0.002,-0.004,13.232,10.527,7.272
14:43:23:797,19.321,-0.004,0.000,0.000,13.232,10.527,7.272
14:43:23:821,19.346,-0.005,-0.001,-0.005,13.232,10.527,7.272
14:43:23:848,19.373,-0.003,0.003,0.003,13.232,10.527,7.272
14:43:23:874,19.399,-0.007,0.003,-0.008,13.232,10.527,7.272
14:43:23:904,19.428,-0.005,0.000,0.000,13.232,10.527,7.272
14:43:23:927,19.451,-0.006,0.000,-0.009,13.232,10.527,7.272
14:43:23:953,19.478,-0.005,0.003,0.000,13.232,10.527,7.272
14:43:23:979,19.504,-0.005,0.001,-0.007,13.232,10.527,7.272
14:43:24:034,19.559,-0.003,0.005,0.003,13.221,10.531,7.274
14:43:24:035,19.560,-0.006,-0.001,-0.012,13.196,10.523,7.271
14:43:24:059,19.584,-0.002,0.001,-0.001,13.174,10.522,7.274
14:43:24:113,19.638,-0.010,0.000,-0.007,13.155,10.520,7.268
14:43:24:139,19.663,-0.003,-0.001,-0.004,13.101,10.514,7.271
14:43:24:192,19.716,-0.006,-0.001,-0.004,13.070,10.499,7.270
14:43:24:193,19.717,-0.002,-0.002,-0.008,13.052,10.502,7.259
14:43:24:215,19.740,0.000,-0.001,0.000,13.032,10.495,7.257
14:43:24:243,19.768,-0.005,0.002,-0.004,13.005,10.492,7.259
14:43:24:269,19.794,-0.005,0.002,-0.003,12.995,10.491,7.256
14:43:24:295,19.820,-0.005,0.001,-0.008,12.968,10.488,7.257
14:43:24:32,19.845,0.001,0.000,0.000,12.953,10.481,7.257
14:43:24:347,19.871,-0.002,-0.002,-0.009,12.932,10.484,7.256
14:43:24:373,19.898,-0.005,-0.001,-0.008,12.932,10.484,7.256
14:43:24:399,19.924,-0.008,0.000,-0.008,12.931,10.480,7.260
14:43:24:425,19.950,-0.005,-0.001,-0.004,12.931,10.480,7.260
14:43:24:453,19.978,-0.003,0.000,-0.009,12.931,10.480,7.260
14:43:24:479,20.003,-0.003,0.000,-0.004,12.931,10.480,7.260
14:43:24:504,20.029,-0.005,0.003,0.001,12.931,10.480,7.260
14:43:24:56,20.084,-0.002,0.000,-0.011,12.931,10.480,7.260
14:43:24:56,20.085,-0.001,0.003,-0.001,12.931,10.480,7.260
14:43:24:583,20.107,-0.003,0.000,-0.005,12.931,10.480,7.260
14:43:24:611,20.135,-0.005,0.001,0.003,12.928,10.481,7.270
14:43:24:637,20.162,-0.002,0.001,-0.008,12.928,10.481,7.270
14:43:24:663,20.188,-0.002,0.001,0.000,12.928,10.481,7.270
14:43:24:691,20.215,-0.006,-0.001,-0.009,12.928,10.481,7.270
14:43:24:716,20.240,-0.002,0.002,0.002,12.928,10.481,7.270
14:43:24:741,20.265,-0.004,0.000,-0.009,12.928,10.481,7.270
14:43:24:767,20.291,-0.005,0.003,0.000,12.928,10.481,7.270
14:43:24:822,20.347,-0.003,-0.002,-0.007,12.928,10.481,7.270
14:43:24:822,20.347,-0.005,0.000,-0.004,12.928,10.481,7.270
14:43:24:845,20.370,-0.002,0.001,-0.007,12.928,10.481,7.270
14:43:24:901,20.426,-0.004,0.002,-0.003,12.928,10.481,7.270
14:43:24:902,20.426,-0.006,-0.003,-0.011,12.928,10.481,7.270
14:43:24:926,20.451,-0.003,0.003,-0.004,12.928,10.481,7.270
14:43:24:953,20.477,-0.007,0.000,-0.010,12.928,10.481,7.270
14:43:24:978,20.502,-0.003,0.000,-0.004,12.928,10.481,7.270
14:43:25:003,20.528,-0.004,-0.001,-0.011,12.928,10.481,7.270
14:43:25:029,20.554,-0.002,-0.001,-0.008,12.928,10.481,7.270
14:43:25:085,20.609,-0.006,0.000,-0.009,12.928,10.481,7.270
14:43:25:111,20.635,-0.006,-0.002,-0.010,12.928,10.481,7.270
14:43:25:111,20.636,-0.001,0.001,-0.007,12.928,10.481,7.270
14:43:25:164,20.688,-0.006,-0.002,-0.008,12.928,10.481,7.270
14:43:25:164,20.689,-0.008,-0.002,-0.011,12.928,10.481,7.270
14:43:25:188,20.712,-0.004,-0.001,-0.006,12.928,10.481,7.270
14:43:25:213,20.738,-0.006,0.003,-0.002,12.928,10.481,7.270
14:43:25:241,20.765,-0.003,0.000,-0.008,12.928,10.481,7.270
14:43:25:296,20.820,-0.002,0.001,-0.001,12.928,10.481,7.270
14:43:25:296,20.821,-0.006,-0.001,-0.010,12.932,10.476,7.275
14:43:25:318,20.843,-0.004,0.002,0.000,12.932,10.476,7.275
14:43:25:344,20.869,-0.004,-0.001,-0.010,12.932,10.476,7.275
14:43:25:372,20.897,-0.003,0.001,0.000,12.932,10.476,7.275
14:43:25:399,20.924,-0.007,-0.001,-0.006,12.932,10.476,7.275
14:43:25:423,20.948,-0.004,0.002,0.000,12.932,10.476,7.275
14:43:25:451,20.976,-0.007,-0.002,-0.013,12.932,10.476,7.275
14:43:25:477,21.001,-0.004,0.001,-0.003,12.932,10.476,7.275
14:43:25:642,21.167,-0.006,0.001,-0.007,12.932,10.476,7.275
14:43:25:643,21.167,-0.004,0.000,-0.005,12.932,10.476,7.275
14:43:25:644,21.168,-0.003,-0.001,-0.010,12.932,10.476,7.275
14:43:25:645,21.169,-0.007,0.001,-0.005,12.932,10.476,7.275
14:43:25:669,21.193,-0.003,-0.002,-0.012,12.932,10.476,7.275
14:43:25:669,21.193,-0.003,0.000,-0.006,12.932,10.476,7.275
14:43:25:669,21.194,-0.002,-0.004,-0.010,12.932,10.476,7.275
14:43:25:67,21.195,-0.004,0.000,-0.005,12.932,10.476,7.275
14:43:25:714,21.239,-0.006,0.001,-0.010,12.932,10.476,7.275
14:43:25:741,21.265,-0.004,-0.005,-0.005,12.932,10.476,7.275
14:43:25:742,21.266,-0.003,0.002,-0.007,12.932,10.476,7.275
14:43:25:824,21.348,-0.007,0.004,-0.006,12.932,10.476,7.275
14:43:25:824,21.348,-0.004,0.001,-0.005,12.932,10.476,7.275
14:43:25:824,21.349,-0.006,0.000,-0.004,12.932,10.476,7.275
14:43:25:902,21.426,-0.007,-0.005,-0.012,12.932,10.476,7.275
14:43:25:902,21.427,-0.004,0.002,-0.010,12.932,10.476,7.275
14:43:25:902,21.427,-0.007,0.000,-0.011,12.927,10.477,7.274
14:43:25:922,21.447,-0.006,-0.002,-0.013,12.914,10.464,7.268
14:43:25:95,21.474,-0.007,0.003,-0.008,12.914,10.464,7.268
14:43:26:003,21.528,-0.004,0.002,-0.011,12.914,10.468,7.264
14:43:26:004,21.529,-0.001,0.003,-0.007,12.914,10.468,7.264
14:43:26:028,21.553,-0.004,0.000,-0.014,12.914,10.468,7.264
14:43:26:053,21.578,0.002,0.001,-0.004,12.916,10.463,7.259
14:43:26:08,21.605,-0.004,-0.003,-0.015,12.912,10.466,7.252
14:43:26:136,21.661,-0.003,0.001,-0.005,12.912,10.466,7.252
14:43:26:136,21.661,-0.002,0.000,-0.017,12.912,10.466,7.252
14:43:26:158,21.682,-0.001,0.002,-0.006,12.912,10.466,7.252
14:43:26:186,21.711,-0.003,-0.001,-0.017,12.912,10.466,7.252
14:43:26:212,21.736,-0.001,0.002,-0.006,12.917,10.468,7.254
14:43:26:268,21.793,-0.003,-0.002,-0.017,12.944,10.471,7.253
14:43:26:268,21.793,0.000,0.000,-0.006,12.954,10.472,7.256
14:43:26:29,21.814,0.001,0.000,-0.016,12.975,10.473,7.252
14:43:26:345,21.870,-0.003,-0.002,-0.010,12.981,10.475,7.254
14:43:26:346,21.870,-0.004,0.000,-0.014,13.000,10.481,7.256
14:43:26:368,21.893,-0.003,0.002,-0.006,13.000,10.481,7.256
14:43:26:396,21.921,-0.002,0.000,-0.013,13.000,10.481,7.256
14:43:26:422,21.947,-0.001,0.003,-0.005,13.012,10.476,7.254
14:43:26:449,21.974,-0.002,0.003,-0.014,13.012,10.476,7.254
14:43:26:531,22.056,0.002,0.005,-0.006,13.012,10.476,7.254
14:43:26:532,22.056,-0.002,0.001,-0.013,13.012,10.476,7.254
14:43:26:533,22.058,-0.005,-0.002,-0.010,13.012,10.476,7.254
14:43:26:552,22.076,-0.003,0.000,-0.014,13.017,10.478,7.256
14:43:26:578,22.103,-0.004,-0.001,-0.013,13.017,10.478,7.256
14:43:26:604,22.129,-0.008,-0.001,-0.010,13.017,10.478,7.256
14:43:26:66,22.184,-0.002,-0.001,-0.011,13.017,10.478,7.256
14:43:26:66,22.185,-0.005,-0.002,-0.012,13.017,10.478,7.256
14:43:26:685,22.209,-0.002,0.000,-0.014,13.017,10.478,7.256
14:43:26:71,22.235,0.000,0.001,-0.003,13.017,10.478,7.256
14:43:26:736,22.260,-0.003,0.001,-0.008,13.017,10.478,7.256
14:43:26:762,22.286,-0.002,0.001,-0.003,13.017,10.478,7.256
14:43:26:789,22.314,-0.003,0.001,-0.012,13.017,10.478,7.256
14:43:26:841,22.366,-0.004,0.000,0.001,13.017,10.478,7.256
14:43:26:871,22.395,-0.002,-0.001,-0.011,13.017,10.478,7.256
14:43:26:871,22.395,-0.002,0.001,-0.004,13.017,10.478,7.256
14:43:26:893,22.417,-0.002,0.000,-0.014,13.017,10.478,7.256
14:43:26:919,22.444,0.000,0.002,-0.005,13.017,10.478,7.256
14:43:26:976,22.501,0.000,0.000,-0.008,13.017,10.478,7.256
14:43:26:976,22.501,-0.003,0.001,-0.004,13.017,10.478,7.256
14:43:27:027,22.552,-0.001,0.000,-0.013,13.017,10.478,7.256
14:43:27:028,22.552,-0.001,-0.002,-0.007,13.017,10.478,7.256
14:43:27:052,22.577,-0.002,-0.002,-0.012,13.017,10.478,7.256
14:43:27:078,22.603,-0.003,-0.002,-0.008,13.017,10.478,7.256
14:43:27:103,22.627,-0.001,0.002,-0.006,13.017,10.478,7.256
14:43:27:131,22.655,-0.001,0.001,-0.009,13.020,10.465,7.244
14:43:27:156,22.681,-0.001,-0.004,-0.016,13.020,10.465,7.244
14:43:27:183,22.708,0.002,0.000,-0.008,13.021,10.460,7.239
14:43:27:239,22.764,0.000,-0.002,-0.011,13.021,10.460,7.239
14:43:27:24,22.764,0.000,0.000,-0.002,13.021,10.460,7.239
14:43:27:289,22.814,-0.002,0.000,-0.013,13.021,10.460,7.239
14:43:27:29,22.815,0.001,0.000,-0.007,13.021,10.460,7.239
14:43:27:313,22.837,-0.001,0.002,-0.008,13.021,10.460,7.239
14:43:27:339,22.864,0.000,0.003,-0.011,13.021,10.460,7.239
14:43:27:367,22.892,0.001,0.002,-0.008,13.021,10.460,7.239
14:43:27:394,22.919,-0.001,0.001,-0.013,13.021,10.460,7.239
14:43:27:418,22.943,-0.002,0.000,-0.011,13.021,10.460,7.239
14:43:27:472,22.997,-0.001,0.000,-0.015,13.021,10.460,7.239
14:43:27:5,23.024,0.000,0.000,-0.013,13.021,10.460,7.239
14:43:27:5,23.025,-0.001,0.001,-0.008,13.021,10.460,7.239
14:43:27:552,23.077,-0.001,0.000,-0.006,13.010,10.464,7.241
14:43:27:553,23.078,-0.001,0.001,-0.009,13.010,10.464,7.241
14:43:27:605,23.129,0.003,0.003,-0.003,13.010,10.464,7.241
14:43:27:605,23.130,0.000,0.001,-0.010,13.001,10.463,7.238
14:43:27:628,23.153,0.000,0.001,-0.005,12.981,10.457,7.237
14:43:27:654,23.179,0.000,-0.001,-0.012,12.974,10.460,7.240
14:43:27:68,23.205,0.000,-0.001,-0.006,12.954,10.454,7.238
14:43:27:735,23.260,-0.002,0.001,-0.015,12.937,10.456,7.238
14:43:27:736,23.261,0.000,0.002,-0.001,12.928,10.455,7.235
14:43:27:761,23.286,-0.006,0.003,-0.010,12.917,10.450,7.237
14:43:27:786,23.310,0.000,0.002,-0.008,12.909,10.427,7.231
14:43:27:841,23.365,0.000,-0.001,-0.010,12.894,10.410,7.229
14:43:27:842,23.366,0.003,0.001,-0.002,12.879,10.407,7.224
14:43:27:894,23.418,-0.001,0.000,-0.011,12.867,10.407,7.231
14:43:27:894,23.419,0.004,0.001,-0.009,12.848,10.405,7.225
14:43:27:92,23.444,0.001,0.001,-0.014,12.839,10.404,7.222
14:43:27:921,23.445,-0.002,0.000,-0.010,12.831,10.403,7.229
14:43:27:97,23.494,0.003,-0.001,-0.013,12.831,10.403,7.229
14:43:28:,23.525,0.004,0.000,-0.004,12.833,10.406,7.241
14:43:28:,23.525,0.003,0.001,-0.011,12.834,10.401,7.256
14:43:28:078,23.603,-0.001,0.000,-0.007,12.834,10.405,7.277
14:43:28:079,23.604,0.001,0.004,-0.014,12.837,10.403,7.304
14:43:28:103,23.628,-0.002,0.001,-0.012,12.833,10.400,7.318
14:43:28:104,23.628,-0.002,-0.003,-0.013,12.837,10.403,7.340
14:43:28:127,23.652,-0.001,0.001,-0.014,12.834,10.399,7.354
14:43:28:211,23.736,0.000,0.000,-0.012,12.838,10.402,7.376
14:43:28:212,23.737,-0.001,-0.001,-0.015,12.832,10.404,7.395
14:43:28:213,23.737,0.001,0.001,-0.012,12.835,10.407,7.407
14:43:28:233,23.757,0.000,-0.002,-0.012,12.840,10.400,7.428
14:43:28:289,23.814,0.004,0.001,-0.007,12.835,10.406,7.443
14:43:28:289,23.814,0.002,0.000,-0.012,12.839,10.404,7.469
14:43:28:31,23.835,0.002,0.000,-0.009,12.844,10.402,7.486
14:43:28:336,23.861,-0.001,0.004,-0.009,12.839,10.403,7.506
14:43:28:393,23.918,0.001,0.002,-0.004,12.834,10.405,7.525
14:43:28:393,23.918,0.007,0.001,-0.015,12.833,10.401,7.529
14:43:28:444,23.968,0.002,0.004,-0.007,12.833,10.401,7.529
14:43:28:471,23.995,0.001,0.000,-0.020,12.833,10.401,7.529
14:43:28:471,23.996,0.001,-0.001,-0.008,12.833,10.401,7.529
14:43:28:494,24.018,0.003,0.000,-0.014,12.833,10.401,7.529
14:43:28:55,24.074,0.001,0.002,-0.007,12.830,10.402,7.539
14:43:28:551,24.075,0.002,0.001,-0.016,12.829,10.397,7.543
14:43:28:575,24.099,0.002,0.000,-0.007,12.829,10.397,7.543
14:43:28:6,24.125,0.000,-0.001,-0.014,12.829,10.397,7.543
14:43:28:626,24.150,0.001,0.000,-0.008,12.829,10.397,7.543
14:43:28:653,24.178,0.000,0.001,-0.015,12.829,10.397,7.543
14:43:28:736,24.261,0.001,-0.002,-0.009,12.829,10.397,7.543
14:43:28:737,24.261,0.001,-0.001,-0.011,12.829,10.397,7.543
14:43:28:738,24.262,0.001,0.004,-0.010,12.829,10.397,7.543
14:43:28:814,24.339,0.001,-0.002,-0.010,12.829,10.397,7.543
14:43:28:815,24.339,0.003,0.003,-0.009,12.829,10.397,7.543
14:43:28:838,24.363,0.000,-0.001,-0.011,12.829,10.397,7.543
14:43:28:839,24.363,0.000,0.002,-0.013,12.829,10.397,7.543
14:43:28:862,24.387,0.000,-0.002,-0.015,12.829,10.397,7.543
14:43:28:918,24.442,-0.002,0.002,-0.014,12.829,10.397,7.543
14:43:28:918,24.442,0.000,-0.001,-0.007,12.829,10.397,7.543
14:43:28:94,24.465,0.001,0.002,-0.010,12.829,10.397,7.543
14:43:28:994,24.519,0.002,0.001,-0.011,12.829,10.397,7.543
14:43:29:022,24.546,-0.002,0.002,-0.014,12.829,10.397,7.543
14:43:29:023,24.547,0.002,0.001,-0.007,12.829,10.397,7.543
14:43:29:049,24.574,0.002,-0.001,-0.015,12.829,10.397,7.543
14:43:29:072,24.597,0.000,0.003,-0.008,12.829,10.397,7.543
14:43:29:099,24.623,-0.002,0.001,-0.012,12.829,10.397,7.543
14:43:29:183,24.707,0.004,0.000,-0.009,12.829,10.397,7.543
14:43:29:183,24.708,0.000,0.003,-0.011,12.829,10.397,7.543
14:43:29:184,24.709,0.005,0.001,-0.007,12.829,10.397,7.543
14:43:29:204,24.728,-0.001,-0.001,-0.015,12.829,10.397,7.543
14:43:29:23,24.754,0.003,0.002,-0.008,12.829,10.397,7.543
14:43:29:286,24.811,0.002,0.001,-0.012,12.829,10.397,7.543
14:43:29:287,24.811,0.002,0.002,-0.007,12.829,10.397,7.543
14:43:29:308,24.833,-0.003,-0.001,-0.014,12.829,10.397,7.543
14:43:29:334,24.858,-0.001,0.001,-0.007,12.829,10.397,7.543
14:43:29:362,24.887,0.002,0.000,-0.014,12.829,10.397,7.543
14:43:29:417,24.942,0.000,-0.002,-0.008,12.829,10.397,7.543
14:43:29:417,24.942,-0.001,0.002,-0.011,12.829,10.397,7.543
14:43:29:439,24.964,0.003,0.002,-0.007,12.829,10.397,7.543
14:43:29:494,25.019,0.005,-0.001,-0.014,12.829,10.397,7.543
14:43:29:495,25.020,0.008,0.004,-0.007,12.829,10.397,7.543
14:43:29:518,25.043,0.001,0.001,-0.010,12.829,10.397,7.543
14:43:29:575,25.099,0.002,-0.001,-0.006,12.829,10.397,7.543
14:43:29:575,25.099,-0.003,0.001,-0.014,12.829,10.397,7.543
14:43:29:597,25.122,-0.001,0.001,-0.009,12.829,10.397,7.543
14:43:29:623,25.148,-0.002,0.000,-0.011,12.829,10.397,7.543
14:43:29:649,25.174,0.000,0.002,-0.008,12.829,10.397,7.543
14:43:29:705,25.229,0.000,0.001,-0.008,12.829,10.397,7.543
14:43:29:705,25.230,-0.001,0.000,-0.006,12.829,10.397,7.543
14:43:29:788,25.313,0.004,0.001,-0.002,12.829,10.397,7.543
14:43:29:788,25.313,-0.002,-0.002,-0.011,12.829,10.397,7.543
14:43:29:789,25.313,-0.001,0.005,-0.003,12.829,10.397,7.543
14:43:29:836,25.360,0.002,0.002,-0.010,12.829,10.397,7.543
14:43:29:837,25.361,0.001,0.003,-0.003,12.829,10.397,7.543
14:43:29:859,25.384,-0.002,0.000,-0.011,12.829,10.397,7.543
14:43:29:885,25.410,0.004,0.004,-0.004,12.829,10.397,7.543
14:43:29:912,25.437,-0.001,-0.001,-0.011,12.829,10.397,7.543
14:43:29:966,25.491,0.000,0.002,-0.004,12.829,10.397,7.543
14:43:30:019,25.544,0.000,-0.002,-0.013,12.829,10.397,7.543
14:43:30:049,25.573,0.003,0.000,-0.004,12.829,10.397,7.543
14:43:30:049,25.574,0.001,0.000,-0.014,12.829,10.397,7.543
14:43:30:05,25.575,0.002,0.000,-0.008,12.829,10.397,7.543
14:43:30:071,25.596,0.003,0.001,-0.010,12.829,10.397,7.543
14:43:30:097,25.622,0.000,0.004,-0.005,12.829,10.397,7.543
14:43:30:122,25.647,0.002,0.002,-0.009,12.829,10.397,7.543
14:43:30:148,25.673,0.001,-0.001,-0.005,12.829,10.397,7.543
14:43:30:232,25.757,0.000,-0.003,-0.011,12.829,10.397,7.543
14:43:30:233,25.758,0.002,-0.001,-0.006,12.829,10.397,7.543
14:43:30:234,25.759,0.001,0.001,-0.014,12.829,10.397,7.543
14:43:30:256,25.780,0.002,0.003,-0.008,12.829,10.397,7.543
14:43:30:256,25.781,0.002,0.002,-0.007,12.829,10.397,7.543
14:43:30:308,25.833,0.001,0.001,-0.006,12.829,10.397,7.543
14:43:30:309,25.834,0.000,0.002,-0.009,12.829,10.397,7.543
14:43:30:332,25.856,-0.001,0.002,-0.011,12.829,10.397,7.543
14:43:30:416,25.941,0.004,0.001,-0.009,12.829,10.397,7.543
14:43:30:417,25.941,0.002,-0.001,-0.011,12.829,10.397,7.543
14:43:30:418,25.942,0.000,-0.001,-0.010,12.829,10.397,7.543
14:43:30:437,25.961,0.001,0.001,-0.012,12.829,10.397,7.543
14:43:30:493,26.017,0.005,0.002,-0.002,12.829,10.397,7.543
14:43:30:493,26.018,0.000,0.003,-0.006,12.829,10.397,7.543
14:43:30:516,26.040,0.001,0.003,-0.002,12.829,10.397,7.543
14:43:30:543,26.068,0.003,0.001,-0.012,12.829,10.397,7.543
14:43:30:569,26.093,0.003,0.001,-0.002,12.829,10.397,7.543
14:43:30:596,26.121,-0.001,0.001,-0.012,12.829,10.397,7.543
14:43:30:681,26.205,0.003,0.002,-0.004,12.829,10.397,7.543
14:43:30:681,26.206,0.002,0.001,-0.009,12.829,10.397,7.543
14:43:30:681,26.206,0.005,-0.001,-0.003,12.829,10.397,7.543
14:43:30:699,26.224,-0.001,-0.003,-0.014,12.829,10.397,7.543
14:43:30:755,26.279,0.000,0.003,-0.004,12.829,10.397,7.543
14:43:30:755,26.280,0.001,-0.003,-0.014,12.829,10.397,7.543
14:43:30:779,26.304,-0.001,0.004,-0.007,12.829,10.397,7.543
14:43:30:804,26.329,0.006,0.000,-0.010,12.829,10.397,7.543
14:43:30:83,26.355,0.001,0.002,-0.010,12.829,10.397,7.543
14:43:30:856,26.381,0.002,-0.002,-0.013,12.829,10.397,7.543
14:43:30:883,26.408,0.002,0.002,-0.007,12.829,10.397,7.543
14:43:30:969,26.494,0.001,-0.002,-0.014,12.829,10.397,7.543
14:43:30:97,26.494,0.002,0.000,-0.009,12.829,10.397,7.543
14:43:30:97,26.494,0.001,-0.002,-0.013,12.829,10.397,7.543
14:43:31:019,26.543,0.004,0.000,-0.004,12.829,10.397,7.543
14:43:31:019,26.543,0.004,-0.001,-0.009,12.829,10.397,7.543
14:43:31:04,26.565,0.000,0.000,-0.006,12.829,10.397,7.543
14:43:31:097,26.621,0.002,0.002,-0.007,12.829,10.397,7.543
14:43:31:097,26.622,0.003,-0.001,-0.012,12.829,10.397,7.543
14:43:31:119,26.644,0.002,0.000,-0.011,12.829,10.397,7.543
14:43:31:146,26.671,0.001,0.000,-0.012,12.829,10.397,7.543
14:43:31:173,26.698,0.001,-0.001,-0.016,12.829,10.397,7.543
14:43:31:229,26.754,0.005,0.001,-0.008,12.829,10.397,7.543
14:43:31:229,26.754,0.005,0.004,-0.002,12.829,10.397,7.543
14:43:31:251,26.775,0.001,0.000,-0.013,12.829,10.397,7.543
14:43:31:277,26.801,0.005,0.004,-0.004,12.829,10.397,7.543
14:43:31:305,26.829,0.003,-0.002,-0.010,12.829,10.397,7.543
14:43:31:356,26.881,0.005,-0.001,-0.006,12.829,10.397,7.543
14:43:31:385,26.910,0.012,0.001,-0.015,12.830,10.388,7.542
14:43:31:385,26.910,0.007,-0.001,-0.004,12.830,10.388,7.542
14:43:31:408,26.933,0.006,0.000,-0.020,12.830,10.388,7.542
14:43:31:437,26.961,0.008,-0.001,-0.005,12.830,10.388,7.542
14:43:31:462,26.987,0.005,-0.004,-0.015,12.830,10.388,7.542
14:43:31:487,27.012,0.009,0.005,-0.005,12.830,10.388,7.542
14:43:31:513,27.038,0.005,0.002,-0.017,12.830,10.388,7.542
14:43:31:539,27.064,0.005,-0.001,-0.011,12.830,10.388,7.542
14:43:31:566,27.090,0.006,0.000,-0.013,12.830,10.388,7.542
14:43:31:621,27.145,0.005,0.003,-0.008,12.830,10.388,7.542
14:43:31:647,27.172,0.009,-0.001,-0.014,12.829,10.397,7.543
14:43:31:648,27.172,0.009,0.000,-0.006,12.829,10.397,7.543
14:43:31:702,27.226,0.005,-0.001,-0.015,12.828,10.393,7.547
14:43:31:702,27.226,0.007,0.002,-0.006,12.833,10.392,7.548
14:43:31:723,27.248,0.006,0.002,-0.012,12.833,10.392,7.548
14:43:31:749,27.274,0.005,0.002,-0.010,12.833,10.392,7.548
14:43:31:803,27.328,0.004,-0.002,-0.017,12.833,10.392,7.548
14:43:31:831,27.355,0.011,0.002,-0.016,12.833,10.392,7.548
14:43:31:832,27.356,0.007,0.003,-0.012,12.833,10.392,7.548
14:43:31:883,27.408,0.008,0.000,-0.006,12.833,10.392,7.548
14:43:31:884,27.409,0.008,0.001,-0.017,12.833,10.392,7.548
14:43:31:907,27.431,0.007,0.000,-0.014,12.833,10.392,7.548
14:43:31:994,27.518,0.006,0.001,-0.015,12.833,10.392,7.548
14:43:31:994,27.518,0.005,-0.003,-0.014,12.833,10.392,7.548
14:43:31:994,27.518,0.009,0.003,-0.009,12.833,10.392,7.548
14:43:32:014,27.538,0.005,-0.004,-0.013,12.833,10.392,7.548
14:43:32:069,27.594,0.007,0.000,-0.010,12.833,10.392,7.548
14:43:32:069,27.594,0.008,0.003,-0.014,12.833,10.392,7.548
14:43:32:09,27.615,0.004,0.003,-0.007,12.833,10.392,7.548
14:43:32:146,27.671,0.008,-0.001,-0.011,12.833,10.392,7.548
14:43:32:146,27.671,0.006,0.001,-0.009,12.833,10.392,7.548
14:43:32:169,27.694,0.005,-0.003,-0.015,12.833,10.392,7.548
14:43:32:197,27.722,0.007,0.002,-0.011,12.833,10.392,7.548
14:43:32:223,27.748,0.008,-0.002,-0.015,12.833,10.392,7.548
14:43:32:248,27.772,0.011,0.001,-0.002,12.833,10.392,7.548
14:43:32:274,27.799,0.007,0.001,-0.015,12.833,10.392,7.548
14:43:32:334,27.859,0.006,0.003,-0.012,12.832,10.388,7.553
14:43:32:334,27.859,0.007,0.001,-0.016,12.832,10.388,7.553
14:43:32:334,27.859,0.005,0.000,-0.012,12.828,10.384,7.567
14:43:32:41,27.935,0.006,0.000,-0.018,12.831,10.387,7.578
14:43:32:411,27.936,0.007,-0.001,-0.011,12.829,10.388,7.599
14:43:32:434,27.959,0.008,0.000,-0.020,12.829,10.388,7.599
14:43:32:435,27.960,0.008,0.002,-0.009,12.829,10.391,7.620
14:43:32:458,27.983,0.009,0.001,-0.014,12.835,10.389,7.637
14:43:32:514,28.039,0.006,0.002,-0.013,12.835,10.389,7.637
14:43:32:514,28.039,0.009,-0.001,-0.015,12.832,10.385,7.651
14:43:32:591,28.115,0.006,0.005,-0.012,12.832,10.385,7.651
14:43:32:621,28.146,0.005,-0.001,-0.011,12.832,10.385,7.651
14:43:32:622,28.147,0.006,0.002,-0.010,12.832,10.385,7.651
14:43:32:623,28.147,0.003,0.001,-0.013,12.832,10.385,7.651
14:43:32:672,28.196,0.008,0.001,-0.009,12.832,10.385,7.651
14:43:32:672,28.197,0.006,0.000,-0.017,12.832,10.385,7.651
14:43:32:695,28.219,0.006,-0.002,-0.012,12.832,10.385,7.651
14:43:32:72,28.245,0.009,0.003,-0.006,12.832,10.385,7.651
14:43:32:776,28.301,0.006,0.001,-0.012,12.832,10.385,7.651
14:43:32:777,28.301,0.008,-0.001,-0.008,12.832,10.385,7.651
14:43:32:8,28.324,0.005,-0.002,-0.014,12.832,10.385,7.651
14:43:32:825,28.350,0.007,0.003,-0.002,12.832,10.385,7.651
14:43:32:88,28.405,0.005,-0.002,-0.012,12.832,10.385,7.651
14:43:32:907,28.432,0.005,0.001,-0.005,12.832,10.385,7.651
14:43:32:909,28.433,0.006,0.001,-0.016,12.832,10.385,7.651
14:43:32:931,28.455,0.007,0.004,-0.002,12.832,10.385,7.651
14:43:32:957,28.481,0.005,-0.001,-0.016,12.832,10.385,7.651
14:43:32:983,28.507,0.006,0.003,-0.002,12.832,10.385,7.651
14:43:33:012,28.536,0.007,0.001,-0.014,12.832,10.385,7.651
14:43:33:037,28.561,0.007,0.002,-0.009,12.832,10.385,7.651
14:43:33:065,28.590,0.006,-0.003,-0.014,12.832,10.385,7.651
14:43:33:118,28.643,0.005,0.002,-0.009,12.832,10.385,7.651
14:43:33:118,28.643,0.007,0.001,-0.014,12.832,10.385,7.651
14:43:33:141,28.665,0.006,-0.001,-0.009,12.832,10.385,7.651
14:43:33:169,28.694,0.005,-0.001,-0.010,12.832,10.385,7.651
14:43:33:195,28.720,0.008,0.003,-0.011,12.832,10.385,7.651
14:43:33:22,28.745,0.009,0.001,-0.012,12.832,10.385,7.651
14:43:33:246,28.771,0.006,0.002,-0.007,12.832,10.385,7.651
14:43:33:302,28.827,0.007,0.000,-0.014,12.832,10.385,7.651
14:43:33:303,28.827,0.006,0.000,-0.012,12.832,10.385,7.651
14:43:33:325,28.849,0.006,-0.001,-0.013,12.832,10.385,7.651
14:43:33:38,28.904,0.007,0.000,-0.011,12.832,10.385,7.651
14:43:33:38,28.905,0.004,-0.001,-0.010,12.832,10.385,7.651
14:43:33:405,28.930,0.008,-0.001,-0.010,12.832,10.385,7.651
14:43:33:43,28.955,0.006,0.000,-0.009,12.832,10.385,7.651
14:43:33:455,28.980,0.007,0.002,-0.012,12.832,10.385,7.651
14:43:33:482,29.007,0.007,0.001,-0.014,12.832,10.385,7.651
14:43:33:51,29.035,0.005,0.003,-0.011,12.832,10.385,7.651
14:43:33:563,29.088,0.010,0.003,-0.005,12.832,10.385,7.651
14:43:33:564,29.089,0.007,0.002,-0.008,12.832,10.385,7.651
14:43:33:588,29.113,0.006,0.003,-0.006,12.832,10.385,7.651
14:43:33:644,29.169,0.005,0.001,-0.013,12.832,10.385,7.651
14:43:33:644,29.169,0.007,0.004,-0.001,12.832,10.385,7.651
14:43:33:666,29.190,0.006,-0.003,-0.011,12.832,10.385,7.651
14:43:33:692,29.217,0.004,-0.001,-0.012,12.832,10.385,7.651
14:43:33:718,29.243,0.006,0.002,-0.012,12.832,10.385,7.651
14:43:33:744,29.269,0.004,0.001,-0.003,12.832,10.385,7.651
14:43:33:773,29.297,0.004,-0.002,-0.013,12.832,10.385,7.651
14:43:33:828,29.353,0.004,0.001,-0.008,12.832,10.385,7.651
14:43:33:828,29.353,0.002,0.000,-0.016,12.832,10.385,7.651
14:43:33:849,29.374,0.007,-0.001,-0.007,12.832,10.385,7.651
14:43:33:876,29.400,0.007,-0.001,-0.009,12.832,10.385,7.651
14:43:33:904,29.429,0.005,-0.001,-0.010,12.832,10.385,7.651
14:43:33:957,29.482,0.007,0.000,-0.015,12.832,10.385,7.651
14:43:33:958,29.482,0.008,0.000,-0.008,12.832,10.385,7.651
14:43:33:98,29.505,0.000,0.001,-0.010,12.832,10.385,7.651
14:43:34:007,29.532,0.005,0.002,-0.010,12.832,10.385,7.651
14:43:34:035,29.560,0.005,-0.001,-0.013,12.832,10.385,7.651
14:43:34:088,29.613,0.008,0.005,-0.006,12.832,10.385,7.651
14:43:34:089,29.614,0.005,-0.002,-0.012,12.832,10.385,7.651
14:43:34:112,29.637,0.004,0.002,-0.010,12.832,10.385,7.651
14:43:34:139,29.663,0.007,0.000,-0.003,12.832,10.385,7.651
14:43:34:165,29.690,0.005,0.001,-0.010,12.832,10.385,7.651
14:43:34:217,29.742,0.003,0.000,-0.012,12.832,10.385,7.651
14:43:34:271,29.796,0.003,-0.001,-0.015,12.832,10.385,7.651
14:43:34:298,29.823,0.001,0.003,-0.009,12.832,10.385,7.651
14:43:34:299,29.824,0.011,0.002,-0.003,12.832,10.385,7.651
14:43:34:351,29.875,0.006,-0.001,-0.014,12.832,10.385,7.651
14:43:34:351,29.876,0.006,0.001,-0.001,12.832,10.385,7.651
14:43:34:376,29.901,0.004,0.000,-0.008,12.832,10.385,7.651
14:43:34:401,29.926,0.012,0.002,-0.007,12.832,10.385,7.651
14:43:34:427,29.952,0.002,0.000,-0.013,12.832,10.385,7.651
14:43:34:453,29.978,0.001,0.001,-0.009,12.832,10.385,7.651
14:43:34:479,30.004,0.004,-0.002,-0.011,12.832,10.385,7.651
14:43:34:535,30.059,0.007,0.002,-0.007,12.832,10.385,7.651
14:43:34:535,30.060,0.005,-0.001,-0.013,12.832,10.385,7.651
14:43:34:561,30.085,0.006,0.002,-0.006,12.832,10.385,7.651
14:43:34:561,30.086,0.003,-0.004,-0.013,12.832,10.385,7.651
14:43:34:611,30.135,0.004,0.000,-0.003,12.832,10.385,7.651
14:43:34:64,30.164,0.002,0.000,-0.015,12.832,10.385,7.651
14:43:34:641,30.165,0.005,-0.001,-0.008,12.832,10.385,7.651
14:43:34:692,30.216,0.002,0.000,-0.011,12.832,10.385,7.651
14:43:34:719,30.243,0.004,0.001,-0.008,12.832,10.385,7.651
14:43:34:719,30.244,0.002,0.000,-0.010,12.832,10.385,7.651
14:43:34:771,30.296,0.004,0.002,-0.008,12.832,10.385,7.651
14:43:34:772,30.297,0.004,0.000,-0.008,12.832,10.385,7.651
14:43:34:823,30.348,0.005,0.002,-0.003,12.832,10.385,7.651
14:43:34:824,30.349,0.007,0.000,-0.013,12.832,10.385,7.651
14:43:34:849,30.373,0.004,-0.002,-0.010,12.832,10.385,7.651
14:43:34:902,30.426,0.005,0.002,-0.016,12.832,10.385,7.651
14:43:34:903,30.427,-0.001,0.001,-0.005,12.832,10.390,7.646
14:43:34:953,30.478,0.009,0.001,-0.011,12.833,10.386,7.625
14:43:35:005,30.529,0.004,0.004,-0.009,12.834,10.385,7.605
14:43:35:058,30.583,0.002,0.002,-0.015,12.829,10.388,7.599
14:43:35:093,30.618,0.001,-0.005,-0.017,12.829,10.388,7.599
14:43:35:093,30.618,0.018,0.003,-0.004,12.829,10.388,7.599
14:43:35:093,30.618,0.018,-0.001,-0.017,12.837,10.362,7.593
14:43:35:094,30.618,0.016,0.004,-0.005,12.839,10.308,7.612
14:43:35:11,30.634,0.015,0.000,-0.013,12.864,10.279,7.642
14:43:35:135,30.660,0.001,0.001,-0.003,12.901,10.193,7.709
14:43:35:162,30.687,-0.002,0.002,-0.018,12.926,10.138,7.761
14:43:35:189,30.714,-0.009,0.002,-0.006,12.958,10.084,7.841
14:43:35:245,30.769,-0.003,0.000,-0.016,12.984,10.052,7.886
14:43:35:245,30.769,0.001,0.001,-0.009,12.996,10.038,7.903
14:43:35:267,30.791,0.005,0.001,-0.016,13.011,10.046,7.904
14:43:35:295,30.820,0.003,0.003,-0.011,13.011,10.046,7.904
14:43:35:321,30.846,0.005,-0.001,-0.015,13.014,10.045,7.894
14:43:35:346,30.870,0.002,0.002,-0.007,13.011,10.042,7.883
14:43:35:374,30.899,0.003,-0.001,-0.012,13.014,10.050,7.854
14:43:35:399,30.924,0.004,0.004,-0.012,13.005,10.054,7.810
14:43:35:425,30.949,0.010,-0.002,-0.017,13.011,10.057,7.787
14:43:35:45,30.975,0.002,-0.003,-0.018,13.012,10.070,7.763
14:43:35:506,31.031,0.005,0.003,-0.012,13.031,10.095,7.746
14:43:35:506,31.031,0.006,0.004,-0.007,13.050,10.146,7.728
14:43:35:532,31.056,0.007,0.000,-0.009,13.050,10.169,7.705
14:43:35:558,31.082,0.007,0.001,-0.008,13.049,10.173,7.690
14:43:35:583,31.108,0.005,0.004,-0.013,13.050,10.174,7.664
14:43:35:609,31.134,0.008,-0.001,-0.013,13.044,10.176,7.647
14:43:35:636,31.160,0.007,0.002,-0.011,13.048,10.175,7.618
14:43:35:664,31.188,0.006,0.001,-0.012,13.047,10.176,7.602
14:43:35:687,31.212,0.004,0.000,-0.002,13.039,10.193,7.571
14:43:35:713,31.238,-0.003,0.003,-0.003,13.047,10.186,7.521
14:43:35:739,31.264,-0.002,0.001,-0.018,13.037,10.186,7.481
14:43:35:768,31.292,0.008,-0.003,-0.018,13.035,10.197,7.410
14:43:35:793,31.317,0.016,-0.002,-0.011,13.030,10.213,7.369
14:43:35:818,31.343,0.013,-0.003,-0.012,13.032,10.226,7.320
14:43:35:844,31.369,0.019,0.002,-0.007,13.028,10.224,7.298
14:43:35:87,31.395,0.014,0.000,-0.016,13.028,10.224,7.298
14:43:35:955,31.479,0.004,-0.001,-0.006,13.035,10.225,7.311
14:43:35:956,31.480,0.007,-0.001,-0.014,13.047,10.229,7.325
14:43:35:957,31.481,0.005,0.001,-0.008,13.056,10.207,7.351
14:43:35:976,31.500,0.008,0.002,-0.015,13.086,10.182,7.378
14:43:36:002,31.526,0.003,0.003,-0.004,13.089,10.159,7.391
14:43:36:028,31.552,0.004,0.005,-0.016,13.094,10.134,7.394
14:43:36:054,31.579,0.004,-0.001,-0.003,13.095,10.129,7.409
14:43:36:081,31.605,0.004,-0.002,-0.013,13.095,10.129,7.409
14:43:36:109,31.634,0.013,0.004,-0.007,13.095,10.129,7.409
14:43:36:134,31.658,0.004,0.000,-0.019,13.098,10.128,7.436
14:43:36:159,31.684,0.001,0.001,-0.008,13.097,10.127,7.461
14:43:36:215,31.739,0.011,-0.003,-0.015,13.098,10.123,7.476
14:43:36:215,31.740,0.003,-0.001,-0.014,13.101,10.104,7.485
14:43:36:267,31.792,0.004,-0.001,-0.015,13.101,10.104,7.485
14:43:36:268,31.793,0.007,-0.001,-0.011,13.101,10.104,7.485
14:43:36:291,31.816,0.009,-0.001,-0.012,13.101,10.104,7.485
14:43:36:317,31.841,0.010,0.002,-0.009,13.099,10.104,7.495
14:43:36:343,31.868,0.003,-0.002,-0.019,13.101,10.107,7.506
14:43:36:369,31.894,0.004,0.002,-0.016,13.100,10.103,7.511
14:43:36:396,31.920,0.007,0.001,-0.014,13.099,10.135,7.514
14:43:36:425,31.949,0.004,0.001,-0.019,13.096,10.150,7.521
14:43:36:477,32.002,0.005,-0.001,-0.016,13.093,10.165,7.527
14:43:36:478,32.003,0.006,0.000,-0.020,13.095,10.172,7.523
14:43:36:501,32.025,0.005,0.005,-0.002,13.095,10.172,7.523
14:43:36:557,32.081,0.003,0.001,-0.013,13.095,10.172,7.523
14:43:36:557,32.081,0.001,-0.002,-0.013,13.090,10.156,7.525
14:43:36:579,32.104,0.003,0.001,-0.021,13.085,10.154,7.523
14:43:36:606,32.130,0.003,0.003,-0.012,13.081,10.133,7.519
14:43:36:634,32.159,0.005,0.001,-0.019,13.088,10.117,7.514
14:43:36:66,32.184,0.011,0.002,-0.009,13.082,10.119,7.497
14:43:36:685,32.209,0.004,-0.002,-0.017,13.087,10.113,7.482
14:43:36:74,32.264,0.006,0.003,-0.011,13.085,10.083,7.452
14:43:36:741,32.265,0.009,0.000,-0.016,13.077,10.051,7.409
14:43:36:764,32.289,0.000,0.003,-0.012,13.070,10.019,7.377
14:43:36:79,32.314,-0.002,0.000,-0.020,13.053,9.972,7.309
14:43:36:82,32.345,0.005,-0.002,-0.015,13.035,9.949,7.264
14:43:36:82,32.345,0.004,-0.001,-0.024,13.000,9.919,7.182
14:43:36:842,32.367,0.017,-0.001,-0.019,12.967,9.918,7.111
14:43:36:899,32.423,0.017,-0.001,-0.019,12.951,9.912,7.074
14:43:36:899,32.423,0.012,-0.001,-0.011,12.932,9.906,7.047
14:43:36:95,32.475,0.007,0.000,-0.024,12.925,9.904,7.034
14:43:36:951,32.475,0.005,0.001,-0.016,12.909,9.907,7.034
14:43:37:031,32.556,0.003,-0.001,-0.019,12.898,9.897,7.040
14:43:37:032,32.557,0.007,-0.003,-0.012,12.884,9.902,7.052
14:43:37:033,32.558,0.006,-0.003,-0.013,12.871,9.902,7.059
14:43:37:081,32.605,0.008,0.000,-0.007,12.869,9.903,7.068
14:43:37:082,32.606,0.004,0.001,-0.019,12.858,9.903,7.085
14:43:37:191,32.716,0.011,0.000,-0.010,12.849,9.910,7.099
14:43:37:192,32.717,0.008,0.002,-0.015,12.844,9.912,7.118
14:43:37:193,32.718,0.004,0.001,-0.015,12.834,9.915,7.137
14:43:37:194,32.719,0.000,-0.001,-0.021,12.818,9.917,7.137
14:43:37:21,32.734,0.002,0.001,-0.019,12.810,9.911,7.129
14:43:37:262,32.787,0.004,0.002,-0.004,12.805,9.909,7.127
14:43:37:289,32.814,0.004,0.003,-0.012,12.796,9.913,7.119
14:43:37:318,32.842,0.006,0.002,-0.012,12.796,9.913,7.119
14:43:37:318,32.842,0.004,-0.001,-0.011,12.787,9.912,7.116
14:43:37:343,32.867,0.004,0.003,-0.005,12.775,9.894,7.105
14:43:37:397,32.922,0.000,0.002,-0.015,12.770,9.882,7.102
14:43:37:398,32.922,0.006,0.000,-0.008,12.761,9.878,7.078
14:43:37:447,32.971,0.006,0.002,-0.012,12.757,9.875,7.056
14:43:37:476,33.000,0.011,-0.001,-0.004,12.744,9.876,7.027
14:43:37:476,33.000,0.002,0.001,-0.017,12.754,9.877,7.030
14:43:37:498,33.023,0.004,0.002,-0.013,12.756,9.876,7.020
14:43:37:524,33.049,0.012,-0.002,-0.011,12.756,9.876,7.020
14:43:37:552,33.077,0.008,0.001,-0.012,12.759,9.875,7.010
14:43:37:579,33.103,0.007,0.000,-0.018,12.771,9.875,7.004
14:43:37:603,33.128,0.002,0.002,-0.009,12.789,9.877,6.999
14:43:37:63,33.154,0.002,0.002,-0.013,12.789,9.891,6.996
14:43:37:656,33.180,0.008,0.001,-0.008,12.788,9.913,6.998
14:43:37:682,33.206,0.009,0.001,-0.013,12.788,9.927,6.995
14:43:37:708,33.232,0.008,0.003,-0.007,12.803,9.952,7.013
14:43:37:736,33.260,0.009,0.000,-0.012,12.813,9.971,7.034
14:43:37:762,33.287,0.009,0.002,-0.017,12.823,9.983,7.075
14:43:37:79,33.314,0.004,0.004,-0.014,12.833,9.983,7.114
14:43:37:813,33.338,0.002,0.004,-0.010,12.840,9.993,7.143
14:43:37:841,33.365,0.002,0.000,-0.011,12.861,10.011,7.183
14:43:37:895,33.419,-0.003,0.003,-0.015,12.871,10.034,7.199
14:43:37:895,33.420,-0.002,0.001,-0.012,12.880,10.072,7.202
14:43:37:918,33.442,0.002,0.003,-0.012,12.891,10.112,7.215
14:43:37:975,33.500,0.003,0.000,-0.012,12.888,10.145,7.203
14:43:37:975,33.500,0.009,0.000,-0.003,12.892,10.183,7.204
14:43:38:026,33.551,0.004,0.006,-0.003,12.891,10.193,7.205
14:43:38:027,33.551,0.003,0.002,-0.010,12.889,10.198,7.210
14:43:38:078,33.603,0.008,0.000,0.000,12.873,10.195,7.195
14:43:38:079,33.604,0.011,-0.003,-0.015,12.846,10.215,7.174
14:43:38:102,33.627,0.011,0.004,-0.003,12.822,10.238,7.164
14:43:38:159,33.683,0.005,0.001,-0.013,12.802,10.231,7.162
14:43:38:159,33.683,0.005,0.002,-0.007,12.767,10.232,7.156
14:43:38:181,33.705,0.003,0.004,-0.009,12.743,10.245,7.146
14:43:38:207,33.732,0.008,0.001,-0.008,12.701,10.284,7.122
14:43:38:233,33.757,0.012,-0.005,-0.018,12.672,10.318,7.113
14:43:38:289,33.814,0.015,-0.002,-0.006,12.657,10.329,7.104
14:43:38:289,33.814,0.014,-0.003,-0.012,12.646,10.319,7.110
14:43:38:314,33.839,0.005,0.001,-0.012,12.640,10.321,7.129
14:43:38:339,33.864,0.011,-0.002,-0.018,12.673,10.272,7.169
14:43:38:364,33.889,0.007,0.000,-0.015,12.706,10.227,7.204
14:43:38:45,33.975,0.005,0.002,-0.021,12.766,10.154,7.280
14:43:38:45,33.975,0.011,-0.008,-0.004,12.852,10.075,7.364
14:43:38:451,33.975,0.008,0.000,-0.014,12.920,10.017,7.428
14:43:38:498,34.023,0.001,0.006,-0.001,13.003,9.912,7.523
14:43:38:499,34.024,0.006,0.001,-0.017,13.057,9.842,7.581
14:43:38:524,34.048,0.000,0.002,-0.008,13.127,9.751,7.668
14:43:38:55,34.075,0.001,-0.001,-0.016,13.184,9.684,7.738
14:43:38:574,34.099,0.008,0.003,-0.006,13.216,9.654,7.780
14:43:38:601,34.125,-0.002,-0.001,-0.010,13.241,9.617,7.829
14:43:38:627,34.151,0.004,0.001,-0.012,13.263,9.613,7.866
14:43:38:653,34.178,0.004,0.002,-0.006,13.279,9.620,7.902
14:43:38:681,34.206,-0.002,0.001,-0.013,13.282,9.614,7.933
14:43:38:707,34.231,0.002,0.003,-0.008,13.279,9.615,7.943
14:43:38:732,34.257,0.000,0.002,-0.011,13.266,9.651,7.949
14:43:38:758,34.283,0.005,0.004,-0.002,13.257,9.681,7.940
14:43:38:784,34.309,0.004,0.003,-0.011,13.247,9.743,7.909
14:43:38:811,34.335,0.007,0.003,-0.005,13.233,9.820,7.874
14:43:38:839,34.364,0.006,0.001,-0.005,13.218,9.867,7.845
14:43:38:863,34.388,0.007,0.003,-0.004,13.188,9.936,7.809
14:43:38:89,34.414,0.002,0.003,-0.015,13.159,9.970,7.774
14:43:38:948,34.473,0.006,0.004,-0.004,13.110,10.016,7.719
14:43:38:949,34.473,0.009,-0.003,-0.007,13.067,10.060,7.655
14:43:38:968,34.493,0.005,0.003,-0.005,13.030,10.097,7.612
14:43:38:994,34.519,0.013,0.000,-0.011,12.985,10.147,7.543
14:43:39:021,34.546,0.017,0.001,-0.004,12.947,10.184,7.500
14:43:39:047,34.571,0.011,-0.001,-0.016,12.893,10.214,7.446
14:43:39:133,34.657,0.005,0.001,-0.014,12.850,10.231,7.409
14:43:39:133,34.658,0.001,0.000,-0.015,12.818,10.235,7.389
14:43:39:133,34.658,0.004,0.002,-0.007,12.782,10.266,7.367
14:43:39:152,34.676,0.006,0.000,-0.005,12.752,10.265,7.342
14:43:39:178,34.703,0.008,0.004,-0.008,12.713,10.258,7.329
14:43:39:207,34.732,0.000,-0.002,-0.022,12.681,10.248,7.313
14:43:39:233,34.758,0.006,0.002,-0.019,12.629,10.228,7.274
14:43:39:235,34.759,0.006,-0.001,-0.015,12.619,10.242,7.231
14:43:39:286,34.810,0.008,0.000,-0.013,12.615,10.239,7.209
14:43:39:336,34.860,0.017,-0.001,-0.016,12.599,10.237,7.193
14:43:39:423,34.948,0.007,0.006,-0.009,12.592,10.208,7.182
14:43:39:424,34.948,0.005,-0.001,-0.011,12.607,10.199,7.185
14:43:39:425,34.949,0.006,-0.001,-0.011,12.627,10.199,7.207
14:43:39:426,34.950,0.002,0.001,-0.010,12.650,10.204,7.236
14:43:39:442,34.967,0.008,0.001,-0.004,12.671,10.204,7.258
14:43:39:467,34.992,0.008,-0.001,-0.015,12.701,10.205,7.283
14:43:39:493,35.018,0.006,0.002,-0.002,12.720,10.211,7.310
14:43:39:519,35.044,0.006,0.001,-0.012,12.748,10.217,7.340
14:43:39:545,35.070,0.006,0.000,-0.003,12.780,10.219,7.376
14:43:39:601,35.126,0.005,0.002,-0.009,12.799,10.224,7.403
14:43:39:601,35.126,0.004,0.003,-0.002,12.839,10.235,7.448
14:43:39:625,35.150,0.010,0.002,-0.010,12.857,10.236,7.479
14:43:39:681,35.205,0.008,0.002,-0.007,12.889,10.241,7.536
14:43:39:681,35.205,0.005,0.000,-0.014,12.923,10.245,7.583
14:43:39:703,35.227,0.012,0.000,-0.002,12.944,10.241,7.620
14:43:39:732,35.256,0.002,0.001,-0.012,12.970,10.252,7.681
14:43:39:755,35.280,0.008,0.001,-0.009,12.980,10.253,7.720
14:43:39:782,35.307,0.005,0.000,-0.012,12.987,10.249,7.773
14:43:39:81,35.335,0.004,-0.001,-0.006,12.992,10.251,7.812
14:43:39:864,35.388,0.000,0.000,-0.015,12.986,10.248,7.835
14:43:39:864,35.389,0.007,0.000,-0.012,12.990,10.251,7.857
14:43:39:915,35.439,0.002,0.001,-0.016,12.990,10.251,7.857
14:43:39:94,35.465,0.005,0.002,-0.007,12.990,10.251,7.857
14:43:39:969,35.494,0.017,0.002,-0.016,12.990,10.251,7.857
14:43:39:969,35.494,0.004,-0.001,-0.005,12.990,10.251,7.857
14:43:39:992,35.517,0.005,0.000,-0.014,12.990,10.251,7.857
14:43:40:022,35.546,0.008,0.004,-0.006,12.990,10.251,7.857
14:43:40:044,35.569,0.003,0.003,-0.015,12.990,10.251,7.857
14:43:40:1,35.624,0.004,0.001,-0.012,12.990,10.251,7.857
14:43:40:101,35.625,0.002,-0.001,-0.016,12.990,10.251,7.857
14:43:40:124,35.648,0.006,-0.001,-0.013,12.990,10.251,7.857
14:43:40:149,35.674,0.008,-0.001,-0.012,12.990,10.251,7.857
14:43:40:176,35.700,0.007,-0.001,-0.015,12.990,10.251,7.857
14:43:40:202,35.726,0.004,0.001,-0.010,12.990,10.251,7.857
14:43:40:228,35.753,0.007,0.003,-0.013,12.990,10.251,7.857
14:43:40:283,35.808,0.007,0.002,-0.002,12.990,10.251,7.857
14:43:40:284,35.809,0.007,0.001,-0.014,12.990,10.251,7.857
14:43:40:307,35.832,0.010,0.005,-0.007,12.985,10.249,7.855
14:43:40:362,35.887,0.005,0.001,-0.017,12.981,10.250,7.854
14:43:40:363,35.888,0.011,-0.002,-0.009,12.979,10.255,7.860
14:43:40:389,35.913,0.005,0.000,-0.015,12.972,10.271,7.865
14:43:40:412,35.936,0.008,0.001,-0.009,12.975,10.292,7.868
14:43:40:438,35.963,0.010,0.001,-0.018,12.967,10.318,7.874
14:43:40:464,35.989,0.009,0.003,-0.006,12.967,10.330,7.876
14:43:40:493,36.017,0.010,0.000,-0.015,12.964,10.345,7.882
14:43:40:517,36.042,0.006,0.000,-0.014,12.964,10.345,7.882
14:43:40:544,36.068,0.007,-0.003,-0.020,12.967,10.348,7.894
14:43:40:57,36.094,0.009,0.003,-0.009,12.968,10.343,7.909
14:43:40:596,36.120,0.004,0.002,-0.023,12.967,10.347,7.930
14:43:40:624,36.149,0.007,0.003,-0.009,12.955,10.361,7.933
14:43:40:649,36.174,0.009,0.002,-0.017,12.944,10.365,7.935
14:43:40:676,36.200,0.004,-0.001,-0.012,12.931,10.361,7.946
14:43:40:701,36.226,0.006,0.000,-0.018,12.928,10.362,7.956
14:43:40:727,36.252,0.006,-0.002,-0.009,12.913,10.362,7.972
14:43:40:754,36.278,0.006,0.000,-0.016,12.908,10.364,7.991
14:43:40:809,36.333,0.003,0.002,-0.014,12.904,10.361,8.005
14:43:40:809,36.334,0.003,-0.001,-0.015,12.894,10.360,8.022
14:43:40:832,36.356,0.007,0.000,-0.014,12.888,10.357,8.026
14:43:40:888,36.413,0.004,-0.001,-0.021,12.880,10.334,8.020
14:43:40:888,36.413,0.007,0.001,-0.015,12.878,10.317,8.012
14:43:40:911,36.435,0.003,-0.002,-0.016,12.868,10.316,8.009
14:43:40:939,36.464,0.010,0.001,-0.011,12.871,10.315,7.999
14:43:40:965,36.489,0.011,0.000,-0.002,12.876,10.319,7.996
14:43:40:99,36.515,0.006,-0.001,-0.015,12.890,10.317,8.005
14:43:41:075,36.600,0.007,0.002,-0.005,12.899,10.322,8.030
14:43:41:076,36.601,0.004,0.001,-0.010,12.896,10.318,8.043
14:43:41:076,36.601,0.005,0.004,-0.004,12.889,10.312,8.046
14:43:41:095,36.619,0.002,0.001,-0.010,12.887,10.295,8.038
14:43:41:15,36.674,0.005,0.001,-0.010,12.884,10.274,8.034
14:43:41:151,36.675,0.005,0.001,-0.013,12.879,10.276,8.028
14:43:41:173,36.698,0.006,-0.001,-0.003,12.875,10.277,8.027
14:43:41:199,36.724,0.003,0.002,-0.012,12.868,10.276,8.014
14:43:41:228,36.752,0.008,0.001,-0.004,12.864,10.260,7.990
14:43:41:254,36.778,0.002,-0.003,-0.014,12.855,10.238,7.948
14:43:41:278,36.803,0.009,0.004,-0.005,12.847,10.236,7.925
14:43:41:306,36.831,0.007,-0.004,-0.014,12.836,10.241,7.901
14:43:41:333,36.857,0.002,0.002,-0.006,12.836,10.241,7.901
14:43:41:358,36.883,0.004,0.002,-0.016,12.829,10.239,7.889
14:43:41:413,36.938,0.002,0.000,-0.015,12.821,10.242,7.881
14:43:41:413,36.938,0.007,0.004,-0.016,12.816,10.240,7.879
14:43:41:436,36.961,0.009,-0.002,-0.007,12.809,10.238,7.867
14:43:41:463,36.988,0.004,0.002,-0.011,12.799,10.238,7.864
14:43:41:491,37.016,0.009,0.002,-0.015,12.799,10.238,7.864
14:43:41:491,37.016,0.009,-0.001,-0.014,12.802,10.237,7.854
14:43:41:544,37.069,0.005,0.001,-0.014,12.814,10.237,7.848
14:43:41:545,37.069,0.007,0.001,-0.015,12.817,10.236,7.838
14:43:41:567,37.092,0.005,0.000,-0.010,12.817,10.236,7.838
14:43:41:62,37.145,0.006,0.000,-0.017,12.818,10.240,7.834
14:43:41:646,37.170,0.007,0.000,-0.013,12.829,10.236,7.831
14:43:41:676,37.201,0.009,0.001,-0.013,12.845,10.243,7.832
14:43:41:676,37.201,0.009,0.002,-0.010,12.871,10.242,7.835
14:43:41:699,37.224,0.012,0.003,-0.004,12.885,10.246,7.835
14:43:41:725,37.249,0.010,0.000,-0.011,12.912,10.250,7.833
14:43:41:751,37.275,0.013,0.003,-0.005,12.937,10.254,7.841
14:43:41:777,37.301,0.011,0.000,-0.015,12.949,10.254,7.835
14:43:41:804,37.329,0.012,0.003,-0.004,12.974,10.262,7.838
14:43:41:83,37.354,0.006,0.000,-0.013,12.976,10.257,7.833
14:43:41:856,37.381,0.008,0.005,-0.004,12.976,10.257,7.833
14:43:41:882,37.407,0.009,0.000,-0.015,12.976,10.257,7.833
14:43:41:908,37.433,0.010,0.002,-0.004,12.990,10.260,7.838
14:43:41:936,37.461,0.010,0.002,-0.014,13.010,10.266,7.840
14:43:41:962,37.487,0.008,0.000,-0.008,13.027,10.264,7.840
14:43:41:988,37.512,0.008,-0.001,-0.017,13.037,10.269,7.838
14:43:42:044,37.569,0.011,0.001,-0.007,13.037,10.269,7.838
14:43:42:046,37.571,0.011,-0.003,-0.011,13.037,10.269,7.838
14:43:42:066,37.590,0.011,0.001,-0.008,13.043,10.259,7.838
14:43:42:121,37.646,0.011,0.000,-0.018,13.043,10.259,7.838
14:43:42:122,37.646,0.015,0.003,-0.009,13.053,10.264,7.837
14:43:42:145,37.669,0.010,0.002,-0.012,13.070,10.262,7.837
14:43:42:171,37.695,0.009,0.001,-0.010,13.080,10.253,7.839
14:43:42:197,37.721,0.019,-0.001,-0.018,13.092,10.253,7.832
14:43:42:223,37.747,0.013,0.003,-0.003,13.101,10.246,7.819
14:43:42:251,37.776,0.008,-0.001,-0.005,13.101,10.228,7.801
14:43:42:277,37.801,0.012,0.000,-0.004,13.094,10.222,7.793
14:43:42:303,37.828,0.013,-0.001,-0.010,13.097,10.226,7.779
14:43:42:33,37.854,0.010,0.001,-0.010,13.099,10.220,7.773
14:43:42:383,37.908,0.007,0.002,-0.010,13.096,10.217,7.762
14:43:42:384,37.909,0.007,-0.001,-0.010,13.095,10.218,7.751
14:43:42:407,37.931,0.011,0.001,-0.008,13.085,10.230,7.745
14:43:42:433,37.958,0.014,0.000,-0.006,13.083,10.240,7.735
14:43:42:459,37.984,0.008,0.001,-0.001,13.079,10.233,7.728
14:43:42:487,38.012,0.012,0.002,-0.010,13.077,10.243,7.718
14:43:42:513,38.038,0.012,0.006,-0.002,13.067,10.256,7.711
14:43:42:539,38.063,0.023,0.000,-0.008,13.063,10.253,7.689
14:43:42:565,38.089,0.010,0.005,0.002,13.061,10.254,7.673
14:43:42:59,38.115,0.009,0.005,-0.008,13.054,10.248,7.665
14:43:42:617,38.142,0.011,0.001,-0.002,13.056,10.247,7.655
14:43:42:643,38.168,0.012,0.000,-0.005,13.051,10.245,7.653
14:43:42:672,38.196,0.015,0.005,-0.001,13.049,10.245,7.643
14:43:42:696,38.220,0.013,-0.001,-0.007,13.049,10.237,7.626
14:43:42:722,38.247,0.015,-0.001,-0.001,13.042,10.235,7.613
14:43:42:748,38.273,0.014,0.006,-0.004,13.040,10.237,7.597
14:43:42:774,38.299,0.010,-0.001,-0.001,13.040,10.232,7.582
14:43:42:801,38.326,0.007,0.000,-0.011,13.038,10.229,7.570
14:43:42:827,38.352,0.011,0.005,-0.006,13.041,10.228,7.560
14:43:42:854,38.378,0.014,-0.001,-0.001,13.037,10.221,7.553
14:43:42:88,38.404,0.015,0.000,-0.001,13.036,10.225,7.538
14:43:42:908,38.432,0.007,-0.002,-0.008,13.033,10.218,7.531
14:43:42:935,38.460,0.014,-0.001,-0.003,13.030,10.215,7.519
14:43:42:958,38.483,0.014,-0.002,-0.006,13.029,10.215,7.509
14:43:43:013,38.538,0.014,0.000,-0.007,13.028,10.207,7.492
14:43:43:014,38.539,0.008,0.002,-0.003,13.027,10.203,7.496
14:43:43:038,38.562,0.016,0.004,-0.005,13.030,10.202,7.487
14:43:43:063,38.588,0.010,0.000,-0.007,13.027,10.199,7.475
14:43:43:091,38.616,0.013,0.001,-0.007,13.023,10.200,7.474
14:43:43:117,38.642,0.010,-0.002,-0.004,13.021,10.197,7.462
14:43:43:173,38.698,0.012,0.002,-0.008,13.009,10.193,7.448
14:43:43:173,38.698,0.012,-0.001,-0.007,12.990,10.191,7.442
14:43:43:194,38.719,0.009,0.000,-0.002,12.966,10.178,7.433
14:43:43:221,38.745,0.009,0.001,0.000,12.944,10.169,7.420
14:43:43:276,38.801,0.010,-0.003,-0.007,12.917,10.166,7.421
14:43:43:276,38.801,0.011,-0.001,0.000,12.895,10.165,7.425
14:43:43:302,38.827,0.011,0.001,-0.005,12.886,10.164,7.422
14:43:43:327,38.851,0.013,0.003,0.004,12.859,10.161,7.423
14:43:43:352,38.877,0.010,0.002,-0.009,12.840,10.159,7.417
14:43:43:378,38.903,0.010,0.000,-0.002,12.813,10.156,7.419
14:43:43:404,38.929,0.011,-0.001,-0.009,12.797,10.148,7.418
14:43:43:43,38.955,0.011,0.002,0.004,12.786,10.153,7.420
14:43:43:458,38.983,0.014,-0.003,-0.006,12.761,10.144,7.417
14:43:43:484,39.009,0.017,0.003,-0.001,12.745,10.150,7.418
14:43:43:54,39.064,0.009,-0.001,-0.009,12.720,10.142,7.414
14:43:43:54,39.065,0.011,0.000,-0.001,12.705,10.139,7.409
14:43:43:562,39.087,0.014,0.000,-0.010,12.694,10.143,7.412
14:43:43:619,39.143,0.013,-0.002,-0.002,12.682,10.143,7.418
14:43:43:619,39.143,0.011,0.001,-0.005,12.667,10.140,7.413
14:43:43:64,39.165,0.012,0.002,0.002,12.645,10.139,7.417
14:43:43:668,39.193,0.010,0.000,-0.008,12.636,10.138,7.414
14:43:43:723,39.248,0.013,0.003,0.003,12.634,10.143,7.419
14:43:43:724,39.248,0.010,-0.002,-0.008,12.611,10.138,7.427
14:43:43:747,39.272,0.009,0.002,-0.006,12.594,10.136,7.432
14:43:43:802,39.326,0.009,0.001,-0.005,12.579,10.136,7.448
14:43:43:802,39.326,0.009,-0.003,-0.004,12.579,10.136,7.448
14:43:43:829,39.353,0.010,0.001,-0.002,12.579,10.136,7.448
14:43:43:829,39.354,0.009,0.001,-0.008,12.579,10.136,7.448
14:43:43:88,39.404,0.009,0.001,-0.002,12.579,10.136,7.448
14:43:43:881,39.405,0.007,-0.001,-0.004,12.579,10.136,7.448
14:43:43:932,39.457,0.010,0.000,-0.001,12.581,10.131,7.443
14:43:43:934,39.458,0.009,0.003,-0.005,12.581,10.131,7.443
14:43:43:985,39.509,0.011,0.006,-0.002,12.587,10.111,7.442
14:43:43:986,39.510,0.009,0.002,-0.004,12.586,10.062,7.430
14:43:44:008,39.533,0.009,-0.002,0.002,12.573,10.028,7.422
14:43:44:064,39.588,0.012,0.001,-0.010,12.567,10.012,7.413
14:43:44:065,39.589,0.013,0.001,-0.003,12.561,10.010,7.411
14:43:44:087,39.612,0.012,0.000,-0.007,12.561,10.010,7.411
14:43:44:113,39.638,0.015,0.000,0.003,12.561,10.010,7.411
14:43:44:141,39.666,0.009,0.002,-0.007,12.559,10.011,7.420
14:43:44:167,39.692,0.008,0.003,-0.003,12.561,10.014,7.432
14:43:44:247,39.772,0.011,-0.002,-0.005,12.561,10.009,7.472
14:43:44:248,39.773,0.007,-0.002,-0.007,12.562,10.012,7.504
14:43:44:272,39.796,0.000,0.006,-0.004,12.557,10.014,7.523
14:43:44:328,39.853,0.001,0.005,-0.001,12.544,10.006,7.513
14:43:44:328,39.853,0.014,0.003,-0.011,12.517,10.016,7.480
14:43:44:351,39.876,0.018,0.002,-0.004,12.498,10.024,7.450
14:43:44:376,39.901,0.014,0.000,-0.013,12.470,10.022,7.415
14:43:44:402,39.926,0.013,0.006,-0.006,12.468,10.032,7.405
14:43:44:428,39.953,0.015,0.001,-0.002,12.463,10.061,7.397
14:43:44:486,40.010,0.010,-0.001,-0.008,12.467,10.068,7.405
14:43:44:486,40.011,0.013,-0.002,-0.006,12.467,10.068,7.405
14:43:44:536,40.060,0.006,0.002,-0.008,12.467,10.068,7.405
14:43:44:537,40.061,0.001,0.002,-0.008,12.457,10.067,7.402
14:43:44:559,40.084,0.013,0.001,-0.007,12.457,10.067,7.402
14:43:44:585,40.110,0.008,-0.003,-0.009,12.457,10.067,7.402
14:43:44:641,40.166,0.001,-0.002,-0.010,12.457,10.067,7.402
14:43:44:642,40.166,0.006,-0.001,-0.004,12.457,10.067,7.402
14:43:44:666,40.191,0.006,0.002,-0.016,12.457,10.067,7.402
14:43:44:691,40.216,0.005,-0.002,-0.017,12.457,10.067,7.402
14:43:44:717,40.242,0.009,0.001,-0.006,12.457,10.067,7.402
14:43:44:772,40.297,0.005,0.002,-0.009,12.457,10.067,7.402
14:43:44:773,40.297,0.007,0.002,-0.001,12.457,10.067,7.402
14:43:44:795,40.320,0.008,0.000,-0.005,12.456,10.063,7.406
14:43:44:822,40.347,0.003,0.003,-0.002,12.456,10.063,7.406
14:43:44:848,40.373,0.005,-0.001,-0.014,12.456,10.063,7.406
14:43:44:876,40.401,0.009,0.003,-0.004,12.456,10.063,7.406
14:43:44:902,40.427,0.005,-0.001,-0.012,12.456,10.063,7.406
14:43:44:956,40.481,0.006,0.002,-0.003,12.456,10.063,7.406
14:43:44:957,40.482,0.009,-0.002,-0.010,12.456,10.063,7.406
14:43:44:98,40.505,0.008,0.003,-0.002,12.456,10.063,7.406
14:43:45:006,40.531,0.006,-0.002,-0.013,12.456,10.063,7.406
14:43:45:032,40.557,0.011,0.000,-0.003,12.456,10.063,7.406
14:43:45:061,40.585,0.007,-0.002,-0.013,12.456,10.063,7.406
14:43:45:084,40.609,0.010,0.002,-0.006,12.456,10.063,7.406
14:43:45:111,40.635,0.004,-0.002,-0.011,12.456,10.063,7.406
14:43:45:139,40.664,0.008,0.001,-0.009,12.456,10.063,7.406
14:43:45:163,40.688,0.008,0.001,-0.008,12.456,10.063,7.406
14:43:45:219,40.743,0.008,0.002,-0.004,12.456,10.063,7.406
14:43:45:219,40.744,0.006,0.004,-0.008,12.456,10.063,7.406
14:43:45:244,40.769,0.007,0.003,-0.012,12.456,10.063,7.406
14:43:45:269,40.794,0.006,0.000,-0.010,12.456,10.063,7.406
14:43:45:295,40.819,0.008,0.001,-0.007,12.456,10.063,7.406
14:43:45:321,40.845,0.010,0.002,-0.010,12.456,10.063,7.406
14:43:45:347,40.872,0.010,0.002,-0.004,12.456,10.063,7.406
14:43:45:374,40.898,0.009,0.001,-0.005,12.456,10.063,7.406
14:43:45:402,40.926,0.005,0.001,-0.009,12.456,10.063,7.406
14:43:45:427,40.951,0.008,0.000,-0.011,12.456,10.063,7.406
14:43:45:478,41.003,0.006,0.000,-0.006,12.456,10.063,7.406
14:43:45:509,41.033,0.009,0.002,-0.004,12.456,10.063,7.406
14:43:45:509,41.033,0.007,-0.003,-0.011,12.456,10.063,7.406
14:43:45:561,41.085,0.009,0.003,-0.003,12.456,10.063,7.406
14:43:45:561,41.086,0.009,-0.001,-0.009,12.457,10.067,7.402
14:43:45:583,41.108,0.009,0.005,0.004,12.459,10.094,7.410
14:43:45:639,41.164,0.003,0.000,-0.005,12.459,10.094,7.410
14:43:45:64,41.164,0.010,0.006,-0.003,12.459,10.094,7.410
14:43:45:663,41.187,-0.001,-0.001,-0.005,12.459,10.094,7.410
14:43:45:688,41.213,-0.002,0.007,0.009,12.461,10.093,7.401
14:43:45:714,41.239,0.014,0.003,-0.006,12.441,10.092,7.379
14:43:45:741,41.265,0.010,-0.003,-0.007,12.426,10.085,7.358
14:43:45:767,41.292,0.008,0.000,-0.018,12.395,10.079,7.338
14:43:45:793,41.318,0.011,0.004,-0.002,12.398,10.078,7.328
14:43:45:819,41.344,0.010,0.001,-0.005,12.395,10.093,7.334
14:43:45:847,41.372,0.016,0.001,-0.006,12.394,10.115,7.337
14:43:45:872,41.397,0.007,-0.003,-0.015,12.394,10.115,7.337
14:43:45:928,41.453,0.009,0.000,-0.002,12.394,10.115,7.337
14:43:45:928,41.453,0.007,0.000,-0.004,12.394,10.115,7.337
14:43:45:951,41.475,0.009,0.001,-0.005,12.394,10.115,7.337
14:43:46:009,41.534,0.012,-0.002,-0.009,12.394,10.115,7.337
14:43:46:01,41.534,0.009,0.000,-0.001,12.394,10.115,7.337
14:43:46:01,41.535,0.007,0.003,-0.007,12.394,10.115,7.337
14:43:46:06,41.584,0.008,-0.003,-0.014,12.396,10.110,7.331
14:43:46:06,41.585,0.014,-0.002,-0.011,12.395,10.102,7.315
14:43:46:085,41.610,0.014,-0.001,-0.011,12.399,10.105,7.301
14:43:46:137,41.662,0.012,0.001,-0.005,12.395,10.103,7.279
14:43:46:138,41.663,0.012,0.000,0.000,12.395,10.103,7.279
14:43:46:192,41.717,0.008,0.001,-0.006,12.380,10.086,7.277
14:43:46:193,41.717,0.009,0.001,-0.008,12.379,10.073,7.265
14:43:46:213,41.738,0.013,0.002,-0.001,12.367,10.070,7.250
14:43:46:269,41.794,0.013,0.003,-0.005,12.356,10.065,7.215
14:43:46:269,41.794,0.013,0.001,-0.005,12.332,10.044,7.190
14:43:46:292,41.817,0.012,0.001,-0.005,12.313,10.042,7.184
14:43:46:318,41.843,0.004,0.004,0.002,12.291,10.037,7.166
14:43:46:345,41.870,0.012,0.003,-0.007,12.269,10.033,7.149
14:43:46:372,41.896,0.012,-0.001,-0.001,12.238,10.032,7.113
14:43:46:397,41.921,0.010,0.002,-0.007,12.198,10.026,7.064
14:43:46:452,41.977,0.022,0.003,0.001,12.170,10.020,7.034
14:43:46:453,41.978,-0.008,-0.006,-0.011,12.118,9.983,6.978
14:43:46:476,42.000,0.015,0.007,-0.007,12.084,9.979,6.931
14:43:46:502,42.027,0.020,-0.004,-0.004,12.041,9.971,6.860
14:43:46:532,42.057,0.016,0.001,-0.008,12.013,9.947,6.812
14:43:46:554,42.079,0.014,0.000,-0.010,11.975,9.909,6.765
14:43:46:582,42.106,0.013,0.002,-0.003,11.945,9.859,6.740
14:43:46:637,42.162,0.013,0.000,-0.008,11.923,9.822,6.734
14:43:46:637,42.162,0.018,-0.004,-0.011,11.898,9.744,6.717
14:43:46:66,42.185,0.014,0.001,-0.017,11.890,9.697,6.714
14:43:46:715,42.239,0.012,-0.001,-0.003,11.896,9.658,6.732
14:43:46:716,42.240,0.011,0.002,-0.005,11.901,9.628,6.776
14:43:46:74,42.265,0.006,0.001,0.000,11.903,9.619,6.806
14:43:46:794,42.318,-0.001,0.000,-0.005,11.905,9.613,6.837
14:43:46:794,42.319,0.008,0.003,-0.002,11.902,9.614,6.847
14:43:46:817,42.342,0.009,0.005,-0.012,11.888,9.614,6.843
14:43:46:843,42.368,0.007,-0.001,-0.009,11.868,9.614,6.821
14:43:46:899,42.423,0.001,0.002,-0.015,11.842,9.607,6.781
14:43:46:925,42.449,0.010,-0.002,-0.009,11.824,9.615,6.730
14:43:46:926,42.450,0.020,0.002,-0.006,11.827,9.637,6.698
14:43:46:977,42.502,0.012,0.002,-0.012,11.823,9.643,6.656
14:43:46:978,42.503,0.015,0.001,-0.004,11.822,9.645,6.641
14:43:47:001,42.525,0.010,0.002,-0.007,11.821,9.646,6.604
14:43:47:027,42.551,0.015,-0.001,-0.002,11.821,9.669,6.581
14:43:47:053,42.578,0.012,0.002,-0.002,11.812,9.691,6.556
14:43:47:08,42.604,0.016,-0.001,0.003,11.812,9.719,6.518
14:43:47:106,42.630,0.014,0.003,-0.008,11.811,9.720,6.481
14:43:47:191,42.715,0.010,0.004,0.001,11.804,9.733,6.429
14:43:47:191,42.715,0.006,0.000,-0.010,11.804,9.761,6.391
14:43:47:192,42.716,0.015,0.000,0.006,11.801,9.800,6.338
14:43:47:241,42.765,0.014,-0.002,-0.008,11.778,9.828,6.288
14:43:47:241,42.766,0.018,0.000,-0.001,11.780,9.846,6.260
14:43:47:263,42.788,0.020,0.000,-0.009,11.765,9.874,6.238
14:43:47:292,42.816,0.019,0.002,0.002,11.768,9.905,6.242
14:43:47:317,42.841,0.016,0.000,-0.008,11.760,9.943,6.250
14:43:47:372,42.896,0.014,0.000,-0.004,11.736,9.957,6.259
14:43:47:372,42.896,0.016,0.001,-0.006,11.734,9.962,6.265
14:43:47:423,42.948,0.016,0.000,-0.006,11.732,9.971,6.291
14:43:47:424,42.949,0.015,0.000,-0.009,11.735,9.969,6.317
14:43:47:448,42.973,0.013,-0.005,-0.007,11.736,9.972,6.349
14:43:47:473,42.998,0.011,0.001,-0.005,11.734,9.972,6.395
14:43:47:499,43.024,0.017,0.000,-0.002,11.736,9.975,6.427
14:43:47:555,43.079,0.016,-0.001,-0.003,11.737,9.973,6.479
14:43:47:608,43.133,0.013,0.004,-0.005,11.736,9.971,6.560
14:43:47:634,43.158,0.013,0.000,-0.002,11.738,9.965,6.591
14:43:47:634,43.159,0.010,0.000,-0.010,11.740,9.950,6.642
14:43:47:686,43.210,0.006,0.007,-0.008,11.748,9.923,6.672
14:43:47:687,43.211,0.010,0.001,-0.004,11.749,9.901,6.669
14:43:47:711,43.236,0.016,0.002,-0.005,11.748,9.897,6.674
14:43:47:765,43.290,0.017,0.001,-0.001,11.748,9.897,6.674
14:43:47:766,43.291,0.015,-0.002,-0.003,11.748,9.897,6.674
14:43:47:788,43.313,0.016,0.002,0.001,11.748,9.897,6.674
14:43:47:815,43.339,0.011,0.002,-0.004,11.749,9.887,6.673
14:43:47:87,43.394,0.017,0.003,0.003,11.751,9.860,6.665
14:43:47:871,43.395,0.015,-0.005,-0.002,11.756,9.862,6.667
14:43:47:893,43.418,0.019,0.002,0.008,11.759,9.861,6.658
14:43:47:949,43.473,0.012,0.002,-0.009,11.757,9.848,6.645
14:43:47:95,43.474,0.017,0.003,0.005,11.760,9.844,6.615
14:43:47:973,43.498,0.017,-0.003,-0.009,11.757,9.846,6.588
14:43:47:999,43.523,0.019,0.000,0.003,11.760,9.845,6.579
14:43:48:024,43.549,0.019,0.001,0.009,11.762,9.830,6.573
14:43:48:051,43.575,0.013,0.000,-0.002,11.767,9.812,6.556
14:43:48:077,43.602,0.018,0.003,-0.004,11.772,9.810,6.537
14:43:48:135,43.659,0.016,0.001,0.000,11.767,9.803,6.519
14:43:48:136,43.660,0.010,0.001,-0.003,11.770,9.802,6.510
14:43:48:136,43.661,0.012,0.003,-0.002,11.767,9.822,6.501
14:43:48:182,43.707,0.014,-0.001,-0.005,11.759,9.847,6.506
14:43:48:211,43.736,0.014,0.001,0.000,11.759,9.888,6.501
14:43:48:212,43.736,0.012,0.002,-0.004,11.756,9.911,6.513
14:43:48:265,43.789,0.010,0.002,-0.001,11.749,9.958,6.532
14:43:48:265,43.789,0.007,-0.004,-0.007,11.766,10.022,6.560
14:43:48:316,43.840,0.009,0.004,-0.006,11.775,10.040,6.581
14:43:48:317,43.841,0.005,0.008,-0.003,11.792,10.083,6.591
14:43:48:34,43.865,0.010,-0.002,-0.005,11.792,10.109,6.589
14:43:48:395,43.919,0.009,0.000,-0.006,11.781,10.155,6.550
14:43:48:396,43.921,0.014,-0.001,-0.002,11.776,10.208,6.508
14:43:48:419,43.944,0.023,-0.002,-0.004,11.779,10.230,6.475
14:43:48:444,43.969,0.022,-0.002,-0.002,11.773,10.260,6.420
14:43:48:471,43.995,0.021,0.002,0.001,11.778,10.258,6.401
14:43:48:497,44.022,0.010,0.002,-0.007,11.779,10.255,6.380
14:43:48:524,44.049,0.011,-0.003,-0.001,11.760,10.253,6.374
14:43:48:55,44.075,0.019,-0.006,-0.005,11.735,10.250,6.366
14:43:48:576,44.101,0.013,0.005,0.003,11.711,10.241,6.342
14:43:48:603,44.127,0.003,0.008,0.005,11.690,10.242,6.341
14:43:48:629,44.153,0.001,0.006,0.004,11.646,10.232,6.331
14:43:48:655,44.179,0.006,-0.001,-0.004,11.605,10.248,6.310
14:43:48:681,44.205,0.015,0.006,0.006,11.535,10.272,6.256
14:43:48:707,44.231,0.017,-0.003,-0.010,11.492,10.268,6.206
14:43:48:763,44.288,0.011,-0.005,0.002,11.490,10.265,6.194
14:43:48:764,44.288,0.013,-0.002,-0.004,11.501,10.242,6.211
14:43:48:788,44.313,0.016,0.002,0.003,11.522,10.216,6.234
14:43:48:841,44.365,0.015,0.000,-0.002,11.568,10.143,6.281
14:43:48:842,44.366,0.000,-0.004,-0.013,11.641,10.063,6.346
14:43:48:864,44.389,0.019,0.000,0.001,11.720,10.040,6.404
14:43:48:891,44.415,0.016,0.001,0.011,11.855,9.997,6.507
14:43:48:946,44.471,0.001,0.000,-0.008,11.943,9.966,6.587
14:43:48:947,44.472,0.007,0.000,-0.001,12.083,9.958,6.727
14:43:48:999,44.523,0.018,0.001,0.002,12.181,9.967,6.809
14:43:49:022,44.547,0.002,0.002,0.000,12.420,9.927,7.053
14:43:49:048,44.573,0.007,0.001,0.001,12.472,9.898,7.117
14:43:49:104,44.628,0.011,-0.002,0.005,12.533,9.873,7.204
14:43:49:104,44.629,-0.001,0.003,-0.001,12.553,9.824,7.251
14:43:49:13,44.655,-0.003,0.005,-0.002,12.583,9.785,7.301
14:43:49:212,44.736,0.001,0.006,0.005,12.612,9.796,7.327
14:43:49:213,44.737,0.009,-0.001,-0.001,12.619,9.824,7.337
14:43:49:213,44.738,-0.002,0.001,0.000,12.622,9.837,7.304
14:43:49:232,44.757,0.004,0.007,0.002,12.621,9.833,7.272
14:43:49:316,44.841,0.009,0.001,-0.002,12.612,9.874,7.203
14:43:49:317,44.842,0.013,0.006,0.012,12.606,9.917,7.124
14:43:49:318,44.843,0.002,0.001,-0.003,12.596,9.923,7.065
14:43:49:337,44.862,0.006,0.001,0.011,12.559,9.948,6.964
14:43:49:392,44.917,0.009,-0.002,0.001,12.524,9.990,6.897
14:43:49:393,44.918,0.015,0.003,0.009,12.470,10.062,6.801
14:43:49:416,44.941,0.011,-0.002,-0.004,12.429,10.114,6.754
14:43:49:472,44.996,0.013,-0.002,0.008,12.368,10.193,6.683
14:43:49:472,44.996,0.014,0.000,-0.004,12.326,10.282,6.635
14:43:49:497,45.022,0.014,0.003,0.006,12.294,10.335,6.616
14:43:49:522,45.047,0.003,-0.002,0.003,12.252,10.401,6.590
14:43:49:548,45.072,0.013,-0.001,0.003,12.227,10.447,6.578
14:43:49:574,45.098,0.013,-0.002,-0.002,12.192,10.501,6.569
14:43:49:659,45.184,0.012,0.000,0.003,12.168,10.542,6.576
14:43:49:659,45.184,0.008,-0.001,-0.001,12.156,10.555,6.579
14:43:49:66,45.184,0.007,0.003,0.000,12.144,10.582,6.584
14:43:49:679,45.204,0.009,0.005,0.010,12.137,10.598,6.589
14:43:49:705,45.230,0.009,-0.001,0.007,12.140,10.619,6.593
14:43:49:731,45.255,0.006,-0.001,-0.001,12.140,10.619,6.593
14:43:49:757,45.282,0.008,-0.001,-0.003,12.134,10.616,6.616
14:43:49:812,45.337,0.010,-0.001,-0.001,12.137,10.614,6.643
14:43:49:813,45.338,0.013,-0.001,0.002,12.155,10.620,6.670
14:43:49:837,45.361,0.007,-0.001,0.005,12.199,10.624,6.720
14:43:49:92,45.445,0.000,0.006,-0.001,12.218,10.625,6.762
14:43:49:921,45.446,0.009,-0.001,0.000,12.261,10.652,6.815
14:43:49:922,45.446,0.010,-0.002,0.007,12.305,10.665,6.882
14:43:49:941,45.465,0.008,-0.002,-0.004,12.329,10.667,6.926
14:43:49:969,45.494,0.004,-0.001,-0.003,12.368,10.664,6.995
14:43:49:996,45.520,0.009,0.005,0.011,12.397,10.666,7.040
14:43:50:022,45.546,0.010,-0.003,0.002,12.440,10.674,7.112
14:43:50:106,45.631,0.002,0.002,0.009,12.481,10.680,7.172
14:43:50:106,45.631,0.002,0.000,0.000,12.505,10.675,7.199
14:43:50:106,45.631,0.001,0.009,0.012,12.510,10.658,7.219
14:43:50:183,45.708,0.002,0.003,-0.001,12.510,10.658,7.219
14:43:50:184,45.708,0.003,0.009,0.014,12.505,10.651,7.202
14:43:50:184,45.709,0.009,0.000,-0.002,12.485,10.651,7.180
14:43:50:204,45.728,0.024,0.002,0.012,12.483,10.697,7.180
14:43:50:229,45.754,0.006,0.000,0.003,12.480,10.710,7.191
14:43:50:285,45.810,0.004,0.004,0.011,12.484,10.723,7.214
14:43:50:285,45.810,0.005,0.000,0.002,12.476,10.729,7.238
14:43:50:308,45.833,0.010,0.000,0.005,12.471,10.740,7.238
14:43:50:335,45.859,0.002,0.001,-0.002,12.450,10.743,7.237
14:43:50:361,45.886,0.009,0.003,0.012,12.433,10.768,7.240
14:43:50:416,45.940,0.009,-0.002,-0.006,12.411,10.781,7.240
14:43:50:417,45.941,0.004,0.001,0.001,12.382,10.810,7.245
14:43:50:442,45.967,0.010,0.005,0.005,12.382,10.836,7.243
14:43:50:443,45.968,0.012,0.004,0.007,12.361,10.839,7.242
14:43:50:466,45.991,0.009,-0.004,-0.001,12.347,10.837,7.237
14:43:50:519,46.044,0.009,0.001,0.006,12.321,10.824,7.238
14:43:50:545,46.070,-0.001,0.000,-0.003,12.297,10.806,7.233
14:43:50:571,46.096,0.003,0.000,0.001,12.286,10.815,7.231
14:43:50:63,46.154,0.005,0.001,0.004,12.281,10.826,7.231
14:43:50:63,46.155,0.011,-0.001,0.001,12.266,10.823,7.226
14:43:50:631,46.156,0.008,-0.001,-0.002,12.247,10.821,7.220
14:43:50:649,46.174,0.008,-0.001,-0.001,12.226,10.820,7.223
14:43:50:676,46.201,0.004,-0.002,0.000,12.227,10.815,7.218
14:43:50:732,46.256,0.001,0.000,-0.001,12.228,10.819,7.214
14:43:50:732,46.257,0.008,0.001,0.009,12.228,10.819,7.214
14:43:50:784,46.308,0.010,0.000,0.005,12.233,10.818,7.215
14:43:50:784,46.309,0.004,0.003,0.003,12.234,10.813,7.209
14:43:50:807,46.331,0.004,0.001,-0.001,12.234,10.813,7.209
14:43:50:862,46.387,0.009,0.000,0.003,12.235,10.817,7.205
14:43:50:863,46.388,0.006,0.003,-0.001,12.232,10.822,7.200
14:43:50:886,46.411,0.006,0.003,0.009,12.232,10.840,7.217
14:43:50:913,46.437,0.003,0.000,0.000,12.234,10.830,7.227
14:43:50:938,46.463,-0.010,0.004,0.013,12.238,10.833,7.249
14:43:50:965,46.489,0.007,0.003,0.008,12.237,10.846,7.271
14:43:50:991,46.515,0.010,0.001,0.006,12.242,10.839,7.292
14:43:51:018,46.543,0.004,-0.001,0.008,12.254,10.842,7.343
14:43:51:044,46.569,0.011,0.002,0.004,12.257,10.840,7.370
14:43:51:071,46.595,0.004,0.002,0.001,12.257,10.839,7.406
14:43:51:181,46.706,0.003,0.000,0.003,12.261,10.842,7.428
14:43:51:182,46.707,0.004,0.000,0.002,12.263,10.840,7.444
14:43:51:183,46.708,0.005,0.003,0.006,12.263,10.836,7.459
14:43:51:205,46.729,0.022,0.003,-0.005,12.264,10.844,7.476
14:43:51:205,46.729,0.006,0.003,0.009,12.268,10.846,7.498
14:43:51:23,46.755,0.005,-0.001,0.002,12.264,10.843,7.512
14:43:51:253,46.778,0.006,0.000,0.002,12.240,10.842,7.525
14:43:51:306,46.831,0.005,-0.001,-0.001,12.235,10.840,7.523
14:43:51:335,46.859,0.004,0.006,0.006,12.225,10.839,7.520
14:43:51:336,46.860,0.004,0.001,0.004,12.213,10.839,7.526
14:43:51:418,46.943,0.005,0.002,0.005,12.198,10.836,7.521
14:43:51:418,46.943,0.007,0.000,-0.002,12.188,10.831,7.523
14:43:51:418,46.943,0.004,-0.001,0.001,12.176,10.835,7.525
14:43:51:438,46.963,0.000,0.000,0.000,12.162,10.832,7.520
14:43:51:464,46.988,-0.004,0.002,0.014,12.140,10.831,7.523
14:43:51:519,47.044,0.006,0.006,0.008,12.120,10.825,7.521
14:43:51:52,47.044,0.006,0.001,0.002,12.090,10.824,7.496
14:43:51:6,47.125,0.002,0.002,0.012,12.067,10.819,7.468
14:43:51:601,47.126,0.014,0.006,-0.002,12.037,10.814,7.422
14:43:51:601,47.126,0.019,0.002,0.000,12.001,10.811,7.384
14:43:51:621,47.146,0.006,-0.007,0.000,11.977,10.798,7.375
14:43:51:647,47.172,0.008,0.001,0.008,11.968,10.797,7.372
14:43:51:673,47.198,0.007,0.002,0.003,11.968,10.797,7.372
14:43:51:699,47.224,0.009,0.003,0.011,11.956,10.797,7.379
14:43:51:784,47.309,0.002,0.000,0.002,11.941,10.794,7.373
14:43:51:785,47.310,0.008,0.002,0.008,11.941,10.794,7.373
14:43:51:786,47.311,0.002,0.000,0.004,11.941,10.794,7.373
14:43:51:863,47.388,0.006,-0.001,-0.001,11.919,10.793,7.377
14:43:51:864,47.388,0.001,0.000,-0.001,11.919,10.793,7.377
14:43:51:864,47.389,0.009,-0.001,0.008,11.919,10.793,7.377
14:43:51:883,47.408,0.007,-0.005,0.000,11.919,10.793,7.377
14:43:51:91,47.435,0.005,0.003,0.006,11.919,10.793,7.377
14:43:51:936,47.460,0.009,0.001,0.008,11.919,10.793,7.377
14:43:51:964,47.489,0.011,0.003,0.011,11.918,10.789,7.381
14:43:52:015,47.539,0.008,0.000,-0.001,11.920,10.774,7.396
14:43:52:129,47.653,-0.006,0.005,0.005,11.915,10.780,7.410
14:43:52:13,47.654,0.003,0.000,0.000,11.915,10.780,7.410
14:43:52:13,47.655,0.006,0.000,0.003,11.915,10.780,7.410
14:43:52:131,47.656,0.005,-0.001,-0.001,11.915,10.780,7.410
14:43:52:149,47.673,0.006,0.000,-0.001,11.915,10.780,7.410
14:43:52:149,47.674,0.002,0.001,-0.002,11.915,10.780,7.410
14:43:52:173,47.698,0.008,-0.002,-0.001,11.915,10.780,7.410
14:43:52:228,47.753,0.011,-0.002,-0.001,11.915,10.780,7.410
14:43:52:228,47.753,0.006,-0.001,-0.001,11.915,10.780,7.410
14:43:52:251,47.775,0.008,0.001,0.008,11.915,10.780,7.410
14:43:52:279,47.804,0.007,0.001,0.002,11.915,10.780,7.410
14:43:52:305,47.829,0.018,0.003,0.008,11.915,10.780,7.410
14:43:52:359,47.884,0.011,0.005,0.008,11.915,10.780,7.410
14:43:52:36,47.884,0.005,0.002,0.007,11.915,10.780,7.410
14:43:52:382,47.907,0.003,0.001,0.001,11.915,10.780,7.410
14:43:52:41,47.935,0.007,0.005,0.012,11.915,10.780,7.410
14:43:52:465,47.990,0.011,0.001,0.002,11.915,10.780,7.410
14:43:52:465,47.990,0.005,0.001,0.012,11.915,10.780,7.410
14:43:52:488,48.012,0.006,-0.001,0.002,11.915,10.780,7.410
14:43:52:571,48.096,0.010,0.002,0.015,11.915,10.780,7.410
14:43:52:572,48.097,0.005,0.002,-0.001,11.915,10.780,7.410
14:43:52:573,48.098,0.008,0.003,0.011,11.915,10.780,7.410
14:43:52:592,48.117,0.007,0.001,0.006,11.915,10.780,7.410
14:43:52:618,48.143,0.005,0.003,0.009,11.915,10.780,7.410
14:43:52:647,48.172,0.007,0.000,0.003,11.915,10.780,7.410
14:43:52:648,48.173,0.008,0.001,0.009,11.915,10.780,7.410
14:43:52:731,48.255,0.007,0.000,0.003,11.915,10.780,7.410
14:43:52:731,48.255,0.007,0.001,0.011,11.915,10.780,7.410
14:43:52:731,48.256,0.006,0.000,0.004,11.915,10.780,7.410
14:43:52:777,48.301,0.002,0.002,0.010,11.915,10.780,7.410
14:43:52:834,48.358,0.001,0.003,0.005,11.915,10.780,7.410
14:43:52:835,48.359,0.006,0.000,0.004,11.915,10.780,7.410
14:43:52:854,48.379,0.009,0.002,0.004,11.915,10.780,7.410
14:43:52:881,48.406,0.006,0.001,0.006,11.915,10.780,7.410
14:43:52:91,48.434,0.005,0.001,0.005,11.915,10.780,7.410
14:43:52:934,48.459,0.003,0.000,0.002,11.915,10.780,7.410
14:43:53:012,48.537,0.007,0.000,0.005,11.915,10.780,7.410
14:43:53:1,48.625,0.009,0.003,0.014,11.915,10.780,7.410
14:43:53:101,48.626,0.005,0.002,0.006,11.915,10.780,7.410
14:43:53:102,48.627,0.008,0.003,0.017,11.915,10.780,7.410
14:43:53:103,48.627,0.008,0.001,0.006,11.915,10.780,7.410
14:43:53:12,48.645,0.008,0.001,0.013,11.915,10.780,7.410
14:43:53:121,48.645,0.008,-0.004,-0.001,11.915,10.780,7.410
14:43:53:145,48.670,-0.006,-0.001,0.010,11.913,10.786,7.415
14:43:53:198,48.723,0.007,0.002,-0.001,11.909,10.827,7.409
14:43:53:199,48.724,0.004,0.004,0.014,11.902,10.866,7.391
14:43:53:28,48.804,-0.003,0.001,-0.004,11.901,10.863,7.359
14:43:53:281,48.805,0.001,0.005,0.023,11.896,10.884,7.334
14:43:53:282,48.806,0.027,-0.003,0.006,11.887,10.951,7.288
14:43:53:33,48.855,0.015,0.004,0.010,11.897,10.957,7.250
14:43:53:331,48.855,0.004,-0.002,-0.003,11.902,10.955,7.231
14:43:53:354,48.879,0.010,0.003,0.014,11.914,10.951,7.229
14:43:53:38,48.904,0.008,0.000,0.015,11.939,10.959,7.233
14:43:53:466,48.991,0.004,0.000,0.002,11.948,10.960,7.236
14:43:53:467,48.992,0.004,-0.002,0.006,11.950,10.955,7.231
14:43:53:467,48.992,0.009,0.003,0.017,11.962,10.955,7.224
14:43:53:485,49.009,0.001,0.002,0.008,11.973,10.961,7.223
14:43:53:511,49.035,0.007,0.004,0.009,11.964,10.950,7.219
14:43:53:537,49.062,0.004,0.002,0.006,11.951,10.928,7.212
14:43:53:564,49.089,0.010,0.004,0.007,11.942,10.927,7.209
14:43:53:59,49.115,0.008,-0.001,0.004,11.931,10.923,7.205
14:43:53:616,49.141,0.003,0.001,0.011,11.938,10.930,7.203
14:43:53:643,49.167,0.004,0.002,0.014,11.922,10.922,7.202
14:43:53:726,49.251,0.003,0.000,0.008,11.914,10.916,7.194
14:43:53:727,49.252,0.009,-0.001,0.004,11.899,10.909,7.193
14:43:53:728,49.253,0.007,-0.001,0.010,11.901,10.904,7.188
14:43:53:776,49.300,0.005,0.003,0.013,11.891,10.903,7.185
14:43:53:802,49.327,0.007,0.002,0.003,11.876,10.900,7.180
14:43:53:803,49.328,0.005,0.005,0.013,11.859,10.898,7.185
14:43:53:827,49.351,0.007,-0.003,0.010,11.847,10.893,7.175
14:43:53:852,49.377,0.010,0.004,0.018,11.837,10.889,7.171
14:43:53:878,49.403,0.006,-0.001,0.008,11.829,10.869,7.167
14:43:53:993,49.518,0.011,0.002,0.014,11.816,10.843,7.139
14:43:53:994,49.518,0.005,0.001,0.009,11.808,10.817,7.112
14:43:53:994,49.518,0.001,0.001,0.009,11.784,10.773,7.074
14:43:53:995,49.519,0.001,0.001,0.003,11.762,10.730,7.025
14:43:54:039,49.564,0.007,0.001,0.008,11.748,10.704,6.987
14:43:54:042,49.567,0.010,-0.001,0.008,11.724,10.658,6.927
14:43:54:062,49.587,0.006,0.002,0.010,11.715,10.622,6.889
14:43:54:093,49.617,0.007,-0.002,0.006,11.694,10.582,6.837
14:43:54:175,49.700,0.007,0.001,0.010,11.684,10.556,6.800
14:43:54:175,49.700,0.005,-0.003,0.005,11.670,10.518,6.760
14:43:54:176,49.700,0.011,0.001,0.011,11.651,10.482,6.719
14:43:54:253,49.777,0.010,0.001,0.006,11.637,10.461,6.696
14:43:54:253,49.777,0.009,0.000,0.008,11.624,10.439,6.690
14:43:54:253,49.778,0.006,0.001,0.006,11.614,10.438,6.687
14:43:54:3,49.824,0.005,0.003,0.016,11.616,10.433,6.682
14:43:54:328,49.852,0.009,-0.001,0.008,11.614,10.431,6.670
14:43:54:351,49.876,0.008,0.001,0.006,11.592,10.430,6.674
14:43:54:436,49.960,0.004,-0.001,0.010,11.577,10.427,6.669
14:43:54:436,49.961,0.010,0.002,0.009,11.577,10.427,6.669
14:43:54:437,49.962,0.009,-0.001,0.010,11.577,10.427,6.669
14:43:54:456,49.981,0.004,0.000,0.005,11.577,10.427,6.669
14:43:54:482,50.007,0.008,0.001,0.010,11.576,10.426,6.694
14:43:54:508,50.033,0.006,0.001,0.008,11.575,10.426,6.714
14:43:54:534,50.059,0.004,0.001,0.007,11.578,10.425,6.741
14:43:54:561,50.085,0.011,0.002,0.013,11.578,10.432,6.757
14:43:54:587,50.112,0.011,0.002,0.011,11.577,10.463,6.797
14:43:54:613,50.138,0.009,0.001,0.019,11.571,10.482,6.833
14:43:54:668,50.193,0.004,0.002,0.011,11.574,10.490,6.861
14:43:54:695,50.220,0.004,0.006,0.020,11.579,10.490,6.899
14:43:54:696,50.220,0.006,0.003,0.011,11.573,10.492,6.918
14:43:54:719,50.243,0.008,0.002,0.014,11.575,10.495,6.950
14:43:54:777,50.302,0.005,-0.001,0.003,11.573,10.494,6.975
14:43:54:778,50.303,0.008,0.003,0.016,11.577,10.497,6.997
14:43:54:778,50.303,0.003,0.001,0.007,11.580,10.495,7.024
14:43:54:826,50.351,0.006,0.002,0.011,11.563,10.493,7.028
14:43:54:827,50.352,0.006,0.006,0.011,11.540,10.487,7.036
14:43:54:851,50.375,0.009,0.002,0.011,11.520,10.491,7.035
14:43:54:931,50.456,0.009,0.001,0.007,11.494,10.483,7.032
14:43:54:932,50.456,0.006,0.002,0.014,11.473,10.482,7.035
14:43:55:016,50.541,0.003,0.000,0.008,11.458,10.479,7.030
14:43:55:017,50.541,-0.007,-0.003,0.018,11.431,10.476,7.032
14:43:55:017,50.542,0.002,0.001,0.012,11.411,10.470,7.030
14:43:55:018,50.543,0.003,0.006,0.013,11.380,10.468,7.031
14:43:55:033,50.558,0.004,0.002,0.013,11.346,10.463,7.020
14:43:55:089,50.614,0.005,0.007,0.018,11.326,10.463,6.998
14:43:55:089,50.614,0.000,0.002,0.009,11.288,10.456,6.965
14:43:55:112,50.637,0.002,0.003,0.014,11.258,10.455,6.940
14:43:55:14,50.665,0.004,0.002,0.013,11.219,10.449,6.896
14:43:55:166,50.690,0.011,0.004,0.015,11.193,10.447,6.872
14:43:55:192,50.716,0.017,0.002,0.014,11.157,10.444,6.835
14:43:55:218,50.742,0.005,0.003,0.019,11.119,10.441,6.823
14:43:55:273,50.798,-0.003,0.005,0.011,11.092,10.407,6.811
14:43:55:274,50.798,0.001,0.003,0.014,11.045,10.343,6.758
14:43:55:296,50.820,0.012,0.004,0.009,11.004,10.341,6.719
14:43:55:324,50.849,0.023,0.000,0.007,10.950,10.338,6.650
14:43:55:375,50.899,0.015,0.003,0.024,10.897,10.334,6.597
14:43:55:404,50.928,0.009,-0.003,0.012,10.880,10.323,6.565
14:43:55:404,50.929,0.008,0.002,0.013,10.828,10.304,6.527
14:43:55:456,50.981,0.003,0.003,0.014,10.807,10.300,6.509
14:43:55:457,50.982,-0.001,0.004,0.030,10.769,10.272,6.463
14:43:55:482,51.006,0.002,-0.002,0.006,10.745,10.234,6.421
14:43:55:536,51.060,0.002,-0.003,0.025,10.698,10.165,6.352
14:43:55:536,51.060,0.008,0.002,0.003,10.656,10.095,6.265
14:43:55:559,51.083,0.016,0.003,0.023,10.631,10.045,6.210
14:43:55:586,51.111,0.010,-0.006,0.013,10.614,9.977,6.167
14:43:55:669,51.193,0.007,-0.003,0.024,10.607,9.935,6.160
14:43:55:669,51.194,0.001,0.000,0.008,10.620,9.880,6.174
14:43:55:67,51.195,0.008,0.002,0.012,10.638,9.832,6.205
14:43:55:719,51.244,0.006,-0.001,0.000,10.648,9.800,6.230
14:43:55:72,51.245,-0.003,0.004,0.019,10.683,9.781,6.275
14:43:55:771,51.296,0.006,0.002,0.011,10.711,9.787,6.305
14:43:55:772,51.297,-0.001,0.004,0.019,10.733,9.786,6.337
14:43:55:795,51.319,0.007,0.004,0.011,10.747,9.785,6.346
14:43:55:821,51.345,0.005,-0.001,0.015,10.756,9.785,6.349
14:43:55:847,51.372,0.007,0.001,0.010,10.762,9.801,6.347
14:43:55:904,51.428,0.009,0.001,0.009,10.765,9.822,6.351
14:43:55:904,51.429,0.008,-0.005,0.005,10.785,9.855,6.350
14:43:55:927,51.452,0.007,0.001,0.013,10.810,9.885,6.356
14:43:55:981,51.506,0.004,0.002,0.016,10.855,9.925,6.359
14:43:55:982,51.506,0.006,0.001,0.013,10.914,9.978,6.367
14:43:56:005,51.530,0.004,0.000,0.017,10.943,10.021,6.370
14:43:56:031,51.555,0.002,0.001,0.012,10.993,10.063,6.375
14:43:56:057,51.582,0.003,0.004,0.020,11.006,10.085,6.381
14:43:56:084,51.609,0.009,0.005,0.019,11.026,10.117,6.381
14:43:56:11,51.634,0.014,0.006,0.023,11.035,10.142,6.350
14:43:56:166,51.691,0.002,0.003,0.015,11.047,10.160,6.325
14:43:56:166,51.691,-0.003,0.001,0.022,11.065,10.168,6.280
14:43:56:189,51.713,0.011,0.002,0.013,11.074,10.170,6.246
14:43:56:215,51.739,0.008,0.003,0.020,11.086,10.189,6.221
14:43:56:241,51.765,0.010,0.000,0.015,11.094,10.204,6.210
14:43:56:267,51.792,0.011,0.001,0.024,11.117,10.200,6.201
14:43:56:296,51.820,0.003,0.002,0.011,11.109,10.203,6.194
14:43:56:322,51.846,0.002,0.002,0.017,11.111,10.198,6.189
14:43:56:347,51.872,0.003,0.000,0.006,11.118,10.195,6.216
14:43:56:43,51.955,0.007,0.004,0.010,11.119,10.193,6.232
14:43:56:431,51.956,0.007,0.000,0.009,11.122,10.191,6.259
14:43:56:432,51.957,0.006,0.000,0.014,11.124,10.185,6.289
14:43:56:451,51.976,0.001,0.000,0.008,11.119,10.160,6.311
14:43:56:477,52.002,-0.002,0.004,0.012,11.122,10.153,6.352
14:43:56:506,52.031,0.005,0.002,0.005,11.132,10.157,6.376
14:43:56:53,52.054,0.005,0.004,0.013,11.148,10.127,6.414
14:43:56:556,52.080,0.003,-0.001,0.009,11.158,10.109,6.436
14:43:56:611,52.136,0.003,0.005,0.017,11.176,10.069,6.473
14:43:56:612,52.137,-0.001,0.001,0.005,11.179,10.041,6.501
14:43:56:634,52.159,-0.005,0.001,0.011,11.184,10.038,6.518
14:43:56:69,52.215,0.012,0.000,0.015,11.187,10.009,6.547
14:43:56:691,52.215,-0.001,-0.002,0.010,11.190,9.976,6.560
14:43:56:715,52.240,0.000,0.000,0.007,11.201,9.922,6.582
14:43:56:769,52.293,0.001,0.002,0.011,11.197,9.892,6.598
14:43:56:769,52.294,0.007,0.001,0.008,11.204,9.876,6.594
14:43:56:794,52.319,0.000,-0.001,0.009,11.204,9.876,6.594
14:43:56:907,52.431,0.002,0.002,0.015,11.204,9.876,6.594
14:43:56:907,52.432,0.002,0.002,0.012,11.204,9.876,6.594
14:43:56:908,52.433,0.004,0.003,0.015,11.204,9.876,6.594
14:43:56:909,52.433,0.002,0.002,0.012,11.204,9.876,6.594
14:43:56:956,52.480,0.005,0.004,0.021,11.204,9.876,6.594
14:43:56:956,52.480,0.003,0.002,0.010,11.203,9.881,6.599
14:43:56:957,52.481,0.006,0.004,0.020,11.202,9.903,6.601
14:43:57:002,52.527,0.002,0.002,0.012,11.202,9.903,6.601
14:43:57:031,52.556,0.003,0.004,0.019,11.202,9.903,6.601
14:43:57:032,52.557,0.001,0.003,0.014,11.202,9.903,6.601
14:43:57:084,52.609,0.003,0.003,0.016,11.186,9.896,6.601
14:43:57:084,52.609,0.002,0.002,0.006,11.182,9.885,6.598
14:43:57:134,52.659,0.005,-0.002,0.014,11.177,9.886,6.597
14:43:57:164,52.689,0.009,0.001,0.008,11.162,9.879,6.596
14:43:57:165,52.689,0.003,0.000,0.013,11.152,9.878,6.594
14:43:57:246,52.771,0.005,0.000,0.012,11.136,9.880,6.594
14:43:57:247,52.771,0.002,0.000,0.011,11.116,9.874,6.592
14:43:57:247,52.771,0.002,0.002,0.009,11.116,9.874,6.592
14:43:57:267,52.792,0.006,0.004,0.019,11.116,9.874,6.592
14:43:57:292,52.817,0.006,0.001,0.012,11.099,9.872,6.597
14:43:57:317,52.842,0.002,0.002,0.014,11.079,9.871,6.591
14:43:57:345,52.870,0.002,0.001,0.017,11.058,9.870,6.595
14:43:57:428,52.952,0.002,0.002,0.013,11.044,9.857,6.589
