Time,Second,AccelerationX,AccelerationY,AccelerationZ,EulerAnglesX,EulerAnglesY,EulerAnglesZ
14:11:17:099,0.000,0.001,0.006,-0.004,-4.700,2.819,-22.222
14:11:17:211,0.112,-0.002,0.006,-0.001,-4.697,2.823,-22.226
14:11:17:212,0.113,0.001,0.004,0.000,-4.697,2.823,-22.226
14:11:17:212,0.113,0.001,0.006,0.000,-4.697,2.823,-22.226
14:11:17:265,0.166,0.004,0.002,0.006,-4.697,2.823,-22.226
14:11:17:266,0.167,0.003,0.004,0.001,-4.687,2.846,-22.226
14:11:17:267,0.168,0.002,0.000,0.005,-4.674,2.871,-22.239
14:11:17:268,0.169,0.000,0.000,0.002,-4.674,2.871,-22.239
14:11:17:338,0.239,0.002,0.009,0.011,-4.674,2.871,-22.239
14:11:17:339,0.240,0.003,0.006,-0.004,-4.669,2.889,-22.244
14:11:17:365,0.266,0.001,0.002,0.002,-4.669,2.889,-22.244
14:11:17:365,0.266,0.000,0.001,-0.009,-4.665,2.895,-22.260
14:11:17:472,0.374,0.000,0.000,0.002,-4.661,2.902,-22.276
14:11:17:473,0.375,0.005,0.012,0.000,-4.655,2.919,-22.281
14:11:17:525,0.426,0.000,0.013,0.001,-4.655,2.919,-22.281
14:11:17:526,0.427,0.000,0.007,-0.005,-4.658,2.919,-22.311
14:11:17:527,0.428,0.001,0.000,0.001,-4.659,2.919,-22.332
14:11:17:554,0.455,0.000,0.003,-0.004,-4.662,2.918,-22.340
14:11:17:554,0.455,0.002,0.009,0.001,-4.662,2.918,-22.340
14:11:17:709,0.610,0.000,0.009,-0.002,-4.662,2.918,-22.340
14:11:17:71,0.611,-0.002,0.004,-0.002,-4.675,2.891,-22.337
14:11:17:711,0.612,-0.004,0.006,0.001,-4.679,2.869,-22.336
14:11:17:736,0.637,-0.004,0.008,0.005,-4.687,2.864,-22.333
14:11:17:737,0.638,-0.002,0.006,-0.003,-4.686,2.859,-22.338
14:11:17:737,0.638,-0.004,0.006,0.001,-4.686,2.859,-22.338
14:11:17:787,0.688,-0.001,0.003,-0.005,-4.686,2.859,-22.338
14:11:17:788,0.689,0.003,0.004,0.000,-4.686,2.859,-22.338
14:11:17:789,0.690,0.000,0.000,-0.001,-4.686,2.859,-22.338
14:11:17:809,0.710,0.001,0.006,0.000,-4.686,2.859,-22.338
14:11:17:971,0.872,0.002,0.006,-0.002,-4.686,2.859,-22.338
14:11:17:972,0.873,0.003,0.006,0.000,-4.686,2.859,-22.338
14:11:17:973,0.874,0.004,0.003,-0.003,-4.686,2.859,-22.338
14:11:18:,0.901,-0.002,0.007,0.001,-4.686,2.859,-22.338
14:11:18:001,0.902,0.000,-0.001,0.002,-4.686,2.859,-22.338
14:11:18:002,0.903,-0.001,0.000,-0.001,-4.686,2.859,-22.338
14:11:18:05,0.951,0.002,0.011,0.000,-4.686,2.859,-22.338
14:11:18:05,0.951,0.003,0.001,0.001,-4.685,2.852,-22.331
14:11:18:178,1.079,0.001,0.002,-0.011,-4.692,2.842,-22.333
14:11:18:234,1.135,0.002,0.003,0.000,-4.692,2.842,-22.333
14:11:18:235,1.136,0.000,0.011,-0.001,-4.692,2.842,-22.333
14:11:18:236,1.137,-0.001,0.010,0.005,-4.692,2.842,-22.333
14:11:18:263,1.164,-0.001,0.004,-0.005,-4.691,2.837,-22.337
14:11:18:264,1.165,-0.002,-0.001,0.000,-4.692,2.845,-22.345
14:11:18:264,1.165,-0.002,0.006,-0.003,-4.692,2.845,-22.345
14:11:18:339,1.240,-0.002,0.003,-0.002,-4.695,2.839,-22.350
14:11:18:339,1.240,0.003,0.002,0.003,-4.699,2.838,-22.380
14:11:18:34,1.241,0.000,0.008,-0.003,-4.695,2.845,-22.396
14:11:18:466,1.367,0.008,0.003,-0.001,-4.693,2.846,-22.424
14:11:18:5,1.401,0.011,0.004,-0.008,-4.697,2.840,-22.430
14:11:18:5,1.401,0.016,0.006,-0.003,-4.709,2.819,-22.472
14:11:18:501,1.402,0.017,0.014,-0.011,-4.739,2.799,-22.518
14:11:18:502,1.403,0.021,0.005,-0.008,-4.781,2.816,-22.585
14:11:18:519,1.420,0.021,-0.003,-0.012,-4.847,2.861,-22.746
14:11:18:52,1.421,0.012,0.025,-0.002,-4.893,2.868,-22.881
14:11:18:601,1.502,0.006,0.021,0.003,-4.977,2.825,-23.055
14:11:18:601,1.502,0.004,0.008,0.005,-5.105,2.719,-23.208
14:11:18:678,1.579,0.011,0.004,-0.001,-5.181,2.643,-23.328
14:11:18:679,1.580,-0.010,-0.004,0.009,-5.301,2.474,-23.522
14:11:18:707,1.608,-0.025,-0.013,0.032,-5.367,2.386,-23.657
14:11:18:707,1.608,-0.027,-0.010,0.027,-5.398,2.346,-23.878
14:11:18:707,1.608,-0.032,-0.012,0.027,-5.366,2.335,-23.966
14:11:18:758,1.659,-0.032,-0.013,0.023,-5.258,2.272,-23.995
14:11:18:758,1.659,-0.021,0.004,0.031,-5.078,2.190,-23.903
14:11:18:78,1.681,0.005,0.010,-0.002,-4.938,2.158,-23.838
14:11:18:859,1.760,0.035,0.013,-0.010,-4.711,2.136,-23.744
14:11:18:89,1.791,0.031,0.022,-0.018,-4.558,2.087,-23.698
14:11:18:891,1.792,0.016,0.027,-0.016,-4.431,1.853,-23.711
14:11:18:891,1.792,-0.018,0.028,-0.001,-4.452,1.610,-23.770
14:11:18:939,1.840,-0.012,0.033,0.016,-4.460,1.574,-23.864
14:11:18:94,1.841,-0.032,0.035,0.012,-4.447,1.555,-24.089
14:11:18:964,1.865,-0.055,0.004,0.014,-4.415,1.525,-24.188
14:11:19:017,1.918,-0.063,-0.004,0.018,-4.411,1.358,-24.239
14:11:19:047,1.948,-0.074,-0.002,0.014,-4.401,1.254,-24.242
14:11:19:047,1.948,-0.062,0.007,-0.003,-4.341,1.088,-24.042
14:11:19:208,2.109,-0.062,-0.006,0.004,-4.276,0.869,-23.486
14:11:19:208,2.109,-0.071,0.006,0.006,-4.224,0.736,-22.988
14:11:19:209,2.110,-0.023,0.008,-0.005,-4.114,0.740,-22.265
14:11:19:235,2.136,-0.008,0.004,-0.017,-4.044,0.748,-21.812
14:11:19:235,2.136,-0.004,0.007,-0.010,-3.964,0.617,-21.097
14:11:19:235,2.136,-0.004,0.005,-0.008,-3.964,0.491,-20.367
14:11:19:236,2.137,-0.008,0.001,0.000,-3.969,0.494,-19.915
14:11:19:31,2.211,0.020,0.012,-0.005,-3.922,0.713,-19.343
14:11:19:311,2.212,0.017,0.021,-0.012,-3.884,0.860,-18.981
14:11:19:312,2.213,0.009,0.006,-0.001,-3.879,0.931,-18.360
14:11:19:468,2.369,0.032,-0.018,-0.011,-3.849,1.063,-17.762
14:11:19:469,2.370,0.055,-0.010,-0.013,-3.821,1.179,-17.378
14:11:19:469,2.370,0.047,-0.008,-0.009,-3.817,1.275,-16.849
14:11:19:601,2.502,0.068,-0.004,-0.001,-3.831,1.332,-16.517
14:11:19:601,2.502,0.069,0.007,-0.009,-3.841,1.331,-16.096
14:11:19:601,2.502,0.053,-0.013,0.021,-3.860,1.275,-15.855
14:11:19:686,2.587,0.063,-0.013,0.007,-3.820,1.263,-15.557
14:11:19:687,2.588,0.067,-0.013,0.014,-3.744,1.257,-15.386
14:11:19:688,2.589,0.053,-0.013,0.018,-3.679,1.182,-15.281
14:11:19:688,2.589,0.049,-0.004,0.026,-3.543,1.028,-15.115
14:11:19:76,2.661,0.048,-0.009,0.018,-3.445,0.946,-15.032
14:11:19:761,2.662,0.045,-0.001,0.018,-3.269,0.808,-15.022
14:11:19:762,2.663,0.037,0.011,0.004,-3.088,0.590,-15.113
14:11:19:763,2.664,0.019,0.013,0.011,-2.969,0.423,-15.195
14:11:19:835,2.736,0.009,0.003,-0.005,-2.787,0.212,-15.404
14:11:19:836,2.737,0.019,0.005,-0.020,-2.652,0.112,-15.618
14:11:19:837,2.738,0.015,0.012,-0.032,-2.461,-0.026,-16.034
14:11:19:86,2.761,0.004,0.015,-0.026,-2.344,-0.119,-16.375
14:11:19:861,2.762,-0.001,0.016,-0.030,-2.177,-0.254,-16.910
14:11:19:944,2.845,-0.004,0.005,-0.042,-2.079,-0.383,-17.456
14:11:19:945,2.846,-0.006,-0.001,-0.055,-2.092,-0.488,-17.812
14:11:19:948,2.849,-0.022,-0.003,-0.044,-2.175,-0.645,-18.317
14:11:19:963,2.864,-0.031,0.003,-0.026,-2.348,-0.656,-19.061
14:11:20:068,2.969,-0.039,0.012,-0.022,-2.502,-0.573,-19.446
14:11:20:101,3.002,-0.049,0.011,-0.013,-2.622,-0.505,-19.657
14:11:20:177,3.078,-0.052,0.003,0.006,-3.179,0.268,-20.440
14:11:20:179,3.080,-0.048,-0.006,0.010,-3.280,0.426,-20.493
14:11:20:179,3.080,-0.042,-0.005,0.013,-3.405,0.705,-20.574
14:11:20:197,3.098,-0.041,0.003,0.022,-3.481,0.915,-20.623
14:11:20:225,3.126,-0.035,-0.002,0.013,-3.606,1.208,-20.678
14:11:20:284,3.185,-0.028,-0.006,0.016,-3.682,1.424,-20.713
14:11:20:285,3.186,-0.025,-0.009,0.009,-3.785,1.726,-20.761
14:11:20:286,3.187,-0.018,-0.012,0.008,-3.875,2.070,-20.807
14:11:20:287,3.188,-0.015,-0.009,0.001,-3.934,2.312,-20.834
14:11:20:331,3.232,-0.013,-0.003,0.006,-4.028,2.691,-20.838
14:11:20:332,3.233,-0.005,-0.004,-0.007,-4.094,2.959,-20.832
14:11:20:354,3.255,0.002,-0.002,-0.008,-4.196,3.331,-20.812
14:11:20:381,3.282,0.007,0.005,-0.010,-4.299,3.665,-20.773
14:11:20:437,3.338,0.008,0.004,0.002,-4.369,3.885,-20.741
14:11:20:437,3.338,0.010,0.000,-0.009,-4.465,4.245,-20.708
14:11:20:459,3.360,0.010,0.003,-0.004,-4.534,4.489,-20.719
14:11:20:515,3.416,0.003,0.022,0.003,-4.618,4.821,-20.773
14:11:20:541,3.442,-0.003,0.009,0.016,-4.687,5.134,-20.885
14:11:20:541,3.442,-0.009,0.012,0.016,-4.704,5.335,-20.989
14:11:20:593,3.494,-0.014,0.007,0.020,-4.684,5.613,-21.159
14:11:20:594,3.495,-0.034,0.009,0.023,-4.650,5.755,-21.240
14:11:20:618,3.519,-0.027,0.034,0.018,-4.498,5.977,-21.317
14:11:20:643,3.544,-0.002,0.007,-0.012,-4.406,6.065,-21.287
14:11:20:699,3.600,0.000,-0.031,-0.016,-4.323,6.011,-20.969
14:11:20:699,3.600,0.019,-0.012,-0.040,-4.254,5.888,-20.486
14:11:20:722,3.623,0.024,-0.006,-0.046,-4.329,5.750,-20.200
14:11:20:776,3.677,0.005,-0.008,-0.019,-4.512,5.581,-19.816
14:11:20:834,3.735,0.006,0.038,-0.016,-4.598,5.630,-19.670
14:11:20:834,3.735,0.011,0.031,-0.011,-4.687,5.962,-19.687
14:11:20:834,3.735,0.015,0.003,0.004,-4.775,6.411,-19.948
14:11:20:855,3.756,0.018,0.005,-0.002,-4.801,6.689,-20.232
14:11:20:881,3.782,0.007,-0.015,0.012,-4.829,6.949,-20.658
14:11:20:906,3.807,-0.004,-0.008,0.030,-4.846,7.073,-20.906
14:11:20:963,3.864,0.003,-0.002,0.011,-4.801,7.275,-21.212
14:11:20:963,3.864,0.006,-0.005,0.012,-4.770,7.362,-21.368
14:11:20:984,3.885,0.003,0.003,0.007,-4.734,7.352,-21.529
14:11:21:04,3.941,-0.006,0.012,0.012,-4.694,7.209,-21.675
14:11:21:04,3.941,-0.013,0.011,0.002,-4.673,7.121,-21.771
14:11:21:063,3.964,-0.003,0.011,0.001,-4.619,7.054,-21.960
14:11:21:091,3.992,-0.015,0.015,-0.012,-4.579,7.006,-22.120
14:11:21:145,4.046,-0.019,0.011,-0.001,-4.543,6.917,-22.372
14:11:21:145,4.046,-0.019,0.004,-0.016,-4.517,6.880,-22.615
14:11:21:168,4.069,-0.017,0.002,-0.010,-4.508,6.871,-22.763
14:11:21:225,4.126,-0.021,0.002,-0.015,-4.521,6.795,-22.941
14:11:21:225,4.126,-0.022,-0.001,0.002,-4.554,6.729,-23.005
14:11:21:277,4.178,-0.022,-0.004,0.002,-4.605,6.692,-23.061
14:11:21:278,4.179,-0.013,0.009,0.010,-4.622,6.746,-23.100
14:11:21:299,4.200,-0.010,0.016,0.006,-4.630,6.829,-23.156
14:11:21:354,4.255,-0.009,0.005,0.016,-4.628,6.847,-23.152
14:11:21:355,4.256,-0.003,-0.001,0.010,-4.637,6.824,-23.102
14:11:21:409,4.310,0.001,-0.005,0.014,-4.643,6.761,-22.982
14:11:21:409,4.310,0.001,-0.001,0.009,-4.658,6.710,-22.886
14:11:21:511,4.412,0.007,0.009,0.010,-4.673,6.631,-22.723
14:11:21:568,4.469,0.005,0.014,0.010,-4.705,6.519,-22.541
14:11:21:568,4.469,0.006,0.013,0.011,-4.711,6.441,-22.436
14:11:21:569,4.471,0.009,0.011,0.006,-4.695,6.365,-22.315
14:11:21:594,4.495,0.015,0.010,0.002,-4.667,6.317,-22.270
14:11:21:595,4.496,0.021,0.004,-0.005,-4.622,6.188,-22.228
14:11:21:595,4.496,0.022,0.000,-0.005,-4.588,5.969,-22.172
14:11:21:614,4.515,0.013,0.001,-0.007,-4.578,5.787,-22.107
14:11:21:672,4.573,0.016,0.011,-0.003,-4.558,5.575,-21.993
14:11:21:673,4.574,0.022,0.016,-0.001,-4.544,5.466,-21.920
14:11:21:674,4.575,0.022,0.011,-0.009,-4.534,5.306,-21.847
14:11:21:721,4.622,0.015,0.006,0.007,-4.518,5.159,-21.857
14:11:21:747,4.648,0.010,0.014,-0.002,-4.508,5.091,-21.898
14:11:21:86,4.761,0.000,0.017,0.010,-4.490,5.055,-21.986
14:11:21:861,4.762,-0.002,0.014,0.008,-4.466,5.067,-22.071
14:11:21:861,4.762,-0.012,0.006,0.016,-4.444,5.083,-22.239
14:11:21:862,4.763,-0.014,0.009,0.009,-4.409,5.072,-22.349
14:11:21:88,4.781,-0.022,-0.008,0.017,-4.347,5.027,-22.486
14:11:21:88,4.781,-0.030,-0.014,0.007,-4.259,4.991,-22.566
14:11:21:932,4.833,-0.028,-0.003,0.012,-4.186,4.989,-22.574
14:11:21:933,4.834,-0.021,0.010,-0.008,-4.069,4.968,-22.511
14:11:21:958,4.859,-0.015,-0.017,-0.017,-4.011,4.915,-22.402
14:11:21:983,4.884,-0.006,-0.018,-0.024,-3.906,4.806,-22.215
14:11:22:067,4.968,-0.008,0.002,-0.021,-3.823,4.664,-22.001
14:11:22:067,4.968,-0.013,0.029,-0.024,-3.786,4.566,-21.833
14:11:22:068,4.969,-0.007,0.017,-0.015,-3.743,4.500,-21.577
14:11:22:114,5.015,0.004,0.016,-0.014,-3.726,4.531,-21.431
14:11:22:142,5.043,0.009,0.014,-0.011,-3.743,4.546,-21.261
14:11:22:144,5.045,0.002,0.011,0.005,-3.785,4.573,-21.179
14:11:22:194,5.095,0.016,-0.003,0.007,-3.890,5.027,-21.128
14:11:22:218,5.119,0.012,0.005,0.021,-3.908,5.214,-21.179
14:11:22:244,5.145,0.000,0.009,0.026,-3.928,5.423,-21.252
14:11:22:356,5.257,-0.004,0.002,0.025,-3.909,5.563,-21.295
14:11:22:356,5.257,0.000,-0.002,0.021,-3.852,5.770,-21.383
14:11:22:357,5.258,-0.008,-0.011,0.015,-3.763,5.890,-21.467
14:11:22:379,5.280,-0.013,-0.013,0.013,-3.707,5.936,-21.506
14:11:22:379,5.280,-0.013,-0.002,0.004,-3.593,6.019,-21.504
14:11:22:402,5.303,-0.012,0.004,0.005,-3.516,6.093,-21.474
14:11:22:484,5.385,-0.011,0.005,-0.004,-3.396,6.162,-21.357
14:11:22:485,5.386,-0.002,0.002,-0.011,-3.274,6.234,-21.200
14:11:22:587,5.488,-0.001,0.000,-0.022,-3.192,6.290,-21.078
14:11:22:618,5.519,0.007,0.001,-0.021,-3.113,6.378,-20.867
14:11:22:619,5.520,0.017,0.007,-0.035,-3.078,6.448,-20.713
14:11:22:619,5.520,0.039,0.007,-0.038,-3.046,6.537,-20.497
14:11:22:644,5.545,0.040,0.010,-0.053,-3.062,6.588,-20.380
14:11:22:644,5.545,0.062,0.008,-0.044,-3.124,6.681,-20.288
14:11:22:667,5.568,0.060,0.001,-0.053,-3.235,6.651,-20.223
14:11:22:667,5.568,0.070,-0.002,-0.040,-3.316,6.633,-20.219
14:11:22:805,5.706,0.066,-0.002,-0.029,-3.415,6.593,-20.272
14:11:22:805,5.706,0.071,0.009,0.003,-3.440,6.525,-20.345
14:11:22:806,5.707,0.068,0.011,0.007,-3.354,6.349,-20.152
14:11:22:807,5.708,0.110,0.024,0.011,-3.144,6.163,-19.932
14:11:22:825,5.726,0.150,0.024,-0.002,-2.960,5.948,-19.803
14:11:22:826,5.727,0.147,0.025,-0.008,-2.716,5.253,-19.688
14:11:22:879,5.780,0.148,0.025,-0.011,-2.557,4.597,-19.729
14:11:22:879,5.780,0.147,0.037,-0.001,-2.298,3.580,-20.725
14:11:22:901,5.802,0.143,0.027,-0.001,-2.159,2.908,-21.528
14:11:22:927,5.828,0.127,0.017,0.011,-2.007,1.817,-22.988
14:11:22:953,5.854,0.105,0.041,0.032,-1.960,0.632,-24.109
14:11:23:008,5.909,0.093,0.067,0.062,-1.908,-0.175,-25.136
14:11:23:01,5.911,0.064,0.071,0.060,-1.993,-1.284,-26.640
14:11:23:032,5.933,0.042,0.040,0.076,-2.038,-2.129,-27.761
14:11:23:087,5.988,0.079,0.066,0.061,-1.953,-3.060,-29.588
14:11:23:088,5.989,0.090,0.074,0.054,-1.806,-3.923,-31.576
14:11:23:137,6.038,0.008,0.048,0.063,-2.069,-6.108,-35.201
14:11:23:163,6.064,0.009,0.069,0.083,-2.103,-6.854,-36.609
14:11:23:189,6.090,0.011,0.045,0.078,-2.100,-7.694,-38.590
14:11:23:215,6.116,-0.019,-0.028,0.058,-2.330,-8.556,-40.505
14:11:23:243,6.144,-0.028,-0.032,0.045,-2.463,-9.101,-41.793
14:11:23:27,6.171,-0.039,-0.019,0.055,-2.524,-9.877,-43.714
14:11:23:323,6.224,-0.044,-0.020,0.056,-2.708,-10.360,-44.885
14:11:23:324,6.225,-0.081,-0.067,0.055,-3.253,-11.127,-46.480
14:11:23:348,6.249,-0.114,-0.069,0.059,-3.602,-11.488,-47.459
14:11:23:376,6.277,-0.141,-0.052,0.075,-3.889,-12.000,-48.714
14:11:23:401,6.302,-0.162,-0.015,0.061,-3.775,-12.293,-49.380
14:11:23:455,6.356,-0.185,-0.021,0.056,-3.981,-12.178,-49.758
14:11:23:456,6.357,-0.231,0.015,0.038,-4.343,-12.177,-49.965
14:11:23:48,6.381,-0.333,0.064,0.046,-4.642,-11.602,-49.751
14:11:23:505,6.406,-0.366,0.054,0.036,-4.707,-11.224,-49.323
14:11:23:531,6.432,-0.303,-0.033,-0.003,-4.507,-10.148,-48.326
14:11:23:557,6.458,-0.265,-0.083,-0.044,-4.407,-9.668,-47.494
14:11:23:583,6.484,-0.266,-0.129,-0.031,-4.821,-9.051,-45.963
14:11:23:638,6.539,-0.327,-0.126,-0.002,-5.222,-8.706,-44.786
14:11:23:639,6.540,-0.350,-0.147,0.021,-5.500,-7.750,-42.853
14:11:23:662,6.563,-0.321,-0.125,0.012,-5.183,-6.134,-40.704
14:11:23:688,6.589,-0.307,-0.075,0.022,-4.802,-4.775,-39.067
14:11:23:714,6.615,-0.277,0.010,0.058,-4.152,-2.459,-36.213
14:11:23:74,6.642,-0.183,0.024,0.031,-3.788,-0.891,-33.954
14:11:23:767,6.668,-0.120,0.009,0.021,-3.376,1.339,-30.115
14:11:23:794,6.695,-0.052,-0.003,0.022,-3.086,3.351,-25.906
14:11:23:82,6.721,0.030,0.040,0.015,-2.969,4.635,-22.972
14:11:23:876,6.777,0.083,0.059,-0.034,-2.925,6.467,-18.478
14:11:23:876,6.777,0.277,0.134,-0.044,-2.949,7.854,-15.415
14:11:23:898,6.799,0.261,0.103,-0.061,-3.252,9.479,-10.885
14:11:23:925,6.826,0.319,0.047,-0.049,-3.524,10.302,-8.049
14:11:23:951,6.852,0.361,0.017,-0.094,-3.848,11.746,-4.307
14:11:23:977,6.878,0.488,-0.013,-0.163,-4.137,13.123,-1.214
14:11:24:035,6.936,0.506,-0.050,-0.189,-4.322,13.827,0.452
14:11:24:036,6.937,0.512,-0.003,-0.178,-4.537,14.707,2.298
14:11:24:037,6.938,0.552,0.025,-0.191,-4.637,15.278,3.108
14:11:24:083,6.984,0.589,0.043,-0.186,-4.731,15.963,3.867
14:11:24:109,7.010,0.590,0.073,-0.180,-4.719,16.190,4.202
14:11:24:137,7.038,0.606,0.119,-0.170,-4.654,16.239,4.198
14:11:24:138,7.039,0.625,0.130,-0.169,-4.479,16.181,3.831
14:11:24:167,7.068,0.594,0.018,-0.165,-4.295,15.759,3.313
14:11:24:187,7.088,0.554,-0.003,-0.132,-3.886,14.204,1.915
14:11:24:214,7.115,0.444,0.129,-0.049,-3.470,11.601,-0.431
14:11:24:268,7.169,0.355,0.229,0.011,-3.334,9.748,-2.590
14:11:24:269,7.170,0.177,0.352,0.089,-3.429,7.261,-6.696
14:11:24:296,7.197,0.073,0.343,0.118,-3.665,6.126,-9.921
14:11:24:318,7.219,-0.029,0.240,0.141,-4.028,5.239,-15.395
14:11:24:346,7.247,-0.078,0.158,0.100,-4.189,4.892,-19.356
14:11:24:371,7.272,-0.113,0.132,0.117,-4.482,4.115,-25.484
14:11:24:426,7.327,-0.271,0.089,0.152,-5.351,2.574,-31.520
14:11:24:427,7.328,-0.368,0.019,0.185,-6.355,1.379,-35.351
14:11:24:45,7.351,-0.460,-0.113,0.191,-8.322,-0.274,-40.641
14:11:24:476,7.377,-0.470,-0.185,0.196,-9.689,-1.078,-43.827
14:11:24:502,7.403,-0.455,-0.273,0.166,-11.735,-1.951,-47.920
14:11:24:529,7.430,-0.433,-0.357,0.149,-13.794,-2.640,-51.176
14:11:24:556,7.457,-0.441,-0.367,0.130,-15.119,-3.086,-52.865
14:11:24:581,7.482,-0.479,-0.374,0.117,-17.032,-3.833,-54.629
14:11:24:607,7.508,-0.553,-0.310,0.127,-18.167,-4.397,-55.217
14:11:24:633,7.534,-0.569,-0.258,0.123,-19.331,-5.223,-55.061
14:11:24:661,7.562,-0.562,-0.251,0.128,-19.652,-5.855,-54.261
14:11:24:687,7.588,-0.576,-0.156,0.105,-19.307,-6.532,-52.052
14:11:24:713,7.614,-0.568,-0.047,0.086,-18.208,-7.461,-48.719
14:11:24:769,7.670,-0.528,-0.002,0.080,-17.310,-7.848,-45.969
14:11:24:769,7.670,-0.441,0.000,0.090,-15.847,-8.296,-41.329
14:11:24:793,7.694,-0.374,0.047,0.073,-14.726,-8.438,-38.082
14:11:24:816,7.717,-0.268,0.188,0.025,-13.049,-8.531,-33.238
14:11:24:846,7.747,-0.222,0.167,0.071,-11.801,-8.630,-28.710
14:11:24:869,7.770,-0.212,0.149,0.109,-11.091,-8.506,-26.030
14:11:24:897,7.798,-0.119,0.072,0.084,-9.841,-7.477,-22.705
14:11:24:922,7.823,0.028,0.037,0.039,-8.834,-6.233,-20.986
14:11:24:948,7.849,0.115,0.042,-0.004,-7.271,-3.516,-18.966
14:11:24:978,7.879,0.151,0.049,-0.015,-5.901,-1.456,-17.254
14:11:25:002,7.903,0.178,0.004,-0.032,-5.137,-0.331,-16.170
14:11:25:028,7.929,0.220,-0.032,-0.095,-4.168,0.982,-14.531
14:11:25:08,7.981,0.242,-0.021,-0.123,-3.636,1.664,-13.391
14:11:25:109,8.010,0.272,-0.044,-0.139,-2.968,2.661,-11.690
14:11:25:109,8.010,0.316,-0.035,-0.203,-2.855,3.284,-11.082
14:11:25:159,8.060,0.339,-0.052,-0.217,-2.464,4.071,-9.563
14:11:25:188,8.089,0.351,-0.011,-0.218,-2.275,4.621,-8.337
14:11:25:212,8.113,0.325,0.017,-0.159,-2.420,5.320,-7.283
14:11:25:237,8.138,0.337,0.023,-0.119,-2.578,5.738,-7.197
14:11:25:263,8.164,0.332,0.026,-0.105,-2.821,7.074,-7.652
14:11:25:289,8.190,0.341,0.146,-0.086,-3.000,8.187,-8.565
14:11:25:315,8.216,0.338,0.250,-0.061,-3.117,8.946,-9.354
14:11:25:344,8.245,0.296,0.234,-0.012,-3.442,9.029,-10.677
14:11:25:369,8.270,0.181,0.270,0.086,-3.766,8.857,-11.735
14:11:25:424,8.325,0.116,0.293,0.101,-4.230,8.359,-13.779
14:11:25:424,8.325,0.072,0.286,0.105,-4.527,8.120,-16.410
14:11:25:447,8.348,0.039,0.205,0.093,-4.636,7.816,-18.486
14:11:25:474,8.375,-0.019,0.119,0.107,-4.787,6.752,-22.038
14:11:25:501,8.402,-0.068,0.062,0.089,-5.042,5.333,-24.651
14:11:25:527,8.428,-0.154,0.002,0.115,-5.889,2.488,-28.697
14:11:25:552,8.453,-0.215,-0.024,0.117,-6.786,0.447,-31.418
14:11:25:605,8.506,-0.349,-0.081,0.150,-8.494,-2.164,-35.410
14:11:25:634,8.535,-0.452,-0.085,0.161,-10.117,-3.698,-39.212
14:11:25:635,8.536,-0.495,-0.089,0.170,-10.933,-4.148,-41.544
14:11:25:657,8.558,-0.460,-0.174,0.141,-11.705,-4.023,-44.666
14:11:25:683,8.584,-0.394,-0.292,0.097,-11.980,-3.880,-46.481
14:11:25:709,8.610,-0.370,-0.327,0.068,-12.243,-3.555,-48.913
14:11:25:735,8.636,-0.355,-0.340,0.013,-12.547,-3.988,-51.020
14:11:25:762,8.663,-0.392,-0.321,-0.019,-12.863,-4.459,-52.171
14:11:25:788,8.689,-0.421,-0.336,-0.007,-13.554,-5.565,-53.310
14:11:25:814,8.715,-0.449,-0.360,0.012,-13.838,-6.327,-53.560
14:11:25:841,8.742,-0.499,-0.283,-0.026,-13.256,-7.216,-52.897
14:11:25:867,8.768,-0.438,-0.076,-0.082,-11.520,-7.843,-50.604
14:11:25:893,8.794,-0.421,-0.005,-0.101,-10.449,-8.296,-48.035
14:11:25:948,8.849,-0.472,0.243,-0.103,-9.420,-9.005,-42.751
14:11:25:949,8.850,-0.568,0.485,-0.033,-9.064,-9.298,-38.399
14:11:25:972,8.873,-0.387,0.542,0.016,-8.606,-8.758,-31.074
14:11:25:998,8.899,-0.154,0.281,-0.014,-8.148,-6.648,-23.800
14:11:26:024,8.925,0.078,0.246,-0.089,-7.867,-4.374,-19.632
14:11:26:052,8.953,0.142,0.102,-0.045,-7.978,-0.778,-15.012
14:11:26:077,8.978,0.099,0.043,0.116,-8.285,1.587,-13.101
14:11:26:103,9.004,0.100,0.051,0.147,-8.694,5.560,-12.080
14:11:26:158,9.059,0.139,0.007,0.156,-8.837,8.964,-12.413
14:11:26:159,9.060,0.177,-0.053,0.134,-8.832,14.346,-13.996
14:11:26:183,9.084,0.206,-0.145,0.114,-8.521,19.945,-16.349
14:11:26:209,9.110,0.186,-0.138,0.100,-8.204,23.444,-18.053
14:11:26:236,9.137,0.132,-0.154,0.139,-7.668,28.299,-20.533
14:11:26:261,9.162,0.133,-0.215,0.155,-7.276,31.171,-21.962
14:11:26:288,9.189,0.134,-0.227,0.140,-6.454,35.181,-23.563
14:11:26:313,9.214,0.105,-0.213,0.125,-5.753,37.700,-24.200
14:11:26:342,9.243,0.117,-0.231,0.082,-4.394,41.284,-24.485
14:11:26:343,9.244,0.040,-0.138,0.018,-2.849,44.237,-23.875
14:11:26:395,9.296,0.017,-0.016,0.010,-1.867,45.760,-23.043
14:11:26:395,9.296,0.011,0.059,-0.024,-0.462,47.535,-21.235
14:11:26:42,9.321,-0.003,0.134,-0.117,0.832,48.657,-18.814
14:11:26:446,9.347,-0.014,0.168,-0.207,1.623,49.074,-16.909
14:11:26:473,9.374,-0.060,0.259,-0.361,2.626,49.141,-13.830
14:11:26:497,9.398,-0.052,0.351,-0.407,3.142,49.000,-11.778
14:11:26:523,9.424,0.014,0.355,-0.514,3.722,48.556,-8.803
14:11:26:576,9.477,0.032,0.068,-0.552,3.969,48.119,-6.968
14:11:26:603,9.504,-0.009,-0.055,-0.452,4.163,47.317,-5.003
14:11:26:657,9.558,0.002,0.004,-0.491,4.236,47.421,-4.325
14:11:26:717,9.618,0.015,0.096,-0.518,4.161,47.791,-4.590
14:11:26:717,9.618,-0.006,0.113,-0.440,3.871,48.736,-6.146
14:11:26:717,9.618,-0.045,0.116,-0.323,3.596,49.118,-7.973
14:11:26:718,9.619,-0.080,0.124,-0.252,3.152,49.711,-11.734
14:11:26:733,9.634,-0.115,0.136,-0.144,2.734,50.454,-16.361
14:11:26:76,9.661,-0.152,0.123,-0.086,2.460,51.043,-19.721
14:11:26:785,9.686,-0.189,0.079,-0.001,2.047,51.953,-24.919
14:11:26:812,9.713,-0.198,0.058,0.099,1.770,52.607,-28.375
14:11:26:838,9.739,-0.226,-0.010,0.158,1.235,53.479,-33.330
14:11:26:864,9.765,-0.226,-0.099,0.224,0.761,54.049,-36.372
14:11:26:891,9.792,-0.218,-0.196,0.232,-0.011,55.004,-40.463
14:11:26:917,9.818,-0.201,-0.260,0.237,-0.687,56.085,-43.896
14:11:26:943,9.844,-0.198,-0.283,0.249,-1.077,56.782,-45.741
14:11:26:969,9.870,-0.190,-0.290,0.270,-1.674,57.752,-47.656
14:11:26:995,9.896,-0.206,-0.286,0.295,-2.141,58.347,-48.266
14:11:27:022,9.923,-0.188,-0.227,0.317,-2.847,59.246,-47.303
14:11:27:048,9.949,-0.184,-0.135,0.350,-3.316,60.306,-45.842
14:11:27:076,9.977,-0.164,-0.057,0.372,-3.499,61.082,-44.204
14:11:27:102,10.003,-0.151,0.092,0.445,-3.651,62.507,-40.876
14:11:27:128,10.029,-0.077,0.297,0.551,-3.602,63.592,-38.134
14:11:27:162,10.063,-0.002,0.252,0.419,-3.088,66.001,-33.372
14:11:27:179,10.080,-0.061,0.041,0.101,-2.197,69.077,-28.333
14:11:27:206,10.107,-0.087,0.079,-0.046,-1.555,70.929,-25.422
14:11:27:234,10.135,0.020,0.051,0.008,-1.085,72.424,-22.090
14:11:27:259,10.160,0.049,0.046,0.068,-0.888,72.651,-20.646
14:11:27:285,10.186,0.045,0.015,0.117,-0.204,73.307,-19.387
14:11:27:311,10.212,0.007,-0.016,0.019,0.519,74.321,-18.936
14:11:27:337,10.238,-0.003,-0.076,-0.040,1.723,76.398,-18.450
14:11:27:363,10.264,-0.018,-0.080,-0.077,2.849,78.741,-17.862
14:11:27:389,10.290,0.005,-0.057,-0.034,3.509,80.523,-17.339
14:11:27:415,10.316,-0.036,-0.054,-0.105,4.458,83.649,-16.095
14:11:27:442,10.343,-0.094,-0.038,-0.212,4.986,85.847,-14.857
14:11:27:468,10.369,-0.106,-0.049,-0.216,5.455,88.893,-12.484
14:11:27:494,10.395,-0.160,-0.061,-0.285,5.662,91.516,-9.653
14:11:27:521,10.422,-0.218,-0.037,-0.326,5.745,92.959,-7.613
14:11:27:548,10.449,-0.288,-0.004,-0.425,5.817,94.615,-4.534
14:11:27:573,10.474,-0.346,0.072,-0.499,5.833,95.218,-2.537
14:11:27:599,10.500,-0.373,0.075,-0.556,5.803,95.353,0.176
14:11:27:626,10.527,-0.343,0.059,-0.555,5.741,95.941,1.705
14:11:27:652,10.553,-0.311,-0.004,-0.524,5.610,95.257,3.429
14:11:27:678,10.579,-0.310,0.047,-0.569,5.409,95.524,4.301
14:11:27:705,10.606,-0.297,0.062,-0.619,5.202,95.454,4.373
14:11:27:731,10.632,-0.267,0.084,-0.632,4.802,95.657,3.636
14:11:27:757,10.658,-0.232,0.087,-0.585,4.506,94.720,2.503
14:11:27:783,10.684,-0.182,0.169,-0.416,3.993,93.319,-0.219
14:11:27:811,10.712,-0.148,0.268,-0.218,3.306,91.685,-4.112
14:11:27:839,10.740,-0.109,0.284,-0.161,2.789,91.009,-7.257
14:11:27:862,10.763,-0.045,0.269,-0.080,2.033,90.490,-12.531
14:11:27:888,10.789,-0.003,0.182,0.021,1.552,90.242,-16.250
14:11:27:914,10.815,-0.016,0.119,0.086,0.804,89.803,-21.909
14:11:27:942,10.843,0.025,0.057,0.203,-0.131,89.318,-27.558
14:11:27:996,10.897,0.061,-0.019,0.277,-0.859,89.094,-31.260
14:11:27:997,10.898,0.107,-0.098,0.332,-1.929,88.898,-36.525
14:11:28:019,10.920,0.117,-0.140,0.378,-2.655,88.800,-39.737
14:11:28:046,10.947,0.125,-0.229,0.392,-3.770,88.696,-43.966
14:11:28:072,10.973,0.104,-0.300,0.370,-4.456,88.667,-46.375
14:11:28:1,11.001,0.077,-0.353,0.377,-5.370,88.604,-49.400
14:11:28:183,11.084,0.067,-0.350,0.398,-6.285,88.238,-51.660
14:11:28:183,11.084,0.057,-0.330,0.435,-6.971,87.778,-52.636
14:11:28:184,11.085,0.022,-0.245,0.525,-7.974,86.888,-53.087
14:11:28:203,11.104,0.015,-0.154,0.540,-8.535,86.262,-52.625
14:11:28:229,11.130,-0.018,-0.118,0.528,-9.249,85.229,-50.706
14:11:28:255,11.156,-0.022,-0.003,0.562,-9.595,84.270,-47.540
14:11:28:281,11.182,0.004,0.054,0.556,-9.517,83.863,-44.830
14:11:28:311,11.212,0.067,0.066,0.471,-8.670,83.976,-40.065
14:11:28:334,11.235,0.021,0.095,0.330,-7.639,84.627,-36.622
14:11:28:362,11.263,-0.024,0.171,0.251,-5.885,86.139,-31.500
14:11:28:387,11.288,-0.075,0.189,0.099,-4.477,87.479,-26.853
14:11:28:413,11.314,-0.055,0.094,0.060,-3.806,87.919,-24.233
14:11:28:439,11.340,-0.015,0.029,0.042,-2.940,88.335,-21.154
14:11:28:465,11.366,-0.023,-0.038,-0.020,-2.317,88.542,-19.628
14:11:28:492,11.393,-0.041,-0.076,-0.034,-1.293,89.097,-17.878
14:11:28:518,11.419,-0.044,-0.083,-0.048,-0.544,89.796,-17.004
14:11:28:548,11.449,-0.051,-0.026,-0.083,0.649,91.543,-15.762
14:11:28:548,11.449,-0.100,0.023,-0.160,1.758,94.024,-14.227
14:11:28:6,11.501,-0.122,0.013,-0.202,2.307,95.813,-12.899
14:11:28:6,11.501,-0.162,-0.065,-0.254,2.860,98.811,-10.526
14:11:28:623,11.524,-0.284,-0.030,-0.371,3.137,100.703,-8.696
14:11:28:649,11.550,-0.342,-0.030,-0.408,3.345,103.099,-5.731
14:11:28:675,11.576,-0.405,0.024,-0.489,3.392,104.157,-2.751
14:11:28:702,11.603,-0.416,0.056,-0.501,3.385,104.173,-0.907
14:11:28:728,11.629,-0.361,0.081,-0.503,3.321,103.440,1.389
14:11:28:755,11.656,-0.319,0.056,-0.479,3.255,102.728,2.459
14:11:28:781,11.682,-0.295,0.046,-0.457,3.137,102.049,3.245
14:11:28:81,11.711,-0.298,0.115,-0.554,3.024,102.090,3.175
14:11:28:833,11.734,-0.291,0.124,-0.559,2.834,102.423,2.260
14:11:28:861,11.762,-0.260,0.088,-0.489,2.642,102.306,0.450
14:11:28:888,11.789,-0.206,0.096,-0.431,2.509,101.778,-1.220
14:11:28:913,11.814,-0.169,0.175,-0.320,2.240,100.199,-4.368
14:11:28:938,11.839,-0.102,0.323,-0.169,1.968,99.023,-6.858
14:11:28:964,11.865,-0.036,0.297,-0.078,1.363,97.296,-11.093
14:11:28:991,11.892,0.018,0.198,0.015,0.674,96.424,-15.790
14:11:29:017,11.918,0.030,0.091,0.051,0.311,96.065,-19.114
14:11:29:045,11.946,0.018,0.028,0.096,-0.101,95.677,-24.309
14:11:29:071,11.972,0.071,-0.020,0.196,-0.420,95.299,-27.839
14:11:29:097,11.998,0.089,-0.069,0.260,-1.154,94.459,-33.068
14:11:29:124,12.025,0.137,-0.149,0.325,-2.220,93.469,-37.939
14:11:29:15,12.051,0.135,-0.193,0.345,-2.966,92.888,-40.882
14:11:29:176,12.077,0.116,-0.276,0.340,-3.951,92.152,-44.571
14:11:29:201,12.102,0.088,-0.323,0.341,-4.558,91.674,-46.568
14:11:29:227,12.128,0.105,-0.343,0.383,-5.532,90.863,-48.839
14:11:29:254,12.155,0.101,-0.317,0.417,-6.178,90.286,-49.757
14:11:29:279,12.180,0.099,-0.233,0.509,-6.896,89.404,-50.061
14:11:29:306,12.207,0.091,-0.087,0.524,-7.093,88.644,-48.888
14:11:29:333,12.234,0.086,-0.054,0.514,-7.027,88.190,-47.259
14:11:29:416,12.317,0.027,0.072,0.543,-6.686,87.270,-43.846
14:11:29:417,12.318,0.050,0.143,0.506,-6.327,86.947,-41.076
14:11:29:418,12.319,0.060,0.187,0.435,-5.551,86.736,-36.371
14:11:29:438,12.339,-0.008,0.159,0.305,-4.503,87.043,-31.442
14:11:29:464,12.365,-0.060,0.154,0.220,-3.712,87.432,-28.349
14:11:29:489,12.390,-0.042,0.139,0.121,-2.583,88.030,-24.298
14:11:29:516,12.417,-0.025,0.096,0.073,-1.889,88.275,-21.964
14:11:29:544,12.445,-0.045,0.016,0.001,-0.871,88.740,-18.884
14:11:29:569,12.470,-0.053,-0.049,-0.042,-0.182,89.334,-17.085
14:11:29:594,12.495,-0.064,-0.104,-0.108,0.857,90.936,-14.626
14:11:29:621,12.522,-0.089,-0.076,-0.202,1.888,92.942,-12.255
14:11:29:647,12.548,-0.138,-0.017,-0.263,2.457,94.378,-10.599
14:11:29:673,12.574,-0.159,-0.022,-0.271,3.020,96.478,-7.968
14:11:29:699,12.600,-0.188,-0.057,-0.329,3.231,98.007,-6.156
14:11:29:757,12.658,-0.233,-0.099,-0.371,3.342,100.487,-3.406
14:11:29:779,12.680,-0.361,-0.174,-0.499,3.204,104.037,0.848
14:11:29:804,12.705,-0.383,-0.076,-0.531,3.116,104.991,2.757
14:11:29:831,12.732,-0.359,0.060,-0.554,3.048,105.221,3.694
14:11:29:859,12.760,-0.276,0.080,-0.505,2.822,105.214,4.510
14:11:29:886,12.787,-0.244,0.125,-0.496,2.518,105.753,4.500
14:11:29:909,12.810,-0.290,0.208,-0.509,2.334,106.495,3.930
14:11:29:938,12.839,-0.321,0.263,-0.554,2.156,107.707,2.285
14:11:29:963,12.865,-0.279,0.204,-0.467,2.132,108.107,0.685
14:11:29:989,12.890,-0.209,0.200,-0.364,2.276,107.845,-2.501
14:11:30:015,12.916,-0.196,0.293,-0.276,2.473,107.096,-5.135
14:11:30:042,12.943,-0.171,0.378,-0.149,2.701,105.081,-9.639
14:11:30:097,12.998,-0.087,0.332,0.001,2.542,102.624,-14.585
14:11:30:098,12.999,-0.020,0.127,0.115,2.216,101.114,-18.044
14:11:30:12,13.021,-0.029,-0.030,0.124,1.754,99.590,-23.471
14:11:30:145,13.046,0.018,-0.084,0.167,1.458,98.834,-27.151
14:11:30:172,13.073,0.035,-0.098,0.217,0.836,97.826,-32.548
14:11:30:227,13.128,0.091,-0.162,0.306,-0.180,96.884,-37.528
14:11:30:228,13.129,0.112,-0.193,0.356,-1.048,96.323,-40.488
14:11:30:252,13.153,0.125,-0.295,0.348,-2.369,95.903,-44.285
14:11:30:277,13.178,0.090,-0.355,0.309,-3.096,95.824,-46.397
14:11:30:303,13.204,0.064,-0.389,0.306,-4.067,95.683,-48.975
14:11:30:41,13.311,0.083,-0.362,0.368,-4.781,95.450,-50.270
14:11:30:525,13.426,0.119,-0.279,0.464,-6.005,94.949,-51.328
14:11:30:525,13.426,0.162,-0.145,0.557,-6.880,94.640,-51.022
14:11:30:525,13.426,0.126,-0.144,0.508,-7.059,94.646,-49.947
14:11:30:526,13.427,0.119,-0.027,0.561,-6.662,94.937,-47.279
14:11:30:578,13.479,0.195,0.311,0.717,-6.082,95.236,-44.887
14:11:30:578,13.479,0.186,0.418,0.604,-4.853,96.052,-40.237
14:11:30:578,13.479,-0.023,0.198,0.249,-3.633,96.870,-34.464
14:11:30:578,13.479,-0.204,0.187,0.131,-3.048,97.006,-30.525
14:11:30:595,13.496,-0.178,0.125,0.066,-2.801,96.107,-25.342
14:11:30:595,13.496,0.080,0.052,0.145,-2.838,95.206,-22.604
14:11:30:652,13.553,0.105,0.049,0.204,-2.545,94.360,-19.641
14:11:30:653,13.554,0.033,-0.059,0.033,-1.582,95.406,-17.682
14:11:30:653,13.554,-0.019,-0.089,-0.020,-0.708,97.060,-16.735
14:11:30:838,13.739,-0.074,-0.040,-0.151,0.704,100.395,-15.506
14:11:30:838,13.739,-0.097,-0.019,-0.156,1.533,102.750,-14.691
14:11:30:839,13.740,-0.132,-0.043,-0.184,2.497,106.147,-13.207
14:11:30:84,13.741,-0.178,-0.107,-0.219,2.934,107.989,-11.965
14:11:30:864,13.765,-0.180,-0.135,-0.226,3.345,110.502,-9.786
14:11:30:864,13.765,-0.260,-0.141,-0.282,3.642,112.804,-7.348
14:11:30:865,13.766,-0.307,-0.122,-0.300,3.811,113.968,-5.638
14:11:30:865,13.766,-0.384,-0.058,-0.323,3.987,115.401,-3.114
14:11:30:881,13.782,-0.410,0.007,-0.353,4.041,116.095,-1.542
14:11:30:907,13.808,-0.428,0.080,-0.388,4.034,116.796,0.552
14:11:30:991,13.892,-0.397,0.101,-0.414,3.910,117.396,2.193
14:11:30:992,13.893,-0.425,0.154,-0.422,3.785,117.988,2.922
14:11:30:993,13.894,-0.461,0.284,-0.431,3.551,119.297,3.212
14:11:31:012,13.913,-0.450,0.109,-0.441,3.430,120.171,2.833
14:11:31:069,13.970,-0.418,0.024,-0.354,3.454,120.884,1.251
14:11:31:069,13.970,-0.405,0.154,-0.240,3.603,120.907,-0.600
14:11:31:223,14.124,-0.345,0.287,-0.157,3.831,120.708,-4.421
14:11:31:258,14.159,-0.259,0.296,-0.039,3.934,120.456,-9.250
14:11:31:258,14.159,-0.181,0.234,0.048,3.959,120.396,-12.847
14:11:31:259,14.160,-0.124,0.135,0.106,3.948,119.974,-18.434
14:11:31:26,14.161,-0.106,0.042,0.137,3.872,119.583,-22.172
14:11:31:275,14.176,-0.069,0.015,0.217,3.402,118.543,-27.501
14:11:31:305,14.206,0.042,-0.041,0.254,2.520,117.638,-32.408
14:11:31:306,14.207,0.109,-0.128,0.281,1.814,117.309,-35.351
14:11:31:33,14.231,0.146,-0.232,0.278,0.730,117.188,-39.193
14:11:31:331,14.232,0.145,-0.278,0.267,-0.038,117.199,-41.335
14:11:31:354,14.255,0.136,-0.324,0.247,-1.244,117.296,-43.916
14:11:31:409,14.310,0.155,-0.346,0.266,-2.475,117.443,-45.758
14:11:31:409,14.310,0.183,-0.335,0.312,-3.276,117.588,-46.535
14:11:31:519,14.420,0.256,-0.256,0.329,-4.161,118.174,-46.873
14:11:31:52,14.421,0.290,-0.193,0.344,-4.427,118.719,-46.477
14:11:31:537,14.438,0.266,0.104,0.345,-4.081,121.591,-39.574
14:11:31:592,14.493,0.301,0.298,0.314,-3.675,122.958,-35.002
14:11:31:593,14.494,0.168,0.192,0.174,-3.284,124.255,-31.483
14:11:31:616,14.517,0.075,0.178,0.119,-2.568,126.676,-26.116
14:11:31:809,14.710,-0.064,0.164,0.049,-2.139,128.312,-22.824
14:11:31:81,14.711,-0.077,0.111,-0.007,-1.674,130.340,-18.645
14:11:31:81,14.711,-0.039,0.069,-0.006,-1.273,131.974,-15.578
14:11:31:826,14.727,-0.107,-0.062,-0.103,-0.329,135.592,-12.794
14:11:31:914,14.815,-0.123,-0.063,-0.096,0.088,137.378,-12.200
14:11:31:914,14.815,-0.146,-0.048,-0.119,0.685,140.271,-11.462
14:11:31:915,14.816,-0.144,-0.048,-0.118,1.187,143.262,-10.726
14:11:31:916,14.817,-0.135,-0.072,-0.127,1.455,145.351,-10.053
14:11:31:938,14.839,-0.164,-0.081,-0.138,1.779,148.877,-8.773
14:11:31:938,14.839,-0.186,-0.060,-0.183,1.961,151.463,-7.735
14:11:31:939,14.840,-0.261,-0.035,-0.150,2.242,155.536,-5.837
14:11:31:984,14.885,-0.353,0.018,-0.112,2.397,158.090,-4.376
14:11:32:01,14.911,-0.396,0.050,-0.079,2.531,161.476,-2.026
14:11:32:038,14.940,-0.515,0.117,-0.002,2.650,164.280,0.419
14:11:32:039,14.940,-0.568,0.101,0.030,2.725,165.852,2.025
14:11:32:062,14.963,-0.639,0.043,0.057,2.821,167.583,4.324
14:11:32:118,15.019,-0.725,0.088,0.084,2.880,168.353,5.737
14:11:32:118,15.019,-0.750,0.054,0.090,2.865,169.052,7.582
14:11:32:14,15.041,-0.746,-0.080,0.058,2.697,169.299,8.860
14:11:32:168,15.069,-0.689,-0.135,0.098,2.575,169.027,9.107
14:11:32:193,15.094,-0.633,-0.019,0.145,2.326,168.563,8.212
14:11:32:305,15.206,-0.525,0.154,0.063,1.644,168.127,3.315
14:11:32:305,15.206,-0.382,0.152,0.039,1.163,167.798,-1.078
14:11:32:305,15.206,-0.296,0.133,0.031,0.807,167.478,-4.405
14:11:32:412,15.313,-0.143,0.089,0.025,0.173,166.823,-9.707
14:11:32:412,15.313,-0.059,0.054,0.007,-0.309,166.479,-13.322
14:11:32:413,15.315,0.039,0.053,0.006,-1.211,166.050,-18.632
14:11:32:414,15.315,0.126,0.030,-0.048,-1.902,165.866,-22.008
14:11:32:511,15.412,0.185,-0.028,-0.048,-3.011,165.853,-26.646
14:11:32:512,15.413,0.232,-0.114,-0.059,-4.126,166.078,-30.657
14:11:32:54,15.441,0.239,-0.195,-0.052,-4.791,166.365,-33.015
14:11:32:541,15.442,0.251,-0.256,-0.047,-5.606,166.796,-36.112
14:11:32:542,15.443,0.273,-0.248,-0.038,-6.036,166.985,-37.839
14:11:32:56,15.461,0.293,-0.243,-0.042,-6.651,167.020,-39.708
14:11:32:673,15.574,0.289,-0.211,-0.024,-6.108,166.793,-38.759
14:11:32:674,15.575,0.307,-0.160,-0.015,-6.275,166.594,-38.693
14:11:32:674,15.575,0.327,-0.018,0.029,-6.357,166.428,-37.561
14:11:32:833,15.734,0.367,0.094,0.005,-6.331,166.305,-36.168
14:11:32:834,15.735,0.364,0.140,-0.020,-6.195,166.336,-33.187
14:11:32:834,15.735,0.271,0.188,-0.025,-5.677,166.977,-29.221
14:11:32:835,15.736,0.082,0.065,0.045,-5.119,167.797,-26.238
14:11:32:904,15.805,-0.078,0.043,0.115,-4.286,169.082,-21.772
14:11:33:016,15.917,-0.103,0.051,0.106,-3.889,169.578,-19.043
14:11:33:017,15.918,-0.029,0.112,-0.009,-3.551,169.898,-15.582
14:11:33:018,15.919,0.033,0.093,-0.045,-3.372,170.235,-13.802
14:11:33:018,15.919,-0.060,0.049,-0.021,-2.884,171.734,-11.862
14:11:33:035,15.936,-0.169,-0.030,-0.008,-2.210,174.196,-10.675
14:11:33:092,15.993,-0.202,-0.059,-0.004,-1.724,176.073,-10.164
14:11:33:093,15.994,-0.210,-0.027,-0.003,-1.011,178.832,-9.590
14:11:33:094,15.995,-0.195,-0.029,0.000,-0.559,-179.491,-9.245
14:11:33:142,16.043,-0.219,-0.089,0.023,0.095,-177.182,-9.253
14:11:33:143,16.044,-0.248,-0.082,0.063,0.743,-175.268,-8.321
14:11:33:174,16.075,-0.231,-0.084,0.044,1.117,-174.112,-7.583
14:11:33:175,16.076,-0.247,-0.105,0.088,1.460,-172.267,-7.633
14:11:33:176,16.077,-0.265,-0.037,0.130,1.732,-171.331,-7.092
14:11:33:177,16.078,-0.296,-0.025,0.170,2.239,-170.274,-5.281
14:11:33:196,16.097,-0.355,0.021,0.234,2.526,-169.843,-3.963
14:11:33:197,16.098,-0.387,0.046,0.273,2.842,-169.370,-1.850
14:11:33:198,16.099,-0.456,0.094,0.290,2.954,-169.536,0.326
14:11:33:246,16.147,-0.482,0.145,0.307,2.936,-169.459,1.735
14:11:33:247,16.148,-0.598,0.225,0.366,2.756,-169.782,3.647
14:11:33:298,16.199,-0.668,0.212,0.378,2.544,-170.139,4.648
14:11:33:299,16.200,-0.572,-0.050,0.255,2.172,-171.844,5.383
14:11:33:379,16.280,-0.449,-0.082,0.167,1.767,-174.205,4.760
14:11:33:38,16.281,-0.402,-0.005,0.125,1.419,-175.834,3.531
14:11:33:434,16.335,-0.368,0.154,0.060,0.633,-177.404,0.785
14:11:33:435,16.336,-0.303,0.172,0.014,-0.065,-178.321,-1.452
14:11:33:436,16.337,-0.253,0.154,-0.013,-1.287,-179.221,-5.225
14:11:33:453,16.354,-0.133,0.094,-0.051,-2.658,-179.789,-9.401
14:11:33:568,16.469,-0.072,0.070,-0.077,-3.598,-179.758,-12.369
14:11:33:568,16.469,-0.012,0.088,-0.133,-4.936,-179.188,-17.029
14:11:33:568,16.469,0.108,0.086,-0.202,-5.767,-178.625,-20.210
14:11:33:569,16.470,0.169,0.051,-0.233,-6.931,-177.609,-24.954
14:11:33:615,16.516,0.241,-0.024,-0.256,-7.613,-176.916,-28.054
14:11:33:616,16.517,0.277,-0.081,-0.250,-8.435,-175.975,-32.510
14:11:33:637,16.538,0.287,-0.155,-0.239,-8.990,-175.202,-36.622
14:11:33:692,16.593,0.307,-0.193,-0.228,-9.316,-174.907,-39.077
14:11:33:693,16.594,0.321,-0.255,-0.228,-9.691,-174.651,-42.231
14:11:33:716,16.617,0.334,-0.280,-0.217,-9.818,-174.681,-43.902
14:11:33:742,16.643,0.345,-0.326,-0.208,-9.803,-174.988,-45.603
14:11:33:826,16.727,0.328,-0.321,-0.173,-9.571,-175.289,-46.091
14:11:33:827,16.728,0.304,-0.285,-0.159,-8.838,-175.785,-45.704
14:11:33:828,16.729,0.296,-0.188,-0.112,-7.868,-176.466,-43.849
14:11:33:847,16.748,0.286,-0.108,-0.076,-7.290,-177.047,-41.825
14:11:33:873,16.774,0.290,0.020,-0.043,-6.695,-178.140,-37.785
14:11:33:958,16.859,0.339,0.204,-0.080,-6.462,-178.900,-34.595
14:11:33:958,16.859,0.327,0.325,-0.112,-6.035,-179.574,-29.275
14:11:33:959,16.860,0.179,0.359,-0.092,-5.259,-179.186,-23.548
14:11:33:979,16.880,-0.008,0.274,0.032,-4.621,-178.320,-19.777
14:11:34:006,16.907,-0.160,0.167,0.234,-3.728,-176.986,-14.773
14:11:34:031,16.932,-0.239,0.091,0.270,-3.305,-176.376,-12.161
14:11:34:057,16.958,-0.014,0.052,0.200,-2.771,-175.411,-9.543
14:11:34:084,16.985,-0.368,0.144,0.250,-2.578,-171.200,-8.917
14:11:34:109,17.010,-0.518,0.149,0.270,-2.535,-166.050,-9.601
14:11:34:138,17.039,-0.288,0.056,0.173,-2.520,-160.394,-10.898
14:11:34:163,17.064,-0.213,-0.039,0.049,-2.668,-158.175,-11.759
14:11:34:217,17.118,-0.219,-0.055,-0.011,-2.995,-156.537,-12.539
14:11:34:218,17.119,-0.197,-0.089,-0.086,-3.491,-155.952,-12.683
14:11:34:24,17.141,-0.158,-0.168,-0.082,-3.807,-155.899,-12.412
14:11:34:267,17.168,-0.188,-0.144,-0.055,-4.175,-155.279,-11.557
14:11:34:293,17.194,-0.206,-0.141,-0.081,-4.370,-154.748,-10.807
14:11:34:319,17.220,-0.210,-0.151,-0.074,-3.882,-153.715,-10.170
14:11:34:346,17.247,-0.232,-0.090,-0.041,-3.795,-153.225,-9.282
14:11:34:402,17.303,-0.258,-0.071,0.011,-3.466,-152.468,-7.915
14:11:34:403,17.304,-0.262,-0.059,0.053,-2.907,-152.211,-6.554
14:11:34:424,17.325,-0.262,-0.046,0.109,-2.448,-152.265,-5.648
14:11:34:45,17.351,-0.285,-0.024,0.171,-1.671,-152.913,-4.369
14:11:34:479,17.380,-0.297,0.024,0.216,-1.170,-153.314,-3.563
14:11:34:504,17.405,-0.313,0.119,0.269,-0.497,-154.063,-2.397
14:11:34:529,17.430,-0.357,0.261,0.300,-0.078,-155.013,-1.258
14:11:34:556,17.457,-0.421,0.244,0.316,-0.003,-155.070,-0.548
14:11:34:639,17.540,-0.373,0.008,0.348,-0.049,-155.176,0.259
14:11:34:639,17.540,-0.331,-0.026,0.323,-0.105,-155.418,0.290
14:11:34:723,17.624,-0.255,0.070,0.290,-0.174,-156.138,-0.888
14:11:34:723,17.624,-0.193,0.190,0.210,-0.262,-156.753,-2.508
14:11:34:723,17.624,-0.136,0.219,0.154,-0.520,-157.521,-5.966
14:11:34:724,17.625,-0.020,0.173,0.071,-0.994,-157.758,-10.252
14:11:34:739,17.640,0.061,0.198,0.000,-1.443,-158.044,-13.269
14:11:34:768,17.669,0.036,0.078,0.020,-1.934,-157.239,-18.329
14:11:34:793,17.694,0.110,-0.017,-0.049,-2.139,-156.431,-21.675
14:11:34:819,17.720,0.063,-0.015,-0.048,-2.433,-155.262,-26.610
14:11:34:876,17.777,0.157,-0.090,-0.122,-2.887,-154.477,-31.169
14:11:34:876,17.777,0.178,-0.126,-0.163,-3.403,-154.201,-33.868
14:11:34:897,17.798,0.221,-0.240,-0.203,-4.435,-153.954,-37.307
14:11:34:923,17.824,0.200,-0.296,-0.220,-5.129,-153.733,-39.168
14:11:34:949,17.850,0.187,-0.328,-0.208,-5.911,-153.216,-41.257
14:11:34:976,17.877,0.179,-0.315,-0.177,-6.434,-152.650,-42.356
14:11:35:004,17.905,0.208,-0.277,-0.202,-6.828,-152.349,-42.377
14:11:35:029,17.930,0.228,-0.202,-0.289,-7.293,-151.773,-41.463
14:11:35:116,18.017,0.212,-0.078,-0.315,-7.356,-151.212,-40.155
14:11:35:116,18.017,0.199,-0.004,-0.278,-7.286,-150.272,-37.271
14:11:35:117,18.018,0.164,0.088,-0.269,-7.227,-149.632,-34.871
14:11:35:118,18.019,0.192,0.195,-0.334,-7.210,-148.572,-30.906
14:11:35:133,18.034,0.139,0.325,-0.414,-6.947,-146.875,-26.856
14:11:35:159,18.060,0.069,0.296,-0.360,-6.507,-145.259,-24.241
14:11:35:187,18.088,-0.057,0.169,-0.136,-5.502,-142.382,-20.689
14:11:35:24,18.141,-0.076,0.125,-0.010,-4.777,-140.694,-18.646
14:11:35:38,18.281,-0.115,0.108,0.049,-3.921,-139.317,-16.062
14:11:35:38,18.281,-0.109,0.119,0.023,-3.228,-139.388,-13.976
14:11:35:381,18.282,-0.077,0.058,-0.004,-2.780,-139.164,-12.858
14:11:35:382,18.283,-0.083,-0.072,0.031,-2.076,-137.949,-11.514
14:11:35:396,18.297,-0.143,-0.138,0.111,-1.587,-136.327,-10.731
14:11:35:428,18.329,-0.156,-0.114,0.152,-0.964,-133.273,-9.498
14:11:35:429,18.330,-0.183,-0.106,0.193,-0.579,-129.830,-8.110
14:11:35:429,18.330,-0.184,-0.092,0.240,-0.452,-127.538,-7.068
14:11:35:449,18.350,-0.183,-0.092,0.283,-0.381,-124.241,-5.340
14:11:35:475,18.376,-0.174,-0.087,0.316,-0.403,-122.172,-4.144
14:11:35:502,18.403,-0.167,-0.101,0.414,-0.447,-119.346,-2.322
14:11:35:528,18.429,-0.138,-0.106,0.475,-0.460,-117.870,-1.144
14:11:35:554,18.455,-0.116,-0.059,0.526,-0.452,-116.234,0.407
14:11:35:58,18.481,-0.083,0.009,0.530,-0.457,-115.240,1.451
14:11:35:664,18.565,-0.089,0.035,0.481,-0.482,-114.598,1.747
14:11:35:665,18.566,-0.066,0.092,0.473,-0.594,-113.264,1.565
14:11:35:665,18.566,-0.082,0.269,0.510,-0.735,-112.072,1.050
14:11:35:714,18.615,-0.106,0.320,0.564,-1.115,-109.719,-0.200
14:11:35:715,18.616,-0.061,0.141,0.410,-1.578,-108.406,-2.004
14:11:35:737,18.638,-0.021,0.130,0.366,-1.832,-107.748,-3.750
14:11:35:765,18.666,0.030,0.233,0.242,-2.064,-107.323,-7.327
14:11:35:791,18.692,0.006,0.252,0.158,-2.134,-107.227,-10.246
14:11:35:817,18.718,0.018,0.223,0.062,-2.314,-107.765,-15.021
14:11:35:842,18.743,0.017,0.148,-0.014,-2.579,-108.600,-18.196
14:11:35:868,18.769,0.028,0.061,-0.072,-3.267,-109.954,-22.831
14:11:35:894,18.795,0.031,-0.030,-0.153,-4.324,-111.223,-27.113
14:11:35:92,18.822,0.034,-0.093,-0.178,-5.160,-111.872,-29.728
14:11:35:947,18.848,0.015,-0.144,-0.227,-6.592,-112.611,-33.215
14:11:35:975,18.876,0.022,-0.168,-0.270,-7.670,-112.960,-35.247
14:11:36:001,18.902,0.011,-0.227,-0.315,-9.322,-113.190,-37.865
14:11:36:026,18.927,0.010,-0.271,-0.321,-10.761,-112.804,-39.992
14:11:36:081,18.982,0.005,-0.281,-0.332,-11.534,-112.457,-41.143
14:11:36:082,18.983,0.010,-0.230,-0.345,-12.421,-111.628,-42.335
14:11:36:105,19.006,0.012,-0.185,-0.384,-12.900,-111.197,-42.695
14:11:36:131,19.032,0.019,-0.125,-0.410,-13.440,-110.549,-42.569
14:11:36:157,19.058,-0.001,-0.082,-0.413,-13.582,-109.763,-41.688
14:11:36:184,19.085,-0.010,0.008,-0.474,-13.493,-109.044,-40.703
14:11:36:211,19.112,-0.092,0.234,-0.600,-13.013,-107.678,-38.543
14:11:36:264,19.165,-0.120,0.244,-0.533,-12.443,-106.382,-36.566
14:11:36:291,19.192,-0.064,0.071,-0.228,-11.204,-104.053,-32.999
14:11:36:291,19.192,0.065,0.022,-0.063,-10.324,-102.590,-30.565
14:11:36:315,19.216,0.054,-0.003,-0.025,-9.445,-101.389,-27.244
14:11:36:341,19.242,-0.069,0.045,-0.136,-9.025,-101.243,-24.569
14:11:36:369,19.270,-0.124,0.021,-0.214,-8.733,-101.085,-23.213
14:11:36:394,19.295,-0.102,-0.011,-0.095,-7.958,-99.900,-21.600
14:11:36:419,19.320,-0.031,-0.028,-0.003,-7.312,-98.620,-20.637
14:11:36:446,19.347,-0.027,-0.021,0.030,-6.302,-96.193,-19.244
14:11:36:472,19.373,0.034,-0.008,0.079,-5.374,-93.475,-17.675
14:11:36:527,19.428,0.064,0.018,0.137,-4.750,-91.114,-16.520
14:11:36:528,19.429,0.044,0.027,0.315,-3.849,-86.477,-14.622
14:11:36:582,19.483,0.073,-0.022,0.356,-3.562,-83.865,-13.079
14:11:36:582,19.483,0.116,-0.050,0.313,-3.684,-82.564,-10.323
14:11:36:603,19.504,0.132,-0.030,0.322,-3.828,-82.780,-8.303
14:11:36:63,19.531,0.131,-0.032,0.329,-3.955,-83.481,-5.383
14:11:36:657,19.558,0.120,-0.016,0.369,-4.000,-83.672,-2.829
14:11:36:683,19.584,0.125,0.003,0.424,-4.037,-83.453,-1.361
14:11:36:708,19.609,0.104,-0.033,0.474,-4.220,-82.685,0.436
14:11:36:734,19.635,0.120,-0.051,0.493,-4.398,-82.044,1.332
14:11:36:761,19.662,0.140,0.019,0.537,-4.671,-81.001,2.092
14:11:36:816,19.717,0.130,0.159,0.603,-4.881,-80.284,2.111
14:11:36:817,19.718,0.108,0.203,0.616,-5.005,-80.134,1.773
14:11:36:869,19.770,0.058,0.079,0.498,-5.199,-80.471,0.741
14:11:36:87,19.771,0.017,0.138,0.423,-5.313,-81.047,-0.433
14:11:36:894,19.795,-0.007,0.204,0.361,-5.447,-82.014,-3.131
14:11:36:919,19.820,-0.058,0.299,0.249,-5.618,-83.063,-6.713
14:11:36:945,19.846,-0.084,0.261,0.138,-5.760,-83.769,-9.638
14:11:36:971,19.872,-0.102,0.163,0.035,-5.979,-84.663,-14.573
14:11:36:997,19.898,-0.101,0.116,-0.026,-6.118,-85.202,-18.120
14:11:37:023,19.924,-0.105,0.071,-0.103,-6.460,-86.158,-23.514
14:11:37:049,19.951,-0.121,0.026,-0.166,-6.872,-86.936,-27.012
14:11:37:135,20.036,-0.147,-0.070,-0.235,-7.765,-88.119,-31.898
14:11:37:137,20.038,-0.152,-0.164,-0.284,-8.849,-89.151,-36.189
14:11:37:137,20.038,-0.156,-0.208,-0.301,-9.599,-89.733,-38.670
14:11:37:155,20.056,-0.136,-0.287,-0.305,-10.684,-90.528,-41.746
14:11:37:181,20.082,-0.131,-0.336,-0.323,-11.396,-91.032,-43.354
14:11:37:236,20.137,-0.119,-0.304,-0.350,-12.333,-91.786,-45.004
14:11:37:237,20.138,-0.127,-0.203,-0.427,-13.024,-92.414,-45.591
14:11:37:261,20.162,-0.157,-0.136,-0.473,-13.278,-92.716,-45.323
14:11:37:318,20.219,-0.101,-0.079,-0.481,-13.300,-93.007,-43.945
14:11:37:318,20.219,-0.100,0.122,-0.541,-13.052,-93.131,-42.475
14:11:37:319,20.220,-0.178,0.286,-0.586,-12.481,-93.015,-39.463
14:11:37:338,20.239,-0.131,0.131,-0.344,-11.935,-92.792,-36.846
14:11:37:364,20.265,-0.030,0.017,-0.201,-11.004,-92.344,-32.590
14:11:37:42,20.321,0.072,-0.017,-0.119,-10.161,-92.239,-28.766
14:11:37:42,20.322,-0.016,-0.028,-0.131,-9.755,-92.344,-26.701
14:11:37:502,20.403,-0.112,-0.018,-0.193,-9.165,-92.646,-24.258
14:11:37:503,20.404,-0.122,0.022,-0.161,-8.585,-92.135,-22.946
14:11:37:504,20.405,-0.082,-0.019,-0.042,-7.570,-90.595,-21.216
14:11:37:522,20.423,-0.054,-0.031,0.025,-6.498,-88.374,-19.517
14:11:37:606,20.507,-0.053,-0.018,0.062,-5.831,-86.705,-18.297
14:11:37:607,20.508,0.031,0.018,0.149,-4.964,-84.073,-16.292
14:11:37:608,20.509,0.064,0.043,0.161,-4.494,-82.052,-14.922
14:11:37:627,20.528,0.034,0.060,0.161,-4.069,-78.880,-12.884
14:11:37:682,20.583,-0.015,-0.016,0.215,-3.926,-75.986,-11.014
14:11:37:684,20.585,0.069,-0.069,0.206,-3.856,-74.458,-9.822
14:11:37:706,20.607,0.130,-0.092,0.251,-3.695,-72.514,-8.202
14:11:37:791,20.692,0.196,-0.067,0.307,-3.583,-71.479,-7.188
14:11:37:792,20.693,0.224,-0.033,0.338,-3.513,-70.544,-5.541
14:11:37:792,20.693,0.212,-0.020,0.355,-3.578,-70.229,-4.355
14:11:37:811,20.712,0.187,0.023,0.398,-3.834,-69.876,-2.452
14:11:37:839,20.740,0.206,0.050,0.464,-4.221,-69.599,-0.442
14:11:37:865,20.766,0.218,0.084,0.504,-4.546,-69.372,0.888
14:11:37:89,20.791,0.253,0.142,0.607,-5.096,-69.194,2.595
14:11:37:916,20.817,0.182,0.182,0.635,-5.465,-69.395,3.369
14:11:37:942,20.843,0.118,0.062,0.586,-5.920,-70.485,3.662
14:11:37:968,20.869,0.066,0.004,0.487,-6.101,-71.584,2.581
14:11:37:997,20.898,0.060,0.067,0.424,-6.045,-72.424,0.996
14:11:38:05,20.951,0.020,0.150,0.384,-5.778,-73.895,-2.455
14:11:38:051,20.952,-0.028,0.194,0.314,-5.569,-75.147,-5.276
14:11:38:073,20.974,-0.078,0.220,0.223,-5.387,-77.621,-9.971
14:11:38:099,21.000,-0.127,0.184,0.072,-5.477,-79.624,-13.225
14:11:38:155,21.056,-0.140,0.150,-0.020,-6.033,-82.735,-18.078
14:11:38:155,21.056,-0.183,0.061,-0.124,-7.083,-85.307,-22.795
14:11:38:179,21.080,-0.210,-0.032,-0.203,-7.950,-86.513,-25.849
14:11:38:205,21.106,-0.242,-0.076,-0.250,-9.150,-87.392,-30.295
14:11:38:231,21.132,-0.249,-0.108,-0.283,-9.838,-87.579,-33.109
14:11:38:258,21.159,-0.257,-0.153,-0.319,-10.766,-87.742,-36.956
14:11:38:283,21.184,-0.231,-0.185,-0.345,-11.638,-88.026,-40.197
14:11:38:32,21.221,-0.205,-0.235,-0.348,-12.259,-88.353,-41.983
14:11:38:336,21.237,-0.187,-0.253,-0.350,-13.125,-89.078,-44.043
14:11:38:362,21.263,-0.185,-0.241,-0.394,-13.620,-89.661,-44.980
14:11:38:388,21.289,-0.162,-0.225,-0.405,-13.456,-90.796,-44.826
14:11:38:415,21.316,-0.122,-0.149,-0.424,-13.658,-91.821,-44.505
14:11:38:441,21.342,-0.105,-0.103,-0.425,-13.648,-92.479,-43.722
14:11:38:467,21.368,-0.118,-0.038,-0.423,-13.457,-93.395,-41.768
14:11:38:496,21.397,-0.115,0.048,-0.458,-13.179,-93.962,-39.981
14:11:38:52,21.421,-0.104,0.114,-0.421,-12.455,-94.430,-36.705
14:11:38:546,21.447,-0.099,0.078,-0.357,-11.797,-94.757,-34.250
14:11:38:572,21.473,-0.067,0.019,-0.238,-10.543,-94.062,-30.516
14:11:38:599,21.500,-0.019,0.049,-0.115,-9.167,-92.960,-26.915
14:11:38:625,21.526,-0.023,0.091,-0.066,-8.398,-92.225,-24.615
14:11:38:651,21.552,-0.066,0.106,-0.059,-7.506,-91.411,-21.370
14:11:38:677,21.578,-0.072,0.078,-0.003,-6.986,-90.593,-19.386
14:11:38:703,21.604,-0.048,0.041,0.049,-6.227,-88.855,-16.617
14:11:38:729,21.630,-0.003,0.007,0.166,-5.521,-86.328,-14.101
14:11:38:756,21.657,0.000,-0.015,0.198,-5.131,-84.508,-12.514
14:11:38:784,21.685,0.021,-0.008,0.270,-4.701,-81.532,-10.309
14:11:38:81,21.711,0.056,-0.001,0.316,-4.553,-79.986,-8.878
14:11:38:835,21.736,0.082,-0.017,0.339,-4.482,-77.814,-6.830
14:11:38:861,21.762,0.095,0.001,0.355,-4.498,-76.561,-6.189
14:11:38:887,21.788,0.131,-0.002,0.359,-4.597,-74.945,-6.317
14:11:38:913,21.814,0.155,-0.079,0.364,-4.646,-73.817,-5.462
14:11:38:94,21.841,0.170,-0.092,0.369,-4.640,-73.329,-4.672
14:11:39:024,21.925,0.142,0.018,0.407,-4.623,-73.076,-3.806
14:11:39:025,21.926,0.117,0.067,0.420,-4.652,-72.873,-3.380
14:11:39:026,21.927,0.100,0.082,0.419,-4.709,-73.034,-2.947
14:11:39:045,21.946,0.141,0.188,0.455,-4.714,-72.841,-2.867
14:11:39:072,21.973,0.142,0.316,0.500,-4.639,-73.015,-3.116
14:11:39:098,21.999,0.098,0.154,0.428,-4.561,-74.175,-3.831
14:11:39:124,22.025,0.059,0.034,0.324,-4.481,-75.320,-4.729
14:11:39:15,22.051,0.068,0.097,0.276,-4.351,-77.442,-6.949
14:11:39:176,22.077,-0.007,0.163,0.203,-4.324,-78.684,-8.978
14:11:39:202,22.103,-0.041,0.190,0.149,-4.502,-80.628,-12.598
14:11:39:257,22.158,-0.098,0.148,-0.018,-5.152,-82.774,-16.562
14:11:39:258,22.159,-0.160,0.172,-0.073,-5.799,-84.565,-19.194
14:11:39:281,22.182,-0.147,0.102,-0.093,-6.898,-86.004,-23.395
14:11:39:338,22.239,-0.160,0.032,-0.203,-7.714,-86.968,-26.121
14:11:39:338,22.239,-0.200,-0.043,-0.223,-9.070,-87.682,-30.183
14:11:39:389,22.290,-0.235,-0.120,-0.271,-10.544,-88.402,-33.976
14:11:39:389,22.290,-0.246,-0.150,-0.298,-11.531,-88.698,-36.306
14:11:39:412,22.313,-0.243,-0.200,-0.324,-12.962,-89.178,-39.370
14:11:39:47,22.371,-0.237,-0.265,-0.322,-13.869,-89.466,-41.085
14:11:39:471,22.372,-0.229,-0.307,-0.321,-15.036,-89.911,-43.153
14:11:39:472,22.373,-0.214,-0.360,-0.336,-16.041,-90.440,-44.578
14:11:39:522,22.423,-0.223,-0.300,-0.343,-16.524,-91.086,-45.108
14:11:39:522,22.423,-0.215,-0.250,-0.368,-16.913,-91.772,-45.180
14:11:39:572,22.473,-0.227,-0.150,-0.433,-16.988,-92.249,-44.685
14:11:39:573,22.474,-0.211,-0.070,-0.441,-16.740,-92.893,-43.092
14:11:39:596,22.497,-0.182,-0.002,-0.411,-16.381,-93.417,-41.495
14:11:39:624,22.525,-0.174,0.142,-0.447,-15.673,-93.921,-38.506
14:11:39:649,22.550,-0.184,0.316,-0.420,-14.799,-94.352,-34.927
14:11:39:676,22.577,-0.135,0.238,-0.279,-14.169,-94.405,-32.284
14:11:39:73,22.631,0.030,0.002,-0.095,-13.197,-94.478,-28.470
14:11:39:731,22.632,0.124,-0.005,-0.022,-12.509,-94.605,-26.308
14:11:39:812,22.713,0.071,0.001,0.008,-11.677,-95.507,-23.909
14:11:39:812,22.713,-0.042,0.036,-0.101,-11.046,-96.410,-22.380
14:11:39:813,22.714,-0.077,0.041,-0.136,-10.586,-96.149,-21.740
14:11:39:832,22.733,-0.061,-0.026,-0.062,-9.739,-94.947,-21.179
14:11:39:889,22.790,-0.057,-0.039,-0.007,-9.052,-93.252,-20.970
14:11:39:889,22.790,-0.067,-0.022,0.019,-7.894,-90.283,-20.754
14:11:39:911,22.812,-0.057,-0.046,0.058,-6.678,-87.190,-20.479
14:11:39:995,22.896,-0.024,-0.065,0.081,-5.880,-85.335,-20.190
14:11:39:996,22.897,-0.029,-0.067,0.069,-4.892,-83.037,-19.523
14:11:39:997,22.898,-0.076,-0.078,0.049,-4.299,-81.748,-18.937
14:11:40:103,23.004,-0.051,-0.105,0.084,-3.369,-80.011,-17.812
14:11:40:104,23.005,0.015,-0.074,0.128,-2.737,-79.074,-16.844
14:11:40:105,23.006,0.035,-0.021,0.115,-1.945,-78.031,-15.107
14:11:40:106,23.007,0.072,0.017,0.167,-1.302,-77.153,-13.110
14:11:40:151,23.052,0.121,0.053,0.210,-0.957,-76.541,-11.619
14:11:40:151,23.052,0.184,0.110,0.280,-0.651,-75.804,-9.181
14:11:40:173,23.074,0.203,0.176,0.341,-0.592,-75.296,-7.488
14:11:40:2,23.101,0.244,0.238,0.375,-0.648,-74.599,-5.075
14:11:40:231,23.132,0.294,0.332,0.461,-0.836,-74.053,-3.079
14:11:40:252,23.153,0.264,0.208,0.447,-1.050,-74.107,-2.178
14:11:40:281,23.182,0.189,-0.023,0.337,-1.379,-73.978,-1.881
14:11:40:368,23.269,0.225,0.085,0.328,-1.505,-73.925,-2.527
14:11:40:377,23.278,0.185,0.150,0.333,-1.604,-74.052,-4.679
14:11:40:387,23.288,0.063,0.190,0.146,-2.101,-75.018,-10.489
14:11:40:468,23.369,-0.013,0.175,0.036,-2.670,-75.596,-14.862
14:11:40:469,23.370,-0.036,0.138,-0.015,-3.106,-75.834,-17.962
14:11:40:469,23.370,-0.049,0.094,-0.062,-3.813,-75.910,-22.699
14:11:40:488,23.389,-0.065,0.076,-0.142,-4.379,-75.941,-25.886
14:11:40:515,23.416,-0.146,0.007,-0.243,-5.396,-75.841,-30.690
14:11:40:541,23.442,-0.211,-0.067,-0.303,-6.448,-75.338,-35.369
14:11:40:567,23.468,-0.225,-0.142,-0.297,-7.105,-74.947,-38.303
14:11:40:622,23.524,-0.223,-0.218,-0.312,-8.017,-74.309,-42.243
14:11:40:623,23.524,-0.207,-0.266,-0.321,-8.611,-73.946,-44.525
14:11:40:647,23.548,-0.190,-0.333,-0.315,-9.634,-73.654,-47.142
14:11:40:672,23.573,-0.205,-0.320,-0.326,-10.308,-73.563,-48.323
14:11:40:698,23.599,-0.214,-0.308,-0.343,-11.091,-73.022,-49.257
14:11:40:724,23.625,-0.264,-0.259,-0.390,-11.341,-72.626,-49.146
14:11:40:751,23.652,-0.279,-0.198,-0.410,-11.181,-72.051,-48.481
14:11:40:777,23.678,-0.262,-0.132,-0.393,-10.694,-71.373,-46.558
14:11:40:806,23.707,-0.275,-0.024,-0.422,-10.248,-70.842,-44.741
14:11:40:833,23.734,-0.357,0.171,-0.468,-9.489,-69.901,-41.191
14:11:40:856,23.757,-0.322,0.226,-0.342,-8.470,-68.427,-36.771
14:11:40:882,23.783,-0.179,0.123,-0.212,-7.728,-67.269,-33.556
14:11:40:908,23.809,0.008,0.143,-0.131,-6.792,-65.794,-28.839
14:11:40:963,23.864,0.013,0.165,-0.072,-6.474,-65.232,-25.974
14:11:40:964,23.865,-0.080,0.174,-0.057,-6.280,-64.765,-22.358
14:11:40:988,23.889,-0.114,0.077,-0.081,-5.915,-63.880,-19.798
14:11:41:013,23.914,-0.058,0.028,-0.027,-5.484,-62.700,-18.649
14:11:41:04,23.941,0.004,-0.080,0.077,-4.764,-60.333,-17.469
14:11:41:066,23.967,0.014,-0.067,0.118,-4.276,-58.466,-16.890
14:11:41:093,23.994,0.023,-0.044,0.114,-3.603,-55.506,-16.112
14:11:41:12,24.021,-0.026,-0.037,0.122,-3.212,-53.332,-15.594
14:11:41:145,24.046,0.006,-0.033,0.139,-2.625,-49.768,-14.641
14:11:41:171,24.072,0.126,-0.031,0.204,-1.999,-45.699,-13.312
14:11:41:226,24.127,0.194,-0.054,0.200,-1.666,-43.396,-12.206
14:11:41:227,24.128,0.245,-0.121,0.183,-1.328,-40.630,-10.304
14:11:41:251,24.152,0.280,-0.119,0.164,-1.156,-39.342,-8.983
14:11:41:364,24.265,0.291,-0.080,0.143,-0.936,-37.861,-7.164
14:11:41:364,24.265,0.345,-0.026,0.158,-0.748,-36.958,-6.083
14:11:41:365,24.266,0.421,0.057,0.141,-0.433,-35.793,-4.746
14:11:41:365,24.266,0.435,0.086,0.086,-0.171,-34.970,-3.892
14:11:41:381,24.282,0.452,0.215,0.092,0.001,-34.480,-3.642
14:11:41:407,24.308,0.526,0.362,0.129,0.266,-33.671,-3.718
14:11:41:489,24.390,0.487,0.215,0.120,0.351,-33.498,-3.980
14:11:41:543,24.444,0.355,0.034,0.073,0.271,-34.018,-4.879
14:11:41:544,24.446,0.296,0.045,-0.018,0.120,-34.564,-6.862
14:11:41:57,24.471,0.262,0.100,-0.052,0.034,-34.694,-8.837
14:11:41:571,24.472,0.152,0.197,-0.058,-0.096,-34.392,-12.626
14:11:41:572,24.473,0.070,0.187,-0.052,-0.178,-33.951,-15.582
14:11:41:591,24.492,-0.041,0.165,-0.086,-0.291,-33.440,-20.428
14:11:41:617,24.518,-0.087,0.135,-0.121,-0.426,-33.088,-25.385
14:11:41:643,24.544,-0.131,0.123,-0.144,-0.637,-33.113,-28.537
14:11:41:672,24.573,-0.186,0.017,-0.156,-1.238,-33.217,-32.898
14:11:41:696,24.597,-0.263,-0.095,-0.153,-1.807,-33.418,-35.544
14:11:41:725,24.626,-0.302,-0.133,-0.144,-2.802,-33.619,-39.068
14:11:41:725,24.626,-0.339,-0.182,-0.146,-3.917,-33.816,-41.969
14:11:41:777,24.678,-0.349,-0.204,-0.150,-4.650,-33.932,-43.513
14:11:41:778,24.679,-0.375,-0.251,-0.154,-5.638,-33.811,-45.276
14:11:41:83,24.731,-0.359,-0.288,-0.147,-6.140,-33.702,-46.108
14:11:41:831,24.732,-0.345,-0.299,-0.159,-6.493,-33.229,-46.903
14:11:41:864,24.765,-0.364,-0.281,-0.159,-6.535,-33.134,-47.142
14:11:41:88,24.781,-0.325,-0.240,-0.153,-5.760,-32.703,-45.307
14:11:41:906,24.807,-0.308,-0.177,-0.161,-5.307,-32.191,-44.246
14:11:41:932,24.833,-0.329,-0.084,-0.173,-5.016,-31.781,-43.008
14:11:41:961,24.862,-0.332,0.005,-0.180,-4.781,-31.231,-40.308
14:11:41:986,24.887,-0.356,0.109,-0.184,-4.723,-30.788,-38.006
14:11:42:011,24.912,-0.470,0.436,-0.166,-4.650,-29.656,-33.846
14:11:42:066,24.967,-0.260,0.371,-0.103,-4.440,-27.587,-28.910
14:11:42:067,24.968,-0.047,0.202,-0.104,-4.199,-25.675,-25.555
14:11:42:121,25.022,0.128,0.047,-0.169,-3.971,-22.725,-21.229
14:11:42:121,25.022,0.040,0.012,-0.028,-4.077,-21.143,-19.043
14:11:42:142,25.043,-0.036,0.027,0.046,-4.443,-18.894,-16.896
14:11:42:198,25.099,-0.054,0.075,0.131,-4.667,-16.920,-16.161
14:11:42:198,25.099,-0.025,0.061,0.152,-4.859,-12.915,-15.732
14:11:42:25,25.151,0.107,0.005,0.157,-4.833,-8.069,-15.744
14:11:42:273,25.174,0.181,-0.068,0.098,-4.673,0.075,-15.742
14:11:42:3,25.201,0.185,-0.074,0.080,-4.658,2.998,-15.574
14:11:42:326,25.227,0.175,-0.089,0.100,-4.752,6.179,-14.985
14:11:42:352,25.253,0.185,-0.088,0.084,-4.823,8.690,-13.977
14:11:42:38,25.281,0.186,-0.079,0.047,-4.408,9.971,-13.769
14:11:42:405,25.306,0.209,-0.066,-0.004,-4.270,11.426,-12.263
14:11:42:461,25.362,0.248,-0.093,-0.061,-4.113,12.201,-11.213
14:11:42:461,25.362,0.265,-0.071,-0.109,-3.761,12.973,-9.660
14:11:42:484,25.385,0.291,-0.025,-0.148,-3.281,13.304,-8.236
14:11:42:51,25.411,0.333,-0.027,-0.187,-2.915,13.145,-7.337
14:11:42:536,25.437,0.375,-0.034,-0.232,-2.381,12.231,-5.974
14:11:42:563,25.464,0.381,-0.010,-0.267,-2.085,11.238,-5.079
14:11:42:588,25.489,0.393,-0.009,-0.257,-1.694,9.558,-3.983
14:11:42:614,25.515,0.363,-0.028,-0.218,-1.458,8.259,-3.482
14:11:42:67,25.571,0.383,0.004,-0.227,-1.091,6.825,-3.144
14:11:42:671,25.572,0.432,0.223,-0.211,-0.834,5.333,-3.349
14:11:42:693,25.594,0.431,0.344,-0.181,-0.840,4.309,-3.739
14:11:42:72,25.621,0.333,0.078,-0.102,-1.120,2.563,-4.775
14:11:42:746,25.647,0.255,0.008,-0.090,-1.395,1.513,-5.994
14:11:42:773,25.674,0.147,0.095,-0.059,-1.798,0.338,-8.853
14:11:42:8,25.701,0.109,0.267,-0.031,-2.046,-0.119,-11.338
14:11:42:824,25.725,0.009,0.298,0.031,-2.522,-0.645,-15.578
14:11:42:851,25.752,-0.092,0.203,0.074,-3.094,-0.985,-20.121
14:11:42:878,25.779,-0.160,0.166,0.049,-3.486,-1.252,-23.183
14:11:42:906,25.807,-0.209,0.187,0.043,-4.179,-1.716,-27.667
14:11:42:93,25.831,-0.318,0.053,0.093,-4.749,-1.999,-30.612
14:11:42:956,25.857,-0.326,-0.041,0.100,-5.424,-2.013,-34.960
14:11:42:984,25.885,-0.339,-0.126,0.100,-6.044,-2.347,-39.044
14:11:43:015,25.916,-0.335,-0.179,0.078,-6.572,-2.843,-41.551
14:11:43:036,25.937,-0.408,-0.247,0.082,-7.689,-3.882,-44.958
14:11:43:063,25.964,-0.445,-0.279,0.086,-8.442,-4.584,-46.993
14:11:43:087,25.988,-0.453,-0.345,0.086,-9.120,-5.319,-49.526
14:11:43:114,26.015,-0.367,-0.390,0.051,-9.194,-5.827,-51.170
14:11:43:168,26.069,-0.347,-0.410,0.043,-9.079,-6.182,-51.699
14:11:43:169,26.070,-0.353,-0.381,0.036,-8.699,-6.779,-51.527
14:11:43:193,26.094,-0.396,-0.270,0.024,-8.322,-7.167,-50.691
14:11:43:219,26.120,-0.436,-0.166,0.004,-7.645,-7.798,-48.274
14:11:43:246,26.147,-0.443,0.011,-0.013,-6.906,-8.396,-44.463
14:11:43:273,26.174,-0.488,0.225,-0.030,-6.497,-8.742,-41.173
14:11:43:298,26.199,-0.530,0.502,0.017,-6.010,-8.963,-35.345
14:11:43:324,26.225,-0.382,0.552,0.050,-5.605,-8.713,-31.054
14:11:43:349,26.250,-0.097,0.281,-0.047,-4.880,-7.811,-24.558
14:11:43:376,26.277,0.225,-0.054,-0.269,-4.345,-7.149,-20.604
14:11:43:402,26.303,0.249,-0.128,-0.270,-3.669,-6.660,-16.007
14:11:43:43,26.331,0.162,-0.039,-0.054,-3.279,-6.783,-12.927
14:11:43:456,26.357,0.117,0.146,0.033,-3.078,-6.594,-11.545
14:11:43:482,26.383,0.127,0.203,0.067,-2.867,-4.946,-10.158
14:11:43:507,26.408,0.141,0.108,0.054,-2.810,-3.118,-9.603
14:11:43:533,26.434,0.213,0.004,0.035,-2.629,0.935,-9.289
14:11:43:561,26.462,0.271,-0.093,-0.002,-2.307,5.745,-9.481
14:11:43:586,26.487,0.281,-0.104,-0.026,-2.039,8.692,-9.806
14:11:43:613,26.514,0.246,-0.093,-0.017,-1.645,12.863,-10.418
14:11:43:639,26.540,0.227,-0.106,-0.012,-1.358,14.765,-10.823
14:11:43:664,26.565,0.205,-0.110,-0.028,-0.892,16.928,-11.263
14:11:43:691,26.592,0.168,-0.063,-0.048,-0.364,18.284,-11.425
14:11:43:719,26.620,0.163,-0.064,-0.071,0.040,19.071,-11.400
14:11:43:773,26.674,0.178,-0.099,-0.149,0.793,19.887,-11.169
14:11:43:773,26.674,0.184,-0.089,-0.225,1.338,20.331,-10.913
14:11:43:796,26.697,0.183,-0.066,-0.282,2.087,19.954,-10.439
14:11:43:822,26.723,0.200,-0.014,-0.296,2.658,18.859,-9.873
14:11:43:849,26.750,0.204,0.035,-0.281,2.908,17.845,-9.413
14:11:43:875,26.776,0.217,0.138,-0.284,3.083,16.540,-8.528
14:11:43:901,26.802,0.267,0.251,-0.307,3.072,15.705,-7.825
14:11:43:929,26.830,0.291,0.291,-0.312,2.847,14.604,-6.725
14:11:43:953,26.854,0.336,0.182,-0.255,2.336,13.273,-5.868
14:11:43:981,26.882,0.326,0.095,-0.196,1.881,12.110,-5.671
14:11:44:007,26.908,0.283,0.193,-0.158,1.135,10.045,-6.240
14:11:44:032,26.933,0.203,0.234,-0.085,0.586,8.457,-7.247
14:11:44:058,26.959,0.144,0.200,-0.042,-0.342,6.297,-9.639
14:11:44:087,26.988,0.064,0.103,0.009,-1.336,4.621,-12.978
14:11:44:088,26.989,0.001,0.089,0.030,-2.040,3.646,-15.616
14:11:44:112,27.013,-0.057,0.073,0.077,-3.190,2.394,-19.921
14:11:44:137,27.038,-0.094,0.048,0.094,-4.009,1.871,-22.889
14:11:44:163,27.064,-0.179,0.003,0.142,-5.293,1.682,-27.320
14:11:44:216,27.117,-0.245,-0.021,0.162,-6.103,1.925,-30.224
14:11:44:246,27.147,-0.314,-0.058,0.219,-7.184,2.676,-34.361
14:11:44:246,27.147,-0.333,-0.125,0.228,-8.037,3.496,-38.088
14:11:44:299,27.200,-0.329,-0.186,0.224,-8.487,3.974,-40.285
14:11:44:299,27.200,-0.340,-0.238,0.198,-9.060,4.367,-43.162
14:11:44:321,27.222,-0.339,-0.253,0.171,-9.386,4.407,-44.772
14:11:44:347,27.248,-0.359,-0.291,0.156,-10.006,4.013,-46.662
14:11:44:373,27.274,-0.383,-0.279,0.158,-10.668,3.254,-47.853
14:11:44:4,27.301,-0.397,-0.252,0.134,-10.330,2.421,-47.319
14:11:44:428,27.329,-0.419,-0.205,0.107,-10.458,1.619,-47.150
14:11:44:454,27.355,-0.425,-0.182,0.093,-10.331,0.983,-46.420
14:11:44:48,27.381,-0.426,-0.115,0.094,-9.769,0.329,-44.587
14:11:44:505,27.406,-0.468,0.092,0.064,-9.142,-0.011,-42.812
14:11:44:53,27.431,-0.461,0.217,0.065,-8.091,-0.236,-39.229
14:11:44:646,27.547,-0.334,0.217,0.039,-7.018,-0.070,-34.726
14:11:44:646,27.547,-0.202,0.088,-0.030,-6.237,0.309,-31.543
14:11:44:646,27.547,-0.057,0.036,-0.173,-5.090,1.051,-27.044
14:11:44:647,27.548,-0.026,0.064,-0.182,-4.511,1.439,-24.448
14:11:44:662,27.563,-0.047,0.113,-0.111,-3.961,1.935,-21.305
14:11:44:718,27.619,-0.105,0.099,-0.029,-3.517,3.081,-19.037
14:11:44:718,27.619,-0.065,0.082,-0.007,-3.161,4.766,-17.917
14:11:44:743,27.644,-0.028,0.055,-0.085,-2.514,8.837,-16.710
14:11:44:794,27.695,0.213,0.115,-0.108,-2.029,12.645,-16.280
14:11:44:824,27.725,0.191,0.060,-0.134,-1.530,17.609,-15.708
14:11:44:824,27.725,0.157,-0.098,-0.102,-1.358,21.615,-15.133
14:11:44:905,27.806,0.140,-0.183,-0.046,-1.286,23.692,-14.817
14:11:44:906,27.807,0.182,-0.198,-0.024,-1.072,26.462,-14.324
14:11:44:906,27.808,0.174,-0.125,-0.042,-0.891,27.868,-13.901
14:11:44:925,27.826,0.149,-0.066,0.009,-0.610,29.787,-13.125
14:11:44:951,27.852,0.155,-0.085,0.005,-0.373,31.155,-12.497
14:11:45:006,27.907,0.178,-0.062,-0.048,0.139,33.433,-11.416
14:11:45:007,27.908,0.173,0.037,-0.083,0.758,35.729,-10.229
14:11:45:059,27.960,0.179,0.048,-0.084,1.204,37.099,-9.465
14:11:45:059,27.960,0.126,0.032,-0.161,1.942,39.093,-8.441
14:11:45:082,27.983,0.151,0.042,-0.278,2.550,40.152,-7.839
14:11:45:109,28.010,0.116,0.106,-0.343,3.565,41.501,-7.081
14:11:45:164,28.065,0.135,0.220,-0.448,4.511,42.220,-6.295
14:11:45:164,28.065,0.139,0.331,-0.549,4.946,42.233,-5.662
14:11:45:187,28.088,0.168,0.048,-0.508,5.135,41.481,-4.595
14:11:45:242,28.143,0.136,-0.098,-0.406,5.047,40.699,-4.085
14:11:45:243,28.144,0.085,-0.159,-0.375,4.877,40.133,-4.029
14:11:45:267,28.168,0.087,0.009,-0.392,4.756,40.055,-4.505
14:11:45:294,28.195,0.110,0.113,-0.377,4.422,40.134,-5.940
14:11:45:32,28.221,0.103,0.190,-0.328,3.820,40.347,-8.076
14:11:45:346,28.247,0.035,0.168,-0.232,3.310,40.249,-9.851
14:11:45:372,28.273,-0.058,0.132,-0.151,2.421,39.542,-12.949
14:11:45:397,28.298,-0.040,0.103,-0.085,1.805,39.183,-15.302
14:11:45:424,28.325,-0.078,0.098,-0.009,1.010,39.146,-19.256
14:11:45:479,28.380,-0.088,0.130,0.078,0.326,39.439,-23.459
14:11:45:479,28.380,-0.123,0.131,0.136,-0.170,39.570,-26.270
14:11:45:502,28.403,-0.136,0.085,0.214,-1.094,39.665,-30.192
14:11:45:557,28.458,-0.147,-0.059,0.259,-1.784,39.807,-32.558
14:11:45:558,28.459,-0.168,-0.141,0.267,-2.746,40.224,-35.758
14:11:45:581,28.482,-0.166,-0.220,0.264,-3.371,40.938,-38.676
14:11:45:607,28.508,-0.176,-0.250,0.272,-3.645,41.449,-40.493
14:11:45:633,28.534,-0.175,-0.261,0.303,-3.864,42.242,-42.932
14:11:45:66,28.561,-0.193,-0.275,0.324,-3.937,42.646,-44.256
14:11:45:688,28.589,-0.185,-0.253,0.294,-2.748,43.222,-43.262
14:11:45:712,28.613,-0.197,-0.235,0.243,-1.970,43.723,-42.197
14:11:45:739,28.640,-0.188,-0.205,0.231,-1.504,44.563,-41.829
14:11:45:765,28.666,-0.214,-0.088,0.220,-1.081,45.271,-40.277
14:11:45:791,28.692,-0.237,0.025,0.243,-0.915,45.715,-38.551
14:11:45:817,28.718,-0.279,0.300,0.292,-0.914,46.489,-34.913
14:11:45:845,28.746,-0.232,0.398,0.224,-1.002,47.174,-31.794
14:11:45:872,28.773,-0.166,0.297,0.031,-1.034,48.677,-26.311
14:11:45:897,28.798,-0.114,0.040,-0.302,-1.023,50.405,-20.736
14:11:45:922,28.823,-0.106,-0.086,-0.287,-1.143,51.316,-17.503
14:11:45:948,28.849,-0.004,-0.101,-0.166,-1.605,52.177,-13.583
14:11:45:974,28.875,0.059,0.010,-0.089,-1.984,52.841,-11.540
14:11:46:001,28.902,0.134,0.169,-0.036,-2.646,54.818,-9.231
14:11:46:056,28.957,0.209,0.189,-0.055,-3.441,58.493,-7.779
14:11:46:057,28.958,0.243,0.187,-0.098,-3.941,61.888,-7.331
14:11:46:08,28.981,0.230,0.081,-0.217,-4.495,67.865,-7.300
14:11:46:106,29.007,0.199,-0.108,-0.257,-4.730,71.900,-7.595
14:11:46:134,29.035,0.169,-0.174,-0.272,-4.905,77.236,-8.350
14:11:46:16,29.061,0.159,-0.203,-0.258,-4.912,81.032,-9.113
14:11:46:185,29.086,0.189,-0.170,-0.197,-4.892,82.714,-9.461
14:11:46:211,29.112,0.194,-0.126,-0.153,-4.806,84.532,-9.617
14:11:46:237,29.139,0.175,-0.082,-0.129,-4.663,85.773,-9.452
14:11:46:263,29.164,0.123,-0.079,-0.190,-4.301,88.031,-8.838
14:11:46:29,29.191,0.049,-0.051,-0.255,-3.962,89.640,-8.163
14:11:46:316,29.217,-0.042,-0.033,-0.304,-3.310,91.672,-6.824
14:11:46:342,29.243,-0.149,-0.020,-0.376,-2.546,92.699,-5.172
14:11:46:372,29.273,-0.204,-0.022,-0.416,-2.046,92.669,-3.982
14:11:46:372,29.273,-0.251,-0.048,-0.454,-1.296,92.361,-2.128
14:11:46:396,29.297,-0.281,-0.065,-0.491,-0.791,91.368,-0.888
14:11:46:452,29.353,-0.257,-0.071,-0.516,-0.081,89.694,0.915
14:11:46:452,29.353,-0.241,-0.029,-0.546,0.541,87.881,2.585
14:11:46:504,29.405,-0.229,0.056,-0.591,0.862,86.512,3.627
14:11:46:505,29.406,-0.182,0.160,-0.688,1.062,84.608,5.041
14:11:46:526,29.427,-0.089,0.152,-0.684,0.961,83.035,5.763
14:11:46:552,29.453,-0.036,-0.038,-0.586,0.544,81.028,6.176
14:11:46:578,29.479,-0.012,-0.147,-0.438,-0.054,78.974,5.255
14:11:46:606,29.507,-0.005,-0.078,-0.405,-0.514,77.936,3.783
14:11:46:632,29.533,0.054,0.118,-0.336,-1.338,76.665,0.457
14:11:46:657,29.558,0.112,0.272,-0.294,-1.973,76.261,-2.310
14:11:46:683,29.584,0.161,0.342,-0.181,-2.990,76.078,-6.967
14:11:46:711,29.612,0.165,0.290,-0.074,-3.673,76.183,-10.225
14:11:46:737,29.638,0.153,0.176,0.030,-4.600,76.745,-15.205
14:11:46:792,29.693,0.133,0.121,0.100,-5.347,77.540,-20.196
14:11:46:793,29.694,0.145,0.097,0.158,-5.729,78.046,-23.448
14:11:46:815,29.716,0.146,0.038,0.235,-6.307,78.404,-28.027
14:11:46:844,29.745,0.150,-0.054,0.301,-6.761,78.285,-30.807
14:11:46:867,29.768,0.133,-0.107,0.327,-7.366,77.718,-34.615
14:11:46:893,29.794,0.095,-0.200,0.336,-7.847,77.060,-37.966
14:11:46:973,29.874,0.062,-0.254,0.334,-8.074,76.300,-39.956
14:11:47:078,29.979,0.021,-0.324,0.328,-8.346,75.209,-42.608
14:11:47:113,30.014,-0.023,-0.327,0.341,-8.527,74.074,-44.070
14:11:47:113,30.014,-0.054,-0.325,0.340,-8.867,72.549,-45.524
14:11:47:114,30.015,-0.039,-0.280,0.342,-9.011,71.541,-45.832
14:11:47:115,30.016,-0.041,-0.233,0.350,-8.901,70.188,-45.099
14:11:47:136,30.037,-0.098,-0.148,0.307,-8.302,69.056,-42.830
14:11:47:137,30.038,-0.138,-0.069,0.298,-7.859,68.358,-40.545
14:11:47:137,30.038,-0.131,0.236,0.381,-7.384,67.518,-36.104
14:11:47:156,30.057,-0.094,0.419,0.413,-7.173,67.292,-32.439
14:11:47:183,30.085,0.029,0.436,0.285,-6.758,67.992,-26.068
14:11:47:21,30.111,-0.072,0.065,-0.048,-6.160,70.179,-19.578
14:11:47:237,30.138,-0.218,-0.026,-0.286,-5.711,72.137,-15.832
14:11:47:263,30.164,-0.142,-0.030,-0.306,-5.407,74.607,-11.606
14:11:47:288,30.189,0.056,0.172,-0.183,-5.470,75.602,-9.558
14:11:47:313,30.214,0.131,0.233,-0.114,-5.773,77.202,-7.563
14:11:47:339,30.240,0.154,0.144,-0.157,-6.171,80.040,-6.597
14:11:47:366,30.267,0.132,0.057,-0.161,-6.371,82.534,-6.437
14:11:47:392,30.293,0.119,-0.070,-0.291,-6.478,87.013,-6.708
14:11:47:418,30.319,0.090,-0.089,-0.317,-6.430,90.046,-7.063
14:11:47:445,30.346,0.072,-0.098,-0.327,-6.299,94.112,-7.572
14:11:47:471,30.372,0.060,-0.153,-0.306,-6.188,96.321,-7.758
14:11:47:497,30.398,0.033,-0.170,-0.313,-5.964,98.701,-7.544
14:11:47:523,30.424,0.006,-0.143,-0.280,-5.718,100.172,-6.799
14:11:47:549,30.450,0.019,-0.130,-0.270,-5.529,101.008,-6.136
14:11:47:576,30.477,-0.094,-0.118,-0.312,-5.103,102.020,-4.994
14:11:47:604,30.505,-0.214,-0.075,-0.351,-4.738,102.367,-4.171
14:11:47:63,30.531,-0.259,-0.059,-0.353,-4.193,102.195,-2.995
14:11:47:656,30.557,-0.238,-0.032,-0.349,-3.705,101.282,-2.016
14:11:47:681,30.582,-0.221,-0.032,-0.353,-3.418,100.562,-1.443
14:11:47:707,30.608,-0.236,-0.039,-0.390,-3.055,99.713,-0.541
14:11:47:733,30.634,-0.229,-0.028,-0.421,-3.426,99.337,-1.337
14:11:47:76,30.661,-0.224,0.027,-0.450,-3.320,98.570,-0.347
14:11:47:787,30.688,-0.211,0.216,-0.540,-3.397,97.899,0.362
14:11:47:813,30.714,-0.135,0.274,-0.553,-3.821,96.669,1.428
14:11:47:839,30.740,-0.008,0.091,-0.486,-4.607,95.484,2.044
14:11:47:866,30.767,0.019,-0.037,-0.389,-5.189,94.881,1.906
14:11:47:891,30.792,0.013,-0.010,-0.384,-5.907,94.358,0.473
14:11:47:917,30.818,0.029,0.054,-0.371,-6.267,94.028,-1.222
14:11:47:944,30.845,0.137,0.213,-0.282,-6.735,93.397,-4.702
14:11:47:97,30.871,0.184,0.202,-0.153,-7.200,92.530,-8.953
14:11:47:997,30.898,0.204,0.177,-0.053,-7.517,92.018,-12.049
14:11:48:023,30.924,0.186,0.141,0.017,-7.947,91.539,-16.971
14:11:48:048,30.949,0.221,0.109,0.120,-8.185,91.565,-20.380
14:11:48:074,30.975,0.228,0.035,0.181,-8.406,91.744,-25.555
14:11:48:103,31.004,0.225,-0.029,0.228,-8.471,91.874,-30.429
14:11:48:127,31.028,0.180,-0.096,0.246,-8.546,91.562,-33.383
14:11:48:154,31.055,0.150,-0.192,0.272,-8.850,90.609,-37.243
14:11:48:182,31.083,0.133,-0.240,0.276,-9.107,89.513,-39.447
14:11:48:208,31.109,0.096,-0.306,0.284,-9.506,87.926,-42.145
14:11:48:233,31.134,0.066,-0.303,0.303,-9.765,86.353,-43.496
14:11:48:259,31.160,0.047,-0.276,0.338,-10.177,84.506,-44.702
14:11:48:285,31.186,0.025,-0.229,0.383,-10.795,82.399,-44.607
14:11:48:34,31.241,0.039,-0.142,0.422,-11.058,81.157,-43.832
14:11:48:366,31.267,0.018,-0.065,0.424,-10.917,79.563,-41.466
14:11:48:368,31.269,-0.020,0.137,0.420,-10.484,78.920,-39.212
14:11:48:39,31.291,-0.027,0.328,0.404,-9.734,78.331,-34.798
14:11:48:416,31.317,0.000,0.295,0.244,-9.107,78.256,-29.399
14:11:48:442,31.343,-0.024,0.131,0.105,-8.692,78.560,-25.683
14:11:48:469,31.370,-0.144,-0.101,-0.086,-7.966,79.505,-20.646
14:11:48:496,31.398,-0.086,-0.082,-0.126,-7.539,80.305,-17.930
14:11:48:523,31.424,0.013,0.015,-0.097,-7.223,81.020,-14.700
14:11:48:548,31.449,0.175,0.178,0.000,-7.109,82.298,-12.404
14:11:48:576,31.477,0.193,0.201,-0.040,-7.022,84.057,-11.334
14:11:48:577,31.478,0.143,0.097,-0.128,-6.705,88.020,-10.393
14:11:48:599,31.500,0.082,-0.010,-0.222,-6.396,91.107,-10.047
14:11:48:626,31.527,0.070,-0.067,-0.285,-5.872,95.608,-9.835
14:11:48:653,31.554,0.049,-0.092,-0.293,-5.511,98.164,-9.764
14:11:48:71,31.611,0.030,-0.124,-0.293,-4.972,100.903,-9.436
14:11:48:71,31.611,0.005,-0.148,-0.302,-4.487,102.442,-8.608
14:11:48:76,31.661,-0.021,-0.123,-0.313,-4.195,103.044,-7.736
14:11:48:761,31.662,-0.071,-0.076,-0.296,-3.798,103.612,-6.110
14:11:48:785,31.686,-0.142,-0.069,-0.330,-3.524,103.870,-4.956
14:11:48:81,31.711,-0.183,-0.062,-0.338,-3.047,104.083,-3.337
14:11:48:842,31.743,-0.226,-0.009,-0.387,-2.517,104.103,-1.955
14:11:48:891,31.792,-0.241,0.018,-0.420,-2.162,103.938,-1.131
14:11:48:892,31.793,-0.235,0.056,-0.447,-1.693,103.344,0.024
14:11:48:915,31.816,-0.239,0.046,-0.464,-1.464,102.849,0.741
14:11:48:941,31.842,-0.257,0.085,-0.493,-1.251,102.151,1.625
14:11:48:967,31.868,-0.278,0.125,-0.537,-1.183,101.690,2.012
14:11:48:994,31.895,-0.239,0.205,-0.601,-1.218,100.472,2.196
14:11:49:021,31.922,-0.109,0.077,-0.494,-1.502,98.462,1.712
14:11:49:047,31.948,-0.054,0.113,-0.420,-1.824,96.953,0.836
14:11:49:074,31.975,-0.010,0.192,-0.341,-2.486,94.880,-1.360
14:11:49:099,32.000,0.048,0.229,-0.276,-3.043,93.872,-3.367
14:11:49:155,32.056,0.079,0.188,-0.191,-3.986,92.634,-7.020
14:11:49:156,32.057,0.113,0.134,-0.068,-4.949,91.650,-11.267
14:11:49:177,32.078,0.136,0.081,-0.076,-5.554,91.304,-14.405
14:11:49:203,32.104,0.150,0.050,0.035,-6.443,90.926,-19.347
14:11:49:231,32.132,0.193,0.045,0.128,-7.070,90.734,-22.708
14:11:49:257,32.158,0.218,-0.018,0.204,-8.184,90.284,-27.654
14:11:49:31,32.211,0.242,-0.089,0.248,-9.387,89.837,-32.221
14:11:49:338,32.239,0.241,-0.132,0.272,-10.223,89.574,-34.968
14:11:49:338,32.239,0.227,-0.238,0.287,-11.524,89.090,-38.538
14:11:49:361,32.262,0.186,-0.287,0.307,-12.336,88.794,-40.523
14:11:49:387,32.288,0.185,-0.302,0.349,-13.442,88.294,-42.883
14:11:49:414,32.315,0.213,-0.249,0.418,-14.045,87.996,-44.054
14:11:49:442,32.343,0.228,-0.223,0.462,-14.667,87.390,-45.002
14:11:49:468,32.369,0.154,-0.102,0.504,-14.748,87.100,-44.805
14:11:49:494,32.395,0.156,-0.063,0.507,-14.534,86.930,-44.011
14:11:49:519,32.420,0.179,0.081,0.561,-13.864,86.763,-41.941
14:11:49:545,32.446,0.158,0.030,0.393,-13.220,86.716,-39.925
14:11:49:572,32.473,0.082,-0.034,0.265,-11.811,86.954,-36.277
14:11:49:597,32.498,-0.017,-0.032,0.172,-10.372,87.033,-32.443
14:11:49:624,32.525,-0.020,0.019,0.166,-9.653,86.794,-30.019
14:11:49:708,32.609,0.060,0.093,0.164,-8.849,86.333,-26.616
14:11:49:709,32.610,0.116,0.106,0.205,-8.298,86.346,-24.504
14:11:49:71,32.611,0.112,0.096,0.096,-7.189,87.452,-21.537
14:11:49:728,32.629,0.040,0.063,-0.033,-6.321,89.012,-19.622
14:11:49:757,32.658,-0.025,0.059,-0.137,-5.076,91.522,-16.710
14:11:49:784,32.685,-0.092,0.074,-0.177,-4.177,93.851,-13.661
14:11:49:807,32.708,-0.101,0.045,-0.168,-3.773,95.322,-11.634
14:11:49:836,32.737,-0.133,0.013,-0.361,-3.435,97.590,-8.678
14:11:49:863,32.764,-0.134,0.004,-0.338,-3.365,98.363,-6.742
14:11:49:886,32.787,-0.148,-0.017,-0.379,-3.374,99.427,-4.041
14:11:49:913,32.814,-0.186,-0.095,-0.424,-3.480,100.379,-1.581
14:11:49:94,32.841,-0.198,-0.120,-0.444,-3.604,100.957,-0.165
14:11:49:965,32.866,-0.159,-0.087,-0.481,-3.881,101.739,1.506
14:11:49:991,32.892,-0.128,-0.021,-0.524,-4.107,102.609,2.339
14:11:50:018,32.919,-0.116,0.010,-0.552,-4.492,103.344,3.215
14:11:50:044,32.945,-0.085,0.013,-0.568,-4.887,104.296,3.621
14:11:50:072,32.973,-0.102,0.056,-0.573,-5.104,104.900,3.589
14:11:50:097,32.998,-0.095,0.097,-0.602,-5.292,105.610,3.070
14:11:50:153,33.054,-0.036,0.017,-0.514,-5.089,104.984,0.894
14:11:50:263,33.164,-0.024,0.025,-0.448,-4.869,103.996,-0.470
14:11:50:264,33.165,0.012,0.103,-0.379,-4.507,102.224,-3.089
14:11:50:265,33.166,0.036,0.198,-0.314,-4.249,100.106,-6.332
14:11:50:265,33.166,0.091,0.244,-0.229,-4.202,98.405,-8.683
14:11:50:309,33.210,0.121,0.231,-0.093,-4.504,95.388,-12.499
14:11:50:335,33.236,0.134,0.122,0.031,-4.896,93.422,-15.190
14:11:50:336,33.237,0.133,0.081,0.096,-5.626,91.167,-19.536
14:11:50:386,33.287,0.150,0.043,0.174,-6.351,89.868,-24.166
14:11:50:5,33.401,0.163,0.027,0.216,-6.832,89.437,-27.285
14:11:50:5,33.401,0.189,-0.034,0.291,-7.579,88.927,-31.758
14:11:50:501,33.402,0.180,-0.105,0.312,-8.142,88.676,-34.499
14:11:50:502,33.403,0.163,-0.196,0.317,-8.929,88.386,-38.114
14:11:50:519,33.420,0.140,-0.243,0.325,-9.332,88.291,-40.185
14:11:50:52,33.421,0.137,-0.270,0.323,-9.781,88.146,-42.691
14:11:50:542,33.443,0.138,-0.276,0.354,-10.131,87.856,-44.287
14:11:50:599,33.500,0.131,-0.253,0.346,-9.688,87.566,-43.970
14:11:50:6,33.501,0.109,-0.191,0.341,-9.052,87.141,-42.918
14:11:50:623,33.524,0.079,-0.063,0.388,-8.869,86.979,-42.069
14:11:50:651,33.552,0.079,0.041,0.408,-8.569,86.480,-39.876
14:11:50:7,33.601,0.129,0.198,0.433,-8.268,86.332,-36.625
14:11:50:764,33.665,0.123,0.170,0.342,-7.955,86.426,-33.900
14:11:50:764,33.665,0.032,0.024,0.170,-7.176,86.994,-29.436
14:11:50:764,33.665,-0.059,-0.046,0.032,-6.520,87.536,-26.577
14:11:50:764,33.665,-0.059,-0.010,-0.008,-5.658,88.273,-22.749
14:11:50:779,33.680,0.022,0.100,-0.013,-5.110,88.716,-19.334
14:11:50:835,33.736,0.042,0.158,-0.002,-4.893,89.077,-17.219
14:11:50:835,33.736,0.054,0.203,-0.031,-4.592,90.444,-14.304
14:11:50:918,33.819,0.025,0.172,-0.116,-4.356,92.112,-12.531
14:11:50:918,33.819,-0.028,0.044,-0.219,-3.976,95.276,-10.190
14:11:50:918,33.819,-0.102,0.010,-0.335,-3.753,97.669,-8.838
14:11:50:966,33.867,-0.094,-0.013,-0.360,-3.599,100.658,-7.018
14:11:50:967,33.868,-0.073,-0.045,-0.368,-3.635,102.435,-5.262
14:11:51:017,33.918,-0.069,-0.062,-0.361,-3.708,103.208,-4.091
14:11:51:018,33.919,-0.088,-0.100,-0.366,-3.886,104.449,-2.389
14:11:51:068,33.969,-0.116,-0.122,-0.430,-4.045,105.548,-1.342
14:11:51:094,33.995,-0.154,-0.159,-0.438,-4.301,107.213,0.080
14:11:51:125,34.026,-0.167,-0.192,-0.437,-4.555,108.654,1.150
14:11:51:125,34.026,-0.179,-0.186,-0.439,-4.666,109.500,1.589
14:11:51:177,34.078,-0.180,-0.115,-0.440,-4.763,110.701,1.781
14:11:51:177,34.078,-0.167,-0.039,-0.433,-4.784,111.468,1.611
14:11:51:198,34.099,-0.150,0.004,-0.417,-4.807,112.834,0.956
14:11:51:225,34.126,-0.157,0.007,-0.414,-4.761,113.857,0.263
14:11:51:278,34.179,-0.166,0.157,-0.417,-4.482,115.278,-1.044
14:11:51:392,34.293,-0.180,0.426,-0.473,-4.046,116.058,-2.400
14:11:51:393,34.294,-0.075,0.257,-0.338,-3.816,116.055,-3.223
14:11:51:394,34.295,-0.098,0.015,-0.261,-3.446,115.740,-4.669
14:11:51:395,34.296,-0.152,-0.023,-0.225,-3.050,115.512,-6.083
14:11:51:463,34.364,-0.126,0.018,-0.207,-2.352,114.801,-8.962
14:11:51:524,34.425,0.002,0.117,-0.071,-1.737,113.492,-12.511
14:11:51:524,34.425,0.024,0.149,-0.004,-1.426,112.495,-15.133
14:11:51:525,34.426,0.056,0.174,0.074,-1.108,111.311,-19.141
14:11:51:526,34.427,0.077,0.104,0.118,-1.000,110.703,-21.722
14:11:51:543,34.444,0.063,0.011,0.149,-0.979,110.096,-25.323
14:11:51:543,34.444,0.064,-0.035,0.171,-1.116,109.594,-28.555
14:11:51:566,34.467,0.075,-0.087,0.184,-1.351,109.270,-30.505
14:11:51:619,34.520,0.120,-0.136,0.177,-1.878,108.814,-33.078
14:11:51:677,34.578,0.117,-0.160,0.175,-2.263,108.627,-34.511
14:11:51:677,34.578,0.096,-0.190,0.164,-2.871,108.579,-36.136
14:11:51:678,34.579,0.051,-0.191,0.158,-3.301,108.645,-36.860
14:11:51:811,34.712,0.075,-0.200,0.143,-4.063,109.223,-37.505
14:11:51:812,34.713,0.115,-0.172,0.138,-4.843,110.092,-37.706
14:11:51:813,34.714,0.147,-0.119,0.142,-5.295,110.921,-37.565
14:11:51:814,34.715,0.173,-0.040,0.129,-5.830,112.833,-36.883
14:11:51:832,34.733,0.176,-0.016,0.083,-6.097,114.262,-36.113
14:11:51:832,34.733,0.141,-0.008,0.061,-6.434,116.518,-34.566
14:11:51:913,34.814,0.158,0.023,0.056,-6.878,118.534,-32.707
14:11:51:914,34.815,0.215,0.104,0.061,-7.252,119.780,-31.364
14:11:51:915,34.816,0.396,0.330,0.091,-7.810,121.893,-29.175
14:11:51:989,34.890,0.419,0.341,0.041,-8.071,123.837,-27.539
14:11:51:99,34.891,0.274,0.126,-0.092,-8.085,127.841,-24.986
14:11:52:016,34.917,0.032,-0.021,-0.144,-7.699,132.370,-22.679
14:11:52:068,34.969,-0.021,0.013,-0.181,-7.454,134.878,-21.323
14:11:52:069,34.970,0.049,0.010,-0.180,-7.454,137.907,-19.465
14:11:52:095,34.996,0.136,0.038,-0.178,-7.584,138.850,-18.313
14:11:52:095,34.996,0.131,-0.001,-0.172,-7.630,140.964,-16.887
14:11:52:146,35.047,0.006,-0.063,-0.208,-7.443,142.666,-16.158
14:11:52:147,35.048,-0.052,-0.121,-0.199,-6.978,145.947,-15.267
14:11:52:171,35.072,-0.082,-0.122,-0.206,-6.498,148.705,-14.338
14:11:52:255,35.156,-0.072,-0.102,-0.197,-6.215,150.403,-13.615
14:11:52:256,35.157,-0.100,-0.071,-0.208,-5.763,153.094,-12.367
14:11:52:257,35.158,-0.169,-0.032,-0.224,-5.452,155.074,-11.424
14:11:52:275,35.176,-0.234,-0.028,-0.194,-5.001,157.886,-9.814
14:11:52:301,35.202,-0.298,-0.064,-0.134,-4.582,160.582,-8.050
14:11:52:381,35.282,-0.398,-0.106,-0.042,-3.934,164.155,-5.421
14:11:52:432,35.333,-0.416,-0.057,-0.035,-3.741,165.323,-4.592
14:11:52:474,35.375,-0.443,0.141,-0.033,-3.599,166.960,-3.556
14:11:52:475,35.376,-0.454,0.198,-0.017,-3.586,168.088,-3.030
14:11:52:475,35.376,-0.489,0.158,0.020,-3.600,170.079,-2.481
14:11:52:485,35.386,-0.618,0.268,0.062,-3.541,171.650,-2.237
14:11:52:512,35.413,-0.576,0.320,0.018,-3.525,171.838,-2.141
14:11:52:592,35.493,-0.521,0.213,0.007,-3.668,171.101,-2.155
14:11:52:623,35.524,-0.409,-0.097,0.052,-3.853,170.115,-2.858
14:11:52:623,35.524,-0.422,-0.154,0.058,-3.922,169.409,-3.881
14:11:52:623,35.524,-0.390,-0.095,0.019,-4.101,167.731,-6.159
14:11:52:671,35.572,-0.238,-0.001,-0.022,-4.438,166.276,-8.043
14:11:52:672,35.573,-0.051,0.101,-0.090,-5.299,164.481,-11.319
14:11:52:806,35.707,-0.003,0.168,-0.102,-6.042,163.954,-13.680
14:11:52:806,35.707,0.071,0.243,-0.150,-7.306,164.074,-17.326
14:11:52:861,35.762,0.128,0.124,-0.171,-8.542,164.973,-21.087
14:11:52:862,35.763,0.152,0.073,-0.174,-9.244,165.762,-23.655
14:11:52:863,35.764,0.169,0.011,-0.163,-10.179,166.620,-27.484
14:11:52:864,35.765,0.213,-0.042,-0.138,-10.860,166.761,-29.888
14:11:52:91,35.811,0.251,-0.089,-0.109,-12.107,166.481,-33.215
14:11:52:911,35.812,0.288,-0.174,-0.114,-13.487,166.054,-36.190
14:11:52:912,35.813,0.297,-0.223,-0.103,-14.359,165.874,-37.925
14:11:52:932,35.833,0.289,-0.265,-0.084,-15.463,165.721,-40.135
14:11:52:957,35.858,0.302,-0.262,-0.084,-16.074,165.794,-41.319
14:11:52:985,35.887,0.322,-0.256,-0.069,-16.924,165.758,-42.547
14:11:53:204,36.105,0.356,-0.214,-0.093,-16.959,165.647,-42.309
14:11:53:204,36.105,0.360,-0.167,-0.092,-17.108,165.813,-42.103
14:11:53:205,36.106,0.369,-0.107,-0.086,-16.967,166.285,-41.089
14:11:53:205,36.106,0.401,0.000,-0.109,-16.766,166.656,-40.003
14:11:53:232,36.133,0.485,0.191,-0.164,-16.459,167.615,-37.738
14:11:53:232,36.133,0.574,0.304,-0.227,-16.167,168.296,-35.822
14:11:53:232,36.133,0.370,0.144,-0.242,-15.090,170.370,-32.506
14:11:53:233,36.134,0.085,-0.099,-0.086,-13.341,173.478,-29.224
14:11:53:285,36.186,-0.046,-0.122,0.003,-12.204,175.526,-27.262
14:11:53:286,36.187,-0.060,-0.071,-0.092,-11.116,177.690,-24.669
14:11:53:287,36.188,0.062,0.051,-0.184,-10.796,178.485,-23.008
14:11:53:355,36.256,0.023,0.093,-0.267,-10.072,-177.037,-18.596
14:11:53:355,36.256,-0.072,0.083,-0.238,-9.594,-173.791,-17.474
14:11:53:378,36.279,-0.250,0.072,-0.164,-8.777,-168.234,-15.874
14:11:53:407,36.308,-0.312,0.054,-0.089,-8.359,-164.631,-14.696
14:11:53:408,36.309,-0.354,-0.006,0.002,-8.019,-160.889,-12.699
14:11:53:459,36.360,-0.355,-0.042,0.057,-7.904,-159.043,-11.225
14:11:53:46,36.361,-0.385,-0.062,0.096,-7.736,-157.927,-8.934
14:11:53:511,36.412,-0.371,-0.077,0.145,-7.511,-157.484,-6.760
14:11:53:512,36.413,-0.392,-0.080,0.155,-7.342,-157.387,-5.496
14:11:53:536,36.437,-0.404,-0.072,0.207,-7.043,-157.131,-3.961
14:11:53:592,36.493,-0.422,-0.053,0.267,-6.814,-157.028,-3.239
14:11:53:593,36.494,-0.423,-0.040,0.282,-6.456,-156.841,-2.657
14:11:53:673,36.574,-0.447,-0.016,0.299,-6.084,-156.982,-2.564
14:11:53:673,36.574,-0.429,0.021,0.280,-5.862,-157.042,-2.694
14:11:53:673,36.574,-0.399,0.045,0.233,-5.625,-158.000,-3.168
14:11:53:693,36.594,-0.387,0.043,0.189,-5.509,-158.704,-3.686
14:11:53:772,36.673,-0.395,0.116,0.173,-5.353,-159.906,-4.722
14:11:53:852,36.753,-0.407,0.351,0.086,-5.263,-161.554,-5.962
14:11:53:883,36.784,-0.373,0.435,0.026,-5.339,-163.051,-6.814
14:11:53:884,36.785,-0.259,0.221,-0.061,-5.724,-165.616,-8.174
14:11:53:885,36.786,-0.203,0.121,-0.066,-6.067,-167.160,-9.383
14:11:53:906,36.807,-0.144,0.081,-0.091,-6.605,-169.149,-11.915
14:11:53:907,36.808,-0.081,0.070,-0.171,-6.996,-170.250,-14.141
14:11:53:932,36.833,0.016,0.110,-0.250,-7.581,-171.693,-18.144
14:11:53:932,36.833,0.098,0.211,-0.256,-8.249,-173.193,-22.486
14:11:53:955,36.856,0.213,0.181,-0.300,-8.911,-174.323,-25.350
14:11:53:981,36.882,0.270,0.021,-0.279,-10.159,-175.712,-29.497
14:11:54:007,36.908,0.305,-0.084,-0.285,-10.971,-176.304,-32.182
14:11:54:033,36.934,0.283,-0.124,-0.271,-11.915,-176.707,-36.070
14:11:54:06,36.961,0.293,-0.139,-0.216,-12.722,-177.075,-39.670
14:11:54:086,36.987,0.306,-0.153,-0.212,-13.228,-177.228,-41.830
14:11:54:114,37.015,0.297,-0.191,-0.197,-13.759,-177.539,-44.747
14:11:54:14,37.041,0.273,-0.191,-0.142,-13.929,-177.537,-46.326
14:11:54:165,37.066,0.240,-0.223,-0.121,-14.555,-178.005,-48.256
14:11:54:191,37.092,0.283,-0.281,-0.130,-15.373,-178.546,-49.257
14:11:54:217,37.118,0.335,-0.301,-0.137,-16.632,-179.317,-50.307
14:11:54:243,37.144,0.356,-0.258,-0.148,-17.122,-179.333,-50.642
14:11:54:27,37.171,0.364,-0.206,-0.164,-16.984,-179.118,-50.375
14:11:54:296,37.197,0.393,-0.100,-0.199,-16.911,-178.445,-49.063
14:11:54:383,37.284,0.478,-0.057,-0.268,-16.984,-178.262,-47.579
14:11:54:383,37.284,0.523,0.038,-0.338,-16.413,-177.440,-44.562
14:11:54:404,37.305,0.468,0.132,-0.397,-14.583,-175.318,-40.710
14:11:54:405,37.306,0.319,0.054,-0.400,-12.836,-173.098,-37.836
14:11:54:429,37.330,0.119,-0.070,-0.281,-9.932,-168.983,-33.463
14:11:54:482,37.383,0.018,-0.065,-0.104,-8.227,-166.372,-30.622
14:11:54:483,37.384,-0.015,0.084,-0.115,-6.473,-163.479,-26.517
14:11:54:536,37.437,0.028,0.244,-0.220,-5.650,-161.866,-22.397
14:11:54:536,37.437,0.083,0.253,-0.288,-5.287,-160.865,-19.617
14:11:54:559,37.460,-0.067,0.276,-0.126,-4.593,-157.704,-15.443
14:11:54:586,37.487,-0.183,0.280,-0.048,-4.164,-153.928,-12.892
14:11:54:64,37.541,-0.331,0.112,0.102,-4.162,-149.111,-8.757
14:11:54:641,37.542,-0.365,0.043,0.208,-4.453,-147.076,-5.966
14:11:54:663,37.564,-0.437,0.004,0.293,-5.045,-145.440,-1.806
14:11:54:69,37.591,-0.452,-0.031,0.300,-5.689,-145.024,2.058
14:11:54:716,37.617,-0.493,-0.035,0.316,-6.083,-144.912,4.348
14:11:54:744,37.645,-0.544,-0.105,0.385,-6.697,-144.412,7.203
14:11:54:799,37.700,-0.577,-0.186,0.407,-7.122,-143.988,8.687
14:11:54:8,37.701,-0.578,-0.242,0.450,-7.679,-143.188,10.112
14:11:54:821,37.722,-0.615,-0.246,0.477,-7.984,-142.807,10.546
14:11:54:847,37.748,-0.623,-0.197,0.455,-8.000,-143.020,10.342
14:11:54:903,37.804,-0.590,-0.089,0.339,-7.857,-143.775,9.341
14:11:54:904,37.805,-0.580,-0.020,0.308,-7.701,-144.230,8.164
14:11:54:927,37.828,-0.615,0.277,0.303,-7.378,-144.914,5.658
14:11:54:983,37.884,-0.584,0.324,0.221,-7.161,-145.598,3.604
14:11:54:984,37.885,-0.417,0.180,0.083,-6.881,-147.022,-0.002
14:11:55:005,37.906,-0.287,0.195,0.042,-6.647,-148.582,-4.503
14:11:55:06,37.961,-0.161,0.278,-0.071,-6.563,-149.560,-8.090
14:11:55:061,37.962,-0.079,0.344,-0.153,-6.489,-150.996,-14.262
14:11:55:086,37.987,0.074,0.408,-0.255,-6.663,-152.762,-20.957
14:11:55:169,38.070,0.202,0.357,-0.323,-7.106,-154.102,-25.468
14:11:55:169,38.070,0.312,0.170,-0.348,-8.241,-155.851,-32.088
14:11:55:17,38.071,0.371,0.079,-0.355,-9.224,-156.750,-36.239
14:11:55:193,38.094,0.419,-0.034,-0.364,-10.975,-157.635,-41.949
14:11:55:216,38.117,0.400,-0.195,-0.383,-12.313,-157.986,-45.321
14:11:55:27,38.171,0.393,-0.276,-0.353,-14.452,-158.363,-49.565
14:11:55:271,38.172,0.360,-0.363,-0.299,-16.635,-158.712,-52.804
14:11:55:294,38.195,0.345,-0.425,-0.246,-18.056,-159.001,-54.447
14:11:55:321,38.222,0.343,-0.461,-0.232,-20.044,-159.549,-56.197
14:11:55:346,38.247,0.344,-0.466,-0.229,-21.206,-159.981,-56.881
14:11:55:375,38.276,0.383,-0.419,-0.272,-22.660,-160.677,-57.090
14:11:55:376,38.277,0.391,-0.361,-0.319,-23.367,-161.163,-56.221
14:11:55:428,38.329,0.391,-0.305,-0.347,-23.162,-161.267,-55.015
14:11:55:429,38.330,0.447,-0.101,-0.369,-21.836,-161.303,-52.192
14:11:55:507,38.408,0.544,0.186,-0.528,-20.559,-161.022,-49.606
14:11:55:508,38.409,0.465,0.238,-0.532,-18.557,-160.320,-44.579
14:11:55:561,38.462,0.201,0.051,-0.313,-16.358,-159.212,-38.569
14:11:55:562,38.463,0.146,-0.055,-0.116,-14.885,-158.356,-34.566
14:11:55:615,38.516,0.084,0.027,-0.049,-12.988,-157.296,-29.035
14:11:55:616,38.517,0.006,0.117,-0.131,-12.085,-156.952,-25.708
14:11:55:616,38.517,0.029,0.224,-0.294,-11.123,-156.123,-21.255
14:11:55:664,38.565,-0.017,0.239,-0.273,-10.510,-154.958,-18.698
14:11:55:665,38.566,-0.110,0.222,-0.177,-9.499,-151.534,-15.588
14:11:55:687,38.588,-0.256,0.080,0.015,-8.436,-146.568,-13.192
14:11:55:741,38.642,-0.290,0.019,0.090,-7.821,-143.006,-11.825
14:11:55:769,38.670,-0.305,-0.009,0.133,-7.184,-138.281,-9.965
14:11:55:77,38.671,-0.328,-0.004,0.117,-6.949,-135.718,-8.793
14:11:55:795,38.696,-0.330,0.005,0.152,-6.746,-132.693,-6.975
14:11:55:877,38.778,-0.330,0.003,0.226,-6.603,-130.033,-5.069
14:11:55:878,38.779,-0.322,-0.062,0.285,-6.517,-128.444,-3.760
14:11:55:879,38.780,-0.310,-0.152,0.367,-6.383,-126.029,-1.858
14:11:55:898,38.799,-0.340,-0.088,0.458,-6.229,-124.774,-0.687
14:11:55:982,38.883,-0.328,-0.001,0.540,-5.887,-123.377,0.960
14:11:55:983,38.884,-0.322,-0.023,0.576,-5.596,-123.317,1.974
14:11:55:983,38.884,-0.279,-0.051,0.562,-5.059,-123.472,3.110
14:11:56:034,38.935,-0.276,0.106,0.589,-4.344,-124.555,3.370
14:11:56:035,38.936,-0.323,0.307,0.660,-3.816,-125.025,2.996
14:11:56:056,38.957,-0.315,0.185,0.555,-3.129,-126.966,1.670
14:11:56:083,38.984,-0.191,0.118,0.379,-2.873,-128.443,-0.055
14:11:56:166,39.067,-0.088,0.195,0.264,-2.788,-130.455,-3.929
14:11:56:166,39.067,-0.004,0.378,0.110,-3.040,-131.121,-9.244
14:11:56:167,39.068,0.034,0.404,-0.009,-3.311,-130.909,-13.388
14:11:56:186,39.087,0.103,0.366,-0.140,-3.770,-130.088,-20.142
14:11:56:212,39.113,0.156,0.235,-0.193,-4.060,-129.470,-24.833
14:11:56:269,39.170,0.205,0.129,-0.251,-4.505,-128.455,-31.967
14:11:56:27,39.171,0.241,0.057,-0.347,-5.098,-127.755,-38.699
14:11:56:291,39.192,0.218,-0.041,-0.388,-5.690,-127.367,-42.774
14:11:56:317,39.218,0.201,-0.182,-0.431,-7.007,-126.940,-47.946
14:11:56:345,39.246,0.190,-0.290,-0.409,-8.031,-126.693,-50.748
14:11:56:37,39.271,0.181,-0.417,-0.381,-9.738,-126.425,-54.005
14:11:56:396,39.297,0.177,-0.461,-0.368,-10.960,-126.339,-55.576
14:11:56:422,39.323,0.178,-0.453,-0.349,-12.772,-126.365,-57.056
14:11:56:45,39.351,0.177,-0.458,-0.382,-14.558,-126.554,-57.479
14:11:56:476,39.377,0.168,-0.436,-0.420,-15.484,-126.678,-57.134
14:11:56:501,39.402,0.167,-0.357,-0.483,-16.052,-126.620,-55.617
14:11:56:528,39.429,0.188,-0.217,-0.523,-15.795,-126.362,-53.911
14:11:56:553,39.454,0.175,-0.139,-0.521,-14.819,-125.660,-50.328
14:11:56:58,39.481,0.149,0.039,-0.545,-13.635,-124.632,-45.631
14:11:56:606,39.507,0.141,0.229,-0.597,-12.897,-123.774,-41.925
14:11:56:632,39.533,0.038,0.464,-0.644,-11.955,-122.001,-35.730
14:11:56:686,39.587,-0.100,0.315,-0.184,-10.135,-116.969,-25.317
14:11:56:711,39.612,-0.054,0.233,0.076,-9.204,-113.893,-20.355
14:11:56:738,39.639,-0.065,0.150,0.113,-8.892,-112.568,-17.806
14:11:56:763,39.664,-0.131,0.052,0.044,-8.547,-111.553,-15.157
14:11:56:79,39.691,-0.142,0.027,0.033,-8.234,-110.795,-14.212
14:11:56:817,39.718,-0.161,-0.050,0.044,-7.637,-109.084,-13.671
14:11:56:844,39.745,-0.148,-0.074,0.057,-7.181,-107.461,-13.652
14:11:56:869,39.770,-0.162,-0.056,0.116,-6.474,-104.315,-13.814
14:11:56:895,39.796,-0.137,-0.039,0.144,-5.847,-100.696,-13.809
14:11:56:921,39.822,-0.131,-0.034,0.167,-5.489,-98.123,-13.603
14:11:56:947,39.848,-0.098,-0.090,0.199,-5.091,-94.207,-12.900
14:11:56:975,39.876,-0.066,-0.111,0.274,-4.878,-91.679,-12.169
14:11:57:001,39.902,0.037,-0.093,0.333,-4.540,-88.340,-10.748
14:11:57:028,39.929,0.092,-0.077,0.341,-4.266,-86.263,-9.150
14:11:57:052,39.953,0.123,-0.060,0.368,-4.073,-85.453,-8.110
14:11:57:107,40.008,0.164,-0.006,0.385,-3.774,-85.222,-6.707
14:11:57:108,40.009,0.175,0.034,0.393,-3.599,-85.448,-5.926
14:11:57:133,40.034,0.135,0.048,0.353,-3.415,-86.041,-5.126
14:11:57:158,40.059,0.129,0.029,0.344,-3.259,-86.320,-4.806
14:11:57:214,40.115,0.159,0.130,0.416,-3.156,-86.183,-4.865
14:11:57:214,40.115,0.153,0.313,0.459,-3.074,-86.099,-5.273
14:11:57:236,40.137,0.113,0.300,0.383,-3.182,-86.466,-5.739
14:11:57:291,40.192,0.048,0.161,0.277,-3.576,-87.425,-6.870
14:11:57:292,40.193,0.060,0.136,0.176,-3.971,-88.254,-9.024
14:11:57:315,40.216,0.048,0.171,0.144,-4.162,-88.689,-11.080
14:11:57:341,40.242,0.000,0.236,0.057,-4.460,-89.649,-14.823
14:11:57:367,40.268,-0.070,0.130,-0.033,-4.762,-90.550,-17.616
14:11:57:394,40.295,-0.060,0.070,-0.099,-5.436,-92.086,-22.016
14:11:57:421,40.322,-0.070,-0.037,-0.169,-6.343,-93.637,-26.457
14:11:57:446,40.347,-0.071,-0.058,-0.203,-7.010,-94.475,-29.342
14:11:57:472,40.373,-0.090,-0.092,-0.250,-8.102,-95.431,-33.350
14:11:57:527,40.428,-0.104,-0.148,-0.284,-8.900,-95.894,-35.743
14:11:57:528,40.429,-0.112,-0.213,-0.330,-10.113,-96.394,-38.871
14:11:57:553,40.454,-0.115,-0.255,-0.338,-11.160,-96.714,-41.459
14:11:57:578,40.479,-0.112,-0.289,-0.333,-11.678,-96.867,-42.873
14:11:57:604,40.505,-0.066,-0.304,-0.322,-12.247,-97.432,-44.500
14:11:57:63,40.531,-0.057,-0.284,-0.339,-12.550,-97.811,-45.223
14:11:57:658,40.559,-0.043,-0.227,-0.399,-12.965,-98.702,-45.650
14:11:57:683,40.584,-0.053,-0.113,-0.476,-13.105,-99.191,-45.438
14:11:57:709,40.610,-0.038,-0.019,-0.497,-12.886,-99.897,-44.350
14:11:57:739,40.640,-0.045,0.112,-0.526,-12.322,-100.076,-42.243
14:11:57:739,40.640,-0.040,0.302,-0.594,-11.800,-100.338,-40.257
14:11:57:79,40.691,-0.020,0.366,-0.445,-10.838,-99.790,-36.444
14:11:57:791,40.692,0.067,0.225,-0.227,-10.137,-99.473,-33.540
14:11:57:843,40.744,0.221,-0.010,0.003,-9.392,-99.019,-29.406
14:11:57:844,40.745,0.147,-0.049,-0.061,-9.214,-99.645,-26.314
14:11:57:896,40.797,0.009,-0.020,-0.167,-9.308,-100.084,-25.006
14:11:57:896,40.797,-0.104,-0.018,-0.280,-9.171,-99.982,-24.066
14:11:57:945,40.847,-0.079,-0.023,-0.166,-8.722,-98.484,-23.858
14:11:58:032,40.933,-0.069,-0.055,-0.106,-7.724,-95.195,-23.901
14:11:58:033,40.934,-0.062,-0.075,0.013,-6.919,-92.578,-24.040
14:11:58:034,40.935,-0.031,-0.063,0.020,-5.754,-88.754,-24.193
14:11:58:05,40.951,-0.045,-0.080,0.023,-4.100,-83.212,-23.653
14:11:58:076,40.977,-0.014,-0.071,0.022,-3.298,-80.607,-22.660
14:11:58:102,41.003,-0.024,-0.050,0.038,-2.872,-79.241,-21.768
14:11:58:218,41.119,-0.002,-0.058,0.062,-2.338,-77.686,-20.111
14:11:58:218,41.119,0.084,-0.043,0.100,-1.844,-76.566,-18.166
14:11:58:219,41.120,0.146,-0.013,0.127,-1.555,-76.134,-16.703
14:11:58:219,41.120,0.187,0.036,0.147,-1.297,-75.914,-14.423
14:11:58:234,41.135,0.189,0.082,0.176,-1.230,-75.972,-12.879
14:11:58:26,41.161,0.182,0.142,0.239,-1.274,-76.251,-10.500
14:11:58:286,41.187,0.177,0.161,0.266,-1.401,-76.378,-8.917
14:11:58:314,41.215,0.180,0.302,0.337,-1.684,-76.282,-6.674
14:11:58:339,41.240,0.209,0.275,0.442,-2.161,-76.226,-4.728
14:11:58:365,41.266,0.143,0.012,0.384,-2.571,-76.528,-3.809
14:11:58:393,41.294,0.147,0.018,0.348,-3.055,-77.468,-3.451
14:11:58:448,41.349,0.119,0.049,0.335,-3.253,-78.253,-4.031
14:11:58:448,41.349,0.073,0.062,0.315,-3.482,-79.646,-5.973
14:11:58:56,41.461,0.001,0.072,0.230,-3.781,-81.313,-8.844
14:11:58:56,41.461,-0.038,0.068,0.168,-4.090,-82.520,-11.101
14:11:58:56,41.461,-0.075,0.057,0.074,-4.752,-84.286,-14.737
14:11:58:561,41.462,-0.084,0.068,-0.004,-5.309,-85.178,-17.301
14:11:58:576,41.477,-0.134,0.017,-0.094,-6.176,-85.759,-21.361
14:11:58:688,41.589,-0.156,-0.044,-0.125,-6.920,-85.733,-25.560
14:11:58:689,41.590,-0.174,-0.035,-0.146,-7.355,-85.649,-28.318
14:11:58:69,41.591,-0.199,-0.068,-0.220,-8.131,-85.762,-32.179
14:11:58:691,41.592,-0.198,-0.133,-0.267,-8.753,-86.005,-34.493
14:11:58:706,41.607,-0.175,-0.170,-0.287,-9.765,-86.600,-37.585
14:11:58:734,41.635,-0.162,-0.210,-0.320,-10.749,-87.277,-40.269
14:11:58:788,41.689,-0.172,-0.194,-0.352,-11.393,-87.858,-41.801
14:11:58:788,41.689,-0.162,-0.151,-0.405,-12.333,-88.851,-43.528
14:11:58:812,41.713,-0.160,-0.066,-0.484,-12.910,-89.675,-44.214
14:11:58:837,41.738,-0.126,-0.004,-0.507,-13.609,-90.746,-44.386
14:11:58:863,41.764,-0.101,-0.013,-0.486,-13.948,-91.482,-43.933
14:11:58:919,41.820,-0.089,0.049,-0.505,-14.169,-92.325,-42.564
14:11:58:92,41.821,-0.088,0.084,-0.474,-13.914,-92.861,-40.572
14:11:58:943,41.844,-0.059,0.038,-0.391,-13.514,-92.991,-38.973
14:11:58:97,41.871,0.018,-0.131,-0.227,-12.653,-93.084,-36.550
14:11:58:996,41.897,0.036,-0.107,-0.222,-12.011,-92.981,-35.134
14:11:59:021,41.922,-0.010,-0.047,-0.243,-11.133,-93.028,-33.392
14:11:59:076,41.978,-0.089,0.006,-0.279,-10.587,-92.699,-32.387
14:11:59:077,41.978,-0.106,-0.012,-0.260,-9.655,-91.810,-31.024
14:11:59:102,42.003,-0.078,-0.016,-0.183,-8.469,-90.084,-29.765
14:11:59:157,42.058,-0.075,-0.052,-0.133,-7.525,-88.478,-28.943
14:11:59:157,42.058,-0.063,-0.086,-0.072,-6.023,-85.881,-27.676
14:11:59:179,42.080,-0.017,-0.070,-0.022,-5.062,-84.198,-26.747
14:11:59:205,42.106,-0.006,-0.043,-0.012,-3.869,-82.118,-25.140
14:11:59:231,42.132,-0.020,-0.032,-0.008,-2.986,-80.511,-23.298
14:11:59:257,42.158,-0.008,-0.024,0.001,-2.475,-79.553,-21.923
14:11:59:284,42.185,0.054,0.013,0.050,-1.746,-78.100,-19.665
14:11:59:31,42.211,0.127,0.046,0.095,-1.310,-77.232,-18.046
14:11:59:336,42.237,0.180,0.027,0.133,-0.809,-76.089,-15.552
14:11:59:362,42.263,0.229,0.009,0.166,-0.502,-75.299,-13.139
14:11:59:392,42.293,0.248,0.099,0.208,-0.387,-74.945,-11.628
14:11:59:417,42.318,0.213,0.187,0.221,-0.428,-74.657,-9.540
14:11:59:442,42.343,0.198,0.231,0.263,-0.599,-74.463,-8.227
14:11:59:497,42.398,0.222,0.255,0.311,-1.011,-73.924,-6.351
14:11:59:498,42.399,0.223,0.206,0.400,-1.608,-73.030,-4.780
14:11:59:52,42.421,0.208,0.141,0.429,-2.061,-72.482,-4.057
14:11:59:547,42.448,0.171,-0.045,0.401,-2.678,-72.132,-3.721
14:11:59:574,42.475,0.137,-0.006,0.363,-3.003,-72.462,-4.066
14:11:59:598,42.499,0.120,0.048,0.368,-3.364,-73.695,-5.382
14:11:59:627,42.528,0.016,0.094,0.283,-3.620,-74.918,-6.713
14:11:59:652,42.553,-0.039,0.105,0.220,-4.098,-76.894,-9.234
14:11:59:681,42.582,-0.103,0.127,0.153,-4.726,-78.876,-12.291
14:11:59:762,42.663,-0.119,0.125,0.105,-5.229,-80.141,-14.518
14:11:59:762,42.663,-0.155,0.062,0.006,-6.149,-82.080,-18.029
14:11:59:763,42.664,-0.170,0.003,-0.076,-6.834,-83.213,-20.502
14:11:59:782,42.683,-0.193,-0.012,-0.112,-7.926,-84.565,-24.384
14:11:59:81,42.711,-0.229,-0.043,-0.178,-9.066,-85.599,-28.317
14:11:59:835,42.736,-0.255,-0.062,-0.213,-9.868,-86.187,-30.856
14:11:59:861,42.762,-0.231,-0.113,-0.256,-11.133,-87.056,-34.350
14:11:59:916,42.817,-0.206,-0.175,-0.297,-12.011,-87.571,-36.460
14:11:59:917,42.818,-0.196,-0.195,-0.319,-13.341,-88.587,-39.313
14:11:59:942,42.843,-0.203,-0.154,-0.366,-14.554,-89.388,-41.730
14:11:59:967,42.868,-0.179,-0.120,-0.410,-15.341,-90.027,-42.965
14:12:00:022,42.923,-0.176,-0.083,-0.476,-16.485,-90.997,-44.185
14:12:00:022,42.923,-0.157,-0.071,-0.490,-17.084,-91.763,-44.375
14:12:00:048,42.949,-0.146,-0.025,-0.540,-17.710,-92.546,-44.154
14:12:00:048,42.949,-0.186,0.067,-0.596,-17.577,-93.017,-43.213
14:12:00:1,43.001,-0.171,0.044,-0.523,-17.017,-92.894,-42.209
14:12:00:101,43.002,-0.037,-0.104,-0.317,-15.719,-92.736,-40.411
14:12:00:152,43.053,0.011,-0.117,-0.239,-14.775,-92.547,-39.235
14:12:00:153,43.054,0.007,-0.106,-0.246,-13.604,-92.801,-37.571
14:12:00:205,43.106,-0.024,-0.079,-0.299,-12.976,-92.993,-36.569
14:12:00:234,43.135,-0.076,-0.070,-0.347,-11.984,-93.192,-35.194
14:12:00:235,43.136,-0.091,-0.041,-0.298,-10.568,-92.193,-33.853
14:12:00:284,43.185,-0.064,-0.053,-0.233,-9.422,-91.122,-32.862
14:12:00:285,43.186,-0.014,-0.067,-0.140,-7.578,-89.179,-31.175
14:12:00:308,43.209,0.004,-0.058,-0.081,-6.407,-87.894,-29.885
14:12:00:362,43.263,0.014,-0.032,-0.057,-4.910,-86.185,-27.629
14:12:00:389,43.290,0.019,-0.008,-0.027,-3.753,-84.820,-24.976
14:12:00:39,43.291,0.058,-0.009,-0.004,-3.119,-83.947,-22.999
14:12:00:501,43.402,0.104,0.045,0.075,-2.228,-82.190,-19.843
14:12:00:501,43.402,0.134,0.069,0.165,-1.833,-81.127,-17.641
14:12:00:501,43.402,0.164,0.032,0.185,-1.493,-80.249,-14.314
14:12:00:502,43.403,0.207,0.043,0.250,-1.320,-79.593,-12.194
14:12:00:517,43.418,0.212,0.076,0.281,-1.210,-79.058,-9.270
14:12:00:574,43.475,0.171,0.112,0.318,-1.255,-78.872,-6.757
14:12:00:575,43.476,0.168,0.121,0.353,-1.341,-78.602,-5.313
14:12:00:676,43.577,0.184,0.103,0.408,-1.548,-78.064,-3.542
14:12:00:71,43.611,0.180,0.147,0.480,-1.721,-77.585,-2.661
14:12:00:711,43.612,0.197,0.225,0.536,-1.999,-77.049,-1.832
14:12:00:711,43.612,0.165,0.190,0.566,-2.338,-77.007,-1.628
14:12:00:712,43.613,0.110,-0.003,0.471,-2.558,-77.728,-1.963
14:12:00:728,43.629,0.064,-0.030,0.346,-2.822,-79.026,-3.474
14:12:00:754,43.655,0.039,0.037,0.312,-2.968,-79.919,-5.198
14:12:00:833,43.734,-0.017,0.222,0.206,-3.200,-81.047,-8.652
14:12:00:893,43.794,-0.088,0.240,0.083,-3.489,-81.819,-12.963
14:12:00:894,43.795,-0.110,0.206,0.016,-3.659,-82.172,-16.253
14:12:00:895,43.796,-0.092,0.156,-0.099,-3.849,-82.789,-21.644
14:12:00:896,43.797,-0.091,0.200,-0.243,-4.030,-83.353,-25.418
14:12:00:913,43.814,-0.137,0.146,-0.323,-4.502,-84.095,-31.190
14:12:00:939,43.840,-0.200,-0.001,-0.388,-4.832,-84.347,-34.979
14:12:00:964,43.865,-0.188,-0.097,-0.385,-5.160,-84.551,-40.294
14:12:00:991,43.892,-0.162,-0.169,-0.396,-5.515,-85.014,-44.861
14:12:01:016,43.917,-0.128,-0.231,-0.398,-5.960,-85.446,-47.437
14:12:01:042,43.943,-0.085,-0.338,-0.407,-6.885,-86.432,-50.662
14:12:01:068,43.969,-0.087,-0.401,-0.405,-7.669,-87.179,-52.392
14:12:01:096,43.997,-0.079,-0.407,-0.421,-8.981,-88.418,-54.267
14:12:01:124,44.025,-0.106,-0.358,-0.469,-10.114,-89.561,-55.057
14:12:01:147,44.048,-0.104,-0.334,-0.491,-10.556,-90.189,-54.898
14:12:01:174,44.075,-0.066,-0.266,-0.500,-10.559,-90.860,-53.539
14:12:01:201,44.102,-0.028,-0.202,-0.506,-10.271,-91.176,-51.968
14:12:01:227,44.128,-0.027,0.056,-0.595,-9.689,-91.487,-48.699
14:12:01:252,44.153,-0.073,0.241,-0.657,-9.251,-91.413,-44.283
14:12:01:28,44.181,-0.154,0.319,-0.656,-8.848,-90.898,-40.779
14:12:01:334,44.235,-0.058,0.150,-0.387,-7.675,-89.075,-35.151
14:12:01:335,44.236,0.162,0.032,-0.084,-6.646,-87.264,-31.553
14:12:01:358,44.259,0.190,-0.023,-0.031,-5.421,-84.752,-27.069
14:12:01:414,44.315,-0.030,0.059,-0.039,-5.038,-83.547,-24.730
14:12:01:414,44.315,-0.133,0.125,-0.094,-4.956,-82.457,-22.048
14:12:01:436,44.337,-0.186,0.180,-0.104,-4.846,-80.720,-20.181
14:12:01:462,44.363,-0.149,0.109,-0.052,-4.608,-78.790,-19.275
14:12:01:518,44.419,-0.108,0.013,0.049,-3.950,-74.752,-18.265
14:12:01:519,44.420,-0.088,-0.038,0.125,-3.406,-71.525,-17.775
14:12:01:541,44.442,-0.093,-0.044,0.142,-2.581,-66.684,-17.178
14:12:01:626,44.527,-0.045,-0.078,0.159,-1.816,-62.252,-16.556
14:12:01:627,44.528,-0.039,-0.091,0.166,-1.386,-59.782,-16.056
14:12:01:628,44.529,-0.026,-0.101,0.163,-0.830,-56.533,-15.126
14:12:01:646,44.547,0.005,-0.093,0.157,-0.440,-54.628,-14.370
14:12:01:704,44.605,0.109,-0.049,0.127,0.134,-51.951,-12.965
14:12:01:705,44.606,0.146,-0.046,0.124,0.479,-50.310,-11.928
14:12:01:725,44.626,0.211,-0.027,0.138,0.950,-47.781,-10.419
14:12:01:751,44.652,0.328,0.005,0.154,1.438,-45.312,-8.873
14:12:01:778,44.679,0.408,0.103,0.153,1.717,-43.927,-7.822
14:12:01:804,44.705,0.420,0.140,0.140,1.993,-42.708,-6.329
14:12:01:83,44.731,0.456,0.198,0.139,2.184,-41.994,-5.078
14:12:01:857,44.758,0.491,0.224,0.160,2.277,-41.640,-4.456
14:12:01:884,44.785,0.417,-0.002,0.156,2.369,-41.502,-4.032
14:12:01:909,44.810,0.387,-0.049,0.118,2.443,-41.778,-4.279
14:12:01:935,44.836,0.407,0.061,0.070,2.652,-42.493,-5.670
14:12:01:961,44.862,0.391,0.186,0.025,2.767,-43.139,-7.230
14:12:01:989,44.890,0.230,0.222,-0.042,2.693,-44.010,-10.514
14:12:02:042,44.944,0.135,0.193,-0.087,2.557,-44.210,-14.744
14:12:02:043,44.944,0.082,0.172,-0.104,2.468,-44.335,-17.842
14:12:02:066,44.967,0.049,0.110,-0.153,2.132,-44.815,-22.572
14:12:02:121,45.022,-0.013,0.074,-0.181,1.725,-45.319,-25.701
14:12:02:123,45.024,-0.087,0.007,-0.212,0.827,-45.927,-30.188
14:12:02:145,45.046,-0.177,-0.067,-0.228,-0.263,-46.366,-34.315
14:12:02:173,45.074,-0.214,-0.088,-0.240,-1.027,-46.288,-36.749
14:12:02:227,45.128,-0.251,-0.154,-0.240,-2.190,-46.010,-39.820
14:12:02:227,45.128,-0.264,-0.208,-0.242,-2.930,-45.558,-41.483
14:12:02:25,45.151,-0.264,-0.276,-0.209,-3.755,-44.611,-43.530
14:12:02:276,45.177,-0.275,-0.267,-0.226,-4.107,-43.876,-44.600
14:12:02:302,45.203,-0.309,-0.223,-0.231,-4.510,-42.857,-45.661
14:12:02:329,45.230,-0.318,-0.172,-0.236,-4.778,-41.939,-45.869
14:12:02:358,45.259,-0.318,-0.145,-0.244,-4.869,-41.256,-45.499
14:12:02:359,45.260,-0.327,-0.161,-0.233,-4.841,-40.112,-44.316
14:12:02:437,45.338,-0.492,0.207,-0.284,-4.238,-37.979,-41.011
14:12:02:437,45.338,-0.435,0.224,-0.184,-3.690,-36.056,-37.742
14:12:02:489,45.390,-0.298,0.073,-0.118,-3.138,-34.624,-35.156
14:12:02:49,45.391,-0.039,-0.066,-0.119,-2.106,-32.156,-31.326
14:12:02:512,45.413,0.005,-0.066,-0.110,-1.632,-30.927,-29.012
14:12:02:541,45.442,-0.047,-0.038,-0.077,-1.325,-29.786,-25.993
14:12:02:625,45.526,-0.177,0.061,-0.022,-0.930,-28.468,-23.598
14:12:02:625,45.526,-0.148,0.080,-0.013,-0.424,-26.964,-22.249
14:12:02:626,45.527,0.014,0.002,0.006,0.589,-23.876,-20.361
14:12:02:704,45.605,0.076,-0.042,0.004,1.288,-21.622,-19.101
14:12:02:704,45.605,0.124,-0.042,0.006,2.194,-18.403,-17.173
14:12:02:704,45.605,0.112,0.023,-0.011,2.657,-16.411,-15.840
14:12:02:724,45.625,0.122,0.028,0.008,3.190,-13.441,-13.766
14:12:02:777,45.678,0.209,0.033,-0.017,3.623,-10.284,-11.493
14:12:02:804,45.705,0.269,0.048,-0.043,3.845,-8.197,-9.871
14:12:02:805,45.706,0.351,0.014,-0.097,4.061,-5.307,-7.329
14:12:02:828,45.729,0.397,-0.059,-0.120,4.126,-3.662,-5.657
14:12:02:854,45.755,0.449,-0.046,-0.187,4.201,-1.596,-3.292
14:12:02:88,45.781,0.499,-0.012,-0.202,4.252,-0.181,-1.155
14:12:02:937,45.838,0.527,0.032,-0.223,4.230,0.437,0.117
14:12:02:937,45.838,0.534,0.020,-0.223,4.140,1.059,1.708
14:12:02:958,45.859,0.549,-0.014,-0.235,4.079,1.374,2.507
14:12:03:014,45.915,0.573,0.079,-0.241,3.363,1.615,1.522
14:12:03:015,45.916,0.626,0.183,-0.221,3.322,1.423,1.622
14:12:03:066,45.967,0.588,0.130,-0.176,3.159,0.656,1.197
14:12:03:067,45.968,0.415,-0.030,-0.118,2.912,-0.778,-0.115
14:12:03:09,45.991,0.314,0.016,-0.130,2.748,-1.575,-1.624
14:12:03:116,46.017,0.286,0.087,-0.104,2.505,-2.417,-4.782
14:12:03:142,46.043,0.224,0.150,-0.065,2.358,-2.735,-7.388
14:12:03:17,46.072,0.159,0.191,-0.032,2.131,-3.403,-11.768
14:12:03:196,46.097,0.015,0.228,-0.018,1.685,-4.683,-16.381
14:12:03:222,46.123,-0.072,0.219,-0.021,1.186,-5.852,-19.396
14:12:03:247,46.148,-0.149,0.121,0.000,0.236,-7.330,-23.739
14:12:03:274,46.175,-0.239,-0.002,0.032,-0.428,-7.976,-26.511
14:12:03:326,46.227,-0.264,-0.055,0.042,-1.288,-8.409,-30.565
14:12:03:385,46.286,-0.275,-0.103,0.072,-1.934,-8.608,-34.455
14:12:03:385,46.286,-0.302,-0.140,0.054,-2.392,-8.890,-36.882
14:12:03:386,46.287,-0.347,-0.197,0.043,-3.207,-9.538,-40.222
14:12:03:405,46.306,-0.357,-0.247,0.026,-3.782,-10.032,-42.210
14:12:03:431,46.332,-0.355,-0.283,0.010,-4.564,-10.730,-44.747
14:12:03:457,46.358,-0.400,-0.262,0.000,-5.193,-11.495,-46.615
14:12:03:484,46.385,-0.422,-0.253,0.006,-5.511,-11.876,-47.369
14:12:03:569,46.470,-0.438,-0.202,-0.012,-5.802,-12.340,-47.577
14:12:03:569,46.470,-0.432,-0.138,-0.036,-5.806,-12.569,-47.029
14:12:03:57,46.471,-0.457,-0.069,-0.082,-5.699,-12.943,-45.254
14:12:03:589,46.490,-0.525,0.087,-0.051,-5.584,-13.157,-43.526
14:12:03:644,46.545,-0.551,0.192,-0.020,-5.290,-13.317,-40.135
14:12:03:645,46.546,-0.381,0.142,-0.014,-4.628,-12.911,-35.894
14:12:03:668,46.569,-0.223,0.012,-0.064,-4.004,-12.426,-32.901
14:12:03:693,46.594,-0.127,0.034,-0.091,-2.996,-11.464,-28.672
14:12:03:86,46.761,-0.108,0.041,-0.057,-2.417,-10.936,-26.206
14:12:03:861,46.762,-0.125,0.087,-0.006,-1.638,-10.236,-23.092
14:12:03:862,46.763,-0.099,0.105,-0.009,-0.780,-9.183,-20.673
14:12:03:863,46.764,-0.043,0.126,-0.024,-0.127,-8.059,-19.350
14:12:03:915,46.816,0.048,0.036,-0.049,0.903,-5.658,-17.629
14:12:03:916,46.817,0.141,-0.065,-0.089,1.579,-3.837,-16.537
14:12:03:917,46.818,0.154,-0.066,-0.114,2.419,-1.063,-14.882
14:12:03:918,46.819,0.199,-0.030,-0.075,2.812,0.648,-13.750
14:12:03:991,46.892,0.235,-0.037,-0.105,3.155,2.971,-11.857
14:12:03:991,46.892,0.254,-0.049,-0.145,3.158,4.687,-9.965
14:12:03:991,46.892,0.329,-0.063,-0.176,3.180,5.877,-8.420
14:12:04:009,46.910,0.345,-0.077,-0.218,3.145,7.117,-6.175
14:12:04:037,46.938,0.401,-0.126,-0.236,3.102,8.181,-4.191
14:12:04:062,46.963,0.412,-0.131,-0.255,3.087,8.450,-3.109
14:12:04:09,46.991,0.442,-0.050,-0.239,3.078,8.435,-1.905
14:12:04:116,47.017,0.442,0.005,-0.216,3.025,8.240,-1.381
14:12:04:14,47.041,0.425,0.067,-0.174,2.857,7.925,-0.981
14:12:04:167,47.068,0.432,0.082,-0.170,2.722,8.017,-1.012
14:12:04:193,47.094,0.452,0.176,-0.184,2.588,8.387,-1.568
14:12:04:219,47.120,0.463,0.286,-0.188,2.560,8.655,-2.762
14:12:04:245,47.146,0.477,0.299,-0.169,2.567,8.297,-3.872
14:12:04:271,47.172,0.321,0.049,-0.098,2.565,6.786,-6.046
14:12:04:297,47.198,0.236,0.077,-0.085,2.561,5.410,-7.951
14:12:04:324,47.225,0.162,0.192,-0.065,2.470,3.212,-11.462
14:12:04:35,47.251,0.042,0.302,-0.012,2.137,0.888,-15.473
14:12:04:376,47.277,-0.046,0.279,0.003,1.716,-0.687,-18.302
14:12:04:403,47.304,-0.166,0.214,0.017,0.827,-3.001,-22.673
14:12:04:428,47.329,-0.225,0.157,0.022,0.092,-4.289,-25.616
14:12:04:455,47.356,-0.297,0.089,0.055,-1.079,-5.737,-29.998
14:12:04:481,47.382,-0.348,0.001,0.059,-1.824,-6.253,-32.890
14:12:04:51,47.411,-0.377,-0.072,0.079,-2.838,-6.745,-37.162
14:12:04:535,47.436,-0.437,-0.133,0.086,-3.751,-7.074,-41.333
14:12:04:56,47.461,-0.464,-0.160,0.086,-4.356,-7.296,-43.965
14:12:04:588,47.489,-0.464,-0.253,0.074,-5.191,-7.592,-47.543
14:12:04:612,47.513,-0.430,-0.341,0.037,-5.666,-7.796,-49.639
14:12:04:643,47.544,-0.408,-0.382,0.023,-6.159,-8.106,-52.309
14:12:04:643,47.544,-0.421,-0.408,0.014,-6.451,-8.382,-54.310
14:12:04:694,47.595,-0.435,-0.408,0.007,-6.643,-8.549,-55.112
14:12:04:695,47.596,-0.434,-0.319,0.019,-6.575,-8.731,-55.310
14:12:04:749,47.650,-0.479,-0.250,-0.001,-6.297,-8.829,-54.740
14:12:04:749,47.650,-0.461,-0.163,-0.036,-5.601,-8.793,-52.811
14:12:04:771,47.672,-0.471,-0.033,-0.050,-4.978,-8.873,-49.745
14:12:04:796,47.697,-0.554,0.130,-0.028,-4.636,-8.892,-47.165
14:12:04:823,47.724,-0.545,0.265,0.027,-3.898,-8.599,-42.562
14:12:04:849,47.750,-0.407,0.192,0.012,-3.183,-8.032,-39.102
14:12:04:875,47.776,-0.219,0.080,-0.057,-1.993,-6.750,-33.859
14:12:04:901,47.802,-0.117,0.135,-0.095,-1.240,-5.840,-30.540
14:12:04:927,47.828,-0.035,0.174,-0.050,-0.450,-4.635,-25.971
14:12:04:954,47.855,-0.047,0.209,-0.011,0.053,-3.433,-21.926
14:12:05:009,47.910,-0.032,0.192,-0.016,0.405,-2.271,-19.539
14:12:05:01,47.911,0.121,0.101,-0.059,1.024,0.605,-16.464
14:12:05:032,47.933,0.225,0.011,-0.051,1.457,3.189,-14.746
14:12:05:059,47.960,0.254,-0.026,-0.062,1.940,7.572,-12.548
14:12:05:087,47.988,0.256,-0.023,-0.058,2.171,10.724,-10.720
14:12:05:112,48.013,0.283,-0.033,-0.090,2.270,12.843,-9.585
14:12:05:138,48.039,0.306,-0.069,-0.106,2.306,15.299,-8.289
14:12:05:164,48.065,0.306,-0.099,-0.127,2.314,16.946,-7.162
14:12:05:19,48.091,0.333,-0.133,-0.166,2.340,19.180,-5.539
14:12:05:216,48.117,0.354,-0.135,-0.223,2.384,20.596,-4.554
14:12:05:242,48.144,0.320,-0.164,-0.245,2.489,22.354,-3.351
14:12:05:27,48.171,0.339,-0.117,-0.300,2.672,24.043,-2.593
14:12:05:295,48.196,0.342,-0.054,-0.371,2.849,25.062,-2.343
14:12:05:323,48.224,0.302,0.017,-0.366,3.087,26.289,-2.407
14:12:05:349,48.250,0.244,0.054,-0.317,3.219,27.024,-2.787
14:12:05:374,48.275,0.226,0.103,-0.324,3.459,28.156,-3.854
14:12:05:401,48.302,0.220,0.309,-0.346,3.782,29.349,-5.419
14:12:05:427,48.328,0.176,0.351,-0.324,3.967,29.972,-6.634
14:12:05:454,48.355,0.095,0.174,-0.222,4.138,30.818,-8.721
14:12:05:481,48.382,0.035,0.127,-0.228,4.311,31.492,-10.421
14:12:05:507,48.408,-0.022,0.205,-0.249,4.812,32.434,-13.586
14:12:05:56,48.461,-0.098,0.257,-0.160,5.443,32.783,-17.453
14:12:05:561,48.462,-0.180,0.201,-0.102,5.816,32.539,-20.351
14:12:05:584,48.485,-0.232,0.118,-0.031,6.214,31.774,-24.949
14:12:05:61,48.511,-0.266,0.065,0.002,6.364,31.252,-28.026
14:12:05:636,48.537,-0.271,-0.015,0.032,6.447,30.609,-32.401
14:12:05:663,48.564,-0.271,-0.056,0.028,6.423,30.338,-35.108
14:12:05:69,48.591,-0.261,-0.199,0.068,6.202,29.999,-38.847
14:12:05:741,48.642,-0.244,-0.215,0.037,5.651,29.657,-43.908
14:12:05:767,48.668,-0.269,-0.215,0.010,5.116,29.784,-45.997
14:12:05:794,48.695,-0.248,-0.251,0.057,4.544,30.096,-47.002
14:12:05:82,48.721,-0.230,-0.256,0.073,3.707,31.190,-47.956
14:12:05:848,48.749,-0.219,-0.222,0.075,3.235,32.917,-48.352
14:12:05:873,48.774,-0.243,-0.150,0.089,3.021,34.179,-48.245
14:12:05:899,48.800,-0.271,-0.064,0.154,2.563,36.414,-47.590
14:12:05:926,48.827,-0.271,-0.046,0.170,2.253,38.015,-46.808
14:12:05:953,48.854,-0.241,-0.066,0.172,1.892,40.468,-45.239
14:12:05:977,48.878,-0.229,-0.067,0.167,1.673,42.116,-43.952
14:12:06:004,48.905,-0.231,0.050,0.241,1.246,44.645,-41.636
14:12:06:03,48.931,-0.207,0.246,0.393,0.813,47.714,-38.502
14:12:06:056,48.957,-0.127,0.281,0.420,0.691,50.338,-35.890
14:12:06:082,48.983,0.006,0.081,0.201,0.919,55.112,-31.543
14:12:06:138,49.039,-0.016,0.059,0.016,1.223,58.388,-28.677
14:12:06:138,49.039,-0.032,0.104,-0.060,1.386,62.319,-24.822
14:12:06:191,49.092,0.045,0.097,0.029,0.995,64.536,-21.544
14:12:06:191,49.092,0.081,0.075,0.054,0.731,65.812,-19.687
14:12:06:214,49.115,0.101,0.006,0.004,0.656,67.791,-17.262
14:12:06:24,49.141,0.112,-0.072,-0.140,0.780,69.824,-15.792
14:12:06:298,49.199,0.096,-0.081,-0.161,0.981,72.426,-13.686
14:12:06:298,49.199,0.111,-0.021,-0.182,1.144,75.088,-11.609
14:12:06:32,49.221,0.094,0.001,-0.220,1.239,76.996,-10.162
14:12:06:374,49.275,0.086,-0.042,-0.288,1.370,80.347,-7.827
14:12:06:374,49.275,0.039,-0.056,-0.393,1.462,82.313,-6.152
14:12:06:398,49.299,-0.052,-0.064,-0.456,1.601,84.903,-3.562
14:12:06:454,49.355,-0.095,-0.123,-0.490,1.703,86.061,-1.912
14:12:06:454,49.355,-0.127,-0.108,-0.512,1.959,87.799,0.307
14:12:06:476,49.377,-0.203,0.000,-0.627,2.326,89.078,2.243
14:12:06:504,49.405,-0.201,0.007,-0.657,2.583,89.274,3.362
14:12:06:529,49.430,-0.230,0.019,-0.656,3.022,89.340,4.749
14:12:06:555,49.456,-0.286,0.019,-0.700,3.348,89.025,5.420
14:12:06:581,49.482,-0.314,0.089,-0.747,3.862,88.763,5.928
14:12:06:608,49.509,-0.250,0.109,-0.731,4.252,87.692,5.741
14:12:06:636,49.537,-0.207,0.051,-0.649,4.449,86.895,5.188
14:12:06:661,49.562,-0.220,-0.005,-0.574,4.638,85.028,3.626
14:12:06:686,49.587,-0.211,-0.032,-0.510,4.642,83.766,2.020
14:12:06:712,49.613,-0.164,-0.011,-0.364,4.400,81.847,-1.303
14:12:06:738,49.639,-0.108,0.103,-0.229,4.069,80.767,-4.073
14:12:06:775,49.676,-0.057,0.156,-0.146,3.361,79.790,-8.780
14:12:06:791,49.692,-0.036,0.227,-0.067,2.513,79.541,-13.753
14:12:06:821,49.722,-0.050,0.211,-0.043,1.910,79.669,-17.083
14:12:06:821,49.722,-0.049,0.152,0.078,0.964,79.898,-22.087
14:12:06:927,49.828,-0.006,0.074,0.167,0.317,80.040,-25.390
14:12:06:928,49.829,0.011,0.023,0.216,-0.743,80.024,-30.090
14:12:06:954,49.855,-0.003,-0.013,0.267,-1.906,79.812,-34.248
14:12:06:955,49.856,-0.004,-0.046,0.307,-2.775,79.606,-36.659
14:12:06:956,49.857,0.023,-0.184,0.351,-4.084,79.493,-39.813
14:12:06:977,49.878,0.014,-0.235,0.355,-4.893,79.315,-41.653
14:12:07:005,49.906,-0.002,-0.229,0.381,-6.018,79.266,-44.021
14:12:07:028,49.929,0.016,-0.200,0.479,-7.096,78.850,-45.770
14:12:07:054,49.955,0.033,-0.196,0.551,-7.706,78.911,-46.448
14:12:07:08,49.981,0.073,-0.062,0.695,-7.916,79.351,-46.588
14:12:07:106,50.007,0.090,0.074,0.733,-7.367,80.245,-45.926
14:12:07:134,50.035,0.085,-0.166,0.399,-5.663,82.403,-43.850
14:12:07:188,50.089,-0.006,-0.287,0.253,-4.233,83.981,-42.026
14:12:07:189,50.090,-0.027,-0.230,0.249,-2.070,86.026,-39.184
14:12:07:211,50.112,-0.020,-0.033,0.300,-0.386,87.441,-36.185
14:12:07:238,50.139,0.019,-0.003,0.310,0.453,88.200,-33.948
14:12:07:264,50.165,0.041,0.007,0.232,1.629,89.947,-30.005
14:12:07:292,50.193,-0.032,0.049,0.109,2.369,91.347,-26.895
14:12:07:316,50.217,-0.098,0.131,0.000,3.261,93.876,-21.454
14:12:07:344,50.245,-0.212,0.242,-0.078,3.656,96.674,-15.166
14:12:07:37,50.271,-0.244,0.310,-0.304,3.699,99.199,-10.736
14:12:07:396,50.297,-0.307,0.263,-0.465,3.071,102.632,-3.908
14:12:07:422,50.323,-0.321,0.217,-0.537,2.433,103.605,0.543
14:12:07:449,50.350,-0.438,0.117,-0.702,1.624,104.263,6.940
14:12:07:476,50.377,-0.484,-0.048,-0.842,1.280,104.177,10.866
14:12:07:502,50.403,-0.474,-0.191,-0.892,1.108,103.360,15.964
14:12:07:527,50.428,-0.455,-0.285,-0.916,1.351,101.948,19.756
14:12:07:553,50.454,-0.392,-0.303,-0.918,1.607,100.912,21.444
14:12:07:579,50.480,-0.318,-0.314,-0.892,1.846,99.615,22.651
14:12:07:605,50.506,-0.299,-0.189,-0.946,1.803,99.065,22.549
14:12:07:634,50.535,-0.289,-0.103,-1.000,1.461,99.038,21.108
14:12:07:658,50.559,-0.209,-0.115,-0.861,1.029,98.387,18.320
14:12:07:684,50.585,-0.145,-0.055,-0.723,0.770,97.776,15.579
14:12:07:71,50.611,-0.071,0.121,-0.580,0.373,96.943,10.459
14:12:07:736,50.637,0.018,0.423,-0.462,0.080,96.678,6.287
14:12:07:765,50.666,0.099,0.520,-0.281,-0.364,96.963,-0.757
14:12:07:79,50.691,0.122,0.427,-0.115,-0.408,98.070,-8.478
14:12:07:815,50.716,0.119,0.397,-0.019,-0.046,98.737,-13.886
14:12:07:841,50.742,0.148,0.331,0.161,0.852,98.833,-22.074
14:12:07:896,50.797,0.139,0.228,0.276,1.514,98.240,-27.422
14:12:07:897,50.798,0.131,0.049,0.387,2.212,96.569,-34.963
14:12:07:949,50.850,0.122,-0.027,0.427,2.312,95.154,-39.442
14:12:07:95,50.851,0.128,-0.182,0.483,1.620,92.852,-45.096
14:12:07:973,50.874,0.120,-0.351,0.443,0.215,90.743,-49.354
14:12:08:08,50.981,0.105,-0.414,0.431,-0.845,89.533,-51.441
14:12:08:081,50.982,0.030,-0.439,0.443,-2.371,87.941,-53.546
14:12:08:14,51.041,0.049,-0.409,0.469,-3.324,86.947,-54.294
14:12:08:14,51.041,0.036,-0.355,0.506,-4.696,85.519,-54.354
14:12:08:141,51.042,0.018,-0.221,0.583,-5.841,84.324,-52.984
14:12:08:142,51.043,-0.002,-0.126,0.605,-6.349,83.746,-51.281
14:12:08:156,51.057,0.049,-0.065,0.627,-6.562,83.299,-47.688
14:12:08:183,51.084,0.076,0.085,0.673,-6.042,83.417,-44.665
14:12:08:209,51.110,0.015,0.134,0.472,-4.630,84.140,-39.307
14:12:08:235,51.136,-0.076,0.147,0.260,-3.617,84.760,-35.416
14:12:08:263,51.164,-0.126,0.161,0.149,-2.521,85.385,-29.535
14:12:08:289,51.190,-0.094,0.212,0.095,-1.966,85.443,-24.027
14:12:08:345,51.246,-0.046,0.180,0.072,-1.730,85.447,-20.702
14:12:08:345,51.246,-0.007,0.126,0.038,-1.221,86.056,-16.179
14:12:08:367,51.268,-0.057,0.078,-0.133,-0.784,87.219,-13.423
14:12:08:392,51.293,-0.115,0.086,-0.222,-0.191,89.906,-9.568
