Time,Second,AccelerationX,AccelerationY,AccelerationZ,EulerAnglesX,EulerAnglesY,EulerAnglesZ
15:25:59:071,0.000,0.001,-0.001,-0.015,-5.520,-4.066,-0.277
15:25:59:096,0.025,0.000,0.000,-0.019,-5.587,-4.078,-0.320
15:25:59:153,0.082,0.003,-0.002,-0.012,-5.684,-4.125,-0.379
15:25:59:153,0.082,0.003,-0.003,-0.013,-5.776,-4.156,-0.454
15:25:59:175,0.104,0.008,-0.001,-0.010,-5.833,-4.185,-0.507
15:25:59:201,0.130,0.001,-0.003,-0.018,-5.930,-4.219,-0.591
15:25:59:227,0.156,0.002,-0.004,-0.015,-5.995,-4.234,-0.651
15:25:59:254,0.183,0.005,0.000,-0.015,-6.082,-4.270,-0.754
15:25:59:28,0.209,0.001,-0.003,-0.012,-6.143,-4.284,-0.828
15:25:59:336,0.265,0.001,0.000,-0.024,-6.232,-4.312,-0.952
15:25:59:336,0.265,0.005,0.001,-0.017,-6.330,-4.346,-1.089
15:25:59:359,0.288,0.004,0.001,-0.005,-6.379,-4.373,-1.192
15:25:59:444,0.373,0.006,0.001,-0.019,-6.462,-4.395,-1.348
15:25:59:444,0.373,0.004,-0.006,-0.015,-6.525,-4.392,-1.459
15:25:59:444,0.373,0.001,-0.006,-0.005,-6.616,-4.371,-1.638
15:25:59:466,0.395,0.004,-0.009,-0.002,-6.722,-4.313,-1.832
15:25:59:49,0.419,-0.001,0.001,-0.005,-6.805,-4.254,-1.976
15:25:59:516,0.445,0.027,-0.004,-0.017,-6.949,-4.187,-2.203
15:25:59:542,0.471,-0.013,0.002,-0.023,-7.057,-4.094,-2.364
15:25:59:598,0.527,-0.016,0.013,-0.034,-7.201,-3.974,-2.569
15:25:59:599,0.528,-0.007,0.011,-0.050,-7.287,-3.948,-2.701
15:25:59:623,0.551,0.003,0.013,-0.027,-7.304,-3.916,-2.923
15:25:59:68,0.609,0.000,0.006,-0.073,-7.182,-3.822,-3.182
15:25:59:68,0.609,0.000,0.015,-0.011,-7.026,-3.740,-3.380
15:25:59:681,0.610,-0.010,0.013,-0.027,-6.712,-3.555,-3.738
15:25:59:726,0.655,-0.006,-0.001,-0.015,-6.478,-3.451,-4.021
15:25:59:755,0.684,0.005,0.004,-0.012,-6.146,-3.358,-4.465
15:25:59:756,0.685,-0.006,-0.010,0.001,-5.807,-3.285,-4.940
15:25:59:808,0.736,0.011,0.002,-0.007,-5.623,-3.249,-5.252
15:25:59:809,0.737,0.017,-0.007,-0.002,-5.371,-3.202,-5.708
15:25:59:861,0.790,0.002,-0.007,-0.020,-5.212,-3.163,-5.990
15:25:59:861,0.790,-0.007,0.000,-0.014,-4.990,-3.126,-6.393
15:25:59:912,0.841,-0.007,0.013,-0.023,-4.854,-3.145,-6.657
15:25:59:913,0.842,-0.001,0.013,-0.024,-4.638,-3.173,-7.085
15:25:59:937,0.866,0.000,0.005,-0.025,-4.378,-3.212,-7.559
15:25:59:964,0.893,-0.004,0.007,-0.001,-4.165,-3.219,-7.889
15:26:00:018,0.947,-0.014,0.026,0.002,-3.806,-3.264,-8.403
15:26:00:019,0.948,-0.015,0.030,-0.006,-3.552,-3.323,-8.740
15:26:00:043,0.972,0.005,0.017,-0.020,-3.160,-3.443,-9.266
15:26:00:069,0.998,0.013,0.005,-0.010,-2.732,-3.556,-9.790
15:26:00:095,1.024,0.006,0.011,-0.019,-2.426,-3.606,-10.125
15:26:00:12,1.049,0.004,0.018,-0.030,-1.960,-3.642,-10.608
15:26:00:148,1.077,-0.005,0.016,-0.037,-1.640,-3.640,-10.932
15:26:00:174,1.103,-0.016,0.034,-0.053,-1.109,-3.594,-11.411
15:26:00:199,1.128,-0.037,0.065,-0.057,-0.702,-3.568,-11.752
15:26:00:225,1.154,-0.054,0.072,-0.044,0.093,-3.531,-12.394
15:26:00:251,1.180,-0.061,0.080,-0.039,1.012,-3.520,-13.224
15:26:00:277,1.206,-0.054,0.071,-0.023,1.678,-3.533,-13.868
15:26:00:305,1.234,-0.049,0.032,-0.033,2.793,-3.544,-14.978
15:26:00:33,1.259,-0.046,0.024,-0.047,3.596,-3.751,-15.800
15:26:00:358,1.287,-0.044,0.019,-0.037,4.893,-3.791,-17.164
15:26:00:382,1.311,-0.051,0.023,-0.055,6.318,-4.112,-18.653
15:26:00:408,1.337,-0.063,0.043,-0.087,7.327,-4.166,-19.729
15:26:00:434,1.363,-0.163,0.125,-0.146,8.931,-4.634,-21.494
15:26:00:461,1.390,-0.273,0.130,-0.189,10.192,-4.556,-22.829
15:26:00:546,1.475,-0.262,0.137,-0.212,12.434,-4.664,-25.234
15:26:00:546,1.475,-0.294,0.202,-0.260,14.104,-4.514,-27.086
15:26:00:547,1.476,-0.375,0.146,-0.339,17.075,-4.097,-30.118
15:26:00:567,1.496,-0.272,-0.034,-0.299,20.306,-3.836,-33.264
15:26:00:592,1.521,-0.251,-0.123,-0.307,22.262,-3.573,-35.060
15:26:00:618,1.547,0.060,-0.207,-0.201,24.707,-3.977,-37.005
15:26:00:645,1.573,-0.130,-0.516,-0.168,25.989,-3.426,-37.653
15:26:00:671,1.600,-0.471,-0.685,-0.113,26.156,-2.574,-36.910
15:26:00:698,1.627,-0.443,-0.631,-0.072,24.424,-1.440,-34.542
15:26:00:725,1.654,-0.425,-0.561,-0.075,22.596,-0.682,-32.267
15:26:00:751,1.680,-0.388,-0.369,-0.020,19.278,0.431,-28.185
15:26:00:776,1.705,-0.386,-0.204,-0.002,16.913,1.249,-25.012
15:26:00:803,1.732,-0.345,-0.023,0.037,13.295,2.406,-19.861
15:26:00:831,1.760,-0.295,0.040,0.035,10.884,2.905,-16.422
15:26:00:855,1.784,-0.100,0.266,0.078,7.155,2.808,-11.402
15:26:00:882,1.811,-0.001,0.302,0.076,3.623,2.096,-6.558
15:26:00:909,1.838,0.081,0.314,0.135,1.548,1.197,-3.487
15:26:00:992,1.921,0.151,0.375,0.205,-1.295,-0.694,0.994
15:26:00:992,1.921,0.342,0.298,0.304,-2.831,-2.411,3.862
15:26:00:993,1.922,0.518,0.182,0.320,-4.501,-5.481,7.933
15:26:01:012,1.941,0.678,0.084,0.224,-5.650,-8.984,11.724
15:26:01:068,1.997,0.802,0.022,0.251,-6.198,-11.158,13.698
15:26:01:068,1.997,0.985,-0.122,0.285,-6.687,-13.268,15.416
15:26:01:092,2.021,0.951,-0.128,0.181,-6.839,-13.773,15.562
15:26:01:118,2.047,0.619,0.121,-0.097,-7.039,-13.139,14.096
15:26:01:143,2.072,0.587,-0.045,-0.055,-7.073,-12.119,12.834
15:26:01:17,2.099,0.038,0.350,0.153,-6.761,-10.875,11.544
15:26:01:196,2.125,-0.064,-0.043,0.143,-5.996,-10.914,10.377
15:26:01:222,2.151,-0.069,-0.111,-0.015,-5.775,-11.063,9.526
15:26:01:249,2.178,0.005,-0.050,-0.045,-5.816,-11.459,8.240
15:26:01:275,2.204,-0.005,-0.020,-0.074,-5.928,-11.659,7.487
15:26:01:301,2.230,0.061,0.002,-0.024,-5.980,-11.488,6.411
15:26:01:329,2.258,-0.009,0.054,0.054,-5.981,-11.110,5.419
15:26:01:354,2.283,-0.042,0.006,0.015,-5.996,-10.934,4.777
15:26:01:38,2.309,-0.009,-0.023,-0.026,-6.145,-10.878,3.866
15:26:01:406,2.335,0.027,0.003,-0.029,-6.288,-10.835,3.276
15:26:01:432,2.361,-0.014,0.003,-0.036,-6.496,-9.832,2.363
15:26:01:488,2.417,-0.035,0.021,-0.013,-6.714,-9.303,1.538
15:26:01:489,2.418,-0.004,0.027,-0.055,-6.889,-8.664,1.085
15:26:01:54,2.469,0.005,0.011,-0.033,-7.008,-8.468,0.463
15:26:01:541,2.470,0.002,0.021,-0.032,-7.055,-8.059,0.165
15:26:01:593,2.521,-0.008,0.012,-0.056,-7.092,-7.915,-0.168
15:26:01:594,2.522,-0.039,-0.012,-0.040,-7.018,-7.076,-0.535
15:26:01:616,2.545,-0.046,-0.013,-0.061,-6.905,-6.842,-0.915
15:26:01:642,2.571,-0.036,-0.009,-0.043,-6.768,-5.990,-1.502
15:26:01:669,2.598,-0.052,0.016,-0.040,-6.634,-5.720,-1.941
15:26:01:695,2.624,-0.039,0.020,-0.039,-6.179,-4.910,-2.922
15:26:01:751,2.680,-0.035,0.002,-0.023,-5.813,-4.704,-3.626
15:26:01:751,2.680,-0.033,0.002,-0.031,-5.194,-4.270,-4.735
15:26:01:774,2.703,-0.031,0.025,-0.039,-4.546,-4.121,-5.869
15:26:01:802,2.731,-0.014,0.021,-0.035,-4.093,-3.837,-6.658
15:26:01:855,2.784,-0.022,-0.007,-0.050,-3.374,-3.640,-7.883
15:26:01:856,2.785,-0.023,0.014,-0.052,-2.888,-3.527,-8.706
15:26:01:88,2.809,-0.008,0.037,-0.053,-2.149,-3.360,-9.972
15:26:01:907,2.836,-0.072,0.071,-0.002,-1.374,-3.111,-11.235
15:26:01:931,2.860,-0.093,0.085,0.001,-0.802,-2.976,-12.085
15:26:01:957,2.886,-0.077,0.095,-0.029,0.131,-2.833,-13.499
15:26:02:015,2.944,-0.083,0.099,-0.023,0.831,-2.754,-14.528
15:26:02:016,2.945,-0.118,0.112,-0.052,2.073,-2.570,-16.169
15:26:02:017,2.946,-0.148,0.116,-0.075,3.054,-2.473,-17.330
15:26:02:067,2.996,-0.154,0.102,-0.084,4.333,-2.504,-18.571
15:26:02:067,2.996,-0.138,0.056,-0.066,5.967,-2.796,-20.418
15:26:02:116,3.045,-0.129,0.042,-0.115,7.182,-3.085,-21.843
15:26:02:146,3.075,-0.126,0.068,-0.208,9.026,-3.446,-24.062
15:26:02:146,3.075,-0.237,0.142,-0.293,10.375,-3.529,-25.622
15:26:02:168,3.097,-0.326,0.062,-0.359,12.828,-3.199,-28.174
15:26:02:193,3.122,-0.278,0.174,-0.366,15.912,-2.437,-31.156
15:26:02:22,3.149,-0.370,0.101,-0.448,18.257,-1.639,-33.392
15:26:02:247,3.176,-0.398,-0.015,-0.430,22.160,0.078,-36.699
15:26:02:274,3.203,-0.389,-0.349,-0.299,25.005,1.492,-38.588
15:26:02:301,3.230,0.023,-0.161,-0.144,28.921,3.683,-40.251
15:26:02:354,3.283,-0.089,-0.488,-0.095,31.119,5.493,-40.871
15:26:02:354,3.283,-0.587,-0.734,-0.058,31.896,7.786,-40.038
15:26:02:38,3.309,-0.368,-0.644,0.176,29.747,9.766,-37.659
15:26:02:404,3.333,-0.437,-0.534,0.145,27.374,10.693,-35.484
15:26:02:432,3.361,-0.481,-0.392,0.161,22.824,12.309,-31.357
15:26:02:458,3.387,-0.420,-0.146,0.274,19.552,13.329,-28.108
15:26:02:485,3.414,-0.287,0.084,0.256,14.652,14.665,-23.004
15:26:02:51,3.439,-0.201,0.223,0.224,10.569,15.821,-17.873
15:26:02:535,3.464,-0.106,0.251,0.271,8.186,16.482,-14.444
15:26:02:563,3.492,0.000,0.310,0.337,4.702,16.986,-9.602
15:26:02:587,3.516,0.138,0.274,0.256,2.503,16.785,-6.461
15:26:02:616,3.545,0.160,0.215,0.230,-0.285,15.694,-1.925
15:26:02:641,3.570,0.163,0.215,0.143,-1.831,14.429,0.954
15:26:02:666,3.595,0.222,0.228,0.102,-3.768,11.965,5.104
15:26:02:692,3.621,0.384,0.274,0.037,-5.353,8.890,9.210
15:26:02:719,3.648,0.532,0.205,0.010,-6.196,6.633,11.916
15:26:02:746,3.675,0.825,-0.023,-0.007,-6.911,3.200,15.712
15:26:02:773,3.702,0.927,-0.111,-0.104,-7.302,1.528,17.713
15:26:02:8,3.729,0.999,-0.203,-0.020,-7.989,0.830,19.167
15:26:02:853,3.782,0.874,-0.176,0.146,-8.336,1.602,18.808
15:26:02:853,3.782,-0.660,0.331,-0.285,-8.327,2.982,16.740
15:26:02:877,3.806,-0.104,0.094,-0.036,-8.459,4.185,14.421
15:26:02:902,3.831,0.286,0.094,0.080,-8.398,4.266,13.052
15:26:02:929,3.858,0.065,0.169,0.125,-7.744,4.762,11.498
15:26:02:955,3.884,0.088,-0.044,-0.040,-7.319,4.263,10.504
15:26:02:982,3.911,0.054,-0.060,-0.092,-6.997,4.786,8.960
15:26:03:008,3.937,-0.011,-0.016,-0.076,-6.894,4.954,7.505
15:26:03:034,3.963,0.007,-0.032,-0.083,-6.879,6.087,6.584
15:26:03:088,4.017,-0.017,0.007,0.001,-6.923,6.467,5.355
15:26:03:115,4.044,-0.037,0.044,0.049,-6.951,7.334,4.611
15:26:03:116,4.045,-0.051,0.040,-0.038,-6.866,7.433,3.537
15:26:03:14,4.069,-0.048,0.018,-0.085,-6.609,7.950,2.405
15:26:03:165,4.094,-0.019,0.017,-0.077,-6.346,8.011,1.596
15:26:03:191,4.120,-0.002,-0.005,-0.014,-5.860,8.785,0.400
15:26:03:217,4.146,0.010,-0.031,0.002,-5.531,9.078,-0.346
15:26:03:244,4.173,-0.009,-0.039,0.001,-5.092,10.060,-1.272
15:26:03:27,4.199,0.015,0.005,-0.013,-4.864,10.349,-1.718
15:26:03:296,4.225,-0.038,0.020,-0.013,-4.576,11.189,-2.169
15:26:03:324,4.253,-0.070,-0.001,-0.024,-4.280,11.479,-2.588
15:26:03:349,4.277,-0.063,-0.002,-0.020,-4.083,11.858,-2.908
15:26:03:376,4.305,-0.052,0.019,-0.033,-3.912,11.948,-3.313
15:26:03:401,4.330,-0.051,0.015,-0.038,-3.734,12.166,-3.690
15:26:03:427,4.356,-0.053,0.013,-0.033,-3.368,12.354,-4.403
15:26:03:453,4.382,-0.070,0.017,-0.049,-3.009,12.803,-5.167
15:26:03:48,4.409,-0.064,0.016,-0.017,-2.676,13.017,-5.760
15:26:03:507,4.436,-0.078,0.024,-0.056,-1.841,13.356,-7.009
15:26:03:563,4.492,-0.062,0.034,-0.062,-1.233,13.399,-7.972
15:26:03:563,4.492,0.003,0.038,-0.050,-0.239,13.393,-9.440
15:26:03:585,4.514,-0.017,0.067,-0.028,0.461,13.397,-10.414
15:26:03:612,4.541,-0.083,0.097,0.007,1.609,13.503,-11.830
15:26:03:638,4.567,-0.116,0.128,-0.016,2.929,13.616,-13.398
15:26:03:664,4.593,-0.141,0.166,-0.099,3.898,13.621,-14.536
15:26:03:69,4.619,-0.194,0.162,-0.007,5.576,13.635,-16.427
15:26:03:716,4.645,-0.211,0.097,-0.027,6.874,13.440,-17.800
15:26:03:742,4.671,-0.197,0.073,-0.071,8.948,12.928,-20.002
15:26:03:827,4.756,-0.141,0.048,-0.170,11.092,12.267,-22.333
15:26:03:828,4.757,-0.135,-0.002,-0.178,12.594,11.877,-23.907
15:26:03:828,4.757,-0.113,-0.055,-0.183,15.050,11.760,-26.277
15:26:03:847,4.776,-0.121,-0.040,-0.176,16.771,12.018,-27.835
15:26:03:874,4.803,-0.304,-0.001,-0.218,19.572,12.871,-29.974
15:26:03:9,4.829,-0.372,0.061,-0.290,21.627,13.808,-31.431
15:26:03:955,4.884,-0.434,0.014,-0.276,24.985,15.479,-33.777
15:26:03:956,4.885,-0.433,-0.170,-0.229,28.583,17.592,-35.872
15:26:03:979,4.908,-0.270,-0.289,-0.239,30.788,19.008,-36.840
15:26:04:007,4.936,-0.100,-0.412,-0.005,32.952,21.148,-37.320
15:26:04:031,4.960,-0.317,-0.669,-0.147,33.771,23.171,-36.513
15:26:04:058,4.987,-0.576,-0.683,0.118,32.588,24.233,-35.367
15:26:04:083,5.012,-0.478,-0.531,0.026,29.039,25.203,-32.755
15:26:04:11,5.039,-0.510,-0.464,0.077,25.862,26.024,-30.417
15:26:04:136,5.065,-0.498,-0.258,0.199,20.628,27.050,-26.183
15:26:04:164,5.093,-0.382,-0.027,0.202,17.189,27.761,-23.054
15:26:04:189,5.118,-0.397,0.027,0.220,12.429,28.650,-18.143
15:26:04:215,5.144,-0.282,0.211,0.220,7.547,28.427,-13.180
15:26:04:241,5.170,-0.213,0.245,0.267,4.182,27.649,-9.825
15:26:04:297,5.226,-0.251,0.346,0.219,-0.436,25.724,-4.542
15:26:04:298,5.227,-0.091,0.494,0.139,-3.066,24.166,-0.789
15:26:04:322,5.251,0.219,0.512,0.178,-6.268,21.668,4.606
15:26:04:346,5.275,0.618,0.462,0.124,-7.992,19.986,8.251
15:26:04:376,5.305,0.762,0.156,0.081,-10.098,17.874,13.615
15:26:04:377,5.306,0.867,-0.116,0.049,-11.759,16.209,18.483
15:26:04:428,5.357,0.895,-0.175,0.040,-12.779,15.588,21.097
15:26:04:428,5.357,0.892,-0.283,-0.064,-13.641,15.896,23.189
15:26:04:451,5.380,0.797,-0.290,-0.079,-13.652,16.700,23.316
15:26:04:478,5.407,0.723,-0.194,-0.068,-13.002,18.070,22.047
15:26:04:505,5.434,-0.455,0.348,-0.486,-12.010,18.275,19.898
15:26:04:532,5.461,0.005,0.091,0.154,-11.622,18.374,18.547
15:26:04:558,5.487,-0.017,0.154,0.054,-10.606,17.366,16.023
15:26:04:583,5.512,0.200,0.095,0.089,-9.952,16.094,14.354
15:26:04:609,5.538,0.396,0.077,0.000,-9.359,14.539,11.998
15:26:04:635,5.564,0.096,0.107,-0.051,-8.713,13.535,10.076
15:26:04:661,5.590,0.052,-0.039,-0.051,-8.136,13.279,8.953
15:26:04:689,5.618,0.045,-0.022,-0.092,-7.441,13.655,7.255
15:26:04:714,5.643,0.015,0.007,-0.024,-7.062,14.154,6.178
15:26:04:8,5.729,0.011,-0.014,0.034,-6.617,14.679,4.732
15:26:04:8,5.729,-0.020,0.032,0.015,-6.501,14.742,3.907
15:26:04:801,5.730,-0.036,0.029,-0.026,-6.448,14.542,2.818
15:26:04:849,5.778,0.043,-0.006,-0.038,-6.314,14.508,1.863
15:26:04:85,5.778,0.025,0.019,0.018,-6.205,14.638,1.369
15:26:04:871,5.800,-0.031,0.028,-0.036,-6.087,14.845,0.790
15:26:04:897,5.826,-0.036,0.004,-0.060,-5.979,15.343,0.467
15:26:04:926,5.855,-0.038,0.007,-0.053,-5.801,15.634,-0.019
15:26:04:95,5.879,-0.050,-0.008,-0.028,-5.645,16.532,-0.504
15:26:05:005,5.934,-0.019,-0.014,-0.033,-5.385,16.890,-0.969
15:26:05:006,5.935,-0.009,-0.007,-0.006,-4.999,17.677,-1.618
15:26:05:029,5.958,-0.027,0.007,-0.013,-4.753,18.104,-1.999
15:26:05:055,5.984,-0.040,0.023,-0.037,-4.444,18.961,-2.474
15:26:05:11,6.039,-0.048,0.006,-0.032,-4.277,19.188,-2.707
15:26:05:111,6.040,-0.063,0.010,-0.030,-3.996,19.631,-3.058
15:26:05:135,6.064,-0.051,0.021,-0.012,-3.578,20.158,-3.577
15:26:05:161,6.090,-0.059,0.005,-0.018,-3.215,20.452,-4.032
15:26:05:186,6.115,-0.050,0.018,-0.026,-2.625,20.907,-4.821
15:26:05:213,6.142,-0.045,0.022,-0.035,-2.125,21.122,-5.492
15:26:05:299,6.228,-0.028,0.021,-0.035,-1.160,21.378,-6.657
15:26:05:299,6.228,-0.080,0.041,-0.085,-0.010,21.632,-7.894
15:26:05:299,6.228,-0.080,0.055,-0.098,0.868,21.857,-8.797
15:26:05:317,6.246,-0.087,0.133,-0.125,2.254,22.052,-10.195
15:26:05:344,6.273,-0.126,0.216,0.098,3.277,22.306,-11.156
15:26:05:371,6.300,-0.177,0.194,0.116,4.972,22.614,-12.720
15:26:05:396,6.325,-0.200,0.178,0.039,6.186,22.726,-13.932
15:26:05:424,6.353,-0.218,0.116,-0.095,8.185,22.868,-16.023
15:26:05:449,6.378,-0.168,0.058,-0.235,10.399,23.247,-18.374
15:26:05:475,6.404,-0.188,0.029,-0.366,11.928,23.783,-20.022
15:26:05:501,6.430,-0.248,0.063,-0.342,14.424,25.706,-22.429
15:26:05:527,6.456,-0.396,-0.030,-0.347,16.524,27.660,-23.965
15:26:05:554,6.483,-0.445,-0.016,-0.304,19.896,31.166,-26.205
15:26:05:58,6.509,-0.486,-0.141,-0.168,23.445,35.636,-27.969
15:26:05:606,6.535,-0.428,-0.284,-0.157,25.829,38.990,-28.688
15:26:05:634,6.563,-0.195,-0.293,-0.184,28.456,44.004,-28.730
15:26:05:66,6.589,-0.208,-0.475,0.019,29.692,47.782,-27.985
15:26:05:685,6.614,-0.455,-0.743,0.403,29.724,51.953,-26.398
15:26:05:711,6.640,-0.425,-0.588,0.378,27.980,53.543,-25.279
15:26:05:796,6.725,-0.289,-0.318,0.353,23.338,54.721,-23.396
15:26:05:797,6.726,-0.232,-0.122,0.527,18.207,56.437,-20.572
15:26:05:797,6.726,-0.197,-0.068,0.582,15.044,58.139,-18.156
15:26:05:817,6.746,-0.167,-0.032,0.674,10.659,60.913,-14.186
15:26:05:843,6.772,-0.101,0.123,0.733,7.488,62.135,-11.602
15:26:05:869,6.798,0.062,0.275,0.709,2.390,62.572,-7.753
15:26:05:926,6.855,0.179,0.434,0.547,-2.233,61.491,-3.402
15:26:05:926,6.855,0.209,0.439,0.423,-4.761,60.043,-0.136
15:26:05:947,6.876,0.305,0.398,0.080,-7.751,56.755,5.289
15:26:05:974,6.902,0.434,0.265,-0.110,-9.224,54.254,9.129
15:26:06:,6.929,0.500,0.147,-0.170,-10.600,51.080,14.598
15:26:06:026,6.955,0.552,-0.027,-0.375,-11.330,49.310,19.154
15:26:06:052,6.981,0.451,-0.260,-0.683,-11.737,49.082,21.396
15:26:06:079,7.008,0.570,-0.264,-0.514,-12.662,50.392,23.428
15:26:06:105,7.034,0.486,-0.191,-0.404,-13.437,52.428,23.867
15:26:06:133,7.062,0.394,-0.114,-0.384,-14.261,55.978,23.460
15:26:06:16,7.089,0.034,0.217,-0.409,-14.287,58.123,22.706
15:26:06:185,7.114,-0.377,0.276,0.097,-13.869,60.100,21.090
15:26:06:241,7.170,0.081,0.117,0.205,-13.405,60.809,19.265
15:26:06:241,7.170,0.030,0.141,0.165,-12.759,60.049,18.028
15:26:06:321,7.250,0.116,0.047,-0.024,-11.688,57.010,16.107
15:26:06:322,7.251,0.492,-0.037,-0.460,-11.229,54.686,14.909
15:26:06:323,7.252,0.370,0.188,-0.028,-10.520,52.370,13.274
15:26:06:341,7.270,0.076,0.002,-0.132,-9.594,51.904,11.552
15:26:06:367,7.296,-0.050,-0.128,-0.048,-8.958,52.534,10.208
15:26:06:394,7.323,0.064,0.016,-0.027,-8.444,53.767,8.226
15:26:06:421,7.350,0.062,0.020,-0.014,-8.258,54.240,7.021
15:26:06:446,7.375,0.060,0.004,-0.035,-8.141,54.438,5.416
15:26:06:472,7.401,0.008,0.018,-0.026,-8.148,54.642,4.018
15:26:06:498,7.427,-0.036,0.022,-0.021,-8.165,54.891,3.111
15:26:06:528,7.457,-0.008,0.009,-0.070,-8.106,55.117,1.876
15:26:06:583,7.512,0.027,0.021,-0.052,-8.029,55.280,1.190
15:26:06:584,7.513,0.004,0.021,-0.052,-7.884,55.615,0.324
15:26:06:585,7.514,0.007,0.006,-0.043,-7.781,55.885,-0.187
15:26:06:634,7.563,-0.017,0.003,-0.035,-7.632,56.896,-0.888
15:26:06:634,7.563,-0.026,-0.014,-0.031,-7.494,57.954,-1.587
15:26:06:746,7.675,-0.028,-0.020,-0.027,-7.373,58.316,-2.076
15:26:06:746,7.675,-0.012,-0.005,0.005,-7.158,59.248,-2.810
15:26:06:747,7.676,-0.019,0.009,-0.020,-7.012,59.464,-3.295
15:26:06:747,7.676,-0.006,0.011,-0.019,-6.763,60.079,-4.041
15:26:06:761,7.690,0.002,0.024,-0.027,-6.500,60.333,-4.792
15:26:06:787,7.716,-0.001,0.016,-0.016,-6.320,60.807,-5.277
15:26:06:814,7.743,0.003,0.001,-0.029,-6.064,61.280,-6.030
15:26:06:84,7.769,-0.025,-0.011,-0.017,-5.916,61.814,-6.553
15:26:06:867,7.796,-0.084,0.013,-0.040,-5.699,62.364,-7.383
15:26:06:893,7.822,-0.074,0.027,-0.021,-5.442,62.729,-7.991
15:26:06:919,7.848,-0.045,0.081,0.030,-4.928,63.126,-9.048
15:26:06:945,7.874,-0.039,0.123,0.034,-4.291,63.725,-10.255
15:26:06:971,7.900,-0.066,0.113,0.027,-3.759,64.033,-11.164
15:26:06:999,7.928,-0.087,0.122,0.048,-2.816,64.697,-12.641
15:26:07:025,7.954,-0.035,0.118,0.120,-2.140,65.062,-13.719
15:26:07:079,8.008,-0.019,0.080,0.154,-1.039,65.787,-15.542
15:26:07:08,8.009,-0.062,0.077,0.120,0.086,65.932,-17.572
15:26:07:103,8.032,-0.101,0.044,0.103,0.848,65.969,-19.038
15:26:07:129,8.058,-0.141,0.011,0.034,2.043,65.969,-21.409
15:26:07:155,8.084,-0.214,0.058,-0.012,2.934,66.147,-23.055
15:26:07:182,8.111,-0.283,0.108,0.141,4.515,66.964,-25.658
15:26:07:237,8.166,-0.320,0.060,0.152,5.971,68.064,-27.529
15:26:07:238,8.167,-0.371,0.144,0.052,8.641,70.200,-30.618
15:26:07:26,8.189,-0.541,0.146,0.267,12.035,73.588,-34.091
15:26:07:288,8.217,-0.485,0.240,0.352,14.814,76.321,-36.343
15:26:07:313,8.242,-0.397,-0.155,0.324,19.678,80.607,-39.339
15:26:07:339,8.268,-0.172,-0.183,0.348,22.704,83.389,-40.566
15:26:07:365,8.294,-0.225,-0.585,0.299,26.888,88.366,-41.213
15:26:07:481,8.410,0.008,-0.856,0.787,27.757,91.902,-40.041
15:26:07:481,8.410,0.296,-0.854,0.680,26.424,96.819,-36.769
15:26:07:481,8.410,0.354,-0.594,0.554,23.181,99.961,-32.914
15:26:07:481,8.410,0.220,-0.299,0.588,19.840,101.562,-29.766
15:26:07:497,8.426,0.318,-0.107,0.597,14.283,103.803,-24.163
15:26:07:581,8.510,0.445,0.021,0.490,10.960,105.398,-20.164
15:26:07:581,8.510,0.388,0.108,0.466,6.617,107.669,-14.173
15:26:07:582,8.511,0.310,0.399,0.253,2.406,108.812,-8.177
15:26:07:601,8.530,0.305,0.431,0.197,-0.324,109.012,-4.042
15:26:07:627,8.556,0.263,0.556,0.025,-3.966,108.817,2.026
15:26:07:654,8.583,0.147,0.668,-0.581,-6.237,108.103,5.926
15:26:07:709,8.638,0.025,0.305,-0.743,-9.423,105.995,11.943
15:26:07:71,8.639,0.095,0.157,-0.609,-11.806,102.848,18.244
15:26:07:732,8.661,-0.033,-0.054,-0.880,-13.005,100.763,22.078
15:26:07:819,8.747,0.001,-0.474,-1.280,-14.599,98.808,25.902
15:26:07:819,8.747,0.098,-0.428,-1.003,-15.240,98.684,26.941
15:26:07:819,8.748,0.106,-0.313,-0.968,-14.971,99.156,26.482
15:26:07:839,8.768,-0.473,0.297,0.657,-14.184,99.148,25.189
15:26:07:865,8.794,0.452,0.157,-0.149,-13.492,99.354,22.972
15:26:07:891,8.820,0.127,0.099,-0.463,-12.659,99.346,20.134
15:26:07:918,8.847,0.125,0.122,-0.494,-12.204,99.275,18.064
15:26:07:972,8.901,-0.029,0.031,-0.358,-11.689,99.864,15.323
15:26:07:972,8.901,-0.010,-0.019,-0.105,-11.329,99.581,14.121
15:26:07:995,8.924,-0.091,-0.067,-0.160,-10.843,98.862,12.716
15:26:08:022,8.951,-0.062,-0.055,-0.155,-10.516,98.840,11.307
15:26:08:048,8.977,-0.026,-0.002,-0.069,-10.432,99.461,10.425
15:26:08:074,9.003,0.098,0.043,-0.038,-10.367,100.503,9.258
15:26:08:1,9.029,0.063,0.036,-0.032,-10.345,100.748,8.673
15:26:08:126,9.055,-0.088,-0.003,-0.052,-10.317,100.629,7.986
15:26:08:241,9.170,-0.065,0.010,-0.086,-10.250,100.637,7.654
15:26:08:241,9.170,0.011,0.019,-0.102,-10.067,100.908,7.342
15:26:08:242,9.171,0.006,0.012,-0.073,-9.938,101.627,7.177
15:26:08:242,9.171,-0.042,-0.018,-0.053,-9.898,102.287,7.109
15:26:08:287,9.216,-0.048,-0.031,-0.029,-9.891,103.421,7.026
15:26:08:288,9.217,-0.015,-0.004,-0.003,-9.925,104.199,6.990
15:26:08:31,9.239,-0.033,-0.008,0.016,-9.906,105.171,6.896
15:26:08:336,9.265,-0.137,-0.010,0.122,-9.914,105.922,6.550
15:26:08:362,9.291,-0.021,-0.015,0.030,-9.821,106.082,6.159
15:26:08:418,9.347,0.139,0.068,-0.141,-9.510,106.204,5.480
15:26:08:419,9.348,0.061,0.043,-0.022,-9.315,106.527,4.947
15:26:08:442,9.371,-0.124,-0.002,0.021,-9.008,107.033,4.002
15:26:08:497,9.426,-0.024,0.008,-0.027,-8.682,107.315,3.327
15:26:08:498,9.427,-0.038,-0.009,0.001,-8.181,107.850,2.175
15:26:08:549,9.478,-0.076,-0.046,0.049,-7.772,108.214,0.890
15:26:08:55,9.479,0.012,-0.025,-0.015,-7.494,108.257,0.004
15:26:08:574,9.503,0.094,0.044,-0.084,-7.052,108.131,-1.302
15:26:08:6,9.529,-0.001,0.027,-0.010,-6.703,108.174,-2.209
15:26:08:625,9.554,-0.061,0.007,0.010,-6.061,108.268,-3.660
15:26:08:68,9.609,-0.052,0.051,-0.038,-5.323,108.290,-5.046
15:26:08:681,9.610,0.012,0.055,-0.069,-4.782,108.354,-5.918
15:26:08:705,9.634,0.019,0.009,-0.006,-3.859,108.504,-7.239
15:26:08:731,9.660,0.019,0.100,0.094,-3.227,108.579,-8.156
15:26:08:757,9.686,0.010,0.178,0.064,-2.235,108.526,-9.633
15:26:08:815,9.744,-0.004,0.120,0.060,-1.031,108.370,-11.334
15:26:08:815,9.744,-0.089,0.091,0.078,-0.030,108.267,-12.599
15:26:08:818,9.747,-0.077,0.145,0.133,1.557,108.022,-14.599
15:26:08:835,9.764,-0.050,0.159,0.149,2.656,107.797,-15.991
15:26:08:863,9.792,-0.040,0.130,0.162,4.441,107.382,-18.240
15:26:08:889,9.818,-0.081,0.092,0.230,5.816,107.255,-19.898
15:26:08:943,9.872,-0.124,0.023,0.286,8.128,107.221,-22.665
15:26:08:944,9.872,-0.156,0.109,0.286,10.724,107.373,-25.843
15:26:08:996,9.925,-0.176,0.241,0.302,12.676,107.845,-28.182
15:26:08:996,9.925,-0.214,0.112,0.496,15.995,109.013,-31.826
15:26:09:019,9.948,-0.172,-0.062,0.513,18.463,109.736,-34.178
15:26:09:047,9.976,-0.030,-0.116,0.313,22.163,110.094,-37.161
15:26:09:099,10.028,-0.210,-0.756,0.461,25.626,110.612,-39.335
15:26:09:151,10.080,0.143,-0.879,0.489,24.468,111.502,-37.827
15:26:09:181,10.110,0.093,-0.643,0.296,22.975,111.259,-36.070
15:26:09:181,10.110,-0.001,-0.504,0.352,19.539,112.109,-32.082
15:26:09:203,10.132,0.100,-0.324,0.406,16.896,112.923,-28.511
15:26:09:231,10.160,0.115,-0.163,0.474,13.043,114.460,-22.492
15:26:09:256,10.185,0.091,0.131,0.365,9.149,115.682,-16.322
15:26:09:308,10.237,0.101,0.224,0.308,6.480,115.869,-12.415
15:26:09:337,10.265,0.068,0.353,0.077,2.347,114.632,-6.709
15:26:09:338,10.266,0.000,0.498,0.091,-0.320,113.195,-2.942
15:26:09:445,10.374,-0.007,0.626,-0.091,-3.931,110.198,2.659
15:26:09:445,10.374,0.055,0.340,-0.576,-6.464,106.626,7.945
15:26:09:471,10.400,0.042,0.334,-0.981,-7.889,104.158,11.497
15:26:09:472,10.401,0.069,-0.025,-1.112,-9.202,100.460,16.700
15:26:09:472,10.401,-0.041,-0.171,-1.262,-9.970,98.230,19.792
15:26:09:493,10.422,-0.020,-0.264,-1.317,-10.815,96.195,22.735
15:26:09:518,10.447,-0.033,-0.311,-1.189,-10.946,95.791,23.273
15:26:09:545,10.474,-0.140,0.234,-0.145,-10.660,96.170,21.880
15:26:09:601,10.530,0.295,0.172,-0.346,-10.100,96.667,19.376
15:26:09:601,10.530,-0.099,0.085,-0.085,-9.689,97.039,17.342
15:26:09:623,10.552,0.027,0.064,-0.281,-9.180,96.864,14.823
15:26:09:65,10.579,0.107,-0.004,-0.157,-8.652,96.387,13.556
15:26:09:675,10.604,-0.078,-0.060,-0.150,-7.963,95.059,11.897
15:26:09:701,10.630,-0.048,-0.006,-0.140,-7.650,94.752,10.816
15:26:09:728,10.657,-0.018,-0.010,-0.100,-7.329,94.114,9.250
15:26:09:754,10.683,0.044,-0.023,-0.076,-7.108,93.901,7.753
15:26:09:78,10.709,0.054,0.011,-0.048,-7.103,94.052,6.845
15:26:09:806,10.735,-0.042,0.042,-0.037,-7.310,93.704,5.563
15:26:09:833,10.762,-0.036,0.012,-0.083,-7.429,93.881,4.731
15:26:09:886,10.815,-0.024,0.025,-0.096,-7.443,93.490,3.651
15:26:09:914,10.843,0.006,0.026,-0.056,-7.456,93.720,2.853
15:26:09:941,10.870,-0.036,0.036,-0.078,-7.441,93.377,2.424
15:26:09:941,10.870,-0.015,-0.002,-0.055,-7.307,93.823,1.782
15:26:09:995,10.924,-0.019,-0.015,-0.035,-7.126,94.010,1.454
15:26:09:995,10.924,-0.022,-0.028,-0.054,-6.920,94.675,1.003
15:26:10:016,10.945,-0.012,-0.019,-0.021,-6.857,94.969,0.642
15:26:10:073,11.002,-0.027,-0.001,0.006,-6.836,95.369,0.430
15:26:10:073,11.002,-0.023,-0.001,-0.008,-6.749,95.405,0.065
15:26:10:125,11.054,-0.036,0.001,-0.011,-6.702,95.671,-0.238
15:26:10:125,11.054,-0.029,0.033,0.006,-6.573,95.574,-0.808
15:26:10:148,11.077,-0.013,0.015,-0.006,-6.386,95.842,-1.275
15:26:10:175,11.104,-0.020,0.002,0.005,-6.024,95.973,-2.155
15:26:10:201,11.130,-0.036,0.009,0.027,-5.636,96.359,-3.200
15:26:10:227,11.156,-0.045,0.013,0.018,-5.339,96.358,-4.002
15:26:10:252,11.181,-0.028,0.015,-0.025,-4.736,96.442,-5.352
15:26:10:279,11.208,-0.034,0.026,-0.030,-4.292,96.337,-6.288
15:26:10:332,11.261,-0.019,0.051,0.005,-3.556,96.429,-7.687
15:26:10:391,11.320,0.033,0.093,0.026,-2.770,96.444,-9.090
15:26:10:391,11.320,0.007,0.086,0.016,-2.174,96.505,-10.102
15:26:10:391,11.320,-0.046,0.130,0.055,-1.194,96.475,-11.709
15:26:10:411,11.340,-0.019,0.161,0.094,-0.449,96.519,-12.867
15:26:10:437,11.366,-0.013,0.135,0.139,0.857,96.342,-14.839
15:26:10:463,11.392,-0.053,0.116,0.164,2.358,95.967,-17.052
15:26:10:489,11.418,-0.123,0.116,0.143,3.388,95.666,-18.534
15:26:10:515,11.444,-0.162,0.111,0.143,5.185,95.247,-21.115
15:26:10:541,11.470,-0.188,0.138,0.296,6.576,95.295,-22.975
15:26:10:569,11.498,-0.237,0.041,0.366,9.139,95.729,-26.020
15:26:10:595,11.524,-0.233,0.104,0.364,11.111,96.215,-28.313
15:26:10:621,11.549,-0.251,0.191,0.408,14.446,97.311,-32.150
15:26:10:646,11.575,-0.245,0.154,0.428,18.234,98.760,-36.004
15:26:10:673,11.602,-0.220,-0.118,0.475,21.061,99.770,-38.318
15:26:10:699,11.628,-0.029,-0.262,0.354,24.853,101.075,-40.578
15:26:10:725,11.654,-0.134,-0.599,-0.005,27.224,102.170,-41.378
15:26:10:753,11.682,-0.044,-0.940,0.493,27.602,104.133,-40.209
15:26:10:778,11.707,0.212,-0.775,0.436,26.030,105.129,-38.062
15:26:10:805,11.733,0.160,-0.693,0.234,22.785,106.454,-34.184
15:26:10:83,11.759,0.043,-0.411,0.462,18.475,108.346,-28.196
15:26:10:857,11.786,0.109,-0.231,0.529,15.492,109.885,-23.628
15:26:10:883,11.812,0.341,0.129,0.367,11.050,111.940,-16.804
15:26:10:911,11.840,0.198,0.270,0.292,8.182,112.880,-12.616
15:26:10:936,11.865,0.176,0.393,-0.035,3.911,112.444,-6.822
15:26:10:961,11.890,0.139,0.381,0.032,-0.442,110.243,-1.324
15:26:10:99,11.919,0.108,0.498,0.010,-3.035,108.115,2.393
15:26:10:991,11.920,0.090,0.473,-0.290,-5.908,104.903,7.717
15:26:11:043,11.972,0.037,0.420,-0.877,-7.537,102.641,11.187
15:26:11:044,11.973,0.061,0.046,-1.057,-8.987,99.157,16.431
15:26:11:066,11.995,0.115,-0.257,-1.148,-10.107,96.403,21.135
15:26:11:094,12.023,0.138,-0.261,-1.075,-11.101,95.475,23.382
15:26:11:119,12.048,0.046,-0.348,-0.994,-11.543,94.794,25.255
15:26:11:145,12.074,-0.005,-0.375,-0.949,-11.008,94.419,25.476
15:26:11:171,12.100,-0.387,-0.011,-0.448,-10.066,94.026,24.111
15:26:11:2,12.129,-0.121,0.129,0.158,-9.606,94.050,22.698
15:26:11:253,12.182,0.111,0.236,0.030,-9.247,93.982,20.375
15:26:11:254,12.183,-0.046,-0.037,-0.562,-8.645,93.204,17.689
15:26:11:276,12.205,0.105,0.160,-0.515,-8.392,92.799,16.109
15:26:11:303,12.232,0.203,-0.001,-0.114,-7.747,92.295,14.460
15:26:11:329,12.258,-0.070,-0.080,-0.120,-7.364,91.968,13.504
15:26:11:357,12.286,-0.092,-0.049,-0.130,-7.061,91.937,11.913
15:26:11:383,12.312,-0.029,-0.007,-0.075,-7.000,92.350,10.387
15:26:11:41,12.339,0.071,0.001,-0.049,-6.966,92.689,9.449
15:26:11:434,12.363,0.007,0.020,-0.019,-6.971,93.172,8.123
15:26:11:46,12.389,-0.026,0.017,0.000,-7.082,93.242,7.273
15:26:11:488,12.417,-0.037,0.000,-0.099,-7.166,93.021,6.128
15:26:11:514,12.443,0.006,0.016,-0.142,-7.180,92.834,5.540
15:26:11:539,12.468,-0.019,0.030,-0.074,-7.186,92.857,4.939
15:26:11:565,12.494,-0.021,0.013,-0.057,-7.204,92.929,4.642
15:26:11:592,12.521,-0.024,0.022,-0.068,-7.208,92.992,4.514
15:26:11:618,12.547,-0.011,-0.010,-0.046,-7.134,93.136,4.240
15:26:11:644,12.573,-0.041,-0.021,0.009,-7.026,93.398,4.082
15:26:11:67,12.599,-0.031,-0.008,0.009,-6.905,93.945,3.638
15:26:11:696,12.625,-0.005,0.008,-0.015,-6.766,94.401,3.043
15:26:11:722,12.651,-0.012,0.005,-0.021,-6.651,94.639,2.591
15:26:11:751,12.680,-0.023,0.004,-0.021,-6.469,94.933,1.858
15:26:11:776,12.705,-0.025,0.007,-0.012,-6.288,95.149,1.304
15:26:11:801,12.730,-0.019,0.018,-0.003,-5.945,95.481,0.342
15:26:11:828,12.757,-0.027,0.006,0.020,-5.643,95.692,-0.409
15:26:11:854,12.783,0.008,-0.001,0.012,-5.129,95.916,-1.679
15:26:11:882,12.811,-0.051,-0.001,-0.026,-4.507,96.065,-3.078
15:26:11:907,12.836,-0.018,0.006,-0.012,-4.025,96.175,-4.043
15:26:11:933,12.862,-0.057,0.039,-0.025,-3.247,96.269,-5.532
15:26:11:959,12.888,-0.051,0.042,-0.046,-2.671,96.274,-6.512
15:26:11:986,12.915,-0.037,0.023,-0.040,-1.699,96.448,-7.951
15:26:12:013,12.942,-0.013,0.131,0.029,-0.743,96.658,-9.320
15:26:12:038,12.967,0.020,0.196,0.089,-0.048,96.811,-10.251
15:26:12:065,12.994,0.014,0.172,0.159,1.186,96.931,-11.911
15:26:12:091,13.020,-0.084,0.177,0.123,2.132,96.858,-13.177
15:26:12:116,13.045,-0.077,0.145,0.159,3.740,96.595,-15.298
15:26:12:143,13.072,-0.129,0.125,0.115,4.965,96.392,-16.843
15:26:12:169,13.098,-0.191,0.126,0.158,7.052,96.278,-19.386
15:26:12:197,13.126,-0.251,0.116,0.301,9.590,96.698,-22.165
15:26:12:222,13.151,-0.252,0.050,0.271,11.627,97.329,-24.236
15:26:12:248,13.177,-0.292,0.149,0.335,15.097,98.708,-27.512
15:26:12:274,13.203,-0.317,0.177,0.423,17.702,99.958,-29.894
15:26:12:329,13.258,-0.259,0.067,0.511,21.762,101.660,-33.410
15:26:12:33,13.259,-0.211,-0.122,0.536,24.291,102.517,-35.390
15:26:12:354,13.283,-0.325,-0.356,0.182,27.301,102.921,-37.656
15:26:12:38,13.309,-0.069,-0.755,0.503,27.959,103.215,-37.908
15:26:12:406,13.335,0.182,-0.815,0.365,26.961,103.057,-37.085
15:26:12:431,13.360,0.062,-0.723,0.353,24.062,102.694,-34.473
15:26:12:458,13.387,0.016,-0.595,0.459,21.277,102.520,-31.728
15:26:12:484,13.413,-0.009,-0.440,0.510,16.686,102.018,-26.363
15:26:12:51,13.439,0.006,0.042,0.309,12.164,101.189,-20.348
15:26:12:537,13.466,-0.120,0.163,0.253,9.601,100.440,-16.330
15:26:12:563,13.492,-0.119,0.315,-0.001,6.280,98.555,-10.253
15:26:12:589,13.518,-0.271,0.331,0.002,4.025,96.748,-6.348
15:26:12:615,13.544,-0.305,0.412,-0.259,0.721,92.953,-0.734
15:26:12:644,13.573,-0.293,0.444,-0.627,-1.975,88.519,4.583
15:26:12:67,13.599,-0.294,0.338,-0.833,-3.462,85.932,7.929
15:26:12:694,13.623,-0.235,0.176,-1.046,-5.977,83.312,12.510
15:26:12:724,13.653,-0.046,0.038,-1.113,-8.000,82.604,15.102
15:26:12:806,13.735,0.617,-0.129,-0.910,-11.819,83.319,17.872
15:26:12:807,13.736,0.438,-0.305,-0.723,-14.160,85.253,18.953
15:26:12:807,13.736,0.371,-0.104,-0.639,-17.198,88.542,19.295
15:26:12:827,13.756,0.439,-0.225,-0.690,-18.376,91.094,18.433
15:26:12:854,13.783,0.260,0.181,-0.438,-18.502,92.140,17.342
15:26:12:878,13.807,-0.084,0.143,0.550,-17.704,91.849,15.797
15:26:12:904,13.833,0.846,0.059,0.665,-17.446,90.964,15.256
15:26:12:93,13.859,0.231,0.274,-0.656,-16.594,89.329,14.184
15:26:12:957,13.886,0.240,0.360,-0.164,-16.222,88.374,12.052
15:26:12:983,13.912,0.159,-0.025,0.001,-15.280,87.761,10.969
15:26:13:038,13.967,-0.260,-0.208,-0.246,-13.913,87.041,9.290
15:26:13:039,13.968,0.026,0.045,-0.286,-13.220,86.838,8.270
15:26:13:063,13.992,0.093,-0.061,-0.010,-12.271,87.759,6.945
15:26:13:12,14.049,0.040,-0.013,0.062,-11.959,88.291,6.185
15:26:13:12,14.049,-0.066,0.033,-0.067,-11.876,88.419,5.353
15:26:13:121,14.050,-0.056,0.002,-0.101,-11.751,88.045,4.751
15:26:13:171,14.100,-0.083,0.005,-0.097,-11.579,88.169,4.496
15:26:13:171,14.100,0.100,0.032,-0.075,-11.303,88.267,4.390
15:26:13:221,14.150,-0.071,0.010,-0.058,-11.203,88.438,4.381
15:26:13:248,14.177,-0.104,-0.037,-0.033,-11.028,88.847,4.248
15:26:13:249,14.178,-0.070,-0.001,-0.005,-10.854,89.676,3.887
15:26:13:33,14.259,-0.046,0.011,-0.019,-10.691,90.101,3.514
15:26:13:331,14.260,0.007,0.010,-0.017,-10.340,91.091,2.727
15:26:13:331,14.260,0.015,0.004,-0.043,-10.031,91.638,2.137
15:26:13:351,14.280,-0.006,-0.005,-0.030,-9.571,92.457,1.264
15:26:13:376,14.305,-0.031,-0.005,-0.042,-9.262,92.874,0.703
15:26:13:403,14.332,-0.009,-0.004,-0.054,-8.782,93.485,-0.083
15:26:13:429,14.358,-0.028,-0.039,-0.062,-8.330,93.902,-0.770
15:26:13:456,14.385,-0.016,-0.025,-0.094,-8.098,94.175,-1.141
15:26:13:482,14.411,0.008,-0.007,-0.057,-7.816,94.306,-1.502
15:26:13:508,14.437,-0.028,-0.011,-0.007,-7.669,94.562,-1.725
15:26:13:565,14.494,-0.014,0.018,-0.024,-7.471,94.695,-2.133
15:26:13:565,14.494,-0.007,0.023,-0.020,-7.257,94.759,-2.651
15:26:13:586,14.515,-0.033,0.011,0.009,-7.093,94.930,-3.080
15:26:13:613,14.542,-0.066,0.007,0.017,-6.770,94.962,-4.032
15:26:13:64,14.569,-0.020,0.040,-0.007,-6.491,95.041,-4.817
15:26:13:666,14.595,-0.004,0.049,-0.034,-5.985,95.048,-6.132
15:26:13:692,14.621,-0.011,0.008,-0.047,-5.575,95.124,-7.057
15:26:13:719,14.648,-0.035,0.028,-0.022,-4.897,95.164,-8.438
15:26:13:746,14.675,0.010,0.112,-0.003,-4.227,95.459,-9.734
15:26:13:772,14.701,0.029,0.126,0.021,-3.733,95.657,-10.572
15:26:13:799,14.728,0.012,0.097,0.089,-2.887,95.904,-11.888
15:26:13:824,14.753,-0.040,0.091,0.069,-2.267,95.808,-12.853
15:26:13:851,14.779,-0.033,0.093,0.097,-1.267,95.669,-14.474
15:26:13:877,14.806,-0.052,0.090,0.102,-0.227,95.372,-16.225
15:26:13:931,14.860,-0.040,0.093,0.102,0.571,95.230,-17.587
15:26:13:931,14.860,-0.030,0.059,0.095,1.911,95.308,-19.876
15:26:13:954,14.883,-0.146,0.166,0.253,2.884,95.599,-21.524
15:26:14:01,14.939,-0.158,0.153,0.420,4.736,96.415,-24.210
15:26:14:01,14.939,-0.135,0.216,0.428,6.459,97.387,-26.255
15:26:14:033,14.962,-0.151,0.405,0.297,9.579,99.827,-29.805
15:26:14:061,14.990,-0.177,0.110,0.496,13.323,103.037,-33.926
15:26:14:114,15.043,-0.167,0.144,0.411,15.740,104.506,-36.569
15:26:14:115,15.044,-0.152,-0.216,0.349,19.462,106.128,-39.645
15:26:14:14,15.069,-0.197,-0.090,-0.113,21.744,106.859,-41.197
15:26:14:165,15.094,-0.140,-0.253,-0.037,24.911,107.851,-43.020
15:26:14:19,15.119,0.048,-0.446,-0.072,26.117,107.840,-43.219
15:26:14:216,15.145,0.120,-0.618,0.094,25.857,107.625,-42.523
15:26:14:243,15.172,0.069,-0.705,0.135,24.145,106.437,-40.859
15:26:14:269,15.198,0.185,-0.956,0.321,22.405,106.004,-38.701
15:26:14:295,15.224,0.053,-0.607,0.386,18.327,104.850,-34.544
15:26:14:321,15.250,-0.099,-0.434,0.337,15.139,103.747,-31.223
15:26:14:349,15.278,-0.180,-0.343,0.409,10.838,102.650,-25.196
15:26:14:374,15.303,-0.178,-0.120,0.389,7.195,102.090,-18.569
15:26:14:431,15.360,-0.171,0.128,0.360,4.720,101.649,-14.030
15:26:14:431,15.360,-0.108,0.497,0.094,1.079,100.785,-7.011
15:26:14:453,15.382,-0.138,0.707,0.066,-1.224,100.159,-2.223
15:26:14:479,15.408,-0.063,0.783,-0.212,-4.560,98.636,4.821
15:26:14:505,15.434,0.114,0.697,-0.716,-7.705,96.157,11.490
15:26:14:535,15.464,0.161,0.345,-1.030,-9.533,94.151,15.761
15:26:14:558,15.487,0.194,0.001,-1.060,-12.076,91.621,21.508
15:26:14:586,15.515,0.061,-0.222,-1.051,-13.665,90.735,24.510
15:26:14:612,15.541,0.125,-0.397,-0.900,-15.478,91.117,27.061
15:26:14:637,15.566,0.247,-0.357,-0.766,-16.258,92.852,27.041
15:26:14:663,15.592,0.248,-0.268,-0.694,-16.017,94.173,25.969
15:26:14:689,15.618,0.132,0.044,-0.490,-14.881,95.807,23.565
15:26:14:718,15.647,-0.180,0.314,0.614,-14.241,96.061,21.963
15:26:14:742,15.671,0.189,0.030,-0.029,-13.895,96.828,20.059
15:26:14:768,15.697,0.112,0.172,-0.250,-13.623,97.001,18.664
15:26:14:794,15.723,-0.059,0.139,-0.535,-13.264,96.405,16.466
15:26:14:821,15.750,0.159,0.111,-0.241,-12.508,95.535,14.597
15:26:14:847,15.776,0.178,-0.027,-0.207,-11.702,94.934,13.806
15:26:14:873,15.802,-0.017,-0.104,-0.087,-10.799,94.804,12.594
15:26:14:901,15.830,-0.031,-0.052,-0.021,-10.484,95.062,11.745
15:26:14:925,15.854,-0.053,-0.012,-0.052,-10.283,95.242,10.523
15:26:14:953,15.882,-0.037,0.011,-0.149,-10.203,95.276,9.403
15:26:14:979,15.908,-0.029,0.032,-0.072,-10.095,95.403,8.724
15:26:15:004,15.933,-0.072,-0.023,-0.042,-9.915,95.670,7.733
15:26:15:031,15.960,-0.008,0.005,-0.083,-9.855,95.820,7.117
15:26:15:059,15.988,-0.029,0.032,-0.079,-9.819,96.180,6.301
15:26:15:085,16.014,-0.007,0.023,-0.090,-9.739,96.695,5.541
15:26:15:111,16.040,-0.027,0.015,-0.094,-9.643,97.099,5.159
15:26:15:135,16.064,-0.014,0.012,-0.077,-9.492,97.771,4.558
15:26:15:164,16.092,-0.039,-0.010,-0.054,-9.332,98.193,4.327
15:26:15:19,16.119,-0.055,-0.022,-0.025,-9.092,98.831,4.150
15:26:15:215,16.144,-0.055,-0.013,-0.006,-8.952,99.477,4.019
15:26:15:24,16.169,-0.029,-0.015,-0.001,-8.776,100.495,3.703
15:26:15:267,16.196,-0.013,0.007,-0.021,-8.599,101.418,3.243
15:26:15:293,16.222,0.000,0.008,-0.022,-8.436,101.984,2.881
15:26:15:319,16.248,-0.034,0.015,-0.016,-8.142,102.814,2.256
15:26:15:347,16.276,-0.030,0.019,-0.024,-7.917,103.363,1.759
15:26:15:373,16.302,-0.073,-0.018,0.004,-7.515,104.207,0.913
15:26:15:398,16.327,-0.028,0.004,0.008,-7.049,104.853,-0.038
15:26:15:424,16.353,0.003,0.017,-0.030,-6.672,105.124,-0.697
15:26:15:451,16.380,-0.019,-0.008,-0.042,-6.021,105.312,-1.739
15:26:15:477,16.406,-0.016,0.002,-0.039,-5.590,105.384,-2.449
15:26:15:506,16.435,-0.036,0.023,-0.035,-4.870,105.432,-3.495
15:26:15:506,16.435,-0.072,0.031,-0.027,-4.318,105.501,-4.199
15:26:15:558,16.487,-0.061,0.026,-0.043,-3.441,105.586,-5.238
15:26:15:559,16.488,-0.014,0.027,-0.062,-2.525,105.721,-6.224
15:26:15:613,16.542,0.008,0.041,-0.035,-1.911,105.914,-6.849
15:26:15:613,16.542,-0.049,0.076,-0.008,-0.950,106.198,-7.826
15:26:15:634,16.563,-0.057,0.132,0.036,-0.268,106.406,-8.506
15:26:15:661,16.590,-0.043,0.131,0.054,0.850,106.777,-9.649
15:26:15:686,16.615,-0.062,0.109,0.088,2.147,107.112,-11.043
15:26:15:742,16.671,-0.055,0.118,0.079,2.865,107.222,-11.926
15:26:15:742,16.671,-0.018,0.082,0.103,4.251,107.314,-13.623
15:26:15:765,16.694,0.006,0.039,0.061,5.319,107.370,-14.908
15:26:15:879,16.808,-0.043,0.015,0.054,6.999,107.529,-16.989
15:26:15:88,16.809,-0.159,0.102,0.104,8.144,107.672,-18.460
15:26:15:881,16.810,-0.179,0.101,0.229,10.090,108.510,-20.821
15:26:15:881,16.810,-0.236,0.102,0.332,12.677,109.898,-23.458
15:26:15:927,16.856,-0.317,0.211,0.446,14.632,111.194,-25.416
15:26:15:928,16.857,-0.165,0.130,0.502,18.046,113.577,-28.478
15:26:15:949,16.878,-0.163,-0.055,0.470,20.436,115.141,-30.396
15:26:15:978,16.907,-0.074,-0.320,0.378,23.888,117.507,-32.592
15:26:16:003,16.932,-0.167,-0.550,-0.150,26.308,119.636,-33.665
15:26:16:028,16.957,-0.032,-0.581,0.138,26.912,121.019,-33.364
15:26:16:054,16.983,0.226,-0.903,0.450,24.830,121.922,-31.587
15:26:16:081,17.010,0.110,-0.790,0.251,22.285,121.994,-29.862
15:26:16:136,17.065,0.017,-0.637,0.468,17.083,122.065,-26.014
15:26:16:136,17.065,0.162,-0.240,0.458,11.231,122.113,-20.716
15:26:16:16,17.089,0.240,-0.047,0.434,7.523,122.350,-16.766
15:26:16:185,17.114,0.171,0.302,0.319,2.415,122.421,-10.618
15:26:16:212,17.141,0.156,0.537,0.188,-0.762,121.933,-6.251
15:26:16:238,17.167,0.184,0.682,0.065,-5.760,120.285,0.570
15:26:16:264,17.193,0.828,1.134,-0.638,-8.821,118.554,5.216
15:26:16:319,17.248,-0.167,0.517,-0.569,-11.374,113.960,11.494
15:26:16:32,17.249,0.095,0.297,-1.024,-14.496,109.403,17.441
15:26:16:345,17.274,0.148,-0.150,-1.009,-15.954,107.742,21.000
15:26:16:37,17.299,-0.072,-0.362,-0.829,-18.188,108.265,24.606
15:26:16:395,17.324,0.149,-0.426,-0.793,-19.552,110.967,25.524
15:26:16:422,17.351,0.125,-0.317,-0.652,-20.660,115.279,25.049
15:26:16:478,17.407,0.098,-0.196,-0.565,-20.712,119.422,23.335
15:26:16:478,17.407,0.026,-0.090,-0.574,-20.244,121.645,21.852
15:26:16:5,17.429,-0.737,-0.099,-0.125,-19.266,123.837,19.531
15:26:16:527,17.456,0.000,0.208,0.021,-19.274,125.373,17.785
15:26:16:555,17.484,0.347,0.281,-0.169,-18.769,128.191,15.393
15:26:16:61,17.539,-0.566,0.215,-0.567,-18.196,129.454,13.680
15:26:16:61,17.539,0.068,-0.001,-0.138,-16.913,129.730,11.575
15:26:16:661,17.590,-0.053,-0.163,-0.129,-15.457,128.810,10.179
15:26:16:662,17.591,-0.142,-0.084,-0.273,-14.875,128.248,9.428
15:26:16:684,17.613,-0.078,0.003,-0.099,-14.348,128.405,8.419
15:26:16:711,17.640,0.014,-0.029,-0.032,-14.008,128.827,7.813
15:26:16:737,17.666,0.038,0.017,-0.070,-13.752,129.098,7.117
15:26:16:764,17.693,0.002,0.018,-0.119,-13.611,128.924,6.503
15:26:16:789,17.718,-0.038,-0.011,-0.093,-13.480,128.929,6.079
15:26:16:842,17.771,-0.045,0.003,-0.012,-13.285,129.270,5.419
15:26:16:871,17.800,-0.049,0.003,-0.030,-13.200,130.446,4.936
15:26:16:871,17.800,-0.034,0.009,-0.081,-13.077,131.051,4.239
15:26:16:921,17.850,-0.030,0.010,-0.084,-13.008,132.344,3.838
15:26:16:951,17.880,-0.042,0.025,-0.083,-12.870,133.221,3.207
15:26:16:951,17.880,-0.031,0.023,-0.094,-12.581,135.020,2.463
15:26:17:002,17.931,-0.035,0.005,-0.055,-12.408,135.904,2.121
15:26:17:003,17.932,-0.076,-0.004,-0.009,-12.283,138.257,1.976
15:26:17:028,17.957,-0.098,-0.044,0.028,-12.176,139.309,1.901
15:26:17:051,17.980,-0.116,-0.050,0.006,-12.004,141.633,1.766
15:26:17:107,18.036,-0.060,-0.028,0.039,-11.910,143.352,1.538
15:26:17:108,18.037,-0.006,-0.002,-0.009,-11.758,144.861,1.392
15:26:17:189,18.118,0.023,-0.018,-0.042,-11.562,146.462,1.123
15:26:17:189,18.118,-0.015,-0.016,0.042,-11.483,148.140,0.943
15:26:17:19,18.119,-0.055,0.021,-0.031,-11.452,148.999,0.714
15:26:17:209,18.138,0.043,0.013,-0.121,-11.296,150.468,0.455
15:26:17:235,18.164,0.067,0.002,-0.106,-11.138,151.470,0.143
15:26:17:262,18.190,0.011,0.033,0.015,-10.920,153.581,-0.475
15:26:17:288,18.217,-0.044,0.038,0.033,-10.728,154.597,-0.962
15:26:17:314,18.243,-0.071,0.002,0.007,-10.383,156.366,-1.824
15:26:17:343,18.272,-0.021,0.013,-0.025,-9.972,158.089,-2.787
15:26:17:367,18.296,0.003,0.033,0.008,-9.619,159.003,-3.498
15:26:17:422,18.351,0.008,0.033,0.010,-9.034,160.578,-4.741
15:26:17:422,18.351,-0.037,0.043,0.023,-8.631,161.383,-5.712
15:26:17:446,18.375,-0.006,0.048,0.016,-7.982,163.115,-7.358
15:26:17:472,18.401,0.074,0.073,-0.006,-7.179,164.495,-9.204
15:26:17:498,18.427,0.173,0.135,-0.010,-6.585,165.781,-10.538
15:26:17:553,18.482,0.258,0.142,-0.045,-5.672,166.426,-12.692
15:26:17:554,18.483,0.260,0.134,0.005,-5.063,166.586,-14.267
15:26:17:635,18.564,0.205,0.133,0.100,-4.226,166.057,-16.924
15:26:17:636,18.564,0.114,0.123,0.130,-3.638,165.719,-18.912
15:26:17:637,18.565,0.095,0.168,0.246,-2.713,165.833,-22.288
15:26:17:655,18.584,0.118,0.172,0.226,-1.288,167.560,-26.176
15:26:17:711,18.640,0.189,0.285,0.307,0.200,169.750,-29.060
15:26:17:711,18.640,0.421,0.223,0.346,3.712,174.101,-33.654
15:26:17:765,18.694,0.388,0.095,0.334,6.943,177.296,-36.555
15:26:17:765,18.694,0.514,-0.078,0.240,12.696,-178.343,-40.453
15:26:17:786,18.715,-0.300,-0.599,0.136,18.255,-174.499,-43.271
15:26:17:813,18.742,0.551,-0.818,0.182,20.955,-171.250,-43.534
15:26:17:839,18.768,0.742,-0.971,-0.237,20.555,-167.498,-41.337
15:26:17:928,18.857,0.493,-0.836,-0.403,19.020,-165.674,-39.610
15:26:17:929,18.858,0.497,-0.663,-0.376,15.087,-164.332,-35.569
15:26:17:929,18.858,0.509,-0.422,-0.239,11.535,-164.037,-31.959
15:26:17:93,18.859,0.555,-0.232,-0.205,6.129,-163.760,-25.281
15:26:17:945,18.874,0.365,0.058,-0.224,1.836,-163.084,-18.160
15:26:18:029,18.958,0.381,0.262,-0.180,-0.818,-162.696,-13.471
15:26:18:03,18.959,0.038,0.546,-0.263,-4.882,-163.275,-6.415
15:26:18:03,18.959,0.062,0.532,-0.269,-7.469,-164.222,-1.753
15:26:18:08,19.009,-0.074,0.639,-0.291,-10.889,-166.313,5.010
15:26:18:08,19.009,-0.499,0.591,-0.305,-13.727,-169.395,11.361
15:26:18:132,19.061,-0.955,0.382,-0.293,-15.252,-171.980,15.617
15:26:18:132,19.061,-1.193,-0.110,-0.313,-16.639,-176.033,21.455
15:26:18:154,19.083,-1.306,-0.458,-0.224,-17.055,-178.343,24.733
15:26:18:211,19.140,-1.126,-0.466,-0.197,-17.155,179.750,27.510
15:26:18:212,19.141,-1.044,-0.356,-0.146,-16.547,179.773,27.468
15:26:18:233,19.162,-0.950,-0.129,0.190,-14.933,-179.410,25.355
15:26:18:259,19.188,-0.143,0.101,0.252,-14.373,-178.200,22.490
15:26:18:285,19.214,0.005,0.198,-0.167,-14.413,-176.982,20.448
15:26:18:312,19.241,-0.703,0.132,0.011,-14.300,-176.426,17.386
15:26:18:338,19.267,-0.368,0.229,-0.328,-13.949,-176.484,15.946
15:26:18:424,19.353,-0.153,-0.099,-0.302,-12.929,-177.209,14.951
15:26:18:425,19.354,-0.159,-0.123,-0.003,-12.601,-177.581,14.099
15:26:18:425,19.354,-0.060,-0.028,0.033,-12.683,-177.498,13.455
15:26:18:445,19.374,-0.125,-0.006,0.069,-12.884,-177.156,12.556
15:26:18:47,19.399,-0.129,-0.003,-0.024,-13.007,-176.856,12.120
15:26:18:496,19.425,-0.091,0.016,-0.116,-13.211,-175.872,11.629
15:26:18:521,19.450,0.011,-0.017,0.000,-13.401,-174.960,11.306
15:26:18:548,19.477,-0.034,-0.003,-0.041,-13.758,-174.094,10.850
15:26:18:603,19.532,-0.119,0.029,0.040,-13.989,-173.542,10.547
15:26:18:604,19.533,-0.002,0.006,0.003,-14.043,-172.740,10.270
15:26:18:685,19.614,0.000,0.006,-0.026,-14.120,-171.389,9.796
15:26:18:685,19.614,-0.047,0.011,-0.023,-14.210,-169.750,9.456
15:26:18:686,19.615,-0.021,0.005,-0.029,-14.196,-168.409,8.891
15:26:18:705,19.634,-0.009,0.008,-0.017,-14.056,-166.277,8.201
15:26:18:731,19.660,-0.021,0.002,-0.027,-13.921,-165.275,7.719
15:26:18:758,19.687,-0.011,-0.003,-0.002,-13.649,-163.326,7.032
15:26:18:785,19.714,-0.021,-0.001,0.016,-13.427,-162.491,6.598
15:26:18:811,19.740,0.016,-0.005,0.047,-13.077,-160.902,5.985
15:26:18:866,19.795,-0.075,-0.007,-0.050,-12.879,-160.469,5.597
15:26:18:866,19.795,-0.095,0.001,-0.113,-12.539,-159.675,5.032
15:26:18:89,19.819,-0.022,0.022,-0.086,-12.165,-158.517,4.440
15:26:18:915,19.844,-0.007,0.003,-0.044,-11.911,-157.848,4.025
15:26:18:942,19.871,-0.003,-0.021,0.059,-11.618,-156.705,3.370
15:26:18:968,19.897,-0.033,0.013,0.102,-11.489,-156.501,2.963
15:26:18:997,19.926,-0.071,0.022,-0.010,-11.278,-156.067,2.422
15:26:19:049,19.978,-0.035,0.010,-0.125,-10.913,-155.804,1.841
15:26:19:05,19.979,0.011,0.016,-0.091,-10.604,-155.172,1.430
15:26:19:075,20.004,0.006,0.028,0.022,-10.132,-154.783,0.664
15:26:19:129,20.058,0.010,0.013,0.079,-9.831,-154.217,0.010
15:26:19:181,20.110,-0.066,-0.017,-0.074,-9.140,-153.844,-2.065
15:26:19:182,20.111,-0.018,0.012,-0.190,-8.604,-153.221,-3.532
15:26:19:205,20.134,0.006,0.023,-0.058,-8.113,-152.781,-5.124
15:26:19:231,20.160,-0.074,0.038,-0.075,-7.803,-152.747,-6.186
15:26:19:256,20.185,-0.088,0.035,-0.140,-7.181,-152.441,-7.682
15:26:19:283,20.212,0.030,0.039,-0.106,-6.665,-152.195,-8.660
15:26:19:309,20.238,0.084,0.102,0.012,-5.844,-151.985,-10.167
15:26:19:337,20.266,0.086,0.132,0.021,-5.059,-152.338,-11.748
15:26:19:392,20.321,0.109,0.112,0.006,-4.500,-152.662,-12.908
15:26:19:392,20.321,0.134,0.116,-0.054,-3.591,-153.397,-14.841
15:26:19:414,20.343,0.122,0.123,-0.066,-2.945,-153.992,-16.267
15:26:19:442,20.371,0.119,0.120,-0.062,-1.847,-154.796,-18.671
15:26:19:467,20.396,0.262,0.159,-0.029,-0.974,-155.055,-20.437
15:26:19:493,20.422,0.335,0.129,0.029,0.797,-154.991,-23.407
15:26:19:58,20.509,0.444,0.192,0.039,2.980,-154.397,-27.011
15:26:19:58,20.509,0.262,0.270,-0.095,4.813,-153.680,-29.659
15:26:19:58,20.509,0.425,0.172,-0.066,8.159,-152.061,-33.584
15:26:19:598,20.527,0.446,0.083,-0.098,10.705,-151.219,-35.872
15:26:19:624,20.553,0.313,-0.306,-0.172,14.188,-150.924,-38.921
15:26:19:65,20.579,0.243,-0.526,0.124,15.959,-151.071,-40.343
15:26:19:677,20.605,0.530,-0.831,-0.130,16.520,-150.787,-40.134
15:26:19:705,20.634,0.388,-0.767,-0.120,15.340,-151.500,-38.170
15:26:19:73,20.659,0.329,-0.628,-0.091,14.216,-152.274,-35.915
15:26:19:757,20.686,0.338,-0.474,-0.010,11.724,-153.743,-31.138
15:26:19:782,20.711,0.495,-0.337,0.058,9.934,-154.542,-27.085
15:26:19:808,20.737,0.415,-0.081,0.066,7.238,-155.689,-20.339
15:26:19:834,20.763,0.373,0.202,0.133,4.498,-157.186,-13.301
15:26:19:921,20.850,0.293,0.323,0.160,2.512,-158.929,-8.714
15:26:19:921,20.850,0.070,0.517,0.301,-0.639,-163.649,-2.054
15:26:19:921,20.850,-0.084,0.565,0.443,-2.643,-167.772,2.250
15:26:19:941,20.870,-0.386,0.714,0.155,-4.865,-173.925,8.043
15:26:19:966,20.895,-0.790,0.413,0.290,-6.549,-179.478,12.443
15:26:19:992,20.921,-0.808,0.326,0.009,-7.384,177.245,15.611
15:26:20:018,20.947,-0.961,-0.134,-0.203,-8.094,173.359,20.402
15:26:20:044,20.973,-0.972,-0.182,-0.314,-8.772,171.771,23.507
15:26:20:073,21.002,-0.832,-0.285,-0.245,-10.713,171.739,27.239
15:26:20:074,21.003,-0.688,-0.311,-0.336,-12.236,173.262,28.591
15:26:20:124,21.053,-0.688,-0.361,-0.206,-13.518,176.287,29.125
15:26:20:15,21.079,-0.672,-0.243,-0.090,-14.148,179.211,28.170
15:26:20:18,21.109,-0.576,-0.144,-0.096,-14.164,-179.004,26.923
15:26:20:18,21.109,0.372,0.262,0.315,-13.472,-177.102,24.498
15:26:20:202,21.131,0.106,0.075,-0.160,-13.153,-176.386,23.077
15:26:20:229,21.158,0.065,0.076,-0.179,-12.602,-175.966,20.615
15:26:20:284,21.213,-0.261,0.088,-0.073,-12.220,-177.079,18.077
15:26:20:284,21.213,-0.583,0.232,-0.095,-12.172,-177.839,16.539
15:26:20:307,21.236,-0.156,-0.026,-0.192,-11.548,-178.616,14.865
15:26:20:335,21.264,-0.059,-0.102,-0.036,-10.924,-178.806,13.974
15:26:20:361,21.290,-0.056,-0.044,0.019,-10.365,-178.446,12.429
15:26:20:386,21.315,-0.079,-0.023,-0.061,-10.253,-178.073,11.387
15:26:20:413,21.342,-0.095,-0.023,-0.092,-10.280,-177.974,10.077
15:26:20:438,21.367,-0.126,0.022,-0.079,-10.511,-178.269,9.111
15:26:20:464,21.393,-0.088,0.018,-0.012,-10.767,-178.368,8.552
15:26:20:491,21.420,-0.077,0.020,0.012,-11.090,-178.367,7.803
15:26:20:518,21.447,-0.060,0.038,0.007,-11.175,-178.256,7.441
15:26:20:545,21.474,-0.068,0.019,0.012,-11.111,-178.094,6.978
15:26:20:57,21.499,-0.028,0.015,-0.015,-10.887,-177.609,6.549
15:26:20:597,21.525,-0.037,0.008,0.000,-10.725,-177.224,6.302
15:26:20:622,21.551,-0.044,-0.009,0.000,-10.448,-176.504,5.716
15:26:20:675,21.604,-0.026,-0.019,-0.021,-10.248,-175.713,5.199
15:26:20:703,21.632,-0.003,-0.002,-0.021,-9.979,-174.820,4.455
15:26:20:704,21.633,0.006,0.001,0.005,-9.789,-174.319,3.932
15:26:20:727,21.656,-0.005,0.000,0.003,-9.512,-173.751,3.001
15:26:20:753,21.682,-0.026,-0.002,-0.055,-9.233,-173.376,1.970
15:26:20:779,21.708,-0.045,0.001,-0.056,-9.050,-173.172,1.249
15:26:20:806,21.735,-0.056,0.011,-0.021,-8.795,-172.871,0.143
15:26:20:832,21.761,-0.037,0.001,-0.026,-8.592,-172.570,-0.587
15:26:20:86,21.789,-0.038,0.000,-0.025,-8.200,-172.045,-1.687
15:26:20:885,21.814,-0.049,0.004,0.007,-7.786,-171.663,-2.705
15:26:20:911,21.840,-0.027,0.013,0.018,-7.500,-171.527,-3.330
15:26:20:937,21.866,-0.008,0.024,-0.005,-6.999,-171.314,-4.307
15:26:20:993,21.922,-0.019,0.029,0.021,-6.602,-171.285,-5.011
15:26:20:993,21.922,-0.027,0.043,0.025,-5.902,-171.079,-6.145
15:26:21:016,21.945,-0.008,0.058,-0.021,-5.110,-170.733,-7.379
15:26:21:042,21.971,0.026,0.079,-0.103,-4.499,-170.496,-8.238
15:26:21:068,21.997,0.046,0.118,-0.091,-3.494,-170.195,-9.629
15:26:21:123,22.052,0.050,0.116,-0.023,-2.750,-170.045,-10.659
15:26:21:124,22.053,0.066,0.122,0.016,-1.490,-169.903,-12.343
15:26:21:148,22.077,0.071,0.122,-0.011,-0.549,-169.831,-13.580
15:26:21:174,22.103,0.158,0.142,0.003,1.059,-169.859,-15.550
15:26:21:2,22.129,0.131,0.116,0.031,2.819,-170.115,-17.665
15:26:21:225,22.154,0.128,0.055,0.061,4.060,-170.256,-19.224
15:26:21:252,22.181,0.172,0.066,0.137,5.952,-170.165,-21.730
15:26:21:279,22.208,0.308,-0.019,0.160,7.343,-169.823,-23.490
15:26:21:306,22.235,0.159,0.000,0.117,9.722,-169.246,-26.357
15:26:21:331,22.260,0.124,0.122,0.144,12.348,-168.492,-29.461
15:26:21:356,22.285,0.216,0.017,0.177,14.322,-167.804,-31.577
15:26:21:383,22.312,0.203,0.022,0.135,17.330,-166.660,-34.518
15:26:21:409,22.338,0.233,-0.146,0.125,19.377,-166.024,-36.324
15:26:21:436,22.365,0.297,-0.308,0.020,22.164,-165.061,-38.260
15:26:21:463,22.392,0.008,-0.031,0.021,23.742,-164.727,-39.237
15:26:21:488,22.417,-0.063,-0.579,0.045,25.549,-163.706,-39.740
15:26:21:514,22.443,0.831,-0.712,0.054,23.921,-162.786,-37.534
15:26:21:54,22.469,0.512,-0.817,-0.048,22.246,-161.950,-35.685
15:26:21:567,22.496,0.268,-0.496,0.022,19.133,-160.479,-32.037
15:26:21:595,22.524,0.518,-0.309,-0.085,16.566,-158.774,-28.895
15:26:21:62,22.549,0.492,-0.147,-0.249,12.493,-156.030,-23.470
15:26:21:645,22.574,0.345,0.058,-0.340,8.729,-153.076,-18.035
15:26:21:672,22.601,0.388,0.124,-0.364,6.120,-151.615,-14.750
15:26:21:698,22.627,0.108,0.303,-0.467,1.592,-151.159,-10.087
15:26:21:724,22.653,0.119,0.291,-0.446,-1.419,-151.630,-6.930
15:26:21:751,22.680,0.039,0.361,-0.387,-5.401,-153.271,-1.690
15:26:21:837,22.766,-0.157,0.427,-0.298,-8.679,-155.124,3.941
15:26:21:837,22.766,-0.475,0.572,-0.482,-10.300,-156.230,7.454
15:26:21:837,22.766,-0.936,0.238,-0.262,-12.073,-157.986,11.994
15:26:21:857,22.786,-0.963,0.033,-0.193,-12.622,-159.097,14.562
15:26:21:883,22.812,-1.032,-0.180,-0.021,-12.758,-160.381,17.688
15:26:21:909,22.837,-1.086,-0.225,0.036,-12.670,-160.632,18.955
15:26:21:963,22.892,-1.389,-0.356,0.324,-12.371,-159.978,19.425
15:26:21:964,22.893,-0.983,0.018,0.774,-11.923,-158.634,17.610
15:26:21:987,22.916,0.103,0.317,0.155,-11.872,-157.033,15.830
15:26:22:042,22.971,-0.074,0.242,-0.335,-11.426,-154.237,13.542
15:26:22:043,22.972,-0.008,-0.099,-0.171,-10.617,-153.337,12.438
15:26:22:067,22.996,-0.003,-0.162,-0.100,-9.760,-152.970,10.895
15:26:22:093,23.022,-0.188,0.010,0.016,-9.783,-153.458,9.893
15:26:22:147,23.076,-0.105,0.062,0.048,-10.072,-153.850,9.415
15:26:22:148,23.077,-0.043,0.009,0.077,-10.268,-154.013,8.687
15:26:22:229,23.158,-0.057,0.008,0.000,-10.209,-153.940,8.231
15:26:22:229,23.158,-0.048,-0.016,-0.056,-10.087,-153.846,7.581
15:26:22:23,23.159,-0.093,-0.031,-0.068,-10.109,-153.836,7.106
15:26:22:249,23.178,-0.044,0.005,0.008,-10.393,-153.967,6.477
15:26:22:308,23.237,0.005,0.022,0.024,-10.689,-153.992,5.848
15:26:22:308,23.237,-0.079,0.019,-0.007,-10.783,-154.035,5.446
15:26:22:309,23.238,-0.154,0.027,-0.043,-10.872,-154.090,4.963
15:26:22:354,23.283,-0.079,0.010,-0.012,-10.944,-153.981,4.730
15:26:22:41,23.339,0.002,0.024,0.035,-11.035,-153.826,4.486
15:26:22:41,23.339,-0.016,-0.003,0.004,-10.880,-153.475,4.109
15:26:22:436,23.365,0.001,-0.004,-0.027,-10.646,-153.063,3.659
15:26:22:436,23.365,-0.037,0.031,-0.007,-10.224,-152.287,2.785
15:26:22:489,23.418,-0.038,-0.009,0.007,-9.879,-151.719,2.094
15:26:22:489,23.418,-0.069,0.000,-0.022,-9.359,-150.920,1.088
15:26:22:514,23.443,-0.043,0.001,-0.021,-9.027,-150.384,0.479
15:26:22:54,23.469,-0.018,-0.003,-0.017,-8.548,-149.642,-0.430
15:26:22:566,23.495,-0.037,0.023,0.005,-8.015,-149.022,-1.354
15:26:22:591,23.520,-0.024,0.027,-0.004,-7.629,-148.656,-1.966
15:26:22:675,23.604,-0.015,0.009,-0.008,-6.978,-148.140,-2.923
15:26:22:676,23.605,-0.022,0.020,-0.014,-6.508,-147.836,-3.596
15:26:22:677,23.606,-0.030,0.007,-0.013,-5.789,-147.443,-4.634
15:26:22:697,23.626,-0.021,0.004,-0.006,-5.032,-147.126,-5.714
15:26:22:722,23.651,-0.013,0.014,0.003,-4.502,-146.947,-6.453
15:26:22:749,23.678,-0.017,0.047,0.029,-3.601,-146.806,-7.655
15:26:22:774,23.703,0.013,0.082,0.011,-2.904,-146.711,-8.482
15:26:22:829,23.758,0.018,0.123,-0.057,-1.713,-146.492,-9.806
15:26:22:83,23.759,0.077,0.200,-0.052,-0.351,-146.208,-11.290
15:26:22:855,23.784,0.068,0.221,-0.076,0.657,-146.033,-12.389
15:26:22:88,23.809,0.125,0.162,-0.072,2.405,-145.862,-14.234
15:26:22:906,23.835,0.174,0.149,-0.045,3.636,-145.820,-15.596
15:26:22:932,23.861,0.197,0.081,0.088,5.606,-145.712,-17.880
15:26:22:958,23.887,0.196,0.054,0.219,6.935,-145.437,-19.574
15:26:22:984,23.913,0.234,0.137,0.290,8.980,-144.164,-22.246
15:26:23:011,23.940,0.394,0.010,0.266,11.739,-141.338,-24.869
15:26:23:037,23.966,0.340,0.029,0.276,13.866,-138.915,-26.572
15:26:23:064,23.993,0.416,-0.097,0.147,17.456,-134.425,-28.756
15:26:23:089,24.018,0.402,-0.205,0.083,19.970,-131.123,-29.719
15:26:23:116,24.045,0.257,-0.209,0.260,22.873,-126.482,-30.400
15:26:23:142,24.071,0.261,-0.366,-0.125,24.458,-121.738,-29.815
15:26:23:168,24.097,0.348,-0.728,-0.534,24.184,-119.296,-28.846
15:26:23:194,24.123,0.215,-0.572,-0.372,21.724,-116.867,-27.159
15:26:23:249,24.178,0.195,-0.429,-0.460,19.057,-115.644,-25.858
15:26:23:276,24.205,0.068,-0.258,-0.614,14.304,-114.255,-23.289
15:26:23:277,24.206,0.061,-0.124,-0.624,11.083,-113.541,-21.222
15:26:23:299,24.228,0.023,-0.050,-0.595,6.421,-112.969,-17.753
15:26:23:326,24.255,-0.043,0.120,-0.587,1.581,-113.136,-13.839
15:26:23:381,24.310,-0.127,0.215,-0.612,-1.572,-113.538,-10.992
15:26:23:382,24.311,-0.100,0.310,-0.550,-5.862,-114.610,-6.247
15:26:23:405,24.333,-0.161,0.397,-0.443,-8.467,-115.716,-2.778
15:26:23:432,24.361,-0.348,0.438,-0.247,-11.891,-117.869,2.534
15:26:23:457,24.386,-0.518,0.310,-0.134,-13.649,-119.497,5.947
15:26:23:483,24.412,-0.669,0.181,0.014,-15.546,-121.910,10.889
15:26:23:51,24.439,-0.669,0.008,0.221,-16.590,-123.719,15.281
15:26:23:538,24.467,-0.627,-0.127,0.352,-16.793,-124.227,17.625
15:26:23:563,24.492,-0.500,-0.299,0.535,-16.721,-123.613,20.074
15:26:23:588,24.517,-0.492,-0.220,0.548,-16.861,-122.235,20.977
15:26:23:615,24.543,-0.460,-0.188,0.533,-17.463,-118.676,21.203
15:26:23:641,24.570,-0.275,-0.015,0.677,-17.952,-114.804,20.610
15:26:23:667,24.596,-0.526,-0.140,0.701,-18.166,-112.556,19.648
15:26:23:722,24.651,0.073,0.364,-0.218,-18.099,-109.742,17.071
15:26:23:723,24.652,-0.133,0.288,0.229,-18.138,-108.677,15.441
15:26:23:745,24.674,-0.378,0.207,0.178,-17.686,-108.186,13.059
15:26:23:772,24.701,-0.141,-0.021,0.085,-16.478,-108.749,11.629
15:26:23:8,24.729,0.033,-0.152,0.077,-15.727,-108.621,10.582
15:26:23:853,24.782,0.027,-0.084,0.007,-15.017,-108.098,9.124
15:26:23:854,24.783,-0.075,0.015,0.042,-14.779,-107.821,8.283
15:26:23:879,24.808,-0.112,0.007,0.024,-14.478,-107.636,7.148
15:26:23:932,24.861,-0.143,0.031,0.035,-14.294,-107.588,6.453
15:26:23:933,24.862,-0.074,0.032,0.025,-14.061,-107.283,5.405
15:26:23:956,24.885,-0.043,-0.005,-0.008,-13.755,-106.794,4.411
15:26:23:982,24.911,-0.009,0.018,-0.006,-13.506,-106.418,3.761
15:26:24:038,24.967,-0.055,0.017,-0.012,-12.967,-105.781,2.745
15:26:24:038,24.967,-0.059,0.007,0.011,-12.566,-105.445,2.102
15:26:24:06,24.989,-0.084,-0.001,0.031,-12.074,-105.021,1.263
15:26:24:116,25.045,-0.018,0.011,0.023,-11.671,-104.365,0.603
15:26:24:117,25.045,-0.014,0.008,0.000,-11.365,-103.858,0.153
15:26:24:143,25.072,-0.014,-0.020,-0.040,-10.838,-102.939,-0.658
15:26:24:166,25.095,-0.040,-0.011,-0.036,-10.484,-102.492,-1.267
15:26:24:221,25.150,-0.056,0.026,-0.022,-9.971,-102.013,-2.269
15:26:24:221,25.150,-0.056,0.012,0.023,-9.626,-101.818,-2.974
15:26:24:246,25.175,-0.051,0.012,0.020,-9.088,-101.541,-4.021
15:26:24:271,25.200,-0.037,0.000,-0.009,-8.530,-101.182,-5.048
15:26:24:297,25.226,-0.053,0.013,0.016,-8.154,-100.936,-5.730
15:26:24:323,25.252,-0.075,0.005,-0.001,-7.630,-100.587,-6.734
15:26:24:352,25.281,-0.060,0.001,-0.041,-7.302,-100.327,-7.389
15:26:24:377,25.306,-0.063,0.028,-0.054,-6.838,-100.039,-8.380
15:26:24:431,25.360,-0.019,0.041,-0.043,-6.319,-99.930,-9.489
15:26:24:432,25.361,0.014,0.078,-0.024,-5.896,-99.951,-10.322
15:26:24:486,25.415,0.001,0.116,-0.075,-5.127,-99.909,-11.733
15:26:24:486,25.415,-0.004,0.110,-0.075,-4.454,-99.810,-12.785
15:26:24:508,25.437,0.045,0.143,-0.109,-3.292,-99.710,-14.432
15:26:24:565,25.494,0.020,0.172,-0.158,-1.943,-99.713,-16.435
15:26:24:566,25.495,-0.005,0.171,-0.202,-0.931,-99.771,-17.936
15:26:24:567,25.496,0.076,0.143,-0.221,0.868,-99.634,-20.533
15:26:24:612,25.541,0.296,0.172,-0.121,2.149,-99.379,-22.452
15:26:24:642,25.571,0.264,0.228,-0.207,4.232,-98.130,-25.550
15:26:24:642,25.571,0.365,0.138,-0.103,6.226,-96.393,-27.664
15:26:24:695,25.624,0.438,0.217,-0.281,9.756,-92.403,-30.861
15:26:24:696,25.625,0.276,-0.023,-0.330,14.040,-88.031,-33.434
15:26:24:746,25.675,0.288,-0.181,-0.266,17.335,-85.015,-34.901
15:26:24:747,25.676,0.195,-0.588,-0.330,20.909,-80.454,-35.780
15:26:24:771,25.700,-0.142,-0.850,-0.597,21.812,-77.683,-35.392
15:26:24:797,25.726,-0.302,-0.721,-0.416,21.318,-74.370,-33.490
15:26:24:822,25.751,-0.240,-0.687,-0.424,18.842,-71.778,-30.501
15:26:24:848,25.777,-0.346,-0.558,-0.530,16.297,-70.440,-27.858
15:26:24:876,25.805,-0.268,-0.096,-0.358,11.891,-69.435,-23.890
15:26:24:901,25.830,-0.209,0.002,-0.386,9.166,-69.296,-21.100
15:26:24:929,25.858,-0.191,0.169,-0.312,5.224,-69.779,-16.614
15:26:24:954,25.883,-0.230,0.271,-0.260,1.039,-71.419,-12.041
15:26:24:979,25.908,-0.164,0.279,-0.258,-1.620,-73.340,-8.719
15:26:25:006,25.935,-0.064,0.333,-0.183,-4.975,-77.043,-3.466
15:26:25:032,25.961,-0.011,0.441,0.087,-6.767,-79.747,-0.048
15:26:25:059,25.988,-0.051,0.485,0.131,-8.902,-84.038,5.066
15:26:25:085,26.014,0.204,0.427,0.661,-10.037,-86.882,8.486
15:26:25:111,26.040,0.206,0.206,0.961,-11.697,-90.632,12.894
15:26:25:137,26.066,0.042,-0.355,0.971,-13.222,-92.408,16.357
15:26:25:163,26.092,-0.090,-0.167,0.784,-14.614,-92.249,18.084
15:26:25:218,26.147,-0.027,-0.173,0.520,-16.729,-90.410,19.490
15:26:25:219,26.148,-0.127,-0.066,0.425,-17.990,-89.056,19.836
15:26:25:243,26.171,-0.282,-0.233,0.503,-18.803,-87.526,19.842
15:26:25:268,26.197,-0.203,-0.143,0.352,-19.016,-86.917,19.523
15:26:25:322,26.251,-0.113,0.146,0.386,-19.021,-86.956,18.671
15:26:25:349,26.278,-0.105,-0.121,0.629,-18.389,-88.343,17.091
15:26:25:35,26.279,-0.724,0.434,-1.125,-17.843,-89.533,15.967
15:26:25:402,26.331,-0.249,0.159,0.599,-16.846,-90.644,13.547
15:26:25:403,26.332,-0.442,0.217,0.278,-16.515,-90.623,11.592
15:26:25:484,26.413,-0.193,-0.081,-0.091,-15.279,-90.648,9.385
15:26:25:485,26.414,0.128,-0.181,0.161,-14.276,-90.718,7.342
15:26:25:485,26.414,-0.017,-0.015,0.140,-13.827,-90.644,6.220
15:26:25:505,26.434,-0.213,-0.010,-0.003,-13.396,-89.555,4.620
15:26:25:531,26.460,-0.079,0.066,-0.015,-13.346,-89.115,3.698
15:26:25:559,26.488,0.006,0.033,0.077,-13.373,-89.115,2.549
15:26:25:584,26.513,0.001,-0.024,0.056,-13.157,-88.993,1.547
15:26:25:609,26.538,-0.041,-0.017,0.059,-12.996,-88.852,1.000
15:26:25:665,26.594,-0.066,0.029,0.053,-12.833,-88.633,0.355
15:26:25:666,26.595,-0.052,0.014,0.048,-12.723,-88.290,-0.036
15:26:25:688,26.617,-0.015,-0.015,0.008,-12.486,-87.852,-0.661
15:26:25:743,26.672,-0.008,-0.013,-0.002,-12.303,-87.275,-1.118
15:26:25:744,26.673,-0.025,-0.009,-0.014,-11.973,-86.569,-1.809
15:26:25:767,26.696,-0.085,-0.001,-0.004,-11.623,-85.935,-2.508
15:26:25:793,26.722,-0.068,0.003,0.005,-11.420,-85.578,-2.990
15:26:25:82,26.749,-0.065,-0.012,0.013,-11.117,-85.083,-3.724
15:26:25:846,26.775,-0.061,0.005,0.019,-10.924,-84.776,-4.192
15:26:25:872,26.801,-0.048,0.012,0.014,-10.665,-84.461,-4.854
15:26:25:899,26.828,-0.062,-0.014,0.011,-10.267,-84.026,-5.516
15:26:25:925,26.854,-0.061,-0.018,0.002,-10.006,-83.965,-5.963
15:26:25:951,26.880,-0.036,-0.004,0.012,-9.733,-83.625,-6.627
15:26:25:977,26.906,-0.053,0.010,-0.003,-9.550,-83.564,-7.074
15:26:26:004,26.933,-0.045,0.020,-0.003,-9.236,-83.261,-7.763
15:26:26:03,26.959,-0.066,0.021,-0.002,-8.960,-83.229,-8.235
15:26:26:058,26.987,-0.043,0.061,-0.017,-8.662,-82.974,-9.018
15:26:26:083,27.012,-0.031,0.033,-0.051,-8.265,-82.804,-9.900
15:26:26:108,27.037,-0.027,0.031,-0.040,-7.915,-82.634,-10.504
15:26:26:134,27.063,0.002,0.056,-0.049,-7.321,-82.489,-11.565
15:26:26:16,27.089,-0.031,0.098,-0.066,-6.909,-82.416,-12.414
15:26:26:187,27.116,-0.116,0.050,-0.052,-6.215,-82.389,-13.810
15:26:26:215,27.144,-0.082,0.032,-0.026,-5.471,-82.438,-15.352
15:26:26:241,27.170,-0.053,0.049,-0.044,-4.994,-82.685,-16.367
15:26:26:266,27.195,-0.064,0.047,-0.075,-4.250,-82.732,-17.901
15:26:26:292,27.221,-0.038,0.065,-0.090,-3.676,-82.847,-18.807
15:26:26:318,27.247,-0.043,0.059,-0.114,-2.647,-82.808,-20.057
15:26:26:374,27.303,0.029,0.076,-0.143,-1.567,-82.740,-21.752
15:26:26:399,27.328,0.056,0.111,-0.241,-0.682,-82.288,-23.285
15:26:26:455,27.384,0.088,0.090,-0.301,1.143,-81.161,-25.968
15:26:26:456,27.385,0.046,0.125,-0.308,2.600,-80.015,-28.007
15:26:26:457,27.386,0.150,0.213,-0.343,5.152,-77.784,-31.504
15:26:26:476,27.405,0.093,0.308,-0.462,7.284,-75.779,-33.914
15:26:26:502,27.431,0.146,0.092,-0.422,11.426,-72.828,-37.497
15:26:26:528,27.457,0.045,-0.193,-0.533,15.875,-70.246,-40.170
15:26:26:555,27.483,-0.108,-0.338,-0.091,18.555,-68.905,-41.796
15:26:26:582,27.511,0.038,-0.591,-0.374,21.075,-67.095,-42.186
15:26:26:607,27.536,-0.218,-0.935,-0.664,20.356,-66.041,-40.820
15:26:26:633,27.562,-0.280,-0.784,-0.551,17.316,-64.890,-37.451
15:26:26:659,27.588,-0.243,-0.587,-0.301,14.011,-64.259,-33.250
15:26:26:685,27.614,-0.130,-0.337,-0.381,11.598,-63.687,-29.408
15:26:26:714,27.643,-0.147,-0.223,-0.510,8.200,-62.644,-22.703
15:26:26:741,27.669,-0.220,0.048,-0.371,6.026,-61.806,-18.121
15:26:26:765,27.694,-0.140,0.278,-0.296,2.597,-60.896,-11.738
15:26:26:85,27.779,-0.124,0.426,-0.002,0.140,-61.412,-7.710
15:26:26:85,27.779,-0.090,0.374,0.033,-3.642,-63.543,-1.912
15:26:26:85,27.779,-0.037,0.413,0.061,-6.998,-66.639,3.714
15:26:26:901,27.830,-0.026,0.463,0.311,-8.832,-69.043,7.328
15:26:26:901,27.830,-0.033,0.221,0.762,-11.090,-73.377,13.190
15:26:26:922,27.851,0.111,0.275,0.769,-12.265,-76.353,17.347
15:26:26:953,27.881,0.059,-0.028,1.043,-13.890,-79.998,22.918
15:26:26:953,27.881,0.140,-0.349,1.200,-15.558,-81.430,26.435
15:26:27:004,27.933,0.050,-0.452,1.181,-16.624,-80.970,27.312
15:26:27:004,27.933,-0.090,-0.228,0.916,-17.346,-79.594,26.778
15:26:27:029,27.958,0.125,0.297,-0.410,-16.877,-78.999,25.221
15:26:27:056,27.985,-0.489,0.091,0.082,-15.979,-78.897,22.967
15:26:27:079,28.008,-0.219,0.038,0.373,-15.264,-79.325,21.260
15:26:27:107,28.036,-0.206,0.051,0.369,-14.441,-80.085,18.600
15:26:27:134,28.062,0.062,0.091,0.445,-14.156,-80.286,16.183
15:26:27:159,28.088,-0.014,0.023,0.155,-13.874,-80.798,15.052
15:26:27:185,28.114,0.027,-0.052,0.105,-13.160,-81.612,13.727
15:26:27:211,28.140,0.011,-0.043,0.173,-12.721,-81.902,12.882
15:26:27:237,28.166,-0.052,-0.032,0.087,-12.332,-82.027,11.646
15:26:27:265,28.194,-0.086,-0.026,0.011,-12.311,-82.052,10.674
15:26:27:29,28.219,-0.061,-0.008,0.040,-12.477,-82.360,10.216
15:26:27:345,28.274,-0.041,0.023,0.098,-12.814,-83.439,9.710
15:26:27:346,28.275,0.024,0.015,0.087,-12.957,-83.498,9.318
15:26:27:37,28.299,-0.035,0.001,0.046,-12.965,-83.313,8.719
15:26:27:423,28.352,-0.037,0.009,0.057,-12.948,-83.090,8.424
15:26:27:45,28.379,-0.038,0.026,0.075,-12.937,-82.806,8.068
15:26:27:45,28.379,0.026,0.004,-0.012,-12.750,-82.300,7.708
15:26:27:473,28.402,0.031,-0.019,-0.041,-12.580,-81.957,7.357
15:26:27:499,28.428,-0.008,-0.002,-0.026,-12.349,-81.427,6.570
15:26:27:526,28.455,-0.051,0.015,0.029,-12.166,-81.454,5.922
15:26:27:552,28.481,-0.066,0.006,0.039,-11.855,-81.165,4.801
15:26:27:58,28.509,-0.037,0.006,0.054,-11.515,-80.971,3.628
15:26:27:606,28.535,-0.037,-0.009,0.050,-11.273,-80.782,2.888
15:26:27:631,28.560,-0.054,0.005,0.063,-10.924,-80.560,1.891
15:26:27:657,28.586,-0.045,0.004,0.045,-10.698,-80.460,1.325
15:26:27:683,28.612,-0.034,-0.004,0.034,-10.319,-80.202,0.433
15:26:27:711,28.640,-0.027,0.008,0.010,-10.011,-79.945,-0.226
15:26:27:736,28.665,-0.045,0.022,0.026,-9.506,-79.575,-1.243
15:26:27:764,28.693,-0.032,0.001,0.023,-8.929,-79.172,-2.371
15:26:27:789,28.718,-0.015,0.005,0.007,-8.527,-78.957,-3.170
15:26:27:815,28.744,-0.003,0.018,-0.015,-7.827,-78.687,-4.443
15:26:27:841,28.770,0.011,0.039,-0.006,-7.280,-78.849,-5.351
15:26:27:867,28.796,-0.017,0.050,0.025,-6.340,-78.897,-6.809
15:26:27:894,28.823,-0.007,0.060,0.016,-5.258,-79.044,-8.367
15:26:27:922,28.851,0.009,0.091,-0.007,-4.464,-79.068,-9.464
15:26:27:947,28.876,-0.086,0.199,-0.082,-3.177,-79.173,-11.165
15:26:27:972,28.901,-0.082,0.186,-0.121,-2.210,-79.110,-12.421
15:26:27:998,28.927,-0.048,0.169,-0.144,-0.587,-79.189,-14.503
15:26:28:054,28.983,0.035,0.174,-0.224,1.247,-79.605,-16.786
15:26:28:054,28.983,0.137,0.233,-0.226,2.560,-79.949,-18.459
15:26:28:079,29.008,0.223,0.302,-0.431,4.744,-80.483,-21.333
15:26:28:105,29.034,0.287,0.238,-0.448,6.454,-80.457,-23.550
15:26:28:13,29.059,0.270,0.130,-0.406,9.759,-79.696,-27.269
15:26:28:156,29.085,0.190,0.134,-0.438,12.435,-78.630,-29.809
15:26:28:182,29.111,0.188,-0.163,-0.517,16.930,-76.111,-33.391
15:26:28:208,29.137,0.083,-0.331,-0.345,21.297,-74.145,-35.839
15:26:28:234,29.163,0.252,-0.541,0.045,23.672,-72.849,-37.048
15:26:28:263,29.191,0.032,-0.865,-0.571,24.245,-71.297,-36.879
15:26:28:288,29.217,-0.172,-0.944,-0.542,22.820,-70.778,-35.848
15:26:28:314,29.243,-0.198,-0.714,-0.307,19.380,-70.465,-33.100
15:26:28:34,29.269,-0.072,-0.586,-0.411,16.372,-70.190,-30.408
15:26:28:366,29.295,-0.102,-0.414,-0.498,11.574,-69.952,-25.070
15:26:28:392,29.321,-0.114,-0.025,-0.322,7.039,-69.756,-19.039
15:26:28:418,29.347,-0.053,0.095,-0.319,4.252,-69.722,-14.985
15:26:28:445,29.374,-0.127,0.343,-0.022,0.205,-70.851,-8.814
15:26:28:471,29.400,-0.105,0.439,-0.052,-2.640,-72.499,-4.677
15:26:28:497,29.426,-0.080,0.497,0.075,-6.802,-76.126,1.727
15:26:28:523,29.452,-0.043,0.630,0.341,-10.080,-80.580,8.281
15:26:28:551,29.480,-0.313,0.611,0.551,-11.676,-83.723,12.716
15:26:28:577,29.506,-0.161,0.107,1.159,-13.662,-87.856,18.934
15:26:28:602,29.531,-0.273,-0.257,1.294,-14.790,-89.596,22.482
15:26:28:628,29.557,-0.332,-0.370,1.263,-16.608,-90.398,26.266
15:26:28:655,29.584,-0.368,-0.391,1.123,-17.633,-89.393,27.397
15:26:28:682,29.611,-0.182,-0.408,1.035,-17.419,-88.512,26.719
15:26:28:708,29.637,-0.060,0.390,-0.392,-16.599,-86.801,23.449
15:26:28:733,29.662,-0.293,0.200,0.383,-16.390,-85.628,21.289
15:26:28:759,29.688,0.157,0.119,0.486,-15.758,-84.780,17.748
15:26:28:786,29.715,-0.182,0.099,0.143,-14.427,-85.477,15.229
15:26:28:812,29.741,-0.167,-0.071,0.122,-13.373,-86.221,14.156
15:26:28:839,29.768,0.006,-0.202,0.219,-12.393,-87.093,12.562
15:26:28:866,29.795,-0.061,0.010,0.144,-12.227,-87.021,11.559
15:26:28:892,29.821,-0.020,0.034,0.127,-12.176,-87.006,10.164
15:26:28:917,29.846,-0.086,-0.005,0.101,-12.042,-86.741,8.974
15:26:28:943,29.872,-0.140,0.012,0.106,-12.043,-86.831,8.296
15:26:28:969,29.898,0.017,0.018,0.033,-12.085,-86.626,7.360
15:26:28:996,29.924,-0.007,0.001,0.053,-12.073,-86.946,6.761
15:26:29:023,29.952,-0.020,0.007,0.112,-12.011,-86.776,6.034
15:26:29:048,29.977,-0.041,0.015,0.059,-11.967,-86.571,5.613
15:26:29:077,30.006,0.002,0.020,0.084,-11.911,-85.881,5.041
15:26:29:103,30.032,0.017,-0.015,0.083,-11.745,-84.956,4.445
15:26:29:129,30.058,-0.002,-0.027,0.045,-11.568,-84.079,4.005
15:26:29:155,30.084,-0.077,-0.013,0.022,-11.306,-83.019,3.332
15:26:29:206,30.135,-0.042,0.010,0.022,-10.895,-81.692,2.143
15:26:29:232,30.161,-0.030,0.005,0.009,-10.558,-81.197,1.303
15:26:29:261,30.190,-0.049,0.017,0.024,-10.265,-80.997,0.655
15:26:29:262,30.191,-0.044,0.018,0.035,-9.671,-80.701,-0.469
15:26:29:314,30.243,-0.002,0.018,0.025,-9.245,-80.637,-1.297
15:26:29:315,30.244,-0.008,0.022,0.022,-8.568,-80.391,-2.631
15:26:29:338,30.267,-0.025,0.006,0.026,-8.100,-80.286,-3.577
15:26:29:363,30.292,-0.057,0.003,0.062,-7.328,-80.162,-5.054
15:26:29:389,30.318,0.012,0.037,0.031,-6.523,-80.264,-6.509
15:26:29:418,30.347,-0.061,0.111,0.002,-5.965,-80.256,-7.454
15:26:29:445,30.374,-0.069,0.120,-0.024,-4.977,-80.263,-8.999
15:26:29:47,30.399,-0.058,0.105,-0.016,-4.212,-80.220,-10.168
15:26:29:526,30.455,-0.026,0.134,-0.037,-2.939,-80.297,-12.039
15:26:29:526,30.455,-0.050,0.168,-0.125,-1.476,-80.273,-14.081
15:26:29:548,30.477,-0.066,0.137,-0.189,-0.327,-80.271,-15.584
15:26:29:573,30.502,0.059,0.167,-0.208,1.572,-80.732,-18.116
15:26:29:599,30.528,0.266,0.292,-0.312,2.958,-81.085,-20.002
15:26:29:626,30.555,0.211,0.353,-0.537,5.373,-81.353,-23.157
15:26:29:652,30.581,0.263,0.150,-0.502,7.530,-80.813,-25.549
15:26:29:68,30.609,0.237,0.342,-0.347,11.471,-79.145,-29.633
15:26:29:706,30.635,0.219,0.022,-0.467,15.869,-76.933,-33.881
15:26:29:731,30.660,0.211,-0.279,-0.501,19.085,-75.537,-36.223
15:26:29:757,30.686,0.241,-0.536,0.036,23.557,-73.878,-38.635
15:26:29:783,30.712,0.005,-0.532,0.096,26.050,-72.419,-39.614
15:26:29:81,30.738,-0.048,-0.923,-0.493,25.856,-70.994,-38.784
15:26:29:836,30.765,-0.210,-0.798,-0.391,22.287,-70.409,-36.132
15:26:29:863,30.792,-0.081,-0.685,-0.351,19.254,-70.452,-33.884
15:26:29:889,30.818,0.011,-0.530,-0.504,14.040,-70.167,-28.591
15:26:29:915,30.844,-0.129,-0.168,-0.471,10.636,-69.902,-24.296
15:26:29:941,30.870,-0.014,0.174,-0.309,6.103,-69.561,-17.605
15:26:30:026,30.955,-0.134,0.463,-0.131,3.265,-69.807,-13.262
15:26:30:026,30.955,-0.139,0.470,-0.086,-1.116,-72.073,-6.892
15:26:30:027,30.956,-0.091,0.549,0.058,-5.565,-76.330,-0.431
15:26:30:075,31.004,0.063,0.611,0.103,-8.001,-79.676,4.059
15:26:30:076,31.005,-0.086,0.531,0.636,-10.663,-85.017,10.639
15:26:30:099,31.028,-0.202,0.282,0.924,-11.895,-88.317,14.994
15:26:30:127,31.056,-0.124,0.028,1.058,-13.572,-91.495,20.821
15:26:30:152,31.081,-0.270,-0.306,1.174,-15.753,-91.530,24.727
15:26:30:177,31.106,-0.288,-0.439,1.167,-17.309,-90.008,25.875
15:26:30:204,31.133,-0.257,-0.362,0.899,-18.512,-87.163,25.747
15:26:30:259,31.188,-0.272,-0.293,0.832,-18.251,-85.625,24.678
15:26:30:26,31.189,0.260,0.139,-0.086,-17.224,-84.520,22.101
15:26:30:282,31.211,-0.409,0.074,-0.046,-16.479,-84.251,19.659
15:26:30:308,31.237,-0.289,0.225,0.058,-15.988,-84.736,17.769
15:26:30:337,31.266,-0.144,0.163,0.585,-15.406,-85.679,14.765
15:26:30:363,31.292,-0.189,0.222,0.361,-14.887,-86.226,13.125
15:26:30:389,31.318,-0.118,-0.065,0.052,-13.947,-87.077,11.465
15:26:30:414,31.343,0.063,-0.098,0.194,-13.526,-87.287,10.489
15:26:30:44,31.369,-0.021,-0.012,0.098,-13.193,-86.813,8.963
15:26:30:466,31.395,-0.099,-0.028,0.055,-13.117,-85.959,7.691
15:26:30:521,31.450,-0.076,0.030,0.006,-13.172,-85.517,7.013
15:26:30:522,31.451,-0.019,0.034,-0.015,-13.364,-85.412,6.132
15:26:30:546,31.475,0.026,0.012,0.060,-13.407,-85.518,5.613
15:26:30:572,31.501,0.003,0.012,0.068,-13.295,-85.429,4.982
15:26:30:598,31.527,-0.022,-0.002,0.050,-12.993,-85.648,4.528
15:26:30:624,31.553,-0.102,0.014,0.034,-12.808,-85.206,4.295
15:26:30:65,31.579,0.031,0.013,0.011,-12.600,-85.080,3.904
15:26:30:705,31.634,0.072,-0.014,-0.009,-12.395,-84.520,3.526
15:26:30:706,31.635,0.014,-0.018,-0.057,-12.005,-83.962,2.742
15:26:30:73,31.659,-0.043,0.036,-0.033,-11.751,-83.366,2.078
15:26:30:787,31.716,-0.033,0.019,-0.022,-11.339,-83.282,0.907
15:26:30:787,31.716,-0.031,0.006,0.004,-10.855,-82.886,-0.347
15:26:30:807,31.736,-0.043,0.003,0.010,-10.501,-83.029,-1.185
15:26:30:833,31.762,-0.027,0.001,-0.012,-9.936,-82.559,-2.489
15:26:30:859,31.788,-0.031,0.020,0.031,-9.539,-82.727,-3.388
15:26:30:886,31.815,-0.022,0.007,0.032,-8.918,-82.187,-4.695
15:26:30:912,31.841,-0.020,-0.022,-0.003,-8.497,-82.289,-5.509
15:26:30:969,31.898,-0.033,-0.013,0.007,-7.896,-81.849,-6.702
15:26:30:969,31.898,-0.012,0.017,-0.003,-7.324,-81.889,-7.859
15:26:30:991,31.920,-0.029,0.029,-0.025,-6.909,-81.712,-8.637
15:26:31:047,31.976,-0.019,0.087,-0.061,-6.196,-81.826,-9.843
15:26:31:047,31.976,-0.040,0.118,-0.059,-5.643,-81.740,-10.741
15:26:31:07,31.999,-0.013,0.121,-0.064,-4.640,-82.097,-12.262
15:26:31:098,32.027,-0.007,0.140,-0.108,-3.839,-81.995,-13.387
15:26:31:123,32.052,-0.028,0.155,-0.133,-2.476,-82.192,-15.243
15:26:31:148,32.077,-0.025,0.101,-0.170,-0.833,-82.277,-17.348
15:26:31:235,32.164,0.072,0.117,-0.176,0.365,-82.363,-18.865
15:26:31:235,32.164,0.122,0.123,-0.194,2.251,-82.947,-21.340
15:26:31:315,32.244,0.203,0.183,-0.287,4.331,-82.871,-24.158
15:26:31:316,32.245,0.249,0.130,-0.404,6.007,-82.396,-26.266
15:26:31:316,32.245,0.325,0.107,-0.344,9.128,-81.189,-29.812
15:26:31:317,32.246,0.375,0.302,-0.290,11.563,-79.813,-32.416
15:26:31:334,32.263,0.249,0.122,-0.482,16.015,-76.913,-36.380
15:26:31:36,32.289,0.206,-0.289,-0.508,19.366,-74.869,-38.701
15:26:31:386,32.315,0.045,-0.265,-0.174,24.328,-71.887,-41.019
15:26:31:412,32.341,-0.013,-0.559,-0.006,28.133,-68.354,-41.907
15:26:31:437,32.366,-0.082,-0.952,-0.546,28.422,-66.273,-41.113
15:26:31:464,32.393,-0.405,-0.813,-0.518,25.680,-63.958,-38.466
15:26:31:491,32.420,-0.214,-0.601,-0.413,22.701,-63.217,-36.389
15:26:31:519,32.448,-0.210,-0.445,-0.478,16.864,-62.417,-31.931
15:26:31:519,32.448,-0.292,-0.183,-0.522,10.972,-61.522,-25.964
15:26:31:571,32.500,-0.302,-0.019,-0.469,7.646,-60.696,-21.685
15:26:31:572,32.501,-0.359,0.228,-0.403,3.018,-59.442,-15.335
15:26:31:653,32.582,-0.417,0.428,-0.130,-0.181,-59.192,-11.224
15:26:31:653,32.582,-0.462,0.471,-0.094,-4.868,-59.929,-5.051
15:26:31:654,32.583,-0.320,0.633,0.004,-7.727,-61.121,-0.789
15:26:31:673,32.602,-0.242,0.656,0.283,-11.279,-63.895,5.720
15:26:31:702,32.631,-0.188,0.386,0.748,-13.742,-67.731,12.270
15:26:31:727,32.656,-0.048,0.198,0.862,-14.920,-69.893,16.435
15:26:31:752,32.681,0.182,-0.196,1.106,-16.530,-71.335,21.365
15:26:31:778,32.707,0.072,-0.441,1.263,-17.509,-70.577,23.099
15:26:31:805,32.734,-0.049,-0.397,0.966,-18.029,-67.594,23.179
15:26:31:831,32.760,0.153,-0.228,0.876,-16.840,-64.876,21.380
15:26:31:859,32.788,0.545,0.259,-0.536,-16.233,-63.475,19.297
15:26:31:885,32.814,-0.177,0.139,0.193,-15.907,-61.067,16.214
15:26:31:968,32.897,0.165,0.240,0.048,-15.401,-60.492,13.900
15:26:31:969,32.898,0.038,0.216,0.603,-14.562,-60.719,10.868
15:26:31:969,32.898,-0.102,-0.007,0.173,-13.738,-61.356,9.446
15:26:31:988,32.917,0.061,-0.144,0.092,-12.608,-60.920,7.893
15:26:32:015,32.944,0.106,-0.025,0.065,-12.054,-60.856,6.301
15:26:32:041,32.970,0.064,0.028,0.040,-11.728,-59.389,5.244
15:26:32:067,32.996,-0.058,-0.024,0.027,-11.180,-58.493,3.786
15:26:32:095,33.024,-0.123,0.031,-0.012,-10.962,-57.059,2.903
15:26:32:121,33.050,-0.029,0.021,-0.053,-10.747,-56.626,1.671
15:26:32:146,33.075,0.037,-0.021,0.014,-10.602,-55.826,0.958
15:26:32:202,33.131,0.021,-0.004,0.015,-10.385,-55.538,0.105
15:26:32:202,33.131,-0.047,0.030,0.021,-10.196,-54.230,-0.523
15:26:32:225,33.154,-0.003,0.005,-0.024,-10.083,-53.849,-0.861
15:26:32:253,33.182,0.019,-0.005,-0.037,-9.868,-52.468,-1.297
15:26:32:279,33.208,0.001,-0.010,-0.050,-9.690,-52.008,-1.566
15:26:32:305,33.234,-0.023,-0.023,-0.048,-9.402,-50.522,-1.968
15:26:32:33,33.259,-0.045,-0.017,-0.033,-9.200,-49.757,-2.408
15:26:32:356,33.285,-0.055,-0.006,0.028,-9.102,-48.634,-2.656
15:26:32:382,33.311,-0.016,0.018,0.020,-9.029,-48.164,-2.975
15:26:32:408,33.337,-0.024,0.010,-0.072,-8.976,-47.109,-3.190
15:26:32:464,33.393,-0.025,-0.016,-0.114,-8.842,-46.555,-3.631
15:26:32:465,33.394,-0.034,-0.011,-0.070,-8.711,-45.530,-4.371
15:26:32:489,33.418,-0.056,0.009,-0.028,-8.617,-45.367,-4.980
15:26:32:514,33.443,-0.077,0.025,-0.035,-8.417,-44.650,-6.036
15:26:32:54,33.469,-0.028,0.014,-0.065,-8.220,-44.481,-6.855
15:26:32:566,33.495,-0.004,0.048,-0.070,-7.755,-44.048,-8.190
15:26:32:592,33.521,-0.019,0.047,-0.060,-7.300,-43.977,-9.123
15:26:32:62,33.549,0.002,0.042,-0.057,-6.459,-43.531,-10.642
15:26:32:674,33.603,0.043,0.008,-0.066,-5.466,-43.054,-12.315
15:26:32:675,33.604,-0.017,0.044,-0.085,-4.789,-42.757,-13.474
15:26:32:697,33.626,-0.189,0.150,-0.038,-3.798,-42.251,-15.261
15:26:32:725,33.654,-0.164,0.162,-0.118,-3.044,-42.011,-16.595
15:26:32:752,33.681,-0.170,0.156,-0.113,-1.838,-41.767,-18.759
15:26:32:805,33.734,-0.123,0.137,-0.229,-0.390,-41.712,-21.157
15:26:32:806,33.735,-0.090,0.138,-0.282,0.665,-41.833,-22.825
15:26:32:83,33.759,-0.018,0.093,-0.292,2.315,-41.932,-25.542
15:26:32:886,33.815,-0.114,0.174,-0.378,3.535,-41.648,-27.599
15:26:32:886,33.815,-0.101,0.142,-0.562,6.139,-40.330,-30.965
15:26:32:907,33.836,0.012,0.095,-0.674,8.583,-38.973,-33.449
15:26:32:934,33.863,-0.114,0.271,-0.804,13.402,-35.683,-37.538
15:26:33:018,33.947,-0.348,-0.004,-0.685,19.389,-31.438,-41.456
15:26:33:019,33.948,-0.372,-0.320,-0.635,23.876,-28.580,-43.572
15:26:33:022,33.951,0.255,-0.490,-0.258,29.632,-24.343,-45.295
15:26:33:039,33.968,-0.433,-1.008,-0.324,32.515,-20.629,-45.320
15:26:33:065,33.994,-0.918,-1.049,0.080,31.904,-16.238,-43.273
15:26:33:093,34.022,-0.819,-0.892,0.291,27.746,-13.688,-40.680
15:26:33:118,34.047,-0.626,-0.726,0.019,23.185,-13.162,-38.615
15:26:33:174,34.103,-0.745,-0.260,0.145,14.824,-13.149,-33.747
15:26:33:174,34.103,-0.752,-0.114,0.109,10.205,-12.760,-29.391
15:26:33:196,34.125,-0.776,-0.022,0.207,5.739,-10.753,-22.052
15:26:33:224,34.153,-0.574,0.227,0.100,3.335,-9.352,-16.925
15:26:33:251,34.180,-0.350,0.587,0.164,-0.480,-7.974,-9.270
15:26:33:276,34.205,-0.266,0.869,0.180,-4.514,-7.639,-1.700
15:26:33:301,34.230,0.134,0.818,0.529,-7.041,-8.607,3.256
15:26:33:327,34.256,0.979,0.504,0.418,-9.860,-11.614,10.477
15:26:33:383,34.312,1.202,0.125,0.556,-11.320,-14.231,15.075
15:26:33:384,34.313,1.420,-0.247,0.624,-12.626,-16.682,20.436
15:26:33:406,34.335,1.364,-0.432,0.650,-13.095,-16.688,22.202
15:26:33:434,34.363,1.058,-0.328,0.475,-13.081,-14.427,21.588
15:26:33:46,34.389,0.098,0.177,0.163,-12.327,-11.835,18.507
15:26:33:485,34.414,0.357,0.129,-0.149,-12.100,-10.336,16.242
15:26:33:511,34.440,0.313,0.126,0.233,-11.310,-9.813,13.116
15:26:33:539,34.468,0.088,0.024,0.079,-10.605,-10.254,11.649
15:26:33:565,34.494,0.176,-0.139,-0.062,-9.671,-10.951,10.102
15:26:33:59,34.519,0.058,-0.021,-0.007,-9.091,-10.927,8.635
15:26:33:705,34.634,0.044,-0.001,-0.027,-8.774,-10.434,7.665
15:26:33:705,34.634,0.011,-0.004,0.075,-8.451,-9.469,6.339
15:26:33:705,34.634,0.000,0.059,0.011,-8.416,-9.067,5.580
15:26:33:706,34.635,0.029,0.032,-0.056,-8.423,-8.755,4.588
15:26:33:722,34.651,0.029,0.008,-0.036,-8.252,-8.408,3.807
15:26:33:751,34.680,0.067,0.024,-0.044,-8.057,-8.025,3.390
15:26:33:751,34.680,0.014,0.009,0.022,-7.679,-7.319,2.981
15:26:33:8,34.729,0.003,0.015,0.017,-7.466,-6.847,2.835
15:26:33:829,34.758,-0.009,-0.012,-0.058,-7.287,-6.206,2.624
15:26:33:829,34.758,-0.039,-0.027,-0.061,-7.153,-5.684,2.350
15:26:33:882,34.811,-0.054,-0.006,-0.016,-6.817,-5.772,1.756
15:26:33:882,34.811,-0.064,0.043,-0.015,-6.376,-5.184,0.985
15:26:33:905,34.833,-0.015,0.015,-0.019,-6.008,-5.732,0.340
15:26:33:934,34.863,-0.016,-0.018,-0.027,-5.397,-5.453,-0.695
15:26:33:959,34.888,-0.036,0.006,-0.041,-4.977,-6.106,-1.415
15:26:33:985,34.914,-0.034,0.010,-0.040,-4.343,-5.961,-2.549
15:26:34:012,34.941,-0.010,0.015,-0.041,-3.662,-6.780,-3.779
15:26:34:037,34.966,0.005,0.016,-0.034,-3.155,-6.796,-4.661
15:26:34:062,34.991,0.004,0.016,-0.034,-2.371,-7.490,-5.996
15:26:34:089,35.017,-0.001,0.008,-0.023,-1.835,-7.555,-6.861
15:26:34:115,35.044,0.008,0.026,-0.049,-1.061,-8.266,-8.130
15:26:34:141,35.070,-0.020,0.029,-0.040,-0.490,-8.395,-8.974
15:26:34:167,35.096,-0.046,0.079,-0.090,0.456,-9.185,-10.278
15:26:34:223,35.152,-0.100,0.159,-0.057,1.560,-9.764,-11.775
15:26:34:223,35.152,-0.134,0.196,-0.102,2.435,-9.832,-12.944
15:26:34:246,35.175,-0.188,0.212,-0.108,3.986,-10.399,-14.999
15:26:34:272,35.201,-0.197,0.232,-0.180,5.220,-10.573,-16.571
15:26:34:299,35.228,-0.204,0.217,-0.265,7.400,-11.333,-19.239
15:26:34:327,35.256,-0.261,0.282,-0.576,9.861,-11.002,-22.321
15:26:34:409,35.338,-0.294,0.127,-0.677,11.788,-10.498,-24.550
15:26:34:41,35.339,-0.162,0.133,-0.552,15.388,-8.525,-28.005
15:26:34:411,35.340,-0.311,0.122,-0.497,18.339,-6.233,-30.079
15:26:34:46,35.389,-0.360,-0.183,-0.424,23.279,-2.099,-32.566
15:26:34:46,35.389,-0.307,-0.720,-0.253,27.550,1.926,-33.959
15:26:34:483,35.411,-0.383,-0.687,-0.153,29.237,4.474,-33.992
15:26:34:509,35.438,-0.526,-0.813,0.140,28.962,6.947,-32.987
15:26:34:535,35.464,-0.449,-0.758,0.170,27.354,7.947,-31.771
15:26:34:561,35.490,-0.493,-0.738,0.078,23.158,8.416,-29.207
15:26:34:587,35.516,-0.623,-0.519,0.130,19.301,8.029,-26.673
15:26:34:613,35.542,-0.584,-0.182,0.189,13.074,6.777,-21.620
15:26:34:669,35.597,-0.468,0.100,-0.088,7.844,5.046,-15.985
15:26:34:67,35.598,-0.296,0.331,-0.109,4.887,3.581,-11.840
15:26:34:694,35.623,-0.198,0.506,-0.013,0.108,0.893,-5.259
15:26:34:719,35.648,-0.106,0.741,0.043,-2.873,-1.210,-0.729
15:26:34:745,35.674,0.217,0.824,0.146,-6.394,-4.796,5.971
15:26:34:771,35.700,0.616,0.574,0.261,-9.169,-8.958,12.279
15:26:34:797,35.726,0.756,0.282,0.510,-10.688,-11.680,16.332
15:26:34:823,35.752,1.132,-0.464,0.243,-12.311,-14.106,21.609
15:26:34:851,35.780,0.987,-0.334,0.511,-13.538,-13.794,23.835
15:26:34:903,35.832,0.668,-0.271,0.461,-14.721,-10.589,24.647
15:26:34:933,35.862,0.636,-0.183,0.416,-14.889,-8.147,24.042
15:26:34:933,35.862,0.567,-0.185,0.309,-13.962,-5.292,22.299
15:26:34:955,35.884,0.113,0.092,-0.631,-12.622,-3.938,20.151
15:26:34:981,35.910,-0.371,0.172,-0.083,-12.315,-3.275,18.457
15:26:35:008,35.937,0.167,0.162,-0.073,-12.011,-2.088,15.941
15:26:35:034,35.963,0.280,0.184,0.192,-11.904,-1.938,14.084
15:26:35:06,35.989,0.398,0.144,0.144,-11.495,-2.205,11.668
15:26:35:116,36.045,0.283,-0.029,0.068,-10.903,-2.853,9.971
15:26:35:116,36.045,0.174,0.002,-0.045,-10.565,-2.804,9.003
15:26:35:14,36.069,0.056,-0.041,-0.063,-10.131,-2.083,7.578
15:26:35:166,36.095,0.018,-0.012,0.001,-9.869,-1.421,6.720
15:26:35:191,36.120,-0.038,0.023,-0.014,-9.622,-0.619,5.606
15:26:35:217,36.146,0.004,0.014,-0.032,-9.525,0.581,4.917
15:26:35:244,36.173,0.071,0.012,-0.084,-9.370,0.817,3.986
15:26:35:272,36.201,0.063,0.012,-0.047,-9.078,2.279,3.197
15:26:35:297,36.226,0.030,-0.005,0.037,-8.818,2.807,2.824
15:26:35:322,36.251,0.048,0.003,0.002,-8.569,4.510,2.424
15:26:35:349,36.278,0.023,-0.030,-0.097,-8.481,5.170,2.208
15:26:35:404,36.333,0.000,-0.015,-0.073,-8.295,6.999,1.989
15:26:35:405,36.334,-0.035,0.006,-0.008,-8.118,7.835,1.812
15:26:35:43,36.358,-0.022,0.003,-0.017,-7.871,9.680,1.450
15:26:35:455,36.384,-0.083,-0.015,-0.103,-7.663,10.619,0.927
15:26:35:48,36.409,-0.002,0.007,-0.038,-7.532,11.752,0.496
15:26:35:506,36.435,0.071,0.005,0.071,-7.287,12.226,-0.158
15:26:35:532,36.461,0.016,0.008,-0.010,-7.178,13.216,-0.562
15:26:35:561,36.490,-0.037,-0.011,-0.045,-7.056,14.008,-1.235
15:26:35:585,36.514,-0.130,-0.030,-0.139,-6.901,14.995,-2.135
15:26:35:614,36.543,-0.084,-0.045,-0.034,-6.816,15.118,-2.969
15:26:35:637,36.566,0.058,0.126,0.093,-6.550,15.283,-4.275
15:26:35:666,36.595,-0.042,0.074,0.050,-6.204,15.415,-5.253
15:26:35:691,36.620,-0.057,0.023,-0.167,-5.475,15.985,-6.857
15:26:35:716,36.645,0.020,0.036,-0.070,-4.462,16.305,-8.637
15:26:35:743,36.672,0.055,0.100,0.062,-3.657,16.650,-9.814
15:26:35:768,36.697,-0.100,0.110,0.081,-2.228,17.750,-11.608
15:26:35:795,36.724,-0.193,0.193,0.042,-1.236,18.326,-12.836
15:26:35:853,36.782,-0.205,0.199,0.055,0.390,18.914,-14.868
15:26:35:854,36.783,-0.283,0.147,0.011,1.595,19.016,-16.413
15:26:35:855,36.784,-0.349,0.147,-0.103,3.583,19.055,-19.026
15:26:35:903,36.832,-0.439,0.187,-0.276,5.675,18.492,-22.115
15:26:35:903,36.832,-0.748,0.243,-0.147,7.216,18.310,-24.540
15:26:35:926,36.855,-0.662,0.115,-0.294,10.215,18.301,-28.869
15:26:35:952,36.881,-0.440,0.281,-0.134,12.563,18.532,-32.130
15:26:36:008,36.937,-0.693,0.100,-0.237,17.023,20.119,-37.068
15:26:36:008,36.937,-0.722,-0.143,-0.074,22.729,21.879,-41.083
15:26:36:06,36.989,-0.519,-0.325,0.110,26.495,22.422,-43.176
15:26:36:061,36.990,-0.267,-0.504,-0.203,30.513,23.826,-44.835
15:26:36:084,37.013,-0.598,-0.984,0.192,29.913,24.647,-43.968
15:26:36:11,37.039,-0.368,-0.905,0.292,26.929,25.070,-41.742
15:26:36:136,37.065,-0.275,-0.657,0.141,24.261,25.005,-39.526
15:26:36:162,37.091,-0.352,-0.543,0.097,19.116,24.971,-34.466
15:26:36:191,37.120,-0.514,-0.355,0.065,13.842,25.062,-27.743
15:26:36:215,37.144,-0.402,-0.123,0.061,10.852,25.351,-22.866
15:26:36:241,37.170,-0.341,0.087,-0.012,6.770,26.137,-15.501
15:26:36:267,37.196,-0.130,0.414,0.068,4.042,26.265,-10.671
15:26:36:294,37.223,-0.100,0.479,0.050,-0.136,25.375,-3.275
15:26:36:349,37.278,0.081,0.732,-0.018,-4.135,23.361,4.012
15:26:36:349,37.278,0.465,0.808,-0.067,-6.577,21.202,8.806
15:26:36:402,37.331,1.363,0.338,-0.254,-9.669,16.724,16.068
15:26:36:402,37.331,1.581,0.030,-0.107,-11.166,13.813,20.522
15:26:36:425,37.354,1.736,-0.432,-0.285,-12.873,11.629,25.180
15:26:36:453,37.382,1.703,-0.446,-0.298,-13.866,11.980,26.179
15:26:36:478,37.407,0.515,-0.038,-0.117,-13.881,13.753,24.409
15:26:36:504,37.433,0.385,0.107,0.449,-12.630,13.958,21.599
15:26:36:53,37.459,0.206,0.111,-0.149,-11.700,13.019,19.199
15:26:36:556,37.485,0.636,0.047,-0.068,-11.090,11.236,15.978
15:26:36:583,37.512,0.131,0.149,0.010,-10.607,10.192,14.191
15:26:36:609,37.538,0.195,-0.177,-0.194,-9.455,8.505,12.300
15:26:36:635,37.564,0.134,0.010,-0.020,-8.457,8.285,10.369
15:26:36:664,37.593,0.052,-0.002,0.031,-7.865,9.008,9.071
15:26:36:687,37.616,-0.024,-0.036,0.093,-7.351,10.178,7.222
15:26:36:714,37.643,0.027,0.029,0.033,-7.287,10.423,6.133
15:26:36:74,37.669,0.068,0.017,-0.059,-7.326,10.330,4.761
15:26:36:766,37.695,0.020,-0.006,-0.034,-7.345,10.469,3.927
15:26:36:794,37.723,0.031,0.022,-0.020,-7.342,10.824,2.799
15:26:36:82,37.749,0.054,0.006,-0.048,-7.375,11.093,1.875
15:26:36:847,37.776,0.053,0.010,-0.032,-7.404,11.341,1.441
15:26:36:872,37.801,0.012,0.015,-0.012,-7.492,11.879,0.872
15:26:36:897,37.826,-0.022,-0.021,-0.068,-7.521,12.358,0.464
15:26:36:923,37.852,-0.002,-0.013,-0.059,-7.488,13.095,-0.232
15:26:36:95,37.879,-0.027,0.020,-0.019,-7.375,13.828,-0.933
15:26:36:978,37.907,-0.048,0.017,-0.016,-7.275,14.811,-1.442
15:26:37:004,37.933,-0.003,0.000,-0.041,-7.091,15.359,-2.264
15:26:37:029,37.958,0.002,-0.001,-0.046,-6.952,16.038,-2.830
15:26:37:055,37.984,-0.012,0.007,-0.036,-6.711,16.554,-3.730
15:26:37:081,38.010,0.004,0.012,-0.020,-6.557,17.128,-4.369
15:26:37:136,38.065,0.008,0.014,-0.030,-6.287,17.763,-5.376
15:26:37:137,38.066,0.019,-0.011,-0.023,-5.990,18.498,-6.370
15:26:37:16,38.089,0.013,-0.016,-0.023,-5.803,18.903,-7.000
15:26:37:186,38.115,-0.031,0.018,-0.031,-5.506,19.606,-7.890
15:26:37:212,38.141,-0.055,0.051,-0.046,-5.259,19.877,-8.485
15:26:37:241,38.170,-0.069,0.091,-0.009,-4.765,20.311,-9.471
15:26:37:266,38.195,-0.078,0.106,0.022,-4.094,20.985,-10.702
15:26:37:291,38.220,-0.087,0.084,0.032,-3.548,21.197,-11.712
15:26:37:317,38.246,-0.136,0.120,-0.001,-2.606,21.576,-13.510
15:26:37:343,38.272,-0.153,0.125,0.037,-1.865,21.749,-14.878
15:26:37:37,38.299,-0.186,0.098,0.036,-0.594,21.873,-17.224
15:26:37:397,38.326,-0.272,0.099,-0.012,0.386,21.847,-18.987
15:26:37:422,38.351,-0.355,0.155,-0.078,2.062,21.712,-21.920
15:26:37:449,38.378,-0.426,0.192,-0.200,4.019,21.703,-25.283
15:26:37:476,38.405,-0.628,0.270,-0.203,5.537,22.165,-27.847
15:26:37:502,38.431,-0.525,0.242,0.011,8.819,23.867,-32.085
15:26:37:528,38.456,-0.603,0.202,-0.185,11.537,25.470,-35.137
15:26:37:554,38.483,-0.690,0.144,-0.121,16.466,28.342,-39.301
15:26:37:58,38.509,-0.487,-0.246,0.116,22.071,30.986,-42.502
15:26:37:608,38.537,-0.004,-0.378,-0.521,25.580,33.078,-43.997
15:26:37:633,38.562,-0.461,-1.011,-0.194,27.941,37.312,-43.314
15:26:37:658,38.587,-0.363,-1.002,0.397,26.535,39.952,-41.226
15:26:37:714,38.643,-0.202,-0.830,0.464,23.234,43.107,-37.903
15:26:37:715,38.644,-0.246,-0.616,0.409,18.604,46.082,-32.767
15:26:37:767,38.696,-0.320,-0.390,0.499,14.991,47.984,-28.601
15:26:37:767,38.696,-0.280,-0.124,0.483,9.750,50.759,-21.793
15:26:37:79,38.719,-0.191,0.073,0.451,6.648,52.650,-17.175
15:26:37:816,38.745,-0.036,0.362,0.407,1.863,54.734,-10.476
15:26:37:842,38.771,0.082,0.523,0.312,-2.916,55.474,-3.573
15:26:37:869,38.798,0.168,0.579,0.260,-5.904,55.689,1.074
15:26:37:897,38.826,0.493,0.791,0.046,-10.064,55.508,7.850
15:26:37:922,38.851,0.955,0.515,-0.301,-12.572,54.694,12.336
15:26:37:947,38.876,0.784,0.206,-0.422,-15.824,52.918,19.110
15:26:37:974,38.903,0.941,-0.032,-0.666,-17.787,52.185,22.940
15:26:38:059,38.988,1.071,-0.522,-0.932,-20.400,53.013,26.058
15:26:38:06,38.989,0.839,-0.425,-0.770,-21.585,55.890,25.792
15:26:38:061,38.990,0.606,0.056,-0.674,-21.378,58.025,24.255
15:26:38:111,39.040,-0.324,0.233,-0.015,-20.062,60.228,21.130
15:26:38:111,39.040,0.234,0.134,0.653,-19.343,61.011,19.317
15:26:38:113,39.042,0.529,0.124,0.130,-17.728,60.470,17.018
15:26:38:131,39.060,0.641,0.283,-0.548,-16.622,59.375,14.066
15:26:38:158,39.087,0.218,0.232,-0.102,-15.999,58.562,12.521
15:26:38:183,39.112,-0.045,-0.131,-0.201,-14.771,56.625,11.034
15:26:38:212,39.141,0.098,-0.129,-0.418,-14.144,55.757,10.069
15:26:38:237,39.166,0.156,0.004,-0.145,-13.546,56.201,8.649
15:26:38:29,39.219,0.105,-0.010,0.008,-13.244,57.224,7.806
15:26:38:432,39.361,0.045,0.032,0.062,-13.083,58.425,6.837
15:26:38:432,39.361,-0.058,0.019,-0.172,-13.050,58.664,6.231
15:26:38:432,39.361,-0.067,0.005,-0.198,-12.851,58.847,5.941
15:26:38:432,39.361,0.082,0.008,0.034,-12.412,59.624,5.550
15:26:38:452,39.381,-0.037,0.012,-0.079,-12.246,60.190,5.285
15:26:38:452,39.381,-0.045,-0.007,-0.078,-11.984,60.975,4.873
15:26:38:453,39.382,0.006,-0.004,-0.013,-11.606,61.994,4.248
15:26:38:473,39.402,-0.017,0.006,-0.004,-11.331,63.695,3.704
15:26:38:499,39.428,0.000,0.004,-0.050,-10.929,64.561,2.811
15:26:38:554,39.483,0.015,0.002,-0.011,-10.625,65.799,2.175
15:26:38:555,39.484,0.010,0.003,-0.006,-10.163,66.567,1.162
15:26:38:578,39.507,0.002,0.002,-0.051,-9.850,67.735,0.473
15:26:38:604,39.533,0.013,0.003,-0.050,-9.388,68.307,-0.546
15:26:38:658,39.586,0.006,-0.002,-0.040,-8.980,69.520,-1.573
15:26:38:685,39.614,0.018,-0.011,-0.034,-8.748,69.888,-2.288
15:26:38:686,39.615,0.017,-0.013,-0.023,-8.451,70.838,-3.361
15:26:38:823,39.752,-0.031,0.029,-0.026,-8.263,71.121,-4.090
15:26:38:824,39.753,-0.057,0.056,-0.041,-7.881,71.939,-5.237
15:26:38:824,39.753,-0.063,0.075,-0.035,-7.265,72.719,-6.570
15:26:38:825,39.754,-0.002,0.130,-0.001,-6.760,73.005,-7.562
15:26:38:843,39.771,-0.001,0.130,0.053,-5.856,74.007,-9.183
15:26:38:844,39.772,-0.013,0.136,0.095,-5.175,74.406,-10.351
15:26:38:869,39.798,0.004,0.101,0.098,-4.079,75.135,-12.225
15:26:38:894,39.823,-0.051,0.076,0.104,-3.336,75.317,-13.594
15:26:38:92,39.849,-0.066,0.069,0.121,-2.208,75.420,-15.808
15:26:38:945,39.874,-0.140,0.095,0.081,-1.020,75.245,-18.262
15:26:38:972,39.901,-0.104,0.074,0.054,-0.105,75.480,-20.079
15:26:38:998,39.927,-0.189,0.132,0.152,1.521,76.195,-23.029
15:26:39:024,39.953,-0.271,0.153,0.234,3.012,77.459,-25.147
15:26:39:108,40.037,-0.345,0.176,0.204,6.026,80.268,-28.656
15:26:39:109,40.038,-0.452,0.262,0.401,10.085,84.753,-32.469
15:26:39:11,40.039,-0.415,0.205,0.629,13.446,87.941,-34.923
15:26:39:158,40.087,-0.260,-0.158,0.527,19.074,91.859,-38.163
15:26:39:158,40.087,-0.160,-0.574,-0.170,22.172,93.773,-39.928
15:26:39:181,40.110,-0.300,-0.678,0.335,24.882,97.578,-40.391
15:26:39:236,40.165,0.287,-0.875,0.611,21.323,101.915,-36.564
15:26:39:289,40.218,0.241,-0.659,0.454,17.185,103.225,-32.886
15:26:39:29,40.219,0.152,-0.435,0.444,13.696,103.840,-29.467
15:26:39:312,40.241,0.116,-0.234,0.519,8.480,104.617,-23.162
15:26:39:339,40.268,0.094,-0.040,0.436,5.418,105.243,-18.565
15:26:39:365,40.294,0.028,0.152,0.382,1.068,105.970,-11.606
15:26:39:391,40.320,0.163,0.560,-0.026,-3.320,105.599,-4.583
15:26:39:417,40.346,0.231,0.548,-0.083,-6.031,105.057,0.156
15:26:39:473,40.402,0.296,0.599,-0.325,-9.953,103.512,7.204
15:26:39:473,40.402,0.366,0.598,-0.573,-12.316,101.634,11.991
15:26:39:498,40.426,0.138,0.207,-1.054,-15.014,97.518,19.198
15:26:39:523,40.452,0.113,0.037,-1.333,-16.526,94.674,23.506
15:26:39:549,40.478,0.150,-0.476,-1.590,-18.102,92.239,27.735
15:26:39:575,40.504,0.172,-0.461,-1.466,-18.696,92.485,28.347
15:26:39:63,40.559,-0.056,-0.315,-1.154,-18.163,93.264,27.016
15:26:39:631,40.560,0.455,0.068,-0.067,-16.884,94.264,24.065
15:26:39:654,40.583,0.200,0.114,-0.284,-16.030,94.387,21.981
15:26:39:71,40.639,0.252,0.087,-0.461,-14.832,93.427,18.727
15:26:39:711,40.640,0.093,0.106,-0.451,-14.118,92.944,15.899
15:26:39:733,40.662,0.120,0.022,-0.189,-13.624,92.255,14.631
15:26:39:759,40.688,-0.071,-0.069,-0.227,-12.924,91.562,13.102
15:26:39:815,40.744,0.004,-0.025,-0.185,-12.522,91.611,12.092
15:26:39:815,40.744,0.067,-0.004,-0.134,-12.088,92.379,10.730
15:26:39:837,40.766,0.090,0.020,-0.066,-11.928,93.110,9.589
15:26:39:865,40.794,0.060,0.022,-0.030,-11.950,93.311,8.926
15:26:39:89,40.819,-0.034,0.003,-0.061,-11.944,92.849,7.943
15:26:39:917,40.845,-0.049,0.007,-0.086,-11.841,92.934,7.293
15:26:39:972,40.901,-0.033,-0.005,-0.102,-11.597,92.774,6.376
15:26:39:972,40.901,0.061,-0.004,-0.129,-11.356,93.316,5.720
15:26:39:996,40.925,-0.012,0.024,-0.055,-11.257,93.330,5.427
15:26:40:052,40.981,-0.093,-0.025,-0.025,-11.130,94.069,5.008
15:26:40:052,40.981,0.018,-0.007,-0.036,-11.024,94.286,4.611
15:26:40:074,41.002,0.046,0.008,-0.021,-10.830,95.208,3.883
15:26:40:1,41.029,-0.008,0.020,0.016,-10.630,95.901,2.967
15:26:40:127,41.056,0.007,0.028,-0.034,-10.429,96.301,2.234
15:26:40:155,41.084,0.007,0.013,-0.059,-9.993,96.623,1.023
15:26:40:179,41.108,-0.003,0.001,-0.028,-9.621,96.993,0.154
15:26:40:206,41.135,-0.025,0.023,-0.017,-9.061,97.449,-1.274
15:26:40:261,41.190,0.014,0.014,-0.061,-8.477,97.810,-2.827
15:26:40:261,41.190,-0.007,0.009,-0.059,-8.079,98.023,-3.878
15:26:40:284,41.213,-0.015,0.029,-0.049,-7.507,98.196,-5.456
15:26:40:311,41.240,0.073,0.116,0.023,-7.144,98.362,-6.502
15:26:40:336,41.265,0.107,0.144,0.024,-6.510,98.570,-8.178
15:26:40:364,41.293,0.022,0.126,0.028,-5.987,98.778,-9.458
15:26:40:389,41.318,-0.024,0.142,0.032,-5.011,98.984,-11.605
15:26:40:416,41.345,-0.018,0.177,0.097,-3.806,99.276,-13.968
15:26:40:443,41.371,0.053,0.149,0.143,-2.855,99.481,-15.688
15:26:40:468,41.397,-0.013,0.102,0.169,-1.243,99.604,-18.464
15:26:40:494,41.423,-0.099,0.136,0.228,-0.152,99.563,-20.446
15:26:40:52,41.449,-0.096,0.290,0.519,1.704,99.880,-23.671
15:26:40:546,41.475,-0.214,0.164,0.603,4.692,101.062,-27.394
15:26:40:601,41.530,-0.195,0.250,0.396,7.208,102.440,-30.352
15:26:40:602,41.531,-0.225,0.156,0.660,11.890,105.658,-35.109
15:26:40:626,41.554,-0.037,0.015,0.611,15.425,107.603,-38.130
15:26:40:656,41.585,0.068,-0.381,0.583,21.175,109.536,-41.869
15:26:40:656,41.585,-0.133,-0.461,0.303,24.456,110.923,-43.544
15:26:40:707,41.636,0.070,-0.999,0.555,26.347,113.403,-43.406
15:26:40:707,41.636,0.449,-0.893,0.427,24.152,115.499,-40.747
15:26:40:76,41.689,0.439,-0.773,0.375,21.418,116.077,-38.439
15:26:40:76,41.689,0.293,-0.535,0.358,16.058,116.750,-32.852
15:26:40:782,41.711,0.344,-0.301,0.459,12.462,117.159,-28.072
15:26:40:81,41.739,0.313,-0.086,0.383,8.017,117.887,-20.252
15:26:40:836,41.765,0.226,0.066,0.395,4.186,118.570,-12.241
15:26:40:861,41.790,0.228,0.429,0.092,1.457,118.158,-7.101
15:26:40:887,41.816,0.176,0.675,0.002,-2.332,116.311,0.579
15:26:40:914,41.843,0.126,0.795,-0.187,-4.596,114.325,5.432
15:26:40:941,41.870,0.049,0.694,-0.803,-7.265,109.737,12.456
15:26:40:967,41.896,-0.159,0.224,-1.224,-8.250,105.579,17.380
15:26:40:994,41.922,-0.339,-0.053,-1.669,-9.291,99.712,23.936
15:26:41:02,41.949,-0.439,-0.691,-1.919,-10.297,97.118,27.445
15:26:41:047,41.976,-0.499,-0.724,-1.764,-11.024,97.605,27.739
15:26:41:1,42.029,-0.422,0.015,-0.277,-10.798,99.314,25.467
15:26:41:101,42.030,0.448,0.031,-0.360,-10.316,99.867,23.974
15:26:41:125,42.054,0.170,0.061,0.007,-9.374,99.499,20.719
15:26:41:15,42.079,0.079,-0.023,-0.344,-9.038,98.399,17.554
15:26:41:177,42.105,-0.071,0.109,-0.526,-9.033,97.529,15.808
15:26:41:205,42.134,0.005,-0.039,-0.212,-8.696,96.154,13.898
15:26:41:23,42.159,-0.070,-0.072,-0.303,-8.373,95.731,12.747
15:26:41:255,42.184,-0.012,-0.058,-0.143,-8.010,96.596,10.960
15:26:41:281,42.210,0.159,0.031,-0.033,-7.971,97.595,9.896
15:26:41:307,42.236,0.055,0.062,0.019,-8.185,98.503,8.568
15:26:41:334,42.263,-0.042,0.000,-0.022,-8.442,97.266,7.510
15:26:41:36,42.289,-0.120,-0.004,-0.103,-8.520,97.020,6.991
15:26:41:386,42.315,0.014,0.031,-0.034,-8.426,96.212,6.296
15:26:41:413,42.342,0.017,0.008,-0.036,-8.332,96.473,5.834
15:26:41:439,42.368,0.003,0.010,-0.041,-8.270,96.197,5.084
15:26:41:465,42.394,0.002,0.001,-0.041,-8.159,96.899,4.146
15:26:41:492,42.421,-0.016,0.007,-0.013,-8.023,96.715,3.435
15:26:41:518,42.447,0.010,0.004,-0.008,-7.744,97.565,2.351
15:26:41:544,42.473,-0.001,0.001,0.019,-7.575,97.313,1.631
15:26:41:571,42.500,-0.010,-0.002,0.008,-7.317,97.599,0.549
15:26:41:596,42.525,0.004,0.005,-0.022,-7.125,96.992,-0.204
15:26:41:622,42.551,0.010,-0.002,-0.026,-6.834,96.936,-1.344
15:26:41:649,42.578,0.009,0.004,-0.025,-6.554,96.351,-2.522
15:26:41:675,42.604,0.012,0.019,-0.020,-6.372,96.343,-3.334
15:26:41:701,42.630,0.021,0.034,-0.036,-6.119,95.751,-4.566
15:26:41:729,42.658,0.069,0.035,-0.031,-5.965,95.816,-5.363
15:26:41:755,42.684,0.001,0.022,-0.016,-5.744,95.684,-6.527
15:26:41:78,42.709,-0.062,0.057,0.021,-5.397,95.715,-7.735
15:26:41:806,42.735,-0.050,0.063,0.029,-5.033,95.882,-8.622
15:26:41:832,42.761,0.000,0.044,0.041,-4.346,95.865,-10.131
15:26:41:861,42.790,0.027,0.059,0.034,-3.811,96.038,-11.266
15:26:41:886,42.815,-0.022,0.110,0.047,-2.892,96.311,-13.123
15:26:41:911,42.840,0.019,0.115,0.090,-1.796,96.580,-15.093
15:26:41:938,42.867,0.054,0.081,0.117,-0.995,96.584,-16.474
15:26:41:965,42.894,-0.034,0.086,0.130,0.197,96.500,-18.598
15:26:41:991,42.920,-0.071,0.105,0.147,1.013,95.986,-20.051
15:26:42:016,42.945,-0.066,0.139,0.185,2.429,95.739,-22.409
15:26:42:043,42.972,-0.106,0.152,0.289,3.665,95.731,-24.148
15:26:42:069,42.998,-0.215,0.084,0.361,6.231,96.698,-27.087
15:26:42:096,43.025,-0.177,0.220,0.303,9.431,98.368,-30.708
15:26:42:122,43.051,-0.237,0.128,0.473,11.887,99.924,-33.353
15:26:42:148,43.077,-0.244,0.196,0.745,16.201,102.456,-37.168
15:26:42:174,43.103,-0.191,-0.204,0.600,19.650,103.729,-39.546
15:26:42:2,43.129,-0.282,-0.553,-0.120,24.220,104.646,-42.652
15:26:42:226,43.155,-0.123,-0.922,0.542,26.585,105.621,-43.720
15:26:42:254,43.183,0.100,-0.886,0.713,25.581,105.694,-42.734
15:26:42:28,43.209,0.248,-0.722,0.434,22.936,105.442,-40.456
15:26:42:307,43.235,0.029,-0.551,0.460,20.431,104.525,-38.099
15:26:42:332,43.261,0.036,-0.432,0.485,15.783,103.705,-32.841
15:26:42:358,43.287,-0.072,-0.246,0.488,12.721,103.189,-28.545
15:26:42:414,43.343,-0.103,-0.019,0.432,8.783,102.896,-21.400
15:26:42:414,43.343,-0.157,0.198,0.360,5.167,102.673,-14.094
15:26:42:436,43.365,-0.116,0.390,0.098,2.653,101.831,-9.399
15:26:42:464,43.393,-0.219,0.437,0.020,-1.129,99.699,-2.359
15:26:42:49,43.418,-0.174,0.534,-0.077,-3.538,97.958,2.281
15:26:42:515,43.444,-0.099,0.737,-0.541,-6.889,95.254,9.061
15:26:42:542,43.471,0.285,0.386,-1.280,-9.143,93.057,13.580
15:26:42:568,43.497,0.068,-0.016,-1.522,-11.742,89.670,20.295
15:26:42:623,43.552,0.252,-0.459,-1.743,-14.243,87.372,25.206
15:26:42:624,43.553,0.276,-0.253,-1.526,-15.507,87.312,26.517
15:26:42:676,43.605,0.381,-0.283,-1.279,-15.313,88.110,24.974
15:26:42:677,43.606,0.164,0.697,1.022,-14.396,88.039,23.049
15:26:42:701,43.630,0.774,0.238,-0.054,-13.048,87.656,20.210
15:26:42:726,43.655,0.152,0.079,-0.299,-12.040,87.432,16.798
15:26:42:751,43.680,-0.016,0.030,-0.458,-11.865,87.830,14.592
15:26:42:778,43.707,0.022,0.166,-0.100,-11.345,87.054,12.159
15:26:42:804,43.733,-0.138,-0.101,-0.198,-10.614,86.286,11.037
15:26:42:833,43.762,-0.050,-0.113,-0.193,-9.812,85.704,9.410
15:26:42:834,43.762,0.139,0.017,-0.084,-9.452,86.237,8.012
15:26:42:885,43.814,0.114,0.052,0.039,-9.388,86.625,7.211
15:26:42:886,43.815,-0.065,0.012,0.039,-9.563,85.948,6.076
15:26:42:938,43.867,-0.050,0.002,-0.107,-9.583,85.551,5.355
15:26:42:939,43.868,-0.003,0.031,-0.131,-9.474,84.882,4.432
15:26:42:962,43.891,0.039,0.021,-0.044,-9.308,85.136,3.939
15:26:43:018,43.947,0.050,-0.001,-0.027,-8.994,85.079,3.389
15:26:43:019,43.947,-0.031,-0.012,-0.031,-8.891,85.620,2.908
15:26:43:04,43.969,-0.039,0.003,-0.063,-8.807,85.818,2.640
15:26:43:068,43.997,-0.007,-0.007,-0.008,-8.587,86.676,2.379
15:26:43:093,44.022,-0.021,-0.003,0.013,-8.454,87.001,2.214
15:26:43:119,44.048,-0.010,0.006,-0.001,-8.338,87.770,1.948
15:26:43:145,44.074,-0.026,-0.007,0.042,-8.202,88.215,1.682
15:26:43:171,44.100,-0.046,-0.002,0.036,-8.154,88.500,1.459
15:26:43:197,44.126,-0.039,0.018,0.034,-7.992,88.663,0.741
15:26:43:226,44.155,0.019,0.032,0.024,-7.850,88.839,0.019
15:26:43:252,44.181,-0.013,0.005,0.011,-7.573,89.055,-1.285
15:26:43:277,44.206,-0.024,-0.015,0.022,-7.355,89.465,-2.309
15:26:43:303,44.232,-0.068,0.011,0.032,-6.919,90.099,-3.996
15:26:43:329,44.258,-0.048,0.046,0.015,-6.256,90.603,-5.810
15:26:43:357,44.286,-0.036,0.070,-0.016,-5.704,90.857,-7.026
15:26:43:382,44.311,-0.036,0.062,-0.035,-4.708,91.186,-8.797
15:26:43:408,44.337,0.012,0.153,0.098,-3.956,91.557,-9.969
15:26:43:434,44.363,0.032,0.217,0.134,-2.697,92.181,-11.811
15:26:43:46,44.389,0.097,0.223,0.211,-1.243,92.785,-13.916
15:26:43:486,44.415,0.050,0.181,0.250,-0.068,93.045,-15.562
15:26:43:515,44.444,-0.134,0.204,0.357,1.995,93.018,-18.372
15:26:43:539,44.468,-0.281,0.233,0.353,3.539,92.678,-20.505
15:26:43:594,44.523,-0.381,0.286,0.699,6.080,92.299,-24.207
15:26:43:595,44.524,-0.404,0.103,0.700,8.160,92.153,-27.105
15:26:43:618,44.547,-0.100,0.302,0.423,11.481,91.737,-32.133
15:26:43:644,44.573,-0.303,0.078,0.635,15.423,92.068,-37.321
15:26:43:67,44.599,-0.149,-0.066,0.592,18.462,92.113,-40.249
15:26:43:696,44.625,-0.291,-0.485,-0.469,23.302,91.638,-43.864
15:26:43:722,44.651,-0.350,-0.918,0.650,25.582,92.089,-44.779
15:26:43:749,44.678,-0.091,-0.901,0.518,25.562,92.678,-43.757
15:26:43:775,44.704,0.018,-0.893,0.430,23.767,92.961,-41.232
15:26:43:83,44.759,-0.070,-0.764,0.356,21.536,92.847,-38.497
15:26:43:831,44.760,-0.136,-0.601,0.414,17.199,93.304,-32.810
15:26:43:882,44.811,-0.274,-0.368,0.349,14.244,93.549,-28.338
15:26:43:907,44.836,-0.290,-0.128,0.316,10.086,93.907,-20.942
15:26:43:937,44.866,-0.307,0.230,0.213,7.376,94.174,-15.784
15:26:43:937,44.866,-0.237,0.416,0.002,3.181,93.899,-8.155
15:26:43:959,44.888,-0.291,0.659,-0.020,-1.184,92.657,-0.665
15:26:43:985,44.914,-0.042,0.778,-0.545,-4.164,91.263,4.113
15:26:44:011,44.940,0.400,0.506,-1.147,-8.263,88.794,10.880
15:26:44:038,44.967,0.364,0.271,-1.182,-10.643,87.222,15.346
15:26:44:065,44.994,0.438,-0.112,-1.411,-13.862,85.801,21.094
15:26:44:09,45.019,0.633,-0.506,-1.479,-16.305,85.732,24.079
15:26:44:116,45.045,0.617,-0.201,-1.257,-17.109,86.211,24.170
15:26:44:142,45.071,-0.049,0.634,0.976,-15.985,86.023,22.038
15:26:44:169,45.098,0.815,0.137,-0.006,-14.823,84.711,20.949
15:26:44:197,45.126,-0.007,0.138,-0.480,-13.039,82.079,18.265
15:26:44:222,45.151,0.118,0.158,-0.393,-12.338,80.214,15.514
15:26:44:247,45.176,-0.011,0.200,-0.295,-11.828,79.353,13.826
15:26:44:304,45.233,-0.118,-0.203,-0.076,-10.440,77.998,11.822
15:26:44:304,45.233,0.036,-0.089,-0.250,-9.577,77.684,10.581
15:26:44:327,45.256,0.128,0.042,-0.085,-8.674,78.520,8.741
15:26:44:413,45.342,0.095,0.021,0.030,-8.236,79.325,7.583
15:26:44:413,45.342,-0.013,0.065,0.016,-7.932,79.711,6.041
15:26:44:413,45.342,-0.020,-0.018,-0.085,-7.594,79.328,4.762
15:26:44:46,45.389,-0.017,-0.013,-0.097,-7.337,79.230,4.049
15:26:44:461,45.390,0.076,0.018,-0.061,-7.103,79.267,3.286
15:26:44:484,45.413,0.000,0.013,-0.030,-7.091,79.336,2.924
15:26:44:51,45.439,-0.053,0.010,-0.084,-7.114,78.920,2.514
15:26:44:54,45.469,-0.021,-0.006,-0.003,-6.971,79.369,2.078
15:26:44:59,45.519,-0.014,-0.009,0.013,-6.868,79.352,1.678
15:26:44:647,45.576,-0.054,-0.016,-0.010,-6.679,79.991,0.950
15:26:44:648,45.577,-0.034,0.015,-0.001,-6.505,79.859,0.417
15:26:44:648,45.577,-0.007,0.036,0.001,-6.163,80.434,-0.448
15:26:44:667,45.596,-0.046,-0.005,0.000,-5.751,80.438,-1.391
15:26:44:694,45.623,-0.034,0.010,0.005,-5.467,80.727,-2.074
15:26:44:72,45.649,-0.044,0.024,0.034,-4.987,81.072,-3.209
15:26:44:775,45.704,-0.022,0.015,0.027,-4.598,81.368,-4.056
15:26:44:776,45.705,-0.069,0.017,0.007,-3.906,81.299,-5.534
15:26:44:8,45.729,-0.048,0.023,0.008,-3.359,81.419,-6.628
15:26:44:825,45.754,-0.149,0.046,0.029,-2.401,81.018,-8.449
15:26:44:853,45.782,-0.125,0.157,-0.019,-1.281,80.697,-10.491
15:26:44:879,45.808,-0.025,0.232,0.074,-0.378,80.807,-11.941
15:26:44:905,45.834,0.047,0.273,0.200,1.194,80.896,-14.358
15:26:44:931,45.860,-0.117,0.286,0.243,2.424,81.104,-16.177
15:26:44:957,45.886,-0.287,0.277,0.268,4.540,81.286,-19.139
15:26:44:983,45.912,-0.582,0.270,0.311,6.923,81.807,-22.543
15:26:45:009,45.938,-0.620,0.160,0.256,8.825,82.709,-25.076
15:26:45:035,45.964,-0.622,0.056,0.278,12.433,85.236,-29.027
15:26:45:062,45.990,-0.538,0.198,0.306,15.573,88.212,-31.531
15:26:45:088,46.017,-0.436,-0.195,0.547,20.909,93.626,-34.683
15:26:45:114,46.043,-0.252,-0.359,0.169,24.465,97.171,-35.980
15:26:45:143,46.072,-0.092,-0.607,0.194,28.867,102.846,-36.676
15:26:45:144,46.073,0.158,-0.867,0.658,29.878,107.742,-35.597
15:26:45:195,46.124,0.354,-0.837,0.507,28.462,110.031,-34.195
15:26:45:196,46.125,0.215,-0.738,0.486,24.162,112.036,-31.668
15:26:45:219,46.148,0.240,-0.464,0.430,19.950,112.482,-29.553
15:26:45:275,46.204,0.303,-0.177,0.500,13.027,112.953,-25.051
15:26:45:276,46.205,0.375,-0.068,0.525,7.274,114.010,-19.493
15:26:45:382,46.311,0.427,0.007,0.498,3.849,114.510,-15.520
15:26:45:382,46.311,0.396,0.368,0.297,-1.369,114.176,-9.293
15:26:45:438,46.367,0.350,0.568,0.076,-4.710,113.186,-4.879
15:26:45:439,46.368,0.341,0.615,-0.149,-9.066,110.834,2.012
15:26:45:439,46.368,0.323,0.774,-0.414,-11.676,108.857,6.827
15:26:45:44,46.369,0.436,0.583,-0.651,-14.954,105.433,14.315
15:26:45:456,46.385,0.293,0.198,-0.960,-16.827,102.574,21.305
15:26:45:482,46.411,-0.559,-0.658,-1.240,-17.614,101.759,24.934
15:26:45:511,46.440,0.206,-0.800,-1.424,-19.342,104.118,27.335
15:26:45:534,46.463,0.020,-0.368,-1.002,-19.973,107.181,26.948
15:26:45:56,46.489,-0.761,-0.139,-0.846,-19.552,111.133,24.844
15:26:45:586,46.515,0.411,0.246,-0.156,-18.933,114.898,21.262
15:26:45:612,46.541,0.529,0.491,-0.097,-18.354,116.181,19.049
15:26:45:639,46.568,-0.189,0.049,-0.747,-16.939,115.748,15.614
15:26:45:667,46.596,0.094,0.029,-0.108,-15.935,114.945,14.005
15:26:45:721,46.650,-0.221,-0.164,-0.060,-14.485,113.181,12.664
15:26:45:723,46.652,-0.159,-0.132,-0.137,-13.817,112.402,11.777
15:26:45:744,46.673,-0.046,0.026,-0.139,-13.312,112.317,10.396
15:26:45:797,46.726,0.020,-0.044,-0.066,-12.764,113.558,8.897
15:26:45:826,46.754,0.071,-0.005,-0.047,-12.486,114.410,7.970
15:26:45:826,46.755,0.015,0.053,-0.011,-12.316,114.843,6.761
15:26:45:85,46.779,-0.058,-0.013,-0.067,-12.154,114.870,5.967
15:26:45:876,46.805,-0.097,-0.001,-0.098,-11.857,115.137,4.864
15:26:45:902,46.831,-0.002,0.006,-0.107,-11.517,115.739,4.088
15:26:45:928,46.857,-0.020,0.034,-0.087,-11.315,116.215,3.774
15:26:45:954,46.883,0.041,-0.017,0.017,-11.037,116.993,3.442
15:26:45:98,46.909,-0.068,-0.010,-0.011,-10.891,117.509,3.174
15:26:46:007,46.935,-0.061,-0.005,-0.007,-10.681,119.337,2.629
15:26:46:034,46.963,0.000,0.003,0.033,-10.496,120.063,2.181
15:26:46:06,46.989,0.010,0.020,0.013,-10.128,122.096,1.362
15:26:46:085,47.014,-0.012,0.016,-0.024,-9.664,122.812,0.409
15:26:46:112,47.041,-0.029,-0.016,-0.043,-9.303,123.937,-0.256
15:26:46:138,47.067,-0.028,-0.004,-0.039,-8.825,124.441,-1.210
15:26:46:164,47.093,-0.004,0.000,-0.011,-8.545,125.490,-1.840
15:26:46:19,47.119,0.006,-0.004,-0.013,-8.096,126.166,-2.849
15:26:46:246,47.175,-0.027,0.005,0.024,-7.676,127.435,-3.924
15:26:46:246,47.175,-0.046,0.022,0.048,-7.365,127.666,-4.681
15:26:46:272,47.201,-0.087,0.072,0.094,-6.657,128.566,-6.045
15:26:46:295,47.224,-0.081,0.086,0.064,-6.024,128.670,-7.155
15:26:46:322,47.251,-0.133,0.092,0.084,-4.855,129.686,-9.058
15:26:46:349,47.278,0.081,0.245,0.044,-4.019,130.083,-10.351
15:26:46:375,47.304,0.217,0.269,0.077,-2.630,131.327,-12.479
15:26:46:403,47.332,0.116,0.203,0.143,-1.064,132.570,-15.030
15:26:46:428,47.357,0.016,0.208,0.161,0.033,132.997,-16.920
15:26:46:454,47.383,-0.207,0.235,0.307,1.838,134.849,-20.089
15:26:46:479,47.408,-0.304,0.257,0.527,3.352,136.552,-22.465
15:26:46:505,47.434,-0.304,0.254,0.730,6.711,140.857,-26.183
15:26:46:531,47.460,-0.022,0.191,0.788,11.746,147.687,-29.866
15:26:46:557,47.486,0.360,-0.052,0.694,15.574,152.575,-32.132
15:26:46:586,47.515,0.528,-0.476,0.500,21.212,159.040,-34.532
15:26:46:611,47.540,0.286,-0.455,0.162,24.056,162.495,-35.304
15:26:46:611,47.540,0.286,-0.455,0.162,24.056,162.495,-35.304
15:26:46:638,47.567,0.321,-0.533,-0.129,26.457,167.866,-35.262
15:26:46:692,47.621,1.113,-0.969,-0.207,24.692,171.141,-33.661
15:26:46:693,47.622,0.852,-0.857,-0.149,21.162,171.174,-32.359
15:26:46:715,47.644,0.591,-0.610,0.050,13.654,169.990,-29.799
15:26:46:741,47.670,0.599,-0.178,-0.275,8.663,169.518,-26.875
15:26:46:768,47.696,0.816,-0.108,-0.323,3.007,170.613,-21.070
15:26:46:797,47.726,0.851,0.034,-0.405,-0.896,172.668,-14.187
15:26:46:823,47.752,0.733,0.213,-0.399,-3.172,173.734,-9.161
15:26:46:846,47.775,0.334,0.672,-0.421,-6.727,174.527,-1.550
15:26:46:875,47.804,-0.090,0.830,-0.670,-9.008,174.259,3.462
15:26:46:9,47.829,-0.445,0.672,-0.801,-11.917,172.618,11.146
15:26:46:984,47.913,-1.079,0.042,-0.241,-13.503,169.173,18.680
15:26:46:985,47.914,-1.434,-0.193,-0.602,-14.116,166.525,22.773
15:26:46:986,47.915,-1.860,-0.638,-0.399,-14.793,164.805,26.247
15:26:47:118,48.047,-1.473,-0.566,-0.350,-14.899,165.759,26.400
15:26:47:119,48.048,-0.261,0.220,0.209,-14.143,168.478,23.666
15:26:47:119,48.048,0.058,0.169,-0.343,-13.681,170.374,21.545
15:26:47:121,48.050,-0.538,0.190,0.114,-13.370,172.268,17.694
15:26:47:138,48.067,-0.164,0.077,-0.240,-12.803,172.686,14.867
15:26:47:139,48.068,-0.152,-0.026,-0.159,-12.393,172.072,13.741
15:26:47:163,48.092,-0.230,-0.076,0.047,-12.045,171.354,12.303
15:26:47:188,48.117,-0.133,-0.025,0.032,-11.924,171.307,11.353
15:26:47:244,48.173,-0.114,-0.033,-0.010,-11.871,171.791,10.046
15:26:47:245,48.174,-0.006,0.013,-0.168,-12.018,172.257,9.075
15:26:47:326,48.255,-0.031,0.043,-0.080,-12.265,172.419,8.541
15:26:47:326,48.255,-0.085,0.001,-0.010,-12.627,172.350,7.913
15:26:47:327,48.256,-0.110,0.013,-0.031,-12.788,172.321,7.619
15:26:47:374,48.303,-0.114,0.023,-0.064,-12.886,172.679,7.348
15:26:47:375,48.304,-0.041,0.019,-0.014,-12.870,173.133,7.268
15:26:47:398,48.327,0.047,-0.016,0.017,-12.873,174.001,7.059
15:26:47:456,48.385,-0.025,-0.004,0.047,-12.832,174.788,6.619
15:26:47:457,48.386,-0.007,0.010,0.010,-12.655,175.373,6.219
15:26:47:457,48.386,0.006,0.024,-0.037,-12.312,177.081,5.422
15:26:47:503,48.432,-0.012,0.010,-0.022,-12.105,177.696,4.770
15:26:47:617,48.546,-0.031,-0.013,-0.016,-11.799,179.179,3.642
15:26:47:618,48.547,-0.036,-0.006,-0.042,-11.557,179.969,2.451
15:26:47:619,48.548,0.025,0.008,-0.047,-11.427,-178.498,1.592
15:26:47:637,48.566,0.006,0.003,-0.012,-10.882,-176.524,-0.946
15:26:47:638,48.567,0.034,0.015,0.004,-10.433,-175.952,-2.710
15:26:47:66,48.589,-0.001,0.072,0.039,-10.059,-175.067,-3.978
15:26:47:687,48.616,-0.046,0.073,-0.019,-9.340,-174.943,-5.951
15:26:47:713,48.641,-0.028,0.071,-0.086,-8.415,-174.310,-8.045
15:26:47:742,48.671,0.048,0.112,-0.056,-7.688,-173.938,-9.515
15:26:47:766,48.695,0.066,0.162,-0.021,-6.575,-173.022,-11.738
15:26:47:792,48.721,0.067,0.150,-0.072,-5.773,-172.738,-13.254
15:26:47:821,48.750,0.140,0.142,0.008,-4.386,-172.054,-15.551
15:26:47:844,48.773,0.229,0.261,0.097,-2.860,-171.849,-18.096
15:26:47:872,48.801,0.363,0.349,0.169,-1.730,-171.639,-20.026
15:26:47:898,48.827,0.482,0.315,0.187,0.510,-170.488,-23.425
15:26:47:924,48.853,0.458,0.233,0.217,2.697,-169.099,-26.098
15:26:47:949,48.878,0.470,0.293,0.063,6.741,-165.894,-30.475
15:26:47:975,48.904,0.745,0.088,0.242,12.199,-162.195,-34.555
15:26:48:002,48.931,0.773,-0.119,0.066,15.945,-160.691,-36.886
15:26:48:029,48.958,0.032,-0.706,0.226,20.373,-160.026,-40.192
15:26:48:085,49.014,0.516,-0.722,-0.081,21.308,-159.429,-41.198
15:26:48:085,49.014,0.516,-0.898,-0.179,20.180,-159.820,-40.843
15:26:48:107,49.036,0.435,-0.876,-0.257,18.600,-160.338,-39.333
15:26:48:133,49.062,0.371,-0.628,-0.154,14.853,-161.946,-35.901
15:26:48:188,49.117,0.413,-0.455,0.074,10.373,-163.863,-30.584
15:26:48:189,49.118,0.426,-0.293,0.180,7.619,-164.982,-26.169
15:26:48:213,49.142,0.304,-0.135,0.249,4.183,-166.140,-18.759
15:26:48:238,49.167,0.159,0.154,0.122,2.053,-166.936,-13.561
15:26:48:264,49.193,0.217,0.372,0.278,-1.437,-167.828,-5.797
15:26:48:29,49.219,-0.108,0.701,0.037,-4.913,-168.765,1.910
15:26:48:317,49.246,-0.313,0.739,-0.103,-7.216,-169.643,6.663
15:26:48:343,49.272,-1.085,0.689,-0.449,-10.826,-172.713,13.738
15:26:48:37,49.299,-1.436,0.138,-0.303,-12.547,-175.563,18.407
15:26:48:395,49.324,-1.758,-0.281,-0.238,-14.118,179.524,24.622
15:26:48:452,49.381,-1.981,-0.735,-0.066,-14.408,177.317,27.149
15:26:48:452,49.381,-1.491,-0.499,-0.233,-14.526,177.756,26.853
15:26:48:474,49.403,0.930,0.775,-0.262,-13.325,179.805,23.040
15:26:48:503,49.432,-0.497,0.048,-0.312,-12.522,-179.649,20.636
15:26:48:526,49.455,-0.402,0.074,0.069,-11.779,-179.918,16.937
15:26:48:555,49.484,-0.438,0.139,-0.190,-11.471,179.571,15.130
15:26:48:58,49.509,-0.178,-0.054,-0.041,-10.732,178.037,13.292
15:26:48:605,49.534,-0.275,-0.051,0.037,-10.155,177.141,11.686
15:26:48:632,49.561,-0.112,0.001,0.027,-9.979,177.490,10.531
15:26:48:659,49.588,-0.106,-0.032,-0.063,-9.834,178.518,8.845
15:26:48:686,49.615,-0.032,0.020,-0.127,-9.873,178.973,7.930
15:26:48:712,49.641,-0.046,0.039,-0.065,-10.252,179.125,6.849
15:26:48:737,49.666,-0.078,0.022,-0.025,-10.515,179.089,6.222
15:26:48:793,49.722,-0.122,0.039,0.016,-10.751,179.063,5.453
15:26:48:793,49.722,-0.142,0.081,0.032,-10.678,179.353,5.008
15:26:48:816,49.744,-0.008,0.014,0.073,-10.375,179.702,4.861
15:26:48:844,49.773,0.043,-0.025,-0.024,-9.907,-179.515,4.356
15:26:48:869,49.798,0.024,-0.027,0.048,-9.729,-179.058,3.794
15:26:48:895,49.824,-0.013,0.007,0.010,-9.456,-178.431,2.723
15:26:48:92,49.849,0.032,0.047,-0.039,-9.030,-177.300,1.397
15:26:48:976,49.905,0.001,0.049,-0.027,-8.639,-176.916,0.386
15:26:49:003,49.932,-0.048,-0.016,-0.018,-7.937,-176.166,-1.211
15:26:49:003,49.932,-0.051,-0.008,0.010,-7.467,-175.851,-2.244
15:26:49:025,49.954,-0.026,0.012,-0.005,-6.829,-175.087,-3.752
15:26:49:052,49.981,-0.045,0.012,-0.068,-6.456,-174.701,-4.731
15:26:49:078,50.007,-0.050,-0.009,-0.032,-5.939,-174.140,-6.176
15:26:49:105,50.034,-0.010,0.038,0.038,-5.472,-173.616,-7.577
15:26:49:132,50.061,0.038,0.100,0.049,-5.081,-173.018,-8.535
15:26:49:157,50.086,0.091,0.221,-0.014,-4.217,-172.630,-10.164
15:26:49:214,50.143,0.094,0.201,0.005,-3.461,-172.401,-11.459
15:26:49:215,50.144,0.113,0.213,0.039,-2.055,-172.247,-13.646
15:26:49:236,50.165,0.190,0.189,-0.006,-0.358,-172.000,-16.146
15:26:49:263,50.192,0.240,0.169,0.043,0.951,-172.061,-17.983
15:26:49:314,50.243,0.377,0.285,0.253,4.568,-171.862,-23.386
15:26:49:34,50.269,0.565,0.163,0.366,7.763,-170.508,-27.237
15:26:49:366,50.295,0.405,0.392,0.437,11.978,-168.032,-31.597
15:26:49:393,50.322,0.671,0.126,0.314,15.516,-165.641,-34.650
15:26:49:419,50.348,0.819,-0.197,0.245,21.583,-162.163,-38.682
15:26:49:446,50.375,0.181,-0.383,0.333,25.428,-160.316,-40.589
15:26:49:471,50.400,0.210,-0.640,0.186,29.981,-156.728,-42.043
15:26:49:498,50.427,0.569,-0.977,-0.337,30.270,-154.606,-41.407
15:26:49:524,50.453,0.436,-0.919,-0.442,27.720,-151.857,-38.866
15:26:49:55,50.479,0.427,-0.784,-0.307,22.910,-150.518,-35.794
15:26:49:579,50.508,0.410,-0.510,-0.293,18.480,-150.059,-32.863
15:26:49:605,50.534,0.485,-0.186,-0.404,11.405,-149.381,-26.977
15:26:49:631,50.560,0.463,-0.114,-0.408,7.372,-148.444,-22.406
15:26:49:685,50.614,0.486,0.042,-0.491,2.342,-146.672,-15.343
15:26:49:685,50.614,0.122,0.576,-0.468,-2.830,-146.071,-8.211
15:26:49:71,50.639,-0.344,0.850,-0.432,-6.164,-146.311,-3.344
15:26:49:735,50.664,-0.463,0.890,-0.432,-10.455,-148.131,4.230
15:26:49:761,50.690,-0.999,0.625,-0.188,-12.755,-150.664,9.440
15:26:49:791,50.720,-1.266,0.094,0.358,-14.945,-156.331,17.707
15:26:49:791,50.720,-1.688,-0.395,0.358,-16.253,-161.238,24.208
15:26:49:842,50.771,-1.734,-0.458,0.415,-16.920,-162.544,26.620
15:26:49:843,50.772,-1.567,-0.477,0.378,-17.248,-161.551,26.853
15:26:49:919,50.848,0.558,0.665,-0.182,-16.839,-159.719,24.774
15:26:49:95,50.879,-0.612,0.245,-0.290,-16.320,-156.945,21.190
15:26:49:95,50.879,-0.489,0.127,0.064,-15.575,-156.350,18.526
15:26:49:975,50.904,-0.416,0.074,-0.132,-14.261,-156.539,15.590
15:26:49:975,50.904,-0.229,-0.113,0.078,-13.135,-157.632,13.824
15:26:50:026,50.955,-0.185,-0.153,0.154,-12.712,-157.988,12.775
