Time,Second,AccelerationX,AccelerationY,AccelerationZ,EulerAnglesX,EulerAnglesY,EulerAnglesZ
16:35:28:49,0.000,-0.001,-0.001,-0.003,-13.105,6.058,2.108
16:35:28:49,0.000,0.000,0.004,0.001,-13.109,6.041,2.125
16:35:28:491,0.001,-0.002,0.000,-0.003,-13.109,6.041,2.125
16:35:28:491,0.002,0.002,0.000,0.001,-13.108,6.004,2.130
16:35:28:507,0.018,-0.015,0.003,-0.002,-13.106,5.974,2.140
16:35:28:586,0.096,-0.007,0.000,0.008,-13.103,5.894,2.156
16:35:28:621,0.131,0.000,0.003,0.000,-13.107,5.838,2.160
16:35:28:622,0.132,0.000,0.001,0.002,-13.102,5.774,2.152
16:35:28:622,0.133,-0.001,0.001,-0.005,-13.098,5.720,2.154
16:35:28:623,0.134,0.000,0.002,0.007,-13.099,5.700,2.149
16:35:28:668,0.178,0.001,0.001,-0.002,-13.092,5.685,2.149
16:35:28:669,0.179,0.000,0.001,0.002,-13.092,5.685,2.149
16:35:28:697,0.208,-0.001,-0.001,0.004,-13.078,5.685,2.146
16:35:28:698,0.209,-0.001,0.003,-0.007,-13.063,5.701,2.148
16:35:28:699,0.209,-0.004,0.003,-0.005,-13.048,5.742,2.136
16:35:28:717,0.227,-0.001,-0.004,0.005,-13.016,5.755,2.130
16:35:28:883,0.393,0.004,0.000,0.001,-13.003,5.751,2.139
16:35:28:884,0.394,0.000,-0.001,0.004,-12.983,5.782,2.130
16:35:28:884,0.395,-0.004,0.004,-0.001,-12.959,5.809,2.125
16:35:28:885,0.396,0.001,-0.002,0.007,-12.934,5.814,2.122
16:35:29:067,0.578,0.000,-0.002,0.000,-12.899,5.837,2.118
16:35:29:068,0.579,-0.011,0.005,-0.009,-12.875,5.879,2.111
16:35:29:069,0.579,-0.007,-0.001,0.001,-12.827,5.899,2.116
16:35:29:07,0.580,0.003,0.000,0.000,-12.804,5.885,2.119
16:35:29:094,0.605,-0.001,0.004,0.000,-12.768,5.903,2.116
16:35:29:094,0.605,-0.009,0.002,0.001,-12.729,5.929,2.115
16:35:29:095,0.606,0.002,-0.001,0.002,-12.695,5.903,2.102
16:35:29:096,0.606,-0.001,0.003,-0.013,-12.661,5.898,2.095
16:35:29:111,0.622,-0.012,0.008,0.001,-12.629,5.918,2.089
16:35:29:216,0.726,-0.013,0.001,-0.002,-12.589,5.894,2.093
16:35:29:278,0.789,0.010,-0.009,0.010,-12.538,5.787,2.100
16:35:29:278,0.789,0.004,0.001,-0.005,-12.510,5.734,2.111
16:35:29:278,0.789,0.000,0.011,-0.005,-12.470,5.709,2.115
16:35:29:279,0.789,-0.012,-0.007,-0.002,-12.425,5.673,2.123
16:35:29:383,0.893,-0.001,-0.004,0.009,-12.362,5.583,2.118
16:35:29:383,0.893,0.007,-0.003,-0.001,-12.332,5.524,2.106
16:35:29:383,0.894,0.005,0.000,0.007,-12.291,5.472,2.113
16:35:29:384,0.895,0.000,0.002,-0.006,-12.270,5.437,2.130
16:35:29:428,0.938,-0.002,-0.004,0.008,-12.270,5.407,2.155
16:35:29:461,0.972,0.000,0.000,0.002,-12.266,5.341,2.194
16:35:29:462,0.972,0.007,-0.006,-0.001,-12.269,5.310,2.213
16:35:29:463,0.973,0.005,0.012,-0.007,-12.269,5.293,2.261
16:35:29:463,0.974,-0.014,-0.006,0.001,-12.270,5.248,2.306
16:35:29:484,0.994,0.004,-0.005,-0.001,-12.260,5.189,2.318
16:35:29:484,0.995,0.002,0.002,-0.001,-12.263,5.136,2.339
16:35:29:484,0.995,0.004,0.001,-0.003,-12.265,5.120,2.363
16:35:29:561,1.072,-0.001,-0.001,0.003,-12.235,5.097,2.412
16:35:29:562,1.073,-0.005,0.000,0.005,-12.240,5.080,2.470
16:35:29:563,1.074,-0.006,0.000,0.004,-12.234,5.077,2.497
16:35:29:671,1.182,-0.003,0.000,0.002,-12.203,5.079,2.522
16:35:29:671,1.182,0.003,0.001,0.000,-12.201,5.079,2.547
16:35:29:672,1.182,-0.004,0.000,0.010,-12.189,5.080,2.584
16:35:29:673,1.183,0.000,0.001,-0.004,-12.172,5.081,2.612
16:35:29:773,1.283,0.008,-0.003,-0.003,-12.146,5.099,2.661
16:35:29:773,1.284,0.005,0.013,0.002,-12.132,5.209,2.718
16:35:29:774,1.285,-0.007,0.000,0.009,-12.122,5.321,2.761
16:35:29:822,1.332,-0.011,-0.003,-0.004,-12.109,5.425,2.836
16:35:29:85,1.361,-0.008,-0.002,0.004,-12.099,5.450,2.881
16:35:29:851,1.362,-0.011,0.004,0.001,-12.098,5.443,2.965
16:35:29:852,1.363,-0.008,-0.001,0.007,-12.099,5.421,3.007
16:35:30:045,1.556,-0.007,0.003,-0.006,-12.101,5.364,3.064
16:35:30:046,1.556,-0.001,-0.002,0.008,-12.094,5.284,3.129
16:35:30:066,1.576,-0.001,0.002,0.001,-12.093,5.231,3.182
16:35:30:066,1.576,-0.006,0.003,0.007,-12.090,5.187,3.258
16:35:30:066,1.577,-0.001,-0.001,-0.001,-12.088,5.161,3.297
16:35:30:067,1.577,-0.002,0.001,0.008,-12.088,5.139,3.364
16:35:30:089,1.599,-0.005,0.004,-0.004,-12.091,5.102,3.441
16:35:30:089,1.599,0.000,-0.001,0.009,-12.088,5.088,3.492
16:35:30:089,1.599,-0.008,0.000,-0.002,-12.087,5.088,3.557
16:35:30:195,1.705,-0.003,0.000,0.007,-12.092,5.083,3.602
16:35:30:195,1.705,-0.005,0.001,0.002,-12.091,5.069,3.668
16:35:30:196,1.706,0.000,0.001,0.002,-12.091,5.069,3.733
16:35:30:246,1.756,-0.007,0.002,0.002,-12.091,5.067,3.780
16:35:30:246,1.757,-0.005,-0.001,0.008,-12.093,5.068,3.856
16:35:30:246,1.757,-0.006,-0.005,0.011,-12.096,5.070,3.907
16:35:30:353,1.863,-0.010,0.000,0.005,-12.096,5.070,3.972
16:35:30:354,1.864,-0.010,0.002,0.001,-12.092,5.071,4.003
16:35:30:354,1.864,-0.007,0.002,0.005,-12.093,5.048,4.046
16:35:30:355,1.865,-0.013,-0.004,0.007,-12.090,5.028,4.091
16:35:30:43,1.940,-0.009,0.000,0.004,-12.092,5.026,4.113
16:35:30:43,1.940,-0.008,-0.001,0.007,-12.105,5.003,4.119
16:35:30:43,1.940,-0.002,0.002,0.001,-12.107,4.975,4.126
16:35:30:45,1.960,-0.009,-0.004,0.006,-12.131,4.948,4.132
16:35:30:532,2.043,-0.005,0.004,-0.002,-12.158,4.923,4.141
16:35:30:533,2.044,-0.003,0.000,0.001,-12.164,4.894,4.146
16:35:30:535,2.045,-0.002,0.001,-0.006,-12.183,4.863,4.154
16:35:30:583,2.093,-0.003,0.004,0.001,-12.183,4.841,4.156
16:35:30:583,2.094,-0.005,-0.003,-0.008,-12.181,4.804,4.160
16:35:30:609,2.119,-0.001,0.000,0.010,-12.178,4.761,4.172
16:35:30:634,2.144,-0.002,0.002,0.001,-12.175,4.731,4.182
16:35:30:714,2.225,-0.006,-0.004,0.004,-12.178,4.716,4.216
16:35:30:715,2.225,-0.006,-0.003,0.000,-12.178,4.718,4.234
16:35:30:74,2.251,-0.007,-0.001,0.010,-12.174,4.711,4.266
16:35:30:741,2.252,-0.018,0.014,0.013,-12.161,4.699,4.275
16:35:30:793,2.304,-0.015,-0.002,0.009,-12.133,4.591,4.313
16:35:30:82,2.330,-0.007,0.001,0.006,-12.111,4.431,4.359
16:35:30:82,2.330,-0.001,-0.003,-0.001,-12.088,4.312,4.370
16:35:30:87,2.381,-0.004,0.000,0.002,-12.076,4.140,4.398
16:35:30:927,2.437,-0.009,0.003,0.004,-12.070,4.064,4.401
16:35:30:928,2.438,-0.002,-0.003,0.000,-12.058,3.930,4.403
16:35:30:928,2.439,-0.002,-0.003,0.000,-12.038,3.841,4.404
16:35:31:004,2.515,-0.004,0.004,-0.008,-12.025,3.813,4.397
16:35:31:005,2.515,0.001,-0.003,0.013,-11.986,3.771,4.406
16:35:31:032,2.542,-0.009,-0.004,0.008,-11.960,3.763,4.404
16:35:31:032,2.543,-0.028,-0.002,0.020,-11.909,3.786,4.410
16:35:31:033,2.544,-0.008,0.006,0.015,-11.873,3.733,4.418
16:35:31:109,2.620,-0.012,-0.007,0.011,-11.839,3.615,4.401
16:35:31:11,2.620,-0.004,-0.006,0.004,-11.822,3.527,4.348
16:35:31:133,2.644,-0.002,0.004,0.011,-11.816,3.474,4.309
16:35:31:187,2.698,-0.019,0.000,-0.002,-11.807,3.443,4.235
16:35:31:188,2.699,0.001,-0.002,-0.018,-11.776,3.359,4.196
16:35:31:213,2.723,0.021,0.005,-0.008,-11.682,3.203,4.153
16:35:31:214,2.724,-0.013,0.034,0.026,-11.622,3.184,4.161
16:35:31:264,2.774,-0.027,-0.015,-0.020,-11.556,3.229,4.150
16:35:31:317,2.827,0.031,-0.003,0.001,-11.608,3.591,4.084
16:35:31:612,3.122,0.015,0.002,-0.012,-11.596,3.910,4.071
16:35:31:612,3.122,0.006,0.049,-0.013,-11.471,4.316,4.172
16:35:31:612,3.123,0.040,0.042,-0.032,-11.254,4.501,4.354
16:35:31:632,3.143,0.076,0.062,-0.053,-10.618,4.477,4.970
16:35:31:666,3.176,0.172,0.141,-0.042,-9.632,4.096,6.310
16:35:31:667,3.177,0.140,0.227,-0.034,-8.771,3.595,7.656
16:35:31:667,3.178,0.416,0.158,-0.013,-7.121,2.321,10.018
16:35:31:668,3.179,0.327,0.264,0.030,-6.014,1.412,11.516
16:35:31:928,3.439,0.451,0.119,0.066,-4.424,0.437,13.970
16:35:31:929,3.439,0.617,-0.279,0.011,-2.620,-0.905,15.991
16:35:31:93,3.440,0.665,-0.403,0.249,-1.581,-1.746,16.699
16:35:31:958,3.468,0.668,-0.415,0.177,0.013,-4.014,15.169
16:35:31:958,3.469,0.591,-0.264,0.159,-0.072,-5.400,11.988
16:35:31:959,3.469,0.536,0.054,0.163,-0.644,-6.120,9.100
16:35:31:959,3.469,0.417,0.112,0.199,-1.834,-6.492,4.342
16:35:32:005,3.515,0.067,0.222,0.115,-3.077,-5.843,-0.631
16:35:32:005,3.516,-0.099,0.189,0.037,-3.756,-5.307,-3.995
16:35:32:005,3.516,-0.297,0.229,0.073,-4.786,-4.304,-8.790
16:35:32:025,3.536,-0.316,0.098,0.022,-5.205,-3.751,-11.696
16:35:32:192,3.702,-0.314,-0.030,0.015,-5.251,-3.009,-15.469
16:35:32:192,3.702,-0.453,-0.128,-0.010,-5.103,-2.235,-18.207
16:35:32:192,3.702,-0.518,-0.241,-0.051,-5.055,-1.819,-19.350
16:35:32:193,3.703,-0.536,-0.259,-0.047,-4.914,-1.803,-19.980
16:35:32:216,3.727,-0.676,-0.244,-0.140,-4.732,-1.896,-19.699
16:35:32:217,3.728,-0.575,-0.118,-0.244,-4.181,-2.105,-18.343
16:35:32:218,3.728,-0.396,0.204,-0.348,-4.199,-2.752,-16.178
16:35:32:47,3.980,-0.437,0.503,0.050,-4.380,-4.519,-10.899
16:35:32:496,4.007,-0.603,0.291,-0.102,-4.400,-3.913,-8.086
16:35:32:579,4.090,-0.246,-0.423,0.082,-4.605,-3.565,-4.006
16:35:32:58,4.090,-0.193,-0.194,0.093,-4.944,-2.670,-2.257
16:35:32:612,4.122,-0.271,0.204,0.058,-5.993,-1.823,-0.429
16:35:32:612,4.123,-0.040,-0.017,-0.014,-7.074,-2.804,1.196
16:35:32:612,4.123,-0.098,0.038,-0.065,-7.804,-3.398,2.072
16:35:32:613,4.123,0.007,-0.016,-0.004,-8.782,-4.630,3.303
16:35:32:691,4.201,0.036,0.035,0.001,-9.345,-5.472,4.070
16:35:32:691,4.201,-0.057,0.032,0.005,-10.142,-6.261,5.150
16:35:32:691,4.202,0.015,0.005,-0.080,-10.820,-7.079,6.158
16:35:32:691,4.202,-0.023,0.021,-0.037,-11.174,-6.797,6.880
16:35:32:744,4.254,0.074,0.015,-0.029,-11.616,-8.114,8.094
16:35:32:744,4.254,-0.034,0.018,-0.047,-11.854,-7.866,8.942
16:35:32:744,4.254,0.009,0.066,-0.010,-12.062,-9.063,10.269
16:35:32:744,4.255,0.052,0.092,0.029,-12.059,-9.394,11.244
16:35:32:795,4.305,0.073,0.119,0.060,-11.961,-11.115,12.811
16:35:32:795,4.306,0.249,0.090,0.016,-11.455,-12.211,14.693
16:35:32:796,4.307,0.360,0.157,-0.001,-10.871,-13.436,16.282
16:35:32:797,4.307,0.309,0.224,0.159,-9.902,-13.841,19.116
16:35:32:9,4.410,0.439,0.246,0.192,-9.081,-14.194,21.224
16:35:32:901,4.411,0.526,0.314,0.103,-7.513,-14.073,24.637
16:35:32:901,4.412,0.928,0.137,0.152,-5.432,-14.323,28.075
16:35:32:902,4.413,1.133,-0.024,0.155,-3.276,-14.303,30.372
16:35:32:98,4.490,1.201,0.231,-0.053,0.722,-14.178,34.362
16:35:32:98,4.491,1.393,0.349,-0.129,2.638,-12.639,38.083
16:35:32:98,4.491,1.038,-0.158,-0.322,3.728,-8.813,44.239
16:35:32:98,4.491,-0.120,0.917,0.155,5.496,-6.112,48.591
16:35:33:006,4.516,0.474,0.379,-0.393,7.984,-5.854,51.425
16:35:33:006,4.516,0.688,-1.234,-0.069,13.938,-6.225,52.887
16:35:33:006,4.517,0.183,-1.129,0.255,18.249,-7.209,52.210
16:35:33:006,4.517,0.177,-0.932,0.218,20.491,-7.758,48.986
16:35:33:031,4.542,0.263,-0.873,0.151,19.731,-8.714,45.584
16:35:33:031,4.542,0.377,-0.813,0.055,17.120,-10.126,38.743
16:35:33:032,4.543,0.452,-0.408,0.013,13.043,-11.217,29.863
16:35:33:033,4.543,0.488,-0.192,-0.081,10.365,-11.608,23.256
16:35:33:047,4.558,0.353,0.627,-0.177,5.635,-11.317,12.561
16:35:33:214,4.724,0.018,0.879,-0.056,2.402,-10.437,5.377
16:35:33:215,4.725,-0.471,1.095,-0.186,-1.550,-7.930,-5.236
16:35:33:215,4.726,-1.626,0.607,-0.168,-5.145,-3.724,-14.729
16:35:33:267,4.778,-2.005,-0.808,-0.012,-7.952,2.974,-24.702
16:35:33:267,4.778,-1.483,-0.376,0.045,-8.635,3.926,-25.659
16:35:33:268,4.778,-0.959,-0.161,0.151,-7.718,5.272,-23.973
16:35:33:269,4.779,-1.222,0.660,0.586,-6.052,6.158,-20.990
16:35:33:296,4.806,-0.338,-0.103,-0.105,-4.472,7.291,-16.257
16:35:33:296,4.806,-1.118,-0.507,-0.274,-2.956,11.258,-10.254
16:35:33:296,4.807,-0.718,0.197,0.496,-4.117,14.477,-6.713
16:35:33:297,4.807,-0.222,-0.307,0.237,-3.726,14.278,-3.289
16:35:33:363,4.873,-0.053,0.051,0.009,-3.917,12.864,-1.595
16:35:33:399,4.909,-0.057,0.049,0.039,-5.005,11.107,0.429
16:35:33:399,4.909,-0.175,0.114,0.213,-5.857,10.295,2.060
16:35:33:399,4.909,0.201,-0.244,0.011,-6.269,9.372,3.154
16:35:33:399,4.910,-0.070,0.063,-0.072,-7.014,8.452,4.046
16:35:33:444,4.954,0.029,0.038,-0.090,-7.457,7.830,4.753
16:35:33:444,4.955,0.030,-0.014,-0.152,-7.834,6.533,6.112
16:35:33:467,4.978,0.020,0.037,-0.026,-7.985,5.135,7.490
16:35:33:553,5.063,0.063,0.052,-0.040,-7.965,4.156,8.536
16:35:33:553,5.064,0.101,0.096,-0.012,-7.741,4.066,10.252
16:35:33:553,5.064,0.049,0.089,0.069,-7.429,3.319,11.493
16:35:33:574,5.084,0.197,0.138,0.084,-6.948,3.115,13.430
16:35:33:598,5.109,0.337,0.180,0.013,-6.550,2.314,14.743
16:35:33:654,5.164,0.415,0.164,-0.032,-5.581,2.586,17.227
16:35:33:654,5.165,0.444,0.208,-0.005,-4.339,3.689,20.462
16:35:33:707,5.217,0.479,0.260,-0.121,-3.375,4.238,22.927
16:35:33:707,5.218,0.686,0.385,-0.266,-1.494,6.034,26.886
16:35:33:73,5.240,1.128,0.018,-0.253,0.611,5.968,29.508
16:35:33:815,5.325,1.173,0.021,-0.430,5.326,5.675,33.363
16:35:33:815,5.326,1.280,0.029,-0.703,8.931,7.834,38.743
16:35:33:816,5.327,0.855,0.073,-0.863,9.818,10.720,42.801
16:35:33:915,5.426,0.029,0.211,0.055,11.772,14.446,47.987
16:35:33:948,5.459,0.445,0.291,-0.654,14.486,15.916,50.709
16:35:33:949,5.459,0.503,-0.827,-0.572,19.232,15.746,52.310
16:35:33:95,5.460,0.396,-1.187,-0.101,22.371,15.485,51.863
16:35:33:951,5.461,0.346,-0.954,-0.103,23.251,15.683,49.581
16:35:33:966,5.477,0.060,-0.704,-0.183,19.547,17.081,45.506
16:35:33:992,5.502,0.183,-0.776,-0.293,17.053,17.653,41.637
16:35:34:018,5.529,0.250,-0.500,-0.340,14.054,17.836,33.448
16:35:34:045,5.555,0.295,-0.208,-0.407,12.074,17.708,27.149
16:35:34:1,5.611,0.249,0.248,-0.475,8.597,18.203,16.932
16:35:34:101,5.611,-0.123,0.808,-0.282,4.870,20.590,6.553
16:35:34:123,5.634,-0.372,0.940,-0.146,2.689,23.246,-0.245
16:35:34:149,5.660,-1.026,0.880,-0.076,0.543,29.456,-9.335
16:35:34:176,5.686,-1.633,0.315,0.686,-0.234,34.848,-14.759
16:35:34:232,5.742,-1.440,-0.373,1.100,-0.252,42.890,-20.920
16:35:34:233,5.743,-1.575,-0.828,1.261,-0.707,47.612,-24.343
16:35:34:255,5.766,-0.760,-0.090,0.584,-1.257,47.530,-24.640
16:35:34:31,5.821,-0.492,-0.012,0.724,-0.795,49.152,-22.596
16:35:34:366,5.877,0.052,0.945,0.255,0.694,51.325,-19.397
16:35:34:367,5.877,-0.035,-0.410,-0.078,1.602,53.192,-14.989
16:35:34:367,5.877,-0.713,-0.615,0.578,2.157,54.867,-11.142
16:35:34:415,5.925,-0.191,0.464,0.769,0.311,58.738,-6.531
16:35:34:416,5.926,-0.193,-0.219,0.025,0.012,59.240,-3.296
16:35:34:527,6.037,-0.094,-0.015,0.085,-0.303,58.529,-1.838
16:35:34:527,6.037,-0.024,0.013,0.093,-1.234,57.409,-0.237
16:35:34:527,6.038,0.009,0.064,0.032,-1.624,56.729,0.685
16:35:34:528,6.039,0.071,0.063,0.121,-2.334,56.088,1.784
16:35:34:543,6.054,0.045,-0.067,-0.030,-2.892,55.330,2.737
16:35:34:683,6.194,-0.034,-0.094,-0.039,-3.350,55.050,3.300
16:35:34:683,6.194,-0.135,0.112,-0.066,-4.145,54.589,4.173
16:35:34:684,6.195,-0.081,-0.011,-0.067,-4.433,53.750,4.817
16:35:34:736,6.246,0.061,0.023,-0.068,-4.644,52.322,5.955
16:35:34:737,6.247,-0.028,0.005,-0.126,-4.660,51.627,6.868
16:35:34:737,6.248,-0.069,0.006,0.003,-4.644,50.955,8.405
16:35:34:739,6.249,0.009,0.026,-0.035,-4.561,50.167,10.069
16:35:34:753,6.264,0.086,0.083,-0.158,-4.339,49.458,11.292
16:35:34:779,6.290,0.037,0.124,-0.279,-3.594,48.747,13.527
16:35:34:808,6.319,0.266,0.499,-0.090,-2.888,48.717,15.346
16:35:34:89,6.401,0.351,0.472,-0.246,-1.271,50.119,18.497
16:35:34:891,6.402,0.312,0.413,-0.624,0.250,49.972,20.807
16:35:34:892,6.402,0.240,0.417,-0.775,2.751,51.832,24.610
16:35:34:911,6.422,0.362,0.248,-1.179,6.660,51.811,28.587
16:35:34:937,6.448,0.433,0.078,-1.513,10.521,50.993,31.060
16:35:34:963,6.474,0.200,0.196,-1.439,15.559,52.145,36.646
16:35:34:99,6.500,0.034,-0.162,-1.119,17.382,54.952,41.083
16:35:35:016,6.527,-0.026,0.107,0.256,21.196,58.925,46.439
16:35:35:071,6.582,-0.308,0.029,-1.175,21.283,63.719,50.732
16:35:35:072,6.583,-0.124,-1.095,-0.669,21.856,65.929,51.628
16:35:35:095,6.606,0.150,-0.775,-0.354,21.974,70.088,49.851
16:35:35:121,6.632,-0.182,-0.905,-0.004,20.280,72.948,47.836
16:35:35:147,6.658,-0.305,-0.751,-0.150,16.766,75.726,42.328
16:35:35:174,6.684,-0.246,-0.675,-0.303,13.663,77.946,34.412
16:35:35:227,6.738,-0.336,-0.506,-0.344,11.691,79.302,27.760
16:35:35:258,6.768,-0.524,-0.123,-0.176,9.103,80.914,16.622
16:35:35:259,6.769,-0.484,0.450,-0.157,7.284,81.156,8.678
16:35:35:259,6.770,-0.389,0.771,0.180,3.712,82.606,-2.938
16:35:35:308,6.818,-0.400,1.296,1.369,0.048,88.347,-12.996
16:35:35:308,6.819,-0.229,0.724,1.881,-1.042,92.667,-18.501
16:35:35:331,6.841,0.151,-0.327,2.350,-1.742,99.190,-24.435
16:35:35:358,6.868,0.030,-0.992,2.339,-2.084,101.439,-26.405
16:35:35:384,6.894,0.216,0.001,1.194,-3.217,100.953,-25.624
16:35:35:41,6.920,0.030,0.571,-0.425,-3.148,100.696,-23.697
16:35:35:465,6.976,0.817,0.582,0.652,-0.954,101.009,-19.746
16:35:35:466,6.977,-0.061,-0.432,0.568,0.769,103.717,-14.423
16:35:35:517,7.028,-0.084,-0.128,0.538,0.490,105.162,-11.126
16:35:35:518,7.029,0.293,0.370,0.567,-1.448,108.975,-6.439
16:35:35:541,7.051,0.200,-0.263,0.146,-1.579,109.938,-4.513
16:35:35:596,7.107,0.180,-0.029,0.358,-1.962,109.457,-2.181
16:35:35:597,7.108,0.055,0.006,0.101,-3.044,107.887,-0.426
16:35:35:621,7.132,0.037,0.026,0.008,-3.758,106.818,0.632
16:35:35:647,7.157,-0.008,0.011,0.050,-4.914,105.990,2.124
16:35:35:672,7.183,-0.056,0.049,0.080,-5.559,105.417,3.036
16:35:35:698,7.209,-0.159,-0.117,-0.020,-6.406,104.257,4.248
16:35:35:727,7.237,-0.018,0.070,0.052,-6.912,103.483,5.047
16:35:35:752,7.263,-0.072,0.098,-0.081,-7.435,102.084,6.396
16:35:35:777,7.288,-0.133,-0.003,-0.006,-7.695,100.984,8.017
16:35:35:804,7.315,-0.097,0.074,-0.054,-7.865,100.363,9.278
16:35:35:83,7.340,0.024,0.167,0.043,-7.968,99.611,11.258
16:35:35:856,7.367,-0.030,0.114,-0.114,-7.828,98.480,12.662
16:35:35:883,7.394,-0.127,0.214,-0.341,-7.338,97.044,15.101
16:35:35:94,7.450,-0.091,0.244,-0.395,-6.428,95.875,18.155
16:35:35:94,7.450,-0.066,0.274,-0.445,-5.639,95.398,20.570
16:35:36:075,7.585,-0.104,0.371,-0.567,-3.956,94.936,24.510
16:35:36:076,7.586,-0.228,0.321,-1.111,-2.348,94.384,27.204
16:35:36:076,7.587,-0.211,0.007,-1.391,1.444,92.987,31.114
16:35:36:077,7.588,-0.598,0.123,-1.247,4.856,92.360,33.894
16:35:36:095,7.605,-0.426,0.184,-1.523,8.170,94.191,39.969
16:35:36:096,7.606,-0.762,-0.218,-0.754,10.024,97.590,46.088
16:35:36:12,7.631,0.404,0.818,0.271,13.507,98.125,49.231
16:35:36:205,7.716,-0.581,-0.438,-0.674,19.523,97.195,52.201
16:35:36:205,7.716,-0.296,-0.470,-0.578,22.177,96.076,52.611
16:35:36:205,7.716,0.282,-1.087,-0.171,25.211,94.534,51.251
16:35:36:223,7.734,0.069,-0.940,-0.141,24.324,93.221,46.725
16:35:36:25,7.761,-0.038,-0.781,-0.059,22.061,91.788,42.668
16:35:36:306,7.816,-0.022,-0.963,-0.433,18.193,89.504,35.056
16:35:36:306,7.817,0.049,-0.411,-0.483,14.761,88.356,28.959
16:35:36:329,7.839,-0.046,-0.223,-0.436,9.765,87.659,19.003
16:35:36:356,7.867,-0.204,0.345,-0.326,4.496,88.621,8.055
16:35:36:382,7.892,-0.145,0.849,-0.041,0.828,90.421,0.361
16:35:36:437,7.947,-0.134,1.385,0.869,-3.638,95.365,-11.129
16:35:36:437,7.948,-0.002,0.704,2.078,-5.657,98.791,-18.318
16:35:36:459,7.970,0.853,-0.368,1.840,-9.171,100.850,-25.981
16:35:36:486,7.996,0.311,-0.961,2.304,-11.478,101.341,-28.883
16:35:36:514,8.025,0.199,-0.021,1.472,-12.421,100.623,-28.551
16:35:36:539,8.050,-0.105,-0.073,0.840,-9.955,102.258,-24.956
16:35:36:565,8.075,1.417,0.665,0.355,-8.523,103.062,-22.228
16:35:36:591,8.101,0.057,-0.037,0.626,-5.796,105.524,-16.948
16:35:36:617,8.128,-0.377,-0.603,0.546,-4.462,107.575,-13.268
16:35:36:646,8.156,0.649,0.453,1.147,-5.533,112.462,-8.637
16:35:36:671,8.181,0.191,0.094,0.438,-5.328,113.112,-6.462
16:35:36:696,8.207,-0.051,-0.123,0.193,-5.417,111.466,-3.820
16:35:36:752,8.262,-0.012,0.018,0.053,-6.136,109.513,-1.745
16:35:36:752,8.263,0.174,0.008,0.001,-6.552,108.400,-0.510
16:35:36:777,8.287,0.067,0.061,0.172,-7.408,107.601,0.994
16:35:36:83,8.340,-0.092,0.059,-0.062,-7.889,106.602,1.706
16:35:36:831,8.341,-0.152,-0.179,0.030,-8.430,105.330,2.838
16:35:36:912,8.422,-0.100,0.145,0.090,-9.021,104.284,4.066
16:35:36:913,8.423,-0.023,0.050,0.001,-9.169,103.265,5.071
16:35:36:913,8.424,-0.139,-0.020,-0.090,-9.278,101.683,6.708
16:35:36:962,8.472,-0.144,0.060,-0.050,-9.260,100.932,7.926
16:35:36:963,8.473,-0.007,0.089,0.013,-9.133,99.940,9.918
16:35:36:988,8.498,-0.117,0.125,-0.159,-8.898,98.941,11.338
16:35:37:011,8.521,-0.203,0.160,-0.336,-8.279,97.228,13.827
16:35:37:037,8.548,-0.045,0.254,-0.292,-7.341,96.304,16.876
16:35:37:064,8.574,-0.035,0.345,-0.458,-6.516,95.935,19.229
16:35:37:121,8.631,-0.141,0.349,-0.525,-4.890,95.598,23.096
16:35:37:121,8.632,-0.400,0.309,-0.809,-2.660,95.431,27.117
16:35:37:142,8.653,-0.348,0.195,-1.054,-0.400,95.661,29.903
16:35:37:168,8.679,-0.534,0.072,-1.169,5.000,94.224,34.274
16:35:37:224,8.734,-0.657,0.139,-1.584,8.372,94.097,38.179
16:35:37:224,8.735,-0.652,-0.114,-0.996,11.445,96.179,44.533
16:35:37:249,8.759,0.295,0.502,0.140,17.374,97.112,49.172
16:35:37:275,8.785,-0.644,0.271,-0.501,20.631,96.878,51.386
16:35:37:302,8.812,-0.034,-0.866,-0.899,24.931,95.388,52.709
16:35:37:327,8.838,0.367,-1.316,-0.232,27.045,95.186,51.894
16:35:37:353,8.863,-0.043,-0.842,-0.034,24.634,95.290,48.300
16:35:37:379,8.890,0.163,-0.992,-0.283,21.736,95.109,44.967
16:35:37:487,8.997,0.043,-0.467,-0.300,13.073,94.195,29.101
16:35:37:545,9.056,-0.032,-0.333,-0.287,10.414,94.149,22.348
16:35:37:546,9.057,-0.173,0.115,-0.285,6.443,94.309,11.353
16:35:37:547,9.058,-0.076,0.995,0.073,3.586,95.058,3.836
16:35:37:548,9.058,-0.086,1.046,0.539,-0.173,97.758,-6.970
16:35:37:563,9.074,0.328,0.683,1.680,-2.634,102.984,-16.171
16:35:37:642,9.153,0.466,0.067,1.664,-3.162,106.573,-21.296
16:35:37:677,9.187,0.710,-0.786,2.504,-3.168,112.900,-26.124
16:35:37:677,9.187,0.492,-0.432,1.970,-3.638,113.234,-26.944
16:35:37:677,9.188,-0.227,0.959,-0.218,-3.727,112.684,-24.981
16:35:37:725,9.236,0.919,0.492,0.712,-2.299,112.994,-22.086
16:35:37:726,9.237,-0.024,0.191,0.704,-0.656,115.844,-17.164
16:35:37:727,9.237,-0.227,-0.188,0.959,-0.251,119.859,-11.391
16:35:37:835,9.345,0.787,0.450,1.082,-1.266,123.029,-8.182
16:35:37:835,9.346,0.287,-0.214,0.110,-0.875,121.969,-5.367
16:35:37:835,9.346,-0.064,0.069,-0.090,-1.257,119.483,-4.038
16:35:37:836,9.347,-0.182,0.090,-0.025,-2.277,117.512,-2.145
16:35:37:851,9.362,0.011,-0.008,0.014,-2.774,117.045,-0.257
16:35:37:937,9.447,0.102,0.007,0.031,-2.906,116.853,0.868
16:35:37:937,9.448,-0.034,-0.038,0.241,-3.158,116.350,2.132
16:35:37:937,9.448,-0.074,0.042,-0.016,-3.462,115.486,2.919
16:35:37:957,9.468,-0.103,0.012,0.129,-3.942,114.329,4.090
16:35:37:984,9.494,-0.126,0.048,-0.015,-4.240,112.917,5.359
16:35:38:009,9.520,-0.158,0.062,-0.039,-4.288,112.071,6.416
16:35:38:036,9.547,-0.049,0.060,-0.004,-4.155,111.243,8.310
16:35:38:062,9.573,-0.006,0.054,0.000,-3.986,110.710,9.690
16:35:38:087,9.598,-0.102,0.200,-0.055,-3.685,108.833,11.639
16:35:38:143,9.654,-0.110,0.268,-0.283,-3.321,107.893,13.046
16:35:38:144,9.655,-0.183,0.186,-0.272,-2.248,106.368,15.638
16:35:38:197,9.707,-0.087,0.313,-0.435,-0.884,105.324,18.810
16:35:38:197,9.708,-0.261,0.270,-0.548,0.332,105.257,21.120
16:35:38:219,9.730,-0.547,0.374,-0.673,2.606,105.439,24.921
16:35:38:335,9.845,-0.672,0.024,-1.158,4.972,105.117,27.589
16:35:38:335,9.846,-0.826,0.080,-1.121,10.390,104.084,31.722
16:35:38:336,9.846,-1.082,0.133,-1.289,14.560,106.038,37.936
16:35:38:336,9.846,-1.016,0.000,-0.738,15.935,109.123,42.595
16:35:38:379,9.889,-0.251,0.701,0.512,20.198,112.837,48.441
16:35:38:38,9.890,-0.873,0.164,-0.268,22.717,114.035,51.366
16:35:38:404,9.914,-0.454,-0.817,-0.283,24.384,115.682,53.384
16:35:38:429,9.939,-0.232,-1.090,-0.412,25.168,116.258,53.218
16:35:38:481,9.992,-0.060,-1.023,-0.070,24.727,118.295,50.260
16:35:38:51,10.020,-0.181,-0.762,0.034,22.185,119.374,44.707
16:35:38:511,10.021,-0.270,-0.740,-0.074,19.947,119.492,39.577
16:35:38:563,10.073,-0.367,-0.523,-0.097,16.588,119.467,29.663
16:35:38:564,10.074,-0.467,-0.137,-0.122,14.422,119.220,22.234
16:35:38:587,10.098,-0.426,0.194,-0.011,10.833,118.866,10.604
16:35:38:613,10.123,-0.152,0.974,0.228,6.708,120.700,-0.582
16:35:38:639,10.150,-0.003,1.096,0.627,4.333,124.347,-7.145
16:35:38:696,10.206,0.696,0.703,1.520,2.817,133.209,-15.417
16:35:38:696,10.206,1.204,-0.333,1.595,3.066,138.891,-19.583
16:35:38:717,10.228,1.743,-0.941,1.711,3.803,146.697,-23.363
16:35:38:773,10.283,1.150,-0.537,1.311,3.411,147.382,-24.266
16:35:38:773,10.284,1.073,-0.215,0.579,2.787,146.902,-22.829
16:35:38:91,10.421,0.720,0.718,0.420,4.903,148.988,-18.463
16:35:38:911,10.421,0.981,0.462,0.936,5.788,150.870,-15.576
16:35:38:912,10.422,0.300,-0.304,0.282,5.998,153.748,-9.541
16:35:38:912,10.423,0.874,0.255,0.915,5.150,156.568,-6.172
16:35:38:98,10.490,0.500,-0.037,0.286,4.090,158.820,-2.191
16:35:39:042,10.552,-0.007,0.020,0.166,3.814,157.456,-0.028
16:35:39:042,10.553,-0.004,-0.013,0.095,3.249,157.036,1.196
16:35:39:043,10.554,0.041,0.046,0.051,2.395,156.458,2.855
16:35:39:044,10.555,-0.116,-0.132,-0.048,1.925,156.146,3.788
16:35:39:09,10.601,0.048,0.108,0.130,1.245,156.022,4.881
16:35:39:091,10.602,-0.082,-0.001,0.003,0.676,155.316,5.827
16:35:39:092,10.603,-0.069,0.004,-0.018,0.321,154.526,6.522
16:35:39:297,10.808,-0.067,0.030,0.078,-0.005,153.535,7.745
16:35:39:357,10.867,-0.138,0.032,0.032,-0.067,152.850,8.683
16:35:39:358,10.868,-0.090,0.064,0.095,-0.006,152.031,10.310
16:35:39:359,10.869,-0.012,0.047,0.058,0.230,151.698,11.437
16:35:39:36,10.870,-0.037,0.044,0.049,0.689,150.685,12.969
16:35:39:41,10.920,-0.240,0.083,0.039,1.212,149.838,14.321
16:35:39:41,10.921,-0.343,0.144,-0.063,1.681,149.044,15.314
16:35:39:411,10.921,-0.381,0.218,-0.063,2.713,148.391,17.388
16:35:39:411,10.922,-0.489,0.300,-0.141,3.680,148.216,19.174
16:35:39:436,10.946,-0.652,0.323,-0.163,5.591,148.563,22.336
16:35:39:436,10.946,-0.941,0.368,-0.128,8.088,149.230,26.071
16:35:39:436,10.947,-1.254,0.101,-0.227,10.536,149.540,28.727
16:35:39:437,10.948,-1.493,0.009,0.091,15.919,149.313,32.701
16:35:39:452,10.963,-1.512,0.269,0.111,19.465,150.462,36.635
16:35:39:479,10.989,-1.057,-0.117,0.215,22.257,155.187,44.003
16:35:39:647,11.157,0.090,0.502,0.628,25.195,158.130,47.994
16:35:39:647,11.158,-0.762,-0.232,0.444,27.987,161.018,52.691
16:35:39:647,11.158,-0.463,-1.327,0.071,27.745,164.050,54.848
16:35:39:647,11.158,-0.288,-1.185,-0.069,28.532,165.128,54.033
16:35:39:672,11.183,-0.076,-0.923,0.118,26.404,167.151,51.051
16:35:39:672,11.183,-0.264,-0.720,0.307,23.321,167.919,47.900
16:35:39:672,11.183,-0.302,-0.774,0.237,18.740,168.609,41.307
16:35:39:673,11.184,-0.619,-0.383,0.205,14.814,169.219,32.194
16:35:39:778,11.289,-0.502,-0.117,0.405,12.432,170.130,25.576
16:35:39:778,11.289,-0.360,0.246,0.452,8.897,172.163,14.974
16:35:39:778,11.289,0.139,0.935,0.656,6.357,174.073,7.547
16:35:39:779,11.290,0.522,0.986,0.647,2.694,177.582,-3.187
16:35:39:852,11.362,1.433,1.070,0.335,0.328,-179.033,-9.370
16:35:39:852,11.363,1.614,-0.244,-0.046,-1.768,-173.927,-16.462
16:35:39:853,11.364,2.344,-0.659,-0.141,-2.725,-167.484,-20.802
16:35:39:931,11.442,1.795,-0.317,-0.293,-3.038,-165.312,-21.740
16:35:39:931,11.442,0.924,0.087,-0.354,-2.547,-163.096,-20.094
16:35:39:932,11.443,-1.005,1.315,-0.061,-1.019,-160.744,-16.699
16:35:40:01,11.521,1.218,0.569,-0.265,0.911,-157.238,-11.966
16:35:40:011,11.521,0.051,-0.681,0.294,1.445,-154.749,-5.555
16:35:40:011,11.522,1.195,0.114,-0.366,0.353,-151.905,-2.091
16:35:40:061,11.571,0.428,0.079,-0.309,-0.467,-150.278,1.567
16:35:40:061,11.572,-0.063,0.062,0.025,-0.775,-151.757,3.243
16:35:40:113,11.623,0.031,0.063,-0.027,-1.868,-153.542,5.130
16:35:40:114,11.624,-0.042,0.065,0.011,-2.813,-154.469,6.827
16:35:40:135,11.646,-0.052,-0.062,0.128,-3.451,-155.218,7.989
16:35:40:19,11.701,0.104,0.070,0.084,-4.064,-155.973,9.188
16:35:40:191,11.701,-0.024,0.020,0.038,-4.410,-156.638,9.837
16:35:40:214,11.724,-0.006,0.048,0.127,-4.713,-158.180,10.872
16:35:40:24,11.750,-0.106,0.080,0.147,-4.934,-159.379,11.600
16:35:40:266,11.777,-0.070,0.084,0.123,-5.092,-161.143,12.854
16:35:40:293,11.803,-0.121,0.033,0.085,-5.017,-162.807,14.303
16:35:40:348,11.858,-0.165,-0.098,0.138,-4.759,-163.974,15.387
16:35:40:349,11.859,-0.150,0.136,0.091,-4.513,-165.222,17.126
16:35:40:401,11.911,-0.259,0.189,0.176,-4.280,-165.870,18.443
16:35:40:401,11.911,-0.432,0.139,0.213,-3.411,-167.063,20.836
16:35:40:591,12.101,-0.469,0.208,0.171,-2.131,-167.519,24.006
16:35:40:592,12.102,-0.613,0.265,0.159,-1.023,-167.688,26.443
16:35:40:593,12.103,-0.959,0.392,0.382,1.153,-167.935,30.360
16:35:40:593,12.104,-1.415,-0.063,0.615,3.332,-168.227,32.967
16:35:40:75,12.261,-1.223,-0.034,0.753,8.687,-168.927,36.907
16:35:40:75,12.261,-1.541,-0.124,0.932,12.134,-168.123,40.653
16:35:40:751,12.261,-0.935,-0.135,0.983,14.208,-164.460,47.585
16:35:40:751,12.261,0.292,0.861,-0.122,18.434,-161.098,53.432
16:35:40:775,12.285,-0.414,0.426,0.825,21.627,-159.781,56.447
16:35:40:775,12.286,-0.454,-0.960,0.420,24.126,-158.426,58.808
16:35:40:776,12.287,-0.249,-1.181,0.056,25.622,-157.370,58.561
16:35:40:845,12.356,0.020,-0.866,0.138,21.474,-154.662,51.402
16:35:41:22,12.731,-0.145,-0.829,0.242,19.468,-154.717,47.013
16:35:41:221,12.731,-0.298,-0.538,0.322,16.218,-155.691,38.042
16:35:41:222,12.732,-0.363,-0.285,0.352,14.342,-156.501,31.140
16:35:41:222,12.733,-0.334,0.018,0.516,10.812,-157.187,20.312
16:35:41:249,12.759,-0.271,0.537,0.350,8.136,-156.909,12.789
16:35:41:249,12.760,0.162,1.272,0.256,3.797,-154.356,1.490
16:35:41:249,12.760,1.468,1.189,-0.408,0.765,-147.205,-8.393
16:35:41:25,12.760,1.695,0.409,-0.438,0.554,-141.950,-13.866
16:35:41:271,12.782,1.894,-0.569,-1.657,0.409,-134.141,-19.126
16:35:41:271,12.782,1.555,-0.667,-1.122,-0.076,-132.084,-20.812
16:35:41:297,12.807,0.454,-0.078,-0.345,-1.088,-133.665,-20.314
16:35:41:298,12.808,-0.922,1.546,0.918,-0.298,-132.137,-16.618
16:35:41:299,12.809,0.812,0.539,-1.382,0.872,-130.390,-13.984
16:35:41:325,12.836,0.817,-0.699,-0.021,1.838,-127.613,-7.714
16:35:41:326,12.837,0.937,0.775,-0.636,1.044,-125.316,-3.980
16:35:41:327,12.837,0.879,-0.535,-0.359,-0.161,-122.337,1.459
16:35:41:328,12.838,-0.105,-0.165,-0.153,-0.093,-123.996,3.573
16:35:41:431,12.941,-0.066,0.288,0.000,-1.188,-125.277,5.869
16:35:41:431,12.941,0.032,0.052,0.090,-1.860,-125.631,7.589
16:35:41:432,12.943,-0.161,0.048,0.117,-2.110,-126.301,8.795
16:35:41:433,12.944,0.026,0.002,-0.049,-2.273,-127.026,10.463
16:35:41:556,13.067,-0.061,-0.029,0.016,-2.436,-127.117,11.247
16:35:41:557,13.067,-0.044,-0.058,0.166,-2.316,-128.282,12.368
16:35:41:871,13.381,0.048,0.081,0.063,-2.435,-129.228,13.569
16:35:41:897,13.408,-0.012,0.054,0.120,-2.451,-129.825,14.444
16:35:41:897,13.408,-0.022,0.089,0.062,-2.325,-130.746,15.803
16:35:41:923,13.434,-0.159,0.028,0.178,-2.142,-131.558,16.761
16:35:42:14,13.650,-0.130,0.001,0.104,-1.840,-132.588,18.208
16:35:42:14,13.651,-0.060,0.090,0.228,-1.550,-133.293,19.779
16:35:42:141,13.651,-0.185,0.179,0.328,-1.173,-133.906,20.980
16:35:42:141,13.652,-0.431,0.223,0.432,-0.243,-134.740,23.318
16:35:42:166,13.676,-0.427,0.264,0.501,0.596,-134.819,25.305
16:35:42:166,13.676,-0.444,0.330,0.698,2.225,-134.251,28.808
16:35:42:167,13.677,-0.658,0.225,1.102,5.019,-134.035,32.689
16:35:42:168,13.678,-0.770,-0.132,1.336,8.235,-134.348,35.266
16:35:42:293,13.804,-0.613,-0.151,1.804,14.572,-133.963,39.936
16:35:42:294,13.805,-0.323,0.097,1.626,17.026,-131.461,44.598
16:35:42:295,13.805,0.232,-0.198,0.597,18.380,-125.286,51.894
16:35:42:403,13.914,-0.062,0.166,1.392,23.394,-122.378,57.086
16:35:42:404,13.914,0.015,-0.843,1.139,25.494,-121.096,59.037
16:35:42:405,13.915,-0.019,-0.919,0.418,25.831,-118.849,59.225
16:35:42:405,13.916,0.010,-0.940,-0.015,25.673,-117.023,58.304
16:35:42:685,14.195,0.120,-0.947,0.263,24.106,-115.008,54.732
16:35:42:686,14.196,0.311,-0.719,0.207,21.138,-113.793,51.313
16:35:42:717,14.228,0.215,-0.801,0.558,16.408,-112.162,44.088
16:35:42:718,14.228,0.333,-0.426,0.432,12.096,-110.617,34.762
16:35:42:719,14.229,0.448,-0.013,0.477,9.406,-109.753,27.693
16:35:42:72,14.230,0.337,0.486,0.402,5.757,-109.257,16.380
16:35:42:766,14.276,0.254,0.933,0.097,3.095,-108.548,8.823
16:35:42:766,14.276,-0.113,0.423,-0.268,-6.434,-86.687,-18.949
16:35:42:874,14.385,-0.640,0.428,-1.399,-5.287,-86.138,-16.226
16:35:42:875,14.386,0.126,0.131,-0.757,-3.536,-83.587,-10.495
16:35:42:876,14.386,0.139,0.021,-0.661,-3.924,-80.561,-5.213
16:35:42:877,14.387,0.005,0.765,-1.333,-5.559,-76.894,-2.415
16:35:43:084,14.594,-0.101,-0.207,-0.325,-5.504,-77.414,0.840
16:35:43:085,14.595,-0.188,0.018,-0.041,-5.698,-78.873,2.605
16:35:43:086,14.596,-0.066,-0.036,0.033,-6.553,-80.658,4.712
16:35:43:086,14.597,-0.340,0.119,0.024,-7.828,-82.246,6.662
16:35:43:164,14.675,-0.107,-0.150,0.232,-8.335,-82.988,7.489
16:35:43:165,14.675,0.004,0.012,0.051,-9.540,-83.598,8.560
16:35:43:165,14.675,0.056,-0.031,-0.032,-10.185,-84.131,9.237
16:35:43:165,14.675,0.060,0.018,0.071,-11.064,-85.403,10.474
16:35:43:19,14.700,-0.034,0.091,0.090,-11.515,-86.566,11.322
16:35:43:19,14.701,-0.004,0.078,0.173,-11.924,-88.526,12.868
16:35:43:191,14.702,-0.154,0.275,0.740,-8.553,-96.254,28.963
16:35:43:217,14.728,-0.099,-0.146,1.653,-2.841,-97.654,35.858
16:35:43:217,14.728,0.355,0.093,1.562,1.757,-97.061,40.942
16:35:43:218,14.728,0.757,0.220,1.394,1.850,-93.547,47.660
16:35:43:218,14.729,0.686,-0.169,0.664,2.741,-91.750,51.623
16:35:43:268,14.779,0.081,1.008,0.195,8.140,-92.388,56.118
16:35:43:269,14.779,0.614,-0.337,0.423,11.590,-92.516,57.435
16:35:43:27,14.780,0.196,-1.038,0.652,16.414,-93.846,57.277
16:35:43:27,14.781,-0.354,-1.435,0.046,18.352,-94.314,55.330
16:35:43:29,14.801,-0.094,-0.825,0.055,16.153,-95.228,50.436
16:35:43:291,14.801,0.005,-0.781,0.330,13.293,-96.454,44.046
16:35:43:375,14.885,0.000,0.555,0.279,-0.761,-97.789,10.600
16:35:43:375,14.885,-0.151,1.107,-0.239,-5.331,-95.760,-0.470
16:35:43:375,14.885,-0.047,1.135,-0.485,-7.821,-92.515,-7.603
16:35:43:375,14.885,-0.207,0.438,-1.863,-10.199,-87.123,-16.828
16:35:43:4,14.910,-0.412,-0.235,-1.671,-11.156,-83.754,-21.388
16:35:43:4,14.911,-0.047,-0.897,-2.424,-11.589,-79.966,-24.839
16:35:43:401,14.912,0.041,0.066,-0.953,-11.499,-79.750,-23.911
16:35:43:402,14.912,0.788,0.697,0.521,-10.067,-79.557,-20.385
16:35:43:478,14.988,-1.052,1.008,-1.485,-9.537,-79.906,-17.114
16:35:43:479,14.989,0.218,-0.139,-0.444,-7.887,-78.350,-13.096
16:35:43:48,14.990,-0.085,-0.357,0.079,-7.282,-75.372,-8.075
16:35:43:481,14.991,0.067,0.276,-1.110,-8.100,-71.898,-5.751
16:35:43:559,15.069,-0.220,0.029,-0.372,-8.660,-71.698,-2.528
16:35:43:559,15.069,-0.082,-0.051,-0.022,-8.931,-73.904,-0.148
16:35:43:56,15.070,-0.051,0.086,-0.050,-9.550,-74.827,1.100
16:35:43:56,15.070,0.001,-0.022,0.051,-10.319,-76.098,2.909
16:35:43:58,15.090,-0.054,0.046,-0.035,-10.913,-76.627,3.943
16:35:43:581,15.091,-0.019,0.078,-0.001,-11.792,-77.258,4.975
16:35:43:581,15.092,0.102,-0.052,0.022,-12.179,-78.096,5.707
16:35:43:659,15.169,0.044,0.051,0.033,-12.846,-79.366,6.960
16:35:43:66,15.170,0.024,0.031,0.109,-13.159,-81.113,8.464
16:35:43:66,15.171,0.085,0.027,0.130,-13.270,-82.343,9.629
16:35:43:679,15.189,0.017,0.041,0.127,-13.316,-83.743,11.558
16:35:43:705,15.215,-0.052,0.067,0.120,-13.254,-84.650,12.965
16:35:43:731,15.241,0.038,0.107,0.194,-12.882,-85.997,15.222
16:35:43:845,15.355,0.050,0.129,0.326,-11.961,-87.764,17.865
16:35:43:846,15.356,-0.033,0.207,0.492,-11.119,-88.659,19.968
16:35:43:847,15.357,-0.103,0.290,0.486,-9.660,-89.396,23.487
16:35:43:864,15.374,0.082,0.415,0.890,-6.089,-89.677,30.068
16:35:43:889,15.399,0.233,-0.108,1.529,-2.045,-90.329,34.127
16:35:43:947,15.458,0.471,-0.156,1.510,1.597,-90.490,36.913
16:35:43:95,15.460,0.633,-0.081,1.726,5.686,-88.670,42.706
16:35:44:026,15.537,0.689,-0.203,0.881,6.283,-86.003,47.035
16:35:44:027,15.537,-0.062,-0.107,0.287,9.263,-83.093,52.421
16:35:44:028,15.538,0.727,0.027,0.788,13.140,-82.871,55.117
16:35:44:048,15.558,0.442,-1.403,0.518,17.464,-83.079,56.883
16:35:44:073,15.584,-0.418,-1.021,0.277,20.146,-83.921,55.105
16:35:44:13,15.641,-0.056,-1.042,0.133,19.856,-84.583,52.453
16:35:44:131,15.641,0.019,-0.958,0.250,17.446,-86.564,46.266
16:35:44:152,15.663,0.031,-0.914,0.479,14.924,-87.695,41.260
16:35:44:207,15.717,0.020,-0.390,0.469,10.177,-88.606,32.193
16:35:44:207,15.718,0.219,-0.021,0.503,5.770,-89.010,21.559
16:35:44:23,15.741,0.227,0.390,0.391,2.582,-88.860,13.913
16:35:44:391,15.901,0.100,1.107,-0.038,-2.432,-87.127,2.619
16:35:44:391,15.902,0.031,1.364,-0.808,-5.360,-84.419,-4.569
16:35:44:449,15.960,-0.462,1.042,-1.843,-8.503,-78.669,-14.090
16:35:44:45,15.960,-0.789,-0.215,-2.049,-9.733,-75.422,-19.006
16:35:44:451,15.961,-0.647,-0.747,-2.250,-11.026,-70.463,-23.783
16:35:44:451,15.962,-0.656,-0.370,-1.681,-11.598,-69.876,-23.776
16:35:44:475,15.985,-0.270,-0.091,-1.012,-10.966,-69.487,-21.809
16:35:44:475,15.986,-0.936,1.072,0.305,-9.168,-69.130,-17.822
16:35:44:476,15.987,-0.223,0.458,-0.700,-7.917,-67.789,-14.560
16:35:44:477,15.987,0.199,-0.274,-1.208,-6.482,-64.029,-8.854
16:35:44:55,16.061,-0.997,0.631,-1.014,-8.057,-58.254,-4.274
16:35:44:551,16.062,-0.374,-0.110,-0.246,-7.361,-58.347,-2.127
16:35:44:634,16.145,-0.154,0.090,-0.098,-7.326,-60.649,0.454
16:35:44:634,16.145,-0.059,-0.032,0.029,-7.698,-62.213,1.774
16:35:44:635,16.145,-0.064,0.117,0.115,-8.498,-64.267,3.410
16:35:44:635,16.145,0.049,-0.069,0.120,-9.110,-65.416,4.682
16:35:44:65,16.160,-0.006,0.020,0.071,-9.515,-65.927,5.266
16:35:44:676,16.186,0.060,-0.019,-0.123,-10.153,-66.854,6.325
16:35:44:703,16.213,0.218,0.107,-0.021,-10.506,-67.888,7.210
16:35:44:787,16.297,0.116,-0.016,0.011,-10.393,-69.490,8.535
16:35:44:788,16.298,-0.009,0.150,0.234,-10.305,-70.635,9.605
16:35:44:788,16.299,0.105,0.021,0.146,-9.963,-71.622,11.543
16:35:44:807,16.318,0.033,0.025,0.015,-9.502,-72.129,13.703
16:35:44:833,16.344,0.077,0.146,0.108,-9.063,-72.716,15.237
16:35:44:86,16.370,0.050,0.300,0.505,-8.101,-74.362,17.796
16:35:44:917,16.428,0.027,0.276,0.543,-7.143,-75.018,19.735
16:35:44:918,16.428,0.079,0.265,0.528,-5.466,-75.497,23.218
16:35:44:939,16.449,0.354,0.287,0.603,-3.464,-75.633,27.092
16:35:44:994,16.504,0.499,0.328,0.781,-1.768,-75.465,29.801
16:35:44:995,16.506,0.631,-0.032,1.194,2.484,-75.988,33.883
16:35:45:018,16.529,0.934,0.130,1.175,6.603,-76.444,36.651
16:35:45:044,16.554,1.047,-0.103,1.468,11.391,-74.682,42.616
16:35:45:07,16.581,0.612,-0.087,0.563,12.499,-71.830,46.931
16:35:45:096,16.607,0.217,1.008,-0.654,16.137,-68.408,52.214
16:35:45:176,16.687,0.794,-0.549,0.487,19.439,-67.040,55.256
16:35:45:207,16.717,0.302,-1.450,0.378,21.714,-66.577,55.785
16:35:45:208,16.718,-0.030,-1.277,0.302,22.899,-65.601,53.637
16:35:45:209,16.719,0.234,-0.842,0.048,20.042,-64.471,50.707
16:35:45:257,16.767,0.316,-0.725,0.025,15.324,-63.441,45.039
16:35:45:257,16.767,0.449,-0.712,0.234,12.065,-62.999,36.747
16:35:45:337,16.848,0.495,-0.350,0.284,9.945,-62.903,30.171
16:35:45:338,16.848,0.505,0.231,0.132,6.255,-62.242,19.671
16:35:45:386,16.896,0.357,0.676,-0.033,3.641,-61.228,12.508
16:35:45:418,16.929,0.101,0.854,-0.303,-0.170,-58.045,1.855
16:35:45:419,16.929,-0.005,1.185,-0.939,-2.472,-54.971,-4.882
16:35:45:419,16.929,-0.572,0.827,-1.271,-5.178,-48.818,-14.049
16:35:45:439,16.949,-1.255,-0.435,-1.025,-6.883,-42.214,-21.048
16:35:45:464,16.975,-1.796,-0.705,-1.832,-7.434,-37.983,-24.150
16:35:45:49,17.000,-1.231,-0.222,-1.117,-8.348,-37.522,-25.012
16:35:45:516,17.027,-0.668,0.099,-0.142,-8.082,-36.904,-23.541
16:35:45:545,17.055,-0.454,0.766,-0.059,-5.208,-33.387,-19.105
16:35:45:57,17.080,-0.803,0.442,-0.389,-3.684,-30.130,-14.185
16:35:45:71,17.221,-0.224,-0.680,-1.002,-2.553,-27.885,-10.125
16:35:45:712,17.222,-0.860,0.352,-0.016,-3.883,-22.573,-5.077
16:35:45:712,17.223,-0.585,-0.176,-0.225,-3.717,-21.715,-2.657
16:35:45:713,17.223,-0.326,0.073,-0.027,-3.981,-23.198,0.122
16:35:45:759,17.270,-0.119,0.018,0.116,-4.564,-24.360,1.465
16:35:45:759,17.270,-0.100,0.110,0.096,-5.336,-25.617,3.007
16:35:45:76,17.270,0.040,0.002,0.153,-6.014,-26.653,4.504
16:35:45:779,17.290,-0.094,-0.006,-0.150,-6.387,-26.917,5.382
16:35:46:156,17.666,-0.073,-0.059,0.052,-6.834,-27.473,6.432
16:35:46:156,17.667,-0.015,0.081,-0.020,-7.303,-28.795,7.418
16:35:46:157,17.667,0.097,0.075,-0.097,-7.497,-29.802,8.107
16:35:46:158,17.668,0.067,0.053,0.138,-7.459,-31.326,9.354
16:35:46:184,17.694,0.160,0.059,0.089,-7.370,-32.124,10.370
16:35:46:184,17.694,-0.029,0.078,0.103,-7.216,-32.865,12.160
16:35:46:184,17.694,0.162,0.026,0.076,-6.978,-33.478,13.445
16:35:46:184,17.695,0.218,0.219,0.105,-6.441,-34.433,15.483
16:35:46:212,17.723,0.336,0.228,0.199,-5.548,-34.938,17.928
16:35:46:213,17.723,0.332,0.278,0.353,-4.724,-35.136,19.872
16:35:46:213,17.723,0.464,0.215,0.342,-3.116,-36.230,23.244
16:35:46:213,17.723,0.770,0.367,0.222,-1.853,-35.653,25.690
16:35:46:234,17.744,1.034,0.273,0.424,0.859,-36.195,29.551
16:35:46:235,17.745,1.139,0.102,0.448,5.751,-36.378,33.444
16:35:46:236,17.746,1.600,0.117,0.329,9.404,-35.427,36.806
16:35:46:237,17.747,1.401,0.237,-0.012,11.571,-30.628,43.530
16:35:46:252,17.762,-0.210,0.243,0.071,12.057,-26.700,47.763
16:35:46:337,17.847,1.169,-0.124,-0.105,16.135,-24.268,52.408
16:35:46:337,17.848,0.919,-0.517,-0.115,17.456,-23.078,53.889
16:35:46:338,17.849,0.282,-1.159,0.185,19.413,-21.638,53.850
16:35:46:359,17.869,0.342,-1.086,0.017,18.656,-20.136,50.988
16:35:46:36,17.870,0.253,-0.697,-0.176,16.214,-19.244,47.634
16:35:46:382,17.893,0.301,-0.707,-0.185,12.785,-18.402,41.138
16:35:46:55,18.060,0.390,-0.630,-0.223,11.141,-18.388,35.296
16:35:46:551,18.061,0.442,-0.184,-0.226,8.357,-18.816,25.182
16:35:46:552,18.062,0.426,0.331,-0.225,4.710,-18.902,14.263
16:35:46:552,18.063,0.190,0.639,-0.196,1.839,-18.101,6.926
16:35:46:575,18.086,-0.429,1.146,-0.272,-2.629,-14.847,-3.601
16:35:46:575,18.086,-1.401,0.920,-0.393,-5.127,-11.264,-10.207
16:35:46:576,18.086,-1.686,0.301,-0.097,-7.505,-5.490,-18.832
16:35:46:577,18.087,-2.489,-0.594,0.008,-7.937,1.630,-24.714
16:35:46:592,18.103,-2.303,-0.965,-0.239,-8.325,3.444,-26.306
16:35:46:649,18.159,-1.046,-0.251,0.103,-8.999,3.193,-25.135
16:35:46:649,18.160,1.180,1.465,0.670,-8.336,3.710,-22.862
16:35:46:672,18.183,-1.350,0.605,0.021,-6.363,4.238,-18.646
16:35:46:757,18.267,-0.222,-0.753,-0.479,-5.089,6.227,-14.611
16:35:46:757,18.267,-1.623,0.293,-0.454,-5.526,11.003,-9.763
16:35:46:757,18.268,-0.655,-0.265,0.177,-6.333,14.480,-5.849
16:35:46:805,18.315,-0.259,-0.311,0.323,-6.076,13.369,-4.091
16:35:46:806,18.317,-0.096,0.075,0.120,-6.884,10.735,-2.098
16:35:46:858,18.369,0.094,0.068,0.039,-7.520,9.350,-1.025
16:35:46:859,18.369,0.032,0.015,0.078,-8.568,8.269,0.534
16:35:46:883,18.394,-0.074,-0.015,0.084,-9.523,8.010,1.687
16:35:46:995,18.506,-0.072,0.015,-0.030,-10.131,7.555,2.190
16:35:46:996,18.506,0.056,0.012,-0.064,-10.953,6.052,3.212
16:35:46:997,18.507,0.028,0.051,-0.032,-11.395,4.909,4.107
16:35:46:997,18.508,0.020,0.037,0.037,-11.829,3.633,5.620
16:35:47:013,18.523,-0.032,0.117,-0.028,-12.053,2.807,6.746
16:35:47:039,18.549,-0.016,0.112,0.041,-12.163,1.310,8.615
16:35:47:066,18.577,0.200,0.032,0.081,-11.962,-0.724,10.652
16:35:47:122,18.633,0.286,0.117,-0.007,-11.591,-1.976,12.116
16:35:47:122,18.633,0.292,0.180,-0.098,-10.597,-3.270,14.906
16:35:47:391,18.901,0.300,0.263,0.023,-9.799,-3.714,17.099
16:35:47:392,18.902,0.510,0.331,0.216,-8.256,-4.520,20.791
16:35:47:392,18.903,0.720,0.379,0.095,-5.974,-5.064,24.786
16:35:47:393,18.904,1.083,0.277,0.063,-3.848,-5.582,27.495
16:35:47:471,18.981,1.490,-0.084,-0.091,0.745,-6.381,31.587
16:35:47:471,18.981,1.311,0.337,-0.298,3.787,-5.821,34.844
16:35:47:471,18.982,1.020,0.065,-0.728,5.199,-2.114,41.255
16:35:47:471,18.982,0.332,-0.170,-0.337,5.699,0.754,45.176
16:35:47:496,19.006,-0.271,1.023,-0.457,8.367,2.613,49.950
16:35:47:496,19.007,0.832,-1.392,-0.380,12.781,2.549,51.852
16:35:47:496,19.007,0.364,-1.512,-0.074,16.218,2.133,50.912
16:35:47:497,19.007,0.220,-0.988,-0.203,16.539,2.014,46.924
16:35:47:517,19.027,0.168,-0.765,-0.283,14.622,2.027,43.334
16:35:47:518,19.029,0.396,-0.450,-0.457,9.960,3.693,28.328
16:35:47:596,19.106,0.218,0.037,-0.582,7.822,4.832,21.861
16:35:47:596,19.107,0.033,0.446,-0.637,4.530,6.831,11.635
16:35:47:597,19.108,-0.335,0.798,-0.428,2.201,8.538,4.620
16:35:47:73,19.241,-0.642,0.795,-0.155,-1.268,11.946,-5.319
16:35:47:731,19.241,-1.440,0.728,0.057,-4.267,17.549,-14.196
16:35:47:732,19.242,-1.554,0.035,0.674,-5.935,21.484,-19.216
16:35:47:732,19.243,-1.942,-0.475,0.608,-7.080,27.616,-24.993
16:35:47:75,19.261,-1.841,-0.855,1.025,-7.886,30.003,-26.950
16:35:47:751,19.262,-0.906,-0.418,0.927,-8.183,31.238,-26.503
16:35:47:803,19.313,1.043,1.612,0.500,-7.018,33.043,-24.653
16:35:47:804,19.314,-1.144,0.258,0.968,-4.116,35.185,-19.956
16:35:47:913,19.424,-0.958,-0.653,-0.004,-2.601,37.863,-14.274
16:35:47:914,19.424,-1.716,0.407,0.158,-2.852,41.321,-10.978
16:35:47:915,19.425,-0.489,-0.457,0.234,-3.395,45.317,-6.431
16:35:47:931,19.442,-0.099,0.096,0.136,-3.428,43.925,-2.712
16:35:47:958,19.468,-0.050,-0.014,0.230,-3.838,42.080,-1.305
16:35:47:986,19.496,0.070,0.065,0.061,-4.374,41.184,-0.285
16:35:48:011,19.521,0.062,-0.064,0.053,-4.982,40.611,0.952
16:35:48:036,19.547,-0.077,0.034,0.045,-5.393,40.375,1.607
16:35:48:092,19.602,-0.088,0.022,0.015,-5.980,39.950,2.595
16:35:48:092,19.603,-0.039,0.040,-0.144,-6.300,38.890,3.389
16:35:48:117,19.628,-0.015,0.062,-0.073,-6.507,37.528,4.656
16:35:48:143,19.653,-0.017,0.123,0.077,-6.513,36.644,6.179
16:35:48:169,19.680,-0.046,0.038,0.036,-6.479,36.220,7.268
16:35:48:195,19.705,0.096,0.007,-0.066,-6.329,35.122,8.909
16:35:48:22,19.731,0.055,0.155,-0.057,-6.220,34.535,10.116
16:35:48:246,19.757,0.141,0.208,-0.106,-5.782,33.853,12.236
16:35:48:272,19.783,0.332,0.232,-0.129,-4.841,33.165,14.673
16:35:48:328,19.838,0.369,0.261,-0.198,-3.933,33.017,16.581
16:35:48:329,19.839,0.212,0.388,-0.347,-2.211,33.617,19.847
16:35:48:379,19.889,0.524,0.355,-0.510,-0.677,34.014,22.167
16:35:48:408,19.918,0.801,0.253,-0.656,2.784,33.765,25.738
16:35:48:408,19.918,0.762,0.071,-1.217,6.080,33.254,28.088
16:35:48:46,19.970,0.788,0.227,-1.325,10.930,34.433,32.705
16:35:48:536,20.046,0.266,-0.260,-1.209,13.214,39.486,39.444
16:35:48:598,20.109,0.045,-0.353,-0.713,14.240,43.403,43.694
16:35:48:598,20.109,-0.014,0.581,-0.800,16.646,47.381,48.773
16:35:48:599,20.109,0.006,-1.273,-0.706,17.365,49.745,51.064
16:35:48:599,20.110,0.170,-1.237,-0.397,19.940,52.054,51.206
16:35:48:616,20.127,0.032,-0.478,-0.348,19.854,54.241,48.419
16:35:48:617,20.128,-0.119,-0.794,-0.330,18.900,56.062,45.625
16:35:48:701,20.212,-0.284,-0.819,-0.557,16.448,58.993,39.706
16:35:48:702,20.212,-0.334,-0.474,-0.575,14.347,61.360,34.512
16:35:48:703,20.213,-0.645,-0.220,-0.449,11.316,64.853,25.038
16:35:48:749,20.259,-0.750,0.655,-0.098,7.173,68.280,6.549
16:35:48:749,20.259,-0.690,0.704,0.324,4.282,69.914,-4.345
16:35:48:801,20.311,-0.687,0.981,0.690,1.995,72.357,-10.739
16:35:48:801,20.312,-0.607,0.136,1.134,-0.749,77.410,-18.832
16:35:48:853,20.363,-0.565,-0.399,2.164,-1.790,81.127,-23.167
16:35:48:854,20.364,-0.223,-0.794,2.118,-2.859,85.835,-26.599
16:35:48:877,20.387,0.191,-0.175,1.017,-3.498,86.407,-25.749
16:35:48:903,20.413,0.213,0.886,-0.372,-2.666,87.906,-23.635
16:35:48:929,20.439,0.098,0.527,1.544,0.102,90.869,-19.291
16:35:48:955,20.465,-0.193,-0.395,0.410,0.796,92.947,-15.415
16:35:49:01,20.521,-0.351,-0.401,0.393,1.279,95.377,-9.696
16:35:49:011,20.521,0.134,-0.027,0.766,-0.402,99.936,-4.857
16:35:49:064,20.574,0.182,-0.085,0.172,-0.133,100.011,-2.867
16:35:49:064,20.574,0.062,-0.002,0.015,-0.543,98.138,-0.532
16:35:49:086,20.597,0.106,0.095,0.087,-1.350,97.421,0.747
16:35:49:114,20.624,0.023,0.030,0.026,-2.295,96.918,2.435
16:35:49:168,20.678,-0.007,0.047,0.027,-2.851,96.572,3.488
16:35:49:168,20.679,-0.081,-0.009,0.074,-3.529,96.131,4.806
16:35:49:191,20.702,-0.088,0.010,0.084,-4.265,95.650,5.898
16:35:49:217,20.728,-0.109,-0.025,-0.084,-4.555,94.445,6.579
16:35:49:245,20.755,-0.111,0.097,-0.088,-5.049,93.243,7.690
16:35:49:271,20.782,-0.061,0.005,0.052,-5.274,92.754,8.592
16:35:49:297,20.808,-0.074,0.001,0.037,-5.430,91.709,10.101
16:35:49:323,20.833,-0.029,0.101,-0.037,-5.533,90.391,11.642
16:35:49:431,20.941,-0.053,0.159,-0.040,-5.539,89.523,12.729
16:35:49:432,20.942,-0.060,0.104,-0.299,-5.192,87.968,14.559
16:35:49:46,20.970,-0.100,0.143,-0.372,-4.718,87.305,16.167
16:35:49:46,20.971,-0.012,0.320,-0.373,-3.771,86.939,19.345
16:35:49:461,20.972,-0.083,0.294,-0.469,-2.813,86.841,21.736
16:35:49:482,20.993,-0.278,0.375,-0.712,-0.854,86.808,25.683
16:35:49:535,21.046,-0.204,0.169,-1.139,2.187,86.838,29.787
16:35:49:536,21.046,-0.408,0.088,-1.246,5.468,86.095,32.475
16:35:49:592,21.103,-0.498,0.054,-1.539,10.915,86.060,37.612
16:35:49:592,21.103,-0.510,-0.033,-1.105,13.178,87.723,41.768
16:35:49:64,21.151,-0.339,-0.263,-0.495,16.351,90.921,47.213
16:35:49:642,21.152,-0.590,0.378,-0.464,21.623,90.636,50.791
16:35:49:665,21.175,-0.416,-0.459,-0.516,24.135,89.982,51.894
16:35:49:69,21.201,0.296,-1.438,-0.590,27.641,88.088,50.588
16:35:49:777,21.287,0.245,-0.926,-0.159,26.602,87.481,48.352
16:35:49:777,21.287,-0.018,-0.769,-0.014,21.632,87.128,43.513
16:35:49:777,21.287,0.074,-0.817,-0.334,17.820,86.410,39.359
16:35:49:853,21.364,0.109,-0.583,-0.432,13.093,84.451,30.765
16:35:49:854,21.364,0.118,-0.186,-0.368,8.849,82.079,20.294
16:35:49:855,21.365,0.094,0.190,-0.405,5.534,80.790,13.055
16:35:49:874,21.385,0.178,0.909,-0.045,-0.089,80.807,2.481
16:35:49:929,21.439,0.131,0.968,0.446,-3.359,82.115,-4.289
16:35:49:93,21.440,-0.019,0.967,0.846,-7.140,85.638,-13.658
16:35:49:954,21.464,0.237,0.109,1.790,-9.690,90.603,-21.960
16:35:49:98,21.490,0.426,-0.395,1.844,-10.189,94.233,-26.135
16:35:50:064,21.574,0.102,-1.015,2.386,-10.377,96.902,-28.633
16:35:50:065,21.575,-0.227,-0.168,1.122,-10.538,96.230,-27.701
16:35:50:065,21.576,-0.512,0.637,-0.161,-9.728,95.768,-24.358
16:35:50:083,21.594,1.139,0.757,1.411,-8.800,94.880,-21.058
16:35:50:11,21.621,-0.393,-0.510,0.413,-6.992,96.249,-17.443
16:35:50:136,21.647,-0.177,-0.007,0.080,-6.590,99.209,-13.030
16:35:50:163,21.673,-0.245,0.373,1.069,-7.340,102.600,-10.591
16:35:50:191,21.702,0.328,-0.056,0.478,-7.395,103.418,-7.530
16:35:50:215,21.725,0.186,-0.074,0.364,-7.612,102.045,-5.831
16:35:50:243,21.754,-0.036,0.042,0.056,-8.470,99.622,-3.982
16:35:50:27,21.780,0.073,-0.031,-0.057,-9.315,97.788,-2.304
16:35:50:295,21.806,-0.144,-0.087,-0.139,-9.842,97.393,-1.334
16:35:50:352,21.863,0.013,-0.017,0.193,-10.738,97.640,-0.245
16:35:50:352,21.863,-0.149,-0.019,0.187,-11.251,97.487,0.400
16:35:50:375,21.885,-0.078,0.034,0.009,-11.891,96.202,1.445
16:35:50:428,21.939,-0.004,0.082,-0.080,-12.373,94.408,2.744
16:35:50:429,21.939,-0.075,0.005,-0.169,-12.602,93.526,3.748
16:35:50:565,22.075,-0.033,0.104,0.011,-12.906,91.628,7.133
16:35:50:566,22.076,-0.043,0.193,-0.132,-12.684,90.071,9.773
16:35:50:567,22.077,-0.060,0.167,-0.214,-12.200,88.716,11.791
16:35:50:567,22.078,0.123,0.210,-0.215,-11.034,87.042,15.174
16:35:50:612,22.122,0.096,0.373,-0.519,-9.583,85.502,18.948
16:35:50:612,22.123,-0.079,0.453,-0.591,-8.383,84.817,21.712
16:35:50:635,22.145,0.028,0.445,-0.918,-5.961,84.016,26.110
16:35:50:69,22.201,-0.026,0.059,-1.652,-3.445,83.180,29.087
16:35:50:691,22.201,-0.165,-0.005,-1.597,1.780,82.093,33.721
16:35:50:714,22.224,0.045,0.407,-1.457,4.956,84.056,39.926
16:35:50:74,22.251,-0.774,0.099,-1.194,5.343,86.804,44.303
16:35:50:846,22.357,0.166,0.590,0.122,9.159,88.583,49.636
16:35:50:881,22.392,-0.581,-0.473,-0.801,11.760,88.709,52.015
16:35:50:882,22.392,-0.302,-1.465,-0.486,17.402,87.547,52.631
16:35:50:882,22.393,0.101,-1.190,-0.005,19.685,86.464,50.751
16:35:50:883,22.394,-0.016,-1.044,-0.028,19.543,85.356,46.475
16:35:50:925,22.436,-0.049,-0.838,-0.310,16.907,83.305,39.956
16:35:50:956,22.467,-0.015,-0.739,-0.398,14.039,82.198,34.277
16:35:50:957,22.467,-0.125,-0.369,-0.341,9.943,80.910,24.221
16:35:50:957,22.468,-0.191,-0.115,-0.361,6.983,80.216,16.954
16:35:51:008,22.518,-0.110,0.556,-0.313,2.006,80.041,5.728
16:35:51:008,22.518,0.083,1.090,0.383,-3.056,83.032,-5.085
16:35:51:058,22.568,0.088,1.245,1.170,-5.754,86.968,-12.027
16:35:51:058,22.569,-0.143,0.080,1.680,-8.000,91.875,-20.781
16:35:51:14,22.650,0.201,-0.377,1.971,-9.395,94.371,-25.172
16:35:51:14,22.651,0.184,-0.817,2.435,-10.392,98.132,-28.773
16:35:51:141,22.651,-0.048,-0.419,1.093,-10.356,98.114,-27.951
16:35:51:163,22.673,-0.798,1.292,-0.955,-9.413,98.422,-25.783
16:35:51:188,22.698,1.224,0.915,1.579,-8.243,97.641,-22.021
16:35:51:213,22.724,-0.405,-0.103,1.154,-6.240,98.648,-17.900
16:35:51:239,22.749,0.674,-0.193,0.045,-6.307,101.461,-11.979
16:35:51:294,22.805,-0.031,-0.424,0.818,-5.311,103.011,-9.133
16:35:51:295,22.806,0.249,0.034,0.493,-5.870,102.588,-6.162
16:35:51:347,22.857,0.078,0.082,-0.045,-6.863,99.675,-4.109
16:35:51:347,22.858,-0.149,-0.085,-0.010,-7.507,98.549,-2.866
16:35:51:399,22.909,-0.041,0.069,0.104,-8.454,97.702,-1.208
16:35:51:4,22.910,-0.043,0.008,0.110,-8.824,97.237,-0.397
16:35:51:423,22.934,-0.120,0.004,0.050,-9.329,95.915,0.617
16:35:51:449,22.959,-0.089,0.006,-0.034,-9.836,94.427,1.668
16:35:51:503,23.013,-0.074,0.082,0.038,-10.169,93.768,2.399
16:35:51:589,23.100,-0.124,0.051,0.042,-10.361,92.472,3.618
16:35:51:59,23.100,-0.113,0.030,-0.040,-10.385,90.688,4.628
16:35:51:59,23.100,-0.035,0.101,-0.083,-10.219,88.694,6.396
16:35:51:591,23.101,-0.069,-0.072,-0.097,-9.872,87.225,7.770
16:35:51:607,23.117,-0.095,0.059,-0.117,-9.184,85.589,10.011
16:35:51:66,23.171,-0.012,0.255,-0.241,-8.355,84.027,12.618
16:35:51:718,23.228,-0.014,0.253,-0.400,-7.424,83.076,14.570
16:35:51:718,23.228,0.057,0.288,-0.564,-5.626,81.950,17.993
16:35:51:719,23.229,0.040,0.294,-0.645,-4.181,81.679,20.669
16:35:51:74,23.250,-0.155,0.332,-1.029,-1.475,81.792,25.079
16:35:51:791,23.301,-0.179,0.098,-1.683,2.699,81.951,29.955
16:35:51:843,23.353,-0.342,0.217,-1.528,6.015,82.579,33.698
16:35:51:874,23.385,-0.593,0.513,-1.563,8.050,86.125,40.797
16:35:51:874,23.385,-0.058,-0.080,-0.237,9.510,89.028,44.957
16:35:51:901,23.411,-0.707,0.898,0.217,12.821,91.674,50.328
16:35:51:901,23.411,-0.505,-1.757,-0.406,14.114,93.212,52.485
16:35:51:922,23.432,0.089,-1.283,-0.347,17.429,93.743,51.776
16:35:51:977,23.488,-0.123,-1.188,-0.237,18.990,94.396,48.599
16:35:51:978,23.488,-0.143,-0.831,-0.126,18.387,94.299,45.019
16:35:52:,23.510,-0.123,-0.808,-0.240,16.980,93.408,37.536
16:35:52:029,23.539,-0.150,-0.590,-0.330,15.627,92.740,31.338
16:35:52:054,23.564,-0.257,-0.235,-0.314,12.705,92.086,20.623
16:35:52:109,23.619,-0.294,0.298,-0.144,8.976,92.142,9.190
16:35:52:109,23.620,-0.162,0.609,-0.056,6.203,93.216,1.763
16:35:52:19,23.700,-0.049,1.237,0.672,2.557,99.245,-8.212
16:35:52:191,23.701,-0.024,0.597,1.548,1.646,105.821,-13.813
16:35:52:191,23.702,0.126,0.006,2.032,2.575,115.498,-20.319
16:35:52:241,23.751,0.787,-1.195,2.415,3.752,121.058,-22.650
16:35:52:241,23.752,0.696,-0.573,1.804,4.100,122.873,-23.736
16:35:52:291,23.801,0.183,0.833,0.309,3.954,121.928,-21.565
16:35:52:318,23.828,0.003,0.470,0.555,5.042,121.539,-18.842
16:35:52:318,23.829,-0.350,-0.301,0.132,4.591,122.290,-14.038
16:35:52:372,23.883,0.332,-0.320,0.848,4.944,123.778,-10.333
16:35:52:373,23.883,0.671,0.452,0.870,3.684,126.390,-5.978
16:35:52:424,23.935,-0.223,-0.198,0.052,3.340,124.663,-3.145
16:35:52:425,23.935,-0.333,-0.047,-0.097,2.737,123.444,-1.781
16:35:52:476,23.986,0.120,0.010,0.042,1.989,123.242,-0.125
16:35:52:502,24.012,0.018,0.028,0.154,1.563,123.361,0.946
16:35:52:528,24.038,0.004,-0.042,0.036,1.243,122.979,2.061
16:35:52:529,24.039,-0.031,-0.062,-0.034,1.054,122.452,2.604
16:35:52:551,24.062,-0.089,-0.113,0.004,0.679,121.681,3.356
16:35:52:694,24.204,-0.097,0.074,0.050,0.162,120.885,4.258
16:35:52:694,24.205,-0.120,0.005,0.051,0.021,120.211,4.948
16:35:52:694,24.205,-0.177,0.020,0.019,0.007,118.832,6.168
16:35:52:694,24.205,-0.091,0.076,0.022,0.069,118.116,7.094
16:35:52:712,24.222,-0.007,0.029,-0.057,0.534,117.125,8.574
16:35:52:712,24.223,-0.195,0.106,-0.051,1.274,116.246,10.156
16:35:52:736,24.247,-0.230,0.237,-0.092,1.888,115.965,11.406
16:35:52:761,24.272,-0.180,0.234,-0.298,3.273,115.566,13.632
16:35:52:789,24.300,-0.208,0.219,-0.408,4.506,115.628,15.441
16:35:52:813,24.324,-0.461,0.371,-0.437,6.649,116.517,18.764
16:35:52:9,24.410,-0.742,0.368,-0.505,9.331,118.106,22.629
16:35:52:9,24.410,-0.938,0.244,-0.716,11.902,118.759,25.320
16:35:52:9,24.410,-1.393,-0.049,-0.766,17.370,119.224,29.481
16:35:52:946,24.456,-1.445,0.421,-0.496,20.569,121.363,33.662
16:35:52:975,24.485,-1.292,-0.172,-0.266,23.102,128.376,41.750
16:35:52:975,24.486,0.004,0.029,0.210,24.806,132.948,46.408
16:35:52:999,24.509,-1.213,0.084,0.079,25.814,138.613,51.753
16:35:53:025,24.535,-0.633,-1.214,0.104,25.940,143.639,53.970
16:35:53:051,24.561,-0.540,-1.161,-0.242,26.442,146.127,53.007
16:35:53:076,24.587,-0.428,-0.763,0.446,24.602,150.586,50.321
16:35:53:136,24.647,-0.444,-0.742,0.420,22.926,152.915,46.898
16:35:53:137,24.647,-0.674,-0.588,0.380,20.317,156.257,39.802
16:35:53:137,24.648,-0.685,-0.166,0.729,17.127,160.122,30.902
16:35:53:184,24.694,-0.556,-0.024,0.865,15.273,162.603,24.479
16:35:53:185,24.695,-0.310,0.235,0.974,12.685,165.821,14.268
16:35:53:266,24.776,0.076,0.616,0.960,10.565,167.752,7.133
16:35:53:267,24.777,0.626,0.812,0.903,6.972,170.425,-3.085
16:35:53:267,24.778,1.098,0.889,0.689,4.562,172.350,-9.298
16:35:53:313,24.823,1.669,-0.213,0.437,1.398,176.215,-16.801
16:35:53:339,24.850,2.289,-0.431,0.252,-0.710,-179.684,-21.841
16:35:53:497,25.007,1.950,-0.647,-0.087,-2.273,-178.940,-23.233
16:35:53:558,25.069,1.124,-0.123,-0.461,-3.361,-178.934,-22.064
16:35:53:559,25.069,-0.715,1.497,-0.652,-2.597,-177.366,-19.598
16:35:53:559,25.070,1.304,0.676,-0.182,-0.208,-174.791,-14.969
16:35:53:56,25.071,0.386,-0.412,0.647,1.263,-170.730,-8.600
16:35:53:576,25.087,0.945,-0.214,0.308,0.774,-166.302,-4.889
16:35:53:611,25.121,0.490,-0.315,-0.301,-0.335,-161.469,-0.270
16:35:53:611,25.122,0.592,0.099,-0.492,-0.419,-161.188,1.591
16:35:53:612,25.123,0.055,0.079,-0.198,-0.761,-164.125,3.801
16:35:53:613,25.123,-0.198,0.140,0.039,-1.340,-166.675,5.300
16:35:53:739,25.250,-0.184,-0.026,0.107,-1.993,-167.461,6.458
16:35:53:739,25.250,-0.014,0.012,0.012,-2.785,-167.709,7.926
16:35:53:772,25.282,0.080,0.097,0.035,-3.309,-168.029,8.742
16:35:53:772,25.282,0.019,-0.080,0.143,-3.782,-169.489,9.828
16:35:53:772,25.283,-0.185,0.061,0.148,-3.975,-170.958,10.573
16:35:53:772,25.283,-0.116,0.067,0.069,-4.345,-172.369,11.897
16:35:53:819,25.329,-0.034,0.134,0.057,-4.516,-173.196,13.450
16:35:53:819,25.329,-0.045,0.038,0.105,-4.470,-173.984,14.571
16:35:53:819,25.330,-0.239,0.071,0.049,-4.151,-175.770,16.257
16:35:54:058,25.568,-0.359,0.228,0.128,-3.867,-176.316,17.557
16:35:54:058,25.568,-0.391,0.214,0.066,-3.186,-177.608,19.849
16:35:54:058,25.569,-0.480,0.225,0.076,-1.986,-178.244,22.721
16:35:54:059,25.570,-0.575,0.310,0.153,-0.989,-178.419,24.990
16:35:54:32,25.830,-0.852,0.439,0.358,1.093,-178.126,28.733
16:35:54:321,25.831,-1.245,0.176,0.326,3.226,-178.371,31.362
16:35:54:321,25.831,-1.348,-0.075,0.525,8.370,-179.238,35.339
16:35:54:322,25.832,-1.322,0.082,0.738,12.528,-179.482,38.489
16:35:54:344,25.855,-1.130,0.019,0.796,16.649,-177.509,45.164
16:35:54:345,25.855,-0.367,-0.095,0.143,20.109,-174.102,50.946
16:35:54:345,25.856,-0.388,0.361,0.739,24.127,-173.594,53.908
16:35:54:389,25.900,-0.804,-1.181,0.291,26.147,-174.071,56.072
16:35:54:505,26.015,-0.370,-1.347,-0.420,28.808,-174.211,55.619
16:35:54:505,26.015,-0.078,-1.141,-0.125,28.385,-175.022,52.037
16:35:54:505,26.015,-0.417,-0.931,-0.045,24.477,-176.535,46.227
16:35:54:506,26.016,-0.504,-0.724,-0.049,20.737,-177.567,40.977
16:35:54:531,26.041,-0.540,-0.266,0.122,15.068,-178.501,31.515
16:35:54:531,26.041,-0.640,-0.081,0.216,11.736,-179.030,24.517
16:35:54:531,26.042,-0.436,0.470,0.236,6.646,-178.619,13.554
16:35:54:532,26.042,0.230,1.121,0.127,2.926,-177.013,6.205
16:35:54:58,26.091,0.582,1.159,0.148,-1.286,-172.962,-4.237
16:35:54:581,26.091,1.569,0.569,-0.342,-4.314,-167.955,-13.105
16:35:54:582,26.092,1.587,0.083,-0.407,-5.436,-165.256,-17.964
16:35:54:634,26.145,2.260,-0.752,-0.449,-6.505,-161.397,-22.737
16:35:54:635,26.146,1.364,-0.468,-0.412,-7.371,-161.241,-23.569
16:35:54:636,26.147,1.092,-0.242,-0.562,-7.690,-162.102,-21.762
16:35:54:637,26.147,0.281,0.845,-0.770,-6.213,-161.433,-17.986
16:35:54:66,26.171,0.782,0.915,-0.590,-5.198,-160.313,-15.561
16:35:54:661,26.172,0.656,-0.380,0.606,-3.564,-157.302,-9.829
16:35:54:662,26.172,0.693,0.469,-0.574,-4.065,-154.139,-6.544
16:35:54:663,26.173,0.456,-0.153,-0.418,-4.616,-151.765,-2.457
16:35:54:845,26.355,0.106,-0.059,-0.039,-4.435,-152.749,-0.531
16:35:54:845,26.356,-0.107,-0.061,-0.072,-4.841,-155.795,1.780
16:35:54:846,26.357,-0.148,0.143,-0.072,-5.677,-157.417,3.235
16:35:54:847,26.357,-0.133,-0.093,0.050,-6.051,-158.121,4.311
16:35:54:923,26.434,0.020,-0.018,0.153,-6.560,-158.735,5.591
16:35:54:924,26.435,0.094,0.004,0.067,-6.853,-159.246,6.300
16:35:54:925,26.435,-0.005,0.049,0.108,-7.067,-160.888,7.440
16:35:55:082,26.592,-0.092,0.064,0.147,-7.009,-163.927,9.681
16:35:55:082,26.593,-0.100,0.059,0.093,-6.630,-165.186,11.404
16:35:55:083,26.594,-0.186,-0.024,0.092,-6.237,-166.170,12.735
16:35:55:084,26.594,-0.150,0.099,0.093,-5.494,-167.232,14.848
16:35:55:108,26.619,-0.353,0.190,0.113,-4.620,-168.217,17.297
16:35:55:108,26.619,-0.478,0.137,0.198,-3.692,-168.729,19.110
16:35:55:108,26.619,-0.517,0.309,0.041,-2.205,-168.874,22.360
16:35:55:109,26.620,-0.574,0.380,0.198,-0.992,-168.579,24.903
16:35:55:186,26.696,-0.987,0.361,0.323,1.835,-168.755,29.008
16:35:55:186,26.697,-1.622,0.160,0.374,4.813,-169.392,31.899
16:35:55:187,26.698,-1.429,-0.245,0.843,11.700,-170.875,36.224
16:35:55:188,26.698,-1.519,0.306,1.076,15.782,-168.247,42.727
16:35:55:235,26.745,-0.629,-0.383,1.070,16.411,-164.367,47.483
16:35:55:235,26.745,0.390,1.318,0.576,19.203,-159.618,53.481
16:35:55:257,26.767,-0.571,-0.996,0.893,21.983,-157.225,56.544
16:35:55:286,26.796,-0.376,-1.563,0.452,25.926,-154.198,57.427
16:35:55:286,26.796,0.293,-0.798,0.446,25.681,-150.770,54.673
16:35:55:499,27.009,0.171,-0.635,0.547,23.069,-148.299,51.972
16:35:55:499,27.010,-0.003,-0.761,0.735,20.792,-145.681,45.749
16:35:55:5,27.010,0.231,-0.500,0.926,19.227,-143.436,40.495
16:35:55:522,27.032,0.508,-0.185,0.935,15.490,-139.527,31.732
16:35:55:523,27.033,0.778,0.239,0.933,13.077,-137.345,25.184
16:35:55:607,27.117,0.608,0.326,0.721,9.833,-135.508,14.469
16:35:55:607,27.117,0.608,0.931,0.234,5.705,-133.994,3.893
16:35:55:608,27.118,0.706,1.031,-0.069,2.653,-131.719,-2.310
16:35:55:608,27.119,0.994,0.593,-0.871,-0.825,-125.092,-10.586
16:35:55:627,27.138,1.381,-0.060,-1.075,-1.584,-119.448,-15.138
16:35:55:628,27.138,0.980,-0.606,-1.923,-2.380,-112.044,-19.308
16:35:55:65,27.161,0.738,-0.519,-1.202,-3.173,-109.740,-19.762
16:35:55:686,27.196,0.145,-0.084,-0.589,-3.154,-108.116,-18.411
16:35:55:686,27.197,-1.066,1.512,0.491,-2.111,-104.783,-15.026
16:35:55:686,27.197,0.409,0.083,-0.481,-1.076,-104.235,-12.227
16:35:55:687,27.197,0.560,-0.684,0.255,-0.794,-102.491,-7.216
16:35:55:702,27.212,0.683,0.490,-0.886,-1.173,-100.244,-3.971
16:35:55:842,27.353,0.202,-0.184,-0.690,-1.889,-95.788,0.425
16:35:55:843,27.354,0.173,-0.153,-0.218,-2.110,-95.565,3.600
16:35:55:844,27.355,-0.069,0.090,0.108,-2.728,-96.651,4.929
16:35:55:845,27.356,-0.183,0.160,-0.095,-3.787,-97.866,6.692
16:35:55:891,27.401,-0.108,-0.090,0.121,-4.407,-98.328,7.692
16:35:55:892,27.402,0.000,0.032,0.021,-5.525,-98.486,8.939
16:35:55:892,27.403,0.101,0.037,-0.047,-6.523,-99.190,10.008
16:35:55:942,27.452,0.073,-0.016,0.142,-6.963,-100.424,10.742
16:35:55:942,27.452,0.005,0.097,0.053,-7.576,-101.986,12.002
16:35:55:964,27.474,-0.019,0.086,0.008,-7.803,-102.970,12.949
16:35:56:02,27.530,-0.016,0.041,0.040,-7.828,-104.665,14.386
16:35:56:02,27.531,-0.080,0.075,0.205,-7.682,-106.023,15.340
16:35:56:045,27.556,-0.076,0.037,0.291,-7.181,-108.053,17.062
16:35:56:21,27.720,0.043,0.116,0.303,-6.450,-109.418,19.203
16:35:56:21,27.721,-0.079,0.260,0.345,-5.859,-109.410,20.928
16:35:56:211,27.722,-0.261,0.186,0.549,-4.445,-110.580,23.916
16:35:56:212,27.722,-0.388,0.262,0.845,-3.232,-110.314,26.189
16:35:56:255,27.765,-0.172,0.330,1.177,-0.837,-109.988,30.013
16:35:56:309,27.820,-0.132,-0.095,1.624,3.205,-109.500,34.326
16:35:56:332,27.842,0.053,-0.088,1.402,6.649,-108.832,37.582
16:35:56:524,28.035,0.078,0.210,1.907,9.200,-105.130,44.577
16:35:56:525,28.035,0.559,-0.021,1.300,8.936,-101.038,49.534
16:35:56:526,28.036,-0.016,0.919,-0.235,11.700,-97.535,55.435
16:35:56:573,28.083,0.230,-1.523,0.459,17.829,-94.725,58.808
16:35:56:574,28.084,-0.231,-1.380,0.075,19.563,-94.374,56.417
16:35:56:657,28.168,0.068,-0.837,0.038,17.563,-94.572,53.106
16:35:56:658,28.168,0.026,-0.910,0.268,15.432,-96.019,46.444
16:35:56:659,28.169,-0.076,-0.698,0.459,13.750,-97.168,40.465
16:35:56:66,28.170,0.031,-0.349,0.502,10.322,-98.710,30.252
16:35:56:757,28.267,0.173,0.014,0.425,5.809,-99.358,18.945
16:35:56:757,28.267,0.038,0.645,0.362,2.338,-99.265,11.047
16:35:56:839,28.350,-0.024,1.085,-0.126,-2.825,-97.019,-0.370
16:35:56:84,28.351,0.006,1.515,-0.711,-5.862,-93.240,-7.550
16:35:56:841,28.351,0.011,0.154,-1.798,-8.294,-87.392,-16.857
16:35:56:842,28.352,-0.322,-0.664,-2.364,-9.629,-82.095,-22.952
16:35:56:866,28.376,0.189,-0.926,-2.610,-9.958,-80.674,-24.665
16:35:56:867,28.377,-0.008,-0.415,-1.182,-10.486,-82.228,-23.140
16:35:56:867,28.378,-0.434,1.205,0.642,-9.900,-82.591,-20.570
16:35:56:868,28.379,-0.628,0.926,-1.212,-8.930,-83.382,-16.061
16:35:56:885,28.396,0.540,-0.473,-0.158,-7.719,-82.102,-11.765
16:35:57:076,28.586,0.591,-0.533,-0.934,-7.535,-77.177,-6.540
16:35:57:077,28.587,-0.475,-0.003,-0.996,-8.452,-73.962,-2.823
16:35:57:077,28.588,-0.287,-0.156,-0.161,-8.546,-75.788,-0.795
16:35:57:078,28.589,-0.074,0.000,0.036,-9.380,-79.194,1.667
16:35:57:104,28.614,-0.015,0.132,0.111,-10.057,-80.466,2.796
16:35:57:104,28.614,-0.037,-0.044,0.088,-10.956,-81.340,4.341
16:35:57:104,28.615,-0.024,-0.017,-0.058,-11.829,-81.761,5.473
16:35:57:104,28.615,0.035,0.072,0.053,-12.357,-82.447,6.017
16:35:57:149,28.660,0.131,-0.009,0.073,-13.033,-83.797,7.153
16:35:57:15,28.660,0.014,0.081,0.077,-13.475,-84.917,8.029
16:35:57:259,28.770,-0.005,0.033,0.081,-13.884,-86.486,9.572
16:35:57:26,28.771,0.025,0.019,0.119,-14.118,-87.956,11.368
16:35:57:261,28.771,-0.043,0.033,0.123,-14.184,-88.901,12.342
16:35:57:444,28.955,0.058,0.154,0.430,-13.739,-91.670,16.434
16:35:57:445,28.955,0.184,0.136,0.447,-12.579,-93.164,19.657
16:35:57:445,28.955,-0.184,0.320,0.473,-11.227,-94.331,23.366
16:35:57:445,28.956,-0.123,0.299,0.707,-9.846,-95.225,25.997
16:35:57:496,29.007,-0.056,0.257,1.020,-7.093,-96.086,29.959
16:35:57:497,29.007,0.072,-0.172,1.450,-4.427,-96.503,32.585
16:35:57:498,29.008,0.260,0.081,1.436,-0.029,-95.874,37.144
16:35:57:498,29.009,0.168,0.289,1.758,1.662,-93.824,41.357
16:35:57:519,29.029,0.770,0.024,0.930,1.738,-89.569,47.982
16:35:57:549,29.059,-0.141,1.049,-0.154,5.499,-87.728,53.463
16:35:57:549,29.060,0.517,0.148,0.883,9.173,-87.485,55.799
16:35:57:55,29.061,0.290,-1.572,0.579,14.419,-88.519,56.947
16:35:57:551,29.061,-0.020,-1.252,0.350,16.930,-89.278,55.560
16:35:57:574,29.085,0.027,-0.790,-0.107,14.756,-89.626,51.217
16:35:57:575,29.085,0.127,-0.829,0.397,11.169,-93.592,38.920
16:35:57:576,29.086,0.007,-0.424,0.583,7.597,-96.191,28.595
16:35:57:618,29.128,0.061,0.213,0.594,4.580,-97.366,21.156
16:35:57:758,29.269,-0.055,0.635,0.481,-0.533,-97.849,9.745
16:35:57:759,29.269,-0.020,1.010,-0.038,-4.178,-96.521,2.269
16:35:57:76,29.270,-0.348,1.706,-1.309,-9.088,-91.029,-8.710
16:35:57:76,29.271,-0.030,0.011,-1.692,-11.104,-85.120,-18.085
16:35:57:778,29.288,-0.709,-0.472,-2.424,-11.910,-81.018,-22.671
16:35:57:992,29.502,-0.372,-0.745,-2.540,-12.892,-78.492,-25.326
16:35:57:993,29.503,-0.413,-0.162,-1.311,-12.926,-78.840,-24.149
16:35:57:993,29.504,0.145,1.596,1.709,-10.374,-77.897,-20.197
16:35:58:042,29.553,-0.169,0.630,-0.763,-8.706,-77.160,-15.315
16:35:58:042,29.553,0.441,-0.587,-0.194,-6.998,-75.393,-10.950
16:35:58:068,29.578,-0.504,0.780,-0.913,-8.468,-70.652,-5.977
16:35:58:119,29.630,-0.446,-0.009,-0.372,-8.050,-69.493,-3.519
16:35:58:197,29.707,-0.250,-0.251,-0.183,-7.627,-72.287,-0.734
16:35:58:255,29.765,-0.138,0.097,0.044,-8.361,-75.110,1.203
16:35:58:255,29.766,0.075,0.060,0.116,-8.938,-76.182,2.381
16:35:58:255,29.766,0.050,-0.005,0.111,-9.692,-76.918,4.091
16:35:58:284,29.795,0.003,-0.015,-0.033,-10.079,-77.003,4.954
16:35:58:284,29.795,0.088,0.013,-0.102,-10.427,-77.776,6.100
16:35:58:285,29.796,0.050,0.044,0.135,-10.661,-78.865,7.120
16:35:58:286,29.797,0.076,0.033,0.138,-10.746,-80.368,8.791
16:35:58:31,29.820,0.012,0.030,0.052,-10.639,-81.237,10.624
16:35:58:31,29.821,0.031,0.133,0.077,-10.517,-81.907,11.975
16:35:58:311,29.822,-0.051,-0.003,0.099,-10.142,-83.167,14.123
16:35:58:312,29.822,0.015,0.137,0.226,-9.810,-84.097,15.545
16:35:58:335,29.846,0.059,0.262,0.302,-9.212,-85.152,17.896
16:35:58:336,29.846,0.060,0.215,0.500,-8.075,-86.065,20.764
16:35:58:337,29.847,-0.014,0.286,0.551,-7.058,-87.102,23.063
16:35:58:337,29.848,0.075,0.421,0.650,-5.077,-87.118,26.985
16:35:58:411,29.921,0.285,0.304,1.224,-3.052,-88.009,29.716
16:35:58:411,29.922,0.494,-0.111,1.538,1.752,-89.020,33.785
16:35:58:412,29.923,0.840,0.076,1.457,5.856,-89.131,36.681
16:35:58:431,29.942,0.644,0.102,1.483,9.642,-86.579,43.193
16:35:58:458,29.968,0.474,-0.234,0.535,10.608,-81.957,49.836
16:35:58:542,30.052,-0.289,0.760,-0.456,13.711,-80.453,53.217
16:35:58:543,30.053,0.830,-0.296,0.478,17.876,-80.304,56.391
16:35:58:544,30.054,0.368,-1.365,0.316,21.669,-80.716,56.420
16:35:58:563,30.073,-0.317,-1.382,0.233,24.454,-82.584,53.616
16:35:58:589,30.099,0.117,-0.811,0.072,20.975,-83.268,48.546
16:35:58:615,30.125,0.266,-0.723,0.094,18.616,-84.001,44.353
16:35:58:642,30.152,0.155,-0.799,0.357,14.542,-85.594,36.355
16:35:58:782,30.293,0.239,-0.263,0.319,11.000,-85.945,29.815
16:35:58:783,30.294,0.246,0.039,0.295,5.912,-86.317,19.023
16:35:58:784,30.294,0.182,0.740,0.185,2.313,-86.333,11.486
16:35:58:784,30.295,-0.012,0.843,-0.102,-3.016,-84.488,0.766
16:35:58:801,30.312,-0.191,1.296,-1.220,-7.588,-79.175,-9.369
16:35:58:802,30.313,-0.475,0.618,-1.608,-9.582,-75.008,-15.450
16:35:58:827,30.337,-1.086,-0.330,-1.846,-11.539,-68.546,-22.779
16:35:58:852,30.362,-0.899,-0.960,-2.356,-12.088,-65.103,-25.547
16:35:58:936,30.447,-0.789,-0.503,-1.389,-12.380,-64.995,-25.052
16:35:58:937,30.448,0.598,1.056,1.180,-11.033,-64.256,-21.539
16:35:58:938,30.448,-1.177,0.578,0.266,-9.663,-63.893,-19.474
16:35:58:987,30.497,-0.023,-0.163,-0.544,-7.589,-61.691,-14.490
16:35:58:987,30.497,0.279,-0.388,-1.207,-6.863,-60.250,-11.208
16:35:59:009,30.519,-0.428,0.633,-0.963,-7.771,-55.159,-7.110
16:35:59:038,30.548,-0.370,-0.155,-0.127,-7.114,-54.539,-3.813
16:35:59:089,30.599,-0.263,-0.077,-0.147,-6.988,-55.558,-2.130
16:35:59:117,30.627,-0.208,0.125,0.009,-7.716,-57.513,-0.278
16:35:59:117,30.628,-0.173,0.161,0.125,-8.148,-58.684,0.726
16:35:59:168,30.679,0.000,0.018,0.252,-8.497,-59.710,2.139
16:35:59:197,30.707,0.014,-0.036,-0.266,-8.775,-59.675,2.916
16:35:59:197,30.707,0.061,-0.033,-0.020,-9.012,-60.424,4.076
16:35:59:219,30.729,0.013,0.046,0.024,-9.166,-61.587,5.376
16:35:59:331,30.841,0.068,0.009,0.056,-9.134,-62.644,6.305
16:35:59:331,30.842,0.080,0.070,0.032,-8.952,-63.925,7.846
16:35:59:332,30.843,-0.095,0.164,-0.012,-8.776,-64.560,8.925
16:35:59:383,30.894,0.027,-0.092,0.163,-8.185,-65.950,10.586
16:35:59:384,30.894,0.117,0.095,0.097,-7.766,-66.673,11.688
16:35:59:384,30.895,0.272,0.108,0.146,-6.877,-67.522,13.757
16:35:59:488,30.999,0.050,0.250,0.449,-5.580,-68.310,16.272
16:35:59:489,31.000,0.049,0.283,0.516,-4.519,-68.402,18.268
16:35:59:49,31.000,0.288,0.317,0.462,-2.583,-67.866,21.734
16:35:59:51,31.021,0.614,0.431,0.649,-0.973,-67.436,24.271
16:35:59:511,31.022,0.646,0.337,1.059,2.462,-67.222,28.275
16:35:59:562,31.072,1.126,-0.009,1.113,8.211,-67.842,32.350
16:35:59:588,31.098,1.217,-0.056,1.231,11.851,-66.973,35.848
16:35:59:643,31.154,1.191,-0.217,0.656,14.087,-62.012,42.846
16:35:59:644,31.155,0.734,-0.390,0.255,15.218,-58.101,46.875
16:35:59:666,31.177,0.981,-0.052,0.102,17.645,-53.755,51.798
16:35:59:695,31.206,0.744,-1.477,0.152,19.393,-51.074,53.186
16:35:59:696,31.206,0.397,-1.594,0.247,21.081,-49.168,51.915
16:35:59:857,31.368,0.450,-0.774,-0.357,18.775,-45.177,48.643
16:35:59:86,31.370,0.687,-0.762,-0.409,17.517,-42.220,45.229
16:35:59:86,31.370,0.809,-0.662,-0.436,14.731,-37.277,38.054
16:35:59:884,31.394,0.758,-0.150,-0.816,12.326,-33.523,32.457
16:35:59:884,31.395,0.578,0.066,-1.058,9.339,-28.012,22.876
16:35:59:885,31.395,0.290,0.359,-1.114,6.763,-23.932,12.576
16:35:59:907,31.417,0.039,0.537,-1.034,4.651,-21.758,5.423
16:35:59:908,31.418,-0.464,0.887,-0.932,0.869,-18.417,-4.635
16:35:59:909,31.419,-1.477,1.014,-0.358,-1.720,-15.327,-10.646
16:35:59:957,31.467,-1.345,-0.119,-0.570,-4.423,-10.468,-18.108
16:35:59:958,31.468,-2.128,-0.752,-0.372,-6.435,-5.610,-23.427
16:36:00:147,31.658,-1.762,-0.711,-0.198,-7.978,-4.813,-24.570
16:36:00:148,31.659,-1.564,-0.382,0.599,-9.340,-4.416,-23.596
16:36:00:149,31.659,0.012,1.640,1.459,-8.432,-3.195,-21.155
16:36:00:149,31.660,-1.199,0.132,0.106,-5.228,-0.853,-16.191
16:36:00:222,31.732,-0.848,-0.721,-1.091,-3.570,3.317,-10.339
16:36:00:222,31.733,-1.137,1.136,0.616,-4.901,7.936,-6.724
16:36:00:254,31.764,-1.164,-0.439,0.388,-4.399,10.921,-2.772
16:36:00:254,31.764,-0.325,-0.062,0.126,-4.726,8.709,-0.852
16:36:00:255,31.765,0.033,0.207,-0.055,-5.731,4.871,1.105
16:36:00:255,31.766,0.044,0.110,0.034,-6.480,3.620,2.084
16:36:00:332,31.843,0.062,-0.048,-0.011,-7.252,2.697,3.733
16:36:00:333,31.843,-0.226,-0.022,-0.045,-7.962,3.019,4.906
16:36:00:333,31.843,-0.435,0.053,-0.057,-8.536,3.356,5.309
16:36:00:333,31.843,0.237,-0.010,0.004,-9.156,1.232,6.230
16:36:00:35,31.860,0.060,0.127,0.000,-9.675,0.217,6.875
16:36:00:375,31.886,-0.019,-0.011,-0.009,-10.154,-0.857,8.079
16:36:00:541,32.051,-0.093,0.112,-0.033,-10.401,-1.503,8.865
16:36:00:541,32.052,0.162,0.060,0.021,-10.621,-3.394,10.183
16:36:00:542,32.053,0.374,-0.092,-0.007,-10.330,-5.683,11.890
16:36:00:543,32.054,0.159,0.225,-0.054,-10.071,-6.453,13.363
16:36:00:565,32.075,0.238,0.335,0.110,-9.481,-6.985,16.209
16:36:00:565,32.076,0.492,0.268,0.237,-8.720,-7.773,18.351
16:36:00:565,32.076,0.568,0.339,0.174,-7.106,-8.476,21.927
16:36:00:671,32.182,0.876,0.398,-0.009,-4.990,-8.540,25.746
16:36:00:672,32.182,1.207,0.144,0.033,-2.892,-8.921,28.297
16:36:00:673,32.183,1.396,-0.030,-0.237,1.722,-9.322,32.268
16:36:00:673,32.184,1.591,0.165,-0.223,4.500,-8.268,35.785
16:36:00:718,32.229,1.181,0.289,-0.545,5.687,-4.112,42.557
16:36:00:719,32.229,0.154,0.178,0.431,8.084,-0.480,48.412
16:36:00:743,32.253,-0.022,0.963,-0.466,10.685,0.393,51.655
16:36:00:798,32.308,0.633,-0.653,-0.489,13.333,1.122,53.675
16:36:00:798,32.308,0.145,-1.448,0.285,16.357,0.660,53.380
16:36:00:88,32.390,0.272,-1.157,0.065,17.276,-0.024,49.824
16:36:00:88,32.391,0.036,-0.832,-0.142,16.097,-0.833,46.162
16:36:00:88,32.391,0.433,-0.915,0.010,14.916,-3.584,38.984
16:36:01:032,32.542,0.499,-0.502,0.103,12.092,-6.557,29.463
16:36:01:066,32.576,0.564,-0.011,0.006,9.324,-7.918,22.646
16:36:01:066,32.576,0.356,0.404,0.079,4.923,-8.674,11.940
16:36:01:067,32.577,0.089,0.979,0.039,1.697,-8.155,4.795
16:36:01:068,32.579,-0.467,1.136,0.045,-2.709,-4.299,-5.571
16:36:01:085,32.595,-1.606,0.281,-0.086,-5.188,2.136,-14.845
16:36:01:142,32.652,-2.079,0.022,0.177,-5.636,6.752,-19.957
16:36:01:142,32.652,-2.267,-0.721,0.198,-5.929,11.192,-24.436
16:36:01:143,32.653,-1.514,-0.325,0.332,-6.619,10.947,-24.982
16:36:01:191,32.701,-1.131,-0.126,0.449,-6.505,10.475,-23.161
16:36:01:329,32.839,-0.411,0.444,0.356,-4.874,11.081,-19.969
16:36:01:33,32.840,-0.162,-0.050,0.118,-3.831,12.225,-16.130
16:36:01:331,32.841,-1.207,-0.331,-0.388,-2.935,15.041,-10.670
16:36:01:331,32.842,-0.760,0.319,0.437,-4.104,17.897,-7.488
16:36:01:354,32.864,-0.013,-0.245,0.296,-3.788,17.644,-4.094
16:36:01:354,32.864,-0.098,0.160,0.175,-3.789,16.429,-2.624
16:36:01:354,32.865,-0.053,0.024,0.095,-4.473,15.163,-0.866
16:36:01:374,32.885,-0.049,0.134,0.094,-4.717,14.717,0.098
16:36:01:375,32.885,-0.042,0.058,0.090,-5.177,14.015,1.494
16:36:01:511,33.021,-0.090,-0.043,0.017,-5.261,13.276,2.590
16:36:01:511,33.022,-0.033,0.055,-0.082,-5.359,12.568,3.174
16:36:01:511,33.022,0.043,0.051,-0.080,-5.487,10.837,4.178
16:36:01:536,33.047,-0.105,0.038,-0.039,-5.291,9.255,5.224
16:36:01:536,33.047,0.087,0.013,-0.027,-5.126,8.004,5.970
16:36:01:536,33.047,0.220,-0.021,-0.098,-4.726,6.464,7.252
16:36:01:67,33.181,0.149,-0.030,-0.034,-4.435,6.120,8.342
16:36:01:671,33.182,-0.036,0.221,-0.076,-3.903,6.379,10.331
16:36:01:672,33.182,0.141,0.236,-0.017,-3.317,6.206,11.806
16:36:01:673,33.183,0.510,0.279,0.045,-1.916,5.429,14.302
16:36:01:69,33.200,0.425,0.315,0.053,-0.205,5.883,17.379
16:36:01:69,33.201,0.486,0.343,-0.050,1.015,6.540,19.756
16:36:01:713,33.224,0.828,0.388,-0.513,3.552,7.399,23.579
16:36:01:739,33.249,1.355,0.092,-0.811,5.985,7.531,26.243
16:36:01:765,33.276,1.449,-0.001,-0.901,11.493,7.242,30.439
16:36:01:819,33.329,1.208,0.348,-1.135,15.752,10.399,36.935
16:36:01:907,33.417,0.743,-0.193,-0.965,17.122,14.789,41.821
16:36:01:907,33.417,-0.466,0.436,-0.252,19.916,20.521,48.008
16:36:01:907,33.418,0.597,0.015,-1.094,20.041,24.157,50.942
16:36:01:908,33.418,0.097,-1.281,-0.374,20.478,28.846,52.740
16:36:01:923,33.434,0.151,-1.317,-0.286,20.953,31.405,51.518
16:36:01:978,33.488,-0.190,-0.501,-0.552,18.727,35.237,48.146
16:36:01:979,33.489,-0.125,-0.738,-0.591,16.798,38.712,42.892
16:36:02:107,33.617,-0.203,-0.612,-0.684,15.594,41.145,38.110
16:36:02:166,33.676,-0.406,-0.153,-0.795,13.594,44.429,29.092
16:36:02:166,33.677,-0.646,0.230,-0.705,12.307,46.359,22.430
16:36:02:167,33.678,-0.626,0.328,-0.505,10.476,48.268,11.609
16:36:02:189,33.699,-0.574,0.535,-0.254,8.275,50.050,0.877
16:36:02:189,33.699,-0.810,0.813,0.043,6.264,52.984,-5.363
16:36:02:221,33.731,-1.271,0.659,1.166,3.736,61.160,-13.284
16:36:02:221,33.732,-1.412,-0.521,1.667,3.048,67.187,-17.364
16:36:02:222,33.732,-1.218,-0.777,2.400,2.933,74.515,-21.728
16:36:02:223,33.733,-0.665,-0.025,1.358,2.067,75.199,-22.936
16:36:02:238,33.748,0.995,0.383,1.255,0.077,74.861,-22.199
16:36:02:293,33.803,0.002,1.148,-0.278,2.141,76.317,-17.885
16:36:02:294,33.804,-0.547,0.128,0.943,3.083,78.162,-15.357
16:36:02:317,33.828,-0.317,-0.122,0.492,3.201,80.794,-9.387
16:36:02:401,33.912,-0.922,0.533,0.988,2.070,83.797,-6.396
16:36:02:402,33.912,-0.094,-0.301,0.611,0.942,86.829,-2.537
16:36:02:403,33.913,-0.094,0.066,0.069,0.631,84.890,-0.573
16:36:02:423,33.933,-0.022,0.037,0.003,-0.030,83.737,0.513
16:36:02:448,33.958,0.051,0.020,-0.015,-1.070,82.568,2.067
16:36:02:474,33.984,-0.026,-0.022,0.047,-1.790,82.286,3.006
16:36:02:502,34.012,-0.021,0.066,0.050,-2.811,82.089,4.199
16:36:02:527,34.037,-0.065,-0.014,0.118,-3.690,81.296,5.136
16:36:02:553,34.063,-0.083,-0.012,-0.075,-4.132,80.094,5.767
16:36:02:579,34.090,-0.088,0.029,-0.116,-4.678,78.170,6.780
16:36:02:605,34.116,-0.130,0.038,-0.104,-4.952,77.372,7.600
16:36:02:661,34.171,-0.051,0.050,0.132,-5.234,76.585,8.917
16:36:02:661,34.172,0.141,0.064,-0.061,-5.303,75.661,9.817
16:36:02:684,34.195,0.040,0.095,-0.193,-5.216,74.014,11.410
16:36:02:713,34.224,-0.185,0.076,-0.245,-4.803,73.004,13.287
16:36:02:737,34.247,-0.056,0.154,-0.308,-4.258,72.360,14.766
16:36:02:763,34.273,0.102,0.343,-0.367,-3.142,72.867,17.672
16:36:02:789,34.300,0.156,0.338,-0.482,-2.092,72.589,19.908
16:36:02:844,34.355,0.032,0.349,-0.692,-0.069,73.488,23.468
16:36:02:846,34.357,0.055,0.190,-1.084,2.815,73.547,27.311
16:36:02:895,34.406,0.038,0.035,-1.271,5.665,73.942,30.040
16:36:02:923,34.434,-0.420,0.224,-1.471,10.585,74.649,35.097
16:36:02:924,34.434,-0.422,0.252,-1.462,12.373,76.903,39.805
16:36:02:976,34.487,-0.527,-0.315,-0.930,14.204,81.678,46.602
16:36:02:976,34.487,-0.534,0.944,0.331,17.229,83.164,50.081
16:36:03:001,34.512,-0.407,-0.663,-0.827,20.497,84.250,53.451
16:36:03:027,34.537,-0.043,-1.408,-0.391,22.631,84.951,53.417
16:36:03:053,34.563,0.246,-1.096,-0.143,23.093,84.662,51.502
16:36:03:192,34.702,-0.104,-0.753,-0.378,21.363,83.819,46.768
16:36:03:193,34.703,-0.179,-0.879,-0.166,19.785,83.297,42.781
16:36:03:194,34.704,-0.090,-0.739,-0.306,15.692,82.511,34.837
16:36:03:194,34.705,-0.174,-0.287,-0.466,11.288,81.828,24.833
16:36:03:243,34.754,-0.236,-0.126,-0.425,8.402,81.521,17.536
16:36:03:243,34.754,-0.244,0.482,-0.277,3.588,81.872,6.010
16:36:03:243,34.754,-0.110,1.184,0.368,0.065,83.314,-1.659
16:36:03:263,34.774,0.074,1.294,1.168,-4.804,88.338,-12.581
16:36:03:317,34.827,-0.154,0.010,1.808,-6.481,91.944,-18.798
16:36:03:345,34.856,0.418,-0.703,2.528,-8.684,96.153,-25.655
16:36:03:346,34.856,0.139,-0.842,2.616,-10.567,97.695,-27.816
16:36:03:367,34.878,0.264,0.012,1.483,-10.584,97.378,-26.405
16:36:03:393,34.903,-0.300,1.711,-2.112,-8.508,99.302,-22.687
16:36:03:419,34.929,1.681,0.736,1.105,-7.592,99.924,-20.724
16:36:03:445,34.956,-0.021,-0.577,0.665,-4.810,103.322,-14.885
16:36:03:471,34.982,-0.814,-0.548,0.581,-4.356,107.322,-10.096
16:36:03:498,35.008,0.248,0.564,1.567,-5.683,111.413,-7.382
16:36:03:524,35.034,0.504,-0.052,0.350,-5.209,111.207,-4.082
16:36:03:55,35.061,-0.043,0.018,0.144,-5.398,109.495,-2.384
16:36:03:576,35.087,0.033,0.041,0.039,-6.035,107.076,-0.458
16:36:03:602,35.113,-0.043,-0.049,-0.082,-6.599,105.903,0.840
16:36:03:629,35.139,0.035,-0.091,-0.049,-7.457,105.390,2.308
16:36:03:656,35.167,-0.021,0.020,0.120,-8.337,105.038,3.363
16:36:03:762,35.272,-0.141,-0.063,0.068,-8.722,104.262,4.011
16:36:03:85,35.360,-0.075,0.084,-0.032,-9.263,102.553,5.044
16:36:03:85,35.360,-0.051,0.115,-0.123,-9.590,101.401,5.961
16:36:03:85,35.360,-0.102,-0.009,0.003,-9.807,100.223,7.575
16:36:03:851,35.361,-0.057,0.047,-0.056,-9.893,99.127,9.477
16:36:03:93,35.441,-0.030,0.117,-0.017,-9.937,98.507,10.852
16:36:03:931,35.441,-0.022,0.158,-0.145,-9.761,97.259,13.044
16:36:03:931,35.441,-0.127,0.168,-0.262,-9.364,96.216,14.702
16:36:03:931,35.441,-0.183,0.242,-0.380,-8.404,94.217,17.775
16:36:03:947,35.458,0.075,0.340,-0.471,-7.630,93.682,20.125
16:36:03:948,35.459,-0.034,0.324,-0.701,-5.855,92.413,23.985
16:36:03:971,35.481,-0.251,0.437,-0.968,-3.345,91.753,28.141
16:36:04:027,35.537,-0.364,-0.114,-1.434,-0.573,90.946,30.959
16:36:04:052,35.563,-0.437,0.008,-1.196,5.155,89.958,35.377
16:36:04:052,35.563,-0.532,0.098,-1.814,7.870,90.981,39.669
16:36:04:104,35.615,-0.740,0.068,-0.657,9.392,94.890,46.381
16:36:04:105,35.615,0.170,0.827,0.309,14.675,96.268,51.668
16:36:04:155,35.665,-0.819,0.512,-0.790,17.052,95.810,53.150
16:36:04:234,35.745,0.122,-1.390,-0.516,23.413,93.957,53.393
16:36:04:295,35.806,0.464,-1.429,-0.191,25.403,92.513,51.575
16:36:04:295,35.806,0.094,-1.003,-0.128,24.196,90.367,46.739
16:36:04:296,35.807,0.018,-0.921,-0.373,20.549,87.522,39.813
16:36:04:297,35.807,0.085,-0.674,-0.392,16.974,85.809,34.072
16:36:04:377,35.888,-0.027,-0.248,-0.514,11.424,84.237,24.326
16:36:04:378,35.888,-0.091,0.177,-0.533,7.663,83.694,17.185
16:36:04:378,35.888,-0.018,0.567,-0.413,1.925,84.171,6.130
16:36:04:378,35.889,0.055,1.137,0.113,-1.901,86.138,-1.301
16:36:04:419,35.930,0.051,1.452,1.214,-6.273,91.752,-12.268
16:36:04:42,35.931,-0.063,0.280,1.925,-8.456,96.816,-21.722
16:36:04:445,35.955,0.797,-0.594,2.380,-9.921,99.515,-26.335
16:36:04:472,35.982,0.345,-0.756,2.338,-11.649,100.619,-29.037
16:36:04:472,35.983,0.102,-0.139,1.347,-11.670,99.608,-27.707
16:36:04:525,36.035,-0.641,0.372,-0.046,-9.449,100.376,-23.790
16:36:04:526,36.036,1.246,0.763,1.148,-8.414,99.678,-20.042
16:36:04:548,36.058,-0.099,0.057,0.304,-6.555,100.809,-16.170
16:36:04:603,36.113,-0.566,-0.201,1.177,-5.455,103.840,-11.168
16:36:04:604,36.114,-0.152,0.329,0.964,-6.454,107.653,-8.072
16:36:04:684,36.195,0.257,-0.037,0.354,-6.056,108.606,-4.824
16:36:04:685,36.196,-0.044,-0.023,0.161,-5.935,107.517,-3.092
16:36:04:686,36.197,0.012,0.055,0.072,-6.793,104.907,-1.082
16:36:04:734,36.244,0.060,0.074,-0.108,-7.599,102.684,0.643
16:36:04:735,36.245,-0.007,0.037,-0.031,-8.097,101.834,1.621
16:36:04:787,36.297,-0.042,-0.024,0.104,-8.759,101.297,2.634
16:36:04:788,36.298,-0.203,0.009,0.082,-9.215,100.778,3.196
16:36:04:839,36.350,-0.128,-0.007,-0.008,-9.722,99.342,4.292
16:36:04:84,36.350,0.004,0.121,0.049,-10.024,97.836,5.393
16:36:04:894,36.404,0.056,0.090,0.074,-10.168,96.745,6.242
16:36:04:894,36.404,-0.119,-0.012,-0.094,-10.074,94.833,7.647
16:36:04:916,36.426,-0.086,0.085,-0.131,-9.981,93.553,8.668
16:36:05:135,36.645,-0.116,0.053,-0.178,-9.565,91.946,10.661
16:36:05:136,36.646,-0.195,0.097,-0.267,-9.099,90.834,12.334
16:36:05:136,36.647,-0.191,0.183,-0.291,-7.968,89.694,15.423
16:36:05:137,36.648,0.099,0.385,-0.425,-6.553,88.844,19.063
16:36:05:16,36.671,0.121,0.373,-0.550,-5.307,88.299,21.710
16:36:05:161,36.671,-0.089,0.331,-0.768,-2.874,87.617,25.887
16:36:05:161,36.671,-0.195,0.153,-1.382,-0.705,87.174,28.688
16:36:05:212,36.723,-0.319,-0.034,-1.406,4.314,86.439,32.993
16:36:05:213,36.724,-0.590,0.262,-1.585,8.612,88.163,38.872
16:36:05:214,36.725,-0.840,0.122,-1.225,9.415,91.110,43.711
16:36:05:215,36.725,0.288,0.177,-0.147,12.466,94.473,49.621
16:36:05:23,36.741,-0.556,-0.399,-0.734,15.314,95.598,52.922
16:36:05:283,36.793,-0.435,-1.017,-0.399,19.079,96.521,54.925
16:36:05:314,36.824,0.247,-1.449,-0.094,22.857,96.049,53.061
16:36:05:314,36.824,-0.007,-1.156,-0.236,22.072,95.729,50.268
16:36:05:336,36.846,-0.216,-0.692,-0.026,20.128,94.627,44.472
16:36:05:449,36.959,-0.100,-1.053,-0.300,19.095,93.105,39.505
16:36:05:449,36.960,-0.197,-0.519,-0.429,15.593,90.962,29.862
16:36:05:45,36.961,-0.255,-0.197,-0.529,12.778,89.901,22.987
16:36:05:451,36.961,-0.292,0.314,-0.353,7.983,89.469,12.260
16:36:05:496,37.006,-0.091,0.906,-0.010,2.808,90.943,1.460
16:36:05:497,37.007,-0.109,0.863,0.259,-0.214,93.573,-5.480
16:36:05:521,37.031,-0.028,0.816,1.505,-3.390,99.933,-15.276
16:36:05:599,37.109,0.329,-0.098,2.057,-4.093,104.013,-20.707
16:36:05:811,37.322,0.784,-1.019,2.398,-4.579,109.979,-25.961
16:36:05:812,37.323,0.777,-0.520,1.787,-5.512,110.823,-26.881
16:36:05:994,37.505,0.663,-0.316,1.050,-5.225,110.702,-25.214
16:36:05:995,37.506,0.796,1.117,-0.120,-3.042,111.526,-21.271
16:36:06:184,37.695,0.911,0.667,1.604,-2.029,112.579,-18.504
16:36:06:185,37.696,0.116,-0.491,0.141,-0.687,114.746,-12.281
16:36:06:186,37.696,0.129,0.464,1.428,-0.869,117.511,-9.435
16:36:06:187,37.697,0.362,0.075,0.724,-1.806,119.473,-5.813
16:36:06:265,37.776,0.003,-0.085,0.086,-1.635,117.607,-3.881
16:36:06:265,37.776,-0.123,0.047,0.118,-1.925,116.610,-2.863
16:36:06:265,37.776,0.023,0.000,-0.045,-2.316,114.966,-1.346
16:36:06:266,37.776,0.038,-0.015,0.039,-2.561,114.364,-0.475
16:36:06:293,37.803,0.005,0.033,-0.053,-2.872,113.752,0.604
16:36:06:293,37.804,-0.086,-0.036,0.026,-3.116,113.172,1.595
16:36:06:293,37.804,-0.152,-0.014,0.057,-3.305,112.789,2.346
16:36:06:293,37.804,-0.125,0.028,0.018,-3.364,111.610,3.625
16:36:06:316,37.826,-0.166,0.016,-0.095,-3.147,110.723,4.587
16:36:06:316,37.827,-0.050,0.103,-0.053,-2.876,109.991,6.298
16:36:06:317,37.828,-0.078,0.103,0.088,-2.650,109.894,7.537
16:36:06:318,37.828,-0.030,0.049,-0.070,-2.054,108.987,9.411
16:36:06:335,37.846,-0.104,0.114,-0.176,-1.145,107.183,11.275
16:36:06:368,37.879,-0.233,0.266,-0.404,-0.310,106.416,12.785
16:36:06:369,37.879,-0.206,0.242,-0.425,1.435,105.611,15.629
16:36:06:37,37.880,-0.121,0.348,-0.549,2.824,105.893,18.020
16:36:06:447,37.958,-0.824,0.308,-1.145,9.292,107.539,26.354
16:36:06:448,37.959,-1.204,-0.071,-1.317,13.265,107.498,29.189
16:36:06:449,37.960,-1.330,0.318,-1.134,18.519,110.214,35.341
16:36:06:45,37.960,-1.153,-0.168,-0.541,19.704,114.942,40.821
16:36:06:58,38.090,-0.033,-0.065,-0.131,21.450,121.793,47.931
16:36:06:58,38.090,-1.258,-0.428,-0.206,23.699,126.209,52.922
16:36:06:58,38.091,-0.884,-1.427,-0.037,25.232,128.387,54.137
16:36:06:58,38.091,-0.318,-1.738,-0.321,27.037,131.069,52.620
16:36:06:606,38.116,-0.629,-0.544,0.261,24.867,133.837,50.418
16:36:06:606,38.117,-0.579,-0.790,0.327,22.770,137.905,46.167
16:36:06:607,38.118,-0.796,-0.657,0.320,21.263,141.081,41.981
16:36:06:609,38.119,-0.775,-0.349,0.635,17.969,146.540,34.550
16:36:06:679,38.189,-0.793,0.046,0.834,14.577,152.013,25.574
16:36:06:679,38.189,-0.673,0.157,1.081,13.023,155.211,18.927
16:36:06:736,38.246,-0.259,0.520,1.073,10.587,159.125,8.325
16:36:06:736,38.247,0.259,0.962,1.137,8.545,161.839,1.504
16:36:06:737,38.248,1.028,0.926,0.903,5.540,167.716,-7.113
16:36:06:738,38.248,1.660,-0.337,0.855,3.932,174.085,-13.818
16:36:06:761,38.272,2.286,-0.506,0.960,3.070,177.328,-17.527
16:36:06:762,38.273,1.711,-0.312,0.117,0.581,178.184,-20.328
16:36:06:763,38.273,0.903,0.340,-1.164,-0.848,177.491,-20.525
16:36:06:764,38.274,0.206,1.315,-0.530,-0.109,178.755,-17.017
16:36:06:78,38.290,1.308,0.375,-0.094,1.990,-178.156,-13.220
16:36:06:963,38.473,0.850,0.058,0.521,2.220,-174.203,-7.554
16:36:06:993,38.504,0.562,0.590,-0.147,1.039,-169.099,-1.003
16:36:06:994,38.505,0.867,-0.263,-0.462,1.216,-166.995,1.696
16:36:07:151,38.661,-0.154,0.113,-0.112,0.943,-168.759,4.429
16:36:07:152,38.662,-0.096,0.204,0.005,0.263,-170.363,5.623
16:36:07:183,38.693,-0.163,-0.014,0.018,-0.447,-171.617,7.439
16:36:07:184,38.694,-0.154,-0.049,0.221,-0.886,-172.222,9.351
16:36:07:185,38.695,0.495,0.004,0.034,-1.178,-171.663,10.323
16:36:07:185,38.696,-0.169,-0.070,0.127,-1.526,-172.867,11.330
16:36:07:209,38.719,-0.058,0.064,0.033,-1.756,-174.022,11.885
16:36:07:209,38.719,-0.086,0.020,0.084,-2.216,-174.901,12.909
16:36:07:209,38.720,0.014,0.106,0.065,-2.466,-175.427,13.580
16:36:07:36,38.870,-0.104,0.073,0.021,-2.738,-176.727,14.606
16:36:07:473,38.983,-0.101,0.054,0.035,-2.787,-178.129,15.813
16:36:07:473,38.983,-0.130,0.092,0.089,-2.774,-178.466,16.684
16:36:07:473,38.983,-0.274,0.111,0.153,-2.489,-179.963,18.229
16:36:07:473,38.984,-0.446,0.068,0.120,-2.017,179.019,19.644
16:36:07:552,39.062,-0.538,0.259,-0.012,-1.027,178.209,22.500
16:36:07:552,39.062,-0.624,0.192,0.114,0.405,178.266,26.014
16:36:07:553,39.063,-0.705,0.228,0.250,1.627,178.529,28.614
16:36:07:554,39.064,-1.064,0.109,0.453,4.094,179.329,32.599
16:36:07:595,39.106,-1.046,0.122,0.465,6.847,179.074,35.220
16:36:07:656,39.167,-1.560,0.056,0.665,12.579,178.751,39.824
16:36:07:656,39.167,-1.157,0.089,0.717,16.923,-179.468,46.010
16:36:07:656,39.167,-0.663,-0.181,0.508,20.118,-177.720,50.084
16:36:07:657,39.168,-0.865,0.065,0.532,27.399,-177.543,54.367
16:36:07:735,39.245,-0.905,-0.532,0.285,29.350,-177.150,56.078
16:36:07:735,39.245,-0.283,-1.217,-0.203,31.675,-177.797,56.190
16:36:07:735,39.245,0.038,-1.072,-0.127,31.073,-176.986,54.730
16:36:07:736,39.246,-0.084,-0.823,-0.085,26.964,-177.106,50.681
16:36:07:944,39.454,-0.445,-0.744,-0.175,19.118,179.949,39.065
16:36:07:944,39.455,-0.498,-0.171,-0.081,14.112,177.030,29.342
16:36:07:945,39.456,-0.515,0.008,-0.096,10.670,175.318,22.423
16:36:07:946,39.456,-0.496,0.364,-0.115,5.534,174.137,12.048
16:36:08:048,39.559,-0.093,1.091,0.001,0.298,176.277,1.646
16:36:08:049,39.559,0.668,1.452,0.086,-2.823,-179.969,-5.126
16:36:08:05,39.560,1.830,0.782,-0.036,-5.217,-172.458,-14.577
16:36:08:05,39.561,2.391,-0.437,-0.460,-5.805,-168.200,-19.241
16:36:08:127,39.638,2.447,-0.772,-0.243,-6.442,-164.237,-23.245
16:36:08:128,39.638,1.191,0.136,-0.170,-6.839,-164.721,-23.257
16:36:08:129,39.639,0.703,0.040,-0.001,-6.191,-164.889,-20.272
16:36:08:13,39.640,1.002,0.638,-1.230,-4.469,-164.136,-16.905
16:36:08:232,39.742,0.180,-0.163,0.120,-3.760,-163.688,-13.946
16:36:08:233,39.743,0.356,-0.097,0.056,-2.990,-162.504,-8.987
16:36:08:233,39.744,0.871,0.467,-0.113,-3.485,-159.821,-6.155
16:36:08:234,39.745,0.275,-0.191,-0.036,-4.138,-156.687,-2.147
16:36:08:259,39.769,0.256,-0.070,-0.165,-3.786,-156.778,0.584
16:36:08:259,39.770,0.110,-0.003,0.077,-4.070,-157.505,2.097
16:36:08:26,39.771,0.160,-0.005,-0.209,-4.097,-159.320,3.947
16:36:08:263,39.773,-0.060,0.117,-0.057,-4.404,-160.287,5.216
16:36:08:386,39.897,-0.068,-0.013,0.101,-4.692,-161.180,6.314
16:36:08:387,39.898,-0.018,0.017,0.017,-4.820,-161.768,7.070
16:36:08:388,39.898,0.076,0.084,0.003,-5.066,-162.368,8.247
16:36:08:41,39.920,-0.091,-0.021,0.125,-5.090,-163.716,9.461
16:36:08:41,39.921,-0.132,0.077,0.143,-5.054,-164.671,10.380
16:36:08:495,40.005,-0.042,0.043,0.078,-4.859,-165.673,11.996
16:36:08:495,40.006,-0.099,0.073,0.060,-4.655,-166.265,13.131
16:36:08:496,40.007,-0.235,0.076,0.150,-4.145,-167.482,14.900
16:36:08:497,40.007,-0.405,0.217,0.057,-3.385,-168.493,17.012
16:36:08:521,40.031,-0.425,0.272,0.052,-2.668,-168.916,18.714
16:36:08:521,40.032,-0.559,0.252,0.165,-1.132,-169.234,21.816
16:36:08:522,40.033,-0.684,0.271,0.175,0.183,-169.256,24.245
16:36:08:523,40.034,-0.960,0.408,0.448,2.796,-168.776,28.347
16:36:08:564,40.075,-1.606,0.095,0.533,5.515,-168.760,31.249
16:36:08:625,40.136,-1.351,-0.130,0.913,12.247,-169.641,35.522
16:36:08:626,40.137,-1.271,0.128,1.152,16.534,-166.786,41.943
16:36:08:627,40.138,-0.778,-0.489,1.067,17.163,-162.118,46.791
16:36:08:628,40.138,0.421,0.957,0.317,18.583,-156.165,52.702
16:36:08:648,40.158,-0.212,-0.840,0.848,20.579,-153.323,55.725
16:36:08:648,40.158,-0.304,-1.384,0.399,23.283,-149.611,57.135
16:36:08:671,40.182,0.089,-0.698,0.198,24.143,-146.410,55.069
16:36:08:698,40.208,0.006,-0.838,0.496,23.420,-144.588,52.816
16:36:08:699,40.209,0.100,-0.786,0.578,21.907,-141.853,47.433
16:36:08:837,40.347,0.137,-0.571,0.688,20.032,-139.659,42.739
16:36:08:837,40.347,0.376,-0.375,0.750,16.878,-136.242,34.336
16:36:08:838,40.349,0.570,-0.004,0.714,14.060,-133.451,24.453
16:36:08:839,40.350,0.686,0.333,0.614,12.148,-131.902,17.418
16:36:08:961,40.472,0.570,0.456,0.401,9.271,-130.527,6.420
16:36:08:962,40.472,0.661,1.025,0.084,6.945,-129.183,-0.290
16:36:09:02,40.530,1.036,0.974,-0.618,2.838,-124.242,-8.705
16:36:09:02,40.530,0.806,0.197,-1.633,0.832,-119.909,-13.446
16:36:09:021,40.531,0.917,-0.382,-1.315,-1.050,-114.424,-18.732
16:36:09:022,40.533,0.904,-0.564,-1.640,-2.102,-111.173,-20.883
16:36:09:098,40.609,0.219,-0.263,-1.257,-2.504,-110.452,-20.456
16:36:09:099,40.610,-0.679,1.493,-0.455,-1.772,-108.655,-17.242
16:36:09:1,40.610,0.579,0.225,-0.922,0.113,-107.013,-13.396
16:36:09:101,40.611,0.300,-0.727,-0.165,0.618,-104.814,-7.617
16:36:09:204,40.714,1.056,0.752,-1.055,-0.358,-100.020,-2.327
16:36:09:205,40.715,0.071,-0.240,-0.776,-1.714,-97.393,0.848
16:36:09:206,40.716,0.093,0.027,-0.149,-1.534,-97.899,3.570
16:36:09:207,40.717,-0.046,0.077,-0.048,-2.099,-99.299,4.987
16:36:09:519,41.029,-0.067,0.003,0.004,-2.807,-100.586,6.513
16:36:09:519,41.029,-0.135,0.011,-0.068,-3.287,-101.063,7.399
16:36:09:52,41.030,-0.105,0.054,-0.070,-4.232,-101.569,8.356
16:36:09:52,41.031,0.004,-0.077,0.078,-5.056,-102.522,9.048
16:36:09:62,41.130,0.075,0.002,0.049,-5.647,-103.245,9.502
16:36:09:62,41.131,0.060,0.089,0.119,-6.412,-104.751,10.513
16:36:09:642,41.152,-0.025,0.048,0.110,-6.634,-105.760,11.314
16:36:09:727,41.238,0.028,0.082,0.130,-6.903,-107.173,12.723
16:36:09:728,41.238,-0.050,0.072,0.114,-6.884,-108.597,14.298
16:36:09:729,41.239,-0.117,-0.005,0.216,-6.703,-109.634,15.490
16:36:09:78,41.291,-0.046,0.164,0.291,-6.291,-110.644,17.493
16:36:09:781,41.292,-0.029,0.203,0.370,-5.763,-110.973,19.087
16:36:09:782,41.293,-0.174,0.252,0.425,-4.631,-111.526,21.952
16:36:09:886,41.396,-0.213,0.281,0.766,-1.391,-111.619,27.758
16:36:09:886,41.397,-0.171,0.084,1.197,1.864,-111.606,31.590
16:36:09:887,41.398,-0.141,-0.126,1.387,5.047,-111.689,34.267
16:36:09:888,41.399,0.154,0.035,1.503,9.956,-110.496,39.432
16:36:09:907,41.417,0.249,0.159,1.521,11.089,-107.934,44.120
16:36:09:908,41.418,0.488,-0.368,0.915,12.118,-103.015,50.769
16:36:09:94,41.451,0.542,1.109,-0.279,15.258,-100.671,55.640
16:36:09:94,41.451,0.634,-0.194,0.829,16.429,-98.997,57.149
16:36:09:94,41.451,-0.211,-1.483,0.189,20.348,-98.764,56.523
16:36:09:941,41.452,0.006,-0.795,0.160,20.333,-98.700,54.224
16:36:10:018,41.528,0.161,-0.834,0.191,18.821,-99.450,48.997
16:36:10:019,41.529,0.027,-0.854,0.440,16.677,-101.293,41.672
16:36:10:019,41.530,0.033,-0.658,0.394,14.371,-102.293,35.754
16:36:10:02,41.531,0.084,-0.318,0.566,10.157,-103.500,25.908
16:36:10:07,41.581,0.097,0.035,0.514,6.773,-103.538,18.914
16:36:10:072,41.582,0.104,0.644,0.285,1.482,-101.931,8.215
16:36:10:072,41.583,0.083,0.886,-0.004,-1.790,-99.488,1.179
16:36:10:121,41.632,0.106,0.031,-1.700,-8.166,-88.036,-18.187
16:36:10:122,41.632,-0.319,-0.514,-2.507,-9.394,-84.965,-22.270
16:36:10:123,41.633,0.146,-0.687,-2.290,-11.307,-84.821,-24.446
16:36:10:123,41.634,-0.108,-0.129,-1.181,-11.741,-85.640,-23.353
16:36:10:197,41.708,-0.333,1.124,1.326,-9.517,-83.831,-19.527
16:36:10:198,41.709,-0.642,1.044,-1.086,-7.754,-82.416,-15.210
16:36:10:199,41.709,0.152,-0.222,-0.433,-6.460,-80.717,-11.120
16:36:10:306,41.816,0.148,0.164,-0.712,-7.037,-76.735,-6.171
16:36:10:307,41.817,-0.580,0.167,-1.046,-7.536,-74.594,-3.685
16:36:10:307,41.818,-0.392,-0.142,-0.182,-7.430,-75.739,-0.854
16:36:10:308,41.819,-0.077,0.053,-0.047,-7.965,-77.396,0.682
16:36:10:377,41.887,-0.057,-0.047,0.056,-8.745,-79.456,2.536
16:36:10:489,42.000,-0.029,0.064,0.158,-9.737,-80.888,4.402
16:36:10:49,42.000,-0.020,-0.083,0.058,-10.141,-81.347,5.414
16:36:10:491,42.001,-0.062,0.059,-0.029,-11.049,-82.121,6.781
16:36:10:492,42.002,0.153,0.035,0.068,-11.591,-82.949,7.692
16:36:10:514,42.024,0.166,0.049,-0.104,-12.022,-84.011,8.931
16:36:10:514,42.025,0.023,0.065,0.034,-11.951,-85.675,10.189
16:36:10:514,42.025,0.264,0.045,0.031,-11.641,-86.829,11.036
16:36:10:78,42.290,-0.103,0.210,0.188,-11.475,-88.531,12.734
16:36:10:78,42.290,-0.008,0.026,0.168,-11.176,-89.572,14.097
16:36:10:78,42.291,0.069,0.141,0.193,-10.595,-90.927,16.425
16:36:10:781,42.292,0.088,0.218,0.440,-9.865,-91.951,18.259
16:36:10:857,42.367,-0.022,0.217,0.503,-8.362,-92.929,21.470
16:36:10:858,42.368,-0.148,0.332,0.571,-6.540,-93.404,25.287
16:36:10:859,42.369,-0.019,0.421,0.785,-4.973,-93.599,27.986
16:36:10:859,42.370,0.259,0.129,1.255,-1.698,-93.854,32.116
16:36:11:041,42.551,0.421,-0.017,1.374,1.375,-93.963,34.924
16:36:11:041,42.552,0.736,-0.044,1.453,6.905,-93.339,40.068
16:36:11:042,42.553,0.701,0.278,1.433,8.568,-90.030,47.002
16:36:11:043,42.553,0.365,-0.528,0.555,10.511,-87.682,51.011
16:36:11:06,42.571,0.516,0.460,0.652,15.574,-86.365,55.660
16:36:11:094,42.605,0.463,-1.284,0.448,16.769,-85.635,57.508
16:36:11:094,42.605,-0.185,-1.212,0.385,19.992,-86.825,56.727
16:36:11:095,42.605,-0.077,-1.080,0.046,20.818,-87.197,54.505
16:36:11:095,42.606,-0.019,-0.997,-0.022,19.365,-88.191,49.713
16:36:11:147,42.657,-0.023,-0.982,0.324,16.326,-90.610,42.501
16:36:11:147,42.657,-0.069,-0.765,0.489,13.215,-92.454,36.389
16:36:11:148,42.658,-0.060,-0.205,0.641,8.056,-94.218,26.058
16:36:11:148,42.659,-0.012,0.116,0.578,4.604,-94.639,18.695
16:36:11:279,42.789,-0.076,0.676,0.172,-0.980,-93.935,7.532
16:36:11:279,42.790,-0.191,1.236,-0.241,-6.419,-91.122,-3.642
16:36:11:28,42.791,-0.226,1.431,-1.355,-9.165,-87.657,-10.718
16:36:11:281,42.791,-0.313,-0.003,-1.743,-11.314,-82.593,-19.633
16:36:11:322,42.832,-0.339,-0.695,-2.359,-12.194,-79.439,-23.526
16:36:11:356,42.866,-0.356,-0.768,-2.195,-12.882,-77.963,-25.240
16:36:11:356,42.867,-0.232,-0.510,-1.580,-12.019,-78.178,-22.770
16:36:11:357,42.868,-0.406,1.215,1.232,-10.811,-78.767,-19.726
16:36:11:358,42.869,-0.069,0.205,-0.378,-9.334,-78.980,-15.137
16:36:11:437,42.947,0.365,-0.495,-0.128,-7.811,-77.709,-11.382
16:36:11:437,42.948,0.328,0.266,-1.241,-8.467,-72.494,-7.123
16:36:11:438,42.948,-0.328,-0.142,-0.580,-9.099,-70.031,-4.543
16:36:11:438,42.949,-0.398,-0.179,-0.138,-8.423,-71.101,-1.689
16:36:11:452,42.963,-0.063,0.077,-0.040,-8.796,-73.971,0.739
16:36:11:482,42.993,-0.142,-0.083,0.022,-9.017,-75.570,2.123
16:36:11:483,42.993,-0.132,0.018,0.219,-9.636,-76.856,3.940
16:36:11:506,43.017,-0.040,-0.059,0.021,-10.067,-76.902,4.852
16:36:11:533,43.044,0.072,0.030,-0.006,-10.701,-77.164,5.946
16:36:11:534,43.044,0.032,0.078,-0.101,-11.152,-78.012,7.136
16:36:11:557,43.067,0.058,-0.014,0.054,-11.224,-79.325,8.007
16:36:11:584,43.094,0.041,0.110,0.081,-11.264,-81.343,9.314
16:36:11:61,43.120,0.066,-0.008,0.148,-11.179,-82.482,10.340
16:36:11:666,43.176,-0.016,0.053,0.127,-10.983,-83.837,12.007
16:36:11:666,43.176,0.051,0.104,0.173,-10.828,-84.663,13.325
16:36:11:717,43.227,0.097,0.128,0.229,-10.261,-86.595,15.616
16:36:11:718,43.228,0.054,0.184,0.437,-9.179,-87.777,18.379
16:36:11:74,43.251,-0.026,0.203,0.481,-8.263,-88.917,20.535
16:36:11:766,43.277,-0.026,0.314,0.576,-6.657,-88.954,24.189
16:36:11:793,43.303,0.145,0.431,0.749,-5.274,-89.393,26.827
16:36:11:933,43.444,0.170,0.241,1.110,-2.370,-89.290,30.916
16:36:11:934,43.445,0.439,-0.197,1.579,2.321,-89.473,35.205
16:36:11:935,43.445,0.658,0.225,1.448,5.609,-88.732,38.750
16:36:11:936,43.446,0.692,0.270,1.603,7.450,-85.099,45.763
16:36:11:953,43.464,0.411,-0.260,0.452,8.108,-81.919,50.134
16:36:11:979,43.490,0.663,0.689,0.245,12.527,-79.723,55.092
16:36:11:98,43.491,0.546,-0.961,0.458,13.740,-78.670,57.116
16:36:12:004,43.515,-0.005,-1.299,0.421,18.063,-79.245,57.480
16:36:12:029,43.540,-0.018,-1.060,-0.003,19.977,-78.719,54.680
16:36:12:085,43.595,0.173,-0.969,0.058,19.027,-78.837,51.318
16:36:12:086,43.596,0.224,-0.820,0.138,15.998,-79.624,44.377
16:36:12:11,43.620,0.241,-0.625,0.290,13.610,-80.238,38.339
16:36:12:135,43.646,0.273,-0.436,0.379,9.985,-81.071,27.951
16:36:12:161,43.672,0.364,0.231,0.092,5.591,-81.272,16.676
16:36:12:274,43.784,0.205,0.716,0.047,2.631,-81.370,9.045
16:36:12:275,43.785,0.013,0.825,-0.186,-1.943,-79.513,-1.748
16:36:12:275,43.786,-0.147,1.381,-1.079,-4.803,-75.898,-8.244
16:36:12:276,43.787,-0.494,0.194,-1.355,-7.038,-69.650,-16.528
16:36:12:379,43.889,-0.696,-0.198,-1.823,-7.864,-64.389,-20.916
16:36:12:379,43.890,-0.956,-0.850,-2.332,-8.455,-59.146,-24.326
16:36:12:38,43.891,-0.755,-0.210,-0.698,-9.514,-59.391,-23.789
16:36:12:427,43.937,-1.336,0.579,-1.222,-6.366,-56.293,-18.189
16:36:12:427,43.937,0.336,-0.473,-0.322,-4.674,-53.399,-13.953
16:36:12:449,43.960,0.668,-0.398,-1.034,-4.653,-50.633,-8.986
16:36:12:475,43.986,-0.479,0.003,-0.714,-6.119,-46.681,-4.373
16:36:12:585,44.095,-0.393,-0.268,-0.096,-5.625,-48.065,-2.160
16:36:12:585,44.096,-0.244,0.215,0.106,-6.251,-50.382,0.214
16:36:12:612,44.123,-0.119,0.202,0.115,-6.752,-51.409,1.492
16:36:12:613,44.123,0.028,-0.002,0.193,-7.194,-52.457,3.300
16:36:12:614,44.124,0.042,0.062,-0.083,-7.479,-52.709,4.878
16:36:12:633,44.144,-0.077,-0.011,-0.175,-7.568,-52.956,5.745
16:36:12:716,44.227,0.065,-0.072,0.102,-7.564,-54.457,7.023
16:36:12:716,44.227,-0.009,0.082,0.093,-7.731,-55.240,7.851
16:36:12:771,44.282,0.079,0.022,0.052,-7.789,-56.209,9.396
16:36:12:772,44.282,0.019,0.084,0.039,-7.687,-56.799,10.520
16:36:12:772,44.282,0.017,0.027,0.124,-7.332,-57.898,12.358
16:36:12:792,44.302,0.112,0.052,0.072,-6.813,-58.874,14.225
16:36:12:987,44.498,0.116,0.217,0.148,-6.491,-59.414,15.539
16:36:12:987,44.498,0.163,0.169,0.367,-5.587,-60.301,17.780
16:36:12:988,44.498,0.258,0.237,0.486,-4.756,-60.630,19.636
16:36:12:988,44.498,0.296,0.217,0.501,-3.138,-60.444,23.077
16:36:13:009,44.520,0.672,0.439,0.630,-1.016,-59.743,27.172
16:36:13:01,44.520,0.945,0.359,1.125,1.172,-59.570,30.101
16:36:13:01,44.521,1.172,-0.163,1.248,6.878,-60.058,34.527
16:36:13:011,44.522,1.401,0.079,1.180,10.684,-59.136,38.335
16:36:13:082,44.593,1.222,-0.275,0.529,12.242,-54.042,45.730
16:36:13:132,44.642,0.558,-0.422,0.105,13.428,-50.135,49.775
16:36:13:244,44.755,1.165,0.371,0.201,15.873,-46.612,54.433
16:36:13:244,44.755,0.615,-1.754,0.196,18.876,-43.895,56.197
16:36:13:245,44.756,0.242,-1.301,-0.135,20.335,-41.409,54.831
16:36:13:299,44.809,0.381,-0.667,-0.383,18.456,-38.176,51.712
16:36:13:299,44.810,0.505,-0.789,-0.343,16.989,-36.215,48.417
16:36:13:3,44.811,0.567,-0.708,-0.288,14.754,-33.038,41.015
16:36:13:301,44.811,0.580,-0.221,-0.562,12.307,-29.918,31.914
16:36:13:377,44.887,0.652,0.053,-0.658,10.527,-27.973,25.018
16:36:13:378,44.888,0.359,0.229,-0.803,8.263,-25.592,14.232
16:36:13:379,44.889,0.178,0.416,-0.782,6.392,-23.937,6.912
16:36:13:38,44.890,-0.275,0.972,-0.763,2.505,-20.535,-3.511
16:36:13:458,44.969,-1.097,0.984,-0.854,-0.156,-16.392,-9.660
16:36:13:459,44.969,-1.723,-0.088,-0.423,-2.907,-8.952,-17.587
16:36:13:459,44.969,-2.407,-0.565,-0.589,-4.416,-3.652,-23.431
16:36:13:459,44.969,-2.138,-0.894,-0.451,-6.001,-2.846,-25.238
16:36:13:476,44.986,-1.106,-0.198,0.412,-8.186,-3.363,-24.657
16:36:13:476,44.987,0.195,1.219,1.034,-7.634,-2.516,-22.659
16:36:13:582,45.092,-1.262,0.547,0.453,-5.021,-1.065,-18.436
16:36:13:606,45.116,-0.184,-0.592,-0.540,-3.390,2.049,-12.699
16:36:13:772,45.282,-0.867,-0.303,-0.874,-3.778,5.078,-9.412
16:36:13:772,45.283,-0.732,-0.385,0.017,-5.119,10.072,-5.098
16:36:13:772,45.283,-0.380,-0.092,0.205,-4.613,10.141,-3.397
16:36:13:773,45.284,-0.179,0.103,0.084,-5.369,7.339,-1.294
16:36:13:789,45.300,0.248,-0.028,0.110,-6.456,4.240,0.442
16:36:13:955,45.465,0.098,0.011,-0.009,-7.328,3.476,1.645
16:36:13:955,45.466,-0.162,0.061,0.041,-8.382,3.798,3.125
16:36:13:956,45.467,-0.261,0.122,-0.043,-8.970,3.638,3.942
16:36:13:957,45.468,0.105,-0.091,-0.066,-9.464,1.747,5.126
16:36:13:983,45.494,0.120,0.160,0.040,-9.958,0.445,5.927
16:36:13:984,45.494,0.087,-0.002,-0.034,-10.374,-0.806,7.393
16:36:13:985,45.495,0.086,0.042,-0.092,-10.511,-2.041,8.988
16:36:13:986,45.496,0.118,-0.053,-0.111,-10.469,-3.046,10.262
16:36:14:025,45.536,0.122,0.104,0.128,-10.496,-4.202,12.233
16:36:14:06,45.570,0.299,0.217,-0.022,-10.367,-4.856,13.751
16:36:14:06,45.571,0.310,0.314,0.115,-9.961,-5.915,16.418
16:36:14:061,45.572,0.397,0.255,0.166,-9.101,-6.697,19.664
16:36:14:062,45.572,0.561,0.282,0.187,-8.279,-7.138,22.075
16:36:14:082,45.593,0.780,0.381,-0.051,-6.648,-7.404,26.007
16:36:14:083,45.593,1.164,0.321,-0.038,-5.053,-7.599,28.812
16:36:14:084,45.594,1.357,-0.026,0.002,-0.704,-8.738,33.133
16:36:14:158,45.668,1.751,0.053,-0.393,2.989,-8.944,36.507
16:36:14:219,45.730,1.474,0.290,-0.463,5.183,-6.302,43.137
16:36:14:219,45.730,-0.022,0.183,0.091,7.747,-2.800,48.865
16:36:14:22,45.730,0.051,0.908,-0.483,10.721,-2.046,52.205
16:36:14:22,45.730,0.568,-0.872,-0.250,15.249,-1.848,54.537
16:36:14:235,45.745,0.026,-1.253,-0.052,18.523,-1.670,54.319
16:36:14:375,45.886,0.056,-1.095,-0.106,18.631,-0.402,51.764
16:36:14:376,45.887,0.105,-0.792,-0.085,16.052,-0.315,47.171
16:36:14:377,45.887,0.082,-0.824,-0.124,14.118,-0.416,43.020
16:36:14:378,45.888,0.168,-0.595,-0.219,10.596,-1.161,34.268
16:36:14:423,45.934,0.406,-0.408,-0.147,8.751,-2.037,27.149
16:36:14:426,45.936,0.349,0.207,-0.233,5.252,-3.474,15.727
16:36:14:426,45.936,0.239,0.713,-0.064,2.236,-3.859,7.953
16:36:14:444,45.954,-0.369,1.072,-0.022,-2.613,-2.147,-3.101
16:36:14:47,45.981,-1.479,0.784,-0.052,-6.508,4.180,-12.812
16:36:14:526,46.036,-1.716,0.352,0.130,-7.553,8.732,-18.415
16:36:14:527,46.037,-2.301,-0.771,0.349,-8.350,15.343,-24.465
16:36:14:607,46.118,-2.473,-0.808,0.267,-8.918,17.438,-26.289
16:36:14:608,46.118,-1.263,-0.302,0.724,-9.947,17.138,-25.641
16:36:14:609,46.119,0.263,0.707,0.447,-8.203,17.857,-21.869
16:36:14:629,46.140,-1.470,0.791,0.753,-7.002,19.342,-19.808
16:36:14:655,46.166,-0.322,-0.360,-0.302,-5.200,21.965,-14.025
16:36:14:709,46.220,-1.284,0.561,0.599,-5.555,24.593,-10.948
16:36:14:71,46.221,-0.548,-0.162,0.397,-6.368,27.372,-6.922
16:36:14:733,46.243,-0.137,-0.151,0.045,-6.332,25.605,-4.915
16:36:14:788,46.299,0.062,0.105,0.052,-7.099,22.723,-2.528
16:36:14:789,46.299,0.101,0.038,0.048,-7.958,21.015,-0.609
16:36:14:813,46.324,0.036,0.031,0.038,-8.346,20.405,0.457
16:36:14:866,46.376,-0.092,0.033,-0.041,-8.796,20.043,1.818
16:36:14:895,46.406,-0.067,-0.099,-0.121,-8.991,19.503,2.726
16:36:14:896,46.406,0.004,-0.011,0.021,-9.173,18.700,3.900
16:36:14:917,46.428,0.014,0.121,0.043,-9.525,17.814,5.206
16:36:14:943,46.453,0.029,0.026,-0.010,-9.545,17.115,6.204
16:36:14:969,46.479,0.036,0.081,-0.003,-9.474,16.067,7.799
16:36:15:132,46.643,-0.037,0.038,0.137,-9.390,15.454,8.964
16:36:15:133,46.643,0.058,0.041,-0.039,-9.094,14.138,10.541
16:36:15:188,46.699,0.236,0.078,-0.215,-8.375,12.635,12.389
16:36:15:189,46.699,0.283,0.248,-0.060,-7.727,11.992,14.035
16:36:15:19,46.700,0.334,0.255,-0.112,-6.370,11.486,17.069
16:36:15:19,46.701,0.502,0.366,-0.043,-5.199,11.518,19.326
16:36:15:214,46.724,0.852,0.485,-0.062,-3.001,11.328,23.086
16:36:15:214,46.725,1.321,0.222,-0.365,-0.983,11.303,25.696
16:36:15:215,46.726,1.366,-0.127,-0.583,3.474,11.007,29.761
16:36:15:317,46.828,1.301,0.516,-1.073,9.151,15.492,39.801
16:36:15:317,46.828,0.221,-0.404,-0.605,10.706,21.117,46.212
16:36:15:318,46.829,-0.407,1.195,-0.285,12.646,23.419,49.691
16:36:15:34,46.850,0.313,-0.964,-0.747,14.810,26.430,52.776
16:36:15:34,46.851,0.266,-1.025,-0.202,16.098,28.010,52.620
16:36:15:419,46.930,0.031,-1.122,-0.129,17.400,30.543,50.326
16:36:15:42,46.930,-0.096,-0.842,-0.332,17.600,32.614,45.955
16:36:15:444,46.955,0.007,-0.725,-0.561,16.645,33.494,41.691
16:36:15:445,46.955,-0.080,-0.449,-0.644,14.477,34.944,32.915
16:36:15:498,47.009,-0.243,-0.054,-0.699,12.888,36.114,26.093
16:36:15:499,47.009,-0.467,0.301,-0.683,10.398,37.515,15.319
16:36:15:52,47.031,-0.362,0.624,-0.456,7.501,38.474,4.221
16:36:15:546,47.057,-0.454,0.798,-0.161,5.331,40.264,-2.677
16:36:15:601,47.111,-1.090,0.889,0.424,2.333,46.725,-11.417
16:36:15:628,47.138,-1.300,0.092,1.268,1.417,52.434,-16.324
16:36:15:629,47.139,-1.257,-0.531,1.252,0.982,61.356,-22.092
16:36:15:653,47.163,-0.994,-0.774,1.680,0.483,66.725,-25.189
16:36:15:678,47.189,-0.717,-0.609,1.193,0.108,67.504,-25.462
16:36:15:704,47.215,-0.001,-0.270,1.532,0.648,70.310,-22.969
16:36:15:759,47.270,-0.319,0.616,0.957,2.202,72.883,-20.184
16:36:15:76,47.271,-0.365,0.427,1.386,2.538,74.911,-15.769
16:36:15:784,47.295,-0.201,-0.216,0.637,2.561,76.154,-12.050
16:36:15:835,47.346,-0.957,-0.073,1.099,1.632,80.612,-7.586
16:36:15:866,47.377,-0.004,-0.106,0.398,0.539,82.333,-4.136
16:36:15:867,47.377,-0.080,-0.028,0.060,0.272,81.826,-2.645
16:36:15:917,47.428,0.002,-0.042,0.130,-0.486,80.836,-0.673
16:36:15:918,47.428,0.023,0.081,0.184,-1.066,80.167,0.425
16:36:15:942,47.452,0.007,-0.144,0.056,-1.589,79.441,1.832
16:36:15:995,47.506,0.074,0.054,0.143,-2.456,78.648,2.876
16:36:15:996,47.507,0.094,0.039,0.031,-2.909,77.956,3.460
16:36:16:019,47.529,-0.153,0.000,-0.016,-3.579,77.043,4.452
16:36:16:047,47.557,0.004,0.060,0.001,-3.957,76.397,5.215
16:36:16:073,47.583,-0.047,0.019,0.026,-4.271,75.571,6.410
16:36:16:125,47.636,-0.016,0.071,-0.002,-4.491,74.713,7.744
16:36:16:153,47.663,-0.022,0.065,0.015,-4.549,74.068,8.667
16:36:16:154,47.664,-0.029,0.065,-0.164,-4.332,74.188,10.220
16:36:16:177,47.688,0.003,0.160,-0.142,-4.000,73.597,11.499
16:36:16:203,47.714,0.073,0.288,-0.289,-3.123,74.054,13.780
16:36:16:229,47.740,0.106,0.320,-0.362,-2.313,73.722,15.536
16:36:16:284,47.795,0.000,0.306,-0.501,-0.627,75.023,18.631
16:36:16:285,47.796,-0.046,0.346,-0.646,1.599,75.296,22.089
16:36:16:31,47.821,-0.072,0.206,-0.933,3.668,76.261,24.493
16:36:16:334,47.844,-0.168,-0.013,-1.179,7.743,76.152,28.351
16:36:16:362,47.872,-0.536,0.155,-1.284,11.015,76.611,31.462
16:36:16:387,47.897,-0.423,0.043,-1.667,14.707,79.870,38.123
16:36:16:442,47.953,-0.361,-0.004,-0.754,16.304,85.217,45.240
16:36:16:443,47.953,-0.568,0.959,0.471,19.276,87.140,48.919
16:36:16:466,47.976,-0.711,-0.611,-0.760,20.446,89.764,52.612
16:36:16:492,48.002,0.151,-0.854,-0.314,21.729,90.470,53.172
16:36:16:518,48.028,0.099,-0.944,-0.185,23.123,91.440,51.702
16:36:16:573,48.084,-0.105,-1.084,0.122,22.602,91.847,49.489
16:36:16:574,48.085,-0.041,-0.900,-0.087,19.625,91.279,43.828
16:36:16:598,48.108,-0.064,-0.769,-0.330,15.661,89.588,35.364
16:36:16:624,48.134,-0.080,-0.538,-0.400,12.798,88.178,28.474
16:36:16:65,48.160,-0.157,-0.086,-0.433,8.204,86.281,17.397
16:36:16:705,48.216,-0.041,0.465,-0.319,4.750,85.563,9.934
16:36:16:706,48.216,0.168,0.997,-0.046,-1.196,86.756,-1.223
16:36:16:728,48.239,0.235,1.355,0.936,-6.214,92.425,-11.911
16:36:16:783,48.294,0.190,1.092,1.781,-7.654,97.197,-18.503
16:36:16:784,48.295,0.580,-0.389,2.178,-8.222,103.596,-26.082
16:36:16:835,48.346,0.412,-1.065,2.512,-8.633,106.023,-28.721
16:36:16:836,48.347,0.614,-0.812,2.039,-9.933,105.104,-28.289
16:36:16:859,48.370,-0.280,0.265,0.446,-9.300,104.413,-25.929
16:36:16:885,48.396,1.149,0.691,0.379,-8.174,104.078,-22.381
16:36:16:912,48.422,-0.162,-0.204,0.471,-6.610,105.227,-17.425
16:36:16:996,48.507,-0.044,-0.320,0.210,-5.829,106.539,-14.225
16:36:16:997,48.507,0.093,0.260,1.170,-6.174,111.445,-9.888
16:36:16:998,48.508,0.428,0.033,0.424,-6.350,112.929,-7.427
16:36:17:046,48.557,0.216,-0.141,0.243,-6.220,111.450,-4.632
16:36:17:046,48.557,-0.029,0.068,0.148,-6.664,110.050,-3.169
16:36:17:069,48.579,0.094,-0.010,0.022,-7.321,107.855,-1.092
16:36:17:125,48.635,0.008,0.034,0.016,-7.994,106.853,0.607
16:36:17:125,48.636,-0.037,-0.072,0.035,-8.330,106.602,1.556
16:36:17:206,48.717,-0.037,0.014,0.116,-8.746,106.174,2.743
16:36:17:207,48.718,-0.029,-0.038,0.011,-8.922,105.437,3.589
16:36:17:208,48.718,-0.007,0.125,-0.038,-9.257,104.180,4.905
16:36:17:227,48.737,-0.066,0.010,0.010,-9.425,103.058,6.503
16:36:17:254,48.765,-0.149,-0.023,-0.056,-9.427,102.314,7.697
16:36:17:337,48.848,-0.003,0.116,0.008,-9.423,101.393,9.719
16:36:17:338,48.849,-0.054,0.146,-0.017,-9.339,100.694,11.165
16:36:17:339,48.850,-0.136,0.180,-0.271,-8.899,98.300,13.593
16:36:17:389,48.899,0.006,0.351,-0.377,-8.088,96.941,16.596
16:36:17:389,48.899,0.021,0.303,-0.422,-7.291,95.575,18.993
16:36:17:41,48.921,-0.107,0.295,-0.575,-5.652,94.842,22.962
16:36:17:437,48.947,-0.413,0.491,-0.865,-4.319,94.306,25.769
16:36:17:495,49.006,-0.392,0.243,-1.195,-1.150,93.320,30.047
16:36:17:496,49.006,-0.525,0.061,-1.288,4.580,91.485,34.575
16:36:17:496,49.007,-0.651,0.238,-1.583,7.914,91.594,38.741
16:36:17:573,49.084,-0.625,-0.095,-1.083,10.260,94.516,45.395
16:36:17:574,49.085,0.226,0.280,-0.107,13.315,95.601,48.681
16:36:17:575,49.086,-0.586,-0.186,-0.561,18.306,95.422,52.406
16:36:17:621,49.131,-0.329,-0.842,-0.515,21.241,94.668,53.332
16:36:17:65,49.161,0.256,-1.486,-0.214,24.345,93.705,51.523
16:36:17:703,49.213,-0.119,-0.769,-0.094,17.976,92.586,43.892
16:36:17:703,49.213,-0.074,-0.864,-0.255,13.796,91.419,36.689
16:36:17:754,49.265,-0.175,-0.454,-0.326,10.598,90.711,30.585
16:36:17:755,49.266,-0.230,-0.242,-0.384,5.900,89.558,19.920
16:36:17:809,49.320,-0.180,0.370,-0.333,0.591,89.011,8.654
16:36:17:809,49.320,0.109,0.713,-0.187,-3.212,89.458,1.108
16:36:17:832,49.342,0.266,1.102,0.567,-8.872,93.036,-10.253
16:36:17:857,49.367,0.290,1.292,1.897,-11.682,96.544,-17.346
16:36:17:912,49.423,0.583,-0.109,1.784,-13.955,101.368,-25.949
16:36:17:913,49.424,0.637,-1.078,2.736,-14.713,104.781,-29.439
16:36:17:965,49.476,0.618,-0.610,1.918,-15.272,105.078,-29.379
16:36:17:965,49.476,-1.017,1.184,-1.169,-13.603,104.860,-25.535
16:36:18:017,49.527,1.801,0.471,0.259,-12.922,104.393,-23.407
16:36:18:018,49.528,0.194,-0.175,0.654,-9.918,105.546,-18.052
16:36:18:041,49.551,-0.572,-0.551,0.386,-8.721,106.784,-14.690
16:36:18:096,49.607,-0.201,-0.047,1.250,-8.688,111.392,-10.638
16:36:18:207,49.718,0.517,-0.045,0.564,-9.026,112.953,-7.290
16:36:18:208,49.718,0.364,-0.068,0.328,-9.020,111.476,-5.513
16:36:18:208,49.719,0.010,-0.026,0.073,-9.752,108.029,-3.176
16:36:18:209,49.720,-0.017,0.176,-0.144,-10.403,106.250,-1.866
16:36:18:228,49.738,-0.075,0.051,-0.022,-11.036,105.017,-0.073
16:36:18:228,49.738,-0.136,0.053,0.140,-11.256,104.922,0.854
16:36:18:278,49.788,-0.020,0.026,0.162,-11.627,104.532,2.162
16:36:18:303,49.814,-0.027,0.002,-0.009,-11.924,102.765,3.677
16:36:18:442,49.952,0.025,0.102,0.009,-12.078,101.623,4.753
16:36:18:442,49.953,-0.103,0.033,-0.027,-12.018,99.780,6.540
16:36:18:443,49.954,-0.179,-0.062,-0.077,-11.736,98.532,7.807
16:36:18:514,50.024,-0.043,-0.017,-0.018,-11.359,97.260,9.824
16:36:18:602,50.113,-0.063,0.207,-0.093,-11.029,96.316,11.970
16:36:18:603,50.113,-0.032,0.227,-0.237,-10.658,95.478,13.598
16:36:18:603,50.113,-0.038,0.238,-0.331,-9.731,94.492,16.551
16:36:18:603,50.114,-0.040,0.300,-0.393,-8.944,94.179,18.860
16:36:18:628,50.138,0.003,0.348,-0.537,-7.419,93.565,22.704
16:36:18:628,50.138,-0.137,0.394,-0.910,-6.091,93.150,25.393
16:36:18:629,50.139,-0.271,0.073,-1.526,-2.959,92.236,29.403
16:36:18:63,50.140,-0.355,0.133,-1.287,2.017,91.637,33.727
16:36:18:649,50.159,-0.699,0.230,-1.742,4.597,92.738,37.871
16:36:18:649,50.159,-0.666,-0.013,-0.680,5.862,96.708,44.277
16:36:18:73,50.241,0.202,0.305,-0.121,7.846,98.924,48.005
16:36:18:731,50.241,-0.567,0.125,-0.694,10.175,100.680,52.604
16:36:18:731,50.241,-0.090,-1.609,-0.379,15.233,100.480,53.677
16:36:18:778,50.289,0.048,-1.230,-0.256,16.558,100.681,52.386
16:36:18:779,50.289,-0.115,-0.777,0.061,15.936,100.783,48.816
16:36:18:801,50.312,-0.063,-0.953,-0.182,15.641,99.509,44.789
16:36:18:888,50.398,0.027,-0.856,-0.419,15.429,95.832,36.189
16:36:18:888,50.398,0.013,-0.421,-0.344,13.749,91.932,25.647
16:36:18:888,50.399,0.000,-0.262,-0.471,11.517,89.796,18.215
16:36:18:908,50.418,0.003,0.458,-0.228,6.827,88.626,6.857
16:36:19:519,51.030,-0.113,1.008,0.017,3.501,89.734,-0.591
16:36:19:52,51.031,0.008,1.129,0.830,-0.415,96.256,-10.512
16:36:19:521,51.032,0.055,0.650,1.957,-1.307,102.798,-16.402
16:36:19:522,51.032,0.535,-0.668,2.410,-0.098,112.215,-22.922
16:36:19:595,51.105,0.377,-0.827,2.446,0.558,116.457,-25.788
16:36:19:595,51.105,0.872,-0.874,2.035,-0.225,115.948,-25.778
16:36:19:625,51.136,-0.267,2.084,-1.165,-0.164,114.167,-22.083
16:36:19:626,51.136,0.041,0.168,0.879,1.602,114.517,-19.371
16:36:19:626,51.137,0.173,-0.920,0.468,2.536,118.388,-13.003
16:36:19:627,51.137,0.237,1.197,1.263,1.146,122.494,-8.442
16:36:19:677,51.188,0.353,-0.120,0.790,0.421,122.734,-5.658
16:36:19:678,51.188,-0.185,-0.212,-0.059,0.300,119.589,-3.371
16:36:19:679,51.189,0.189,0.285,-0.033,-0.450,118.509,-2.430
16:36:19:68,51.190,-0.025,0.032,0.005,-1.182,117.167,-0.765
16:36:19:704,51.215,-0.142,-0.150,-0.114,-1.435,116.448,0.211
16:36:19:705,51.216,0.067,0.129,0.200,-1.796,116.296,1.296
16:36:19:706,51.217,0.016,-0.150,0.190,-1.977,115.885,2.269
16:36:19:707,51.217,-0.018,0.084,0.015,-2.253,114.864,2.717
16:36:19:756,51.266,-0.106,0.006,0.047,-2.492,113.473,3.573
16:36:19:756,51.267,-0.077,-0.004,-0.003,-2.499,112.693,4.198
16:36:19:757,51.268,-0.058,0.129,0.015,-2.461,111.603,5.326
16:36:19:758,51.268,-0.081,-0.046,-0.105,-2.113,110.611,6.759
16:36:19:782,51.292,-0.184,0.273,-0.340,-0.289,109.124,11.606
16:36:19:783,51.293,-0.086,0.297,-0.439,1.299,109.283,14.717
16:36:19:784,51.294,-0.299,0.296,-0.457,2.541,109.889,17.144
16:36:19:81,51.321,-0.903,0.365,-0.803,8.125,111.515,25.333
16:36:19:811,51.321,-1.063,-0.029,-1.061,11.863,110.731,27.894
16:36:19:811,51.321,-1.262,0.379,-1.006,17.378,111.862,33.450
16:36:19:811,51.322,-1.108,-0.066,-0.565,19.007,115.573,38.751
16:36:19:836,51.346,-0.182,-0.272,-0.103,21.871,121.142,45.360
16:36:19:836,51.347,-0.996,-0.166,-0.274,25.548,124.072,49.583
16:36:19:836,51.347,-0.878,-0.617,-0.006,25.681,126.692,50.966
16:36:19:837,51.347,-0.416,-0.807,-0.259,25.807,130.275,50.259
16:36:19:968,51.478,-0.379,-1.223,-0.217,26.326,132.893,48.717
16:36:19:968,51.478,-0.590,-0.581,0.439,23.497,137.876,45.025
16:36:19:968,51.478,-0.711,-0.742,0.378,20.622,143.218,39.212
16:36:19:969,51.479,-0.732,-0.488,0.523,18.626,147.045,34.318
16:36:19:988,51.499,-0.741,-0.038,0.842,15.512,152.668,25.748
16:36:19:989,51.499,-0.605,0.113,1.022,14.030,155.961,19.470
16:36:20:009,51.520,-0.312,0.249,1.073,11.944,160.275,9.524
16:36:20:064,51.575,0.069,0.591,1.313,10.237,163.088,2.916
16:36:20:065,51.576,0.850,0.669,1.168,7.161,168.318,-5.828
16:36:20:088,51.598,1.746,0.757,0.385,4.319,173.054,-13.406
16:36:20:361,51.871,1.894,-0.648,1.170,3.432,175.008,-18.097
16:36:20:361,51.871,1.823,-0.511,0.223,0.354,175.487,-22.246
16:36:20:361,51.871,1.218,-0.066,0.083,-1.687,175.277,-23.014
16:36:20:362,51.873,0.722,0.901,-1.578,-2.204,176.660,-21.396
16:36:20:387,51.897,0.889,0.541,-0.168,0.973,179.964,-16.614
16:36:20:387,51.898,0.632,-0.065,-0.045,1.562,-177.594,-13.016
16:36:20:388,51.898,0.034,-0.170,1.174,1.980,-172.852,-6.835
16:36:20:388,51.899,0.764,-0.595,0.090,0.654,-168.627,-3.107
16:36:20:413,51.924,0.694,0.146,-0.550,0.963,-166.782,0.286
16:36:20:413,51.924,0.017,0.074,-0.194,0.919,-168.839,1.807
16:36:20:413,51.924,-0.059,0.129,-0.010,0.064,-171.542,3.249
16:36:20:543,52.053,-0.158,-0.009,-0.030,-0.868,-172.900,5.091
16:36:20:543,52.053,-0.108,-0.006,0.056,-1.352,-173.051,6.256
16:36:20:543,52.053,0.357,0.073,0.146,-1.994,-172.484,7.590
16:36:20:561,52.071,-0.026,-0.114,0.120,-2.259,-172.857,8.263
16:36:20:618,52.128,-0.178,0.057,0.085,-2.489,-174.846,9.265
16:36:20:618,52.128,-0.130,0.034,0.081,-2.867,-175.696,10.486
16:36:20:808,52.319,0.064,0.044,0.096,-2.986,-175.872,11.437
16:36:20:808,52.319,0.001,0.030,0.081,-3.154,-176.541,12.979
16:36:20:809,52.319,-0.067,0.031,0.030,-3.112,-177.302,14.009
16:36:20:809,52.320,-0.193,0.067,0.026,-2.939,-178.646,15.659
