Time,Second,AccelerationX,AccelerationY,AccelerationZ,EulerAnglesX,EulerAnglesY,EulerAnglesZ
16:05:48:742,0.000,-0.004,-0.006,0.003,-12.227,-0.841,3.096
16:05:48:742,0.001,-0.012,-0.004,0.014,-12.222,-0.887,3.115
16:05:48:743,0.002,-0.001,-0.005,0.012,-12.211,-0.960,3.127
16:05:48:744,0.003,-0.006,-0.007,0.013,-12.207,-1.044,3.143
16:05:48:953,0.211,-0.007,-0.003,0.010,-12.190,-1.231,3.090
16:05:48:953,0.211,0.000,-0.003,-0.001,-12.199,-1.280,3.061
16:05:48:954,0.212,0.009,-0.006,0.003,-12.199,-1.318,3.048
16:05:48:955,0.213,0.012,-0.002,0.002,-12.194,-1.317,3.039
16:05:49:136,0.395,0.000,-0.004,0.005,-12.169,-1.074,3.212
16:05:49:139,0.397,-0.005,-0.002,0.005,-12.123,-1.018,3.323
16:05:49:139,0.397,-0.001,-0.011,0.009,-12.079,-0.981,3.401
16:05:49:139,0.397,-0.003,-0.004,0.003,-12.019,-0.885,3.522
16:05:49:266,0.524,-0.009,-0.004,0.005,-11.972,-0.826,3.610
16:05:49:267,0.525,-0.009,0.000,0.002,-11.757,-0.591,3.969
16:05:49:268,0.526,-0.017,-0.007,0.014,-11.688,-0.486,4.079
16:05:49:452,0.710,-0.009,-0.010,0.002,-11.455,-0.273,4.476
16:05:49:452,0.710,-0.010,-0.011,0.015,-11.430,-0.272,4.541
16:05:49:453,0.711,-0.003,-0.002,0.003,-11.547,-0.500,4.575
16:05:49:454,0.712,-0.007,-0.007,-0.002,-11.561,-0.505,4.551
16:05:49:529,0.787,-0.008,-0.009,0.015,-11.573,-0.542,4.518
16:05:49:53,0.788,0.001,-0.003,0.000,-11.593,-0.563,4.497
16:05:49:531,0.789,-0.006,-0.008,-0.001,-11.724,-0.476,4.293
16:05:49:659,0.917,-0.011,-0.011,0.009,-11.859,-0.420,4.140
16:05:49:659,0.917,-0.009,-0.006,0.013,-11.921,-0.425,4.061
16:05:49:659,0.917,0.009,-0.006,-0.001,-12.268,-0.414,3.538
16:05:49:713,0.971,0.011,-0.005,0.004,-12.293,-0.436,3.486
16:05:49:713,0.971,-0.011,-0.008,0.011,-12.295,-0.407,3.465
16:05:49:714,0.972,-0.001,-0.004,0.003,-12.299,-0.371,3.436
16:05:49:715,0.973,-0.008,-0.007,0.003,-12.284,-0.171,3.357
16:05:49:809,1.067,-0.001,-0.005,0.006,-12.284,-0.107,3.306
16:05:49:923,1.181,-0.005,-0.007,-0.003,-12.287,-0.037,3.252
16:05:49:923,1.181,-0.009,-0.003,0.004,-12.284,0.006,3.220
16:05:49:924,1.182,-0.003,-0.005,0.004,-12.290,0.053,3.122
16:05:49:925,1.183,-0.001,-0.005,-0.002,-12.287,0.079,3.063
16:05:50:107,1.365,-0.006,0.000,0.000,-12.287,0.110,3.020
16:05:50:107,1.365,-0.006,-0.006,-0.003,-12.288,0.145,2.965
16:05:50:108,1.366,-0.007,-0.006,-0.003,-12.292,0.325,2.865
16:05:50:109,1.367,0.000,-0.003,0.008,-12.296,0.352,2.838
16:05:50:24,1.498,-0.012,-0.003,-0.003,-12.301,0.421,2.817
16:05:50:24,1.498,-0.017,-0.003,0.010,-12.298,0.446,2.817
16:05:50:241,1.499,0.000,-0.005,0.005,-12.291,0.423,2.799
16:05:50:241,1.499,0.003,-0.004,0.006,-12.289,0.415,2.767
16:05:50:387,1.645,0.000,-0.006,-0.001,-12.290,0.460,2.722
16:05:50:501,1.759,-0.006,-0.005,-0.001,-12.289,0.494,2.696
16:05:50:501,1.759,-0.009,-0.003,-0.001,-12.304,0.503,2.670
16:05:50:502,1.760,0.003,-0.005,0.007,-12.309,0.480,2.641
16:05:50:634,1.892,-0.021,-0.006,0.005,-12.324,0.578,2.554
16:05:50:634,1.893,-0.003,-0.003,0.005,-12.327,0.569,2.530
16:05:50:634,1.893,0.004,-0.004,0.001,-12.343,0.560,2.470
16:05:50:634,1.893,-0.004,-0.004,0.001,-12.351,0.594,2.400
16:05:50:685,1.943,-0.009,-0.005,-0.003,-12.399,0.738,2.193
16:05:50:686,1.944,-0.010,-0.004,-0.002,-12.427,0.755,2.129
16:05:50:687,1.945,-0.005,-0.007,0.008,-12.446,0.737,2.086
16:05:50:688,1.946,-0.003,-0.003,-0.007,-12.486,0.703,2.010
16:05:50:732,1.990,-0.004,-0.004,-0.001,-12.511,0.668,1.959
16:05:50:733,1.991,0.002,-0.004,-0.013,-12.604,0.475,1.818
16:05:50:788,2.046,-0.002,-0.007,0.005,-12.658,0.534,1.764
16:05:50:789,2.047,-0.002,-0.004,-0.002,-12.681,0.557,1.732
16:05:50:79,2.048,-0.006,-0.004,0.007,-12.708,0.556,1.699
16:05:50:791,2.049,-0.004,-0.004,0.007,-12.711,0.520,1.638
16:05:50:814,2.072,0.007,-0.007,-0.010,-12.708,0.481,1.598
16:05:50:815,2.073,0.000,-0.005,0.002,-12.715,0.492,1.570
16:05:50:816,2.074,-0.004,-0.001,0.003,-12.741,0.546,1.527
16:05:50:895,2.153,-0.005,-0.008,0.008,-12.790,0.690,1.433
16:05:50:896,2.154,0.000,-0.009,-0.003,-12.816,0.701,1.429
16:05:50:897,2.155,-0.002,-0.001,-0.001,-12.835,0.774,1.411
16:05:50:898,2.156,-0.007,-0.003,0.007,-12.873,0.920,1.379
16:05:50:966,2.224,-0.007,-0.005,-0.005,-12.894,0.952,1.370
16:05:50:99,2.248,0.010,0.000,0.021,-12.927,0.997,1.352
16:05:51:023,2.281,-0.002,0.002,0.002,-12.960,1.112,1.315
16:05:51:024,2.282,0.000,-0.002,-0.009,-12.984,1.181,1.318
16:05:51:024,2.283,-0.027,-0.004,-0.019,-13.006,1.265,1.336
16:05:51:078,2.336,-0.021,-0.002,0.009,-13.010,1.199,1.370
16:05:51:079,2.337,-0.009,0.001,-0.001,-13.006,1.114,1.375
16:05:51:08,2.338,0.002,-0.009,-0.006,-13.008,0.939,1.382
16:05:51:081,2.339,0.002,-0.007,-0.004,-13.008,0.798,1.391
16:05:51:149,2.407,0.000,0.001,0.005,-12.999,0.596,1.401
16:05:51:205,2.463,0.001,-0.007,-0.006,-12.988,0.446,1.412
16:05:51:205,2.464,0.005,-0.002,-0.007,-12.966,0.355,1.427
16:05:51:263,2.521,0.004,-0.010,-0.002,-12.925,0.236,1.451
16:05:51:263,2.521,0.005,-0.001,0.000,-12.875,0.183,1.480
16:05:51:264,2.522,0.003,0.004,-0.009,-12.823,0.185,1.519
16:05:51:265,2.523,-0.004,-0.001,-0.013,-12.738,0.222,1.575
16:05:51:384,2.642,-0.009,-0.021,0.009,-12.639,0.173,1.629
16:05:51:473,2.731,0.002,-0.007,0.030,-12.500,-0.068,1.747
16:05:51:473,2.731,0.016,0.010,0.005,-12.441,-0.157,1.835
16:05:51:474,2.732,0.017,0.011,-0.081,-12.318,-0.132,1.969
16:05:51:474,2.732,-0.008,0.010,0.026,-12.164,-0.274,2.130
16:05:51:541,2.799,-0.036,0.011,0.038,-11.870,-0.446,2.388
16:05:51:657,2.915,-0.020,-0.004,0.080,-11.541,-0.806,2.662
16:05:51:657,2.915,-0.001,0.002,0.055,-11.368,-1.173,2.851
16:05:51:658,2.916,-0.001,-0.017,0.003,-11.163,-1.456,3.042
16:05:51:659,2.917,-0.047,-0.038,0.013,-11.042,-1.551,3.143
16:05:51:779,3.037,-0.040,-0.023,0.048,-10.923,-1.844,3.327
16:05:51:84,3.098,-0.037,-0.009,0.006,-10.840,-2.184,3.517
16:05:51:841,3.099,-0.025,0.002,-0.005,-10.789,-2.431,3.603
16:05:51:842,3.100,0.022,0.013,-0.018,-10.753,-2.935,3.706
16:05:51:843,3.101,-0.012,-0.021,0.012,-10.728,-3.154,3.747
16:05:51:865,3.123,0.002,0.025,-0.018,-10.741,-3.380,3.815
16:05:51:866,3.124,-0.009,0.039,-0.007,-10.766,-3.585,3.851
16:05:51:867,3.125,0.009,-0.002,0.004,-10.704,-3.883,3.855
16:05:51:867,3.125,0.015,-0.018,0.005,-10.609,-4.074,3.862
16:05:51:945,3.203,-0.016,-0.038,-0.004,-10.527,-4.090,3.877
16:05:51:945,3.203,-0.015,-0.023,0.032,-10.441,-4.082,3.936
16:05:51:946,3.204,-0.013,-0.035,0.027,-10.422,-4.008,3.985
16:05:51:947,3.205,-0.043,-0.044,0.015,-10.422,-3.762,4.074
16:05:51:97,3.228,-0.008,-0.018,-0.041,-10.632,-3.257,4.086
16:05:51:97,3.229,-0.022,-0.005,0.003,-10.772,-2.752,4.027
16:05:51:971,3.230,-0.017,0.071,0.033,-10.804,-2.209,3.991
16:05:51:972,3.231,0.021,0.065,0.062,-10.751,-1.985,4.014
16:05:52:071,3.329,0.073,0.072,-0.066,-10.503,-1.723,4.302
16:05:52:071,3.329,0.096,0.086,-0.090,-10.192,-1.646,4.769
16:05:52:101,3.359,0.146,0.106,-0.079,-9.349,-2.013,6.132
16:05:52:102,3.360,0.282,0.316,0.195,-8.098,-3.405,8.408
16:05:52:103,3.361,0.332,0.397,0.084,-6.970,-4.530,10.341
16:05:52:103,3.361,0.619,0.103,-0.069,-5.239,-6.122,13.285
16:05:52:154,3.412,0.856,-0.083,0.261,-4.402,-6.947,15.261
16:05:52:155,3.413,0.853,-0.386,0.239,-2.958,-7.856,17.294
16:05:52:155,3.414,0.768,-0.553,0.181,-1.854,-8.151,17.623
16:05:52:156,3.415,0.763,-0.589,0.112,-1.523,-8.584,16.698
16:05:52:201,3.459,0.675,-0.166,0.217,-1.603,-9.478,13.710
16:05:52:202,3.460,0.505,0.063,0.193,-1.752,-9.775,11.146
16:05:52:259,3.517,0.263,0.189,0.184,-2.236,-9.462,6.969
16:05:52:26,3.518,0.031,0.107,0.055,-2.695,-8.369,2.758
16:05:52:261,3.519,-0.112,0.090,0.147,-2.975,-7.567,0.112
16:05:52:261,3.519,-0.131,-0.075,0.098,-3.021,-6.649,-3.523
16:05:52:315,3.573,-0.355,-0.104,0.144,-2.941,-6.280,-5.737
16:05:52:315,3.573,-0.867,-0.122,0.028,-2.829,-5.991,-8.481
16:05:52:315,3.573,-0.960,-0.028,0.049,-2.714,-5.926,-9.693
16:05:52:316,3.574,-1.613,-0.221,-0.368,-2.560,-6.043,-9.799
16:05:52:337,3.596,-1.060,0.008,-0.873,-2.419,-6.360,-6.684
16:05:52:338,3.597,1.261,0.132,-0.491,-2.433,-7.476,-3.803
16:05:52:339,3.597,-1.179,0.980,0.808,-4.469,-8.252,-0.494
16:05:52:34,3.598,-0.099,-0.067,0.292,-3.980,-8.730,2.231
16:05:52:516,3.774,0.036,-0.036,0.017,-4.339,-9.075,4.769
16:05:52:516,3.774,-0.296,0.047,0.048,-5.287,-8.341,6.624
16:05:52:679,3.937,-0.152,0.064,-0.007,-6.117,-8.529,7.508
16:05:52:679,3.937,-0.045,0.093,-0.195,-7.262,-9.656,8.675
16:05:52:681,3.939,0.128,0.000,0.004,-7.709,-10.686,9.384
16:05:52:681,3.939,0.112,0.072,0.014,-8.267,-11.983,10.523
16:05:52:705,3.963,0.089,0.089,-0.021,-8.592,-12.544,11.503
16:05:52:706,3.964,-0.026,0.123,-0.021,-8.967,-13.170,13.206
16:05:52:707,3.965,0.019,0.063,0.068,-8.877,-14.473,15.108
16:05:52:708,3.966,0.021,0.068,-0.075,-8.638,-15.330,16.412
16:05:52:838,4.096,0.204,0.252,-0.034,-8.017,-15.787,18.285
16:05:52:838,4.096,0.719,0.287,0.162,-7.252,-17.137,19.549
16:05:52:838,4.096,0.722,0.328,0.063,-5.375,-18.372,21.980
16:05:52:838,4.096,1.134,0.345,0.488,-2.750,-20.065,25.414
16:05:52:863,4.121,1.768,0.072,0.447,-0.016,-21.047,28.138
16:05:52:864,4.122,1.824,0.009,0.287,5.174,-21.821,33.356
16:05:52:864,4.122,2.545,0.855,0.038,7.708,-20.057,38.149
16:05:52:865,4.123,1.638,0.221,-0.667,7.784,-13.931,46.310
16:05:52:885,4.143,0.323,0.856,-1.142,9.315,-10.809,51.270
16:05:52:886,4.144,1.948,-2.323,-0.362,15.960,-10.560,55.458
16:05:52:886,4.144,0.283,-1.227,0.542,20.482,-10.675,54.298
16:05:52:935,4.193,0.063,-1.002,0.156,20.628,-10.902,51.146
16:05:52:936,4.194,0.338,-0.971,-0.051,18.485,-12.209,42.899
16:05:52:961,4.219,0.482,-0.670,-0.194,16.001,-13.125,35.977
16:05:52:986,4.244,0.510,-0.159,-0.121,11.929,-14.313,24.595
16:05:53:041,4.299,0.269,0.459,0.052,7.543,-14.428,12.331
16:05:53:041,4.299,-0.173,1.015,-0.044,4.319,-13.119,4.340
16:05:53:091,4.350,-1.174,1.043,-0.086,0.252,-9.491,-6.602
16:05:53:119,4.377,-2.532,0.378,-0.329,-1.007,-6.036,-12.693
16:05:53:119,4.377,-2.292,-0.576,0.017,-1.018,-0.277,-18.706
16:05:53:143,4.401,-3.476,-1.427,-0.320,0.392,5.520,-20.781
16:05:53:337,4.595,-1.474,-0.527,0.455,0.826,6.635,-19.964
16:05:53:337,4.595,3.092,2.468,0.277,0.873,4.662,-16.844
16:05:53:337,4.595,-2.768,-0.236,-0.877,1.932,6.421,-13.589
16:05:53:338,4.596,-1.385,-0.367,-0.486,2.678,10.972,-6.633
16:05:53:379,4.637,-0.360,0.308,0.119,1.102,11.933,-2.868
16:05:53:431,4.689,-0.437,-0.372,-0.029,0.658,11.881,0.561
16:05:53:467,4.725,-0.084,0.161,0.059,0.533,9.575,2.519
16:05:53:468,4.726,-0.150,0.070,0.301,0.059,9.107,3.454
16:05:53:469,4.727,0.296,-0.089,-0.055,-0.599,7.996,4.947
16:05:53:469,4.728,-0.091,-0.011,-0.032,-0.903,7.625,5.663
16:05:53:518,4.776,-0.065,0.003,0.001,-1.381,6.781,6.898
16:05:53:519,4.777,0.033,0.185,-0.198,-1.675,5.810,7.797
16:05:53:52,4.778,0.234,-0.039,-0.163,-1.687,3.491,9.550
16:05:53:521,4.779,0.154,0.241,-0.009,-1.181,1.444,11.507
16:05:53:537,4.795,0.543,0.300,-0.019,-0.700,0.450,13.098
16:05:53:621,4.879,0.663,0.321,-0.031,0.803,-1.398,16.025
16:05:53:622,4.880,0.800,0.542,-0.091,2.160,-1.830,18.600
16:05:53:622,4.880,1.435,0.210,-0.213,4.917,-2.416,23.085
16:05:53:642,4.900,1.884,0.273,-0.533,9.332,-2.657,28.648
16:05:53:669,4.927,1.895,0.530,-0.760,12.756,-2.492,33.013
16:05:53:694,4.952,1.659,0.139,-1.079,16.366,0.831,41.180
16:05:53:72,4.978,0.481,0.044,-0.491,19.481,4.183,46.427
16:05:53:746,5.004,1.643,-1.437,-0.753,25.448,5.620,50.973
16:05:53:801,5.059,0.481,-1.405,-0.137,27.780,5.714,49.956
16:05:53:802,5.060,0.278,-1.120,-0.293,26.223,8.360,45.323
16:05:53:857,5.115,0.177,-1.099,-0.584,21.756,10.962,37.706
16:05:53:857,5.115,-0.107,-0.239,-1.026,17.798,13.615,31.579
16:05:53:858,5.116,-0.281,-0.252,-1.122,13.491,18.603,21.469
16:05:53:907,5.165,-0.480,0.203,-0.917,11.018,22.098,14.168
16:05:53:908,5.166,-0.917,0.493,-0.500,7.630,27.090,3.408
16:05:53:93,5.188,-1.219,0.651,0.334,4.308,31.791,-6.951
16:05:53:956,5.214,-1.124,0.576,0.394,2.773,35.983,-13.156
16:05:54:011,5.269,-2.128,0.093,1.043,2.629,45.083,-19.921
16:05:54:012,5.270,-2.475,-1.005,1.746,3.503,50.334,-23.094
16:05:54:122,5.380,-2.116,-1.310,2.280,2.354,52.133,-24.266
16:05:54:123,5.381,0.410,0.829,1.746,0.729,49.652,-21.637
16:05:54:124,5.382,1.532,3.283,-1.474,2.195,50.162,-18.402
16:05:54:124,5.382,-0.905,-0.668,0.845,4.850,55.775,-11.405
16:05:54:139,5.397,-0.329,1.045,0.373,4.688,59.021,-6.894
16:05:54:197,5.456,-0.526,0.097,1.035,3.554,61.226,-2.130
16:05:54:197,5.456,0.042,0.073,0.327,3.875,60.058,-0.671
16:05:54:246,5.504,0.013,0.229,0.141,3.476,57.869,0.807
16:05:54:274,5.532,0.123,-0.112,0.001,2.977,56.695,1.975
16:05:54:275,5.533,0.056,0.206,-0.123,2.463,56.513,2.881
16:05:54:298,5.556,-0.179,-0.075,0.199,1.813,57.145,4.051
16:05:54:351,5.609,-0.096,0.080,-0.001,1.326,56.623,4.728
16:05:54:38,5.639,-0.129,0.156,-0.200,0.850,54.392,5.960
16:05:54:38,5.639,-0.070,0.004,-0.165,0.987,52.503,7.745
16:05:54:402,5.660,-0.025,0.146,-0.111,1.278,51.353,8.940
16:05:54:431,5.689,0.178,0.234,-0.326,2.149,49.592,10.882
16:05:54:456,5.714,0.261,0.381,-0.348,2.975,48.750,12.454
16:05:54:512,5.770,0.191,0.418,-0.550,4.880,47.978,15.294
16:05:54:512,5.770,0.429,0.364,-0.984,7.710,47.646,18.852
16:05:54:563,5.821,0.543,0.171,-1.567,10.274,47.844,21.807
16:05:54:563,5.821,0.206,0.026,-1.692,15.315,48.598,27.175
16:05:54:64,5.898,0.241,0.769,-2.406,18.871,49.892,31.893
16:05:54:674,5.932,-0.057,0.127,-1.416,23.065,54.988,40.547
16:05:54:674,5.932,-1.467,0.478,-0.597,27.256,58.079,45.934
16:05:54:674,5.932,0.406,-1.677,-1.901,30.262,60.320,51.072
16:05:54:779,6.037,0.323,-1.153,-0.301,30.343,62.953,50.901
16:05:54:78,6.038,-0.412,-1.182,0.050,24.762,66.513,43.104
16:05:54:781,6.039,-0.158,-0.789,-0.300,21.790,66.430,37.332
16:05:54:798,6.056,-0.205,-0.540,-0.481,17.192,65.962,26.636
16:05:54:824,6.082,-0.420,0.035,-0.284,12.442,66.104,14.281
16:05:54:85,6.108,-0.292,0.304,-0.232,9.279,66.122,5.859
16:05:54:875,6.133,-0.486,1.017,0.622,3.397,69.081,-5.573
16:05:54:959,6.217,-0.814,1.221,2.058,0.078,73.462,-11.880
16:05:54:959,6.218,-0.554,0.173,2.807,-2.401,80.220,-19.037
16:05:54:96,6.219,-0.519,-1.208,3.831,-2.967,83.409,-22.099
16:05:55:009,6.267,-0.374,-0.568,2.232,-3.482,84.407,-21.393
16:05:55:01,6.268,1.194,2.091,-1.999,-2.542,83.796,-16.890
16:05:55:032,6.290,-0.347,2.167,2.162,-1.267,84.980,-13.759
16:05:55:058,6.316,-0.208,-1.734,1.084,0.751,90.626,-6.371
16:05:55:085,6.343,0.331,0.620,0.541,-0.318,93.300,-2.778
16:05:55:113,6.371,-0.124,0.480,0.910,-2.147,95.188,0.190
16:05:55:137,6.395,-0.001,0.260,0.170,-2.539,92.296,1.906
16:05:55:164,6.422,0.005,-0.115,0.029,-2.843,90.349,2.888
16:05:55:219,6.477,-0.058,0.100,-0.098,-3.928,88.192,4.168
16:05:55:246,6.504,-0.128,-0.087,-0.272,-4.399,86.800,5.014
16:05:55:246,6.504,-0.173,0.079,0.005,-5.385,86.049,6.242
16:05:55:268,6.526,-0.187,0.190,0.052,-5.858,85.304,7.535
16:05:55:323,6.582,-0.209,-0.066,-0.212,-5.878,82.720,9.717
16:05:55:35,6.608,-0.052,0.179,-0.330,-5.516,80.332,12.457
16:05:55:351,6.609,0.048,0.328,-0.256,-5.059,79.423,14.503
16:05:55:374,6.632,0.026,0.399,-0.556,-3.871,77.938,17.923
16:05:55:401,6.659,-0.067,0.430,-0.830,-2.579,76.875,20.592
16:05:55:457,6.715,0.049,0.338,-1.161,0.035,75.567,25.379
16:05:55:457,6.715,0.016,0.114,-1.819,3.873,74.594,31.196
16:05:55:538,6.796,-0.186,0.161,-1.941,7.795,73.583,35.275
16:05:55:538,6.796,-0.193,0.819,-2.532,13.876,73.249,42.486
16:05:55:538,6.796,-0.233,0.102,-1.875,17.074,75.602,48.095
16:05:55:558,6.816,-1.386,1.233,-0.491,26.144,76.937,54.975
16:05:55:584,6.842,0.313,-2.225,-1.219,32.522,76.370,57.986
16:05:55:609,6.867,0.527,-1.813,-0.105,33.626,75.797,56.547
16:05:55:664,6.922,0.116,-1.176,-0.054,30.341,75.670,51.798
16:05:55:751,7.009,0.058,-0.992,-0.339,26.849,74.822,46.440
16:05:55:751,7.009,0.186,-0.603,-0.685,20.594,72.105,36.554
16:05:55:751,7.009,0.081,-0.412,-0.569,14.838,70.926,25.594
16:05:55:752,7.010,-0.043,-0.016,-0.362,10.917,71.105,17.679
16:05:55:794,7.052,0.016,0.545,-0.084,5.223,72.517,5.458
16:05:55:823,7.081,-0.199,1.480,0.720,1.251,75.064,-2.914
16:05:55:823,7.081,-0.358,1.199,1.796,-2.499,81.190,-13.894
16:05:55:846,7.104,-0.334,-0.388,2.961,-2.886,85.619,-19.564
16:05:55:872,7.130,-0.020,-1.122,3.251,-2.770,90.774,-24.503
16:05:55:901,7.159,0.028,-0.836,2.925,-4.043,90.478,-24.438
16:05:55:954,7.212,0.624,1.037,1.124,-3.940,88.813,-21.920
16:05:56:038,7.296,-0.530,0.826,1.600,-1.460,88.219,-16.367
16:05:56:039,7.297,-0.563,-1.865,0.749,0.272,91.916,-10.569
16:05:56:04,7.298,0.847,0.856,0.780,-1.742,96.520,-4.435
16:05:56:056,7.314,0.039,-0.097,0.118,-1.975,93.684,0.563
16:05:56:082,7.340,0.000,0.313,-0.135,-2.937,90.749,2.172
16:05:56:14,7.398,-0.146,-0.174,-0.386,-3.500,89.554,3.317
16:05:56:141,7.399,-0.177,-0.115,-0.127,-3.849,88.799,4.700
16:05:56:142,7.400,-0.103,0.097,0.118,-4.393,88.307,5.653
16:05:56:189,7.447,-0.141,0.150,0.031,-4.598,87.125,6.713
16:05:56:245,7.503,-0.120,-0.078,-0.242,-4.572,84.386,8.625
16:05:56:246,7.504,-0.199,0.039,-0.241,-4.337,83.112,10.056
16:05:56:247,7.505,-0.035,0.207,-0.194,-3.690,81.637,12.578
16:05:56:266,7.524,0.092,0.255,-0.307,-2.881,80.750,14.466
16:05:56:322,7.580,-0.046,0.436,-0.412,-1.482,79.774,17.769
16:05:56:322,7.580,0.067,0.367,-1.042,0.731,78.519,21.625
16:05:56:375,7.633,0.152,0.169,-1.309,2.786,77.978,24.714
16:05:56:376,7.634,0.038,0.010,-1.821,6.959,77.487,30.132
16:05:56:423,7.681,-0.522,0.444,-2.304,10.914,77.147,34.088
16:05:56:454,7.713,-0.594,0.650,-2.220,14.497,80.253,42.059
16:05:56:455,7.713,0.465,1.130,0.223,18.946,86.250,50.835
16:05:56:506,7.764,-0.823,-0.688,-1.696,25.058,87.142,54.812
16:05:56:506,7.764,0.475,-2.386,-0.832,29.856,88.237,56.737
16:05:56:528,7.786,0.227,-0.744,-0.176,29.940,90.404,55.208
16:05:56:582,7.840,-0.159,-1.148,0.194,27.829,92.590,49.621
16:05:56:748,8.006,-0.246,-1.108,-0.296,25.355,91.871,43.625
16:05:56:748,8.006,-0.279,-0.701,-0.604,21.771,89.990,32.407
16:05:56:749,8.007,-0.476,0.108,-0.185,17.286,89.573,20.011
16:05:56:75,8.008,-0.366,0.251,-0.089,14.496,89.396,11.819
16:05:56:769,8.027,-0.453,0.956,0.220,10.072,90.548,0.071
16:05:56:77,8.028,-0.557,1.195,0.815,7.321,93.395,-6.903
16:05:56:872,8.130,-0.164,0.572,1.360,5.661,100.055,-15.458
16:05:56:905,8.163,0.340,-0.698,2.554,6.316,108.748,-21.248
16:05:56:906,8.164,0.665,-0.836,2.947,6.559,112.551,-23.458
16:05:56:907,8.165,0.992,-0.949,2.297,4.865,111.437,-24.606
16:05:56:908,8.166,-0.664,2.560,-0.136,4.422,110.356,-22.409
16:05:56:928,8.186,-0.061,0.263,1.684,6.899,111.001,-16.182
16:05:56:929,8.187,-0.291,-0.968,2.655,7.497,116.163,-8.308
16:05:56:929,8.187,0.026,0.139,0.979,5.863,117.848,-3.334
16:05:56:948,8.206,0.365,-0.531,0.146,6.325,116.087,-0.421
16:05:57:035,8.293,0.015,0.225,-0.092,5.350,114.636,0.674
16:05:57:035,8.293,0.019,0.063,0.132,4.308,113.945,1.804
16:05:57:035,8.293,-0.146,0.057,-0.147,3.873,113.267,2.642
16:05:57:055,8.313,-0.209,-0.246,-0.138,3.530,112.681,3.953
16:05:57:08,8.338,-0.099,0.020,0.109,3.146,112.443,4.894
16:05:57:164,8.422,-0.153,0.155,0.076,2.884,111.603,5.644
16:05:57:165,8.423,-0.113,0.239,0.025,2.741,109.713,7.013
16:05:57:166,8.424,-0.245,-0.077,-0.261,3.179,108.063,7.908
16:05:57:214,8.472,-0.110,0.225,-0.457,3.963,105.732,9.538
16:05:57:215,8.473,-0.266,0.091,-0.365,5.511,105.057,12.270
16:05:57:267,8.525,-0.418,0.340,-0.247,6.702,105.373,14.570
16:05:57:293,8.551,-0.390,0.370,-0.745,9.149,105.619,18.483
16:05:57:293,8.551,-0.489,0.393,-1.368,11.377,106.766,21.462
16:05:57:345,8.603,-0.886,0.079,-1.799,16.094,106.949,26.533
16:05:57:346,8.604,-1.884,0.678,-1.827,19.897,107.849,30.346
16:05:57:399,8.658,-1.996,0.395,-1.197,23.113,114.099,38.840
16:05:57:399,8.658,-0.328,0.786,0.352,26.485,122.845,48.563
16:05:57:421,8.679,-1.768,0.268,0.300,30.395,125.480,52.684
16:05:57:508,8.766,-1.121,-2.494,-0.949,34.679,130.101,53.945
16:05:57:508,8.766,-0.570,-1.052,-0.008,34.277,133.357,53.269
16:05:57:508,8.766,-1.306,-1.292,0.165,30.506,139.022,49.261
16:05:57:526,8.784,-1.224,-0.659,0.659,25.625,145.621,41.865
16:05:57:553,8.811,-1.106,-0.223,1.234,22.229,150.683,35.989
16:05:57:607,8.865,-0.737,-0.175,1.655,18.587,156.764,25.457
16:05:57:692,8.950,-0.199,0.333,1.707,16.683,159.280,17.231
16:05:57:693,8.951,0.154,0.775,1.340,13.581,160.195,3.997
16:05:57:694,8.952,1.038,1.042,0.924,10.753,161.232,-3.887
16:05:57:695,8.953,1.471,0.762,0.758,6.458,166.137,-13.268
16:05:57:711,8.969,3.032,-0.374,0.742,4.487,174.171,-19.080
16:05:57:895,9.153,3.501,-1.277,0.422,3.786,177.053,-21.239
16:05:57:931,9.189,2.407,-0.437,0.230,1.935,176.778,-20.188
16:05:57:931,9.189,-1.780,2.487,-1.984,1.348,176.003,-17.747
16:05:57:931,9.189,0.833,1.690,0.093,3.817,177.630,-12.800
16:05:57:932,9.190,0.832,-1.539,0.015,5.799,-175.247,-4.875
16:05:58:088,9.346,0.927,0.455,0.323,4.981,-172.589,-1.202
16:05:58:088,9.346,1.134,0.752,0.246,2.618,-170.152,2.807
16:05:58:088,9.346,0.127,-0.145,0.096,2.774,-171.817,4.409
16:05:58:089,9.347,-0.193,0.166,-0.066,2.488,-175.966,5.964
16:05:58:104,9.362,-0.348,-0.120,-0.026,1.977,-178.578,7.564
16:05:58:131,9.389,0.009,-0.023,0.156,1.452,-178.912,8.434
16:05:58:191,9.449,-0.290,-0.059,0.192,0.464,-179.465,10.072
16:05:58:193,9.451,0.262,0.114,0.128,0.105,-179.249,11.007
16:05:58:194,9.452,-0.180,0.127,0.007,-0.094,178.485,12.575
16:05:58:194,9.452,-0.285,0.090,0.197,0.098,176.467,13.725
16:05:58:271,9.529,-0.257,0.257,0.336,0.517,174.609,15.855
16:05:58:272,9.530,-0.614,0.013,0.002,1.546,172.622,18.228
16:05:58:273,9.531,-0.739,0.328,-0.139,2.666,171.672,20.315
16:05:58:274,9.532,-0.972,0.400,-0.001,4.521,171.271,24.306
16:05:58:533,9.791,-1.371,0.180,0.007,6.388,171.149,27.443
16:05:58:534,9.792,-1.882,-0.143,0.477,10.427,171.100,32.736
16:05:58:535,9.793,-1.894,-0.064,0.523,16.824,170.399,38.673
16:05:58:536,9.794,-2.444,0.349,0.609,20.348,171.028,43.890
16:05:58:664,9.922,0.370,0.799,0.097,25.563,174.891,51.994
16:05:58:664,9.922,-2.005,-1.332,0.338,31.131,175.783,56.256
16:05:58:665,9.923,-1.077,-1.865,-0.187,37.025,175.061,57.426
16:05:58:666,9.924,-0.150,-1.075,0.041,37.705,175.496,56.442
16:05:58:691,9.949,-0.334,-1.116,0.271,33.495,177.033,51.954
16:05:58:692,9.950,-0.280,-0.461,0.524,26.429,178.290,44.326
16:05:58:693,9.951,-0.425,-0.548,0.600,21.880,179.169,38.183
16:05:58:771,10.029,-0.113,0.394,0.774,12.290,-177.407,19.543
16:05:58:771,10.029,0.492,0.685,0.586,7.225,-175.798,7.757
16:05:58:771,10.029,0.850,1.098,0.015,1.852,-173.986,-2.904
16:05:58:771,10.029,1.231,0.878,-0.282,-1.188,-171.644,-8.977
16:05:58:901,10.159,1.910,0.071,-0.423,-3.598,-164.484,-16.325
16:05:58:901,10.159,2.908,-1.023,-1.102,-3.291,-158.008,-19.447
16:05:58:902,10.160,1.605,-0.083,-1.183,-3.088,-153.246,-20.001
16:05:58:903,10.161,-1.297,3.383,-0.153,-2.740,-152.376,-18.348
16:05:58:953,10.211,2.259,0.494,-1.321,-0.576,-151.921,-12.592
16:05:58:955,10.213,1.794,-1.543,-0.398,2.453,-147.421,-4.631
16:05:58:955,10.213,1.281,1.291,-0.246,0.289,-143.981,-0.683
16:05:58:956,10.214,0.042,-0.401,-0.723,-0.096,-143.784,3.125
16:05:58:982,10.240,-0.043,0.084,0.087,0.071,-146.539,4.671
16:05:58:982,10.240,-0.067,0.302,-0.184,-0.488,-148.965,6.545
16:05:58:982,10.240,-0.612,0.026,0.216,-0.765,-151.185,8.746
16:05:58:982,10.240,0.241,0.052,0.009,-0.754,-151.199,9.644
16:05:59:059,10.317,0.069,-0.178,-0.056,-0.852,-150.970,10.523
16:05:59:059,10.317,-0.028,0.195,0.209,-1.089,-151.642,11.132
16:05:59:06,10.318,-0.044,0.184,0.214,-1.293,-153.315,12.543
16:05:59:06,10.318,-0.137,-0.031,0.253,-0.694,-155.368,14.360
16:05:59:08,10.338,-0.511,0.156,0.157,-0.102,-157.017,15.946
16:05:59:08,10.339,-0.517,0.255,0.073,1.040,-158.317,18.801
16:05:59:128,10.386,-0.552,0.180,0.402,2.042,-158.485,20.994
16:05:59:157,10.415,-0.721,0.219,0.591,4.066,-158.353,24.887
16:05:59:157,10.415,-1.305,0.289,0.735,5.707,-157.929,28.037
16:05:59:179,10.437,-1.689,0.219,0.722,10.042,-157.680,33.430
16:05:59:208,10.466,-2.056,0.190,1.702,18.038,-158.194,39.315
16:05:59:315,10.573,-1.373,-0.334,1.999,21.426,-156.325,44.339
16:05:59:316,10.574,0.186,0.709,0.289,24.687,-149.220,52.794
16:05:59:505,10.763,-0.525,-0.677,1.747,28.355,-146.342,57.237
16:05:59:506,10.764,-0.533,-1.766,0.523,33.183,-144.785,58.183
16:05:59:506,10.764,0.272,-1.044,0.442,32.112,-141.216,55.817
16:05:59:507,10.765,0.399,-0.791,0.937,27.930,-137.773,52.337
16:05:59:557,10.815,0.452,-0.416,1.135,21.223,-131.524,45.316
16:05:59:557,10.815,0.796,-0.481,0.991,17.914,-126.773,39.939
16:05:59:558,10.816,1.005,-0.196,0.758,14.181,-120.408,30.524
16:05:59:559,10.817,1.222,0.281,0.464,12.064,-117.020,23.518
16:05:59:611,10.869,1.216,0.405,0.195,9.258,-113.256,11.811
16:05:59:611,10.869,1.274,0.770,-0.265,6.139,-109.539,-0.381
16:05:59:611,10.869,1.325,0.854,-1.442,3.742,-105.082,-7.249
16:05:59:631,10.890,1.040,-0.574,-2.736,0.371,-99.587,-14.616
16:05:59:632,10.891,0.597,-0.695,-2.540,-3.018,-99.942,-18.036
16:05:59:633,10.891,0.103,-0.373,-2.267,-7.044,-103.473,-18.538
16:05:59:95,11.208,-2.515,2.878,2.457,-7.088,-103.382,-15.095
16:05:59:951,11.209,1.010,0.730,-3.167,-5.111,-100.169,-11.756
16:05:59:952,11.210,0.690,-2.482,0.199,-2.326,-94.044,-4.130
16:05:59:952,11.210,0.810,0.842,-0.658,-3.958,-91.992,-0.486
16:06:00:029,11.287,-0.134,0.245,-1.079,-6.304,-90.536,3.073
16:06:00:03,11.288,-0.249,-0.074,0.096,-6.111,-92.545,4.682
16:06:00:031,11.289,-0.107,0.158,0.198,-6.549,-96.066,6.213
16:06:00:032,11.290,-0.107,-0.018,0.066,-7.626,-97.815,7.502
16:06:00:055,11.313,-0.014,-0.083,0.222,-8.298,-98.538,8.388
16:06:00:056,11.314,0.120,-0.013,-0.034,-9.419,-98.952,9.282
16:06:00:057,11.315,0.307,0.051,0.174,-10.102,-98.948,10.061
16:06:00:058,11.316,0.216,-0.029,0.190,-10.645,-101.119,12.010
16:06:00:106,11.364,-0.138,0.295,0.292,-10.723,-103.824,14.509
16:06:00:107,11.365,-0.229,0.089,0.316,-10.228,-105.493,16.498
16:06:00:108,11.366,0.036,0.228,0.408,-8.872,-107.376,19.691
16:06:00:205,11.463,-0.162,0.425,0.708,-7.780,-108.711,22.136
16:06:00:243,11.501,-0.683,0.398,1.082,-5.346,-110.629,26.281
16:06:00:243,11.501,-0.607,0.136,1.577,-1.724,-111.550,31.251
16:06:00:243,11.501,-0.163,-0.244,2.189,1.519,-111.702,34.762
16:06:00:243,11.501,0.041,-0.080,2.587,7.821,-111.348,40.587
16:06:00:364,11.622,-0.096,0.359,2.713,9.707,-109.148,46.019
16:06:00:449,11.707,-0.417,1.155,-0.556,10.686,-103.614,53.752
16:06:00:45,11.708,0.547,-2.259,2.338,15.148,-102.339,58.141
16:06:00:451,11.709,-0.884,-1.667,0.842,22.002,-103.154,59.022
16:06:00:451,11.709,0.004,-1.006,0.132,22.500,-103.417,56.074
16:06:00:476,11.734,0.121,-1.340,0.423,20.254,-103.812,51.363
16:06:00:477,11.735,0.054,-0.612,0.470,15.719,-106.135,41.608
16:06:00:478,11.736,0.185,-0.455,0.562,12.881,-107.997,33.938
16:06:00:478,11.736,0.044,0.167,0.627,7.804,-109.537,21.849
16:06:00:495,11.753,-0.085,0.674,0.334,1.885,-109.118,9.469
16:06:00:496,11.754,0.067,1.226,-0.519,-2.422,-106.944,1.438
16:06:00:529,11.787,0.382,0.914,-1.860,-7.962,-101.748,-9.745
16:06:00:529,11.787,0.071,0.664,-2.311,-10.119,-98.493,-16.172
16:06:00:529,11.787,-0.026,-0.892,-3.349,-12.001,-93.304,-23.216
16:06:00:53,11.788,0.008,-1.037,-3.136,-12.647,-91.425,-24.606
16:06:00:575,11.834,0.299,0.418,-1.830,-12.147,-91.260,-22.320
16:06:00:575,11.834,-2.323,2.564,-0.309,-10.300,-91.363,-17.967
16:06:00:656,11.914,-0.792,1.017,-2.554,-9.967,-91.078,-14.970
16:06:00:656,11.914,0.230,-0.991,-0.089,-6.093,-85.843,-7.534
16:06:00:657,11.915,0.462,0.537,-1.630,-6.865,-83.247,-4.271
16:06:00:735,11.993,-0.296,0.491,-1.037,-8.944,-80.950,-0.171
16:06:00:735,11.993,-0.278,0.166,-0.247,-8.335,-83.667,2.915
16:06:00:736,11.994,-0.043,-0.218,0.069,-8.148,-86.065,4.786
16:06:00:813,12.071,-0.147,0.033,0.271,-8.377,-88.856,6.960
16:06:00:814,12.072,-0.055,-0.067,0.090,-8.824,-89.563,8.085
16:06:00:815,12.073,0.171,0.095,0.128,-9.339,-90.146,9.568
16:06:00:834,12.092,0.064,0.241,-0.147,-9.649,-90.713,10.705
16:06:00:86,12.118,0.150,-0.005,0.117,-9.258,-93.365,12.906
16:06:00:915,12.173,0.207,0.085,0.572,-8.282,-96.882,15.645
16:06:00:916,12.174,-0.003,0.313,0.412,-7.734,-97.863,17.787
16:06:00:994,12.252,-0.085,0.377,1.140,-4.398,-100.814,24.004
16:06:00:995,12.253,0.026,0.228,1.343,-1.366,-101.195,28.711
16:06:01:018,12.276,0.440,0.101,2.326,2.977,-101.235,34.570
16:06:01:043,12.301,0.498,0.270,2.300,7.606,-101.486,38.891
16:06:01:07,12.328,0.362,0.538,2.931,13.300,-99.406,47.153
16:06:01:097,12.355,0.063,1.437,-0.495,17.118,-96.312,52.619
16:06:01:123,12.381,0.365,-1.978,1.719,22.173,-93.377,59.865
16:06:01:148,12.407,-0.192,-1.728,0.828,23.104,-92.392,60.132
16:06:01:175,12.433,-0.041,-1.303,0.288,20.627,-91.072,57.848
16:06:01:201,12.459,0.210,-0.968,-0.401,16.342,-89.816,50.616
16:06:01:229,12.487,-0.057,-0.900,0.708,14.153,-91.871,44.199
16:06:01:282,12.540,0.006,-0.632,0.501,10.732,-94.694,32.995
16:06:01:283,12.541,0.055,-0.376,0.510,8.068,-95.867,24.318
16:06:01:308,12.566,-0.067,0.349,0.214,3.155,-96.780,11.192
16:06:01:332,12.591,-0.077,1.322,-0.403,-2.835,-94.938,-1.773
16:06:01:36,12.618,-0.345,1.745,-1.365,-6.059,-91.009,-9.604
16:06:01:553,12.811,-0.332,0.663,-2.581,-7.811,-83.300,-18.577
16:06:01:553,12.811,-0.439,-1.251,-3.531,-7.885,-78.841,-22.313
16:06:01:554,12.812,-0.542,-0.351,-2.422,-8.217,-77.428,-22.646
16:06:01:555,12.813,-1.145,2.945,1.583,-7.267,-79.289,-18.495
16:06:01:579,12.837,-0.143,0.512,-1.478,-5.615,-79.841,-14.959
16:06:01:579,12.837,-0.045,-1.798,-1.320,-2.334,-73.617,-7.471
16:06:01:579,12.837,0.017,0.428,-1.558,-3.765,-71.156,-4.200
16:06:01:58,12.838,-0.202,-0.368,-0.549,-4.168,-71.838,0.069
16:06:01:624,12.882,-0.220,0.301,-0.028,-3.776,-74.525,2.055
16:06:01:651,12.909,-0.391,0.117,0.182,-4.001,-76.880,4.494
16:06:01:651,12.909,0.106,-0.024,0.180,-3.978,-77.965,6.259
16:06:01:674,12.932,0.036,0.189,0.112,-4.135,-78.303,7.287
16:06:01:699,12.958,0.001,0.018,-0.037,-3.913,-78.496,8.957
16:06:01:726,12.984,0.093,0.120,0.061,-3.791,-79.230,10.179
16:06:01:893,13.152,0.062,0.229,0.214,-3.294,-81.885,12.042
16:06:01:893,13.152,0.115,0.056,0.620,-1.865,-84.546,14.158
16:06:01:894,13.152,-0.084,0.187,0.776,-0.600,-85.369,16.065
16:06:01:895,13.153,0.124,0.524,0.878,1.472,-84.878,20.155
16:06:01:971,13.229,0.407,0.351,1.411,3.701,-84.528,23.353
16:06:01:972,13.230,0.436,0.124,2.150,9.080,-85.074,29.268
16:06:01:973,13.231,1.197,0.572,2.415,13.870,-85.839,33.744
16:06:01:991,13.249,1.190,0.808,-0.856,21.347,-75.666,50.726
16:06:01:992,13.250,1.126,-1.324,1.251,24.605,-73.336,53.794
16:06:02:067,13.326,0.561,-1.203,0.704,25.474,-70.320,52.049
16:06:02:099,13.357,0.840,-0.855,-0.238,23.334,-66.143,49.163
16:06:02:1,13.358,1.508,-0.895,-0.636,19.053,-58.342,42.109
16:06:02:101,13.359,1.158,-0.107,-0.868,15.601,-51.277,33.019
16:06:02:12,13.378,1.295,-0.396,-0.953,14.784,-47.246,26.100
16:06:02:175,13.433,0.809,0.177,-1.404,12.911,-41.231,15.037
16:06:02:253,13.511,0.178,0.429,-1.316,11.515,-38.875,7.014
16:06:02:286,13.544,0.020,0.662,-1.303,8.346,-35.041,-4.368
16:06:02:287,13.545,-1.720,1.020,-1.802,5.101,-25.790,-13.192
16:06:02:288,13.546,-2.843,-0.232,-2.074,4.340,-19.715,-17.486
16:06:02:289,13.547,-2.756,-1.310,-1.488,1.221,-18.914,-21.435
16:06:02:384,13.642,-2.296,-0.898,-1.028,-1.652,-21.959,-21.602
16:06:02:419,13.677,-1.518,1.574,2.514,-3.584,-24.001,-18.637
16:06:02:419,13.677,-0.236,0.231,-0.712,-1.099,-20.862,-15.137
16:06:02:419,13.677,-2.224,-1.013,-1.400,1.480,-10.016,-9.118
16:06:02:42,13.678,-1.256,0.194,-0.835,0.540,-6.458,-2.913
16:06:02:466,13.724,-1.076,0.691,-0.681,-1.287,-6.511,-0.256
16:06:02:466,13.724,-0.131,0.236,0.003,-1.869,-9.462,2.383
16:06:02:487,13.745,-0.103,0.133,0.008,-1.590,-11.160,3.690
16:06:02:514,13.772,0.255,-0.113,0.275,-1.231,-13.617,5.815
16:06:02:654,13.912,0.181,0.133,0.138,-1.751,-13.102,7.314
16:06:02:655,13.913,-0.407,0.190,-0.012,-2.214,-12.312,8.338
16:06:02:656,13.914,0.155,0.090,-0.155,-2.324,-13.643,10.090
16:06:02:657,13.915,0.233,0.285,-0.049,-2.429,-14.963,11.417
16:06:02:675,13.933,0.129,0.195,0.064,-2.346,-16.576,13.496
16:06:02:676,13.934,0.347,0.220,0.115,-1.884,-17.567,14.916
16:06:02:729,13.987,0.530,0.297,0.187,-0.828,-19.525,17.423
16:06:02:73,13.988,1.033,0.217,0.012,1.009,-20.817,20.732
16:06:02:731,13.989,1.061,0.273,-0.041,2.723,-21.049,23.534
16:06:02:807,14.065,1.485,0.019,0.078,6.723,-21.893,28.548
16:06:02:807,14.065,1.760,0.251,0.073,10.401,-22.397,32.438
16:06:02:945,14.203,2.514,0.309,-0.099,15.647,-21.406,39.542
16:06:02:945,14.203,-0.030,0.627,0.020,18.522,-18.624,44.795
16:06:02:945,14.203,1.591,-0.686,-0.357,24.045,-15.690,51.532
16:06:02:945,14.203,1.393,-1.600,0.323,25.646,-14.511,53.215
16:06:02:961,14.219,-0.051,-0.831,-0.021,24.960,-12.994,52.575
16:06:03:101,14.359,0.070,-0.966,-0.153,21.230,-10.734,48.582
16:06:03:102,14.360,-0.066,-0.733,-0.040,18.126,-9.559,43.915
16:06:03:102,14.360,0.429,-0.634,0.017,14.583,-10.553,34.202
16:06:03:103,14.361,0.373,-0.223,-0.088,11.063,-11.584,22.947
16:06:03:126,14.384,0.119,0.148,-0.066,8.181,-11.851,14.855
16:06:03:127,14.385,0.281,0.525,0.013,3.892,-11.889,2.658
16:06:03:128,14.386,-0.698,1.729,-0.161,0.536,-9.816,-5.091
16:06:03:128,14.386,-1.660,0.998,-0.305,-2.452,-2.683,-15.130
16:06:03:143,14.401,-2.699,-0.467,-0.004,-2.308,5.797,-22.741
16:06:03:198,14.456,-2.870,-1.301,0.107,-1.500,9.785,-25.588
16:06:03:226,14.484,-2.574,-0.682,0.361,-1.931,10.486,-25.964
16:06:03:226,14.484,0.827,2.651,0.624,-1.985,9.239,-24.221
16:06:03:249,14.507,-1.465,0.495,-0.658,-0.235,7.167,-18.562
16:06:03:305,14.563,-0.649,-1.643,-0.553,1.070,9.442,-13.336
16:06:03:305,14.563,-1.236,0.227,-0.201,1.573,14.584,-7.349
16:06:03:327,14.585,-0.396,-0.442,0.552,0.795,15.812,-3.058
16:06:03:383,14.641,-0.122,-0.146,0.345,0.832,13.538,-1.777
16:06:03:409,14.667,-0.149,0.200,-0.179,0.030,11.335,-0.340
16:06:03:41,14.668,0.304,-0.072,0.085,-0.136,9.921,0.451
16:06:03:49,14.748,0.376,-0.130,-0.211,-0.437,8.374,1.829
16:06:03:491,14.749,-0.280,-0.057,0.094,-0.878,8.826,2.810
16:06:03:492,14.750,-0.120,0.141,0.008,-1.063,8.299,3.588
16:06:03:511,14.769,0.048,0.098,-0.219,-1.185,6.306,5.052
16:06:03:537,14.795,0.112,-0.041,-0.094,-0.859,4.896,6.051
16:06:03:593,14.851,0.260,0.318,-0.008,-0.252,3.032,7.930
16:06:03:593,14.851,0.432,0.134,-0.183,1.243,2.047,10.418
16:06:03:617,14.875,0.405,0.504,-0.093,2.365,1.929,12.576
16:06:03:728,14.986,0.820,0.440,-0.162,4.786,1.753,16.295
16:06:03:729,14.987,1.536,0.233,-0.408,7.039,1.879,19.216
16:06:03:73,14.988,1.636,0.098,-0.692,11.383,2.743,24.600
16:06:03:749,15.007,1.839,0.474,-1.007,14.976,3.486,28.894
16:06:03:805,15.063,1.668,0.772,-1.553,19.266,7.458,37.120
16:06:03:806,15.064,-1.385,1.068,-1.021,24.516,13.412,45.825
16:06:03:807,15.065,1.350,-0.776,-1.339,28.135,15.623,49.586
16:06:03:913,15.171,0.951,-1.766,-0.459,31.700,18.031,50.759
16:06:03:914,15.172,0.768,-1.527,-0.698,31.564,21.081,50.126
16:06:03:915,15.173,-0.295,-1.064,-0.689,27.883,27.031,46.472
16:06:03:915,15.173,-0.232,-0.640,-1.033,23.973,33.465,39.669
16:06:03:931,15.189,-0.508,-0.404,-1.171,21.410,37.871,34.032
16:06:03:957,15.215,-0.891,-0.059,-1.057,18.238,44.365,24.319
16:06:03:986,15.244,-0.977,0.159,-0.717,16.720,47.946,17.184
16:06:04:011,15.269,-1.139,0.442,-0.309,14.119,52.061,5.526
16:06:04:123,15.381,-1.440,0.755,0.111,11.975,55.075,-2.200
16:06:04:124,15.382,-1.856,0.933,1.042,9.271,61.938,-11.883
16:06:04:124,15.382,-2.022,-0.556,2.634,8.284,70.429,-18.473
16:06:04:125,15.383,-1.636,-1.160,3.094,6.946,72.899,-21.594
16:06:04:172,15.430,-0.709,-0.057,2.008,2.956,69.905,-23.043
16:06:04:172,15.430,1.352,3.205,-1.091,1.231,67.686,-21.760
16:06:04:194,15.452,-0.491,0.520,-0.551,5.539,72.132,-15.093
16:06:04:22,15.478,-0.627,-1.628,0.322,7.549,80.661,-7.141
16:06:04:246,15.504,-0.572,0.094,0.949,6.166,83.405,-3.449
16:06:04:272,15.530,-0.090,0.379,0.917,3.838,85.276,0.874
16:06:04:327,15.586,-0.123,-0.152,0.036,4.022,83.402,2.610
16:06:04:328,15.587,0.060,0.392,0.194,3.577,80.222,4.352
16:06:04:353,15.611,0.228,-0.119,-0.031,3.310,78.827,5.749
16:06:04:379,15.637,0.010,0.089,0.035,2.249,78.556,7.036
16:06:04:462,15.720,-0.160,0.115,0.108,0.802,78.805,8.288
16:06:04:463,15.721,-0.128,0.230,0.307,0.209,78.695,9.176
16:06:04:464,15.722,-0.267,-0.135,-0.302,0.021,76.087,10.637
16:06:04:482,15.740,-0.095,0.177,-0.290,-0.015,74.158,11.716
16:06:04:508,15.767,0.113,0.221,-0.211,0.089,72.385,13.799
16:06:04:535,15.793,-0.086,0.274,-0.378,0.739,71.076,16.085
16:06:04:561,15.819,-0.063,0.461,-0.591,1.478,69.874,17.882
16:06:04:588,15.846,0.112,0.308,-0.895,3.564,68.379,21.319
16:06:04:613,15.871,0.265,0.367,-1.213,5.428,67.828,24.247
16:06:04:67,15.928,0.072,0.147,-1.838,9.355,67.111,29.196
16:06:04:671,15.929,-0.236,0.072,-2.160,15.180,67.011,34.837
16:06:04:692,15.950,-0.113,0.790,-2.415,18.374,68.463,39.928
16:06:04:719,15.977,-0.201,0.803,-0.391,23.051,73.097,48.294
16:06:04:772,16.030,-0.263,-1.584,-1.907,28.570,74.043,52.932
16:06:04:8,16.058,0.580,-1.461,-0.648,32.099,73.914,55.395
16:06:04:851,16.109,-0.228,-1.322,-0.498,28.270,74.408,50.229
16:06:04:964,16.222,0.052,-0.634,-0.449,22.826,73.514,41.542
16:06:04:965,16.223,0.007,-0.776,-0.517,20.024,71.933,34.714
16:06:04:966,16.224,-0.295,-0.351,-0.613,14.568,70.440,23.561
16:06:04:966,16.224,-0.128,0.249,-0.342,10.699,70.356,15.510
16:06:04:988,16.246,-0.150,0.707,-0.174,4.707,71.277,3.196
16:06:04:988,16.246,-0.446,1.480,0.930,-1.707,75.461,-8.770
16:06:04:988,16.246,-0.479,0.737,2.058,-4.523,79.644,-15.747
16:06:05:009,16.267,-0.056,-0.366,2.723,-7.100,85.569,-23.983
16:06:05:035,16.293,0.077,-1.226,3.376,-7.872,88.673,-27.255
16:06:05:089,16.347,0.242,-0.952,2.993,-8.833,89.438,-27.012
16:06:05:09,16.348,-0.501,1.647,-2.010,-7.972,89.060,-24.028
16:06:05:171,16.429,2.502,2.101,2.163,-7.199,88.666,-20.281
16:06:05:171,16.429,-0.344,-2.420,0.558,-2.214,94.106,-12.438
16:06:05:172,16.430,-0.464,-0.492,0.480,-1.916,96.359,-8.281
16:06:05:192,16.450,-0.056,0.679,1.735,-4.084,100.245,-3.455
16:06:05:22,16.478,0.259,0.030,0.186,-4.477,99.986,-1.154
16:06:05:243,16.501,0.014,0.089,0.216,-3.970,96.148,1.324
16:06:05:359,16.617,0.020,-0.300,-0.340,-4.043,92.567,3.340
16:06:05:359,16.617,-0.059,0.180,-0.136,-4.553,91.484,4.465
16:06:05:359,16.617,-0.111,-0.077,-0.173,-5.483,91.084,6.037
16:06:05:36,16.618,-0.193,0.166,0.161,-6.112,91.426,6.926
16:06:05:375,16.633,-0.068,0.176,0.230,-6.690,90.585,8.759
16:06:05:429,16.687,-0.120,0.136,-0.176,-6.449,87.476,10.945
16:06:05:456,16.714,-0.192,0.028,-0.354,-6.093,85.464,12.586
16:06:05:457,16.715,-0.029,0.209,-0.403,-5.275,83.688,15.347
16:06:05:479,16.738,-0.104,0.598,-0.294,-4.641,82.895,17.501
16:06:05:506,16.764,-0.078,0.326,-0.842,-2.649,80.902,21.255
16:06:05:612,16.870,0.072,0.441,-1.285,-0.922,79.902,24.135
16:06:05:644,16.902,-0.129,0.253,-1.724,2.608,78.885,29.290
16:06:05:645,16.903,-0.280,0.249,-1.936,8.482,77.812,34.956
16:06:05:646,16.904,-0.521,0.219,-2.607,13.151,77.941,39.538
16:06:05:669,16.927,-0.632,0.193,-1.314,17.628,81.753,48.166
16:06:05:669,16.927,-1.046,-0.197,-1.435,22.760,83.782,53.736
16:06:05:69,16.948,-0.226,-1.868,-1.929,29.963,84.000,59.305
16:06:05:716,16.974,0.491,-1.492,-0.107,33.704,83.939,59.087
16:06:05:797,17.055,0.031,-1.379,-0.310,31.105,84.197,56.505
16:06:05:856,17.114,0.031,-0.968,-0.370,26.134,84.104,49.248
16:06:05:857,17.115,0.104,-0.779,-0.322,22.375,82.229,42.849
16:06:05:858,17.116,0.057,-0.655,-0.612,17.100,80.167,31.663
16:06:05:858,17.116,0.005,-0.038,-0.469,13.343,79.128,22.931
16:06:05:901,17.159,0.012,0.368,-0.348,7.932,78.717,9.936
16:06:05:927,17.185,-0.077,1.394,0.584,2.178,79.660,-3.335
16:06:05:979,17.237,-0.076,1.460,1.544,-1.608,81.984,-11.358
16:06:06:013,17.271,-0.112,0.380,2.787,-4.393,87.703,-21.187
16:06:06:013,17.271,0.220,-1.013,3.133,-4.602,91.609,-25.784
16:06:06:013,17.271,0.120,-1.480,3.394,-4.250,96.013,-28.398
16:06:06:033,17.291,-0.457,0.440,1.460,-4.000,95.143,-25.474
16:06:06:058,17.316,-1.116,1.798,-3.059,-3.047,93.640,-22.279
16:06:06:084,17.342,-0.402,0.853,3.162,-2.789,94.328,-17.670
16:06:06:139,17.397,-0.037,-2.253,0.335,0.650,98.262,-11.589
16:06:06:14,17.398,0.334,1.023,1.454,-0.966,102.190,-5.960
16:06:06:162,17.420,0.244,0.125,0.813,-2.130,103.503,-2.904
16:06:06:215,17.474,0.060,0.010,0.141,-1.243,100.816,-0.213
16:06:06:244,17.502,0.084,0.042,0.151,-1.082,97.478,1.837
16:06:06:245,17.503,0.054,-0.065,-0.185,-1.326,95.823,2.871
16:06:06:268,17.526,-0.222,-0.064,0.044,-2.183,94.708,4.118
16:06:06:353,17.611,-0.199,-0.029,0.058,-2.585,94.034,4.910
16:06:06:353,17.611,-0.165,0.072,0.300,-3.081,93.391,5.865
16:06:06:353,17.611,-0.207,0.152,0.019,-3.263,90.931,7.356
16:06:06:431,17.689,-0.221,-0.085,-0.334,-2.765,88.807,8.588
16:06:06:431,17.689,-0.155,0.208,-0.454,-1.898,86.615,10.964
16:06:06:432,17.690,0.172,0.454,-0.283,-1.179,85.967,13.140
16:06:06:453,17.711,0.003,0.581,-0.550,0.468,85.246,17.064
16:06:06:478,17.736,0.051,0.437,-1.149,3.028,84.438,21.735
16:06:06:505,17.763,-0.048,0.316,-1.518,5.396,84.356,25.349
16:06:06:583,17.842,-0.220,0.344,-2.288,10.649,83.393,31.353
16:06:06:613,17.871,-0.670,0.591,-2.538,15.748,81.947,35.291
16:06:06:613,17.871,-0.749,-0.483,-1.057,20.004,85.807,43.587
16:06:06:669,17.927,0.029,0.802,0.470,21.889,89.836,48.544
16:06:06:669,17.927,-1.263,-2.171,-1.818,27.941,91.423,53.173
16:06:06:67,17.928,-0.147,-1.553,-0.297,30.686,91.477,50.911
16:06:06:72,17.978,-0.473,-0.844,-0.134,28.891,93.625,48.049
16:06:06:72,17.978,-0.700,-0.788,-0.045,24.729,97.530,41.748
16:06:06:741,17.999,-0.855,-0.614,-0.047,22.048,100.556,36.349
16:06:06:794,18.052,-0.952,-0.509,0.209,18.657,105.561,26.765
16:06:06:852,18.110,-1.109,0.015,0.469,16.885,108.554,19.357
16:06:06:852,18.110,-0.668,0.365,0.592,14.425,110.485,7.283
16:06:06:853,18.111,-0.182,0.441,0.707,11.381,111.954,-3.849
16:06:06:93,18.188,0.159,1.070,1.341,8.950,115.838,-9.576
16:06:06:93,18.188,0.782,0.134,2.601,7.421,126.238,-15.504
16:06:06:931,18.189,1.751,-1.244,3.412,8.430,133.236,-17.842
16:06:06:951,18.209,1.409,0.022,2.048,8.441,136.794,-18.687
16:06:06:976,18.234,-1.112,2.154,-1.092,7.330,135.375,-16.236
16:06:07:002,18.260,-0.659,0.575,0.658,9.756,137.731,-12.204
16:06:07:057,18.315,0.199,-1.500,0.439,10.721,144.006,-5.264
16:06:07:113,18.371,0.218,1.396,0.915,10.726,146.513,-1.096
16:06:07:113,18.371,0.652,-0.139,0.489,8.367,149.109,3.446
16:06:07:114,18.372,0.051,0.154,-0.122,8.895,146.915,5.232
16:06:07:135,18.393,0.046,0.301,-0.027,8.653,145.440,6.371
16:06:07:16,18.419,-0.033,-0.006,-0.212,8.433,144.264,7.860
16:06:07:187,18.445,-0.036,0.036,0.017,8.080,144.305,8.888
16:06:07:215,18.473,0.055,0.013,0.060,7.894,144.967,9.995
16:06:07:216,18.474,-0.278,0.135,0.086,7.546,144.522,10.751
16:06:07:24,18.498,-0.315,-0.006,-0.108,7.581,142.887,11.976
16:06:07:265,18.523,-0.267,0.111,-0.041,7.960,141.866,13.573
16:06:07:323,18.581,-0.284,0.200,-0.009,8.296,141.553,14.850
16:06:07:323,18.581,-0.527,0.244,-0.050,9.468,140.796,16.731
16:06:07:402,18.660,-0.611,0.263,-0.204,10.714,139.981,18.256
16:06:07:403,18.661,-0.967,0.178,-0.488,13.321,139.043,21.007
16:06:07:403,18.661,-1.630,-0.139,-0.397,15.704,138.896,23.257
16:06:07:508,18.766,-1.583,-0.072,-0.270,20.329,140.101,27.578
16:06:07:508,18.766,-2.493,0.418,0.062,25.291,143.010,34.364
16:06:07:509,18.767,-0.985,0.265,0.381,28.121,146.599,40.340
16:06:07:607,18.865,-0.412,0.806,1.401,35.062,152.535,49.796
16:06:07:666,18.924,-1.320,-1.640,-0.477,38.252,155.603,55.156
16:06:07:667,18.925,-0.608,-0.712,0.111,37.721,159.236,56.139
16:06:07:668,18.926,-0.601,-1.114,0.245,33.399,162.990,55.071
16:06:07:823,19.081,0.165,-1.095,0.378,30.147,165.674,51.979
16:06:07:824,19.082,-0.292,-0.642,0.244,24.895,167.674,44.278
16:06:07:824,19.082,-0.466,-0.768,0.419,21.692,167.984,37.841
16:06:07:907,19.166,-0.462,-0.105,0.501,16.698,169.256,26.551
16:06:07:907,19.166,-0.294,0.308,0.662,12.090,170.726,13.606
16:06:07:908,19.166,0.159,0.918,0.751,8.591,171.753,4.794
16:06:07:908,19.166,1.578,1.083,0.439,2.626,174.848,-6.197
16:06:08:009,19.267,2.327,0.672,0.117,0.398,177.870,-12.011
16:06:08:01,19.268,2.897,-0.414,0.029,-2.059,-176.373,-18.163
16:06:08:01,19.268,2.999,-0.613,-0.187,-3.026,-173.033,-20.205
16:06:08:011,19.269,1.943,-0.227,-0.974,-2.888,-172.637,-18.097
16:06:08:035,19.293,-0.066,2.107,-1.156,-0.990,-172.322,-12.964
16:06:08:036,19.294,0.368,-1.283,0.742,-0.295,-169.900,-9.024
16:06:08:037,19.295,0.703,-0.017,0.720,0.305,-165.493,-2.295
16:06:08:195,19.453,0.485,-0.049,-0.108,-1.942,-162.754,4.347
16:06:08:195,19.453,-0.171,0.012,-0.052,-1.574,-166.769,6.302
16:06:08:196,19.454,-0.126,0.183,0.113,-1.767,-168.281,7.183
16:06:08:197,19.455,-0.370,-0.180,0.167,-1.969,-169.813,8.951
16:06:08:219,19.477,-0.151,-0.063,0.009,-2.274,-170.087,9.845
16:06:08:22,19.478,0.239,0.051,-0.028,-2.796,-169.686,11.226
16:06:08:22,19.478,0.002,0.141,0.264,-2.949,-171.403,12.928
16:06:08:221,19.479,-0.144,-0.100,0.331,-2.636,-173.464,14.073
16:06:08:377,19.635,-0.424,0.250,0.165,-2.244,-175.765,16.239
16:06:08:378,19.636,-0.463,0.312,-0.074,-1.691,-176.664,17.950
16:06:08:378,19.636,-0.588,0.304,0.019,-0.434,-177.483,21.216
16:06:08:379,19.637,-0.861,0.396,0.336,0.751,-177.935,23.857
16:06:08:402,19.660,-1.240,0.147,0.369,3.493,-178.284,28.653
16:06:08:403,19.661,-1.752,0.223,0.519,7.582,-178.464,34.564
16:06:08:404,19.662,-2.089,0.188,0.649,12.767,-179.976,38.404
16:06:08:404,19.662,-2.443,-0.032,1.115,21.037,179.523,45.350
16:06:08:42,19.678,-0.853,-0.344,0.386,25.010,-177.692,50.576
16:06:08:477,19.736,-0.166,0.599,1.211,30.744,-173.971,57.174
16:06:08:477,19.736,-0.958,-1.982,0.053,33.369,-171.308,58.582
16:06:08:526,19.784,-0.384,-1.470,-0.007,30.770,-169.075,56.923
16:06:08:554,19.812,-0.094,-0.726,0.548,22.219,-165.329,52.183
16:06:08:555,19.813,0.015,-0.530,0.337,17.817,-163.234,47.402
16:06:08:579,19.837,-0.186,-0.563,0.407,14.636,-161.784,37.690
16:06:08:633,19.891,-0.102,-0.288,0.439,12.924,-161.672,25.902
16:06:08:688,19.946,0.011,0.120,0.455,11.446,-161.934,17.433
16:06:08:689,19.947,0.037,0.401,0.324,8.588,-162.211,4.752
16:06:08:69,19.948,0.741,0.998,0.181,5.633,-160.212,-2.883
16:06:08:709,19.967,1.219,0.471,-0.376,2.026,-154.650,-11.961
16:06:08:735,19.993,2.131,0.261,-1.146,0.638,-148.813,-16.528
16:06:08:761,20.019,3.004,-0.909,-1.418,1.500,-141.310,-20.594
16:06:08:873,20.131,2.108,-0.371,-1.343,1.246,-140.003,-20.463
16:06:08:874,20.132,0.262,0.689,-1.920,0.711,-140.317,-18.410
16:06:08:875,20.133,0.703,0.685,-0.178,3.372,-139.141,-13.312
16:06:08:953,20.211,0.809,-0.438,-0.761,4.088,-135.871,-8.590
16:06:08:954,20.212,0.816,0.180,-0.307,3.999,-132.217,-2.982
16:06:08:954,20.212,0.592,0.776,-0.517,2.305,-129.753,-0.066
16:06:09:004,20.262,0.274,-0.209,-0.244,2.919,-130.226,3.035
16:06:09:004,20.262,0.189,0.029,-0.238,3.126,-131.942,5.571
16:06:09:005,20.263,-0.322,-0.103,-0.024,3.173,-133.504,6.820
16:06:09:024,20.282,-0.225,0.001,0.074,2.899,-134.558,7.929
16:06:09:05,20.308,-0.308,0.058,0.023,2.339,-134.574,8.918
16:06:09:13,20.389,0.106,0.170,-0.222,2.131,-134.366,10.382
16:06:09:161,20.419,0.064,0.018,0.391,2.059,-136.049,11.894
16:06:09:161,20.419,0.020,-0.015,0.472,2.203,-137.284,13.049
16:06:09:162,20.420,-0.234,0.155,0.133,2.588,-138.680,14.989
16:06:09:181,20.439,-0.347,0.077,0.286,3.312,-139.383,16.368
16:06:09:207,20.465,-0.205,0.344,0.393,4.437,-139.780,18.722
16:06:09:263,20.521,-0.421,0.176,0.753,6.374,-140.235,21.421
16:06:09:263,20.521,-0.573,0.115,0.972,8.311,-140.290,23.705
16:06:09:347,20.605,-0.732,-0.013,1.532,12.228,-139.210,28.236
16:06:09:348,20.606,-0.818,0.297,1.505,15.923,-138.718,31.872
16:06:09:349,20.607,-0.598,0.170,2.203,21.748,-136.388,38.886
16:06:09:35,20.608,0.106,0.256,1.216,24.921,-132.997,44.321
16:06:09:421,20.679,0.473,0.451,1.461,32.308,-128.632,52.089
16:06:09:421,20.679,-0.431,-1.598,1.633,34.173,-124.615,56.953
16:06:09:612,20.870,-0.226,-1.241,0.569,33.626,-120.047,57.765
16:06:09:612,20.870,0.299,-1.006,0.650,28.577,-115.400,55.971
16:06:09:613,20.871,0.350,-0.994,0.170,24.523,-112.401,52.850
16:06:09:613,20.871,0.104,-0.815,0.361,19.404,-110.140,45.430
16:06:09:638,20.896,0.346,-0.459,0.533,14.597,-107.442,35.773
16:06:09:638,20.896,0.502,-0.270,0.321,12.051,-105.449,28.404
16:06:09:638,20.896,0.643,0.168,0.178,8.726,-103.623,16.083
16:06:09:639,20.897,0.687,0.536,0.157,6.034,-102.966,7.453
16:06:09:656,20.914,0.572,1.692,-0.975,0.768,-100.250,-4.097
16:06:09:657,20.915,0.316,0.438,-1.265,-1.533,-97.866,-10.189
16:06:09:738,20.996,0.356,-0.514,-2.822,-4.024,-92.083,-17.534
16:06:09:739,20.997,0.305,-0.692,-2.858,-4.694,-87.745,-20.268
16:06:09:74,20.998,-0.963,-0.496,-3.124,-4.978,-86.439,-19.609
16:06:09:787,21.045,0.436,1.757,0.069,-3.173,-85.932,-14.168
16:06:09:812,21.070,-0.042,-0.315,-0.489,-3.062,-84.503,-10.945
16:06:09:838,21.096,0.092,-0.623,-0.627,-1.770,-80.292,-4.159
16:06:09:926,21.184,-0.316,0.597,-1.117,-4.691,-75.857,0.144
16:06:09:926,21.184,-0.190,0.098,-0.597,-5.428,-76.039,1.989
16:06:09:926,21.184,-0.255,0.100,-0.080,-5.675,-79.642,4.420
16:06:09:927,21.185,-0.157,-0.034,0.208,-6.151,-81.382,5.614
16:06:09:97,21.228,0.036,0.052,0.198,-7.365,-83.061,7.469
16:06:10:024,21.282,-0.073,0.136,0.278,-8.554,-83.887,8.927
16:06:10:102,21.360,0.084,0.029,-0.220,-9.191,-84.067,9.965
16:06:10:135,21.393,0.098,-0.066,0.192,-9.602,-86.505,11.796
16:06:10:136,21.394,0.074,0.109,0.296,-9.736,-88.496,13.204
16:06:10:137,21.395,0.038,0.178,0.260,-9.760,-90.133,15.757
16:06:10:138,21.396,-0.058,0.241,0.236,-9.584,-91.027,17.540
16:06:10:155,21.413,0.031,0.339,0.599,-8.944,-92.882,20.599
16:06:10:156,21.414,0.078,0.224,0.881,-7.402,-94.788,24.367
16:06:10:179,21.437,-0.255,0.312,1.127,-6.142,-95.505,27.407
16:06:10:205,21.463,-0.153,-0.010,1.555,-3.141,-96.314,32.564
16:06:10:232,21.490,0.129,-0.042,1.842,0.221,-97.048,36.137
16:06:10:316,21.574,0.472,-0.109,2.304,5.828,-96.564,42.478
16:06:10:316,21.574,0.880,0.489,0.992,7.504,-91.773,50.099
16:06:10:317,21.575,-0.588,1.717,-0.566,11.328,-89.662,55.459
16:06:10:336,21.594,0.878,-1.796,1.655,21.628,-90.514,59.852
16:06:10:391,21.649,-0.349,-1.719,0.607,25.830,-91.498,60.252
16:06:10:392,21.650,-0.087,-1.027,0.751,25.959,-91.448,57.534
16:06:10:415,21.673,0.150,-0.975,-0.269,23.881,-91.223,54.039
16:06:10:441,21.699,-0.078,-1.063,0.396,19.860,-93.685,45.676
16:06:10:525,21.783,-0.113,-0.814,0.668,15.098,-96.516,35.426
16:06:10:526,21.784,0.033,-0.246,0.606,11.076,-97.182,27.831
16:06:10:527,21.785,0.013,0.278,0.369,5.454,-97.343,15.723
16:06:10:546,21.804,0.021,0.820,-0.008,1.762,-97.132,7.461
16:06:10:572,21.830,-0.051,1.717,-0.976,-4.494,-93.946,-4.663
16:06:10:628,21.886,-0.121,0.605,-2.240,-7.667,-89.378,-14.849
16:06:10:629,21.887,-0.115,-0.327,-2.367,-9.223,-86.619,-19.967
16:06:10:709,21.967,-0.125,-0.931,-2.952,-10.521,-83.251,-23.012
16:06:10:71,21.968,-0.400,-0.393,-2.425,-10.742,-82.962,-22.194
16:06:10:711,21.969,-0.157,1.986,2.026,-8.834,-83.276,-17.548
16:06:10:758,22.016,-0.483,0.290,-1.032,-7.261,-81.080,-12.064
16:06:10:918,22.176,0.573,-1.859,-0.930,-4.959,-77.703,-7.300
16:06:10:918,22.176,-0.030,0.339,-0.922,-6.937,-73.369,-2.919
16:06:10:941,22.199,-0.592,0.285,-0.932,-8.028,-71.999,-0.379
16:06:10:975,22.233,-0.181,0.038,-0.177,-7.541,-75.133,2.447
16:06:10:976,22.234,0.079,0.015,0.093,-7.522,-77.738,3.941
16:06:10:977,22.235,-0.146,0.112,0.214,-8.177,-80.106,5.815
16:06:10:978,22.236,0.079,-0.083,0.286,-8.662,-81.151,7.496
16:06:10:998,22.256,-0.021,0.119,-0.012,-9.190,-81.343,8.508
16:06:10:998,22.256,0.104,0.226,-0.209,-9.479,-82.330,10.501
16:06:10:999,22.257,0.175,0.115,0.302,-9.234,-84.342,11.936
16:06:11:078,22.336,0.125,0.199,0.538,-8.590,-87.742,14.316
16:06:11:078,22.336,-0.093,0.272,0.381,-7.691,-89.350,17.094
16:06:11:079,22.337,0.039,0.318,0.469,-6.842,-90.038,19.287
16:06:11:099,22.357,0.210,0.327,0.873,-4.905,-91.248,23.196
16:06:11:124,22.382,0.099,0.237,1.158,-3.143,-91.776,26.273
16:06:11:15,22.408,0.227,0.115,1.603,0.409,-92.235,31.726
16:06:11:176,22.434,0.423,0.173,1.841,4.337,-93.042,35.620
16:06:11:203,22.462,0.662,0.116,2.447,12.072,-93.788,42.303
16:06:11:256,22.514,0.678,0.086,1.210,17.086,-90.336,50.268
16:06:11:284,22.542,1.005,1.142,-0.240,22.593,-88.429,55.398
16:06:11:285,22.543,0.185,-2.214,1.372,28.483,-88.304,59.143
16:06:11:335,22.593,-0.145,-1.122,0.808,29.763,-87.548,58.587
16:06:11:364,22.622,0.143,-1.249,-0.153,25.301,-85.467,55.503
16:06:11:389,22.647,0.109,-0.820,0.215,19.291,-84.780,47.920
16:06:11:39,22.648,0.142,-0.652,0.474,16.552,-85.791,41.475
16:06:11:415,22.673,0.275,-0.503,0.522,12.273,-86.904,30.475
16:06:11:441,22.699,0.286,0.061,0.324,9.062,-86.866,22.332
16:06:11:467,22.725,0.182,0.487,0.268,4.603,-86.747,9.665
16:06:11:52,22.778,0.068,1.460,-0.840,1.059,-85.452,1.303
16:06:11:547,22.805,-0.221,0.853,-1.442,-3.815,-81.076,-9.337
16:06:11:605,22.863,-0.813,0.397,-2.121,-6.290,-74.713,-17.521
16:06:11:606,22.864,-0.720,-0.633,-2.626,-6.115,-69.329,-21.255
16:06:11:606,22.864,-1.474,-0.915,-2.809,-5.361,-64.539,-22.789
16:06:11:607,22.865,-0.693,1.467,-0.112,-5.039,-64.188,-21.503
16:06:11:679,22.937,-0.784,0.687,-1.064,-3.001,-63.936,-15.710
16:06:11:679,22.937,0.175,-1.751,-1.408,-0.846,-60.090,-9.100
16:06:11:704,22.962,-0.421,0.671,-1.378,-1.665,-57.794,-5.557
16:06:11:705,22.963,-0.425,-0.414,-0.259,-2.650,-57.576,-0.901
16:06:11:844,23.102,-0.303,0.203,0.039,-2.380,-59.477,0.979
16:06:11:844,23.102,-0.060,0.173,0.043,-3.034,-61.052,3.174
16:06:11:844,23.102,0.017,-0.011,0.037,-3.179,-61.675,4.405
16:06:11:845,23.103,-0.018,0.063,0.072,-3.330,-62.010,6.105
16:06:11:861,23.119,-0.106,-0.021,-0.023,-3.288,-62.021,7.358
16:06:11:862,23.120,0.062,0.046,-0.007,-3.328,-62.375,8.278
16:06:11:887,23.145,0.178,0.220,0.131,-3.503,-63.681,9.859
16:06:11:912,23.170,0.082,-0.026,0.131,-3.270,-64.661,11.077
16:06:11:968,23.226,0.007,0.233,0.373,-2.757,-66.045,13.061
16:06:11:969,23.227,0.073,0.014,0.577,-1.602,-67.208,15.433
16:06:11:99,23.248,0.365,0.258,0.434,-0.770,-67.003,17.466
16:06:12:045,23.303,0.507,0.248,0.526,0.782,-66.356,21.214
16:06:12:046,23.304,0.766,0.264,1.219,2.574,-66.239,24.124
16:06:12:124,23.382,1.141,0.191,1.572,6.512,-66.442,29.315
16:06:12:183,23.441,1.756,0.521,1.788,12.507,-66.794,35.120
16:06:12:184,23.442,1.911,0.553,1.540,15.275,-64.987,40.296
16:06:12:185,23.443,-0.355,0.836,-0.215,19.321,-59.638,48.062
16:06:12:185,23.443,1.827,-0.902,0.682,23.673,-58.144,51.652
16:06:12:229,23.487,0.994,-2.124,0.891,27.253,-57.126,52.605
16:06:12:256,23.514,0.554,-1.275,-0.025,27.263,-55.162,51.286
16:06:12:256,23.514,0.867,-0.967,-0.202,22.530,-49.886,46.577
16:06:12:337,23.596,0.973,-0.484,-0.316,17.276,-44.030,38.900
16:06:12:338,23.596,0.995,-0.258,-0.549,14.603,-39.486,32.926
16:06:12:339,23.597,0.672,0.002,-0.964,11.573,-32.084,23.028
16:06:12:469,23.727,0.377,0.301,-1.407,9.997,-27.664,15.947
16:06:12:47,23.728,-0.307,0.527,-1.489,7.475,-22.595,4.164
16:06:12:471,23.729,-1.197,0.966,-1.245,3.945,-18.557,-7.534
16:06:12:516,23.775,-2.500,1.140,-0.992,0.916,-14.872,-13.721
16:06:12:55,23.808,-3.230,-0.484,-1.006,-1.824,-10.465,-20.800
16:06:12:551,23.809,-2.570,-0.283,-0.237,-3.262,-9.112,-22.723
16:06:12:551,23.809,-2.516,0.163,1.125,-4.536,-8.919,-20.974
16:06:12:552,23.810,-1.542,0.728,0.440,-2.476,-7.165,-17.295
16:06:12:569,23.827,-0.393,-0.860,-0.281,-0.921,-3.523,-12.226
16:06:12:623,23.881,-0.861,-0.288,-0.831,-0.010,-0.520,-5.739
16:06:12:623,23.881,-1.264,0.790,0.188,-1.962,3.382,-2.711
16:06:12:646,23.904,-0.306,-0.099,0.064,-2.302,4.079,-0.008
16:06:12:672,23.930,-0.147,0.040,0.102,-2.546,2.268,1.191
16:06:12:73,23.988,0.115,-0.005,0.118,-3.350,-0.616,2.582
16:06:12:73,23.988,0.098,-0.028,0.089,-4.031,-1.930,3.457
16:06:12:751,24.009,0.264,-0.048,0.018,-5.082,-2.847,4.789
16:06:12:806,24.064,-0.265,0.143,-0.204,-6.267,-2.926,6.285
16:06:12:862,24.120,0.047,0.052,0.054,-6.776,-3.999,7.600
16:06:12:863,24.121,0.248,0.161,0.035,-6.651,-7.373,9.711
16:06:12:863,24.121,0.367,0.047,-0.064,-6.275,-9.191,11.358
16:06:12:882,24.140,0.322,0.192,-0.069,-5.450,-10.365,14.098
16:06:12:969,24.227,0.535,0.549,0.183,-4.299,-11.618,17.447
16:06:12:969,24.227,0.993,0.293,0.176,-2.799,-12.833,20.051
16:06:12:969,24.227,1.298,0.247,0.066,0.044,-13.412,24.753
16:06:12:99,24.248,1.835,0.355,0.019,2.377,-13.342,28.639
16:06:13:014,24.272,2.011,0.334,-0.346,8.201,-14.467,34.569
16:06:13:069,24.328,2.325,0.501,-0.305,12.835,-13.053,42.138
16:06:13:07,24.329,0.253,0.189,-0.093,15.451,-9.729,47.263
16:06:13:093,24.351,1.705,-0.809,-0.840,23.098,-7.961,53.439
16:06:13:119,24.377,0.360,-1.654,0.312,25.380,-7.185,55.510
16:06:13:145,24.403,0.735,-1.082,0.286,24.883,-4.904,54.148
16:06:13:199,24.457,-0.229,-0.891,-0.376,22.017,-2.894,51.555
16:06:13:225,24.483,0.230,-0.831,-0.261,17.978,-1.671,44.001
16:06:13:28,24.538,0.589,-0.664,-0.090,15.228,-3.210,33.948
16:06:13:338,24.596,0.340,-0.282,-0.161,13.024,-3.585,26.409
16:06:13:338,24.596,0.196,0.106,-0.249,9.231,-3.229,14.330
16:06:13:339,24.597,0.020,0.930,-0.383,6.493,-3.074,5.790
16:06:13:34,24.598,-0.886,1.577,-0.251,1.414,-0.525,-6.440
16:06:13:414,24.672,-1.911,0.500,0.148,-1.545,6.311,-15.850
16:06:13:414,24.672,-2.908,-0.320,0.323,-2.255,11.674,-20.556
16:06:13:414,24.672,-3.188,-1.328,0.383,-1.957,16.604,-24.688
16:06:13:434,24.692,-2.613,-0.696,1.074,-2.301,17.238,-24.530
16:06:13:487,24.745,2.053,2.642,-0.598,-1.645,16.008,-20.711
16:06:13:515,24.773,-1.306,-0.421,0.119,0.439,18.640,-15.750
16:06:13:516,24.774,-1.666,-1.544,0.183,2.598,23.112,-10.301
16:06:13:54,24.798,-1.074,0.596,0.269,0.830,27.097,-5.125
16:06:13:623,24.881,-0.415,-0.049,0.214,1.172,27.160,-2.603
16:06:13:624,24.882,-0.120,0.139,0.177,0.887,24.702,-0.479
16:06:13:624,24.882,0.107,0.061,0.059,0.680,23.141,0.574
16:06:13:671,24.929,0.136,-0.047,0.053,0.319,21.714,2.331
16:06:13:698,24.956,0.139,0.101,0.050,-0.038,21.362,3.787
16:06:13:726,24.984,-0.244,-0.044,0.110,-0.096,21.366,4.781
16:06:13:73,24.988,-0.082,0.182,-0.122,-0.195,20.248,6.155
16:06:13:78,25.038,-0.019,0.197,-0.219,-0.181,18.323,7.114
16:06:13:78,25.038,0.472,0.106,-0.038,0.289,15.407,8.605
16:06:13:801,25.059,0.510,0.215,-0.228,1.324,13.489,10.562
16:06:13:882,25.140,0.318,0.468,-0.125,2.167,13.581,12.603
16:06:13:915,25.173,0.801,0.444,-0.435,4.042,13.900,16.295
16:06:13:915,25.173,1.331,0.324,-0.752,6.023,13.864,19.245
16:06:13:916,25.174,1.705,0.168,-1.165,10.084,14.420,24.859
16:06:13:917,25.175,1.710,0.891,-1.471,13.620,14.507,29.020
16:06:13:991,25.249,1.630,0.738,-1.862,18.502,16.150,36.779
16:06:13:992,25.250,-1.006,1.138,0.196,23.900,21.068,45.087
16:06:13:992,25.250,1.143,-1.334,-2.034,28.991,22.486,49.006
16:06:14:011,25.269,0.835,-1.926,-0.410,30.584,25.507,51.330
16:06:14:038,25.296,0.102,-0.884,-1.029,29.557,28.709,50.602
16:06:14:064,25.322,-0.491,-0.893,-0.615,25.345,35.276,47.062
16:06:14:092,25.350,-0.284,-0.729,-0.777,21.749,40.964,39.750
16:06:14:145,25.403,-0.407,-0.409,-1.055,19.090,44.852,33.415
16:06:14:146,25.404,-1.090,0.047,-0.793,16.242,51.327,22.512
16:06:14:198,25.456,-1.262,0.257,-0.537,14.909,54.345,14.476
16:06:14:198,25.457,-1.086,0.591,-0.124,12.716,56.312,1.616
16:06:14:221,25.479,-1.441,0.912,0.671,10.640,58.412,-6.189
16:06:14:248,25.506,-1.416,0.467,1.464,8.368,67.041,-14.336
16:06:14:273,25.531,-1.741,-1.038,3.239,7.924,77.328,-19.061
16:06:14:3,25.558,-1.433,-1.302,3.084,7.816,80.610,-21.001
16:06:14:326,25.584,0.862,0.329,1.613,5.251,78.598,-20.742
16:06:14:381,25.639,-1.367,3.056,-1.001,3.872,76.204,-18.755
16:06:14:382,25.640,-0.092,-0.828,2.236,7.766,81.615,-12.574
16:06:14:405,25.663,-0.332,-0.821,0.936,8.118,88.647,-4.497
16:06:14:431,25.689,-0.927,0.820,1.570,6.163,90.833,-1.360
16:06:14:458,25.716,-0.205,-0.093,0.209,4.732,91.256,1.973
16:06:14:484,25.742,-0.099,0.126,0.170,4.381,89.788,3.157
16:06:14:512,25.770,0.229,0.021,-0.127,3.621,87.386,4.694
16:06:14:537,25.795,0.047,0.024,0.101,2.489,86.780,5.881
16:06:14:562,25.820,0.077,0.030,-0.043,1.331,86.822,6.638
16:06:14:588,25.847,-0.209,0.089,0.186,-0.197,86.554,7.824
16:06:14:615,25.873,-0.194,0.259,0.058,-0.839,85.202,8.937
16:06:14:641,25.899,-0.119,0.005,-0.153,-0.993,82.300,10.680
16:06:14:667,25.925,-0.217,0.137,-0.404,-0.873,80.651,12.166
16:06:14:694,25.952,0.099,0.325,-0.302,-0.410,79.002,14.583
16:06:14:72,25.978,-0.041,0.432,-0.645,0.933,77.571,17.758
16:06:14:749,26.007,-0.063,0.363,-0.913,2.374,76.494,20.369
16:06:14:833,26.091,0.051,0.210,-1.253,5.416,75.473,25.213
16:06:14:833,26.091,-0.269,0.085,-2.049,8.198,74.941,28.920
16:06:14:834,26.092,-0.416,0.130,-1.964,14.138,73.887,34.839
16:06:14:908,26.166,-0.322,0.260,-0.637,22.182,78.558,48.139
16:06:14:908,26.166,-0.679,-1.063,-1.665,29.442,79.735,54.552
16:06:14:93,26.188,-0.104,-2.141,-1.775,31.218,79.575,56.064
16:06:14:958,26.216,0.105,-0.949,-0.494,30.142,80.461,54.470
16:06:14:983,26.241,-0.154,-1.279,-0.297,27.365,81.172,51.169
16:06:15:009,26.267,-0.294,-0.889,0.043,21.969,81.483,43.682
16:06:15:064,26.322,-0.230,-0.566,-0.555,16.848,80.929,33.726
16:06:15:065,26.323,-0.298,-0.338,-0.581,13.983,80.371,26.168
16:06:15:146,26.404,-0.311,0.081,-0.171,9.146,80.073,14.148
16:06:15:147,26.405,-0.289,0.523,-0.182,5.653,80.421,5.914
16:06:15:148,26.406,-0.259,1.504,1.032,-0.875,83.230,-6.390
16:06:15:166,26.424,-0.011,0.763,1.999,-5.596,88.106,-16.627
16:06:15:193,26.451,0.186,0.158,3.151,-7.367,92.396,-21.811
16:06:15:219,26.477,0.601,-1.351,3.506,-8.600,96.088,-25.124
16:06:15:245,26.503,0.153,-0.522,3.476,-8.757,96.151,-23.748
16:06:15:271,26.529,0.674,2.047,-2.993,-7.460,95.071,-19.119
16:06:15:299,26.557,-0.270,0.188,1.646,-6.527,95.179,-16.233
16:06:15:324,26.582,-0.251,-2.104,1.252,-2.920,101.800,-8.750
16:06:15:35,26.608,-0.344,0.493,1.129,-5.260,105.441,-4.033
16:06:15:463,26.721,0.481,0.541,1.487,-6.427,105.681,-1.680
16:06:15:463,26.721,0.221,-0.049,0.135,-6.005,100.983,1.306
16:06:15:463,26.721,0.026,0.096,-0.222,-6.182,98.563,2.855
16:06:15:538,26.796,-0.200,0.024,-0.331,-6.724,96.456,4.906
16:06:15:596,26.854,-0.157,-0.042,-0.238,-7.024,96.218,6.224
16:06:15:596,26.854,-0.080,0.090,0.442,-7.545,96.541,8.135
16:06:15:597,26.855,-0.193,-0.018,0.015,-7.497,94.567,10.416
16:06:15:598,26.856,-0.187,0.095,-0.362,-7.117,92.020,11.953
16:06:15:616,26.874,-0.136,0.191,-0.549,-6.329,89.197,14.495
16:06:15:668,26.926,-0.139,0.395,-0.245,-5.291,88.090,17.743
16:06:15:669,26.927,-0.038,0.500,-0.450,-4.386,86.978,20.274
16:06:15:724,26.982,-0.163,0.093,-1.060,-1.729,84.901,24.588
16:06:15:725,26.983,-0.022,0.151,-1.341,0.533,83.921,28.006
16:06:15:725,26.983,-0.176,0.154,-1.992,5.923,82.359,33.881
16:06:15:744,27.002,-0.796,0.434,-2.655,10.889,81.588,38.534
16:06:15:771,27.029,-0.652,0.206,-2.500,16.154,84.422,47.379
16:06:15:827,27.085,-1.106,2.018,0.276,25.505,86.862,55.854
16:06:15:827,27.085,-0.946,-1.636,-1.606,30.884,87.602,59.536
16:06:15:848,27.106,0.367,-1.508,-0.225,34.505,87.645,60.624
16:06:15:959,27.217,0.033,-1.187,-0.158,32.362,87.852,58.749
16:06:15:96,27.218,-0.216,-1.267,0.314,27.252,89.187,52.423
16:06:15:99,27.248,-0.011,-0.846,-0.364,21.605,86.799,42.567
16:06:15:99,27.248,-0.028,-0.885,-0.491,18.369,85.301,35.060
16:06:15:99,27.248,-0.219,-0.190,-0.427,12.912,84.309,22.324
16:06:15:991,27.249,-0.210,0.080,-0.101,9.223,84.099,13.642
16:06:16:061,27.319,-0.229,0.553,0.554,3.242,84.104,0.556
16:06:16:062,27.320,0.000,1.252,1.106,-1.071,85.336,-7.336
16:06:16:148,27.406,0.298,1.049,2.430,-5.885,90.956,-17.350
16:06:16:149,27.407,0.451,-0.462,2.658,-7.539,96.380,-24.821
16:06:16:149,27.407,0.619,-1.386,3.128,-7.971,99.264,-26.817
16:06:16:149,27.407,0.626,-0.709,2.687,-8.608,99.287,-25.192
16:06:16:164,27.422,-0.012,2.873,-2.571,-7.996,98.190,-22.719
16:06:16:248,27.506,0.562,0.774,2.565,-6.792,98.236,-18.105
16:06:16:249,27.507,-0.045,-2.689,0.715,-3.146,102.237,-10.271
16:06:16:25,27.508,-1.065,-0.125,1.561,-4.722,103.927,-7.099
16:06:16:296,27.554,0.568,0.079,0.908,-6.083,105.071,-3.173
16:06:16:353,27.611,0.135,-0.189,0.109,-5.578,101.628,-1.001
16:06:16:354,27.612,-0.003,-0.037,-0.250,-5.861,98.091,1.327
16:06:16:355,27.613,-0.203,0.105,0.123,-6.235,97.248,2.266
16:06:16:403,27.661,-0.278,-0.202,-0.241,-6.468,96.012,4.201
16:06:16:429,27.687,-0.100,0.076,-0.048,-6.599,95.843,5.269
16:06:16:455,27.713,-0.041,0.000,0.500,-6.657,95.607,6.055
16:06:16:456,27.714,-0.105,0.144,-0.092,-6.517,92.482,7.599
16:06:16:506,27.764,-0.064,0.055,-0.235,-6.009,90.028,8.808
16:06:16:534,27.792,-0.227,0.062,-0.509,-4.876,87.384,11.061
16:06:16:535,27.793,0.040,0.373,-0.267,-3.615,86.336,14.131
16:06:16:56,27.818,-0.007,0.271,-0.490,-2.272,85.517,16.660
16:06:16:584,27.842,-0.057,0.519,-0.994,0.273,84.442,21.176
16:06:16:668,27.926,0.137,0.238,-1.645,2.726,83.882,24.727
16:06:16:669,27.927,-0.067,0.403,-2.210,8.336,82.472,30.605
16:06:16:67,27.928,-0.791,1.102,-2.763,13.099,81.364,34.777
16:06:16:691,27.949,-0.973,-0.527,-1.550,16.373,85.414,42.870
16:06:16:716,27.974,-1.395,1.339,0.937,21.089,89.180,49.888
16:06:16:771,28.029,-1.249,-1.186,-1.487,25.942,89.124,52.101
16:06:16:772,28.030,0.007,-1.472,-0.544,28.675,88.773,49.606
16:06:16:823,28.081,-0.579,-0.946,-0.526,27.392,90.640,46.558
16:06:16:823,28.082,-0.721,-0.861,-0.257,23.638,94.205,39.591
16:06:16:96,28.218,-1.169,-0.264,-0.207,19.155,99.560,30.323
16:06:16:961,28.219,-1.141,-0.303,0.310,17.143,103.901,23.925
16:06:16:962,28.220,-1.217,-0.195,0.656,15.062,110.031,13.786
16:06:16:963,28.221,-0.829,0.278,0.881,13.531,113.258,6.529
16:06:16:98,28.238,-0.429,0.649,1.020,10.459,117.925,-4.474
16:06:17:005,28.263,0.701,1.174,2.022,8.041,127.447,-12.903
16:06:17:033,28.291,1.010,-0.486,3.024,8.829,135.182,-16.505
16:06:17:034,28.292,2.123,-1.366,2.844,8.802,141.037,-19.744
16:06:17:117,28.375,3.313,-0.008,0.423,7.171,140.346,-19.903
16:06:17:117,28.375,-1.245,2.765,-0.875,7.817,139.216,-15.975
16:06:17:117,28.375,1.358,-0.463,0.669,9.892,141.812,-12.840
16:06:17:164,28.422,0.284,-1.601,0.572,10.912,148.181,-4.638
16:06:17:218,28.476,0.610,1.138,0.868,8.250,152.579,0.277
16:06:17:219,28.477,0.362,-0.128,0.334,8.552,152.946,2.144
16:06:17:302,28.560,0.131,0.165,0.211,8.513,152.014,4.031
16:06:17:302,28.560,0.039,0.033,-0.093,8.211,150.906,5.051
16:06:17:303,28.561,-0.077,-0.092,-0.161,7.944,149.808,6.406
16:06:17:303,28.561,-0.211,-0.021,-0.048,7.154,150.201,7.881
16:06:17:319,28.577,0.102,0.019,0.164,6.702,150.455,8.719
16:06:17:345,28.603,-0.170,0.150,0.074,6.289,149.083,10.096
16:06:17:4,28.658,-0.261,0.031,0.047,6.345,147.962,11.218
16:06:17:401,28.659,-0.132,0.259,0.100,6.777,146.834,13.121
16:06:17:478,28.736,-0.497,0.189,-0.277,7.279,145.973,14.279
16:06:17:509,28.767,-0.696,0.173,-0.297,8.785,144.675,16.275
16:06:17:509,28.767,-0.821,0.456,-0.109,10.707,144.757,19.438
16:06:17:51,28.768,-0.987,0.185,-0.213,12.750,145.238,22.093
16:06:17:582,28.841,-1.643,0.026,-0.336,16.781,145.518,26.872
16:06:17:696,28.954,-1.680,0.036,-0.062,20.381,145.704,30.429
16:06:17:697,28.955,-2.190,0.372,-0.094,26.217,147.057,37.027
16:06:17:698,28.956,-1.238,-0.023,0.217,31.399,152.313,45.751
16:06:17:698,28.956,-0.747,0.844,1.173,36.563,154.939,50.967
16:06:17:879,29.137,-1.858,-2.030,0.139,40.389,158.162,56.192
16:06:17:88,29.138,-0.455,-0.613,0.009,40.519,160.298,57.114
16:06:17:881,29.139,-0.342,-1.270,0.453,37.095,164.471,55.861
16:06:17:881,29.139,-0.850,-1.154,0.152,34.123,165.676,52.475
16:06:17:933,29.191,0.043,-0.530,0.250,27.453,167.500,45.294
16:06:17:933,29.191,-0.571,-0.682,0.267,21.810,168.046,35.583
16:06:17:934,29.192,-0.569,-0.431,0.384,18.668,168.133,27.867
16:06:17:934,29.192,-0.328,0.067,0.450,13.923,168.905,15.639
16:06:17:984,29.242,0.050,0.878,0.607,10.323,169.866,7.308
16:06:17:985,29.243,1.054,1.797,0.519,3.809,172.729,-4.574
16:06:17:986,29.244,1.908,0.678,0.148,-0.323,177.401,-13.876
16:06:17:987,29.245,2.758,-0.278,-0.018,-1.742,-178.640,-17.976
16:06:18:004,29.262,2.983,-0.942,-0.276,-3.232,-175.526,-21.207
16:06:18:005,29.263,2.126,-0.047,-0.202,-3.667,-175.085,-20.604
16:06:18:055,29.313,-2.097,2.314,-1.017,-2.531,-175.482,-16.639
16:06:18:083,29.341,1.582,0.500,0.561,-0.941,-175.030,-12.995
16:06:18:083,29.341,1.440,-1.232,0.343,1.982,-168.597,-5.861
16:06:18:197,29.455,0.876,1.464,-0.396,-0.416,-162.852,0.055
16:06:18:197,29.455,0.917,-0.204,-0.397,-0.972,-160.624,2.770
16:06:18:197,29.455,0.259,-0.083,-0.207,-0.209,-162.971,5.547
16:06:18:197,29.455,-0.359,0.083,0.209,0.241,-166.270,6.711
16:06:18:215,29.473,-0.193,0.189,0.057,0.078,-168.895,8.416
16:06:18:215,29.473,-0.010,-0.033,0.015,0.073,-169.144,10.088
16:06:18:237,29.495,-0.142,0.043,-0.035,-0.302,-168.944,10.968
16:06:18:293,29.551,0.229,0.168,0.102,-0.581,-169.212,12.391
16:06:18:294,29.552,-0.204,0.016,0.141,-0.448,-171.069,13.336
16:06:18:372,29.630,-0.100,0.143,0.053,-0.194,-173.311,14.848
16:06:18:373,29.631,-0.464,0.310,0.019,0.282,-175.323,16.480
16:06:18:398,29.656,-0.472,0.174,0.045,0.853,-176.177,17.712
16:06:18:482,29.740,-0.555,0.259,0.337,2.189,-177.166,20.320
16:06:18:483,29.741,-0.729,0.331,0.360,3.438,-177.744,22.572
16:06:18:484,29.742,-1.279,0.069,0.150,6.685,-178.813,26.418
16:06:18:485,29.743,-1.931,0.065,0.515,9.551,-179.023,29.600
16:06:18:501,29.759,-1.953,0.117,0.597,15.309,-178.575,35.320
16:06:18:555,29.813,-2.489,0.326,1.307,21.639,-176.139,42.898
16:06:18:557,29.815,-1.473,-0.247,1.263,24.508,-171.785,49.292
16:06:18:58,29.838,0.331,1.236,1.537,31.957,-166.902,57.622
16:06:18:663,29.921,-1.266,-2.198,0.824,35.923,-165.415,60.811
16:06:18:664,29.922,-0.279,-1.588,0.201,38.377,-163.782,60.902
16:06:18:665,29.923,-0.510,-1.385,0.755,35.051,-160.802,57.621
16:06:18:684,29.942,0.310,-0.879,0.572,31.147,-157.840,53.512
16:06:18:71,29.968,-0.152,-0.556,0.595,25.608,-155.919,44.679
16:06:18:765,30.023,0.084,-0.585,0.605,22.484,-154.896,37.637
16:06:18:766,30.024,0.146,-0.046,0.721,17.855,-153.818,25.477
16:06:18:847,30.105,0.126,0.107,0.604,15.311,-153.492,16.708
16:06:18:848,30.106,0.446,0.830,0.437,10.920,-152.099,4.054
16:06:18:848,30.106,1.391,1.231,-0.459,5.636,-145.867,-6.172
16:06:18:867,30.125,1.679,0.596,-0.515,4.179,-139.952,-11.585
16:06:18:922,30.180,2.430,-0.655,-2.076,4.007,-130.543,-17.110
16:06:18:949,30.207,2.292,-1.052,-1.862,3.901,-127.494,-18.568
16:06:18:95,30.208,1.352,0.142,-1.140,2.268,-128.336,-17.851
16:06:18:974,30.232,-1.517,3.212,1.447,2.368,-129.694,-14.249
16:06:19:057,30.315,1.387,-0.465,-1.376,4.381,-127.312,-10.473
16:06:19:057,30.315,0.614,-1.545,-0.600,5.387,-121.371,-2.875
16:06:19:058,30.316,1.186,1.224,-0.551,3.684,-118.880,0.590
16:06:19:13,30.388,0.216,-0.685,-0.045,2.811,-118.110,4.743
16:06:19:162,30.420,-0.012,0.101,-0.130,3.025,-120.199,7.341
16:06:19:163,30.421,-0.224,0.245,-0.095,2.794,-121.103,8.648
16:06:19:163,30.421,-0.086,0.193,-0.209,2.514,-121.544,10.165
16:06:19:183,30.441,-0.171,-0.312,0.372,2.235,-122.081,11.064
16:06:19:237,30.495,0.101,-0.564,-0.204,1.491,-122.013,11.821
16:06:19:238,30.496,0.166,0.208,0.281,0.980,-123.072,12.216
16:06:19:315,30.573,0.180,0.082,0.383,0.727,-125.340,13.175
16:06:19:448,30.706,-0.209,0.162,0.321,0.979,-127.632,14.385
16:06:19:449,30.707,-0.240,0.067,0.301,1.413,-128.666,15.469
16:06:19:551,30.809,-0.151,0.225,0.506,2.474,-129.427,17.700
16:06:19:638,30.896,-0.151,0.335,0.643,3.367,-129.631,19.550
16:06:19:639,30.897,-0.379,0.182,0.806,5.778,-130.249,22.704
16:06:19:64,30.898,-0.722,0.118,1.240,9.172,-130.019,26.866
16:06:19:64,30.899,-0.491,-0.090,1.759,12.268,-129.318,30.249
16:06:19:691,30.949,-0.436,0.094,1.765,18.620,-127.950,36.204
16:06:19:691,30.949,-0.410,0.602,2.766,22.679,-125.962,41.334
16:06:19:691,30.949,0.050,0.756,-0.021,28.630,-119.357,50.887
16:06:19:744,31.002,0.737,0.259,1.265,34.093,-116.297,56.564
16:06:19:744,31.002,-0.280,-1.830,0.864,35.556,-112.769,61.480
16:06:19:744,31.002,0.280,-0.750,0.078,32.869,-110.020,61.178
16:06:19:745,31.003,0.382,-1.291,0.312,30.341,-109.150,58.564
16:06:19:77,31.028,0.126,-0.963,0.208,25.419,-108.900,51.757
16:06:19:771,31.029,0.025,-0.823,0.509,21.945,-109.487,45.557
16:06:19:771,31.029,0.098,-0.555,0.599,16.710,-110.590,34.516
16:06:19:772,31.030,0.132,-0.009,0.473,11.358,-111.143,22.393
16:06:19:818,31.076,0.143,0.493,0.322,7.737,-111.219,13.932
16:06:19:819,31.077,0.337,1.088,-0.491,1.325,-109.319,1.766
16:06:19:82,31.078,0.417,1.861,-1.548,-2.910,-105.760,-5.380
16:06:19:84,31.098,0.512,-0.486,-3.238,-5.630,-98.740,-14.066
16:06:19:866,31.124,0.429,-0.324,-2.997,-6.381,-95.600,-17.377
16:06:20:007,31.265,-1.131,-0.128,-2.880,-7.271,-94.663,-17.414
16:06:20:008,31.266,-0.007,2.321,-0.578,-4.677,-93.577,-12.007
16:06:20:008,31.266,0.124,-0.408,-0.873,-3.050,-90.139,-8.334
16:06:20:008,31.266,0.732,0.630,-0.829,-1.576,-83.366,-1.489
16:06:20:025,31.284,-0.114,0.465,-0.898,-3.665,-79.638,1.800
16:06:20:026,31.285,-0.324,-0.083,-0.179,-3.975,-80.059,4.587
16:06:20:139,31.397,-0.099,-0.021,-0.065,-3.110,-83.643,6.949
16:06:20:139,31.397,-0.064,-0.066,0.102,-3.099,-85.191,8.074
16:06:20:14,31.398,0.094,-0.110,0.249,-3.622,-86.651,9.867
16:06:20:14,31.398,-0.120,0.083,0.097,-4.354,-86.467,10.645
16:06:20:212,31.470,-0.019,-0.045,-0.229,-4.998,-86.771,12.142
16:06:20:212,31.471,0.216,0.133,0.149,-5.317,-88.130,13.138
16:06:20:213,31.472,0.058,0.089,0.103,-5.388,-90.401,14.905
16:06:20:636,31.894,0.036,0.182,0.476,-4.959,-92.780,16.844
16:06:20:636,31.895,0.046,0.217,0.495,-4.572,-93.932,18.389
16:06:20:637,31.896,-0.023,0.378,0.520,-3.490,-95.037,21.503
16:06:20:638,31.897,0.009,0.485,0.717,-2.299,-95.779,24.044
16:06:20:795,32.053,0.206,0.089,1.445,0.678,-96.731,28.567
16:06:20:795,32.053,0.662,0.456,2.035,4.460,-96.167,34.462
16:06:20:795,32.053,1.297,0.647,1.958,8.369,-96.191,38.865
16:06:20:795,32.053,0.897,0.182,2.085,16.622,-96.921,46.183
16:06:20:838,32.096,0.448,0.664,-0.076,21.319,-95.799,51.304
16:06:20:925,32.183,0.670,-0.090,1.000,29.314,-95.173,56.885
16:06:20:926,32.184,-0.522,-1.935,0.021,31.458,-94.740,59.295
16:06:20:926,32.184,-0.251,-1.209,0.470,28.624,-95.270,57.106
16:06:20:927,32.185,0.036,-1.568,-0.186,21.848,-94.997,52.238
16:06:21:003,32.261,-0.307,-1.009,0.560,16.301,-96.043,47.054
16:06:21:004,32.262,-0.223,-0.509,0.663,8.759,-97.315,37.162
16:06:21:005,32.263,-0.215,-0.152,0.424,4.646,-97.566,29.338
16:06:21:005,32.264,-0.189,0.313,0.563,-0.212,-98.050,16.463
16:06:21:031,32.289,-0.242,1.424,-0.251,-5.999,-97.369,3.748
16:06:21:031,32.289,-0.432,1.980,-1.478,-10.204,-95.012,-4.508
16:06:21:031,32.289,-0.427,0.064,-2.376,-13.478,-90.623,-14.328
16:06:21:032,32.290,-0.413,-0.798,-3.217,-14.811,-87.778,-19.020
16:06:21:056,32.314,-0.599,-0.535,-3.050,-15.756,-86.225,-20.547
16:06:21:057,32.315,-0.707,1.863,2.135,-14.824,-88.289,-16.863
16:06:21:058,32.316,-0.868,1.906,-1.618,-14.174,-92.044,-13.236
16:06:21:059,32.317,0.324,-1.651,-0.610,-11.505,-90.263,-6.507
16:06:21:108,32.366,0.714,-0.005,-1.342,-10.564,-87.582,-3.590
16:06:21:109,32.367,-0.452,0.371,-1.442,-12.372,-84.095,0.125
16:06:21:109,32.367,-0.280,-0.130,0.153,-11.763,-85.678,2.351
16:06:21:11,32.368,-0.184,0.022,0.163,-11.374,-89.820,5.114
16:06:21:128,32.386,0.058,0.002,0.137,-11.796,-91.823,7.254
16:06:21:153,32.411,0.094,0.055,0.154,-11.889,-92.350,8.369
16:06:21:188,32.447,0.015,0.043,-0.242,-12.064,-92.793,9.749
16:06:21:189,32.447,0.042,0.117,-0.071,-12.127,-93.859,10.756
16:06:21:189,32.447,0.015,0.171,0.252,-11.900,-97.100,12.508
16:06:21:189,32.447,0.043,-0.070,0.498,-10.902,-100.432,14.322
16:06:21:24,32.498,-0.002,0.045,0.408,-10.309,-101.614,15.773
16:06:21:24,32.498,-0.042,0.271,0.310,-9.141,-102.628,18.737
16:06:21:241,32.499,-0.124,0.336,0.691,-7.791,-103.576,20.972
16:06:21:242,32.500,-0.144,0.404,1.088,-5.081,-104.742,24.899
16:06:21:371,32.630,-0.144,0.030,1.386,-2.789,-104.930,27.883
16:06:21:372,32.630,0.069,0.126,1.963,1.879,-104.620,33.583
16:06:21:373,32.631,0.621,0.213,2.476,7.245,-104.253,40.647
16:06:21:373,32.632,0.590,0.313,1.968,9.589,-101.912,46.470
16:06:21:393,32.651,-0.614,0.792,-0.467,15.263,-98.690,53.894
16:06:21:394,32.652,0.919,0.381,0.742,20.510,-98.343,57.115
16:06:21:395,32.653,-0.076,-2.726,0.836,23.203,-97.996,57.612
16:06:21:414,32.672,-0.039,-1.128,-0.285,19.877,-96.059,53.982
16:06:21:442,32.700,0.257,-0.838,-0.055,16.842,-95.566,49.277
16:06:21:467,32.725,0.350,-0.861,0.428,11.971,-96.123,40.783
16:06:21:493,32.751,0.039,-0.367,0.691,8.312,-96.200,34.045
16:06:21:519,32.777,0.013,0.183,0.349,3.544,-95.759,22.419
16:06:21:545,32.803,0.002,0.343,0.163,-0.469,-94.594,10.518
16:06:21:571,32.830,-0.078,0.812,-0.282,-3.290,-92.692,2.697
16:06:21:597,32.855,-0.203,1.178,-1.379,-6.654,-87.342,-8.497
16:06:21:765,33.024,-0.357,0.447,-2.300,-7.460,-82.205,-14.663
16:06:21:765,33.024,-0.709,-0.808,-3.010,-7.296,-73.739,-20.832
16:06:21:765,33.024,-0.059,-1.132,-2.671,-7.276,-71.985,-22.216
16:06:21:766,33.025,-0.855,-0.435,-1.498,-8.220,-72.327,-21.046
16:06:21:895,33.153,-1.163,2.469,0.278,-7.858,-74.029,-17.386
16:06:21:896,33.154,-0.375,0.558,-1.588,-6.523,-72.832,-14.383
16:06:21:897,33.155,0.281,-0.743,-1.343,-5.297,-70.249,-8.662
16:06:21:898,33.156,0.901,1.612,-1.702,-8.139,-69.313,-4.980
16:06:21:913,33.171,0.048,-0.447,1.036,-6.744,-72.895,-1.271
16:06:21:974,33.232,-0.271,0.261,-0.225,-7.240,-74.293,1.159
16:06:21:975,33.233,-0.609,0.198,-0.135,-7.464,-74.476,3.206
16:06:21:976,33.234,-0.005,0.140,-0.033,-7.542,-74.879,4.683
16:06:21:977,33.235,0.014,0.086,-0.117,-7.549,-75.240,5.025
16:06:21:994,33.252,0.005,0.070,0.087,-7.776,-76.245,5.827
16:06:21:995,33.253,0.080,0.018,0.186,-7.732,-77.044,6.332
16:06:22:018,33.276,-0.007,0.186,0.209,-7.482,-77.976,7.359
16:06:22:103,33.361,0.061,0.022,0.148,-6.756,-78.804,9.017
16:06:22:104,33.362,0.285,0.073,0.312,-5.903,-79.364,10.547
16:06:22:104,33.362,0.316,0.122,0.730,-4.184,-80.029,13.771
16:06:22:182,33.440,0.047,0.286,0.704,-2.984,-79.626,16.534
16:06:22:182,33.440,0.119,0.441,0.965,-0.627,-78.893,21.241
16:06:22:182,33.440,0.596,0.670,1.860,3.180,-79.517,26.569
16:06:22:201,33.459,0.745,0.500,1.586,5.914,-78.853,30.723
16:06:22:257,33.515,1.133,-0.285,0.730,9.476,-73.809,37.531
16:06:22:257,33.515,0.228,0.574,-1.660,9.817,-67.918,40.738
16:06:22:339,33.597,1.001,-0.714,0.105,11.552,-60.858,43.384
16:06:22:34,33.598,0.552,-0.485,0.196,12.878,-57.265,42.457
16:06:22:341,33.599,0.396,-0.104,-0.330,14.201,-52.593,39.852
16:06:22:421,33.679,0.404,-0.505,-0.357,17.822,-48.548,36.227
16:06:22:421,33.679,0.343,-0.778,-0.323,19.615,-46.494,33.196
16:06:22:421,33.679,0.480,-0.539,-0.488,19.587,-42.561,27.536
16:06:22:468,33.726,0.437,-0.450,-0.315,19.038,-40.516,23.121
16:06:22:468,33.726,0.358,-0.300,-0.266,17.534,-38.350,16.343
16:06:22:518,33.777,0.453,-0.258,0.029,15.713,-34.946,10.219
16:06:22:575,33.833,0.308,-0.259,-0.218,14.203,-30.813,6.597
16:06:22:575,33.833,-0.351,-0.146,-0.742,11.495,-22.851,1.198
16:06:22:576,33.834,-0.244,-0.027,-0.755,10.086,-18.827,-3.073
16:06:22:596,33.854,-0.487,0.058,-0.778,8.118,-14.900,-9.402
16:06:22:622,33.880,-0.897,-0.075,-0.489,6.595,-13.064,-13.065
16:06:22:65,33.908,-1.615,-0.172,-0.667,3.216,-10.982,-17.776
16:06:22:651,33.909,-1.309,-0.146,-0.301,-0.813,-11.706,-20.863
16:06:22:702,33.960,-1.661,-0.408,-0.206,-3.272,-12.467,-21.548
16:06:22:729,33.987,-1.816,-0.257,-0.080,-6.395,-14.242,-18.631
16:06:22:73,33.988,3.290,0.948,1.354,-7.319,-17.238,-15.704
16:06:22:754,34.012,-1.557,2.347,0.680,-6.988,-17.567,-14.611
16:06:22:779,34.037,-0.266,-1.399,0.258,-4.603,-11.746,-8.421
16:06:22:805,34.063,-0.043,-0.139,-0.348,-5.135,-11.893,-6.068
16:06:22:946,34.204,-1.025,0.679,0.198,-7.090,-10.534,-2.698
16:06:22:947,34.205,-0.423,-0.027,-0.139,-6.478,-12.186,-0.847
16:06:22:948,34.206,0.139,-0.132,0.094,-6.228,-15.625,1.673
16:06:22:948,34.206,-0.119,0.014,-0.104,-6.360,-16.405,3.839
16:06:22:965,34.223,0.132,0.055,0.184,-6.413,-16.748,5.492
16:06:22:966,34.224,-0.305,0.110,-0.160,-6.302,-15.662,7.087
16:06:23:098,34.356,-0.140,0.078,0.163,-6.052,-15.965,8.122
16:06:23:099,34.357,-0.008,0.151,0.179,-5.754,-17.062,9.802
16:06:23:125,34.383,0.041,0.066,0.051,-5.509,-17.752,11.032
16:06:23:126,34.384,0.010,0.326,0.020,-5.355,-18.423,12.882
16:06:23:15,34.408,0.199,0.175,-0.113,-4.787,-20.082,14.754
16:06:23:151,34.409,0.391,0.139,0.055,-4.253,-21.360,16.197
16:06:23:175,34.433,0.507,0.279,0.257,-3.022,-22.737,18.894
16:06:23:176,34.434,0.818,0.403,0.193,-1.880,-24.181,21.156
16:06:23:463,34.721,1.442,0.345,0.150,0.659,-24.667,25.275
16:06:23:549,34.807,1.921,0.171,0.162,5.187,-25.155,30.512
16:06:23:55,34.808,2.272,0.436,-0.001,8.991,-24.809,34.743
16:06:23:551,34.809,1.997,0.134,-0.321,13.020,-22.032,42.333
16:06:23:552,34.810,-0.227,1.011,-0.109,16.494,-19.592,47.039
16:06:23:731,34.989,1.749,-0.972,-0.540,20.504,-17.511,52.538
16:06:23:731,34.989,0.804,-1.894,0.384,21.238,-16.950,53.439
16:06:23:732,34.990,0.092,-1.179,0.073,19.532,-15.998,50.845
16:06:23:753,35.011,0.488,-1.021,-0.050,15.967,-15.888,43.736
16:06:23:754,35.012,0.458,-0.921,0.134,13.401,-16.452,37.832
16:06:23:83,35.088,0.722,-0.363,0.174,9.858,-16.688,26.726
16:06:23:917,35.175,0.456,0.038,-0.021,7.321,-15.945,18.752
16:06:23:917,35.175,0.214,0.457,-0.118,3.591,-13.534,6.017
16:06:23:918,35.176,-1.142,1.516,-0.284,-0.493,-8.254,-7.159
16:06:23:97,35.228,-3.435,-0.731,-0.353,-1.846,2.899,-22.702
16:06:23:971,35.229,-3.633,-1.359,-0.026,-2.946,4.694,-25.051
16:06:23:971,35.229,-2.356,-0.421,0.814,-4.911,3.104,-23.975
16:06:23:972,35.230,0.354,3.254,0.242,-4.380,1.107,-20.636
16:06:23:996,35.254,-2.017,-0.269,-0.538,-1.371,2.201,-14.370
16:06:23:997,35.255,-2.792,-0.791,-0.674,0.294,8.096,-7.373
16:06:23:998,35.256,-0.830,0.681,0.195,-1.864,10.867,-3.883
16:06:23:998,35.256,-0.191,-0.153,0.290,-1.743,9.857,-0.882
16:06:24:021,35.280,-0.112,-0.065,-0.017,-1.677,7.841,0.719
16:06:24:022,35.281,-0.085,0.270,0.138,-2.336,5.743,2.115
16:06:24:023,35.281,0.021,0.173,0.147,-3.020,3.952,3.363
16:06:24:024,35.282,0.138,0.035,-0.005,-3.301,3.247,4.091
16:06:24:045,35.303,-0.349,0.024,-0.093,-3.683,3.111,5.372
16:06:24:045,35.303,-0.323,0.234,-0.156,-3.963,2.217,6.251
16:06:24:066,35.324,0.296,-0.135,-0.128,-3.459,-1.474,7.642
16:06:24:102,35.360,0.522,0.189,0.017,-2.509,-4.783,9.355
16:06:24:103,35.361,0.408,0.324,-0.005,-1.837,-5.441,11.141
16:06:24:103,35.361,0.354,0.262,-0.136,-0.218,-5.860,14.366
16:06:24:104,35.362,0.845,0.563,0.046,1.272,-6.371,16.947
16:06:24:12,35.378,1.233,0.271,0.226,4.437,-6.753,21.567
16:06:24:121,35.379,1.947,0.241,-0.043,7.400,-6.839,25.326
16:06:24:144,35.402,2.076,0.605,-0.733,13.702,-8.039,31.616
16:06:24:198,35.457,2.237,0.244,-1.109,18.002,-5.491,39.992
16:06:24:254,35.512,0.381,-0.004,-0.498,20.662,-1.991,45.356
16:06:24:255,35.513,1.471,-0.842,-1.221,27.510,-0.002,50.862
16:06:24:278,35.536,1.148,-2.326,-0.488,30.449,0.632,51.090
16:06:24:304,35.562,0.166,-1.280,-0.277,29.701,3.948,47.579
16:06:24:306,35.564,-0.315,-0.400,-1.337,25.192,9.992,41.773
16:06:24:329,35.587,-0.156,-0.653,-1.315,21.996,14.989,37.050
16:06:24:354,35.612,-0.375,-0.170,-1.268,18.960,21.694,27.630
16:06:24:38,35.638,-0.770,0.077,-1.551,17.574,25.738,20.696
16:06:24:461,35.719,-1.248,0.290,-1.209,15.970,30.475,9.570
16:06:24:52,35.778,-1.494,0.299,-0.761,13.434,34.519,-1.045
16:06:24:52,35.778,-1.886,0.765,-0.429,10.900,39.452,-7.395
16:06:24:521,35.779,-1.901,0.703,1.653,7.485,49.923,-14.390
16:06:24:522,35.780,-2.643,-0.727,2.490,6.622,54.917,-18.452
16:06:24:539,35.797,-1.238,-0.898,2.109,3.312,55.527,-21.290
16:06:24:564,35.822,-0.431,0.140,1.389,1.094,55.175,-21.194
16:06:24:59,35.848,2.342,1.632,0.422,0.435,56.382,-18.295
16:06:24:616,35.874,-2.138,0.128,1.864,2.851,61.673,-13.372
16:06:24:643,35.901,-1.513,-1.635,0.451,3.772,65.874,-7.995
16:06:24:669,35.927,-0.627,0.445,1.105,1.684,68.681,-2.222
16:06:24:695,35.953,0.341,-0.200,0.166,1.950,67.596,0.068
16:06:24:721,35.979,0.142,0.191,-0.045,1.633,64.269,2.071
16:06:24:747,36.005,0.057,0.035,0.139,0.886,63.119,3.769
16:06:24:803,36.061,0.296,0.077,-0.179,0.601,62.536,5.132
16:06:24:804,36.062,-0.582,-0.225,0.556,0.002,63.515,6.265
16:06:24:885,36.143,-0.097,0.067,-0.132,-0.348,62.190,6.856
16:06:24:885,36.143,-0.041,0.119,-0.250,-0.706,59.461,8.042
16:06:24:886,36.144,0.072,-0.146,-0.254,-0.660,58.358,9.241
16:06:24:908,36.166,-0.074,0.359,-0.008,-0.711,57.856,11.168
16:06:24:989,36.247,0.048,0.193,-0.723,0.625,55.408,14.648
16:06:24:99,36.248,0.098,0.350,-0.596,2.189,55.095,17.877
16:06:24:991,36.249,0.384,0.469,-1.034,3.699,54.981,20.654
16:06:25:01,36.268,0.490,0.191,-1.443,7.034,54.405,25.417
16:06:25:066,36.324,0.463,0.236,-1.762,12.509,53.660,30.901
16:06:25:066,36.324,0.278,0.493,-2.304,16.640,54.012,35.288
16:06:25:091,36.349,-0.012,-0.136,-1.416,21.077,58.003,43.667
16:06:25:117,36.375,-1.106,1.130,0.096,25.375,60.729,48.541
16:06:25:309,36.567,-0.267,-1.150,-1.556,31.427,62.552,53.406
16:06:25:309,36.567,0.277,-1.433,-0.382,32.851,65.612,54.431
16:06:25:309,36.567,-0.052,-1.007,-0.655,31.247,67.460,52.703
16:06:25:31,36.568,-0.421,-0.805,-0.045,26.486,71.335,47.574
16:06:25:335,36.593,-0.162,-0.758,-0.516,23.421,72.508,42.372
16:06:25:335,36.593,-0.177,-0.597,-0.436,19.226,73.504,33.292
16:06:25:336,36.594,-0.360,-0.234,-0.320,16.522,74.363,25.988
16:06:25:336,36.595,-0.335,-0.026,-0.259,13.108,75.532,14.430
16:06:25:351,36.610,-0.681,0.771,0.782,8.725,77.732,2.810
16:06:25:378,36.636,-0.796,1.082,1.018,5.576,79.980,-4.661
16:06:25:404,36.662,-0.241,0.602,2.750,2.320,84.730,-12.823
16:06:25:43,36.688,-0.437,-0.731,3.414,1.579,88.159,-16.477
16:06:25:456,36.714,-0.042,-0.412,2.042,1.185,91.422,-17.684
16:06:25:511,36.769,0.659,2.269,-1.412,1.435,92.976,-15.302
16:06:25:512,36.770,-0.503,2.531,1.140,3.088,94.725,-11.343
16:06:25:535,36.793,-1.244,-1.964,1.124,4.018,98.716,-4.598
16:06:25:563,36.821,0.624,0.952,0.504,2.080,101.343,-0.423
16:06:25:588,36.846,-0.022,-0.011,0.529,1.061,102.853,3.623
16:06:25:614,36.872,0.346,0.193,0.021,1.278,100.921,5.142
16:06:25:64,36.898,-0.086,0.256,-0.061,0.906,98.168,6.558
16:06:25:668,36.926,-0.166,-0.029,-0.182,0.252,96.576,8.019
16:06:25:721,36.979,-0.050,-0.110,-0.125,-0.110,96.198,9.043
16:06:25:777,37.035,-0.035,0.078,0.409,-0.688,96.271,10.344
16:06:25:778,37.036,-0.171,0.004,-0.126,-1.029,95.397,11.371
16:06:25:779,37.037,-0.204,0.052,-0.204,-1.081,92.809,12.987
16:06:25:797,37.055,-0.093,0.219,-0.353,-1.066,90.909,14.774
16:06:25:824,37.082,0.063,0.229,-0.338,-0.953,90.092,16.269
16:06:25:85,37.108,-0.128,0.359,-0.542,-0.368,89.195,19.067
16:06:25:876,37.134,-0.275,0.359,-0.697,0.395,88.643,21.379
16:06:25:959,37.217,-0.323,0.219,-0.985,2.341,88.149,25.618
16:06:25:96,37.218,-0.408,0.267,-1.584,4.270,87.958,29.044
16:06:25:984,37.242,-0.562,0.383,-1.788,9.161,87.116,34.789
16:06:25:985,37.243,-0.755,0.201,-2.416,16.361,86.472,41.371
16:06:26:035,37.293,-0.620,0.027,-1.344,18.959,88.420,46.909
16:06:26:063,37.321,-1.027,0.929,-0.332,25.619,90.926,53.729
16:06:26:064,37.322,-0.469,-1.512,-1.170,30.443,90.947,56.832
16:06:26:088,37.346,0.455,-1.509,-0.332,33.622,90.460,57.541
16:06:26:113,37.371,0.205,-1.166,0.125,30.909,89.961,54.154
16:06:26:227,37.485,0.013,-1.175,-0.169,27.699,90.194,50.204
16:06:26:228,37.486,0.112,-0.799,-0.471,21.237,89.202,41.790
16:06:26:228,37.486,0.039,-0.485,-0.535,17.414,88.082,34.840
16:06:26:228,37.486,-0.064,-0.105,-0.411,11.906,86.861,23.172
16:06:26:244,37.502,0.070,0.169,-0.314,6.832,85.872,10.741
16:06:26:27,37.528,-0.086,1.224,0.129,2.795,85.935,2.188
16:06:26:354,37.612,0.165,1.730,1.502,-3.474,88.788,-9.670
16:06:26:354,37.612,0.146,0.353,2.452,-5.501,91.455,-16.090
16:06:26:437,37.695,0.494,-0.900,3.007,-7.095,94.925,-22.609
16:06:26:438,37.696,0.447,-0.844,2.947,-7.912,96.270,-23.667
16:06:26:439,37.697,-0.398,0.305,1.151,-7.361,96.401,-21.574
16:06:26:44,37.698,1.668,1.904,2.097,-6.653,94.289,-17.505
16:06:26:484,37.742,-0.360,-0.126,0.594,-4.920,95.466,-13.127
16:06:26:538,37.796,-0.672,-0.642,0.730,-2.721,99.846,-6.722
16:06:26:539,37.797,0.643,0.475,1.245,-4.623,103.876,-3.649
16:06:26:54,37.798,0.265,0.169,0.549,-4.911,104.528,0.002
16:06:26:615,37.873,0.033,0.029,0.123,-4.550,100.444,2.355
16:06:26:616,37.874,0.011,0.038,-0.096,-4.616,97.835,3.572
16:06:26:64,37.898,-0.016,-0.174,-0.420,-5.223,95.480,5.458
16:06:26:641,37.899,-0.042,-0.080,0.001,-5.574,95.406,6.090
16:06:26:666,37.924,-0.091,0.044,-0.106,-6.265,95.366,7.005
16:06:26:691,37.949,-0.163,0.248,0.197,-6.975,94.733,8.265
16:06:26:833,38.091,-0.235,-0.014,-0.160,-6.974,92.853,9.346
16:06:26:833,38.092,-0.154,0.207,-0.346,-6.503,89.531,11.139
16:06:26:833,38.092,-0.119,-0.019,-0.393,-5.793,87.879,12.742
16:06:26:833,38.092,0.044,0.457,-0.317,-4.765,86.568,15.687
16:06:26:85,38.109,-0.182,0.359,-0.757,-3.192,85.287,19.278
16:06:26:851,38.109,-0.061,0.260,-0.913,-1.650,84.545,22.076
16:06:26:874,38.132,0.009,0.287,-1.212,1.112,84.385,27.144
16:06:26:9,38.158,-0.170,0.211,-1.698,3.611,84.230,30.969
16:06:26:955,38.213,-0.524,0.338,-2.072,9.817,83.177,36.820
16:06:26:956,38.214,-0.733,-0.037,-1.840,13.367,83.785,41.738
16:06:27:009,38.267,-0.431,-0.172,-0.686,16.965,87.894,49.623
16:06:27:009,38.267,-1.108,-0.244,-1.242,24.533,88.948,55.211
16:06:27:031,38.290,-0.273,-2.172,-1.074,27.965,89.014,56.883
16:06:27:058,38.316,0.525,-1.505,-0.405,29.864,87.814,54.803
16:06:27:115,38.373,-0.014,-1.142,-0.768,27.347,87.866,50.935
16:06:27:116,38.374,-0.243,-0.810,-0.265,22.503,87.541,43.245
16:06:27:224,38.482,-0.167,-0.714,-0.519,19.578,86.975,37.027
16:06:27:225,38.483,-0.245,-0.282,-0.462,15.163,86.820,26.079
16:06:27:226,38.484,-0.311,0.298,-0.427,11.046,87.239,13.509
16:06:27:226,38.485,-0.367,0.885,0.259,8.055,87.973,4.995
16:06:27:329,38.587,-0.162,1.298,1.278,3.076,91.730,-6.905
16:06:27:329,38.587,-0.052,0.601,2.328,0.765,95.987,-13.441
16:06:27:329,38.587,0.625,-0.463,2.732,-0.809,102.548,-20.887
16:06:27:382,38.640,0.423,-1.158,3.077,-1.241,106.896,-24.305
16:06:27:382,38.640,0.948,-0.289,1.926,-1.104,107.980,-23.562
16:06:27:383,38.641,-0.605,2.501,-1.765,0.533,108.080,-19.420
16:06:27:384,38.642,0.269,-0.945,0.591,1.747,109.244,-16.427
16:06:27:426,38.684,-0.102,-0.337,1.812,4.247,114.663,-8.750
16:06:27:451,38.709,0.248,1.160,1.038,1.806,118.275,-3.477
16:06:27:558,38.816,-0.060,-0.606,0.199,2.441,118.152,-0.967
16:06:27:593,38.852,0.102,0.122,0.168,2.485,116.254,1.486
16:06:27:594,38.852,0.200,0.188,-0.060,2.357,115.352,2.575
16:06:27:594,38.853,0.008,-0.017,-0.080,2.226,114.260,4.117
16:06:27:595,38.854,-0.077,0.095,-0.158,2.116,113.430,4.910
16:06:27:612,38.870,-0.117,0.062,-0.066,1.793,112.727,5.876
16:06:27:612,38.870,-0.073,0.129,0.176,1.665,112.189,6.950
16:06:27:635,38.893,-0.154,0.090,0.047,1.688,110.492,7.531
16:06:27:661,38.919,-0.207,0.050,-0.183,1.968,107.422,8.344
16:06:27:688,38.946,-0.183,-0.024,-0.629,2.531,105.541,9.049
16:06:27:801,39.059,-0.204,0.133,-0.411,3.646,104.601,10.987
16:06:27:802,39.060,-0.457,0.439,-0.216,5.144,105.289,14.210
16:06:27:803,39.061,-0.366,0.390,-0.690,6.654,105.297,16.642
16:06:27:803,39.061,-0.433,0.318,-1.177,9.896,105.295,20.893
16:06:27:819,39.077,-0.808,0.299,-1.474,12.553,106.141,24.379
16:06:27:874,39.132,-1.578,0.204,-1.354,17.829,107.500,30.126
16:06:27:875,39.133,-1.683,0.471,-1.598,21.506,109.217,34.781
16:06:27:899,39.157,-1.082,-0.394,-0.419,24.642,116.358,44.006
16:06:27:924,39.182,-1.588,0.201,-0.195,29.749,121.745,50.921
16:06:28:008,39.266,-1.636,-2.669,-1.124,32.691,123.672,53.508
16:06:28:009,39.267,-0.930,-0.883,-0.671,31.447,128.459,53.307
16:06:28:01,39.268,-0.822,-1.045,0.203,29.868,132.397,52.356
16:06:28:032,39.290,-0.907,-1.232,0.489,27.195,138.883,47.806
16:06:28:084,39.342,-1.124,-0.526,0.740,22.480,145.405,40.419
16:06:28:085,39.343,-1.058,-0.302,1.064,18.808,150.450,34.345
16:06:28:107,39.365,-0.632,0.173,1.375,15.019,156.934,23.893
16:06:28:134,39.392,-0.202,0.418,1.426,13.139,158.941,15.754
16:06:28:191,39.449,0.162,0.673,1.103,10.011,160.354,3.680
16:06:28:191,39.449,1.503,1.344,1.111,5.865,166.034,-5.677
16:06:28:24,39.498,2.319,0.043,1.113,4.250,170.643,-10.098
16:06:28:353,39.612,3.206,-0.913,0.790,1.756,173.640,-14.250
16:06:28:354,39.613,2.814,-0.258,-0.499,-0.075,172.113,-14.507
16:06:28:355,39.613,-1.193,2.107,-1.472,0.150,170.685,-10.973
16:06:28:356,39.614,1.456,-0.127,0.486,1.733,173.084,-7.851
16:06:28:565,39.823,0.164,-1.107,0.463,2.046,179.127,-1.001
16:06:28:565,39.823,0.717,1.463,0.178,-0.953,-176.041,4.459
16:06:28:566,39.824,1.304,0.210,0.014,-1.056,-175.228,6.648
16:06:28:566,39.824,0.095,-0.109,-0.257,-0.424,-179.243,8.710
16:06:28:644,39.902,-0.223,0.218,-0.058,-0.688,178.777,9.499
16:06:28:644,39.902,-0.286,-0.046,-0.021,-1.269,177.437,11.013
16:06:28:645,39.903,-0.204,-0.054,-0.035,-2.050,177.121,12.515
16:06:28:646,39.904,-0.012,0.009,0.080,-2.642,177.339,13.381
16:06:28:817,40.075,0.066,0.171,0.055,-3.024,175.970,14.835
16:06:28:853,40.111,-0.304,0.040,0.077,-2.734,174.034,15.897
16:06:28:853,40.111,-0.317,-0.002,0.092,-2.309,172.015,17.597
16:06:28:853,40.111,-0.356,0.114,0.003,-2.011,171.207,18.936
16:06:28:854,40.112,-0.420,0.202,-0.127,-1.291,170.374,21.215
16:06:29:011,40.269,-0.741,0.352,0.022,0.061,170.297,24.186
16:06:29:011,40.269,-0.931,0.392,0.051,1.409,169.849,26.632
16:06:29:011,40.269,-1.210,0.123,-0.016,4.304,169.944,31.128
16:06:29:012,40.270,-2.024,0.162,0.287,6.914,170.018,34.715
16:06:29:062,40.320,-2.102,-0.131,0.599,13.550,169.519,40.180
16:06:29:063,40.321,-2.159,0.171,0.566,19.442,171.629,47.790
16:06:29:064,40.322,-1.092,-0.568,0.346,22.242,174.693,53.054
16:06:29:064,40.322,0.031,1.235,0.843,29.519,176.700,58.651
16:06:29:134,40.392,-0.969,-1.490,0.697,32.415,178.580,60.964
16:06:29:167,40.425,-0.421,-1.201,-0.164,31.673,178.832,59.709
16:06:29:168,40.426,-0.290,-0.910,-0.234,29.032,179.839,57.127
16:06:29:169,40.427,-0.168,-1.055,0.270,23.999,179.925,50.176
16:06:29:17,40.428,-0.459,-0.730,0.201,18.468,178.072,41.024
16:06:29:193,40.451,-0.711,-0.438,0.087,15.124,176.753,33.836
16:06:29:194,40.452,-0.534,0.174,0.144,10.315,175.850,22.451
16:06:29:195,40.453,-0.521,0.420,0.163,7.128,176.238,14.867
16:06:29:196,40.454,0.330,1.092,0.198,1.239,-179.763,3.430
16:06:29:212,40.470,1.676,1.234,0.218,-2.734,-173.332,-6.995
16:06:29:275,40.533,1.995,1.011,-0.098,-4.523,-169.280,-12.694
16:06:29:275,40.533,3.083,-0.612,-0.719,-6.111,-163.830,-18.482
16:06:29:276,40.534,2.507,-0.269,-0.752,-7.436,-163.548,-19.409
16:06:29:277,40.535,1.353,0.231,-1.224,-7.811,-162.870,-17.532
16:06:29:403,40.661,-1.093,1.351,-0.160,-5.128,-161.332,-12.715
16:06:29:404,40.662,0.991,0.185,-0.490,-4.244,-158.299,-9.005
16:06:29:405,40.663,1.051,-0.111,0.156,-3.247,-154.301,-2.981
16:06:29:405,40.663,0.976,0.870,0.232,-5.401,-151.452,0.101
16:06:29:563,40.821,0.509,-0.209,-0.149,-5.591,-151.430,3.637
16:06:29:563,40.821,-0.027,0.072,-0.130,-5.447,-154.005,5.544
16:06:29:564,40.822,-0.313,0.070,-0.145,-5.480,-157.019,7.368
16:06:29:564,40.822,-0.212,-0.109,0.096,-5.684,-158.700,8.998
16:06:29:588,40.846,-0.235,-0.077,0.091,-5.904,-159.186,9.907
16:06:29:588,40.846,0.201,0.050,-0.026,-6.308,-159.316,11.417
16:06:29:589,40.847,0.081,0.081,0.084,-6.266,-160.393,12.360
16:06:29:589,40.847,-0.251,0.148,0.119,-5.473,-164.487,13.810
16:06:29:692,40.950,-0.813,-0.132,0.247,-4.128,-167.891,15.606
16:06:29:693,40.951,-0.530,0.003,0.233,-3.253,-168.204,17.277
16:06:29:694,40.952,-0.460,0.352,0.060,-2.081,-167.512,20.855
16:06:29:695,40.953,-0.741,0.443,0.329,-0.736,-167.365,23.566
16:06:29:771,41.029,-1.443,0.086,0.336,2.422,-167.292,28.456
16:06:29:771,41.029,-1.983,0.045,0.693,5.202,-166.849,32.482
16:06:29:771,41.029,-1.843,0.170,1.102,11.654,-167.478,38.961
16:06:29:876,41.134,-1.857,-0.343,1.456,17.211,-166.223,47.175
16:06:29:876,41.134,-1.112,-0.537,1.126,19.179,-162.644,52.196
16:06:29:877,41.135,-0.075,0.778,1.320,25.116,-158.561,57.980
16:06:29:878,41.136,-0.728,-2.225,0.824,28.463,-157.069,59.407
16:06:30:008,41.266,-0.167,-1.510,0.440,25.936,-152.401,57.027
16:06:30:008,41.266,0.076,-0.636,1.296,18.555,-146.155,52.365
16:06:30:009,41.267,0.388,-0.555,1.190,15.367,-141.840,47.476
16:06:30:01,41.268,0.581,-0.292,0.983,11.815,-135.507,38.614
16:06:30:027,41.285,0.864,-0.080,0.864,10.461,-131.541,32.022
16:06:30:059,41.317,0.871,0.193,0.764,9.366,-127.422,21.095
16:06:30:059,41.317,0.965,0.348,0.217,8.431,-125.399,13.422
16:06:30:06,41.318,1.093,0.413,-0.028,5.647,-121.887,2.320
16:06:30:061,41.319,1.004,0.849,-1.227,1.388,-114.563,-7.054
16:06:30:078,41.336,0.688,0.889,-1.718,-0.782,-107.938,-11.681
16:06:30:103,41.361,1.442,-0.667,-3.163,-0.952,-99.411,-17.005
16:06:30:129,41.387,1.225,-1.098,-2.928,-1.444,-98.480,-18.435
16:06:30:157,41.415,-1.255,0.144,-2.641,-4.327,-100.977,-17.468
16:06:30:181,41.439,0.948,1.474,1.108,-1.677,-101.353,-12.267
16:06:30:235,41.493,0.447,-0.307,-1.421,-1.173,-98.464,-9.547
16:06:30:322,41.580,0.057,-0.837,-0.593,-1.018,-94.037,-2.696
16:06:30:322,41.580,0.478,0.442,-0.949,-3.045,-90.854,0.222
16:06:30:322,41.580,0.106,-0.045,-0.874,-3.721,-89.711,3.151
16:06:30:372,41.630,-0.269,0.239,-0.192,-3.736,-91.879,5.043
16:06:30:373,41.631,-0.272,-0.029,-0.015,-3.985,-93.135,6.269
16:06:30:373,41.631,-0.174,-0.194,0.201,-4.840,-93.496,7.682
16:06:30:503,41.761,-0.031,0.087,0.016,-6.012,-93.174,8.298
16:06:30:504,41.762,-0.039,-0.118,-0.243,-7.497,-92.973,9.305
16:06:30:505,41.763,0.193,-0.005,0.286,-8.264,-94.041,10.102
16:06:30:529,41.787,0.152,0.042,0.356,-8.960,-96.754,11.740
16:06:30:529,41.787,0.076,0.174,0.051,-9.489,-98.473,13.891
16:06:30:53,41.788,-0.032,0.270,0.022,-9.442,-99.714,15.514
16:06:30:576,41.834,-0.212,0.329,0.431,-8.420,-102.046,18.392
16:06:30:735,41.993,-0.254,0.591,0.728,-7.398,-103.548,20.818
16:06:30:928,42.186,-0.326,0.359,0.905,-5.234,-105.326,25.120
16:06:30:929,42.187,-0.272,0.283,1.418,-2.346,-105.806,30.351
16:06:30:929,42.187,0.159,0.243,2.184,0.104,-105.664,34.322
16:06:30:929,42.187,0.270,0.318,2.058,6.162,-106.052,40.557
16:06:30:954,42.212,0.420,0.336,2.100,9.140,-105.067,45.904
16:06:30:954,42.212,-0.192,0.751,-0.122,12.555,-101.636,53.454
16:06:30:954,42.212,0.247,-1.299,1.660,16.860,-100.954,57.762
16:06:30:955,42.213,-0.115,-1.929,0.771,20.905,-101.421,59.651
16:06:30:979,42.238,-0.126,-1.310,0.407,19.283,-101.460,56.702
16:06:30:979,42.238,0.067,-1.137,0.664,15.736,-101.543,52.948
16:06:30:98,42.239,0.016,-0.775,0.308,10.085,-101.695,44.615
16:06:30:981,42.239,0.039,-0.683,0.460,7.027,-102.838,37.832
16:06:31:006,42.264,-0.029,-0.189,0.681,2.785,-104.581,26.045
16:06:31:006,42.264,-0.229,0.232,0.484,-0.273,-105.310,17.525
16:06:31:006,42.264,-0.261,0.751,0.095,-5.757,-105.496,4.508
16:06:31:006,42.264,-0.369,1.939,-1.661,-12.395,-102.602,-8.075
16:06:31:136,42.394,0.001,0.321,-2.143,-14.636,-99.398,-14.875
16:06:31:137,42.395,-0.105,-0.890,-3.094,-16.579,-92.752,-22.951
16:06:31:137,42.395,0.136,-0.802,-3.156,-16.336,-89.167,-25.150
16:06:31:138,42.396,-0.284,-0.319,-2.442,-14.866,-86.450,-23.990
16:06:31:214,42.472,-1.223,1.551,-2.048,-12.553,-87.440,-18.374
16:06:31:215,42.473,0.353,0.192,-0.775,-10.833,-86.143,-13.832
16:06:31:215,42.473,0.291,-0.346,-1.311,-8.718,-81.841,-7.221
16:06:31:216,42.474,-0.659,0.270,-0.992,-10.638,-77.670,-3.887
16:06:31:231,42.489,-0.379,0.093,-0.555,-10.991,-77.845,-0.203
16:06:31:399,42.657,-0.249,-0.017,-0.099,-10.820,-82.186,2.873
16:06:31:399,42.657,-0.028,-0.011,0.063,-10.862,-84.564,4.313
16:06:31:4,42.658,-0.059,0.086,0.122,-11.586,-86.513,6.254
16:06:31:401,42.659,-0.023,-0.074,0.129,-11.913,-86.991,7.176
16:06:31:504,42.762,-0.066,0.106,0.093,-12.479,-87.636,8.334
16:06:31:504,42.762,0.023,0.212,-0.098,-13.001,-88.821,10.053
16:06:31:505,42.763,0.151,-0.015,0.115,-12.950,-90.620,11.452
16:06:31:506,42.764,0.028,0.177,0.323,-12.705,-93.425,13.802
16:06:31:611,42.869,-0.169,0.105,0.386,-12.249,-94.802,15.681
16:06:31:611,42.869,-0.161,0.559,0.271,-11.501,-95.720,18.992
16:06:31:612,42.870,-0.010,0.298,0.749,-10.549,-96.594,21.477
16:06:31:612,42.870,-0.139,0.257,1.006,-8.245,-97.995,25.711
16:06:31:688,42.946,0.094,0.407,1.596,-5.430,-98.441,30.955
16:06:31:688,42.946,0.317,0.128,2.010,-2.129,-99.190,34.644
16:06:31:689,42.947,0.727,0.158,2.507,5.305,-100.163,40.743
16:06:31:689,42.947,0.249,0.424,2.528,8.944,-98.969,45.908
16:06:31:706,42.964,-0.470,1.425,-0.387,14.646,-95.096,53.511
16:06:31:707,42.965,0.770,-1.606,1.530,21.129,-93.523,59.246
16:06:31:763,43.021,-0.319,-1.555,0.567,22.206,-93.272,60.437
16:06:31:763,43.021,-0.045,-0.639,0.384,18.756,-91.995,58.153
16:06:31:846,43.104,0.099,-1.485,-0.196,16.742,-91.420,54.868
16:06:31:846,43.104,-0.131,-0.976,0.403,12.981,-93.141,46.710
16:06:31:846,43.104,-0.140,-0.913,0.510,10.409,-94.953,39.970
16:06:31:847,43.105,-0.077,-0.242,0.633,5.752,-96.617,28.425
16:06:31:891,43.149,-0.053,0.050,0.434,1.083,-97.538,15.459
16:06:31:892,43.150,-0.119,0.659,0.225,-2.391,-97.670,6.435
16:06:31:914,43.172,-0.281,1.837,-1.257,-8.763,-94.964,-6.770
16:06:31:969,43.227,-0.158,1.436,-1.993,-11.655,-91.487,-14.542
16:06:31:97,43.228,-0.249,-0.694,-2.882,-13.607,-85.997,-23.493
16:06:31:993,43.251,-0.078,-1.249,-3.067,-14.489,-82.249,-26.957
16:06:32:076,43.334,-0.491,-0.900,-2.995,-14.415,-81.584,-26.079
16:06:32:077,43.335,-1.112,2.601,2.868,-12.944,-82.416,-21.939
16:06:32:125,43.383,0.381,-0.350,-0.989,-12.007,-83.798,-18.664
16:06:32:239,43.497,0.107,-2.048,-1.067,-8.001,-78.084,-11.443
16:06:32:24,43.498,0.327,0.745,-1.470,-9.412,-72.571,-6.769
16:06:32:24,43.498,-0.629,-0.295,-0.813,-9.858,-71.336,-4.012
16:06:32:241,43.499,-0.224,-0.028,-0.293,-9.305,-74.910,-0.516
16:06:32:261,43.519,-0.191,0.036,0.137,-9.321,-77.802,1.152
16:06:32:262,43.520,-0.303,0.082,-0.124,-9.786,-79.921,3.046
16:06:32:262,43.520,0.026,-0.049,0.124,-10.014,-80.756,4.189
16:06:32:335,43.593,-0.085,0.076,0.181,-10.767,-80.905,5.157
16:06:32:366,43.624,-0.016,0.285,-0.259,-11.379,-81.225,6.112
16:06:32:366,43.624,0.138,0.161,0.050,-11.560,-83.521,7.275
16:06:32:367,43.625,0.132,-0.064,0.350,-11.144,-87.362,9.021
16:06:32:386,43.644,0.077,-0.042,0.513,-10.639,-89.300,10.498
16:06:32:414,43.672,-0.216,0.309,0.335,-9.820,-90.346,13.358
16:06:32:44,43.698,-0.147,0.410,0.405,-8.967,-90.809,15.798
16:06:32:466,43.724,0.018,0.457,0.877,-6.864,-91.672,20.015
16:06:32:491,43.750,-0.127,0.293,1.187,-3.816,-91.970,25.160
16:06:32:518,43.776,0.124,0.414,2.138,-1.241,-91.859,29.197
16:06:32:544,43.802,0.703,0.269,1.930,5.161,-92.725,35.388
16:06:32:657,43.915,0.947,0.664,2.365,9.680,-92.528,40.117
16:06:32:658,43.916,0.537,-0.247,0.684,12.283,-87.151,48.249
16:06:32:659,43.917,1.171,-0.032,1.020,16.718,-83.602,54.482
16:06:32:677,43.935,0.109,-0.976,0.311,20.535,-80.681,53.336
16:06:32:782,44.040,0.468,-0.812,0.254,19.241,-77.919,50.582
16:06:32:863,44.121,0.614,-0.745,0.029,15.598,-74.017,44.136
16:06:32:863,44.122,0.761,-0.465,0.066,12.177,-70.368,35.393
16:06:32:888,44.146,0.805,-0.351,-0.065,10.345,-68.147,28.484
16:06:33:052,44.310,0.793,0.034,-0.290,8.134,-64.789,16.939
16:06:33:052,44.311,0.549,0.539,-0.622,6.700,-63.166,8.586
16:06:33:053,44.311,0.194,0.829,-1.030,3.710,-59.644,-3.761
16:06:33:054,44.312,-0.756,1.193,-1.886,1.732,-55.867,-11.079
16:06:33:078,44.336,-0.934,-0.127,-2.041,0.669,-48.343,-19.395
16:06:33:079,44.337,-1.920,-1.199,-2.323,0.503,-41.116,-24.376
16:06:33:08,44.338,-1.712,-0.636,-2.268,-0.209,-39.623,-25.133
16:06:33:081,44.339,-0.954,2.331,1.365,-0.719,-39.085,-23.152
16:06:33:097,44.355,-1.269,-0.378,-1.037,1.540,-37.289,-19.008
16:06:33:122,44.380,-0.310,-1.226,-0.434,3.194,-32.450,-13.172
16:06:33:156,44.414,-0.937,0.978,-0.993,3.364,-27.795,-7.122
16:06:33:157,44.415,-0.850,0.243,-0.836,2.067,-25.711,-4.190
16:06:33:158,44.416,-0.228,0.063,-0.067,2.529,-26.545,-1.835
16:06:33:158,44.416,-0.198,0.117,-0.058,2.197,-27.548,-0.641
16:06:33:233,44.492,-0.006,-0.032,0.216,1.549,-29.075,0.770
16:06:33:233,44.492,-0.031,-0.100,0.173,0.739,-29.595,2.052
16:06:33:234,44.493,-0.099,-0.066,-0.032,0.075,-29.235,2.653
16:06:33:34,44.598,-0.135,0.044,-0.093,-0.725,-29.350,3.577
16:06:33:341,44.599,0.062,0.076,-0.188,-1.244,-30.413,4.250
16:06:33:341,44.599,0.043,0.038,0.008,-1.589,-32.442,5.467
16:06:33:343,44.601,0.005,0.149,0.134,-1.599,-34.479,7.015
16:06:33:36,44.618,0.314,0.172,0.188,-1.237,-35.642,8.093
16:06:33:384,44.642,0.360,0.197,-0.007,-0.264,-36.801,10.247
16:06:33:41,44.668,0.433,0.510,0.143,0.549,-36.810,12.199
16:06:33:436,44.695,0.706,0.402,0.451,2.605,-36.685,15.614
16:06:33:463,44.721,1.322,0.466,0.381,5.770,-35.631,20.005
16:06:33:517,44.775,1.863,0.491,0.320,8.422,-34.661,23.679
16:06:33:629,44.887,2.189,0.425,0.036,13.915,-33.463,29.789
16:06:33:63,44.888,2.025,0.367,-0.062,16.688,-30.560,35.439
16:06:33:631,44.889,-0.177,0.492,-0.258,19.383,-24.386,43.553
16:06:33:632,44.890,1.958,-1.311,-0.371,22.410,-22.869,47.563
16:06:33:649,44.907,0.649,-1.499,0.181,21.885,-21.066,49.909
16:06:33:65,44.908,0.718,-1.068,0.020,19.148,-18.842,47.591
16:06:33:703,44.961,0.128,-0.869,-0.399,16.793,-17.255,44.069
16:06:33:703,44.961,0.514,-0.731,-0.108,13.352,-16.681,36.047
16:06:33:726,44.984,0.514,-0.448,-0.127,11.465,-15.984,29.387
16:06:33:751,45.009,0.448,-0.129,-0.227,8.658,-15.576,17.974
16:06:33:777,45.036,0.140,0.507,-0.276,5.467,-14.074,5.292
16:06:33:804,45.062,-0.701,1.076,-0.357,2.665,-12.055,-3.377
16:06:33:83,45.088,-1.832,1.053,-0.271,-1.289,-6.006,-15.048
16:06:33:856,45.114,-2.745,0.402,-0.357,-1.344,-0.040,-20.987
16:06:33:882,45.140,-3.902,-1.629,0.191,0.387,7.864,-25.739
16:06:33:91,45.168,-2.845,-0.776,1.046,0.236,8.668,-25.970
16:06:33:936,45.194,1.025,2.280,1.369,-0.763,6.727,-23.074
16:06:33:994,45.252,-1.736,-0.154,-0.838,1.461,6.314,-17.823
16:06:33:995,45.253,-1.956,-1.236,-0.395,3.101,10.655,-12.026
16:06:33:996,45.254,-1.800,0.745,0.675,1.423,15.373,-6.013
16:06:34:014,45.272,-0.537,-0.338,-0.001,0.618,17.367,-3.064
16:06:34:068,45.326,-0.129,-0.035,0.231,0.706,14.430,-0.305
16:06:34:095,45.353,0.045,0.162,-0.029,-0.237,11.705,1.347
16:06:34:096,45.354,-0.049,-0.037,0.097,-0.756,10.832,2.509
16:06:34:119,45.377,-0.019,0.054,0.035,-1.596,10.075,4.004
16:06:34:206,45.464,0.024,0.102,-0.064,-2.217,9.887,4.793
16:06:34:206,45.464,-0.208,0.166,-0.209,-2.967,8.855,6.058
16:06:34:206,45.464,0.073,0.146,-0.107,-3.184,5.670,7.515
16:06:34:254,45.512,0.243,0.170,-0.137,-3.228,3.622,8.457
16:06:34:254,45.512,0.395,0.081,-0.051,-2.761,1.253,10.417
16:06:34:305,45.563,0.265,0.412,-0.188,-2.062,0.555,12.292
16:06:34:306,45.564,0.517,0.525,-0.129,-0.850,-0.262,15.793
16:06:34:416,45.674,1.107,0.270,-0.100,0.648,-1.099,18.584
16:06:34:417,45.675,1.512,0.276,-0.190,3.759,-1.926,23.762
16:06:34:418,45.676,1.835,0.276,-0.598,8.321,-2.753,29.852
16:06:34:419,45.677,2.236,0.903,-0.916,12.324,-3.371,34.402
16:06:34:434,45.692,0.830,-0.031,-0.617,17.345,-0.859,42.759
16:06:34:46,45.718,-0.238,1.382,-1.280,21.988,1.383,47.815
16:06:34:517,45.776,1.537,-1.670,-0.781,29.329,2.484,53.101
16:06:34:518,45.776,0.649,-0.950,-0.014,31.218,3.914,53.336
16:06:34:566,45.824,-0.049,-1.080,-0.287,28.601,6.610,51.933
16:06:34:596,45.854,0.310,-0.991,-0.653,23.703,10.792,47.306
16:06:34:596,45.854,0.213,-0.453,-0.425,20.094,11.689,42.128
16:06:34:645,45.903,0.349,-0.569,-0.423,16.600,13.012,32.850
16:06:34:704,45.963,0.050,-0.130,-0.403,14.621,13.909,25.035
16:06:34:704,45.963,-0.011,0.117,-0.449,12.561,14.653,11.919
16:06:34:704,45.963,-0.659,0.723,-0.443,9.854,14.920,-1.538
16:06:34:75,46.008,-1.691,1.586,-0.137,7.160,16.863,-9.652
16:06:34:778,46.036,-2.091,0.356,0.319,5.324,23.926,-18.500
16:06:34:779,46.037,-2.974,-1.012,1.236,5.527,30.000,-22.158
16:06:34:802,46.060,-2.750,-0.675,0.816,6.094,35.794,-25.096
16:06:34:828,46.086,-0.049,1.730,1.666,5.295,36.080,-24.398
16:06:34:856,46.114,-0.409,2.143,-1.034,6.622,36.778,-20.594
16:06:34:881,46.139,-0.615,-1.345,0.344,8.599,41.545,-14.086
16:06:34:906,46.165,-0.732,1.367,0.930,10.134,44.544,-9.301
16:06:34:991,46.249,-0.981,0.201,0.341,7.126,46.686,-3.768
16:06:34:992,46.250,-0.054,0.335,0.025,7.035,43.718,0.025
16:06:35:011,46.269,-0.001,0.055,0.180,6.740,43.237,1.550
16:06:35:037,46.295,-0.038,0.069,-0.096,6.636,42.746,2.499
16:06:35:066,46.324,-0.130,-0.022,0.066,6.161,42.671,3.586
16:06:35:092,46.351,-0.123,0.068,-0.035,5.974,42.428,4.153
16:06:35:118,46.376,-0.199,0.207,-0.152,5.359,40.973,5.019
16:06:35:144,46.402,-0.041,-0.088,-0.214,5.232,38.835,5.965
16:06:35:2,46.458,0.089,0.204,-0.197,5.277,37.520,6.672
16:06:35:2,46.458,0.206,-0.007,-0.325,5.905,36.328,8.386
16:06:35:221,46.479,0.016,0.339,-0.493,6.543,36.184,9.935
16:06:35:309,46.567,0.249,0.406,-0.516,8.122,35.958,13.132
16:06:35:309,46.567,0.582,0.345,-0.865,10.810,35.993,17.245
16:06:35:309,46.567,0.781,0.323,-1.123,13.290,36.430,20.619
16:06:35:326,46.584,0.864,0.136,-1.960,18.555,36.675,26.036
16:06:35:354,46.612,0.861,0.248,-1.910,22.255,38.060,30.753
16:06:35:41,46.668,0.121,0.003,-1.529,26.250,44.564,40.187
16:06:35:41,46.668,-1.262,0.626,-0.655,32.576,48.329,46.977
16:06:35:46,46.719,-0.086,-1.143,-1.935,33.975,50.434,49.737
16:06:35:461,46.719,0.338,-1.392,-0.831,33.450,55.646,50.271
16:06:35:484,46.742,-0.289,-1.043,-0.541,31.190,59.246,49.057
16:06:35:538,46.796,-0.741,-0.812,-0.555,26.220,64.039,44.024
16:06:35:565,46.823,-0.626,-0.583,-0.676,22.950,66.981,39.346
16:06:35:566,46.824,-0.840,-0.383,-0.502,18.913,72.234,31.208
16:06:35:591,46.849,-0.988,-0.181,-0.397,15.799,76.557,21.068
16:06:35:616,46.874,-1.112,0.178,-0.056,13.505,78.416,13.255
16:06:35:642,46.900,-0.997,0.595,0.626,9.495,80.176,0.722
16:06:35:669,46.927,-0.675,0.949,1.593,6.129,81.739,-6.778
16:06:35:695,46.953,-0.453,0.809,2.480,2.433,85.863,-15.318
16:06:35:722,46.980,-0.004,-0.708,3.538,1.249,88.693,-19.303
16:06:35:747,47.005,0.146,-1.188,3.244,-0.630,89.816,-20.902
16:06:35:773,47.031,1.510,0.749,1.625,-1.189,90.178,-17.982
16:06:35:826,47.084,-0.253,0.988,1.468,0.289,90.652,-14.734
16:06:35:854,47.112,-0.212,-1.109,0.443,2.418,95.806,-7.577
16:06:35:881,47.139,-1.073,-0.233,1.164,2.195,98.631,-3.479
16:06:35:881,47.139,0.020,0.295,1.277,-0.308,101.804,0.719
16:06:35:935,47.193,0.177,0.021,0.183,0.037,98.590,2.888
16:06:35:935,47.193,0.026,0.071,0.056,0.012,95.969,3.893
16:06:35:957,47.215,0.059,-0.044,-0.417,-0.648,93.219,5.537
16:06:36:011,47.269,-0.190,-0.017,-0.033,-1.220,92.929,6.392
16:06:36:038,47.296,-0.124,0.018,-0.125,-2.190,93.080,7.467
16:06:36:038,47.297,-0.246,0.139,0.152,-3.030,92.670,8.674
16:06:36:062,47.320,-0.224,0.014,-0.022,-3.222,90.841,9.702
16:06:36:088,47.346,-0.094,0.131,-0.129,-3.120,88.153,11.318
16:06:36:114,47.372,-0.245,-0.114,-0.510,-2.750,86.749,12.749
16:06:36:14,47.398,-0.041,0.250,-0.201,-2.289,85.976,15.437
16:06:36:275,47.533,-0.325,0.389,-0.378,-1.559,85.396,17.565
16:06:36:333,47.591,-0.160,0.316,-0.811,0.349,83.932,21.364
16:06:36:334,47.592,0.036,0.303,-1.062,3.141,83.064,26.124
16:06:36:335,47.593,-0.251,0.337,-1.385,5.455,82.977,29.848
16:06:36:336,47.594,-0.619,0.040,-1.985,11.168,81.795,35.499
16:06:36:36,47.618,-0.634,0.325,-2.358,16.300,80.885,39.469
16:06:36:36,47.618,-0.736,-0.139,-1.763,21.056,83.496,47.799
16:06:36:36,47.618,-1.112,1.320,0.436,28.115,85.571,54.466
16:06:36:361,47.619,-1.032,-0.540,-1.283,32.960,85.468,57.247
16:06:36:376,47.634,0.385,-1.825,-0.559,35.518,83.900,57.183
16:06:36:402,47.661,0.411,-1.016,-1.178,33.443,83.184,54.569
16:06:36:458,47.716,-0.273,-0.943,-0.027,27.888,83.941,48.390
16:06:36:459,47.717,-0.015,-0.809,-0.652,22.016,81.500,39.097
16:06:36:481,47.739,-0.080,-0.656,-0.620,18.088,80.256,32.072
16:06:36:508,47.766,-0.217,-0.086,-0.463,12.346,79.595,20.417
16:06:36:534,47.792,-0.181,0.189,-0.428,8.930,79.370,12.261
16:06:36:56,47.818,-0.186,0.787,-0.029,3.120,80.999,0.064
16:06:36:587,47.846,-0.282,1.821,1.676,-0.922,84.276,-7.641
16:06:36:807,48.065,-0.045,0.258,2.709,-4.120,89.733,-16.840
16:06:36:808,48.066,0.082,-0.696,3.122,-6.029,92.999,-22.766
16:06:36:808,48.066,0.438,-0.965,3.315,-7.137,93.583,-23.225
16:06:36:809,48.067,0.516,0.076,1.129,-6.447,94.207,-20.061
16:06:36:833,48.091,2.316,1.676,0.833,-5.058,94.843,-17.174
16:06:36:834,48.092,-0.053,0.736,1.971,-2.820,97.984,-12.466
16:06:36:835,48.093,-0.408,-0.571,0.209,-1.143,102.737,-5.754
16:06:36:835,48.093,-0.390,0.265,1.193,-2.643,106.501,-2.638
16:06:36:852,48.110,0.453,0.432,0.710,-3.301,106.372,0.868
16:06:36:853,48.111,-0.204,-0.004,-0.023,-3.217,103.308,2.415
16:06:36:875,48.133,-0.110,0.056,0.071,-2.969,99.520,4.373
16:06:36:93,48.188,-0.075,0.012,-0.324,-3.181,97.853,5.593
16:06:36:985,48.243,-0.238,-0.121,-0.284,-3.795,97.331,7.227
16:06:36:986,48.244,-0.211,0.102,0.381,-4.623,98.132,8.859
16:06:37:01,48.268,-0.320,-0.040,0.017,-4.717,96.488,10.176
16:06:37:011,48.269,-0.107,0.150,-0.293,-4.316,93.469,12.101
16:06:37:033,48.291,-0.135,0.055,-0.258,-4.076,92.535,13.763
16:06:37:086,48.344,-0.122,0.372,-0.043,-3.589,91.811,16.521
16:06:37:116,48.374,-0.228,0.398,-0.710,-2.281,89.732,19.545
16:06:37:116,48.374,-0.244,0.365,-0.926,-0.850,88.445,22.045
16:06:37:196,48.454,-0.261,0.295,-1.075,1.881,87.918,26.980
16:06:37:197,48.455,-0.415,0.261,-1.243,4.175,87.980,30.920
16:06:37:198,48.456,-0.759,0.099,-2.027,10.211,86.510,36.963
16:06:37:216,48.474,-0.728,0.332,-2.560,16.307,85.063,41.137
16:06:37:272,48.530,-0.686,-0.033,-2.066,22.875,87.160,49.541
16:06:37:298,48.556,-1.523,1.562,0.587,30.990,89.806,57.173
16:06:37:298,48.556,-0.541,-1.699,-1.456,36.531,89.941,60.428
16:06:37:323,48.581,0.606,-1.345,-0.352,39.847,89.304,60.283
16:06:37:375,48.633,0.160,-1.386,-0.070,37.014,89.039,58.156
16:06:37:403,48.661,-0.038,-0.806,-0.361,30.794,89.447,52.184
16:06:37:404,48.662,0.228,-1.075,-0.477,25.139,87.092,43.213
16:06:37:426,48.684,0.164,-0.806,-0.572,21.099,85.686,36.046
16:06:37:453,48.711,-0.064,-0.132,-0.475,14.948,84.710,23.802
16:06:37:508,48.766,-0.080,0.351,-0.324,11.367,84.122,15.206
16:06:37:509,48.767,-0.028,0.898,-0.039,6.003,83.825,1.902
16:06:37:531,48.790,-0.120,1.869,1.204,1.118,87.210,-9.795
16:06:37:558,48.816,-0.153,0.913,2.047,0.047,91.551,-16.275
16:06:37:613,48.871,0.473,-0.659,2.887,-0.106,98.863,-22.763
16:06:37:614,48.872,0.006,-0.763,2.907,-0.265,101.273,-24.328
16:06:37:724,48.982,0.988,-0.393,2.502,0.024,101.593,-23.347
16:06:37:724,48.983,-0.191,2.449,-1.026,1.205,100.157,-19.565
16:06:37:725,48.983,-0.268,-0.572,-0.430,3.150,101.217,-12.843
16:06:37:726,48.984,-0.342,-0.686,2.290,4.493,107.054,-5.608
16:06:37:847,49.105,0.597,0.922,1.275,2.789,109.103,-2.097
16:06:37:874,49.132,-0.040,-0.298,-0.088,3.086,106.249,0.777
16:06:37:908,49.166,-0.108,0.153,-0.033,2.670,104.472,2.183
16:06:37:909,49.167,-0.163,0.047,-0.083,2.430,103.198,3.848
16:06:37:91,49.168,-0.064,-0.109,-0.080,2.406,102.650,5.388
16:06:37:91,49.168,-0.061,0.017,-0.049,2.229,102.762,6.133
16:06:37:928,49.186,-0.052,-0.131,0.239,2.127,103.026,7.109
16:06:37:929,49.187,-0.267,0.016,-0.026,1.983,102.171,7.676
16:06:37:953,49.211,-0.270,0.155,-0.041,2.023,100.170,8.731
16:06:38:093,49.351,-0.193,-0.053,-0.298,2.462,98.508,9.628
16:06:38:093,49.351,0.084,0.259,-0.548,3.306,96.532,11.468
16:06:38:093,49.351,-0.239,0.237,-0.486,4.836,95.955,14.178
16:06:38:094,49.352,-0.463,0.335,-0.469,6.205,96.050,16.539
16:06:38:11,49.368,-0.332,0.390,-0.844,9.039,96.365,20.877
16:06:38:139,49.397,-0.432,0.257,-1.471,11.701,96.471,24.219
16:06:38:139,49.398,-0.758,0.156,-2.109,17.261,96.336,29.744
16:06:38:162,49.420,-1.321,0.488,-1.944,24.154,96.609,35.981
16:06:38:189,49.447,-1.589,-0.057,-1.627,26.764,100.303,42.110
16:06:38:214,49.472,-0.831,0.926,0.482,30.458,107.684,50.816
16:06:38:24,49.498,-1.683,-2.239,-1.270,34.308,110.183,55.040
16:06:38:296,49.554,-0.606,-1.896,-0.883,37.216,113.965,55.957
16:06:38:296,49.554,-0.968,-1.012,0.060,34.161,119.584,53.716
16:06:38:319,49.577,-1.081,-1.058,0.095,31.092,124.118,51.088
16:06:38:345,49.603,-1.083,-0.642,0.450,25.867,132.274,45.188
16:06:38:403,49.661,-1.295,-0.650,0.939,22.617,137.825,39.910
16:06:38:405,49.663,-1.018,-0.346,1.370,19.134,145.044,29.963
16:06:38:405,49.663,-0.620,0.033,1.343,17.617,148.082,22.205
16:06:38:479,49.737,-0.552,0.384,0.800,15.643,150.595,10.040
16:06:38:48,49.738,0.185,0.911,1.967,11.585,158.432,0.024
16:06:38:724,49.982,2.938,0.861,1.852,8.923,165.864,-4.657
16:06:38:724,49.982,3.510,-0.657,1.887,6.071,169.012,-11.627
16:06:38:725,49.983,1.769,0.192,0.249,3.297,165.064,-13.984
16:06:38:726,49.984,2.174,1.964,-1.854,1.169,162.365,-13.283
16:06:38:74,49.998,1.836,0.049,0.444,4.444,168.015,-7.760
16:06:38:767,50.025,0.671,-0.937,-0.044,4.255,172.072,-2.837
16:06:38:881,50.139,0.634,0.264,0.530,3.637,174.300,2.130
16:06:38:881,50.139,0.579,0.841,-0.006,2.344,175.244,4.313
16:06:38:881,50.140,0.012,-0.040,0.075,1.946,173.963,6.241
16:06:38:882,50.141,-0.070,0.045,-0.010,1.501,172.734,7.248
16:06:38:956,50.214,-0.257,-0.090,0.111,0.687,171.471,8.732
16:06:38:956,50.214,0.012,0.000,0.098,-0.433,170.977,9.593
16:06:38:985,50.243,-0.121,-0.053,-0.037,-0.990,170.458,10.114
16:06:38:985,50.243,-0.177,0.000,0.082,-1.822,169.199,10.931
16:06:38:986,50.244,-0.249,0.038,0.028,-2.254,168.058,11.681
16:06:39:063,50.321,-0.499,0.144,0.133,-2.499,164.916,14.945
16:06:39:063,50.322,-0.530,-0.025,0.216,-1.702,163.644,16.479
16:06:39:064,50.323,-0.376,0.449,-0.177,-0.071,161.985,19.660
16:06:39:065,50.323,-0.903,0.500,-0.441,1.541,160.852,22.151
16:06:39:169,50.427,-1.140,0.270,-0.365,4.846,159.789,26.213
16:06:39:17,50.428,-1.794,0.340,-0.096,7.439,160.074,29.588
16:06:39:171,50.429,-2.447,-0.030,0.059,12.844,160.471,35.344
16:06:39:171,50.429,-2.274,0.162,0.183,20.223,160.913,41.962
16:06:39:272,50.530,-2.135,-0.310,0.592,23.003,163.577,48.063
16:06:39:272,50.530,-0.187,0.571,-0.288,28.048,168.376,55.834
16:06:39:272,50.530,-1.422,-0.698,1.028,30.468,170.446,60.256
16:06:39:327,50.585,-0.731,-1.933,-0.258,29.699,173.442,61.623
16:06:39:328,50.586,-0.580,-0.807,0.207,24.566,177.150,58.652
16:06:39:328,50.586,-0.282,-1.039,0.449,20.855,179.082,54.149
16:06:39:329,50.587,-0.348,-0.758,0.237,17.101,178.901,45.112
16:06:39:378,50.636,-0.362,-0.623,0.353,14.735,178.768,37.669
16:06:39:378,50.636,-0.265,-0.169,0.421,11.391,179.248,24.910
16:06:39:379,50.637,0.127,0.483,0.723,7.290,-179.901,11.362
16:06:39:38,50.638,0.709,1.010,0.796,3.199,-178.518,2.628
16:06:39:395,50.653,1.568,0.994,-0.074,-2.385,-174.148,-8.218
16:06:39:423,50.681,2.646,0.205,-0.513,-4.460,-170.046,-13.620
16:06:39:449,50.707,3.363,-0.670,-0.929,-5.859,-164.835,-18.208
16:06:39:502,50.760,1.662,0.299,-0.625,-6.409,-163.343,-18.128
16:06:39:644,50.902,-2.991,1.850,-0.231,-5.387,-160.778,-14.961
16:06:39:644,50.902,2.397,1.587,-0.927,-3.584,-158.668,-10.358
16:06:39:644,50.902,0.939,-1.625,0.814,-1.731,-154.766,-4.574
16:06:39:644,50.902,0.520,1.320,-0.803,-3.707,-149.685,0.977
16:06:39:851,51.109,0.207,-0.236,-0.576,-3.804,-148.266,3.637
16:06:39:852,51.110,0.124,0.108,-0.320,-3.601,-150.237,6.157
16:06:39:853,51.111,-0.177,0.319,-0.003,-3.923,-153.535,8.322
16:06:39:871,51.129,-0.339,-0.057,0.261,-5.100,-155.388,11.339
16:06:39:872,51.130,0.060,0.182,-0.070,-5.456,-155.525,12.008
16:06:39:958,51.216,-0.310,0.031,0.004,-5.614,-157.986,13.763
16:06:39:958,51.216,-0.197,0.112,0.235,-5.510,-159.658,14.936
16:06:39:959,51.217,-0.076,0.105,0.275,-5.222,-161.074,16.945
16:06:39:959,51.217,-0.512,0.178,0.112,-4.423,-162.939,19.348
16:06:40:,51.258,-0.659,0.227,0.104,-3.495,-163.906,21.361
16:06:40:063,51.321,-0.954,0.370,0.409,-1.629,-164.735,25.196
16:06:40:064,51.322,-1.175,0.227,0.360,0.159,-164.923,28.333
16:06:40:064,51.322,-1.768,0.023,0.665,4.178,-165.030,34.018
16:06:40:064,51.322,-1.827,0.109,1.279,11.735,-166.497,40.243
16:06:40:162,51.420,-2.280,0.214,1.570,17.136,-166.628,45.213
16:06:40:162,51.420,-0.519,-0.231,0.912,20.590,-162.034,53.640
16:06:40:21,51.468,-1.038,-0.444,1.676,25.371,-159.715,58.267
16:06:40:246,51.504,-0.506,-2.361,1.445,34.171,-158.669,61.352
16:06:40:246,51.504,-0.693,-1.348,0.369,33.459,-157.430,59.067
16:06:40:246,51.504,0.187,-0.653,0.374,29.133,-154.270,56.267
16:06:40:247,51.505,0.090,-0.893,0.865,22.383,-149.652,49.505
16:06:40:298,51.556,0.319,-0.710,0.880,18.429,-146.676,43.734
16:06:40:299,51.557,0.547,-0.398,0.968,13.034,-141.628,33.411
16:06:40:299,51.557,0.723,0.137,0.857,9.142,-137.538,21.791
16:06:40:3,51.558,0.737,0.471,0.526,6.711,-135.802,13.708
16:06:40:346,51.604,0.809,0.953,0.176,2.218,-132.236,2.150
16:06:40:346,51.604,1.195,1.144,-1.082,-1.071,-127.666,-4.674
16:06:40:347,51.605,1.556,0.096,-1.564,-3.613,-119.462,-13.188
16:06:40:394,51.652,1.811,-0.499,-2.952,-3.852,-113.793,-17.267
16:06:40:422,51.680,1.365,-0.824,-2.523,-5.010,-111.846,-19.188
16:06:40:423,51.681,-1.946,1.067,-1.482,-6.701,-112.922,-17.194
16:06:40:533,51.791,-1.459,2.236,0.761,-5.130,-113.161,-13.576
16:06:40:534,51.792,0.373,-0.894,-0.468,-3.187,-109.224,-8.289
16:06:40:535,51.793,1.935,0.842,-1.170,-1.986,-105.504,-3.554
16:06:40:536,51.794,-0.141,0.931,-1.059,-5.177,-100.540,1.632
16:06:40:665,51.923,-0.064,-0.020,-0.347,-4.324,-101.621,4.811
16:06:40:666,51.924,-0.268,0.109,0.105,-4.328,-104.166,6.622
