Time,Second,AccelerationX,AccelerationY,AccelerationZ,EulerAnglesX,EulerAnglesY,EulerAnglesZ
16:13:25:735,0.000,-0.352,1.511,-0.328,-40.163,32.385,-68.722
16:13:25:736,0.001,-0.646,1.468,0.166,-60.592,40.014,-79.393
16:13:25:737,0.002,-0.728,0.769,0.400,-88.146,46.697,-89.383
16:13:25:737,0.002,-0.577,-0.065,0.354,-105.901,50.770,-95.212
16:13:25:84,0.105,-0.433,-0.609,0.354,-126.324,56.772,-102.372
16:13:25:841,0.106,-0.612,-1.101,0.639,-136.645,60.266,-105.958
16:13:25:842,0.107,-0.603,-1.277,0.700,-150.086,64.741,-109.771
16:13:25:842,0.107,-0.326,-1.571,0.564,-162.442,68.245,-111.654
16:13:25:858,0.123,-0.228,-1.595,0.604,-169.047,69.750,-111.444
16:13:25:917,0.182,-0.027,-1.602,0.603,-175.993,70.678,-109.172
16:13:25:918,0.183,0.116,-1.309,0.800,-176.902,70.308,-106.591
16:13:25:919,0.184,-0.089,-0.858,0.949,-166.594,68.717,-100.953
16:13:25:92,0.185,-0.752,0.955,1.266,-116.585,65.053,-93.678
16:13:26:129,0.394,-0.970,1.785,0.670,-78.328,60.229,-87.510
16:13:26:129,0.394,-0.024,2.911,-0.086,-57.209,50.802,-77.595
16:13:26:129,0.394,0.451,1.782,-0.668,-48.076,44.687,-72.045
16:13:26:13,0.395,0.363,0.604,-1.087,-31.274,38.471,-67.086
16:13:26:225,0.490,0.781,-0.338,-1.371,-18.686,32.918,-63.430
16:13:26:364,0.629,0.745,-0.624,-1.164,-16.388,28.549,-61.539
16:13:26:365,0.630,0.878,-0.670,-0.885,-19.481,21.699,-60.226
16:13:26:366,0.631,0.963,-0.941,-0.624,-21.465,18.229,-60.530
16:13:26:367,0.632,0.815,-1.351,-0.453,-20.723,16.378,-62.896
16:13:26:391,0.656,0.726,-1.350,-0.313,-22.079,16.827,-66.289
16:13:26:392,0.657,0.696,-1.129,-0.305,-27.294,17.913,-68.651
16:13:26:392,0.657,0.646,-0.725,-0.463,-40.630,20.996,-72.320
16:13:26:393,0.658,0.672,1.130,-0.951,-50.121,24.500,-74.926
16:13:26:42,0.685,-0.725,2.429,-0.899,-63.407,32.003,-80.149
16:13:26:42,0.685,-0.156,2.545,-0.389,-73.105,37.482,-84.073
16:13:26:42,0.685,-0.813,1.933,-0.137,-94.512,46.582,-91.386
16:13:26:42,0.685,-0.900,0.749,0.060,-122.464,55.016,-98.858
16:13:26:435,0.700,-0.709,0.605,0.344,-135.358,60.342,-103.337
16:13:26:627,0.892,-0.759,-0.174,0.569,-151.263,67.130,-108.480
16:13:26:628,0.893,-0.626,-0.952,0.471,-161.958,70.534,-110.703
16:13:26:629,0.894,-0.412,-1.333,0.480,-171.393,73.792,-112.921
16:13:26:705,0.970,-0.035,-1.377,0.352,-170.611,80.032,-114.826
16:13:26:706,0.971,0.026,-1.379,0.437,-166.904,83.503,-113.931
16:13:26:707,0.972,0.057,-1.343,0.529,-164.780,84.814,-112.254
16:13:26:708,0.973,0.087,-1.240,0.585,-160.469,84.957,-108.486
16:13:26:805,1.070,-0.883,0.814,1.340,-130.779,80.742,-99.299
16:13:26:806,1.071,-0.880,2.489,0.775,-93.638,72.697,-90.887
16:13:26:889,1.154,0.028,2.370,0.042,-70.123,67.905,-84.685
16:13:26:89,1.155,-0.152,1.252,-0.331,-49.649,61.081,-78.000
16:13:26:891,1.156,0.283,0.967,-1.112,-45.132,55.471,-74.100
16:13:26:891,1.156,0.123,0.387,-1.305,-36.364,52.853,-71.767
16:13:26:942,1.207,0.079,-0.262,-0.889,-18.639,49.658,-70.143
16:13:26:943,1.208,0.369,-0.864,-0.883,-6.764,47.598,-68.591
16:13:26:943,1.208,0.466,-1.231,-0.794,-0.504,44.440,-66.964
16:13:26:944,1.209,0.554,-1.222,-0.932,-4.342,42.021,-66.725
16:13:27:021,1.286,0.504,-1.125,-1.000,-6.996,41.739,-67.187
16:13:27:021,1.286,0.322,-1.053,-1.014,-7.625,43.517,-68.557
16:13:27:022,1.287,0.092,-1.062,-1.015,-7.543,46.210,-69.817
16:13:27:022,1.287,-0.103,-0.586,-1.071,-16.479,51.724,-72.127
16:13:27:073,1.338,-0.658,1.559,-1.769,-33.780,59.118,-75.293
16:13:27:074,1.339,-1.404,2.354,-1.273,-42.096,65.210,-78.408
16:13:27:074,1.339,-1.679,1.968,-0.105,-55.224,75.337,-84.593
16:13:27:075,1.340,-1.406,1.700,0.485,-85.816,82.022,-89.396
16:13:27:099,1.364,-1.027,1.132,0.666,-121.679,92.021,-96.339
16:13:27:1,1.365,-0.702,0.157,0.968,-143.676,101.052,-102.179
16:13:27:101,1.366,-0.552,-0.336,1.008,-155.746,106.031,-105.291
16:13:27:101,1.366,-0.091,-1.019,1.052,-167.005,112.650,-108.578
16:13:27:205,1.470,0.176,-1.407,0.732,-171.556,116.495,-110.016
16:13:27:205,1.470,0.353,-1.442,0.387,-175.085,122.103,-111.046
16:13:27:206,1.471,0.564,-1.491,0.272,-174.172,125.709,-110.734
16:13:27:206,1.471,0.424,-1.508,0.183,-166.294,129.532,-108.641
16:13:27:232,1.497,0.447,-1.344,0.448,-150.061,131.480,-105.248
16:13:27:232,1.497,0.625,-0.818,0.555,-137.014,130.947,-102.385
16:13:27:232,1.497,0.544,0.481,1.137,-117.580,126.847,-96.564
16:13:27:233,1.498,-0.235,1.427,1.567,-100.593,122.353,-91.923
16:13:27:283,1.548,-0.518,2.139,1.557,-53.882,113.861,-82.667
16:13:27:284,1.549,-0.596,2.168,-0.294,-46.365,103.884,-74.303
16:13:27:284,1.549,-0.607,1.915,-0.553,-43.977,98.815,-70.633
16:13:27:285,1.550,-0.713,0.763,-0.824,-30.008,94.650,-67.649
16:13:27:334,1.599,-0.702,0.063,-0.608,-15.284,93.298,-66.384
16:13:27:335,1.600,-0.636,-0.593,-0.698,1.472,90.609,-64.975
16:13:27:336,1.601,-0.545,-0.906,-0.827,7.201,86.598,-64.436
16:13:27:338,1.603,-0.420,-1.128,-0.968,6.285,83.731,-64.567
16:13:27:467,1.732,-0.244,-1.246,-0.992,2.065,80.745,-65.461
16:13:27:467,1.732,-0.396,-1.331,-0.849,-0.518,80.319,-66.503
16:13:27:468,1.733,-0.535,-1.423,-0.788,-3.091,81.617,-68.272
16:13:27:469,1.734,-0.622,-0.930,-0.684,-12.980,84.893,-69.405
16:13:27:598,1.863,-0.587,-0.365,-0.586,-23.516,88.417,-70.198
16:13:27:598,1.863,-1.510,1.382,-0.736,-35.734,95.876,-72.160
16:13:27:599,1.864,-1.753,2.191,0.075,-43.527,101.588,-74.164
16:13:27:6,1.865,-0.850,2.531,0.586,-59.162,112.814,-79.544
16:13:27:621,1.886,-0.377,1.509,0.933,-78.378,124.971,-86.185
16:13:27:621,1.886,0.025,0.854,0.830,-91.342,132.733,-90.437
16:13:27:622,1.887,0.380,0.130,0.727,-110.779,143.902,-96.237
16:13:27:671,1.936,0.612,-0.458,0.745,-124.710,150.079,-99.416
16:13:27:671,1.936,0.748,-1.061,0.752,-145.253,156.197,-102.788
16:13:27:724,1.989,0.676,-1.585,0.567,-158.213,159.537,-105.301
16:13:27:724,1.989,0.731,-1.617,0.453,-159.113,161.013,-106.559
16:13:27:776,2.041,0.685,-1.457,0.159,-154.787,161.842,-107.330
16:13:27:776,2.041,0.734,-1.318,0.025,-151.018,161.246,-106.562
16:13:27:799,2.064,0.814,-1.233,0.091,-144.037,158.527,-103.267
16:13:27:854,2.119,0.883,-0.693,0.540,-135.034,155.665,-99.457
16:13:27:854,2.119,1.080,1.365,1.433,-97.191,149.764,-91.276
16:13:27:908,2.173,0.221,2.681,0.578,-56.996,140.628,-81.572
16:13:27:908,2.173,-0.421,2.652,0.209,-45.167,134.158,-75.672
16:13:27:988,2.253,-1.044,1.543,-0.192,-36.069,125.109,-69.161
16:13:27:989,2.254,-1.067,0.974,-0.532,-30.964,119.970,-66.078
16:13:27:99,2.255,-1.036,0.133,-0.687,-23.245,113.726,-63.140
16:13:28:067,2.332,-0.876,-0.493,-0.872,-16.514,108.086,-61.519
16:13:28:067,2.332,-0.620,-0.827,-0.795,-13.643,104.625,-61.039
16:13:28:068,2.333,-0.496,-1.111,-0.821,-12.755,100.199,-61.728
16:13:28:117,2.382,-0.433,-1.425,-0.876,-13.663,98.142,-63.062
16:13:28:117,2.382,-0.328,-1.379,-0.818,-18.292,97.002,-65.961
16:13:28:169,2.434,-0.361,-1.205,-0.741,-26.719,98.360,-69.119
16:13:28:17,2.435,-0.454,-0.992,-0.681,-34.030,100.578,-71.270
16:13:28:193,2.458,-0.841,0.046,-0.650,-47.437,105.870,-74.902
16:13:28:248,2.513,-1.327,1.583,-0.745,-57.130,110.549,-77.817
16:13:28:248,2.513,-0.832,2.652,0.340,-71.187,118.686,-83.119
16:13:28:33,2.595,-0.314,2.306,0.897,-88.352,128.020,-89.506
16:13:28:331,2.596,0.051,1.671,1.229,-104.767,133.882,-94.188
16:13:28:331,2.596,0.299,0.588,0.884,-125.196,141.060,-100.632
16:13:28:379,2.644,0.544,-0.268,0.833,-136.841,145.238,-104.446
16:13:28:38,2.645,0.690,-0.901,0.704,-151.457,149.875,-108.988
16:13:28:436,2.701,0.788,-1.321,0.562,-160.469,152.876,-111.569
16:13:28:437,2.702,0.815,-1.454,0.455,-163.282,155.101,-112.464
16:13:28:437,2.702,0.765,-1.445,0.210,-164.298,158.366,-112.502
16:13:28:484,2.749,0.670,-1.528,0.278,-163.882,160.022,-111.378
16:13:28:485,2.750,0.675,-1.436,0.344,-159.910,160.316,-108.098
16:13:28:567,2.832,0.775,-0.984,0.313,-147.890,157.992,-103.206
16:13:28:567,2.832,0.780,-0.411,0.429,-132.639,154.907,-99.105
16:13:28:568,2.833,0.612,1.304,1.110,-95.559,147.670,-91.173
16:13:28:644,2.909,-0.014,2.233,0.847,-66.009,140.978,-83.790
16:13:28:645,2.910,-0.522,2.910,0.015,-46.150,129.260,-72.996
16:13:28:646,2.911,-0.956,2.094,-0.417,-37.669,122.314,-67.819
16:13:28:694,2.959,-0.973,0.592,-0.672,-26.963,115.243,-63.925
16:13:28:695,2.960,-0.884,-0.257,-0.673,-16.278,110.694,-62.687
16:13:28:746,3.011,-0.744,-0.461,-0.702,-10.717,108.205,-62.406
16:13:28:747,3.012,-0.549,-0.892,-0.640,-4.345,104.561,-62.472
16:13:28:77,3.035,-0.471,-1.271,-0.667,-1.888,102.309,-62.818
16:13:28:826,3.091,-0.376,-1.349,-0.759,-2.200,99.622,-64.026
16:13:28:826,3.091,-0.242,-1.279,-0.690,-6.308,98.695,-65.997
16:13:28:879,3.144,-0.249,-1.189,-0.659,-10.374,99.251,-67.576
16:13:28:879,3.144,-0.420,-1.146,-0.629,-17.186,101.701,-69.949
16:13:28:959,3.224,-0.899,-0.443,-0.625,-23.627,104.199,-71.419
16:13:28:96,3.225,-1.736,2.076,-0.841,-37.138,108.865,-73.616
16:13:28:961,3.226,-0.943,3.022,0.190,-48.404,115.331,-77.418
16:13:29:009,3.274,-0.776,2.498,0.964,-53.285,120.675,-81.543
16:13:29:01,3.275,-0.299,1.053,0.853,-83.708,127.775,-88.847
16:13:29:091,3.356,0.264,0.646,0.703,-107.060,132.467,-93.617
16:13:29:091,3.356,0.488,0.244,0.810,-130.409,140.268,-99.815
16:13:29:092,3.357,0.662,-0.406,0.906,-151.201,147.855,-103.998
16:13:29:278,3.543,0.768,-1.027,0.783,-162.617,152.265,-106.024
16:13:29:279,3.544,0.753,-1.436,0.498,-174.141,158.628,-108.250
16:13:29:279,3.544,0.653,-1.586,0.223,-177.562,163.104,-109.465
16:13:29:28,3.545,0.537,-1.634,-0.410,-177.705,168.803,-110.102
16:13:29:304,3.569,0.535,-2.032,-0.427,-173.408,171.165,-107.784
16:13:29:305,3.570,0.602,-1.743,-0.092,-159.389,171.751,-105.015
16:13:29:306,3.571,1.122,-0.166,0.492,-124.313,170.072,-100.093
16:13:29:306,3.571,1.111,1.079,1.005,-108.065,165.350,-95.947
16:13:29:321,3.586,0.654,2.085,1.088,-76.684,154.230,-86.281
16:13:29:348,3.613,0.204,2.171,0.235,-49.178,146.600,-78.673
16:13:29:402,3.667,-0.542,2.090,0.495,-33.793,136.420,-70.170
16:13:29:404,3.669,-1.087,1.464,-0.342,-34.783,127.484,-65.478
16:13:29:455,3.720,-1.018,0.114,-0.486,-29.509,123.677,-64.027
16:13:29:456,3.721,-0.716,-0.346,-0.333,-14.660,120.670,-63.334
16:13:29:537,3.802,-0.684,-0.768,-0.329,-5.138,118.804,-63.265
16:13:29:537,3.802,-0.677,-1.050,-0.427,2.740,115.440,-63.551
16:13:29:538,3.803,-0.726,-1.229,-0.605,3.881,112.652,-64.626
16:13:29:586,3.851,-0.803,-1.180,-0.649,3.566,112.101,-65.817
16:13:29:692,3.957,-0.845,-1.319,-0.584,5.163,113.716,-68.189
16:13:29:692,3.957,-1.096,-1.255,-0.389,6.726,116.282,-69.695
16:13:29:752,4.017,-1.313,-0.927,-0.132,4.545,122.086,-71.757
16:13:29:752,4.017,-1.938,0.552,0.316,-10.577,129.793,-74.179
16:13:29:752,4.017,-1.543,2.245,1.137,-28.268,136.101,-76.410
16:13:29:753,4.018,-0.732,2.652,1.649,-49.073,147.182,-81.214
16:13:29:799,4.064,0.240,1.731,1.333,-62.552,155.006,-85.134
16:13:29:8,4.065,0.463,0.742,1.033,-97.673,166.040,-91.232
16:13:29:801,4.066,0.817,0.012,0.787,-124.335,176.480,-96.467
16:13:29:849,4.114,0.934,-0.247,0.645,-133.311,-177.364,-99.155
16:13:29:876,4.141,0.960,-0.897,0.320,-141.400,-169.605,-101.929
16:13:29:877,4.142,0.852,-1.157,0.069,-144.542,-165.250,-102.914
16:13:29:986,4.251,0.687,-1.177,-0.190,-144.201,-159.534,-103.314
16:13:29:987,4.252,0.420,-1.404,-0.576,-138.998,-155.031,-101.960
16:13:29:988,4.253,0.377,-1.427,-0.473,-131.063,-152.959,-100.000
16:13:29:988,4.253,0.632,-1.135,-0.441,-112.494,-151.373,-95.656
16:13:30:059,4.324,0.722,0.524,-0.459,-71.401,-154.008,-85.289
16:13:30:06,4.325,0.562,1.544,-0.020,-49.561,-159.022,-78.186
16:13:30:14,4.405,0.001,2.633,0.721,-37.742,-163.775,-72.407
16:13:30:141,4.406,-0.660,2.481,0.611,-27.548,-171.555,-64.784
16:13:30:142,4.407,-0.725,0.834,0.475,-18.412,-177.327,-60.958
16:13:30:251,4.516,-0.784,0.271,0.439,-13.883,179.559,-60.091
16:13:30:252,4.517,-0.765,-0.183,0.294,-7.825,175.350,-60.397
16:13:30:252,4.517,-0.751,-0.388,0.356,-2.095,172.743,-61.547
16:13:30:252,4.517,-0.807,-0.894,0.298,7.542,169.303,-64.048
16:13:30:38,4.645,-0.846,-1.177,0.062,12.505,167.475,-65.744
16:13:30:381,4.646,-0.960,-1.209,0.150,17.354,166.051,-68.057
16:13:30:382,4.647,-0.928,-1.199,0.408,20.168,167.163,-70.451
16:13:30:383,4.648,-0.846,-1.028,0.673,21.177,169.451,-71.822
16:13:30:512,4.777,-0.673,-0.564,0.912,20.937,175.211,-73.682
16:13:30:512,4.777,-0.492,0.352,1.538,21.038,-179.632,-75.309
16:13:30:513,4.778,-0.088,0.793,1.906,23.722,-171.048,-78.469
16:13:30:514,4.779,0.593,1.213,1.658,25.827,-162.658,-82.328
16:13:30:643,4.908,0.919,1.610,1.280,19.261,-156.935,-85.332
16:13:30:643,4.908,1.141,1.604,0.476,-89.376,-148.858,-89.980
16:13:30:644,4.909,0.948,0.714,-0.036,-131.600,-143.612,-93.211
16:13:30:645,4.910,0.778,0.265,-0.392,-141.556,-135.404,-98.127
16:13:30:697,4.962,0.755,-0.115,-0.673,-142.374,-127.160,-102.078
16:13:30:697,4.962,0.645,-0.662,-0.978,-141.868,-121.791,-103.822
16:13:30:697,4.962,0.273,-1.283,-0.863,-139.829,-114.487,-105.076
16:13:30:698,4.963,0.123,-1.382,-0.829,-137.151,-110.073,-105.004
16:13:30:826,5.091,-0.031,-1.486,-0.563,-130.838,-105.165,-103.520
16:13:30:827,5.092,0.004,-1.484,-0.288,-119.290,-102.486,-100.241
16:13:30:828,5.093,-0.035,-1.211,-0.367,-108.442,-101.930,-97.152
16:13:30:852,5.117,0.713,2.153,-1.059,-81.216,-108.373,-85.529
16:13:30:853,5.118,0.335,2.512,-0.578,-69.963,-116.566,-78.091
16:13:30:854,5.119,-0.957,1.716,-0.305,-61.131,-128.225,-70.721
16:13:30:855,5.120,-0.117,1.653,0.152,-58.459,-134.573,-68.122
16:13:30:958,5.223,-0.212,0.914,0.594,-54.384,-142.672,-65.589
16:13:30:959,5.224,-0.324,0.530,0.696,-50.781,-147.515,-65.103
16:13:30:96,5.225,-0.096,-0.359,0.796,-42.684,-152.992,-66.177
16:13:30:96,5.225,-0.371,-0.929,0.852,-32.948,-158.116,-66.893
16:13:31:034,5.299,-0.551,-0.983,0.543,-28.134,-161.075,-67.131
16:13:31:034,5.299,-0.608,-1.202,0.724,-21.361,-164.391,-68.138
16:13:31:035,5.300,-0.727,-1.315,0.696,-20.695,-165.689,-69.739
16:13:31:083,5.348,-0.705,-1.140,0.882,-24.779,-165.230,-71.768
16:13:31:083,5.348,-0.494,-0.581,0.800,-30.689,-161.650,-74.177
16:13:31:108,5.373,-0.268,-0.119,0.992,-34.181,-157.572,-76.102
16:13:31:221,5.486,-0.004,0.886,1.450,-42.626,-150.099,-79.088
16:13:31:221,5.486,0.871,1.954,1.455,-52.803,-144.637,-80.811
16:13:31:222,5.487,1.049,2.216,0.341,-69.096,-134.837,-83.810
16:13:31:222,5.487,0.694,1.280,0.001,-79.293,-126.968,-86.875
16:13:31:485,5.750,0.745,0.852,-0.335,-95.022,-115.344,-91.358
16:13:31:485,5.750,0.652,0.063,-0.596,-110.024,-104.811,-94.990
16:13:31:485,5.750,0.494,-0.200,-0.496,-117.982,-98.958,-96.857
16:13:31:485,5.750,0.206,-0.821,-0.775,-127.502,-91.395,-99.109
16:13:31:536,5.801,-0.016,-1.175,-0.792,-132.087,-87.231,-100.113
16:13:31:537,5.802,-0.348,-1.311,-0.440,-136.031,-82.708,-100.972
16:13:31:537,5.802,-0.117,-1.446,-0.220,-135.601,-80.743,-100.464
16:13:31:538,5.803,0.048,-1.481,-0.370,-130.654,-80.557,-99.316
16:13:31:557,5.822,-0.258,-0.773,-0.749,-116.594,-81.625,-96.858
16:13:31:557,5.822,-0.385,0.144,-0.967,-107.879,-83.503,-94.960
16:13:31:617,5.882,-0.096,0.944,-1.322,-97.693,-87.797,-92.030
16:13:31:617,5.882,0.496,1.461,-0.671,-76.926,-93.143,-87.033
16:13:31:617,5.882,0.576,1.761,-0.413,-59.546,-96.843,-82.855
16:13:31:617,5.882,0.114,1.523,0.276,-43.224,-102.423,-76.261
16:13:31:693,5.958,0.120,1.037,0.749,-35.741,-105.835,-72.395
16:13:31:693,5.958,0.234,0.699,1.056,-23.979,-109.953,-67.998
16:13:31:694,5.959,0.124,-0.181,1.082,-12.641,-113.203,-65.021
16:13:31:694,5.959,0.052,-0.547,0.876,-7.143,-115.377,-63.766
16:13:31:74,6.005,-0.055,-1.040,0.962,-2.634,-118.961,-62.906
16:13:31:74,6.005,-0.247,-1.287,0.958,-1.625,-121.110,-62.863
16:13:31:792,6.057,-0.308,-1.227,0.835,-2.823,-122.725,-63.490
16:13:31:792,6.057,-0.178,-1.076,0.961,-4.625,-121.806,-64.990
16:13:31:871,6.136,-0.018,-1.036,0.988,-5.213,-119.799,-66.355
16:13:31:872,6.137,0.382,-0.592,1.106,-7.186,-114.941,-68.893
16:13:31:954,6.219,1.031,0.967,1.577,-10.011,-110.696,-70.997
16:13:31:955,6.220,1.433,1.825,1.167,-16.450,-103.174,-74.795
16:13:31:956,6.221,1.761,1.938,0.051,-23.312,-94.464,-79.945
16:13:31:957,6.222,1.407,1.803,-0.635,-40.444,-88.430,-83.717
16:13:32:002,6.267,0.747,1.029,-0.886,-84.938,-79.528,-89.219
16:13:32:003,6.268,0.445,0.548,-0.977,-103.375,-73.596,-92.515
16:13:32:054,6.319,0.054,-0.229,-1.018,-119.964,-65.074,-96.897
16:13:32:055,6.320,-0.193,-0.528,-1.017,-125.715,-59.918,-99.136
16:13:32:077,6.342,-0.537,-1.062,-0.669,-128.661,-52.843,-100.936
16:13:32:104,6.369,-0.568,-1.432,-0.427,-128.216,-46.486,-101.090
16:13:32:134,6.399,-0.427,-1.556,-0.309,-124.896,-43.185,-100.306
16:13:32:185,6.450,-0.411,-1.416,-0.382,-113.060,-39.962,-97.594
16:13:32:186,6.451,-0.770,-0.690,-0.337,-103.368,-39.308,-94.890
16:13:32:236,6.501,-0.947,0.176,-0.427,-90.769,-40.902,-90.317
16:13:32:264,6.529,-0.687,0.746,-0.574,-81.259,-45.306,-86.389
16:13:32:265,6.530,-0.212,0.953,-0.385,-73.351,-49.282,-83.313
16:13:32:45,6.715,0.202,1.670,-0.174,-62.125,-56.783,-78.015
16:13:32:501,6.766,0.516,1.880,0.407,-56.880,-62.570,-73.960
16:13:32:502,6.767,0.508,1.377,0.734,-49.005,-71.238,-68.662
16:13:32:77,7.035,0.866,0.635,0.740,-39.449,-77.342,-66.729
16:13:32:771,7.036,0.748,-0.013,0.601,-33.400,-80.066,-66.651
16:13:32:771,7.036,0.524,-0.597,0.813,-26.136,-84.002,-67.000
16:13:32:772,7.037,0.580,-0.802,0.472,-23.380,-86.095,-67.444
16:13:32:922,7.187,0.397,-1.369,0.632,-17.564,-89.256,-69.045
16:13:32:922,7.187,0.225,-1.380,0.675,-17.649,-91.451,-70.559
16:13:33:058,7.323,0.230,-1.163,0.758,-22.799,-92.261,-71.793
16:13:33:059,7.324,0.454,-0.929,0.708,-33.609,-91.246,-73.844
16:13:33:059,7.324,0.622,-0.668,0.654,-40.130,-88.724,-75.374
16:13:33:06,7.325,0.947,0.209,0.681,-50.352,-82.502,-77.936
16:13:33:105,7.370,1.099,2.066,0.073,-61.979,-74.329,-81.194
16:13:33:191,7.456,0.881,2.180,-0.239,-68.836,-68.283,-83.643
16:13:33:191,7.456,0.483,1.656,-0.793,-82.082,-59.167,-87.870
16:13:33:191,7.456,0.086,1.271,-0.611,-93.566,-53.072,-91.027
16:13:33:191,7.456,-0.277,0.747,-0.625,-107.812,-44.167,-95.664
16:13:33:479,7.744,-0.328,0.055,-0.615,-116.692,-39.154,-98.309
16:13:33:479,7.744,-0.644,-0.763,-0.617,-129.872,-32.742,-101.562
16:13:33:481,7.746,-0.770,-1.229,-0.462,-139.591,-27.972,-103.914
16:13:33:481,7.746,-0.626,-1.434,-0.326,-143.372,-25.516,-105.077
16:13:33:504,7.769,-0.566,-1.454,-0.237,-144.194,-22.746,-105.915
16:13:33:505,7.770,-0.588,-1.379,-0.247,-139.455,-21.969,-105.036
16:13:33:506,7.771,-0.732,-1.202,-0.222,-133.558,-22.732,-103.357
16:13:33:509,7.774,-0.843,-0.278,-0.378,-122.459,-25.843,-99.508
16:13:33:556,7.821,-0.976,1.074,-0.986,-113.155,-29.180,-96.220
16:13:33:557,7.822,-0.562,1.534,-0.764,-88.076,-35.521,-89.525
16:13:33:558,7.823,-0.057,2.025,-0.254,-73.232,-40.278,-84.944
16:13:33:559,7.824,0.392,1.726,0.108,-62.573,-48.768,-78.403
16:13:33:637,7.902,0.547,1.049,0.492,-53.609,-56.153,-73.558
16:13:33:637,7.902,0.593,0.258,0.487,-45.754,-59.892,-71.470
16:13:33:638,7.903,0.723,-0.378,0.607,-33.544,-64.685,-69.169
16:13:33:638,7.903,0.634,-0.834,0.623,-27.888,-67.729,-67.960
16:13:33:688,7.953,0.577,-1.075,0.640,-23.689,-71.807,-66.861
16:13:33:689,7.954,0.500,-1.328,0.751,-22.589,-75.564,-67.679
16:13:33:69,7.955,0.470,-1.304,0.678,-23.147,-75.748,-69.397
16:13:33:691,7.956,0.461,-1.036,0.653,-25.716,-75.110,-70.726
16:13:33:767,8.032,0.726,-0.218,0.733,-32.863,-72.999,-72.914
16:13:33:768,8.033,1.310,1.816,0.694,-42.990,-69.485,-75.995
16:13:33:769,8.034,-0.631,-1.168,-0.498,-145.263,-33.616,-105.074
16:13:33:77,8.035,-0.565,-1.506,-0.398,-149.867,-29.800,-105.900
16:13:33:865,8.130,-0.547,-1.551,-0.256,-151.292,-23.934,-106.459
16:13:33:9,8.165,-0.481,-1.499,-0.119,-144.612,-20.624,-105.015
16:13:33:9,8.165,-0.620,-1.374,-0.130,-136.055,-20.050,-102.752
16:13:33:9,8.165,-0.905,-0.807,-0.088,-118.711,-21.799,-98.018
16:13:33:9,8.165,-1.014,-0.193,-0.227,-104.942,-24.962,-94.077
16:13:33:951,8.216,-0.704,1.526,-0.855,-80.767,-32.307,-87.508
16:13:33:952,8.217,-0.263,2.166,-0.460,-58.397,-41.264,-79.402
16:13:33:953,8.218,0.173,2.266,0.003,-53.276,-47.814,-74.525
16:13:34:004,8.269,0.824,0.500,0.909,-45.675,-62.283,-65.852
16:13:34:005,8.270,0.594,0.393,0.779,-37.050,-66.825,-64.018
16:13:34:005,8.270,0.478,-0.403,0.560,-29.130,-67.885,-63.778
16:13:34:006,8.271,0.575,-0.784,0.608,-21.284,-70.787,-63.458
16:13:34:029,8.294,0.551,-1.082,0.536,-20.191,-74.236,-63.745
16:13:34:03,8.295,0.591,-1.059,0.575,-22.463,-76.081,-64.484
16:13:34:031,8.296,0.436,-1.111,0.595,-26.411,-77.002,-66.881
16:13:34:031,8.296,0.438,-1.318,0.453,-28.462,-76.304,-69.096
16:13:34:136,8.401,0.569,-1.344,0.444,-33.365,-74.041,-72.496
16:13:34:136,8.401,0.810,-0.658,0.332,-45.486,-70.185,-75.565
16:13:34:136,8.401,1.106,0.879,0.550,-54.041,-66.900,-77.241
16:13:34:137,8.402,1.083,2.419,-0.807,-64.579,-61.721,-79.563
16:13:34:158,8.423,0.546,3.042,-0.513,-68.819,-58.029,-80.596
16:13:34:158,8.423,0.134,1.847,-0.661,-78.988,-48.982,-85.585
16:13:34:159,8.424,-0.173,0.906,-0.689,-94.787,-39.095,-91.785
16:13:34:265,8.530,-0.483,0.201,-0.646,-105.519,-32.537,-95.534
16:13:34:266,8.531,-0.597,-0.634,-0.425,-119.979,-23.845,-99.671
16:13:34:267,8.532,-0.815,-1.104,-0.427,-128.969,-19.015,-101.679
16:13:34:267,8.532,-0.753,-1.364,-0.336,-140.646,-13.463,-104.173
16:13:34:311,8.576,-0.408,-1.519,-0.327,-146.110,-9.820,-106.110
16:13:34:312,8.577,-0.363,-1.471,-0.313,-144.771,-8.420,-106.555
16:13:34:477,8.742,-0.580,-1.425,-0.238,-137.428,-7.742,-105.976
16:13:34:477,8.742,-0.540,-1.054,0.254,-131.549,-8.282,-104.693
16:13:34:477,8.742,-0.753,-0.453,0.409,-122.675,-10.984,-100.831
16:13:34:478,8.743,-0.906,0.660,-0.502,-105.630,-15.766,-94.779
16:13:34:738,9.003,-0.943,2.157,-0.848,-89.602,-19.648,-89.859
16:13:34:739,9.004,0.001,2.601,0.220,-72.769,-26.150,-82.440
16:13:34:739,9.004,0.502,1.233,-0.038,-63.118,-29.499,-78.976
16:13:34:74,9.005,0.700,0.696,-0.035,-48.074,-32.859,-75.399
16:13:34:87,9.135,0.735,0.245,0.137,-38.363,-35.888,-72.846
16:13:34:87,9.135,0.824,-0.026,0.169,-33.170,-37.841,-71.710
16:13:34:871,9.136,0.919,-0.547,0.266,-25.372,-40.151,-70.402
16:13:34:872,9.137,0.810,-1.006,0.349,-21.474,-41.071,-69.934
16:13:35:002,9.267,0.765,-1.166,0.422,-19.076,-41.156,-70.034
16:13:35:002,9.267,0.734,-1.230,0.375,-19.050,-40.199,-70.623
16:13:35:002,9.267,0.761,-1.180,0.196,-20.261,-37.285,-71.957
16:13:35:003,9.268,0.778,-0.940,-0.059,-23.890,-32.479,-73.861
16:13:35:285,9.550,0.761,-0.708,-0.156,-27.435,-28.182,-75.552
16:13:35:285,9.550,1.289,0.370,-0.593,-34.188,-21.020,-78.738
16:13:35:447,9.712,1.507,1.554,-1.259,-42.079,-15.963,-81.282
16:13:35:447,9.712,0.624,2.641,-1.448,-65.319,-7.310,-86.356
16:13:35:448,9.713,-0.636,2.138,-1.221,-111.055,0.741,-92.565
16:13:35:449,9.714,-0.873,1.190,-0.659,-137.858,5.796,-97.133
16:13:35:497,9.762,-0.953,0.255,-0.306,-156.791,13.095,-103.498
16:13:35:497,9.762,-1.185,-0.403,-0.117,-163.702,17.587,-106.935
16:13:35:498,9.763,-0.919,-1.114,0.024,-171.059,22.762,-110.454
16:13:35:579,9.844,-0.672,-1.410,0.132,-174.261,27.040,-111.933
16:13:35:579,9.844,-0.568,-1.408,0.191,-173.325,29.927,-112.215
16:13:35:58,9.845,-0.389,-1.388,0.240,-169.580,33.498,-111.402
16:13:35:581,9.846,-0.331,-1.334,0.343,-165.780,34.997,-109.800
16:13:35:713,9.978,-0.303,-1.209,0.450,-158.287,36.022,-105.675
16:13:35:713,9.978,-0.501,-0.746,0.545,-147.281,34.926,-99.785
16:13:35:713,9.978,-0.796,0.265,0.499,-132.599,32.918,-95.312
16:13:35:713,9.978,-1.098,1.094,0.258,-80.577,28.585,-88.958
16:13:35:761,10.026,-0.596,2.245,-0.242,-58.539,24.640,-83.940
16:13:35:762,10.027,0.133,2.615,-0.306,-51.727,16.732,-76.441
16:13:35:763,10.028,0.638,1.584,-0.288,-41.661,10.075,-70.747
16:13:35:764,10.029,0.704,0.721,-0.340,-32.620,7.282,-68.508
16:13:35:815,10.080,0.719,-0.101,-0.429,-19.973,4.086,-66.307
16:13:35:815,10.080,0.798,-0.423,-0.433,-15.065,2.014,-65.308
16:13:35:816,10.081,0.825,-0.632,-0.366,-11.598,-1.035,-64.383
16:13:35:817,10.082,0.721,-0.882,-0.454,-25.979,-1.883,-69.929
16:13:35:84,10.105,0.714,-0.507,-0.570,-32.868,1.098,-71.987
16:13:35:841,10.106,0.973,1.212,-1.045,-45.105,7.270,-75.962
16:13:35:842,10.107,0.016,2.180,-1.197,-59.892,14.913,-81.197
16:13:35:843,10.108,-0.458,2.202,-0.973,-73.831,20.802,-85.397
16:13:36:072,10.337,-0.850,1.692,-0.141,-97.183,30.251,-92.371
16:13:36:072,10.337,-0.802,0.798,0.171,-108.996,36.503,-96.851
16:13:36:158,10.423,-0.845,0.290,0.327,-125.125,44.493,-102.554
16:13:36:159,10.424,-0.758,-0.543,0.379,-139.619,50.958,-106.722
16:13:36:159,10.424,-0.744,-1.065,0.630,-146.319,54.779,-108.617
16:13:36:159,10.424,-0.407,-1.410,0.625,-152.568,60.065,-110.268
16:13:36:279,10.544,-0.242,-1.499,0.547,-155.380,63.424,-110.782
16:13:36:332,10.597,-0.172,-1.543,0.706,-157.289,67.597,-110.187
16:13:36:549,10.814,-0.189,-1.394,0.461,-153.798,68.801,-107.862
16:13:36:55,10.815,-0.213,-1.166,0.618,-147.555,68.453,-105.378
16:13:36:551,10.816,-0.446,-0.095,0.858,-134.102,65.678,-100.585
16:13:36:552,10.817,-0.791,1.216,0.767,-121.581,62.311,-97.024
16:13:36:602,10.867,-0.754,1.462,0.535,-89.963,55.920,-89.991
16:13:36:603,10.868,-0.367,2.136,0.127,-70.688,48.384,-83.041
16:13:36:604,10.869,0.029,1.838,-0.328,-64.918,42.699,-78.942
16:13:36:605,10.870,0.379,1.020,-0.408,-57.317,35.621,-74.590
16:13:36:733,10.998,0.418,0.212,-0.573,-50.296,32.029,-72.780
16:13:36:734,10.999,0.450,-0.357,-0.617,-39.024,27.610,-70.928
16:13:36:735,11.000,0.570,-0.728,-0.640,-31.278,23.468,-69.499
16:13:36:812,11.077,0.720,-1.066,-0.513,-30.979,18.423,-68.718
16:13:36:813,11.078,0.784,-1.103,-0.500,-32.411,17.803,-69.279
16:13:36:813,11.078,0.683,-1.071,-0.475,-34.756,18.708,-70.894
16:13:36:814,11.079,0.607,-0.902,-0.505,-36.614,20.348,-72.210
16:13:36:865,11.130,0.591,-0.419,-0.745,-41.026,24.052,-74.371
16:13:36:866,11.131,0.383,0.972,-1.452,-49.502,28.814,-77.217
16:13:36:866,11.131,-0.623,2.479,-1.277,-57.162,33.180,-80.107
16:13:36:866,11.131,-0.906,1.985,-0.765,-68.827,40.805,-85.652
16:13:36:917,11.183,-1.086,0.729,-0.077,-119.961,50.945,-95.855
16:13:36:917,11.183,-0.858,0.296,0.347,-130.704,57.215,-101.144
16:13:36:918,11.184,0.239,-1.202,0.655,-147.192,86.923,-104.208
16:13:36:92,11.185,0.246,-0.704,0.869,-133.139,85.033,-99.052
16:13:36:944,11.209,-0.134,0.521,0.998,-115.970,82.126,-94.625
16:13:36:945,11.210,-1.036,1.806,1.029,-74.384,76.467,-87.466
16:13:36:945,11.210,-0.436,2.336,0.132,-53.124,72.065,-81.662
16:13:36:946,11.211,0.138,2.069,-0.529,-48.163,64.401,-73.979
16:13:36:995,11.260,0.253,0.999,-0.878,-42.101,58.911,-69.171
16:13:36:996,11.261,0.148,0.395,-0.883,-33.063,57.053,-67.512
16:13:36:997,11.262,0.109,-0.328,-0.948,-18.541,55.205,-65.976
16:13:36:998,11.263,0.202,-0.745,-0.985,-10.805,53.190,-65.283
16:13:37:048,11.313,0.291,-0.896,-0.862,-10.085,51.911,-65.306
16:13:37:048,11.313,0.332,-1.042,-0.847,-11.672,51.184,-66.418
16:13:37:049,11.314,0.215,-1.194,-0.792,-12.589,51.910,-67.846
16:13:37:05,11.315,0.026,-1.210,-0.764,-13.598,54.752,-70.371
16:13:37:128,11.393,-0.182,-1.050,-0.804,-17.826,59.312,-73.030
16:13:37:129,11.394,-0.392,-0.554,-0.818,-23.190,63.386,-74.834
16:13:37:129,11.394,-1.106,1.183,-1.188,-31.624,70.653,-77.883
16:13:37:129,11.394,-1.584,1.732,-0.887,-37.512,75.882,-80.515
16:13:37:18,11.445,-1.755,2.124,0.176,-53.145,84.013,-84.849
16:13:37:181,11.446,-1.022,1.530,0.549,-91.728,92.198,-90.271
16:13:37:183,11.448,-0.683,1.258,0.690,-109.300,97.626,-93.962
16:13:37:26,11.525,-0.091,-0.310,0.900,-137.673,112.369,-103.281
16:13:37:26,11.525,0.266,-0.770,0.950,-142.737,116.812,-105.363
16:13:37:26,11.525,0.523,-1.180,0.693,-147.602,123.194,-107.388
16:13:37:26,11.525,0.577,-1.487,0.474,-150.094,127.169,-107.959
16:13:37:338,11.603,0.664,-1.839,0.246,-152.414,132.421,-107.203
16:13:37:339,11.604,0.413,-2.029,0.075,-149.831,134.555,-104.989
16:13:37:339,11.604,0.642,-1.601,0.366,-129.008,134.732,-98.409
16:13:37:339,11.604,0.927,-0.226,0.878,-87.046,131.584,-89.365
16:13:37:495,11.760,0.758,0.993,1.220,-60.145,127.700,-83.304
16:13:37:495,11.760,-0.090,2.182,1.200,-31.039,120.577,-75.370
16:13:37:496,11.761,-0.592,2.102,0.137,-25.696,112.298,-68.570
16:13:37:497,11.762,-0.763,1.775,-0.237,-26.912,105.959,-64.996
16:13:37:518,11.783,-0.572,1.149,-0.638,-25.183,98.001,-61.137
16:13:37:518,11.783,-0.500,0.263,-0.648,-20.768,94.443,-59.961
16:13:37:519,11.784,-0.496,-0.225,-0.615,-11.768,90.534,-59.779
16:13:37:568,11.833,-0.577,-0.588,-0.715,-5.936,88.014,-60.135
16:13:37:568,11.833,-0.448,-0.972,-0.703,-0.649,84.182,-60.939
16:13:37:649,11.914,-0.284,-1.266,-0.787,0.276,80.893,-62.106
16:13:37:65,11.915,-0.241,-1.308,-0.869,-1.311,79.444,-63.314
16:13:37:65,11.915,-0.117,-1.264,-0.914,-5.265,78.910,-65.844
16:13:37:757,12.022,-0.019,-1.298,-0.767,-9.901,80.375,-68.269
16:13:37:757,12.022,-0.178,-1.088,-0.810,-14.343,82.162,-69.635
16:13:37:757,12.022,-0.874,0.108,-1.210,-23.013,86.206,-71.731
16:13:37:758,12.023,-1.762,2.474,-0.533,-30.190,89.670,-73.786
16:13:37:773,12.038,-1.365,2.588,0.187,-41.775,96.607,-77.853
16:13:37:889,12.154,-0.963,2.360,1.194,-52.732,102.173,-81.264
16:13:37:889,12.154,-0.496,1.196,1.089,-78.658,110.981,-87.379
16:13:37:889,12.154,0.137,0.477,1.208,-103.111,119.930,-93.398
16:13:37:89,12.155,0.450,-0.066,1.160,-115.317,125.723,-96.956
16:13:37:905,12.170,0.851,-0.842,1.122,-128.710,133.788,-100.819
16:13:37:96,12.225,0.901,-1.527,0.753,-135.268,138.679,-102.498
16:13:37:961,12.226,0.615,-1.881,0.488,-141.970,144.892,-103.715
16:13:38:016,12.281,0.670,-2.007,0.148,-141.256,149.952,-102.606
16:13:38:016,12.281,0.903,-1.650,-0.074,-133.512,151.402,-100.172
16:13:38:042,12.307,0.984,-1.272,0.016,-109.744,150.256,-94.186
16:13:38:042,12.307,1.068,-0.741,0.195,-85.808,147.597,-89.155
16:13:38:092,12.357,0.968,1.186,0.845,-50.158,141.516,-80.964
16:13:38:093,12.358,0.059,2.445,0.820,-35.755,133.420,-73.461
16:13:38:144,12.409,-0.235,2.521,0.365,-31.588,127.361,-68.795
16:13:38:2,12.465,-0.479,1.571,-0.164,-29.784,117.933,-63.925
16:13:38:201,12.466,-0.666,0.814,-0.346,-29.049,111.819,-61.632
16:13:38:201,12.466,-0.710,0.493,-0.497,-25.991,104.339,-59.876
16:13:38:278,12.543,-0.752,-0.154,-0.558,-19.326,99.384,-59.728
16:13:38:279,12.544,-0.729,-0.623,-0.629,-13.772,96.898,-60.085
16:13:38:279,12.544,-0.688,-1.031,-0.616,-8.247,93.393,-60.837
16:13:38:328,12.593,-0.693,-1.282,-0.671,-7.917,91.369,-61.546
16:13:38:329,12.594,-0.547,-1.272,-0.806,-11.298,90.009,-63.185
16:13:38:411,12.676,-0.456,-1.176,-0.833,-14.282,90.494,-64.690
16:13:38:411,12.676,-0.512,-1.117,-0.662,-18.538,93.663,-67.090
16:13:38:411,12.676,-0.554,-0.646,-0.574,-27.346,98.410,-69.573
16:13:38:461,12.726,-1.311,1.326,-0.842,-36.405,102.294,-71.608
16:13:38:461,12.726,-1.322,2.375,-0.325,-52.075,109.987,-76.393
16:13:38:54,12.806,-0.149,2.694,0.558,-63.834,118.729,-82.049
16:13:38:541,12.807,0.014,2.194,1.130,-75.387,124.043,-86.230
16:13:38:542,12.807,0.304,0.919,0.777,-100.129,131.276,-92.878
16:13:38:591,12.856,0.612,0.305,0.728,-112.205,136.287,-97.285
16:13:38:591,12.856,0.742,-0.372,0.764,-125.939,143.018,-102.989
16:13:38:672,12.937,0.768,-1.076,0.705,-133.304,146.600,-105.702
16:13:38:673,12.938,0.640,-1.499,0.497,-141.617,151.060,-108.380
16:13:38:674,12.939,0.514,-1.730,0.237,-145.445,155.115,-110.053
16:13:38:753,13.018,0.455,-1.753,0.123,-145.340,157.185,-110.204
16:13:38:753,13.018,0.448,-1.622,0.124,-140.509,158.105,-108.171
16:13:38:753,13.018,0.678,-1.403,0.223,-133.930,157.123,-105.363
16:13:38:773,13.038,0.829,-0.750,0.360,-118.956,153.155,-99.435
16:13:38:858,13.123,1.058,1.272,1.079,-98.414,146.882,-92.562
16:13:38:858,13.123,0.610,2.258,0.816,-80.601,141.640,-87.069
16:13:38:858,13.123,0.076,2.133,0.013,-62.265,134.128,-80.733
16:13:38:878,13.143,-0.459,1.287,-0.081,-54.238,129.455,-77.958
16:13:38:934,13.199,-0.649,0.867,-0.243,-45.642,122.738,-74.955
16:13:38:934,13.199,-0.611,0.404,-0.406,-40.177,116.533,-73.140
16:13:39:043,13.308,-0.545,0.112,-0.475,-36.941,112.835,-72.583
16:13:39:043,13.308,-0.484,-0.429,-0.500,-32.781,107.983,-72.361
16:13:39:044,13.309,-0.436,-0.810,-0.516,-31.572,105.375,-72.568
16:13:39:045,13.310,-0.321,-1.026,-0.669,-32.244,102.965,-73.277
16:13:39:118,13.383,-0.230,-1.071,-0.722,-35.664,102.858,-74.773
16:13:39:119,13.384,-0.403,-1.087,-0.691,-39.234,103.978,-76.325
16:13:39:12,13.385,-0.561,-0.925,-0.624,-47.265,107.695,-79.223
16:13:39:139,13.404,-0.598,-0.441,-0.482,-54.710,111.384,-81.614
16:13:39:194,13.459,-0.893,0.119,-0.498,-69.945,117.822,-85.963
16:13:39:195,13.460,-1.418,1.858,0.106,-91.936,124.329,-90.359
16:13:39:246,13.511,-1.004,2.298,0.689,-111.320,129.088,-93.797
16:13:39:247,13.512,-0.038,2.229,1.261,-144.717,135.994,-99.458
16:13:39:328,13.593,0.474,0.798,1.039,-157.074,140.256,-103.209
16:13:39:329,13.594,0.515,0.099,0.856,-164.268,146.445,-108.671
16:13:39:33,13.595,0.791,-0.388,0.756,-165.844,150.957,-111.532
16:13:39:436,13.701,0.769,-1.024,0.496,-167.858,156.365,-114.322
16:13:39:437,13.702,0.703,-1.389,0.360,-167.841,160.319,-114.864
16:13:39:437,13.702,0.593,-1.465,0.190,-165.658,162.585,-114.387
16:13:39:438,13.703,0.511,-1.313,-0.052,-160.418,165.333,-112.665
16:13:39:454,13.719,0.567,-1.267,-0.081,-156.561,165.733,-110.665
16:13:39:568,13.833,0.566,-1.110,-0.006,-149.666,164.151,-106.689
16:13:39:568,13.833,0.670,-0.504,0.180,-139.673,160.163,-102.198
16:13:39:569,13.834,0.682,0.127,0.370,-130.534,156.590,-99.354
16:13:39:57,13.835,0.335,1.424,0.554,-111.884,149.694,-94.527
16:13:39:585,13.850,0.017,1.725,0.437,-91.717,144.639,-90.318
16:13:39:701,13.966,-0.146,1.699,0.243,-64.854,137.515,-84.737
16:13:39:702,13.967,-0.611,1.308,-0.109,-53.419,131.249,-80.899
16:13:39:702,13.967,-0.737,0.674,-0.314,-46.236,128.062,-79.373
16:13:39:702,13.967,-0.692,-0.071,-0.388,-31.801,124.747,-78.140
16:13:39:716,13.981,-0.725,-0.352,-0.422,-23.034,123.233,-77.806
16:13:39:829,14.094,-0.677,-0.650,-0.517,-17.640,121.702,-77.752
16:13:39:83,14.095,-0.598,-0.796,-0.500,-19.429,121.514,-78.154
16:13:39:831,14.096,-0.626,-0.981,-0.493,-20.777,122.272,-78.766
16:13:39:832,14.097,-0.628,-1.034,-0.432,-21.669,124.945,-80.263
16:13:39:848,14.113,-0.670,-0.957,-0.279,-24.033,127.528,-81.568
16:13:39:99,14.255,-0.793,-0.740,-0.127,-32.795,132.619,-83.759
16:13:39:99,14.255,-1.203,0.288,0.357,-45.116,138.442,-85.873
16:13:39:991,14.256,-1.338,1.216,1.004,-57.527,142.546,-87.454
16:13:39:991,14.256,-0.702,1.485,1.602,-92.901,149.446,-90.163
16:13:40:037,14.303,-0.044,1.628,1.720,-123.833,154.834,-92.345
16:13:40:038,14.304,0.512,1.247,1.234,-134.839,164.143,-95.951
16:13:40:039,14.304,0.746,0.314,0.785,-144.716,173.325,-99.018
16:13:40:087,14.352,0.733,0.082,0.594,-150.341,179.009,-100.473
16:13:40:088,14.353,0.848,-0.510,0.310,-154.494,-173.245,-101.885
16:13:40:22,14.485,0.837,-0.837,0.086,-152.846,-168.928,-102.304
16:13:40:278,14.543,0.401,-1.009,-0.526,-142.223,-157.883,-101.900
16:13:40:278,14.543,0.296,-1.109,-0.560,-140.607,-155.558,-101.275
16:13:40:279,14.544,0.241,-1.163,-0.482,-137.988,-153.411,-99.418
16:13:40:28,14.545,0.182,-0.716,-0.680,-133.489,-153.536,-97.604
16:13:40:299,14.564,0.367,-0.022,-0.652,-124.309,-155.393,-94.239
16:13:40:3,14.565,0.717,1.146,0.070,-87.217,-159.881,-89.922
16:13:40:301,14.566,0.809,1.433,0.605,19.047,-163.474,-85.832
16:13:40:35,14.615,0.618,2.057,0.684,15.731,-168.040,-79.005
16:13:40:54,14.805,-0.001,1.606,0.673,16.022,-171.346,-75.350
16:13:40:541,14.806,-0.433,0.549,0.621,17.101,-176.031,-71.508
16:13:40:541,14.806,-0.633,-0.012,0.704,16.183,179.450,-69.156
16:13:40:542,14.807,-0.876,-0.270,0.700,15.358,176.545,-68.164
16:13:40:566,14.831,-0.996,-0.613,0.423,16.625,173.176,-67.302
16:13:40:566,14.831,-1.050,-1.009,0.106,17.747,171.562,-67.179
16:13:40:567,14.832,-1.153,-1.233,0.037,18.900,170.452,-68.115
16:13:40:568,14.833,-1.088,-1.047,0.137,17.255,170.692,-70.227
16:13:40:615,14.880,-0.945,-0.873,0.253,15.647,172.787,-71.890
16:13:40:615,14.880,-0.792,-0.602,0.468,15.124,176.807,-74.614
16:13:40:616,14.881,-0.727,0.225,1.153,16.403,-179.484,-76.578
16:13:40:742,15.007,-0.391,1.002,1.681,19.885,-172.761,-79.920
16:13:40:803,15.068,0.435,1.592,1.733,26.576,-167.478,-82.588
16:13:40:803,15.068,0.936,1.609,1.459,58.500,-159.205,-87.009
16:13:40:804,15.069,1.411,1.126,0.833,112.319,-151.770,-91.682
16:13:40:805,15.070,1.180,0.806,0.410,154.467,-147.167,-94.975
16:13:40:96,15.225,1.041,0.074,-0.149,176.339,-140.647,-99.603
16:13:40:96,15.225,0.914,-0.364,-0.339,179.472,-136.859,-102.134
16:13:40:961,15.226,0.663,-0.900,-0.620,-175.064,-131.401,-104.735
16:13:40:961,15.226,0.397,-1.346,-0.771,-166.908,-126.010,-105.649
16:13:40:986,15.251,0.224,-1.452,-0.772,-160.618,-122.473,-105.193
16:13:40:987,15.252,-0.156,-1.374,-0.863,-148.896,-117.671,-102.759
16:13:40:988,15.253,-0.047,-1.236,-0.761,-138.053,-115.715,-99.691
16:13:40:989,15.254,0.102,-0.963,-0.812,-110.111,-116.262,-93.428
16:13:41:004,15.269,0.346,0.584,-0.815,-67.856,-119.145,-86.212
16:13:41:063,15.328,0.436,1.538,-0.795,-46.922,-121.970,-82.055
16:13:41:063,15.328,0.205,1.843,-0.093,-27.878,-127.908,-75.618
16:13:41:063,15.328,0.088,1.871,0.362,-24.902,-132.650,-71.998
16:13:41:108,15.373,-0.072,1.227,0.795,-21.652,-140.452,-67.880
16:13:41:138,15.403,-0.335,0.518,0.847,-15.686,-147.127,-65.487
16:13:41:138,15.403,-0.399,0.214,0.795,-10.127,-150.755,-64.832
16:13:41:192,15.457,-0.434,-0.315,0.750,-0.521,-155.421,-64.842
16:13:41:192,15.457,-0.551,-0.790,0.769,5.073,-158.297,-65.250
16:13:41:272,15.537,-0.634,-0.961,0.687,9.294,-162.117,-66.206
16:13:41:272,15.537,-0.657,-1.116,0.611,9.234,-164.286,-67.566
16:13:41:272,15.537,-0.662,-1.176,0.582,8.345,-164.527,-68.646
16:13:41:323,15.588,-0.539,-1.102,0.509,6.722,-163.100,-70.243
16:13:41:324,15.589,-0.370,-0.913,0.633,4.925,-161.085,-71.346
16:13:41:374,15.639,-0.207,-0.589,0.894,0.900,-156.559,-73.295
16:13:41:374,15.639,0.173,1.105,1.797,-8.297,-150.606,-75.574
16:13:41:397,15.662,0.542,2.019,1.666,-17.637,-145.982,-77.415
16:13:41:454,15.719,1.253,1.913,0.804,-24.095,-137.847,-81.073
16:13:41:454,15.719,1.376,1.587,0.357,-35.592,-132.420,-83.958
16:13:41:591,15.856,0.919,0.900,-0.054,-79.470,-124.515,-88.449
16:13:41:591,15.856,0.815,0.321,-0.565,-96.466,-118.970,-91.251
16:13:41:592,15.857,0.553,-0.470,-0.789,-110.917,-110.814,-94.665
16:13:41:592,15.857,0.265,-0.887,-0.834,-118.939,-102.909,-96.648
16:13:41:638,15.903,0.066,-1.144,-0.831,-120.794,-97.538,-97.212
16:13:41:639,15.904,-0.159,-1.378,-0.739,-119.863,-89.862,-97.050
16:13:41:64,15.905,-0.101,-1.364,-0.557,-116.984,-85.476,-96.491
16:13:41:774,16.039,-0.168,-1.225,-0.559,-107.987,-81.458,-94.577
16:13:41:774,16.039,-0.400,-0.739,-0.619,-94.367,-80.090,-91.186
16:13:41:775,16.040,-0.404,-0.209,-0.616,-84.085,-80.738,-88.362
16:13:41:776,16.041,-0.025,0.955,-0.922,-68.434,-83.777,-84.209
16:13:41:931,16.196,0.308,1.467,-0.510,-55.953,-87.069,-80.927
16:13:41:932,16.197,0.278,1.934,-0.015,-43.376,-93.955,-74.558
16:13:41:933,16.198,-0.037,1.829,0.599,-42.322,-103.537,-68.201
16:13:41:934,16.199,0.034,1.232,0.797,-39.671,-108.689,-65.509
16:13:42:035,16.300,0.232,0.077,0.753,-28.315,-113.003,-64.124
16:13:42:036,16.301,0.278,-0.423,0.838,-18.610,-115.024,-63.699
16:13:42:037,16.302,0.045,-0.719,0.947,-8.405,-117.964,-63.162
16:13:42:038,16.303,-0.088,-0.958,0.906,-5.078,-119.750,-62.936
16:13:42:114,16.379,-0.125,-1.062,0.973,-1.982,-121.211,-62.890
16:13:42:115,16.380,0.000,-1.388,1.009,1.187,-120.459,-63.713
16:13:42:116,16.381,0.298,-1.252,0.874,1.772,-118.671,-64.580
16:13:42:116,16.381,0.355,-1.056,0.833,-1.361,-114.909,-66.140
16:13:42:245,16.510,0.632,-0.517,0.837,-8.712,-109.748,-68.256
16:13:42:246,16.511,1.006,0.054,1.053,-15.308,-105.613,-69.938
16:13:42:247,16.512,1.432,1.854,0.711,-29.007,-97.869,-72.519
16:13:42:248,16.513,1.282,2.263,0.289,-38.622,-91.757,-75.271
16:13:42:3,16.565,0.964,1.985,-0.494,-53.694,-81.465,-80.338
16:13:42:3,16.565,0.408,0.991,-0.823,-72.462,-71.757,-85.440
16:13:42:3,16.565,0.220,0.532,-0.840,-83.810,-65.943,-88.397
16:13:42:3,16.565,-0.158,-0.232,-0.810,-97.618,-58.110,-91.991
16:13:42:347,16.612,-0.487,-0.718,-0.841,-103.758,-53.793,-93.606
16:13:42:348,16.613,-0.656,-0.918,-0.741,-109.275,-48.458,-95.079
16:13:42:348,16.613,-0.732,-1.183,-0.478,-110.740,-45.716,-95.460
16:13:42:474,16.739,-0.546,-1.336,-0.319,-108.885,-43.354,-94.924
16:13:42:561,16.826,-0.457,-1.295,-0.386,-100.769,-43.193,-92.872
16:13:42:562,16.827,-0.525,-1.105,-0.410,-92.140,-44.414,-90.591
16:13:42:563,16.828,-0.669,-0.390,-0.395,-74.663,-48.278,-85.691
16:13:42:563,16.828,-0.177,0.993,-0.657,-58.528,-52.077,-81.495
16:13:42:635,16.900,0.225,1.407,-0.578,-31.280,-58.571,-73.964
16:13:42:635,16.900,0.332,2.176,0.259,-20.152,-65.810,-66.180
16:13:42:686,16.951,0.556,2.012,0.764,-19.412,-71.541,-61.968
16:13:42:687,16.952,0.781,1.092,0.812,-18.598,-79.464,-58.279
16:13:42:771,17.036,0.667,0.064,0.780,-15.722,-83.400,-57.185
16:13:42:771,17.036,0.643,-0.445,0.733,-8.772,-87.598,-57.093
16:13:42:772,17.037,0.566,-0.729,0.676,-1.691,-90.679,-57.891
16:13:42:773,17.038,0.457,-1.039,0.630,2.018,-92.335,-58.607
16:13:43:007,17.272,0.435,-1.403,0.694,4.355,-94.129,-59.919
16:13:43:007,17.272,0.381,-1.472,0.681,3.081,-94.667,-61.018
16:13:43:008,17.273,0.412,-1.322,0.687,-3.411,-94.001,-62.442
16:13:43:009,17.274,0.577,-1.022,0.650,-13.212,-91.186,-63.373
16:13:43:142,17.407,0.623,-0.785,0.567,-20.675,-88.010,-64.016
16:13:43:142,17.407,1.230,0.722,0.765,-33.491,-81.582,-65.723
16:13:43:142,17.407,1.578,2.076,0.505,-43.781,-75.942,-68.336
16:13:43:143,17.408,0.556,2.834,-0.159,-58.728,-65.939,-73.714
16:13:43:208,17.473,0.121,1.764,-0.789,-71.564,-55.929,-80.554
16:13:43:32,17.585,-0.235,1.183,-0.449,-81.157,-49.753,-85.487
16:13:43:321,17.586,-0.683,0.372,-0.625,-94.524,-41.566,-92.163
16:13:43:322,17.587,-0.738,-0.551,-0.799,-102.578,-37.499,-95.434
16:13:43:35,17.615,-0.832,-1.017,-0.597,-112.917,-32.885,-98.905
16:13:43:35,17.615,-0.599,-1.445,-0.369,-119.431,-29.451,-100.844
16:13:43:35,17.615,-0.429,-1.606,-0.250,-120.747,-27.770,-101.071
16:13:43:351,17.616,-0.257,-1.584,-0.229,-116.114,-26.383,-99.561
16:13:43:395,17.660,-0.340,-1.432,-0.323,-108.946,-26.674,-97.266
16:13:43:396,17.661,-0.523,-1.113,-0.306,-95.119,-29.760,-92.179
16:13:43:715,17.980,-0.734,0.006,-0.223,-85.109,-33.334,-87.806
16:13:43:716,17.981,-0.782,1.530,-0.829,-69.486,-40.335,-80.907
16:13:43:717,17.982,-0.272,2.348,-0.263,-53.694,-48.137,-73.827
16:13:43:718,17.983,-0.031,2.502,0.226,-47.218,-53.290,-69.925
16:13:43:744,18.009,0.554,1.355,0.404,-40.528,-60.970,-65.700
16:13:43:744,18.009,0.684,0.567,0.476,-36.470,-65.396,-63.924
16:13:43:744,18.009,0.649,0.212,0.519,-29.639,-70.696,-62.596
16:13:43:745,18.010,0.718,-0.440,0.565,-21.653,-74.791,-62.373
16:13:43:786,18.051,0.703,-0.839,0.637,-16.573,-77.138,-62.426
16:13:43:848,18.113,0.504,-1.082,0.614,-11.836,-79.898,-62.723
16:13:43:849,18.114,0.413,-1.278,0.698,-10.729,-81.050,-63.143
16:13:43:85,18.115,0.351,-1.368,0.712,-11.231,-81.478,-64.094
16:13:43:85,18.115,0.381,-1.187,0.662,-14.299,-80.297,-65.116
16:13:43:927,18.192,0.423,-0.981,0.614,-17.863,-78.588,-66.072
16:13:43:927,18.192,0.741,-0.368,0.620,-25.404,-74.642,-68.125
16:13:43:927,18.192,1.177,0.543,0.748,-31.990,-71.218,-70.044
16:13:43:928,18.193,1.483,2.169,0.257,-43.865,-64.366,-74.441
16:13:43:978,18.244,0.586,2.319,-0.529,-55.830,-56.024,-80.465
16:13:43:979,18.244,0.160,1.683,-0.902,-68.454,-51.147,-84.718
16:13:43:98,18.245,-0.164,0.739,-0.624,-94.490,-44.273,-91.209
16:13:43:981,18.246,-0.505,0.137,-0.710,-107.647,-39.456,-95.412
16:13:44:031,18.296,-0.631,-0.460,-0.673,-120.432,-32.859,-100.836
16:13:44:031,18.296,-0.697,-0.983,-0.589,-126.968,-27.536,-104.052
16:13:44:032,18.297,-0.715,-1.275,-0.389,-129.092,-24.397,-105.098
16:13:44:033,18.298,-0.635,-1.513,-0.154,-129.909,-20.279,-105.444
16:13:44:057,18.322,-0.606,-1.504,-0.084,-128.568,-18.182,-104.725
16:13:44:058,18.323,-0.611,-1.440,-0.100,-121.850,-17.260,-101.872
16:13:44:058,18.323,-0.780,-1.058,-0.152,-113.881,-18.360,-98.791
16:13:44:059,18.324,-0.870,-0.485,-0.302,-96.885,-22.388,-92.498
16:13:44:11,18.375,-0.827,1.341,-0.526,-76.076,-29.002,-84.882
16:13:44:11,18.375,-0.395,2.288,-0.249,-62.097,-34.377,-79.131
16:13:44:111,18.376,0.366,2.314,0.049,-47.589,-42.862,-71.438
16:13:44:112,18.377,0.602,1.458,0.355,-42.250,-48.647,-67.431
16:13:44:189,18.454,0.742,0.794,0.467,-37.868,-57.044,-63.340
16:13:44:189,18.454,0.713,0.151,0.453,-32.713,-63.622,-61.651
16:13:44:19,18.455,0.736,-0.264,0.301,-28.328,-67.232,-61.496
16:13:44:191,18.456,0.624,-0.631,0.265,-21.496,-72.408,-61.680
16:13:44:242,18.507,0.589,-1.051,0.284,-18.329,-75.719,-61.897
16:13:44:242,18.507,0.525,-1.235,0.426,-14.903,-79.595,-62.412
16:13:44:242,18.507,0.472,-1.530,0.600,-12.936,-81.440,-63.150
16:13:44:243,18.508,0.489,-1.599,0.760,-13.567,-81.459,-63.722
16:13:44:506,18.771,0.483,-1.289,0.864,-18.969,-79.529,-64.520
16:13:44:506,18.771,0.579,-0.787,0.819,-24.127,-76.867,-65.124
16:13:44:506,18.771,1.631,0.922,0.780,-30.998,-70.673,-66.525
16:13:44:506,18.771,1.705,2.770,-0.221,-38.441,-62.362,-69.360
16:13:44:688,18.953,0.887,2.724,-0.600,-42.328,-55.125,-72.577
16:13:44:689,18.954,0.115,1.719,-0.953,-55.136,-44.227,-79.237
16:13:44:69,18.955,-0.312,0.749,-0.812,-69.955,-37.818,-83.906
16:13:44:691,18.956,-0.833,0.338,-0.700,-91.954,-28.228,-90.638
16:13:44:713,18.978,-1.254,-0.438,-0.521,-109.262,-19.334,-96.321
16:13:44:713,18.978,-1.170,-1.064,-0.413,-118.391,-14.201,-98.962
16:13:44:714,18.979,-0.961,-1.412,-0.126,-126.637,-8.521,-100.955
16:13:44:715,18.980,-0.524,-1.696,0.087,-128.225,-6.056,-101.280
16:13:44:766,19.031,-0.489,-1.466,0.055,-122.513,-4.532,-100.066
16:13:44:767,19.032,-0.802,-0.793,0.063,-111.657,-6.104,-96.670
16:13:44:768,19.033,-0.596,-0.988,0.145,-103.749,-9.457,-93.389
16:13:44:769,19.034,-0.795,-0.436,0.148,-60.030,-15.949,-86.644
16:13:44:845,19.110,-0.826,2.407,-0.316,-6.477,-20.257,-81.306
16:13:44:846,19.111,0.070,2.604,-0.535,29.139,-24.968,-73.820
16:13:44:846,19.111,0.220,1.575,0.169,41.792,-26.321,-65.949
16:13:44:949,19.214,1.058,0.596,0.166,34.230,-35.161,-60.268
16:13:44:95,19.215,1.376,-0.039,0.147,31.474,-39.179,-59.654
16:13:44:951,19.216,1.346,-0.415,0.337,33.044,-42.199,-58.576
16:13:44:952,19.217,0.883,-0.945,0.389,40.078,-41.201,-57.233
16:13:45:004,19.269,0.719,-1.216,0.356,43.145,-39.875,-56.860
16:13:45:004,19.269,0.692,-1.303,0.300,43.848,-38.032,-57.891
16:13:45:005,19.270,0.623,-1.263,0.229,43.211,-36.184,-59.160
16:13:45:005,19.270,0.568,-1.199,0.078,42.217,-32.093,-61.595
16:13:45:027,19.292,0.662,-1.000,-0.095,40.942,-26.842,-64.617
16:13:45:028,19.293,0.911,-0.611,-0.217,38.706,-23.184,-66.961
16:13:45:029,19.294,1.819,1.764,-0.913,30.221,-17.943,-70.993
16:13:45:03,19.295,0.964,2.540,-1.513,21.077,-14.528,-74.024
16:13:45:133,19.398,-0.228,2.462,-1.041,-13.057,-9.171,-80.304
16:13:45:133,19.398,-0.290,1.150,-0.555,-52.295,-4.633,-85.117
16:13:45:134,19.399,-0.756,0.569,-0.341,-104.775,3.376,-92.439
16:13:45:135,19.400,-0.961,-0.109,-0.283,-131.465,10.996,-98.203
16:13:45:152,19.417,-1.037,-0.577,-0.045,-143.616,15.743,-100.873
16:13:45:205,19.470,-0.875,-1.058,0.078,-157.507,21.695,-103.145
16:13:45:206,19.471,-0.554,-1.346,0.245,-163.982,24.937,-103.973
16:13:45:396,19.661,-0.309,-1.477,0.390,-168.390,28.967,-104.211
16:13:45:397,19.662,-0.363,-1.397,0.379,-162.749,31.612,-102.612
16:13:45:397,19.662,-0.440,-1.223,0.412,-153.578,32.236,-100.613
16:13:45:398,19.663,-0.523,-0.919,0.464,-134.155,31.217,-96.279
16:13:45:553,19.818,-0.814,0.258,0.307,-111.840,29.336,-92.354
16:13:45:554,19.819,-1.005,1.672,0.316,-32.456,25.895,-85.434
16:13:45:554,19.819,-0.007,2.610,0.292,14.102,22.735,-77.997
16:13:45:555,19.820,0.273,1.972,-0.091,26.315,21.958,-73.450
16:13:45:687,19.952,0.446,0.811,-0.525,30.110,20.332,-68.681
16:13:45:688,19.953,0.659,0.291,-0.465,26.560,18.428,-66.700
16:13:45:688,19.953,0.768,0.008,-0.355,21.643,15.220,-64.895
16:13:45:688,19.953,0.775,-0.527,-0.362,22.109,12.168,-63.810
16:13:45:789,20.054,0.644,-0.845,-0.316,23.964,10.253,-63.356
16:13:45:79,20.055,0.581,-1.086,-0.322,25.479,7.457,-63.243
16:13:45:791,20.056,0.651,-1.214,-0.312,24.780,5.761,-63.527
16:13:45:792,20.057,0.653,-1.170,-0.161,20.804,4.124,-64.403
16:13:45:922,20.187,0.547,-1.304,-0.207,12.035,3.432,-65.922
16:13:45:922,20.187,0.679,-1.127,-0.522,0.814,3.433,-67.091
16:13:45:922,20.187,1.106,0.312,-1.070,-19.463,5.624,-68.427
16:13:45:923,20.188,0.652,1.573,-1.307,-27.131,8.991,-69.904
16:13:45:966,20.231,-0.097,2.084,-1.095,-34.276,15.771,-73.874
16:13:46:128,20.393,-0.492,2.718,-0.520,-54.860,22.452,-79.310
16:13:46:129,20.394,-0.642,1.227,-0.253,-71.002,27.521,-84.148
16:13:46:13,20.395,-0.733,0.683,0.177,-94.810,35.279,-91.498
16:13:46:237,20.502,-0.871,0.129,0.318,-108.623,40.076,-95.712
16:13:46:237,20.502,-0.904,-0.626,0.470,-124.909,46.555,-100.489
16:13:46:237,20.502,-0.761,-1.167,0.582,-132.050,50.382,-102.356
16:13:46:238,20.503,-0.507,-1.475,0.555,-137.855,55.532,-103.797
16:13:46:262,20.527,-0.200,-1.663,0.660,-136.036,60.371,-103.511
16:13:46:265,20.530,-0.159,-1.633,0.581,-129.961,62.429,-102.057
16:13:46:265,20.530,-0.365,-1.448,0.606,-114.721,62.610,-97.923
16:13:46:265,20.530,-0.459,-0.642,0.737,-102.202,61.091,-94.152
16:13:46:359,20.624,-0.533,0.026,0.721,-82.611,55.923,-87.265
16:13:46:394,20.659,-0.666,1.386,0.653,-64.777,48.111,-78.852
16:13:46:395,20.660,-0.118,2.537,0.148,-57.316,41.799,-73.123
16:13:46:396,20.661,0.328,2.286,-0.629,-48.287,33.661,-66.629
16:13:46:396,20.661,0.423,0.976,-0.583,-43.036,29.955,-64.144
16:13:46:44,20.705,0.553,0.264,-0.601,-38.412,24.703,-62.175
16:13:46:441,20.706,0.580,-0.242,-0.559,-36.615,19.900,-61.695
16:13:46:525,20.790,0.769,-0.423,-0.530,-35.412,17.510,-61.780
16:13:46:525,20.790,0.705,-0.653,-0.775,-31.895,14.348,-62.155
16:13:46:526,20.791,0.481,-1.248,-0.640,-31.394,12.722,-62.963
16:13:46:527,20.792,0.548,-1.180,-0.568,-33.774,11.144,-64.196
16:13:46:579,20.844,0.508,-1.134,-0.488,-38.389,11.710,-66.080
16:13:46:579,20.844,0.516,-0.964,-0.460,-41.521,13.611,-67.563
16:13:46:579,20.844,0.442,-0.795,-0.572,-44.593,18.815,-69.811
16:13:46:58,20.845,0.445,0.146,-1.179,-46.247,23.383,-71.240
16:13:46:63,20.895,0.251,1.848,-1.591,-51.771,31.451,-73.802
16:13:46:63,20.895,-0.716,2.876,-0.711,-57.211,42.051,-77.901
16:13:46:631,20.896,-1.135,2.189,-0.165,-62.311,49.468,-81.658
16:13:46:632,20.897,-0.739,0.979,0.177,-82.279,59.866,-87.720
16:13:46:655,20.920,-0.651,0.598,0.383,-95.260,66.254,-91.703
16:13:46:656,20.921,-0.571,-0.051,0.641,-109.857,74.779,-97.066
16:13:46:656,20.921,-0.524,-0.806,0.768,-120.079,81.315,-101.053
16:13:46:657,20.922,-0.459,-1.142,0.834,-124.730,84.814,-102.857
16:13:46:76,21.025,-0.160,-1.204,0.831,-129.389,89.228,-104.953
16:13:46:76,21.025,0.146,-1.358,0.631,-131.495,91.281,-105.928
16:13:46:761,21.026,0.141,-1.379,0.524,-132.912,92.561,-105.904
16:13:46:762,21.027,0.244,-1.284,0.497,-131.574,92.398,-104.661
16:13:46:971,21.236,0.338,-1.110,0.568,-125.038,90.859,-101.424
16:13:46:972,21.237,0.256,-0.069,1.100,-112.212,87.250,-96.616
16:13:46:972,21.237,-0.178,0.743,0.988,-96.705,83.298,-91.893
16:13:46:973,21.238,-0.486,2.311,0.398,-64.064,77.053,-82.486
16:13:47:023,21.288,0.038,2.692,-0.085,-47.445,74.171,-76.499
16:13:47:024,21.289,-0.016,1.572,-0.622,-32.657,71.210,-69.688
16:13:47:025,21.290,-0.120,0.440,-0.855,-23.227,69.657,-65.242
16:13:47:025,21.290,-0.206,-0.067,-1.018,-18.294,68.946,-62.892
16:13:47:102,21.367,-0.279,-0.530,-1.065,-11.806,68.268,-60.419
16:13:47:102,21.367,-0.220,-0.773,-0.982,-8.149,68.072,-59.521
16:13:47:103,21.368,-0.058,-1.187,-1.024,-4.628,67.658,-58.967
16:13:47:104,21.369,-0.024,-1.317,-0.848,-3.962,67.526,-59.586
16:13:47:154,21.419,-0.083,-1.238,-0.840,-5.731,67.814,-60.690
16:13:47:155,21.420,-0.173,-0.999,-0.924,-11.646,69.443,-63.256
16:13:47:156,21.421,-0.199,-0.615,-0.923,-17.328,71.762,-65.447
16:13:47:156,21.421,-0.368,-0.332,-0.859,-28.052,77.411,-69.816
16:13:47:203,21.468,-0.962,1.199,-1.314,-42.455,84.703,-75.013
16:13:47:203,21.468,-1.474,2.973,-0.252,-53.810,90.777,-79.052
16:13:47:224,21.489,-1.376,2.309,0.683,-71.685,101.071,-86.170
16:13:47:337,21.602,-0.964,1.658,1.259,-98.343,108.084,-91.333
16:13:47:338,21.603,-0.331,0.753,1.110,-133.136,118.947,-98.963
16:13:47:339,21.604,0.269,-0.095,1.404,-150.149,129.403,-105.091
16:13:47:339,21.604,0.475,-0.764,1.254,-160.107,134.477,-108.006
16:13:47:355,21.620,0.545,-1.413,0.853,-170.275,140.077,-110.461
16:13:47:469,21.734,0.639,-1.462,0.643,-172.249,143.278,-111.121
16:13:47:469,21.734,0.682,-1.422,0.520,-170.204,146.724,-110.904
16:13:47:47,21.735,0.652,-1.237,0.283,-164.826,148.202,-109.274
16:13:47:471,21.736,0.609,-1.169,0.202,-160.409,147.843,-107.282
16:13:47:486,21.751,0.642,-0.991,0.206,-151.389,145.507,-102.846
16:13:47:542,21.807,0.680,-0.589,0.436,-141.267,142.909,-98.976
16:13:47:598,21.863,0.560,0.439,0.873,-103.353,137.411,-91.864
16:13:47:598,21.863,0.024,2.241,1.156,-70.379,132.882,-86.394
16:13:47:599,21.864,-0.076,3.270,0.847,-51.644,124.691,-77.502
16:13:47:619,21.884,-0.498,1.818,-0.307,-41.908,116.261,-70.741
16:13:47:673,21.938,-0.754,1.095,-0.436,-35.744,111.655,-67.984
16:13:47:673,21.938,-0.819,0.159,-0.646,-28.207,106.008,-65.250
16:13:47:725,21.990,-0.679,-0.126,-0.690,-24.401,103.029,-64.052
16:13:47:726,21.991,-0.448,-0.539,-0.681,-19.513,99.453,-63.162
16:13:47:778,22.043,-0.322,-0.889,-0.641,-15.614,96.707,-63.091
16:13:47:779,22.044,-0.295,-1.178,-0.758,-14.802,95.308,-63.418
16:13:47:803,22.068,-0.181,-1.235,-0.784,-17.311,94.380,-64.598
16:13:47:917,22.182,-0.233,-1.102,-0.759,-20.574,94.855,-65.851
16:13:47:917,22.182,-0.402,-1.015,-0.756,-25.785,97.288,-68.254
16:13:47:918,22.183,-0.752,-0.445,-0.754,-31.818,101.769,-71.042
16:13:47:918,22.183,-1.163,0.510,-0.829,-37.157,105.527,-73.097
16:13:47:991,22.256,-1.443,2.320,-0.106,-47.555,112.698,-77.643
16:13:47:991,22.256,-0.860,2.469,0.612,-55.624,118.135,-81.723
16:13:47:992,22.257,-0.144,1.414,0.952,-84.193,125.625,-88.824
16:13:48:011,22.276,0.146,0.725,0.736,-112.156,132.926,-95.974
16:13:48:066,22.331,0.541,0.286,0.837,-122.623,138.226,-100.470
16:13:48:067,22.332,0.714,-0.516,0.843,-133.644,145.519,-105.916
16:13:48:119,22.384,0.789,-1.124,0.840,-139.581,149.421,-108.253
16:13:48:12,22.385,0.772,-1.444,0.626,-146.288,154.345,-110.301
16:13:48:173,22.438,0.758,-1.592,0.332,-148.933,158.632,-111.536
16:13:48:174,22.439,0.867,-1.504,0.156,-148.255,160.686,-111.783
16:13:48:195,22.460,0.491,-1.364,-0.007,-143.613,160.332,-110.587
16:13:48:251,22.516,0.615,-1.062,0.104,-138.270,158.124,-108.512
16:13:48:251,22.516,0.654,-0.503,0.405,-125.780,152.242,-103.298
16:13:48:304,22.569,0.805,1.503,0.921,-113.393,146.899,-98.473
16:13:48:305,22.570,0.714,2.740,0.386,-91.683,138.410,-90.611
16:13:48:387,22.652,-0.111,1.984,0.198,-71.951,130.063,-83.976
16:13:48:387,22.652,-0.527,1.370,0.055,-63.177,125.209,-81.080
16:13:48:387,22.652,-0.789,0.647,-0.328,-57.484,118.590,-77.842
16:13:48:434,22.699,-0.619,0.052,-0.460,-55.991,114.998,-76.454
16:13:48:435,22.700,-0.596,-0.320,-0.478,-51.854,110.998,-75.312
16:13:48:459,22.724,-0.510,-0.873,-0.479,-45.434,108.065,-74.779
16:13:48:513,22.778,-0.428,-1.137,-0.426,-41.549,106.780,-74.559
16:13:48:513,22.778,-0.347,-1.295,-0.486,-38.723,105.301,-74.342
16:13:48:568,22.833,-0.366,-1.379,-0.633,-38.744,104.765,-74.195
16:13:48:568,22.833,-0.335,-1.253,-0.618,-41.192,104.649,-74.021
16:13:48:647,22.912,-0.425,-1.003,-0.682,-46.927,105.776,-74.422
16:13:48:648,22.913,-0.648,-0.494,-0.809,-51.141,107.101,-74.969
16:13:48:648,22.913,-1.336,2.103,-1.245,-58.872,110.164,-76.873
16:13:48:698,22.963,-0.868,2.838,-0.331,-65.656,114.680,-80.056
16:13:48:698,22.963,-0.463,2.279,0.236,-82.488,122.854,-87.643
16:13:48:778,23.043,-0.160,1.660,0.684,-101.204,128.172,-93.612
16:13:48:779,23.044,0.566,0.971,0.913,-119.533,139.032,-102.807
16:13:48:78,23.045,0.786,-0.135,1.014,-132.474,149.415,-109.542
16:13:48:827,23.092,0.673,-1.095,0.833,-140.244,154.702,-112.321
16:13:48:966,23.231,0.600,-1.468,0.657,-148.861,160.577,-114.617
16:13:48:967,23.232,0.473,-1.678,0.483,-152.128,164.502,-115.326
16:13:48:967,23.232,0.441,-1.688,0.234,-151.180,166.472,-115.298
16:13:48:968,23.233,0.289,-1.394,0.009,-145.809,168.031,-114.648
16:13:49:019,23.284,0.537,-1.143,-0.103,-141.054,167.709,-113.520
16:13:49:019,23.284,0.792,-0.765,-0.077,-133.416,165.887,-110.826
16:13:49:02,23.285,1.159,0.592,0.385,-126.220,162.118,-107.672
16:13:49:036,23.301,0.602,1.740,0.486,-111.479,150.674,-100.288
16:13:49:092,23.357,0.525,2.222,0.524,-104.167,145.517,-96.954
16:13:49:093,23.358,-0.023,1.224,0.278,-94.858,138.067,-92.363
16:13:49:146,23.411,-0.366,0.927,0.058,-89.581,133.218,-89.804
16:13:49:146,23.411,-0.451,0.376,-0.126,-82.853,126.593,-86.839
16:13:49:148,23.413,-0.583,-0.168,-0.266,-75.912,120.584,-84.283
16:13:49:225,23.490,-0.620,-0.436,-0.347,-70.532,116.943,-82.679
16:13:49:225,23.490,-0.507,-0.931,-0.436,-61.855,112.375,-80.527
16:13:49:226,23.491,-0.420,-1.186,-0.494,-56.826,110.088,-79.419
16:13:49:245,23.510,-0.405,-1.258,-0.568,-52.711,107.986,-78.665
16:13:49:272,23.537,-0.645,-1.213,-0.752,-53.628,107.280,-79.022
16:13:49:357,23.622,-0.786,-1.039,-0.797,-56.800,107.994,-79.830
16:13:49:357,23.622,-0.984,-0.254,-0.819,-63.911,110.676,-81.854
16:13:49:357,23.622,-1.320,1.021,-0.864,-69.048,113.328,-83.392
16:13:49:435,23.700,-1.071,2.523,0.320,-79.569,119.075,-86.690
16:13:49:435,23.700,-0.166,2.197,1.256,-97.282,127.615,-92.167
16:13:49:436,23.701,0.237,1.562,1.206,-110.479,133.981,-96.531
16:13:49:57,23.835,0.396,0.605,0.918,-123.956,144.411,-103.011
16:13:49:571,23.836,0.538,-0.188,0.824,-131.504,151.143,-106.586
16:13:49:571,23.836,0.505,-0.566,0.657,-140.911,158.984,-109.793
16:13:49:572,23.837,0.475,-1.030,0.469,-147.560,164.932,-111.042
16:13:49:701,23.966,0.510,-1.275,0.327,-149.755,168.237,-110.849
16:13:49:702,23.967,0.560,-1.392,0.119,-150.110,172.386,-109.972
16:13:49:703,23.968,0.493,-1.359,-0.025,-148.195,174.887,-109.064
16:13:49:704,23.969,0.445,-1.247,-0.097,-142.168,176.061,-106.835
16:13:49:754,24.019,0.613,-0.952,-0.147,-132.751,175.345,-103.155
16:13:49:754,24.019,0.758,-0.471,-0.091,-124.478,173.377,-100.087
16:13:49:754,24.019,1.009,0.937,0.606,-110.361,168.643,-95.627
16:13:49:755,24.020,0.888,1.406,0.694,-98.064,164.638,-92.254
16:13:49:8,24.065,0.454,1.901,0.419,-80.498,157.981,-86.706
16:13:49:8,24.065,-0.187,1.748,0.067,-73.889,152.879,-83.192
16:13:49:852,24.117,-0.445,1.243,-0.192,-67.814,146.338,-79.336
16:13:49:852,24.117,-0.590,0.550,-0.032,-60.249,142.288,-77.878
16:13:49:991,24.256,-0.759,-0.216,0.043,-53.203,140.438,-77.574
16:13:49:992,24.257,-0.924,-0.534,-0.087,-41.753,138.256,-77.154
16:13:49:992,24.257,-0.833,-0.733,-0.142,-37.370,137.071,-76.980
16:13:49:992,24.257,-0.735,-0.929,-0.224,-36.382,136.644,-77.085
16:13:50:067,24.332,-0.831,-1.105,-0.333,-39.032,137.111,-77.883
16:13:50:068,24.333,-0.836,-1.179,-0.315,-42.190,138.747,-78.810
16:13:50:069,24.334,-0.790,-1.125,-0.177,-50.018,142.364,-80.448
16:13:50:07,24.335,-0.864,-0.940,-0.045,-57.113,145.899,-81.644
16:13:50:114,24.379,-1.078,-0.203,0.244,-67.387,152.538,-83.427
16:13:50:115,24.380,-1.459,2.175,1.539,-73.513,160.156,-85.145
16:13:50:193,24.458,0.921,1.540,1.251,-94.922,174.993,-91.028
16:13:50:193,24.458,0.591,0.865,0.846,-108.469,-179.169,-94.577
16:13:50:33,24.595,0.946,0.300,0.558,-121.681,-170.292,-99.795
16:13:50:332,24.597,1.074,-0.435,0.083,-132.136,-162.446,-103.738
16:13:50:332,24.597,1.126,-0.851,-0.079,-137.804,-158.280,-105.149
16:13:50:333,24.598,1.046,-1.494,-0.359,-141.663,-153.378,-105.073
16:13:50:378,24.643,0.787,-1.255,-0.655,-140.012,-150.257,-104.064
16:13:50:378,24.643,0.506,-1.228,-0.652,-132.728,-147.409,-101.387
16:13:50:403,24.668,0.368,-1.136,-0.486,-117.153,-147.756,-96.026
16:13:50:404,24.669,0.585,-0.770,-0.517,-97.700,-149.262,-91.442
16:13:50:516,24.781,0.771,0.318,-0.215,-55.468,-153.046,-84.319
16:13:50:516,24.781,0.744,0.851,-0.059,-34.052,-156.512,-79.815
16:13:50:516,24.781,0.436,1.661,0.683,-26.173,-163.769,-71.811
16:13:50:516,24.781,-0.616,2.258,0.769,-29.991,-170.308,-66.825
16:13:50:532,24.797,-0.841,1.655,0.805,-28.910,-178.248,-62.149
16:13:50:585,24.850,-0.578,0.320,0.497,-22.819,178.382,-61.011
16:13:50:642,24.907,-0.708,-0.237,0.361,-18.315,177.357,-61.063
16:13:50:643,24.908,-0.410,-0.513,0.258,-14.122,176.642,-61.741
16:13:50:644,24.909,-0.599,-0.881,0.389,-12.629,175.493,-62.575
16:13:50:663,24.928,-0.560,-0.896,0.236,-12.523,175.012,-63.805
16:13:50:776,25.041,-0.589,-1.059,0.295,-13.681,174.936,-64.998
16:13:50:777,25.042,-0.611,-1.058,0.357,-15.492,175.656,-65.822
16:13:50:778,25.043,-0.496,-0.986,0.365,-20.381,178.263,-67.431
16:13:50:779,25.044,-0.549,-0.730,0.488,-25.008,-178.969,-68.655
16:13:50:9,25.165,-0.507,-0.387,0.671,-33.791,-173.183,-70.741
16:13:50:961,25.226,-0.613,1.307,1.547,-44.057,-166.007,-73.509
16:13:50:962,25.227,-0.125,2.006,1.654,-50.799,-160.100,-76.174
16:13:50:963,25.228,0.734,2.225,0.903,-57.439,-150.193,-81.179
16:13:50:964,25.229,0.927,0.938,0.296,-67.272,-144.347,-85.121
16:13:50:983,25.248,0.666,0.607,0.039,-94.755,-136.574,-91.122
16:13:50:984,25.249,0.789,0.382,-0.353,-113.143,-128.495,-96.759
16:13:50:985,25.250,0.850,-0.255,-0.624,-121.875,-123.769,-99.755
16:13:51:033,25.298,0.732,-1.005,-0.688,-131.300,-118.380,-102.293
16:13:51:034,25.299,0.511,-1.326,-0.744,-135.334,-115.442,-102.956
16:13:51:115,25.380,0.368,-1.439,-0.697,-138.130,-111.884,-102.839
16:13:51:116,25.381,0.215,-1.419,-0.683,-135.135,-109.361,-101.180
16:13:51:117,25.382,0.186,-1.364,-0.670,-127.756,-108.911,-98.924
16:13:51:165,25.430,0.215,-1.024,-0.699,-107.058,-110.377,-93.779
16:13:51:166,25.431,0.390,-0.285,-0.636,-87.103,-112.771,-89.363
16:13:51:217,25.482,0.757,1.143,-0.502,-57.875,-118.188,-82.105
16:13:51:218,25.483,0.321,2.036,0.053,-43.310,-125.088,-73.984
16:13:51:355,25.620,0.225,2.374,0.457,-40.147,-130.565,-69.216
16:13:51:355,25.620,-0.296,1.543,0.731,-36.996,-138.073,-64.442
16:13:51:356,25.621,-0.304,0.439,0.679,-33.362,-141.300,-63.232
16:13:51:357,25.622,-0.366,-0.061,0.714,-25.590,-144.624,-62.716
16:13:51:433,25.698,-0.319,-0.523,0.593,-18.954,-147.382,-63.230
16:13:51:434,25.699,-0.322,-0.688,0.560,-15.679,-149.204,-63.812
16:13:51:434,25.699,-0.452,-1.032,0.594,-13.293,-151.560,-64.790
16:13:51:435,25.700,-0.646,-1.171,0.575,-13.506,-152.409,-65.421
16:13:51:479,25.744,-0.677,-1.144,0.539,-15.520,-151.798,-66.509
16:13:51:48,25.745,-0.534,-1.101,0.599,-17.160,-150.024,-67.479
16:13:51:505,25.770,-0.349,-0.983,0.839,-19.943,-145.646,-69.089
16:13:51:506,25.771,-0.060,0.311,1.523,-24.503,-139.791,-70.727
16:13:51:56,25.825,0.261,1.378,1.982,-28.336,-135.455,-72.476
16:13:51:56,25.825,1.050,1.925,1.352,-29.508,-127.956,-76.401
16:13:51:607,25.872,1.397,1.906,0.414,-29.860,-122.717,-80.002
16:13:51:636,25.901,1.140,1.418,-0.016,-61.878,-115.682,-86.028
16:13:51:637,25.902,0.738,0.600,-0.553,-100.509,-107.985,-91.926
16:13:51:748,26.013,0.583,0.091,-0.823,-116.100,-102.672,-95.456
16:13:51:748,26.013,0.370,-0.498,-1.068,-132.555,-95.189,-99.826
16:13:51:749,26.014,0.205,-1.259,-1.016,-140.983,-90.997,-101.829
16:13:51:75,26.015,-0.028,-1.555,-0.805,-149.721,-85.550,-103.478
16:13:51:879,26.144,-0.244,-1.548,-0.628,-150.167,-81.354,-103.868
16:13:51:88,26.145,-0.302,-1.520,-0.269,-145.779,-80.142,-103.305
16:13:51:881,26.146,-0.420,-1.290,-0.279,-133.181,-80.433,-100.706
16:13:51:881,26.146,-0.547,-0.946,-0.595,-122.071,-81.366,-98.110
16:13:51:928,26.193,0.106,0.623,-0.987,-104.333,-84.817,-93.377
16:13:51:929,26.194,0.668,1.685,-0.698,-89.431,-88.333,-89.885
16:13:52:005,26.270,0.533,2.031,-0.336,-51.856,-93.834,-82.797
16:13:52:006,26.271,0.226,1.811,0.311,-41.150,-99.701,-76.360
16:13:52:058,26.323,0.456,1.053,0.752,-40.881,-103.786,-73.308
16:13:52:058,26.323,0.251,0.461,0.926,-36.387,-108.309,-70.309
16:13:52:143,26.408,0.272,-0.233,0.913,-24.941,-110.759,-69.106
16:13:52:144,26.409,0.195,-0.694,0.958,-16.637,-112.178,-68.661
16:13:52:144,26.409,0.044,-0.938,0.867,-9.749,-114.257,-68.112
16:13:52:145,26.410,-0.022,-1.044,0.846,-9.153,-115.356,-67.973
16:13:52:191,26.456,-0.046,-1.185,0.844,-10.987,-115.916,-68.374
16:13:52:192,26.457,0.044,-1.068,0.795,-13.179,-115.173,-68.871
16:13:52:193,26.458,0.134,-0.988,0.788,-17.185,-112.177,-69.760
16:13:52:398,26.663,0.380,-0.647,0.758,-21.306,-106.953,-70.742
16:13:52:399,26.664,1.148,0.738,1.319,-24.762,-102.640,-71.549
16:13:52:458,26.723,1.868,1.749,0.751,-32.212,-95.591,-73.411
16:13:52:458,26.723,1.610,2.094,0.038,-36.730,-89.651,-75.442
16:13:52:459,26.724,1.060,1.455,-0.581,-42.767,-80.587,-79.526
16:13:52:46,26.725,0.526,0.815,-0.485,-64.614,-72.473,-84.174
16:13:52:483,26.748,0.309,0.540,-0.722,-79.799,-67.038,-87.411
16:13:52:484,26.749,-0.145,-0.028,-0.942,-96.433,-59.093,-91.753
16:13:52:485,26.750,-0.414,-0.771,-0.980,-104.354,-54.281,-93.930
16:13:52:486,26.751,-0.530,-1.090,-0.847,-111.835,-48.158,-95.647
16:13:52:534,26.799,-0.556,-1.277,-0.531,-115.439,-42.791,-96.386
16:13:52:534,26.799,-0.639,-1.247,-0.348,-115.180,-39.735,-96.407
16:13:52:534,26.799,-0.524,-1.263,-0.264,-108.942,-37.429,-94.887
16:13:52:581,26.846,-0.560,-1.174,-0.331,-100.544,-37.504,-92.705
16:13:52:582,26.847,-0.614,-0.621,-0.414,-82.478,-39.587,-88.035
16:13:52:605,26.870,-0.382,0.938,-0.761,-59.663,-44.432,-81.791
16:13:52:712,26.977,-0.109,1.584,-0.709,-46.512,-48.854,-76.996
16:13:52:853,27.118,0.374,2.716,-0.104,-34.477,-57.007,-69.031
16:13:52:853,27.118,0.809,1.743,0.228,-29.139,-62.670,-64.721
16:13:52:853,27.118,0.795,0.850,0.385,-24.129,-69.952,-61.086
16:13:52:854,27.119,0.752,-0.162,0.575,-20.202,-75.857,-59.511
16:13:52:982,27.247,0.680,-0.437,0.605,-18.154,-79.231,-59.091
16:13:52:982,27.247,0.567,-0.677,0.657,-15.347,-83.564,-59.113
16:13:52:983,27.248,0.455,-0.920,0.640,-13.444,-85.855,-59.369
16:13:52:984,27.249,0.405,-1.217,0.659,-11.193,-88.362,-59.980
16:13:53:168,27.433,0.415,-1.358,0.702,-10.819,-89.449,-60.396
16:13:53:168,27.433,0.424,-1.191,0.701,-13.846,-89.750,-60.975
16:13:53:168,27.433,0.375,-0.888,0.707,-20.705,-87.592,-61.952
16:13:53:168,27.433,0.811,-0.380,0.760,-25.732,-84.639,-62.924
16:13:53:193,27.458,1.441,0.612,0.927,-34.550,-78.510,-64.871
16:13:53:193,27.458,1.096,2.798,0.165,-41.764,-73.415,-66.995
16:13:53:194,27.459,0.930,2.494,0.135,-50.603,-62.801,-72.725
16:13:53:195,27.460,0.158,1.631,-0.709,-61.088,-52.514,-80.138
16:13:53:247,27.512,-0.152,0.880,-0.565,-75.196,-46.979,-85.130
16:13:53:247,27.512,-0.545,0.297,-0.535,-95.888,-39.131,-92.092
16:13:53:247,27.512,-0.767,-0.241,-0.777,-106.446,-34.700,-95.867
16:13:53:247,27.512,-0.732,-1.117,-0.850,-118.942,-29.923,-99.972
16:13:53:298,27.563,-0.541,-1.392,-0.670,-124.485,-27.445,-101.605
16:13:53:298,27.563,-0.544,-1.412,-0.508,-125.590,-26.387,-102.209
16:13:53:298,27.563,-0.533,-1.337,-0.307,-123.217,-26.301,-101.439
16:13:53:299,27.564,-0.553,-1.293,-0.272,-118.408,-27.567,-99.453
16:13:53:317,27.582,-0.727,-0.976,-0.291,-104.935,-31.121,-94.557
16:13:53:317,27.582,-0.592,0.179,-0.604,-83.464,-37.038,-88.121
16:13:53:454,27.719,-0.427,1.179,-0.970,-68.908,-41.612,-83.591
16:13:53:455,27.720,-0.036,2.196,-0.195,-52.438,-49.541,-75.615
16:13:53:456,27.721,0.358,2.189,0.186,-45.293,-55.345,-70.742
16:13:53:457,27.722,0.616,1.341,0.243,-36.105,-63.308,-65.205
16:13:53:559,27.824,0.746,0.409,0.496,-28.729,-69.995,-61.261
16:13:53:56,27.825,0.708,0.041,0.653,-24.803,-73.772,-59.287
16:13:53:561,27.826,0.715,-0.483,0.770,-19.512,-78.460,-57.124
16:13:53:562,27.827,0.616,-0.819,0.884,-16.531,-80.922,-56.077
16:13:53:58,27.845,0.439,-1.075,0.815,-13.584,-83.377,-55.307
16:13:53:581,27.846,0.312,-1.291,0.762,-12.965,-84.324,-55.664
16:13:53:823,28.088,0.298,-1.365,0.750,-13.751,-84.108,-56.366
16:13:53:823,28.088,0.310,-1.213,0.706,-16.825,-82.470,-57.894
16:13:53:824,28.089,0.440,-0.838,0.658,-19.960,-80.403,-59.369
16:13:53:825,28.090,0.811,-0.239,0.702,-26.089,-75.794,-62.517
16:13:53:875,28.140,1.837,1.567,1.100,-31.519,-71.974,-65.326
16:13:53:876,28.141,1.346,2.578,-0.043,-42.091,-63.956,-71.267
16:13:53:876,28.141,0.955,2.307,-0.449,-55.419,-53.727,-79.634
16:13:53:877,28.142,0.283,1.396,-0.584,-73.990,-46.931,-85.861
16:13:53:9,28.165,-0.061,1.061,-0.621,-108.750,-36.998,-94.767
16:13:53:901,28.166,-0.306,0.319,-0.599,-129.703,-30.715,-100.164
16:13:53:902,28.167,-0.462,0.005,-0.542,-155.662,-22.493,-106.969
16:13:53:903,28.168,-0.783,-0.677,-0.640,-175.940,-16.314,-111.790
16:13:53:948,28.213,-1.112,-1.549,-0.617,173.462,-13.345,-114.129
16:13:53:949,28.214,-0.933,-1.806,-0.416,165.299,-10.175,-116.959
16:13:54:139,28.404,-0.929,-1.732,-0.387,164.092,-9.059,-118.009
16:13:54:139,28.404,-0.915,-1.590,-0.337,165.412,-9.518,-117.463
16:13:54:139,28.404,-1.008,-0.905,-0.335,168.931,-12.274,-115.044
16:13:54:14,28.405,-0.892,-0.581,-0.512,170.580,-15.975,-112.570
16:13:54:165,28.430,-0.661,0.172,-0.809,174.332,-23.010,-106.651
16:13:54:165,28.430,-0.181,1.698,-0.978,-175.464,-28.217,-101.030
16:13:54:165,28.430,0.323,2.303,-0.553,-102.496,-36.971,-91.134
16:13:54:165,28.430,0.783,2.199,0.145,-42.055,-46.238,-81.894
16:13:54:213,28.478,1.048,1.378,0.479,-29.017,-51.939,-77.146
16:13:54:213,28.478,1.261,0.138,0.867,-17.792,-59.375,-71.748
16:13:54:214,28.479,1.174,-0.275,1.003,-13.845,-63.650,-68.805
16:13:54:291,28.556,0.765,-0.769,0.862,-11.319,-68.737,-65.902
16:13:54:291,28.556,0.508,-1.189,0.931,-10.760,-72.127,-65.189
16:13:54:292,28.557,0.425,-1.369,0.948,-10.871,-73.015,-65.850
16:13:54:339,28.604,0.351,-1.453,0.851,-13.669,-72.154,-68.038
16:13:54:425,28.690,0.330,-1.160,0.714,-18.439,-70.281,-70.054
16:13:54:426,28.691,0.482,-0.943,0.670,-29.338,-65.887,-73.497
16:13:54:427,28.692,0.991,-0.029,0.538,-43.818,-59.760,-77.171
16:13:54:428,28.693,1.518,1.358,0.354,-54.970,-54.603,-79.896
16:13:54:471,28.736,1.127,2.498,-0.662,-68.289,-44.577,-84.469
16:13:54:472,28.737,0.632,1.880,-1.038,-77.829,-37.591,-87.790
16:13:54:525,28.790,0.129,1.270,-1.152,-110.380,-28.054,-92.827
16:13:54:525,28.790,-0.062,0.608,-0.956,-124.454,-22.004,-96.116
16:13:54:664,28.929,-0.434,0.159,-0.835,-136.291,-13.195,-100.851
16:13:54:664,28.929,-0.705,-0.554,-0.708,-145.531,-6.484,-104.807
16:13:54:664,28.929,-0.765,-1.043,-0.532,-148.818,-3.479,-106.897
16:13:54:664,28.929,-0.855,-1.334,-0.269,-148.510,-0.249,-108.870
16:13:54:928,29.193,-0.817,-1.337,0.016,-145.910,1.393,-109.342
16:13:54:929,29.194,-0.856,-1.162,0.604,-141.186,3.431,-108.977
16:13:54:929,29.194,-0.796,-0.948,0.606,-136.038,3.957,-106.403
16:13:54:929,29.194,-0.800,-0.806,0.311,-131.036,2.926,-103.643
16:13:54:969,29.234,-0.943,-0.070,-0.012,-120.543,-0.893,-98.802
16:13:55:005,29.270,-0.552,1.230,-0.542,-107.425,-5.012,-94.598
16:13:55:005,29.270,-0.239,1.735,-0.539,-70.648,-12.715,-84.993
16:13:55:005,29.270,0.364,2.315,-0.239,-44.817,-19.571,-76.016
16:13:55:006,29.271,0.831,1.809,-0.418,-32.554,-23.499,-71.187
16:13:55:135,29.400,1.318,0.709,-0.178,-21.078,-28.066,-65.575
16:13:55:136,29.401,1.305,0.151,0.072,-17.166,-30.271,-62.742
16:13:55:137,29.402,1.172,-0.501,0.135,-12.735,-32.558,-59.951
16:13:55:138,29.403,1.113,-0.964,0.254,-9.183,-33.777,-58.294
16:13:55:5,29.765,1.065,-1.180,0.334,-8.525,-33.886,-57.852
16:13:55:5,29.765,1.028,-1.236,0.346,-9.708,-32.620,-58.438
16:13:55:5,29.765,0.951,-1.191,0.220,-10.981,-30.768,-59.540
16:13:55:519,29.784,1.014,-1.076,0.081,-14.355,-26.423,-62.273
16:13:55:69,29.955,1.048,-0.704,-0.215,-20.118,-20.107,-66.412
16:13:55:691,29.956,1.036,-0.402,-0.411,-25.148,-14.789,-69.829
16:13:55:691,29.956,1.741,1.534,-1.088,-35.422,-5.829,-75.663
16:13:55:691,29.956,0.663,2.727,-1.740,-43.145,1.337,-80.292
16:13:55:896,30.161,-0.031,1.990,-1.551,-51.032,12.733,-87.979
16:13:55:896,30.161,-0.684,1.735,-1.298,162.659,19.487,-93.243
16:13:55:897,30.162,-1.134,1.667,-0.870,167.241,29.868,-101.019
16:13:55:898,30.163,-1.186,0.423,-0.386,150.535,38.103,-107.733
16:13:56:025,30.290,-1.063,-0.187,-0.206,139.766,41.543,-111.399
16:13:56:026,30.291,-0.734,-0.719,0.070,130.331,45.364,-115.815
16:13:56:027,30.292,-0.699,-0.893,0.369,126.294,47.903,-118.136
16:13:56:08,30.345,-0.536,-1.097,0.445,120.727,50.217,-121.767
16:13:56:081,30.346,-0.270,-1.194,0.417,116.059,49.422,-126.436
16:13:56:082,30.347,-0.247,-1.008,0.427,113.396,47.314,-129.835
16:13:56:108,30.373,-0.134,-0.395,0.254,108.189,33.200,-143.963
16:13:56:108,30.373,0.080,-0.087,0.231,106.126,20.589,-156.458
16:13:56:109,30.374,0.091,0.259,-0.092,104.247,8.598,-168.932
16:13:56:109,30.374,-0.052,0.419,-0.151,103.029,-0.022,-177.907
16:13:56:159,30.424,0.236,0.616,-0.007,101.594,-19.060,163.018
16:13:56:159,30.424,0.322,0.625,0.098,100.983,-31.763,150.836
16:13:56:16,30.425,0.220,0.548,0.158,100.023,-42.252,141.075
16:13:56:16,30.425,0.099,-0.335,-0.042,98.888,-52.486,131.873
16:13:56:206,30.471,0.141,-0.574,-0.245,99.165,-53.802,130.506
16:13:56:207,30.472,0.116,-0.690,-0.362,99.778,-52.698,130.392
16:13:56:231,30.496,0.042,-0.711,-0.278,100.517,-51.505,130.547
16:13:56:232,30.497,-0.149,0.564,-0.333,103.777,-44.214,127.959
16:13:56:292,30.557,-0.135,0.780,-0.389,103.966,-41.803,128.669
16:13:56:292,30.557,-0.053,0.760,-0.157,104.344,-38.112,129.907
16:13:56:293,30.558,-0.078,0.552,-0.004,104.499,-35.499,131.231
16:13:56:294,30.559,-0.032,0.044,0.106,105.066,-29.895,133.379
16:13:56:344,30.609,-0.145,-0.333,0.109,106.017,-25.565,135.936
16:13:56:344,30.609,-0.165,-0.584,0.155,106.957,-21.030,139.090
16:13:56:345,30.610,-0.251,-0.576,0.255,107.274,-19.232,140.148
16:13:56:345,30.610,-0.268,-0.581,0.390,107.438,-19.068,139.700
16:13:56:368,30.633,0.137,-0.555,0.333,107.512,-20.249,138.460
16:13:56:369,30.634,0.206,-0.302,0.456,107.436,-23.351,135.757
16:13:56:369,30.634,0.170,0.155,0.199,107.376,-25.212,134.321
16:13:56:37,30.635,0.096,0.341,0.095,106.986,-25.857,133.591
16:13:56:397,30.662,0.344,0.549,0.115,106.318,-28.268,131.572
16:13:56:397,30.662,0.235,0.437,0.160,106.293,-29.125,131.626
16:13:56:398,30.663,0.162,0.388,0.042,106.362,-28.954,133.060
16:13:56:398,30.663,0.143,0.242,0.092,106.028,-28.946,133.865
16:13:56:414,30.679,0.117,0.098,0.109,105.739,-28.480,134.788
16:13:56:415,30.680,0.114,-0.190,0.004,105.460,-27.826,136.158
16:13:56:467,30.732,0.179,-0.341,-0.120,105.209,-28.292,135.847
16:13:56:468,30.733,0.123,-0.429,-0.171,104.604,-29.834,134.227
16:13:56:519,30.784,-0.065,-0.576,-0.173,103.787,-30.908,132.689
16:13:56:544,30.809,-0.156,-0.599,-0.239,103.261,-32.289,130.880
16:13:56:601,30.866,-0.263,-0.450,-0.251,102.518,-35.742,126.531
16:13:56:601,30.866,-0.261,-0.046,-0.125,101.970,-38.211,123.221
16:13:56:602,30.867,0.006,0.357,-0.094,101.325,-40.458,119.367
16:13:56:737,31.002,-0.014,0.508,-0.337,101.287,-38.511,119.300
16:13:56:737,31.002,-0.182,0.525,-0.402,101.386,-35.075,121.086
16:13:56:738,31.003,-0.256,0.638,-0.340,101.819,-29.668,124.174
16:13:56:738,31.003,-0.240,0.644,-0.214,102.147,-26.521,125.888
16:13:56:814,31.079,-0.230,0.406,0.011,102.269,-22.588,127.366
16:13:56:814,31.079,-0.150,0.161,0.125,102.306,-20.111,128.034
16:13:56:815,31.080,-0.082,-0.229,0.066,102.913,-15.422,130.012
16:13:56:816,31.081,-0.183,-0.467,0.105,103.474,-10.874,131.874
16:13:56:861,31.126,-0.163,-0.581,0.203,103.645,-8.988,132.094
16:13:56:862,31.127,-0.098,-0.589,0.279,103.818,-7.986,131.421
16:13:56:993,31.258,-0.089,-0.539,0.410,104.051,-7.286,131.459
16:13:56:994,31.259,-0.150,-0.419,0.409,104.269,-6.985,130.719
16:13:57:079,31.344,0.126,0.072,0.173,104.148,-9.025,127.364
16:13:57:08,31.345,0.372,0.320,-0.100,104.058,-9.253,125.893
16:13:57:08,31.345,-0.212,0.430,-0.071,103.626,-6.878,126.336
16:13:57:081,31.346,-0.046,0.471,0.099,103.563,-5.360,127.168
16:13:57:182,31.447,-0.030,0.427,0.158,103.695,-2.196,129.551
16:13:57:183,31.448,-0.073,0.416,0.119,103.440,0.300,130.770
16:13:57:183,31.448,0.077,0.323,0.028,103.306,1.453,130.980
16:13:57:184,31.449,0.071,0.079,-0.136,103.365,3.200,131.376
16:13:57:205,31.470,-0.142,-0.205,-0.219,103.547,4.348,131.751
16:13:57:205,31.470,-0.284,-0.466,-0.242,103.693,5.549,131.582
16:13:57:206,31.471,-0.323,-0.643,-0.185,103.292,5.208,129.124
16:13:57:313,31.578,-0.388,-0.646,-0.132,102.828,4.651,126.895
16:13:57:313,31.578,-0.527,-0.570,-0.092,101.964,3.746,123.012
16:13:57:314,31.579,-0.314,-0.215,0.045,101.193,2.636,119.546
16:13:57:315,31.580,-0.175,0.074,0.049,100.188,1.847,115.016
16:13:57:331,31.596,-0.379,0.345,-0.108,99.422,4.163,113.388
16:13:57:443,31.708,-0.549,0.454,-0.055,99.082,6.703,113.203
16:13:57:444,31.709,-0.368,0.587,0.070,98.898,10.749,113.623
16:13:57:445,31.710,-0.286,0.616,0.136,98.844,13.764,114.405
16:13:57:52,31.785,0.016,0.319,0.230,98.213,21.002,116.182
16:13:57:52,31.785,0.158,0.024,0.105,98.093,24.503,116.916
16:13:57:521,31.786,0.157,-0.193,0.113,98.161,27.769,118.108
16:13:57:569,31.834,0.137,-0.371,0.263,98.224,29.891,119.277
16:13:57:57,31.835,0.210,-0.532,0.330,98.363,32.087,120.727
16:13:57:593,31.858,0.265,-0.500,0.253,98.391,32.130,120.579
16:13:57:648,31.913,0.172,-0.254,0.170,98.066,29.510,117.945
16:13:57:649,31.914,0.055,0.113,-0.085,97.406,25.873,114.292
16:13:57:701,31.966,0.045,0.223,-0.064,96.740,23.239,111.769
16:13:57:701,31.966,0.114,0.389,-0.129,96.050,19.735,108.726
16:13:57:917,32.182,0.178,0.385,-0.073,96.113,18.019,108.460
16:13:57:918,32.183,0.301,0.366,0.021,96.944,18.766,110.998
16:13:57:919,32.184,0.249,0.277,0.032,98.025,21.310,115.312
16:13:57:919,32.184,0.095,0.169,-0.060,98.698,23.393,118.468
16:13:57:969,32.234,-0.098,0.061,-0.093,99.583,26.426,123.764
16:13:57:97,32.235,-0.234,0.004,-0.053,99.953,28.670,127.018
16:13:57:971,32.236,-0.370,-0.167,-0.095,100.189,29.973,129.557
16:13:57:972,32.237,-0.417,-0.341,-0.043,100.217,30.113,130.029
16:13:58:049,32.314,-0.293,-0.492,0.066,100.311,30.107,130.064
16:13:58:05,32.315,-0.260,-0.598,0.103,100.698,30.347,128.862
16:13:58:051,32.316,-0.352,-0.471,0.018,101.029,29.432,126.715
16:13:58:052,32.317,-0.273,-0.313,-0.041,101.495,28.772,122.902
16:13:58:155,32.420,-0.184,0.137,-0.148,102.296,30.245,121.675
16:13:58:155,32.420,-0.240,0.315,-0.141,102.738,33.160,122.298
16:13:58:156,32.421,-0.391,0.563,-0.042,102.950,38.205,123.985
16:13:58:156,32.421,-0.246,0.733,0.053,103.035,42.007,125.426
16:13:58:173,32.438,0.118,0.715,0.243,103.113,47.080,127.791
16:13:58:174,32.439,0.273,0.466,0.141,103.114,49.971,128.811
16:13:58:199,32.464,0.394,0.066,0.006,103.258,53.764,130.259
16:13:58:2,32.465,0.508,-0.393,0.120,103.627,58.304,133.310
16:13:58:364,32.629,0.420,-0.695,0.271,103.972,61.400,135.514
16:13:58:364,32.629,0.320,-0.871,0.225,104.635,62.508,136.378
16:13:58:365,32.630,0.373,-0.825,0.182,105.071,60.979,135.208
16:13:58:365,32.630,0.408,-0.624,0.224,105.030,59.152,134.309
16:13:58:415,32.680,0.333,-0.188,0.093,104.604,55.191,131.499
16:13:58:416,32.681,0.163,0.177,-0.317,104.366,51.312,128.760
16:13:58:417,32.682,0.022,0.451,-0.323,103.631,46.943,126.157
16:13:58:464,32.729,0.297,0.685,0.186,102.602,44.190,128.987
16:13:58:464,32.729,0.405,0.614,0.064,102.520,42.401,130.619
16:13:58:485,32.750,0.349,0.367,0.017,102.248,41.638,131.686
16:13:58:541,32.806,0.301,-0.036,-0.073,102.231,42.878,136.058
16:13:58:542,32.807,0.200,-0.483,-0.014,102.757,47.457,142.916
16:13:58:678,32.943,0.066,-0.704,0.047,104.110,61.435,160.585
16:13:58:679,32.944,-0.161,-1.036,0.094,105.734,82.556,-174.963
16:13:58:68,32.945,-0.239,-1.096,0.121,107.041,96.481,-159.189
16:13:58:68,32.945,-0.461,-1.145,0.118,109.805,112.628,-140.989
16:13:58:696,32.961,-1.028,-0.932,0.292,112.490,120.037,-133.062
16:13:58:891,33.156,-0.880,-0.547,0.107,118.314,126.915,-126.989
16:13:58:891,33.156,-0.682,0.090,-0.110,127.110,132.191,-124.758
16:13:58:892,33.157,-0.822,0.629,-0.149,135.115,135.573,-124.343
16:13:58:892,33.157,-0.947,0.790,-0.151,148.221,139.679,-124.650
16:13:58:943,33.208,-1.062,1.012,-0.335,157.324,142.855,-125.198
16:13:58:944,33.209,-0.332,1.584,-0.336,173.673,151.989,-124.465
16:13:58:944,33.209,0.642,1.663,0.056,-171.203,162.332,-123.317
16:13:58:944,33.209,0.984,1.293,0.055,-167.564,167.074,-123.190
16:13:58:993,33.258,0.657,0.405,0.191,-173.764,168.594,-123.300
16:13:58:994,33.259,0.331,-0.782,0.389,178.043,167.201,-123.439
16:13:58:995,33.260,0.443,-1.601,0.360,168.315,165.011,-123.564
16:13:58:996,33.261,0.730,-1.762,0.372,168.243,165.530,-122.820
16:13:59:125,33.390,0.694,-1.358,0.375,173.722,166.452,-122.004
16:13:59:125,33.390,0.587,-1.151,0.648,-173.095,167.040,-120.006
16:13:59:126,33.391,0.915,-0.825,0.771,-162.044,167.550,-118.039
16:13:59:127,33.392,1.192,0.566,0.120,-145.280,166.935,-114.783
16:13:59:144,33.409,0.587,0.533,0.368,-134.162,161.327,-109.739
16:13:59:145,33.410,0.434,0.890,0.336,-123.784,156.853,-105.314
16:13:59:168,33.433,0.372,1.845,0.212,-105.797,148.870,-97.806
16:13:59:194,33.459,0.010,1.600,-0.045,-95.557,142.520,-92.696
16:13:59:22,33.485,-0.234,0.881,-0.023,-80.837,132.951,-86.155
16:13:59:276,33.541,-0.533,0.551,-0.145,-72.366,127.428,-83.068
16:13:59:276,33.541,-0.885,0.248,-0.285,-62.293,120.056,-79.723
16:13:59:329,33.594,-0.918,-0.434,-0.393,-51.884,114.173,-77.422
16:13:59:329,33.594,-0.794,-0.715,-0.431,-44.501,111.181,-76.250
16:13:59:38,33.645,-0.531,-1.055,-0.332,-38.322,107.966,-75.139
16:13:59:381,33.646,-0.614,-1.003,-0.546,-39.704,106.576,-75.031
16:13:59:464,33.729,-0.674,-0.979,-0.748,-48.000,105.571,-75.997
16:13:59:464,33.729,-0.472,-0.883,-0.749,-60.663,106.856,-78.651
16:13:59:464,33.729,-0.309,-0.826,-0.810,-70.344,109.489,-81.727
16:13:59:598,33.863,-0.567,-0.195,-1.116,-84.916,115.544,-87.602
16:13:59:598,33.863,-0.659,1.541,-0.805,-93.333,120.984,-91.718
16:13:59:599,33.864,0.260,2.245,0.122,-105.030,131.548,-98.441
16:13:59:6,33.865,0.327,1.642,0.810,-117.020,141.115,-104.347
16:13:59:647,33.912,0.299,1.009,0.854,-125.988,145.739,-107.310
16:13:59:647,33.912,0.066,0.175,0.761,-137.317,151.582,-110.799
16:13:59:647,33.912,0.396,-0.527,0.800,-143.683,155.359,-112.609
16:13:59:781,34.046,0.390,-0.785,0.752,-150.632,159.481,-114.074
16:13:59:782,34.047,0.399,-1.226,0.614,-154.048,161.804,-114.114
16:13:59:783,34.048,0.438,-1.280,0.492,-154.062,162.851,-113.746
16:13:59:83,34.095,0.436,-1.194,0.143,-150.026,163.765,-112.302
16:13:59:83,34.095,0.458,-1.138,0.021,-146.314,162.283,-110.039
16:13:59:831,34.096,0.674,-0.717,-0.038,-139.959,159.686,-106.349
16:13:59:85,34.115,0.722,-0.245,0.263,-132.455,156.939,-102.897
16:13:59:907,34.172,0.935,1.409,1.131,-112.117,151.912,-96.145
16:13:59:907,34.172,0.854,2.848,0.238,-92.406,148.516,-90.708
16:13:59:987,34.252,0.197,2.357,-0.278,-68.448,142.253,-82.731
16:13:59:988,34.253,-0.341,0.806,0.058,-51.080,137.298,-77.688
16:13:59:989,34.254,-0.558,0.437,-0.194,-45.303,134.489,-75.213
16:14:00:037,34.302,-0.796,0.136,-0.343,-40.388,129.983,-72.400
16:14:00:038,34.303,-1.038,-0.349,-0.567,-36.613,127.618,-71.091
16:14:00:09,34.355,-0.916,-0.822,-0.546,-28.855,124.549,-69.696
16:14:00:116,34.381,-0.740,-1.059,-0.483,-24.738,123.504,-69.320
16:14:00:116,34.381,-0.655,-1.142,-0.473,-23.952,122.955,-69.915
16:14:00:14,34.405,-0.661,-1.147,-0.455,-27.641,124.389,-71.434
16:14:00:253,34.518,-0.697,-1.139,-0.385,-31.416,125.990,-72.650
16:14:00:254,34.519,-0.836,-0.999,-0.164,-37.992,130.308,-74.625
16:14:00:255,34.520,-1.071,-0.429,-0.017,-42.790,134.180,-75.869
16:14:00:256,34.521,-1.796,1.661,0.517,-49.711,140.872,-77.474
16:14:00:358,34.623,-1.011,2.579,1.431,-57.436,149.305,-80.085
16:14:00:359,34.624,0.188,0.776,0.879,-83.117,165.918,-88.274
16:14:00:36,34.625,0.483,0.472,0.738,-97.498,172.760,-92.026
16:14:00:379,34.644,0.836,-0.012,0.339,-115.501,-176.772,-97.361
16:14:00:38,34.645,0.786,-0.733,0.294,-131.150,-168.643,-101.317
16:14:00:429,34.694,0.766,-1.024,0.222,-140.473,-164.697,-102.917
16:14:00:571,34.836,0.580,-1.316,-0.010,-149.733,-159.956,-104.557
16:14:00:571,34.836,0.473,-1.366,-0.122,-152.189,-157.292,-105.408
16:14:00:571,34.836,0.465,-1.258,-0.215,-151.684,-154.216,-105.967
16:14:00:571,34.836,0.462,-1.055,-0.364,-148.402,-152.867,-105.027
16:14:00:622,34.887,0.658,-0.629,-0.524,-145.405,-153.005,-103.454
16:14:00:622,34.887,1.216,0.278,-0.222,-140.388,-154.751,-100.311
16:14:00:625,34.890,0.955,0.816,0.096,-133.866,-156.584,-97.713
16:14:00:625,34.890,0.809,1.745,0.231,-98.649,-159.613,-91.454
16:14:00:668,34.933,0.202,1.814,0.410,-65.868,-163.772,-84.554
16:14:00:669,34.934,-0.074,1.393,0.424,-52.880,-166.809,-80.549
16:14:00:69,34.955,-0.440,0.572,0.459,-39.496,-171.143,-76.181
16:14:00:746,35.011,-0.636,-0.011,0.579,-32.224,-173.792,-74.080
16:14:00:747,35.012,-0.805,-0.321,0.591,-22.770,-177.414,-71.651
16:14:00:8,35.065,-0.804,-0.766,0.448,-16.742,179.662,-70.069
16:14:00:8,35.065,-0.821,-1.002,0.255,-15.650,178.250,-69.529
16:14:00:822,35.087,-0.925,-1.086,0.143,-17.156,177.016,-69.291
16:14:00:877,35.142,-0.865,-1.011,0.086,-20.531,176.910,-69.437
16:14:00:878,35.143,-0.775,-0.757,0.164,-27.730,178.253,-70.254
16:14:00:929,35.194,-0.814,-0.573,0.312,-31.965,-179.607,-71.266
16:14:00:93,35.195,-0.780,-0.010,0.745,-38.086,-174.608,-73.632
16:14:01:06,35.325,-0.564,1.597,1.487,-46.584,-167.980,-76.998
16:14:01:2,35.465,0.297,2.065,1.314,-53.384,-162.331,-80.301
16:14:01:2,35.465,0.962,1.584,1.122,-68.442,-153.445,-86.210
16:14:01:201,35.466,1.041,0.942,0.465,-90.663,-147.881,-90.108
16:14:01:202,35.467,0.923,0.512,0.071,-117.396,-139.696,-95.545
16:14:01:225,35.490,0.990,0.006,-0.224,-135.020,-131.880,-100.184
16:14:01:225,35.490,0.868,-0.472,-0.475,-144.690,-127.271,-102.617
16:14:01:226,35.491,0.660,-1.094,-0.523,-155.612,-121.584,-104.843
16:14:01:226,35.491,0.575,-1.254,-0.570,-160.147,-118.398,-105.502
16:14:01:244,35.509,0.367,-1.376,-0.549,-161.940,-114.515,-105.659
16:14:01:274,35.539,0.179,-1.283,-0.564,-157.835,-112.207,-104.601
16:14:01:274,35.539,0.124,-1.191,-0.561,-152.653,-112.042,-102.972
16:14:01:275,35.540,0.185,-0.634,-0.716,-140.093,-113.822,-99.103
16:14:01:409,35.674,0.650,0.362,-0.860,-125.995,-116.329,-95.864
16:14:01:409,35.674,0.768,0.867,-0.745,-92.379,-120.915,-90.440
16:14:01:409,35.674,0.565,2.264,-0.085,-68.433,-127.046,-84.036
16:14:01:41,35.675,0.313,1.947,0.377,-57.426,-131.435,-80.023
16:14:01:457,35.722,-0.088,0.908,0.614,-42.906,-136.991,-75.465
16:14:01:458,35.723,-0.254,0.312,0.680,-35.317,-140.093,-73.433
16:14:01:459,35.724,-0.325,-0.090,0.741,-26.742,-144.396,-71.473
16:14:01:538,35.803,-0.476,-0.456,0.827,-21.128,-148.394,-70.191
16:14:01:538,35.803,-0.514,-0.631,0.729,-18.762,-150.586,-69.660
16:14:01:539,35.804,-0.519,-0.968,0.544,-16.940,-152.837,-69.491
16:14:01:586,35.851,-0.594,-1.165,0.522,-16.580,-153.557,-69.752
16:14:01:586,35.851,-0.629,-1.218,0.475,-18.341,-153.367,-70.498
16:14:01:639,35.904,-0.589,-1.115,0.521,-21.274,-152.387,-71.107
16:14:01:64,35.905,-0.508,-0.812,0.829,-27.442,-149.336,-72.179
16:14:01:802,36.067,-0.308,0.796,1.567,-33.391,-144.271,-73.577
16:14:01:803,36.068,0.423,2.325,1.400,-37.300,-139.830,-75.411
16:14:01:804,36.069,0.881,2.377,1.319,-37.560,-131.798,-79.157
16:14:01:805,36.070,1.494,1.748,0.100,-42.671,-125.889,-83.188
16:14:01:855,36.120,1.224,0.864,-0.243,-90.234,-117.798,-90.027
16:14:01:856,36.121,0.878,0.210,-0.617,-127.734,-110.018,-96.335
16:14:01:856,36.121,0.689,-0.284,-0.867,-139.559,-105.395,-99.974
16:14:01:857,36.122,0.415,-0.885,-0.845,-152.302,-99.911,-103.773
16:14:02:039,36.304,0.253,-1.216,-0.809,-158.745,-96.749,-105.146
16:14:02:04,36.305,0.006,-1.327,-0.723,-164.238,-92.122,-106.021
16:14:02:04,36.305,-0.122,-1.313,-0.587,-166.565,-88.097,-105.568
16:14:02:041,36.306,-0.172,-1.176,-0.574,-165.872,-86.196,-104.320
16:14:02:118,36.383,-0.209,-1.021,-0.386,-162.434,-85.519,-101.126
16:14:02:119,36.384,-0.065,-0.234,-0.470,-155.858,-86.158,-97.948
16:14:02:119,36.384,0.199,0.637,-0.625,-115.793,-89.130,-91.732
16:14:02:12,36.385,0.587,1.904,-1.163,-51.722,-92.820,-85.277
16:14:02:198,36.463,0.473,2.128,-0.384,-43.489,-96.061,-81.118
16:14:02:198,36.463,0.427,1.619,0.367,-36.997,-100.972,-76.559
16:14:02:198,36.463,0.216,0.516,0.539,-32.222,-103.889,-74.417
16:14:02:199,36.464,0.148,0.105,0.592,-25.175,-107.743,-72.133
16:14:02:245,36.510,0.134,-0.275,0.856,-18.870,-111.530,-70.569
16:14:02:245,36.510,0.017,-0.558,1.077,-15.204,-113.851,-69.633
16:14:02:246,36.511,-0.187,-0.870,0.901,-12.528,-116.174,-68.914
16:14:02:294,36.559,-0.264,-1.061,0.962,-12.149,-116.849,-69.334
16:14:02:295,36.560,-0.175,-1.276,0.981,-13.123,-116.212,-71.346
16:14:02:318,36.583,0.077,-1.204,0.933,-15.515,-114.594,-73.193
16:14:02:511,36.776,0.241,-0.994,0.959,-22.652,-110.340,-76.217
16:14:02:512,36.777,0.711,-0.211,1.074,-31.492,-104.207,-79.404
16:14:02:513,36.778,2.107,1.689,1.255,-37.537,-99.966,-81.550
16:14:02:616,36.881,1.322,2.064,-0.918,-69.394,-86.528,-87.874
16:14:02:616,36.881,0.822,1.091,-0.625,-108.280,-78.669,-92.790
16:14:02:617,36.882,0.385,0.532,-0.642,-120.852,-70.310,-97.560
16:14:02:618,36.883,0.045,0.150,-0.772,-126.401,-64.509,-100.403
16:14:02:643,36.908,-0.256,-0.717,-0.765,-134.152,-57.360,-103.075
16:14:02:643,36.908,-0.391,-1.157,-0.673,-138.286,-53.417,-103.724
16:14:02:644,36.909,-0.487,-1.250,-0.509,-141.572,-48.559,-103.671
16:14:02:645,36.910,-0.538,-1.376,-0.334,-139.565,-45.136,-102.675
16:14:02:691,36.956,-0.553,-1.237,-0.333,-134.011,-44.073,-101.184
16:14:02:691,36.956,-0.545,-1.030,-0.375,-122.110,-44.928,-97.683
16:14:02:692,36.957,-0.475,-0.578,-0.459,-111.355,-46.944,-94.593
16:14:02:77,37.035,-0.229,0.382,-0.736,-83.187,-51.928,-88.795
16:14:02:771,37.036,0.100,1.706,-0.591,-50.189,-58.028,-81.457
16:14:02:771,37.036,0.395,2.304,-0.218,-40.098,-62.386,-76.259
16:14:02:879,37.144,0.911,1.854,0.172,-28.782,-68.465,-69.884
16:14:02:879,37.144,0.781,0.684,0.476,-22.415,-71.715,-66.874
16:14:02:88,37.145,0.644,0.198,0.596,-15.486,-75.641,-63.927
16:14:02:881,37.146,0.577,-0.313,0.613,-11.259,-79.167,-62.438
16:14:02:954,37.219,0.584,-0.554,0.717,-9.156,-81.368,-62.104
16:14:02:955,37.220,0.486,-0.811,0.777,-6.452,-83.975,-62.181
16:14:02:955,37.220,0.363,-1.078,0.753,-5.115,-85.006,-62.490
16:14:03:081,37.346,0.256,-1.247,0.714,-4.705,-85.522,-63.392
16:14:03:167,37.432,0.309,-1.162,0.767,-7.713,-84.968,-64.677
16:14:03:168,37.433,0.472,-0.970,0.827,-11.463,-83.819,-65.634
16:14:03:169,37.434,0.755,-0.423,0.741,-18.236,-80.264,-67.508
16:14:03:17,37.435,1.519,0.893,0.839,-22.744,-76.724,-69.206
16:14:03:187,37.452,1.749,1.509,0.366,-30.850,-70.243,-72.702
16:14:03:219,37.484,1.112,2.049,-0.255,-45.064,-61.790,-77.656
16:14:03:22,37.485,0.562,2.016,-0.601,-60.126,-55.697,-81.863
16:14:03:221,37.486,0.224,0.929,-0.634,-84.831,-47.182,-88.516
16:14:03:221,37.486,-0.212,0.606,-0.629,-99.690,-41.700,-92.897
16:14:03:265,37.530,-0.576,-0.332,-0.718,-118.655,-35.036,-98.470
16:14:03:266,37.531,-0.649,-0.974,-0.749,-129.461,-31.921,-101.170
16:14:03:289,37.554,-0.729,-1.248,-0.653,-139.475,-27.983,-104.094
16:14:03:316,37.581,-0.716,-1.415,-0.405,-142.399,-24.794,-105.913
16:14:03:341,37.606,-0.572,-1.443,-0.216,-142.283,-23.379,-106.191
16:14:03:745,38.010,-0.588,-1.419,-0.217,-138.957,-22.967,-104.619
16:14:03:745,38.010,-0.840,-1.062,-0.329,-132.970,-23.841,-102.045
16:14:03:746,38.011,-0.739,-0.486,-0.527,-114.304,-27.578,-96.051
16:14:03:747,38.012,-0.786,1.098,-1.216,-82.735,-34.113,-88.229
16:14:03:798,38.063,-0.290,2.597,-0.700,-64.715,-39.536,-82.294
16:14:03:799,38.064,0.557,2.226,-0.020,-48.872,-48.500,-74.302
16:14:03:799,38.064,0.807,1.054,0.181,-40.128,-53.532,-70.594
16:14:03:8,38.065,0.961,0.325,0.402,-31.322,-60.323,-66.557
16:14:03:851,38.116,1.134,-0.135,0.699,-27.010,-66.869,-63.633
16:14:03:851,38.116,1.019,-0.280,0.754,-24.571,-71.035,-62.166
16:14:03:851,38.116,0.661,-0.715,0.636,-21.102,-76.280,-60.829
16:14:03:852,38.117,0.462,-1.049,0.707,-19.127,-79.160,-60.518
16:14:03:876,38.141,0.303,-1.264,0.742,-17.646,-82.441,-60.910
16:14:03:877,38.142,0.170,-1.321,0.777,-19.251,-84.209,-62.057
16:14:03:878,38.143,0.182,-1.189,0.751,-22.172,-84.270,-63.137
16:14:03:878,38.143,0.286,-0.908,0.684,-28.448,-82.259,-65.124
16:14:03:928,38.193,0.939,0.188,0.830,-33.537,-79.510,-66.699
16:14:03:929,38.194,1.648,1.988,0.765,-42.634,-73.444,-69.933
16:14:03:93,38.195,0.831,2.543,0.013,-50.288,-64.483,-74.911
16:14:03:931,38.196,0.506,2.190,-0.631,-53.194,-57.970,-79.171
16:14:04:008,38.273,0.229,0.629,-0.750,-68.671,-50.798,-85.558
16:14:04:009,38.274,0.012,0.419,-0.565,-87.318,-46.812,-89.397
16:14:04:009,38.274,-0.393,0.068,-0.621,-106.814,-40.945,-94.821
16:14:04:009,38.274,-0.685,-0.740,-0.751,-118.360,-36.003,-98.908
16:14:04:057,38.322,-0.680,-1.080,-0.573,-123.958,-33.372,-100.652
16:14:04:057,38.322,-0.578,-1.319,-0.465,-130.166,-30.176,-102.190
16:14:04:058,38.323,-0.546,-1.448,-0.408,-132.586,-28.511,-102.378
16:14:04:135,38.400,-0.532,-1.389,-0.291,-132.128,-27.441,-101.161
16:14:04:136,38.401,-0.638,-1.034,-0.201,-127.265,-27.911,-99.268
16:14:04:136,38.401,-0.695,-0.632,-0.281,-110.833,-30.587,-94.573
16:14:04:184,38.449,-0.444,0.752,-0.706,-77.907,-36.099,-87.720
16:14:04:185,38.450,-0.482,1.331,-1.188,-55.222,-40.361,-82.969
16:14:04:237,38.502,0.367,2.511,-0.230,-40.484,-48.300,-75.261
16:14:04:237,38.502,0.726,1.577,0.111,-36.058,-54.104,-70.995
16:14:04:29,38.555,0.767,0.582,0.394,-30.925,-61.659,-67.076
16:14:04:291,38.556,0.808,0.061,0.551,-25.779,-67.580,-65.086
16:14:04:313,38.578,0.704,-0.228,0.609,-22.590,-70.840,-64.444
16:14:04:368,38.633,0.560,-0.562,0.656,-18.012,-74.692,-64.229
16:14:04:369,38.634,0.491,-0.753,0.668,-15.057,-76.585,-64.377
16:14:04:42,38.685,0.412,-1.097,0.616,-11.841,-78.268,-65.154
16:14:04:421,38.686,0.355,-1.208,0.631,-12.369,-78.200,-66.378
16:14:04:691,38.956,0.380,-1.202,0.640,-14.113,-77.222,-67.267
16:14:04:691,38.956,0.546,-1.059,0.580,-17.950,-74.163,-68.578
16:14:04:692,38.957,0.849,-0.570,0.390,-21.581,-71.073,-69.454
16:14:04:692,38.957,1.316,0.343,0.373,-29.407,-65.540,-70.888
16:14:04:978,39.243,1.483,2.221,-0.426,-39.190,-58.143,-73.390
16:14:04:979,39.244,0.827,2.560,-0.676,-42.892,-52.483,-75.954
16:14:04:979,39.244,0.127,1.161,-0.895,-53.526,-44.658,-80.944
16:14:04:98,39.245,0.052,0.655,-0.542,-68.746,-40.010,-84.415
16:14:05:11,39.375,-0.383,0.459,-0.522,-89.630,-32.423,-89.882
16:14:05:111,39.376,-0.672,-0.266,-0.587,-103.150,-25.482,-94.584
16:14:05:112,39.377,-0.705,-0.616,-0.551,-109.011,-21.817,-96.632
16:14:05:112,39.377,-0.735,-1.096,-0.312,-114.947,-17.161,-98.395
16:14:05:216,39.481,-0.583,-1.317,-0.114,-117.628,-14.698,-98.962
16:14:05:217,39.482,-0.506,-1.391,-0.059,-119.237,-12.135,-98.937
16:14:05:218,39.483,-0.485,-1.259,-0.034,-117.563,-11.485,-98.117
16:14:05:219,39.484,-0.591,-1.109,-0.009,-111.097,-12.626,-95.582
16:14:05:241,39.506,-0.693,-0.655,-0.039,-95.570,-16.216,-91.241
16:14:05:242,39.507,-0.591,0.656,-0.413,-74.938,-20.027,-87.035
16:14:05:243,39.508,-0.245,1.807,-0.527,-45.306,-26.429,-79.561
16:14:05:244,39.509,0.497,2.468,-0.301,-38.006,-30.993,-74.293
16:14:05:259,39.524,0.838,2.001,0.080,-32.602,-37.070,-67.992
16:14:05:293,39.558,0.816,0.663,0.315,-28.954,-41.322,-64.454
16:14:05:294,39.559,0.788,0.261,0.323,-25.315,-43.286,-63.227
16:14:05:295,39.560,0.721,-0.272,0.290,-19.155,-45.461,-62.570
16:14:05:296,39.561,0.680,-0.519,0.296,-15.112,-46.654,-62.617
16:14:05:793,40.058,0.705,-0.869,0.272,-9.773,-47.994,-63.032
16:14:05:793,40.058,0.782,-1.107,0.322,-6.493,-48.473,-63.523
16:14:05:794,40.059,0.792,-1.209,0.285,-5.944,-47.899,-63.897
16:14:05:795,40.060,0.861,-1.113,0.190,-7.340,-45.190,-64.721
16:14:05:819,40.084,0.977,-0.993,-0.025,-9.296,-42.068,-65.488
16:14:05:82,40.085,1.051,-0.730,-0.280,-14.585,-35.668,-66.872
16:14:05:821,40.086,1.744,0.585,-0.931,-23.250,-28.285,-68.582
16:14:05:822,40.087,1.762,1.587,-1.439,-30.256,-22.453,-70.559
16:14:05:922,40.187,0.473,2.388,-1.514,-38.210,-12.054,-75.306
16:14:05:923,40.188,-0.566,1.631,-1.212,-45.134,-5.627,-79.272
16:14:05:924,40.189,-0.630,0.635,-0.551,-69.892,2.691,-85.028
16:14:05:949,40.215,-1.051,0.284,-0.094,-90.014,11.354,-90.004
16:14:05:951,40.216,-1.065,-0.181,0.195,-96.657,16.832,-92.305
16:14:05:951,40.216,-1.052,-0.857,0.303,-100.592,23.926,-93.749
16:14:05:952,40.217,-0.853,-1.085,0.404,-100.396,27.664,-93.569
16:14:06:054,40.319,-0.604,-1.202,0.446,-95.853,31.341,-91.906
16:14:06:055,40.320,-0.447,-1.184,0.395,-85.846,32.465,-88.691
16:14:06:056,40.321,-0.433,-1.146,0.381,-76.323,31.750,-85.732
16:14:06:135,40.400,-0.435,-0.072,0.221,-47.446,25.731,-76.140
16:14:06:135,40.400,-0.432,0.574,-0.148,-31.278,19.508,-68.872
16:14:06:135,40.400,0.273,2.026,-0.494,-27.720,11.241,-61.150
16:14:06:136,40.401,0.507,-0.826,-0.195,-12.239,-6.802,-57.068
16:14:06:188,40.453,0.580,-1.047,-0.178,-12.246,-7.274,-58.072
16:14:06:188,40.453,0.620,-1.169,-0.200,-14.811,-7.107,-59.648
16:14:06:189,40.454,0.627,-1.157,-0.240,-18.118,-6.057,-60.732
16:14:06:19,40.455,0.682,-0.988,-0.371,-24.252,-2.763,-62.339
16:14:06:214,40.479,0.731,-0.382,-0.631,-30.928,2.626,-64.032
16:14:06:214,40.479,0.930,0.491,-1.103,-35.328,6.823,-65.236
16:14:06:214,40.479,-0.135,2.423,-1.147,-42.752,14.685,-68.402
16:14:06:214,40.479,-0.354,2.103,-0.508,-46.315,20.693,-71.442
16:14:06:366,40.631,-0.763,1.198,-0.266,-53.697,28.997,-77.393
16:14:06:366,40.631,-0.340,0.440,-0.010,-64.889,33.554,-81.197
16:14:06:493,40.758,-0.488,0.298,0.357,-82.212,41.155,-86.764
16:14:06:711,40.976,-0.608,-0.203,0.382,-92.685,48.503,-91.202
16:14:06:712,40.977,-0.750,-0.887,0.415,-96.835,52.543,-93.024
16:14:06:713,40.978,-0.607,-1.131,0.449,-100.801,57.473,-94.569
16:14:06:713,40.978,-0.466,-1.293,0.517,-102.254,59.950,-95.076
16:14:06:79,41.055,-0.353,-1.331,0.584,-101.601,62.092,-94.751
16:14:06:79,41.055,-0.330,-1.154,0.689,-96.192,61.839,-92.541
16:14:06:791,41.056,-0.390,-0.652,0.722,-89.627,60.172,-89.848
16:14:06:792,41.057,-0.453,0.073,0.654,-73.976,55.344,-83.555
16:14:06:843,41.108,-0.247,1.931,0.540,-58.006,48.673,-75.945
16:14:06:843,41.108,0.174,2.595,0.275,-51.309,43.190,-70.555
16:14:06:844,41.109,0.429,1.906,-0.385,-43.998,36.093,-64.949
16:14:06:845,41.110,0.484,0.886,-0.465,-40.263,32.325,-62.683
16:14:06:973,41.238,0.518,0.150,-0.513,-35.666,27.408,-60.534
16:14:06:974,41.239,0.528,-0.030,-0.457,-33.178,24.599,-59.866
16:14:06:975,41.240,0.490,-0.400,-0.529,-28.828,21.016,-59.834
16:14:06:976,41.241,0.530,-0.846,-0.578,-23.416,18.410,-60.381
16:14:07:026,41.291,0.520,-0.999,-0.539,-20.596,17.245,-60.935
16:14:07:026,41.291,0.527,-1.215,-0.492,-18.803,16.589,-62.198
16:14:07:027,41.292,0.546,-1.240,-0.492,-19.042,17.047,-63.363
16:14:07:028,41.293,0.556,-1.085,-0.539,-21.343,19.076,-65.236
16:14:07:052,41.317,0.399,-0.756,-0.749,-26.117,22.689,-67.327
16:14:07:053,41.318,0.373,0.055,-1.216,-30.741,25.822,-68.916
16:14:07:054,41.319,-1.067,1.669,-0.191,-53.277,44.954,-78.461
16:14:07:054,41.319,-0.523,0.759,0.032,-67.635,53.169,-83.040
16:14:07:105,41.370,-0.539,0.582,0.328,-78.664,59.233,-86.115
16:14:07:105,41.370,-0.527,-0.005,0.629,-90.387,68.431,-90.145
16:14:07:106,41.371,-0.445,-0.635,0.657,-95.359,73.752,-92.026
16:14:07:107,41.372,-0.311,-0.853,0.749,-99.404,80.556,-93.439
16:14:07:157,41.422,-0.175,-1.222,0.654,-101.003,85.909,-93.851
16:14:07:158,41.423,-0.056,-1.262,0.569,-100.944,88.739,-93.848
16:14:07:159,41.424,0.041,-1.128,0.508,-98.335,91.432,-93.075
16:14:07:159,41.424,0.077,-0.981,0.626,-94.828,91.937,-91.825
16:14:07:184,41.449,0.324,-0.487,0.796,-87.257,90.957,-88.950
16:14:07:185,41.450,-0.140,0.588,1.080,-77.492,87.385,-85.254
16:14:07:185,41.450,-0.312,0.953,0.930,-69.402,84.054,-81.964
16:14:07:201,41.466,0.176,2.176,-0.124,-52.836,72.267,-69.673
16:14:07:238,41.503,0.169,1.421,-0.590,-45.263,66.171,-64.083
16:14:07:238,41.503,-0.061,0.240,-0.637,-39.440,64.201,-62.424
16:14:07:238,41.503,-0.030,-0.195,-0.717,-30.220,62.351,-61.129
16:14:07:238,41.503,-0.055,-0.490,-0.781,-23.227,60.443,-60.477
16:14:07:342,41.607,0.037,-0.766,-0.854,-20.660,58.697,-60.139
16:14:07:343,41.608,0.102,-1.016,-0.897,-19.349,56.229,-59.612
16:14:07:343,41.608,0.171,-1.155,-0.951,-19.768,55.177,-59.313
16:14:07:344,41.609,0.129,-1.152,-0.957,-21.785,55.134,-59.283
16:14:07:362,41.627,-0.089,-0.998,-0.991,-25.432,57.707,-60.052
16:14:07:362,41.627,-0.245,-0.804,-1.025,-28.669,61.112,-60.912
16:14:07:413,41.678,-0.529,0.027,-1.033,-35.361,68.876,-63.162
16:14:07:414,41.679,-1.524,1.628,-1.188,-40.070,75.479,-65.301
16:14:07:495,41.760,-1.630,2.317,-0.526,-48.203,86.937,-69.981
16:14:07:495,41.760,-1.032,2.426,0.634,-58.385,99.508,-76.795
16:14:07:496,41.761,-0.686,1.230,0.909,-68.886,106.846,-81.979
16:14:07:546,41.811,-0.211,0.631,0.897,-88.829,116.423,-89.550
16:14:07:546,41.811,0.106,0.084,1.049,-101.204,122.463,-94.559
16:14:07:597,41.862,0.294,-0.499,1.073,-115.963,130.278,-100.987
16:14:07:597,41.862,0.425,-1.204,1.027,-126.468,136.253,-105.461
16:14:07:621,41.886,0.471,-1.361,0.856,-130.831,139.378,-107.331
16:14:07:676,41.941,0.485,-1.451,0.505,-133.403,143.187,-108.679
16:14:07:676,41.941,0.471,-1.397,0.286,-132.650,145.050,-108.372
16:14:07:729,41.994,0.555,-1.359,0.246,-127.809,146.421,-105.815
16:14:07:73,41.995,0.749,-0.977,0.334,-117.093,145.291,-100.607
16:14:07:811,42.076,0.831,-0.220,0.671,-104.831,142.904,-95.439
16:14:07:811,42.076,0.815,1.157,0.850,-79.516,137.743,-86.257
16:14:07:811,42.076,0.539,2.343,0.318,-63.984,133.360,-79.591
16:14:07:89,42.155,-0.328,2.414,-0.204,-49.104,125.666,-70.562
16:14:07:89,42.155,-0.524,0.968,-0.383,-39.771,119.558,-65.316
16:14:07:89,42.155,-0.559,0.333,-0.410,-35.218,116.238,-63.447
16:14:07:939,42.204,-0.555,-0.274,-0.435,-30.551,111.567,-62.176
16:14:07:939,42.204,-0.680,-0.690,-0.496,-28.393,108.443,-62.067
16:14:07:99,42.255,-0.623,-0.866,-0.614,-26.037,103.779,-62.193
16:14:07:991,42.256,-0.451,-1.088,-0.506,-25.602,99.821,-62.656
16:14:08:016,42.281,-0.452,-1.179,-0.516,-26.337,97.842,-63.268
16:14:08:069,42.334,-0.498,-1.141,-0.509,-29.370,96.052,-64.404
16:14:08:07,42.335,-0.472,-0.943,-0.538,-33.176,95.770,-65.066
16:14:08:124,42.389,-0.511,-0.380,-0.685,-40.764,97.079,-66.152
16:14:08:124,42.389,-0.671,0.680,-1.068,-46.382,100.078,-67.727
16:14:08:174,42.439,-0.826,1.431,-0.941,-55.659,107.620,-71.921
16:14:08:175,42.440,-0.464,2.431,-0.477,-69.416,119.658,-79.702
16:14:08:2,42.465,-0.294,2.506,-0.015,-81.162,127.957,-85.966
16:14:08:253,42.518,0.274,1.992,0.946,-102.436,138.239,-94.537
16:14:08:254,42.519,0.670,0.344,0.977,-120.236,143.303,-99.283
16:14:08:305,42.570,0.702,-0.562,0.871,-145.850,148.407,-105.122
16:14:08:306,42.571,0.742,-1.170,1.061,-159.248,151.765,-109.694
16:14:08:329,42.594,0.487,-1.396,0.999,-160.195,153.179,-111.809
16:14:08:385,42.650,0.331,-1.479,0.734,-155.852,154.779,-112.846
16:14:08:385,42.650,0.507,-1.393,0.535,-152.971,155.342,-112.536
16:14:08:408,42.673,0.442,-1.390,0.460,-150.633,154.069,-110.805
16:14:08:463,42.728,0.485,-1.184,0.358,-145.747,151.027,-106.984
16:14:08:464,42.729,0.626,-0.903,0.342,-138.173,148.364,-103.318
16:14:08:517,42.782,0.606,-0.049,0.558,-115.913,142.278,-96.403
16:14:08:518,42.783,0.501,0.755,0.676,-92.523,137.428,-90.664
16:14:08:568,42.833,0.234,2.275,0.259,-65.609,128.888,-80.800
16:14:08:569,42.834,-0.194,2.393,-0.522,-54.864,122.466,-74.591
16:14:08:592,42.857,-0.483,1.616,-0.694,-41.402,114.831,-67.950
16:14:08:647,42.912,-0.525,0.284,-0.669,-34.089,109.474,-64.647
16:14:08:648,42.913,-0.562,-0.242,-0.688,-31.336,106.657,-63.392
16:14:08:671,42.936,-0.558,-0.425,-0.824,-28.820,103.164,-62.097
16:14:08:698,42.963,-0.521,-0.847,-0.816,-26.078,101.113,-61.480
16:14:08:781,43.046,-0.439,-1.066,-0.729,-24.512,100.561,-61.370
16:14:08:782,43.047,-0.479,-1.239,-0.752,-25.087,100.610,-61.907
16:14:08:783,43.048,-0.515,-1.125,-0.849,-28.426,101.470,-62.923
16:14:08:831,43.096,-0.450,-0.727,-0.856,-36.004,105.002,-65.615
16:14:08:832,43.097,-0.445,-0.330,-0.641,-41.168,109.086,-68.505
16:14:08:854,43.119,-0.673,0.354,-0.605,-50.758,116.997,-74.443
16:14:08:912,43.177,-0.847,1.944,-0.358,-67.151,126.488,-82.266
16:14:08:912,43.177,-0.506,2.267,0.210,-83.820,133.732,-88.328
16:14:08:963,43.228,-0.293,2.090,0.702,-129.196,143.159,-96.618
16:14:08:963,43.228,0.234,1.508,1.000,-160.447,148.661,-101.369
16:14:08:985,43.250,0.556,1.045,0.955,173.324,155.845,-107.436
16:14:09:044,43.309,0.444,0.101,0.801,151.765,159.528,-112.379
16:14:09:044,43.309,0.375,-0.322,0.708,142.153,160.531,-115.399
16:14:09:045,43.310,0.468,-0.813,0.502,133.726,161.768,-119.616
16:14:09:093,43.358,0.719,-1.030,0.566,129.237,162.308,-122.249
16:14:09:094,43.359,0.499,-1.165,0.303,122.700,159.749,-128.000
16:14:09:144,43.409,0.263,-1.231,0.108,116.963,151.926,-136.999
16:14:09:231,43.496,0.284,-0.999,0.030,113.744,143.914,-144.818
16:14:09:231,43.496,0.415,-0.583,0.139,109.575,126.083,-161.169
16:14:09:232,43.497,0.399,-0.450,-0.050,107.279,108.947,-176.801
16:14:09:232,43.497,0.392,-0.030,-0.233,104.549,82.616,159.338
16:14:09:277,43.542,0.352,0.471,0.018,102.359,65.353,144.095
16:14:09:277,43.542,0.309,0.534,0.161,101.263,57.933,137.841
16:14:09:359,43.624,0.357,0.495,0.173,100.269,47.450,129.183
16:14:09:359,43.624,0.229,0.457,-0.119,99.706,40.620,123.159
16:14:09:36,43.625,0.142,0.264,-0.069,98.856,34.251,117.370
16:14:09:437,43.702,0.034,-0.009,-0.046,98.285,31.382,114.860
16:14:09:438,43.703,-0.068,-0.253,-0.088,98.040,30.503,114.100
16:14:09:439,43.704,-0.179,-0.475,-0.101,97.742,29.973,113.565
16:14:09:545,43.810,-0.210,-0.573,-0.015,97.537,29.871,113.309
16:14:09:546,43.811,-0.265,-0.639,0.126,97.310,29.451,112.403
16:14:09:547,43.812,-0.305,-0.595,-0.001,97.293,28.411,110.481
16:14:09:563,43.828,-0.312,-0.298,0.123,97.231,27.351,107.199
16:14:09:618,43.883,-0.068,0.298,0.142,97.714,28.024,107.043
16:14:09:619,43.884,-0.046,0.508,0.130,98.942,30.289,107.739
16:14:09:671,43.936,-0.240,0.657,0.279,99.420,32.330,108.233
16:14:09:671,43.936,-0.070,0.747,0.283,99.777,36.423,109.833
16:14:09:755,44.020,0.225,0.664,0.289,99.982,41.381,112.252
16:14:09:755,44.020,0.247,0.422,0.140,99.986,44.249,113.177
16:14:09:755,44.020,0.124,0.159,-0.063,100.356,47.487,113.558
16:14:09:831,44.096,0.195,-0.297,0.069,100.949,49.918,114.501
16:14:09:832,44.097,0.263,-0.503,0.187,101.923,53.855,116.489
16:14:09:832,44.097,0.171,-0.784,0.271,102.581,56.301,116.938
16:14:09:881,44.146,0.108,-0.742,0.051,102.850,56.309,116.067
16:14:09:882,44.147,0.244,-0.680,0.017,102.840,55.870,114.894
16:14:09:964,44.229,0.254,-0.530,0.231,102.604,55.694,114.340
16:14:09:964,44.229,0.287,-0.063,0.027,102.236,54.223,112.467
16:14:09:964,44.229,0.082,0.482,-0.273,102.392,52.667,110.822
16:14:10:092,44.357,0.019,0.447,0.081,102.147,52.890,110.531
16:14:10:093,44.358,0.163,0.477,0.215,101.804,54.127,111.083
16:14:10:202,44.467,0.152,0.482,-0.065,101.932,54.944,112.013
16:14:10:203,44.468,0.109,0.477,-0.011,101.793,56.581,113.084
16:14:10:203,44.468,0.037,0.373,0.031,101.256,56.988,113.197
16:14:10:204,44.469,-0.041,0.122,-0.016,101.032,57.765,113.284
16:14:10:283,44.548,-0.092,-0.185,-0.024,100.956,58.121,113.648
16:14:10:283,44.548,-0.136,-0.425,0.062,100.886,58.697,113.578
16:14:10:284,44.549,-0.327,-0.606,0.215,100.451,58.280,112.266
16:14:10:285,44.550,-0.384,-0.713,0.232,99.407,57.689,109.647
16:14:10:404,44.669,-0.331,-0.802,0.294,98.493,57.147,107.592
16:14:10:517,44.782,-0.188,-0.805,0.452,97.103,56.966,104.364
16:14:10:518,44.783,-0.240,-0.445,0.351,96.257,57.182,102.253
16:14:10:519,44.784,-0.313,-0.136,0.421,95.254,59.443,100.116
16:14:10:543,44.808,-0.169,0.611,0.975,93.735,65.894,99.101
16:14:10:544,44.809,-0.031,1.214,0.947,93.266,71.059,99.842
16:14:10:545,44.810,0.463,1.499,0.666,92.549,73.253,98.990
16:14:10:546,44.811,0.499,1.277,0.392,90.974,73.341,94.009
16:14:10:649,44.914,0.353,0.844,0.165,90.023,73.043,90.091
16:14:10:649,44.914,0.301,0.296,0.036,89.358,75.773,87.743
16:14:10:65,44.915,0.399,-0.444,-0.078,89.491,80.534,88.443
16:14:10:651,44.916,0.426,-0.733,-0.146,89.473,82.800,88.516
16:14:10:674,44.939,0.302,-1.011,-0.255,88.787,84.005,86.999
16:14:10:675,44.940,0.286,-1.099,-0.350,88.142,84.074,85.788
16:14:10:675,44.940,0.271,-0.997,-0.450,87.246,83.987,84.449
16:14:10:676,44.941,-0.138,-0.565,-0.492,86.893,84.524,84.276
16:14:10:719,44.984,-0.295,-0.071,-0.332,86.888,85.058,84.384
16:14:10:805,45.070,-0.094,0.272,0.000,86.481,84.545,83.441
16:14:10:806,45.071,-0.098,0.806,0.244,86.263,83.779,82.873
16:14:10:806,45.071,-0.081,0.936,0.166,86.289,82.380,82.596
16:14:10:807,45.072,0.092,0.741,0.070,86.403,80.275,82.211
16:14:10:937,45.202,0.041,0.520,0.084,86.497,79.058,82.120
16:14:10:938,45.203,-0.151,-0.061,0.082,87.061,78.522,83.123
16:14:10:939,45.204,-0.160,-0.282,0.063,87.840,80.015,84.674
16:14:10:939,45.204,0.003,-0.708,0.108,89.464,82.536,88.460
16:14:10:986,45.251,0.193,-0.841,0.445,90.988,87.912,93.380
16:14:10:987,45.252,0.142,-0.608,0.544,91.593,90.370,95.704
16:14:10:988,45.253,0.045,-0.337,0.521,91.893,93.263,96.505
16:14:11:036,45.301,0.053,0.038,0.562,91.718,93.756,95.632
16:14:11:037,45.302,-0.059,0.277,0.488,91.453,95.396,94.343
16:14:11:173,45.438,-0.073,0.557,0.420,92.187,100.004,96.088
16:14:11:174,45.439,0.059,0.600,0.415,92.994,104.049,98.358
16:14:11:175,45.440,0.284,0.542,0.479,94.213,111.014,102.332
16:14:11:175,45.440,0.286,0.475,0.299,95.107,116.128,105.241
16:14:11:195,45.460,0.319,0.413,0.162,96.312,123.774,109.426
16:14:11:196,45.461,0.313,0.163,-0.022,96.904,128.763,111.965
16:14:11:25,45.515,0.315,-0.063,-0.129,97.487,135.638,115.063
16:14:11:25,45.515,0.245,-0.351,-0.257,97.784,141.163,117.009
16:14:11:251,45.516,0.137,-0.524,-0.376,97.928,143.977,117.762
16:14:11:298,45.563,0.253,-0.599,-0.335,97.865,146.088,117.328
16:14:11:299,45.564,0.380,-0.545,-0.347,97.442,146.002,115.851
16:14:11:353,45.618,0.323,-0.415,-0.434,96.551,143.365,112.052
16:14:11:353,45.618,0.092,-0.122,-0.455,95.503,138.516,106.832
16:14:11:428,45.693,-0.154,0.069,-0.342,94.907,135.423,103.715
16:14:11:488,45.753,-0.235,0.338,-0.096,94.390,132.584,101.148
16:14:11:489,45.754,-0.226,0.404,-0.228,94.123,131.043,100.448
16:14:11:49,45.755,-0.297,0.460,-0.291,93.694,127.879,99.563
16:14:11:49,45.755,-0.333,0.437,-0.378,92.843,122.947,97.692
16:14:11:505,45.770,-0.115,0.348,-0.382,91.883,118.632,95.479
16:14:11:693,45.958,-0.034,0.114,-0.350,90.096,110.048,90.321
16:14:11:694,45.959,-0.158,-0.203,-0.322,89.178,104.218,86.942
16:14:11:753,46.018,-0.179,-0.617,-0.289,88.876,97.790,84.566
16:14:11:754,46.019,-0.002,-1.217,-0.061,89.930,98.155,89.275
16:14:11:754,46.019,0.191,-1.480,0.180,91.352,-170.957,-176.998
16:14:11:754,46.019,0.541,-1.410,0.754,94.666,-114.860,-116.964
16:14:11:777,46.042,0.283,-1.157,0.700,97.782,-118.644,-118.601
16:14:11:778,46.043,0.257,-0.872,0.813,103.256,-125.050,-122.622
16:14:11:779,46.044,-0.001,-0.636,1.257,110.327,-127.587,-124.964
16:14:11:779,46.044,0.592,0.100,1.898,115.893,-125.660,-124.004
16:14:11:96,46.226,0.575,0.861,1.227,125.158,-118.704,-119.772
16:14:11:962,46.227,1.006,1.240,1.150,134.055,-113.097,-117.200
16:14:11:963,46.228,1.367,2.443,0.212,161.114,-103.100,-114.599
16:14:11:963,46.228,0.363,2.088,-0.362,-175.197,-94.188,-114.486
16:14:12:013,46.278,0.121,1.163,-0.129,-174.614,-90.849,-115.060
16:14:12:014,46.279,-0.121,0.006,-0.434,-179.070,-85.560,-116.280
16:14:12:015,46.280,-0.154,-0.116,-0.507,-178.022,-80.859,-116.533
16:14:12:016,46.281,-0.042,-0.699,-0.488,-176.455,-75.181,-116.344
16:14:12:064,46.329,-0.051,-1.093,-0.580,-172.228,-71.540,-115.812
16:14:12:064,46.329,0.027,-1.108,-0.568,-167.703,-70.332,-115.121
16:14:12:064,46.329,-0.050,-0.881,-0.603,-159.922,-69.515,-113.596
16:14:12:084,46.349,-0.276,-0.615,-0.642,-156.531,-69.837,-112.205
16:14:12:197,46.462,-0.406,-0.449,-0.663,-156.510,-71.876,-110.001
16:14:12:198,46.463,-0.196,0.019,-0.731,-158.902,-74.106,-108.540
16:14:12:199,46.464,0.149,0.213,-0.680,-163.180,-78.869,-105.083
16:14:12:2,46.465,0.555,0.893,-0.553,-158.055,-83.655,-99.316
16:14:12:273,46.538,0.649,1.500,-0.416,-132.809,-86.075,-94.593
16:14:12:273,46.538,0.308,1.654,0.211,-65.814,-90.977,-87.540
16:14:12:274,46.539,0.529,0.952,0.492,-29.287,-94.251,-83.633
16:14:12:407,46.672,0.472,0.488,0.748,-4.784,-98.424,-78.995
16:14:12:408,46.673,0.409,0.122,1.001,3.830,-101.905,-75.238
16:14:12:409,46.674,0.307,-0.345,1.095,8.015,-103.917,-73.190
16:14:12:41,46.675,0.000,-1.020,1.068,12.069,-106.031,-71.114
16:14:12:455,46.720,-0.170,-1.213,1.143,12.336,-106.609,-70.581
16:14:12:456,46.721,-0.142,-1.224,1.056,11.689,-106.026,-71.154
16:14:12:479,46.744,0.058,-1.252,0.851,11.784,-103.691,-72.448
16:14:12:48,46.745,0.212,-1.141,0.833,10.968,-101.097,-73.532
16:14:12:59,46.855,0.554,-0.668,0.824,8.192,-95.690,-75.732
16:14:12:591,46.856,1.405,0.829,1.297,6.061,-91.541,-77.426
16:14:12:592,46.857,1.881,1.613,0.721,2.779,-84.059,-80.492
16:14:12:592,46.857,1.818,2.128,-0.123,12.673,-76.003,-84.688
16:14:12:666,46.931,1.069,1.650,-0.904,16.728,-70.945,-87.905
16:14:12:667,46.932,0.407,0.619,-0.660,-131.810,-63.626,-92.780
16:14:12:667,46.932,0.160,0.336,-0.689,-135.471,-58.354,-95.809
16:14:12:746,47.011,-0.573,-0.900,-0.662,-140.927,-43.785,-101.950
16:14:12:747,47.012,-0.550,-1.127,-0.472,-141.495,-40.220,-102.314
16:14:12:767,47.032,-0.781,-1.473,-0.449,-139.844,-35.868,-101.714
16:14:12:85,47.115,-0.603,-1.457,-0.359,-135.639,-34.270,-100.713
16:14:12:85,47.115,-0.611,-1.279,-0.367,-122.377,-34.052,-97.749
16:14:12:851,47.116,-0.694,-0.726,-0.298,-101.419,-36.570,-92.668
16:14:12:87,47.135,-0.721,0.364,-0.609,-82.168,-39.675,-88.294
16:14:13:012,47.277,-0.160,1.943,-0.565,-36.004,-45.575,-81.427
16:14:13:013,47.278,-0.014,2.169,-0.398,3.307,-47.694,-76.829
16:14:13:013,47.278,0.362,1.428,-0.189,22.826,-50.110,-70.307
16:14:13:013,47.278,0.755,1.061,0.221,15.426,-55.330,-66.066
16:14:13:119,47.384,0.778,0.685,0.470,9.893,-59.543,-64.294
16:14:13:119,47.384,0.723,0.029,0.618,8.572,-64.894,-62.438
16:14:13:12,47.385,0.678,-0.523,0.538,11.123,-67.734,-61.809
16:14:13:121,47.386,0.621,-0.782,0.579,15.525,-71.369,-61.377
16:14:13:379,47.644,0.479,-1.171,0.568,17.178,-74.490,-61.358
16:14:13:38,47.645,0.373,-1.351,0.559,15.953,-76.276,-61.774
16:14:13:381,47.646,0.358,-1.282,0.697,10.498,-78.110,-63.266
16:14:13:381,47.646,0.421,-0.953,0.785,5.461,-78.282,-64.721
16:14:13:457,47.722,0.511,-0.790,0.734,-2.513,-76.662,-67.259
16:14:13:458,47.723,1.066,-0.272,0.799,-13.221,-73.416,-70.217
16:14:13:458,47.723,1.575,0.939,0.842,-23.541,-70.460,-72.290
16:14:13:459,47.724,1.165,2.715,0.275,-40.578,-64.206,-77.076
16:14:13:51,47.775,0.802,2.650,-0.266,-51.815,-59.358,-81.387
16:14:13:511,47.776,0.169,1.592,-0.802,-84.798,-52.635,-88.889
16:14:13:511,47.776,-0.231,0.547,-0.787,-113.247,-45.397,-96.255
16:14:13:512,47.777,-0.691,-0.042,-0.903,-125.129,-39.878,-100.679
16:14:13:589,47.854,-0.908,-0.737,-0.812,-138.583,-32.809,-105.539
16:14:13:59,47.855,-0.717,-1.345,-0.641,-145.805,-29.511,-107.715
16:14:13:591,47.856,-0.594,-1.645,-0.399,-152.251,-25.485,-109.889
16:14:13:591,47.856,-0.665,-1.605,-0.247,-152.465,-23.320,-110.285
16:14:13:722,47.987,-0.589,-1.468,-0.127,-148.015,-22.072,-108.753
16:14:13:722,47.987,-0.714,-1.284,-0.209,-138.847,-23.589,-104.465
16:14:13:722,47.987,-0.816,-1.061,-0.256,-128.558,-25.902,-100.150
16:14:13:722,47.987,-0.896,0.081,-0.692,-97.836,-30.825,-91.620
16:14:13:825,48.090,-0.881,2.251,-1.342,-66.783,-34.843,-85.286
16:14:13:826,48.091,-0.132,2.992,-0.432,-40.708,-42.809,-75.304
16:14:13:826,48.091,1.000,2.443,0.041,-34.754,-52.542,-67.418
16:14:13:827,48.092,1.003,1.237,0.366,-32.351,-58.554,-63.725
16:14:13:851,48.116,0.928,0.071,0.750,-27.698,-66.048,-60.150
16:14:13:852,48.117,0.806,-0.399,0.775,-24.412,-69.863,-58.855
16:14:13:853,48.118,0.670,-0.797,0.798,-18.887,-74.591,-57.821
16:14:13:853,48.118,0.485,-1.190,0.808,-14.516,-78.242,-57.509
16:14:13:898,48.163,0.423,-1.305,0.816,-13.234,-80.053,-57.870
16:14:13:899,48.164,0.365,-1.343,0.806,-13.731,-81.412,-59.135
16:14:13:955,48.220,0.340,-1.173,0.735,-15.328,-81.175,-60.193
16:14:13:956,48.221,0.409,-1.072,0.713,-19.303,-79.054,-62.119
16:14:13:957,48.222,0.632,-0.563,0.611,-25.494,-74.809,-64.623
16:14:13:957,48.222,1.109,0.514,0.728,-30.689,-70.905,-66.760
16:14:13:975,48.240,1.134,2.628,0.575,-40.428,-63.516,-71.477
16:14:14:,48.265,0.824,3.137,0.174,-45.040,-57.371,-75.433
16:14:14:027,48.292,-0.267,1.815,-1.072,-52.212,-49.104,-82.987
16:14:14:219,48.484,-0.128,0.613,-0.695,-91.544,-45.037,-90.221
16:14:14:219,48.484,-0.282,0.255,-0.732,-117.024,-43.015,-94.855
16:14:14:22,48.485,-0.341,-0.395,-0.639,-136.886,-40.291,-100.937
16:14:14:221,48.486,-0.488,-1.165,-0.913,-147.325,-39.278,-104.141
16:14:14:288,48.553,-0.432,-1.402,-0.792,-159.753,-38.777,-107.362
16:14:14:403,48.669,-0.432,-1.533,-0.602,-164.425,-38.217,-108.571
16:14:14:404,48.669,-0.484,-1.521,-0.504,-168.138,-36.750,-108.984
16:14:14:405,48.670,-0.548,-1.499,-0.467,-170.503,-35.336,-107.141
16:14:14:405,48.671,-0.657,-1.334,-0.285,-171.033,-34.585,-104.406
16:14:14:429,48.694,-0.759,-0.754,-0.293,-168.595,-33.991,-97.821
16:14:14:43,48.695,-0.905,0.882,-0.817,-133.236,-34.521,-91.392
16:14:14:43,48.695,-0.898,1.889,-1.281,-15.329,-36.839,-80.927
16:14:14:431,48.696,0.399,2.976,0.002,-15.813,-41.863,-70.190
16:14:14:448,48.713,0.728,2.364,0.411,-15.965,-45.938,-64.763
16:14:14:478,48.743,0.857,0.752,0.636,-18.055,-51.982,-59.825
16:14:14:478,48.743,0.879,-0.054,0.689,-18.777,-55.520,-57.949
16:14:14:479,48.744,0.746,-0.513,0.652,-17.126,-59.597,-56.707
16:14:14:527,48.792,0.658,-0.836,0.617,-13.245,-62.389,-56.696
16:14:14:528,48.793,0.513,-1.082,0.529,-10.464,-63.833,-57.045
16:14:14:693,48.958,0.406,-1.222,0.626,-8.312,-65.635,-57.986
16:14:14:693,48.958,0.376,-1.156,0.650,-8.660,-66.519,-59.049
16:14:14:694,48.959,0.412,-1.014,0.673,-10.906,-66.822,-61.081
16:14:14:694,48.959,0.661,-0.792,0.515,-13.296,-65.468,-63.353
16:14:14:743,49.008,0.921,-0.514,0.436,-15.538,-63.599,-65.108
16:14:14:744,49.009,1.576,1.009,0.410,-22.105,-59.289,-68.216
16:14:14:745,49.010,1.326,2.170,-0.114,-28.214,-55.120,-70.704
16:14:14:745,49.010,1.024,2.450,-0.953,-33.796,-47.659,-75.927
16:14:14:954,49.219,0.093,0.960,-1.049,-45.167,-40.778,-81.960
16:14:14:955,49.220,-0.021,0.479,-0.572,-67.147,-36.523,-86.044
16:14:14:956,49.221,-0.481,0.160,-0.624,-98.936,-29.647,-91.938
16:14:14:957,49.222,-0.808,-0.380,-0.701,-111.863,-24.989,-95.370
16:14:15:058,49.323,-0.816,-0.864,-0.636,-124.299,-19.211,-99.401
16:14:15:059,49.324,-0.749,-1.183,-0.366,-132.785,-14.438,-102.273
16:14:15:06,49.325,-0.772,-1.254,-0.220,-137.462,-11.791,-103.705
16:14:15:061,49.326,-0.607,-1.310,-0.100,-142.863,-9.210,-104.586
16:14:15:26,49.525,-0.522,-1.316,-0.036,-145.010,-8.438,-104.062
16:14:15:4,49.665,-0.619,-1.117,0.172,-143.759,-8.231,-101.435
16:14:15:4,49.665,-0.881,-0.242,0.128,-136.773,-8.797,-98.120
16:14:15:401,49.666,-0.909,1.121,-0.505,-94.203,-11.435,-90.449
16:14:15:402,49.667,-0.391,2.513,-0.209,-35.473,-14.696,-81.829
16:14:15:637,49.902,0.396,2.483,0.359,-26.546,-17.853,-75.933
16:14:15:638,49.903,0.689,1.378,0.131,-18.972,-23.006,-69.555
16:14:15:64,49.905,0.867,0.223,0.032,-14.246,-26.452,-66.985
16:14:15:64,49.905,0.932,-0.002,0.085,-10.476,-32.196,-64.523
16:14:15:715,49.980,0.894,-0.248,0.154,-8.404,-37.888,-63.936
16:14:15:716,49.981,0.842,-0.528,0.054,-4.740,-41.009,-64.590
16:14:15:717,49.982,0.816,-0.968,-0.026,5.774,-44.262,-66.649
16:14:15:717,49.982,0.942,-1.404,0.000,13.769,-45.654,-68.201
16:14:15:77,50.035,0.956,-1.348,0.124,21.414,-46.191,-70.290
16:14:15:77,50.035,0.978,-1.239,0.062,21.999,-44.112,-71.874
16:14:15:771,50.036,1.092,-1.151,-0.138,19.198,-41.267,-72.524
16:14:15:771,50.036,1.169,-0.613,-0.571,9.190,-34.900,-72.984
16:14:15:925,50.190,1.472,0.200,-0.937,-2.220,-29.755,-73.192
16:14:15:926,50.191,1.231,1.966,-1.822,-23.481,-20.575,-74.856
16:14:15:927,50.192,-0.013,2.223,-1.558,-39.877,-9.157,-79.234
16:14:15:927,50.192,-0.665,1.819,-1.231,-56.233,-1.767,-83.640
16:14:15:972,50.237,-0.920,0.857,-0.550,-95.641,8.151,-91.230
16:14:15:973,50.238,-1.105,0.356,-0.133,-113.214,14.433,-96.450
16:14:16:153,50.418,-1.312,-0.045,0.398,-126.019,23.513,-103.314
16:14:16:293,50.558,-1.296,-0.666,0.898,-132.624,31.896,-107.517
16:14:16:294,50.559,-0.724,-1.086,0.706,-136.415,36.154,-108.369
16:14:16:294,50.559,-0.468,-1.486,0.381,-142.041,40.828,-107.887
16:14:16:294,50.559,-0.366,-1.533,0.267,-143.974,43.301,-106.811
16:14:16:371,50.636,-0.028,-1.342,0.589,-140.861,45.556,-104.111
16:14:16:372,50.637,0.156,-0.936,0.714,-130.898,45.479,-99.815
16:14:16:373,50.638,0.145,-0.850,0.510,-123.254,43.535,-96.229
16:14:16:373,50.638,-0.339,-0.660,0.336,-73.786,38.963,-88.606
16:14:16:502,50.767,-1.363,2.492,0.238,-18.095,35.930,-82.149
16:14:16:503,50.768,0.326,2.623,-0.307,-9.938,31.834,-73.125
