Time,Second,AccelerationX,AccelerationY,AccelerationZ,EulerAnglesX,EulerAnglesY,EulerAnglesZ
10:29:17:3,0.000,0.018,-0.002,0.002,-6.830,-16.187,1.082
10:29:17:326,0.026,0.025,-0.001,-0.007,-6.717,-16.234,1.105
10:29:17:354,0.054,0.014,0.000,0.005,-6.602,-16.282,1.139
10:29:17:41,0.109,0.019,-0.004,0.004,-6.519,-16.315,1.159
10:29:17:41,0.109,0.019,-0.002,0.007,-6.392,-16.351,1.185
10:29:17:432,0.131,0.020,0.000,0.001,-6.307,-16.364,1.215
10:29:17:458,0.158,0.017,0.000,0.000,-6.180,-16.380,1.239
10:29:17:485,0.185,0.021,0.003,0.001,-6.088,-16.396,1.256
10:29:17:54,0.239,0.012,0.004,0.004,-5.945,-16.437,1.259
10:29:17:541,0.240,0.018,0.001,0.002,-5.793,-16.508,1.267
10:29:17:564,0.264,0.020,0.002,0.002,-5.682,-16.560,1.274
10:29:17:618,0.318,0.020,-0.001,0.002,-5.505,-16.641,1.286
10:29:17:619,0.318,0.021,-0.001,-0.005,-5.373,-16.698,1.293
10:29:17:671,0.370,0.017,-0.002,0.002,-5.166,-16.776,1.327
10:29:17:695,0.395,0.016,0.010,-0.009,-4.805,-16.873,1.375
10:29:17:72,0.420,0.031,0.007,-0.007,-4.579,-16.968,1.373
10:29:17:748,0.448,0.025,0.007,-0.015,-4.420,-17.039,1.390
10:29:17:774,0.474,0.024,0.012,-0.008,-4.136,-17.151,1.426
10:29:17:8,0.499,0.013,0.009,0.006,-3.805,-17.278,1.497
10:29:17:826,0.525,0.018,0.016,-0.028,-3.567,-17.389,1.531
10:29:17:91,0.609,0.015,0.012,0.000,-3.190,-17.585,1.562
10:29:17:911,0.610,0.029,0.002,0.006,-2.922,-17.729,1.577
10:29:17:911,0.611,0.013,-0.004,0.006,-2.524,-17.924,1.600
10:29:17:93,0.630,0.014,-0.001,-0.001,-2.258,-18.037,1.623
10:29:17:959,0.658,0.004,-0.004,0.017,-1.896,-18.181,1.645
10:29:17:984,0.684,0.009,-0.012,0.014,-1.565,-18.319,1.645
10:29:18:01,0.710,0.007,-0.002,0.026,-1.357,-17.932,1.634
10:29:18:036,0.736,0.018,-0.004,0.006,-1.084,-18.025,1.617
10:29:18:091,0.791,0.015,-0.001,0.012,-0.929,-17.755,1.602
10:29:18:091,0.791,0.018,-0.001,0.009,-0.701,-17.802,1.580
10:29:18:116,0.815,0.015,0.005,0.008,-0.468,-17.789,1.579
10:29:18:141,0.841,0.014,-0.001,0.001,-0.324,-17.793,1.595
10:29:18:196,0.896,0.007,-0.002,0.006,-0.107,-17.476,1.621
10:29:18:196,0.896,0.002,-0.008,0.015,0.028,-17.508,1.655
10:29:18:219,0.918,0.003,-0.012,0.018,0.219,-17.299,1.693
10:29:18:245,0.945,-0.005,-0.024,0.016,0.379,-17.363,1.732
10:29:18:272,0.972,-0.005,-0.030,0.011,0.455,-17.138,1.740
10:29:18:298,0.997,-0.006,-0.024,0.016,0.519,-17.257,1.733
10:29:18:325,1.024,0.004,-0.016,0.008,0.536,-16.985,1.708
10:29:18:382,1.082,0.008,-0.004,0.012,0.556,-17.172,1.676
10:29:18:383,1.082,0.020,-0.009,0.005,0.566,-17.370,1.661
10:29:18:384,1.083,0.016,-0.016,0.001,0.592,-17.536,1.670
10:29:18:403,1.102,0.039,-0.008,-0.017,0.676,-17.469,1.724
10:29:18:459,1.159,0.035,-0.009,-0.035,0.771,-17.516,1.825
10:29:18:459,1.159,0.065,0.049,-0.047,1.001,-17.509,2.098
10:29:18:508,1.207,0.114,0.104,-0.053,1.273,-17.484,2.384
10:29:18:567,1.266,0.163,0.147,-0.074,2.005,-17.486,3.083
10:29:18:567,1.267,0.293,0.274,-0.201,3.239,-17.665,4.208
10:29:18:568,1.268,0.245,0.281,-0.347,4.372,-17.666,5.235
10:29:18:617,1.317,0.276,0.189,-0.396,6.370,-17.601,7.276
10:29:18:617,1.317,0.148,0.166,-0.340,7.715,-17.535,8.912
10:29:18:698,1.397,0.573,-0.126,-0.144,9.468,-16.842,11.572
10:29:18:698,1.398,0.803,-0.556,-0.163,10.511,-15.983,13.635
10:29:18:699,1.398,0.784,-0.742,-0.110,10.155,-14.564,14.587
10:29:18:718,1.417,0.762,-0.599,-0.157,8.276,-12.225,14.827
10:29:18:745,1.445,0.741,-0.491,-0.150,6.586,-11.053,13.845
10:29:18:771,1.470,0.662,-0.187,-0.160,3.862,-9.891,10.829
10:29:18:796,1.496,0.494,0.084,-0.115,1.968,-9.334,8.100
10:29:18:823,1.523,0.379,0.244,-0.086,-1.023,-8.697,3.417
10:29:18:879,1.578,0.209,0.319,-0.014,-4.214,-7.980,-1.416
10:29:18:879,1.579,0.105,0.319,0.011,-6.334,-7.099,-4.498
10:29:18:902,1.601,-0.069,0.363,-0.003,-9.292,-4.905,-8.877
10:29:18:928,1.628,-0.249,0.160,0.139,-10.865,-3.049,-11.572
10:29:18:954,1.653,-0.263,0.092,0.054,-12.665,-0.300,-15.259
10:29:18:981,1.680,-0.333,-0.063,-0.016,-14.209,1.832,-18.558
10:29:19:008,1.708,-0.463,-0.095,0.017,-15.314,2.730,-20.436
10:29:19:034,1.734,-0.423,-0.141,0.039,-17.223,2.967,-22.617
10:29:19:06,1.760,-0.559,-0.198,0.183,-18.556,2.485,-23.566
10:29:19:085,1.785,-0.826,-0.286,0.345,-20.171,1.503,-24.019
10:29:19:112,1.811,-0.775,-0.090,0.186,-20.739,0.573,-22.952
10:29:19:138,1.837,-1.134,0.038,0.754,-20.056,0.141,-21.124
10:29:19:166,1.865,-0.336,0.234,0.587,-17.352,0.048,-17.625
10:29:19:191,1.891,-0.611,0.138,0.047,-15.790,0.397,-15.070
10:29:19:216,1.916,-0.225,0.066,0.266,-14.773,2.099,-10.833
10:29:19:243,1.942,-0.343,-0.284,-0.380,-14.065,2.648,-8.100
10:29:19:325,2.024,-0.179,0.097,0.123,-13.155,0.834,-4.473
10:29:19:326,2.025,0.218,0.006,0.266,-12.412,-1.870,-1.705
10:29:19:38,2.080,0.230,0.010,0.120,-12.169,-2.402,-0.133
10:29:19:381,2.081,-0.257,0.042,-0.158,-12.051,-2.473,1.958
10:29:19:381,2.081,0.070,0.015,0.003,-11.831,-3.346,3.132
10:29:19:4,2.100,0.039,0.033,-0.022,-11.524,-3.857,4.703
10:29:19:485,2.185,0.005,0.073,-0.055,-11.115,-5.149,6.281
10:29:19:486,2.185,0.033,0.085,-0.015,-10.711,-5.366,7.291
10:29:19:487,2.186,0.105,-0.003,0.005,-9.851,-7.040,8.751
10:29:19:505,2.205,0.089,0.000,0.003,-9.223,-7.281,9.746
10:29:19:531,2.231,0.066,0.141,-0.096,-8.166,-8.416,11.324
10:29:19:558,2.258,0.117,0.097,-0.051,-7.297,-8.246,12.443
10:29:19:585,2.285,0.307,0.170,-0.021,-5.677,-9.505,14.306
10:29:19:611,2.310,0.404,0.236,-0.083,-3.576,-9.876,16.606
10:29:19:637,2.336,0.483,0.290,-0.066,-1.869,-10.237,18.481
10:29:19:663,2.362,0.749,0.334,-0.068,1.319,-9.890,21.747
10:29:19:689,2.389,1.117,0.244,-0.267,3.950,-10.255,24.181
10:29:19:717,2.417,1.243,0.143,-0.428,8.976,-11.205,28.017
10:29:19:741,2.441,1.381,0.340,-0.894,15.152,-12.016,32.549
10:29:19:77,2.470,1.648,0.326,-0.802,19.093,-11.381,36.404
10:29:19:823,2.523,0.598,-0.023,-0.667,25.463,-8.103,42.127
10:29:19:824,2.524,1.019,-0.944,-0.821,30.112,-6.929,44.844
10:29:19:877,2.576,0.832,-1.041,-0.410,33.152,-7.076,45.950
10:29:19:877,2.577,0.252,-1.194,0.036,34.123,-8.134,44.415
10:29:19:899,2.599,0.236,-1.306,0.038,32.873,-9.009,42.008
10:29:19:925,2.625,0.428,-1.052,-0.033,28.059,-10.204,37.228
10:29:19:951,2.651,0.513,-0.799,-0.009,23.513,-10.622,33.357
10:29:19:978,2.677,0.507,-0.376,-0.176,15.846,-10.608,26.522
10:29:20:005,2.704,0.543,-0.185,-0.200,10.901,-10.453,21.204
10:29:20:06,2.759,0.702,0.318,-0.160,3.988,-9.773,12.288
10:29:20:06,2.760,0.339,1.100,-0.230,-2.771,-6.615,2.573
10:29:20:083,2.782,-0.450,1.489,-0.097,-7.005,-2.696,-4.382
10:29:20:11,2.810,-1.627,1.115,0.026,-12.459,4.500,-14.602
10:29:20:135,2.835,-2.727,-0.006,0.936,-15.388,9.037,-20.408
10:29:20:162,2.861,-2.958,-0.771,2.287,-19.182,12.047,-26.189
10:29:20:188,2.888,-1.520,-0.354,0.234,-19.613,11.218,-26.813
10:29:20:217,2.916,-1.517,-0.866,1.008,-17.963,10.889,-24.277
10:29:20:243,2.942,2.146,1.624,-0.702,-15.321,10.510,-20.901
10:29:20:266,2.966,-1.600,1.060,-0.069,-14.140,8.914,-18.072
10:29:20:293,2.992,-0.296,-0.332,1.150,-13.056,10.382,-13.546
10:29:20:319,3.019,-0.562,0.108,-0.283,-12.729,11.819,-11.071
10:29:20:345,3.045,-0.147,-0.243,-0.015,-13.062,10.717,-8.046
10:29:20:372,3.072,0.057,0.084,-0.165,-13.000,8.473,-6.469
10:29:20:429,3.128,0.222,0.179,-0.288,-12.763,8.469,-5.652
10:29:20:429,3.129,0.043,0.144,-0.076,-11.746,7.320,-3.486
10:29:20:45,3.150,0.025,-0.023,-0.035,-10.615,5.871,-1.580
10:29:20:506,3.206,0.057,-0.021,0.037,-8.883,4.233,1.015
10:29:20:507,3.207,-0.145,-0.105,0.033,-7.295,3.215,3.211
10:29:20:529,3.229,-0.116,0.066,-0.107,-6.450,2.593,4.422
10:29:20:557,3.257,0.083,0.041,-0.005,-5.169,1.207,5.976
10:29:20:584,3.284,0.171,0.035,0.020,-4.197,0.256,6.988
10:29:20:585,3.285,0.138,0.140,-0.080,-2.648,-0.593,8.608
10:29:20:608,3.307,0.286,0.193,-0.114,-0.813,-1.203,10.362
10:29:20:634,3.334,0.365,0.131,-0.153,0.763,-1.553,11.729
10:29:20:66,3.360,0.558,0.207,-0.085,3.722,-0.751,14.366
10:29:20:689,3.389,0.630,0.212,-0.113,6.063,-0.364,16.516
10:29:20:713,3.413,0.819,0.333,-0.760,10.108,1.377,20.326
10:29:20:739,3.439,0.981,0.497,-0.842,13.288,1.890,23.115
10:29:20:795,3.494,1.371,0.067,-1.193,19.515,2.306,27.858
10:29:20:796,3.495,1.157,-0.181,-1.331,25.386,5.417,34.214
10:29:20:878,3.578,0.369,-0.244,-0.902,29.259,8.697,38.117
10:29:20:879,3.579,0.243,-0.664,-0.890,34.342,13.619,42.054
10:29:20:879,3.579,0.324,-0.952,-0.393,34.934,15.486,43.015
10:29:20:896,3.596,0.170,-1.024,-0.243,35.379,17.744,42.007
10:29:20:925,3.624,0.135,-1.149,-0.170,34.027,18.618,38.715
10:29:20:951,3.651,0.205,-1.072,-0.309,31.506,19.541,35.718
10:29:21:005,3.705,0.104,-0.784,-0.446,25.681,22.301,30.388
10:29:21:006,3.705,-0.045,-0.500,-0.653,21.230,24.889,26.128
10:29:21:028,3.727,-0.232,-0.103,-0.871,14.704,28.840,18.354
10:29:21:054,3.754,-0.400,0.409,-0.901,10.810,31.595,12.531
10:29:21:082,3.782,-0.954,0.928,-0.671,5.196,37.227,3.491
10:29:21:107,3.806,-1.507,1.186,0.094,-0.422,44.347,-5.934
10:29:21:133,3.832,-1.521,0.713,0.755,-4.261,48.687,-11.822
10:29:21:159,3.859,-0.830,0.587,1.473,-10.013,53.738,-19.521
10:29:21:188,3.887,-0.729,-0.232,3.429,-13.614,56.303,-23.790
10:29:21:212,3.911,-0.766,-0.344,1.131,-15.256,57.657,-26.361
10:29:21:238,3.937,0.279,-0.299,1.516,-13.502,59.836,-23.663
10:29:21:264,3.964,0.852,0.642,0.118,-11.452,61.341,-21.112
10:29:21:291,3.990,-0.199,0.448,1.391,-8.918,61.581,-17.689
10:29:21:317,4.016,0.311,0.334,0.789,-8.557,61.201,-14.530
10:29:21:345,4.044,-0.354,-0.238,-0.147,-7.895,63.475,-9.935
10:29:21:37,4.070,-0.198,0.050,0.322,-7.322,63.589,-6.094
10:29:21:427,4.126,0.131,0.046,0.103,-6.866,62.057,-4.265
10:29:21:427,4.126,0.103,0.148,-0.013,-6.260,60.973,-2.016
10:29:21:448,4.148,0.057,0.188,0.079,-6.027,60.860,-0.667
10:29:21:474,4.174,0.131,0.038,-0.068,-5.365,59.848,1.148
10:29:21:501,4.200,0.000,-0.051,-0.072,-4.841,59.179,2.270
10:29:21:557,4.256,-0.134,-0.080,0.032,-3.979,58.689,3.958
10:29:21:557,4.256,-0.096,-0.044,0.034,-3.119,58.130,5.611
10:29:21:579,4.279,-0.047,-0.059,-0.021,-2.519,57.750,6.657
10:29:21:605,4.305,-0.005,0.081,-0.075,-1.568,57.369,8.138
10:29:21:633,4.333,0.096,0.074,-0.059,-0.831,57.311,9.115
10:29:21:658,4.358,0.080,0.109,-0.072,0.421,57.192,10.550
10:29:21:684,4.384,-0.008,0.179,-0.170,1.829,56.948,11.838
10:29:21:71,4.410,0.042,0.199,-0.302,2.920,56.623,12.641
10:29:21:737,4.436,0.210,0.198,-0.526,5.100,56.221,14.210
10:29:21:763,4.462,0.294,0.194,-0.590,6.906,56.401,15.667
10:29:21:791,4.490,-0.113,0.231,-0.907,10.201,57.286,18.525
10:29:21:817,4.517,-0.234,0.408,-1.254,12.876,57.991,20.805
10:29:21:843,4.543,-0.660,0.312,-1.790,17.916,59.374,24.936
10:29:21:87,4.570,-0.412,0.112,-1.615,23.459,62.765,30.687
10:29:21:895,4.594,-0.515,-0.270,-0.765,27.270,65.665,34.649
10:29:21:949,4.649,-0.414,-0.570,-0.634,32.618,69.965,39.272
10:29:21:95,4.650,-0.324,-0.830,-0.669,33.216,72.786,41.612
10:29:21:974,4.674,-0.217,-0.867,-0.180,32.847,75.836,42.890
10:29:22:03,4.730,-0.148,-1.076,-0.009,31.639,77.313,41.449
10:29:22:03,4.730,-0.103,-1.047,-0.124,29.695,77.702,39.272
10:29:22:078,4.778,-0.316,-0.590,-0.452,20.813,78.137,30.231
10:29:22:104,4.804,-0.445,-0.265,-0.564,13.917,79.270,23.067
10:29:22:13,4.830,-0.585,0.245,-0.439,6.697,81.771,15.163
10:29:22:157,4.856,-0.624,0.553,-0.200,2.025,84.428,9.421
10:29:22:183,4.882,-0.703,1.321,0.366,-4.628,89.158,-0.277
10:29:22:209,4.909,-0.208,1.682,0.920,-9.031,92.380,-7.123
10:29:22:237,4.936,0.307,0.642,2.133,-15.751,96.294,-16.408
10:29:22:291,4.990,1.391,-0.296,2.348,-20.153,96.806,-21.209
10:29:22:292,4.991,0.510,-0.337,1.457,-24.997,94.015,-24.400
10:29:22:315,5.014,0.760,-0.557,1.630,-24.895,92.375,-22.194
10:29:22:342,5.041,1.406,0.647,-2.004,-23.197,92.671,-19.794
10:29:22:366,5.066,0.921,0.160,1.348,-18.665,95.984,-17.138
10:29:22:393,5.093,0.121,0.656,0.876,-17.568,96.558,-14.031
10:29:22:449,5.149,-0.555,-0.353,0.071,-16.353,98.725,-9.552
10:29:22:45,5.149,0.045,0.101,0.370,-15.114,99.547,-5.615
10:29:22:472,5.171,0.121,-0.008,-0.199,-14.190,96.692,-3.065
10:29:22:498,5.198,0.260,0.091,-0.359,-12.822,94.021,-0.137
10:29:22:553,5.253,0.056,0.163,-0.099,-12.372,93.932,1.680
10:29:22:554,5.253,-0.020,-0.042,0.319,-11.735,93.799,4.198
10:29:22:577,5.277,0.012,-0.023,-0.071,-10.835,92.089,6.159
10:29:22:634,5.333,0.061,-0.009,-0.065,-10.280,91.247,7.283
10:29:22:634,5.333,0.033,0.060,0.031,-9.569,90.342,8.848
10:29:22:655,5.355,-0.024,0.086,-0.105,-9.063,89.518,9.864
10:29:22:709,5.409,-0.030,0.069,-0.115,-8.087,88.188,11.362
10:29:22:737,5.436,-0.011,0.051,-0.100,-6.804,86.993,13.036
10:29:22:738,5.437,0.002,0.162,-0.134,-5.889,86.334,14.217
10:29:22:761,5.461,-0.078,0.157,-0.342,-4.188,85.312,16.138
10:29:22:787,5.487,0.047,0.163,-0.468,-2.724,84.784,17.706
10:29:22:847,5.546,-0.089,0.279,-0.500,-0.090,84.674,20.567
10:29:22:847,5.547,-0.425,0.345,-0.746,2.028,84.731,22.785
10:29:22:847,5.547,-0.600,0.387,-1.104,5.986,84.549,26.482
10:29:22:867,5.567,-0.993,0.330,-1.339,11.348,83.912,30.570
10:29:22:893,5.592,-0.854,0.378,-1.423,15.643,83.956,34.018
10:29:22:919,5.618,-0.850,-0.359,-1.357,21.613,85.670,39.674
10:29:22:944,5.644,-0.614,-0.003,-0.488,26.038,86.987,42.463
10:29:23:002,5.702,-0.726,-1.093,-0.753,31.187,87.772,45.206
10:29:23:003,5.702,-0.020,-1.030,-0.259,31.399,87.362,45.379
10:29:23:054,5.753,0.001,-1.150,-0.171,30.660,86.498,44.226
10:29:23:054,5.753,0.044,-1.156,-0.414,27.102,84.737,40.782
10:29:23:077,5.777,0.090,-0.743,-0.512,22.774,83.795,37.663
10:29:23:102,5.802,0.029,-0.636,-0.610,15.259,82.930,31.748
10:29:23:128,5.827,-0.068,-0.314,-0.725,10.208,82.527,26.920
10:29:23:154,5.854,-0.089,0.134,-0.738,2.803,82.562,18.564
10:29:23:239,5.938,-0.037,0.648,-0.683,-4.154,83.824,9.153
10:29:23:239,5.939,0.116,1.469,-0.147,-8.735,86.016,1.978
10:29:23:24,5.940,0.184,1.649,1.507,-15.330,90.976,-9.466
10:29:23:259,5.959,0.387,0.461,2.442,-19.314,93.664,-15.954
10:29:23:286,5.985,2.621,-0.657,3.317,-24.400,94.040,-22.158
10:29:23:313,6.012,-0.249,0.105,1.801,-24.134,91.347,-21.116
10:29:23:369,6.069,-0.039,-0.451,0.757,-22.873,90.662,-18.530
10:29:23:37,6.069,1.332,0.265,0.218,-20.132,90.118,-15.847
10:29:23:419,6.119,0.468,0.493,0.944,-19.072,90.174,-13.090
10:29:23:446,6.145,0.666,-0.273,0.265,-17.698,91.232,-9.234
10:29:23:446,6.146,-0.176,0.117,0.620,-17.558,93.356,-7.641
10:29:23:469,6.169,-0.126,0.016,0.587,-17.389,92.623,-5.456
10:29:23:495,6.195,-0.176,0.137,-0.470,-17.059,89.500,-3.301
10:29:23:521,6.221,-0.232,-0.004,-0.179,-16.290,88.360,-1.647
10:29:23:548,6.247,-0.065,0.069,0.120,-14.771,87.012,0.808
10:29:23:575,6.274,-0.098,-0.008,-0.171,-13.545,85.426,2.477
10:29:23:602,6.302,-0.027,-0.072,-0.119,-11.503,83.565,4.921
10:29:23:628,6.328,-0.026,0.036,0.075,-9.658,82.703,7.150
10:29:23:653,6.352,0.017,0.093,-0.024,-8.500,81.890,8.473
10:29:23:679,6.378,0.060,0.021,-0.155,-6.784,80.424,10.265
10:29:23:707,6.407,-0.022,0.008,-0.110,-5.695,79.740,11.463
10:29:23:735,6.434,-0.125,0.139,-0.072,-4.046,78.693,13.226
10:29:23:758,6.457,0.006,0.207,-0.422,-1.965,77.297,15.119
10:29:23:785,6.485,0.142,0.207,-0.534,-0.227,76.681,16.692
10:29:23:81,6.510,-0.135,0.281,-0.592,2.842,76.806,19.577
10:29:23:839,6.538,-0.363,0.396,-0.800,5.238,77.213,21.888
10:29:23:863,6.562,-0.508,0.371,-1.145,9.629,77.686,25.730
10:29:23:889,6.589,-1.114,0.339,-1.236,13.126,77.833,28.413
10:29:23:915,6.615,-0.749,-0.013,-1.178,19.888,77.831,33.197
10:29:23:97,6.670,-0.822,-0.289,-1.427,26.234,79.510,38.476
10:29:23:971,6.671,-0.748,0.060,-0.443,30.556,81.342,41.586
10:29:23:996,6.695,-0.535,-1.132,-0.816,34.798,82.674,44.719
10:29:24:021,6.721,-0.041,-0.914,-0.424,35.438,83.286,45.260
10:29:24:047,6.746,-0.070,-1.169,-0.215,35.020,83.640,44.527
10:29:24:073,6.772,-0.055,-0.984,-0.425,30.942,83.893,41.780
10:29:24:099,6.798,-0.030,-0.894,-0.433,26.730,84.218,38.995
10:29:24:125,6.825,-0.076,-0.739,-0.478,19.627,84.899,33.373
10:29:24:154,6.854,-0.149,-0.456,-0.534,14.778,85.547,28.809
10:29:24:18,6.879,-0.205,-0.220,-0.565,7.932,86.897,20.990
10:29:24:204,6.904,-0.322,0.253,-0.534,3.611,88.299,15.162
10:29:24:23,6.930,-0.285,0.688,-0.321,-2.655,91.405,5.348
10:29:24:257,6.956,0.191,1.509,0.847,-8.961,96.021,-5.444
10:29:24:283,6.982,0.472,1.495,1.318,-12.672,99.136,-12.459
10:29:24:34,7.040,0.868,0.097,2.530,-17.390,102.590,-20.567
10:29:24:34,7.040,2.205,-1.092,2.553,-19.816,103.148,-23.761
10:29:24:42,7.119,0.403,-0.808,2.532,-19.139,102.157,-22.805
10:29:24:421,7.120,0.116,1.991,-2.856,-17.578,100.306,-19.523
10:29:24:421,7.121,0.347,0.677,0.947,-15.733,99.458,-16.902
10:29:24:469,7.169,0.720,-0.030,0.290,-14.785,99.550,-12.713
10:29:24:47,7.170,0.083,-0.438,0.025,-14.351,100.374,-10.558
10:29:24:493,7.192,0.023,0.181,0.572,-14.407,101.015,-8.287
10:29:24:519,7.219,-0.305,0.052,-0.519,-14.166,99.415,-7.043
10:29:24:545,7.245,-0.409,0.049,-0.208,-13.648,98.004,-5.081
10:29:24:572,7.271,0.062,0.105,0.092,-12.400,97.164,-2.722
10:29:24:603,7.303,0.064,0.041,-0.064,-11.488,96.311,-1.201
10:29:24:625,7.325,-0.113,-0.007,-0.115,-10.003,94.833,0.956
10:29:24:651,7.350,-0.042,-0.091,0.014,-8.884,94.046,2.358
10:29:24:677,7.376,-0.030,-0.029,0.102,-7.287,93.180,4.252
10:29:24:703,7.403,-0.010,0.063,-0.010,-5.791,91.940,5.784
10:29:24:731,7.431,0.040,-0.013,-0.208,-4.734,91.002,6.689
10:29:24:758,7.457,-0.050,0.072,-0.153,-3.081,90.256,8.105
10:29:24:784,7.483,-0.059,0.108,-0.130,-1.886,89.884,9.119
10:29:24:809,7.509,-0.210,0.167,-0.320,0.329,89.170,10.761
10:29:24:835,7.534,-0.051,0.204,-0.507,3.201,88.768,12.945
10:29:24:889,7.589,-0.142,0.297,-0.606,5.497,88.984,14.833
10:29:24:89,7.590,-0.542,0.430,-0.808,9.604,89.708,18.287
10:29:24:913,7.612,-0.886,0.611,-1.298,12.920,90.226,20.811
10:29:24:939,7.639,-1.564,0.151,-1.335,19.041,91.496,25.203
10:29:24:965,7.665,-1.345,0.216,-0.698,23.064,94.128,29.376
10:29:25:024,7.723,-1.207,-0.427,-0.855,28.279,99.478,35.663
10:29:25:024,7.723,-0.010,-0.225,0.039,32.271,105.834,41.369
10:29:25:044,7.744,-0.861,-0.936,-0.201,31.987,109.735,43.743
10:29:25:07,7.770,-0.450,-1.062,-0.095,30.978,113.995,44.325
10:29:25:129,7.828,-0.376,-1.206,0.142,30.158,116.197,43.204
10:29:25:129,7.829,-0.543,-0.948,0.013,26.899,118.750,39.545
10:29:25:13,7.830,-0.539,-0.744,0.046,21.806,121.348,34.043
10:29:25:208,7.908,-0.649,-0.537,0.083,18.215,123.142,29.349
10:29:25:209,7.908,-0.852,-0.181,0.199,12.765,125.949,21.149
10:29:25:209,7.909,-0.832,0.119,0.302,9.051,128.189,15.203
10:29:25:317,8.017,-0.610,0.701,0.561,3.312,132.697,5.759
10:29:25:318,8.017,-0.151,1.084,0.829,-0.729,136.659,-0.856
10:29:25:318,8.017,0.848,1.098,1.163,-6.684,143.135,-10.502
10:29:25:318,8.018,1.867,0.553,1.248,-11.930,148.875,-18.922
10:29:25:333,8.033,3.857,-0.994,0.081,-15.296,151.219,-23.063
10:29:25:388,8.088,1.676,-0.640,0.857,-16.674,150.740,-24.595
10:29:25:389,8.088,0.474,0.158,-0.278,-15.532,151.127,-22.409
10:29:25:44,8.140,-1.037,1.311,-1.454,-12.751,152.718,-19.270
10:29:25:441,8.141,1.931,0.653,0.341,-11.001,153.335,-15.108
10:29:25:465,8.164,-0.053,-0.150,-0.316,-10.636,153.781,-12.330
10:29:25:523,8.222,-0.029,-0.240,0.371,-10.246,156.478,-8.845
10:29:25:523,8.223,0.335,-0.019,-0.106,-10.121,157.370,-6.835
10:29:25:543,8.242,-0.228,-0.051,-0.033,-9.572,155.332,-4.299
10:29:25:569,8.269,-0.102,0.040,-0.073,-8.922,154.498,-2.338
10:29:25:625,8.325,0.136,0.071,-0.191,-8.543,154.679,-1.195
10:29:25:625,8.325,-0.047,-0.011,0.060,-8.058,154.223,0.635
10:29:25:65,8.349,-0.036,-0.047,0.061,-7.628,153.923,1.837
10:29:25:674,8.374,-0.006,-0.019,-0.013,-6.870,153.384,3.588
10:29:25:701,8.400,0.015,-0.003,0.028,-6.337,153.010,4.709
10:29:25:727,8.426,-0.020,0.096,-0.014,-5.526,152.545,6.223
10:29:25:755,8.454,-0.069,0.071,-0.100,-4.484,151.895,7.563
10:29:25:779,8.479,-0.094,0.050,-0.058,-3.661,151.375,8.461
10:29:25:807,8.507,-0.171,0.166,0.032,-2.203,150.531,9.838
10:29:25:833,8.532,-0.317,0.187,-0.028,-0.973,149.870,10.821
10:29:25:858,8.557,-0.300,0.220,-0.179,1.338,149.020,12.639
10:29:25:884,8.584,-0.488,0.296,-0.327,4.208,148.825,14.821
10:29:25:913,8.612,-0.717,0.334,-0.085,6.433,149.106,16.538
10:29:25:938,8.638,-1.055,0.386,0.212,10.156,150.057,19.500
10:29:25:964,8.663,-1.346,0.261,0.209,13.111,150.509,21.710
10:29:26:018,8.718,-1.324,0.197,0.655,18.422,152.029,25.742
10:29:26:019,8.719,-1.170,-0.025,0.778,22.217,153.705,29.092
10:29:26:1,8.799,-0.849,-0.270,0.359,27.785,156.861,33.764
10:29:26:101,8.800,-0.737,-0.875,0.429,30.374,162.288,38.813
10:29:26:101,8.801,-0.576,-0.950,0.328,29.183,166.219,41.486
10:29:26:12,8.820,-0.287,-0.923,0.353,26.843,171.319,43.079
10:29:26:175,8.875,-0.406,-0.903,0.261,24.853,173.134,42.491
10:29:26:176,8.876,-0.448,-0.743,0.243,20.682,175.158,39.381
10:29:26:2,8.900,-0.490,-0.519,0.315,15.766,176.967,33.964
10:29:26:226,8.926,-0.459,-0.398,0.344,12.473,177.964,29.176
10:29:26:252,8.951,-0.463,-0.136,0.416,7.428,179.359,20.864
10:29:26:278,8.977,-0.453,0.217,0.436,3.829,-179.421,14.909
10:29:26:333,9.033,-0.280,0.712,0.445,-1.944,-176.325,5.483
10:29:26:334,9.033,0.664,1.264,0.213,-8.064,-171.369,-4.417
10:29:26:384,9.084,1.279,0.899,-0.639,-11.973,-167.910,-10.753
10:29:26:416,9.116,2.114,0.338,-0.891,-16.802,-164.036,-18.959
10:29:26:416,9.116,2.615,-0.528,-1.811,-19.601,-162.529,-22.821
10:29:26:466,9.165,2.378,-0.858,-1.324,-21.740,-163.070,-24.903
10:29:26:466,9.166,1.083,0.315,-0.900,-21.278,-164.722,-22.896
10:29:26:49,9.189,0.953,0.254,-0.711,-18.474,-166.898,-18.840
10:29:26:516,9.215,1.081,0.431,-0.946,-16.010,-164.867,-13.605
10:29:26:541,9.241,-0.527,-0.342,-0.092,-14.562,-163.495,-10.240
10:29:26:566,9.266,0.595,-0.095,0.090,-13.389,-163.530,-5.482
10:29:26:624,9.323,-0.114,0.036,-0.188,-12.839,-165.287,-3.201
10:29:26:624,9.323,-0.088,0.094,-0.164,-12.431,-167.213,-0.837
10:29:26:646,9.345,-0.006,0.067,0.041,-12.330,-167.766,1.182
10:29:26:701,9.400,0.207,0.028,-0.056,-12.220,-168.081,2.351
10:29:26:701,9.401,-0.067,0.049,-0.021,-11.876,-169.894,3.897
10:29:26:724,9.423,-0.149,-0.009,-0.014,-11.529,-171.072,4.888
10:29:26:752,9.452,0.046,0.001,0.048,-10.931,-172.442,6.424
10:29:26:78,9.479,-0.002,0.030,0.106,-9.997,-173.954,8.093
10:29:26:803,9.503,-0.105,0.063,0.073,-9.115,-175.081,9.264
10:29:26:83,9.530,-0.196,0.095,-0.125,-7.540,-176.591,11.113
10:29:26:855,9.555,-0.234,0.190,0.038,-6.372,-177.344,12.400
10:29:26:882,9.582,-0.421,0.166,0.099,-4.259,-178.305,14.562
10:29:26:937,9.637,-0.667,0.334,0.023,-1.530,-178.707,17.397
10:29:26:938,9.638,-0.743,0.319,0.024,0.659,-178.493,19.726
10:29:26:961,9.660,-1.094,0.496,0.617,4.691,-178.162,23.712
10:29:26:987,9.686,-1.322,0.512,0.799,8.113,-178.225,26.505
10:29:27:013,9.712,-1.284,0.357,1.210,14.425,-177.585,31.568
10:29:27:068,9.768,-1.101,-0.167,1.246,17.985,-175.098,35.912
10:29:27:069,9.769,-0.489,-0.337,0.940,22.869,-170.512,41.505
10:29:27:093,9.792,-0.596,-1.097,0.901,26.707,-167.357,44.461
10:29:27:118,9.818,-0.332,-1.210,0.316,26.871,-166.450,44.442
10:29:27:144,9.844,-0.120,-1.177,0.243,26.603,-165.705,42.393
10:29:27:17,9.870,-0.214,-1.115,0.381,23.816,-165.260,38.009
10:29:27:199,9.898,-0.261,-0.851,0.378,20.258,-164.540,34.193
10:29:27:252,9.951,-0.207,-0.480,0.475,14.062,-162.436,27.328
10:29:27:253,9.952,-0.188,-0.085,0.694,9.941,-160.722,21.922
10:29:27:277,9.977,-0.057,0.371,0.764,4.096,-157.571,12.914
10:29:27:331,10.031,0.229,0.864,0.620,0.359,-154.792,6.408
10:29:27:332,10.032,0.876,1.264,0.069,-5.292,-148.992,-4.036
10:29:27:356,10.056,1.477,0.891,-0.874,-10.868,-142.319,-14.370
10:29:27:38,10.080,1.944,0.541,-1.186,-14.212,-138.438,-20.482
10:29:27:409,10.108,1.610,-1.428,-3.598,-18.904,-135.716,-26.674
10:29:27:465,10.165,1.252,-1.146,-1.967,-19.950,-136.854,-27.230
10:29:27:466,10.165,0.108,-0.785,-1.610,-17.806,-136.702,-23.584
10:29:27:466,10.166,0.561,0.186,-2.176,-13.933,-134.780,-19.834
10:29:27:514,10.214,1.844,0.733,-2.095,-12.147,-133.486,-15.920
10:29:27:515,10.215,0.115,-0.580,0.279,-10.426,-132.126,-9.763
10:29:27:567,10.267,0.269,-0.281,-0.708,-9.425,-132.083,-6.030
10:29:27:568,10.267,-0.071,0.154,-0.367,-8.506,-133.483,-2.626
10:29:27:591,10.291,-0.147,0.122,-0.042,-7.979,-134.577,-1.123
10:29:27:617,10.316,-0.063,0.103,-0.090,-7.376,-135.121,0.662
10:29:27:643,10.342,0.004,0.042,-0.193,-6.967,-135.445,2.061
10:29:27:669,10.368,-0.085,0.044,0.053,-6.667,-136.237,2.816
10:29:27:695,10.395,0.104,-0.101,0.007,-6.184,-137.179,3.845
10:29:27:724,10.423,0.087,-0.076,-0.049,-5.901,-137.694,4.504
10:29:27:777,10.476,0.083,-0.022,0.042,-5.372,-138.615,5.478
10:29:27:778,10.477,-0.074,0.095,-0.014,-4.645,-139.595,6.424
10:29:27:8,10.500,-0.132,0.016,0.029,-3.969,-140.253,7.108
10:29:27:826,10.526,-0.118,0.110,0.054,-2.752,-141.059,8.256
10:29:27:853,10.552,-0.138,0.193,0.203,-1.781,-141.443,9.122
10:29:27:882,10.582,-0.275,0.234,0.299,0.152,-142.054,10.768
10:29:27:907,10.607,-0.386,0.348,0.360,1.866,-142.244,12.238
10:29:27:933,10.632,-0.419,0.325,0.440,5.015,-141.979,14.978
10:29:27:959,10.659,-0.274,0.448,1.034,8.878,-141.572,18.128
10:29:27:985,10.684,-0.241,0.362,1.588,12.038,-141.230,20.388
10:29:28:01,10.710,-0.065,0.364,1.619,17.680,-139.891,24.922
10:29:28:125,10.824,0.073,-0.034,1.743,21.209,-137.363,29.047
10:29:28:125,10.825,0.223,-0.115,0.915,26.398,-132.197,34.900
10:29:28:126,10.825,0.241,-1.039,1.146,28.905,-126.616,39.496
10:29:28:126,10.826,0.159,-0.970,0.786,27.657,-123.035,41.030
10:29:28:142,10.841,0.329,-1.015,0.295,25.949,-119.094,40.785
10:29:28:168,10.867,0.252,-1.085,0.290,24.339,-117.289,38.911
10:29:28:223,10.923,0.240,-0.856,0.469,20.411,-115.181,34.146
10:29:28:224,10.923,0.339,-0.437,0.474,15.555,-112.712,27.545
10:29:28:277,10.976,0.446,-0.221,0.465,12.149,-110.945,22.281
10:29:28:277,10.977,0.645,0.168,0.477,6.884,-107.899,13.666
10:29:28:299,10.999,0.845,0.671,0.242,3.154,-105.232,7.662
10:29:28:325,11.025,0.819,1.040,-0.314,-2.568,-100.423,-1.844
10:29:28:353,11.053,0.446,1.082,-1.510,-6.696,-97.042,-8.338
10:29:28:407,11.107,-0.109,0.472,-1.816,-13.083,-93.301,-17.415
10:29:28:407,11.107,-0.711,0.022,-2.457,-19.206,-92.170,-24.447
10:29:28:431,11.131,-0.869,-1.234,-2.713,-22.451,-92.771,-27.038
10:29:28:459,11.159,-0.896,-0.447,-1.876,-23.627,-93.910,-26.127
10:29:28:483,11.182,-1.176,0.626,0.032,-21.680,-93.500,-23.434
10:29:28:509,11.209,-0.488,0.116,-1.772,-17.618,-92.191,-19.881
10:29:28:623,11.323,-0.799,0.198,0.084,-15.355,-89.481,-14.548
10:29:28:624,11.324,0.910,-0.484,-0.368,-13.843,-88.091,-10.791
10:29:28:624,11.324,-0.504,-0.156,-0.490,-12.277,-88.997,-6.116
10:29:28:625,11.325,-0.249,0.054,0.026,-11.898,-90.919,-4.042
10:29:28:641,11.341,-0.225,0.148,0.240,-11.475,-92.786,-1.629
10:29:28:667,11.366,0.069,0.077,-0.317,-11.407,-92.938,-0.074
10:29:28:751,11.450,-0.145,0.058,-0.162,-11.225,-93.728,1.803
10:29:28:752,11.451,0.061,-0.034,0.004,-10.788,-95.667,3.394
10:29:28:753,11.452,-0.004,-0.051,-0.034,-10.456,-96.715,4.331
10:29:28:772,11.471,0.051,0.031,-0.084,-9.995,-98.054,5.662
10:29:28:825,11.525,0.092,-0.004,-0.013,-9.543,-99.066,6.527
10:29:28:855,11.554,0.046,-0.009,0.094,-8.625,-100.684,7.911
10:29:28:855,11.555,-0.016,0.070,0.073,-7.501,-101.971,9.533
10:29:28:877,11.576,-0.078,0.181,0.111,-6.639,-102.673,10.717
10:29:28:932,11.632,-0.098,0.229,0.413,-5.007,-103.733,12.713
10:29:28:933,11.633,-0.210,0.220,0.484,-3.588,-104.147,14.423
10:29:28:983,11.682,0.088,0.368,0.524,-0.957,-103.951,17.617
10:29:29:011,11.711,0.370,0.566,1.035,2.422,-103.799,21.395
10:29:29:011,11.711,0.373,0.606,1.296,5.310,-104.029,24.055
10:29:29:035,11.734,0.749,0.473,1.262,10.824,-103.956,28.685
10:29:29:09,11.789,0.591,0.380,1.269,14.191,-102.309,32.768
10:29:29:09,11.790,0.688,-0.284,0.761,18.715,-99.190,38.232
10:29:29:114,11.813,0.481,-0.971,0.789,23.486,-97.821,41.590
10:29:29:139,11.838,0.395,-1.043,0.750,24.150,-97.674,42.108
10:29:29:253,11.952,0.075,-1.181,0.291,24.316,-98.275,40.783
10:29:29:253,11.953,0.069,-1.224,0.342,23.249,-99.018,38.700
10:29:29:254,11.954,0.045,-0.873,0.496,18.771,-99.900,34.301
10:29:29:255,11.955,-0.002,-0.621,0.485,14.679,-100.048,30.542
10:29:29:299,11.999,0.107,-0.369,0.634,8.177,-99.862,23.569
10:29:29:3,12.000,0.134,0.084,0.605,1.612,-98.709,15.310
10:29:29:352,12.051,0.153,0.510,0.566,-2.605,-97.097,9.081
10:29:29:353,12.052,-0.025,1.317,-0.469,-8.745,-92.923,-1.564
10:29:29:406,12.105,-0.092,1.279,-1.587,-12.717,-89.449,-9.212
10:29:29:406,12.106,-0.214,0.518,-2.355,-18.406,-85.340,-19.799
10:29:29:458,12.157,-2.508,-1.159,-3.557,-24.315,-84.135,-26.988
10:29:29:458,12.157,-1.104,-1.667,-2.724,-25.872,-85.966,-28.054
10:29:29:481,12.180,0.060,-0.320,-0.184,-24.718,-88.052,-24.809
10:29:29:536,12.235,-0.958,-0.035,-1.080,-23.755,-87.673,-23.159
10:29:29:537,12.236,-0.529,0.915,-1.737,-20.634,-87.430,-20.016
10:29:29:559,12.259,-0.650,-0.440,-0.407,-19.582,-86.551,-17.167
10:29:29:586,12.286,0.189,0.095,-0.650,-18.614,-84.122,-14.147
10:29:29:644,12.343,0.016,-0.104,-0.466,-18.619,-83.358,-11.977
10:29:29:644,12.343,0.044,0.047,0.197,-18.676,-85.539,-10.540
10:29:29:664,12.364,0.134,0.061,0.103,-18.403,-87.534,-8.461
10:29:29:691,12.390,-0.034,0.080,-0.091,-17.618,-88.540,-6.777
10:29:29:717,12.417,-0.012,-0.020,-0.025,-16.300,-90.276,-4.188
10:29:29:744,12.444,-0.032,-0.027,0.070,-14.813,-92.731,-1.562
10:29:29:772,12.472,-0.056,-0.062,-0.031,-13.632,-93.922,0.187
10:29:29:773,12.473,-0.040,0.081,-0.078,-12.083,-95.205,2.489
10:29:29:826,12.526,-0.109,0.021,0.072,-11.127,-96.407,3.816
10:29:29:827,12.526,-0.038,0.016,0.045,-9.671,-98.075,5.665
10:29:29:848,12.547,-0.031,0.123,0.027,-8.174,-99.217,7.499
10:29:29:874,12.573,0.013,0.164,0.138,-7.077,-100.029,8.722
10:29:29:902,12.601,0.006,0.222,0.310,-5.051,-101.153,10.853
10:29:29:927,12.627,-0.140,0.220,0.374,-3.399,-101.617,12.623
10:29:29:953,12.653,0.157,0.351,0.453,-0.359,-101.715,15.812
10:29:29:98,12.679,0.322,0.515,0.729,2.088,-101.726,18.286
10:29:30:005,12.705,0.748,0.618,1.437,6.701,-102.060,22.298
10:29:30:032,12.731,0.861,0.233,1.319,12.628,-102.146,26.884
10:29:30:058,12.757,0.844,0.323,1.041,16.329,-100.669,30.899
10:29:30:084,12.784,0.663,-0.193,0.759,21.084,-97.485,36.503
10:29:30:113,12.812,0.131,-0.484,0.256,24.310,-95.580,39.588
10:29:30:167,12.867,0.342,-0.992,0.594,26.579,-94.431,41.754
10:29:30:167,12.867,0.059,-1.182,0.203,26.625,-94.168,41.024
10:29:30:217,12.916,0.040,-1.211,0.173,25.728,-94.311,39.422
10:29:30:247,12.947,0.092,-0.904,0.396,21.743,-94.394,35.725
10:29:30:247,12.947,0.062,-0.714,0.407,17.890,-94.189,32.419
10:29:30:268,12.968,0.120,-0.546,0.497,11.744,-93.912,25.999
10:29:30:296,12.995,0.238,-0.124,0.562,7.578,-93.621,20.922
10:29:30:323,13.023,0.232,0.230,0.560,1.258,-92.511,12.355
10:29:30:376,13.075,0.185,0.943,0.320,-4.945,-90.107,2.481
10:29:30:377,13.076,0.193,1.743,-0.435,-9.090,-87.196,-4.932
10:29:30:401,13.100,-0.511,1.247,-1.788,-15.347,-81.109,-16.194
10:29:30:426,13.125,-0.832,0.228,-2.300,-19.168,-78.166,-22.849
10:29:30:454,13.153,-1.917,-1.991,-2.670,-23.926,-78.593,-28.081
10:29:30:479,13.179,-0.333,-0.478,-1.815,-23.049,-79.901,-26.656
10:29:30:506,13.206,0.056,0.397,0.251,-21.746,-79.881,-24.517
10:29:30:53,13.230,-0.464,0.247,-1.165,-19.329,-80.108,-21.915
10:29:30:587,13.287,-0.547,0.561,-1.371,-18.046,-80.161,-19.437
10:29:30:587,13.287,-0.874,-0.340,-0.375,-16.670,-77.999,-16.112
10:29:30:609,13.309,0.133,-0.037,-0.863,-16.520,-75.887,-14.490
10:29:30:635,13.335,-0.100,-0.257,-0.217,-16.480,-78.017,-12.090
10:29:30:663,13.362,0.288,0.133,0.389,-16.520,-80.368,-10.369
10:29:30:688,13.388,0.155,-0.022,-0.011,-15.913,-80.885,-8.887
10:29:30:714,13.414,-0.007,0.136,-0.240,-14.586,-81.918,-6.405
10:29:30:741,13.440,0.025,-0.004,0.130,-13.555,-83.438,-4.692
10:29:30:767,13.467,-0.020,-0.010,0.056,-11.851,-84.982,-2.128
10:29:30:793,13.493,-0.102,-0.039,-0.139,-10.203,-85.557,0.254
10:29:30:819,13.519,-0.106,0.046,-0.145,-9.298,-86.171,1.600
10:29:30:846,13.545,-0.051,0.026,0.027,-8.046,-87.549,3.268
10:29:30:872,13.572,-0.069,0.016,0.053,-7.197,-88.350,4.286
10:29:30:927,13.627,-0.011,0.099,0.051,-5.888,-89.207,5.747
10:29:30:928,13.628,0.065,0.133,0.139,-4.312,-89.998,7.319
10:29:30:951,13.650,0.142,0.129,0.193,-2.956,-90.505,8.554
10:29:30:977,13.676,0.014,0.224,0.325,-0.439,-90.999,10.867
10:29:31:003,13.702,0.137,0.280,0.419,1.578,-91.619,12.708
10:29:31:03,13.730,0.352,0.369,0.500,5.029,-91.160,15.918
10:29:31:055,13.755,0.560,0.570,0.979,7.761,-91.372,18.284
10:29:31:083,13.783,0.976,0.389,1.209,12.725,-90.905,22.166
10:29:31:137,13.837,0.916,0.363,0.846,18.075,-88.678,27.453
10:29:31:138,13.837,0.898,-0.072,0.851,21.422,-86.670,31.000
10:29:31:19,13.889,0.754,-0.266,0.470,26.111,-82.911,35.619
10:29:31:19,13.890,0.519,-0.711,0.324,27.870,-80.645,38.032
10:29:31:213,13.912,0.402,-0.951,0.281,27.587,-77.841,39.189
10:29:31:239,13.938,0.303,-1.079,0.080,26.865,-76.177,38.050
10:29:31:265,13.965,0.359,-1.038,0.172,25.200,-75.348,36.129
10:29:31:292,13.991,0.376,-0.738,0.216,20.777,-73.656,31.861
10:29:31:318,14.018,0.424,-0.531,0.181,17.361,-72.415,27.964
10:29:31:345,14.044,0.599,-0.331,0.215,12.202,-70.458,20.668
10:29:31:371,14.070,0.708,0.124,0.088,8.721,-68.764,15.158
10:29:31:398,14.098,0.692,0.445,-0.086,3.464,-65.111,6.108
10:29:31:423,14.123,0.368,1.057,-0.754,-1.759,-59.643,-3.846
10:29:31:507,14.207,-0.117,1.188,-1.271,-5.373,-55.386,-10.712
10:29:31:508,14.208,-1.067,0.433,-1.677,-11.081,-49.860,-20.151
10:29:31:509,14.209,-3.033,0.091,-1.585,-17.188,-46.586,-27.545
10:29:31:528,14.228,-3.871,-1.888,-1.364,-18.818,-47.243,-29.398
10:29:31:555,14.255,-1.428,-0.123,-0.834,-17.626,-46.278,-26.927
10:29:31:581,14.280,0.156,1.060,1.736,-15.189,-43.851,-24.750
10:29:31:607,14.306,-1.502,0.525,-0.654,-11.971,-42.380,-21.671
10:29:31:633,14.333,-0.744,0.537,-0.353,-12.066,-42.070,-18.682
10:29:31:659,14.359,0.005,-0.262,-0.488,-11.419,-40.073,-15.023
10:29:31:686,14.385,-0.474,0.123,-0.900,-11.249,-39.134,-12.422
10:29:31:742,14.441,-0.148,-0.110,0.265,-11.144,-41.374,-11.124
10:29:31:742,14.441,-0.007,0.030,-0.145,-11.204,-42.327,-9.562
10:29:31:764,14.464,-0.086,0.124,-0.140,-10.951,-42.309,-8.631
10:29:31:79,14.490,0.133,0.075,-0.020,-10.364,-43.584,-6.853
10:29:31:818,14.518,0.104,-0.032,-0.008,-9.379,-45.278,-4.713
10:29:31:843,14.543,0.005,-0.036,-0.034,-8.594,-45.958,-3.238
10:29:31:869,14.569,-0.102,-0.098,-0.129,-7.492,-46.749,-1.250
10:29:31:924,14.624,-0.090,0.011,-0.099,-6.889,-47.405,-0.155
10:29:31:925,14.625,0.059,0.118,0.006,-5.942,-48.493,1.240
10:29:31:949,14.648,0.018,0.059,0.146,-5.165,-49.165,2.162
10:29:31:974,14.674,0.104,0.072,-0.052,-3.767,-49.882,3.683
10:29:32:,14.700,0.107,0.110,-0.089,-2.087,-50.469,5.278
10:29:32:029,14.729,0.244,0.130,0.071,-0.730,-50.993,6.442
10:29:32:03,14.730,0.186,0.245,0.288,1.660,-52.579,8.533
10:29:32:083,14.782,0.319,0.285,0.223,3.535,-52.538,10.209
10:29:32:105,14.805,1.335,0.608,0.377,11.181,-53.102,16.307
10:29:32:161,14.860,1.761,0.280,0.228,14.733,-52.671,18.798
10:29:32:161,14.861,1.156,0.302,-0.142,20.018,-49.876,24.284
10:29:32:184,14.884,1.235,-0.038,-0.278,23.395,-47.454,28.135
10:29:32:269,14.968,0.871,-0.545,0.024,27.519,-42.604,33.350
10:29:32:269,14.969,0.817,-1.033,-0.137,29.163,-39.478,36.386
10:29:32:27,14.970,0.787,-1.009,-0.175,27.625,-34.069,38.517
10:29:32:289,14.989,0.387,-1.070,-0.256,25.762,-31.074,37.836
10:29:32:374,15.074,0.488,-0.918,-0.267,23.760,-28.840,35.840
10:29:32:375,15.075,0.469,-0.631,-0.295,19.527,-25.417,30.899
10:29:32:375,15.075,0.457,-0.386,-0.430,16.660,-23.209,26.453
10:29:32:395,15.095,0.469,-0.158,-0.581,12.484,-20.203,18.354
10:29:32:422,15.121,0.334,0.173,-0.740,7.935,-17.032,9.468
10:29:32:448,15.148,0.113,0.549,-0.846,4.475,-14.314,3.483
10:29:32:474,15.173,-0.700,1.031,-0.836,-1.232,-9.428,-5.555
10:29:32:499,15.199,-1.457,0.866,-0.399,-5.440,-6.291,-11.385
10:29:32:527,15.227,-1.625,0.409,0.036,-11.366,-3.650,-19.459
10:29:32:554,15.254,-2.672,-0.398,0.517,-17.241,-3.647,-25.619
10:29:32:578,15.278,-2.549,-1.099,0.840,-19.677,-4.904,-27.284
10:29:32:604,15.304,-1.817,-0.228,0.534,-20.083,-5.968,-25.454
10:29:32:631,15.331,-0.433,0.193,1.098,-18.643,-5.763,-23.188
10:29:32:686,15.386,-1.079,0.261,0.547,-15.543,-4.176,-20.828
10:29:32:687,15.387,-0.965,0.886,0.317,-14.956,-3.624,-18.476
10:29:32:71,15.410,-0.071,-0.048,0.223,-14.313,-0.860,-14.870
10:29:32:736,15.435,-0.988,-0.137,-0.279,-13.833,1.600,-12.244
10:29:32:763,15.463,-0.073,-0.096,0.235,-13.772,-0.631,-10.608
10:29:32:819,15.518,0.404,0.097,0.045,-13.916,-3.797,-8.466
10:29:32:819,15.518,-0.096,0.015,-0.158,-13.776,-4.186,-7.025
10:29:32:841,15.540,-0.202,0.034,-0.226,-13.223,-4.649,-4.832
10:29:32:896,15.595,0.170,0.039,-0.083,-12.072,-6.994,-2.404
10:29:32:896,15.596,0.096,0.022,0.012,-11.064,-8.022,-0.666
10:29:32:919,15.619,-0.152,0.032,-0.038,-9.623,-8.919,1.749
10:29:32:945,15.645,-0.055,0.088,0.009,-8.728,-9.956,3.183
10:29:32:972,15.672,0.065,0.072,0.001,-7.344,-11.696,5.073
10:29:32:999,15.698,0.073,0.030,-0.003,-6.309,-12.709,6.344
10:29:33:027,15.727,0.050,0.079,-0.059,-4.688,-14.033,8.254
10:29:33:08,15.779,0.204,0.105,-0.111,-2.843,-14.900,10.217
10:29:33:08,15.780,0.322,0.121,-0.089,-1.366,-15.632,11.725
10:29:33:161,15.861,0.479,0.275,0.133,1.272,-15.570,14.533
10:29:33:162,15.862,0.651,0.378,-0.255,3.390,-15.617,16.819
10:29:33:162,15.862,0.926,0.496,-0.395,7.205,-15.514,20.697
10:29:33:183,15.882,1.574,0.427,-0.742,12.339,-15.764,24.896
10:29:33:208,15.908,1.430,0.380,-0.808,16.246,-15.098,28.562
10:29:33:234,15.934,1.182,-0.021,-0.888,21.449,-11.901,34.982
10:29:33:261,15.960,0.384,-0.296,-0.668,24.455,-9.315,38.724
10:29:33:289,15.988,0.637,-0.954,-0.304,28.240,-6.738,42.674
10:29:33:315,16.015,0.351,-1.120,-0.115,28.415,-5.707,43.386
10:29:33:424,16.123,0.357,-1.137,-0.051,26.150,-5.371,38.756
10:29:33:424,16.124,0.438,-0.941,-0.044,23.015,-5.382,35.466
10:29:33:426,16.125,0.443,-0.628,-0.088,17.473,-5.091,29.011
10:29:33:473,16.173,0.513,-0.379,-0.195,13.593,-4.864,23.785
10:29:33:474,16.173,0.486,0.010,-0.284,7.648,-4.277,14.911
10:29:33:526,16.226,0.487,0.646,-0.270,1.560,-2.748,5.018
10:29:33:529,16.229,-0.357,1.349,-0.065,-2.761,-0.115,-1.999
10:29:33:551,16.251,-1.071,1.684,0.168,-8.423,5.650,-12.638
10:29:33:576,16.276,-2.839,0.106,0.778,-11.215,9.990,-18.744
10:29:33:602,16.301,-2.958,-0.883,2.242,-14.497,13.961,-24.822
10:29:33:628,16.327,-2.492,-0.785,0.479,-14.482,13.439,-24.923
10:29:33:683,16.383,1.774,1.378,-0.537,-13.197,12.271,-22.182
10:29:33:684,16.383,-1.937,0.961,0.591,-11.115,10.785,-18.474
10:29:33:707,16.407,-0.666,0.398,0.424,-10.098,11.296,-14.970
10:29:33:733,16.433,-0.458,-0.623,-0.067,-8.571,11.374,-10.180
10:29:33:76,16.459,-0.316,0.358,0.101,-8.045,11.273,-6.859
10:29:33:786,16.485,-0.127,-0.030,0.099,-7.677,10.506,-5.206
10:29:33:812,16.511,0.031,0.095,-0.067,-7.271,9.450,-3.371
10:29:33:897,16.597,-0.057,0.064,-0.051,-7.078,9.094,-2.317
10:29:33:897,16.597,0.030,0.020,-0.024,-6.553,7.971,-0.822
10:29:33:897,16.597,-0.002,-0.006,-0.114,-5.895,6.796,0.623
10:29:33:946,16.645,-0.057,-0.070,-0.124,-5.356,6.187,1.625
10:29:33:947,16.646,-0.064,-0.034,-0.076,-4.537,5.292,3.111
10:29:33:969,16.669,0.030,0.030,-0.076,-3.947,4.723,4.056
10:29:34:025,16.725,-0.007,0.031,-0.032,-2.979,4.082,5.452
10:29:34:026,16.726,0.044,0.059,0.000,-1.889,3.466,6.780
10:29:34:048,16.747,0.056,0.085,0.001,-1.112,3.063,7.604
10:29:34:104,16.804,0.096,0.112,-0.045,0.184,2.428,8.795
10:29:34:104,16.804,0.244,0.115,-0.120,1.238,1.961,9.668
10:29:34:127,16.826,0.331,0.203,-0.144,3.269,2.275,11.495
10:29:34:183,16.882,0.389,0.218,-0.160,4.994,2.371,13.136
10:29:34:183,16.883,0.523,0.302,-0.453,8.168,3.151,16.184
10:29:34:206,16.905,0.986,0.560,-0.799,12.247,3.791,19.731
10:29:34:232,16.931,1.052,0.306,-1.174,15.763,4.036,22.332
10:29:34:258,16.958,0.772,0.211,-1.078,21.113,6.400,27.724
10:29:34:285,16.985,0.559,-0.322,-0.922,24.329,9.050,31.638
10:29:34:312,17.011,0.025,-0.276,-0.595,28.259,13.975,37.038
10:29:34:337,17.037,0.177,-0.794,-0.639,30.302,18.147,40.504
10:29:34:395,17.094,0.221,-0.895,-0.482,30.406,21.057,41.176
10:29:34:396,17.095,-0.045,-1.044,-0.219,30.488,23.720,40.407
10:29:34:396,17.096,0.015,-0.990,-0.276,29.434,25.273,38.752
10:29:34:446,17.146,0.085,-0.849,-0.348,25.745,27.735,34.842
10:29:34:446,17.146,0.065,-0.569,-0.451,22.602,29.525,31.250
10:29:34:499,17.199,-0.029,-0.256,-0.591,17.465,32.383,24.621
10:29:34:5,17.199,-0.085,0.000,-0.662,12.300,35.388,16.840
10:29:34:549,17.248,-0.120,0.278,-0.686,8.994,37.813,11.304
10:29:34:578,17.277,-0.529,0.788,-0.406,4.057,42.989,2.776
10:29:34:578,17.277,-0.900,1.002,-0.002,0.889,47.333,-2.917
10:29:34:658,17.358,-1.083,0.813,0.745,-3.644,54.641,-10.980
10:29:34:659,17.359,-1.004,0.365,1.414,-7.440,60.745,-17.997
10:29:34:659,17.359,-0.681,0.186,2.546,-9.784,63.280,-21.796
10:29:34:678,17.378,-0.956,-0.299,1.225,-10.929,63.077,-23.916
10:29:34:704,17.404,-0.360,-0.150,0.462,-10.456,62.778,-22.439
10:29:34:73,17.430,0.574,0.998,-0.757,-9.533,62.781,-19.505
10:29:34:759,17.458,-0.107,0.705,1.157,-8.359,61.572,-16.943
10:29:34:783,17.483,0.004,0.473,0.580,-8.288,61.046,-14.595
10:29:34:809,17.509,-0.018,-0.201,-0.019,-8.397,62.995,-11.784
10:29:34:835,17.535,-0.330,0.040,0.427,-8.760,64.929,-10.241
10:29:34:862,17.562,-0.139,-0.098,0.135,-9.130,64.556,-8.370
10:29:34:889,17.589,0.010,0.047,-0.307,-9.373,63.274,-7.377
10:29:34:915,17.614,-0.118,0.085,-0.114,-9.537,62.670,-5.784
10:29:34:941,17.640,-0.061,0.036,-0.053,-9.244,62.302,-4.043
10:29:34:967,17.666,-0.009,0.027,-0.173,-8.868,61.445,-2.910
10:29:34:993,17.692,0.031,0.036,-0.014,-8.160,60.502,-1.097
10:29:35:049,17.748,0.003,0.017,0.090,-7.665,60.102,0.111
10:29:35:049,17.749,0.042,0.015,-0.006,-6.869,59.037,1.715
10:29:35:075,17.774,-0.012,0.050,-0.132,-6.062,57.902,3.106
10:29:35:127,17.826,-0.044,0.042,-0.081,-5.429,57.471,4.018
10:29:35:128,17.827,-0.042,-0.012,-0.103,-4.324,56.871,5.438
10:29:35:152,17.852,-0.086,0.022,-0.110,-3.520,58.298,6.420
10:29:35:206,17.906,-0.118,0.007,-0.152,-2.100,57.685,8.029
10:29:35:207,17.907,-0.035,0.070,-0.152,-1.014,58.729,9.186
10:29:35:229,17.929,0.117,0.177,-0.226,0.920,58.112,11.083
10:29:35:285,17.984,0.144,0.211,-0.384,3.304,59.193,13.258
10:29:35:285,17.985,-0.021,0.192,-0.465,5.266,59.257,14.930
10:29:35:31,18.009,-0.233,0.365,-0.774,8.727,60.992,17.709
10:29:35:335,18.034,-0.156,0.295,-1.285,11.566,61.170,19.656
10:29:35:362,18.062,-0.363,0.137,-1.455,16.480,61.952,23.187
10:29:35:387,18.087,-0.561,0.272,-1.192,21.549,64.702,28.604
10:29:35:413,18.113,-0.569,-0.106,-1.163,24.980,67.309,32.652
10:29:35:441,18.141,-0.393,-0.378,-0.346,28.973,72.522,38.517
10:29:35:467,18.166,-0.437,-0.844,-0.556,31.001,75.820,41.653
10:29:35:492,18.191,-0.377,-0.835,-0.448,29.914,80.218,44.224
10:29:35:518,18.217,-0.282,-1.067,-0.221,28.803,82.370,44.456
10:29:35:545,18.245,-0.203,-1.012,-0.228,26.261,84.675,42.657
10:29:35:571,18.271,-0.229,-0.725,-0.330,21.714,86.770,38.718
10:29:35:597,18.297,-0.266,-0.593,-0.410,18.339,88.023,34.984
10:29:35:624,18.324,-0.403,-0.377,-0.387,13.163,90.002,28.193
10:29:35:681,18.380,-0.522,-0.110,-0.422,9.562,91.558,23.158
10:29:35:681,18.380,-0.676,0.339,-0.251,4.038,94.691,15.108
10:29:35:703,18.403,-0.594,0.701,0.221,-1.354,98.769,6.358
10:29:35:729,18.428,-0.474,1.027,0.698,-4.949,101.462,0.183
10:29:35:754,18.453,0.510,0.672,1.505,-10.833,104.091,-8.895
10:29:35:781,18.481,1.004,0.609,1.452,-14.627,103.843,-14.173
10:29:35:807,18.507,1.279,-0.470,2.091,-20.468,101.278,-20.035
10:29:35:834,18.534,0.590,-0.090,1.135,-23.422,97.375,-20.898
10:29:35:888,18.588,0.822,-0.624,1.130,-22.765,96.470,-18.898
10:29:35:889,18.589,1.218,0.442,-0.565,-20.747,97.964,-16.668
10:29:35:913,18.613,0.765,0.624,1.353,-19.000,98.682,-14.807
10:29:35:939,18.639,0.348,0.094,0.096,-18.293,99.178,-10.870
10:29:35:965,18.664,-0.232,-0.091,0.532,-17.569,100.627,-8.666
10:29:35:991,18.690,-0.042,0.101,0.573,-16.874,101.504,-6.152
10:29:36:076,18.776,0.150,-0.031,-0.186,-16.223,98.611,-3.647
10:29:36:076,18.776,0.047,0.066,-0.127,-16.072,97.483,-2.354
10:29:36:076,18.776,-0.028,0.127,0.096,-15.975,97.044,-0.784
10:29:36:096,18.796,-0.257,-0.016,-0.155,-15.826,96.395,0.180
10:29:36:124,18.824,-0.100,0.009,-0.155,-15.145,94.414,1.921
10:29:36:149,18.848,0.025,-0.003,0.001,-14.099,92.830,3.939
10:29:36:175,18.874,0.039,0.044,-0.006,-13.398,91.858,5.249
10:29:36:201,18.900,0.002,0.070,0.007,-12.317,90.094,7.071
10:29:36:257,18.957,-0.011,0.007,-0.103,-11.498,89.014,8.289
10:29:36:257,18.957,-0.012,0.034,-0.118,-10.151,87.756,10.140
10:29:36:279,18.979,-0.068,0.070,-0.097,-8.657,86.656,11.980
10:29:36:307,19.007,-0.090,0.095,-0.179,-7.535,85.909,13.249
10:29:36:333,19.033,-0.082,0.107,-0.347,-5.461,84.850,15.372
10:29:36:359,19.059,-0.009,0.182,-0.396,-3.851,84.370,17.026
10:29:36:385,19.085,-0.061,0.238,-0.487,-0.958,83.902,19.957
10:29:36:412,19.111,-0.422,0.360,-0.719,2.688,83.822,23.503
10:29:36:438,19.138,-0.507,0.454,-1.101,5.765,83.600,26.091
10:29:36:463,19.163,-0.732,0.132,-1.390,11.574,83.332,30.475
10:29:36:52,19.220,-0.644,0.373,-1.062,15.427,84.034,34.297
10:29:36:52,19.220,-0.782,-0.309,-0.869,20.532,86.686,40.401
10:29:36:542,19.241,-0.327,-0.032,0.302,23.576,88.696,43.771
10:29:36:568,19.268,-0.314,-0.917,-0.441,27.978,89.825,46.637
10:29:36:595,19.294,-0.027,-1.175,-0.328,29.230,90.017,46.571
10:29:36:623,19.323,-0.027,-1.235,-0.232,29.211,89.927,45.512
10:29:36:646,19.346,-0.058,-1.012,-0.307,26.614,90.038,42.562
10:29:36:673,19.373,-0.078,-0.774,-0.407,22.915,90.436,39.791
10:29:36:702,19.402,-0.160,-0.648,-0.504,16.507,91.218,34.165
10:29:36:703,19.402,-0.274,-0.287,-0.518,10.085,92.189,27.048
10:29:36:781,19.480,-0.330,-0.053,-0.492,5.987,93.045,21.667
10:29:36:781,19.481,-0.349,0.411,-0.432,0.189,94.578,12.667
10:29:36:836,19.536,-0.130,1.194,0.233,-3.695,96.130,6.052
10:29:36:837,19.537,0.211,1.486,0.762,-9.737,99.178,-4.487
10:29:36:837,19.537,0.445,0.714,1.351,-13.623,100.689,-11.132
10:29:36:886,19.586,1.348,0.066,2.259,-19.092,101.129,-19.316
10:29:36:887,19.587,1.737,-0.898,2.232,-23.310,98.485,-23.175
10:29:36:939,19.638,0.206,-0.193,1.608,-23.537,96.543,-22.455
10:29:36:939,19.639,0.186,1.049,-1.080,-21.917,95.221,-19.188
10:29:36:962,19.661,0.676,0.272,0.536,-20.818,95.339,-17.798
10:29:36:988,19.687,0.143,0.449,0.635,-18.598,95.563,-15.094
10:29:37:014,19.714,0.240,-0.146,0.158,-18.093,96.422,-11.739
10:29:37:041,19.740,-0.141,-0.048,0.446,-17.624,98.892,-10.125
10:29:37:068,19.768,0.041,-0.025,0.216,-17.397,99.994,-7.821
10:29:37:093,19.793,0.054,-0.040,-0.194,-17.246,97.711,-6.153
10:29:37:119,19.819,-0.112,0.043,-0.196,-16.896,95.356,-3.844
10:29:37:145,19.845,-0.199,0.170,0.081,-16.384,94.569,-2.253
10:29:37:172,19.872,-0.101,0.006,0.010,-15.385,93.349,0.090
10:29:37:198,19.898,-0.030,0.010,-0.179,-13.962,91.282,2.457
10:29:37:225,19.925,0.032,-0.026,-0.007,-12.868,90.403,4.058
10:29:37:251,19.951,0.002,0.023,0.077,-11.469,89.550,6.212
10:29:37:277,19.976,-0.009,0.044,-0.100,-10.597,88.747,7.497
10:29:37:332,20.031,0.026,0.009,-0.097,-9.307,87.468,9.224
10:29:37:333,20.032,0.024,0.037,-0.098,-8.018,86.476,10.916
10:29:37:357,20.057,-0.013,0.073,-0.093,-7.100,85.829,12.034
10:29:37:412,20.112,-0.045,0.110,-0.227,-5.588,84.835,13.714
10:29:37:413,20.113,-0.046,0.065,-0.305,-4.270,84.311,15.022
10:29:37:436,20.135,-0.035,0.202,-0.403,-1.995,83.894,17.374
10:29:37:491,20.190,-0.176,0.249,-0.516,0.826,84.352,20.280
10:29:37:491,20.191,-0.309,0.299,-0.619,3.128,84.509,22.557
10:29:37:513,20.212,-0.539,0.438,-1.174,7.495,84.583,26.231
10:29:37:539,20.239,-0.865,0.119,-1.397,11.281,84.374,28.984
10:29:37:567,20.267,-0.789,0.214,-1.339,17.186,85.612,34.711
10:29:37:593,20.293,-0.769,-0.233,-1.057,20.762,87.351,38.664
10:29:37:62,20.319,-0.678,-0.283,-0.604,25.872,90.418,43.601
10:29:37:645,20.344,-0.463,-0.923,-0.564,29.181,91.484,46.066
10:29:37:673,20.372,-0.139,-0.900,-0.420,29.586,91.735,46.061
10:29:37:698,20.398,-0.023,-1.070,-0.178,28.746,91.663,44.584
10:29:37:755,20.455,-0.045,-1.145,-0.196,26.328,91.524,42.521
10:29:37:755,20.455,-0.065,-0.864,-0.262,20.096,91.458,38.038
10:29:37:834,20.533,-0.056,-0.672,-0.334,13.084,91.253,31.679
10:29:37:834,20.534,-0.113,-0.399,-0.500,8.535,91.081,26.628
10:29:37:835,20.535,-0.138,-0.011,-0.592,2.176,91.362,18.297
10:29:37:856,20.556,-0.094,0.207,-0.541,-1.837,92.311,12.164
10:29:37:882,20.581,0.071,0.923,0.092,-7.689,95.199,1.885
10:29:37:938,20.638,0.537,1.523,1.144,-11.444,97.614,-5.436
10:29:37:939,20.639,0.581,0.860,1.532,-16.308,100.708,-15.449
10:29:37:987,20.687,1.438,-0.137,2.195,-20.850,102.144,-22.326
10:29:38:017,20.717,1.865,-0.942,2.241,-22.761,101.550,-24.384
10:29:38:017,20.717,0.475,-0.260,1.767,-21.807,100.572,-23.008
10:29:38:039,20.738,-0.968,1.233,-0.951,-21.015,100.312,-21.304
10:29:38:064,20.764,0.911,0.026,0.241,-19.570,98.416,-18.906
10:29:38:09,20.790,0.304,0.499,0.562,-18.210,97.403,-15.744
10:29:38:117,20.816,0.375,0.091,0.364,-17.805,97.864,-13.511
10:29:38:144,20.844,-0.134,-0.001,0.493,-17.425,100.350,-11.133
10:29:38:172,20.872,0.042,0.041,0.785,-17.336,100.686,-9.663
10:29:38:198,20.897,-0.068,-0.028,-0.193,-17.114,98.227,-7.453
10:29:38:224,20.923,-0.064,0.065,-0.127,-16.677,96.832,-5.505
10:29:38:249,20.948,-0.079,0.087,0.019,-16.217,96.457,-4.250
10:29:38:274,20.974,-0.064,0.005,-0.058,-15.313,94.950,-2.292
10:29:38:3,21.000,-0.012,0.000,-0.134,-14.632,93.648,-1.014
10:29:38:327,21.027,0.041,-0.050,-0.023,-13.480,92.206,0.919
10:29:38:354,21.054,-0.002,0.003,0.056,-12.742,91.513,2.112
10:29:38:379,21.079,-0.006,0.039,-0.033,-11.761,89.484,3.675
10:29:38:406,21.105,0.029,-0.009,-0.107,-10.755,88.150,5.109
10:29:38:432,21.131,0.006,0.018,-0.058,-10.078,86.676,6.040
10:29:38:458,21.157,-0.009,0.068,-0.081,-9.006,85.759,7.415
10:29:38:484,21.184,-0.023,0.076,-0.180,-8.116,84.395,8.357
10:29:38:51,21.210,-0.091,0.058,-0.263,-6.368,83.364,9.985
10:29:38:538,21.238,-0.124,0.110,-0.244,-4.142,82.198,12.051
10:29:38:563,21.263,-0.090,0.180,-0.275,-2.386,81.957,13.673
10:29:38:589,21.289,-0.181,0.300,-0.424,0.734,81.311,16.456
10:29:38:616,21.315,-0.270,0.439,-0.551,3.207,80.979,18.475
10:29:38:642,21.341,-0.386,0.415,-1.167,7.954,80.105,21.659
10:29:38:668,21.367,-0.703,0.159,-1.286,13.564,80.302,25.645
10:29:38:694,21.394,-0.625,0.344,-1.094,17.009,81.662,29.246
10:29:38:722,21.422,-0.763,-0.124,-0.872,22.001,85.366,34.994
10:29:38:748,21.447,-0.499,-0.423,-0.492,24.479,88.837,38.592
10:29:38:773,21.473,0.033,-0.175,0.355,27.504,93.532,42.601
10:29:38:799,21.499,-0.506,-0.927,-0.344,27.223,96.779,43.974
10:29:38:855,21.555,-0.222,-1.062,-0.248,27.050,98.234,43.583
10:29:38:856,21.555,-0.253,-1.082,-0.080,25.642,100.423,41.203
10:29:38:907,21.607,-0.302,-0.861,-0.170,23.370,101.861,38.480
10:29:38:907,21.607,-0.398,-0.615,-0.206,18.876,104.241,32.929
10:29:38:991,21.690,-0.580,-0.367,-0.258,15.751,105.783,28.322
10:29:38:991,21.690,-0.676,-0.096,-0.145,10.988,108.273,20.533
10:29:38:991,21.691,-0.714,0.219,0.009,6.049,111.492,12.155
10:29:39:012,21.712,-0.669,0.610,0.241,2.638,114.331,6.296
10:29:39:013,21.712,-0.186,1.026,0.898,-2.634,119.357,-2.834
10:29:39:062,21.761,0.235,0.828,1.283,-6.253,122.421,-8.835
10:29:39:149,21.849,0.930,0.458,1.333,-11.759,125.564,-17.018
10:29:39:15,21.850,2.729,0.077,1.479,-17.236,126.673,-23.070
10:29:39:151,21.850,2.414,-1.431,1.501,-18.465,125.775,-24.224
10:29:39:152,21.851,1.568,-0.490,0.780,-17.534,126.539,-21.900
10:29:39:169,21.868,-0.482,0.922,-1.476,-15.891,128.606,-19.962
10:29:39:251,21.951,1.173,0.257,0.360,-13.205,130.745,-17.474
10:29:39:252,21.951,0.412,0.702,0.757,-12.957,130.824,-15.031
10:29:39:253,21.952,0.149,-0.197,-0.234,-12.816,133.264,-11.697
10:29:39:272,21.972,0.483,0.120,0.734,-12.650,135.208,-9.211
10:29:39:298,21.998,0.205,-0.084,-0.283,-12.468,133.163,-7.719
10:29:39:326,22.026,-0.330,0.014,-0.107,-12.417,131.382,-5.840
10:29:39:351,22.051,-0.015,0.072,0.056,-12.117,131.542,-4.749
10:29:39:406,22.105,-0.121,0.099,-0.002,-11.499,130.852,-3.073
10:29:39:406,22.106,-0.093,-0.013,-0.120,-10.398,129.221,-1.241
10:29:39:488,22.188,-0.066,-0.005,-0.064,-9.495,128.693,0.048
10:29:39:488,22.188,0.071,-0.078,0.081,-8.223,128.757,1.898
10:29:39:489,22.189,0.017,0.030,-0.040,-7.483,128.329,2.953
10:29:39:508,22.208,-0.014,0.006,-0.063,-6.456,127.898,4.316
10:29:39:534,22.234,-0.080,0.027,-0.043,-5.439,127.455,5.553
10:29:39:56,22.260,-0.053,0.027,-0.055,-4.716,127.480,6.382
10:29:39:587,22.287,-0.084,0.120,-0.020,-3.514,127.272,7.634
10:29:39:613,22.313,-0.161,0.101,-0.058,-2.532,127.380,8.487
10:29:39:639,22.339,-0.210,0.112,-0.151,-0.709,126.958,9.975
10:29:39:665,22.365,-0.194,0.188,-0.241,0.738,127.179,11.162
10:29:39:692,22.392,-0.249,0.173,-0.342,3.327,127.364,13.282
10:29:39:718,22.418,-0.579,0.252,-0.135,6.296,128.455,15.848
10:29:39:744,22.444,-0.789,0.354,-0.114,8.575,129.169,17.756
10:29:39:771,22.470,-1.368,0.220,-0.071,12.705,130.470,20.940
10:29:39:826,22.526,-1.142,0.282,0.075,15.901,131.708,23.676
10:29:39:826,22.526,-1.116,0.076,0.292,20.951,133.872,28.448
10:29:39:85,22.550,-0.665,-0.282,-0.023,25.975,136.492,32.773
10:29:39:876,22.576,-0.128,-0.430,0.026,28.475,139.424,35.546
10:29:39:931,22.631,-0.674,-0.730,0.162,27.954,145.192,39.262
10:29:39:931,22.631,-0.400,-0.847,0.225,26.776,148.616,40.537
10:29:40:014,22.714,-0.374,-0.865,0.190,24.198,152.240,40.342
10:29:40:014,22.714,-0.388,-0.735,0.089,21.843,154.627,38.812
10:29:40:014,22.714,-0.435,-0.593,0.127,17.639,157.453,34.703
10:29:40:037,22.737,-0.466,-0.375,0.298,13.205,160.198,28.752
10:29:40:06,22.759,-0.497,-0.235,0.386,10.210,162.044,24.056
10:29:40:144,22.843,-0.396,0.046,0.481,5.468,165.415,16.367
10:29:40:144,22.844,-0.269,0.389,0.611,2.144,168.227,10.888
10:29:40:145,22.845,0.318,0.753,0.681,-2.805,172.895,2.104
10:29:40:222,22.922,0.928,0.932,0.576,-6.324,175.628,-3.970
10:29:40:223,22.923,1.491,0.724,-0.060,-12.306,178.110,-12.749
10:29:40:224,22.924,1.536,0.435,-0.532,-18.550,177.568,-19.989
10:29:40:301,23.001,2.480,-0.650,-0.949,-22.501,176.417,-23.420
10:29:40:303,23.002,1.476,-0.390,-0.418,-24.983,174.216,-24.147
10:29:40:303,23.003,0.287,-0.352,-0.794,-24.411,174.130,-22.286
10:29:40:322,23.021,-1.424,1.152,-1.398,-22.309,176.513,-20.135
10:29:40:378,23.078,0.832,0.192,-0.462,-19.181,-179.911,-18.259
10:29:40:378,23.078,0.670,0.452,-0.126,-18.796,-179.205,-16.124
10:29:40:4,23.100,0.301,-0.214,0.042,-18.242,-176.070,-13.117
10:29:40:427,23.127,0.924,-0.090,-0.002,-17.768,-174.141,-11.560
10:29:40:453,23.153,0.129,-0.032,-0.308,-17.380,-176.266,-8.990
10:29:40:48,23.180,-0.250,-0.021,-0.053,-17.315,-178.574,-6.707
10:29:40:566,23.265,0.126,0.040,-0.032,-17.210,-178.593,-5.479
10:29:40:566,23.265,0.112,0.067,0.154,-16.873,-179.191,-3.728
10:29:40:566,23.265,-0.213,0.055,0.023,-16.318,179.327,-2.382
10:29:40:586,23.286,-0.090,0.010,-0.018,-14.985,177.840,-0.084
10:29:40:64,23.339,0.075,-0.027,-0.006,-13.517,177.099,2.194
10:29:40:641,23.340,0.022,0.016,-0.038,-12.583,176.295,3.616
10:29:40:664,23.363,-0.105,0.024,-0.040,-11.224,174.986,5.552
10:29:40:747,23.447,-0.059,0.011,-0.061,-10.336,174.396,6.758
10:29:40:748,23.447,-0.004,0.009,-0.050,-9.106,173.727,8.432
10:29:40:749,23.448,-0.033,0.077,-0.012,-7.965,173.021,9.873
10:29:40:768,23.468,-0.081,0.142,-0.036,-7.174,172.503,10.732
10:29:40:854,23.553,-0.298,0.132,-0.062,-5.706,172.263,12.170
10:29:40:854,23.553,-0.337,0.147,-0.077,-4.472,171.924,13.397
10:29:40:854,23.554,-0.303,0.206,0.102,-2.203,172.459,15.659
10:29:40:904,23.604,-0.409,0.374,0.350,0.601,173.098,18.334
10:29:40:904,23.604,-0.674,0.366,0.222,2.953,173.052,20.282
10:29:40:926,23.625,-1.094,0.307,0.549,7.214,173.017,23.456
10:29:40:952,23.652,-0.924,0.136,0.739,10.542,173.152,26.027
10:29:41:008,23.707,-0.757,0.178,0.825,15.633,174.158,30.934
10:29:41:008,23.708,-0.826,-0.273,0.575,19.149,175.033,34.102
10:29:41:031,23.730,-0.111,-0.213,0.335,23.894,177.403,38.115
10:29:41:057,23.756,-0.484,-0.840,0.457,26.759,178.974,40.903
10:29:41:083,23.783,-0.416,-0.848,0.163,26.662,-179.540,41.488
10:29:41:109,23.809,-0.291,-1.050,0.100,25.433,-178.627,40.917
10:29:41:136,23.835,-0.305,-1.003,0.099,23.263,-177.394,39.575
10:29:41:164,23.864,-0.405,-0.705,0.149,17.901,-175.902,36.208
10:29:41:188,23.888,-0.418,-0.495,0.238,11.786,-174.200,31.052
10:29:41:215,23.914,-0.396,-0.346,0.262,7.749,-172.953,26.762
10:29:41:242,23.941,-0.426,-0.026,0.298,2.087,-170.814,19.355
10:29:41:267,23.967,-0.262,0.426,0.345,-1.519,-168.963,13.815
10:29:41:293,23.992,0.026,0.732,0.230,-6.706,-165.547,4.492
10:29:41:319,24.019,0.793,1.184,-0.339,-11.998,-161.977,-5.641
10:29:41:348,24.048,1.089,0.945,-0.420,-15.523,-160.440,-12.101
10:29:41:349,24.049,1.814,0.136,-1.308,-20.791,-159.868,-19.773
10:29:41:401,24.101,1.794,-0.802,-2.102,-24.317,-160.998,-23.036
10:29:41:402,24.101,1.617,-0.477,-0.950,-26.009,-163.660,-23.392
10:29:41:426,24.126,-0.796,0.544,0.261,-24.747,-164.231,-21.202
10:29:41:452,24.151,-0.484,0.255,-1.061,-22.742,-163.275,-19.005
10:29:41:479,24.179,0.645,0.466,-0.326,-20.673,-162.533,-16.196
10:29:41:504,24.204,0.297,0.262,-0.239,-20.349,-162.490,-13.873
10:29:41:53,24.230,0.447,-0.099,0.049,-19.494,-160.229,-11.231
10:29:41:557,24.256,0.676,0.009,-0.133,-19.116,-159.903,-9.631
10:29:41:611,24.310,-0.164,-0.028,-0.193,-18.645,-162.892,-7.065
10:29:41:612,24.311,-0.048,0.014,-0.032,-18.330,-164.437,-5.031
10:29:41:635,24.334,0.096,0.077,-0.008,-18.057,-164.490,-3.951
10:29:41:661,24.360,-0.024,0.053,0.087,-17.506,-165.477,-2.265
10:29:41:687,24.387,-0.141,0.036,0.017,-16.941,-166.679,-1.028
10:29:41:713,24.413,-0.060,-0.005,-0.058,-15.742,-167.977,0.956
10:29:41:739,24.439,0.040,0.051,-0.096,-14.534,-168.952,2.819
10:29:41:766,24.465,-0.033,0.047,-0.049,-13.773,-169.841,3.936
10:29:41:794,24.493,-0.129,0.026,-0.020,-12.566,-171.285,5.497
10:29:41:82,24.520,-0.063,-0.012,-0.033,-11.680,-172.082,6.498
10:29:41:902,24.602,-0.046,0.031,0.052,-10.257,-173.153,7.993
10:29:41:903,24.603,-0.068,0.063,0.026,-9.258,-173.969,8.971
10:29:41:904,24.604,-0.148,0.041,0.025,-7.538,-174.841,10.533
10:29:41:924,24.624,-0.269,0.177,0.068,-5.428,-175.933,12.372
10:29:41:952,24.651,-0.364,0.156,0.016,-3.750,-176.262,13.847
10:29:41:977,24.677,-0.367,0.264,0.135,-0.830,-176.326,16.529
10:29:42:003,24.702,-0.694,0.610,0.518,1.477,-176.254,18.568
10:29:42:029,24.728,-1.193,0.488,0.797,6.063,-176.596,21.822
10:29:42:054,24.754,-1.192,0.334,0.925,11.842,-175.949,26.210
10:29:42:082,24.782,-0.853,0.499,0.831,15.417,-174.254,30.023
10:29:42:107,24.807,-0.738,-0.399,0.958,20.405,-170.197,35.749
10:29:42:161,24.861,-0.259,-0.651,0.323,24.313,-161.950,42.870
10:29:42:185,24.885,-0.212,-0.992,0.354,24.059,-159.737,43.408
10:29:42:212,24.911,-0.027,-1.112,0.285,23.832,-157.295,42.275
10:29:42:238,24.937,-0.083,-0.973,0.333,21.652,-154.836,39.235
10:29:42:264,24.964,-0.114,-0.769,0.420,18.715,-152.779,36.255
10:29:42:29,24.990,-0.021,-0.499,0.557,13.857,-149.554,30.181
10:29:42:317,25.017,0.026,-0.343,0.562,10.777,-147.555,25.204
10:29:42:343,25.043,0.116,-0.005,0.640,6.301,-144.745,16.786
10:29:42:37,25.069,0.248,0.477,0.538,1.570,-141.570,7.588
10:29:42:396,25.095,0.511,0.831,0.225,-1.927,-138.707,1.108
10:29:42:423,25.122,0.770,1.090,-0.788,-7.537,-133.356,-8.656
10:29:42:451,25.151,1.072,0.653,-1.327,-10.961,-129.893,-14.672
10:29:42:474,25.174,1.068,0.198,-1.911,-15.458,-125.774,-22.124
10:29:42:502,25.202,0.702,-1.161,-2.820,-18.655,-124.309,-26.437
10:29:42:527,25.227,0.946,-0.282,-1.416,-18.750,-124.681,-26.264
10:29:42:553,25.253,0.142,0.236,0.643,-17.202,-125.035,-23.258
10:29:42:579,25.279,-0.742,0.389,-0.165,-16.869,-125.395,-21.875
10:29:42:606,25.305,0.243,0.511,-0.692,-15.261,-126.394,-19.147
10:29:42:661,25.361,0.115,0.096,-0.666,-14.963,-125.767,-16.995
10:29:42:661,25.361,0.306,-0.112,-0.395,-14.548,-122.428,-14.378
10:29:42:713,25.413,0.142,-0.043,-0.147,-14.569,-121.480,-11.918
10:29:42:714,25.414,-0.039,-0.043,0.232,-14.431,-123.195,-10.304
10:29:42:737,25.436,-0.075,0.059,0.003,-13.967,-124.478,-8.101
10:29:42:764,25.464,0.060,0.078,-0.029,-13.460,-124.707,-6.683
10:29:42:79,25.489,-0.045,0.039,0.105,-12.554,-125.564,-4.644
10:29:42:845,25.545,-0.081,0.019,0.060,-11.335,-126.667,-2.492
10:29:42:846,25.546,-0.023,-0.003,-0.041,-10.436,-127.044,-1.009
10:29:42:868,25.568,-0.001,0.004,-0.163,-9.150,-127.618,1.089
10:29:42:952,25.652,0.008,0.017,-0.073,-8.390,-128.223,2.294
10:29:42:953,25.653,-0.021,0.005,-0.005,-7.295,-129.242,3.805
10:29:42:954,25.654,-0.078,0.059,0.027,-6.567,-129.784,4.695
10:29:42:973,25.673,-0.044,0.078,0.046,-5.379,-130.350,6.016
10:29:43:028,25.728,0.009,0.116,0.116,-3.963,-130.932,7.376
10:29:43:029,25.729,-0.036,0.107,0.170,-2.791,-131.323,8.380
10:29:43:082,25.781,-0.239,0.210,0.237,-0.646,-131.222,10.159
10:29:43:082,25.782,-0.303,0.231,0.349,2.050,-130.852,12.405
10:29:43:104,25.804,-0.092,0.280,0.516,4.152,-130.430,14.240
10:29:43:131,25.830,-0.009,0.478,0.986,7.771,-129.402,17.348
10:29:43:159,25.858,0.014,0.362,1.382,10.831,-128.981,19.592
10:29:43:212,25.912,0.170,0.390,1.365,16.127,-127.443,24.086
10:29:43:213,25.913,0.174,-0.119,1.248,19.720,-125.448,27.851
10:29:43:235,25.935,0.208,-0.439,1.098,24.637,-121.415,33.304
10:29:43:262,25.961,0.117,-0.639,0.356,27.909,-115.901,38.265
10:29:43:289,25.989,0.492,-0.810,0.766,26.846,-111.993,40.598
10:29:43:317,26.016,0.261,-0.868,0.175,24.623,-107.442,41.599
10:29:43:342,26.042,0.244,-1.019,0.143,23.113,-104.376,40.807
10:29:43:368,26.067,0.209,-0.873,0.221,19.705,-102.368,37.402
10:29:43:393,26.093,0.185,-0.622,0.357,15.394,-100.818,31.809
10:29:43:419,26.119,0.254,-0.415,0.422,12.317,-99.893,27.098
10:29:43:446,26.145,0.294,-0.170,0.419,7.370,-98.436,19.013
10:29:43:472,26.172,0.350,0.283,0.420,3.797,-96.957,13.222
10:29:43:498,26.198,0.404,0.789,0.037,-1.934,-93.015,4.013
10:29:43:583,26.283,0.078,1.200,-0.840,-5.799,-89.129,-2.510
10:29:43:583,26.283,-0.133,0.924,-1.431,-10.976,-84.091,-12.421
10:29:43:584,26.284,-0.509,0.162,-1.917,-15.439,-81.687,-20.987
10:29:43:631,26.330,-1.141,-0.256,-2.382,-18.868,-81.643,-25.220
10:29:43:657,26.356,-0.788,-0.773,-1.980,-22.541,-84.463,-27.641
10:29:43:719,26.418,-0.021,-0.165,-0.532,-22.601,-86.312,-26.380
10:29:43:719,26.418,-0.268,1.260,1.099,-21.632,-87.998,-23.294
10:29:43:719,26.418,-0.399,0.528,-0.588,-19.338,-88.960,-20.622
10:29:43:72,26.419,-0.270,0.357,-0.626,-18.675,-89.109,-18.432
10:29:43:767,26.466,-0.121,-0.143,-0.145,-17.770,-86.800,-15.449
10:29:43:767,26.466,0.194,-0.109,-0.987,-17.366,-84.480,-13.934
10:29:43:787,26.487,-0.103,-0.043,0.012,-17.167,-85.524,-11.450
10:29:43:84,26.539,-0.006,0.048,0.212,-17.183,-87.528,-9.939
10:29:43:872,26.571,0.014,0.068,-0.047,-16.899,-88.611,-7.839
10:29:43:872,26.571,0.042,-0.034,-0.093,-16.274,-89.117,-5.664
10:29:43:892,26.591,0.048,0.040,0.103,-15.603,-90.537,-4.098
10:29:43:918,26.617,-0.046,-0.008,0.044,-14.327,-92.466,-1.659
10:29:43:944,26.644,-0.037,0.014,-0.158,-13.364,-93.148,-0.046
10:29:43:971,26.671,-0.011,0.041,-0.040,-11.982,-94.427,2.212
10:29:44:,26.699,-0.047,0.011,0.024,-10.549,-96.176,4.181
10:29:44:052,26.751,-0.055,-0.013,0.048,-9.526,-97.083,5.426
10:29:44:053,26.752,-0.094,0.119,-0.028,-8.105,-98.001,7.168
10:29:44:104,26.804,0.040,0.126,0.073,-7.158,-98.709,8.219
10:29:44:105,26.805,0.081,0.123,0.257,-5.477,-99.884,9.834
10:29:44:128,26.828,-0.099,0.225,0.360,-3.326,-100.724,11.884
10:29:44:184,26.883,-0.038,0.277,0.434,-1.582,-100.953,13.579
10:29:44:184,26.884,0.189,0.357,0.555,1.459,-100.823,16.625
10:29:44:209,26.908,0.335,0.466,0.826,3.841,-100.621,18.898
10:29:44:234,26.933,0.957,0.399,1.247,8.245,-100.630,22.499
10:29:44:261,26.960,0.820,0.380,1.116,11.953,-100.647,25.278
10:29:44:287,26.986,0.952,0.055,1.015,17.430,-98.906,30.956
10:29:44:312,27.012,0.389,0.046,0.352,22.559,-96.380,36.017
10:29:44:367,27.067,-0.024,-0.278,0.297,26.011,-94.870,38.601
10:29:44:368,27.067,0.319,-0.863,0.519,26.627,-92.125,41.185
10:29:44:391,27.090,0.192,-1.121,0.133,25.885,-90.396,41.604
10:29:44:449,27.149,0.105,-1.151,0.082,23.168,-88.464,40.160
10:29:44:449,27.149,0.151,-0.872,0.237,18.121,-87.235,36.788
10:29:44:47,27.170,0.142,-0.787,0.272,14.384,-86.863,33.002
10:29:44:526,27.226,0.263,-0.493,0.384,8.647,-86.549,25.868
10:29:44:526,27.226,0.286,-0.221,0.461,4.887,-86.396,20.382
10:29:44:549,27.248,0.268,0.166,0.449,-0.754,-85.676,11.303
10:29:44:633,27.332,0.226,0.658,0.311,-4.644,-84.364,4.608
10:29:44:633,27.332,-0.166,1.401,-0.740,-10.681,-80.859,-6.438
10:29:44:656,27.355,-0.554,1.213,-1.699,-16.955,-78.039,-16.991
10:29:44:656,27.356,-0.528,0.242,-2.251,-21.192,-77.692,-22.603
10:29:44:68,27.380,-2.343,-1.391,-2.807,-27.107,-80.882,-26.599
10:29:44:735,27.434,-0.577,-0.220,-1.594,-27.872,-83.529,-25.395
10:29:44:736,27.435,0.052,0.132,0.796,-25.834,-83.871,-21.834
10:29:44:816,27.516,-1.392,-0.073,-0.149,-22.568,-80.820,-19.938
10:29:44:817,27.516,-0.975,0.430,-1.037,-20.948,-79.321,-17.804
10:29:44:818,27.517,-0.205,0.181,-0.500,-20.344,-77.927,-14.058
10:29:44:837,27.536,0.100,-0.218,-0.604,-19.545,-75.981,-12.342
10:29:44:865,27.565,-0.202,-0.075,-0.353,-18.763,-77.267,-9.644
10:29:44:889,27.589,-0.066,0.064,0.402,-18.669,-79.906,-7.982
10:29:44:916,27.615,0.130,0.069,0.083,-18.562,-81.087,-5.903
10:29:44:942,27.642,0.170,0.128,-0.284,-18.048,-81.551,-4.066
10:29:44:999,27.699,0.115,0.060,0.092,-17.466,-83.304,-2.560
10:29:44:999,27.699,0.000,0.025,0.168,-16.151,-85.794,-0.029
10:29:45:022,27.722,-0.060,-0.004,-0.065,-15.101,-86.796,1.674
10:29:45:047,27.746,-0.038,0.035,-0.009,-13.601,-88.463,3.987
10:29:45:073,27.773,-0.062,0.049,0.108,-12.097,-90.345,6.006
10:29:45:102,27.801,-0.031,0.006,0.074,-11.019,-91.354,7.286
10:29:45:127,27.826,0.072,0.027,-0.013,-9.442,-92.511,9.187
10:29:45:154,27.854,0.061,0.136,0.188,-8.368,-93.271,10.422
10:29:45:178,27.878,0.005,0.114,0.352,-6.468,-94.325,12.474
10:29:45:204,27.904,-0.095,0.244,0.457,-4.992,-94.893,14.177
10:29:45:231,27.930,0.064,0.271,0.465,-2.398,-94.767,17.302
10:29:45:257,27.957,0.375,0.379,0.629,0.929,-94.639,21.049
10:29:45:283,27.983,0.451,0.517,1.083,3.770,-94.825,23.786
10:29:45:309,28.009,0.984,0.331,1.295,9.320,-95.412,28.268
10:29:45:336,28.035,0.708,0.402,1.249,13.282,-94.941,32.169
10:29:45:362,28.061,0.877,-0.281,1.128,18.312,-92.415,38.035
10:29:45:388,28.088,0.572,-0.262,0.256,23.303,-89.685,42.342
10:29:45:416,28.116,0.516,-1.014,0.543,25.340,-89.391,43.576
10:29:45:442,28.142,0.075,-1.146,0.413,25.455,-89.895,42.918
10:29:45:468,28.168,0.062,-1.189,0.214,24.669,-90.300,41.245
10:29:45:522,28.222,0.116,-1.085,0.293,21.172,-90.933,37.001
10:29:45:523,28.223,0.118,-0.667,0.451,15.175,-90.901,31.097
10:29:45:548,28.247,0.126,-0.495,0.474,10.900,-90.570,26.329
10:29:45:573,28.273,0.235,-0.109,0.536,4.553,-89.454,18.168
10:29:45:6,28.299,0.240,0.200,0.478,0.413,-87.955,12.161
10:29:45:626,28.326,0.114,0.948,0.069,-5.554,-84.030,2.085
10:29:45:71,28.409,-0.215,1.453,-1.107,-10.935,-78.646,-8.979
10:29:45:71,28.409,-0.385,1.127,-1.717,-14.058,-75.586,-15.906
10:29:45:711,28.410,-0.806,-0.083,-2.437,-18.785,-73.252,-24.093
10:29:45:758,28.458,-2.126,-1.066,-2.225,-22.254,-73.990,-27.121
10:29:45:759,28.459,-0.780,-0.550,-1.641,-23.733,-76.980,-26.887
10:29:45:784,28.483,-0.328,-0.083,0.276,-22.396,-77.218,-24.743
10:29:45:81,28.510,-0.544,1.008,1.148,-20.686,-75.540,-22.729
10:29:45:836,28.536,-0.901,0.446,-0.770,-18.077,-75.427,-19.818
10:29:45:862,28.562,-0.084,0.532,-0.720,-17.946,-75.648,-17.419
10:29:45:888,28.587,-0.042,-0.228,-0.384,-17.183,-73.098,-14.554
10:29:45:914,28.614,-0.225,0.047,-0.904,-16.969,-71.899,-13.117
10:29:45:942,28.642,-0.016,-0.065,0.196,-16.726,-74.525,-10.774
10:29:45:943,28.642,0.115,0.081,0.092,-16.287,-76.248,-8.731
10:29:45:965,28.665,0.021,0.057,-0.031,-15.724,-76.589,-7.371
10:29:45:992,28.692,0.060,-0.011,-0.041,-14.677,-77.897,-5.220
10:29:46:045,28.744,0.044,0.013,0.080,-13.878,-79.341,-3.773
10:29:46:073,28.773,-0.076,-0.029,0.035,-12.484,-80.804,-1.592
10:29:46:074,28.774,-0.073,0.032,-0.170,-11.630,-81.448,-0.271
10:29:46:126,28.826,-0.030,0.049,-0.074,-10.501,-83.005,1.382
10:29:46:127,28.827,0.008,-0.030,0.102,-9.292,-84.715,2.848
10:29:46:151,28.851,0.051,0.012,0.061,-8.416,-85.456,3.842
10:29:46:204,28.904,0.014,0.116,0.036,-6.958,-87.078,5.375
10:29:46:205,28.905,0.071,0.144,0.174,-5.801,-87.778,6.448
10:29:46:231,28.930,0.089,0.132,0.261,-3.696,-89.460,8.282
10:29:46:254,28.954,-0.020,0.257,0.417,-1.168,-89.966,10.575
10:29:46:281,28.980,0.036,0.290,0.470,0.836,-90.587,12.428
10:29:46:309,29.008,0.478,0.420,0.605,4.422,-90.264,15.734
10:29:46:335,29.034,0.582,0.544,0.927,7.343,-90.219,18.142
10:29:46:359,29.059,1.324,0.264,1.207,12.706,-89.689,22.337
10:29:46:387,29.087,1.085,0.319,0.647,17.957,-86.754,28.333
10:29:46:414,29.113,1.064,-0.231,0.780,20.958,-83.936,32.308
10:29:46:438,29.138,0.445,-0.446,-0.122,24.267,-78.771,37.717
10:29:46:465,29.164,0.609,-0.988,0.392,25.294,-76.270,39.923
10:29:46:492,29.191,0.480,-1.122,0.381,24.968,-73.598,40.430
10:29:46:546,29.246,0.405,-1.162,0.190,24.458,-72.175,39.392
10:29:46:547,29.246,0.472,-0.883,0.206,21.788,-70.043,35.970
10:29:46:569,29.269,0.503,-0.568,0.199,17.272,-67.325,30.574
10:29:46:596,29.295,0.576,-0.396,0.148,14.094,-65.351,25.929
10:29:46:624,29.323,0.678,-0.045,0.017,9.384,-62.203,17.758
10:29:46:649,29.348,0.718,0.299,-0.183,6.206,-59.808,11.815
10:29:46:675,29.374,0.603,0.721,-0.439,1.381,-55.408,2.296
10:29:46:73,29.430,-0.098,1.151,-1.140,-3.574,-49.695,-7.703
10:29:46:731,29.430,-0.587,0.883,-1.455,-6.901,-45.493,-14.097
10:29:46:753,29.453,-1.538,0.349,-1.423,-11.544,-40.164,-22.361
10:29:46:781,29.480,-2.782,0.016,-1.135,-14.611,-38.021,-26.472
10:29:46:807,29.507,-1.594,-0.707,-0.944,-16.306,-38.032,-28.280
10:29:46:834,29.533,-1.711,-0.484,-0.406,-15.181,-37.256,-26.392
10:29:46:859,29.559,1.713,1.531,0.487,-11.874,-34.179,-22.604
10:29:46:885,29.585,-0.969,0.282,-0.834,-9.099,-33.537,-18.235
10:29:46:911,29.611,-0.720,0.595,0.019,-8.616,-32.204,-14.895
10:29:46:937,29.637,-0.131,-0.341,-0.332,-7.481,-31.167,-9.702
10:29:46:963,29.663,-0.273,-0.029,-0.113,-7.004,-31.565,-6.871
10:29:46:99,29.689,-0.090,-0.028,0.158,-6.349,-33.334,-3.893
10:29:47:016,29.715,-0.024,0.135,0.074,-6.064,-34.199,-1.615
10:29:47:044,29.744,-0.044,0.145,-0.036,-5.941,-34.439,-0.294
10:29:47:068,29.768,-0.108,-0.036,0.020,-5.521,-35.159,1.330
10:29:47:124,29.824,-0.013,-0.017,0.063,-5.282,-35.994,2.170
10:29:47:124,29.824,-0.018,-0.025,-0.116,-4.996,-36.851,3.208
10:29:47:147,29.847,-0.031,-0.026,-0.042,-4.838,-37.442,3.819
10:29:47:175,29.875,0.028,-0.034,-0.040,-4.591,-38.433,4.664
10:29:47:202,29.901,0.066,0.038,-0.088,-4.232,-39.160,5.444
10:29:47:226,29.925,0.013,0.063,0.010,-3.892,-39.607,5.961
10:29:47:281,29.981,0.071,0.104,0.047,-3.215,-40.373,6.802
10:29:47:281,29.981,0.137,0.170,0.043,-2.655,-40.878,7.394
10:29:47:304,30.004,0.284,0.155,0.054,-1.406,-41.718,8.489
10:29:47:33,30.030,0.343,0.218,0.221,0.543,-42.341,10.304
10:29:47:357,30.057,0.299,0.255,0.280,2.204,-43.691,11.979
10:29:47:384,30.084,0.597,0.358,0.107,5.188,-43.373,14.931
10:29:47:409,30.109,1.038,0.411,0.153,7.622,-44.586,17.095
10:29:47:436,30.135,1.609,0.349,0.054,12.123,-44.479,20.672
10:29:47:489,30.188,1.230,0.306,-0.173,17.570,-43.029,25.700
10:29:47:519,30.219,1.343,0.063,-0.339,20.899,-40.828,29.890
10:29:47:519,30.219,1.035,-0.544,-0.136,25.630,-36.866,35.397
10:29:47:541,30.240,-0.053,-0.279,-0.206,28.462,-33.928,38.382
10:29:47:567,30.267,0.784,-0.863,-0.217,28.383,-29.869,41.153
10:29:47:622,30.322,0.409,-1.010,-0.091,27.585,-27.745,41.399
10:29:47:623,30.323,0.386,-1.053,-0.170,25.369,-25.326,39.661
10:29:47:646,30.345,0.467,-0.776,-0.129,22.653,-23.773,37.176
10:29:47:672,30.371,0.460,-0.514,-0.174,17.492,-21.163,31.647
10:29:47:728,30.427,0.415,-0.355,-0.262,12.452,-18.665,24.157
10:29:47:729,30.428,0.488,-0.079,-0.396,9.210,-17.089,18.377
10:29:47:753,30.452,0.447,0.410,-0.453,4.045,-14.145,9.038
10:29:47:806,30.505,-0.082,1.021,-0.518,-1.525,-9.650,-0.944
10:29:47:807,30.506,-1.086,1.337,-0.189,-5.390,-5.712,-7.738
10:29:47:83,30.529,-1.888,0.636,-0.174,-10.609,-0.514,-17.241
10:29:47:856,30.555,-2.427,0.169,0.029,-13.701,1.570,-22.522
10:29:47:882,30.582,-3.013,-1.355,1.280,-18.230,0.842,-27.485
10:29:47:908,30.608,-1.809,-0.340,-0.089,-19.363,-1.621,-27.434
10:29:47:934,30.634,-0.272,-0.144,0.455,-18.666,-4.477,-24.133
10:29:47:961,30.661,-0.678,0.205,0.339,-17.131,-6.035,-21.743
10:29:47:987,30.686,-0.366,0.568,0.260,-15.984,-6.319,-19.749
10:29:48:096,30.796,-0.296,0.104,0.264,-15.368,-4.171,-16.344
10:29:48:097,30.796,-0.850,-0.088,-0.277,-14.858,-1.435,-14.594
10:29:48:129,30.829,-0.620,0.027,0.001,-14.826,-0.863,-12.317
10:29:48:13,30.829,0.325,0.026,0.054,-15.117,-4.254,-10.247
10:29:48:13,30.829,0.202,0.106,-0.168,-15.176,-4.865,-9.031
10:29:48:13,30.830,-0.134,0.137,-0.181,-14.716,-5.225,-6.918
10:29:48:174,30.873,0.129,0.001,-0.041,-14.159,-6.333,-5.337
10:29:48:175,30.874,0.136,0.033,0.021,-13.098,-8.619,-2.991
10:29:48:197,30.896,-0.042,-0.050,0.007,-12.184,-9.488,-1.359
10:29:48:252,30.952,-0.144,0.012,-0.015,-10.908,-10.385,0.875
10:29:48:253,30.953,0.031,0.042,-0.020,-9.747,-11.956,2.798
10:29:48:279,30.979,0.068,-0.027,0.021,-8.935,-12.996,3.966
10:29:48:331,31.031,0.029,0.061,0.002,-7.691,-14.035,5.666
10:29:48:332,31.032,0.029,0.084,0.025,-6.829,-14.586,6.753
10:29:48:412,31.112,0.144,0.130,-0.071,-5.358,-15.557,8.310
10:29:48:413,31.113,0.301,0.101,-0.057,-3.472,-16.415,10.130
10:29:48:414,31.114,0.343,0.160,0.009,-1.934,-16.867,11.675
10:29:48:434,31.134,0.391,0.299,0.090,0.759,-16.744,14.534
10:29:48:46,31.159,0.697,0.509,-0.295,2.907,-16.607,16.781
10:29:48:544,31.244,1.048,0.585,-0.213,7.001,-16.704,20.362
10:29:48:545,31.244,1.542,0.208,-0.720,10.557,-16.853,22.926
10:29:48:545,31.245,1.199,0.473,-0.506,16.203,-15.679,28.256
10:29:48:595,31.295,1.109,-0.175,-0.791,21.475,-12.432,34.446
10:29:48:595,31.295,0.901,-0.518,-0.596,24.279,-9.489,38.068
10:29:48:646,31.346,0.549,-0.864,-0.431,27.367,-5.452,42.269
10:29:48:647,31.346,0.465,-1.053,-0.296,26.869,-3.454,43.345
10:29:48:67,31.369,0.240,-1.124,-0.169,25.899,-1.591,42.563
10:29:48:697,31.396,0.313,-0.953,-0.196,23.118,-0.294,39.349
10:29:48:722,31.422,0.319,-0.798,-0.172,20.007,0.543,35.983
10:29:48:748,31.447,0.420,-0.581,-0.209,15.055,1.558,29.196
10:29:48:774,31.474,0.401,-0.272,-0.296,11.729,2.167,23.732
10:29:48:8,31.500,0.394,-0.002,-0.361,6.556,3.311,14.603
10:29:48:827,31.527,0.310,0.656,-0.356,1.036,5.238,4.582
10:29:48:854,31.554,-0.502,1.309,-0.013,-2.983,7.980,-2.463
10:29:48:88,31.579,-1.280,1.344,0.145,-8.489,13.619,-12.998
10:29:48:906,31.605,-2.556,0.319,0.615,-11.355,17.519,-19.285
10:29:48:932,31.631,-2.784,-0.805,2.998,-15.605,20.817,-26.029
10:29:48:96,31.660,-1.854,-0.103,0.241,-16.964,19.383,-27.415
10:29:48:984,31.684,-0.062,0.222,-0.167,-16.202,17.205,-24.537
10:29:49:011,31.711,-1.107,0.305,0.656,-14.586,15.859,-21.809
10:29:49:037,31.737,-0.952,0.397,0.571,-13.286,15.387,-19.355
10:29:49:063,31.763,-0.163,-0.072,0.402,-12.754,16.235,-15.586
10:29:49:091,31.791,-0.308,-0.208,-0.187,-12.382,18.394,-13.592
10:29:49:145,31.844,-0.343,0.022,0.248,-12.133,19.284,-10.993
10:29:49:145,31.845,0.344,0.027,-0.131,-11.958,16.032,-8.884
10:29:49:169,31.869,0.028,-0.062,-0.187,-11.764,15.523,-7.799
10:29:49:195,31.895,-0.197,0.170,0.102,-11.311,15.837,-6.456
10:29:49:221,31.921,0.152,0.017,-0.228,-10.957,15.041,-5.388
10:29:49:247,31.947,0.081,-0.050,-0.207,-9.993,13.541,-3.450
10:29:49:273,31.973,-0.038,-0.029,-0.009,-9.111,13.016,-2.033
10:29:49:299,31.999,-0.067,0.015,0.082,-7.775,12.597,0.043
10:29:49:328,32.027,-0.031,0.054,0.050,-6.560,12.052,1.883
10:29:49:353,32.053,0.012,0.048,-0.031,-5.770,11.515,2.951
10:29:49:378,32.078,0.023,0.064,0.012,-4.543,10.846,4.375
10:29:49:405,32.104,0.072,0.081,-0.039,-3.674,10.397,5.269
10:29:49:432,32.132,0.124,0.134,-0.109,-2.199,9.652,6.602
10:29:49:457,32.157,0.177,0.180,-0.177,-0.305,9.245,8.189
10:29:49:483,32.183,0.265,0.238,-0.128,1.191,8.981,9.491
10:29:49:509,32.209,0.411,0.239,-0.097,3.936,8.892,11.842
10:29:49:565,32.265,0.407,0.417,-0.564,6.098,9.057,13.708
10:29:49:566,32.266,0.658,0.499,-0.756,9.902,9.516,16.766
10:29:49:589,32.289,0.846,0.242,-1.454,13.138,9.765,18.993
10:29:49:673,32.372,0.704,0.282,-1.239,18.474,11.377,23.593
10:29:49:673,32.373,0.578,-0.178,-1.100,23.763,14.565,29.196
10:29:49:674,32.374,0.555,-0.557,-0.928,26.709,17.631,32.761
10:29:49:722,32.422,0.076,-0.486,-0.114,29.784,23.401,37.692
10:29:49:723,32.423,0.179,-0.937,-0.655,29.119,27.302,39.958
10:29:49:746,32.446,-0.010,-0.989,-0.423,27.554,31.765,40.775
10:29:49:773,32.473,0.004,-0.982,-0.485,25.387,35.936,39.175
10:29:49:799,32.498,0.025,-0.741,-0.551,22.813,38.147,36.808
10:29:49:827,32.527,-0.072,-0.473,-0.617,18.208,41.754,31.609
10:29:49:851,32.550,-0.149,-0.340,-0.648,15.169,44.109,27.043
10:29:49:962,32.661,-0.354,-0.046,-0.734,10.752,47.534,19.018
10:29:49:963,32.662,-0.583,0.443,-0.665,6.110,51.462,10.278
10:29:49:963,32.663,-0.757,0.701,-0.395,2.842,54.645,4.190
10:29:49:986,32.685,-1.093,1.097,0.459,-2.336,60.023,-5.194
10:29:49:986,32.685,-0.889,0.566,1.282,-5.983,63.424,-11.211
10:29:50:008,32.708,-0.689,0.321,1.671,-11.438,66.775,-19.229
10:29:50:034,32.734,0.022,-0.686,3.275,-15.186,67.811,-23.390
10:29:50:061,32.760,-0.487,-0.019,1.382,-17.896,67.002,-25.694
10:29:50:088,32.788,0.972,0.201,0.820,-16.544,68.026,-22.788
10:29:50:143,32.843,0.360,0.270,0.745,-14.455,69.973,-21.080
10:29:50:143,32.843,-0.688,0.693,1.224,-12.786,70.222,-17.534
10:29:50:166,32.865,0.323,0.385,0.608,-13.076,70.709,-14.888
10:29:50:192,32.891,-0.328,-0.046,0.698,-12.645,73.440,-11.811
10:29:50:218,32.918,0.370,-0.113,0.004,-12.594,72.262,-9.218
10:29:50:245,32.944,0.041,0.110,-0.431,-12.746,70.189,-7.882
10:29:50:271,32.970,-0.093,0.060,0.086,-12.821,69.735,-6.112
10:29:50:299,32.999,-0.035,0.122,-0.103,-12.769,69.699,-5.145
10:29:50:326,33.026,0.021,0.055,-0.194,-12.457,68.234,-3.500
10:29:50:35,33.049,-0.006,0.016,-0.002,-11.978,67.163,-2.193
10:29:50:38,33.080,-0.018,-0.001,0.030,-10.997,65.968,-0.090
10:29:50:38,33.080,0.036,-0.006,-0.003,-9.962,64.633,1.838
10:29:50:431,33.131,0.032,0.045,-0.006,-9.359,63.718,2.947
10:29:50:432,33.131,0.015,-0.014,-0.040,-8.411,62.534,4.472
10:29:50:454,33.154,0.001,0.033,-0.070,-7.735,61.897,5.434
10:29:50:482,33.182,-0.045,0.019,-0.066,-6.621,61.105,6.871
10:29:50:507,33.207,-0.046,0.052,-0.147,-5.301,60.306,8.418
10:29:50:565,33.265,0.055,0.065,-0.199,-4.265,59.773,9.550
10:29:50:566,33.265,0.170,0.185,-0.276,-2.388,59.279,11.640
10:29:50:587,33.287,0.190,0.199,-0.331,-0.909,59.275,13.307
10:29:50:672,33.372,-0.060,0.281,-0.480,1.758,59.611,16.235
10:29:50:672,33.372,-0.163,0.386,-0.651,4.026,59.705,18.374
10:29:50:672,33.372,-0.026,0.371,-1.332,8.618,59.389,21.785
10:29:50:721,33.420,-0.231,0.267,-1.284,13.885,60.448,26.542
10:29:50:721,33.420,-0.181,0.354,-1.048,16.893,62.540,30.513
10:29:50:743,33.443,-0.365,-0.321,-0.999,20.960,66.538,36.015
10:29:50:769,33.469,-0.365,-0.162,0.289,23.126,69.477,39.119
10:29:50:796,33.495,-0.179,-0.653,-0.415,25.087,72.338,41.609
10:29:50:822,33.521,-0.066,-0.961,-0.383,25.535,74.135,41.517
10:29:50:877,33.577,-0.110,-1.052,-0.247,25.234,75.050,40.304
10:29:50:878,33.578,-0.130,-0.989,-0.188,22.739,76.652,36.911
10:29:50:901,33.600,-0.194,-0.752,-0.320,19.838,78.011,33.763
10:29:50:927,33.627,-0.280,-0.500,-0.358,14.830,80.200,27.776
10:29:50:953,33.653,-0.363,-0.264,-0.301,9.627,82.367,20.576
10:29:50:979,33.679,-0.411,-0.022,-0.307,6.208,83.839,15.298
10:29:51:006,33.705,-0.486,0.434,-0.180,0.912,86.867,6.878
10:29:51:032,33.731,-0.463,0.861,0.370,-2.771,89.680,0.847
10:29:51:059,33.759,-0.276,1.115,1.082,-8.646,94.076,-8.500
10:29:51:086,33.786,0.242,0.546,1.519,-12.505,96.012,-14.319
10:29:51:111,33.810,0.453,0.283,1.896,-18.306,96.488,-21.454
10:29:51:137,33.837,1.515,-1.127,2.483,-22.444,93.700,-24.515
10:29:51:165,33.865,0.272,0.083,1.338,-22.627,92.370,-23.320
10:29:51:191,33.890,-0.082,0.454,-1.016,-21.127,92.478,-20.499
10:29:51:216,33.916,0.535,0.086,0.210,-19.522,93.192,-19.109
10:29:51:242,33.942,-0.002,0.435,0.644,-18.018,93.869,-16.578
10:29:51:268,33.968,0.190,0.185,0.319,-17.721,95.800,-13.659
10:29:51:295,33.994,-0.072,-0.100,0.657,-17.300,97.931,-12.284
10:29:51:323,34.023,0.241,-0.054,0.076,-17.171,96.965,-9.944
10:29:51:347,34.047,0.055,0.019,-0.262,-17.245,95.018,-8.411
10:29:51:375,34.074,-0.094,-0.045,0.003,-17.051,94.341,-6.347
10:29:51:399,34.099,-0.052,0.103,0.165,-16.786,94.249,-5.127
10:29:51:426,34.126,-0.096,0.042,-0.092,-16.073,92.582,-3.094
10:29:51:453,34.152,-0.019,0.014,-0.113,-14.958,91.005,-1.102
10:29:51:478,34.178,0.028,-0.002,-0.017,-14.119,90.387,0.227
10:29:51:504,34.204,-0.011,0.001,0.045,-12.963,89.401,2.095
10:29:51:531,34.230,0.001,0.008,-0.037,-12.283,88.602,3.202
10:29:51:587,34.286,0.019,0.003,-0.052,-11.296,87.552,4.735
10:29:51:587,34.287,0.041,0.001,-0.041,-10.307,86.847,6.261
10:29:51:609,34.309,0.024,0.027,0.002,-9.651,86.459,7.268
10:29:51:639,34.338,-0.011,0.074,-0.056,-8.606,85.783,8.717
10:29:51:664,34.363,-0.011,0.063,-0.131,-7.800,85.321,9.743
10:29:51:689,34.389,-0.054,0.114,-0.176,-6.365,84.820,11.517
10:29:51:714,34.414,-0.037,0.118,-0.232,-5.193,84.632,12.897
10:29:51:741,34.440,-0.122,0.236,-0.272,-3.065,84.619,15.274
10:29:51:767,34.466,-0.262,0.332,-0.361,-0.394,84.676,18.051
10:29:51:793,34.493,-0.270,0.366,-0.511,1.827,84.468,20.093
10:29:51:819,34.519,-0.651,0.324,-1.044,6.012,83.939,23.409
10:29:51:846,34.545,-0.575,0.302,-0.708,9.169,83.904,26.044
10:29:51:876,34.575,-0.470,0.263,-0.635,13.787,84.075,30.715
10:29:51:898,34.598,-0.449,-0.257,-0.667,18.475,84.297,34.933
10:29:51:925,34.625,-0.302,-0.296,-0.533,21.489,84.532,37.105
10:29:51:952,34.651,-0.150,-0.909,-0.439,25.011,83.963,38.928
10:29:51:978,34.678,0.062,-0.951,-0.454,25.401,83.563,38.841
10:29:52:004,34.704,0.063,-0.996,-0.392,24.454,83.203,37.718
10:29:52:03,34.730,-0.024,-0.769,-0.396,20.527,83.741,35.467
10:29:52:056,34.755,-0.016,-0.642,-0.429,16.972,84.221,33.065
10:29:52:082,34.782,-0.078,-0.528,-0.427,11.484,84.591,27.969
10:29:52:108,34.808,-0.082,-0.327,-0.418,7.969,84.630,23.754
10:29:52:136,34.836,-0.073,-0.044,-0.467,2.832,84.615,16.556
10:29:52:162,34.862,-0.055,0.238,-0.441,-0.677,84.868,11.257
10:29:52:187,34.887,-0.036,0.703,-0.177,-6.261,86.366,2.496
10:29:52:24,34.939,0.394,0.766,1.313,-16.064,91.589,-12.938
10:29:52:266,34.965,0.816,0.117,1.840,-20.978,93.640,-20.166
10:29:52:292,34.992,1.395,-1.103,2.307,-23.470,93.593,-22.888
10:29:52:319,35.018,0.469,-0.292,1.813,-22.979,93.405,-22.390
10:29:52:344,35.044,-0.408,0.926,-0.961,-21.507,93.124,-19.798
10:29:52:371,35.071,0.390,0.025,0.614,-20.234,91.855,-18.166
10:29:52:397,35.097,0.241,0.634,0.635,-19.220,90.785,-15.243
10:29:52:426,35.125,0.116,-0.194,0.207,-18.612,91.532,-13.369
10:29:52:45,35.149,-0.083,-0.038,0.544,-18.116,93.638,-11.285
10:29:52:508,35.207,0.050,0.004,0.149,-18.018,92.538,-9.104
10:29:52:508,35.208,0.007,-0.036,-0.112,-18.006,91.041,-7.727
10:29:52:558,35.258,-0.010,0.027,-0.035,-17.877,90.186,-5.971
10:29:52:558,35.258,-0.077,0.106,0.128,-17.681,89.921,-4.873
10:29:52:61,35.309,-0.049,0.026,-0.060,-17.131,88.568,-3.089
10:29:52:611,35.310,0.014,0.026,-0.090,-16.343,87.070,-1.300
10:29:52:636,35.335,0.031,0.004,0.036,-15.706,86.334,-0.105
10:29:52:637,35.336,0.020,0.001,0.024,-14.778,85.225,1.588
10:29:52:688,35.388,0.027,0.028,-0.019,-14.228,84.384,2.613
10:29:52:689,35.389,0.013,0.010,-0.027,-13.381,83.181,4.064
10:29:52:713,35.412,0.029,-0.005,-0.032,-12.779,82.434,4.984
10:29:52:74,35.440,0.022,-0.006,-0.051,-11.795,81.316,6.353
10:29:52:766,35.465,-0.052,0.022,-0.037,-10.691,80.349,7.735
10:29:52:792,35.491,-0.004,0.015,-0.069,-9.848,79.708,8.687
10:29:52:846,35.545,-0.018,0.043,-0.139,-8.394,78.863,10.226
10:29:52:847,35.546,-0.020,0.111,-0.146,-7.258,78.461,11.386
10:29:52:9,35.599,-0.076,0.176,-0.170,-5.255,78.817,13.304
10:29:52:9,35.600,-0.072,0.172,-0.190,-2.929,78.931,15.484
10:29:52:922,35.622,-0.173,0.304,-0.278,-1.129,78.427,17.069
10:29:52:948,35.648,-0.182,0.370,-0.729,2.281,78.059,19.633
10:29:52:976,35.675,-0.287,0.229,-1.060,5.069,77.541,21.629
10:29:53:003,35.702,-0.417,0.345,-0.930,9.493,77.774,25.501
10:29:53:027,35.727,-0.420,0.251,-0.764,12.297,78.398,28.670
10:29:53:053,35.753,-0.585,0.009,-0.655,16.565,80.350,33.613
10:29:53:111,35.811,-0.285,-0.424,-0.485,19.953,82.650,37.832
10:29:53:111,35.811,-0.209,-0.279,0.390,21.942,83.849,39.834
10:29:53:132,35.832,-0.314,-0.827,-0.483,22.297,84.822,40.688
10:29:53:188,35.888,-0.115,-0.997,-0.383,21.906,85.071,39.975
10:29:53:189,35.888,-0.086,-0.899,-0.383,19.505,85.775,37.699
10:29:53:211,35.910,-0.139,-0.583,-0.497,14.957,87.183,33.940
10:29:53:239,35.938,-0.194,-0.446,-0.470,11.589,88.339,30.599
10:29:53:264,35.963,-0.261,-0.218,-0.425,6.641,90.227,24.481
10:29:53:289,35.989,-0.289,0.011,-0.366,3.568,91.549,19.908
10:29:53:315,36.015,-0.343,0.262,-0.227,-0.859,93.851,12.449
10:29:53:342,36.042,-0.322,0.475,-0.012,-3.709,95.487,7.019
10:29:53:368,36.068,-0.161,0.616,0.281,-7.995,97.834,-1.533
10:29:53:395,36.095,0.188,0.758,0.793,-12.661,99.697,-10.136
10:29:53:45,36.149,0.439,0.533,1.075,-15.912,100.379,-15.524
10:29:53:45,36.150,0.753,-0.010,1.404,-21.051,100.255,-22.424
10:29:53:475,36.174,1.318,-0.641,1.704,-24.285,99.393,-25.655
10:29:53:531,36.231,1.105,-0.833,1.530,-26.973,97.373,-26.918
10:29:53:532,36.231,0.705,-0.586,1.270,-25.622,96.794,-24.537
10:29:53:552,36.252,0.128,-0.231,0.556,-24.044,97.331,-22.306
10:29:53:636,36.336,1.129,0.698,-0.856,-22.982,99.735,-21.631
10:29:53:637,36.337,0.606,0.713,0.479,-21.089,100.439,-20.173
10:29:53:638,36.337,0.343,0.536,0.862,-20.605,100.777,-17.041
10:29:53:657,36.357,-0.137,-0.079,0.431,-19.657,104.071,-14.522
10:29:53:713,36.412,0.079,-0.184,1.029,-19.327,105.026,-13.057
10:29:53:713,36.413,0.028,-0.025,-0.186,-19.228,101.822,-10.622
10:29:53:738,36.437,0.004,0.069,-0.180,-19.145,100.441,-9.271
10:29:53:791,36.491,-0.117,0.097,0.156,-18.878,100.332,-7.535
10:29:53:792,36.491,-0.061,-0.052,-0.031,-18.509,99.829,-6.298
10:29:53:814,36.514,0.032,0.018,-0.156,-17.593,97.088,-4.160
10:29:53:841,36.540,-0.041,-0.046,-0.058,-16.494,95.558,-1.968
10:29:53:867,36.567,-0.003,-0.053,0.121,-15.683,94.535,-0.585
10:29:53:893,36.593,-0.031,0.015,-0.040,-14.574,93.225,1.426
10:29:53:92,36.619,0.009,0.046,-0.080,-13.825,91.799,2.671
10:29:53:948,36.647,0.023,0.023,-0.032,-12.652,90.907,4.465
10:29:54:001,36.700,0.000,0.046,-0.029,-11.515,89.720,6.250
10:29:54:002,36.701,-0.012,0.037,-0.036,-10.726,89.071,7.420
10:29:54:024,36.724,0.012,0.065,-0.079,-9.531,87.793,9.090
10:29:54:079,36.779,-0.012,0.074,-0.141,-8.664,87.243,10.241
10:29:54:08,36.780,0.045,0.122,-0.192,-7.080,86.047,12.159
10:29:54:105,36.805,-0.054,0.211,-0.273,-5.772,85.721,13.620
10:29:54:132,36.831,-0.163,0.332,-0.293,-3.442,85.228,16.233
10:29:54:159,36.858,-0.177,0.448,-0.562,-0.443,84.608,19.269
10:29:54:184,36.884,-0.233,0.523,-0.896,2.139,84.018,21.497
10:29:54:267,36.967,-0.731,0.231,-0.999,6.867,83.721,25.301
10:29:54:267,36.967,-0.415,0.294,-0.710,9.851,84.060,28.467
10:29:54:268,36.968,-0.598,-0.024,-0.766,14.365,84.698,33.349
10:29:54:289,36.989,-0.291,-0.396,-0.497,17.194,85.488,36.158
10:29:54:314,37.014,-0.252,-0.418,0.311,21.054,86.316,39.332
10:29:54:341,37.041,-0.237,-1.008,-0.622,22.552,85.907,40.011
10:29:54:366,37.065,0.065,-1.027,-0.433,22.793,85.323,39.158
10:29:54:392,37.091,0.013,-0.912,-0.515,20.865,84.657,36.660
10:29:54:447,37.147,0.004,-0.607,-0.589,16.539,85.421,32.726
10:29:54:448,37.148,-0.053,-0.406,-0.459,13.249,86.408,29.321
10:29:54:5,37.200,-0.160,-0.257,-0.443,8.330,88.389,23.003
10:29:54:526,37.226,-0.209,0.004,-0.403,5.321,89.923,18.101
10:29:54:527,37.226,-0.271,0.325,-0.343,1.209,92.577,9.917
10:29:54:55,37.249,-0.172,0.705,0.032,-2.905,96.310,0.921
10:29:54:606,37.306,-0.046,1.024,0.521,-5.610,99.755,-5.255
10:29:54:606,37.306,0.131,0.649,1.246,-9.000,105.863,-13.937
10:29:54:657,37.357,0.658,0.138,1.740,-11.633,111.697,-20.781
10:29:54:658,37.357,1.435,-0.260,1.800,-13.309,114.077,-24.016
10:29:54:68,37.380,0.719,-0.231,1.364,-14.330,114.436,-25.778
10:29:54:707,37.407,0.047,-0.324,0.960,-13.520,114.281,-24.470
10:29:54:735,37.434,0.152,0.720,-0.810,-12.741,114.510,-21.951
10:29:54:76,37.460,0.627,0.514,0.861,-11.592,113.400,-19.273
10:29:54:786,37.485,0.595,0.377,0.556,-11.477,113.195,-17.131
10:29:54:812,37.511,0.054,-0.151,0.263,-11.570,114.240,-14.420
10:29:54:838,37.538,0.012,-0.028,0.276,-12.004,114.850,-13.025
10:29:54:866,37.566,-0.052,-0.097,-0.016,-12.355,113.532,-11.197
10:29:54:92,37.619,-0.122,0.053,-0.052,-12.539,112.738,-9.672
10:29:54:921,37.620,0.007,0.079,0.094,-12.396,112.695,-8.574
10:29:54:945,37.644,-0.029,0.065,-0.032,-11.969,112.086,-6.948
10:29:54:972,37.672,-0.023,0.043,-0.097,-11.549,111.492,-5.895
10:29:55:026,37.726,-0.015,0.040,-0.013,-10.754,110.981,-4.254
10:29:55:027,37.727,0.063,-0.005,0.042,-10.149,110.672,-3.193
10:29:55:049,37.749,0.009,-0.022,-0.025,-9.321,109.993,-1.733
10:29:55:105,37.805,-0.023,-0.022,-0.006,-8.580,109.430,-0.377
10:29:55:105,37.805,-0.037,-0.036,0.031,-8.071,109.213,0.501
10:29:55:127,37.826,-0.025,-0.015,0.003,-7.291,109.490,1.749
10:29:55:182,37.882,-0.040,0.046,0.026,-6.733,109.515,2.528
10:29:55:183,37.882,0.002,0.090,0.071,-5.795,110.076,3.644
10:29:55:206,37.906,-0.016,0.051,-0.101,-4.574,109.486,4.692
10:29:55:291,37.990,-0.074,0.061,-0.144,-3.629,109.398,5.424
10:29:55:292,37.991,-0.101,0.078,-0.063,-1.996,109.069,6.691
10:29:55:293,37.992,-0.138,0.100,-0.107,-0.739,109.395,7.643
10:29:55:314,38.013,-0.170,0.183,-0.214,1.460,109.227,9.253
10:29:55:314,38.014,-0.392,0.390,-0.170,4.115,110.061,11.235
10:29:55:366,38.066,-0.619,0.500,-0.315,6.259,110.293,12.735
10:29:55:422,38.122,-1.040,0.503,-0.329,10.192,111.136,15.194
10:29:55:422,38.122,-0.971,-0.001,-0.116,13.273,111.575,17.110
10:29:55:423,38.123,-0.841,0.034,0.093,17.813,113.129,20.974
10:29:55:501,38.200,-0.796,-0.195,-0.251,20.870,114.517,23.713
10:29:55:502,38.201,-0.572,-0.415,-0.137,24.545,118.225,27.817
10:29:55:502,38.202,-0.666,-0.803,-0.174,27.056,122.845,31.668
10:29:55:549,38.249,-0.783,-0.807,-0.179,26.352,127.038,33.586
10:29:55:578,38.277,-0.582,-0.820,0.072,23.980,133.095,35.257
10:29:55:578,38.277,-0.557,-0.551,0.141,21.484,136.878,35.211
10:29:55:599,38.299,-0.577,-0.478,0.160,17.082,142.051,33.105
10:29:55:626,38.326,-0.574,-0.362,0.227,13.128,146.202,28.689
10:29:55:708,38.408,-0.530,-0.267,0.277,10.763,148.571,24.774
10:29:55:709,38.409,-0.492,-0.063,0.369,7.218,151.782,17.957
10:29:55:734,38.433,-0.476,0.117,0.412,4.685,153.910,13.006
10:29:55:735,38.434,-0.273,0.374,0.431,0.513,157.672,5.273
10:29:55:789,38.489,0.042,0.637,0.449,-2.513,160.800,0.007
10:29:55:789,38.489,0.867,0.797,0.370,-7.331,166.243,-7.959
10:29:55:839,38.538,1.373,0.451,0.023,-11.786,171.045,-15.531
10:29:55:839,38.539,1.668,0.162,0.190,-14.309,173.300,-20.012
10:29:55:862,38.562,2.624,-0.846,-0.435,-17.675,174.720,-24.864
10:29:55:918,38.618,1.659,-0.213,-0.165,-19.152,173.701,-25.709
10:29:55:919,38.618,0.318,0.265,-0.282,-18.826,171.971,-23.403
10:29:55:941,38.640,0.750,0.166,-0.298,-17.264,171.251,-21.055
10:29:56:025,38.725,0.723,0.304,-0.199,-16.266,171.229,-19.184
10:29:56:026,38.726,0.301,0.104,-0.279,-16.044,172.327,-16.051
10:29:56:027,38.726,0.215,-0.213,0.128,-15.714,174.640,-14.353
10:29:56:046,38.745,0.504,0.004,0.062,-15.760,176.049,-12.113
10:29:56:072,38.772,-0.197,0.016,-0.016,-15.986,173.465,-9.796
10:29:56:098,38.798,-0.225,0.024,0.047,-16.052,172.660,-8.391
10:29:56:124,38.824,0.153,0.115,0.093,-15.831,172.402,-6.365
10:29:56:152,38.852,-0.095,0.021,0.014,-15.506,171.729,-4.995
10:29:56:207,38.907,-0.123,0.012,-0.008,-14.757,170.029,-2.946
10:29:56:208,38.908,0.064,-0.023,-0.001,-14.088,169.259,-1.577
10:29:56:288,38.988,0.041,-0.025,0.000,-13.104,168.352,0.319
10:29:56:289,38.988,-0.010,0.004,-0.006,-12.291,167.266,2.023
10:29:56:289,38.989,-0.021,0.005,0.001,-11.781,166.628,3.076
10:29:56:338,39.038,0.000,0.038,-0.049,-10.979,165.766,4.573
10:29:56:339,39.038,-0.052,0.024,-0.031,-10.447,165.135,5.534
10:29:56:421,39.121,-0.050,0.070,0.003,-9.573,164.174,6.895
10:29:56:422,39.121,-0.111,0.071,0.022,-8.466,163.888,8.238
10:29:56:422,39.121,-0.193,0.069,-0.034,-7.488,163.183,9.227
10:29:56:468,39.168,-0.189,0.132,-0.009,-5.677,163.083,10.971
10:29:56:495,39.195,-0.214,0.151,-0.001,-4.287,162.827,12.345
10:29:56:496,39.196,-0.255,0.241,0.072,-1.959,163.202,14.635
10:29:56:549,39.249,-0.342,0.349,0.141,-0.172,163.058,16.270
10:29:56:549,39.249,-0.689,0.453,0.036,3.160,162.788,18.876
10:29:56:572,39.272,-1.064,0.213,0.281,7.347,162.533,21.649
10:29:56:598,39.297,-0.923,0.154,0.500,10.437,162.654,23.895
10:29:56:655,39.355,-0.812,0.191,0.665,14.939,163.501,28.264
10:29:56:655,39.355,-1.002,-0.241,0.465,18.182,164.293,31.327
10:29:56:676,39.376,-0.728,-0.429,0.364,22.406,167.012,35.624
10:29:56:703,39.402,-0.556,-1.101,0.308,25.255,169.625,39.190
10:29:56:729,39.428,-0.628,-0.867,0.365,24.576,172.325,40.427
10:29:56:755,39.455,-0.365,-0.940,0.221,22.565,174.106,40.224
10:29:56:782,39.481,-0.445,-0.890,0.181,20.578,174.731,38.840
10:29:56:836,39.535,-0.582,-0.611,0.080,16.041,175.669,34.972
10:29:56:837,39.536,-0.570,-0.481,0.062,12.734,176.339,31.307
10:29:56:86,39.559,-0.596,-0.378,0.146,7.925,177.414,24.462
10:29:56:914,39.614,-0.525,0.053,0.217,2.995,179.144,16.571
10:29:56:915,39.615,-0.506,0.443,0.267,-0.390,-179.187,10.803
10:29:56:938,39.638,-0.143,0.892,0.155,-5.324,-175.755,1.254
10:29:56:965,39.664,0.853,1.227,-0.110,-10.158,-170.884,-8.966
10:29:56:992,39.692,1.682,0.766,-0.251,-13.085,-167.455,-15.524
10:29:57:019,39.719,2.285,-0.101,-1.245,-17.162,-163.738,-23.573
10:29:57:043,39.743,2.153,-1.157,-1.283,-19.627,-163.798,-26.791
10:29:57:07,39.770,1.765,-0.488,-0.505,-20.048,-165.622,-26.479
10:29:57:097,39.796,-0.991,1.471,0.618,-18.832,-166.414,-24.161
10:29:57:123,39.823,0.937,0.362,-0.847,-17.232,-166.790,-21.683
10:29:57:148,39.848,0.649,0.408,-0.180,-15.858,-167.533,-18.134
10:29:57:175,39.875,0.296,-0.093,-0.541,-15.501,-166.656,-15.919
10:29:57:201,39.900,0.734,0.060,-0.137,-15.130,-163.091,-13.547
10:29:57:227,39.927,0.488,-0.055,-0.148,-15.201,-162.827,-12.068
10:29:57:254,39.953,-0.313,0.054,0.147,-15.425,-165.630,-9.917
10:29:57:281,39.981,0.079,-0.026,0.038,-15.396,-166.251,-8.605
10:29:57:306,40.006,0.217,0.156,0.054,-14.736,-166.578,-6.459
10:29:57:332,40.032,-0.125,0.016,0.024,-13.790,-168.200,-4.179
10:29:57:388,40.088,-0.106,-0.013,0.030,-13.039,-169.400,-2.682
10:29:57:389,40.088,0.058,-0.018,-0.017,-11.775,-170.328,-0.449
10:29:57:441,40.140,0.010,-0.001,-0.007,-10.980,-170.819,0.918
10:29:57:441,40.140,-0.039,0.027,-0.019,-9.945,-172.129,2.705
10:29:57:463,40.163,0.027,0.019,-0.027,-8.934,-173.069,4.352
10:29:57:52,40.220,0.007,0.037,-0.038,-8.232,-173.718,5.361
10:29:57:52,40.220,-0.086,0.136,-0.012,-7.071,-174.747,6.702
10:29:57:542,40.242,-0.149,0.109,0.016,-6.130,-175.454,7.573
10:29:57:571,40.271,-0.173,0.078,0.171,-4.339,-176.450,9.139
10:29:57:572,40.272,-0.256,0.194,0.095,-2.083,-177.172,11.144
10:29:57:626,40.325,-0.378,0.208,0.060,-0.304,-177.396,12.732
10:29:57:626,40.325,-0.416,0.344,0.260,2.732,-177.160,15.505
10:29:57:706,40.406,-0.740,0.490,0.451,5.146,-177.105,17.507
10:29:57:706,40.406,-1.059,0.370,0.764,9.699,-177.096,20.684
10:29:57:706,40.406,-0.816,0.192,1.099,14.744,-175.695,25.054
10:29:57:756,40.456,-0.690,0.194,0.929,17.886,-173.691,28.709
10:29:57:757,40.456,-0.638,-0.414,0.929,22.109,-169.977,33.927
10:29:57:778,40.478,0.126,-0.233,0.108,24.419,-167.141,36.994
10:29:57:804,40.504,-0.372,-0.959,0.728,25.559,-163.770,39.880
10:29:57:832,40.531,-0.276,-1.006,0.370,25.191,-161.970,40.189
10:29:57:858,40.558,-0.157,-1.077,0.409,24.140,-160.059,38.823
10:29:57:883,40.583,-0.271,-0.764,0.499,20.943,-158.019,35.285
10:29:57:91,40.609,-0.238,-0.579,0.517,18.014,-156.391,31.917
10:29:57:937,40.636,-0.132,-0.369,0.580,13.472,-153.673,25.533
10:29:57:964,40.664,-0.061,-0.229,0.613,10.436,-151.626,20.613
10:29:58:017,40.717,0.109,0.154,0.702,5.757,-147.799,12.659
10:29:58:018,40.718,0.406,0.634,0.606,2.629,-144.459,7.033
10:29:58:04,40.740,0.729,0.867,0.227,-2.040,-138.181,-1.824
10:29:58:069,40.769,1.165,0.790,-0.585,-6.720,-131.621,-10.644
10:29:58:096,40.795,1.205,0.424,-1.329,-9.597,-127.845,-16.066
10:29:58:121,40.820,1.185,0.119,-1.720,-13.931,-123.794,-22.821
10:29:58:147,40.847,0.742,-1.226,-2.654,-16.304,-123.220,-25.714
10:29:58:175,40.874,0.993,-0.587,-1.844,-16.660,-123.598,-25.298
10:29:58:228,40.928,-0.968,0.860,0.152,-14.356,-122.601,-21.869
10:29:58:228,40.928,0.408,0.497,-1.369,-12.980,-122.570,-19.803
10:29:58:25,40.950,0.024,0.290,-0.590,-12.466,-121.968,-15.471
10:29:58:277,40.977,-0.215,-0.346,0.147,-12.075,-120.777,-13.005
10:29:58:303,41.003,0.402,0.024,-0.409,-11.923,-119.742,-10.011
10:29:58:331,41.031,-0.143,0.036,0.098,-11.883,-122.040,-7.828
10:29:58:383,41.082,-0.103,-0.010,0.066,-11.943,-122.854,-6.621
10:29:58:442,41.142,0.036,0.114,-0.120,-11.995,-123.170,-5.248
10:29:58:442,41.142,0.053,0.107,0.168,-11.913,-123.977,-4.331
10:29:58:442,41.142,0.040,-0.007,0.142,-11.297,-125.503,-2.592
10:29:58:461,41.161,0.055,-0.012,0.008,-10.384,-126.796,-0.618
10:29:58:487,41.187,0.066,-0.048,-0.037,-9.730,-127.470,0.634
10:29:58:513,41.213,-0.001,-0.007,-0.026,-8.789,-128.561,2.354
10:29:58:541,41.241,-0.033,-0.004,0.023,-8.138,-129.276,3.418
10:29:58:569,41.269,-0.024,0.042,0.045,-7.096,-130.029,4.979
10:29:58:592,41.291,-0.061,0.052,0.044,-6.351,-130.439,6.007
10:29:58:619,41.319,0.006,0.080,0.104,-5.097,-131.070,7.593
10:29:58:644,41.344,-0.013,0.104,0.200,-3.486,-131.766,9.332
10:29:58:673,41.372,-0.180,0.131,0.265,-2.150,-132.182,10.715
10:29:58:698,41.397,-0.309,0.209,0.312,0.229,-131.409,13.323
10:29:58:723,41.423,-0.247,0.156,0.374,2.090,-131.058,15.449
10:29:58:749,41.449,0.053,0.402,0.809,5.406,-129.940,19.005
10:29:58:776,41.475,-0.167,0.521,1.212,8.243,-129.749,21.556
10:29:58:804,41.504,0.122,0.271,1.698,13.322,-129.234,25.826
10:29:58:832,41.532,0.108,0.223,1.340,18.259,-126.473,31.690
10:29:58:884,41.583,0.277,-0.306,0.989,21.106,-123.989,35.456
10:29:58:884,41.584,0.459,-0.092,-0.121,25.586,-119.849,39.931
10:29:58:907,41.606,0.201,-0.939,0.883,26.707,-118.104,41.669
10:29:58:933,41.633,0.035,-1.049,0.537,26.421,-114.773,42.094
10:29:58:959,41.659,0.140,-1.231,0.361,25.172,-112.738,40.398
10:29:58:986,41.685,0.148,-0.896,0.524,22.761,-111.342,38.104
10:29:59:041,41.741,0.186,-0.599,0.522,17.709,-108.724,33.134
10:29:59:042,41.741,0.271,-0.399,0.535,14.206,-106.834,28.764
10:29:59:069,41.769,0.390,-0.138,0.505,9.106,-103.800,21.017
10:29:59:092,41.792,0.497,0.195,0.376,4.177,-100.322,12.344
10:29:59:117,41.817,0.585,0.523,0.217,0.906,-97.508,6.122
10:29:59:203,41.903,0.546,1.056,-0.554,-4.119,-92.597,-3.813
10:29:59:203,41.903,0.120,0.867,-1.552,-7.733,-89.216,-10.511
10:29:59:203,41.903,-0.021,0.482,-1.748,-12.987,-85.544,-19.667
10:29:59:224,41.923,-1.898,-0.456,-3.414,-16.737,-84.277,-24.480
10:29:59:249,41.949,-1.134,-1.621,-2.624,-19.356,-86.131,-27.125
10:29:59:276,41.975,-0.345,-0.781,-1.515,-17.817,-86.743,-23.841
10:29:59:302,42.001,-0.907,0.219,-1.233,-16.653,-86.213,-21.816
10:29:59:329,42.029,-0.413,0.860,-1.788,-14.305,-87.245,-17.129
10:29:59:353,42.052,0.033,-0.221,0.582,-12.815,-86.583,-12.035
10:29:59:379,42.079,0.137,-0.526,-1.044,-11.839,-86.052,-8.985
10:29:59:435,42.134,-0.098,0.190,-0.404,-10.958,-86.900,-5.606
10:29:59:461,42.160,-0.210,-0.146,-0.082,-10.346,-87.944,-3.827
10:29:59:462,42.161,-0.048,0.189,0.106,-9.896,-88.749,-1.822
10:29:59:485,42.185,0.001,0.110,-0.078,-9.774,-88.865,-0.581
10:29:59:511,42.210,-0.030,-0.003,-0.013,-9.504,-89.878,1.013
10:29:59:564,42.264,-0.016,-0.030,-0.013,-9.261,-91.206,2.390
10:29:59:592,42.292,0.019,-0.029,0.008,-9.043,-91.982,3.242
10:29:59:593,42.293,0.073,0.026,-0.019,-8.673,-93.168,4.487
10:29:59:645,42.344,0.053,0.032,0.034,-8.289,-94.022,5.335
10:29:59:646,42.345,0.020,-0.001,0.067,-7.508,-95.296,6.684
10:29:59:699,42.399,0.014,0.019,0.041,-6.547,-96.348,8.146
10:29:59:699,42.399,0.026,0.044,0.007,-5.834,-96.925,9.141
10:29:59:751,42.451,-0.012,0.122,0.097,-4.664,-97.762,10.545
10:29:59:752,42.452,0.042,0.135,0.258,-3.717,-98.224,11.531
10:29:59:773,42.473,0.001,0.187,0.371,-1.899,-98.647,13.480
10:29:59:835,42.534,0.049,0.239,0.397,-0.383,-98.611,15.163
10:29:59:835,42.535,0.348,0.381,0.541,2.495,-98.495,18.215
10:29:59:835,42.535,0.368,0.475,0.979,6.280,-98.602,21.683
10:29:59:879,42.579,0.718,0.401,1.254,9.420,-98.665,24.149
10:29:59:907,42.607,0.746,0.267,0.952,14.479,-97.218,29.096
10:29:59:933,42.633,0.908,-0.129,1.001,17.411,-95.466,32.962
10:29:59:96,42.660,0.653,-0.394,0.718,21.553,-92.834,37.800
10:29:59:96,42.660,0.314,-1.038,0.578,25.023,-91.156,41.014
10:30:00:013,42.713,0.472,-1.019,0.661,24.795,-90.191,41.706
10:30:00:014,42.713,0.207,-1.147,0.316,23.678,-89.231,40.971
10:30:00:036,42.735,0.226,-0.868,0.416,21.775,-88.786,39.363
10:30:00:062,42.762,0.214,-0.619,0.479,16.602,-87.912,35.475
10:30:00:089,42.789,0.155,-0.468,0.503,12.836,-87.362,31.794
10:30:00:117,42.817,0.209,-0.325,0.533,7.292,-86.465,24.926
10:30:00:14,42.840,0.276,0.029,0.474,1.943,-84.813,16.917
10:30:00:169,42.869,0.322,0.356,0.395,-1.492,-83.077,10.940
10:30:00:252,42.952,0.108,0.857,-0.164,-6.704,-79.436,0.920
10:30:00:253,42.952,-0.359,1.235,-0.858,-10.295,-76.991,-6.177
10:30:00:254,42.953,-0.586,0.739,-1.632,-15.405,-74.353,-16.079
10:30:00:272,42.972,-1.704,-0.278,-2.201,-20.000,-73.166,-23.128
10:30:00:325,43.025,-2.187,-0.991,-2.414,-22.267,-73.756,-25.398
10:30:00:384,43.084,-0.549,-0.823,-2.338,-21.964,-75.473,-24.145
10:30:00:385,43.084,-1.269,0.634,1.034,-21.185,-76.310,-21.966
10:30:00:385,43.084,-0.447,0.574,-0.884,-19.258,-78.705,-18.876
10:30:00:462,43.162,-0.509,0.074,-0.313,-18.316,-78.912,-15.064
10:30:00:462,43.162,-0.122,-0.303,-0.003,-17.732,-77.493,-13.047
10:30:00:463,43.162,-0.020,0.093,-0.697,-17.630,-75.973,-10.636
10:30:00:484,43.184,-0.108,-0.135,-0.036,-17.560,-77.767,-9.065
10:30:00:508,43.208,0.169,0.065,0.290,-17.573,-80.171,-7.140
10:30:00:534,43.234,0.171,0.093,-0.126,-17.257,-80.824,-5.799
10:30:00:562,43.261,0.006,0.039,-0.061,-16.421,-81.912,-3.592
10:30:00:588,43.287,0.031,0.032,0.104,-15.358,-84.105,-1.271
10:30:00:614,43.313,-0.024,-0.024,0.053,-14.508,-85.336,0.293
10:30:00:669,43.368,-0.051,0.023,-0.092,-13.280,-86.714,2.472
10:30:00:669,43.369,-0.014,0.062,0.044,-12.507,-87.807,3.753
10:30:00:693,43.393,-0.051,0.030,0.102,-11.286,-89.516,5.506
10:30:00:75,43.450,0.024,0.012,0.021,-9.944,-90.822,7.242
10:30:00:75,43.450,0.027,0.040,0.009,-9.025,-91.570,8.405
10:30:00:829,43.528,0.032,0.117,0.171,-7.449,-92.788,10.181
10:30:00:83,43.529,0.063,0.169,0.336,-6.154,-93.573,11.536
10:30:00:83,43.530,-0.019,0.171,0.382,-3.902,-94.223,14.084
10:30:00:85,43.549,0.150,0.296,0.418,-2.153,-94.277,16.132
10:30:00:878,43.578,0.287,0.344,0.547,1.013,-94.274,19.652
10:30:00:903,43.603,0.611,0.557,1.188,5.245,-94.621,23.487
10:30:00:929,43.629,0.918,0.259,1.270,8.890,-94.771,26.323
10:30:00:955,43.655,0.732,0.499,1.022,14.206,-93.436,31.957
10:30:00:983,43.682,0.896,-0.135,0.932,17.273,-91.597,35.944
10:30:01:007,43.707,0.477,-0.230,-0.134,21.367,-88.678,40.813
10:30:01:063,43.763,0.415,-1.094,0.589,24.379,-88.184,43.116
10:30:01:064,43.764,0.167,-1.103,0.468,24.601,-88.084,42.912
10:30:01:117,43.816,0.122,-1.209,0.327,24.028,-88.703,40.789
10:30:01:117,43.817,0.135,-0.969,0.393,22.204,-89.088,38.315
10:30:01:138,43.838,0.124,-0.649,0.446,17.152,-89.013,33.403
10:30:01:167,43.867,0.170,-0.451,0.473,13.292,-88.766,29.252
10:30:01:192,43.891,0.237,-0.271,0.484,7.390,-88.022,21.915
10:30:01:218,43.917,0.304,0.175,0.453,1.569,-86.357,13.596
10:30:01:272,43.972,0.284,0.487,0.353,-2.218,-84.418,7.476
10:30:01:273,43.973,-0.084,1.118,-0.607,-7.843,-80.030,-2.671
10:30:01:349,44.049,-0.364,1.195,-1.230,-11.455,-77.218,-9.626
10:30:01:38,44.080,-0.514,0.399,-1.775,-16.172,-74.232,-18.852
10:30:01:381,44.080,-2.234,-0.348,-2.203,-20.945,-73.252,-24.817
10:30:01:382,44.082,-1.182,-1.043,-1.949,-22.393,-74.473,-25.954
10:30:01:401,44.100,-0.558,-0.905,-1.726,-21.136,-75.297,-23.551
10:30:01:427,44.126,-1.291,0.439,0.921,-20.315,-74.562,-21.966
10:30:01:453,44.153,-0.273,0.365,-0.814,-17.766,-75.060,-18.989
10:30:01:48,44.179,-0.846,-0.030,-0.490,-17.051,-74.829,-15.425
10:30:01:506,44.205,-0.320,-0.099,-0.489,-16.534,-73.147,-13.524
10:30:01:59,44.290,0.276,0.085,0.269,-16.754,-74.413,-9.759
10:30:01:591,44.290,0.291,0.024,0.111,-16.667,-75.991,-7.808
10:30:01:64,44.340,0.035,0.156,-0.159,-16.122,-76.487,-6.339
10:30:01:64,44.340,-0.013,0.034,0.018,-15.066,-77.854,-4.063
10:30:01:722,44.421,0.077,0.031,0.123,-13.835,-79.735,-1.775
10:30:01:722,44.422,0.011,-0.053,-0.010,-12.818,-80.630,-0.172
10:30:01:723,44.423,-0.015,-0.011,-0.100,-11.358,-81.702,2.059
10:30:01:742,44.442,-0.025,0.042,0.010,-10.502,-82.607,3.372
10:30:01:768,44.468,-0.039,0.011,0.042,-9.320,-83.984,5.064
10:30:01:794,44.494,-0.061,0.013,0.015,-8.169,-84.996,6.606
10:30:01:85,44.550,-0.014,0.064,0.000,-7.421,-85.585,7.535
10:30:01:85,44.550,0.043,0.074,0.089,-6.214,-86.633,8.831
10:30:01:873,44.573,0.120,0.047,0.177,-5.255,-87.335,9.737
10:30:01:9,44.599,0.147,0.168,0.227,-3.455,-88.952,11.449
10:30:01:926,44.625,0.076,0.231,0.344,-1.169,-89.320,13.692
10:30:01:952,44.651,0.100,0.284,0.365,0.630,-90.182,15.488
10:30:01:978,44.678,0.389,0.494,0.602,3.948,-90.262,18.559
10:30:02:004,44.704,0.621,0.547,0.950,6.755,-90.715,20.723
10:30:02:033,44.733,0.960,0.234,1.055,11.951,-90.452,24.579
10:30:02:057,44.757,0.805,0.313,0.757,15.225,-89.226,28.076
10:30:02:112,44.812,0.908,-0.130,0.728,19.852,-86.248,33.703
10:30:02:113,44.813,0.563,-0.370,0.234,23.557,-82.792,38.485
10:30:02:139,44.838,0.379,-0.844,0.383,25.667,-81.064,40.649
10:30:02:139,44.839,0.407,-0.993,0.389,25.779,-79.746,41.496
10:30:02:222,44.922,0.256,-1.084,0.221,25.462,-79.148,40.701
10:30:02:222,44.922,0.300,-0.895,0.268,23.358,-78.592,37.795
10:30:02:222,44.922,0.315,-0.642,0.350,18.929,-77.465,33.217
10:30:02:3,44.999,0.453,-0.180,0.322,10.690,-75.225,22.069
10:30:02:3,45.000,0.521,0.090,0.282,7.424,-73.915,16.739
10:30:02:322,45.022,0.568,0.491,0.155,2.602,-70.771,8.141
10:30:02:347,45.047,0.257,0.999,-0.557,-2.160,-65.225,-1.063
10:30:02:372,45.072,-0.258,1.032,-0.950,-5.213,-60.344,-7.309
10:30:02:399,45.099,-0.704,0.528,-1.575,-8.926,-53.235,-16.104
10:30:02:454,45.153,-1.166,0.096,-1.817,-11.035,-49.428,-21.035
10:30:02:454,45.154,-2.644,-0.596,-1.436,-14.490,-46.894,-26.252
10:30:02:477,45.177,-1.076,-0.441,-1.147,-15.471,-47.518,-27.098
10:30:02:503,45.203,-1.005,-0.566,-0.346,-14.209,-47.260,-24.578
10:30:02:529,45.229,-0.657,0.375,0.424,-12.181,-45.256,-22.032
10:30:02:556,45.255,-0.757,0.326,-0.605,-10.744,-45.248,-19.752
10:30:02:582,45.282,-0.562,0.445,-0.439,-10.722,-44.742,-15.889
10:30:02:609,45.308,-0.067,-0.161,-0.431,-10.405,-43.172,-13.502
10:30:02:635,45.334,-0.528,-0.041,-0.186,-10.092,-41.984,-10.400
10:30:02:661,45.360,0.237,0.051,0.169,-9.824,-44.329,-7.970
10:30:02:687,45.387,0.044,-0.003,-0.023,-9.589,-44.866,-6.492
10:30:02:713,45.413,-0.151,0.084,-0.039,-9.262,-44.428,-4.704
10:30:02:739,45.439,-0.017,0.053,0.047,-9.064,-44.812,-3.704
10:30:02:766,45.466,0.119,-0.001,-0.006,-8.684,-45.632,-2.192
10:30:02:792,45.492,0.016,-0.053,-0.112,-8.307,-45.922,-1.076
10:30:02:821,45.520,0.026,-0.052,-0.045,-7.561,-46.583,0.672
10:30:02:845,45.544,-0.014,0.019,0.005,-6.797,-47.232,2.355
10:30:02:871,45.570,0.002,0.056,0.029,-6.295,-47.533,3.404
10:30:02:898,45.598,0.036,0.072,0.023,-5.437,-47.935,4.887
10:30:02:923,45.622,0.008,0.072,0.007,-4.785,-48.190,5.830
10:30:02:949,45.649,0.056,0.085,-0.004,-3.697,-48.655,7.153
10:30:03:005,45.705,0.142,0.098,0.058,-2.405,-49.284,8.386
10:30:03:006,45.705,0.186,0.136,0.173,-1.356,-50.117,9.306
10:30:03:031,45.731,0.251,0.188,0.203,0.629,-50.398,11.056
10:30:03:083,45.783,0.362,0.244,0.136,2.204,-50.678,12.520
10:30:03:084,45.784,0.599,0.357,0.026,5.041,-50.115,15.094
10:30:03:109,45.808,0.948,0.435,0.235,8.609,-49.794,18.018
10:30:03:133,45.833,1.187,0.320,0.292,11.441,-49.385,20.172
10:30:03:189,45.889,1.050,0.171,0.003,16.302,-47.914,24.264
10:30:03:19,45.889,1.057,0.119,-0.200,19.494,-46.239,27.597
10:30:03:242,45.941,0.948,-0.432,0.032,24.204,-43.410,32.189
10:30:03:242,45.942,-0.023,-0.237,-0.036,26.872,-40.692,34.967
10:30:03:267,45.966,0.818,-0.846,-0.179,27.880,-37.066,38.602
10:30:03:292,45.992,0.363,-0.863,-0.136,26.600,-33.203,39.890
10:30:03:318,46.018,0.385,-0.909,-0.150,25.418,-31.367,39.521
10:30:03:343,46.043,0.462,-0.781,-0.093,22.344,-29.222,36.922
10:30:03:37,46.069,0.518,-0.561,-0.128,19.640,-27.805,34.056
10:30:03:396,46.096,0.541,-0.392,-0.230,15.307,-25.539,28.321
10:30:03:422,46.122,0.545,-0.199,-0.338,10.773,-23.005,21.269
10:30:03:448,46.148,0.536,0.074,-0.456,7.663,-21.026,16.070
10:30:03:476,46.175,0.322,0.559,-0.625,2.870,-17.184,7.765
10:30:03:502,46.202,-0.021,0.738,-0.677,-0.338,-13.920,1.934
10:30:03:558,46.257,-0.848,1.008,-0.754,-5.337,-8.573,-7.030
10:30:03:558,46.257,-1.714,0.563,-0.152,-8.930,-5.272,-12.779
10:30:03:611,46.310,-1.844,0.284,-0.031,-14.348,-2.303,-20.302
10:30:03:611,46.310,-3.022,-1.331,1.079,-19.374,-2.353,-25.210
10:30:03:661,46.361,-1.567,-0.266,-0.036,-20.484,-3.995,-25.281
10:30:03:662,46.361,0.806,0.729,1.360,-19.229,-3.908,-22.023
10:30:03:686,46.386,-0.803,0.189,0.563,-17.067,-2.049,-20.417
10:30:03:74,46.440,-0.850,0.534,-0.023,-15.020,-0.583,-17.076
10:30:03:741,46.440,-0.049,-0.203,0.054,-14.887,1.499,-13.155
10:30:03:764,46.463,-1.243,-0.126,-0.078,-14.294,3.897,-11.090
10:30:03:79,46.489,-0.031,-0.172,0.490,-13.806,2.003,-8.043
10:30:03:816,46.515,0.259,-0.005,-0.069,-13.760,-0.351,-6.401
10:30:03:843,46.543,-0.183,0.025,-0.049,-13.460,-0.887,-4.070
10:30:03:87,46.570,0.005,0.108,-0.013,-13.241,-1.060,-2.825
10:30:03:896,46.596,0.158,0.005,-0.067,-12.782,-2.646,-0.927
10:30:03:921,46.620,-0.016,0.005,-0.020,-11.876,-3.860,1.239
10:30:03:976,46.676,-0.045,-0.019,-0.043,-11.205,-4.479,2.748
10:30:03:977,46.676,-0.003,0.002,-0.007,-10.180,-5.596,4.816
10:30:04:,46.699,0.010,0.046,0.039,-9.560,-6.269,6.004
10:30:04:026,46.725,0.066,0.066,0.031,-8.607,-7.157,7.704
10:30:04:052,46.751,0.038,0.041,0.021,-7.563,-7.934,9.362
10:30:04:078,46.778,0.047,0.101,-0.038,-6.831,-8.451,10.393
10:30:04:134,46.833,0.194,0.112,-0.016,-5.499,-9.278,12.004
10:30:04:134,46.834,0.331,0.138,0.066,-4.372,-9.741,13.305
10:30:04:158,46.858,0.351,0.179,0.000,-2.338,-9.960,15.720
10:30:04:271,46.971,0.393,0.201,-0.153,0.159,-9.739,18.645
10:30:04:272,46.972,0.510,0.335,-0.401,2.190,-9.635,20.793
10:30:04:273,46.973,0.939,0.427,-0.294,6.059,-10.010,24.189
10:30:04:273,46.973,1.156,0.270,-0.596,9.269,-10.487,26.568
10:30:04:288,46.988,1.104,0.188,-0.602,14.509,-10.193,31.249
10:30:04:315,47.014,1.130,-0.159,-0.606,17.622,-9.211,34.782
10:30:04:37,47.070,0.645,-0.229,-0.564,22.273,-7.251,39.127
10:30:04:371,47.070,0.639,-0.809,-0.353,26.473,-6.644,41.677
10:30:04:397,47.096,0.657,-0.820,-0.340,27.176,-6.525,41.930
10:30:04:397,47.097,0.277,-1.022,0.001,27.351,-6.835,40.838
10:30:04:534,47.233,0.376,-1.004,0.020,26.152,-7.194,39.110
10:30:04:534,47.234,0.512,-0.809,0.001,21.826,-7.080,35.413
10:30:04:535,47.235,0.502,-0.533,-0.021,16.201,-6.228,30.399
10:30:04:536,47.236,0.484,-0.358,-0.133,12.315,-5.427,26.287
10:30:04:583,47.282,0.410,-0.155,-0.170,6.870,-4.094,19.051
10:30:04:583,47.283,0.439,0.115,-0.212,3.488,-3.067,13.668
10:30:04:584,47.284,0.229,0.640,-0.225,-1.598,-0.501,4.809
10:30:04:603,47.303,-0.484,1.062,-0.024,-5.113,2.469,-1.552
10:30:04:658,47.358,-1.024,1.118,0.073,-10.170,7.662,-11.274
10:30:04:659,47.359,-1.867,0.322,0.416,-14.404,12.179,-19.756
10:30:04:682,47.382,-2.135,-0.090,0.833,-17.202,13.876,-23.878
10:30:04:738,47.437,-2.120,-1.222,1.251,-19.418,13.421,-26.319
10:30:04:739,47.438,-1.543,-0.022,0.263,-18.896,13.298,-25.272
10:30:04:762,47.462,0.907,1.073,-0.030,-17.279,13.593,-22.263
10:30:04:788,47.488,-0.747,0.497,0.632,-15.376,12.495,-19.312
10:30:04:814,47.513,-0.801,0.552,0.144,-15.332,11.882,-16.805
10:30:04:842,47.542,-0.058,-0.262,0.187,-14.938,13.807,-13.770
10:30:04:868,47.567,-0.785,0.047,0.160,-14.988,15.294,-12.236
10:30:04:893,47.592,-0.174,-0.085,0.176,-15.084,13.110,-10.002
10:30:04:918,47.618,0.282,0.035,-0.130,-15.209,11.404,-8.835
10:30:04:945,47.644,-0.047,0.059,-0.110,-14.991,10.687,-7.012
10:30:04:971,47.670,-0.134,0.079,-0.096,-14.206,9.758,-4.949
10:30:04:997,47.697,0.125,0.029,-0.046,-13.435,8.443,-3.479
10:30:05:023,47.723,0.065,-0.028,0.005,-12.027,7.108,-1.131
10:30:05:05,47.749,-0.089,-0.039,0.017,-11.067,6.681,0.400
10:30:05:077,47.777,-0.052,0.028,0.006,-9.767,5.871,2.434
10:30:05:102,47.801,0.026,0.029,0.027,-8.507,4.822,4.185
10:30:05:129,47.828,0.045,0.020,0.026,-7.676,4.172,5.270
10:30:05:183,47.883,0.029,0.075,0.034,-6.438,3.341,6.800
10:30:05:184,47.884,0.082,0.113,-0.051,-5.550,2.789,7.745
10:30:05:207,47.907,0.144,0.104,-0.097,-3.990,1.845,9.189
10:30:05:234,47.934,0.303,0.124,-0.100,-1.973,1.050,10.993
10:30:05:26,47.959,0.371,0.188,-0.064,-0.364,0.954,12.549
10:30:05:286,47.985,0.459,0.277,-0.129,2.517,1.136,15.457
10:30:05:313,48.012,0.675,0.475,-0.481,4.846,1.370,17.725
10:30:05:338,48.038,1.188,0.518,-0.836,9.270,1.530,21.394
10:30:05:364,48.064,1.230,0.220,-1.197,12.971,1.876,24.197
10:30:05:391,48.091,0.949,0.246,-0.953,18.363,4.426,29.941
10:30:05:417,48.117,0.686,-0.457,-0.945,22.855,8.745,35.762
10:30:05:443,48.143,0.164,-0.347,-0.674,25.201,12.112,39.158
10:30:05:47,48.169,0.376,-1.010,-0.758,26.661,15.801,41.916
10:30:05:583,48.283,0.359,-1.032,-0.528,26.374,17.681,41.828
10:30:05:584,48.284,0.122,-1.093,-0.448,25.397,19.882,39.775
10:30:05:584,48.284,0.150,-0.833,-0.522,22.077,22.145,35.717
10:30:05:585,48.285,0.093,-0.630,-0.530,18.870,23.972,32.061
10:30:05:601,48.301,-0.025,-0.407,-0.538,13.997,26.558,25.053
10:30:05:68,48.380,-0.067,-0.059,-0.672,10.836,28.071,19.548
10:30:05:742,48.442,-0.151,0.182,-0.690,5.964,30.834,10.775
10:30:05:743,48.442,-0.486,0.746,-0.566,2.567,33.639,4.756
10:30:05:743,48.442,-0.980,1.068,0.044,-2.755,39.464,-4.574
10:30:05:743,48.442,-1.065,0.858,0.912,-8.114,45.602,-13.635
10:30:05:758,48.458,-1.124,0.487,1.192,-11.205,48.807,-19.161
10:30:05:785,48.485,-0.935,-0.087,2.953,-15.670,52.180,-25.586
10:30:05:813,48.513,-0.908,-1.335,2.792,-16.946,52.529,-27.488
10:30:05:837,48.537,-0.858,-0.567,1.650,-16.285,52.941,-25.797
10:30:05:863,48.563,1.088,1.426,-0.979,-14.589,53.591,-22.840
10:30:05:89,48.589,0.100,0.197,1.005,-13.246,53.251,-21.271
10:30:05:947,48.646,-0.564,0.454,0.257,-12.692,52.434,-17.849
10:30:05:947,48.647,-0.123,-0.291,0.330,-12.632,54.255,-15.734
10:30:05:968,48.668,-0.622,-0.024,0.666,-12.445,57.731,-13.200
10:30:06:024,48.724,0.135,-0.058,0.006,-12.516,56.889,-11.662
10:30:06:025,48.724,0.197,0.055,-0.375,-12.566,53.821,-9.613
10:30:06:047,48.747,-0.045,0.029,0.047,-12.099,53.336,-7.516
10:30:06:103,48.802,-0.158,0.103,0.197,-11.646,53.135,-6.205
10:30:06:103,48.803,0.098,0.043,-0.168,-10.765,51.384,-4.230
10:30:06:156,48.856,0.064,0.003,-0.100,-10.002,50.522,-2.831
10:30:06:156,48.856,-0.102,-0.039,0.086,-8.707,49.951,-0.675
10:30:06:179,48.878,-0.090,-0.067,0.050,-7.502,49.114,1.285
10:30:06:205,48.904,-0.014,0.002,-0.014,-6.819,48.462,2.404
10:30:06:231,48.930,0.015,0.080,-0.012,-5.761,47.769,3.887
10:30:06:257,48.956,0.098,0.075,0.030,-5.015,47.366,4.787
10:30:06:285,48.984,0.027,0.099,-0.040,-3.801,46.664,6.044
10:30:06:312,49.012,-0.042,0.090,-0.117,-2.885,46.219,6.844
10:30:06:336,49.036,0.049,0.096,-0.238,-1.180,46.818,8.215
10:30:06:362,49.062,0.209,0.223,-0.273,0.991,47.551,10.073
10:30:06:389,49.089,0.197,0.287,-0.392,2.725,47.651,11.614
10:30:06:444,49.143,0.071,0.344,-0.611,5.865,49.145,14.357
10:30:06:445,49.145,0.049,0.504,-1.060,8.392,49.382,16.382
10:30:06:468,49.168,-0.067,0.305,-1.512,13.109,49.904,19.728
10:30:06:494,49.194,-0.200,0.284,-1.287,18.359,52.089,24.775
10:30:06:52,49.220,-0.468,0.029,-1.217,21.790,54.324,28.613
10:30:06:548,49.248,-0.279,-0.482,-1.060,25.946,58.862,34.192
10:30:06:549,49.249,0.070,-0.246,-0.097,28.158,62.901,37.488
10:30:06:601,49.301,-0.284,-0.893,-0.619,27.252,68.036,40.520
10:30:06:602,49.301,-0.233,-1.014,-0.312,25.201,73.090,41.042
10:30:06:654,49.353,-0.265,-1.044,-0.245,23.353,75.323,39.913
10:30:06:654,49.354,-0.298,-0.741,-0.325,19.138,78.198,36.165
10:30:06:737,49.437,-0.364,-0.529,-0.408,15.980,79.959,32.413
10:30:06:737,49.437,-0.448,-0.305,-0.393,11.255,82.434,25.250
10:30:06:738,49.438,-0.541,-0.039,-0.368,8.182,83.969,19.790
10:30:06:785,49.485,-0.566,0.234,-0.257,3.249,86.663,11.081
10:30:06:786,49.485,-0.592,0.733,0.123,-2.216,90.440,1.851
10:30:06:81,49.509,-0.432,1.078,0.625,-6.202,93.382,-4.631
10:30:06:836,49.536,0.304,0.797,1.417,-12.545,97.064,-14.099
10:30:06:862,49.561,0.956,0.662,1.916,-16.402,97.985,-19.815
10:30:06:888,49.588,1.485,-0.894,2.711,-21.903,97.702,-26.003
10:30:06:914,49.614,0.729,-0.493,1.836,-23.759,95.871,-26.295
10:30:06:942,49.642,0.430,-0.171,1.037,-22.621,95.425,-23.952
10:30:06:967,49.667,0.755,1.435,-1.337,-21.015,96.611,-21.478
10:30:06:992,49.692,1.017,0.133,0.798,-19.033,97.089,-19.633
10:30:07:018,49.718,-0.144,0.396,0.738,-18.081,97.646,-16.352
10:30:07:045,49.744,0.099,-0.075,0.632,-17.314,100.830,-13.318
10:30:07:072,49.772,0.077,-0.010,0.887,-16.968,102.378,-11.708
10:30:07:099,49.799,0.162,-0.029,-0.185,-16.831,99.520,-9.138
10:30:07:124,49.823,-0.126,0.058,-0.105,-16.915,97.936,-7.715
10:30:07:15,49.850,-0.140,0.075,0.122,-16.661,97.614,-5.715
10:30:07:177,49.877,-0.086,0.021,-0.024,-16.273,97.068,-4.303
10:30:07:202,49.902,-0.052,0.034,-0.129,-15.300,94.647,-1.972
10:30:07:228,49.928,0.019,-0.007,-0.062,-13.931,92.899,0.527
10:30:07:254,49.954,-0.019,-0.021,0.080,-12.981,92.104,2.159
10:30:07:281,49.981,0.010,0.030,-0.006,-11.612,90.415,4.364
10:30:07:309,50.009,0.022,0.039,-0.106,-10.721,89.183,5.680
10:30:07:334,50.034,0.036,-0.037,-0.040,-9.323,87.844,7.627
10:30:07:361,50.061,0.005,0.054,0.016,-7.985,87.004,9.487
10:30:07:386,50.085,-0.021,0.146,-0.058,-7.088,86.357,10.617
10:30:07:414,50.113,-0.031,0.127,-0.338,-5.476,85.211,12.367
10:30:07:44,50.139,0.059,0.188,-0.409,-4.174,84.633,13.783
10:30:07:467,50.167,-0.074,0.271,-0.362,-1.885,84.479,16.441
10:30:07:494,50.193,-0.318,0.457,-0.558,-0.043,84.516,18.541
10:30:07:519,50.218,-0.348,0.456,-0.863,3.573,84.213,22.008
10:30:07:544,50.244,-0.981,0.293,-1.300,8.378,83.634,25.703
10:30:07:57,50.269,-0.865,0.061,-1.229,12.175,83.557,28.719
10:30:07:596,50.295,-0.913,0.069,-0.979,17.337,85.144,34.415
10:30:07:622,50.322,-0.683,-0.409,-0.719,20.519,86.597,37.736
10:30:07:648,50.348,-0.174,-0.186,0.421,25.174,89.005,41.709
10:30:07:674,50.374,-0.471,-1.010,-0.645,25.858,89.904,43.188
10:30:07:701,50.401,-0.099,-1.100,-0.314,25.429,90.110,42.668
10:30:07:728,50.427,-0.181,-1.203,-0.316,23.180,89.827,40.112
10:30:07:781,50.480,-0.184,-0.888,-0.421,20.040,89.634,37.363
10:30:07:838,50.538,-0.154,-0.579,-0.443,14.061,89.511,31.780
10:30:07:838,50.538,-0.205,-0.421,-0.503,7.983,89.132,24.466
10:30:07:839,50.539,-0.250,-0.124,-0.587,3.835,89.055,18.905
10:30:07:858,50.558,-0.204,0.501,-0.563,-2.554,89.905,9.863
10:30:07:914,50.613,-0.124,1.003,-0.305,-6.923,91.595,3.227
10:30:07:914,50.614,0.337,1.411,0.959,-13.399,95.949,-7.555
10:30:07:937,50.637,0.452,0.673,2.149,-17.284,98.836,-14.478
10:30:08:021,50.721,1.128,-0.249,2.631,-22.547,101.066,-22.329
10:30:08:022,50.722,1.355,-1.340,2.441,-25.850,99.406,-24.805
10:30:08:023,50.723,0.748,-0.049,1.722,-25.456,98.510,-23.195
10:30:08:042,50.742,0.553,1.935,-2.733,-23.198,100.135,-20.444
10:30:08:068,50.768,0.826,0.413,1.311,-20.397,101.213,-18.372
10:30:08:095,50.794,0.247,0.495,0.976,-19.105,101.943,-14.279
10:30:08:123,50.822,-0.227,-0.056,0.583,-17.983,103.946,-10.753
10:30:08:148,50.847,-0.047,0.105,0.686,-17.349,104.556,-8.702
10:30:08:173,50.873,0.275,-0.142,-0.154,-16.301,100.980,-5.547
10:30:08:199,50.899,0.038,0.033,-0.266,-15.875,99.230,-3.798
10:30:08:226,50.926,-0.016,0.072,0.186,-15.265,98.741,-1.521
10:30:08:252,50.952,0.052,0.044,0.089,-14.695,97.810,0.359
10:30:08:278,50.978,-0.047,-0.051,-0.042,-14.297,96.380,1.617
10:30:08:305,51.004,0.012,0.000,0.029,-13.616,94.695,3.349
10:30:08:331,51.030,-0.023,0.049,0.006,-13.138,93.860,4.421
10:30:08:387,51.086,0.006,0.065,-0.069,-12.329,92.204,5.996
10:30:08:387,51.087,-0.010,-0.001,-0.103,-11.285,90.630,7.579
10:30:08:41,51.110,0.024,0.019,-0.070,-10.490,89.856,8.689
10:30:08:436,51.136,-0.031,0.125,-0.110,-9.178,88.832,10.394
10:30:08:462,51.162,-0.055,0.116,-0.230,-8.143,88.114,11.617
