Time,Second,AccelerationX,AccelerationY,AccelerationZ,EulerAnglesX,EulerAnglesY,EulerAnglesZ
16:39:06:196,0.000,-0.004,0.019,0.064,15.472,-119.423,18.392
16:39:06:224,0.028,0.001,0.021,0.048,15.360,-119.649,18.059
16:39:06:225,0.029,-0.007,0.014,0.037,15.247,-119.877,17.812
16:39:06:249,0.054,-0.016,0.013,0.031,15.203,-120.408,17.688
16:39:06:274,0.079,-0.028,0.001,0.029,15.172,-120.889,17.569
16:39:06:33,0.135,-0.029,-0.010,0.032,15.177,-121.359,17.515
16:39:06:331,0.136,-0.042,-0.009,0.033,15.208,-121.898,17.454
16:39:06:383,0.187,-0.047,-0.015,0.047,15.272,-122.385,17.347
16:39:06:383,0.187,-0.042,0.003,0.020,15.315,-122.469,17.281
16:39:06:405,0.209,-0.038,-0.001,0.012,15.371,-122.366,17.261
16:39:06:431,0.235,-0.037,-0.007,0.006,15.418,-122.241,17.182
16:39:06:457,0.261,-0.007,-0.010,0.007,15.512,-122.087,16.975
16:39:06:484,0.288,-0.003,-0.006,0.002,15.581,-122.049,16.812
16:39:06:512,0.316,0.003,-0.004,0.017,15.709,-122.056,16.506
16:39:06:537,0.341,0.013,0.033,-0.027,15.840,-121.998,16.196
16:39:06:564,0.368,0.038,0.052,-0.010,15.908,-121.824,16.054
16:39:06:59,0.394,0.051,0.042,-0.023,15.966,-121.129,16.116
16:39:06:614,0.419,0.092,0.107,-0.126,15.985,-120.480,16.387
16:39:06:641,0.446,0.080,0.095,-0.121,16.159,-119.703,17.070
16:39:06:668,0.473,0.069,0.069,-0.103,16.511,-119.294,18.125
16:39:06:696,0.501,0.050,0.043,-0.082,16.819,-118.992,19.080
16:39:06:721,0.526,0.040,-0.004,-0.055,17.316,-118.458,20.790
16:39:06:773,0.577,0.022,-0.046,-0.030,18.055,-117.023,23.962
16:39:06:8,0.604,0.013,-0.050,-0.030,18.247,-116.295,25.197
16:39:06:825,0.629,0.006,-0.060,-0.013,18.462,-115.075,26.905
16:39:06:851,0.655,0.015,-0.018,-0.019,18.526,-113.765,28.479
16:39:06:878,0.682,0.015,0.011,-0.017,18.557,-112.952,29.433
16:39:06:904,0.708,0.004,0.065,-0.016,18.671,-112.049,30.793
16:39:06:932,0.736,-0.023,0.063,0.023,18.763,-111.547,31.725
16:39:06:957,0.761,-0.020,0.061,0.032,18.858,-110.777,33.253
16:39:06:982,0.787,-0.021,0.067,0.017,18.818,-109.918,34.955
16:39:07:008,0.813,-0.055,0.041,0.032,18.784,-109.387,36.181
16:39:07:035,0.840,-0.054,0.002,0.045,18.750,-108.690,38.120
16:39:07:062,0.867,-0.032,-0.031,0.059,18.659,-108.154,39.460
16:39:07:088,0.893,-0.044,-0.039,0.056,18.368,-107.375,41.328
16:39:07:115,0.920,-0.042,-0.014,0.050,17.806,-106.455,43.002
16:39:07:14,0.944,-0.043,-0.022,0.045,17.272,-105.736,44.021
16:39:07:167,0.971,-0.025,-0.035,0.055,16.407,-104.567,45.444
16:39:07:223,1.027,-0.011,-0.041,0.038,15.705,-103.800,46.333
16:39:07:223,1.027,0.006,-0.009,0.006,14.388,-102.621,47.457
16:39:07:245,1.049,-0.023,-0.061,0.040,13.525,-101.905,48.013
16:39:07:271,1.075,0.004,-0.010,0.004,12.801,-101.187,48.767
16:39:07:298,1.102,-0.033,-0.005,0.009,12.605,-100.852,49.201
16:39:07:324,1.128,-0.011,0.007,0.006,12.459,-100.658,49.424
16:39:07:35,1.154,-0.023,-0.022,0.036,12.135,-100.430,49.718
16:39:07:377,1.181,0.016,0.013,-0.016,11.555,-100.109,49.978
16:39:07:403,1.207,0.001,0.002,-0.004,10.598,-99.741,50.295
16:39:07:43,1.234,0.006,-0.010,-0.016,9.409,-99.289,50.650
16:39:07:455,1.260,0.002,0.032,-0.041,8.572,-98.981,50.878
16:39:07:481,1.286,-0.018,-0.013,-0.007,7.853,-98.750,51.128
16:39:07:507,1.312,-0.026,-0.020,-0.006,7.510,-98.601,51.266
16:39:07:534,1.339,-0.012,-0.016,-0.007,7.019,-98.353,51.417
16:39:07:56,1.365,-0.010,-0.013,0.003,6.749,-98.175,51.474
16:39:07:587,1.391,-0.013,-0.007,0.008,6.346,-97.882,51.498
16:39:07:613,1.417,-0.005,0.037,0.004,5.882,-97.528,51.518
16:39:07:639,1.443,0.003,0.049,-0.003,5.625,-97.324,51.532
16:39:07:666,1.470,-0.011,0.039,0.013,5.399,-97.215,51.575
16:39:07:691,1.495,-0.004,0.026,0.007,5.355,-97.161,51.621
16:39:07:718,1.522,-0.008,0.003,0.012,5.472,-97.222,51.671
16:39:07:744,1.548,-0.006,-0.010,0.014,5.640,-97.319,51.692
16:39:07:77,1.574,-0.004,-0.005,0.010,5.748,-97.434,51.687
16:39:07:797,1.601,0.007,-0.012,0.010,5.819,-97.516,51.670
16:39:07:822,1.627,0.016,0.004,0.005,5.827,-97.548,51.666
16:39:07:848,1.653,0.005,0.008,0.006,5.843,-97.592,51.660
16:39:07:875,1.680,0.018,0.019,0.002,5.827,-97.548,51.666
16:39:07:902,1.707,0.005,0.019,0.004,5.830,-97.550,51.683
16:39:07:927,1.732,-0.003,0.008,0.019,5.921,-97.622,51.684
16:39:07:954,1.759,-0.016,0.016,0.014,6.002,-97.658,51.672
16:39:07:98,1.784,-0.019,0.013,0.015,6.202,-97.758,51.611
16:39:08:034,1.838,-0.026,0.011,0.013,6.649,-97.934,51.499
16:39:08:059,1.863,-0.024,0.003,0.018,6.890,-98.023,51.427
16:39:08:085,1.889,-0.026,-0.014,0.025,7.122,-98.088,51.351
16:39:08:112,1.916,-0.014,0.010,0.006,7.247,-98.150,51.234
16:39:08:138,1.942,-0.001,0.007,0.009,7.291,-98.076,51.153
16:39:08:164,1.968,-0.002,-0.004,0.014,7.366,-97.947,51.019
16:39:08:19,1.995,0.008,0.000,0.000,7.410,-97.813,50.864
16:39:08:217,2.022,0.000,-0.001,0.002,7.508,-97.861,50.754
16:39:08:243,2.047,0.012,0.008,-0.006,7.654,-97.826,50.591
16:39:08:269,2.073,-0.007,-0.004,0.002,7.790,-97.843,50.463
16:39:08:295,2.100,0.014,0.041,-0.020,7.962,-97.893,50.290
16:39:08:321,2.126,0.006,0.049,-0.010,8.377,-98.132,50.146
16:39:08:347,2.152,-0.001,0.025,0.005,8.811,-98.366,50.084
16:39:08:373,2.178,-0.025,0.006,0.002,9.341,-98.692,50.046
16:39:08:4,2.205,-0.013,0.006,-0.006,9.579,-98.802,50.048
16:39:08:426,2.231,-0.012,-0.002,-0.012,9.879,-98.923,50.045
16:39:08:452,2.256,-0.005,-0.001,-0.004,10.143,-99.048,50.031
16:39:08:479,2.283,-0.006,0.009,-0.007,10.536,-99.273,49.984
16:39:08:505,2.309,-0.010,0.015,-0.001,11.004,-99.543,49.935
16:39:08:534,2.338,-0.020,0.009,0.012,11.308,-99.856,49.897
16:39:08:535,2.339,-0.027,0.008,0.009,11.565,-99.992,49.823
16:39:08:587,2.391,0.009,0.060,-0.035,11.609,-100.022,49.800
16:39:08:588,2.392,0.026,0.045,-0.044,11.328,-99.836,49.907
16:39:08:611,2.415,0.004,-0.002,-0.002,11.440,-99.998,49.964
16:39:08:637,2.441,-0.020,0.000,-0.008,11.596,-100.171,49.980
16:39:08:662,2.467,-0.036,-0.006,0.008,11.680,-100.301,49.967
16:39:08:688,2.493,-0.019,0.017,0.000,11.569,-100.252,49.956
16:39:08:715,2.520,-0.006,0.011,0.001,11.442,-100.160,49.961
16:39:08:741,2.546,-0.010,0.011,0.006,11.328,-100.084,49.968
16:39:08:796,2.601,-0.006,0.012,0.011,11.288,-100.040,49.968
16:39:08:797,2.602,-0.007,0.007,0.004,11.199,-99.975,49.971
16:39:08:82,2.624,0.002,-0.002,0.012,11.125,-99.912,49.982
16:39:08:846,2.650,-0.008,0.002,0.007,10.984,-99.793,49.967
16:39:08:873,2.677,-0.009,0.005,0.012,10.905,-99.705,49.947
16:39:08:899,2.703,-0.024,-0.001,0.016,10.808,-99.557,49.873
16:39:08:925,2.729,-0.007,0.003,0.017,10.666,-99.351,49.823
16:39:08:952,2.757,0.004,0.035,-0.007,10.558,-99.205,49.796
16:39:08:977,2.782,0.006,0.024,0.006,10.415,-98.991,49.791
16:39:09:004,2.809,-0.005,0.021,0.003,10.328,-98.864,49.819
16:39:09:03,2.834,-0.006,0.008,0.002,10.034,-98.566,49.905
16:39:09:056,2.860,-0.008,0.001,0.017,9.217,-97.970,50.084
16:39:09:083,2.887,-0.006,0.002,0.022,8.444,-97.438,50.203
16:39:09:109,2.913,-0.021,0.010,0.004,6.905,-96.381,50.443
16:39:09:135,2.939,-0.008,0.040,-0.038,5.672,-95.551,50.645
16:39:09:163,2.967,-0.014,0.060,-0.040,3.865,-94.320,50.975
16:39:09:189,2.993,-0.035,0.076,-0.048,3.042,-93.684,51.254
16:39:09:214,3.018,-0.045,0.088,-0.044,2.258,-92.800,51.777
16:39:09:239,3.044,-0.054,0.055,-0.011,1.954,-92.133,52.462
16:39:09:266,3.071,-0.051,0.022,0.028,1.728,-91.591,53.019
16:39:09:292,3.097,-0.021,0.016,0.047,1.164,-90.658,54.025
16:39:09:319,3.124,-0.005,0.010,0.070,0.732,-89.745,54.800
16:39:09:345,3.150,0.012,0.021,0.075,0.023,-88.641,56.108
16:39:09:371,3.176,0.059,0.022,0.085,-1.106,-87.000,57.455
16:39:09:397,3.201,0.058,0.017,0.093,-2.265,-86.108,58.290
16:39:09:426,3.230,0.079,0.016,0.042,-4.702,-84.230,59.375
16:39:09:452,3.256,0.052,0.022,0.019,-6.621,-83.367,59.983
16:39:09:478,3.282,0.036,-0.013,-0.008,-9.240,-81.915,60.657
16:39:09:503,3.307,0.008,-0.040,-0.005,-10.815,-81.355,60.954
16:39:09:53,3.334,-0.023,-0.063,-0.011,-13.193,-80.571,61.258
16:39:09:555,3.359,-0.010,-0.044,-0.022,-15.494,-79.808,61.456
16:39:09:582,3.386,-0.023,-0.021,-0.037,-16.909,-79.456,61.527
16:39:09:607,3.412,-0.032,-0.001,-0.044,-18.655,-78.730,61.593
16:39:09:634,3.439,-0.042,0.002,-0.043,-19.470,-78.542,61.618
16:39:09:66,3.465,-0.036,0.003,-0.043,-20.223,-78.295,61.703
16:39:09:686,3.491,0.015,0.010,-0.048,-20.505,-78.277,61.807
16:39:09:743,3.548,0.017,0.002,-0.043,-20.449,-78.302,61.826
16:39:09:743,3.548,0.022,-0.006,-0.040,-20.266,-78.487,61.870
16:39:09:765,3.569,0.022,-0.005,-0.028,-20.056,-78.563,61.902
16:39:09:791,3.595,0.039,-0.007,-0.004,-19.559,-78.916,61.872
16:39:09:818,3.622,0.039,-0.018,0.008,-19.031,-79.141,61.786
16:39:09:844,3.648,0.046,-0.002,0.011,-18.021,-79.558,61.559
16:39:09:871,3.675,0.054,0.036,0.029,-17.109,-79.963,61.193
16:39:09:897,3.701,0.032,0.059,0.022,-16.378,-80.246,60.896
16:39:09:922,3.727,0.026,0.064,-0.012,-15.590,-80.431,60.432
16:39:09:949,3.754,0.004,0.087,-0.020,-14.856,-80.756,60.136
16:39:09:975,3.780,0.008,0.038,0.011,-13.172,-81.429,59.773
16:39:10:001,3.806,0.000,0.029,0.008,-10.869,-82.387,59.532
16:39:10:027,3.832,0.046,0.036,0.002,-9.024,-83.124,59.377
16:39:10:054,3.859,0.024,0.020,0.030,-5.964,-84.293,59.121
16:39:10:081,3.885,0.061,0.045,0.000,-3.960,-85.054,58.953
16:39:10:106,3.910,0.092,0.001,0.027,0.017,-86.496,58.678
16:39:10:133,3.937,0.051,-0.114,0.099,4.896,-88.376,58.336
16:39:10:158,3.963,0.013,-0.140,0.107,8.158,-89.650,57.961
16:39:10:185,3.990,0.047,-0.038,0.042,11.605,-91.138,57.402
16:39:10:24,4.045,0.040,-0.057,0.055,13.917,-92.179,56.904
16:39:10:241,4.046,0.063,-0.035,0.044,16.847,-93.584,56.044
16:39:10:294,4.098,0.041,-0.098,0.074,19.701,-95.056,54.940
16:39:10:294,4.098,0.014,-0.131,0.086,21.390,-96.032,54.015
16:39:10:316,4.121,-0.012,-0.162,0.081,23.452,-97.551,52.360
16:39:10:342,4.147,-0.038,-0.205,0.106,24.548,-98.434,51.049
16:39:10:368,4.173,-0.064,-0.137,0.119,25.514,-99.697,48.856
16:39:10:397,4.202,0.044,0.019,0.087,25.607,-100.300,46.523
16:39:10:422,4.227,0.147,0.127,-0.034,25.423,-100.720,44.908
16:39:10:448,4.252,0.098,0.214,0.083,25.562,-102.133,42.160
16:39:10:474,4.278,-0.036,0.189,0.082,25.672,-103.618,40.241
16:39:10:499,4.304,-0.227,0.137,0.182,25.155,-104.726,37.756
16:39:10:528,4.333,-0.102,0.170,0.006,24.386,-104.582,36.804
16:39:10:554,4.359,0.044,0.070,0.038,23.606,-103.542,35.724
16:39:10:58,4.385,0.114,0.048,0.008,22.992,-102.400,35.009
16:39:10:634,4.438,0.033,0.006,0.055,22.566,-101.673,34.383
16:39:10:635,4.439,-0.040,-0.005,0.043,21.714,-100.211,33.482
16:39:10:659,4.463,-0.024,-0.020,-0.023,20.948,-98.630,33.078
16:39:10:684,4.488,-0.027,-0.050,-0.065,19.692,-95.785,32.744
16:39:10:71,4.514,-0.007,-0.035,-0.138,18.529,-93.087,32.498
16:39:10:736,4.540,-0.014,-0.016,-0.145,17.783,-91.645,32.281
16:39:10:763,4.567,-0.029,0.014,-0.195,16.765,-90.183,31.818
16:39:10:792,4.596,-0.038,0.044,-0.215,16.245,-89.667,31.509
16:39:10:793,4.597,-0.066,0.031,-0.212,15.775,-89.380,31.207
16:39:10:816,4.620,-0.112,-0.023,-0.134,15.683,-89.633,31.089
16:39:10:842,4.646,-0.098,-0.059,-0.128,15.673,-90.039,31.054
16:39:10:867,4.672,-0.092,-0.114,0.029,15.844,-90.750,31.020
16:39:10:893,4.698,-0.099,-0.098,0.066,15.976,-91.173,30.849
16:39:10:92,4.725,-0.131,-0.107,0.153,16.102,-91.526,30.498
16:39:10:948,4.753,-0.135,-0.079,0.069,16.116,-91.238,30.376
16:39:11:002,4.806,-0.056,-0.066,0.006,16.104,-91.102,29.935
16:39:11:002,4.806,-0.039,-0.059,0.065,16.090,-91.731,28.881
16:39:11:026,4.830,-0.014,-0.048,0.041,16.111,-92.369,27.965
16:39:11:051,4.855,-0.025,-0.002,0.052,16.157,-93.983,26.224
16:39:11:078,4.882,-0.032,0.022,0.088,16.166,-95.294,24.899
16:39:11:105,4.909,-0.039,0.054,0.065,16.060,-97.219,22.936
16:39:11:131,4.935,-0.031,0.089,0.072,15.802,-98.860,21.170
16:39:11:156,4.960,-0.013,0.097,0.035,15.640,-99.853,20.107
16:39:11:212,5.016,0.008,0.132,0.036,15.369,-101.122,18.809
16:39:11:213,5.017,0.031,0.081,-0.067,15.372,-102.076,17.954
16:39:11:234,5.039,0.036,0.048,0.040,15.425,-104.219,16.718
16:39:11:261,5.066,0.036,0.022,-0.004,15.486,-105.661,15.988
16:39:11:287,5.092,0.036,0.002,0.006,15.565,-107.715,15.033
16:39:11:314,5.119,0.037,-0.003,0.024,15.601,-109.387,14.375
16:39:11:34,5.145,0.051,0.009,0.042,15.541,-110.009,14.149
16:39:11:367,5.172,0.064,-0.006,0.019,15.223,-110.266,14.109
16:39:11:451,5.255,0.066,-0.044,0.002,14.897,-109.961,14.262
16:39:11:452,5.256,0.074,-0.063,-0.007,14.350,-109.119,14.676
16:39:11:453,5.257,0.083,-0.069,-0.027,13.532,-107.961,15.171
16:39:11:474,5.278,0.076,-0.064,-0.043,12.844,-107.282,15.450
16:39:11:551,5.355,0.064,-0.035,-0.081,11.662,-106.468,15.672
16:39:11:603,5.407,0.039,0.007,-0.112,10.823,-106.330,15.649
16:39:11:681,5.486,0.013,0.026,-0.122,9.642,-106.988,15.330
16:39:11:744,5.549,-0.007,0.036,-0.111,8.981,-108.033,14.967
16:39:11:744,5.549,-0.020,0.046,-0.126,8.189,-110.368,14.296
16:39:11:745,5.550,-0.026,0.055,-0.115,7.750,-113.172,13.638
16:39:11:746,5.551,-0.054,0.069,-0.102,7.550,-115.092,13.142
16:39:11:769,5.573,-0.058,0.063,-0.108,7.372,-117.758,12.429
16:39:11:77,5.574,-0.058,0.049,-0.118,7.304,-119.059,12.032
16:39:11:77,5.574,-0.035,0.049,-0.101,7.760,-120.475,12.007
16:39:11:771,5.575,-0.025,0.074,-0.098,8.218,-121.145,12.310
16:39:11:816,5.620,-0.013,0.079,-0.084,8.548,-121.266,12.687
16:39:11:817,5.621,-0.007,0.076,-0.074,9.051,-121.286,13.407
16:39:11:866,5.670,0.013,0.064,-0.044,9.398,-121.146,13.937
16:39:11:895,5.699,0.015,0.037,-0.044,9.895,-120.676,14.745
16:39:11:895,5.699,0.012,0.008,-0.029,10.430,-119.963,15.465
16:39:11:918,5.722,0.006,-0.004,-0.023,10.818,-119.430,15.929
16:39:11:945,5.749,0.031,-0.017,-0.005,11.402,-118.349,16.592
16:39:11:971,5.775,0.040,-0.015,0.002,11.753,-117.500,17.000
16:39:11:996,5.800,0.069,0.018,0.048,12.270,-116.136,17.507
16:39:12:023,5.827,0.089,0.035,0.075,12.654,-115.075,17.791
16:39:12:048,5.853,0.137,0.050,0.096,13.121,-113.190,18.160
16:39:12:075,5.880,0.150,0.105,0.101,13.357,-110.969,18.470
16:39:12:131,5.936,0.144,0.038,0.063,13.353,-109.381,18.617
16:39:12:131,5.936,0.110,-0.062,-0.002,13.131,-107.061,18.813
16:39:12:154,5.959,0.062,-0.129,-0.029,12.897,-105.820,18.970
16:39:12:238,6.042,0.047,-0.107,-0.023,12.586,-104.526,19.284
16:39:12:239,6.043,0.031,-0.033,0.014,12.456,-104.785,19.600
16:39:12:24,6.044,0.038,0.005,0.019,12.482,-105.469,19.709
16:39:12:259,6.063,0.041,0.019,0.041,12.711,-107.003,19.641
16:39:12:285,6.089,0.005,-0.027,0.064,12.977,-108.218,19.409
16:39:12:312,6.116,-0.031,-0.053,0.066,13.407,-109.957,18.880
16:39:12:367,6.171,-0.054,-0.081,0.045,13.644,-111.205,18.523
16:39:12:368,6.172,-0.064,-0.055,0.025,13.850,-111.987,18.116
16:39:12:391,6.195,-0.045,0.008,0.046,13.921,-112.476,17.928
16:39:12:475,6.280,-0.028,0.077,0.043,13.912,-112.373,17.896
16:39:12:475,6.280,-0.008,0.061,0.025,13.863,-112.044,17.863
16:39:12:476,6.281,-0.015,0.021,-0.002,13.782,-111.771,17.828
16:39:12:526,6.331,-0.025,-0.064,-0.038,13.536,-111.417,17.814
16:39:12:527,6.332,-0.037,-0.062,-0.076,13.226,-111.417,17.836
16:39:12:578,6.382,-0.029,-0.048,-0.076,13.098,-111.810,17.812
16:39:12:579,6.383,-0.059,0.005,-0.046,13.127,-113.098,17.643
16:39:12:6,6.404,-0.064,0.037,-0.045,13.246,-114.032,17.481
16:39:12:657,6.461,-0.054,0.037,-0.034,13.489,-115.080,17.219
16:39:12:657,6.461,0.007,0.009,-0.028,13.640,-115.396,17.091
16:39:12:679,6.483,0.035,-0.012,-0.041,13.858,-115.661,17.015
16:39:12:705,6.509,0.046,-0.022,0.008,14.097,-115.865,17.038
16:39:12:732,6.536,0.052,-0.012,0.000,14.297,-116.150,17.145
16:39:12:759,6.563,0.057,0.017,0.011,14.630,-116.631,17.407
16:39:12:785,6.589,0.048,0.022,0.023,14.855,-116.945,17.633
16:39:12:81,6.615,0.044,0.025,0.040,15.107,-117.228,18.041
16:39:12:836,6.641,0.041,0.023,0.046,15.181,-117.380,18.501
16:39:12:862,6.667,0.050,0.012,0.054,15.158,-117.414,18.829
16:39:12:889,6.693,0.038,0.009,0.048,15.101,-117.642,19.352
16:39:12:915,6.719,0.023,0.015,0.074,14.987,-117.816,19.619
16:39:12:943,6.747,0.015,0.018,0.057,14.810,-118.206,19.962
16:39:12:969,6.773,0.014,0.016,0.041,14.778,-118.637,20.303
16:39:12:996,6.801,-0.030,-0.017,0.079,14.914,-119.246,20.494
16:39:12:997,6.802,-0.009,-0.031,0.048,15.338,-120.344,20.680
16:39:13:161,6.965,-0.074,-0.002,0.095,15.640,-121.375,20.690
16:39:13:161,6.965,-0.099,-0.044,0.035,15.938,-122.067,20.709
16:39:13:162,6.966,-0.057,-0.018,0.053,16.019,-122.603,20.718
16:39:13:163,6.967,-0.040,-0.037,0.012,16.065,-122.358,20.689
16:39:13:212,7.016,-0.011,-0.014,0.030,16.094,-121.992,20.560
16:39:13:212,7.016,-0.005,0.027,0.036,16.146,-121.800,20.399
16:39:13:212,7.016,0.030,0.012,0.037,16.271,-121.676,20.099
16:39:13:233,7.037,0.031,-0.001,0.036,16.336,-121.532,19.847
16:39:13:234,7.038,0.053,0.009,0.021,16.295,-121.563,19.473
16:39:13:285,7.090,0.037,0.000,0.031,16.225,-121.386,19.237
16:39:13:286,7.091,0.043,-0.004,0.019,16.087,-120.945,18.991
16:39:13:308,7.113,-0.001,-0.020,-0.017,15.947,-120.392,18.928
16:39:13:335,7.140,-0.023,-0.022,-0.049,15.858,-119.952,19.006
16:39:13:391,7.195,-0.020,-0.012,-0.072,15.699,-119.299,19.226
16:39:13:391,7.195,-0.091,0.008,-0.069,15.692,-119.167,19.401
16:39:13:415,7.219,-0.108,-0.001,-0.124,15.682,-118.982,19.629
16:39:13:441,7.245,-0.110,-0.014,-0.103,15.612,-118.843,19.759
16:39:13:496,7.300,-0.119,-0.048,-0.050,15.425,-119.054,19.715
16:39:13:496,7.300,-0.104,-0.061,-0.032,15.095,-119.595,19.472
16:39:13:519,7.323,-0.082,-0.067,-0.042,14.883,-120.091,19.232
16:39:13:574,7.379,-0.045,-0.026,-0.033,14.589,-120.946,18.785
16:39:13:575,7.380,-0.039,0.054,-0.032,14.407,-122.046,18.297
16:39:13:599,7.404,-0.046,0.093,-0.030,14.339,-122.822,17.985
16:39:13:653,7.457,-0.031,0.109,-0.037,14.300,-123.751,17.687
16:39:13:654,7.458,-0.016,0.062,-0.017,14.339,-123.919,17.599
16:39:13:677,7.481,-0.008,0.031,-0.006,14.482,-123.984,17.692
16:39:13:704,7.508,-0.004,-0.017,0.037,14.610,-123.953,17.927
16:39:13:73,7.534,0.011,-0.030,0.041,14.839,-123.898,18.547
16:39:13:756,7.560,0.005,-0.017,0.061,15.051,-123.616,19.324
16:39:13:782,7.586,0.002,-0.007,0.062,15.089,-123.394,19.750
16:39:13:808,7.612,0.001,0.011,0.056,14.966,-123.049,20.133
16:39:13:833,7.638,-0.008,-0.006,0.029,14.865,-122.873,20.258
16:39:13:889,7.694,-0.014,-0.027,0.015,14.746,-122.754,20.281
16:39:13:89,7.695,0.012,-0.039,0.027,14.563,-122.880,20.123
16:39:13:912,7.717,-0.004,-0.024,0.003,14.387,-123.030,19.922
16:39:13:939,7.744,-0.013,-0.004,-0.020,14.090,-123.495,19.498
16:39:13:965,7.770,-0.022,-0.008,-0.050,13.948,-124.003,19.135
16:39:14:02,7.824,-0.024,-0.020,-0.039,13.806,-125.062,18.498
16:39:14:021,7.825,-0.024,0.001,-0.046,13.855,-126.149,17.918
16:39:14:071,7.875,-0.009,0.014,-0.032,13.936,-126.825,17.542
16:39:14:099,7.903,0.011,0.028,-0.008,14.050,-127.667,17.008
16:39:14:1,7.904,0.046,0.035,0.003,14.123,-127.946,16.699
16:39:14:123,7.927,0.062,0.034,-0.007,14.236,-128.015,16.333
16:39:14:15,7.954,0.068,0.017,-0.023,14.290,-127.919,16.141
16:39:14:175,7.979,0.059,0.006,-0.032,14.284,-127.632,16.109
16:39:14:201,8.006,0.063,-0.007,-0.029,14.388,-127.333,16.067
16:39:14:227,8.032,0.057,-0.005,-0.028,14.430,-127.123,16.196
16:39:14:254,8.059,0.057,-0.010,-0.005,14.434,-126.771,16.575
16:39:14:28,8.085,0.054,-0.005,0.010,14.394,-126.502,16.828
16:39:14:307,8.112,0.058,0.000,0.018,14.240,-125.968,17.241
16:39:14:333,8.138,0.050,0.002,0.010,13.997,-125.320,17.673
16:39:14:359,8.163,0.041,-0.005,0.000,13.812,-124.914,17.957
16:39:14:385,8.189,0.010,-0.009,-0.008,13.587,-124.531,18.326
16:39:14:412,8.216,-0.003,-0.013,-0.008,13.445,-124.439,18.529
16:39:14:467,8.271,-0.016,-0.015,-0.011,13.231,-124.552,18.779
16:39:14:468,8.272,-0.032,-0.004,0.001,13.105,-124.738,18.892
16:39:14:517,8.321,-0.032,0.001,-0.004,12.938,-124.983,18.947
16:39:14:546,8.350,-0.033,0.008,-0.014,12.777,-125.160,18.882
16:39:14:547,8.351,-0.056,0.022,-0.026,12.743,-125.227,18.798
16:39:14:569,8.373,-0.075,0.016,-0.052,12.580,-125.184,18.701
16:39:14:624,8.429,-0.066,0.018,-0.051,12.498,-125.092,18.651
16:39:14:625,8.430,-0.061,0.019,-0.052,12.559,-124.928,18.624
16:39:14:648,8.453,-0.048,0.015,-0.039,12.863,-124.855,18.637
16:39:14:674,8.479,-0.047,0.021,-0.032,13.055,-124.851,18.645
16:39:14:7,8.505,-0.039,0.027,-0.001,13.351,-124.789,18.620
16:39:14:755,8.559,-0.045,0.038,-0.001,13.552,-124.568,18.613
16:39:14:756,8.560,-0.039,0.027,0.017,13.875,-123.990,18.613
16:39:14:779,8.583,-0.039,0.017,0.023,14.090,-123.383,18.655
16:39:14:805,8.610,-0.048,0.060,0.042,14.416,-122.142,18.798
16:39:14:831,8.636,-0.046,0.035,0.062,14.730,-120.524,19.144
16:39:14:857,8.662,-0.009,-0.012,0.069,14.910,-119.224,19.433
16:39:14:913,8.718,-0.024,-0.021,0.064,15.168,-117.166,19.970
16:39:14:913,8.718,-0.034,-0.005,0.070,15.333,-115.850,20.350
16:39:14:936,8.740,-0.024,-0.001,0.069,15.538,-114.093,20.643
16:39:14:992,8.796,-0.001,-0.056,0.060,15.673,-112.568,20.703
16:39:14:993,8.797,-0.014,-0.053,0.054,15.798,-111.541,20.701
16:39:15:015,8.819,-0.031,-0.032,0.043,16.015,-110.516,20.422
16:39:15:102,8.906,-0.038,-0.005,0.058,16.171,-109.971,20.041
16:39:15:102,8.906,0.007,0.084,0.045,16.437,-109.188,19.179
16:39:15:102,8.906,-0.001,0.014,0.026,16.702,-108.577,17.958
16:39:15:121,8.925,0.001,-0.021,0.007,16.848,-108.210,17.093
16:39:15:147,8.952,-0.019,-0.059,-0.033,17.070,-107.373,15.932
16:39:15:172,8.977,-0.006,-0.051,-0.065,17.206,-106.982,15.302
16:39:15:199,9.004,0.025,-0.021,-0.061,17.429,-106.540,14.514
16:39:15:225,9.030,0.066,0.020,-0.048,17.600,-106.332,14.051
16:39:15:254,9.059,0.076,0.038,-0.031,17.890,-106.016,13.429
16:39:15:255,9.060,0.072,0.002,-0.030,18.144,-105.416,12.922
16:39:15:308,9.112,0.089,-0.063,-0.045,18.238,-104.344,12.720
16:39:15:308,9.112,0.093,-0.099,-0.095,18.219,-102.556,12.648
16:39:15:33,9.134,0.095,-0.075,-0.119,18.077,-101.083,12.711
16:39:15:357,9.161,0.086,-0.081,-0.158,17.690,-99.233,12.842
16:39:15:55,9.355,0.066,-0.096,-0.196,17.153,-98.032,12.884
16:39:15:55,9.355,0.039,-0.067,-0.203,16.787,-97.859,12.824
16:39:15:551,9.356,0.014,-0.012,-0.170,16.247,-98.431,12.605
16:39:15:552,9.357,-0.004,0.059,-0.174,15.944,-99.453,12.413
16:39:15:575,9.380,0.015,0.100,-0.131,15.633,-101.509,12.051
16:39:15:575,9.380,0.005,0.061,-0.104,15.484,-102.947,11.845
16:39:15:576,9.381,0.005,0.023,-0.065,15.306,-104.815,11.725
16:39:15:577,9.382,-0.008,-0.025,-0.047,15.154,-106.085,12.040
16:39:15:592,9.397,-0.002,-0.027,-0.075,15.021,-106.570,12.549
16:39:15:618,9.423,-0.025,0.022,-0.051,14.897,-107.203,13.595
16:39:15:674,9.478,-0.007,0.036,-0.058,14.816,-107.691,14.384
16:39:15:675,9.479,-0.023,0.050,-0.054,14.781,-108.522,15.564
16:39:15:698,9.502,-0.014,-0.003,-0.003,14.883,-109.777,16.598
16:39:15:724,9.528,-0.018,-0.024,0.014,14.970,-110.607,17.226
16:39:15:75,9.554,-0.018,-0.039,0.024,15.116,-111.777,18.125
16:39:15:776,9.580,-0.021,-0.044,0.026,15.175,-112.436,18.666
16:39:15:804,9.608,-0.022,0.016,0.016,15.280,-113.435,19.355
16:39:15:829,9.633,-0.007,0.022,0.036,15.372,-114.498,19.835
16:39:15:886,9.690,-0.005,0.021,0.038,15.453,-115.230,20.018
16:39:15:886,9.690,-0.021,0.020,0.039,15.577,-116.359,20.069
16:39:15:907,9.712,-0.020,0.019,0.052,15.661,-117.062,20.074
16:39:15:963,9.768,-0.015,0.015,0.051,15.751,-117.939,20.082
16:39:15:963,9.768,-0.018,0.011,0.052,15.792,-118.391,20.133
16:39:16:044,9.848,-0.013,0.024,0.062,15.835,-118.926,20.278
16:39:16:045,9.849,-0.011,-0.005,0.052,15.818,-119.287,20.499
16:39:16:046,9.850,-0.019,-0.020,0.056,15.784,-119.445,20.658
16:39:16:065,9.869,-0.017,-0.003,0.056,15.776,-119.680,21.112
16:39:16:091,9.895,-0.027,0.007,0.051,15.706,-119.845,21.204
16:39:16:118,9.922,-0.037,-0.012,0.057,15.620,-120.236,21.132
16:39:16:203,10.007,-0.020,-0.034,0.050,15.479,-120.509,20.807
16:39:16:203,10.007,-0.029,-0.033,0.037,15.357,-120.589,20.515
16:39:16:204,10.008,-0.019,-0.022,0.021,15.130,-120.580,20.038
16:39:16:223,10.027,-0.009,-0.010,0.010,14.934,-120.525,19.694
16:39:16:249,10.053,0.002,-0.003,-0.009,14.620,-120.458,19.104
16:39:16:275,10.080,-0.003,0.003,-0.032,14.416,-120.493,18.659
16:39:16:301,10.106,-0.012,0.007,-0.019,14.124,-120.667,17.958
16:39:16:329,10.134,0.002,0.023,-0.073,13.874,-120.648,17.404
16:39:16:412,10.217,-0.019,0.039,-0.101,13.633,-120.435,17.077
16:39:16:413,10.218,-0.019,0.027,-0.126,13.294,-119.787,16.717
16:39:16:414,10.219,0.010,0.018,-0.134,13.259,-119.341,16.741
16:39:16:491,10.295,0.016,0.027,-0.124,13.487,-118.949,17.121
16:39:16:491,10.295,0.022,0.021,-0.085,13.784,-119.093,17.440
16:39:16:492,10.296,0.022,0.017,-0.065,13.948,-119.235,17.435
16:39:16:541,10.345,0.039,0.012,-0.039,14.237,-119.855,17.205
16:39:16:542,10.346,0.033,0.009,-0.019,14.470,-120.354,17.084
16:39:16:564,10.368,0.029,0.002,0.010,14.811,-120.881,16.989
16:39:16:591,10.395,0.018,0.002,0.013,15.098,-121.001,17.067
16:39:16:617,10.421,0.029,0.008,0.017,15.190,-120.787,17.221
16:39:16:642,10.447,0.034,0.000,0.009,15.265,-120.221,17.592
16:39:16:672,10.477,0.033,-0.005,0.012,15.287,-119.820,17.878
16:39:16:695,10.500,0.035,-0.007,0.017,15.284,-119.227,18.311
16:39:16:721,10.526,0.031,-0.021,0.022,15.249,-118.965,18.582
16:39:16:777,10.582,0.022,-0.017,0.027,15.198,-118.749,18.902
16:39:16:777,10.582,0.014,-0.021,0.031,15.105,-118.650,19.106
16:39:16:801,10.605,0.011,-0.017,0.032,15.013,-118.653,19.173
16:39:16:853,10.657,-0.001,-0.019,0.026,14.705,-118.746,19.128
16:39:16:908,10.712,-0.012,-0.016,0.013,14.494,-118.911,18.988
16:39:16:909,10.713,-0.014,-0.018,0.009,14.279,-119.154,18.795
16:39:16:932,10.736,-0.034,-0.011,0.013,14.132,-119.340,18.634
16:39:16:986,10.790,-0.036,0.009,-0.037,13.942,-119.425,18.439
16:39:17:013,10.818,-0.054,0.018,-0.043,13.832,-119.389,18.348
16:39:17:013,10.818,-0.054,0.012,-0.046,13.674,-119.086,18.301
16:39:17:038,10.843,-0.020,0.009,-0.079,13.676,-118.745,18.364
16:39:17:062,10.867,0.002,0.009,-0.053,13.767,-118.517,18.460
16:39:17:089,10.894,-0.014,-0.005,-0.015,13.846,-118.643,18.407
16:39:17:115,10.920,0.007,-0.009,-0.004,13.920,-118.745,18.351
16:39:17:141,10.946,0.000,-0.021,-0.007,14.018,-118.883,18.224
16:39:17:168,10.973,0.011,-0.010,0.013,14.070,-118.984,18.124
16:39:17:194,10.998,0.015,-0.011,-0.001,14.114,-119.210,17.944
16:39:17:22,11.024,0.013,-0.014,0.004,14.133,-119.357,17.745
16:39:17:247,11.051,0.014,-0.011,-0.001,14.150,-119.458,17.608
16:39:17:273,11.077,0.022,-0.014,0.005,14.142,-119.568,17.410
16:39:17:299,11.103,0.016,-0.008,-0.006,14.106,-119.589,17.299
16:39:17:326,11.130,0.021,-0.008,-0.006,14.035,-119.589,17.155
16:39:17:384,11.188,0.017,-0.006,-0.012,13.983,-119.654,17.070
16:39:17:385,11.189,0.018,-0.007,-0.013,13.888,-119.622,16.967
16:39:17:386,11.190,0.011,-0.004,-0.023,13.784,-119.520,16.906
16:39:17:462,11.266,0.013,-0.001,-0.033,13.720,-119.407,16.910
16:39:17:463,11.267,0.005,-0.002,-0.036,13.670,-119.203,16.979
16:39:17:464,11.268,-0.005,-0.007,-0.032,13.664,-119.084,17.035
16:39:17:483,11.287,-0.011,-0.008,-0.027,13.660,-118.993,17.107
16:39:17:538,11.342,-0.015,-0.002,-0.018,13.666,-118.942,17.141
16:39:17:566,11.370,-0.017,-0.001,-0.018,13.660,-118.912,17.154
16:39:17:566,11.370,-0.013,-0.005,-0.013,13.660,-118.869,17.161
16:39:17:588,11.392,-0.011,-0.011,-0.005,13.658,-118.863,17.166
16:39:17:614,11.418,-0.011,-0.010,-0.008,13.672,-118.893,17.164
16:39:17:64,11.445,-0.003,-0.008,0.000,13.679,-118.928,17.156
16:39:17:668,11.473,-0.001,-0.010,-0.011,13.673,-118.920,17.145
16:39:17:694,11.499,0.008,-0.003,-0.002,13.672,-118.898,17.123
16:39:17:719,11.524,0.009,0.001,-0.009,13.664,-118.869,17.115
16:39:17:745,11.550,0.020,-0.008,-0.012,13.641,-118.818,17.113
16:39:17:771,11.576,0.012,-0.011,-0.011,13.633,-118.807,17.123
16:39:17:827,11.631,0.018,-0.010,-0.005,13.641,-118.831,17.126
16:39:17:827,11.631,0.002,-0.006,-0.004,13.639,-118.893,17.127
16:39:17:931,11.735,0.013,-0.005,-0.005,13.632,-118.952,17.112
16:39:17:993,11.797,-0.006,-0.011,0.002,13.618,-119.069,17.094
16:39:17:993,11.797,0.002,-0.014,-0.006,13.609,-119.116,17.091
16:39:17:993,11.797,-0.004,-0.015,0.001,13.586,-119.189,17.107
16:39:17:993,11.797,0.006,-0.012,0.006,13.539,-119.203,17.145
16:39:18:01,11.815,0.007,-0.002,-0.006,13.498,-119.199,17.183
16:39:18:011,11.816,0.005,-0.004,0.003,13.420,-119.224,17.246
16:39:18:063,11.868,0.001,-0.003,-0.003,13.369,-119.265,17.275
16:39:18:063,11.868,0.007,-0.003,0.003,13.298,-119.355,17.300
16:39:18:115,11.920,-0.016,-0.009,0.003,13.258,-119.421,17.314
16:39:18:116,11.921,-0.008,-0.008,0.003,13.199,-119.475,17.331
16:39:18:139,11.944,-0.011,-0.003,-0.005,13.140,-119.505,17.325
16:39:18:167,11.971,-0.009,-0.010,-0.003,13.115,-119.552,17.315
16:39:18:192,11.996,-0.009,-0.005,0.010,13.116,-119.583,17.301
16:39:18:22,12.024,-0.008,0.004,0.003,13.115,-119.534,17.297
16:39:18:246,12.050,-0.003,-0.005,0.001,13.118,-119.374,17.304
16:39:18:271,12.075,0.015,-0.005,0.009,13.130,-119.178,17.348
16:39:18:355,12.159,0.013,-0.002,0.003,13.124,-119.043,17.375
16:39:18:356,12.160,0.013,-0.018,0.003,13.096,-118.869,17.413
16:39:18:357,12.161,0.023,-0.021,0.007,13.053,-118.803,17.424
16:39:18:434,12.239,0.018,-0.021,0.004,12.948,-118.798,17.399
16:39:18:435,12.240,0.022,-0.011,0.000,12.856,-118.838,17.367
16:39:18:435,12.240,0.013,0.002,-0.005,12.693,-118.988,17.285
16:39:18:454,12.259,0.021,0.018,-0.020,12.520,-119.184,17.201
16:39:18:51,12.315,0.002,0.019,-0.024,12.421,-119.358,17.160
16:39:18:51,12.315,-0.010,0.011,-0.021,12.349,-119.656,17.113
16:39:18:533,12.337,-0.013,0.004,-0.026,12.307,-119.869,17.087
16:39:18:588,12.392,-0.012,0.010,-0.027,12.277,-120.242,17.039
16:39:18:589,12.393,-0.032,0.012,-0.030,12.315,-120.650,17.019
16:39:18:612,12.416,-0.028,0.001,-0.024,12.392,-120.892,17.013
16:39:18:638,12.442,-0.030,-0.001,-0.024,12.559,-121.153,17.033
16:39:18:664,12.468,-0.014,-0.005,-0.006,12.670,-121.276,17.046
16:39:18:69,12.494,-0.015,-0.007,-0.003,12.830,-121.446,17.067
16:39:18:717,12.521,0.002,-0.007,0.004,12.983,-121.566,17.093
16:39:18:743,12.547,0.002,-0.004,0.001,13.095,-121.618,17.104
16:39:18:798,12.603,0.012,-0.003,0.007,13.260,-121.701,17.122
16:39:18:798,12.603,0.009,-0.010,0.003,13.352,-121.756,17.130
16:39:18:882,12.686,0.025,0.007,0.016,13.457,-121.865,17.138
16:39:18:882,12.686,0.030,0.021,0.009,13.487,-121.964,17.129
16:39:18:882,12.686,0.023,0.015,-0.011,13.522,-122.254,17.071
16:39:18:9,12.704,-0.014,-0.019,-0.017,13.622,-122.846,16.882
16:39:18:928,12.732,-0.007,-0.040,-0.008,13.706,-123.272,16.742
16:39:18:953,12.757,0.004,-0.042,-0.002,13.842,-123.801,16.561
16:39:18:978,12.783,0.009,-0.029,0.003,13.943,-124.044,16.478
16:39:19:005,12.810,0.011,-0.012,0.004,14.104,-124.268,16.397
16:39:19:031,12.836,0.024,-0.016,0.007,14.243,-124.318,16.390
16:39:19:086,12.891,0.027,-0.020,0.010,14.311,-124.285,16.415
16:39:19:087,12.892,0.025,-0.012,0.014,14.359,-124.208,16.518
16:39:19:113,12.917,0.027,0.010,0.013,14.376,-124.178,16.610
16:39:19:137,12.941,0.020,0.018,0.017,14.433,-124.187,16.743
16:39:19:163,12.967,0.017,0.011,0.028,14.474,-124.206,16.821
16:39:19:191,12.995,0.001,0.003,0.026,14.508,-124.191,16.934
16:39:19:216,13.020,0.007,-0.008,0.033,14.532,-124.064,17.061
16:39:19:242,13.046,0.000,-0.016,0.027,14.549,-123.921,17.159
16:39:19:268,13.072,-0.005,-0.018,0.027,14.583,-123.688,17.313
16:39:19:323,13.127,-0.013,-0.020,0.020,14.616,-123.543,17.404
16:39:19:324,13.128,-0.014,-0.026,0.027,14.654,-123.362,17.496
16:39:19:404,13.209,-0.019,-0.021,0.012,14.634,-123.226,17.507
16:39:19:405,13.210,-0.018,-0.021,0.018,14.615,-123.185,17.460
16:39:19:406,13.211,-0.016,-0.003,0.018,14.533,-123.178,17.307
16:39:19:425,13.230,-0.010,-0.016,0.005,14.466,-123.167,17.168
16:39:19:481,13.286,-0.019,-0.020,-0.001,14.352,-123.201,16.929
16:39:19:481,13.286,-0.011,-0.028,0.004,14.287,-123.261,16.744
16:39:19:504,13.309,-0.008,-0.011,-0.018,14.179,-123.272,16.475
16:39:19:53,13.335,-0.009,-0.001,-0.027,14.103,-123.150,16.259
16:39:19:556,13.360,-0.010,-0.003,-0.035,14.074,-123.028,16.141
16:39:19:586,13.390,-0.011,-0.008,-0.036,14.112,-122.806,16.043
16:39:19:586,13.390,-0.017,-0.020,-0.039,14.173,-122.652,16.019
16:39:19:638,13.442,0.001,-0.023,-0.023,14.279,-122.363,16.016
16:39:19:639,13.443,0.010,-0.025,-0.023,14.399,-121.937,16.096
16:39:19:691,13.495,0.015,-0.025,-0.001,14.485,-121.613,16.172
16:39:19:691,13.495,0.005,-0.009,-0.008,14.620,-121.033,16.329
16:39:19:741,13.545,-0.014,-0.006,0.002,14.714,-120.606,16.509
16:39:19:77,13.574,-0.044,-0.003,-0.020,14.852,-119.955,16.887
16:39:19:771,13.575,-0.032,0.006,-0.026,15.064,-119.494,17.459
16:39:19:851,13.656,-0.029,0.036,0.003,15.250,-119.562,17.941
16:39:19:852,13.657,-0.045,0.068,0.037,15.591,-120.080,18.726
16:39:19:853,13.658,-0.057,0.015,0.030,15.840,-120.610,19.150
16:39:19:93,13.734,-0.061,-0.014,0.029,16.154,-121.201,19.404
16:39:19:93,13.734,-0.048,-0.047,0.029,16.317,-121.358,19.378
16:39:19:951,13.755,0.007,-0.048,0.013,16.619,-120.714,18.556
16:39:19:976,13.780,0.024,-0.046,0.013,16.679,-120.213,18.112
16:39:20:003,13.807,0.067,-0.033,0.014,16.690,-119.173,17.374
16:39:20:029,13.833,0.082,-0.029,0.005,16.636,-118.313,16.866
16:39:20:055,13.859,0.120,-0.003,0.003,16.447,-116.887,16.146
16:39:20:082,13.886,0.123,0.016,-0.041,16.157,-115.393,15.560
16:39:20:108,13.912,0.133,0.017,-0.042,15.927,-114.613,15.260
16:39:20:162,13.967,0.111,0.022,-0.058,15.441,-113.863,15.180
16:39:20:164,13.968,0.078,0.011,-0.038,14.963,-113.678,15.480
16:39:20:186,13.991,0.057,0.005,-0.029,14.522,-113.925,15.762
16:39:20:212,14.017,0.036,-0.006,-0.012,14.298,-114.260,15.973
16:39:20:296,14.101,0.015,-0.013,-0.012,13.965,-115.001,16.388
16:39:20:296,14.101,-0.006,-0.020,-0.007,13.611,-115.570,16.817
16:39:20:379,14.183,0.008,0.007,-0.031,13.398,-116.105,17.068
16:39:20:38,14.184,-0.127,-0.010,0.010,13.275,-117.283,17.149
16:39:20:381,14.185,-0.167,-0.004,-0.005,13.314,-118.213,17.108
16:39:20:455,14.259,-0.184,0.001,-0.005,13.551,-119.759,16.884
16:39:20:456,14.260,-0.116,0.008,-0.018,13.581,-119.668,16.843
16:39:20:457,14.261,-0.079,0.015,-0.014,13.685,-119.776,16.791
16:39:20:534,14.339,-0.031,0.014,0.004,13.800,-119.794,16.785
16:39:20:534,14.339,-0.008,-0.004,0.014,13.994,-120.167,16.773
16:39:20:534,14.339,-0.012,-0.017,0.034,14.173,-120.221,16.758
16:39:20:556,14.361,0.023,-0.003,-0.008,14.270,-120.161,16.784
16:39:20:581,14.386,0.020,-0.007,0.012,14.403,-119.987,16.819
16:39:20:606,14.411,0.021,-0.010,0.000,14.500,-119.955,16.826
16:39:20:633,14.437,0.014,-0.015,0.011,14.644,-119.895,16.792
16:39:20:659,14.463,0.032,-0.022,0.014,14.719,-119.836,16.764
16:39:20:686,14.490,0.029,-0.021,0.012,14.742,-119.713,16.746
16:39:20:741,14.545,0.043,-0.023,0.011,14.683,-119.748,16.745
16:39:20:741,14.545,0.034,-0.021,0.005,14.611,-119.729,16.744
16:39:20:822,14.626,0.030,-0.020,0.011,14.499,-119.935,16.749
16:39:20:823,14.627,0.018,-0.020,0.005,14.414,-120.048,16.732
16:39:20:824,14.628,0.016,-0.024,0.005,14.282,-120.410,16.661
16:39:20:843,14.647,0.006,-0.022,0.000,14.193,-120.561,16.623
16:39:20:899,14.703,0.017,-0.022,0.005,14.028,-120.777,16.583
16:39:20:899,14.703,0.005,-0.015,-0.009,13.852,-121.006,16.564
16:39:20:921,14.726,0.001,0.003,-0.006,13.728,-121.138,16.555
16:39:20:976,14.781,-0.005,0.010,-0.008,13.532,-121.388,16.552
16:39:20:977,14.782,-0.019,0.005,-0.017,13.399,-121.574,16.534
16:39:21:,14.805,-0.019,0.021,-0.010,13.217,-121.950,16.514
16:39:21:055,14.860,-0.044,0.017,-0.042,13.166,-122.210,16.531
16:39:21:056,14.861,-0.093,0.011,-0.033,13.139,-122.601,16.526
16:39:21:081,14.885,-0.090,-0.012,-0.028,13.158,-122.811,16.566
16:39:21:107,14.911,-0.087,-0.013,-0.028,13.159,-122.882,16.612
16:39:21:132,14.936,-0.063,-0.010,-0.015,13.573,-123.013,16.545
16:39:21:159,14.963,-0.041,-0.005,-0.005,13.851,-123.204,16.498
16:39:21:185,14.989,-0.024,-0.003,0.002,13.941,-123.247,16.491
16:39:21:269,15.073,-0.012,0.002,-0.003,14.018,-123.223,16.497
16:39:21:27,15.074,0.011,-0.014,-0.008,14.073,-123.173,16.512
16:39:21:27,15.074,0.012,-0.016,-0.006,14.190,-123.151,16.543
16:39:21:347,15.152,0.004,-0.020,-0.002,14.290,-123.197,16.568
16:39:21:348,15.153,0.008,-0.015,0.002,14.421,-123.356,16.597
16:39:21:348,15.153,0.015,-0.010,0.000,14.505,-123.473,16.603
16:39:21:367,15.172,0.019,-0.005,0.000,14.529,-123.535,16.604
16:39:21:423,15.228,0.023,0.001,0.000,14.538,-123.638,16.590
16:39:21:424,15.229,0.018,-0.004,0.008,14.549,-123.964,16.601
16:39:21:447,15.251,0.011,-0.005,0.001,14.559,-124.048,16.641
16:39:21:473,15.277,0.017,-0.004,0.012,14.576,-124.148,16.755
16:39:21:499,15.303,0.006,-0.015,0.002,14.576,-124.145,16.846
16:39:21:525,15.329,0.006,-0.017,0.017,14.584,-124.150,17.001
16:39:21:552,15.356,0.002,-0.012,0.017,14.583,-124.142,17.098
16:39:21:578,15.382,-0.001,-0.018,0.016,14.572,-124.070,17.232
16:39:21:604,15.408,-0.012,-0.019,0.009,14.539,-123.992,17.328
16:39:21:632,15.436,-0.006,-0.019,0.016,14.512,-124.005,17.378
16:39:21:658,15.462,-0.018,-0.011,0.016,14.478,-124.074,17.398
16:39:21:683,15.488,-0.018,-0.011,0.016,14.456,-124.094,17.386
16:39:21:709,15.514,-0.020,-0.006,0.016,14.427,-123.960,17.361
16:39:21:768,15.572,-0.011,-0.004,0.015,14.414,-123.907,17.361
16:39:21:768,15.572,-0.015,-0.004,0.011,14.388,-123.799,17.362
16:39:21:769,15.573,-0.012,-0.010,0.014,14.351,-123.692,17.372
16:39:21:788,15.592,-0.017,-0.010,0.007,14.334,-123.614,17.369
16:39:21:814,15.618,-0.015,-0.018,0.002,14.313,-123.524,17.344
16:39:21:84,15.644,-0.018,-0.017,-0.001,14.302,-123.580,17.315
16:39:21:896,15.700,-0.009,-0.008,0.004,14.283,-123.496,17.248
16:39:21:897,15.701,-0.001,0.001,-0.002,14.284,-123.415,17.204
16:39:21:952,15.757,0.002,0.002,-0.003,14.273,-123.259,17.130
16:39:21:952,15.757,0.002,0.009,-0.010,14.266,-123.101,17.065
16:39:21:971,15.776,0.009,0.009,-0.010,14.249,-123.002,17.031
16:39:21:999,15.804,0.005,0.001,-0.015,14.233,-122.890,17.044
16:39:22:025,15.830,-0.001,0.002,-0.007,14.228,-122.864,17.062
16:39:22:079,15.884,-0.001,-0.005,-0.005,14.224,-122.821,17.123
16:39:22:08,15.885,-0.008,-0.012,-0.007,14.213,-122.766,17.168
16:39:22:103,15.908,-0.010,-0.015,-0.008,14.215,-122.725,17.210
16:39:22:129,15.933,-0.009,-0.008,-0.002,14.222,-122.645,17.262
16:39:22:155,15.959,-0.002,-0.005,0.003,14.224,-122.592,17.280
16:39:22:209,16.013,-0.009,-0.004,-0.002,14.236,-122.501,17.300
16:39:22:238,16.042,-0.002,-0.003,0.005,14.246,-122.427,17.312
16:39:22:238,16.042,-0.008,-0.002,0.005,14.255,-122.373,17.322
16:39:22:319,16.123,-0.005,-0.005,0.006,14.276,-122.311,17.339
16:39:22:32,16.124,-0.013,-0.010,0.003,14.281,-122.273,17.350
16:39:22:32,16.124,-0.007,-0.010,0.003,14.300,-122.192,17.369
16:39:22:398,16.203,-0.011,-0.009,-0.009,14.307,-122.128,17.380
16:39:22:398,16.203,-0.003,-0.009,-0.005,14.322,-122.052,17.393
16:39:22:418,16.223,0.001,-0.009,-0.005,14.323,-122.043,17.349
16:39:22:444,16.249,-0.010,-0.008,-0.011,14.335,-122.067,17.308
16:39:22:47,16.275,-0.004,-0.006,-0.005,14.345,-122.088,17.286
16:39:22:496,16.300,-0.003,-0.003,-0.007,14.356,-122.120,17.264
16:39:22:523,16.327,-0.004,-0.009,-0.006,14.374,-122.165,17.245
16:39:22:549,16.353,-0.002,0.000,0.002,14.385,-122.200,17.236
16:39:22:576,16.380,0.005,-0.007,-0.004,14.395,-122.187,17.241
16:39:22:602,16.406,-0.005,-0.011,-0.004,14.399,-122.187,17.241
16:39:22:688,16.492,0.001,-0.010,-0.002,14.397,-122.190,17.265
16:39:22:688,16.492,-0.004,-0.013,0.006,14.401,-122.186,17.286
16:39:22:688,16.492,-0.001,-0.016,0.006,14.394,-122.172,17.283
16:39:22:764,16.569,-0.002,-0.011,0.004,14.382,-122.122,17.288
16:39:22:765,16.570,0.003,-0.005,0.005,14.346,-122.085,17.272
16:39:22:766,16.571,0.003,-0.006,0.001,14.292,-122.031,17.245
16:39:22:843,16.648,0.002,-0.007,0.001,14.249,-122.011,17.221
16:39:22:844,16.649,0.003,-0.013,0.003,14.186,-121.969,17.191
16:39:22:845,16.650,0.002,-0.011,-0.001,14.106,-121.914,17.165
16:39:22:864,16.668,0.000,-0.007,-0.003,14.055,-121.879,17.146
16:39:22:919,16.723,-0.006,0.000,-0.004,13.973,-121.810,17.117
16:39:22:92,16.724,0.000,-0.004,-0.007,13.923,-121.749,17.097
16:39:22:944,16.748,-0.010,-0.005,-0.013,13.847,-121.642,17.079
16:39:22:969,16.773,-0.007,-0.007,-0.008,13.785,-121.532,17.063
16:39:22:996,16.800,-0.009,-0.008,-0.010,13.742,-121.452,17.062
16:39:23:08,16.884,-0.006,-0.011,-0.015,13.686,-121.341,17.048
16:39:23:081,16.885,-0.022,0.003,-0.013,13.674,-121.288,17.038
16:39:23:1,16.904,-0.016,0.005,-0.009,13.661,-121.073,17.029
16:39:23:181,16.986,-0.016,-0.005,0.012,13.665,-120.918,17.041
16:39:23:211,17.015,-0.019,-0.008,0.012,13.668,-120.728,17.089
16:39:23:212,17.016,-0.018,-0.010,0.021,13.665,-120.609,17.109
16:39:23:212,17.016,-0.014,-0.007,0.009,13.654,-120.356,17.147
16:39:23:292,17.096,-0.010,0.000,0.023,13.640,-120.174,17.150
16:39:23:292,17.096,-0.003,-0.006,0.003,13.591,-119.839,17.127
16:39:23:292,17.096,-0.004,-0.002,0.006,13.540,-119.534,17.064
16:39:23:369,17.174,-0.019,0.004,0.029,13.520,-119.378,16.997
16:39:23:369,17.174,0.001,-0.002,0.025,13.473,-119.098,16.891
16:39:23:37,17.175,-0.009,-0.004,0.017,13.447,-118.841,16.860
16:39:23:39,17.195,-0.001,-0.011,0.017,13.392,-118.466,16.822
16:39:23:415,17.219,-0.007,-0.012,0.014,13.349,-118.234,16.784
16:39:23:441,17.245,-0.004,-0.022,0.012,13.274,-117.938,16.684
16:39:23:468,17.272,-0.001,-0.022,0.008,13.176,-117.666,16.495
16:39:23:494,17.298,0.002,-0.015,0.006,13.111,-117.487,16.330
16:39:23:52,17.324,0.011,-0.017,-0.007,12.991,-117.248,16.035
16:39:23:547,17.351,0.033,-0.012,-0.001,12.833,-117.148,15.689
16:39:23:573,17.377,0.067,0.000,-0.006,12.754,-117.177,15.396
16:39:23:6,17.404,0.002,-0.007,-0.010,12.678,-117.352,14.858
16:39:23:626,17.430,-0.022,-0.010,-0.002,12.635,-117.437,14.510
16:39:23:709,17.514,-0.030,-0.003,-0.015,12.527,-117.319,14.064
16:39:23:71,17.515,-0.014,0.005,-0.016,12.450,-117.125,13.831
16:39:23:711,17.516,0.004,0.006,-0.035,12.315,-116.680,13.654
16:39:23:73,17.535,-0.004,-0.001,-0.036,12.170,-116.293,13.561
16:39:23:836,17.640,0.003,-0.009,-0.045,12.078,-115.978,13.571
16:39:23:898,17.702,0.022,-0.017,-0.053,11.920,-115.485,13.654
16:39:23:899,17.703,0.021,-0.020,-0.038,11.817,-115.231,13.744
16:39:23:899,17.703,0.022,-0.012,-0.107,11.771,-114.915,13.920
16:39:23:9,17.704,-0.014,-0.025,-0.042,11.780,-114.974,13.843
16:39:23:917,17.721,0.010,-0.020,-0.053,11.753,-114.969,13.747
16:39:23:918,17.722,0.002,0.001,-0.049,11.797,-114.939,13.781
16:39:23:941,17.745,0.017,-0.002,-0.039,11.841,-114.933,13.863
16:39:23:996,17.800,0.013,0.000,-0.019,11.907,-115.097,13.948
16:39:23:997,17.801,-0.001,-0.001,0.005,12.000,-115.336,14.014
16:39:24:02,17.825,0.000,0.002,0.001,12.044,-115.373,14.125
16:39:24:077,17.882,0.005,-0.009,-0.005,12.102,-115.322,14.352
16:39:24:078,17.883,-0.001,-0.013,-0.004,12.141,-115.327,14.512
16:39:24:078,17.883,0.001,-0.024,0.006,12.201,-115.387,14.745
16:39:24:154,17.959,-0.005,-0.046,0.002,12.248,-115.452,14.864
16:39:24:155,17.960,-0.016,-0.047,-0.001,12.300,-115.702,14.943
16:39:24:229,18.033,-0.007,-0.005,-0.014,12.327,-115.920,14.961
16:39:24:344,18.148,0.005,0.000,-0.004,12.325,-116.025,14.947
16:39:24:345,18.149,0.008,0.009,-0.012,12.357,-116.133,14.930
16:39:24:345,18.149,0.005,0.019,-0.002,12.377,-116.215,14.959
16:39:24:346,18.150,0.004,0.018,0.000,12.427,-116.319,15.092
16:39:24:37,18.174,0.005,0.009,-0.002,12.499,-116.302,15.382
16:39:24:371,18.175,0.000,0.001,0.011,12.559,-116.280,15.650
16:39:24:371,18.175,-0.008,-0.007,0.024,12.690,-116.338,16.085
16:39:24:372,18.176,-0.015,-0.019,0.035,12.777,-116.423,16.345
16:39:24:415,18.220,-0.016,-0.018,0.030,12.878,-116.475,16.702
16:39:24:416,18.221,0.001,-0.021,0.016,12.927,-116.445,16.949
16:39:24:439,18.244,-0.010,-0.023,0.011,12.999,-116.599,17.211
16:39:24:496,18.300,-0.008,-0.024,0.023,13.095,-116.971,17.346
16:39:24:496,18.300,-0.008,-0.018,0.020,13.153,-117.259,17.374
16:39:24:518,18.322,0.001,-0.007,0.026,13.212,-117.731,17.371
16:39:24:544,18.349,-0.011,-0.007,0.014,13.252,-118.062,17.328
16:39:24:571,18.376,0.002,0.011,0.018,13.308,-118.505,17.273
16:39:24:597,18.402,-0.006,0.017,0.013,13.333,-118.771,17.231
16:39:24:622,18.427,-0.005,0.010,0.014,13.396,-119.110,17.217
16:39:24:708,18.512,-0.008,0.006,0.018,13.481,-119.380,17.271
16:39:24:708,18.512,-0.009,0.005,0.026,13.541,-119.517,17.349
16:39:24:709,18.513,-0.016,0.005,0.030,13.650,-119.628,17.535
16:39:24:756,18.560,-0.014,-0.004,0.035,13.731,-119.658,17.677
16:39:24:785,18.589,-0.017,-0.007,0.038,13.855,-119.644,17.889
16:39:24:785,18.589,-0.017,-0.020,0.039,13.972,-119.572,18.061
16:39:24:806,18.611,-0.013,-0.021,0.040,14.043,-119.491,18.152
16:39:24:862,18.666,-0.005,-0.027,0.042,14.121,-119.344,18.238
16:39:24:863,18.667,-0.008,-0.026,0.039,14.161,-119.230,18.272
16:39:24:887,18.691,0.005,-0.028,0.044,14.178,-119.049,18.266
16:39:24:913,18.717,0.008,-0.019,0.042,14.134,-118.868,18.224
16:39:24:937,18.742,0.009,-0.014,0.036,14.072,-118.775,18.164
16:39:24:965,18.769,0.009,-0.012,0.030,13.968,-118.703,18.029
16:39:24:991,18.795,0.003,-0.010,0.024,13.872,-118.689,17.907
16:39:25:017,18.821,0.003,-0.010,0.019,13.725,-118.689,17.672
16:39:25:042,18.847,0.005,-0.002,-0.025,13.542,-118.642,17.411
16:39:25:069,18.873,-0.016,0.008,-0.032,13.439,-118.523,17.276
16:39:25:151,18.955,-0.005,0.010,-0.064,13.301,-118.167,17.162
16:39:25:152,18.956,-0.025,0.010,-0.044,13.224,-117.847,17.130
16:39:25:317,19.122,0.000,0.002,-0.074,13.275,-117.286,17.325
16:39:25:318,19.123,-0.004,-0.011,-0.040,13.338,-117.021,17.476
16:39:25:318,19.123,0.007,-0.001,-0.050,13.410,-116.683,17.690
16:39:25:318,19.123,0.006,-0.012,-0.011,13.484,-116.478,17.906
16:39:25:393,19.197,0.020,-0.001,-0.018,13.483,-116.318,18.030
16:39:25:394,19.198,0.020,-0.002,-0.005,13.457,-116.173,18.192
16:39:25:395,19.199,0.012,0.001,-0.018,13.427,-116.129,18.252
16:39:25:396,19.200,0.008,-0.005,-0.019,13.387,-116.210,18.278
16:39:25:416,19.220,-0.010,-0.007,-0.033,13.383,-116.297,18.280
16:39:25:417,19.221,-0.009,-0.011,-0.029,13.443,-116.429,18.294
16:39:25:418,19.222,-0.010,-0.006,-0.016,13.528,-116.545,18.315
16:39:25:466,19.270,-0.002,-0.008,-0.003,13.587,-116.602,18.340
16:39:25:467,19.271,0.005,-0.014,0.009,13.679,-116.668,18.421
16:39:25:491,19.295,0.009,-0.015,0.033,13.740,-116.730,18.486
16:39:25:569,19.373,0.010,-0.013,0.019,13.783,-116.825,18.561
16:39:25:758,19.562,0.015,-0.001,0.022,13.776,-116.897,18.615
16:39:25:759,19.563,0.007,0.000,0.005,13.751,-116.933,18.639
16:39:25:76,19.564,0.001,-0.001,0.007,13.740,-117.019,18.660
16:39:25:84,19.644,0.003,0.001,-0.003,13.733,-117.011,18.705
16:39:25:841,19.645,0.000,0.002,-0.009,13.716,-116.970,18.798
16:39:25:841,19.645,-0.011,-0.003,-0.008,13.698,-117.000,18.901
16:39:25:842,19.646,-0.013,-0.001,-0.009,13.693,-117.059,18.967
16:39:25:867,19.671,-0.022,0.003,-0.014,13.701,-117.220,19.021
16:39:25:867,19.671,-0.026,-0.004,-0.023,13.715,-117.320,19.029
16:39:25:868,19.672,-0.024,-0.009,-0.023,13.769,-117.481,19.012
16:39:25:869,19.673,-0.004,-0.004,-0.039,13.798,-117.573,18.974
16:39:25:889,19.693,-0.016,-0.012,-0.010,13.888,-117.787,18.897
16:39:25:89,19.694,-0.003,-0.010,-0.015,13.963,-118.070,18.749
16:39:25:89,19.694,-0.005,-0.010,0.002,14.016,-118.286,18.643
16:39:25:909,19.713,0.005,-0.005,0.001,14.097,-118.561,18.468
16:39:25:936,19.740,0.015,-0.008,0.013,14.141,-118.748,18.353
16:39:25:991,19.795,0.010,-0.002,0.010,14.197,-119.047,18.179
16:39:25:992,19.796,0.006,-0.010,0.024,14.250,-119.346,18.015
16:39:26:015,19.819,0.008,-0.011,0.011,14.278,-119.486,17.930
16:39:26:127,19.932,0.017,-0.008,0.016,14.306,-119.625,17.845
16:39:26:128,19.933,0.010,-0.004,0.016,14.301,-119.673,17.796
16:39:26:129,19.934,0.014,-0.013,0.004,14.287,-119.688,17.746
16:39:26:13,19.935,0.003,-0.008,0.010,14.276,-119.731,17.703
16:39:26:201,20.005,0.017,-0.011,0.001,14.251,-119.716,17.655
16:39:26:202,20.006,0.004,-0.012,-0.002,14.221,-119.707,17.610
16:39:26:286,20.091,0.010,-0.009,0.006,14.210,-119.691,17.591
16:39:26:286,20.091,0.006,-0.004,-0.008,14.176,-119.658,17.569
16:39:26:287,20.092,0.006,-0.003,-0.004,14.157,-119.663,17.555
16:39:26:288,20.093,0.002,-0.003,-0.014,14.134,-119.673,17.518
16:39:26:305,20.110,0.001,0.002,-0.013,14.135,-119.724,17.476
16:39:26:362,20.166,-0.004,0.006,-0.015,14.147,-119.755,17.454
16:39:26:362,20.166,-0.005,-0.001,-0.012,14.177,-119.804,17.432
16:39:26:363,20.167,-0.009,-0.004,-0.007,14.223,-119.828,17.427
16:39:26:382,20.186,0.004,-0.003,-0.003,14.310,-119.806,17.442
16:39:26:409,20.213,-0.004,-0.011,0.017,14.390,-119.820,17.465
16:39:26:463,20.268,-0.005,-0.016,0.025,14.480,-119.736,17.524
16:39:26:464,20.269,0.000,-0.020,0.023,14.545,-119.526,17.602
16:39:26:513,20.318,0.008,-0.025,0.023,14.563,-119.347,17.657
16:39:26:542,20.347,0.013,-0.028,0.022,14.571,-119.087,17.712
16:39:26:542,20.347,0.010,-0.029,0.021,14.553,-118.970,17.731
16:39:26:726,20.530,0.012,-0.023,0.020,14.492,-118.854,17.686
16:39:26:727,20.531,0.008,-0.023,0.010,14.388,-118.781,17.561
16:39:26:751,20.555,0.002,-0.005,0.003,14.314,-118.752,17.455
16:39:26:813,20.617,0.007,0.011,-0.009,14.200,-118.627,17.310
16:39:26:814,20.618,0.005,0.011,-0.034,14.123,-118.494,17.254
16:39:26:815,20.619,-0.008,0.009,-0.041,14.071,-118.272,17.260
16:39:26:816,20.620,-0.005,0.003,-0.042,14.102,-118.077,17.376
16:39:26:837,20.642,-0.020,0.005,-0.038,14.147,-118.035,17.446
16:39:26:837,20.642,-0.014,-0.001,-0.018,14.221,-118.038,17.516
16:39:26:838,20.643,-0.016,-0.002,-0.016,14.269,-118.061,17.547
16:39:26:838,20.643,0.000,-0.010,0.006,14.343,-118.075,17.581
16:39:26:88,20.685,0.007,-0.014,0.026,14.442,-118.157,17.608
16:39:26:934,20.739,0.002,-0.010,0.022,14.462,-118.199,17.576
16:39:26:962,20.767,0.011,-0.015,0.025,14.460,-118.180,17.568
16:39:26:963,20.768,0.013,-0.012,0.010,14.427,-118.099,17.568
16:39:26:986,20.790,0.014,-0.012,0.018,14.405,-118.079,17.551
16:39:27:066,20.870,0.011,-0.005,0.011,14.361,-118.081,17.513
16:39:27:094,20.898,0.017,-0.003,0.016,14.283,-118.093,17.454
16:39:27:173,20.977,0.009,-0.002,0.000,14.230,-118.105,17.422
16:39:27:174,20.978,0.004,-0.010,-0.001,14.153,-118.185,17.385
16:39:27:259,21.064,-0.001,-0.009,-0.004,14.113,-118.266,17.365
16:39:27:259,21.064,-0.012,-0.011,-0.003,14.079,-118.442,17.348
16:39:27:26,21.065,-0.011,0.002,0.011,14.067,-118.553,17.344
16:39:27:261,21.066,-0.010,0.002,0.010,14.056,-118.653,17.333
16:39:27:278,21.083,-0.018,-0.003,0.007,14.059,-118.687,17.299
16:39:27:278,21.083,-0.008,-0.002,0.005,14.053,-118.671,17.280
16:39:27:333,21.138,-0.001,-0.001,0.002,14.053,-118.622,17.266
16:39:27:333,21.138,-0.004,0.000,0.000,14.063,-118.573,17.271
16:39:27:334,21.139,-0.003,-0.002,-0.004,14.095,-118.474,17.291
16:39:27:354,21.158,0.002,0.003,-0.002,14.141,-118.360,17.317
16:39:27:379,21.183,-0.001,0.001,-0.006,14.176,-118.280,17.335
16:39:27:405,21.209,-0.002,-0.012,-0.004,14.246,-118.187,17.368
16:39:27:432,21.236,0.003,-0.018,0.007,14.298,-118.122,17.408
16:39:27:516,21.321,0.005,-0.018,0.012,14.376,-118.006,17.481
16:39:27:517,21.322,0.014,-0.019,0.021,14.418,-117.920,17.533
16:39:27:517,21.322,0.011,-0.008,0.019,14.425,-117.784,17.589
16:39:27:59,21.394,0.023,-0.008,0.016,14.397,-117.646,17.619
16:39:27:622,21.426,0.012,0.000,0.004,14.359,-117.573,17.638
16:39:27:622,21.426,0.000,0.001,-0.011,14.306,-117.529,17.618
16:39:27:623,21.427,-0.012,-0.001,-0.022,14.277,-117.504,17.606
16:39:27:783,21.588,-0.008,-0.003,-0.029,14.268,-117.439,17.608
16:39:27:783,21.588,-0.019,-0.002,-0.038,14.322,-117.370,17.670
16:39:27:784,21.589,-0.008,-0.002,-0.029,14.394,-117.347,17.714
16:39:27:785,21.590,-0.004,0.001,-0.021,14.487,-117.364,17.770
16:39:27:804,21.609,0.000,-0.003,-0.005,14.542,-117.420,17.778
16:39:27:805,21.610,-0.002,-0.007,-0.002,14.624,-117.543,17.782
16:39:27:806,21.611,0.005,-0.007,0.007,14.675,-117.638,17.778
16:39:27:827,21.632,-0.005,-0.010,0.012,14.745,-117.823,17.764
16:39:27:852,21.657,0.001,-0.003,0.014,14.795,-118.008,17.732
16:39:27:878,21.682,-0.005,-0.005,0.013,14.825,-118.119,17.701
16:39:27:904,21.708,-0.002,-0.009,0.023,14.862,-118.266,17.636
16:39:27:93,21.734,-0.001,-0.011,0.018,14.885,-118.323,17.597
16:39:28:043,21.848,0.004,-0.016,0.022,14.901,-118.387,17.524
16:39:28:043,21.848,0.000,-0.015,0.016,14.897,-118.446,17.439
16:39:28:043,21.848,0.002,-0.012,0.011,14.902,-118.484,17.383
16:39:28:123,21.928,0.002,-0.012,0.008,14.886,-118.562,17.278
16:39:28:124,21.929,0.002,-0.005,0.003,14.872,-118.605,17.209
16:39:28:124,21.929,0.001,-0.005,-0.001,14.852,-118.686,17.092
16:39:28:125,21.930,-0.002,-0.009,0.001,14.830,-118.762,16.980
16:39:28:14,21.945,0.005,-0.007,-0.012,14.818,-118.787,16.919
16:39:28:166,21.971,0.002,-0.007,-0.001,14.794,-118.858,16.838
16:39:28:224,22.029,0.015,-0.010,-0.004,14.777,-118.871,16.808
16:39:28:225,22.030,-0.001,-0.011,-0.004,14.749,-118.944,16.751
16:39:28:245,22.049,0.015,-0.003,-0.009,14.733,-118.998,16.715
16:39:28:273,22.077,0.005,0.000,-0.007,14.701,-119.096,16.679
16:39:28:298,22.102,0.010,-0.007,-0.012,14.677,-119.174,16.653
16:39:28:324,22.128,0.005,-0.008,-0.014,14.656,-119.256,16.641
16:39:28:35,22.154,0.003,-0.010,-0.005,14.653,-119.395,16.636
16:39:28:377,22.181,-0.006,-0.007,-0.005,14.646,-119.499,16.629
16:39:28:403,22.207,0.002,-0.009,0.006,14.663,-119.653,16.600
16:39:28:43,22.234,-0.002,-0.001,0.007,14.688,-119.746,16.570
16:39:28:457,22.261,0.004,-0.003,0.019,14.702,-119.728,16.570
16:39:28:481,22.286,0.003,-0.009,0.009,14.721,-119.608,16.602
16:39:28:569,22.374,0.007,-0.017,0.012,14.729,-119.489,16.641
16:39:28:57,22.375,0.004,-0.020,0.017,14.752,-119.312,16.712
16:39:28:57,22.375,0.010,-0.025,0.024,14.753,-119.213,16.732
16:39:28:571,22.376,0.009,-0.022,0.018,14.726,-119.052,16.740
16:39:28:645,22.449,0.017,-0.021,0.015,14.657,-118.899,16.705
16:39:28:646,22.450,0.017,-0.023,0.011,14.582,-118.853,16.651
16:39:28:646,22.450,0.015,-0.018,-0.010,14.441,-118.843,16.560
16:39:28:806,22.610,-0.003,-0.014,-0.018,14.349,-118.870,16.504
16:39:28:807,22.611,-0.005,-0.004,-0.033,14.214,-118.913,16.420
16:39:28:808,22.612,-0.009,0.011,-0.037,14.171,-118.961,16.425
16:39:28:809,22.613,-0.020,0.009,-0.034,14.185,-119.001,16.447
16:39:28:829,22.633,-0.017,0.015,-0.012,14.221,-119.052,16.477
16:39:28:83,22.634,-0.010,0.003,0.000,14.244,-119.050,16.507
16:39:28:831,22.635,-0.011,-0.011,0.014,14.275,-119.045,16.549
16:39:28:851,22.656,-0.012,-0.014,0.023,14.310,-119.046,16.575
16:39:28:876,22.681,-0.007,-0.014,0.023,14.315,-119.031,16.564
16:39:28:901,22.706,-0.006,-0.011,0.024,14.296,-118.972,16.524
16:39:28:927,22.732,-0.001,-0.014,0.013,14.271,-118.893,16.505
16:39:28:954,22.759,0.007,-0.005,0.010,14.230,-118.760,16.485
16:39:29:009,22.813,0.016,-0.010,0.002,14.203,-118.672,16.483
16:39:29:01,22.814,0.009,-0.007,-0.005,14.149,-118.543,16.486
16:39:29:092,22.896,0.003,-0.008,-0.007,14.098,-118.474,16.481
16:39:29:093,22.897,-0.004,-0.007,-0.016,14.086,-118.421,16.481
16:39:29:115,22.919,-0.009,0.002,-0.006,14.049,-118.257,16.527
16:39:29:165,22.969,0.000,0.004,0.003,14.050,-118.124,16.562
16:39:29:193,22.997,-0.011,0.002,0.002,14.049,-117.976,16.593
16:39:29:194,22.998,-0.001,-0.003,0.007,14.053,-117.866,16.615
16:39:29:245,23.050,-0.010,-0.009,0.006,14.052,-117.719,16.646
16:39:29:246,23.051,-0.002,-0.011,0.006,14.060,-117.627,16.666
16:39:29:298,23.102,-0.006,-0.015,-0.001,14.049,-117.473,16.686
16:39:29:299,23.103,0.009,-0.014,-0.008,14.048,-117.387,16.683
16:39:29:322,23.126,-0.004,-0.015,0.014,14.047,-117.331,16.641
16:39:29:377,23.181,0.020,-0.008,-0.020,14.028,-117.264,16.591
16:39:29:378,23.182,-0.004,-0.002,0.007,14.007,-117.263,16.547
16:39:29:401,23.205,0.001,-0.001,0.003,13.995,-117.224,16.515
16:39:29:427,23.231,-0.001,-0.004,-0.012,13.992,-117.223,16.489
16:39:29:452,23.257,-0.003,-0.002,-0.002,13.994,-117.206,16.461
16:39:29:479,23.284,0.003,-0.005,0.000,13.998,-117.150,16.455
16:39:29:535,23.340,0.017,-0.006,0.007,14.010,-117.003,16.469
16:39:29:535,23.340,0.007,-0.003,-0.004,14.003,-116.832,16.487
16:39:29:558,23.363,0.000,-0.004,-0.001,13.982,-116.763,16.493
16:39:29:613,23.417,-0.015,0.004,0.002,13.960,-116.693,16.508
16:39:29:614,23.418,-0.017,0.000,0.008,13.942,-116.634,16.513
16:39:29:637,23.441,-0.016,-0.004,-0.003,13.956,-116.420,16.567
16:39:29:722,23.526,-0.027,-0.032,0.009,14.065,-116.267,16.653
16:39:29:722,23.526,-0.050,0.007,0.072,14.173,-116.394,16.648
16:39:29:723,23.527,-0.051,-0.015,0.035,14.515,-116.585,16.633
16:39:29:743,23.547,-0.043,0.005,0.016,14.689,-116.576,16.605
16:39:29:769,23.573,-0.042,-0.022,0.013,14.806,-115.896,16.704
16:39:29:794,23.598,-0.049,0.010,0.019,14.829,-114.994,16.736
16:39:29:82,23.625,-0.028,-0.029,-0.029,14.834,-114.256,16.852
16:39:29:846,23.651,-0.006,-0.035,0.010,14.761,-113.330,17.070
16:39:29:902,23.707,0.013,0.047,0.008,14.544,-112.633,17.262
16:39:29:902,23.707,0.048,-0.004,0.023,14.122,-111.297,17.743
16:39:29:926,23.731,0.045,-0.007,-0.008,13.804,-110.565,18.083
16:39:29:98,23.784,0.018,-0.018,0.058,13.353,-109.399,18.634
16:39:29:981,23.785,0.036,-0.003,-0.001,12.844,-108.016,19.285
16:39:30:004,23.808,0.008,0.001,0.022,12.594,-107.124,19.619
16:39:30:09,23.894,-0.023,-0.032,0.052,12.319,-105.687,20.063
16:39:30:091,23.895,0.012,-0.014,0.011,12.028,-104.558,20.332
16:39:30:091,23.895,-0.015,-0.026,0.027,11.515,-102.284,20.689
16:39:30:111,23.915,-0.020,-0.016,0.001,11.011,-100.305,21.028
16:39:30:136,23.940,-0.005,0.004,-0.011,10.581,-98.928,21.270
16:39:30:162,23.966,0.020,0.009,-0.009,9.865,-96.923,21.603
16:39:30:216,24.021,-0.005,0.014,-0.058,9.389,-95.367,21.789
16:39:30:217,24.022,0.016,0.015,0.007,8.737,-93.698,22.156
16:39:30:241,24.046,0.003,-0.008,-0.032,8.078,-91.702,22.535
16:39:30:295,24.100,0.019,-0.008,-0.050,7.638,-90.498,22.773
16:39:30:296,24.101,0.062,-0.013,-0.064,7.100,-88.800,23.078
16:39:30:348,24.152,0.090,0.006,-0.053,6.812,-87.900,23.228
16:39:30:349,24.153,0.047,-0.039,-0.034,6.487,-86.503,23.385
16:39:30:372,24.176,0.073,-0.031,0.034,6.408,-85.565,23.310
16:39:30:4,24.204,0.027,0.022,-0.065,6.191,-84.345,23.350
16:39:30:425,24.229,0.016,-0.002,-0.045,5.971,-83.024,23.425
16:39:30:451,24.255,0.029,0.009,-0.053,5.814,-81.954,23.532
16:39:30:477,24.281,0.014,0.022,-0.056,5.488,-80.763,23.877
16:39:30:532,24.337,0.003,0.021,-0.054,5.346,-79.952,24.041
16:39:30:533,24.338,-0.022,0.055,-0.042,5.227,-79.104,24.391
16:39:30:555,24.360,-0.030,0.087,0.004,5.348,-78.594,24.711
16:39:30:611,24.416,-0.043,0.058,0.046,5.513,-78.382,24.956
16:39:30:611,24.416,-0.053,0.076,0.050,5.790,-78.038,25.360
16:39:30:661,24.466,-0.094,0.048,0.063,6.051,-77.856,25.622
16:39:30:69,24.495,-0.105,-0.034,0.070,6.546,-77.607,25.969
16:39:30:691,24.496,-0.096,-0.048,0.100,6.882,-77.387,26.167
16:39:30:742,24.546,-0.057,-0.047,0.086,7.252,-76.683,26.411
16:39:30:743,24.547,-0.026,-0.039,0.024,7.488,-75.388,26.581
16:39:30:768,24.572,0.012,-0.026,-0.003,7.635,-74.704,26.622
16:39:30:769,24.573,0.024,-0.051,-0.025,7.822,-73.637,26.581
16:39:30:821,24.625,0.062,-0.047,-0.068,7.905,-72.967,26.512
16:39:30:822,24.626,0.067,-0.049,-0.090,7.960,-71.901,26.382
16:39:30:845,24.649,0.061,-0.042,-0.142,7.916,-71.158,26.243
16:39:30:9,24.704,0.043,-0.030,-0.145,7.903,-70.897,26.161
16:39:30:9,24.704,0.023,-0.007,-0.110,7.899,-70.829,26.027
16:39:30:924,24.728,0.005,0.008,-0.099,7.926,-70.908,25.950
16:39:30:979,24.784,-0.020,0.014,-0.081,8.060,-71.285,25.869
16:39:30:979,24.784,-0.021,0.045,-0.112,8.400,-72.174,25.834
16:39:31:03,24.835,-0.016,0.064,-0.132,8.831,-73.270,25.821
16:39:31:057,24.862,-0.034,0.109,-0.151,9.755,-75.586,25.888
16:39:31:057,24.862,-0.017,0.088,-0.122,10.582,-77.541,26.047
16:39:31:139,24.943,-0.008,0.088,-0.120,12.063,-80.820,26.536
16:39:31:14,24.944,0.002,0.111,-0.098,13.184,-83.142,27.003
16:39:31:14,24.944,0.013,0.074,-0.086,15.200,-86.890,27.866
16:39:31:159,24.963,0.007,0.021,0.028,17.519,-90.896,28.753
16:39:31:186,24.990,0.034,0.069,-0.061,18.941,-93.169,29.659
16:39:31:241,25.045,0.038,0.067,-0.005,20.658,-95.702,31.428
16:39:31:242,25.046,0.052,0.086,-0.045,21.337,-96.517,33.076
16:39:31:265,25.069,0.035,0.090,-0.037,22.154,-97.315,35.812
16:39:31:291,25.095,0.043,0.088,-0.039,22.851,-97.820,39.018
16:39:31:316,25.121,0.063,0.088,-0.055,23.128,-98.037,41.401
16:39:31:342,25.147,0.106,0.068,-0.010,23.233,-98.181,45.146
16:39:31:369,25.174,0.074,0.044,0.013,23.220,-98.509,47.654
16:39:31:395,25.200,0.062,0.008,0.051,23.341,-99.377,51.369
16:39:31:422,25.227,0.035,-0.067,0.093,23.402,-100.339,55.002
16:39:31:448,25.253,0.053,-0.069,0.091,23.439,-101.129,57.259
16:39:31:475,25.279,0.023,-0.147,0.121,23.984,-102.720,60.278
16:39:31:501,25.305,0.000,-0.136,0.158,24.734,-104.034,61.961
16:39:31:526,25.331,-0.082,-0.117,0.183,26.673,-106.277,64.030
16:39:31:552,25.357,0.005,-0.060,0.241,28.551,-107.789,65.115
16:39:31:579,25.384,-0.228,-0.193,0.245,34.110,-110.488,65.943
16:39:31:605,25.410,-0.450,-0.245,0.072,40.034,-112.453,66.104
16:39:31:631,25.436,-0.351,-0.267,0.024,41.473,-113.314,66.188
16:39:31:658,25.462,-0.122,-0.249,0.035,40.570,-113.208,66.081
16:39:31:684,25.488,0.090,-0.047,0.030,38.474,-112.891,65.898
16:39:31:71,25.514,0.093,0.137,0.086,36.226,-112.726,65.331
16:39:31:738,25.542,0.020,0.025,0.106,36.098,-113.212,64.865
16:39:31:763,25.567,-0.043,0.087,0.043,36.311,-113.866,64.447
16:39:31:789,25.593,0.105,0.050,-0.015,35.741,-114.042,64.569
16:39:31:816,25.620,-0.007,0.046,0.004,35.995,-114.353,64.623
16:39:31:842,25.646,0.051,0.011,-0.005,36.666,-115.002,64.712
16:39:31:869,25.673,-0.106,-0.196,0.054,37.534,-115.521,64.783
16:39:31:894,25.699,0.025,-0.022,0.034,38.353,-116.380,64.671
16:39:31:92,25.725,0.490,-0.017,-0.179,39.121,-116.954,64.586
16:39:31:947,25.752,0.010,-0.236,0.221,40.756,-118.681,63.937
16:39:31:973,25.778,-0.384,-0.153,0.194,41.571,-120.915,62.660
16:39:32:,25.805,-0.203,0.255,-0.097,40.328,-121.646,62.244
16:39:32:026,25.831,-0.167,0.190,-0.110,38.496,-121.104,62.163
16:39:32:052,25.856,0.107,0.088,-0.014,37.953,-120.688,62.011
16:39:32:078,25.882,0.050,0.034,0.009,37.846,-120.512,62.025
16:39:32:104,25.908,0.008,0.014,0.078,37.678,-120.591,62.012
16:39:32:13,25.934,-0.016,-0.068,0.090,37.424,-120.577,61.996
16:39:32:157,25.961,0.007,-0.053,0.069,36.613,-120.670,62.036
16:39:32:184,25.988,-0.024,-0.042,0.096,35.787,-120.635,62.003
16:39:32:209,26.013,-0.026,0.038,0.050,34.265,-120.522,61.907
16:39:32:236,26.040,-0.023,0.029,0.007,32.634,-120.354,61.819
16:39:32:262,26.067,0.058,0.122,-0.016,31.503,-120.068,61.866
16:39:32:288,26.093,-0.004,0.028,-0.004,30.327,-119.993,62.035
16:39:32:314,26.119,-0.045,-0.012,0.061,29.134,-119.724,62.233
16:39:32:34,26.145,-0.068,0.037,0.114,26.370,-119.108,62.630
16:39:32:366,26.171,-0.127,0.102,-0.019,23.777,-118.668,63.044
16:39:32:422,26.226,-0.088,0.141,0.037,22.406,-118.677,63.403
16:39:32:423,26.227,-0.042,0.127,0.050,21.024,-118.315,64.117
16:39:32:445,26.249,-0.006,0.223,0.021,20.293,-118.267,64.679
16:39:32:472,26.276,-0.112,0.054,0.047,19.426,-117.979,65.678
16:39:32:499,26.303,-0.173,-0.208,0.104,16.307,-117.679,66.618
16:39:32:524,26.328,0.005,-0.084,0.056,12.531,-116.960,67.077
16:39:32:551,26.355,0.147,0.061,-0.088,8.330,-116.355,67.267
16:39:32:577,26.381,0.147,-0.024,-0.243,8.265,-116.393,67.305
16:39:32:603,26.407,0.026,-0.234,-0.100,12.016,-117.030,67.548
16:39:32:628,26.433,-0.017,-0.110,-0.043,13.977,-117.117,67.837
16:39:32:656,26.461,0.004,-0.061,-0.038,14.950,-117.136,67.926
16:39:32:682,26.487,0.041,-0.042,-0.013,18.070,-117.416,67.874
16:39:32:709,26.514,-0.105,-0.195,0.052,20.303,-118.001,67.727
16:39:32:734,26.539,-0.091,-0.088,0.079,20.744,-117.946,67.323
16:39:32:76,26.565,-0.051,-0.049,0.074,20.243,-117.921,66.974
16:39:32:787,26.591,-0.039,0.032,0.083,18.995,-117.515,66.465
16:39:32:813,26.617,-0.057,-0.019,0.040,17.362,-117.092,65.920
16:39:32:839,26.643,-0.090,-0.024,0.045,15.602,-116.701,65.574
16:39:32:895,26.699,-0.051,0.073,0.007,11.737,-116.097,65.101
16:39:32:895,26.699,-0.024,0.045,0.005,9.205,-115.373,64.813
16:39:32:918,26.722,0.025,0.074,0.024,5.602,-114.230,64.541
16:39:32:944,26.748,-0.008,-0.028,0.013,2.472,-113.042,64.364
16:39:32:972,26.776,0.019,0.023,0.005,0.416,-112.207,64.331
16:39:32:997,26.801,-0.008,0.054,-0.035,-2.208,-111.006,64.378
16:39:33:023,26.828,0.018,-0.111,0.008,-4.135,-110.277,64.450
16:39:33:049,26.854,0.136,0.231,-0.165,-10.476,-108.773,64.637
16:39:33:078,26.883,-0.095,0.053,-0.108,-14.138,-107.870,64.769
16:39:33:079,26.884,0.024,0.086,-0.090,-14.794,-107.233,65.166
16:39:33:101,26.906,0.043,-0.138,0.117,-11.513,-107.766,65.819
16:39:33:127,26.932,-0.059,-0.209,0.108,-9.443,-108.058,66.221
16:39:33:154,26.959,-0.060,-0.130,0.063,-10.094,-107.666,66.464
16:39:33:18,26.985,-0.093,-0.210,0.091,-11.375,-107.165,66.390
16:39:33:236,27.040,-0.107,-0.225,0.089,-13.768,-105.844,65.802
16:39:33:237,27.041,-0.076,-0.210,0.083,-16.010,-104.063,64.609
16:39:33:288,27.093,-0.120,-0.083,0.107,-17.193,-102.688,63.481
16:39:33:288,27.093,0.060,0.137,-0.004,-17.774,-100.573,61.299
16:39:33:313,27.118,-0.081,0.238,-0.073,-15.556,-99.936,59.678
16:39:33:339,27.144,-0.180,-0.041,0.067,-6.205,-100.702,56.668
16:39:33:364,27.169,-0.042,-0.061,0.089,1.746,-102.351,54.675
16:39:33:39,27.195,0.042,-0.045,0.116,13.586,-106.411,51.365
16:39:33:417,27.221,-0.006,-0.137,0.180,22.723,-112.172,46.610
16:39:33:443,27.247,-0.101,-0.171,0.240,26.322,-116.466,42.665
16:39:33:469,27.273,-0.156,-0.138,0.232,28.347,-122.442,36.522
16:39:33:495,27.299,-0.137,0.002,0.246,27.923,-125.377,32.876
16:39:33:522,27.326,-0.041,0.046,0.201,25.593,-127.335,28.382
16:39:33:548,27.352,0.238,0.309,-0.161,21.966,-126.127,25.038
16:39:33:575,27.379,0.044,0.231,0.116,19.756,-123.513,23.362
16:39:33:601,27.405,0.166,0.296,-0.205,16.796,-119.814,20.895
16:39:33:627,27.431,0.166,0.238,-0.228,15.679,-117.712,19.293
16:39:33:681,27.486,0.130,0.103,-0.135,14.997,-116.626,16.861
16:39:33:682,27.487,0.089,0.088,-0.085,14.862,-116.795,15.369
16:39:33:705,27.510,0.072,0.049,-0.090,14.884,-117.698,13.533
16:39:33:731,27.536,0.050,0.028,-0.080,14.952,-119.141,12.231
16:39:33:873,27.677,0.060,0.012,-0.064,14.917,-119.877,11.690
16:39:33:873,27.677,0.083,-0.001,-0.093,14.742,-120.054,11.406
16:39:33:874,27.678,0.084,-0.012,-0.091,14.546,-119.662,11.697
16:39:33:875,27.679,0.083,-0.008,-0.116,14.247,-118.892,12.403
16:39:33:978,27.782,0.082,-0.022,-0.113,14.091,-118.463,12.714
16:39:33:979,27.783,0.055,-0.012,-0.090,14.033,-118.433,13.105
16:39:33:98,27.784,0.029,-0.013,-0.076,14.232,-118.848,13.901
16:39:33:981,27.785,-0.031,-0.012,-0.026,14.417,-119.390,13.965
16:39:34:024,27.829,-0.067,0.008,0.004,14.565,-119.721,14.217
16:39:34:024,27.829,-0.001,-0.008,-0.049,14.804,-120.008,14.542
16:39:34:079,27.884,-0.090,-0.016,0.056,15.001,-120.610,14.655
16:39:34:079,27.884,-0.057,-0.009,-0.018,15.308,-121.391,14.960
16:39:34:08,27.885,-0.073,-0.005,0.027,15.508,-121.820,15.172
16:39:34:099,27.904,-0.103,-0.011,0.062,15.814,-122.292,15.418
16:39:34:127,27.932,-0.057,-0.003,0.038,15.920,-122.201,15.721
16:39:34:153,27.958,-0.050,-0.011,0.043,15.990,-121.812,16.295
16:39:34:178,27.982,-0.017,-0.010,0.027,15.992,-121.032,16.935
16:39:34:206,28.010,0.002,-0.007,0.035,15.989,-120.766,17.358
16:39:34:231,28.035,0.004,-0.014,0.041,16.026,-120.140,17.931
16:39:34:257,28.061,0.007,-0.019,0.048,16.069,-119.907,18.279
16:39:34:312,28.116,-0.004,-0.019,0.046,16.023,-119.533,18.581
16:39:34:313,28.117,0.004,-0.025,0.042,15.961,-119.635,18.804
16:39:34:393,28.197,0.006,-0.023,0.041,15.908,-119.513,18.899
16:39:34:394,28.198,0.003,-0.023,0.041,15.834,-119.473,18.947
16:39:34:417,28.221,0.001,-0.018,0.041,15.799,-119.547,18.908
16:39:34:418,28.222,0.008,-0.014,0.036,15.721,-119.744,18.772
16:39:34:468,28.272,-0.027,-0.002,0.036,15.694,-119.908,18.661
16:39:34:497,28.301,-0.015,0.026,0.029,15.710,-120.096,18.544
16:39:34:497,28.301,-0.066,0.025,0.034,15.907,-120.373,18.541
16:39:34:52,28.324,-0.058,0.060,0.057,15.963,-120.307,18.749
16:39:34:546,28.350,-0.074,0.088,0.007,15.868,-119.419,19.591
16:39:34:573,28.377,-0.153,-0.009,0.076,15.699,-118.286,20.449
16:39:34:598,28.403,-0.042,0.024,-0.006,15.043,-116.005,22.181
16:39:34:624,28.428,-0.028,0.010,-0.018,14.084,-113.126,24.160
16:39:34:65,28.454,-0.035,-0.006,-0.014,13.517,-111.573,25.242
16:39:34:676,28.480,-0.057,-0.077,0.058,12.860,-109.735,26.638
16:39:34:705,28.509,0.003,-0.097,0.017,12.339,-108.403,27.493
16:39:34:758,28.563,-0.009,-0.082,0.075,11.305,-106.694,28.421
16:39:34:759,28.564,0.075,-0.027,0.008,10.299,-105.427,28.926
16:39:34:84,28.645,0.110,-0.019,0.026,9.162,-104.058,29.359
16:39:34:84,28.645,0.092,-0.037,-0.016,8.951,-103.517,29.341
16:39:34:861,28.666,-0.064,-0.059,-0.007,9.917,-103.830,28.120
16:39:34:888,28.692,-0.071,-0.036,0.014,10.429,-104.221,27.402
16:39:34:971,28.776,-0.023,-0.019,-0.004,10.943,-104.978,26.458
16:39:34:972,28.777,0.044,0.024,-0.034,11.177,-105.595,25.703
16:39:34:973,28.778,0.061,0.039,-0.060,11.298,-105.997,25.274
16:39:35:018,28.823,0.015,0.042,-0.022,11.643,-106.884,24.675
16:39:35:047,28.852,0.073,0.017,-0.030,11.926,-107.598,24.343
16:39:35:047,28.852,0.096,-0.012,-0.012,12.524,-108.887,23.831
16:39:35:071,28.876,-0.070,-0.036,0.090,13.870,-111.510,22.766
16:39:35:097,28.901,-0.103,-0.049,0.099,14.770,-113.465,21.951
16:39:35:123,28.927,-0.138,-0.049,0.160,15.807,-116.130,20.787
16:39:35:149,28.953,-0.116,-0.027,0.125,16.047,-117.018,20.213
16:39:35:204,29.008,-0.072,0.014,0.063,15.718,-116.944,19.752
16:39:35:205,29.009,-0.040,0.033,0.009,15.230,-116.375,19.593
16:39:35:228,29.032,-0.014,0.030,-0.006,14.419,-115.569,19.345
16:39:35:288,29.092,-0.001,0.019,-0.045,13.823,-115.314,18.928
16:39:35:288,29.092,-0.015,-0.002,-0.018,13.607,-115.584,18.552
16:39:35:288,29.092,-0.047,0.000,-0.004,13.428,-116.290,17.922
16:39:35:335,29.140,-0.043,0.007,-0.027,13.362,-116.528,17.566
16:39:35:362,29.167,-0.043,0.011,-0.034,13.341,-116.511,17.134
16:39:35:363,29.168,-0.022,0.003,-0.038,13.436,-116.379,16.815
16:39:35:386,29.191,-0.020,0.001,-0.039,13.513,-116.280,16.659
16:39:35:47,29.274,-0.008,0.001,-0.026,13.645,-116.163,16.487
16:39:35:471,29.275,0.003,0.003,-0.024,13.709,-116.081,16.411
16:39:35:472,29.276,0.008,-0.005,-0.020,13.818,-115.911,16.363
16:39:35:549,29.353,0.009,-0.012,-0.027,13.890,-115.765,16.370
16:39:35:55,29.354,0.018,-0.011,-0.016,13.987,-115.595,16.411
16:39:35:55,29.354,0.013,-0.015,-0.018,14.064,-115.428,16.483
16:39:35:599,29.403,0.016,-0.007,-0.012,14.091,-115.334,16.544
16:39:35:599,29.403,0.021,-0.008,-0.015,14.122,-115.218,16.643
16:39:35:622,29.426,0.008,-0.008,-0.009,14.113,-115.184,16.712
16:39:35:648,29.452,0.001,-0.003,-0.008,14.132,-115.206,16.825
16:39:35:674,29.479,-0.020,0.002,-0.002,14.145,-115.333,16.930
16:39:35:758,29.563,-0.026,0.002,0.000,14.163,-115.456,16.986
16:39:35:759,29.564,-0.040,-0.010,0.004,14.244,-115.652,17.061
16:39:35:76,29.565,-0.036,-0.013,0.008,14.334,-115.820,17.111
16:39:35:779,29.584,-0.031,-0.013,0.011,14.436,-115.925,17.224
16:39:35:805,29.610,-0.021,-0.015,0.006,14.496,-116.003,17.291
16:39:35:831,29.636,-0.025,-0.022,0.010,14.589,-116.190,17.349
16:39:35:887,29.692,-0.013,-0.017,0.010,14.688,-116.414,17.351
16:39:35:888,29.693,-0.015,-0.016,0.003,14.728,-116.573,17.336
16:39:35:91,29.715,-0.006,-0.007,0.006,14.804,-116.787,17.294
16:39:35:966,29.770,-0.007,-0.004,0.007,14.852,-116.908,17.290
16:39:35:966,29.770,0.008,-0.002,0.013,14.930,-117.034,17.318
16:39:35:99,29.794,0.002,0.002,0.017,15.029,-117.119,17.396
16:39:36:016,29.820,0.007,-0.005,0.021,15.087,-117.139,17.476
16:39:36:1,29.904,0.001,-0.005,0.026,15.161,-117.158,17.609
16:39:36:101,29.905,0.008,-0.017,0.023,15.190,-117.129,17.701
16:39:36:102,29.906,0.004,-0.008,0.030,15.230,-117.101,17.844
16:39:36:121,29.925,0.009,-0.015,0.037,15.224,-117.108,17.908
16:39:36:176,29.981,-0.001,-0.021,0.029,15.181,-117.087,17.972
16:39:36:176,29.981,-0.001,-0.030,0.029,15.138,-117.106,17.996
16:39:36:199,30.004,-0.007,-0.025,0.026,15.098,-117.046,17.992
16:39:36:254,30.058,-0.002,-0.020,0.032,15.018,-117.098,17.947
16:39:36:255,30.059,-0.020,-0.010,0.033,14.962,-117.101,17.880
16:39:36:336,30.140,-0.015,-0.011,0.026,14.871,-117.098,17.765
16:39:36:337,30.141,-0.021,-0.004,0.014,14.787,-116.987,17.669
16:39:36:338,30.142,-0.016,-0.005,0.015,14.728,-116.904,17.608
16:39:36:357,30.161,-0.010,-0.006,0.012,14.631,-116.788,17.525
16:39:36:411,30.215,-0.010,-0.010,0.001,14.559,-116.723,17.463
16:39:36:438,30.242,-0.016,-0.012,-0.003,14.460,-116.638,17.349
16:39:36:439,30.243,-0.013,-0.007,-0.014,14.358,-116.556,17.214
16:39:36:52,30.324,-0.017,-0.008,-0.015,14.303,-116.496,17.120
16:39:36:521,30.325,-0.010,-0.004,-0.015,14.237,-116.444,16.947
16:39:36:522,30.326,0.006,0.002,-0.011,14.207,-116.397,16.842
16:39:36:54,30.345,0.002,0.002,-0.014,14.154,-116.316,16.716
16:39:36:567,30.372,0.013,0.012,-0.014,14.130,-116.207,16.671
16:39:36:593,30.398,0.002,0.002,-0.020,14.076,-116.120,16.631
16:39:36:619,30.424,0.001,0.005,-0.017,14.047,-116.031,16.638
16:39:36:645,30.450,0.004,0.007,-0.019,14.042,-115.977,16.666
16:39:36:701,30.505,-0.001,-0.006,-0.006,14.039,-115.945,16.705
16:39:36:701,30.505,-0.009,-0.010,-0.008,14.052,-115.979,16.718
16:39:36:783,30.587,-0.010,-0.012,0.003,14.088,-115.945,16.735
16:39:36:784,30.588,-0.022,-0.011,0.002,14.125,-116.020,16.733
16:39:36:86,30.664,-0.010,-0.005,0.014,14.202,-116.042,16.741
16:39:36:86,30.664,0.002,-0.006,0.009,14.246,-115.990,16.769
16:39:36:941,30.746,-0.001,-0.003,0.007,14.301,-115.868,16.840
16:39:36:942,30.747,0.010,-0.004,0.008,14.331,-115.774,16.890
16:39:36:943,30.748,0.004,-0.006,0.006,14.388,-115.631,16.965
16:39:36:964,30.769,0.010,-0.007,0.013,14.436,-115.494,17.042
16:39:36:964,30.769,0.007,-0.005,0.011,14.455,-115.402,17.090
16:39:37:042,30.847,-0.011,-0.014,0.007,14.464,-115.293,17.119
16:39:37:043,30.848,-0.008,-0.012,0.006,14.441,-115.233,17.107
16:39:37:066,30.870,-0.019,-0.008,-0.005,14.432,-115.170,17.080
16:39:37:092,30.896,-0.011,0.001,-0.001,14.427,-115.123,17.065
16:39:37:148,30.952,-0.014,-0.002,-0.006,14.449,-115.028,17.054
16:39:37:148,30.952,-0.003,-0.002,0.003,14.470,-114.983,17.056
16:39:37:171,30.975,-0.003,-0.002,0.006,14.495,-114.905,17.073
16:39:37:197,31.001,-0.004,-0.007,0.009,14.511,-114.870,17.082
16:39:37:223,31.027,-0.005,-0.014,0.006,14.515,-114.854,17.081
16:39:37:307,31.112,-0.006,-0.015,0.000,14.511,-114.852,17.064
16:39:37:308,31.113,-0.009,-0.013,-0.005,14.514,-114.849,17.040
16:39:37:309,31.114,-0.007,-0.007,0.007,14.519,-114.870,16.993
16:39:37:328,31.133,0.003,-0.010,0.010,14.511,-114.855,16.964
16:39:37:384,31.188,0.001,-0.009,0.001,14.500,-114.844,16.912
16:39:37:384,31.188,0.004,-0.012,-0.001,14.491,-114.851,16.869
16:39:37:406,31.210,-0.005,-0.007,0.002,14.468,-114.865,16.845
16:39:37:494,31.298,-0.006,-0.010,0.005,14.444,-114.889,16.811
16:39:37:495,31.299,-0.004,-0.005,-0.007,14.438,-114.879,16.812
16:39:37:496,31.300,-0.006,-0.011,0.000,14.426,-114.871,16.810
16:39:37:497,31.301,-0.006,-0.004,0.001,14.420,-114.825,16.811
16:39:37:54,31.345,0.003,-0.006,-0.005,14.413,-114.783,16.826
16:39:37:541,31.346,-0.006,-0.002,-0.004,14.404,-114.754,16.828
16:39:37:593,31.398,-0.006,-0.009,-0.005,14.416,-114.730,16.834
16:39:37:594,31.399,-0.011,-0.010,0.001,14.442,-114.694,16.845
16:39:37:617,31.422,0.000,-0.009,0.004,14.458,-114.628,16.859
16:39:37:672,31.476,-0.002,-0.007,0.002,14.481,-114.533,16.884
16:39:37:673,31.478,0.006,-0.001,0.002,14.487,-114.441,16.904
16:39:37:723,31.527,0.000,-0.004,0.001,14.480,-114.426,16.910
16:39:37:751,31.555,-0.003,-0.011,0.002,14.488,-114.432,16.931
16:39:37:752,31.556,-0.014,-0.012,0.014,14.486,-114.467,16.941
16:39:37:774,31.578,-0.010,-0.010,0.015,14.480,-114.514,16.947
16:39:37:828,31.632,-0.021,-0.002,0.012,14.465,-114.554,16.933
16:39:37:857,31.661,-0.015,-0.001,0.006,14.461,-114.566,16.894
16:39:37:857,31.661,-0.015,0.001,0.001,14.466,-114.564,16.861
16:39:37:939,31.744,-0.011,-0.004,-0.003,14.466,-114.564,16.861
16:39:37:939,31.744,-0.010,-0.010,-0.005,14.478,-114.563,16.853
16:39:37:939,31.744,-0.005,-0.015,-0.004,14.476,-114.558,16.859
16:39:37:985,31.790,0.002,-0.012,-0.003,14.496,-114.525,16.848
16:39:38:013,31.818,0.004,-0.012,-0.006,14.486,-114.509,16.828
16:39:38:014,31.819,0.000,-0.010,-0.004,14.489,-114.510,16.809
16:39:38:037,31.842,-0.001,-0.009,-0.009,14.487,-114.505,16.779
16:39:38:063,31.867,0.005,-0.009,0.000,14.487,-114.501,16.774
16:39:38:118,31.922,-0.004,-0.005,0.002,14.487,-114.510,16.783
16:39:38:119,31.923,-0.005,-0.013,0.014,14.495,-114.516,16.804
16:39:38:142,31.946,-0.013,-0.014,0.013,14.491,-114.511,16.799
16:39:38:168,31.972,-0.006,-0.014,0.011,14.478,-114.462,16.803
16:39:38:195,31.999,-0.010,-0.003,0.011,14.472,-114.412,16.799
16:39:38:221,32.025,0.004,-0.003,0.001,14.436,-114.317,16.785
16:39:38:248,32.052,-0.002,-0.002,-0.002,14.419,-114.255,16.775
16:39:38:274,32.079,-0.003,-0.003,-0.008,14.395,-114.173,16.757
16:39:38:299,32.104,-0.013,0.006,-0.005,14.376,-114.106,16.753
16:39:38:383,32.188,-0.006,0.003,-0.002,14.396,-114.041,16.747
16:39:38:384,32.189,-0.008,-0.007,0.004,14.423,-113.921,16.762
16:39:38:385,32.190,0.006,-0.024,0.012,14.437,-113.845,16.776
16:39:38:462,32.266,-0.002,-0.029,0.009,14.442,-113.802,16.784
16:39:38:463,32.267,0.000,-0.023,0.004,14.390,-113.810,16.746
16:39:38:51,32.314,0.006,-0.002,-0.025,14.259,-113.784,16.621
16:39:38:538,32.342,0.003,0.006,-0.029,14.218,-113.772,16.604
16:39:38:539,32.343,0.006,0.003,-0.018,14.182,-113.780,16.594
16:39:38:562,32.366,-0.005,-0.009,-0.002,14.181,-113.788,16.613
16:39:38:588,32.392,-0.002,-0.006,0.008,14.190,-113.835,16.628
16:39:38:643,32.448,-0.008,-0.001,0.020,14.194,-113.866,16.624
16:39:38:643,32.448,-0.011,0.001,0.025,14.189,-113.866,16.588
16:39:38:667,32.472,-0.014,-0.001,0.030,14.159,-113.804,16.489
16:39:38:693,32.498,-0.011,-0.014,0.016,14.132,-113.664,16.448
16:39:38:719,32.524,-0.011,0.004,0.010,14.098,-113.492,16.359
16:39:38:745,32.550,0.001,0.015,0.028,14.051,-113.177,16.314
16:39:38:83,32.635,0.022,0.024,-0.024,13.995,-112.883,16.309
16:39:38:83,32.635,-0.012,-0.003,0.037,13.979,-112.618,16.223
16:39:38:831,32.636,-0.003,-0.039,0.004,13.986,-112.391,16.182
16:39:38:906,32.710,-0.009,-0.043,-0.002,13.935,-112.134,16.086
16:39:38:907,32.711,-0.004,-0.037,-0.003,13.861,-111.927,15.966
16:39:38:993,32.797,-0.008,-0.013,-0.021,13.802,-111.830,15.844
16:39:38:993,32.797,-0.001,0.000,-0.028,13.725,-111.688,15.647
16:39:38:993,32.797,-0.005,0.013,-0.033,13.697,-111.618,15.519
16:39:38:993,32.797,0.003,0.010,-0.037,13.682,-111.587,15.352
16:39:39:008,32.812,-0.006,0.007,-0.028,13.694,-111.608,15.296
16:39:39:034,32.838,0.004,-0.004,-0.012,13.741,-111.733,15.264
16:39:39:09,32.894,-0.012,-0.009,-0.006,13.801,-111.933,15.286
16:39:39:091,32.895,-0.007,-0.006,-0.002,13.826,-112.082,15.300
16:39:39:116,32.920,-0.018,-0.005,0.008,13.859,-112.300,15.282
16:39:39:14,32.945,-0.013,-0.010,0.003,13.876,-112.425,15.258
16:39:39:166,32.971,-0.009,-0.005,-0.006,13.898,-112.567,15.216
16:39:39:219,33.024,0.011,0.000,0.004,13.916,-112.627,15.212
16:39:39:247,33.052,0.015,0.003,-0.015,13.914,-112.652,15.213
16:39:39:248,33.053,0.011,0.001,-0.012,13.927,-112.856,15.207
16:39:39:329,33.133,0.008,-0.011,0.000,13.933,-113.109,15.170
16:39:39:329,33.133,0.015,-0.022,-0.011,13.948,-113.531,15.071
16:39:39:33,33.134,0.000,-0.017,-0.008,13.956,-113.862,15.010
16:39:39:465,33.269,-0.010,-0.012,-0.007,13.994,-114.375,14.913
16:39:39:465,33.269,-0.006,-0.003,-0.015,14.032,-114.801,14.865
16:39:39:466,33.270,0.007,0.003,-0.023,14.061,-115.041,14.877
16:39:39:466,33.270,-0.001,0.005,-0.018,14.140,-115.411,14.967
16:39:39:485,33.289,0.003,0.005,-0.011,14.255,-115.740,15.127
16:39:39:51,33.315,0.002,-0.001,-0.010,14.351,-115.884,15.273
16:39:39:51,33.315,0.003,-0.013,-0.013,14.516,-116.011,15.537
16:39:39:532,33.337,-0.003,-0.009,-0.008,14.643,-116.133,15.724
16:39:39:559,33.364,-0.010,-0.020,0.007,14.850,-116.307,16.005
16:39:39:586,33.391,0.006,-0.020,0.015,14.974,-116.346,16.202
16:39:39:611,33.416,0.006,-0.022,0.019,15.143,-116.325,16.505
16:39:39:7,33.504,0.014,-0.022,0.031,15.270,-116.258,16.789
16:39:39:7,33.504,0.010,-0.013,0.026,15.315,-116.184,16.962
16:39:39:7,33.504,0.014,-0.016,0.032,15.376,-116.102,17.205
16:39:39:717,33.521,0.015,-0.015,0.036,15.380,-116.087,17.335
16:39:39:804,33.608,0.028,-0.020,0.037,15.322,-116.075,17.486
16:39:39:805,33.609,0.012,-0.010,0.043,15.257,-116.141,17.603
16:39:39:806,33.610,0.024,0.000,0.052,15.148,-116.201,17.635
16:39:39:807,33.611,-0.002,-0.004,0.028,14.987,-116.276,17.669
16:39:39:88,33.684,-0.024,-0.014,0.023,14.903,-116.396,17.688
16:39:39:881,33.685,-0.030,-0.021,0.020,14.772,-116.654,17.727
16:39:39:881,33.685,-0.034,-0.025,0.015,14.697,-116.875,17.707
16:39:39:901,33.705,-0.038,-0.026,0.014,14.631,-117.246,17.636
16:39:39:927,33.731,-0.031,-0.017,0.020,14.592,-117.578,17.533
16:39:39:955,33.759,-0.039,0.000,-0.002,14.592,-117.690,17.466
16:39:39:981,33.785,-0.025,-0.006,-0.017,14.646,-117.625,17.392
16:39:40:006,33.810,-0.019,-0.001,-0.021,14.685,-117.459,17.364
16:39:40:032,33.836,-0.004,-0.014,-0.005,14.747,-117.266,17.310
16:39:40:057,33.862,0.013,-0.008,-0.009,14.793,-117.265,17.189
16:39:40:116,33.920,0.014,-0.005,-0.004,14.816,-117.319,17.100
16:39:40:116,33.920,0.013,0.008,-0.004,14.853,-117.334,16.989
16:39:40:218,34.022,0.014,0.008,-0.009,14.874,-117.292,16.934
16:39:40:219,34.023,0.015,0.007,-0.008,14.897,-117.181,16.896
16:39:40:27,34.074,0.015,0.003,-0.005,14.903,-117.071,16.909
16:39:40:33,34.135,0.020,0.000,0.001,14.905,-116.861,16.976
16:39:40:331,34.136,0.014,-0.009,-0.007,14.901,-116.609,17.095
16:39:40:331,34.136,0.008,-0.009,-0.001,14.905,-116.465,17.168
16:39:40:332,34.137,0.020,-0.008,0.007,14.895,-116.258,17.259
16:39:40:41,34.214,0.021,-0.016,0.000,14.870,-116.107,17.302
16:39:40:41,34.214,0.016,-0.015,-0.006,14.814,-115.944,17.320
16:39:40:41,34.214,0.022,-0.018,-0.016,14.739,-115.867,17.314
16:39:40:411,34.215,0.012,-0.012,-0.024,14.685,-115.861,17.309
16:39:40:426,34.230,0.008,-0.006,-0.036,14.634,-115.943,17.331
16:39:40:481,34.285,-0.006,-0.003,-0.041,14.631,-116.069,17.356
16:39:40:482,34.286,0.008,-0.003,-0.040,14.681,-116.363,17.357
16:39:40:505,34.309,0.009,-0.002,-0.039,14.724,-116.589,17.337
16:39:40:531,34.335,0.018,0.003,-0.029,14.803,-116.951,17.299
16:39:40:557,34.361,0.013,0.007,-0.021,14.887,-117.333,17.248
16:39:40:583,34.387,0.027,0.003,-0.014,14.962,-117.587,17.210
16:39:40:666,34.470,0.020,0.006,-0.013,15.060,-117.966,17.162
16:39:40:667,34.471,0.024,0.001,0.003,15.119,-118.198,17.154
16:39:40:69,34.495,0.022,0.002,0.000,15.218,-118.498,17.192
16:39:40:691,34.496,0.024,-0.006,0.010,15.308,-118.692,17.301
16:39:40:714,34.519,0.016,-0.003,0.010,15.374,-118.777,17.413
16:39:40:77,34.575,0.023,-0.008,0.022,15.455,-118.866,17.590
16:39:40:77,34.575,0.013,-0.009,0.020,15.493,-118.910,17.707
16:39:40:793,34.598,0.006,-0.009,0.031,15.554,-118.990,17.857
16:39:40:848,34.652,0.007,-0.008,0.037,15.560,-119.034,17.927
16:39:40:849,34.653,0.005,-0.014,0.032,15.543,-119.036,18.004
16:39:40:872,34.676,-0.009,-0.023,0.027,15.537,-119.090,18.029
16:39:40:927,34.731,-0.024,-0.028,0.030,15.535,-119.167,17.997
16:39:40:928,34.732,-0.029,-0.030,0.026,15.538,-119.297,17.867
16:39:40:981,34.785,-0.025,-0.015,0.013,15.538,-119.313,17.763
16:39:40:982,34.786,-0.015,-0.005,0.003,15.526,-119.181,17.630
16:39:41:003,34.807,-0.006,0.002,-0.003,15.512,-118.895,17.537
16:39:41:03,34.834,0.004,0.004,-0.003,15.522,-118.659,17.490
16:39:41:056,34.860,0.017,0.002,0.002,15.547,-118.290,17.437
16:39:41:081,34.886,0.020,-0.006,0.010,15.571,-118.044,17.409
16:39:41:108,34.913,0.004,-0.006,0.024,15.617,-117.655,17.349
16:39:41:134,34.939,0.010,-0.003,0.036,15.650,-117.152,17.280
16:39:41:189,34.994,0.000,0.004,0.042,15.667,-116.742,17.223
16:39:41:19,34.995,0.003,0.006,0.063,15.684,-115.961,17.104
16:39:41:19,34.995,0.003,0.006,0.063,15.684,-115.961,17.104
16:39:41:271,35.075,0.006,0.002,0.050,15.687,-115.306,17.053
16:39:41:272,35.076,0.007,-0.003,0.041,15.760,-114.234,17.042
16:39:41:273,35.077,-0.026,-0.021,0.068,15.792,-113.594,16.977
16:39:41:292,35.096,-0.022,0.022,0.070,15.852,-112.530,16.975
16:39:41:349,35.153,-0.034,0.020,0.098,15.893,-110.914,16.966
16:39:41:349,35.153,-0.003,-0.011,0.082,15.870,-109.688,16.923
16:39:41:4,35.204,-0.015,0.020,0.043,15.818,-107.609,17.089
16:39:41:401,35.205,-0.038,0.050,0.081,15.827,-106.268,17.273
16:39:41:423,35.227,-0.028,0.048,0.059,15.833,-104.156,17.538
16:39:41:479,35.283,-0.030,0.028,0.054,15.878,-102.184,17.585
16:39:41:479,35.283,-0.018,0.021,0.033,15.922,-100.822,17.594
16:39:41:503,35.307,-0.003,0.018,0.027,15.923,-99.278,17.504
16:39:41:53,35.334,-0.025,0.010,0.033,15.907,-98.609,17.310
16:39:41:555,35.360,-0.015,0.000,0.046,15.846,-98.152,16.826
16:39:41:58,35.384,-0.002,0.006,0.006,15.731,-97.732,16.401
16:39:41:607,35.411,0.011,0.005,-0.014,15.388,-97.343,15.563
16:39:41:663,35.467,0.004,0.019,-0.076,14.842,-97.074,14.541
16:39:41:663,35.467,-0.021,0.030,-0.014,14.434,-97.254,13.788
16:39:41:744,35.549,-0.022,0.007,-0.040,13.701,-97.308,12.741
16:39:41:744,35.549,-0.025,0.041,-0.065,12.978,-97.007,12.181
16:39:41:745,35.550,-0.025,0.034,-0.128,11.592,-94.942,11.705
16:39:41:764,35.569,-0.019,0.005,-0.131,10.157,-92.314,11.291
16:39:41:79,35.595,-0.027,0.006,-0.078,9.243,-90.039,11.033
16:39:41:816,35.621,-0.053,-0.015,-0.112,7.787,-86.648,10.760
16:39:41:843,35.648,-0.027,-0.013,-0.319,6.713,-83.802,10.740
16:39:41:869,35.674,-0.002,-0.012,-0.243,5.342,-80.012,10.736
16:39:41:895,35.699,-0.019,-0.004,-0.127,4.544,-77.468,10.657
16:39:41:922,35.726,-0.069,0.008,-0.118,3.380,-74.960,10.668
16:39:41:951,35.755,-0.095,-0.021,-0.178,2.241,-72.577,10.950
16:39:41:952,35.756,-0.037,-0.026,-0.113,1.540,-71.458,11.127
16:39:42:004,35.808,-0.030,-0.029,0.014,0.628,-69.932,11.403
16:39:42:004,35.808,-0.092,-0.048,0.062,0.074,-68.943,11.542
16:39:42:056,35.860,-0.125,-0.034,0.003,-0.789,-66.866,11.696
16:39:42:057,35.861,-0.095,0.006,-0.036,-1.600,-64.755,11.559
16:39:42:137,35.942,-0.076,0.024,-0.101,-1.992,-63.636,11.392
16:39:42:138,35.943,-0.072,-0.015,0.023,-2.261,-62.432,11.024
16:39:42:139,35.944,-0.130,-0.004,-0.043,-2.463,-61.373,10.755
16:39:42:188,35.993,-0.124,-0.028,-0.023,-2.935,-59.653,10.381
16:39:42:214,36.019,-0.058,0.018,-0.220,-3.599,-57.726,9.854
16:39:42:214,36.019,-0.029,-0.009,-0.258,-4.206,-56.094,9.677
16:39:42:266,36.070,0.034,0.004,-0.257,-5.384,-55.143,9.528
16:39:42:266,36.070,0.022,-0.007,-0.224,-6.270,-54.905,9.532
16:39:42:29,36.094,-0.023,-0.048,-0.140,-7.608,-55.171,9.717
16:39:42:316,36.120,-0.020,-0.028,-0.054,-8.366,-55.719,9.951
16:39:42:342,36.146,-0.178,-0.022,0.059,-9.165,-56.914,10.319
16:39:42:368,36.172,-0.181,-0.122,0.213,-8.954,-58.864,10.379
16:39:42:397,36.201,-0.086,-0.082,0.120,-9.013,-59.583,10.336
16:39:42:422,36.226,0.043,-0.014,-0.002,-9.098,-60.538,9.826
16:39:42:447,36.251,0.028,0.077,-0.157,-9.184,-60.724,9.350
16:39:42:473,36.277,-0.009,0.072,-0.161,-9.435,-61.379,8.865
16:39:42:499,36.304,-0.013,0.061,-0.057,-9.563,-62.566,8.608
16:39:42:525,36.330,0.028,0.066,-0.031,-9.572,-63.487,8.531
16:39:42:552,36.357,0.057,0.099,-0.075,-9.565,-64.925,8.644
16:39:42:579,36.383,0.088,0.067,-0.085,-9.571,-66.154,8.900
16:39:42:605,36.409,0.181,0.032,0.168,-9.921,-67.844,9.363
16:39:42:631,36.435,0.047,0.027,-0.148,-10.615,-67.878,9.825
16:39:42:657,36.461,0.033,-0.031,0.164,-11.379,-69.365,10.391
16:39:42:683,36.487,-0.091,-0.082,0.053,-11.833,-71.252,11.133
16:39:42:709,36.513,-0.118,-0.129,0.214,-11.864,-72.814,11.536
16:39:42:765,36.569,0.049,-0.042,-0.025,-12.066,-74.364,11.980
16:39:42:766,36.570,0.158,-0.017,-0.247,-12.173,-75.518,12.385
16:39:42:788,36.593,-0.006,-0.159,0.057,-12.209,-78.523,13.208
16:39:42:844,36.649,-0.111,-0.102,-0.132,-12.358,-80.006,13.574
16:39:42:844,36.649,-0.014,-0.099,-0.087,-12.634,-82.088,14.276
16:39:42:866,36.671,0.070,-0.080,-0.093,-12.810,-84.175,15.254
16:39:42:922,36.727,-0.051,-0.144,0.127,-12.848,-85.633,15.932
16:39:42:923,36.728,-0.152,-0.022,0.041,-12.855,-86.948,16.649
16:39:42:947,36.752,0.037,0.185,-0.046,-12.924,-87.370,17.018
16:39:43:001,36.805,0.013,0.172,0.045,-13.092,-87.578,17.617
16:39:43:002,36.806,-0.010,0.134,-0.591,-13.137,-86.709,18.566
16:39:43:084,36.888,0.053,-0.010,0.218,-12.716,-88.032,19.800
16:39:43:084,36.888,0.072,-0.084,-0.028,-12.166,-89.762,21.325
16:39:43:084,36.888,0.090,-0.213,0.221,-12.036,-90.775,22.061
16:39:43:104,36.908,-0.026,-0.231,0.004,-12.347,-90.902,22.611
16:39:43:129,36.934,-0.065,-0.068,-0.052,-12.683,-90.577,22.967
16:39:43:155,36.960,0.002,0.051,-0.068,-12.865,-90.456,23.252
16:39:43:213,37.018,-0.028,0.102,0.005,-13.148,-90.298,23.641
16:39:43:213,37.018,-0.065,0.071,0.084,-13.350,-90.259,23.872
16:39:43:234,37.039,0.044,0.080,-0.166,-14.077,-89.333,23.961
16:39:43:261,37.066,0.081,0.176,-0.114,-14.459,-88.953,24.111
16:39:43:287,37.091,-0.043,0.095,0.045,-15.051,-88.682,24.664
16:39:43:313,37.117,-0.065,0.100,0.114,-15.827,-88.123,25.125
16:39:43:341,37.145,-0.044,0.149,-0.101,-16.453,-87.443,25.278
16:39:43:367,37.171,-0.002,0.101,-0.182,-17.210,-86.854,25.622
16:39:43:395,37.199,0.019,-0.075,-0.073,-17.638,-86.311,25.993
16:39:43:419,37.223,0.007,-0.170,-0.014,-18.040,-86.567,26.714
16:39:43:445,37.249,-0.006,-0.209,-0.091,-18.365,-86.845,27.279
16:39:43:471,37.275,-0.057,-0.237,0.009,-18.375,-87.380,27.669
16:39:43:526,37.331,-0.053,-0.238,0.008,-18.088,-88.216,28.229
16:39:43:527,37.332,-0.085,-0.186,-0.048,-17.731,-88.945,28.572
16:39:43:55,37.355,-0.111,-0.284,0.113,-16.843,-90.100,28.861
16:39:43:575,37.380,0.037,-0.272,0.186,-16.228,-90.549,28.761
16:39:43:602,37.407,0.051,-0.242,0.178,-15.814,-90.163,27.949
16:39:43:628,37.433,0.109,-0.233,0.223,-16.066,-88.410,26.388
16:39:43:654,37.458,0.111,-0.190,0.250,-16.695,-86.104,24.794
16:39:43:71,37.514,0.114,-0.088,0.030,-18.071,-81.134,21.608
16:39:43:712,37.516,0.248,-0.062,-0.122,-19.475,-74.876,17.833
16:39:43:763,37.567,0.244,0.081,-0.348,-20.038,-70.357,15.120
16:39:43:763,37.567,-0.067,0.055,-0.475,-19.574,-65.268,11.373
16:39:43:786,37.590,-0.134,-0.060,-0.432,-18.773,-63.559,9.964
16:39:43:841,37.645,-0.019,0.058,-0.426,-16.922,-63.890,8.973
16:39:43:842,37.646,0.021,-0.020,-0.279,-15.401,-65.274,8.913
16:39:43:895,37.700,-0.003,0.056,-0.098,-12.839,-68.332,9.133
16:39:43:895,37.700,-0.073,0.019,-0.210,-10.165,-71.107,9.039
16:39:43:916,37.721,0.143,0.149,-0.243,-8.375,-72.142,8.817
16:39:43:943,37.748,0.021,0.041,0.068,-5.686,-74.196,8.196
16:39:43:969,37.774,-0.246,0.190,-0.312,-4.118,-75.822,7.721
16:39:44:054,37.858,-0.157,0.278,-0.184,-1.816,-77.645,7.013
16:39:44:055,37.859,0.135,0.165,-0.224,0.341,-78.779,6.518
16:39:44:056,37.860,0.126,0.130,-0.317,1.456,-78.756,6.348
16:39:44:075,37.879,-0.088,0.284,-0.296,2.733,-79.706,6.495
16:39:44:1,37.905,-0.158,0.188,-0.110,3.392,-81.396,6.932
16:39:44:127,37.932,-0.119,0.132,-0.173,4.239,-84.114,8.260
16:39:44:181,37.985,-0.138,0.245,0.081,4.874,-87.391,9.394
16:39:44:213,38.017,0.017,0.129,0.071,6.081,-92.846,11.307
16:39:44:213,38.017,-0.152,-0.117,0.310,7.559,-99.059,12.946
16:39:44:214,38.018,-0.025,-0.125,0.038,8.224,-101.196,14.302
16:39:44:288,38.092,-0.028,-0.031,-0.007,8.618,-103.250,16.117
16:39:44:289,38.093,-0.004,-0.055,0.083,8.647,-104.368,16.876
16:39:44:314,38.118,0.090,0.013,0.011,8.613,-106.218,17.489
16:39:44:315,38.119,0.099,0.035,-0.013,8.998,-109.317,17.664
16:39:44:367,38.171,0.082,0.035,0.010,9.533,-111.843,17.627
16:39:44:367,38.171,0.077,0.030,0.046,10.593,-116.181,17.532
16:39:44:419,38.223,0.089,0.031,0.062,11.330,-118.735,17.465
16:39:44:419,38.223,0.047,0.026,0.064,12.481,-122.852,17.377
16:39:44:442,38.246,0.006,0.016,0.095,13.527,-125.699,17.391
16:39:44:499,38.304,-0.011,0.015,0.097,14.118,-127.450,17.526
16:39:44:499,38.304,-0.029,0.002,0.119,14.770,-128.271,17.975
16:39:44:52,38.325,-0.026,-0.008,0.111,15.037,-128.333,18.453
16:39:44:577,38.381,-0.014,-0.014,0.100,14.965,-127.232,18.990
16:39:44:577,38.381,-0.015,-0.015,0.087,14.867,-126.287,19.524
16:39:44:657,38.462,-0.017,-0.019,0.086,14.659,-124.339,20.450
16:39:44:658,38.463,-0.011,-0.015,0.066,14.257,-122.447,21.242
16:39:44:659,38.464,-0.019,-0.017,0.056,13.996,-121.273,21.779
16:39:44:68,38.485,-0.068,-0.027,0.050,13.654,-120.089,22.397
16:39:44:705,38.510,-0.064,-0.027,0.037,13.425,-119.635,22.657
16:39:44:731,38.535,-0.040,-0.045,0.047,13.023,-119.276,22.825
16:39:44:757,38.561,-0.152,-0.018,-0.083,12.610,-118.872,22.692
16:39:44:783,38.587,-0.255,-0.016,-0.101,12.162,-117.793,22.717
16:39:44:81,38.614,-0.127,0.024,-0.163,11.009,-114.463,22.949
16:39:44:836,38.640,-0.031,-0.007,-0.141,10.286,-112.699,23.086
16:39:44:862,38.666,-0.001,0.007,-0.162,9.777,-110.828,23.082
16:39:44:888,38.692,0.015,-0.020,-0.088,9.727,-110.374,22.908
16:39:44:946,38.751,-0.011,-0.033,-0.048,9.803,-110.169,22.528
16:39:44:946,38.751,0.045,0.011,-0.100,9.661,-109.576,22.211
16:39:45:025,38.830,0.054,0.039,-0.112,9.527,-108.915,22.070
16:39:45:025,38.830,0.070,0.025,-0.105,9.524,-108.241,21.848
16:39:45:026,38.831,0.061,0.007,-0.083,9.697,-108.142,21.683
16:39:45:104,38.908,0.058,-0.005,-0.065,10.062,-108.412,21.403
16:39:45:104,38.908,0.031,-0.002,-0.049,10.564,-109.226,21.041
16:39:45:105,38.909,0.014,-0.043,0.005,10.970,-110.099,20.718
16:39:45:124,38.928,-0.059,-0.044,0.075,11.340,-111.411,20.197
16:39:45:209,39.013,0.017,0.007,-0.061,11.285,-111.361,20.026
16:39:45:21,39.014,0.041,0.032,-0.124,11.013,-110.818,19.949
16:39:45:211,39.015,0.020,0.031,-0.120,10.838,-110.501,19.926
16:39:45:259,39.063,0.003,0.013,-0.119,10.705,-110.402,19.925
16:39:45:259,39.063,-0.002,0.002,-0.122,10.960,-110.650,20.596
16:39:45:311,39.115,-0.023,0.004,-0.114,11.212,-111.037,21.025
16:39:45:311,39.116,-0.031,-0.012,-0.090,11.303,-111.871,21.107
16:39:45:334,39.139,-0.016,-0.019,-0.109,11.383,-112.512,21.162
16:39:45:389,39.194,-0.018,0.009,-0.122,11.665,-113.719,21.365
16:39:45:39,39.195,-0.063,0.038,-0.118,11.980,-115.689,21.309
16:39:45:414,39.219,0.000,0.037,-0.128,12.293,-117.143,21.288
16:39:45:468,39.272,-0.019,0.080,-0.140,12.932,-119.894,21.280
16:39:45:469,39.273,-0.033,0.084,-0.106,13.576,-122.119,21.308
16:39:45:492,39.296,-0.013,0.066,-0.058,14.914,-126.059,21.411
16:39:45:548,39.352,-0.079,-0.007,-0.010,16.387,-129.566,21.571
16:39:45:548,39.352,-0.107,-0.001,0.030,17.121,-131.414,21.779
16:39:45:6,39.404,-0.046,-0.006,0.012,17.808,-132.734,22.344
16:39:45:601,39.405,-0.071,-0.037,0.054,18.102,-133.396,22.794
16:39:45:624,39.428,0.013,-0.035,0.049,18.163,-133.132,23.678
16:39:45:65,39.454,0.053,-0.040,0.073,18.112,-132.578,24.353
16:39:45:676,39.480,0.033,-0.055,0.068,18.083,-131.742,25.276
16:39:45:701,39.506,-0.002,-0.070,0.059,17.923,-130.764,26.132
16:39:45:728,39.533,-0.014,-0.065,0.064,17.773,-130.018,26.679
16:39:45:754,39.559,0.066,-0.042,0.036,17.214,-128.572,27.546
16:39:45:78,39.585,0.034,-0.061,0.032,16.791,-127.745,27.957
16:39:45:836,39.641,0.087,-0.041,0.013,16.150,-126.764,28.370
16:39:45:837,39.641,0.025,-0.056,0.031,15.914,-126.443,28.554
16:39:45:859,39.663,0.015,-0.017,0.018,15.697,-126.282,28.564
16:39:45:886,39.690,-0.018,-0.014,-0.006,15.515,-126.047,28.474
16:39:45:912,39.716,-0.007,0.005,-0.066,15.298,-125.618,28.401
16:39:45:939,39.743,-0.037,0.021,-0.058,15.066,-124.866,28.238
16:39:45:965,39.769,-0.030,0.004,-0.042,15.107,-124.171,28.022
16:39:45:991,39.795,-0.046,-0.006,-0.049,15.352,-123.623,27.933
16:39:46:044,39.848,0.008,0.013,-0.046,15.681,-122.598,27.856
16:39:46:072,39.877,0.026,0.013,-0.031,15.830,-121.953,27.769
16:39:46:072,39.877,0.100,0.033,-0.052,16.099,-121.032,27.624
16:39:46:095,39.900,0.082,0.012,-0.041,16.357,-120.711,27.479
16:39:46:121,39.926,0.114,-0.001,-0.047,16.800,-120.615,27.251
16:39:46:149,39.954,0.074,-0.021,-0.015,17.090,-121.306,27.225
16:39:46:175,39.980,-0.018,-0.039,0.020,17.524,-122.121,26.799
16:39:46:2,40.005,-0.026,-0.039,-0.023,17.849,-123.113,26.225
16:39:46:227,40.031,-0.054,-0.027,0.001,17.843,-123.481,25.898
16:39:46:253,40.057,-0.054,0.007,-0.041,17.578,-123.459,25.642
16:39:46:281,40.085,-0.091,0.015,-0.049,17.191,-122.924,25.565
16:39:46:306,40.110,-0.105,0.013,-0.038,16.921,-122.458,25.532
16:39:46:332,40.136,-0.109,0.007,-0.045,16.568,-121.523,25.531
16:39:46:359,40.163,-0.101,-0.009,-0.032,16.586,-120.814,25.515
16:39:46:385,40.189,-0.077,-0.015,-0.028,16.812,-119.602,25.503
16:39:46:413,40.217,-0.036,-0.018,-0.025,16.426,-118.487,25.667
16:39:46:525,40.330,-0.017,-0.022,-0.029,16.182,-117.648,25.770
16:39:46:526,40.331,-0.012,-0.026,-0.010,15.919,-116.646,25.839
16:39:46:526,40.331,-0.013,-0.024,0.008,15.753,-116.104,25.824
16:39:46:527,40.332,0.003,-0.026,0.025,15.464,-115.405,25.693
16:39:46:542,40.347,-0.008,-0.016,0.030,15.179,-114.910,25.540
16:39:46:597,40.401,0.002,0.000,0.010,14.676,-114.018,25.229
16:39:46:598,40.402,-0.014,0.007,-0.007,14.081,-113.019,24.856
16:39:46:627,40.431,-0.009,0.015,-0.006,13.634,-112.238,24.599
16:39:46:627,40.431,0.031,0.050,-0.103,13.126,-111.297,24.134
16:39:46:679,40.483,0.001,-0.021,0.002,13.131,-111.483,23.608
16:39:46:679,40.483,0.002,-0.011,-0.012,13.319,-112.500,22.618
16:39:46:699,40.504,-0.037,0.009,0.008,13.588,-114.033,21.465
16:39:46:725,40.530,-0.045,-0.004,0.006,13.759,-115.072,20.684
16:39:46:751,40.556,-0.024,0.006,-0.013,13.799,-116.041,19.638
16:39:46:778,40.583,-0.015,0.016,-0.031,13.685,-116.207,19.049
16:39:46:804,40.609,-0.017,0.020,-0.051,13.551,-116.036,18.404
16:39:46:859,40.663,-0.008,0.030,-0.077,13.498,-115.643,18.176
16:39:46:86,40.664,0.014,0.023,-0.084,13.349,-115.289,17.754
16:39:46:883,40.687,0.006,0.017,-0.078,13.343,-115.067,17.582
16:39:46:938,40.743,0.008,0.018,-0.081,13.439,-114.897,17.730
16:39:46:939,40.744,0.005,0.012,-0.070,13.616,-114.736,17.970
16:39:47:022,40.826,0.010,0.002,-0.060,13.702,-114.690,18.083
16:39:47:022,40.826,0.006,-0.004,-0.055,13.862,-114.713,18.237
16:39:47:022,40.826,0.008,-0.008,-0.046,14.015,-114.816,18.337
16:39:47:128,40.933,0.012,-0.007,-0.033,14.322,-115.190,18.431
16:39:47:129,40.934,0.014,-0.016,-0.020,14.460,-115.437,18.440
16:39:47:129,40.934,0.008,-0.015,-0.011,14.681,-115.946,18.420
16:39:47:204,41.009,0.012,-0.017,-0.001,14.826,-116.368,18.402
16:39:47:205,41.010,0.006,-0.017,-0.005,15.013,-116.944,18.383
16:39:47:205,41.010,0.009,-0.017,0.002,15.185,-117.572,18.372
16:39:47:225,41.030,0.003,-0.014,0.005,15.279,-117.919,18.373
16:39:47:279,41.083,0.009,-0.023,0.001,15.391,-118.368,18.385
16:39:47:28,41.084,0.000,-0.014,0.003,15.451,-118.652,18.403
16:39:47:303,41.107,0.011,-0.007,0.012,15.526,-119.353,18.464
16:39:47:359,41.163,0.007,-0.010,0.012,15.564,-119.647,18.532
16:39:47:359,41.163,0.011,-0.018,0.016,15.586,-119.821,18.579
16:39:47:382,41.186,-0.004,-0.020,0.010,15.615,-120.039,18.670
16:39:47:409,41.213,0.001,-0.012,0.025,15.632,-120.185,18.736
16:39:47:465,41.269,-0.001,-0.007,0.027,15.633,-120.375,18.828
16:39:47:465,41.269,0.012,-0.005,0.038,15.559,-120.425,18.902
16:39:47:486,41.291,0.010,0.009,0.034,15.459,-120.563,18.948
16:39:47:542,41.347,0.005,-0.001,0.024,15.280,-120.568,18.961
16:39:47:543,41.348,-0.029,-0.010,0.019,15.163,-120.735,18.909
16:39:47:654,41.458,-0.047,-0.001,-0.009,14.979,-120.880,18.789
16:39:47:654,41.458,-0.050,0.003,-0.020,14.848,-120.941,18.701
16:39:47:655,41.459,-0.021,0.006,-0.032,14.682,-120.913,18.560
16:39:47:655,41.459,-0.016,0.007,-0.033,14.574,-120.960,18.433
16:39:47:671,41.475,-0.004,0.008,-0.031,14.572,-121.040,18.406
16:39:47:726,41.530,0.011,0.009,-0.030,14.573,-121.102,18.442
16:39:47:727,41.531,0.008,0.024,-0.029,14.571,-121.166,18.528
16:39:47:81,41.614,0.031,0.038,-0.061,14.553,-121.095,18.858
16:39:47:81,41.614,0.021,0.040,-0.076,14.546,-120.913,19.386
16:39:47:81,41.614,0.017,0.042,-0.073,14.569,-120.744,19.893
16:39:47:857,41.662,0.022,0.030,-0.072,14.687,-120.206,21.036
16:39:47:858,41.663,0.015,0.017,-0.042,14.808,-119.845,21.939
16:39:47:88,41.685,0.010,0.005,-0.032,14.954,-119.057,23.322
16:39:47:936,41.741,0.023,-0.007,-0.012,15.021,-118.436,24.290
16:39:47:937,41.742,0.014,-0.013,-0.003,15.106,-117.467,25.714
16:39:47:959,41.764,0.010,-0.020,0.013,15.217,-116.612,27.069
16:39:47:985,41.790,-0.004,-0.024,0.025,15.309,-116.196,27.887
16:39:48:012,41.816,-0.007,-0.031,0.049,15.432,-115.773,28.916
16:39:48:039,41.843,-0.012,-0.039,0.061,15.491,-115.604,29.424
16:39:48:095,41.899,-0.016,-0.049,0.088,15.534,-115.574,29.829
16:39:48:095,41.899,-0.029,-0.049,0.086,15.514,-115.666,29.880
16:39:48:117,41.921,-0.027,-0.052,0.092,15.455,-116.031,29.730
16:39:48:143,41.947,-0.039,-0.054,0.080,15.347,-116.361,29.322
16:39:48:17,41.975,-0.049,-0.048,0.078,15.285,-116.665,28.929
16:39:48:195,42.000,-0.046,-0.041,0.070,15.171,-117.147,28.189
16:39:48:222,42.027,-0.038,-0.037,0.069,15.068,-117.448,27.647
16:39:48:248,42.053,-0.037,-0.025,0.064,14.866,-117.869,26.729
16:39:48:304,42.108,-0.029,-0.021,0.049,14.646,-118.228,25.730
16:39:48:304,42.108,-0.038,-0.025,0.040,14.512,-118.333,25.011
16:39:48:327,42.131,-0.015,-0.015,0.028,14.277,-118.674,23.867
16:39:48:353,42.157,-0.009,-0.003,0.006,14.058,-119.133,22.641
16:39:48:38,42.184,-0.020,0.002,-0.001,13.977,-119.562,21.721
16:39:48:464,42.269,-0.026,0.016,-0.002,13.905,-120.333,20.226
16:39:48:465,42.270,-0.014,0.027,-0.032,13.815,-120.781,19.180
16:39:48:465,42.270,-0.015,0.018,-0.044,13.617,-121.102,17.652
16:39:48:515,42.319,0.006,-0.015,-0.058,13.463,-121.224,16.733
16:39:48:515,42.319,0.010,-0.026,-0.069,13.119,-121.127,15.500
16:39:48:537,42.341,0.041,-0.011,-0.103,12.767,-120.751,14.683
16:39:48:591,42.396,0.065,0.000,-0.111,12.510,-120.121,14.145
16:39:48:618,42.423,0.081,0.027,-0.151,12.110,-119.746,13.394
16:39:48:619,42.424,0.084,0.043,-0.173,11.861,-119.470,12.873
16:39:48:643,42.447,0.062,0.043,-0.159,11.562,-119.494,11.964
16:39:48:73,42.534,0.068,0.034,-0.174,11.523,-119.269,12.023
16:39:48:731,42.535,0.054,0.035,-0.174,11.543,-119.137,12.138
16:39:48:731,42.535,0.049,0.035,-0.165,11.660,-118.850,12.567
16:39:48:732,42.536,0.067,0.044,-0.197,11.818,-118.729,13.086
16:39:48:774,42.578,0.036,0.027,-0.097,12.240,-119.343,13.911
16:39:48:799,42.603,-0.008,-0.002,-0.033,12.726,-120.962,14.112
16:39:48:914,42.718,-0.032,-0.021,0.009,13.122,-122.024,14.354
16:39:48:915,42.719,-0.040,-0.026,0.010,13.663,-123.353,14.903
16:39:48:916,42.720,0.006,-0.007,-0.011,13.925,-123.597,15.392
16:39:48:916,42.720,0.001,-0.011,0.005,14.207,-123.754,16.207
16:39:48:991,42.796,0.030,0.004,-0.013,14.328,-123.483,16.745
16:39:48:992,42.797,0.030,0.011,0.006,14.506,-123.150,17.513
16:39:48:993,42.798,0.034,0.005,0.018,14.756,-122.796,18.186
16:39:48:994,42.799,0.016,-0.002,0.024,14.945,-122.769,18.567
16:39:49:065,42.870,0.003,-0.012,0.045,15.249,-122.840,19.033
16:39:49:066,42.871,-0.006,-0.020,0.055,15.487,-122.953,19.387
16:39:49:091,42.896,0.000,-0.017,0.064,15.693,-123.025,19.771
16:39:49:092,42.897,0.001,-0.018,0.064,15.769,-123.090,20.050
16:39:49:144,42.948,0.002,-0.018,0.073,15.773,-123.180,20.172
16:39:49:145,42.949,-0.012,-0.024,0.068,15.784,-123.363,20.271
16:39:49:167,42.971,-0.011,-0.034,0.066,15.769,-123.496,20.253
16:39:49:193,42.997,-0.013,-0.035,0.060,15.730,-123.766,20.160
16:39:49:219,43.023,-0.011,-0.039,0.053,15.673,-123.905,20.005
16:39:49:246,43.050,-0.011,-0.036,0.047,15.628,-124.099,19.874
16:39:49:274,43.078,-0.004,-0.037,0.045,15.547,-124.215,19.617
16:39:49:299,43.103,-0.003,-0.032,0.042,15.497,-124.263,19.402
16:39:49:325,43.130,0.006,-0.032,0.032,15.376,-124.276,19.055
16:39:49:35,43.155,0.018,-0.032,0.021,15.289,-124.310,18.801
16:39:49:376,43.181,0.020,-0.027,0.009,15.130,-124.283,18.379
16:39:49:403,43.208,0.035,-0.024,0.008,14.907,-124.303,17.901
16:39:49:514,43.319,0.030,-0.027,-0.010,14.722,-124.344,17.551
16:39:49:515,43.320,0.029,-0.025,-0.016,14.436,-124.421,17.006
16:39:49:516,43.321,0.029,-0.022,-0.024,14.239,-124.473,16.654
16:39:49:537,43.342,0.037,-0.022,-0.033,13.928,-124.523,16.196
16:39:49:538,43.343,0.027,-0.020,-0.048,13.733,-124.492,15.950
16:39:49:591,43.396,0.040,-0.015,-0.045,13.466,-124.347,15.694
16:39:49:591,43.396,0.036,-0.008,-0.049,13.219,-124.074,15.573
16:39:49:643,43.447,0.045,0.005,-0.046,13.046,-123.813,15.555
16:39:49:643,43.447,0.035,0.019,-0.045,12.811,-123.332,15.631
16:39:49:666,43.470,0.031,0.021,-0.038,12.676,-122.945,15.729
16:39:49:721,43.525,0.029,0.020,-0.038,12.491,-122.225,15.961
16:39:49:722,43.526,0.025,0.021,-0.040,12.358,-121.552,16.290
16:39:49:745,43.549,0.006,0.025,-0.019,12.337,-121.366,16.476
16:39:49:771,43.575,-0.056,0.008,0.034,12.380,-121.114,16.665
16:39:49:797,43.601,-0.074,0.016,0.018,12.376,-120.885,16.840
16:39:49:823,43.627,-0.098,0.033,0.007,12.239,-120.069,17.130
16:39:49:879,43.684,-0.162,0.019,0.036,12.046,-119.447,17.269
16:39:49:879,43.684,-0.213,0.008,0.028,11.934,-118.967,17.294
16:39:49:902,43.707,-0.250,-0.008,0.031,11.785,-118.170,17.255
16:39:49:954,43.759,-0.196,0.004,0.006,11.675,-117.456,17.221
16:39:49:985,43.790,-0.125,0.009,-0.033,11.561,-116.426,17.177
16:39:49:985,43.790,-0.076,0.025,-0.049,11.586,-116.045,17.124
16:39:50:06,43.864,-0.050,0.021,-0.053,11.727,-115.818,17.022
16:39:50:093,43.897,0.002,0.004,-0.061,11.901,-115.780,16.898
16:39:50:093,43.897,0.002,-0.017,-0.052,12.013,-115.861,16.795
16:39:50:093,43.897,-0.005,-0.023,-0.049,12.153,-116.066,16.607
16:39:50:113,43.917,-0.006,-0.027,-0.045,12.292,-116.297,16.591
16:39:50:168,43.972,-0.017,-0.018,-0.038,12.463,-116.658,16.509
16:39:50:168,43.972,-0.026,-0.014,-0.029,12.629,-117.364,16.344
16:39:50:191,43.995,-0.038,-0.015,-0.018,12.754,-117.949,16.196
16:39:50:246,44.051,-0.059,-0.024,-0.006,12.896,-119.058,15.955
16:39:50:247,44.052,-0.092,-0.023,0.012,13.012,-119.810,15.791
16:39:50:269,44.074,-0.100,-0.009,0.014,13.190,-120.961,15.595
16:39:50:295,44.100,-0.096,0.016,0.001,13.307,-121.472,15.518
16:39:50:322,44.127,-0.079,0.016,0.009,13.880,-122.093,15.194
16:39:50:348,44.153,-0.058,0.012,0.009,14.294,-122.283,15.101
16:39:50:569,44.373,-0.025,0.001,0.004,14.450,-122.118,15.286
16:39:50:57,44.374,-0.007,0.000,-0.009,14.623,-121.599,15.816
16:39:50:57,44.374,0.017,0.001,-0.006,14.745,-121.160,16.293
16:39:50:57,44.374,0.015,0.001,0.011,14.931,-120.581,17.060
16:39:50:594,44.399,-0.001,-0.011,0.021,15.127,-120.130,17.796
16:39:50:594,44.399,-0.012,-0.011,0.021,15.265,-119.879,18.243
16:39:50:595,44.400,-0.026,-0.018,0.042,15.457,-119.611,18.778
16:39:50:595,44.400,-0.029,-0.029,0.036,15.561,-119.454,19.069
16:39:50:611,44.416,-0.031,-0.039,0.043,15.696,-119.297,19.386
16:39:50:639,44.444,-0.037,-0.040,0.044,15.772,-119.248,19.515
16:39:50:64,44.445,-0.037,-0.037,0.050,15.854,-119.287,19.574
16:39:50:663,44.468,-0.042,-0.033,0.047,15.907,-119.427,19.452
16:39:50:69,44.495,-0.043,-0.031,0.038,15.919,-119.502,19.306
16:39:50:716,44.521,-0.031,-0.022,0.026,15.900,-119.522,19.093
16:39:50:742,44.547,-0.010,-0.029,0.000,15.830,-119.492,18.963
16:39:50:827,44.631,-0.009,-0.035,-0.002,15.715,-119.511,18.758
16:39:50:827,44.631,-0.012,-0.046,-0.002,15.603,-119.768,18.465
16:39:50:828,44.632,-0.009,-0.046,0.003,15.529,-120.021,18.220
16:39:50:847,44.651,-0.004,-0.037,-0.009,15.369,-120.394,17.801
16:39:50:932,44.736,0.009,-0.018,-0.016,15.238,-120.619,17.487
16:39:50:932,44.736,0.011,0.001,-0.025,15.021,-120.934,16.983
16:39:50:933,44.737,0.017,0.010,-0.029,14.788,-121.267,16.461
16:39:50:952,44.756,0.017,0.008,-0.032,14.640,-121.482,16.138
16:39:51:007,44.812,0.037,-0.006,-0.030,14.405,-121.718,15.747
16:39:51:007,44.812,0.032,-0.017,-0.039,14.233,-121.805,15.595
16:39:51:03,44.835,0.044,-0.021,-0.031,13.983,-121.857,15.565
16:39:51:09,44.894,0.038,-0.026,-0.036,13.810,-121.873,15.644
16:39:51:09,44.894,0.044,-0.039,-0.033,13.520,-121.843,15.901
16:39:51:091,44.895,0.037,-0.060,-0.035,13.181,-121.824,16.183
16:39:51:139,44.943,0.044,-0.073,-0.028,12.918,-121.857,16.335
16:39:51:139,44.943,0.048,-0.034,-0.028,12.394,-121.985,16.578
16:39:51:193,44.997,0.049,-0.013,-0.058,12.010,-122.202,16.583
16:39:51:193,44.997,0.023,0.013,-0.084,11.478,-123.027,16.369
16:39:51:215,45.019,0.024,0.044,-0.073,11.102,-124.501,15.883
16:39:51:241,45.045,0.029,0.055,-0.076,10.946,-125.727,15.431
16:39:51:296,45.100,0.048,0.049,-0.070,10.898,-127.561,14.688
16:39:51:297,45.101,0.048,0.018,-0.055,10.963,-128.671,14.413
16:39:51:319,45.124,0.081,0.012,-0.066,11.060,-129.781,13.982
16:39:51:345,45.149,0.247,-0.061,-0.012,11.070,-130.381,13.946
16:39:51:402,45.206,0.239,0.107,-0.219,10.873,-132.116,14.256
16:39:51:402,45.206,-0.040,0.066,-0.006,11.237,-136.726,14.882
16:39:51:424,45.228,-0.001,0.020,0.075,11.727,-139.620,15.640
16:39:51:45,45.255,0.122,0.040,0.036,12.460,-142.752,17.022
16:39:51:476,45.281,-0.039,-0.026,0.080,12.925,-144.434,17.888
16:39:51:532,45.337,-0.063,-0.058,0.082,13.392,-145.935,19.048
16:39:51:533,45.338,-0.041,-0.069,0.042,13.527,-145.939,19.997
16:39:51:555,45.359,0.004,-0.084,0.068,13.448,-145.295,20.430
16:39:51:582,45.386,0.099,-0.037,0.034,13.157,-143.917,20.703
16:39:51:608,45.412,0.054,-0.017,0.024,13.024,-143.241,20.582
16:39:51:664,45.468,0.002,0.005,0.007,12.944,-142.629,20.165
16:39:51:664,45.468,-0.013,0.033,-0.014,12.968,-142.224,19.802
16:39:51:688,45.492,-0.099,0.069,-0.017,13.182,-141.364,19.228
16:39:51:713,45.517,-0.254,0.045,0.106,13.725,-139.086,18.735
16:39:51:743,45.547,-0.156,-0.034,0.269,13.859,-135.767,18.539
16:39:51:765,45.570,0.291,-0.059,0.213,12.962,-126.817,18.578
16:39:51:792,45.597,0.315,-0.014,-0.023,11.806,-119.659,18.634
16:39:51:818,45.623,0.175,0.050,-0.186,9.716,-109.563,18.764
16:39:51:844,45.649,0.047,0.109,-0.212,7.702,-101.497,19.015
16:39:51:9,45.705,0.031,0.110,-0.287,6.644,-97.660,19.237
16:39:51:9,45.705,-0.001,0.078,-0.266,5.928,-95.478,19.600
16:39:51:982,45.786,0.013,0.028,-0.149,6.074,-96.372,19.918
16:39:51:982,45.786,0.024,0.008,-0.097,7.054,-100.141,20.478
16:39:51:983,45.787,0.017,-0.018,-0.005,8.058,-103.637,20.839
16:39:52:002,45.806,0.002,-0.028,0.043,9.753,-109.145,21.249
16:39:52:058,45.862,-0.049,-0.048,0.107,11.385,-113.908,21.412
16:39:52:058,45.862,-0.074,-0.038,0.131,12.271,-116.265,21.399
16:39:52:082,45.886,-0.071,-0.028,0.136,13.101,-118.126,21.259
16:39:52:108,45.912,-0.044,-0.020,0.119,13.295,-118.234,21.115
16:39:52:133,45.938,0.005,-0.024,0.063,13.198,-117.155,20.865
16:39:52:159,45.964,0.009,-0.027,0.016,12.822,-115.432,20.621
16:39:52:185,45.990,0.001,-0.025,-0.016,12.514,-114.316,20.493
16:39:52:211,46.016,-0.016,0.000,-0.035,12.145,-113.192,20.382
16:39:52:238,46.043,-0.032,0.017,-0.006,12.039,-112.977,20.366
16:39:52:264,46.069,-0.038,0.029,0.007,12.067,-113.416,20.408
16:39:52:29,46.094,-0.051,0.036,0.036,12.214,-114.016,20.466
16:39:52:346,46.150,-0.064,0.036,0.047,12.532,-115.120,20.546
16:39:52:347,46.151,-0.073,0.010,0.056,12.867,-116.065,20.592
16:39:52:399,46.203,-0.079,-0.022,0.052,13.049,-116.488,20.596
16:39:52:399,46.203,-0.075,-0.039,0.029,13.244,-116.768,20.562
16:39:52:422,46.226,-0.058,-0.050,0.023,13.354,-116.819,20.486
16:39:52:448,46.252,-0.058,-0.052,0.015,13.569,-116.886,20.289
16:39:52:475,46.279,-0.020,-0.046,0.009,13.873,-117.000,19.896
16:39:52:501,46.305,-0.023,-0.036,0.017,14.090,-117.192,19.540
16:39:52:526,46.331,0.003,-0.036,0.009,14.380,-117.454,18.894
16:39:52:583,46.387,0.009,-0.035,0.001,14.563,-117.600,18.406
16:39:52:583,46.387,0.039,-0.016,0.004,14.795,-117.775,17.636
16:39:52:606,46.410,0.051,-0.012,-0.017,14.895,-117.764,17.154
16:39:52:634,46.438,0.071,-0.014,-0.018,14.970,-117.571,16.554
16:39:52:658,46.462,0.071,-0.007,-0.027,14.960,-117.282,16.153
16:39:52:686,46.490,0.085,-0.010,-0.027,14.904,-117.008,16.025
16:39:52:711,46.515,0.081,-0.013,-0.028,14.767,-116.440,16.027
16:39:52:736,46.541,0.082,-0.014,-0.019,14.639,-116.006,16.161
16:39:52:763,46.568,0.079,-0.008,-0.012,14.396,-115.260,16.528
16:39:52:818,46.623,0.078,-0.012,-0.002,14.070,-114.391,17.028
16:39:52:819,46.624,0.071,-0.011,0.002,13.765,-113.760,17.425
16:39:52:871,46.675,0.065,-0.010,0.008,13.184,-112.839,18.039
16:39:52:872,46.676,0.047,-0.009,0.003,12.749,-112.388,18.433
16:39:52:952,46.757,0.023,-0.020,-0.008,12.102,-111.921,18.984
16:39:52:953,46.758,0.029,-0.025,0.009,11.621,-111.844,19.302
16:39:52:954,46.759,0.025,-0.006,-0.033,10.863,-112.007,19.703
16:39:52:973,46.778,-0.126,0.009,0.001,10.271,-113.082,19.887
16:39:53:056,46.861,-0.563,-0.087,0.117,9.849,-114.009,19.940
16:39:53:056,46.861,-0.468,0.024,-0.133,8.838,-114.348,19.945
16:39:53:081,46.886,-0.517,-0.070,0.130,8.353,-114.864,19.864
16:39:53:081,46.886,-0.384,-0.035,-0.001,8.175,-114.977,19.671
16:39:53:134,46.938,-0.279,0.040,-0.049,8.375,-114.853,19.376
16:39:53:134,46.938,-0.229,0.054,-0.044,8.489,-115.158,19.160
16:39:53:157,46.961,-0.094,0.059,-0.070,8.758,-115.336,19.002
16:39:53:213,47.017,-0.001,0.035,-0.074,8.992,-115.787,19.014
16:39:53:213,47.017,-0.013,0.004,-0.050,9.416,-116.298,19.118
16:39:53:236,47.040,-0.046,-0.042,-0.006,9.912,-116.980,19.306
16:39:53:263,47.067,-0.059,-0.057,0.018,10.237,-117.146,19.468
16:39:53:318,47.122,-0.029,-0.025,0.038,10.578,-117.252,19.819
16:39:53:318,47.122,-0.029,-0.002,0.033,10.701,-116.972,20.100
16:39:53:341,47.146,-0.026,-0.004,0.031,10.781,-116.693,20.535
16:39:53:399,47.204,-0.034,-0.022,0.016,10.786,-116.580,20.804
16:39:53:399,47.204,-0.052,-0.047,0.017,10.803,-116.802,21.174
16:39:53:449,47.254,-0.088,-0.024,0.014,10.823,-117.909,21.573
16:39:53:45,47.255,-0.108,-0.020,0.024,10.970,-118.894,21.555
16:39:53:472,47.277,-0.119,-0.033,0.041,11.247,-119.495,21.336
16:39:53:639,47.443,-0.126,-0.026,0.031,11.329,-119.989,21.214
16:39:53:64,47.444,-0.078,-0.011,0.012,11.440,-119.743,21.078
16:39:53:641,47.445,-0.074,-0.002,0.018,11.407,-119.520,21.110
16:39:53:641,47.445,-0.053,0.018,0.010,11.419,-119.282,21.112
16:39:53:66,47.464,-0.056,0.017,0.026,11.432,-119.272,21.130
16:39:53:661,47.465,-0.045,0.004,0.029,11.530,-119.441,21.006
16:39:53:685,47.489,-0.046,-0.012,0.021,11.608,-119.670,20.850
16:39:53:71,47.515,-0.045,-0.020,0.015,11.695,-119.915,20.578
16:39:53:711,47.516,-0.035,-0.028,0.008,11.743,-120.198,20.303
16:39:53:734,47.539,-0.027,-0.028,0.004,11.736,-120.357,20.135
16:39:53:76,47.565,-0.021,-0.020,0.001,11.705,-120.613,19.897
16:39:53:845,47.650,-0.014,-0.014,0.006,11.655,-120.787,19.750
16:39:53:846,47.651,-0.009,-0.016,0.004,11.524,-121.054,19.539
16:39:53:847,47.652,-0.003,-0.026,-0.004,11.319,-121.279,19.351
16:39:53:925,47.729,0.004,-0.031,-0.009,11.140,-121.477,19.225
16:39:53:925,47.729,0.001,-0.025,-0.020,10.831,-121.887,19.036
16:39:53:926,47.730,0.002,-0.015,-0.029,10.635,-122.296,18.893
16:39:53:945,47.749,-0.014,0.001,-0.036,10.408,-123.158,18.645
16:39:54:003,47.807,-0.015,0.009,-0.034,10.331,-123.850,18.438
16:39:54:003,47.807,-0.014,0.008,-0.038,10.291,-124.918,18.056
16:39:54:023,47.827,0.005,0.005,-0.034,10.353,-125.839,17.637
16:39:54:05,47.854,0.004,0.007,-0.043,10.446,-126.320,17.372
16:39:54:075,47.880,0.015,0.013,-0.041,10.684,-126.806,17.025
16:39:54:101,47.906,0.038,0.037,-0.035,10.881,-126.966,16.832
16:39:54:128,47.933,0.116,0.054,-0.035,11.209,-126.971,16.501
16:39:54:154,47.959,0.092,0.072,-0.044,11.605,-127.089,16.256
16:39:54:181,47.985,0.074,0.034,0.001,11.923,-127.317,16.183
16:39:54:209,48.013,0.089,0.005,0.016,12.358,-127.364,16.361
16:39:54:235,48.039,0.101,-0.002,0.032,12.596,-127.154,16.655
16:39:54:288,48.093,0.083,0.006,0.038,12.673,-126.549,17.341
16:39:54:289,48.094,0.073,0.014,0.033,12.329,-125.735,18.147
16:39:54:37,48.175,0.066,0.016,0.027,12.113,-125.154,18.634
16:39:54:371,48.176,0.051,0.016,0.034,11.796,-124.372,19.181
16:39:54:372,48.177,0.031,0.012,0.038,11.607,-123.934,19.406
16:39:54:393,48.198,0.029,-0.007,0.036,11.284,-123.308,19.603
16:39:54:446,48.250,0.010,-0.019,0.018,11.043,-122.884,19.695
16:39:54:447,48.251,-0.008,-0.036,-0.001,10.667,-122.329,19.845
16:39:54:47,48.274,-0.029,-0.039,-0.012,10.273,-122.042,20.056
16:39:54:526,48.330,-0.043,-0.043,-0.013,10.044,-122.026,20.221
16:39:54:526,48.330,-0.064,-0.032,-0.008,9.965,-122.235,20.418
16:39:54:577,48.381,-0.084,-0.032,-0.001,10.011,-122.473,20.500
16:39:54:578,48.382,-0.094,-0.029,0.000,10.263,-122.832,20.475
16:39:54:602,48.406,-0.101,-0.043,0.028,10.555,-123.021,20.298
16:39:54:627,48.431,-0.113,-0.055,0.069,10.427,-122.898,20.332
16:39:54:653,48.458,-0.059,-0.010,-0.035,10.270,-122.524,20.380
16:39:54:708,48.513,-0.087,0.007,-0.041,10.230,-122.275,20.401
16:39:54:709,48.514,-0.131,0.000,-0.031,10.200,-121.789,20.319
16:39:54:79,48.594,-0.121,-0.005,-0.039,10.185,-121.391,20.250
16:39:54:791,48.595,-0.112,0.009,-0.069,10.150,-120.742,20.175
16:39:54:792,48.596,-0.096,0.022,-0.052,10.195,-120.211,20.111
16:39:54:811,48.615,-0.088,0.020,-0.051,10.485,-119.912,20.072
16:39:54:89,48.694,-0.065,0.021,-0.033,11.166,-119.554,20.012
16:39:54:978,48.782,-0.056,0.025,-0.019,11.518,-119.349,19.955
16:39:54:978,48.782,-0.037,0.015,-0.007,11.927,-119.056,19.852
16:39:55:,48.804,-0.016,-0.006,0.018,12.705,-118.429,19.666
16:39:55:,48.804,-0.012,-0.014,0.031,12.886,-118.324,19.640
16:39:55:051,48.856,-0.020,-0.012,0.025,13.139,-118.130,19.631
16:39:55:051,48.856,-0.019,-0.008,0.031,13.385,-117.855,19.623
16:39:55:073,48.878,-0.019,-0.010,0.024,13.519,-117.627,19.611
16:39:55:128,48.933,-0.009,-0.014,0.025,13.685,-117.286,19.589
16:39:55:129,48.934,-0.012,-0.017,0.022,13.784,-117.098,19.556
16:39:55:152,48.957,-0.006,-0.021,0.021,13.901,-116.903,19.468
16:39:55:235,49.039,-0.010,-0.022,0.016,13.968,-116.825,19.387
16:39:55:235,49.039,-0.008,-0.020,0.013,14.046,-116.777,19.214
16:39:55:26,49.064,-0.010,-0.016,0.005,14.099,-116.773,18.988
16:39:55:261,49.065,-0.002,-0.017,0.004,14.132,-116.789,18.821
16:39:55:422,49.226,-0.003,-0.013,-0.005,14.148,-116.841,18.565
16:39:55:422,49.226,-0.003,-0.009,-0.011,14.160,-116.899,18.392
16:39:55:423,49.227,-0.007,-0.001,-0.012,14.171,-117.030,18.138
16:39:55:468,49.272,-0.007,-0.007,-0.020,14.180,-117.173,17.907
16:39:55:504,49.308,-0.014,0.000,-0.024,14.200,-117.279,17.775
16:39:55:505,49.309,-0.006,0.001,-0.015,14.234,-117.416,17.595
16:39:55:505,49.309,0.001,-0.007,-0.014,14.242,-117.446,17.511
16:39:55:505,49.309,-0.008,-0.008,-0.022,14.266,-117.424,17.419
16:39:55:523,49.327,0.001,-0.006,-0.018,14.294,-117.358,17.379
16:39:55:523,49.327,-0.011,-0.002,-0.024,14.315,-117.310,17.374
16:39:55:578,49.382,-0.006,-0.003,-0.018,14.335,-117.282,17.358
16:39:55:579,49.383,-0.015,0.000,-0.018,14.351,-117.277,17.346
16:39:55:579,49.383,-0.009,-0.003,-0.015,14.391,-117.286,17.339
16:39:55:682,49.487,-0.020,-0.002,-0.023,14.417,-117.281,17.345
16:39:55:683,49.488,-0.014,-0.006,-0.014,14.489,-117.275,17.371
16:39:55:684,49.489,-0.022,-0.008,-0.015,14.594,-117.293,17.410
16:39:55:793,49.598,-0.012,-0.010,-0.009,14.677,-117.304,17.446
16:39:55:793,49.598,-0.010,-0.008,-0.004,14.794,-117.298,17.501
16:39:55:793,49.598,-0.005,-0.009,0.003,14.870,-117.276,17.561
16:39:55:794,49.599,-0.005,-0.010,0.001,14.980,-117.244,17.649
16:39:55:889,49.693,0.001,-0.015,0.010,15.082,-117.238,17.748
16:39:55:949,49.753,-0.003,-0.013,0.008,15.148,-117.268,17.817
16:39:55:95,49.754,0.000,-0.014,0.018,15.229,-117.343,17.912
16:39:55:951,49.755,-0.003,-0.013,0.023,15.281,-117.403,17.960
16:39:55:951,49.755,0.003,-0.013,0.028,15.322,-117.452,18.036
16:39:55:973,49.777,-0.001,-0.016,0.027,15.343,-117.452,18.090
16:39:55:973,49.777,0.007,-0.019,0.027,15.340,-117.405,18.163
16:39:55:973,49.777,-0.003,-0.019,0.026,15.314,-117.361,18.251
16:39:56:021,49.825,0.005,-0.020,0.034,15.277,-117.353,18.284
16:39:56:022,49.826,-0.001,-0.019,0.025,15.190,-117.339,18.313
16:39:56:044,49.849,-0.007,-0.010,0.025,15.129,-117.352,18.298
16:39:56:1,49.905,-0.003,-0.004,0.028,15.023,-117.390,18.231
16:39:56:1,49.905,-0.009,-0.010,0.016,14.888,-117.383,18.118
16:39:56:123,49.928,-0.014,-0.016,0.007,14.798,-117.376,18.035
16:39:56:208,50.012,-0.013,-0.011,0.002,14.664,-117.400,17.917
16:39:56:208,50.012,-0.011,-0.011,-0.002,14.571,-117.442,17.837
16:39:56:318,50.122,-0.017,-0.007,-0.007,14.459,-117.570,17.689
16:39:56:318,50.122,-0.015,-0.005,-0.009,14.402,-117.687,17.578
16:39:56:318,50.122,-0.020,-0.001,-0.017,14.333,-117.853,17.384
16:39:56:319,50.123,-0.017,-0.002,-0.015,14.305,-117.964,17.201
16:39:56:334,50.138,-0.016,-0.001,-0.023,14.295,-118.011,17.101
16:39:56:442,50.247,-0.005,-0.002,-0.023,14.309,-118.067,17.001
16:39:56:442,50.247,-0.006,-0.001,-0.029,14.343,-118.096,16.973
16:39:56:473,50.278,-0.002,-0.002,-0.024,14.397,-118.144,16.972
16:39:56:473,50.278,-0.004,-0.003,-0.026,14.478,-118.182,17.008
16:39:56:474,50.279,0.008,-0.006,-0.021,14.539,-118.191,17.054
16:39:56:475,50.280,0.002,-0.004,-0.021,14.640,-118.178,17.141
16:39:56:49,50.295,0.008,0.000,-0.017,14.709,-118.155,17.219
16:39:56:517,50.322,0.003,-0.001,-0.022,14.828,-118.116,17.359
16:39:56:543,50.348,0.011,-0.004,-0.009,14.916,-118.091,17.466
16:39:56:569,50.374,0.012,0.000,-0.009,15.048,-118.025,17.660
16:39:56:654,50.458,0.009,0.004,-0.010,15.171,-117.965,17.900
16:39:56:655,50.459,0.003,0.004,-0.008,15.259,-117.978,18.057
16:39:56:656,50.460,0.005,-0.011,-0.001,15.390,-118.064,18.266
