Time,Second,AccelerationX,AccelerationY,AccelerationZ,EulerAnglesX,EulerAnglesY,EulerAnglesZ
16:50:30:177,0.000,0.114,0.019,0.016,7.777,-154.906,4.769
16:50:30:177,0.000,0.143,0.025,-0.011,8.359,-155.518,4.323
16:50:30:23,0.053,0.183,0.040,-0.030,8.652,-155.750,4.198
16:50:30:23,0.053,0.194,0.028,-0.027,8.979,-156.134,4.111
16:50:30:253,0.076,0.170,-0.024,-0.045,9.215,-156.729,4.124
16:50:30:279,0.102,0.143,-0.061,-0.050,9.330,-157.324,4.193
16:50:30:306,0.129,0.118,-0.066,-0.043,9.506,-158.604,4.426
16:50:30:334,0.157,0.085,-0.070,-0.040,9.608,-159.609,4.685
16:50:30:359,0.182,0.044,-0.071,-0.043,9.743,-161.192,5.209
16:50:30:385,0.207,-0.024,-0.049,-0.031,9.879,-162.910,5.798
16:50:30:469,0.292,-0.041,-0.037,-0.024,9.996,-163.949,6.190
16:50:30:469,0.292,-0.055,-0.008,0.001,10.168,-165.188,6.704
16:50:30:548,0.371,-0.010,-0.011,0.033,10.407,-165.953,7.415
16:50:30:549,0.372,0.026,-0.003,0.036,10.526,-165.190,8.459
16:50:30:568,0.391,0.043,0.003,0.047,10.531,-164.161,9.341
16:50:30:625,0.448,0.058,0.007,0.035,10.510,-163.336,9.975
16:50:30:625,0.448,0.046,0.009,0.032,10.458,-162.096,10.941
16:50:30:647,0.470,0.033,0.013,0.026,10.423,-161.303,11.577
16:50:30:702,0.524,0.024,0.029,0.017,10.294,-160.143,12.530
16:50:30:703,0.525,0.007,0.042,0.005,10.147,-159.044,13.415
16:50:30:754,0.577,-0.010,0.033,-0.017,10.044,-158.646,13.948
16:50:30:755,0.578,-0.025,0.028,-0.033,9.909,-157.648,14.680
16:50:30:777,0.600,-0.047,0.060,-0.015,9.861,-157.139,15.149
16:50:30:804,0.627,-0.048,0.068,-0.015,9.858,-156.133,15.800
16:50:30:883,0.706,-0.027,0.072,0.002,9.927,-155.119,16.366
16:50:30:945,0.768,-0.027,0.069,-0.016,10.033,-154.463,16.698
16:50:30:946,0.769,-0.136,0.027,-0.055,10.409,-153.897,17.272
16:50:30:947,0.770,-0.165,0.021,-0.031,10.881,-153.795,17.775
16:50:30:994,0.817,-0.150,-0.212,0.026,12.984,-152.756,20.208
16:50:30:995,0.818,-0.254,-0.157,0.049,13.491,-151.474,21.181
16:50:30:996,0.819,-0.103,-0.048,0.023,13.400,-146.936,23.074
16:50:31:044,0.867,0.125,-0.033,-0.029,12.933,-142.879,24.518
16:50:31:044,0.867,0.130,-0.062,-0.009,12.676,-138.073,26.315
16:50:31:067,0.889,0.101,0.052,-0.012,12.828,-135.742,27.357
16:50:31:093,0.915,0.143,0.142,-0.028,13.330,-132.884,28.676
16:50:31:119,0.942,0.100,0.115,0.038,14.175,-130.925,29.569
16:50:31:146,0.969,0.134,0.107,0.022,14.444,-129.562,30.179
16:50:31:172,0.995,0.193,0.016,0.007,14.269,-127.550,31.239
16:50:31:198,1.021,0.129,0.007,-0.045,13.907,-126.409,31.940
16:50:31:224,1.047,0.098,0.029,-0.137,13.238,-124.976,32.886
16:50:31:25,1.073,0.054,0.044,-0.198,13.143,-124.325,33.558
16:50:31:277,1.100,-0.062,-0.019,-0.045,13.686,-124.593,33.710
16:50:31:303,1.126,-0.262,-0.125,0.066,14.885,-125.026,33.745
16:50:31:329,1.152,-0.120,-0.068,0.029,15.411,-124.460,33.857
16:50:31:356,1.179,-0.021,-0.120,0.028,15.564,-122.497,34.237
16:50:31:383,1.206,0.033,-0.117,0.034,15.230,-120.741,34.473
16:50:31:409,1.232,0.045,-0.142,0.016,14.576,-117.786,34.554
16:50:31:435,1.257,0.004,-0.178,-0.053,14.283,-115.414,34.147
16:50:31:461,1.283,-0.025,-0.168,-0.017,14.191,-114.276,33.560
16:50:31:487,1.309,0.016,-0.138,-0.109,13.878,-112.718,32.407
16:50:31:512,1.335,-0.007,-0.052,-0.100,13.538,-111.561,31.421
16:50:31:539,1.362,-0.038,-0.032,-0.075,12.880,-110.292,29.567
16:50:31:595,1.418,0.030,0.106,-0.105,12.046,-108.886,27.591
16:50:31:596,1.419,0.062,0.137,-0.124,11.484,-107.953,26.317
16:50:31:618,1.440,0.034,0.151,-0.124,10.759,-106.791,24.470
16:50:31:674,1.496,-0.019,0.166,-0.134,10.368,-106.245,23.325
16:50:31:674,1.496,-0.086,0.269,-0.302,9.862,-105.386,22.140
16:50:31:78,1.603,-0.101,0.221,-0.255,9.853,-105.164,21.745
16:50:31:78,1.603,-0.090,0.096,-0.177,10.447,-105.886,21.502
16:50:31:935,1.758,-0.145,0.015,-0.030,11.265,-107.735,21.426
16:50:32:013,1.835,-0.090,-0.031,0.051,11.768,-109.059,21.450
16:50:32:068,1.891,-0.101,-0.034,0.052,12.329,-110.826,21.548
16:50:32:069,1.892,-0.025,-0.042,0.040,12.602,-111.815,21.594
16:50:32:102,1.925,-0.026,-0.028,0.014,13.016,-113.347,21.423
16:50:32:102,1.925,-0.051,-0.022,0.050,13.481,-115.004,20.940
16:50:32:103,1.926,0.009,-0.020,0.023,13.704,-115.885,20.576
16:50:32:104,1.927,0.042,-0.009,-0.031,14.154,-117.237,19.880
16:50:32:127,1.950,-0.008,0.000,-0.028,14.675,-118.677,19.108
16:50:32:128,1.951,-0.063,-0.018,0.039,15.468,-121.242,17.784
16:50:32:129,1.952,-0.046,-0.008,0.051,15.989,-123.530,16.627
16:50:32:129,1.952,-0.031,0.008,0.048,16.142,-124.132,16.087
16:50:32:152,1.975,0.000,0.037,0.010,16.155,-124.303,15.626
16:50:32:153,1.976,0.019,0.029,-0.006,16.127,-124.154,15.493
16:50:32:154,1.977,0.030,0.022,-0.012,16.079,-124.106,15.488
16:50:32:154,1.977,0.028,0.004,-0.010,16.088,-124.075,15.555
16:50:32:169,1.992,0.022,-0.010,0.002,16.111,-124.302,15.749
16:50:32:195,2.018,0.003,-0.023,-0.006,16.154,-124.462,15.932
16:50:32:281,2.104,-0.001,-0.025,0.001,16.182,-124.551,16.028
16:50:32:282,2.105,0.007,-0.020,-0.007,16.180,-124.539,16.145
16:50:32:282,2.105,0.002,-0.025,-0.002,16.150,-124.759,16.162
16:50:32:301,2.124,-0.005,-0.021,-0.012,16.100,-124.694,16.139
16:50:32:494,2.317,-0.006,0.000,-0.015,16.047,-124.622,16.062
16:50:32:494,2.317,-0.012,0.005,-0.022,16.011,-124.562,15.990
16:50:32:495,2.318,-0.011,0.020,-0.028,15.981,-124.454,15.887
16:50:32:496,2.319,-0.023,0.025,-0.027,15.982,-124.350,15.833
16:50:32:549,2.372,-0.013,0.019,-0.028,16.008,-124.337,15.794
16:50:32:549,2.372,-0.012,0.012,-0.029,16.033,-124.205,15.803
16:50:32:549,2.372,-0.007,-0.013,-0.010,16.082,-124.061,15.832
16:50:32:55,2.373,0.002,-0.015,-0.030,16.074,-123.855,15.897
16:50:32:566,2.389,-0.033,-0.014,0.006,16.069,-123.805,15.895
16:50:32:567,2.390,0.007,-0.021,-0.034,16.074,-123.507,15.981
16:50:32:62,2.443,-0.003,-0.017,-0.003,16.054,-123.326,16.031
16:50:32:62,2.443,-0.003,-0.011,-0.013,15.998,-123.110,16.070
16:50:32:642,2.465,0.005,-0.008,-0.012,15.921,-122.844,16.099
16:50:32:726,2.549,0.000,-0.002,-0.020,15.844,-122.664,16.119
16:50:32:727,2.550,0.004,0.003,-0.027,15.718,-122.386,16.141
16:50:32:748,2.570,-0.009,0.008,-0.041,15.497,-122.009,16.181
16:50:32:827,2.650,-0.016,0.012,-0.040,15.453,-121.893,16.226
16:50:32:858,2.681,-0.017,0.009,-0.043,15.404,-121.744,16.285
16:50:32:858,2.681,-0.025,-0.004,-0.046,15.404,-121.548,16.375
16:50:32:859,2.682,-0.011,-0.016,-0.038,15.401,-121.441,16.447
16:50:32:987,2.810,-0.010,-0.017,-0.031,15.391,-121.339,16.540
16:50:32:987,2.810,-0.021,-0.027,-0.015,15.357,-121.295,16.566
16:50:33:018,2.841,-0.030,-0.032,-0.005,15.290,-121.225,16.555
16:50:33:018,2.841,-0.025,-0.031,-0.004,15.190,-120.961,16.517
16:50:33:019,2.842,-0.022,-0.010,-0.010,15.080,-120.707,16.495
16:50:33:02,2.843,-0.070,0.026,-0.005,14.872,-120.090,16.443
16:50:33:064,2.887,-0.051,0.010,0.011,14.717,-119.483,16.434
16:50:33:094,2.917,-0.044,0.003,0.003,14.513,-118.070,16.517
16:50:33:095,2.918,-0.040,-0.039,-0.014,14.310,-116.271,16.706
16:50:33:095,2.918,-0.048,-0.047,-0.008,14.142,-115.058,16.849
16:50:33:173,2.995,-0.039,-0.039,-0.005,13.773,-113.262,17.100
16:50:33:174,2.996,-0.060,-0.003,-0.023,13.517,-112.045,17.268
16:50:33:194,3.017,-0.095,0.084,-0.066,12.425,-108.552,17.652
16:50:33:275,3.098,-0.035,0.070,-0.072,11.457,-106.161,17.727
16:50:33:276,3.099,-0.020,-0.008,-0.123,10.426,-104.398,17.452
16:50:33:332,3.155,-0.011,-0.045,-0.136,9.840,-103.995,17.112
16:50:33:332,3.155,-0.028,-0.094,-0.138,9.161,-104.284,16.473
16:50:33:332,3.155,-0.031,-0.094,-0.131,8.831,-105.268,16.026
16:50:33:43,3.252,-0.025,-0.100,-0.127,8.528,-107.206,15.566
16:50:33:462,3.284,-0.002,-0.076,-0.100,8.352,-109.529,15.168
16:50:33:463,3.285,0.021,0.014,-0.092,8.128,-111.126,14.689
16:50:33:464,3.286,0.040,0.142,-0.092,7.766,-113.435,13.881
16:50:33:485,3.308,0.035,0.163,-0.116,7.533,-114.966,13.220
16:50:33:485,3.308,0.059,0.091,-0.131,7.251,-117.285,12.172
16:50:33:507,3.330,0.064,0.027,-0.138,7.143,-118.871,11.563
16:50:33:564,3.387,0.058,0.021,-0.122,7.119,-121.264,10.949
16:50:33:565,3.388,0.036,0.041,-0.132,7.338,-124.083,10.703
16:50:33:587,3.410,0.038,0.050,-0.123,7.626,-125.584,10.713
16:50:33:613,3.436,0.033,0.055,-0.096,8.315,-127.407,11.113
16:50:33:639,3.462,0.028,0.010,-0.039,8.906,-128.133,11.573
16:50:33:666,3.489,0.030,-0.010,-0.009,9.849,-128.366,12.414
16:50:33:692,3.515,0.061,-0.020,0.015,10.779,-127.371,13.724
16:50:33:748,3.571,0.065,-0.015,0.046,11.316,-126.272,14.819
16:50:33:748,3.571,0.087,0.007,0.050,11.869,-124.093,16.679
16:50:33:771,3.593,0.099,0.018,0.050,12.064,-122.578,17.967
16:50:33:798,3.620,0.100,0.021,0.036,12.164,-120.602,19.727
16:50:33:852,3.675,0.106,0.000,0.053,12.172,-119.604,20.680
16:50:33:852,3.675,0.100,-0.005,0.058,12.142,-118.904,21.669
16:50:33:875,3.698,0.106,-0.022,0.072,11.446,-118.905,22.043
16:50:33:901,3.724,0.075,-0.018,0.077,10.842,-119.221,21.977
16:50:33:928,3.751,0.030,-0.003,0.026,9.705,-118.973,21.644
16:50:33:954,3.777,0.038,-0.034,-0.109,8.789,-118.053,21.364
16:50:33:98,3.803,0.069,0.012,-0.306,7.293,-116.403,20.977
16:50:34:008,3.831,-0.021,0.096,-0.459,6.414,-115.652,20.948
16:50:34:033,3.856,-0.036,0.123,-0.390,6.264,-115.760,21.278
16:50:34:059,3.882,-0.096,0.108,-0.356,6.500,-116.018,22.211
16:50:34:086,3.909,-0.152,0.059,-0.273,6.875,-116.227,23.048
16:50:34:112,3.935,-0.159,0.050,-0.214,7.640,-116.263,24.624
16:50:34:139,3.962,-0.119,0.083,-0.102,8.515,-115.681,26.568
16:50:34:166,3.988,-0.101,0.090,-0.004,9.137,-114.984,27.999
16:50:34:191,4.013,-0.028,0.069,0.118,9.957,-113.343,30.255
16:50:34:216,4.039,-0.012,0.035,0.167,10.389,-111.878,31.741
16:50:34:242,4.065,0.010,0.027,0.274,10.791,-109.615,33.845
16:50:34:269,4.092,0.045,0.051,0.352,10.801,-107.856,35.073
16:50:34:297,4.120,0.112,-0.021,0.311,10.255,-105.189,36.393
16:50:34:351,4.174,0.090,-0.162,0.183,9.420,-102.500,36.737
16:50:34:351,4.174,0.062,-0.246,0.168,9.040,-101.601,36.479
16:50:34:374,4.197,0.012,-0.307,0.249,8.893,-100.977,35.703
16:50:34:4,4.223,0.007,-0.173,0.365,9.023,-101.132,35.031
16:50:34:427,4.250,0.021,-0.102,0.398,9.539,-101.784,33.691
16:50:34:453,4.276,0.043,-0.092,0.426,10.139,-102.851,31.744
16:50:34:48,4.303,0.032,-0.105,0.395,10.304,-103.502,30.036
16:50:34:505,4.328,0.020,-0.035,0.289,10.134,-104.292,26.846
16:50:34:561,4.384,-0.057,0.005,0.199,9.870,-105.081,24.346
16:50:34:562,4.385,-0.104,0.051,0.112,9.295,-106.751,20.309
16:50:34:584,4.407,-0.101,0.071,0.027,8.833,-108.422,17.529
16:50:34:642,4.464,-0.083,0.111,-0.065,7.887,-110.857,13.541
16:50:34:642,4.464,-0.065,0.122,-0.099,6.629,-112.356,9.931
16:50:34:663,4.485,0.010,0.058,-0.269,5.787,-112.554,7.775
16:50:34:718,4.541,0.029,0.036,-0.268,4.530,-113.750,4.913
16:50:34:719,4.542,-0.012,0.009,-0.279,3.690,-114.500,3.234
16:50:34:799,4.622,-0.038,-0.016,-0.330,2.445,-115.193,1.179
16:50:34:799,4.622,-0.131,-0.043,-0.292,1.327,-115.471,-0.419
16:50:34:822,4.645,-0.083,-0.059,-0.409,0.646,-115.032,-1.260
16:50:34:85,4.673,-0.114,-0.045,-0.483,-0.281,-113.650,-2.414
16:50:34:85,4.673,-0.149,-0.011,-0.535,-0.860,-112.626,-3.149
16:50:34:873,4.696,-0.161,-0.024,-0.578,-1.599,-111.059,-4.221
16:50:34:899,4.722,-0.162,-0.012,-0.591,-2.006,-110.201,-4.846
16:50:34:955,4.777,-0.214,-0.035,-0.576,-2.449,-109.131,-5.565
16:50:34:956,4.778,-0.267,-0.051,-0.493,-2.500,-108.160,-5.860
16:50:35:008,4.830,-0.276,-0.102,-0.521,-2.178,-106.929,-5.742
16:50:35:009,4.831,-0.238,-0.044,-0.537,-1.243,-104.939,-4.934
16:50:35:059,4.882,-0.248,0.079,-0.499,-0.397,-103.979,-3.886
16:50:35:06,4.883,-0.217,0.200,-0.428,1.153,-103.396,-1.697
16:50:35:083,4.906,-0.235,0.237,-0.371,3.129,-103.117,1.048
16:50:35:109,4.932,-0.244,0.262,-0.268,4.603,-103.187,3.144
16:50:35:136,4.959,-0.235,0.256,-0.128,6.977,-103.247,6.769
16:50:35:162,4.985,-0.159,0.216,-0.029,8.736,-103.077,9.502
16:50:35:189,5.012,-0.102,0.194,0.002,11.590,-102.755,14.025
16:50:35:215,5.038,-0.025,0.145,0.164,13.678,-102.759,17.153
16:50:35:241,5.064,0.035,0.091,0.219,16.912,-102.379,21.903
16:50:35:267,5.090,0.087,0.022,0.287,20.005,-101.426,26.504
16:50:35:294,5.117,0.115,0.007,0.308,21.944,-100.553,29.320
16:50:35:321,5.143,0.152,-0.083,0.339,24.557,-99.038,33.080
16:50:35:35,5.172,0.183,-0.148,0.357,26.009,-97.855,35.275
16:50:35:35,5.172,0.192,-0.169,0.358,27.683,-96.016,38.061
16:50:35:372,5.194,0.238,-0.180,0.424,28.923,-94.457,40.174
16:50:35:398,5.221,0.254,-0.171,0.446,29.431,-93.584,41.169
16:50:35:424,5.247,0.296,-0.090,0.480,29.621,-92.593,41.872
16:50:35:45,5.273,0.271,-0.126,0.452,29.395,-92.256,41.750
16:50:35:506,5.329,0.280,-0.126,0.451,28.539,-92.105,40.740
16:50:35:507,5.330,0.266,-0.131,0.385,27.589,-92.143,39.591
16:50:35:558,5.381,0.205,-0.193,0.288,24.918,-92.716,36.476
16:50:35:559,5.382,0.059,-0.208,0.277,22.860,-93.410,33.533
16:50:35:582,5.405,0.043,-0.071,0.245,21.508,-93.991,31.439
16:50:35:608,5.431,0.026,0.036,0.274,19.742,-95.198,28.140
16:50:35:634,5.457,0.086,0.051,0.259,18.657,-96.084,25.895
16:50:35:69,5.512,0.093,0.032,0.201,16.932,-97.132,22.542
16:50:35:691,5.513,0.033,-0.014,0.098,15.138,-97.953,19.167
16:50:35:713,5.535,-0.069,-0.029,0.048,13.950,-97.729,16.964
16:50:35:768,5.591,-0.146,-0.033,-0.027,12.182,-98.207,13.828
16:50:35:769,5.592,-0.187,-0.018,-0.063,11.058,-97.674,11.892
16:50:35:792,5.615,-0.175,-0.014,-0.099,9.438,-97.264,9.241
16:50:35:819,5.642,-0.187,0.010,-0.154,8.415,-95.800,7.638
16:50:35:87,5.693,-0.172,0.053,-0.209,6.062,-89.920,3.445
16:50:35:926,5.749,-0.158,0.018,-0.283,5.488,-87.315,2.310
16:50:35:952,5.775,-0.191,-0.014,-0.310,4.783,-82.421,0.834
16:50:35:953,5.776,-0.237,0.014,-0.394,4.333,-79.423,-0.008
16:50:35:977,5.799,-0.325,0.015,-0.421,3.549,-74.901,-1.277
16:50:36:002,5.824,-0.464,0.031,-0.465,2.556,-72.246,-2.730
16:50:36:029,5.851,-0.531,0.080,-0.487,1.808,-70.912,-3.762
16:50:36:085,5.908,-0.567,0.075,-0.512,0.613,-71.542,-5.153
16:50:36:085,5.908,-0.580,-0.021,-0.447,-0.109,-72.356,-5.801
16:50:36:106,5.929,-0.538,-0.097,-0.314,-0.907,-75.621,-5.952
16:50:36:133,5.956,-0.455,-0.040,-0.186,-0.894,-78.882,-4.857
16:50:36:159,5.982,-0.441,0.036,-0.183,-0.278,-80.385,-3.508
16:50:36:186,6.009,-0.395,0.176,-0.096,1.408,-81.449,-0.820
16:50:36:212,6.035,-0.355,0.223,-0.060,2.982,-81.226,1.309
16:50:36:238,6.061,-0.252,0.270,0.013,5.814,-79.565,5.041
16:50:36:293,6.116,-0.196,0.292,0.120,8.970,-76.756,9.483
16:50:36:294,6.117,-0.157,0.270,0.197,11.220,-74.561,12.801
16:50:36:317,6.140,-0.064,0.182,0.308,14.862,-70.769,18.143
16:50:36:343,6.166,0.081,0.085,0.280,17.357,-67.857,21.804
16:50:36:399,6.221,0.156,-0.049,0.220,20.797,-62.859,27.161
16:50:36:399,6.221,0.183,-0.156,0.196,22.733,-59.455,30.413
16:50:36:45,6.273,0.193,-0.196,0.192,25.024,-54.637,34.524
16:50:36:451,6.274,0.216,-0.247,0.152,26.638,-50.352,37.606
16:50:36:503,6.326,0.221,-0.275,0.131,27.338,-47.874,39.112
16:50:36:504,6.327,0.227,-0.335,0.108,27.922,-44.844,40.591
16:50:36:527,6.350,0.268,-0.298,0.120,28.025,-43.339,41.065
16:50:36:553,6.376,0.439,-0.180,0.115,27.730,-41.826,40.981
16:50:36:579,6.402,0.496,-0.110,0.059,26.544,-40.779,39.985
16:50:36:605,6.428,0.505,-0.079,0.038,25.273,-40.203,38.817
16:50:36:632,6.455,0.549,0.017,0.027,22.937,-39.426,36.360
16:50:36:659,6.482,0.445,-0.043,-0.039,21.189,-38.905,34.293
16:50:36:684,6.507,0.345,0.011,-0.041,18.496,-37.829,30.586
16:50:36:711,6.534,0.207,0.193,0.021,16.802,-37.773,27.720
16:50:36:737,6.560,0.133,0.256,0.033,14.684,-38.544,23.015
16:50:36:764,6.586,0.018,0.177,0.037,13.073,-40.664,18.201
16:50:36:818,6.641,-0.020,0.075,0.026,12.106,-42.441,15.177
16:50:36:844,6.667,-0.077,-0.003,0.016,10.578,-45.226,11.168
16:50:36:845,6.668,-0.153,-0.065,-0.030,9.484,-46.830,8.883
16:50:36:926,6.749,-0.197,-0.079,-0.043,7.808,-48.715,5.929
16:50:36:927,6.750,-0.219,-0.034,-0.030,6.213,-49.780,3.329
16:50:36:928,6.751,-0.242,-0.018,-0.020,5.281,-49.828,1.730
16:50:36:948,6.771,-0.304,-0.012,-0.057,4.188,-48.433,-0.515
16:50:36:973,6.796,-0.353,-0.010,-0.069,3.686,-46.794,-1.884
16:50:37:001,6.824,-0.425,-0.068,-0.073,3.290,-43.437,-3.576
16:50:37:026,6.849,-0.439,-0.143,-0.044,3.154,-41.071,-4.412
16:50:37:052,6.875,-0.465,-0.143,-0.056,3.080,-37.435,-5.208
16:50:37:078,6.901,-0.545,-0.055,-0.039,3.019,-34.100,-5.613
16:50:37:105,6.928,-0.589,0.016,-0.010,2.958,-32.433,-5.807
16:50:37:134,6.956,-0.635,0.043,0.003,2.890,-30.475,-6.134
16:50:37:186,7.008,-0.639,0.120,0.000,2.901,-29.518,-6.352
16:50:37:187,7.009,-0.627,0.102,0.065,3.038,-28.717,-6.454
16:50:37:21,7.033,-0.577,0.080,0.142,3.443,-28.689,-5.939
16:50:37:264,7.087,-0.529,0.093,0.157,3.947,-29.043,-5.086
16:50:37:265,7.088,-0.410,0.162,0.147,5.234,-29.906,-3.054
16:50:37:288,7.111,-0.326,0.217,0.132,6.440,-30.437,-1.266
16:50:37:314,7.137,-0.232,0.249,0.104,8.728,-30.844,1.913
16:50:37:37,7.193,-0.125,0.242,0.116,11.406,-30.884,5.579
16:50:37:37,7.193,-0.066,0.186,0.093,13.297,-30.465,8.268
16:50:37:451,7.274,0.019,0.116,0.053,16.176,-29.344,12.579
16:50:37:452,7.275,0.074,0.084,0.030,18.098,-28.383,15.521
16:50:37:452,7.275,0.166,0.025,-0.022,20.948,-26.852,19.896
16:50:37:472,7.295,0.254,-0.039,-0.093,22.791,-25.663,22.726
16:50:37:498,7.321,0.281,-0.093,-0.122,25.343,-23.883,26.718
16:50:37:524,7.347,0.300,-0.172,-0.161,27.495,-21.812,30.230
16:50:37:553,7.376,0.302,-0.207,-0.168,28.662,-20.487,32.229
16:50:37:554,7.377,0.321,-0.233,-0.166,30.011,-18.473,34.726
16:50:37:636,7.459,0.323,-0.294,-0.174,30.605,-17.367,36.069
16:50:37:636,7.459,0.339,-0.241,-0.170,31.049,-15.699,37.610
16:50:37:637,7.460,0.438,-0.109,-0.179,31.113,-14.714,38.417
16:50:37:656,7.479,0.523,-0.027,-0.181,30.974,-14.334,38.518
16:50:37:682,7.505,0.589,-0.006,-0.182,30.358,-14.219,38.057
16:50:37:708,7.531,0.633,0.013,-0.186,29.526,-14.294,37.347
16:50:37:735,7.557,0.502,-0.130,-0.156,27.464,-14.535,35.551
16:50:37:763,7.585,0.487,-0.139,-0.074,25.709,-14.752,33.733
16:50:37:814,7.637,0.386,0.087,-0.055,22.888,-15.332,30.231
16:50:37:842,7.665,0.303,0.196,0.015,20.427,-16.684,26.095
16:50:37:843,7.666,0.219,0.137,0.013,19.067,-18.060,23.167
16:50:37:866,7.689,0.106,0.019,-0.005,17.285,-20.630,18.760
16:50:37:892,7.715,0.031,-0.049,0.016,16.149,-22.426,15.873
16:50:37:918,7.741,-0.030,-0.070,0.058,14.399,-24.683,11.790
16:50:37:944,7.767,-0.098,-0.083,0.023,12.611,-25.832,8.055
16:50:37:971,7.794,-0.140,-0.063,0.012,11.432,-25.991,5.711
16:50:37:998,7.821,-0.229,0.030,0.036,9.774,-25.233,2.273
16:50:38:024,7.847,-0.333,0.078,0.075,8.856,-24.067,0.053
16:50:38:049,7.872,-0.425,0.039,0.065,7.857,-21.414,-3.040
16:50:38:076,7.899,-0.477,-0.025,0.041,7.421,-19.396,-4.837
16:50:38:102,7.924,-0.484,-0.102,0.051,7.040,-16.299,-6.998
16:50:38:158,7.980,-0.487,-0.165,0.069,6.821,-13.572,-8.440
16:50:38:158,7.980,-0.522,-0.141,0.068,6.708,-11.879,-9.024
16:50:38:181,8.004,-0.599,-0.103,0.143,6.513,-9.758,-9.522
16:50:38:206,8.029,-0.594,-0.098,0.146,6.359,-8.605,-9.713
16:50:38:233,8.056,-0.593,-0.088,0.119,6.152,-7.705,-9.863
16:50:38:289,8.112,-0.623,0.054,0.076,6.112,-6.452,-9.740
16:50:38:289,8.112,-0.661,0.135,0.136,6.190,-5.961,-9.452
16:50:38:313,8.136,-0.611,0.155,0.225,6.438,-5.493,-8.606
16:50:38:338,8.161,-0.533,0.146,0.156,6.712,-5.612,-7.614
16:50:38:364,8.187,-0.459,0.168,0.138,7.329,-6.128,-5.409
16:50:38:391,8.214,-0.354,0.172,0.104,7.866,-6.924,-3.493
16:50:38:417,8.240,-0.285,0.176,0.095,8.955,-8.517,-0.072
16:50:38:444,8.267,-0.190,0.210,0.085,10.441,-10.316,3.820
16:50:38:469,8.292,-0.112,0.237,0.082,11.687,-11.527,6.570
16:50:38:526,8.348,0.022,0.207,-0.001,13.982,-13.086,10.867
16:50:38:526,8.348,0.087,0.164,-0.042,15.752,-13.812,13.831
16:50:38:548,8.370,0.170,0.085,-0.099,18.646,-14.372,18.312
16:50:38:574,8.397,0.232,0.101,-0.127,21.685,-14.353,22.650
16:50:38:6,8.423,0.308,0.063,-0.161,23.764,-14.106,25.350
16:50:38:656,8.479,0.355,-0.026,-0.193,26.731,-13.202,29.206
16:50:38:656,8.479,0.373,-0.167,-0.236,28.499,-12.148,31.706
16:50:38:679,8.502,0.364,-0.227,-0.249,30.672,-10.076,35.351
16:50:38:735,8.557,0.371,-0.257,-0.254,32.216,-7.795,38.702
16:50:38:736,8.558,0.387,-0.245,-0.250,32.843,-6.547,40.521
16:50:38:759,8.581,0.449,-0.142,-0.281,33.284,-5.128,42.327
16:50:38:815,8.638,0.442,-0.144,-0.271,33.260,-4.701,42.734
16:50:38:815,8.638,0.454,-0.157,-0.271,32.727,-4.542,42.361
16:50:38:866,8.689,0.419,-0.118,-0.263,30.156,-5.341,39.921
16:50:38:867,8.690,0.335,-0.146,-0.218,26.292,-6.783,35.820
16:50:38:918,8.741,0.302,-0.126,-0.128,24.451,-7.810,33.088
16:50:38:919,8.742,0.275,-0.001,-0.095,23.091,-8.714,30.953
16:50:38:942,8.765,0.244,0.128,-0.046,21.098,-10.610,27.332
16:50:38:998,8.821,0.166,0.117,-0.026,19.827,-12.141,24.727
16:50:38:999,8.822,0.122,0.034,-0.026,17.861,-14.634,20.677
16:50:39:05,8.873,0.039,-0.073,-0.008,15.778,-17.124,16.661
16:50:39:05,8.873,-0.006,-0.095,0.026,14.311,-18.693,14.064
16:50:39:073,8.896,-0.101,-0.057,0.072,12.028,-20.604,10.307
16:50:39:1,8.923,-0.088,-0.009,0.188,10.556,-21.587,7.843
16:50:39:125,8.948,-0.272,0.038,0.101,8.359,-21.746,4.333
16:50:39:152,8.975,-0.304,0.054,0.099,7.103,-21.853,1.993
16:50:39:179,9.002,-0.360,0.054,0.129,5.358,-21.747,-1.345
16:50:39:204,9.027,-0.445,0.028,0.133,3.929,-20.702,-4.265
16:50:39:26,9.083,-0.475,-0.053,0.179,3.116,-19.780,-5.843
16:50:39:261,9.084,-0.490,-0.105,0.176,2.128,-18.322,-7.534
16:50:39:283,9.105,-0.571,-0.003,0.165,1.479,-16.750,-8.523
16:50:39:311,9.133,-0.617,0.032,0.184,1.170,-15.726,-8.907
16:50:39:336,9.158,-0.666,-0.010,0.229,0.839,-14.798,-9.238
16:50:39:362,9.185,-0.632,-0.063,0.221,0.698,-13.997,-9.284
16:50:39:388,9.211,-0.609,-0.038,0.246,0.627,-13.378,-8.987
16:50:39:414,9.237,-0.662,0.042,0.268,0.869,-12.958,-8.197
16:50:39:441,9.264,-0.639,0.061,0.271,1.259,-13.151,-7.414
16:50:39:497,9.320,-0.519,0.120,0.181,2.290,-13.730,-5.812
16:50:39:497,9.320,-0.437,0.182,0.122,3.317,-14.650,-4.431
16:50:39:519,9.342,-0.333,0.208,0.092,5.263,-15.173,-1.866
16:50:39:546,9.369,-0.287,0.201,0.055,6.717,-15.446,0.163
16:50:39:572,9.395,-0.177,0.171,0.051,8.969,-15.631,3.513
16:50:39:599,9.422,-0.142,0.085,-0.009,11.240,-14.985,7.352
16:50:39:626,9.449,-0.091,0.041,-0.041,12.694,-14.410,10.010
16:50:39:654,9.476,-0.006,-0.009,-0.126,14.839,-13.785,14.022
16:50:39:707,9.529,0.011,0.027,-0.185,16.275,-13.375,16.615
16:50:39:707,9.529,0.101,0.047,-0.176,18.732,-13.448,20.049
16:50:39:729,9.552,0.260,0.024,-0.150,21.538,-14.264,22.817
16:50:39:755,9.578,0.288,-0.040,-0.177,23.404,-14.544,24.491
16:50:39:811,9.634,0.291,-0.139,-0.185,25.836,-13.934,27.056
16:50:39:812,9.635,0.302,-0.171,-0.187,27.086,-12.898,28.865
16:50:39:834,9.657,0.311,-0.143,-0.178,28.391,-10.808,31.527
16:50:39:86,9.683,0.358,-0.097,-0.214,28.932,-9.404,33.076
16:50:39:891,9.714,0.372,-0.087,-0.223,29.307,-7.653,34.747
16:50:39:891,9.714,0.380,-0.095,-0.257,29.097,-6.356,35.461
16:50:39:913,9.736,0.377,-0.089,-0.291,28.511,-5.661,35.392
16:50:39:939,9.762,0.303,-0.108,-0.309,26.893,-4.812,34.397
16:50:39:966,9.789,0.178,-0.182,-0.242,25.430,-4.538,33.077
16:50:40:021,9.844,0.079,-0.213,-0.102,23.059,-4.869,30.205
16:50:40:022,9.845,0.079,-0.123,-0.045,20.883,-6.461,26.558
16:50:40:078,9.900,0.070,0.018,-0.045,19.623,-8.012,23.859
16:50:40:078,9.900,0.056,0.141,-0.054,18.071,-11.197,19.450
16:50:40:126,9.949,0.025,0.098,-0.069,17.070,-13.587,16.420
16:50:40:126,9.949,-0.017,0.052,-0.037,15.443,-16.820,12.063
16:50:40:149,9.972,-0.042,-0.021,0.048,14.271,-18.458,9.482
16:50:40:204,10.027,-0.076,-0.024,0.089,12.428,-19.919,6.306
16:50:40:205,10.028,-0.135,-0.019,0.225,10.794,-20.098,3.930
16:50:40:229,10.052,-0.116,0.096,0.188,9.720,-18.834,2.930
16:50:40:312,10.135,-0.430,0.016,0.009,8.668,-14.068,2.018
16:50:40:313,10.136,-0.312,0.022,0.092,7.999,-12.222,1.528
16:50:40:314,10.137,-0.380,-0.048,0.112,7.248,-10.180,0.972
16:50:40:361,10.184,-0.292,-0.144,0.127,6.548,-8.793,0.657
16:50:40:388,10.211,-0.282,-0.190,0.136,6.107,-8.095,0.556
16:50:40:389,10.212,-0.303,-0.105,0.161,5.474,-6.983,0.476
16:50:40:412,10.235,-0.357,0.042,0.213,5.054,-6.200,0.394
16:50:40:467,10.290,-0.391,0.084,0.243,4.431,-5.056,0.036
16:50:40:468,10.291,-0.409,0.197,0.249,3.801,-4.164,-0.721
16:50:40:491,10.314,-0.433,0.196,0.257,3.484,-3.589,-1.388
16:50:40:518,10.341,-0.434,0.178,0.334,3.372,-2.631,-2.186
16:50:40:544,10.367,-0.343,0.007,0.309,3.588,-1.957,-2.302
16:50:40:625,10.447,-0.305,0.129,0.182,5.309,0.194,-0.358
16:50:40:626,10.448,-0.250,0.191,0.169,6.860,1.576,2.092
16:50:40:706,10.529,-0.075,0.208,0.146,8.623,2.513,4.848
16:50:40:707,10.530,-0.068,0.162,0.123,9.962,3.635,6.978
16:50:40:707,10.530,-0.086,0.068,0.046,11.958,6.001,10.542
16:50:40:756,10.579,-0.011,0.024,0.018,13.256,7.392,13.011
16:50:40:757,10.580,0.006,-0.022,-0.023,15.248,9.395,16.843
16:50:40:808,10.631,0.038,-0.041,-0.059,16.602,10.540,19.323
16:50:40:809,10.632,0.069,-0.068,-0.093,18.740,11.736,22.594
16:50:40:861,10.684,0.114,-0.087,-0.124,20.889,12.556,25.172
16:50:40:862,10.685,0.140,-0.079,-0.140,21.807,12.902,25.999
16:50:40:914,10.737,0.187,-0.029,-0.140,23.119,13.682,26.746
16:50:40:915,10.738,0.231,-0.111,-0.239,24.274,14.509,27.510
16:50:40:967,10.790,0.202,-0.180,-0.277,25.565,16.713,28.784
16:50:40:967,10.790,0.172,-0.187,-0.347,26.169,20.003,30.275
16:50:40:99,10.812,0.174,-0.071,-0.389,26.096,22.405,31.153
16:50:41:017,10.839,0.137,0.002,-0.399,25.277,25.941,31.883
16:50:41:071,10.894,0.105,0.055,-0.377,24.325,27.998,31.716
16:50:41:071,10.894,0.012,0.083,-0.352,22.473,30.416,30.286
16:50:41:153,10.976,-0.050,-0.049,-0.220,20.574,31.780,27.523
16:50:41:153,10.976,-0.077,-0.100,-0.132,19.493,31.734,25.134
16:50:41:154,10.977,-0.032,-0.033,-0.087,18.212,30.347,21.264
16:50:41:259,11.082,0.025,0.087,-0.086,17.595,28.712,18.737
16:50:41:26,11.083,0.030,0.104,-0.084,16.907,25.857,15.253
16:50:41:311,11.134,-0.052,-0.020,-0.072,15.649,23.236,10.772
16:50:41:311,11.134,-0.052,-0.077,-0.022,14.745,23.487,8.730
16:50:41:312,11.135,-0.051,-0.080,0.016,14.138,24.805,7.551
16:50:41:331,11.154,-0.050,-0.044,0.076,13.325,27.464,6.061
16:50:41:386,11.209,-0.251,-0.053,0.138,12.856,30.294,5.295
16:50:41:387,11.210,-0.211,-0.013,0.137,12.282,34.244,4.079
16:50:41:41,11.233,-0.249,-0.027,0.203,11.826,38.201,2.802
16:50:41:436,11.259,-0.230,-0.057,0.219,11.529,40.551,1.964
16:50:41:463,11.286,-0.204,-0.105,0.272,11.022,43.885,0.761
16:50:41:488,11.311,-0.169,-0.086,0.314,10.618,45.663,-0.017
16:50:41:514,11.337,-0.171,-0.060,0.360,9.874,48.378,-1.209
16:50:41:541,11.364,-0.155,0.007,0.480,8.974,50.391,-2.590
16:50:41:626,11.448,-0.134,0.041,0.543,8.285,51.051,-3.649
16:50:41:626,11.448,-0.142,0.143,0.591,7.208,51.196,-5.305
16:50:41:626,11.449,-0.130,0.139,0.629,6.541,50.767,-6.314
16:50:41:839,11.662,-0.067,0.074,0.636,5.736,49.491,-7.348
16:50:41:84,11.663,0.039,0.044,0.510,5.471,48.230,-7.537
16:50:41:841,11.664,0.038,0.066,0.441,5.798,46.466,-6.844
16:50:41:842,11.665,0.011,0.130,0.374,7.180,45.761,-5.086
16:50:41:862,11.685,0.010,0.190,0.333,8.596,45.987,-3.445
16:50:41:863,11.686,0.039,0.208,0.228,11.208,47.381,-0.352
16:50:41:863,11.686,0.002,0.183,0.173,13.118,49.200,2.154
16:50:41:889,11.712,-0.067,0.129,0.101,15.933,52.814,6.559
16:50:41:889,11.712,-0.048,0.110,0.014,18.531,56.617,11.435
16:50:41:889,11.712,-0.056,0.079,-0.069,20.207,58.956,14.771
16:50:41:909,11.732,-0.101,0.007,-0.158,22.706,62.298,19.729
16:50:41:964,11.786,-0.128,-0.057,-0.228,24.321,64.254,22.888
16:50:41:965,11.787,-0.138,-0.101,-0.254,26.555,67.151,27.190
16:50:41:987,11.809,-0.152,-0.157,-0.284,27.844,68.717,29.687
16:50:42:043,11.866,-0.164,-0.192,-0.286,29.361,70.789,32.782
16:50:42:043,11.866,-0.181,-0.230,-0.279,30.309,72.424,34.985
16:50:42:065,11.888,-0.174,-0.231,-0.278,30.652,73.145,35.903
16:50:42:253,12.076,-0.166,-0.190,-0.336,30.906,73.479,36.435
16:50:42:254,12.077,-0.165,-0.112,-0.384,30.923,73.211,36.249
16:50:42:382,12.205,-0.168,-0.012,-0.399,30.702,72.223,35.135
16:50:42:417,12.240,-0.191,0.060,-0.511,30.246,70.996,33.114
16:50:42:417,12.240,-0.224,0.082,-0.545,29.712,69.913,31.364
16:50:42:418,12.241,-0.250,0.000,-0.316,28.213,69.602,28.416
16:50:42:419,12.242,-0.112,-0.075,-0.205,27.019,68.884,26.163
16:50:42:571,12.394,-0.025,-0.039,-0.162,25.250,68.159,22.910
16:50:42:572,12.395,-0.022,0.091,-0.127,24.185,67.292,20.918
16:50:42:573,12.396,-0.058,0.097,-0.100,22.838,65.666,18.097
16:50:42:653,12.476,-0.078,0.036,-0.061,21.636,64.075,15.519
16:50:42:653,12.476,-0.070,-0.063,-0.053,20.869,63.313,13.990
16:50:42:654,12.477,-0.004,-0.116,-0.014,19.792,62.731,11.987
16:50:42:655,12.478,0.021,-0.075,0.041,19.130,62.796,10.837
16:50:42:727,12.549,0.014,-0.061,0.054,18.286,64.409,9.381
16:50:42:728,12.550,-0.058,-0.051,0.078,17.654,66.517,8.187
16:50:42:759,12.582,-0.064,-0.037,0.099,17.309,69.009,7.491
16:50:42:759,12.582,-0.072,-0.012,0.154,16.907,72.314,6.587
16:50:42:759,12.582,-0.061,-0.014,0.175,16.682,75.196,6.110
16:50:42:759,12.582,-0.072,-0.064,0.202,16.359,78.745,5.603
16:50:42:81,12.633,-0.055,-0.119,0.232,16.126,81.621,5.391
16:50:42:811,12.634,-0.053,-0.114,0.251,15.690,84.645,5.179
16:50:42:812,12.635,-0.032,-0.014,0.302,15.094,87.539,4.897
16:50:42:812,12.635,-0.005,0.031,0.326,14.620,88.714,4.533
16:50:42:834,12.657,0.036,0.101,0.355,13.825,89.773,3.599
16:50:42:835,12.658,0.019,0.184,0.364,13.264,90.021,2.758
16:50:42:835,12.658,0.041,0.193,0.406,12.490,90.153,1.394
16:50:42:86,12.683,0.116,0.195,0.388,11.888,89.522,0.157
16:50:42:86,12.683,0.148,0.106,0.362,11.655,88.890,-0.376
16:50:42:861,12.684,0.106,0.049,0.306,11.730,87.590,-0.359
16:50:42:882,12.705,0.057,0.099,0.244,12.121,86.957,0.279
16:50:42:883,12.706,0.081,0.149,0.175,13.155,86.419,2.012
16:50:42:906,12.729,0.077,0.145,0.134,14.611,86.740,4.564
16:50:42:932,12.755,0.066,0.131,0.092,15.691,87.451,6.637
16:50:42:958,12.781,-0.001,0.064,0.065,17.367,89.086,10.211
16:50:43:013,12.836,-0.035,0.043,0.037,18.491,90.202,12.771
16:50:43:014,12.837,-0.096,0.002,-0.020,20.265,91.568,16.644
16:50:43:037,12.860,-0.123,-0.008,-0.053,21.535,92.197,19.123
16:50:43:064,12.887,-0.181,-0.028,-0.113,23.542,92.788,22.490
16:50:43:09,12.913,-0.213,-0.053,-0.156,25.556,93.150,25.310
16:50:43:116,12.939,-0.245,-0.068,-0.176,26.822,93.418,26.871
16:50:43:171,12.994,-0.254,-0.083,-0.216,27.969,93.651,28.271
16:50:43:172,12.995,-0.262,-0.128,-0.206,27.759,93.617,28.319
16:50:43:195,13.018,-0.264,-0.154,-0.196,28.906,94.318,29.540
16:50:43:25,13.072,-0.330,-0.061,-0.263,29.721,95.005,30.437
16:50:43:251,13.073,-0.373,-0.003,-0.294,30.073,95.452,30.840
16:50:43:274,13.096,-0.417,0.023,-0.327,30.243,96.171,31.132
16:50:43:3,13.122,-0.452,0.044,-0.354,30.063,96.783,31.155
16:50:43:326,13.149,-0.425,-0.031,-0.273,29.163,98.100,30.982
16:50:43:351,13.174,-0.320,-0.188,-0.194,28.148,99.051,30.672
16:50:43:378,13.201,-0.221,-0.220,-0.156,26.225,100.154,29.824
16:50:43:404,13.227,-0.192,0.006,-0.119,24.138,100.174,28.378
16:50:43:46,13.283,-0.165,0.064,-0.158,22.914,99.353,26.926
16:50:43:46,13.283,-0.118,0.071,-0.120,21.416,97.091,24.251
16:50:43:485,13.308,-0.102,-0.035,-0.075,20.623,95.282,22.313
16:50:43:539,13.362,-0.063,-0.108,-0.091,19.643,92.288,19.286
16:50:43:54,13.363,-0.092,-0.165,-0.132,18.762,89.686,16.284
16:50:43:562,13.385,0.191,-0.143,-0.433,18.212,88.497,14.413
16:50:43:588,13.411,0.252,-0.052,-0.078,17.024,91.284,12.937
16:50:43:615,13.438,-0.015,0.001,0.209,15.875,96.148,12.997
16:50:43:641,13.463,-0.014,-0.051,0.352,14.448,104.330,12.945
16:50:43:696,13.519,-0.007,-0.023,0.186,13.782,107.663,11.928
16:50:43:696,13.519,0.065,-0.021,0.263,13.589,108.817,11.199
16:50:43:748,13.571,0.050,-0.081,0.152,13.402,109.192,10.104
16:50:43:749,13.572,0.058,-0.071,0.105,13.271,108.973,9.456
16:50:43:772,13.595,0.073,0.046,0.105,12.914,109.012,8.806
16:50:43:828,13.651,0.146,0.106,0.141,12.558,109.463,8.496
16:50:43:828,13.651,0.186,0.106,0.155,11.903,110.182,7.975
16:50:43:91,13.733,0.215,0.116,0.164,11.280,110.763,7.281
16:50:43:91,13.733,0.222,0.092,0.169,10.975,111.059,6.796
16:50:43:91,13.733,0.240,0.240,0.169,11.284,111.280,6.888
16:50:43:988,13.810,0.237,0.264,0.128,11.457,111.065,6.476
16:50:43:988,13.810,0.154,0.229,0.084,12.169,110.412,6.044
16:50:43:989,13.811,0.053,0.132,0.056,13.355,110.553,6.226
16:50:44:009,13.831,0.050,0.107,0.036,14.387,111.399,6.951
16:50:44:035,13.857,0.060,0.085,0.011,16.102,113.449,8.804
16:50:44:061,13.883,0.043,0.086,-0.029,17.319,115.321,10.647
16:50:44:116,13.939,-0.052,0.075,-0.003,20.219,121.164,16.658
16:50:44:139,13.962,-0.130,0.043,-0.029,21.919,124.349,20.661
16:50:44:165,13.988,-0.189,-0.002,-0.052,23.682,126.935,24.581
16:50:44:192,14.015,-0.236,-0.047,-0.054,24.864,128.352,27.032
16:50:44:218,14.041,-0.279,-0.076,-0.067,26.536,130.260,30.293
16:50:44:245,14.068,-0.294,-0.111,-0.077,27.528,131.335,32.113
16:50:44:271,14.094,-0.291,-0.163,-0.077,28.758,132.821,34.279
16:50:44:3,14.123,-0.280,-0.250,-0.070,29.597,133.961,35.850
16:50:44:326,14.149,-0.273,-0.261,-0.068,29.946,134.574,36.595
16:50:44:327,14.150,-0.329,-0.215,-0.074,30.269,135.015,37.163
16:50:44:378,14.201,-0.407,-0.118,-0.078,30.298,135.090,37.120
16:50:44:379,14.202,-0.425,-0.065,-0.089,30.023,134.956,36.395
16:50:44:402,14.225,-0.503,0.000,-0.125,29.652,134.796,35.532
16:50:44:459,14.281,-0.600,0.124,-0.076,28.557,135.094,33.835
16:50:44:459,14.281,-0.358,0.009,0.000,26.811,136.054,31.644
16:50:44:481,14.303,-0.246,-0.033,-0.077,25.544,136.646,29.944
16:50:44:508,14.330,-0.171,0.026,-0.130,23.879,137.504,27.450
16:50:44:533,14.356,-0.174,0.096,-0.167,23.080,137.883,25.927
16:50:44:589,14.412,-0.189,0.074,-0.130,22.186,138.305,23.868
16:50:44:589,14.412,-0.157,-0.031,-0.040,21.397,139.090,22.113
16:50:44:611,14.434,-0.146,-0.118,-0.020,20.898,139.905,21.082
16:50:44:667,14.490,-0.113,-0.155,-0.004,20.117,141.601,19.740
16:50:44:668,14.491,-0.059,-0.117,0.033,19.586,143.149,18.917
16:50:44:692,14.515,-0.032,-0.066,0.049,18.774,145.800,17.756
16:50:44:717,14.540,0.003,-0.013,0.058,17.937,148.741,16.619
16:50:44:743,14.566,0.059,0.014,0.050,17.375,150.747,15.868
16:50:44:77,14.593,0.158,0.059,0.001,16.698,153.494,14.711
16:50:44:796,14.619,0.213,0.139,-0.030,16.451,154.853,13.988
16:50:44:822,14.644,0.210,0.092,-0.043,16.568,155.918,13.125
16:50:44:85,14.672,0.159,-0.037,-0.042,16.763,156.062,12.877
16:50:44:874,14.697,0.140,-0.065,-0.017,17.055,156.622,12.995
16:50:44:9,14.723,0.188,-0.062,-0.030,17.163,156.907,13.300
16:50:44:927,14.750,0.233,-0.055,0.007,17.036,157.468,13.414
16:50:44:953,14.776,0.275,-0.016,0.038,16.468,158.496,13.224
16:50:44:981,14.804,0.315,-0.017,0.006,15.879,159.437,12.810
16:50:45:006,14.829,0.344,0.021,-0.006,14.923,160.115,11.876
16:50:45:061,14.884,0.356,0.110,0.021,14.183,160.083,10.696
16:50:45:062,14.885,0.330,0.178,0.060,13.900,158.968,9.880
16:50:45:114,14.937,0.272,0.255,0.135,13.761,156.889,8.815
16:50:45:115,14.938,0.195,0.239,0.117,13.880,154.705,8.353
16:50:45:167,14.990,0.127,0.217,0.073,14.457,151.996,8.298
16:50:45:167,14.990,-0.003,0.130,0.010,15.116,150.173,8.881
16:50:45:217,15.039,-0.027,0.080,0.002,16.417,149.075,10.885
16:50:45:269,15.092,-0.100,0.039,0.007,18.040,149.176,14.089
16:50:45:356,15.179,-0.150,0.041,0.003,19.202,149.826,16.728
16:50:45:357,15.180,-0.222,0.054,0.027,20.901,151.561,21.222
16:50:45:358,15.181,-0.248,0.064,0.031,21.927,153.089,24.380
16:50:45:358,15.181,-0.296,0.038,0.041,23.410,155.278,28.927
16:50:45:374,15.197,-0.318,-0.029,0.028,24.830,157.255,32.927
16:50:45:402,15.225,-0.345,-0.104,0.032,25.748,158.380,35.187
16:50:45:403,15.226,-0.353,-0.197,0.027,27.031,159.640,37.927
16:50:45:457,15.280,-0.417,-0.190,0.060,27.727,160.385,39.313
16:50:45:457,15.280,-0.461,-0.140,0.100,28.308,161.309,40.613
16:50:45:478,15.301,-0.496,-0.095,0.123,28.271,162.014,40.912
16:50:45:505,15.328,-0.586,-0.066,0.109,27.983,162.217,40.657
16:50:45:531,15.354,-0.537,-0.115,0.133,26.908,163.088,39.898
16:50:45:559,15.381,-0.459,-0.168,0.126,25.783,163.857,39.216
16:50:45:584,15.406,-0.386,-0.219,0.048,23.733,164.952,37.871
16:50:45:667,15.490,-0.309,-0.049,0.022,22.187,165.347,36.702
16:50:45:668,15.491,-0.318,0.059,-0.049,20.302,165.271,34.272
16:50:45:669,15.492,-0.246,0.052,-0.067,19.192,163.635,31.023
16:50:45:746,15.569,-0.196,-0.026,-0.068,18.698,162.169,28.544
16:50:45:747,15.570,-0.153,-0.098,-0.122,18.034,159.333,24.649
16:50:45:748,15.571,-0.130,-0.104,-0.150,17.515,157.603,22.146
16:50:45:767,15.590,-0.042,-0.112,-0.232,16.740,155.762,18.757
16:50:45:793,15.616,0.032,-0.016,-0.071,15.292,157.315,16.986
16:50:45:821,15.644,0.123,-0.049,0.053,14.275,159.857,15.846
16:50:45:846,15.669,0.065,0.018,0.053,13.659,160.948,13.828
16:50:45:872,15.695,0.084,0.016,0.018,13.521,161.306,12.581
16:50:45:898,15.721,0.105,0.002,0.026,13.238,162.388,11.010
16:50:45:925,15.748,0.104,-0.065,0.016,13.000,163.227,10.181
16:50:45:951,15.773,0.152,-0.116,-0.003,12.578,164.779,9.331
16:50:45:978,15.800,0.198,-0.051,0.016,12.049,166.677,8.851
16:50:46:003,15.826,0.240,0.043,0.023,11.634,167.814,8.569
16:50:46:029,15.852,0.265,0.140,0.025,11.002,168.834,7.975
16:50:46:055,15.878,0.288,0.166,0.023,10.579,169.235,7.461
16:50:46:082,15.905,0.313,0.194,0.026,9.954,169.236,6.657
16:50:46:108,15.931,0.350,0.168,-0.039,9.423,168.704,6.059
16:50:46:134,15.957,0.358,0.136,-0.064,9.203,167.928,5.899
16:50:46:161,15.984,0.316,0.108,-0.048,9.183,165.793,6.259
16:50:46:188,16.011,0.205,0.134,0.037,9.417,164.222,6.947
16:50:46:213,16.036,0.144,0.141,0.046,10.147,161.508,8.558
16:50:46:239,16.062,0.069,0.144,0.027,10.883,159.895,9.945
16:50:46:266,16.089,0.003,0.120,-0.019,12.317,157.638,12.366
16:50:46:292,16.115,-0.037,0.046,-0.024,14.016,156.297,15.187
16:50:46:319,16.141,-0.069,0.016,-0.017,15.246,155.739,17.281
16:50:46:345,16.167,-0.125,-0.012,0.010,17.205,155.465,20.659
16:50:46:372,16.195,-0.162,-0.019,0.006,18.580,155.399,23.000
16:50:46:426,16.249,-0.225,-0.023,0.005,20.854,155.400,26.500
16:50:46:427,16.250,-0.306,-0.047,0.015,23.383,155.310,29.879
16:50:46:449,16.272,-0.339,-0.054,0.039,25.156,155.289,32.010
16:50:46:475,16.298,-0.424,-0.070,0.030,27.888,155.142,34.952
16:50:46:502,16.325,-0.526,-0.052,0.038,29.641,155.209,36.714
16:50:46:531,16.354,-0.565,-0.072,0.056,31.837,155.774,39.046
16:50:46:532,16.355,-0.604,-0.100,0.093,33.259,157.076,40.925
16:50:46:583,16.406,-0.599,-0.112,0.115,33.646,158.279,41.864
16:50:46:584,16.407,-0.571,-0.140,0.126,33.419,160.545,42.741
16:50:46:638,16.461,-0.592,-0.103,0.189,32.759,162.198,42.905
16:50:46:638,16.461,-0.465,-0.157,0.219,30.909,164.890,42.454
16:50:46:66,16.483,-0.290,-0.290,0.161,29.292,166.391,41.640
16:50:46:686,16.508,-0.283,-0.217,0.103,26.736,168.289,39.849
16:50:46:712,16.534,-0.320,-0.095,0.072,24.423,169.218,37.538
16:50:46:739,16.561,-0.329,0.052,0.078,23.127,169.290,35.653
16:50:46:764,16.587,-0.268,0.084,0.103,21.550,168.251,32.328
16:50:46:82,16.643,-0.212,0.047,0.100,20.628,167.415,29.898
16:50:46:821,16.644,-0.128,-0.084,0.068,19.272,165.356,26.189
16:50:46:844,16.667,-0.068,-0.112,0.005,17.928,162.978,22.649
16:50:46:87,16.693,-0.037,-0.087,-0.006,17.055,161.641,20.438
16:50:46:896,16.719,-0.009,-0.039,-0.011,15.753,159.879,17.449
16:50:46:922,16.745,0.038,0.007,0.017,14.860,159.096,15.678
16:50:46:949,16.772,0.068,0.019,-0.002,13.495,158.559,13.286
16:50:46:975,16.798,0.122,0.030,-0.049,12.589,158.581,11.872
16:50:47:002,16.824,0.163,0.003,-0.091,11.293,159.069,10.120
16:50:47:028,16.850,0.206,-0.075,-0.100,10.115,159.977,8.909
16:50:47:054,16.876,0.222,-0.047,-0.105,9.425,160.669,8.391
16:50:47:079,16.902,0.258,0.114,-0.148,8.549,161.580,7.916
16:50:47:105,16.928,0.272,0.174,-0.179,8.124,162.004,7.709
16:50:47:131,16.954,0.256,0.222,-0.135,7.715,162.539,7.480
16:50:47:158,16.981,0.229,0.234,-0.100,7.609,163.034,7.404
16:50:47:184,17.007,0.222,0.139,-0.136,7.635,164.122,7.504
16:50:47:24,17.063,0.218,0.044,-0.182,7.922,165.501,8.075
16:50:47:241,17.064,0.198,0.013,-0.129,8.272,166.367,8.797
16:50:47:263,17.086,0.212,0.107,-0.076,9.007,167.213,10.298
16:50:47:29,17.113,0.170,0.195,-0.076,9.682,167.387,11.459
16:50:47:316,17.139,0.086,0.192,-0.104,11.027,166.584,13.171
16:50:47:342,17.165,0.026,0.145,-0.121,12.739,165.628,14.838
16:50:47:369,17.191,-0.029,0.105,-0.111,14.072,164.960,16.023
16:50:47:395,17.217,-0.083,0.026,-0.068,16.287,164.270,18.103
16:50:47:422,17.244,-0.128,-0.014,-0.001,17.868,164.021,19.739
16:50:47:446,17.269,-0.175,-0.024,0.020,20.355,164.272,22.525
16:50:47:502,17.325,-0.230,0.001,0.084,22.857,165.087,25.596
16:50:47:503,17.326,-0.274,0.009,0.115,24.492,165.846,27.678
16:50:47:525,17.348,-0.329,-0.017,0.170,26.832,167.197,30.674
16:50:47:552,17.375,-0.350,-0.036,0.175,28.269,168.210,32.521
16:50:47:578,17.401,-0.382,-0.098,0.200,30.166,169.878,34.979
16:50:47:604,17.427,-0.389,-0.127,0.208,31.187,171.101,36.455
16:50:47:632,17.455,-0.445,-0.138,0.234,32.430,173.015,38.499
16:50:47:658,17.481,-0.525,-0.088,0.278,33.206,174.922,40.256
16:50:47:683,17.506,-0.485,-0.122,0.290,33.349,176.288,41.186
16:50:47:71,17.533,-0.475,-0.139,0.276,33.000,178.029,42.068
16:50:47:736,17.558,-0.480,-0.194,0.272,32.377,179.231,42.299
16:50:47:762,17.584,-0.407,-0.262,0.249,30.690,-179.180,42.076
16:50:47:79,17.612,-0.368,-0.272,0.194,28.269,-177.656,40.998
16:50:47:815,17.638,-0.383,-0.150,0.161,26.428,-177.046,39.769
16:50:47:84,17.663,-0.400,-0.048,0.104,23.619,-176.680,37.181
16:50:47:867,17.690,-0.355,-0.025,0.068,21.859,-176.986,35.046
16:50:47:893,17.716,-0.250,-0.047,0.020,19.503,-178.188,31.404
16:50:47:922,17.745,-0.172,-0.067,-0.029,17.454,179.492,27.481
16:50:47:946,17.769,-0.144,-0.067,-0.055,16.196,177.767,24.818
16:50:47:999,17.822,-0.099,-0.032,-0.101,14.387,174.919,20.914
16:50:48:057,17.880,-0.054,0.002,-0.104,13.184,173.385,18.420
16:50:48:057,17.880,-0.033,0.036,-0.110,11.331,171.464,14.871
16:50:48:058,17.881,0.017,0.077,-0.139,10.096,171.056,12.626
16:50:48:107,17.929,0.055,0.084,-0.171,8.272,171.374,9.513
16:50:48:107,17.929,0.157,0.047,-0.199,6.591,173.175,6.796
16:50:48:159,17.981,0.216,-0.006,-0.219,5.609,174.802,5.233
16:50:48:16,17.982,0.267,-0.072,-0.242,4.322,177.700,3.323
16:50:48:183,18.006,0.336,0.013,-0.260,3.596,179.636,2.331
16:50:48:208,18.031,0.381,0.077,-0.302,2.637,-177.734,1.177
16:50:48:234,18.057,0.428,0.164,-0.337,1.851,-175.786,0.278
16:50:48:347,18.170,0.431,0.244,-0.353,1.431,-174.820,-0.162
16:50:48:347,18.170,0.438,0.239,-0.402,0.986,-173.982,-0.481
16:50:48:348,18.171,0.380,0.140,-0.479,0.832,-173.738,-0.375
16:50:48:394,18.216,0.147,-0.011,-0.288,0.927,-173.897,0.484
16:50:48:424,18.247,0.211,-0.005,-0.259,1.795,-174.386,2.361
16:50:48:424,18.247,0.159,0.081,-0.288,2.884,-174.692,4.231
16:50:48:425,18.248,0.055,0.220,-0.337,5.133,-173.940,7.714
16:50:48:444,18.267,-0.128,0.265,-0.313,6.706,-172.666,10.439
16:50:48:471,18.294,-0.141,0.248,-0.246,8.943,-169.126,15.220
16:50:48:497,18.320,-0.163,0.177,-0.092,10.878,-165.174,20.608
16:50:48:523,18.346,-0.178,0.150,-0.023,12.133,-162.939,24.308
16:50:48:55,18.373,-0.258,0.092,0.068,14.391,-160.591,29.731
16:50:48:576,18.399,-0.300,0.005,0.115,16.257,-159.587,33.150
16:50:48:603,18.426,-0.335,-0.122,0.167,19.481,-158.518,37.818
16:50:48:629,18.452,-0.354,-0.162,0.191,21.678,-157.892,40.545
16:50:48:654,18.477,-0.351,-0.219,0.231,24.696,-156.921,43.936
16:50:48:68,18.503,-0.358,-0.241,0.267,27.090,-155.918,46.389
16:50:48:707,18.530,-0.369,-0.258,0.297,28.271,-155.238,47.544
16:50:48:735,18.558,-0.375,-0.282,0.335,29.375,-154.358,48.655
16:50:48:76,18.583,-0.424,-0.260,0.410,29.658,-153.655,49.040
16:50:48:786,18.609,-0.434,-0.233,0.456,29.261,-152.572,49.071
16:50:48:812,18.634,-0.412,-0.211,0.490,27.850,-151.444,48.366
16:50:48:841,18.663,-0.483,-0.134,0.528,26.419,-150.825,47.438
16:50:48:842,18.664,-0.427,-0.045,0.535,23.498,-149.612,45.197
16:50:48:894,18.717,-0.356,-0.151,0.407,21.209,-148.845,43.118
16:50:48:894,18.717,-0.319,-0.056,0.372,17.771,-147.910,39.403
16:50:48:916,18.739,-0.306,0.156,0.275,15.531,-147.660,36.705
16:50:48:945,18.768,-0.356,0.234,0.176,12.885,-148.367,32.503
16:50:48:971,18.794,-0.314,0.179,0.088,11.376,-151.156,28.283
16:50:48:997,18.820,-0.214,0.048,0.064,10.647,-153.230,25.569
16:50:49:022,18.845,-0.061,-0.051,-0.003,9.466,-156.042,21.645
16:50:49:048,18.871,-0.021,-0.104,-0.052,8.576,-157.604,19.077
16:50:49:104,18.927,-0.066,-0.088,-0.064,7.131,-159.376,15.209
16:50:49:105,18.928,-0.056,-0.048,-0.136,6.101,-159.860,12.622
16:50:49:127,18.950,-0.018,0.009,-0.174,4.517,-159.204,8.917
16:50:49:154,18.977,0.094,0.039,-0.275,3.071,-156.599,5.464
16:50:49:209,19.031,0.148,-0.007,-0.357,2.273,-154.102,3.381
16:50:49:21,19.032,0.138,-0.061,-0.395,1.319,-149.831,0.747
16:50:49:233,19.055,0.186,-0.111,-0.453,0.837,-146.868,-0.599
16:50:49:258,19.081,0.166,-0.105,-0.495,0.240,-142.908,-1.950
16:50:49:314,19.137,0.150,-0.030,-0.546,-0.304,-140.013,-2.602
16:50:49:314,19.137,0.130,0.038,-0.580,-0.629,-138.674,-2.743
16:50:49:364,19.187,0.117,0.116,-0.587,-1.036,-137.096,-2.759
16:50:49:392,19.215,0.090,0.152,-0.612,-1.206,-136.331,-2.633
16:50:49:393,19.216,0.010,0.107,-0.663,-1.292,-135.696,-2.193
16:50:49:445,19.268,-0.115,0.003,-0.627,-0.999,-136.023,-1.125
16:50:49:446,19.269,-0.155,0.063,-0.538,-0.439,-136.717,0.106
16:50:49:468,19.291,-0.189,0.178,-0.427,1.121,-137.862,2.679
16:50:49:523,19.346,-0.300,0.256,-0.322,2.638,-138.593,4.776
16:50:49:524,19.347,-0.360,0.313,-0.248,5.533,-139.082,8.387
16:50:49:548,19.371,-0.384,0.338,-0.096,8.931,-138.081,12.608
16:50:49:631,19.454,-0.340,0.273,-0.013,11.305,-136.640,15.833
16:50:49:632,19.455,-0.296,0.200,0.117,14.799,-133.821,21.171
16:50:49:633,19.456,-0.216,0.087,0.217,17.032,-131.705,24.919
16:50:49:652,19.475,-0.170,0.005,0.278,20.214,-128.513,30.492
16:50:49:68,19.503,-0.106,-0.055,0.339,22.224,-126.508,33.962
16:50:49:705,19.528,-0.089,-0.093,0.362,25.118,-123.835,38.476
16:50:49:731,19.554,-0.067,-0.215,0.390,27.824,-121.596,42.031
16:50:49:757,19.579,-0.065,-0.248,0.398,29.406,-120.340,43.941
16:50:49:784,19.606,-0.062,-0.309,0.461,31.387,-118.568,46.290
16:50:49:81,19.632,-0.057,-0.302,0.501,32.365,-117.529,47.524
16:50:49:835,19.658,-0.042,-0.302,0.526,33.239,-116.103,48.877
16:50:49:862,19.685,-0.019,-0.277,0.564,33.304,-114.787,49.522
16:50:49:888,19.711,-0.007,-0.298,0.560,32.866,-114.201,49.558
16:50:49:914,19.737,-0.035,-0.165,0.665,31.451,-113.480,48.925
16:50:49:941,19.764,0.040,-0.119,0.549,29.888,-113.057,47.913
16:50:49:967,19.790,-0.023,-0.195,0.486,27.114,-112.936,45.433
16:50:49:993,19.816,-0.105,-0.069,0.449,25.031,-113.055,43.295
16:50:50:02,19.843,-0.125,0.037,0.427,21.837,-113.348,39.675
16:50:50:046,19.869,-0.156,0.157,0.403,19.084,-114.278,35.478
16:50:50:102,19.925,-0.134,0.166,0.335,17.372,-115.011,32.416
16:50:50:102,19.925,-0.094,0.100,0.249,14.775,-116.033,27.660
16:50:50:154,19.977,-0.099,0.024,0.168,13.001,-116.508,24.505
16:50:50:155,19.978,-0.144,0.043,0.050,10.407,-116.950,19.906
16:50:50:178,20.000,-0.177,0.055,-0.053,7.944,-117.097,15.558
16:50:50:233,20.055,-0.160,0.057,-0.114,6.384,-116.783,12.838
16:50:50:233,20.055,-0.119,0.056,-0.228,4.240,-115.794,8.945
16:50:50:255,20.078,-0.157,0.030,-0.337,2.953,-115.001,6.435
16:50:50:282,20.105,-0.176,-0.005,-0.398,1.226,-113.714,2.838
16:50:50:337,20.160,-0.175,-0.079,-0.462,-0.300,-112.344,-0.436
16:50:50:338,20.161,-0.177,-0.114,-0.500,-1.223,-111.378,-2.386
16:50:50:361,20.184,-0.201,-0.073,-0.588,-2.466,-110.090,-4.937
16:50:50:388,20.211,-0.217,0.008,-0.703,-3.192,-109.374,-6.375
16:50:50:442,20.265,-0.222,-0.012,-0.754,-4.109,-108.537,-8.088
16:50:50:443,20.266,-0.205,0.081,-0.798,-4.588,-108.116,-8.850
16:50:50:466,20.289,-0.263,0.106,-0.805,-5.008,-107.933,-9.275
16:50:50:492,20.315,-0.381,-0.024,-0.701,-5.008,-108.463,-8.660
16:50:50:518,20.341,-0.385,-0.109,-0.596,-4.682,-109.123,-7.573
16:50:50:545,20.367,-0.279,-0.011,-0.425,-3.374,-109.935,-4.967
16:50:50:573,20.395,-0.248,0.107,-0.343,-1.987,-110.145,-2.724
16:50:50:655,20.478,-0.241,0.213,-0.253,0.602,-109.843,1.183
16:50:50:656,20.479,-0.315,0.287,-0.151,2.569,-109.376,4.005
16:50:50:675,20.498,-0.260,0.262,0.032,9.136,-105.516,13.440
16:50:50:702,20.525,-0.191,0.224,0.154,11.357,-103.606,17.015
16:50:50:728,20.551,-0.107,0.161,0.257,14.689,-100.722,22.670
16:50:50:754,20.577,-0.004,0.076,0.307,16.832,-98.783,26.544
16:50:50:81,20.633,0.037,0.038,0.349,19.933,-96.052,32.125
16:50:50:811,20.634,0.048,0.002,0.391,22.992,-93.773,36.967
16:50:50:834,20.657,0.053,-0.054,0.426,25.036,-92.575,39.658
16:50:50:86,20.683,0.088,-0.199,0.386,27.856,-91.023,42.932
16:50:50:886,20.709,0.111,-0.309,0.374,29.515,-90.142,44.670
16:50:50:913,20.736,0.136,-0.372,0.366,31.611,-88.978,46.761
16:50:50:938,20.761,0.147,-0.340,0.426,33.125,-88.044,48.305
16:50:50:965,20.788,0.170,-0.245,0.475,33.737,-87.609,48.954
16:50:50:993,20.816,0.171,-0.192,0.552,34.096,-87.488,49.138
16:50:51:019,20.842,0.243,-0.147,0.620,33.905,-87.696,48.713
16:50:51:046,20.868,0.265,-0.146,0.566,32.588,-87.979,47.322
16:50:51:047,20.869,0.158,-0.234,0.437,31.066,-88.168,45.912
16:50:51:099,20.922,0.100,-0.192,0.440,28.173,-88.577,43.303
16:50:51:099,20.922,0.018,-0.046,0.463,25.072,-89.195,40.300
16:50:51:151,20.974,0.016,0.059,0.477,23.144,-89.805,38.072
16:50:51:152,20.975,0.023,0.103,0.415,20.525,-90.914,34.356
16:50:51:174,20.997,0.048,0.058,0.323,18.695,-90.976,31.649
16:50:51:201,21.024,0.001,0.012,0.249,15.687,-91.089,27.292
16:50:51:227,21.050,-0.089,-0.006,0.156,12.630,-90.404,22.749
16:50:51:254,21.077,-0.144,0.020,0.081,10.665,-89.490,19.654
16:50:51:309,21.131,-0.175,0.080,-0.025,7.997,-87.607,14.919
16:50:51:31,21.132,-0.201,0.113,-0.076,6.417,-86.137,11.753
16:50:51:333,21.156,-0.219,0.123,-0.242,4.461,-84.020,7.039
16:50:51:358,21.181,-0.302,0.089,-0.255,3.343,-83.051,4.061
16:50:51:385,21.208,-0.336,0.002,-0.305,1.876,-81.235,0.179
16:50:51:411,21.234,-0.356,-0.044,-0.344,0.617,-79.307,-2.799
16:50:51:437,21.260,-0.377,0.015,-0.397,-0.074,-78.282,-4.266
16:50:51:463,21.286,-0.442,0.051,-0.431,-0.892,-76.171,-5.810
16:50:51:489,21.312,-0.483,0.055,-0.473,-1.324,-75.124,-6.529
16:50:51:516,21.339,-0.503,-0.013,-0.445,-1.786,-73.191,-7.222
16:50:51:542,21.365,-0.485,-0.003,-0.408,-1.928,-71.136,-7.385
16:50:51:568,21.391,-0.516,-0.014,-0.377,-1.865,-69.372,-7.116
16:50:51:596,21.419,-0.588,-0.046,-0.310,-1.647,-67.693,-6.124
16:50:51:621,21.444,-0.595,-0.029,-0.230,-1.410,-66.881,-5.094
16:50:51:647,21.469,-0.534,0.027,-0.178,-0.789,-66.483,-3.025
16:50:51:674,21.496,-0.503,0.136,-0.128,0.221,-66.576,-0.428
16:50:51:7,21.522,-0.508,0.142,-0.017,1.188,-67.216,1.523
16:50:51:725,21.548,-0.455,0.138,0.179,3.267,-68.591,4.736
16:50:51:751,21.574,-0.341,0.132,0.275,5.083,-69.365,7.068
16:50:51:836,21.659,-0.252,0.170,0.282,8.346,-69.587,10.913
16:50:51:837,21.660,-0.137,0.229,0.300,10.754,-69.138,13.686
16:50:51:838,21.661,-0.045,0.213,0.348,14.473,-67.855,18.045
16:50:51:857,21.680,0.045,0.132,0.326,18.002,-65.745,22.488
16:50:51:883,21.706,0.077,0.064,0.284,20.125,-64.036,25.361
16:50:51:909,21.732,0.115,-0.026,0.264,22.979,-61.404,29.230
16:50:51:936,21.759,0.166,-0.091,0.216,24.696,-59.122,31.400
16:50:51:964,21.787,0.216,-0.161,0.200,27.124,-56.872,33.949
16:50:51:989,21.812,0.295,-0.259,0.156,29.344,-54.709,35.864
16:50:52:015,21.837,0.361,-0.287,0.141,30.594,-53.120,36.940
16:50:52:041,21.863,0.507,-0.254,0.120,31.909,-50.305,38.371
16:50:52:067,21.889,0.527,-0.253,0.090,32.222,-48.036,39.220
16:50:52:093,21.916,0.549,-0.233,0.034,31.586,-44.118,40.182
16:50:52:119,21.942,0.622,-0.209,0.063,30.359,-41.310,40.462
16:50:52:146,21.969,0.621,-0.252,-0.028,26.968,-36.416,40.108
16:50:52:172,21.995,0.486,-0.077,-0.109,22.657,-31.978,38.395
16:50:52:227,22.050,0.332,0.152,0.072,19.923,-30.151,36.376
16:50:52:228,22.051,0.255,0.184,0.181,16.664,-29.127,32.344
16:50:52:251,22.074,0.159,0.135,0.173,15.125,-30.290,29.290
16:50:52:277,22.100,0.083,0.101,0.130,13.534,-34.038,24.552
16:50:52:303,22.126,0.026,0.015,0.053,12.193,-39.282,20.040
16:50:52:33,22.152,-0.019,-0.023,0.000,11.138,-42.758,17.341
16:50:52:356,22.178,0.004,-0.059,0.036,9.188,-47.318,13.567
16:50:52:382,22.205,-0.028,-0.030,0.090,7.634,-49.522,11.104
16:50:52:408,22.231,-0.099,0.032,0.149,5.061,-51.089,7.455
16:50:52:434,22.257,-0.293,0.089,0.097,2.533,-50.378,3.752
16:50:52:461,22.284,-0.418,0.109,0.020,0.943,-48.722,1.278
16:50:52:487,22.310,-0.564,0.000,0.047,-1.153,-45.245,-2.374
16:50:52:513,22.336,-0.610,-0.085,0.021,-2.424,-42.639,-4.608
16:50:52:566,22.388,-0.846,-0.057,0.050,-4.818,-36.507,-8.913
16:50:52:592,22.414,-0.898,-0.001,0.063,-6.219,-35.375,-10.268
16:50:52:618,22.441,-0.934,0.047,0.081,-7.406,-35.980,-10.857
16:50:52:644,22.467,-0.945,0.081,0.139,-7.967,-37.054,-10.854
16:50:52:671,22.494,-0.775,-0.027,0.300,-8.204,-39.004,-10.126
16:50:52:697,22.520,-0.560,-0.189,0.367,-7.789,-39.972,-9.201
16:50:52:723,22.546,-0.490,-0.085,0.280,-6.085,-40.196,-7.208
16:50:52:75,22.573,-0.425,0.055,0.199,-3.168,-38.751,-4.630
16:50:52:776,22.599,-0.419,0.178,0.143,-0.922,-37.201,-2.586
16:50:52:803,22.626,-0.369,0.279,0.109,2.571,-34.546,0.924
16:50:52:829,22.652,-0.315,0.293,0.130,4.884,-32.808,3.505
16:50:52:854,22.677,-0.155,0.242,0.127,8.349,-30.368,7.690
16:50:52:968,22.790,-0.010,0.148,0.083,10.651,-28.766,10.722
16:50:52:969,22.791,0.072,0.112,0.039,13.972,-26.240,15.653
16:50:52:97,22.792,0.161,0.095,0.000,17.033,-23.760,20.815
16:50:52:971,22.793,0.237,0.095,-0.037,18.949,-22.239,24.150
16:50:52:987,22.809,0.310,0.013,-0.068,21.608,-20.190,28.668
16:50:53:012,22.835,0.324,-0.107,-0.124,23.177,-18.829,31.304
16:50:53:038,22.861,0.336,-0.169,-0.135,25.106,-16.887,34.565
16:50:53:064,22.887,0.350,-0.253,-0.145,26.605,-15.159,37.167
16:50:53:09,22.913,0.335,-0.297,-0.140,27.292,-14.138,38.561
16:50:53:117,22.940,0.364,-0.264,-0.129,27.804,-12.933,40.064
16:50:53:143,22.966,0.409,-0.200,-0.124,27.815,-12.620,40.564
16:50:53:169,22.992,0.431,-0.136,-0.133,27.295,-12.223,40.388
16:50:53:227,23.050,0.463,-0.056,-0.132,26.560,-12.351,39.593
16:50:53:228,23.051,0.470,-0.001,-0.163,24.834,-12.604,37.336
16:50:53:311,23.133,0.314,-0.105,-0.122,22.515,-13.190,34.002
16:50:53:311,23.133,0.221,-0.085,-0.002,20.800,-13.836,31.385
16:50:53:311,23.133,0.180,0.076,0.068,18.349,-15.524,27.145
16:50:53:312,23.134,0.133,0.209,0.118,16.998,-17.228,24.184
16:50:53:357,23.179,0.114,0.238,0.111,15.300,-20.534,19.737
16:50:53:357,23.179,0.089,0.137,0.037,13.594,-23.565,15.500
16:50:53:408,23.231,0.037,0.062,0.027,12.330,-25.447,12.869
16:50:53:409,23.232,-0.048,-0.027,0.094,10.292,-26.907,9.230
16:50:53:461,23.284,-0.154,-0.043,0.166,8.935,-27.388,6.966
16:50:53:462,23.285,-0.205,-0.020,0.170,7.004,-26.841,3.875
16:50:53:485,23.308,-0.294,-0.031,0.120,5.410,-25.377,0.962
16:50:53:54,23.363,-0.376,-0.021,0.106,4.587,-24.023,-0.948
16:50:53:541,23.364,-0.431,-0.044,0.106,3.626,-21.744,-3.672
16:50:53:563,23.386,-0.463,-0.090,0.071,3.121,-20.097,-5.312
16:50:53:59,23.413,-0.513,-0.156,0.080,2.615,-17.687,-7.460
16:50:53:617,23.440,-0.541,-0.168,0.138,2.308,-15.465,-9.154
16:50:53:643,23.466,-0.594,-0.111,0.129,2.141,-13.838,-10.024
16:50:53:669,23.492,-0.764,-0.053,0.175,1.812,-11.900,-11.123
16:50:53:695,23.517,-0.824,-0.064,0.200,1.427,-11.168,-11.831
16:50:53:721,23.543,-0.778,-0.045,0.203,0.643,-11.292,-12.793
16:50:53:747,23.570,-0.740,-0.047,0.163,0.223,-11.667,-13.225
16:50:53:773,23.596,-0.733,-0.004,0.213,-0.123,-12.770,-13.234
16:50:53:799,23.622,-0.651,0.042,0.264,-0.009,-14.062,-12.203
16:50:53:826,23.649,-0.585,0.105,0.231,0.448,-15.368,-10.873
16:50:53:852,23.675,-0.537,0.171,0.143,1.743,-16.018,-8.002
16:50:53:879,23.702,-0.466,0.219,0.125,2.792,-16.562,-5.595
16:50:53:904,23.727,-0.372,0.233,0.115,4.565,-17.130,-1.498
16:50:53:931,23.754,-0.258,0.193,0.101,6.524,-17.877,2.973
16:50:53:957,23.780,-0.164,0.160,0.063,7.951,-18.481,6.074
16:50:53:984,23.807,-0.045,0.091,0.013,10.291,-19.415,10.781
16:50:54:011,23.834,0.035,0.067,-0.021,11.963,-20.020,13.844
16:50:54:067,23.889,0.082,0.066,-0.025,14.626,-20.963,18.089
16:50:54:067,23.889,0.155,0.071,-0.073,16.461,-21.499,20.604
16:50:54:089,23.911,0.212,0.037,-0.137,19.222,-22.057,23.897
16:50:54:169,23.992,0.295,-0.028,-0.172,21.847,-22.222,26.635
16:50:54:23,24.053,0.332,-0.068,-0.178,23.470,-22.099,28.250
16:50:54:23,24.053,0.348,-0.142,-0.184,25.577,-21.376,30.560
16:50:54:23,24.053,0.402,-0.140,-0.180,26.756,-20.658,32.071
16:50:54:231,24.054,0.426,-0.122,-0.187,28.112,-19.392,34.224
16:50:54:246,24.069,0.466,-0.100,-0.177,28.912,-18.035,36.042
16:50:54:272,24.095,0.486,-0.064,-0.137,29.104,-17.108,36.983
16:50:54:301,24.124,0.574,-0.046,-0.110,28.932,-15.680,37.918
16:50:54:325,24.148,0.587,-0.105,-0.129,28.460,-14.470,38.290
16:50:54:352,24.175,0.429,-0.255,-0.206,26.938,-12.110,38.393
16:50:54:378,24.201,0.297,-0.234,-0.170,25.282,-10.400,37.992
16:50:54:404,24.227,0.238,-0.147,-0.107,22.327,-8.454,36.289
16:50:54:431,24.253,0.215,-0.032,0.030,19.493,-7.952,33.148
16:50:54:457,24.279,0.182,0.029,0.061,17.776,-8.529,30.343
16:50:54:482,24.304,0.089,0.105,0.099,15.466,-10.613,25.409
16:50:54:508,24.331,-0.011,0.030,0.084,14.100,-12.815,21.826
16:50:54:534,24.357,-0.054,-0.016,0.087,12.050,-16.961,16.394
16:50:54:56,24.383,-0.094,-0.041,0.094,9.856,-21.427,11.229
16:50:54:613,24.436,-0.331,0.074,0.049,5.533,-26.855,3.662
16:50:54:639,24.462,-0.412,0.108,0.050,3.859,-27.915,0.919
16:50:54:666,24.489,-0.415,0.102,0.157,1.324,-30.303,-2.670
16:50:54:692,24.515,-0.447,0.056,0.168,-0.186,-31.382,-4.693
16:50:54:718,24.541,-0.509,-0.026,0.171,-2.060,-31.899,-7.020
16:50:54:745,24.568,-0.488,-0.086,0.242,-3.443,-31.565,-8.313
16:50:54:771,24.594,-0.510,-0.012,0.214,-4.004,-31.008,-8.597
16:50:54:826,24.648,-0.511,0.047,0.230,-4.239,-29.477,-8.432
16:50:54:853,24.675,-0.522,0.038,0.178,-4.065,-27.995,-8.148
16:50:54:854,24.676,-0.534,-0.038,0.125,-3.344,-24.639,-7.824
16:50:54:876,24.699,-0.537,-0.089,0.105,-2.324,-20.599,-7.655
16:50:54:901,24.724,-0.587,-0.136,0.072,-1.654,-17.873,-7.553
16:50:54:928,24.751,-0.708,-0.199,0.171,-0.868,-14.800,-7.462
16:50:54:954,24.777,-0.722,-0.028,0.223,-0.533,-13.669,-7.377
16:50:54:981,24.804,-0.658,0.077,0.201,-0.046,-14.587,-7.056
16:50:55:036,24.859,-0.529,0.145,0.103,0.849,-16.613,-6.159
16:50:55:037,24.860,-0.466,0.154,0.086,1.698,-18.157,-5.084
16:50:55:06,24.883,-0.268,0.155,0.106,3.419,-20.608,-2.649
16:50:55:086,24.909,-0.107,0.087,0.104,4.888,-21.854,-0.443
16:50:55:112,24.935,-0.048,0.081,0.035,7.558,-22.264,3.687
16:50:55:168,24.991,0.060,0.121,0.024,10.364,-21.089,8.630
16:50:55:168,24.991,0.079,0.166,-0.009,12.139,-19.608,12.204
16:50:55:192,25.014,0.103,0.117,-0.013,14.389,-16.815,17.613
16:50:55:218,25.040,0.099,0.080,-0.034,15.698,-14.776,21.009
16:50:55:244,25.066,0.127,-0.020,-0.047,17.514,-11.895,25.477
16:50:55:269,25.092,0.194,-0.170,-0.103,19.238,-9.493,29.118
16:50:55:295,25.118,0.235,-0.199,-0.118,20.324,-8.062,31.144
16:50:55:322,25.145,0.321,-0.134,-0.155,21.847,-6.338,33.560
16:50:55:348,25.171,0.402,-0.043,-0.199,22.691,-5.350,34.684
16:50:55:375,25.198,0.421,-0.037,-0.242,23.452,-3.947,35.604
16:50:55:401,25.224,0.470,-0.003,-0.270,23.351,-2.516,35.575
16:50:55:427,25.250,0.409,-0.018,-0.315,22.654,-1.475,35.020
16:50:55:453,25.276,0.205,-0.192,-0.199,20.830,0.089,33.360
16:50:55:479,25.302,0.170,-0.151,-0.053,19.450,0.491,31.795
16:50:55:506,25.329,0.220,-0.017,0.031,17.611,-0.005,29.010
16:50:55:532,25.355,0.216,0.184,0.005,16.683,-1.178,26.982
16:50:55:589,25.411,0.185,0.180,-0.007,15.805,-4.029,23.743
16:50:55:59,25.412,0.142,0.039,-0.049,14.993,-7.392,20.447
16:50:55:642,25.465,0.097,-0.081,-0.026,14.285,-9.371,18.326
16:50:55:643,25.466,0.060,-0.137,0.045,12.987,-11.815,15.354
16:50:55:644,25.467,0.028,-0.124,0.131,12.019,-13.022,13.519
16:50:55:693,25.516,0.005,-0.089,0.179,10.512,-13.822,10.986
16:50:55:693,25.516,0.005,-0.062,0.205,9.160,-12.864,8.640
16:50:55:745,25.568,-0.200,-0.020,0.116,8.412,-11.103,7.144
16:50:55:746,25.569,-0.173,0.000,0.104,7.502,-8.271,4.803
16:50:55:795,25.618,-0.227,-0.008,0.120,7.032,-6.199,3.232
16:50:55:824,25.647,-0.281,-0.072,0.128,6.465,-2.666,1.001
16:50:55:825,25.648,-0.339,-0.105,0.168,5.962,0.952,-0.968
16:50:55:848,25.671,-0.382,-0.054,0.190,5.643,3.186,-2.178
16:50:55:874,25.697,-0.481,0.055,0.273,5.110,5.937,-3.952
16:50:55:927,25.749,-0.562,0.123,0.288,4.717,7.246,-5.156
16:50:55:957,25.779,-0.615,0.229,0.281,4.128,8.520,-6.924
16:50:55:957,25.779,-0.623,0.110,0.324,3.768,9.094,-7.980
16:50:56:007,25.830,-0.568,-0.014,0.371,3.291,9.442,-9.079
16:50:56:008,25.831,-0.422,-0.177,0.344,2.947,8.895,-9.201
16:50:56:03,25.853,-0.379,-0.156,0.300,2.916,8.263,-8.559
16:50:56:083,25.906,-0.314,0.076,0.189,3.888,6.812,-4.851
16:50:56:197,26.020,-0.254,0.169,0.192,5.083,6.592,-1.818
16:50:56:198,26.021,-0.138,0.196,0.197,6.626,7.066,1.457
16:50:56:215,26.038,0.004,0.092,0.109,10.532,11.238,10.438
16:50:56:355,26.178,0.077,0.076,0.049,12.077,13.265,14.610
16:50:56:355,26.178,0.087,0.000,-0.028,13.054,14.523,17.400
16:50:56:356,26.179,0.100,-0.046,-0.050,14.377,16.561,21.370
16:50:56:357,26.180,0.147,-0.053,-0.062,15.594,18.023,24.777
16:50:56:405,26.228,0.195,-0.044,-0.071,16.441,18.901,26.624
16:50:56:405,26.228,0.246,-0.086,-0.123,17.666,19.963,28.837
16:50:56:405,26.228,0.226,-0.160,-0.186,18.344,21.010,30.005
16:50:56:454,26.277,0.233,-0.158,-0.210,19.011,22.740,31.297
16:50:56:454,26.277,0.227,-0.098,-0.233,19.044,24.806,31.835
16:50:56:509,26.331,0.246,0.019,-0.237,18.749,26.108,31.642
16:50:56:509,26.331,0.258,0.205,-0.373,18.052,28.155,30.377
16:50:56:586,26.409,0.143,0.105,-0.329,17.318,29.475,28.916
16:50:56:586,26.409,0.028,-0.159,-0.197,15.951,32.050,26.077
16:50:56:612,26.435,0.082,-0.023,-0.085,15.037,33.217,23.994
16:50:56:687,26.510,0.135,0.078,-0.095,14.021,34.109,20.861
16:50:56:722,26.545,0.084,0.251,-0.045,13.572,33.977,17.808
16:50:56:723,26.546,0.036,0.162,-0.070,13.611,33.486,15.802
16:50:56:724,26.547,-0.013,0.008,-0.098,13.810,34.204,13.217
16:50:56:725,26.548,-0.054,-0.154,-0.091,13.934,35.291,11.930
16:50:56:796,26.619,-0.054,-0.185,-0.066,14.104,38.440,10.495
16:50:56:796,26.619,-0.100,-0.173,-0.007,14.304,41.670,9.504
16:50:56:907,26.729,-0.129,-0.154,0.023,14.396,44.844,8.980
16:50:56:907,26.729,-0.181,-0.116,0.094,14.475,49.457,8.241
16:50:56:908,26.730,-0.215,-0.079,0.156,14.511,52.823,7.675
16:50:56:909,26.731,-0.209,-0.034,0.288,14.598,56.872,6.471
16:50:56:953,26.775,-0.127,-0.124,0.313,14.606,60.308,4.792
16:50:56:954,26.776,-0.141,-0.166,0.352,14.526,61.688,3.536
16:50:56:978,26.801,-0.109,-0.127,0.467,14.115,62.862,1.329
16:50:56:979,26.802,-0.047,0.013,0.573,13.631,62.557,-0.427
16:50:57:002,26.825,-0.074,0.093,0.575,12.638,61.107,-3.305
16:50:57:057,26.880,-0.180,0.254,0.619,11.859,59.741,-5.211
16:50:57:058,26.881,-0.190,0.237,0.686,10.714,57.998,-7.685
16:50:57:249,27.072,-0.078,0.080,0.669,9.724,55.366,-9.152
16:50:57:249,27.072,-0.053,0.054,0.579,9.383,53.753,-9.214
16:50:57:25,27.073,-0.066,0.152,0.362,9.755,51.547,-7.868
16:50:57:379,27.202,-0.077,0.205,0.238,12.445,50.698,-2.870
16:50:57:379,27.202,-0.057,0.210,0.182,14.680,51.675,1.126
16:50:57:38,27.203,-0.019,0.175,0.159,16.196,52.848,4.098
16:50:57:381,27.204,-0.016,0.113,0.099,18.389,54.967,8.920
16:50:57:405,27.228,-0.017,0.062,0.056,19.815,56.148,12.232
16:50:57:405,27.228,-0.033,0.008,-0.041,22.026,57.313,17.062
16:50:57:406,27.229,-0.042,-0.030,-0.139,24.402,57.761,21.475
16:50:57:407,27.230,-0.052,-0.043,-0.200,26.058,57.650,24.045
16:50:57:425,27.248,-0.029,-0.071,-0.255,28.526,57.257,27.209
16:50:57:426,27.249,-0.016,-0.094,-0.292,30.096,56.898,28.860
16:50:57:448,27.271,-0.001,-0.120,-0.344,32.147,56.934,30.805
16:50:57:474,27.297,-0.024,-0.112,-0.410,33.243,57.066,31.831
16:50:57:53,27.353,-0.021,-0.111,-0.499,34.463,57.780,33.056
16:50:57:531,27.354,-0.011,-0.182,-0.609,34.976,58.946,34.020
16:50:57:583,27.406,-0.029,-0.292,-0.708,34.628,60.639,34.641
16:50:57:583,27.406,-0.062,-0.232,-0.890,32.841,64.251,35.388
16:50:57:69,27.512,-0.115,-0.136,-0.973,30.815,67.486,35.503
16:50:57:691,27.513,-0.212,-0.322,-0.751,26.668,73.456,34.824
16:50:57:746,27.569,-0.333,0.028,-0.509,21.377,80.978,33.104
16:50:57:747,27.570,-0.297,0.177,-0.367,18.298,85.816,31.095
16:50:57:747,27.570,-0.143,0.335,-0.342,15.685,90.390,26.815
16:50:57:748,27.571,-0.160,0.360,-0.142,14.986,91.844,23.389
16:50:57:824,27.647,-0.194,0.304,0.008,14.966,91.727,17.626
16:50:57:825,27.648,-0.220,0.125,0.104,15.270,90.136,13.413
16:50:57:826,27.649,-0.194,0.039,0.169,15.416,86.742,6.909
16:50:57:827,27.650,-0.151,0.003,0.250,14.959,83.954,0.700
16:50:57:874,27.697,-0.121,-0.003,0.287,14.414,82.990,-3.101
16:50:57:874,27.697,-0.076,-0.021,0.397,13.624,83.555,-8.106
16:50:57:894,27.717,-0.063,-0.075,0.509,13.362,85.330,-10.936
16:50:57:921,27.744,-0.001,-0.037,0.462,13.453,89.855,-14.301
16:50:57:947,27.770,0.010,-0.124,0.611,14.981,97.764,-16.199
16:50:58:003,27.826,-0.039,-0.351,0.690,16.777,104.299,-16.618
16:50:58:003,27.826,0.172,-0.473,0.840,19.718,114.458,-16.181
16:50:58:026,27.849,0.439,-0.411,0.928,21.195,120.275,-15.572
16:50:58:053,27.876,0.571,-0.308,0.984,22.187,126.478,-14.677
16:50:58:079,27.902,0.611,-0.250,1.004,22.143,129.002,-14.121
16:50:58:135,27.957,0.618,-0.136,0.905,20.939,130.604,-13.269
16:50:58:135,27.957,0.559,0.011,0.769,18.618,128.079,-12.266
16:50:58:186,28.009,0.488,0.014,0.699,16.791,124.646,-11.279
16:50:58:187,28.010,0.304,0.220,0.629,14.374,117.830,-8.941
16:50:58:209,28.032,0.118,0.439,0.563,13.330,112.826,-6.738
16:50:58:265,28.088,-0.023,0.565,0.457,12.939,105.376,-2.719
16:50:58:265,28.088,-0.126,0.688,0.191,14.136,98.449,1.710
16:50:58:346,28.169,-0.141,0.687,-0.046,15.773,94.512,4.813
16:50:58:347,28.170,-0.181,0.531,-0.228,19.169,90.747,10.098
16:50:58:348,28.171,-0.227,0.446,-0.303,21.801,89.911,14.274
16:50:58:367,28.190,-0.294,0.288,-0.375,25.939,90.576,21.486
16:50:58:394,28.217,-0.323,0.154,-0.437,30.078,92.786,29.525
16:50:58:42,28.243,-0.337,0.073,-0.503,32.820,94.634,35.026
16:50:58:447,28.270,-0.344,-0.074,-0.521,37.042,97.465,42.978
16:50:58:473,28.295,-0.330,-0.164,-0.512,40.023,99.103,47.779
16:50:58:499,28.321,-0.299,-0.289,-0.557,44.906,100.899,53.798
16:50:58:525,28.347,-0.278,-0.423,-0.570,48.159,101.752,56.924
16:50:58:55,28.373,-0.260,-0.494,-0.544,52.425,102.910,60.647
16:50:58:577,28.400,-0.258,-0.508,-0.538,55.438,103.749,62.943
16:50:58:603,28.426,-0.223,-0.495,-0.515,56.609,104.063,63.568
16:50:58:629,28.452,-0.234,-0.527,-0.546,56.960,104.238,63.161
16:50:58:657,28.480,-0.366,-0.492,-0.496,56.040,104.404,62.057
16:50:58:682,28.505,-0.394,-0.464,-0.461,53.010,104.685,59.087
16:50:58:708,28.531,-0.431,-0.365,-0.457,48.503,104.920,54.667
16:50:58:735,28.558,-0.467,-0.222,-0.440,44.918,105.179,51.052
16:50:58:761,28.584,-0.533,0.047,-0.403,39.316,105.668,44.719
16:50:58:787,28.610,-0.551,0.170,-0.366,35.754,106.028,40.021
16:50:58:814,28.637,-0.523,0.231,-0.194,30.735,107.066,32.806
16:50:58:841,28.664,-0.472,0.272,-0.008,27.626,108.397,28.257
16:50:58:867,28.689,-0.326,0.173,0.213,23.852,110.380,21.728
16:50:58:893,28.715,-0.174,0.240,0.293,20.917,111.214,15.526
16:50:58:918,28.741,-0.086,0.266,0.353,19.164,111.510,11.833
16:50:58:973,28.796,-0.024,0.227,0.430,16.791,112.277,7.159
16:50:58:974,28.797,0.018,0.171,0.508,15.370,113.211,4.609
16:50:58:997,28.820,0.098,0.135,0.544,13.470,115.265,1.399
16:50:59:082,28.904,0.229,0.034,0.546,11.792,117.876,-1.288
16:50:59:083,28.905,0.296,-0.073,0.506,10.803,119.880,-2.807
16:50:59:084,28.906,0.385,-0.125,0.499,9.432,122.948,-4.722
16:50:59:188,29.011,0.455,-0.136,0.489,8.487,124.730,-5.797
16:50:59:189,29.012,0.629,-0.095,0.510,6.878,126.316,-7.215
16:50:59:189,29.012,0.751,0.004,0.465,5.621,126.433,-8.037
16:50:59:21,29.033,0.821,0.004,0.456,3.588,125.325,-8.874
16:50:59:211,29.034,0.874,0.032,0.312,1.758,122.567,-8.968
16:50:59:292,29.114,0.883,0.052,0.214,0.940,119.822,-8.395
16:50:59:293,29.115,0.636,0.154,-0.084,0.730,115.241,-6.481
16:50:59:293,29.115,0.387,0.245,-0.128,1.576,113.265,-4.797
16:50:59:312,29.134,0.249,0.308,-0.162,4.111,112.361,-2.056
16:50:59:338,29.161,0.170,0.316,-0.176,7.644,113.319,0.998
16:50:59:365,29.188,0.130,0.287,-0.154,10.335,114.817,3.399
16:50:59:391,29.214,0.128,0.258,-0.090,14.541,118.193,7.770
16:50:59:417,29.240,0.039,0.250,-0.061,17.342,120.853,11.187
16:50:59:443,29.266,-0.088,0.178,-0.144,21.420,124.711,16.766
16:50:59:47,29.293,-0.151,0.044,-0.114,25.462,128.639,22.696
16:50:59:495,29.318,-0.219,-0.019,-0.080,27.995,131.354,26.555
16:50:59:553,29.376,-0.348,-0.111,0.013,31.491,135.239,31.769
16:50:59:553,29.376,-0.417,-0.094,0.061,33.609,137.747,34.731
16:50:59:604,29.427,-0.568,-0.145,0.073,36.557,141.134,38.303
16:50:59:604,29.427,-0.690,-0.251,0.059,39.100,144.544,41.229
16:50:59:628,29.451,-0.810,-0.357,0.071,40.423,147.058,43.079
16:50:59:654,29.477,-0.995,-0.443,0.110,41.278,151.530,45.952
16:50:59:68,29.503,-0.984,-0.465,0.056,40.805,154.810,47.744
16:50:59:706,29.529,-1.058,-0.413,-0.097,39.003,158.914,49.274
16:50:59:761,29.583,-0.931,-0.256,0.052,37.365,160.823,49.188
16:50:59:762,29.584,-0.784,-0.285,0.118,34.438,162.918,47.528
16:50:59:785,29.607,-0.664,-0.188,0.074,31.113,164.007,44.000
16:50:59:813,29.635,-0.654,0.005,0.023,29.050,164.088,40.912
16:50:59:837,29.660,-0.644,0.110,0.043,26.747,163.039,35.572
16:50:59:863,29.686,-0.529,0.183,0.135,25.392,161.828,31.675
16:50:59:889,29.712,-0.345,0.228,0.221,23.256,159.927,25.468
16:50:59:916,29.739,-0.171,0.187,0.195,20.971,157.992,18.898
16:50:59:945,29.768,-0.055,0.190,0.149,19.312,157.023,14.413
16:50:59:968,29.791,0.141,0.214,0.123,16.723,156.523,7.680
16:50:59:995,29.818,0.286,0.220,0.131,15.019,156.749,3.299
16:51:00:021,29.844,0.441,0.190,0.128,12.614,158.079,-2.898
16:51:00:047,29.870,0.705,0.099,0.051,11.223,159.500,-6.692
16:51:00:078,29.901,0.796,-0.017,-0.055,9.369,161.373,-11.732
16:51:00:078,29.901,0.846,-0.180,-0.198,7.483,162.143,-15.634
16:51:00:13,29.952,0.818,-0.250,-0.277,6.115,162.005,-17.403
16:51:00:13,29.952,0.784,-0.277,-0.356,4.075,161.037,-18.739
16:51:00:153,29.975,0.801,-0.257,-0.369,2.855,160.045,-18.917
16:51:00:236,30.059,0.826,-0.204,-0.303,1.619,158.714,-18.509
16:51:00:237,30.060,0.911,-0.022,-0.136,1.294,157.529,-17.714
16:51:00:238,30.061,0.900,0.008,-0.127,1.587,157.016,-16.976
16:51:00:257,30.080,0.749,0.058,-0.145,2.615,155.384,-15.179
16:51:00:283,30.106,0.629,0.176,-0.088,3.836,153.978,-13.447
16:51:00:339,30.161,0.473,0.376,-0.013,6.636,151.814,-10.066
16:51:00:34,30.162,0.302,0.562,0.008,10.343,150.333,-6.010
16:51:00:392,30.214,0.166,0.613,0.006,13.257,150.246,-2.775
16:51:00:392,30.214,-0.029,0.637,0.024,17.945,152.064,3.309
16:51:00:473,30.296,-0.212,0.556,0.083,20.998,154.584,8.384
16:51:00:473,30.296,-0.323,0.398,0.165,25.056,159.857,17.472
16:51:00:474,30.297,-0.397,0.197,0.261,27.379,163.666,24.047
16:51:00:493,30.316,-0.456,0.090,0.276,30.688,168.485,33.639
16:51:00:519,30.342,-0.503,-0.094,0.272,34.577,171.589,42.104
16:51:00:547,30.370,-0.532,-0.191,0.256,37.692,172.860,46.974
16:51:00:574,30.397,-0.540,-0.329,0.246,42.886,174.046,53.059
16:51:00:599,30.422,-0.565,-0.401,0.208,46.430,174.312,56.307
16:51:00:625,30.447,-0.596,-0.514,0.165,51.147,174.931,60.093
16:51:00:652,30.474,-0.642,-0.576,0.148,54.378,174.943,62.634
16:51:00:703,30.526,-0.755,-0.455,0.166,55.534,174.803,63.532
16:51:00:73,30.552,-0.734,-0.481,0.109,54.767,174.422,62.627
16:51:00:756,30.578,-0.830,-0.459,0.107,52.574,173.029,60.301
16:51:00:783,30.605,-0.846,-0.384,0.202,50.423,172.439,58.254
16:51:00:808,30.631,-0.759,-0.325,0.211,46.234,170.990,54.313
16:51:00:836,30.659,-0.726,-0.170,0.157,41.350,169.826,49.296
16:51:00:863,30.686,-0.705,0.024,0.150,38.064,168.858,45.494
16:51:00:888,30.711,-0.646,0.138,0.161,33.523,167.419,39.280
16:51:00:943,30.765,-0.549,0.156,0.161,30.720,166.405,34.887
16:51:00:944,30.766,-0.437,0.200,0.178,26.603,165.168,28.113
16:51:00:995,30.817,-0.216,0.234,0.174,22.571,164.627,21.276
16:51:00:996,30.818,-0.079,0.246,0.134,20.022,164.630,16.673
16:51:01:018,30.841,0.274,0.336,0.119,16.323,165.629,9.878
16:51:01:045,30.868,0.419,0.325,0.111,14.119,166.782,5.441
16:51:01:07,30.893,0.494,0.323,0.070,11.266,167.647,-1.143
16:51:01:097,30.920,0.746,0.221,-0.007,8.600,167.367,-6.886
16:51:01:123,30.946,0.837,0.106,-0.034,6.738,166.557,-9.948
16:51:01:15,30.973,0.765,-0.067,-0.102,3.810,163.959,-13.049
16:51:01:177,31.000,0.623,-0.194,-0.187,1.927,162.718,-14.129
16:51:01:203,31.026,0.595,-0.209,-0.240,-0.339,160.991,-14.564
16:51:01:228,31.051,0.614,-0.182,-0.296,-1.372,160.644,-14.311
16:51:01:255,31.078,0.663,-0.161,-0.332,-2.133,160.855,-13.564
16:51:01:281,31.104,0.707,-0.101,-0.293,-2.054,162.048,-12.587
16:51:01:308,31.130,0.751,-0.025,-0.258,-1.589,163.173,-11.786
16:51:01:334,31.156,0.764,-0.006,-0.334,-0.496,164.529,-10.240
16:51:01:36,31.182,0.690,-0.017,-0.391,0.394,164.704,-8.837
16:51:01:385,31.208,0.544,0.170,-0.272,2.192,163.854,-6.012
16:51:01:412,31.235,0.385,0.409,-0.147,4.741,162.242,-2.499
16:51:01:438,31.261,0.214,0.530,-0.085,6.923,160.996,0.105
16:51:01:465,31.288,0.005,0.541,-0.038,10.843,159.640,4.387
16:51:01:491,31.314,-0.143,0.398,0.018,13.780,159.636,7.601
16:51:01:517,31.340,-0.204,0.254,0.065,18.226,161.443,13.297
16:51:01:543,31.366,-0.252,0.188,0.119,20.977,163.675,17.695
16:51:01:57,31.393,-0.311,0.114,0.158,24.635,167.695,24.806
16:51:01:598,31.421,-0.343,0.002,0.230,27.864,171.744,31.855
16:51:01:624,31.447,-0.369,-0.045,0.256,29.897,174.112,36.130
16:51:01:65,31.473,-0.472,-0.037,0.340,33.111,176.791,41.512
16:51:01:676,31.498,-0.529,-0.170,0.416,35.368,178.033,44.381
16:51:01:701,31.523,-0.523,-0.237,0.426,38.543,179.554,47.785
16:51:01:728,31.550,-0.572,-0.339,0.396,41.407,-179.650,50.271
16:51:01:753,31.576,-0.571,-0.407,0.371,42.995,-179.110,51.588
16:51:01:78,31.603,-0.613,-0.430,0.418,44.528,-178.670,53.178
16:51:01:806,31.629,-0.629,-0.412,0.408,44.952,-178.304,53.932
16:51:01:833,31.656,-0.771,-0.332,0.374,44.873,-178.578,54.243
16:51:01:858,31.681,-0.576,-0.354,0.330,43.725,-179.368,53.235
16:51:01:884,31.707,-0.478,-0.399,0.264,42.335,179.868,51.771
16:51:01:911,31.734,-0.439,-0.347,0.110,39.707,177.556,48.546
16:51:01:937,31.760,-0.494,-0.107,0.129,37.775,176.020,45.888
16:51:01:963,31.786,-0.490,0.039,0.129,35.112,172.676,41.106
16:51:01:99,31.813,-0.513,0.111,0.131,32.789,168.629,35.387
16:51:02:016,31.839,-0.500,0.062,0.116,31.146,165.854,31.387
16:51:02:043,31.866,-0.372,0.003,0.074,28.200,162.598,25.779
16:51:02:068,31.891,-0.287,0.020,0.037,25.982,161.212,22.480
16:51:02:154,31.977,-0.123,0.061,-0.010,22.505,160.074,18.074
16:51:02:154,31.977,-0.005,0.083,-0.016,20.267,159.719,15.397
16:51:02:155,31.978,0.041,0.116,-0.058,17.110,159.429,11.572
16:51:02:202,32.025,0.154,0.118,-0.025,14.298,159.424,8.040
16:51:02:203,32.026,0.231,0.128,-0.034,12.599,159.470,5.836
16:51:02:226,32.049,0.317,0.081,-0.056,10.286,159.708,2.879
16:51:02:252,32.075,0.385,-0.001,-0.090,8.870,159.899,1.207
16:51:02:279,32.101,0.421,-0.032,-0.115,6.967,159.616,-0.804
16:51:02:338,32.160,0.477,0.034,-0.152,5.340,159.665,-2.173
16:51:02:339,32.161,0.526,0.093,-0.201,4.455,159.018,-2.752
16:51:02:34,32.162,0.534,0.105,-0.234,3.485,158.639,-3.186
16:51:02:386,32.209,0.489,0.081,-0.171,3.149,158.332,-3.173
16:51:02:387,32.210,0.475,0.106,-0.156,3.180,158.855,-2.698
16:51:02:41,32.233,0.422,0.125,-0.197,3.840,159.865,-1.674
16:51:02:436,32.259,0.376,0.130,-0.216,4.608,160.753,-0.640
16:51:02:462,32.285,0.301,0.120,-0.121,6.171,162.513,1.484
16:51:02:489,32.312,0.264,0.158,-0.080,7.432,163.847,3.263
16:51:02:544,32.367,0.151,0.266,-0.042,9.527,165.545,6.448
16:51:02:545,32.368,0.092,0.316,-0.047,11.079,166.479,8.861
16:51:02:597,32.420,-0.042,0.337,-0.049,13.719,167.689,12.862
16:51:02:597,32.420,-0.260,0.248,-0.009,16.709,168.637,17.210
16:51:02:62,32.443,-0.271,0.171,0.025,18.900,169.630,20.579
16:51:02:675,32.497,-0.342,0.050,0.094,22.037,172.080,26.230
16:51:02:676,32.498,-0.387,-0.036,0.141,24.023,173.816,30.108
16:51:02:7,32.522,-0.396,-0.121,0.169,26.875,176.568,35.813
16:51:02:725,32.548,-0.448,-0.200,0.202,29.622,179.169,40.832
16:51:02:751,32.574,-0.407,-0.191,0.222,31.391,-179.186,43.710
16:51:02:777,32.600,-0.404,-0.224,0.261,33.869,-176.724,47.302
16:51:02:804,32.627,-0.429,-0.293,0.265,35.322,-175.414,49.159
16:51:02:831,32.654,-0.458,-0.372,0.280,36.917,-173.083,51.300
16:51:02:857,32.679,-0.514,-0.313,0.326,37.448,-171.734,52.336
16:51:02:882,32.704,-0.521,-0.268,0.360,37.266,-169.625,53.131
16:51:02:909,32.731,-0.510,-0.207,0.366,35.995,-168.400,52.713
16:51:02:934,32.757,-0.527,-0.170,0.368,34.692,-167.806,51.698
16:51:02:96,32.783,-0.499,-0.127,0.385,32.103,-167.634,49.137
16:51:02:988,32.811,-0.336,-0.162,0.305,30.070,-167.804,46.774
16:51:03:014,32.837,-0.336,-0.096,0.225,27.053,-169.275,42.419
16:51:03:068,32.891,-0.329,0.038,0.153,24.494,-171.549,37.452
16:51:03:069,32.892,-0.348,0.160,0.112,23.220,-173.914,33.969
16:51:03:122,32.945,-0.297,0.160,0.088,21.856,-178.031,28.723
16:51:03:148,32.971,-0.204,0.066,0.091,21.010,179.031,25.377
16:51:03:148,32.971,-0.141,-0.037,0.060,19.543,175.090,20.867
16:51:03:495,33.318,-0.108,-0.107,-0.012,17.802,172.014,17.034
16:51:03:495,33.318,-0.096,-0.108,-0.054,16.530,170.694,14.844
16:51:03:496,33.319,-0.046,-0.058,-0.077,14.559,170.078,12.009
16:51:03:497,33.320,0.045,-0.001,-0.096,13.292,170.551,10.363
16:51:03:6,33.423,0.134,0.039,-0.136,11.608,172.151,8.082
16:51:03:601,33.424,0.152,0.036,-0.182,10.644,173.565,6.708
16:51:03:601,33.424,0.171,-0.005,-0.192,9.465,176.228,5.015
16:51:03:618,33.441,0.218,-0.092,-0.234,8.129,-178.640,3.518
16:51:03:653,33.476,0.224,-0.003,-0.257,7.631,-175.849,3.402
16:51:03:653,33.476,0.227,0.128,-0.281,7.409,-174.256,3.577
16:51:03:679,33.502,0.128,0.156,-0.287,7.535,-169.549,5.421
16:51:03:68,33.503,0.071,0.154,-0.301,8.118,-167.794,6.725
16:51:03:681,33.504,0.017,0.163,-0.282,8.727,-166.599,7.879
16:51:03:681,33.504,-0.021,0.222,-0.139,10.003,-164.554,10.125
16:51:03:705,33.528,-0.066,0.249,-0.068,11.050,-162.971,11.962
16:51:03:726,33.549,-0.225,0.025,0.035,18.094,-153.990,25.654
16:51:03:749,33.572,-0.244,-0.067,0.082,19.420,-152.560,28.401
16:51:03:775,33.597,-0.257,-0.107,0.119,21.477,-150.734,32.409
16:51:03:803,33.625,-0.256,-0.162,0.188,23.583,-149.267,36.076
16:51:03:828,33.650,-0.251,-0.184,0.220,24.946,-148.559,38.195
16:51:03:854,33.677,-0.251,-0.216,0.239,26.797,-147.642,40.728
16:51:03:879,33.702,-0.249,-0.234,0.267,27.827,-147.562,41.917
16:51:03:905,33.728,-0.239,-0.254,0.270,28.958,-147.013,42.948
16:51:03:932,33.755,-0.234,-0.234,0.292,28.313,-147.616,41.588
16:51:03:959,33.782,-0.243,-0.207,0.323,28.004,-147.527,40.579
16:51:03:985,33.808,-0.261,-0.117,0.406,27.470,-147.264,39.641
16:51:04:013,33.836,-0.265,-0.046,0.421,26.762,-146.979,38.719
16:51:04:066,33.889,-0.251,0.006,0.406,25.283,-146.645,36.852
16:51:04:067,33.890,-0.260,0.084,0.436,24.030,-146.405,35.290
16:51:04:089,33.912,-0.156,0.090,0.352,21.672,-145.866,32.484
16:51:04:116,33.939,-0.090,-0.012,0.156,19.259,-145.618,29.178
16:51:04:142,33.965,-0.157,0.000,0.108,17.865,-145.801,26.898
16:51:04:169,33.992,-0.199,0.139,0.095,16.210,-146.308,23.739
16:51:04:195,34.018,-0.168,0.181,0.146,15.388,-146.652,21.895
16:51:04:222,34.045,-0.115,0.162,0.129,14.282,-146.959,19.543
16:51:04:247,34.070,-0.103,0.008,0.069,13.242,-146.836,17.603
16:51:04:274,34.097,-0.086,-0.058,0.030,12.498,-146.465,16.597
16:51:04:329,34.151,-0.016,-0.128,-0.058,11.317,-145.181,15.307
16:51:04:33,34.152,0.006,-0.152,-0.139,10.487,-144.294,14.458
16:51:04:382,34.204,0.009,-0.189,-0.195,9.324,-143.176,13.149
16:51:04:382,34.205,0.043,-0.194,-0.196,8.605,-142.561,12.261
16:51:04:405,34.228,0.081,-0.138,-0.244,7.641,-142.290,10.900
16:51:04:431,34.254,-0.004,-0.042,-0.213,6.766,-143.342,9.698
16:51:04:538,34.360,-0.011,-0.026,-0.215,6.212,-144.159,9.077
16:51:04:625,34.448,-0.066,-0.066,-0.259,5.428,-145.497,8.485
16:51:04:625,34.448,-0.106,-0.037,-0.235,4.914,-146.196,8.331
16:51:04:626,34.449,-0.116,0.024,-0.245,4.151,-146.617,8.316
16:51:04:626,34.449,-0.125,0.082,-0.348,3.441,-146.301,8.263
16:51:04:755,34.578,-0.138,0.115,-0.384,3.024,-145.866,8.125
16:51:04:756,34.579,-0.127,0.165,-0.381,2.612,-144.969,7.715
16:51:04:757,34.580,-0.097,0.163,-0.384,2.535,-144.265,7.404
16:51:04:782,34.605,-0.120,0.110,-0.330,3.301,-142.988,6.966
16:51:04:782,34.605,-0.095,0.105,-0.246,4.413,-142.225,7.316
16:51:04:783,34.606,-0.031,0.111,-0.167,5.917,-141.118,8.312
16:51:04:784,34.607,-0.038,0.130,-0.132,7.082,-140.309,9.330
16:51:04:802,34.625,-0.040,0.131,-0.106,8.980,-138.894,11.345
16:51:04:803,34.626,-0.060,0.082,-0.137,10.296,-138.020,12.979
16:51:04:854,34.677,-0.096,0.069,-0.088,12.429,-137.127,15.794
16:51:04:855,34.678,-0.074,0.059,0.043,14.017,-136.710,17.901
16:51:04:877,34.700,0.001,0.075,0.153,16.620,-136.040,21.391
16:51:04:904,34.727,-0.084,0.104,0.304,19.405,-135.488,24.989
16:51:04:93,34.752,-0.066,0.091,0.368,21.316,-134.882,27.479
16:51:04:956,34.778,-0.084,0.031,0.408,24.059,-133.399,31.265
16:51:05:011,34.834,-0.084,-0.050,0.414,26.309,-131.226,34.960
16:51:05:012,34.835,-0.099,-0.080,0.415,27.429,-129.380,37.301
16:51:05:036,34.859,-0.099,-0.176,0.400,28.544,-126.849,40.465
16:51:05:061,34.884,-0.118,-0.201,0.405,28.924,-124.996,42.269
16:51:05:087,34.910,-0.129,-0.174,0.464,29.098,-123.108,44.315
16:51:05:113,34.936,-0.136,-0.137,0.470,28.983,-121.772,45.090
16:51:05:139,34.962,-0.138,-0.151,0.483,28.546,-120.842,45.238
16:51:05:167,34.990,-0.112,-0.137,0.532,27.490,-119.846,44.251
16:51:05:193,35.016,-0.046,-0.134,0.515,26.309,-119.159,43.033
16:51:05:219,35.042,-0.051,-0.191,0.387,24.113,-117.949,40.504
16:51:05:245,35.068,-0.100,-0.135,0.370,22.526,-117.142,38.504
16:51:05:271,35.094,-0.097,-0.053,0.366,20.048,-115.621,35.308
16:51:05:324,35.146,-0.067,0.058,0.338,17.707,-113.939,31.899
16:51:05:353,35.175,-0.039,0.081,0.291,16.247,-112.705,29.517
16:51:05:354,35.176,0.017,0.021,0.171,14.165,-110.737,25.839
16:51:05:376,35.199,0.002,-0.072,0.070,12.920,-109.415,23.369
16:51:05:403,35.226,-0.026,-0.060,0.013,11.239,-107.634,19.715
16:51:05:457,35.280,-0.036,-0.012,-0.062,10.223,-106.581,17.325
16:51:05:458,35.281,-0.042,0.023,-0.100,8.804,-105.159,13.810
16:51:05:569,35.392,-0.035,0.060,-0.167,7.480,-103.790,10.425
16:51:05:57,35.393,-0.061,0.074,-0.217,6.650,-103.049,8.268
16:51:05:57,35.393,-0.154,0.074,-0.341,5.499,-102.223,5.249
16:51:05:571,35.394,-0.204,-0.006,-0.328,4.784,-102.131,3.525
16:51:05:586,35.409,-0.198,-0.100,-0.296,3.753,-101.917,1.609
16:51:05:612,35.435,-0.220,-0.075,-0.289,2.798,-101.157,0.560
16:51:05:639,35.462,-0.257,-0.025,-0.317,2.201,-100.768,0.236
16:51:05:665,35.487,-0.312,0.009,-0.374,1.355,-99.676,0.099
16:51:05:691,35.513,-0.315,0.001,-0.396,0.840,-99.156,0.097
16:51:05:718,35.540,-0.305,-0.071,-0.385,0.199,-97.989,0.130
16:51:05:744,35.567,-0.309,-0.092,-0.403,-0.076,-97.447,0.236
16:51:05:769,35.592,-0.342,-0.020,-0.416,-0.158,-96.978,0.682
16:51:05:795,35.618,-0.385,0.222,-0.387,0.208,-97.870,1.411
16:51:05:881,35.704,-0.364,0.313,-0.337,0.894,-98.569,2.022
16:51:05:882,35.705,-0.212,0.315,-0.211,2.501,-99.406,3.196
16:51:05:882,35.705,-0.167,0.217,-0.097,3.892,-99.070,4.345
16:51:05:902,35.725,-0.170,0.140,0.057,6.323,-97.624,7.014
16:51:05:958,35.780,-0.151,0.119,0.121,8.878,-94.755,11.007
16:51:05:959,35.781,-0.106,0.102,0.187,10.490,-92.370,14.389
16:51:06:008,35.831,-0.035,0.102,0.193,12.486,-87.967,20.348
16:51:06:009,35.832,0.007,0.123,0.262,13.507,-85.002,24.606
16:51:06:032,35.855,0.026,0.092,0.295,14.871,-81.289,30.801
16:51:06:059,35.882,0.043,-0.010,0.361,16.501,-78.892,36.120
16:51:06:085,35.908,0.051,-0.089,0.373,17.825,-77.767,39.049
16:51:06:111,35.934,0.077,-0.234,0.373,19.940,-76.436,42.482
16:51:06:137,35.960,0.116,-0.328,0.375,21.233,-75.676,44.150
16:51:06:163,35.986,0.115,-0.352,0.380,22.706,-74.591,45.762
16:51:06:19,36.013,0.139,-0.316,0.392,23.272,-73.902,46.234
16:51:06:216,36.039,0.162,-0.245,0.407,23.431,-72.936,45.924
16:51:06:271,36.094,0.189,-0.218,0.360,22.879,-71.563,44.359
16:51:06:272,36.095,0.202,-0.197,0.377,22.221,-71.051,42.687
16:51:06:325,36.148,0.294,-0.074,0.339,20.695,-69.383,39.342
16:51:06:325,36.148,0.280,-0.037,0.266,19.400,-68.546,36.631
16:51:06:405,36.228,0.214,-0.006,0.228,17.371,-67.000,32.048
16:51:06:406,36.229,0.123,0.164,0.234,15.342,-65.437,27.282
16:51:06:407,36.230,0.103,0.289,0.263,14.162,-64.616,24.192
16:51:06:485,36.307,0.086,0.280,0.175,12.729,-63.423,19.943
16:51:06:485,36.307,0.066,0.132,0.029,11.862,-62.721,17.429
16:51:06:533,36.355,-0.051,-0.064,-0.065,9.638,-59.989,11.311
16:51:06:559,36.382,-0.090,-0.082,-0.097,9.040,-58.985,9.645
16:51:06:56,36.383,-0.110,-0.074,-0.143,8.235,-57.831,7.352
16:51:06:583,36.406,-0.137,-0.073,-0.135,7.760,-56.499,6.044
16:51:06:609,36.432,-0.194,-0.059,-0.152,7.048,-54.735,4.246
16:51:06:636,36.459,-0.313,-0.040,-0.142,6.166,-52.224,2.203
16:51:06:662,36.485,-0.340,-0.068,-0.131,5.536,-50.702,0.887
16:51:06:688,36.511,-0.348,-0.160,-0.129,4.469,-47.858,-0.926
16:51:06:744,36.567,-0.523,-0.127,-0.266,3.732,-46.256,-2.016
16:51:06:745,36.568,-0.514,-0.010,-0.088,2.659,-45.511,-3.611
16:51:06:799,36.622,-0.635,0.100,-0.047,1.480,-46.591,-4.448
16:51:06:8,36.623,-0.681,0.120,-0.019,-0.425,-48.250,-5.339
16:51:06:801,36.624,-0.677,0.083,-0.035,-2.403,-50.204,-5.583
16:51:06:934,36.757,-0.697,0.065,0.070,-3.507,-51.963,-5.317
16:51:06:934,36.757,-0.610,0.033,0.251,-4.399,-54.691,-4.254
16:51:06:952,36.775,-0.291,0.152,0.193,-0.947,-54.864,1.152
16:51:07:009,36.832,-0.271,0.140,0.198,0.772,-53.712,3.073
16:51:07:01,36.833,-0.225,0.159,0.200,3.578,-51.372,6.449
16:51:07:01,36.833,-0.186,0.117,0.185,5.505,-49.630,9.006
16:51:07:029,36.852,-0.107,0.059,0.219,8.392,-47.242,13.218
16:51:07:056,36.879,-0.010,0.004,0.197,10.229,-45.275,16.292
16:51:07:113,36.936,0.070,-0.039,0.173,12.446,-41.689,20.948
16:51:07:113,36.936,0.110,-0.112,0.077,14.119,-38.065,25.373
16:51:07:135,36.958,0.149,-0.114,0.031,15.022,-35.712,27.957
16:51:07:161,36.984,0.215,-0.086,-0.011,16.262,-32.826,30.941
16:51:07:188,37.011,0.305,-0.070,-0.049,17.152,-31.428,32.259
16:51:07:214,37.037,0.343,-0.076,-0.054,18.589,-30.017,33.286
16:51:07:241,37.064,0.384,-0.079,-0.062,19.894,-28.895,33.414
16:51:07:266,37.089,0.430,-0.034,-0.062,20.498,-28.177,33.181
16:51:07:292,37.115,0.396,0.000,-0.071,20.924,-27.028,32.488
16:51:07:348,37.171,0.375,0.012,-0.039,20.979,-26.422,31.796
16:51:07:348,37.171,0.396,0.094,-0.020,20.706,-25.809,30.407
16:51:07:4,37.223,0.228,-0.017,-0.040,20.204,-25.458,29.230
16:51:07:401,37.224,0.152,-0.083,-0.019,19.060,-25.276,27.076
16:51:07:512,37.334,0.106,-0.056,0.064,17.776,-25.705,24.656
16:51:07:513,37.335,0.126,0.055,0.095,16.959,-26.324,23.040
16:51:07:513,37.335,0.109,0.119,0.099,15.880,-27.701,20.666
16:51:07:514,37.336,0.094,0.056,0.061,15.202,-28.742,19.143
16:51:07:529,37.351,0.056,-0.057,0.048,14.088,-30.000,17.040
16:51:07:554,37.377,-0.004,-0.165,0.073,12.851,-30.708,15.172
16:51:07:58,37.403,-0.031,-0.171,0.090,12.008,-30.894,14.044
16:51:07:608,37.431,-0.063,-0.135,0.103,10.811,-30.570,12.453
16:51:07:634,37.457,-0.058,-0.130,0.063,10.093,-29.885,11.374
16:51:07:661,37.484,-0.001,-0.128,0.028,9.178,-28.237,9.603
16:51:07:687,37.510,-0.172,-0.041,0.001,8.344,-26.021,7.587
16:51:07:712,37.535,-0.249,-0.016,0.050,7.918,-24.271,6.239
16:51:07:739,37.561,-0.296,-0.036,0.088,7.348,-20.773,4.255
16:51:07:765,37.587,-0.276,-0.065,0.096,6.967,-17.910,3.022
16:51:07:791,37.613,-0.376,-0.098,0.106,6.391,-13.519,1.320
16:51:07:818,37.641,-0.429,-0.067,0.136,5.952,-11.091,0.195
16:51:07:845,37.668,-0.549,0.024,0.163,5.153,-9.042,-1.691
16:51:07:899,37.721,-0.560,0.086,0.164,4.174,-9.609,-3.794
16:51:07:9,37.722,-0.570,0.097,0.108,3.520,-10.609,-5.148
16:51:07:923,37.745,-0.563,0.167,0.069,2.617,-12.681,-6.785
16:51:07:948,37.771,-0.362,0.133,0.078,2.109,-14.200,-7.517
16:51:07:975,37.798,-0.473,0.015,0.192,1.709,-17.094,-7.888
16:51:08:001,37.824,-0.548,-0.041,0.164,2.199,-18.464,-6.879
16:51:08:027,37.850,-0.462,0.033,0.196,2.907,-18.740,-5.505
16:51:08:054,37.877,-0.432,0.157,0.189,4.286,-16.949,-2.558
16:51:08:109,37.932,-0.351,0.212,0.201,5.200,-15.428,-0.105
16:51:08:109,37.932,-0.312,0.179,0.130,6.541,-13.434,4.074
16:51:08:133,37.956,-0.201,0.142,0.075,7.457,-12.999,7.081
16:51:08:159,37.982,-0.101,0.142,0.070,9.164,-13.502,11.736
16:51:08:186,38.009,0.053,0.107,0.068,11.379,-14.623,16.492
16:51:08:241,38.063,0.126,0.067,0.042,13.080,-15.217,19.647
16:51:08:241,38.063,0.201,0.043,0.015,15.777,-15.588,24.163
16:51:08:264,38.086,0.273,0.019,-0.024,17.604,-15.482,26.925
16:51:08:29,38.112,0.309,-0.050,-0.055,20.249,-14.849,30.594
16:51:08:316,38.139,0.362,-0.086,-0.080,22.526,-13.562,33.710
16:51:08:371,38.194,0.410,-0.164,-0.121,23.745,-12.433,35.504
16:51:08:372,38.195,0.423,-0.224,-0.182,24.889,-10.454,37.730
16:51:08:395,38.218,0.456,-0.189,-0.199,25.253,-9.284,38.829
16:51:08:451,38.274,0.446,-0.146,-0.196,25.379,-7.781,39.654
16:51:08:451,38.274,0.523,-0.011,-0.237,25.148,-6.913,39.360
16:51:08:473,38.296,0.466,0.002,-0.266,24.662,-6.561,38.426
16:51:08:5,38.323,0.286,-0.230,-0.185,23.424,-6.428,36.048
16:51:08:526,38.349,0.218,-0.271,-0.094,22.277,-6.477,34.092
16:51:08:552,38.375,0.201,-0.165,-0.031,20.328,-6.835,30.975
16:51:08:579,38.402,0.243,0.044,0.013,19.163,-7.532,28.744
16:51:08:605,38.427,0.209,0.212,-0.021,17.809,-9.365,25.080
16:51:08:631,38.453,0.129,0.143,-0.061,16.593,-11.612,21.110
16:51:08:658,38.480,0.050,0.020,-0.044,15.657,-12.952,18.451
16:51:08:685,38.508,0.021,-0.051,0.025,14.078,-14.574,14.688
16:51:08:709,38.532,-0.021,-0.053,0.084,12.392,-15.774,11.371
16:51:08:736,38.559,-0.060,-0.048,0.100,11.251,-16.338,9.428
16:51:08:762,38.585,-0.145,-0.027,0.085,9.543,-16.437,6.846
16:51:08:788,38.611,-0.229,-0.021,0.098,8.458,-16.034,5.236
16:51:08:815,38.638,-0.293,-0.010,0.149,6.925,-15.173,2.824
16:51:08:841,38.664,-0.356,-0.045,0.208,5.980,-14.602,1.248
16:51:08:867,38.690,-0.377,-0.081,0.219,4.667,-13.763,-0.979
16:51:08:896,38.719,-0.416,-0.112,0.248,3.487,-13.185,-2.927
16:51:08:92,38.743,-0.424,-0.095,0.265,3.364,-12.924,-3.418
16:51:08:947,38.770,-0.483,-0.008,0.315,2.391,-12.893,-4.809
16:51:08:972,38.795,-0.536,0.060,0.320,1.830,-13.057,-5.582
16:51:08:999,38.821,-0.553,0.067,0.293,1.144,-13.540,-6.520
16:51:09:025,38.847,-0.569,0.081,0.254,0.760,-14.010,-7.116
16:51:09:05,38.873,-0.587,0.123,0.265,0.702,-14.355,-7.222
16:51:09:077,38.900,-0.557,0.050,0.312,0.930,-15.134,-6.812
16:51:09:103,38.926,-0.493,0.035,0.196,1.295,-15.945,-6.062
16:51:09:129,38.952,-0.455,0.086,0.118,2.299,-17.203,-4.299
16:51:09:156,38.979,-0.401,0.146,0.054,3.726,-18.891,-1.978
16:51:09:184,39.007,-0.332,0.182,0.042,4.873,-20.079,-0.275
16:51:09:211,39.034,-0.237,0.176,0.031,6.840,-22.009,2.393
16:51:09:212,39.035,-0.189,0.153,0.024,8.317,-23.061,4.233
16:51:09:288,39.111,-0.103,0.087,-0.024,10.721,-24.231,7.150
16:51:09:319,39.142,-0.054,0.052,-0.048,12.420,-24.604,9.232
16:51:09:32,39.143,0.033,0.037,-0.093,15.036,-24.748,12.539
16:51:09:321,39.144,0.104,0.041,-0.149,17.659,-24.416,15.998
16:51:09:369,39.192,0.162,0.058,-0.184,19.387,-23.965,18.312
16:51:09:37,39.193,0.237,0.059,-0.192,21.956,-23.142,21.675
16:51:09:392,39.215,0.347,0.060,-0.226,23.670,-22.475,23.872
16:51:09:419,39.242,0.501,-0.024,-0.182,26.062,-21.154,27.264
16:51:09:445,39.268,0.648,-0.160,-0.179,27.766,-19.020,30.890
16:51:09:472,39.295,0.669,-0.179,-0.198,28.211,-16.980,33.295
16:51:09:498,39.320,0.677,-0.167,-0.116,28.116,-14.332,36.145
16:51:09:524,39.346,0.695,-0.205,-0.037,27.799,-12.968,37.242
16:51:09:55,39.372,0.788,-0.221,-0.075,26.859,-11.325,37.674
16:51:09:576,39.399,0.669,-0.259,-0.189,25.793,-9.983,37.138
16:51:09:602,39.425,0.526,-0.295,-0.190,23.617,-8.348,35.049
16:51:09:628,39.451,0.437,-0.073,-0.141,21.132,-6.947,31.749
16:51:09:654,39.477,0.358,0.103,-0.093,19.597,-6.628,29.042
16:51:09:682,39.505,0.233,0.220,-0.051,17.681,-7.171,24.320
16:51:09:707,39.530,0.132,0.216,-0.044,16.563,-8.105,20.849
16:51:09:734,39.557,0.061,0.140,-0.030,14.879,-9.759,15.481
16:51:09:76,39.583,-0.042,0.031,-0.003,13.001,-10.936,10.236
16:51:09:786,39.609,-0.111,0.016,0.001,11.651,-11.238,6.877
16:51:09:812,39.635,-0.230,0.025,0.003,9.590,-10.825,1.985
16:51:09:839,39.662,-0.360,0.040,0.042,8.258,-9.963,-1.217
16:51:09:866,39.689,-0.458,0.012,0.105,6.455,-7.965,-5.872
16:51:09:891,39.713,-0.618,-0.040,0.222,4.867,-5.656,-10.192
16:51:09:918,39.740,-0.703,-0.119,0.338,3.823,-4.416,-12.779
16:51:09:943,39.766,-0.718,-0.278,0.428,2.030,-3.500,-15.942
16:51:09:969,39.792,-0.745,-0.303,0.471,0.624,-3.694,-17.430
16:51:09:997,39.820,-0.818,-0.229,0.521,-1.589,-5.005,-18.614
16:51:10:024,39.847,-0.833,-0.198,0.544,-2.983,-6.377,-18.758
16:51:10:049,39.872,-0.812,-0.075,0.536,-4.574,-8.626,-18.216
16:51:10:074,39.897,-0.778,0.064,0.559,-5.162,-10.496,-16.952
16:51:10:101,39.924,-0.681,0.077,0.586,-4.944,-11.582,-15.642
16:51:10:129,39.952,-0.519,0.030,0.537,-3.599,-12.795,-12.887
16:51:10:154,39.977,-0.382,0.095,0.339,-1.944,-13.060,-10.510
16:51:10:18,40.003,-0.317,0.251,0.241,1.365,-12.756,-6.246
16:51:10:206,40.029,-0.203,0.375,0.144,5.121,-11.698,-1.265
16:51:10:233,40.056,-0.143,0.434,0.125,7.708,-10.639,2.348
16:51:10:258,40.081,-0.004,0.448,0.094,11.575,-8.535,8.076
16:51:10:285,40.108,0.089,0.400,0.046,14.058,-6.707,12.095
16:51:10:338,40.161,0.157,0.263,-0.061,17.535,-3.438,18.432
16:51:10:368,40.191,0.228,0.101,-0.131,19.700,-1.298,22.717
16:51:10:368,40.191,0.278,0.013,-0.178,22.850,1.473,28.935
16:51:10:447,40.270,0.302,-0.097,-0.230,26.009,3.639,34.598
16:51:10:448,40.271,0.323,-0.137,-0.256,28.162,4.687,37.883
16:51:10:581,40.403,0.368,-0.188,-0.265,31.473,5.675,41.884
16:51:10:582,40.404,0.430,-0.236,-0.280,33.641,6.033,43.922
16:51:10:583,40.405,0.428,-0.273,-0.280,36.498,6.332,46.174
16:51:10:636,40.459,0.472,-0.307,-0.275,38.695,6.640,47.545
16:51:10:636,40.459,0.484,-0.291,-0.274,39.676,6.738,48.013
16:51:10:637,40.460,0.478,-0.274,-0.257,40.301,6.929,47.988
16:51:10:638,40.461,0.467,-0.284,-0.254,40.179,6.886,47.447
16:51:10:655,40.478,0.472,-0.225,-0.273,38.119,6.393,44.804
16:51:10:655,40.478,0.395,-0.193,-0.288,36.823,6.535,43.231
16:51:10:707,40.530,0.347,-0.206,-0.252,34.253,6.648,40.069
16:51:10:708,40.531,0.307,-0.166,-0.235,31.204,6.835,36.170
16:51:10:787,40.610,0.224,0.193,-0.241,25.976,7.222,28.369
16:51:10:788,40.611,0.150,0.282,-0.208,24.140,7.193,24.768
16:51:10:81,40.633,0.073,0.257,-0.200,21.573,7.262,19.236
16:51:10:919,40.741,-0.045,0.132,-0.146,19.013,8.291,14.162
16:51:10:92,40.742,-0.137,0.079,-0.059,17.351,9.544,11.181
16:51:10:968,40.790,-0.204,0.077,0.015,15.014,11.789,7.149
16:51:10:998,40.821,-0.305,0.080,0.078,13.549,13.324,4.679
16:51:10:999,40.822,-0.375,0.055,0.110,11.491,15.771,1.281
16:51:11:025,40.848,-0.435,0.029,0.154,9.580,18.170,-1.874
16:51:11:026,40.849,-0.450,0.008,0.218,8.351,19.582,-3.860
16:51:11:027,40.850,-0.430,-0.051,0.316,6.463,21.278,-6.620
16:51:11:046,40.869,-0.419,-0.097,0.376,5.133,22.161,-8.247
16:51:11:101,40.924,-0.410,-0.125,0.481,3.019,23.211,-10.272
16:51:11:102,40.925,-0.415,-0.102,0.583,1.525,23.655,-11.361
16:51:11:125,40.948,-0.320,-0.074,0.708,-0.762,23.376,-12.581
16:51:11:151,40.974,-0.348,-0.090,0.767,-2.955,22.327,-13.088
16:51:11:177,41.000,-0.327,-0.052,0.818,-4.164,21.416,-12.985
16:51:11:204,41.027,-0.301,-0.015,0.830,-5.379,19.737,-11.970
16:51:11:23,41.053,-0.139,0.006,0.742,-5.452,18.638,-10.758
16:51:11:257,41.080,-0.083,0.066,0.544,-4.443,17.702,-8.540
16:51:11:313,41.135,-0.054,0.154,0.307,-2.144,18.176,-6.072
16:51:11:313,41.135,-0.016,0.193,0.262,-0.099,18.953,-4.187
16:51:11:335,41.157,-0.012,0.253,0.256,3.518,21.191,-0.894
16:51:11:361,41.184,0.033,0.358,0.312,6.057,23.206,1.626
16:51:11:388,41.211,0.017,0.188,0.107,9.819,26.389,5.835
16:51:11:501,41.323,0.145,0.229,0.038,13.643,27.505,10.042
16:51:11:502,41.324,0.334,0.000,-0.029,16.219,29.219,13.367
16:51:11:547,41.370,-0.022,-0.226,-0.171,21.516,42.238,28.378
16:51:11:548,41.371,-0.049,-0.216,-0.175,22.188,44.402,31.103
16:51:11:574,41.397,-0.101,-0.140,-0.215,23.382,46.418,33.717
16:51:11:574,41.397,-0.015,-0.151,-0.335,25.255,46.683,34.487
16:51:11:626,41.449,-0.012,-0.128,-0.391,26.595,46.185,34.252
16:51:11:627,41.450,0.024,-0.049,-0.486,28.283,45.494,33.225
16:51:11:708,41.531,0.041,0.017,-0.578,28.976,45.194,32.324
16:51:11:709,41.532,0.027,0.029,-0.557,29.229,45.469,30.926
16:51:11:71,41.533,0.000,0.040,-0.487,28.659,46.195,29.601
16:51:11:757,41.580,-0.007,0.072,-0.467,27.870,47.024,28.655
16:51:11:758,41.581,-0.094,-0.030,-0.293,26.204,47.951,27.042
16:51:11:781,41.604,-0.097,-0.097,-0.189,25.000,48.537,25.692
16:51:11:867,41.689,-0.031,-0.083,-0.133,23.369,47.763,23.249
16:51:11:867,41.689,0.011,0.083,-0.109,22.096,46.211,20.506
16:51:11:868,41.690,0.010,0.123,-0.102,21.488,44.434,18.545
16:51:11:888,41.710,0.001,0.071,-0.129,20.681,42.014,15.643
16:51:11:942,41.765,-0.011,-0.048,-0.128,20.058,40.813,13.901
16:51:11:942,41.765,-0.005,-0.097,-0.090,18.941,40.532,11.671
16:51:11:994,41.817,0.003,-0.131,-0.010,18.104,40.858,10.397
16:51:11:995,41.818,-0.027,-0.120,0.058,16.823,42.537,8.688
16:51:12:018,41.841,-0.048,-0.094,0.100,15.579,44.728,7.064
16:51:12:102,41.925,-0.085,-0.082,0.144,14.798,46.886,5.956
16:51:12:103,41.926,-0.112,-0.060,0.206,13.732,49.920,4.187
16:51:12:103,41.926,-0.125,-0.058,0.254,13.070,52.250,2.935
16:51:12:153,41.976,-0.108,-0.069,0.289,12.134,54.917,1.012
16:51:12:153,41.976,-0.079,-0.102,0.332,11.196,57.645,-0.798
16:51:12:315,42.138,-0.059,-0.091,0.347,10.855,59.077,-1.024
16:51:12:315,42.138,-0.060,0.046,0.395,10.059,61.218,-1.818
16:51:12:316,42.139,-0.025,0.156,0.467,9.365,61.851,-2.637
16:51:12:394,42.217,0.011,0.239,0.537,7.825,62.554,-4.324
16:51:12:395,42.218,0.062,0.153,0.508,7.225,62.243,-4.800
16:51:12:396,42.219,0.145,0.086,0.444,7.083,61.886,-4.573
16:51:12:396,42.219,0.139,0.041,0.369,7.307,61.527,-3.928
16:51:12:414,42.237,0.041,0.039,0.260,8.245,61.496,-2.210
16:51:12:414,42.237,-0.041,0.104,0.169,9.244,61.835,-0.648
16:51:12:437,42.260,-0.045,0.138,0.129,11.058,62.875,2.150
16:51:12:465,42.288,-0.020,0.145,0.075,13.028,64.465,5.332
16:51:12:491,42.314,0.007,0.117,0.082,14.331,66.011,7.644
16:51:12:516,42.339,0.011,0.083,0.046,16.231,68.331,11.356
16:51:12:543,42.366,0.018,0.054,0.004,17.485,70.004,13.949
16:51:12:598,42.420,-0.024,-0.019,-0.081,19.364,72.099,17.911
16:51:12:599,42.421,-0.068,-0.061,-0.142,21.253,73.815,21.762
16:51:12:622,42.444,-0.101,-0.090,-0.183,22.526,74.693,24.123
16:51:12:676,42.499,-0.127,-0.133,-0.235,24.421,75.705,27.154
16:51:12:677,42.500,-0.149,-0.135,-0.268,25.610,76.296,28.762
16:51:12:7,42.523,-0.165,-0.136,-0.296,27.160,77.175,30.450
16:51:12:756,42.579,-0.172,-0.156,-0.285,26.752,77.397,30.057
16:51:12:757,42.580,-0.186,-0.144,-0.284,25.741,77.993,28.940
16:51:12:778,42.601,-0.241,-0.066,-0.322,26.051,79.370,28.794
16:51:12:834,42.657,-0.270,-0.004,-0.320,25.965,80.525,28.408
16:51:12:834,42.657,-0.266,0.028,-0.284,25.418,82.071,27.346
16:51:12:857,42.680,-0.295,0.058,-0.273,24.807,83.122,26.326
16:51:12:914,42.737,-0.302,0.039,-0.181,23.486,84.645,24.346
16:51:12:914,42.737,-0.212,-0.061,-0.024,21.752,85.954,21.787
16:51:12:936,42.759,-0.134,-0.055,0.014,20.536,86.313,19.776
16:51:12:963,42.786,-0.054,0.040,0.031,18.812,85.769,16.538
16:51:12:989,42.812,-0.007,0.123,0.041,17.930,84.363,14.426
16:51:13:015,42.838,-0.003,0.135,0.045,16.954,81.523,11.531
16:51:13:042,42.864,-0.025,0.079,0.019,16.419,79.676,9.939
16:51:13:068,42.890,-0.033,-0.037,0.011,15.697,77.794,8.145
16:51:13:122,42.945,0.003,-0.099,-0.004,15.031,77.362,7.002
16:51:13:123,42.946,0.010,-0.125,0.006,14.618,78.017,6.529
16:51:13:146,42.969,0.040,-0.110,0.085,14.069,80.129,6.143
16:51:13:201,43.024,0.057,-0.091,0.144,13.721,82.103,6.019
16:51:13:202,43.025,0.078,-0.077,0.172,13.198,85.540,5.901
16:51:13:224,43.047,0.103,-0.060,0.217,12.659,88.910,5.722
16:51:13:281,43.103,0.134,-0.067,0.218,12.293,90.861,5.530
16:51:13:281,43.103,0.154,-0.123,0.203,11.727,93.056,5.197
16:51:13:304,43.126,0.163,-0.152,0.187,11.311,94.017,4.984
16:51:13:359,43.182,0.186,-0.058,0.194,10.589,94.956,4.661
16:51:13:359,43.182,0.235,0.049,0.203,9.806,95.248,4.179
16:51:13:383,43.206,0.263,0.109,0.208,9.294,95.110,3.704
16:51:13:408,43.231,0.264,0.142,0.209,8.670,94.644,2.807
16:51:13:434,43.257,0.227,0.132,0.203,8.407,94.417,2.174
16:51:13:461,43.284,0.217,0.151,0.208,8.292,94.035,1.395
16:51:13:487,43.310,0.238,0.133,0.215,8.497,94.214,0.991
16:51:13:516,43.339,0.222,0.147,0.207,9.482,94.400,1.708
16:51:13:541,43.364,0.116,0.163,0.179,10.902,94.802,2.955
16:51:13:566,43.389,0.037,0.178,0.135,11.780,95.017,3.747
16:51:13:593,43.416,0.028,0.200,0.095,13.423,95.580,5.479
16:51:13:648,43.470,0.007,0.191,0.014,14.695,96.095,6.975
16:51:13:649,43.471,-0.017,0.157,-0.034,16.827,97.463,9.811
16:51:13:671,43.493,-0.090,0.071,-0.084,19.113,99.695,13.474
16:51:13:727,43.549,-0.120,0.046,-0.112,20.653,101.615,16.360
16:51:13:727,43.549,-0.190,0.016,-0.153,22.864,104.822,21.094
16:51:13:75,43.572,-0.209,-0.016,-0.177,24.224,107.026,24.335
16:51:13:775,43.598,-0.236,-0.098,-0.175,26.049,110.205,28.907
16:51:13:802,43.625,-0.224,-0.171,-0.158,27.098,112.132,31.556
16:51:13:831,43.654,-0.230,-0.253,-0.140,28.391,114.693,34.719
16:51:13:832,43.655,-0.222,-0.296,-0.132,29.273,116.816,36.747
16:51:13:884,43.707,-0.283,-0.361,-0.096,29.598,117.970,37.475
16:51:13:885,43.708,-0.429,-0.407,-0.013,29.318,119.408,37.674
16:51:13:907,43.730,-0.519,-0.185,-0.028,28.214,120.190,37.256
16:51:13:933,43.756,-0.464,0.041,-0.183,25.774,120.629,35.644
16:51:13:961,43.784,-0.442,0.088,-0.248,23.614,119.818,32.907
16:51:13:986,43.809,-0.560,0.175,-0.205,22.235,119.114,30.713
16:51:14:013,43.836,-0.410,0.104,0.079,19.984,118.275,26.881
16:51:14:039,43.862,-0.218,-0.010,0.042,18.653,117.222,24.017
16:51:14:095,43.917,-0.107,-0.004,-0.038,17.138,114.814,19.784
16:51:14:095,43.917,-0.041,0.147,-0.129,16.261,112.132,16.149
16:51:14:118,43.940,-0.108,0.209,-0.144,15.964,110.595,14.133
16:51:14:145,43.968,-0.213,0.142,0.019,15.557,109.965,11.701
16:51:14:17,43.993,-0.114,-0.030,-0.174,15.255,110.689,10.290
16:51:14:196,44.019,0.037,-0.045,0.062,14.403,114.568,8.838
16:51:14:222,44.045,0.111,-0.127,0.081,13.902,118.458,8.358
16:51:14:248,44.071,0.151,-0.122,0.067,13.150,123.608,7.795
16:51:14:275,44.098,0.231,-0.088,0.145,12.492,128.564,7.464
16:51:14:303,44.126,0.254,-0.090,0.135,12.128,131.478,7.205
16:51:14:328,44.151,0.244,-0.072,0.073,11.705,134.311,6.651
16:51:14:354,44.177,0.222,-0.088,0.056,11.492,135.687,6.241
16:51:14:38,44.203,0.221,-0.102,0.029,11.244,136.889,5.697
16:51:14:407,44.230,0.206,-0.106,-0.001,11.000,137.689,5.295
16:51:14:433,44.255,0.218,-0.094,-0.021,10.798,138.231,5.108
16:51:14:46,44.282,0.283,-0.028,-0.022,10.427,139.078,4.871
16:51:14:486,44.308,0.303,0.027,-0.031,10.157,139.613,4.654
16:51:14:511,44.334,0.319,0.089,-0.015,9.823,140.048,4.178
16:51:14:537,44.360,0.293,0.118,0.016,9.684,140.337,3.806
16:51:14:563,44.386,0.287,0.135,0.063,9.642,140.733,3.305
16:51:14:619,44.442,0.344,0.239,0.047,9.787,140.823,2.982
16:51:14:62,44.443,0.362,0.200,0.050,10.013,140.531,2.872
16:51:14:642,44.465,0.282,0.179,0.143,10.616,139.499,3.039
16:51:14:67,44.493,0.184,0.186,0.204,11.250,138.692,3.460
16:51:14:725,44.548,0.110,0.199,0.167,12.532,137.186,4.635
16:51:14:725,44.548,0.034,0.185,0.100,14.185,135.575,6.429
16:51:14:777,44.600,-0.009,0.147,0.056,15.492,134.757,8.068
16:51:14:778,44.601,-0.063,0.049,0.040,17.652,134.662,11.195
16:51:14:827,44.650,-0.121,0.012,0.037,19.160,135.283,13.782
16:51:14:855,44.678,-0.204,-0.005,0.039,21.371,136.945,18.214
16:51:14:855,44.678,-0.259,-0.003,0.047,22.751,138.372,21.384
16:51:14:908,44.731,-0.321,-0.021,0.052,24.691,140.532,26.154
16:51:14:909,44.732,-0.362,-0.054,0.031,26.488,142.493,30.551
16:51:14:931,44.754,-0.383,-0.108,0.008,27.626,143.628,33.155
16:51:14:957,44.780,-0.394,-0.163,-0.007,29.178,145.109,36.514
16:51:14:983,44.806,-0.406,-0.205,-0.039,30.066,145.987,38.381
16:51:15:01,44.833,-0.434,-0.213,-0.065,31.130,147.027,40.630
16:51:15:065,44.888,-0.508,-0.148,-0.079,31.710,147.783,42.137
16:51:15:066,44.889,-0.528,-0.134,-0.090,31.790,148.108,42.645
16:51:15:089,44.912,-0.571,-0.131,-0.108,31.321,148.468,42.581
16:51:15:115,44.937,-0.561,-0.074,-0.054,30.462,148.774,41.917
16:51:15:23,45.053,-0.402,-0.141,-0.034,28.423,149.270,39.934
16:51:15:23,45.053,-0.293,-0.187,-0.082,26.018,149.411,36.933
16:51:15:23,45.053,-0.256,-0.081,-0.126,24.462,149.279,34.604
16:51:15:308,45.130,-0.283,0.102,-0.135,22.646,148.371,30.738
16:51:15:308,45.130,-0.277,0.162,-0.119,21.812,147.393,27.922
16:51:15:309,45.131,-0.272,0.145,-0.053,20.761,145.769,23.499
16:51:15:311,45.133,-0.371,0.103,-0.231,19.421,145.014,19.294
16:51:15:354,45.177,0.121,-0.062,0.046,18.787,146.098,16.836
16:51:15:354,45.177,-0.042,-0.039,-0.120,17.553,147.774,13.798
16:51:15:377,45.200,0.096,-0.055,0.061,16.858,150.154,12.169
16:51:15:404,45.227,0.105,-0.044,0.100,16.045,153.183,10.036
16:51:15:43,45.253,0.142,-0.016,0.115,15.631,154.774,8.707
16:51:15:456,45.278,0.188,-0.005,0.112,15.172,156.750,6.967
16:51:15:484,45.306,0.193,-0.049,0.095,14.800,158.395,5.421
16:51:15:51,45.332,0.203,-0.076,0.082,14.565,159.036,4.526
16:51:15:534,45.357,0.252,-0.120,0.059,14.195,160.411,3.377
16:51:15:561,45.384,0.277,-0.098,0.030,13.916,160.760,2.672
16:51:15:587,45.410,0.304,0.002,0.017,13.421,161.810,1.634
16:51:15:614,45.437,0.353,0.123,0.048,13.077,162.298,0.942
16:51:15:64,45.463,0.380,0.181,0.088,12.578,163.381,-0.062
16:51:15:666,45.489,0.422,0.255,0.118,12.095,164.170,-0.827
16:51:15:692,45.515,0.475,0.280,0.057,11.813,164.802,-1.087
16:51:15:719,45.542,0.439,0.097,-0.037,11.427,164.516,-1.011
16:51:15:747,45.570,0.364,-0.018,-0.028,11.287,164.189,-0.482
16:51:15:772,45.595,0.284,0.009,0.031,11.387,163.129,1.153
16:51:15:798,45.621,0.199,0.105,0.073,11.915,161.727,3.604
16:51:15:824,45.646,0.147,0.154,0.056,12.499,160.599,5.508
16:51:15:85,45.672,0.027,0.184,-0.016,13.756,158.868,8.591
16:51:15:877,45.699,-0.037,0.141,-0.033,14.822,158.008,10.789
16:51:15:903,45.726,-0.078,0.112,-0.025,16.645,157.327,14.347
16:51:15:961,45.784,-0.150,0.062,0.009,18.635,156.981,18.063
16:51:15:961,45.784,-0.179,0.017,0.025,20.027,156.993,20.507
16:51:15:962,45.785,-0.231,-0.031,0.058,22.137,157.100,23.950
16:51:16:007,45.830,-0.248,-0.050,0.066,23.520,157.347,26.013
16:51:16:037,45.860,-0.284,-0.106,0.090,25.552,157.812,28.675
16:51:16:037,45.860,-0.295,-0.143,0.094,26.820,158.216,30.170
16:51:16:089,45.912,-0.342,-0.184,0.113,28.565,158.709,32.060
16:51:16:09,45.913,-0.352,-0.223,0.106,30.036,159.634,33.694
16:51:16:141,45.964,-0.412,-0.160,0.118,30.837,160.461,34.674
16:51:16:143,45.966,-0.508,-0.072,0.134,31.750,161.639,35.929
16:51:16:195,46.017,-0.574,-0.029,0.174,32.104,162.669,36.584
16:51:16:195,46.017,-0.607,0.012,0.200,32.131,164.371,37.226
16:51:16:217,46.040,-0.565,-0.020,0.224,31.305,166.433,37.272
16:51:16:243,46.066,-0.413,-0.120,0.203,30.238,167.762,36.904
16:51:16:27,46.093,-0.297,-0.244,0.080,28.159,169.583,35.670
16:51:16:326,46.148,-0.277,-0.200,0.036,26.673,170.157,34.464
16:51:16:327,46.149,-0.308,-0.012,0.038,24.622,170.503,32.171
16:51:16:349,46.171,-0.325,0.041,0.039,23.486,169.537,30.291
16:51:16:374,46.197,-0.272,0.016,0.067,22.030,168.274,27.056
16:51:16:401,46.224,-0.192,-0.055,0.048,20.607,166.245,23.486
16:51:16:427,46.250,-0.147,-0.063,0.004,19.635,165.268,21.011
16:51:16:453,46.276,-0.087,-0.038,-0.027,18.150,164.038,17.306
16:51:16:48,46.303,-0.015,-0.004,-0.020,17.147,163.542,14.933
16:51:16:507,46.330,0.025,0.047,0.005,15.687,163.487,11.591
16:51:16:533,46.356,0.096,0.085,0.002,14.385,164.259,8.526
16:51:16:559,46.382,0.150,0.077,-0.013,13.609,165.128,6.668
16:51:16:585,46.408,0.225,0.007,-0.033,12.599,166.725,4.232
16:51:16:64,46.463,0.267,-0.064,-0.029,11.996,167.845,2.877
16:51:16:641,46.464,0.303,-0.110,-0.049,11.147,169.449,1.208
16:51:16:664,46.487,0.368,-0.081,-0.062,10.270,170.674,-0.170
16:51:16:692,46.515,0.429,-0.026,-0.118,9.658,171.172,-1.051
16:51:16:716,46.539,0.448,0.010,-0.142,8.739,171.053,-2.367
16:51:16:742,46.565,0.475,0.046,-0.118,8.187,171.035,-3.177
16:51:16:769,46.592,0.533,0.131,-0.080,7.520,170.543,-4.178
16:51:16:796,46.619,0.565,0.141,-0.113,7.219,170.344,-4.588
16:51:16:821,46.644,0.529,0.091,-0.185,7.051,169.172,-4.566
16:51:16:848,46.670,0.393,0.099,-0.114,7.427,167.759,-3.336
16:51:16:874,46.696,0.327,0.153,-0.045,8.051,167.003,-1.808
16:51:16:899,46.722,0.202,0.261,0.020,9.501,165.755,1.368
16:51:16:926,46.749,0.071,0.292,0.022,10.785,165.163,3.952
16:51:16:953,46.776,-0.013,0.265,-0.016,13.045,164.813,8.326
16:51:16:978,46.801,-0.098,0.197,-0.032,15.488,165.473,13.305
16:51:17:005,46.828,-0.131,0.144,-0.033,17.091,166.408,16.927
16:51:17:031,46.854,-0.184,0.057,0.019,19.378,168.136,22.533
16:51:17:057,46.880,-0.211,0.017,0.039,20.868,169.265,26.177
16:51:17:083,46.906,-0.260,-0.062,0.085,23.140,170.559,31.135
16:51:17:111,46.934,-0.300,-0.110,0.138,24.724,171.125,33.970
16:51:17:137,46.960,-0.327,-0.152,0.153,27.167,171.576,37.346
16:51:17:162,46.985,-0.381,-0.208,0.152,29.614,171.641,39.676
16:51:17:189,47.012,-0.415,-0.223,0.160,31.080,171.689,40.781
16:51:17:215,47.037,-0.451,-0.263,0.164,32.871,171.941,42.021
16:51:17:242,47.064,-0.534,-0.208,0.188,33.704,172.387,42.701
16:51:17:268,47.090,-0.590,-0.131,0.220,34.274,173.284,43.516
16:51:17:293,47.116,-0.590,-0.113,0.217,34.035,174.380,43.872
16:51:17:32,47.143,-0.602,-0.094,0.216,33.421,174.929,43.752
16:51:17:346,47.169,-0.575,-0.098,0.214,31.846,175.718,42.928
16:51:17:372,47.195,-0.440,-0.163,0.140,30.462,175.939,41.876
16:51:17:398,47.221,-0.430,-0.163,0.087,28.300,175.760,39.539
16:51:17:425,47.248,-0.422,-0.050,0.048,26.262,174.897,36.645
16:51:17:451,47.274,-0.416,0.052,0.037,25.150,174.110,34.512
16:51:17:477,47.300,-0.434,0.108,0.036,23.902,171.836,31.119
16:51:17:562,47.385,-0.391,0.056,0.039,23.100,170.821,28.826
16:51:17:562,47.385,-0.294,-0.030,0.030,21.690,169.386,25.504
16:51:17:563,47.386,-0.220,-0.050,0.001,20.622,169.291,23.419
16:51:17:641,47.464,-0.116,-0.071,-0.033,18.917,169.818,20.453
16:51:17:641,47.464,-0.043,-0.055,-0.025,17.282,170.948,17.588
16:51:17:643,47.466,-0.006,-0.034,-0.005,16.259,171.980,15.711
16:51:17:663,47.486,0.068,0.013,0.006,14.872,173.922,12.921
16:51:17:687,47.510,0.149,0.028,-0.024,14.052,175.327,11.052
16:51:17:743,47.566,0.180,0.013,-0.056,12.953,177.433,8.321
16:51:17:744,47.567,0.222,-0.014,-0.077,11.964,179.480,5.797
16:51:17:796,47.618,0.268,-0.039,-0.124,11.350,-179.229,4.278
16:51:17:796,47.618,0.322,-0.060,-0.196,10.430,-177.725,2.220
16:51:17:848,47.671,0.391,0.032,-0.323,9.458,-177.179,0.331
16:51:17:849,47.672,0.420,0.107,-0.356,8.817,-177.549,-0.901
16:51:17:871,47.694,0.477,0.189,-0.282,7.955,-179.058,-2.612
16:51:17:897,47.720,0.502,0.200,-0.245,7.547,-179.933,-3.562
16:51:17:924,47.747,0.488,0.236,-0.258,7.249,178.272,-4.407
16:51:18:005,47.828,0.316,0.126,-0.303,7.320,177.237,-4.419
16:51:18:006,47.829,0.237,0.093,-0.260,7.957,175.550,-3.356
16:51:18:059,47.882,0.200,0.115,-0.146,9.426,175.102,-0.975
16:51:18:06,47.883,0.141,0.167,-0.098,10.778,175.253,1.188
16:51:18:082,47.905,0.080,0.210,-0.073,13.079,176.088,5.076
16:51:18:14,47.962,0.024,0.223,-0.076,14.712,176.921,7.983
16:51:18:14,47.962,-0.011,0.221,-0.076,17.239,178.410,12.664
16:51:18:141,47.963,-0.093,0.173,-0.026,19.938,179.856,17.534
16:51:18:161,47.983,-0.156,0.105,0.027,21.882,-179.347,20.778
16:51:18:186,48.009,-0.240,0.004,0.128,25.045,-178.369,25.543
16:51:18:213,48.036,-0.279,-0.036,0.165,27.258,-177.767,28.601
16:51:18:239,48.062,-0.319,-0.118,0.222,30.538,-176.819,32.846
16:51:18:264,48.087,-0.331,-0.162,0.236,32.604,-176.129,35.397
16:51:18:291,48.114,-0.349,-0.191,0.263,35.370,-174.968,38.715
16:51:18:317,48.140,-0.369,-0.210,0.262,37.618,-173.797,41.296
16:51:18:343,48.166,-0.390,-0.208,0.273,37.998,-173.478,41.755
16:51:18:37,48.193,-0.436,-0.195,0.273,37.619,-173.385,41.384
16:51:18:399,48.222,-0.511,-0.163,0.327,38.190,-172.589,42.111
16:51:18:4,48.223,-0.526,-0.180,0.331,38.476,-171.143,42.818
16:51:18:423,48.246,-0.604,-0.217,0.362,38.016,-169.436,43.067
16:51:18:449,48.272,-0.658,-0.185,0.431,37.020,-167.820,42.970
16:51:18:475,48.298,-0.521,-0.263,0.438,34.343,-164.754,42.392
16:51:18:502,48.324,-0.431,-0.321,0.390,31.889,-162.457,41.608
16:51:18:582,48.405,-0.348,-0.155,0.354,27.695,-158.992,39.667
16:51:18:583,48.406,-0.334,0.077,0.278,23.990,-156.504,36.555
16:51:18:609,48.432,-0.344,0.148,0.266,22.029,-155.604,33.840
16:51:18:609,48.432,-0.228,0.181,0.222,19.657,-154.997,29.072
16:51:18:633,48.456,-0.153,0.149,0.208,18.286,-154.911,25.555
16:51:18:658,48.481,-0.057,0.109,0.129,16.316,-154.939,19.926
16:51:18:743,48.566,0.017,0.142,0.037,15.004,-154.860,16.034
16:51:18:744,48.567,0.076,0.167,-0.025,13.066,-154.251,10.140
16:51:18:745,48.568,0.199,0.180,-0.114,11.243,-152.698,4.409
16:51:18:764,48.587,0.293,0.159,-0.180,10.170,-151.140,0.774
16:51:18:819,48.642,0.395,0.097,-0.321,8.788,-148.595,-4.291
16:51:18:82,48.643,0.421,0.005,-0.457,7.960,-146.999,-7.277
16:51:18:948,48.771,0.408,-0.127,-0.520,6.773,-144.921,-10.983
16:51:18:984,48.807,0.391,-0.228,-0.561,5.518,-143.440,-13.569
16:51:18:984,48.807,0.344,-0.245,-0.603,4.577,-142.906,-14.682
16:51:18:984,48.807,0.354,-0.208,-0.693,3.014,-142.713,-15.542
16:51:18:985,48.808,0.362,-0.185,-0.756,1.917,-142.985,-15.695
16:51:19:002,48.825,0.376,-0.088,-0.827,0.336,-143.986,-15.397
16:51:19:003,48.826,0.298,-0.068,-0.842,-0.551,-145.064,-14.845
16:51:19:115,48.937,0.192,-0.051,-0.793,-1.418,-146.984,-13.266
16:51:19:115,48.937,0.021,-0.040,-0.679,-1.370,-149.532,-10.594
16:51:19:115,48.937,0.007,0.086,-0.534,-0.676,-151.096,-8.210
16:51:19:116,48.938,-0.001,0.243,-0.408,1.344,-152.748,-4.045
16:51:19:131,48.954,-0.033,0.408,-0.309,3.191,-153.436,-1.000
16:51:19:186,49.009,-0.124,0.525,-0.240,6.601,-154.081,3.816
16:51:19:187,49.010,-0.232,0.532,-0.114,10.641,-153.847,8.970
16:51:19:209,49.032,-0.261,0.460,-0.026,13.509,-152.822,12.739
16:51:19:238,49.061,-0.246,0.282,0.096,17.817,-150.191,18.941
16:51:19:262,49.085,-0.253,0.181,0.173,20.580,-147.989,23.365
16:51:19:289,49.112,-0.221,-0.013,0.273,24.390,-144.288,30.177
16:51:19:315,49.138,-0.157,-0.127,0.343,26.630,-141.706,34.622
16:51:19:342,49.164,-0.106,-0.183,0.337,29.584,-138.159,40.571
16:51:19:368,49.190,-0.125,-0.194,0.365,32.408,-135.523,45.131
16:51:19:394,49.217,-0.149,-0.229,0.413,34.322,-134.336,47.350
16:51:19:42,49.243,-0.185,-0.308,0.477,37.009,-132.873,49.678
16:51:19:446,49.269,-0.189,-0.312,0.503,38.491,-132.180,50.718
16:51:19:472,49.295,-0.245,-0.301,0.555,40.185,-131.273,51.637
16:51:19:499,49.322,-0.278,-0.299,0.596,40.942,-130.602,51.863
16:51:19:526,49.349,-0.280,-0.317,0.592,40.777,-130.125,51.668
16:51:19:552,49.375,-0.318,-0.316,0.675,39.530,-129.184,50.850
16:51:19:578,49.401,-0.230,-0.292,0.682,37.904,-128.329,49.875
16:51:19:604,49.426,-0.193,-0.321,0.638,34.468,-126.850,47.618
16:51:19:63,49.452,-0.164,-0.199,0.589,30.319,-125.297,44.347
16:51:19:657,49.479,-0.167,0.037,0.533,27.538,-124.302,41.623
16:51:19:683,49.506,-0.210,0.222,0.517,24.115,-123.576,36.632
16:51:19:708,49.531,-0.183,0.268,0.459,22.365,-123.546,32.844
16:51:19:764,49.587,-0.090,0.233,0.380,20.071,-123.672,26.826
16:51:19:764,49.587,-0.041,0.225,0.287,18.574,-123.535,22.749
16:51:19:787,49.610,0.013,0.175,0.120,16.370,-122.742,16.696
16:51:19:814,49.637,0.067,0.180,-0.023,14.358,-121.066,10.782
16:51:19:84,49.663,0.138,0.196,-0.105,13.225,-119.367,6.962
16:51:19:866,49.689,0.196,0.193,-0.268,11.912,-116.060,1.491
16:51:19:893,49.716,0.228,0.162,-0.473,11.325,-113.457,-1.920
16:51:19:919,49.742,0.150,0.099,-0.606,10.858,-109.536,-6.565
16:51:19:947,49.770,0.075,-0.006,-0.667,10.651,-106.100,-10.461
16:51:19:973,49.795,-0.001,-0.151,-0.696,10.587,-104.040,-12.533
16:51:20:028,49.850,-0.074,-0.212,-0.724,10.436,-101.493,-14.896
16:51:20:028,49.850,-0.093,-0.201,-0.760,10.220,-100.190,-16.031
16:51:20:049,49.872,-0.087,-0.213,-0.869,9.757,-98.743,-17.239
16:51:20:076,49.899,-0.099,-0.170,-0.944,9.110,-97.725,-17.971
16:51:20:103,49.926,-0.116,-0.154,-0.947,8.546,-97.537,-18.165
16:51:20:129,49.952,-0.229,-0.182,-0.831,7.497,-98.161,-17.685
16:51:20:155,49.978,-0.278,-0.140,-0.676,6.805,-99.154,-16.715
16:51:20:181,50.004,-0.187,-0.017,-0.661,6.194,-101.043,-14.135
16:51:20:209,50.032,-0.094,0.102,-0.634,6.171,-102.288,-11.950
16:51:20:235,50.058,-0.027,0.236,-0.557,6.596,-104.334,-8.245
16:51:20:289,50.112,0.010,0.345,-0.410,7.554,-106.523,-4.154
16:51:20:29,50.113,0.013,0.386,-0.315,8.485,-107.958,-1.208
16:51:20:313,50.136,-0.014,0.402,-0.160,10.316,-109.956,3.560
16:51:20:34,50.163,-0.022,0.330,-0.015,11.796,-111.032,7.020
16:51:20:365,50.188,-0.016,0.297,0.090,14.326,-112.065,12.662
16:51:20:391,50.214,0.030,0.236,0.233,17.085,-112.404,18.789
16:51:20:417,50.240,0.053,0.187,0.310,19.033,-112.392,23.005
16:51:20:445,50.268,0.068,0.126,0.419,22.161,-112.291,29.183
16:51:20:471,50.294,0.063,0.056,0.461,24.409,-112.264,33.025
16:51:20:496,50.319,0.057,-0.039,0.505,28.025,-112.270,38.149
16:51:20:523,50.345,0.002,-0.139,0.527,30.514,-112.276,41.072
16:51:20:552,50.374,-0.015,-0.206,0.567,34.197,-112.071,44.846
16:51:20:575,50.397,-0.059,-0.333,0.658,37.260,-111.252,48.061
16:51:20:601,50.424,-0.049,-0.358,0.684,38.598,-110.307,49.850
16:51:20:628,50.451,-0.071,-0.396,0.697,39.440,-108.807,51.646
16:51:20:659,50.482,-0.091,-0.367,0.726,39.133,-107.825,52.097
16:51:20:659,50.482,-0.065,-0.331,0.686,37.461,-106.382,51.544
16:51:20:68,50.503,-0.050,-0.350,0.641,34.882,-105.269,49.517
16:51:20:706,50.529,-0.049,-0.293,0.601,32.807,-104.640,47.512
16:51:20:735,50.558,-0.034,-0.104,0.577,29.582,-104.012,43.729
16:51:20:76,50.583,-0.022,-0.008,0.560,27.597,-103.539,40.719
16:51:20:811,50.633,0.039,0.102,0.424,22.454,-104.312,29.939
16:51:20:867,50.690,0.060,0.118,0.351,20.743,-104.346,26.044
16:51:20:867,50.690,0.075,0.148,0.196,18.186,-103.596,20.180
16:51:20:889,50.712,0.095,0.206,0.056,16.591,-102.591,16.263
16:51:20:916,50.739,0.106,0.233,-0.051,14.519,-100.520,10.391
16:51:20:942,50.765,0.136,0.253,-0.203,13.362,-98.735,6.574
16:51:20:969,50.792,0.095,0.223,-0.364,11.966,-95.517,1.170
16:51:20:996,50.819,-0.019,0.117,-0.503,10.950,-92.196,-3.671
16:51:21:051,50.874,-0.086,0.036,-0.570,10.414,-90.173,-6.483
16:51:21:051,50.874,-0.211,-0.132,-0.611,9.612,-87.839,-10.022
16:51:21:074,50.897,-0.288,-0.214,-0.629,8.990,-86.260,-11.912
16:51:21:1,50.923,-0.333,-0.207,-0.662,7.864,-85.605,-14.070
16:51:21:126,50.949,-0.354,-0.141,-0.737,6.583,-85.232,-15.533
16:51:21:155,50.978,-0.370,-0.114,-0.768,5.725,-85.528,-16.198
16:51:21:181,51.003,-0.375,-0.073,-0.747,4.530,-85.778,-16.691
16:51:21:205,51.027,-0.428,-0.082,-0.663,3.893,-86.313,-16.561
16:51:21:232,51.054,-0.466,-0.046,-0.548,3.333,-86.754,-15.424
16:51:21:258,51.081,-0.472,-0.027,-0.441,3.340,-87.350,-14.020
16:51:21:284,51.107,-0.373,0.082,-0.384,4.085,-87.536,-11.010
16:51:21:31,51.133,-0.257,0.251,-0.322,5.675,-87.396,-7.103
16:51:21:336,51.159,-0.190,0.353,-0.257,7.091,-87.394,-4.113
16:51:21:391,51.214,-0.138,0.500,-0.075,9.660,-87.160,0.971
16:51:21:392,51.215,-0.110,0.492,0.082,11.651,-86.627,4.758
16:51:21:417,51.240,-0.061,0.421,0.183,14.910,-85.025,11.139
16:51:21:441,51.264,0.027,0.274,0.263,18.224,-82.503,18.336
16:51:21:467,51.290,0.084,0.131,0.326,20.387,-80.546,23.417
16:51:21:495,51.318,0.156,-0.070,0.361,23.475,-77.416,31.099
16:51:21:521,51.344,0.173,-0.145,0.374,25.392,-75.366,35.992
16:51:21:547,51.370,0.168,-0.210,0.352,28.095,-72.637,42.516
16:51:21:602,51.425,0.171,-0.317,0.408,30.824,-70.791,47.503
16:51:21:603,51.426,0.194,-0.354,0.420,32.548,-69.864,49.928
16:51:21:625,51.448,0.230,-0.381,0.398,34.486,-68.558,52.293
16:51:21:651,51.474,0.242,-0.389,0.402,35.257,-67.791,53.036
16:51:21:679,51.502,0.259,-0.357,0.430,35.671,-66.910,52.946
16:51:21:705,51.527,0.292,-0.283,0.456,35.455,-66.438,52.152
16:51:21:731,51.553,0.321,-0.229,0.492,34.504,-65.899,49.906
16:51:21:756,51.579,0.433,-0.095,0.534,32.779,-65.303,46.521
16:51:21:812,51.635,0.492,-0.002,0.455,31.054,-64.586,43.669
16:51:21:812,51.635,0.373,-0.014,0.276,28.028,-63.117,38.591
16:51:21:835,51.658,0.284,0.027,0.274,26.081,-62.088,34.867
16:51:21:862,51.685,0.279,0.127,0.253,23.499,-60.218,29.269
16:51:21:888,51.711,0.359,0.290,0.188,21.466,-58.011,23.983
16:51:21:914,51.737,0.358,0.343,0.074,20.370,-56.284,20.706
16:51:21:94,51.763,0.297,0.292,-0.143,18.885,-52.924,16.106
16:51:21:967,51.789,0.189,0.207,-0.213,17.999,-50.170,13.266
16:51:22:021,51.844,0.010,0.114,-0.260,16.885,-45.713,9.323
16:51:22:022,51.845,-0.085,0.081,-0.273,16.309,-42.874,6.863
16:51:22:103,51.926,-0.180,0.015,-0.316,15.645,-39.104,3.468
