Time,Second,AccelerationX,AccelerationY,AccelerationZ,EulerAnglesX,EulerAnglesY,EulerAnglesZ
14:00:06:931,0.000,0.067,-0.456,0.058,3.816,107.379,20.510
14:00:06:932,0.001,0.051,-0.283,0.039,3.543,105.427,21.453
14:00:06:955,0.025,-0.004,-0.079,-0.154,3.581,101.417,22.428
14:00:06:98,0.050,-0.029,0.036,-0.229,4.163,96.844,22.749
14:00:07:007,0.076,-0.062,-0.012,-0.277,4.677,94.287,22.915
14:00:07:062,0.132,-0.005,-0.125,-0.364,5.446,91.662,23.195
14:00:07:063,0.133,-0.057,0.074,-0.414,5.867,91.059,23.362
14:00:07:087,0.156,-0.107,0.119,-0.436,6.249,91.652,23.563
14:00:07:112,0.181,-0.133,0.147,-0.288,6.170,94.090,23.586
14:00:07:138,0.208,-0.189,0.391,-0.215,5.779,96.690,23.504
14:00:07:164,0.234,-0.210,0.455,-0.133,4.989,100.904,22.969
14:00:07:192,0.262,-0.086,0.373,0.011,4.424,103.714,22.266
14:00:07:247,0.317,0.309,-0.056,0.110,3.671,106.291,20.981
14:00:07:248,0.317,0.434,-0.220,0.159,3.213,107.136,20.268
14:00:07:269,0.338,0.330,-0.283,0.210,2.919,105.976,19.447
14:00:07:295,0.364,0.217,-0.289,0.092,3.060,103.392,19.148
14:00:07:322,0.391,0.149,-0.315,0.044,3.545,102.152,19.451
14:00:07:348,0.418,0.040,-0.189,-0.049,4.770,101.638,20.639
14:00:07:374,0.444,-0.086,0.014,-0.063,5.637,102.655,21.921
14:00:07:4,0.470,-0.106,0.109,-0.067,6.757,105.165,23.916
14:00:07:427,0.496,-0.050,0.075,0.024,7.557,107.656,25.373
14:00:07:453,0.522,-0.034,-0.107,0.041,7.827,108.783,26.069
14:00:07:479,0.548,-0.090,-0.147,-0.018,7.653,109.821,26.800
14:00:07:506,0.575,0.011,-0.111,0.016,7.165,110.079,26.842
14:00:07:532,0.601,0.096,0.033,0.022,6.150,109.784,26.387
14:00:07:56,0.629,0.045,0.304,0.030,5.566,108.963,25.715
14:00:07:585,0.654,-0.033,0.354,0.005,4.814,107.296,24.530
14:00:07:64,0.709,-0.106,0.387,0.013,4.384,106.168,23.508
14:00:07:641,0.710,-0.050,0.145,0.082,4.517,105.762,23.142
14:00:07:663,0.732,-0.002,0.093,0.050,4.874,105.412,22.939
14:00:07:69,0.760,0.118,0.040,0.066,5.008,105.245,22.973
14:00:07:746,0.816,0.146,-0.244,0.109,5.132,104.984,23.273
14:00:07:747,0.816,0.165,-0.374,0.123,5.184,104.330,23.734
14:00:07:768,0.837,0.089,-0.278,0.069,5.327,103.294,24.065
14:00:07:824,0.893,-0.028,-0.133,-0.049,5.930,101.158,24.832
14:00:07:824,0.893,-0.067,-0.078,-0.114,6.495,99.754,25.300
14:00:07:848,0.917,-0.080,-0.088,-0.170,7.555,98.157,25.942
14:00:07:873,0.942,-0.103,-0.136,-0.185,8.446,97.600,26.538
14:00:07:899,0.969,-0.064,-0.197,-0.168,8.787,98.041,27.003
14:00:07:927,0.997,-0.101,-0.214,-0.161,8.871,99.657,27.936
14:00:07:954,1.023,-0.125,-0.114,-0.166,8.658,101.154,28.605
14:00:08:037,1.106,-0.225,0.053,-0.219,8.124,103.497,29.314
14:00:08:037,1.106,-0.328,0.475,-0.317,7.204,105.636,29.128
14:00:08:038,1.107,-0.119,0.310,-0.131,6.489,107.050,28.262
14:00:08:057,1.126,0.130,0.069,-0.041,5.378,108.775,26.312
14:00:08:083,1.152,0.152,0.172,-0.042,4.649,109.757,25.149
14:00:08:138,1.208,0.101,0.318,-0.133,3.683,110.824,24.248
14:00:08:139,1.208,0.229,0.180,-0.059,3.297,111.539,24.149
14:00:08:163,1.232,0.267,0.109,-0.071,3.194,112.350,24.586
14:00:08:25,1.319,0.236,-0.073,-0.108,3.435,113.067,25.477
14:00:08:25,1.319,0.186,-0.165,-0.099,3.605,113.884,26.274
14:00:08:251,1.320,0.177,-0.164,-0.047,3.681,115.785,27.693
14:00:08:252,1.321,0.121,-0.177,-0.043,3.700,117.067,28.713
14:00:08:319,1.389,0.124,-0.227,-0.020,3.788,118.828,30.133
14:00:08:38,1.450,0.085,-0.296,0.008,3.971,120.197,31.295
14:00:08:381,1.450,0.059,-0.337,0.013,4.117,120.940,31.891
14:00:08:382,1.451,-0.027,-0.291,-0.005,4.149,121.924,32.518
14:00:08:383,1.452,-0.042,-0.202,-0.027,3.925,122.605,32.645
14:00:08:425,1.494,-0.065,-0.070,-0.071,3.209,123.594,32.212
14:00:08:451,1.520,0.057,-0.198,-0.017,2.448,124.400,31.545
14:00:08:48,1.549,0.094,0.244,-0.013,0.878,125.968,30.515
14:00:08:48,1.550,0.137,1.107,-0.147,-0.298,126.515,29.103
14:00:08:557,1.627,-0.135,0.692,0.035,-0.359,125.592,27.838
14:00:08:718,1.788,-0.149,0.316,-0.089,0.678,124.650,26.501
14:00:08:718,1.788,0.086,0.007,-0.162,1.188,125.552,26.543
14:00:08:801,1.871,0.381,-0.186,-0.122,0.966,129.332,27.886
14:00:08:802,1.871,0.307,-0.360,-0.076,0.637,131.677,29.448
14:00:08:803,1.872,0.277,-0.397,-0.041,0.659,132.756,30.458
14:00:08:803,1.873,0.111,-0.250,-0.111,0.855,133.299,31.858
14:00:08:829,1.898,-0.021,-0.233,-0.190,1.348,133.495,32.487
14:00:08:829,1.898,-0.063,-0.258,-0.176,2.232,133.918,32.897
14:00:08:829,1.899,-0.118,-0.205,-0.179,3.148,136.452,32.692
14:00:08:844,1.914,-0.187,-0.209,-0.126,3.217,139.083,32.061
14:00:08:905,1.975,-0.182,-0.156,-0.078,3.001,141.048,31.389
14:00:08:906,1.975,-0.165,-0.181,-0.055,2.187,145.051,30.176
14:00:08:907,1.976,-0.092,-0.130,-0.021,1.418,148.281,29.185
14:00:08:908,1.977,-0.134,0.016,0.005,0.254,153.650,27.263
14:00:08:923,1.992,-0.226,0.852,0.023,-0.530,158.675,24.534
14:00:08:978,2.048,-0.060,0.818,0.086,-0.724,161.567,21.951
14:00:08:979,2.049,0.167,0.483,0.122,-0.375,165.250,17.785
14:00:09:003,2.072,0.196,0.091,-0.089,0.018,168.010,15.476
14:00:09:028,2.097,0.226,-0.051,-0.248,0.154,171.820,13.643
14:00:09:084,2.153,0.252,-0.124,-0.240,-0.394,176.079,13.664
14:00:09:085,2.154,0.299,-0.135,-0.211,-0.915,177.516,14.223
14:00:09:107,2.176,0.174,-0.143,-0.189,-1.407,178.669,15.861
14:00:09:135,2.204,0.130,-0.196,-0.226,-1.429,178.969,17.165
14:00:09:191,2.260,0.056,-0.206,-0.262,-1.146,-179.670,18.999
14:00:09:191,2.261,0.070,-0.290,-0.265,-0.967,-178.443,19.859
14:00:09:212,2.281,0.080,-0.320,-0.242,-0.671,-176.154,20.267
14:00:09:355,2.424,0.123,-0.323,-0.203,-0.399,-174.430,19.643
14:00:09:355,2.424,0.133,-0.271,-0.180,-0.162,-173.699,18.748
14:00:09:355,2.425,0.159,-0.111,-0.173,0.179,-172.371,16.842
14:00:09:355,2.425,0.186,0.137,-0.158,0.391,-172.105,15.225
14:00:09:372,2.442,0.244,0.325,-0.151,0.667,-171.501,12.459
14:00:09:373,2.442,0.307,0.191,-0.195,0.881,-171.324,9.719
14:00:09:424,2.494,0.321,0.115,-0.234,0.997,-170.760,8.220
14:00:09:425,2.495,0.401,0.320,-0.282,1.121,-169.950,6.745
14:00:09:448,2.517,0.440,0.292,-0.160,1.324,-168.838,6.458
14:00:09:503,2.572,0.417,0.211,0.014,1.950,-169.021,7.063
14:00:09:504,2.573,0.270,0.258,0.037,2.699,-170.072,8.789
14:00:09:527,2.596,0.143,0.168,0.000,3.203,-170.785,10.460
14:00:09:611,2.681,0.080,0.039,-0.043,3.717,-170.986,13.490
14:00:09:612,2.681,0.133,-0.157,-0.079,3.824,-171.130,15.745
14:00:09:613,2.682,0.054,-0.230,-0.042,3.857,-171.908,19.305
14:00:09:719,2.788,-0.042,-0.178,-0.006,3.845,-173.040,21.808
14:00:09:72,2.789,-0.088,-0.139,-0.013,3.961,-175.179,25.249
14:00:09:721,2.790,-0.141,-0.187,-0.051,4.574,-178.208,27.964
14:00:09:722,2.791,-0.164,-0.266,-0.060,5.269,179.619,29.276
14:00:09:795,2.865,-0.169,-0.382,-0.044,6.513,176.589,30.530
14:00:09:796,2.865,-0.208,-0.408,-0.023,7.267,175.087,30.941
14:00:09:796,2.866,-0.244,-0.356,0.005,7.948,173.345,30.991
14:00:09:815,2.885,-0.258,-0.231,0.027,7.766,172.927,30.405
14:00:09:842,2.911,-0.309,-0.023,0.043,7.089,173.302,29.691
14:00:09:868,2.937,-0.268,0.216,0.051,5.506,175.268,28.117
14:00:09:894,2.963,-0.169,0.200,0.016,4.399,176.984,26.535
14:00:09:979,3.048,-0.062,0.216,0.039,2.988,-179.847,23.603
14:00:09:979,3.049,0.039,0.340,0.008,2.356,-177.805,21.428
14:00:09:98,3.050,0.097,0.365,0.032,1.958,-174.060,18.148
14:00:09:999,3.069,0.227,0.427,-0.064,1.987,-170.569,15.576
14:00:10:025,3.095,0.228,0.262,-0.112,2.118,-167.988,14.660
14:00:10:192,3.262,0.134,0.075,-0.118,2.112,-164.080,14.535
14:00:10:193,3.262,0.164,0.038,-0.250,1.761,-161.590,15.220
14:00:10:194,3.263,0.166,-0.022,-0.273,0.981,-158.906,16.898
14:00:10:195,3.264,0.083,-0.111,-0.186,0.371,-158.165,18.956
14:00:10:217,3.286,0.030,-0.196,-0.149,0.260,-158.338,20.253
14:00:10:217,3.286,-0.010,-0.310,-0.132,0.632,-159.000,21.538
14:00:10:217,3.286,-0.056,-0.386,-0.127,1.041,-159.502,22.167
14:00:10:346,3.416,-0.040,-0.387,-0.132,1.653,-159.977,22.698
14:00:10:346,3.416,-0.058,-0.371,-0.148,2.131,-159.816,22.753
14:00:10:378,3.448,-0.022,-0.306,-0.169,2.312,-159.829,22.529
14:00:10:378,3.448,-0.020,-0.208,-0.143,2.447,-159.542,21.950
14:00:10:378,3.448,-0.080,0.054,-0.107,2.492,-159.736,21.415
14:00:10:379,3.448,-0.092,0.280,-0.033,2.499,-159.608,20.437
14:00:10:393,3.463,-0.057,0.215,-0.044,2.466,-159.419,19.647
14:00:10:419,3.488,-0.010,0.115,-0.071,2.390,-158.162,18.446
14:00:10:446,3.515,0.049,0.404,-0.213,2.110,-156.145,17.332
14:00:10:507,3.576,0.140,0.448,-0.241,2.054,-154.509,16.438
14:00:10:507,3.576,0.245,0.389,-0.061,2.451,-154.132,14.777
14:00:10:507,3.577,0.246,0.249,0.015,2.996,-153.909,13.707
14:00:10:524,3.594,0.234,0.156,0.011,4.150,-154.259,12.416
14:00:10:553,3.622,0.198,0.032,-0.052,5.227,-154.089,11.985
14:00:10:578,3.647,0.217,-0.115,-0.092,5.716,-153.641,12.188
14:00:10:691,3.761,0.203,-0.283,-0.076,6.080,-152.771,13.184
14:00:10:692,3.761,0.184,-0.277,-0.081,6.091,-152.365,14.219
14:00:10:693,3.762,0.119,-0.225,-0.076,5.874,-152.069,16.281
14:00:10:693,3.763,0.077,-0.228,-0.086,5.681,-152.116,17.931
14:00:10:823,3.892,0.048,-0.296,-0.069,5.600,-152.562,20.541
14:00:10:823,3.892,0.016,-0.330,-0.036,5.905,-153.254,23.019
14:00:10:824,3.893,-0.064,-0.352,0.042,6.312,-153.798,24.534
14:00:10:825,3.894,-0.099,-0.336,0.083,7.261,-154.550,26.502
14:00:10:919,3.989,-0.195,-0.157,0.196,7.965,-154.889,27.485
14:00:10:972,4.041,-0.229,0.012,0.280,8.836,-155.028,28.155
14:00:11:001,4.070,-0.234,0.178,0.327,9.020,-154.221,27.741
14:00:11:002,4.071,-0.220,0.114,0.249,8.627,-152.849,27.126
14:00:11:03,4.099,-0.302,0.135,0.349,7.483,-149.552,25.984
14:00:11:031,4.100,-0.207,0.406,0.377,6.466,-146.773,24.957
14:00:11:032,4.101,-0.017,0.381,0.109,4.862,-142.099,22.746
14:00:11:056,4.125,0.005,0.308,-0.046,3.729,-137.922,20.062
14:00:11:056,4.126,0.019,0.350,-0.072,3.354,-135.834,18.380
14:00:11:057,4.126,-0.076,0.227,-0.045,2.949,-133.554,16.551
14:00:11:075,4.145,-0.098,-0.009,-0.142,2.573,-132.054,15.809
14:00:11:19,4.259,-0.103,-0.097,-0.174,1.948,-129.251,15.271
14:00:11:19,4.259,-0.074,-0.174,-0.161,1.638,-127.278,15.044
14:00:11:191,4.260,-0.044,-0.220,-0.162,1.414,-124.469,14.608
14:00:11:192,4.261,-0.079,-0.306,-0.156,1.440,-122.044,13.921
14:00:11:267,4.336,-0.098,-0.333,-0.189,1.521,-120.653,13.243
14:00:11:267,4.337,-0.054,-0.330,-0.244,1.772,-118.688,12.006
14:00:11:267,4.337,0.027,-0.329,-0.193,2.056,-117.640,11.106
14:00:11:314,4.384,0.038,-0.281,-0.193,2.512,-115.921,9.881
14:00:11:315,4.385,0.087,-0.214,-0.214,2.912,-114.119,8.799
14:00:11:338,4.408,0.110,-0.027,-0.246,3.056,-113.038,8.077
14:00:11:364,4.433,0.162,0.312,-0.353,2.991,-111.830,6.748
14:00:11:421,4.490,0.157,0.493,-0.435,2.729,-111.591,5.597
14:00:11:421,4.490,-0.046,0.025,-0.517,2.154,-112.054,3.708
14:00:11:472,4.542,-0.106,-0.213,-0.619,1.485,-112.844,2.098
14:00:11:473,4.542,-0.021,0.146,-0.655,0.981,-113.763,1.413
14:00:11:556,4.625,0.170,0.663,-0.551,0.634,-115.959,1.439
14:00:11:556,4.625,0.150,0.445,-0.274,1.217,-116.997,2.357
14:00:11:556,4.625,0.077,0.419,-0.197,3.036,-117.077,5.335
14:00:11:576,4.645,-0.067,0.194,-0.097,4.348,-115.950,8.372
14:00:11:689,4.758,-0.067,0.006,-0.094,5.784,-113.001,13.859
14:00:11:689,4.759,-0.035,-0.109,-0.040,6.559,-110.500,19.704
14:00:11:689,4.759,0.010,-0.068,0.008,6.943,-109.632,23.443
14:00:11:69,4.760,-0.060,-0.054,0.008,7.667,-109.554,28.426
14:00:11:705,4.775,-0.095,-0.144,0.035,8.679,-110.495,30.888
14:00:11:732,4.801,-0.143,-0.344,0.129,11.249,-112.935,33.821
14:00:11:789,4.859,-0.191,-0.516,0.237,14.657,-115.686,36.242
14:00:11:789,4.859,-0.220,-0.568,0.262,16.820,-116.885,37.783
14:00:11:839,4.909,-0.215,-0.576,0.303,19.514,-117.419,40.002
14:00:11:84,4.910,-0.125,-0.498,0.421,20.907,-117.132,41.207
14:00:11:863,4.932,-0.069,-0.397,0.494,22.076,-115.954,42.277
14:00:11:889,4.959,-0.051,-0.288,0.547,21.948,-114.664,42.425
14:00:11:945,5.014,-0.140,-0.216,0.548,19.875,-111.573,41.762
14:00:11:946,5.015,-0.079,0.011,0.413,15.604,-106.351,40.304
14:00:11:969,5.038,0.061,0.236,0.472,12.428,-102.115,38.714
14:00:11:994,5.064,0.220,0.667,0.435,8.850,-96.049,34.754
14:00:12:049,5.119,0.236,1.035,0.173,7.592,-92.656,30.474
14:00:12:05,5.120,0.184,0.903,-0.038,7.098,-88.821,23.231
14:00:12:102,5.171,0.076,0.403,-0.130,7.252,-85.099,16.923
14:00:12:103,5.172,-0.062,-0.003,-0.136,7.401,-81.755,14.184
14:00:12:126,5.195,-0.185,-0.117,-0.181,7.165,-75.791,12.577
14:00:12:152,5.221,-0.179,-0.138,-0.206,6.696,-72.325,12.552
14:00:12:208,5.277,-0.171,-0.207,-0.287,5.652,-68.734,13.378
14:00:12:208,5.278,-0.214,-0.311,-0.329,4.735,-67.175,14.451
14:00:12:23,5.300,-0.136,-0.440,-0.280,4.428,-67.049,14.869
14:00:12:286,5.355,-0.158,-0.373,-0.211,4.700,-68.428,14.251
14:00:12:286,5.356,-0.128,-0.394,-0.177,5.232,-69.769,13.362
14:00:12:312,5.381,-0.131,-0.293,-0.162,6.034,-71.533,11.260
14:00:12:336,5.405,-0.135,-0.179,-0.227,6.534,-72.453,9.458
14:00:12:364,5.433,-0.094,-0.122,-0.260,7.266,-73.358,6.453
14:00:12:389,5.459,0.055,0.076,-0.343,7.950,-73.204,3.590
14:00:12:414,5.484,0.024,0.289,-0.433,8.347,-72.262,1.965
14:00:12:442,5.511,-0.165,0.210,-0.441,8.966,-69.488,0.297
14:00:12:497,5.566,-0.234,-0.037,-0.390,9.400,-66.807,-0.084
14:00:12:497,5.566,-0.296,0.184,-0.557,9.757,-62.144,0.346
14:00:12:608,5.678,-0.279,0.783,-0.831,9.471,-58.871,1.320
14:00:12:609,5.678,-0.081,0.783,-0.802,8.926,-58.438,2.237
14:00:12:609,5.678,0.032,0.273,-0.478,8.754,-59.565,4.316
14:00:12:609,5.679,0.025,0.160,-0.169,8.793,-61.014,6.394
14:00:12:624,5.694,-0.042,0.068,-0.100,8.758,-63.520,10.190
14:00:12:683,5.752,-0.076,-0.166,-0.080,8.694,-65.444,12.950
14:00:12:683,5.752,-0.071,-0.273,-0.084,8.744,-68.747,16.906
14:00:12:684,5.753,-0.019,-0.239,-0.058,9.055,-72.086,20.704
14:00:12:733,5.802,0.082,-0.238,0.088,9.466,-74.641,23.039
14:00:12:735,5.805,0.087,-0.324,0.094,10.395,-78.156,25.978
14:00:12:757,5.826,0.109,-0.408,0.107,11.233,-80.134,27.651
14:00:12:782,5.851,0.128,-0.418,0.114,12.680,-82.557,29.763
14:00:12:808,5.877,0.167,-0.415,0.154,14.277,-84.342,31.548
14:00:12:834,5.904,0.184,-0.382,0.216,15.343,-85.363,32.441
14:00:12:89,5.959,0.241,-0.207,0.318,16.622,-86.555,33.156
14:00:12:89,5.959,0.307,-0.046,0.419,16.948,-86.777,33.285
14:00:12:942,6.012,0.283,-0.132,0.457,16.603,-86.106,32.970
14:00:12:943,6.012,0.241,0.017,0.463,15.808,-84.861,32.532
14:00:12:966,6.035,0.431,0.598,0.597,13.877,-81.786,31.819
14:00:12:992,6.061,0.207,0.542,0.395,11.573,-77.873,30.588
14:00:13:018,6.087,0.117,0.611,0.279,9.996,-75.449,29.223
14:00:13:073,6.142,-0.065,0.503,0.156,8.220,-73.322,26.906
14:00:13:074,6.143,-0.090,0.142,0.170,7.450,-72.656,25.462
14:00:13:097,6.166,-0.134,-0.007,0.121,6.533,-72.316,23.685
14:00:13:123,6.192,-0.158,-0.165,-0.006,5.914,-71.557,22.188
14:00:13:178,6.248,-0.161,-0.265,-0.024,5.808,-71.371,21.309
14:00:13:179,6.248,-0.084,-0.335,-0.037,5.871,-70.105,19.924
14:00:13:204,6.273,-0.118,-0.420,-0.116,5.975,-69.305,18.930
14:00:13:258,6.327,-0.066,-0.428,-0.102,6.325,-67.266,17.346
14:00:13:258,6.327,-0.063,-0.465,-0.195,6.661,-65.761,16.281
14:00:13:281,6.350,-0.101,-0.427,-0.246,7.214,-62.600,14.596
14:00:13:307,6.376,-0.118,-0.273,-0.278,7.891,-60.425,12.599
14:00:13:335,6.404,-0.133,-0.026,-0.342,8.347,-59.564,10.976
14:00:13:361,6.430,-0.184,0.131,-0.435,8.930,-59.606,7.997
14:00:13:387,6.457,-0.139,0.393,-0.519,9.222,-60.206,5.780
14:00:13:412,6.481,-0.124,0.424,-0.554,9.387,-61.692,2.994
14:00:13:44,6.509,-0.144,0.122,-0.430,9.435,-60.799,1.792
14:00:13:465,6.534,-0.311,0.325,-0.500,9.405,-59.608,1.983
14:00:13:491,6.561,-0.462,0.539,-0.620,9.038,-57.470,3.213
14:00:13:575,6.644,-0.200,0.495,-0.600,8.571,-57.628,4.539
14:00:13:576,6.645,-0.047,0.415,-0.457,7.854,-59.154,7.508
14:00:13:576,6.646,0.062,0.320,-0.212,7.612,-62.735,11.488
14:00:13:595,6.665,0.119,0.276,-0.065,7.828,-66.054,14.298
14:00:13:651,6.720,0.162,-0.028,0.237,8.956,-71.462,18.379
14:00:13:651,6.721,0.070,-0.127,0.118,10.019,-74.431,20.733
14:00:13:733,6.802,0.116,-0.290,0.084,11.868,-77.461,24.292
14:00:13:733,6.802,0.169,-0.348,0.208,13.020,-78.493,26.791
14:00:13:734,6.803,0.163,-0.389,0.248,14.568,-79.115,30.629
14:00:13:811,6.881,0.138,-0.354,0.149,15.725,-79.198,34.044
14:00:13:812,6.881,0.164,-0.355,0.202,16.538,-79.164,36.014
14:00:13:813,6.882,0.187,-0.370,0.236,17.854,-79.164,38.453
14:00:13:863,6.933,0.204,-0.460,0.261,18.867,-79.250,39.718
14:00:13:863,6.933,0.200,-0.492,0.262,20.335,-79.427,41.038
14:00:13:884,6.953,0.267,-0.444,0.356,21.364,-79.203,41.737
14:00:13:911,6.980,0.318,-0.377,0.400,21.407,-78.786,41.844
14:00:13:937,7.007,0.357,-0.220,0.425,19.881,-77.353,41.297
14:00:13:965,7.035,0.266,-0.076,0.392,17.865,-75.862,40.425
14:00:14:077,7.146,0.466,0.420,0.451,14.168,-73.075,38.103
14:00:14:077,7.147,0.340,0.678,0.354,10.772,-70.889,33.673
14:00:14:078,7.148,0.123,0.835,0.092,8.732,-69.381,29.257
14:00:14:079,7.148,-0.029,0.874,-0.105,6.962,-67.911,21.808
14:00:14:094,7.164,-0.023,0.374,-0.090,6.456,-67.758,17.369
14:00:14:121,7.190,-0.161,0.061,-0.111,6.029,-66.044,12.934
14:00:14:176,7.245,-0.257,-0.248,-0.067,5.853,-63.709,11.885
14:00:14:176,7.246,-0.321,-0.311,-0.161,5.428,-59.338,12.264
14:00:14:199,7.269,-0.250,-0.320,-0.254,4.809,-55.042,14.150
14:00:14:255,7.324,-0.165,-0.259,-0.319,4.466,-52.507,16.000
14:00:14:256,7.325,-0.142,-0.100,-0.226,4.179,-49.916,19.110
14:00:14:278,7.348,-0.098,-0.167,-0.113,4.422,-49.203,20.918
14:00:14:333,7.403,-0.049,-0.230,-0.062,5.442,-49.653,22.513
14:00:14:334,7.404,-0.012,-0.284,-0.032,6.602,-50.798,22.783
14:00:14:387,7.456,-0.020,-0.237,-0.023,7.144,-51.247,22.570
14:00:14:387,7.457,-0.033,-0.133,-0.079,7.567,-52.212,21.593
14:00:14:439,7.508,-0.053,-0.081,-0.134,7.682,-52.584,20.546
14:00:14:439,7.508,-0.033,0.009,-0.226,7.592,-53.668,18.878
14:00:14:464,7.533,0.066,0.066,-0.155,7.418,-54.849,17.522
14:00:14:49,7.559,0.046,0.273,-0.105,7.123,-55.143,17.047
14:00:14:515,7.584,-0.045,0.264,-0.113,6.348,-55.389,16.893
14:00:14:541,7.611,-0.138,0.086,-0.100,5.750,-54.725,17.038
14:00:14:625,7.694,-0.290,0.190,-0.092,4.625,-53.340,17.410
14:00:14:626,7.695,-0.338,0.317,-0.153,3.530,-51.780,17.502
14:00:14:627,7.696,-0.313,0.305,-0.206,3.032,-51.661,17.249
14:00:14:646,7.715,-0.113,0.215,-0.203,3.174,-52.776,16.405
14:00:14:672,7.741,-0.065,0.217,-0.165,3.851,-54.417,15.964
14:00:14:727,7.797,-0.018,0.102,-0.068,5.285,-56.935,15.883
14:00:14:728,7.797,-0.036,-0.055,-0.025,6.370,-58.795,16.288
14:00:14:751,7.821,-0.012,-0.082,-0.005,7.885,-60.519,17.606
14:00:14:778,7.847,-0.065,-0.229,0.001,9.024,-61.351,19.732
14:00:14:803,7.872,-0.019,-0.265,0.003,9.612,-61.521,21.528
14:00:14:829,7.899,0.017,-0.212,0.033,10.282,-61.253,24.610
14:00:14:856,7.925,0.057,-0.235,0.043,10.698,-60.974,26.769
14:00:14:885,7.954,0.082,-0.263,0.051,11.621,-60.846,29.721
14:00:14:91,7.979,0.143,-0.285,0.077,13.087,-61.086,32.021
14:00:14:937,8.006,0.170,-0.301,0.100,14.278,-61.331,33.013
14:00:14:938,8.007,0.249,-0.304,0.135,16.033,-61.384,33.921
14:00:15:021,8.090,0.379,-0.184,0.164,16.850,-60.970,34.249
14:00:15:021,8.090,0.422,-0.065,0.147,17.184,-59.411,34.336
14:00:15:021,8.091,0.434,0.044,0.127,16.484,-57.032,33.694
14:00:15:039,8.109,0.320,0.032,0.091,15.446,-55.015,32.941
14:00:15:068,8.137,0.345,0.038,0.088,13.478,-51.576,31.613
14:00:15:092,8.162,0.619,0.279,0.156,11.924,-49.102,30.564
14:00:15:118,8.187,0.468,0.291,0.033,9.264,-45.037,28.304
14:00:15:144,8.214,0.309,0.282,0.005,7.602,-42.388,26.166
14:00:15:2,8.269,0.029,0.320,-0.074,5.472,-38.944,22.731
14:00:15:2,8.270,0.108,0.265,0.073,3.979,-37.165,19.636
14:00:15:225,8.294,0.118,0.226,0.113,3.056,-36.372,18.114
14:00:15:251,8.321,-0.007,0.012,0.123,1.791,-34.948,16.436
14:00:15:276,8.345,-0.170,-0.204,0.090,1.047,-33.291,15.673
14:00:15:302,8.371,-0.127,-0.245,0.075,0.326,-29.912,14.927
14:00:15:33,8.400,-0.097,-0.143,0.001,0.011,-25.461,14.299
14:00:15:356,8.426,-0.144,-0.105,-0.025,0.054,-22.135,13.896
14:00:15:381,8.451,-0.223,-0.102,-0.014,0.373,-17.183,13.079
14:00:15:407,8.476,-0.298,-0.134,-0.003,0.718,-14.003,12.374
14:00:15:433,8.502,-0.347,-0.197,-0.001,1.393,-10.145,10.949
14:00:15:46,8.529,-0.363,-0.139,-0.040,1.894,-8.227,9.823
14:00:15:488,8.557,-0.368,-0.087,-0.052,2.639,-6.325,7.831
14:00:15:513,8.582,-0.416,0.023,-0.044,3.277,-5.258,5.527
14:00:15:538,8.607,-0.451,0.116,-0.064,3.629,-4.738,3.906
14:00:15:593,8.663,-0.551,0.232,-0.052,3.955,-4.056,1.407
14:00:15:594,8.663,-0.671,0.192,0.077,4.032,-3.562,-0.199
14:00:15:646,8.715,-0.668,-0.072,0.158,4.094,-2.909,-2.105
14:00:15:647,8.716,-0.791,0.075,0.215,3.904,-2.131,-3.081
14:00:15:67,8.739,-0.798,0.221,0.169,3.551,-2.297,-3.086
14:00:15:696,8.765,-0.533,0.265,0.000,3.070,-3.496,-1.375
14:00:15:722,8.791,-0.123,0.328,-0.082,3.116,-4.932,0.998
14:00:15:748,8.817,-0.012,0.397,-0.152,4.183,-7.085,6.097
14:00:15:774,8.844,0.025,0.437,-0.105,5.919,-8.557,10.196
14:00:15:83,8.900,0.047,0.256,-0.054,10.101,-9.855,17.000
14:00:15:831,8.900,0.383,-0.155,-0.004,14.485,-9.378,24.339
14:00:15:853,8.922,0.232,-0.279,-0.013,16.327,-8.135,29.122
14:00:15:879,8.948,0.390,-0.426,-0.015,18.206,-7.928,34.872
14:00:15:906,8.975,0.345,-0.437,0.008,19.315,-8.386,38.004
14:00:15:935,9.004,0.266,-0.453,0.017,21.076,-9.504,41.220
14:00:15:987,9.056,0.281,-0.496,-0.059,22.945,-11.061,43.107
14:00:15:988,9.057,0.307,-0.526,-0.055,24.073,-12.042,43.855
14:00:16:01,9.080,0.422,-0.467,0.010,25.346,-13.041,44.516
14:00:16:037,9.106,0.469,-0.314,0.028,25.664,-13.174,44.635
14:00:16:067,9.136,0.478,-0.223,0.013,24.971,-12.232,44.413
14:00:16:091,9.161,0.552,-0.013,-0.036,22.576,-10.005,43.666
14:00:16:118,9.188,0.502,-0.001,-0.011,20.130,-7.621,42.769
14:00:16:171,9.240,0.471,0.073,-0.116,15.557,-2.900,40.987
14:00:16:172,9.241,0.539,0.372,-0.213,12.157,1.107,39.437
14:00:16:225,9.294,0.224,0.422,-0.096,7.533,7.529,36.086
14:00:16:225,9.294,0.011,0.482,-0.040,5.295,11.632,33.177
14:00:16:247,9.316,0.003,0.521,-0.181,3.641,16.228,28.392
14:00:16:273,9.343,-0.108,0.579,-0.031,3.127,18.860,24.320
14:00:16:328,9.398,-0.245,0.287,0.074,3.073,20.098,22.463
14:00:16:329,9.399,-0.019,-0.102,0.236,3.041,21.316,20.726
14:00:16:439,9.509,-0.027,-0.352,0.289,2.774,21.812,20.082
14:00:16:44,9.509,-0.126,-0.338,0.218,2.114,23.083,19.573
14:00:16:441,9.510,-0.164,-0.250,0.142,1.800,24.934,19.203
14:00:16:441,9.511,-0.220,-0.221,0.146,1.906,26.619,18.807
14:00:16:486,9.555,-0.170,-0.236,0.127,2.588,27.841,17.839
14:00:16:487,9.556,-0.167,-0.179,0.177,3.242,28.489,16.940
14:00:16:51,9.580,-0.162,-0.150,0.211,4.262,28.769,15.439
14:00:16:568,9.637,-0.164,-0.189,0.144,4.871,28.869,14.402
14:00:16:568,9.637,-0.175,-0.149,0.137,5.559,28.767,12.903
14:00:16:588,9.658,-0.217,-0.064,0.116,5.967,29.275,11.755
14:00:16:614,9.684,-0.253,0.198,0.064,6.127,29.766,11.200
14:00:16:641,9.710,-0.279,0.272,0.116,6.174,30.949,10.477
14:00:16:668,9.737,-0.247,0.073,0.151,6.253,31.917,10.178
14:00:16:694,9.763,-0.294,0.113,0.268,6.229,34.043,10.045
14:00:16:72,9.789,-0.388,0.445,0.262,6.097,35.907,10.452
14:00:16:746,9.815,-0.373,0.505,0.160,6.011,36.023,10.993
14:00:16:772,9.841,-0.269,0.436,0.060,6.170,34.399,12.750
14:00:16:8,9.869,-0.081,0.361,-0.028,6.392,32.630,14.621
14:00:16:856,9.925,-0.005,0.308,-0.033,6.788,29.933,18.263
14:00:16:856,9.925,0.055,0.095,-0.065,7.541,26.712,22.242
14:00:16:878,9.947,0.069,-0.136,-0.095,8.398,24.497,24.837
14:00:16:903,9.972,0.132,-0.275,-0.103,9.905,21.722,28.856
14:00:16:929,9.999,0.175,-0.309,-0.076,10.883,20.474,31.586
14:00:16:956,10.025,0.222,-0.238,-0.061,12.274,19.039,35.639
14:00:16:982,10.051,0.225,-0.339,-0.076,14.158,17.351,38.934
14:00:17:008,10.077,0.248,-0.364,-0.094,15.766,15.943,40.590
14:00:17:035,10.104,0.250,-0.439,-0.100,18.606,13.620,42.128
14:00:17:063,10.132,0.294,-0.515,-0.112,20.568,12.151,42.669
14:00:17:088,10.157,0.359,-0.483,-0.156,22.950,11.195,43.213
14:00:17:113,10.182,0.427,-0.222,-0.288,23.693,11.142,43.291
14:00:17:139,10.209,0.510,-0.056,-0.407,23.661,12.384,42.923
14:00:17:166,10.235,0.467,-0.059,-0.371,22.277,14.250,41.652
14:00:17:222,10.291,0.317,-0.128,-0.218,20.565,16.607,40.653
14:00:17:222,10.291,0.377,-0.028,-0.342,17.423,21.013,39.494
14:00:17:248,10.317,0.386,0.242,-0.446,14.969,24.434,38.554
14:00:17:248,10.317,0.254,0.366,-0.391,11.169,30.071,36.351
14:00:17:271,10.340,0.096,0.433,-0.243,7.995,35.891,33.310
14:00:17:3,10.370,0.045,0.526,-0.175,6.590,39.305,30.866
14:00:17:323,10.392,0.048,0.490,-0.107,5.521,43.109,27.166
14:00:17:35,10.419,0.078,0.370,0.094,5.028,45.194,24.942
14:00:17:404,10.474,0.043,0.083,0.277,4.383,48.225,22.256
14:00:17:405,10.475,0.043,-0.203,0.261,4.152,49.361,20.827
14:00:17:459,10.529,-0.030,-0.218,0.204,4.020,50.990,19.149
14:00:17:459,10.529,-0.037,-0.230,0.131,4.178,52.755,18.151
14:00:17:481,10.550,-0.045,-0.260,0.147,4.381,54.397,17.795
14:00:17:507,10.576,-0.038,-0.295,0.199,4.749,57.136,17.492
14:00:17:535,10.604,-0.038,-0.340,0.237,5.007,58.734,17.278
14:00:17:56,10.630,-0.031,-0.331,0.259,5.427,60.713,16.696
14:00:17:585,10.655,-0.057,-0.204,0.193,5.894,61.752,15.830
14:00:17:614,10.683,-0.085,-0.152,0.150,6.200,62.440,15.127
14:00:17:696,10.766,-0.115,-0.087,0.107,6.526,63.374,14.072
14:00:17:697,10.766,-0.131,0.187,0.093,6.552,64.356,13.434
14:00:17:698,10.767,-0.119,0.266,0.150,6.314,66.250,12.619
14:00:17:717,10.786,-0.077,0.199,0.226,5.750,68.904,12.032
14:00:17:743,10.812,0.011,0.246,0.381,5.232,70.749,11.662
14:00:17:77,10.839,0.021,0.418,0.428,4.386,72.743,11.182
14:00:17:796,10.865,-0.017,0.270,0.268,3.862,73.404,11.067
14:00:17:851,10.920,-0.002,0.173,0.132,3.452,74.002,11.831
14:00:17:852,10.921,0.088,0.119,0.057,3.365,74.137,13.049
14:00:17:905,10.975,0.164,0.179,0.041,3.236,73.958,15.411
14:00:17:906,10.975,0.190,0.041,0.069,3.316,73.127,17.689
14:00:17:927,10.996,0.184,-0.071,0.077,3.616,72.272,19.089
14:00:17:953,11.022,0.165,-0.132,-0.037,4.255,70.613,21.077
14:00:17:979,11.049,0.163,-0.122,-0.104,4.725,69.376,22.440
14:00:18:007,11.077,0.157,-0.168,-0.091,5.452,67.990,24.597
14:00:18:033,11.102,0.132,-0.258,-0.104,6.192,67.407,26.903
14:00:18:058,11.127,0.138,-0.275,-0.115,6.663,67.268,28.509
14:00:18:113,11.183,0.103,-0.261,-0.145,7.285,67.563,30.876
14:00:18:114,11.184,0.113,-0.296,-0.151,7.791,67.606,32.216
14:00:18:138,11.208,0.110,-0.303,-0.165,8.694,67.618,33.755
14:00:18:163,11.233,0.112,-0.192,-0.265,9.388,67.386,34.364
14:00:18:189,11.258,0.092,-0.032,-0.401,10.282,67.261,34.599
14:00:18:216,11.285,0.114,0.009,-0.428,10.500,67.778,33.901
14:00:18:242,11.311,0.173,-0.138,-0.167,9.968,68.977,33.223
14:00:18:268,11.337,0.093,-0.144,-0.185,8.690,72.448,32.362
14:00:18:321,11.391,-0.086,0.147,-0.398,7.908,74.925,31.804
14:00:18:351,11.421,-0.150,0.396,-0.445,6.708,79.233,30.674
14:00:18:352,11.421,-0.137,0.485,-0.295,5.413,84.368,28.908
14:00:18:373,11.442,-0.089,0.387,-0.135,4.570,88.261,27.530
14:00:18:399,11.468,0.111,0.239,-0.006,3.215,93.792,25.352
14:00:18:427,11.497,0.241,0.119,0.086,2.432,96.913,23.988
14:00:18:452,11.522,0.243,-0.053,0.156,1.519,99.720,22.260
14:00:18:478,11.547,0.177,-0.109,0.134,1.088,100.913,21.031
14:00:18:504,11.574,0.127,-0.158,0.030,1.104,100.913,20.550
14:00:18:53,11.600,0.138,-0.202,-0.013,1.377,101.322,20.131
14:00:18:557,11.626,0.157,-0.224,0.040,1.631,102.332,20.002
14:00:18:584,11.653,0.166,-0.238,0.055,2.090,104.465,19.821
14:00:18:609,11.679,0.193,-0.213,0.143,2.364,105.960,19.558
14:00:18:666,11.736,0.177,-0.209,0.138,2.829,107.319,18.699
14:00:18:666,11.736,0.168,-0.216,0.112,3.247,107.981,17.345
14:00:18:689,11.758,0.172,-0.181,0.129,3.385,108.425,16.288
14:00:18:715,11.784,0.170,-0.125,0.137,3.424,109.054,14.512
14:00:18:767,11.836,0.220,0.247,0.233,3.098,110.645,11.381
14:00:18:793,11.863,0.199,0.128,0.263,2.934,112.013,9.866
14:00:18:819,11.889,0.239,0.351,0.258,2.718,113.184,9.209
14:00:18:848,11.917,0.323,0.259,0.329,2.583,114.846,8.857
14:00:18:873,11.943,0.269,0.266,0.369,2.598,115.364,9.044
14:00:18:899,11.968,0.108,0.373,0.353,2.756,114.759,10.014
14:00:18:924,11.994,0.038,0.430,0.230,3.037,113.536,11.069
14:00:18:981,12.051,-0.007,0.360,0.150,3.738,110.878,13.251
14:00:18:982,12.051,-0.018,0.226,0.043,4.647,107.998,15.815
14:00:19:003,12.073,0.011,-0.067,-0.007,5.322,105.903,17.377
14:00:19:029,12.099,-0.005,-0.261,-0.009,6.390,102.531,19.964
14:00:19:056,12.125,-0.006,-0.331,-0.008,7.245,100.814,23.237
14:00:19:083,12.153,-0.028,-0.315,-0.064,7.762,99.520,25.600
14:00:19:137,12.206,-0.076,-0.341,-0.102,8.738,98.003,29.052
14:00:19:138,12.207,-0.092,-0.364,-0.130,9.618,96.819,31.262
14:00:19:161,12.231,-0.115,-0.361,-0.173,11.138,95.476,34.347
14:00:19:187,12.257,-0.158,-0.323,-0.258,12.274,94.559,36.248
14:00:19:214,12.284,-0.160,-0.373,-0.314,14.106,93.606,38.589
14:00:19:268,12.338,-0.168,-0.368,-0.295,15.393,93.017,40.011
14:00:19:269,12.338,-0.195,-0.296,-0.337,15.803,92.870,40.455
14:00:19:321,12.390,-0.264,-0.048,-0.528,15.616,92.656,40.063
14:00:19:322,12.391,-0.157,0.031,-0.435,14.574,92.885,38.997
14:00:19:375,12.444,0.017,0.067,-0.279,11.866,94.188,36.479
14:00:19:375,12.445,-0.002,0.212,-0.272,9.264,95.599,33.110
14:00:19:397,12.467,-0.038,0.324,-0.230,7.922,96.324,30.326
14:00:19:423,12.492,0.020,0.461,-0.081,6.627,97.586,25.905
14:00:19:451,12.520,0.119,0.557,-0.013,6.087,98.702,23.166
14:00:19:476,12.545,0.164,0.429,0.024,5.465,101.120,20.211
14:00:19:503,12.573,0.247,0.188,0.054,5.050,103.187,19.207
14:00:19:533,12.603,0.350,0.011,0.105,4.352,106.441,18.892
14:00:19:533,12.603,0.240,-0.187,0.118,3.786,108.735,19.381
14:00:19:554,12.624,0.183,-0.191,0.139,3.571,109.728,19.949
14:00:19:581,12.650,0.068,-0.177,0.077,3.748,110.421,21.015
14:00:19:608,12.678,0.030,-0.232,0.031,4.173,110.864,21.838
14:00:19:662,12.731,0.044,-0.295,0.086,5.130,110.597,22.445
14:00:19:664,12.733,0.038,-0.353,0.043,6.282,109.901,22.599
14:00:19:744,12.813,0.030,-0.353,0.051,6.910,109.670,22.453
14:00:19:745,12.814,0.063,-0.307,0.037,7.534,108.720,21.895
14:00:19:745,12.815,0.044,-0.244,0.027,7.748,108.224,21.202
14:00:19:764,12.834,0.016,-0.092,0.037,7.746,107.663,19.823
14:00:19:79,12.860,-0.105,0.180,0.070,7.451,107.865,18.117
14:00:19:817,12.886,-0.060,0.251,0.085,7.136,108.388,16.762
14:00:19:843,12.912,0.054,0.115,0.172,6.607,110.056,14.566
14:00:19:87,12.939,0.193,0.387,0.206,6.099,111.496,13.261
14:00:19:896,12.965,0.234,0.470,0.392,5.376,112.803,11.272
14:00:19:922,12.991,0.136,0.694,0.477,4.907,112.439,10.037
14:00:19:948,13.017,0.103,0.625,0.448,4.409,110.369,8.730
14:00:19:976,13.045,0.035,0.367,0.211,4.478,107.313,8.920
14:00:20:001,13.071,0.083,0.183,0.133,4.703,105.587,9.903
14:00:20:027,13.096,0.098,-0.015,0.104,5.148,103.688,12.452
14:00:20:054,13.123,0.120,-0.228,0.140,5.488,102.891,14.477
14:00:20:081,13.151,0.152,-0.310,0.084,6.271,101.339,17.669
14:00:20:107,13.176,0.107,-0.266,0.034,7.377,99.699,20.974
14:00:20:132,13.201,0.069,-0.285,-0.026,8.347,98.451,23.128
14:00:20:158,13.227,0.008,-0.337,-0.058,10.132,97.059,26.233
14:00:20:184,13.254,-0.085,-0.352,-0.118,11.575,96.203,28.285
14:00:20:211,13.280,-0.129,-0.297,-0.142,13.884,95.688,31.336
14:00:20:295,13.365,-0.229,-0.275,-0.225,15.595,95.346,33.396
14:00:20:296,13.366,-0.276,-0.240,-0.306,18.466,94.739,35.913
14:00:20:297,13.367,-0.372,-0.019,-0.446,20.935,93.955,37.458
14:00:20:316,13.385,-0.427,0.101,-0.502,22.051,93.748,38.005
14:00:20:342,13.411,-0.354,-0.083,-0.437,22.726,93.779,37.820
14:00:20:398,13.467,-0.303,-0.151,-0.369,22.332,94.245,37.201
14:00:20:398,13.467,-0.288,-0.106,-0.339,20.420,96.050,36.211
14:00:20:421,13.490,-0.252,0.067,-0.260,17.448,98.900,35.108
14:00:20:45,13.519,-0.276,0.168,-0.157,15.489,100.682,33.888
14:00:20:475,13.544,0.049,0.468,-0.078,13.811,101.148,31.011
14:00:20:499,13.569,0.087,0.335,-0.241,13.544,100.337,28.975
14:00:20:525,13.595,0.219,0.188,-0.154,13.021,100.161,26.545
14:00:20:553,13.623,0.340,0.034,-0.068,11.958,101.642,25.232
14:00:20:578,13.648,0.379,-0.084,0.013,11.330,102.824,24.827
14:00:20:604,13.673,0.283,-0.128,0.058,10.929,104.533,24.543
14:00:20:631,13.700,0.231,-0.116,0.043,11.054,105.506,24.496
14:00:20:657,13.726,0.132,-0.165,0.020,11.700,106.857,24.641
14:00:20:683,13.753,0.087,-0.215,-0.013,12.264,107.783,24.861
14:00:20:709,13.779,0.087,-0.262,0.032,12.900,109.280,25.046
14:00:20:765,13.835,0.124,-0.211,-0.010,13.184,110.419,24.974
14:00:20:766,13.835,0.048,-0.153,-0.003,13.222,111.004,24.797
14:00:20:788,13.857,0.029,-0.294,-0.003,13.012,111.817,24.296
14:00:20:844,13.913,-0.007,-0.246,0.018,12.729,112.586,23.910
14:00:20:844,13.914,-0.090,-0.004,0.014,12.128,114.198,23.126
14:00:20:869,13.938,-0.067,0.157,0.033,11.148,115.398,21.700
14:00:20:894,13.963,0.001,0.101,0.053,10.357,116.450,20.395
14:00:20:919,13.989,0.120,0.359,0.112,8.889,118.225,18.152
14:00:20:946,14.015,0.172,0.827,0.225,7.847,119.280,16.447
14:00:20:972,14.041,0.124,0.698,0.248,6.456,119.559,13.640
14:00:21:,14.069,0.060,0.214,0.196,6.084,120.255,12.577
14:00:21:026,14.095,0.153,0.085,0.097,6.042,122.542,12.914
14:00:21:052,14.121,0.241,0.123,0.081,5.822,124.599,14.964
14:00:21:078,14.147,0.259,-0.011,0.129,5.556,125.120,16.758
14:00:21:103,14.173,0.187,-0.235,0.115,5.334,124.545,19.408
14:00:21:158,14.227,0.133,-0.278,0.068,5.398,123.657,21.217
14:00:21:159,14.228,0.046,-0.188,-0.043,5.569,122.347,24.165
14:00:21:182,14.251,0.008,-0.159,-0.123,5.838,120.820,26.994
14:00:21:237,14.307,-0.025,-0.222,-0.135,6.202,119.854,28.814
14:00:21:263,14.333,-0.054,-0.340,-0.125,6.892,118.660,31.423
14:00:21:264,14.334,-0.075,-0.349,-0.161,7.382,118.181,32.973
14:00:21:346,14.415,-0.083,-0.306,-0.179,7.992,117.848,34.960
14:00:21:346,14.415,-0.143,-0.243,-0.246,8.818,117.444,36.257
14:00:21:347,14.416,-0.199,-0.177,-0.291,9.472,117.053,36.499
14:00:21:366,14.435,-0.314,-0.055,-0.325,9.926,117.068,36.215
14:00:21:423,14.492,-0.313,-0.029,-0.336,9.515,117.871,35.756
14:00:21:423,14.492,-0.201,-0.063,-0.293,7.880,120.644,34.919
14:00:21:444,14.514,-0.117,-0.111,-0.201,6.470,123.483,34.277
14:00:21:5,14.569,-0.223,0.157,-0.209,4.584,127.502,33.139
14:00:21:501,14.570,-0.242,0.502,-0.168,3.145,131.584,31.385
14:00:21:525,14.594,-0.163,0.486,-0.157,2.664,133.869,29.616
14:00:21:551,14.620,-0.052,0.435,-0.103,2.001,136.670,26.279
14:00:21:605,14.675,0.156,0.315,-0.111,1.384,138.469,24.040
14:00:21:606,14.675,0.130,0.180,-0.176,0.419,140.839,21.487
14:00:21:63,14.699,0.159,0.018,-0.140,-0.656,143.253,19.840
14:00:21:655,14.724,0.206,-0.087,-0.105,-1.314,144.937,19.222
14:00:21:68,14.750,0.241,-0.088,-0.086,-2.264,147.589,18.861
14:00:21:707,14.776,0.206,-0.251,-0.089,-2.772,149.253,18.824
14:00:21:733,14.802,0.203,-0.280,-0.128,-3.555,152.015,18.947
14:00:21:762,14.832,0.222,-0.368,-0.101,-4.217,154.067,19.072
14:00:21:788,14.858,0.197,-0.400,-0.093,-5.078,157.229,19.314
14:00:21:789,14.859,0.194,-0.364,-0.097,-5.699,160.098,19.499
14:00:21:813,14.882,0.201,-0.294,-0.106,-5.945,161.523,19.388
14:00:21:838,14.907,0.200,-0.092,-0.103,-6.050,163.592,18.559
14:00:21:921,14.990,0.232,0.032,-0.217,-5.884,164.280,17.479
14:00:21:922,14.991,0.143,0.416,-0.255,-5.637,165.450,15.012
14:00:21:944,15.013,0.124,0.223,-0.182,-5.371,166.350,12.960
14:00:21:97,15.039,0.386,0.148,-0.237,-4.817,170.762,9.466
14:00:22:,15.069,0.716,0.300,-0.347,-4.027,175.989,5.665
14:00:22:,15.069,0.738,0.345,-0.101,-3.386,178.113,3.301
14:00:22:022,15.091,0.721,0.227,0.014,-2.228,179.751,0.855
14:00:22:048,15.117,0.530,0.146,-0.012,-0.888,179.267,0.708
14:00:22:104,15.173,0.276,0.120,-0.145,-0.153,178.561,2.096
14:00:22:104,15.173,0.137,0.089,-0.135,0.710,177.727,6.483
14:00:22:128,15.198,0.137,0.008,-0.099,1.151,177.909,10.562
14:00:22:181,15.251,0.081,0.128,-0.101,1.506,178.893,17.833
14:00:22:209,15.279,-0.081,0.339,-0.058,1.499,179.634,23.046
14:00:22:209,15.279,-0.201,0.174,-0.042,1.702,179.808,30.613
14:00:22:232,15.301,-0.238,-0.045,-0.061,2.953,178.940,37.171
14:00:22:287,15.356,-0.309,-0.199,-0.035,4.940,177.660,40.921
14:00:22:288,15.357,-0.398,-0.404,-0.046,9.569,175.494,45.263
14:00:22:312,15.381,-0.393,-0.542,-0.048,12.934,174.419,47.707
14:00:22:338,15.407,-0.370,-0.602,-0.068,17.771,173.459,50.605
14:00:22:363,15.433,-0.341,-0.660,-0.065,21.269,173.211,52.529
14:00:22:389,15.459,-0.368,-0.618,-0.046,22.392,173.412,53.085
14:00:22:416,15.485,-0.466,-0.494,-0.018,22.180,173.976,52.379
14:00:22:445,15.514,-0.476,-0.322,-0.044,20.669,174.535,50.691
14:00:22:524,15.593,-0.441,-0.144,-0.070,16.905,175.952,46.548
14:00:22:525,15.594,-0.637,0.176,0.072,14.248,177.307,43.067
14:00:22:55,15.619,-0.653,0.449,0.149,10.611,179.913,36.876
14:00:22:551,15.620,-0.484,0.829,0.221,7.690,-176.676,29.432
14:00:22:575,15.644,-0.144,0.919,0.040,6.284,-173.825,24.170
14:00:22:6,15.669,0.167,0.653,-0.184,5.317,-169.771,16.862
14:00:22:656,15.726,0.146,0.347,-0.138,5.209,-167.155,12.789
14:00:22:657,15.726,0.290,0.041,-0.123,5.508,-162.425,8.429
14:00:22:678,15.748,0.360,-0.071,-0.178,6.384,-157.814,5.587
14:00:22:735,15.804,0.423,-0.129,-0.213,7.260,-155.042,4.321
14:00:22:735,15.804,0.446,-0.184,-0.199,8.721,-151.124,3.010
14:00:22:757,15.826,0.447,-0.281,-0.198,9.839,-148.604,2.530
14:00:22:873,15.942,0.426,-0.344,-0.230,11.412,-145.387,2.082
14:00:22:873,15.942,0.387,-0.399,-0.277,12.629,-143.254,1.712
14:00:22:873,15.942,0.386,-0.403,-0.307,13.219,-142.503,1.380
14:00:22:874,15.943,0.372,-0.383,-0.297,13.768,-142.227,0.759
14:00:22:918,15.987,0.384,-0.338,-0.273,13.956,-142.358,0.349
14:00:22:918,15.987,0.456,-0.169,-0.188,14.028,-142.757,-0.140
14:00:22:941,16.010,0.514,-0.004,-0.182,13.920,-142.219,-0.383
14:00:22:996,16.065,0.546,0.108,-0.203,13.529,-142.533,-0.574
14:00:22:997,16.066,0.429,-0.109,-0.250,12.904,-142.055,-0.363
14:00:23:02,16.089,0.446,-0.073,-0.256,12.294,-141.940,0.053
14:00:23:045,16.115,0.558,0.323,-0.408,10.995,-141.446,0.972
14:00:23:072,16.141,0.555,0.313,-0.337,9.992,-142.372,1.738
14:00:23:098,16.167,0.485,0.327,-0.214,8.343,-144.848,3.493
14:00:23:178,16.247,0.317,0.401,-0.141,6.856,-148.552,6.338
14:00:23:207,16.277,0.210,0.387,-0.125,6.165,-151.451,8.987
14:00:23:208,16.277,0.081,0.282,-0.024,5.668,-156.292,13.641
14:00:23:283,16.352,-0.036,0.183,-0.022,5.858,-159.955,16.700
14:00:23:31,16.379,-0.122,0.092,-0.014,7.195,-166.135,21.222
14:00:23:338,16.408,-0.293,-0.032,0.040,8.770,-170.178,24.213
14:00:23:339,16.408,-0.338,-0.066,0.021,11.560,-174.624,28.684
14:00:23:361,16.431,-0.314,-0.236,0.006,14.357,-176.829,33.099
14:00:23:391,16.460,-0.312,-0.331,0.029,16.190,-177.319,35.978
14:00:23:391,16.461,-0.224,-0.467,0.047,18.913,-177.245,40.047
14:00:23:476,16.545,-0.235,-0.483,0.032,20.869,-177.185,42.430
14:00:23:476,16.545,-0.259,-0.485,0.055,23.926,-177.426,45.026
14:00:23:477,16.546,-0.336,-0.456,0.124,26.623,-177.604,46.461
14:00:23:477,16.546,-0.402,-0.372,0.229,27.875,-177.546,46.755
14:00:23:608,16.677,-0.456,-0.305,0.259,28.415,-177.114,46.110
14:00:23:608,16.678,-0.472,-0.228,0.228,26.994,-176.011,44.370
14:00:23:608,16.678,-0.472,-0.141,0.236,25.014,-174.619,42.829
14:00:23:608,16.678,-0.563,0.135,0.462,20.896,-171.278,40.030
14:00:23:627,16.696,-0.466,0.284,0.478,17.563,-168.353,37.533
14:00:23:627,16.697,-0.298,0.441,0.440,12.680,-163.060,32.975
14:00:23:679,16.749,-0.118,0.644,0.266,9.852,-159.125,29.568
14:00:23:68,16.749,0.031,0.605,0.073,6.763,-153.423,24.276
14:00:23:702,16.771,0.068,0.282,-0.043,5.122,-149.043,19.587
14:00:23:757,16.827,0.090,0.160,-0.174,4.359,-146.521,16.913
14:00:23:758,16.827,0.153,0.044,-0.293,3.467,-142.695,13.698
14:00:23:781,16.850,0.139,-0.029,-0.297,3.057,-140.214,12.049
14:00:23:807,16.876,0.152,-0.099,-0.320,2.825,-136.306,9.930
14:00:23:833,16.902,0.161,-0.227,-0.346,3.027,-132.061,8.416
14:00:23:889,16.958,0.156,-0.261,-0.328,3.299,-129.327,7.802
14:00:23:889,16.958,0.204,-0.328,-0.328,3.823,-125.777,7.085
14:00:23:912,16.981,0.243,-0.311,-0.255,4.187,-124.124,6.598
14:00:23:938,17.008,0.237,-0.282,-0.258,4.712,-122.703,5.730
14:00:23:964,17.034,0.228,-0.211,-0.237,4.918,-122.290,4.932
14:00:23:991,17.060,0.222,-0.021,-0.317,4.933,-121.946,3.263
14:00:24:019,17.089,0.225,0.191,-0.501,4.429,-121.535,0.909
14:00:24:044,17.114,0.154,0.101,-0.631,3.847,-121.150,-1.033
14:00:24:07,17.139,0.048,-0.197,-0.761,2.660,-120.827,-4.282
14:00:24:096,17.165,0.103,-0.062,-0.918,1.669,-121.027,-6.435
14:00:24:126,17.196,0.406,0.620,-1.254,-0.204,-122.745,-9.291
14:00:24:126,17.196,0.232,0.321,-0.852,-0.590,-124.421,-9.019
14:00:24:208,17.278,-0.005,0.346,-0.437,0.321,-124.451,-6.604
14:00:24:208,17.278,-0.095,0.390,-0.324,2.001,-122.762,0.505
14:00:24:208,17.278,-0.116,0.332,-0.303,2.727,-121.096,6.725
14:00:24:256,17.325,-0.125,0.351,-0.262,3.305,-119.622,16.805
14:00:24:257,17.326,-0.154,0.354,-0.036,4.872,-121.030,25.848
14:00:24:28,17.349,-0.102,0.206,0.208,6.994,-122.662,31.199
14:00:24:306,17.375,-0.185,0.054,0.496,12.062,-125.910,37.834
14:00:24:332,17.402,-0.301,-0.106,0.563,16.890,-128.500,41.310
14:00:24:36,17.430,-0.344,-0.402,0.438,25.151,-132.096,45.414
14:00:24:386,17.455,-0.261,-0.602,0.445,30.619,-133.670,47.862
14:00:24:44,17.509,-0.250,-0.723,0.298,37.795,-134.281,51.840
14:00:24:44,17.510,-0.254,-0.653,0.347,42.354,-133.930,54.806
14:00:24:465,17.534,-0.297,-0.800,0.373,44.218,-133.306,56.114
14:00:24:49,17.560,-0.232,-0.715,0.335,44.841,-131.573,57.094
14:00:24:515,17.585,-0.178,-0.640,0.392,43.921,-129.970,57.078
14:00:24:573,17.642,-0.140,-0.536,0.425,40.571,-126.832,56.129
14:00:24:573,17.642,-0.126,-0.350,0.438,34.881,-122.807,54.054
14:00:24:595,17.664,-0.075,-0.189,0.612,30.464,-119.854,51.860
14:00:24:621,17.690,0.131,0.460,1.091,23.480,-115.155,46.515
14:00:24:648,17.718,0.348,1.335,0.987,18.692,-111.753,40.920
14:00:24:674,17.743,0.356,1.406,0.323,13.500,-105.638,31.015
14:00:24:729,17.798,0.221,0.960,-0.162,11.499,-101.738,23.944
14:00:24:73,17.799,0.014,0.285,-0.235,9.966,-96.276,14.697
14:00:24:781,17.850,-0.143,-0.168,-0.170,9.374,-89.671,8.920
14:00:24:782,17.851,-0.174,-0.214,-0.086,9.059,-84.915,7.248
14:00:24:804,17.874,-0.121,-0.009,-0.303,8.126,-78.058,6.739
14:00:24:86,17.929,-0.085,0.087,-0.474,7.458,-73.920,7.434
14:00:24:86,17.930,0.000,-0.005,-0.470,7.384,-68.544,8.847
14:00:24:883,17.952,-0.055,-0.193,-0.464,9.142,-63.682,9.557
14:00:24:909,17.979,-0.055,-0.340,-0.423,10.958,-61.500,9.488
14:00:24:936,18.005,-0.004,-0.406,-0.369,14.022,-59.946,8.374
14:00:24:962,18.031,-0.043,-0.215,-0.482,16.135,-59.331,7.163
14:00:25:018,18.087,-0.030,-0.168,-0.481,19.167,-59.176,4.533
14:00:25:018,18.088,-0.004,-0.147,-0.551,21.443,-59.656,1.122
14:00:25:041,18.110,0.088,-0.042,-0.648,22.354,-60.202,-1.271
14:00:25:069,18.138,0.043,-0.034,-0.739,22.907,-60.022,-4.481
14:00:25:125,18.194,-0.091,-0.167,-0.646,22.967,-59.267,-5.944
14:00:25:126,18.195,-0.314,-0.095,-0.715,22.800,-57.053,-6.913
14:00:25:146,18.215,-0.392,0.248,-1.161,22.450,-55.518,-6.994
14:00:25:172,18.241,-0.509,0.238,-1.199,21.039,-55.255,-6.832
14:00:25:201,18.270,-0.341,0.137,-0.880,18.590,-58.707,-5.963
14:00:25:252,18.321,-0.234,0.412,-0.700,16.368,-63.040,-4.582
14:00:25:279,18.349,-0.224,0.538,-0.585,13.327,-70.697,-0.984
14:00:25:28,18.350,-0.092,0.472,-0.368,11.925,-76.097,2.245
14:00:25:303,18.372,0.026,0.345,-0.175,11.343,-83.774,7.700
14:00:25:331,18.400,0.072,0.249,-0.010,12.822,-90.061,13.551
14:00:25:359,18.428,0.112,0.237,0.147,14.807,-93.626,17.474
14:00:25:384,18.454,0.164,0.097,0.313,18.854,-97.427,23.556
14:00:25:409,18.479,0.235,-0.136,0.343,22.146,-98.779,28.070
14:00:25:435,18.505,0.301,-0.255,0.408,27.883,-99.398,35.135
14:00:25:462,18.532,0.377,-0.389,0.529,32.245,-98.893,40.112
14:00:25:488,18.557,0.366,-0.434,0.535,39.545,-96.939,48.163
14:00:25:514,18.583,0.313,-0.619,0.548,47.101,-94.590,55.548
14:00:25:54,18.609,0.327,-0.573,0.577,51.269,-92.975,59.652
14:00:25:566,18.636,0.270,-0.682,0.593,55.701,-90.823,64.172
14:00:25:592,18.662,0.169,-0.712,0.452,57.225,-89.284,66.354
14:00:25:618,18.687,0.103,-0.675,0.389,56.282,-87.410,67.674
14:00:25:644,18.714,0.139,-0.502,0.498,50.711,-86.577,66.049
14:00:25:671,18.740,0.126,-0.280,0.590,44.129,-86.659,63.070
14:00:25:699,18.768,0.066,0.311,0.758,32.681,-87.958,55.660
14:00:25:724,18.794,0.029,0.714,0.687,26.117,-89.873,49.085
14:00:25:749,18.819,-0.073,0.946,0.476,18.592,-94.910,36.940
14:00:25:776,18.845,-0.063,0.717,0.131,13.074,-101.096,23.944
14:00:25:802,18.871,-0.262,0.060,0.232,10.950,-103.714,17.852
14:00:25:83,18.899,-0.160,0.025,-0.008,9.389,-102.201,12.669
14:00:25:886,18.955,-0.152,-0.032,-0.068,8.988,-98.744,11.018
14:00:25:886,18.955,0.024,-0.042,-0.177,9.219,-91.527,10.755
14:00:25:907,18.976,0.081,-0.165,-0.349,9.788,-85.292,11.748
14:00:25:962,19.032,0.060,-0.153,-0.382,10.595,-75.418,13.665
14:00:25:963,19.032,0.061,-0.196,-0.359,11.262,-68.252,14.495
14:00:26:013,19.082,0.003,-0.230,-0.386,11.975,-65.284,14.213
14:00:26:043,19.112,0.017,-0.274,-0.450,13.267,-63.440,12.148
14:00:26:043,19.112,0.061,-0.093,-0.483,13.984,-63.431,9.757
14:00:26:066,19.135,0.033,0.124,-0.567,14.709,-64.250,5.327
14:00:26:091,19.161,0.010,0.159,-0.625,14.876,-65.320,0.536
14:00:26:118,19.188,0.013,-0.040,-0.585,14.813,-65.168,-2.032
14:00:26:143,19.213,-0.127,0.213,-0.680,14.674,-62.934,-4.420
14:00:26:169,19.239,-0.270,0.527,-0.887,14.514,-60.791,-5.038
14:00:26:195,19.265,-0.279,0.437,-0.938,14.049,-57.896,-4.187
14:00:26:222,19.291,-0.199,0.167,-0.665,13.644,-56.666,-2.419
14:00:26:28,19.350,-0.182,0.209,-0.494,12.760,-55.788,1.760
14:00:26:281,19.350,-0.250,0.178,-0.313,11.556,-55.988,7.064
14:00:26:357,19.427,-0.223,0.050,-0.292,10.708,-57.129,10.577
14:00:26:358,19.427,-0.120,0.041,-0.211,9.914,-61.464,14.995
14:00:26:413,19.482,0.046,-0.042,-0.030,10.102,-65.958,17.447
14:00:26:413,19.482,0.170,-0.196,-0.059,11.821,-71.512,21.383
14:00:26:438,19.507,-0.003,-0.301,0.158,14.966,-76.778,24.880
14:00:26:439,19.508,0.037,-0.281,0.179,17.520,-80.164,26.698
14:00:26:439,19.509,0.027,-0.332,0.226,21.524,-83.826,29.500
14:00:26:459,19.528,0.140,-0.392,0.241,23.830,-85.373,31.367
14:00:26:484,19.554,0.174,-0.278,0.185,26.395,-86.326,34.637
14:00:26:511,19.580,0.276,-0.264,0.388,28.612,-86.327,37.496
14:00:26:537,19.606,0.348,-0.166,0.431,29.638,-86.094,39.035
14:00:26:563,19.632,0.396,-0.154,0.459,30.333,-85.319,40.560
14:00:26:59,19.659,0.324,-0.219,0.422,30.061,-85.105,40.985
14:00:26:617,19.687,0.281,-0.159,0.472,28.637,-83.770,40.868
14:00:26:643,19.712,0.384,0.024,0.518,26.667,-82.551,40.379
14:00:26:698,19.767,0.418,0.305,0.403,22.386,-79.688,38.493
14:00:26:698,19.768,0.146,0.375,0.232,17.889,-76.641,34.823
14:00:26:75,19.819,0.034,0.431,0.152,15.296,-74.874,31.684
14:00:26:751,19.820,0.010,0.550,0.058,12.561,-73.330,26.726
14:00:26:775,19.844,-0.070,0.240,0.012,11.622,-72.920,23.813
14:00:26:8,19.869,-0.194,0.019,-0.028,10.881,-72.211,20.648
14:00:26:826,19.895,-0.233,-0.090,-0.076,10.442,-69.520,18.947
14:00:26:852,19.922,-0.207,-0.175,-0.138,10.403,-67.576,18.524
14:00:26:878,19.948,-0.156,-0.235,-0.132,10.696,-64.540,18.221
14:00:26:906,19.976,-0.118,-0.236,-0.177,11.001,-62.771,18.144
14:00:26:96,20.029,-0.080,-0.288,-0.140,11.516,-60.118,18.082
14:00:26:96,20.030,-0.046,-0.335,-0.269,11.881,-58.530,18.032
14:00:26:983,20.052,-0.061,-0.249,-0.227,12.438,-57.323,17.103
14:00:27:039,20.108,0.003,-0.213,-0.235,12.879,-57.206,15.728
14:00:27:04,20.110,-0.011,-0.132,-0.231,12.963,-57.388,14.537
14:00:27:063,20.132,-0.019,0.060,-0.288,12.670,-58.459,12.252
14:00:27:088,20.158,0.006,0.241,-0.340,12.203,-58.905,10.482
14:00:27:114,20.184,-0.110,0.136,-0.340,11.346,-59.661,7.914
14:00:27:141,20.210,-0.217,0.068,-0.337,10.583,-59.142,6.027
14:00:27:167,20.236,-0.313,0.197,-0.404,10.101,-58.202,5.233
14:00:27:193,20.262,-0.374,0.455,-0.519,9.412,-57.459,4.492
14:00:27:22,20.289,-0.205,0.342,-0.472,8.992,-57.516,4.345
14:00:27:246,20.315,-0.163,0.259,-0.386,8.817,-58.372,5.396
14:00:27:274,20.344,-0.162,0.160,-0.248,8.945,-58.596,7.057
14:00:27:327,20.397,-0.164,0.082,-0.235,9.266,-58.932,10.625
14:00:27:328,20.397,-0.092,0.041,-0.171,9.548,-60.055,14.788
14:00:27:351,20.420,-0.058,-0.010,-0.102,9.901,-61.354,17.632
14:00:27:408,20.477,0.031,0.033,0.008,10.822,-63.608,22.056
14:00:27:408,20.477,0.077,0.027,0.104,11.749,-65.293,25.016
14:00:27:43,20.499,0.157,-0.092,0.209,13.726,-67.454,29.709
14:00:27:458,20.527,0.165,-0.240,0.190,16.007,-68.562,34.616
14:00:27:483,20.553,0.200,-0.319,0.199,17.732,-68.795,37.875
14:00:27:509,20.578,0.243,-0.407,0.226,20.765,-68.924,42.435
14:00:27:534,20.604,0.250,-0.512,0.206,23.029,-68.909,45.051
14:00:27:561,20.630,0.255,-0.552,0.254,26.659,-69.077,47.809
14:00:27:587,20.656,0.370,-0.502,0.307,29.456,-69.318,48.855
14:00:27:613,20.683,0.439,-0.397,0.392,30.102,-69.179,48.616
14:00:27:64,20.709,0.373,-0.242,0.343,28.745,-67.760,47.105
14:00:27:668,20.737,0.443,-0.072,0.372,26.330,-65.534,45.749
14:00:27:695,20.764,0.668,0.297,0.417,21.588,-61.065,42.918
14:00:27:718,20.788,0.584,0.382,0.272,18.163,-57.861,40.046
14:00:27:745,20.814,0.391,0.491,0.081,13.455,-52.275,34.866
14:00:27:774,20.844,0.145,0.652,-0.048,9.956,-46.016,29.285
14:00:27:797,20.866,0.089,0.571,-0.005,8.758,-42.743,25.749
14:00:27:825,20.894,0.050,0.388,-0.069,7.793,-39.420,21.396
14:00:27:85,20.919,-0.105,0.169,-0.037,7.437,-37.570,19.373
14:00:27:877,20.946,-0.227,0.006,0.019,6.820,-34.499,17.771
14:00:27:902,20.971,-0.329,-0.139,0.010,6.293,-31.296,17.016
14:00:27:928,20.998,-0.247,-0.265,0.049,6.134,-29.268,16.663
14:00:27:954,21.024,-0.286,-0.383,-0.017,6.151,-26.024,16.488
14:00:27:982,21.052,-0.173,-0.376,-0.020,6.389,-24.212,16.381
14:00:28:008,21.077,-0.227,-0.358,-0.049,6.925,-21.543,16.131
14:00:28:034,21.103,-0.164,-0.281,-0.106,7.727,-19.443,15.557
14:00:28:06,21.129,-0.161,-0.213,-0.130,8.284,-18.284,14.879
14:00:28:086,21.155,-0.147,-0.084,-0.185,8.997,-16.776,13.374
14:00:28:112,21.181,-0.167,0.121,-0.212,9.273,-15.948,12.061
14:00:28:138,21.208,-0.276,0.314,-0.225,9.261,-14.482,9.617
14:00:28:164,21.234,-0.379,0.162,-0.111,8.900,-13.036,7.021
14:00:28:191,21.260,-0.489,0.039,0.006,8.565,-11.950,5.479
14:00:28:217,21.286,-0.633,0.467,-0.022,7.977,-11.101,3.680
14:00:28:245,21.315,-0.644,0.608,-0.126,7.703,-11.399,3.041
14:00:28:27,21.340,-0.354,0.286,-0.087,8.333,-11.648,3.916
14:00:28:326,21.396,-0.288,0.126,0.096,9.200,-10.555,6.089
14:00:28:326,21.396,-0.248,0.127,0.151,10.241,-7.877,11.097
14:00:28:348,21.418,-0.190,0.069,0.133,10.371,-5.937,16.905
14:00:28:375,21.444,-0.184,0.063,0.052,10.357,-5.851,20.612
14:00:28:402,21.471,-0.017,0.056,-0.012,10.940,-7.570,25.775
14:00:28:484,21.553,0.215,-0.028,-0.040,11.945,-9.278,28.969
14:00:28:484,21.554,0.261,-0.146,0.026,14.145,-11.627,33.378
14:00:28:511,21.580,0.255,-0.298,0.057,16.818,-13.366,37.464
14:00:28:511,21.580,0.249,-0.337,0.052,18.753,-14.077,40.051
14:00:28:532,21.601,0.336,-0.399,0.025,22.004,-15.009,43.675
14:00:28:558,21.627,0.336,-0.458,0.015,24.085,-15.279,45.721
14:00:28:585,21.654,0.382,-0.370,-0.050,26.562,-15.037,48.384
14:00:28:611,21.680,0.448,-0.365,-0.022,28.050,-14.985,49.601
14:00:28:64,21.710,0.617,-0.268,-0.077,29.379,-15.183,49.873
14:00:28:641,21.710,0.580,-0.264,-0.046,28.864,-15.137,48.716
14:00:28:692,21.762,0.495,-0.233,0.008,27.162,-14.369,47.452
14:00:28:693,21.762,0.532,-0.040,-0.078,23.266,-12.059,45.107
14:00:28:716,21.785,0.562,0.118,-0.161,20.342,-10.071,43.072
14:00:28:772,21.841,0.464,0.277,-0.196,16.046,-6.575,38.910
14:00:28:773,21.842,0.308,0.534,-0.185,12.342,-2.275,33.760
14:00:28:851,21.921,-0.043,0.530,0.005,8.721,4.408,24.400
14:00:28:878,21.947,-0.112,0.301,0.082,8.106,5.915,21.102
14:00:28:878,21.947,-0.211,0.088,0.169,7.488,8.037,17.345
14:00:28:899,21.969,-0.274,-0.113,0.214,7.264,9.827,15.962
14:00:28:926,21.995,-0.267,-0.128,0.192,7.099,12.566,14.958
14:00:28:952,22.022,-0.249,-0.205,0.143,7.287,15.143,14.730
14:00:29:008,22.078,-0.244,-0.257,0.099,7.588,16.618,14.960
14:00:29:009,22.078,-0.199,-0.360,0.062,8.107,18.304,15.456
14:00:29:031,22.100,-0.206,-0.314,0.058,8.440,18.841,15.599
14:00:29:057,22.127,-0.201,-0.290,0.051,8.861,19.067,15.773
14:00:29:083,22.153,-0.180,-0.253,0.046,9.111,18.699,15.797
14:00:29:139,22.209,-0.142,-0.249,0.017,9.139,18.198,15.628
14:00:29:139,22.209,-0.109,-0.109,0.021,8.935,17.423,15.191
14:00:29:164,22.233,-0.169,0.222,-0.004,8.567,17.270,14.824
14:00:29:19,22.259,-0.162,0.241,0.031,7.876,17.433,14.202
14:00:29:215,22.284,-0.184,0.261,0.017,7.208,18.346,13.644
14:00:29:241,22.310,-0.225,0.431,0.194,6.748,19.250,13.383
14:00:29:355,22.424,-0.285,0.499,0.214,6.383,19.915,12.975
14:00:29:356,22.425,-0.242,0.486,0.118,6.410,19.415,12.883
14:00:29:356,22.425,-0.166,0.307,0.020,6.961,18.575,13.701
14:00:29:357,22.426,-0.019,0.186,-0.003,7.588,18.009,15.085
14:00:29:373,22.442,-0.008,0.113,-0.007,8.583,16.824,18.038
14:00:29:431,22.501,0.009,-0.015,0.012,9.546,15.026,21.152
14:00:29:431,22.501,0.027,-0.209,-0.027,10.353,13.390,23.042
14:00:29:451,22.520,0.087,-0.321,-0.050,11.708,11.337,25.871
14:00:29:477,22.546,0.137,-0.312,-0.085,12.482,10.577,27.912
14:00:29:503,22.573,0.127,-0.309,-0.074,13.385,10.178,30.898
14:00:29:532,22.601,0.108,-0.354,-0.111,14.345,9.670,33.442
14:00:29:557,22.626,0.125,-0.357,-0.135,15.118,9.341,34.719
14:00:29:582,22.652,0.198,-0.362,-0.190,16.506,8.318,36.097
14:00:29:608,22.678,0.254,-0.311,-0.205,17.435,7.789,36.625
14:00:29:634,22.704,0.298,-0.252,-0.204,18.514,7.174,37.072
14:00:29:689,22.759,0.354,-0.014,-0.259,18.901,7.530,37.142
14:00:29:69,22.760,0.412,0.045,-0.351,18.849,7.943,36.885
14:00:29:714,22.783,0.379,-0.005,-0.323,18.106,9.373,36.067
14:00:29:739,22.808,0.267,-0.020,-0.260,16.905,11.479,35.679
14:00:29:766,22.835,0.333,0.260,-0.386,14.550,15.803,35.004
14:00:29:794,22.863,0.163,0.171,-0.276,12.812,18.612,34.171
14:00:29:821,22.891,0.084,0.141,-0.201,10.104,23.096,32.429
14:00:29:846,22.916,0.082,0.284,0.040,7.671,26.386,29.984
14:00:29:872,22.941,0.090,0.303,0.094,6.478,28.153,28.289
14:00:29:899,22.968,0.130,0.331,0.054,5.429,28.379,25.951
14:00:29:923,22.992,0.154,0.157,0.072,5.044,28.862,24.823
14:00:29:951,23.020,0.157,-0.020,0.092,4.678,30.302,23.948
14:00:29:976,23.045,0.129,-0.101,0.091,4.213,33.950,23.860
14:00:30:004,23.073,0.078,-0.128,0.117,3.760,37.043,24.072
14:00:30:028,23.098,0.012,-0.227,0.144,3.079,42.124,24.375
14:00:30:084,23.153,0.004,-0.281,0.171,2.661,45.017,24.354
14:00:30:084,23.153,-0.029,-0.372,0.208,2.298,48.914,23.938
14:00:30:107,23.176,-0.014,-0.351,0.235,2.260,50.249,23.322
14:00:30:163,23.232,0.010,-0.351,0.231,2.502,51.082,21.854
14:00:30:163,23.233,0.024,-0.244,0.191,2.837,50.418,19.947
14:00:30:188,23.257,-0.005,-0.104,0.150,2.972,49.778,18.437
14:00:30:214,23.283,0.008,0.122,0.200,2.874,49.055,15.918
14:00:30:239,23.308,-0.075,0.504,0.169,2.544,48.658,14.063
14:00:30:265,23.334,-0.052,0.330,0.200,1.861,48.701,11.533
14:00:30:291,23.360,0.014,0.127,0.462,1.273,49.913,9.795
14:00:30:317,23.387,0.026,0.152,0.553,0.947,50.566,9.151
14:00:30:345,23.415,-0.154,0.448,0.178,0.551,50.763,9.170
14:00:30:37,23.440,-0.156,0.461,0.041,0.669,51.366,10.224
14:00:30:396,23.465,-0.061,0.357,0.048,1.898,53.440,13.493
14:00:30:422,23.491,0.016,0.163,0.059,3.228,55.644,18.022
14:00:30:477,23.546,0.009,0.026,0.054,3.909,56.811,21.074
14:00:30:478,23.547,0.034,-0.110,0.050,4.705,58.243,25.417
14:00:30:503,23.573,0.086,-0.238,0.056,5.097,58.915,28.194
14:00:30:529,23.599,0.130,-0.255,-0.019,5.853,58.922,32.137
14:00:30:554,23.624,0.176,-0.231,-0.118,7.000,57.288,35.123
14:00:30:58,23.649,0.182,-0.231,-0.125,7.890,56.013,36.709
14:00:30:606,23.675,0.190,-0.249,-0.148,9.406,54.186,38.702
14:00:30:632,23.701,0.227,-0.281,-0.237,10.648,52.989,39.515
14:00:30:659,23.728,0.229,-0.296,-0.263,12.586,51.685,41.212
14:00:30:685,23.755,0.198,-0.340,-0.303,13.814,51.254,42.200
14:00:30:711,23.780,0.193,-0.342,-0.307,15.119,51.557,43.434
14:00:30:737,23.807,0.219,-0.289,-0.424,15.710,52.912,44.270
14:00:30:764,23.834,0.264,-0.140,-0.477,15.411,53.972,44.464
14:00:30:789,23.859,0.268,-0.108,-0.434,13.866,56.801,44.031
14:00:30:816,23.885,0.241,-0.166,-0.352,12.116,59.126,43.309
14:00:30:842,23.911,0.121,0.152,-0.593,8.882,63.671,41.747
14:00:30:9,23.969,0.042,0.578,-0.702,5.529,68.909,39.000
14:00:30:9,23.970,-0.021,0.644,-0.540,3.646,73.177,36.281
14:00:31:009,24.079,-0.095,0.613,-0.182,1.686,80.420,31.297
14:00:31:009,24.079,0.033,0.282,-0.003,1.065,85.355,27.983
14:00:31:01,24.080,0.135,0.139,0.068,0.752,92.396,24.139
14:00:31:011,24.081,0.219,0.003,0.149,0.568,97.824,21.628
14:00:31:079,24.148,0.226,-0.068,0.201,0.489,100.043,20.488
14:00:31:106,24.175,0.212,-0.101,0.156,0.497,101.047,19.299
14:00:31:161,24.230,0.207,-0.166,0.127,0.653,101.172,18.902
14:00:31:161,24.231,0.186,-0.295,0.093,1.157,101.863,18.662
14:00:31:184,24.254,0.146,-0.325,0.085,1.709,102.744,18.757
14:00:31:215,24.284,0.162,-0.296,0.100,2.662,104.436,18.831
14:00:31:215,24.284,0.179,-0.285,0.156,3.761,105.580,18.312
14:00:31:237,24.306,0.170,-0.274,0.194,4.585,105.704,17.437
14:00:31:298,24.368,0.196,-0.140,0.225,5.752,104.691,15.150
14:00:31:298,24.368,0.191,-0.040,0.199,6.376,103.312,12.967
14:00:31:298,24.368,0.147,0.069,0.242,6.869,101.281,9.357
14:00:31:299,24.369,0.111,0.207,0.284,6.973,100.175,6.092
14:00:31:315,24.384,0.047,0.306,0.313,7.022,100.287,4.338
14:00:31:341,24.410,0.071,0.122,0.325,7.396,102.084,2.769
14:00:31:367,24.437,0.241,0.064,0.371,7.806,104.284,2.663
14:00:31:393,24.463,0.335,-0.061,0.430,8.301,107.815,3.399
14:00:31:42,24.489,0.163,0.233,0.570,8.461,109.547,4.147
14:00:31:446,24.515,0.115,0.437,0.590,8.348,110.566,5.339
14:00:31:472,24.542,0.064,0.237,0.414,8.447,109.935,6.763
14:00:31:5,24.570,0.088,0.115,0.326,8.693,109.055,8.157
14:00:31:526,24.595,0.107,0.129,0.221,8.968,107.351,10.953
14:00:31:552,24.621,0.079,0.069,0.184,9.037,105.940,13.211
14:00:31:577,24.647,0.000,0.020,0.120,9.206,103.013,17.247
14:00:31:604,24.673,-0.028,-0.083,0.035,10.001,98.752,21.507
14:00:31:63,24.699,-0.028,-0.122,-0.017,10.983,95.462,24.282
14:00:31:685,24.755,-0.007,-0.151,-0.153,13.118,90.396,28.241
14:00:31:686,24.755,-0.038,-0.120,-0.197,14.935,87.360,30.655
14:00:31:708,24.778,-0.025,-0.167,-0.255,18.253,83.203,33.925
14:00:31:737,24.807,-0.030,-0.273,-0.306,22.032,79.649,36.427
14:00:31:763,24.832,-0.033,-0.259,-0.319,24.292,78.042,37.739
14:00:31:789,24.858,-0.049,-0.230,-0.387,27.190,76.749,39.425
14:00:31:814,24.883,-0.063,-0.183,-0.453,28.710,76.585,40.486
14:00:31:841,24.910,-0.094,-0.037,-0.551,30.232,77.076,41.839
14:00:31:866,24.936,-0.051,-0.132,-0.618,30.844,77.652,42.560
14:00:31:892,24.962,0.061,-0.390,-0.684,30.925,79.187,43.462
14:00:31:947,25.017,-0.105,-0.106,-0.942,29.058,82.109,43.895
14:00:31:948,25.018,-0.214,0.010,-0.829,26.684,84.907,43.852
14:00:31:972,25.042,-0.204,-0.027,-0.567,22.559,89.918,43.041
14:00:32:026,25.095,-0.236,0.091,-0.589,19.744,93.290,41.812
14:00:32:027,25.096,-0.249,0.120,-0.542,16.234,98.143,39.346
14:00:32:05,25.119,-0.285,0.188,-0.412,13.388,102.743,36.303
14:00:32:076,25.145,-0.279,0.205,-0.263,11.743,105.677,33.913
14:00:32:104,25.173,-0.240,0.136,-0.110,9.801,109.915,29.891
14:00:32:129,25.198,-0.110,0.053,0.050,8.809,112.776,27.019
14:00:32:154,25.224,-0.061,0.026,0.109,7.796,116.919,22.324
14:00:32:181,25.250,0.013,0.126,0.135,7.479,119.461,18.921
14:00:32:207,25.276,-0.044,0.097,0.227,7.571,123.457,13.693
14:00:32:233,25.302,-0.129,0.082,0.361,8.409,128.746,8.745
14:00:32:26,25.329,0.089,0.149,0.501,9.460,133.621,5.647
14:00:32:286,25.356,0.432,0.102,0.569,11.851,142.021,1.301
14:00:32:314,25.383,0.626,-0.090,0.507,13.683,146.998,-1.474
14:00:32:339,25.408,0.905,-0.297,0.532,16.090,151.839,-5.887
14:00:32:364,25.434,0.976,-0.284,0.582,17.215,152.279,-10.819
14:00:32:391,25.460,1.047,-0.287,0.730,17.070,150.982,-13.988
14:00:32:417,25.486,0.805,-0.311,0.417,16.025,148.543,-17.155
14:00:32:443,25.513,0.902,-0.096,0.410,15.104,147.242,-17.946
14:00:32:471,25.540,0.925,-0.183,0.506,13.735,146.017,-17.074
14:00:32:497,25.566,0.902,-0.044,0.813,12.849,145.344,-15.488
14:00:32:523,25.593,0.719,0.112,0.790,11.279,143.355,-11.892
14:00:32:55,25.619,0.474,0.362,0.697,9.690,139.936,-6.909
14:00:32:575,25.644,0.278,0.440,0.622,8.837,136.826,-2.876
14:00:32:601,25.670,0.040,0.547,0.495,8.088,131.156,3.878
14:00:32:627,25.697,-0.134,0.552,0.350,8.390,124.855,11.195
14:00:32:653,25.723,-0.347,0.482,0.141,9.386,120.324,16.134
14:00:32:681,25.750,-0.399,0.368,-0.011,11.974,113.799,23.127
14:00:32:707,25.776,-0.522,0.288,-0.166,14.333,109.719,27.642
14:00:32:732,25.802,-0.574,0.157,-0.414,18.966,104.086,33.743
14:00:32:759,25.828,-0.642,0.056,-0.401,22.452,101.380,37.892
14:00:32:786,25.855,-0.586,-0.159,-0.581,28.538,98.796,44.203
14:00:32:811,25.880,-0.493,-0.332,-0.518,35.149,98.213,50.537
14:00:32:837,25.907,-0.295,-0.549,-0.292,40.328,98.900,55.437
14:00:32:863,25.933,-0.132,-0.649,-0.202,49.405,99.825,62.570
14:00:32:892,25.961,-0.222,-0.657,-0.384,55.467,99.795,66.860
14:00:32:918,25.987,-0.237,-0.660,-0.508,61.275,98.587,70.265
14:00:32:942,26.011,-0.089,-0.768,-0.695,64.044,96.636,71.763
14:00:32:969,26.038,-0.022,-0.639,-0.581,64.097,95.111,71.398
14:00:32:995,26.064,-0.113,-0.271,-0.780,61.027,92.235,68.596
14:00:33:021,26.090,-0.155,-0.235,-0.903,57.265,89.612,65.338
14:00:33:047,26.116,-0.212,-0.257,-0.947,49.477,85.998,59.256
14:00:33:104,26.173,-0.313,0.004,-1.113,43.208,84.751,55.169
14:00:33:104,26.173,-0.336,0.181,-0.976,33.403,85.302,49.777
14:00:33:126,26.195,-0.350,0.256,-0.756,24.723,88.477,45.310
14:00:33:152,26.222,-0.348,0.364,-0.609,19.487,91.591,42.511
14:00:33:181,26.250,-0.266,0.384,-0.374,12.498,97.458,38.123
14:00:33:207,26.277,-0.147,0.425,-0.126,8.657,101.883,34.836
14:00:33:208,26.278,-0.041,0.327,0.040,4.618,108.379,29.253
14:00:33:231,26.300,0.115,0.266,0.194,2.769,113.930,22.904
14:00:33:259,26.328,0.167,0.244,0.267,2.460,116.785,18.291
14:00:33:285,26.354,0.192,0.292,0.329,2.543,119.022,11.279
14:00:33:31,26.379,0.242,0.215,0.390,2.762,119.899,6.376
14:00:33:365,26.435,0.417,0.104,0.536,3.518,121.946,-0.835
14:00:33:366,26.435,0.538,-0.088,0.718,5.055,124.822,-7.453
14:00:33:417,26.487,0.663,-0.323,0.994,6.554,126.736,-11.216
14:00:33:418,26.488,0.731,-0.431,0.617,9.509,129.958,-14.198
14:00:33:442,26.511,0.742,-0.398,0.564,11.621,132.318,-14.818
14:00:33:468,26.537,0.936,-0.262,0.791,13.248,135.154,-14.165
14:00:33:493,26.563,0.917,-0.132,0.956,13.009,135.856,-13.228
14:00:33:52,26.589,0.721,-0.077,0.890,11.320,134.850,-11.130
14:00:33:547,26.617,0.445,0.074,0.759,8.978,131.809,-7.766
14:00:33:574,26.643,0.373,0.244,0.682,7.572,129.186,-4.626
14:00:33:6,26.670,0.252,0.416,0.551,5.916,124.790,1.323
14:00:33:626,26.695,0.050,0.508,0.386,5.171,121.703,6.033
14:00:33:652,26.721,-0.063,0.541,0.190,4.721,117.011,13.985
14:00:33:677,26.746,-0.160,0.522,-0.018,5.368,112.551,22.537
14:00:33:703,26.773,-0.288,0.465,-0.167,6.623,109.463,28.233
14:00:33:729,26.799,-0.417,0.204,-0.553,10.895,103.719,36.314
14:00:33:756,26.825,-0.404,0.134,-0.593,15.070,100.847,41.402
14:00:33:783,26.853,-0.393,-0.034,-0.636,22.998,98.262,48.857
14:00:33:808,26.878,-0.328,-0.268,-0.687,29.718,97.369,53.849
14:00:33:864,26.933,-0.299,-0.525,-0.755,40.604,97.821,61.083
14:00:33:865,26.934,-0.141,-0.952,-0.673,52.257,99.931,68.383
14:00:33:887,26.957,-0.104,-1.015,-0.582,58.749,101.597,72.442
14:00:33:914,26.984,-0.270,-0.716,-0.740,64.391,103.640,76.103
14:00:33:94,27.010,-0.222,-0.756,-0.678,64.897,104.634,76.464
14:00:33:968,27.037,-0.141,-0.746,-0.665,61.585,105.734,74.855
14:00:34:098,27.168,-0.403,-0.419,-0.908,52.427,106.537,70.699
14:00:34:178,27.247,-0.562,-0.181,-0.951,43.293,107.284,66.598
14:00:34:214,27.283,-0.532,0.018,-0.758,29.280,109.433,59.696
14:00:34:214,27.283,-0.591,0.410,-0.779,20.738,111.310,54.414
14:00:34:214,27.283,-0.483,0.744,-0.578,11.201,114.449,45.482
14:00:34:214,27.283,-0.389,0.814,-0.272,5.996,117.725,36.394
14:00:34:23,27.299,-0.238,0.799,-0.073,4.154,120.145,30.430
14:00:34:266,27.335,0.074,0.539,0.110,3.208,123.802,22.215
14:00:34:266,27.335,0.215,0.394,0.276,3.061,126.125,17.474
14:00:34:266,27.336,0.287,0.259,0.290,3.086,129.431,11.384
14:00:34:267,27.336,0.328,0.028,0.330,3.259,132.005,7.818
14:00:34:281,27.350,0.371,-0.050,0.330,4.011,137.448,3.572
14:00:34:307,27.376,0.386,-0.207,0.408,5.831,144.388,0.710
14:00:34:334,27.404,0.444,-0.289,0.430,7.369,149.045,-0.449
14:00:34:36,27.429,0.517,-0.402,0.478,9.580,154.702,-1.506
14:00:34:386,27.455,0.554,-0.461,0.463,10.729,157.043,-2.159
14:00:34:412,27.481,0.576,-0.523,0.364,11.585,157.760,-3.581
14:00:34:438,27.508,0.472,-0.581,0.358,11.096,155.546,-5.810
14:00:34:465,27.534,0.487,-0.346,0.448,10.014,153.487,-7.573
14:00:34:491,27.560,0.420,0.169,0.481,7.401,151.135,-10.083
14:00:34:517,27.587,0.294,0.273,0.324,5.655,150.803,-10.915
14:00:34:545,27.614,0.756,0.327,-0.064,3.694,152.872,-10.659
14:00:34:571,27.640,0.564,0.157,0.149,2.286,154.703,-9.876
14:00:34:625,27.694,0.178,0.283,-0.067,-0.703,156.314,-7.964
14:00:34:626,27.695,0.087,0.287,-0.455,-4.021,155.797,-4.499
14:00:34:649,27.718,-0.034,0.093,-0.468,-6.006,153.912,-1.141
14:00:34:675,27.744,-0.023,0.127,-0.639,-8.041,150.833,4.058
14:00:34:701,27.770,-0.070,0.080,-0.657,-8.739,149.552,7.164
14:00:34:727,27.796,0.127,-0.039,-0.337,-8.989,150.341,11.019
14:00:34:753,27.822,-0.086,-0.003,-0.375,-9.089,151.379,13.778
14:00:34:861,27.930,-0.072,0.000,-0.221,-9.115,151.722,15.228
14:00:34:886,27.956,-0.078,-0.313,-0.093,-8.496,151.332,17.393
14:00:34:912,27.982,-0.141,-0.381,-0.171,-8.144,151.105,18.804
14:00:34:975,28.044,0.035,-0.337,0.015,-7.994,150.960,20.491
14:00:34:975,28.044,-0.049,-0.278,-0.037,-8.191,150.841,21.415
14:00:34:975,28.044,-0.062,-0.231,-0.073,-8.487,150.505,22.088
14:00:34:976,28.045,-0.079,-0.195,-0.164,-8.554,150.478,22.209
14:00:35:048,28.118,-0.098,-0.106,-0.142,-8.599,150.945,22.018
14:00:35:048,28.118,-0.036,0.085,-0.208,-8.924,152.503,21.300
14:00:35:096,28.165,0.133,0.327,-0.317,-9.449,154.110,20.531
14:00:35:15,28.219,0.197,0.292,-0.371,-10.170,157.170,18.973
14:00:35:201,28.271,0.025,0.207,-0.281,-10.359,160.097,17.239
14:00:35:262,28.331,-0.069,0.393,-0.191,-10.251,162.103,16.018
14:00:35:263,28.332,-0.067,0.602,-0.032,-9.537,166.513,13.914
14:00:35:263,28.333,0.124,0.279,-0.076,-8.372,170.847,12.649
14:00:35:264,28.334,0.230,0.092,-0.216,-6.021,178.355,11.478
14:00:35:288,28.358,0.221,-0.027,-0.330,-4.406,-175.706,11.201
14:00:35:289,28.359,0.081,-0.101,-0.241,-4.082,-173.783,11.418
14:00:35:29,28.359,-0.008,-0.222,-0.147,-3.962,-173.793,12.171
14:00:35:291,28.360,-0.084,-0.293,-0.149,-3.594,-174.028,12.691
14:00:35:304,28.374,-0.036,-0.327,-0.113,-2.663,-173.106,13.096
14:00:35:331,28.400,0.011,-0.290,-0.067,-1.889,-171.854,13.110
14:00:35:357,28.427,0.026,-0.251,-0.031,-0.527,-169.780,12.877
14:00:35:385,28.455,0.107,-0.245,-0.105,0.995,-167.730,12.416
14:00:35:412,28.482,0.141,-0.255,-0.152,1.933,-166.594,12.010
14:00:35:413,28.483,0.166,-0.213,-0.156,2.911,-165.160,11.295
14:00:35:465,28.535,0.213,-0.134,-0.113,3.331,-164.305,10.817
14:00:35:466,28.535,0.230,-0.094,-0.109,3.707,-163.144,10.207
14:00:35:488,28.558,0.295,0.129,-0.109,3.714,-162.168,9.664
14:00:35:515,28.584,0.303,0.218,-0.132,3.548,-161.669,9.226
14:00:35:541,28.610,0.289,0.097,-0.218,3.280,-161.033,8.512
14:00:35:567,28.637,0.297,-0.022,-0.270,3.084,-160.037,7.981
14:00:35:622,28.692,0.426,0.214,-0.440,2.464,-159.673,6.892
14:00:35:623,28.693,0.492,0.374,-0.415,1.888,-159.548,6.050
14:00:35:675,28.744,0.505,0.363,-0.310,1.024,-161.306,4.975
14:00:35:675,28.745,0.391,0.186,-0.119,0.969,-162.640,5.206
14:00:35:699,28.768,0.285,0.108,-0.086,1.416,-163.728,6.324
14:00:35:783,28.853,0.180,0.077,-0.092,2.430,-164.802,9.240
14:00:35:783,28.853,0.165,-0.037,-0.102,3.404,-165.616,11.823
14:00:35:786,28.855,0.139,-0.128,-0.113,4.924,-166.814,16.245
14:00:35:803,28.873,0.080,-0.180,-0.050,6.057,-168.616,20.550
14:00:35:859,28.928,0.011,-0.221,-0.012,6.779,-169.674,23.450
14:00:35:86,28.929,-0.069,-0.251,0.017,8.008,-171.692,27.425
14:00:35:883,28.952,-0.089,-0.273,0.057,8.927,-172.682,29.824
14:00:35:997,29.066,-0.104,-0.279,0.066,10.634,-174.853,32.891
14:00:35:997,29.067,-0.153,-0.311,0.134,12.697,-176.619,35.110
14:00:35:998,29.068,-0.232,-0.208,0.173,14.016,-177.757,36.116
14:00:36:123,29.193,-0.386,-0.085,0.219,16.812,-179.070,37.752
14:00:36:124,29.193,-0.439,0.072,0.280,17.213,-178.516,37.800
14:00:36:154,29.223,-0.459,0.063,0.283,16.799,-177.808,37.473
14:00:36:155,29.224,-0.357,-0.062,0.180,15.276,-175.151,36.757
14:00:36:155,29.225,-0.362,0.136,0.218,12.730,-171.783,35.703
14:00:36:156,29.226,-0.287,0.179,0.228,10.706,-169.230,34.537
14:00:36:228,29.297,-0.175,0.302,0.152,7.948,-165.088,31.987
14:00:36:228,29.298,-0.060,0.493,0.014,6.350,-162.711,29.661
14:00:36:305,29.374,-0.024,0.351,-0.148,4.677,-159.770,25.899
14:00:36:367,29.436,0.069,0.192,-0.243,3.672,-157.423,22.911
14:00:36:367,29.436,0.019,0.047,-0.260,3.214,-155.561,21.566
14:00:36:367,29.437,-0.018,-0.243,-0.247,2.821,-153.020,20.345
14:00:36:367,29.437,-0.018,-0.300,-0.210,2.692,-151.070,19.948
14:00:36:383,29.453,0.010,-0.212,-0.175,2.741,-147.709,19.485
14:00:36:384,29.454,0.030,-0.240,-0.125,2.986,-144.724,19.137
14:00:36:438,29.507,0.049,-0.261,-0.151,3.613,-140.693,18.462
14:00:36:438,29.507,0.073,-0.244,-0.233,4.341,-136.907,17.332
14:00:36:489,29.558,0.097,-0.243,-0.245,4.800,-135.089,16.279
14:00:36:515,29.585,0.150,-0.231,-0.264,5.308,-133.545,14.225
14:00:36:516,29.585,0.216,-0.141,-0.245,5.506,-133.498,12.510
14:00:36:569,29.639,0.250,0.026,-0.268,5.468,-134.488,9.465
14:00:36:569,29.639,0.324,0.324,-0.341,4.932,-135.859,5.830
14:00:36:591,29.660,0.358,0.365,-0.405,4.425,-136.449,3.316
14:00:36:617,29.686,0.271,0.132,-0.385,3.921,-135.528,0.230
14:00:36:673,29.742,0.236,0.003,-0.631,4.024,-132.986,-1.171
14:00:36:673,29.743,0.255,0.018,-0.762,4.678,-127.548,-2.350
14:00:36:696,29.765,0.504,0.215,-0.757,4.768,-122.991,-2.366
14:00:36:889,29.958,0.472,0.114,-0.582,4.621,-121.153,-1.492
14:00:36:89,29.959,0.309,0.126,-0.531,4.391,-119.574,1.783
14:00:36:891,29.960,0.155,0.185,-0.471,3.964,-119.318,5.057
14:00:36:891,29.961,0.061,0.122,-0.321,3.237,-119.730,11.036
14:00:36:995,30.064,0.003,0.058,-0.219,2.905,-120.228,15.448
14:00:36:996,30.065,-0.058,0.056,-0.165,2.419,-120.469,22.508
14:00:36:996,30.065,-0.198,0.006,0.080,1.754,-120.746,29.440
14:00:36:998,30.067,-0.225,-0.009,0.156,1.117,-120.900,33.847
14:00:37:022,30.091,-0.206,-0.144,0.103,-0.225,-120.441,40.062
14:00:37:022,30.091,-0.200,-0.251,0.137,-1.014,-120.256,43.690
14:00:37:023,30.092,-0.202,-0.297,0.155,-1.434,-120.595,48.282
14:00:37:023,30.092,-0.203,-0.380,0.199,-0.944,-121.110,50.785
14:00:37:066,30.136,-0.225,-0.400,0.264,1.219,-122.140,53.616
14:00:37:067,30.136,-0.300,-0.304,0.438,4.477,-123.227,55.260
14:00:37:09,30.159,-0.324,-0.267,0.494,6.149,-123.479,55.383
14:00:37:116,30.185,-0.299,-0.238,0.441,6.789,-122.542,54.635
14:00:37:142,30.211,-0.230,-0.310,0.258,5.990,-120.842,53.780
14:00:37:198,30.267,-0.171,-0.302,0.258,4.155,-117.394,52.405
14:00:37:199,30.268,-0.158,0.142,0.611,2.541,-114.291,50.029
14:00:37:249,30.318,-0.106,0.574,0.844,2.025,-112.444,47.299
14:00:37:276,30.346,0.026,0.603,0.509,2.594,-109.123,42.257
14:00:37:277,30.346,0.007,0.465,0.189,3.462,-106.940,38.337
14:00:37:3,30.369,-0.019,0.388,0.111,4.567,-103.983,31.982
14:00:37:326,30.395,0.055,0.198,0.137,4.971,-100.675,26.319
14:00:37:352,30.421,0.099,0.117,0.062,4.987,-97.818,23.485
14:00:37:381,30.450,0.090,0.051,-0.121,4.871,-93.114,20.555
14:00:37:406,30.475,0.109,-0.040,-0.177,4.816,-90.213,19.215
14:00:37:432,30.501,0.016,-0.096,-0.180,4.836,-86.356,17.433
14:00:37:458,30.527,-0.064,-0.108,-0.308,5.055,-83.137,15.162
14:00:37:483,30.553,-0.072,-0.095,-0.298,5.293,-81.443,13.247
14:00:37:509,30.579,-0.022,-0.192,-0.419,5.986,-79.690,9.631
14:00:37:535,30.605,0.034,-0.146,-0.465,6.534,-79.152,6.667
14:00:37:565,30.634,-0.045,-0.037,-0.632,7.383,-79.160,1.235
14:00:37:591,30.660,-0.071,0.011,-0.765,7.813,-79.744,-2.930
14:00:37:617,30.687,-0.064,0.166,-0.979,7.770,-81.253,-9.504
14:00:37:618,30.688,-0.200,-0.045,-0.980,7.344,-82.067,-15.174
14:00:37:67,30.739,-0.308,-0.206,-0.818,7.430,-81.448,-17.568
14:00:37:671,30.740,-0.520,-0.430,-0.652,8.591,-78.624,-18.521
14:00:37:695,30.764,-0.444,-0.450,-0.788,9.536,-76.240,-17.492
14:00:37:748,30.817,-0.429,-0.280,-0.892,10.454,-73.089,-14.009
14:00:37:776,30.846,-0.349,0.161,-0.935,10.648,-70.939,-8.622
14:00:37:777,30.846,-0.290,0.542,-0.812,10.501,-70.247,-4.166
14:00:37:798,30.868,-0.132,0.601,-0.550,10.374,-70.222,3.637
14:00:37:825,30.894,-0.008,0.563,-0.378,10.411,-70.945,9.210
14:00:37:851,30.921,0.087,0.384,-0.300,10.983,-73.244,17.436
14:00:37:877,30.947,0.158,0.277,0.124,11.920,-76.596,22.324
14:00:37:903,30.973,0.118,0.086,0.146,14.397,-82.601,28.317
14:00:37:961,31.030,0.137,-0.055,0.313,17.902,-87.238,33.901
14:00:37:961,31.030,0.142,-0.145,0.388,20.659,-89.752,37.359
14:00:38:013,31.083,0.126,-0.299,0.390,25.181,-92.398,42.272
14:00:38:013,31.083,0.130,-0.365,0.382,28.448,-93.526,45.303
14:00:38:035,31.104,0.136,-0.463,0.426,33.348,-94.869,49.039
14:00:38:09,31.159,0.186,-0.448,0.500,37.443,-95.187,51.884
14:00:38:091,31.160,0.191,-0.449,0.512,39.590,-94.702,53.615
14:00:38:115,31.184,0.192,-0.489,0.537,41.558,-93.542,55.247
14:00:38:141,31.210,0.127,-0.487,0.441,41.584,-92.450,55.622
14:00:38:166,31.236,0.138,-0.454,0.422,39.490,-90.243,55.226
14:00:38:192,31.262,0.291,-0.233,0.584,36.725,-88.433,54.229
14:00:38:219,31.288,0.344,-0.061,0.569,30.507,-85.173,51.038
14:00:38:245,31.314,0.341,0.339,0.484,23.103,-81.743,45.153
14:00:38:271,31.340,0.232,0.671,0.311,18.762,-79.618,40.057
14:00:38:298,31.367,0.078,0.752,0.054,14.146,-77.423,31.092
14:00:38:326,31.395,0.165,0.679,0.049,11.853,-76.798,24.813
14:00:38:35,31.419,-0.047,0.332,-0.160,9.817,-74.054,17.866
14:00:38:378,31.447,-0.125,-0.037,-0.431,9.508,-67.921,15.205
14:00:38:433,31.503,-0.208,-0.097,-0.498,9.739,-63.215,14.916
14:00:38:433,31.503,-0.226,-0.116,-0.407,10.227,-58.495,14.829
14:00:38:454,31.524,-0.157,-0.108,-0.291,10.585,-57.338,14.411
14:00:38:51,31.579,-0.156,-0.171,-0.251,11.251,-58.068,13.425
14:00:38:511,31.580,-0.178,-0.279,-0.213,11.831,-58.951,11.902
14:00:38:592,31.661,-0.187,-0.302,-0.227,12.114,-59.531,10.562
14:00:38:592,31.662,-0.175,-0.257,-0.283,12.325,-60.042,8.074
14:00:38:593,31.663,-0.167,-0.171,-0.353,12.447,-60.151,6.206
14:00:38:613,31.682,-0.184,0.071,-0.486,12.566,-60.135,3.054
14:00:38:668,31.738,-0.204,0.117,-0.540,12.627,-60.591,0.850
14:00:38:668,31.738,-0.258,-0.050,-0.550,12.991,-59.616,-1.810
14:00:38:72,31.789,-0.403,0.259,-0.684,13.401,-58.127,-3.246
14:00:38:721,31.790,-0.486,0.405,-0.800,13.390,-56.928,-3.657
14:00:38:747,31.816,-0.269,0.365,-0.821,12.928,-57.144,-3.172
14:00:38:77,31.839,-0.177,0.315,-0.641,12.553,-57.851,-1.938
14:00:38:825,31.894,-0.159,0.308,-0.493,12.093,-60.013,1.438
14:00:38:826,31.895,-0.093,0.142,-0.347,12.042,-62.658,6.324
14:00:38:876,31.945,0.018,-0.065,-0.194,13.063,-68.508,15.504
14:00:38:902,31.971,-0.047,-0.135,-0.026,13.982,-71.639,18.802
14:00:38:93,31.999,-0.105,-0.108,-0.016,15.779,-76.811,23.010
14:00:38:955,32.024,0.025,-0.225,0.091,17.378,-80.282,25.524
14:00:38:98,32.049,0.105,-0.191,0.074,20.236,-85.376,28.436
14:00:39:066,32.135,0.274,-0.133,0.170,23.663,-89.919,30.410
14:00:39:066,32.135,0.310,-0.216,0.257,26.319,-92.407,31.377
14:00:39:066,32.135,0.383,-0.255,0.309,30.478,-94.751,32.756
14:00:39:086,32.156,0.363,-0.349,0.365,33.167,-95.132,33.802
14:00:39:14,32.209,0.485,-0.269,0.410,36.302,-94.116,35.574
14:00:39:141,32.210,0.559,-0.182,0.425,38.114,-90.759,37.820
14:00:39:163,32.233,0.511,-0.229,0.410,38.616,-87.695,39.532
14:00:39:19,32.259,0.412,-0.219,0.336,38.014,-82.196,42.042
14:00:39:216,32.285,0.484,-0.148,0.292,36.599,-78.576,43.161
14:00:39:242,32.311,0.537,-0.045,0.306,33.198,-74.507,43.376
14:00:39:269,32.338,0.396,0.115,0.240,30.369,-72.557,42.439
14:00:39:324,32.393,0.175,0.245,0.193,26.013,-71.416,39.397
14:00:39:325,32.394,-0.004,0.335,0.089,22.030,-72.415,34.433
14:00:39:347,32.417,-0.039,0.232,0.106,19.609,-74.471,30.440
14:00:39:403,32.472,-0.055,0.125,0.083,16.347,-77.661,24.569
14:00:39:403,32.473,-0.111,-0.016,0.100,14.049,-79.074,19.690
14:00:39:482,32.552,-0.082,-0.044,0.057,13.012,-78.475,17.030
14:00:39:483,32.553,-0.066,0.001,-0.081,12.227,-75.285,13.939
14:00:39:508,32.577,-0.080,-0.005,-0.161,12.214,-71.846,12.459
14:00:39:508,32.578,-0.133,-0.031,-0.279,12.760,-65.605,10.917
14:00:39:531,32.600,-0.190,-0.016,-0.389,13.261,-61.310,10.096
14:00:39:557,32.627,-0.264,-0.045,-0.390,14.013,-55.774,8.803
14:00:39:583,32.653,-0.381,-0.049,-0.439,14.563,-52.313,6.901
14:00:39:613,32.682,-0.387,-0.052,-0.427,14.728,-51.913,5.068
14:00:39:636,32.705,-0.286,-0.009,-0.459,14.755,-51.841,1.936
14:00:39:663,32.732,-0.292,0.049,-0.506,14.733,-52.426,-0.039
14:00:39:69,32.760,-0.307,-0.060,-0.464,15.106,-51.402,-1.928
14:00:39:715,32.785,-0.368,0.107,-0.551,15.681,-49.812,-2.282
14:00:39:772,32.842,-0.412,0.138,-0.577,16.016,-48.222,-1.754
14:00:39:772,32.842,-0.341,0.188,-0.665,16.272,-47.133,-0.093
14:00:39:796,32.865,-0.250,0.162,-0.628,16.243,-47.110,1.443
14:00:39:821,32.890,-0.158,0.161,-0.520,16.020,-49.075,4.202
14:00:39:847,32.916,-0.138,0.071,-0.395,15.844,-51.008,6.202
14:00:39:903,32.972,-0.094,0.024,-0.340,15.519,-55.070,9.274
14:00:39:903,32.972,-0.023,-0.017,-0.256,15.192,-59.930,12.246
14:00:39:928,32.998,0.041,-0.132,-0.155,15.187,-63.229,14.329
14:00:39:954,33.024,0.069,-0.116,-0.111,15.581,-67.641,17.682
14:00:39:955,33.024,0.113,-0.152,-0.032,16.137,-70.303,20.005
14:00:39:977,33.046,0.117,-0.157,-0.007,17.500,-73.872,23.515
14:00:40:034,33.103,0.181,-0.192,0.041,19.553,-77.110,26.855
14:00:40:034,33.103,0.244,-0.176,0.087,21.237,-79.135,28.940
14:00:40:056,33.126,0.350,-0.185,0.214,24.201,-81.740,31.773
14:00:40:082,33.152,0.340,-0.204,0.256,26.262,-83.250,33.322
14:00:40:139,33.208,0.355,-0.154,0.295,28.890,-84.169,35.213
14:00:40:139,33.208,0.417,-0.124,0.326,30.539,-83.914,36.813
14:00:40:161,33.231,0.438,-0.196,0.361,31.074,-82.879,37.789
14:00:40:189,33.258,0.339,-0.258,0.294,30.794,-80.378,39.092
14:00:40:215,33.284,0.380,-0.133,0.305,29.835,-78.186,39.661
14:00:40:24,33.310,0.426,0.011,0.273,27.291,-75.002,39.460
14:00:40:267,33.337,0.407,0.154,0.240,25.008,-72.922,38.472
14:00:40:293,33.363,0.308,0.243,0.186,21.182,-70.299,35.723
14:00:40:318,33.388,0.081,0.415,0.122,17.353,-68.498,31.658
14:00:40:345,33.415,-0.034,0.422,0.081,15.095,-68.078,28.620
14:00:40:373,33.442,-0.054,0.351,0.034,12.238,-68.533,24.112
14:00:40:399,33.469,-0.100,0.071,0.095,10.991,-69.179,21.661
14:00:40:424,33.494,-0.191,-0.136,0.072,10.079,-68.053,19.119
14:00:40:45,33.519,-0.176,-0.181,0.002,9.990,-65.466,17.785
14:00:40:505,33.575,-0.175,-0.156,-0.041,10.128,-62.358,17.358
14:00:40:505,33.575,-0.165,-0.071,-0.119,10.569,-56.862,17.083
14:00:40:528,33.598,-0.181,-0.103,-0.133,10.998,-53.118,16.993
14:00:40:555,33.624,-0.172,-0.157,-0.157,11.724,-48.018,16.752
14:00:40:581,33.650,-0.076,-0.156,-0.092,12.192,-45.260,16.387
14:00:40:607,33.677,-0.037,-0.210,-0.150,12.773,-41.611,15.378
14:00:40:634,33.703,-0.102,-0.136,-0.239,13.339,-38.187,13.847
14:00:40:66,33.729,-0.136,0.113,-0.368,13.527,-36.073,12.314
14:00:40:686,33.755,-0.272,0.228,-0.421,13.556,-33.677,9.101
14:00:40:712,33.782,-0.402,0.113,-0.410,13.505,-32.543,6.632
14:00:40:738,33.808,-0.556,0.097,-0.368,13.153,-32.354,2.718
14:00:40:765,33.834,-0.599,0.266,-0.480,12.045,-33.012,-0.485
14:00:40:822,33.891,-0.464,0.260,-0.498,11.211,-33.631,-1.429
14:00:40:822,33.891,-0.292,0.077,-0.304,10.498,-34.043,-0.190
14:00:40:844,33.914,-0.287,0.062,-0.094,10.133,-34.191,2.335
14:00:40:87,33.939,-0.288,0.048,-0.003,9.629,-34.376,7.884
14:00:40:898,33.967,-0.262,-0.064,0.008,9.547,-34.483,12.264
14:00:40:923,33.993,-0.234,-0.097,0.019,9.932,-34.647,18.954
14:00:40:948,34.018,-0.110,0.038,0.043,10.847,-35.407,24.914
14:00:40:975,34.044,0.051,0.058,0.143,11.952,-36.335,28.427
14:00:41:001,34.070,0.139,0.005,0.192,14.657,-38.384,32.617
14:00:41:03,34.099,0.152,-0.142,0.208,16.893,-40.097,34.530
14:00:41:055,34.124,0.248,-0.119,0.225,20.353,-42.073,36.796
14:00:41:08,34.149,0.310,-0.248,0.196,23.750,-43.059,38.641
14:00:41:108,34.177,0.366,-0.275,0.206,25.713,-43.086,39.847
14:00:41:133,34.202,0.401,-0.216,0.161,27.727,-41.806,41.546
14:00:41:159,34.228,0.484,-0.181,0.085,28.523,-40.794,42.460
14:00:41:185,34.254,0.561,-0.147,0.080,28.897,-38.563,43.226
14:00:41:211,34.281,0.506,-0.185,0.089,28.115,-35.685,43.465
14:00:41:237,34.307,0.517,-0.123,0.041,26.909,-32.852,43.445
14:00:41:263,34.333,0.734,0.074,-0.147,23.987,-27.986,42.661
14:00:41:292,34.361,0.608,0.071,-0.202,21.600,-23.895,41.650
14:00:41:317,34.386,0.460,0.230,-0.314,17.985,-17.308,39.254
14:00:41:345,34.414,0.374,0.344,-0.304,15.946,-13.029,36.971
14:00:41:368,34.437,0.248,0.356,-0.262,13.460,-6.972,33.176
14:00:41:395,34.464,-0.054,0.192,-0.124,11.426,-1.452,29.518
14:00:41:45,34.519,-0.041,0.051,0.055,10.352,1.646,27.360
14:00:41:451,34.520,-0.371,-0.040,0.067,9.115,5.720,24.726
14:00:41:473,34.543,-0.196,-0.096,0.008,8.546,7.065,22.899
14:00:41:499,34.569,-0.263,-0.072,0.038,8.169,7.906,20.216
14:00:41:526,34.596,-0.129,-0.229,0.033,8.254,8.227,17.737
14:00:41:552,34.621,-0.170,-0.234,0.070,8.392,9.022,16.440
14:00:41:578,34.647,-0.244,-0.230,0.103,8.618,11.123,15.166
14:00:41:634,34.703,-0.279,-0.184,0.106,8.760,12.515,14.468
14:00:41:635,34.704,-0.318,-0.099,0.100,8.927,14.254,13.446
14:00:41:661,34.730,-0.282,-0.106,0.060,9.165,15.049,12.369
14:00:41:683,34.753,-0.270,0.080,-0.019,9.311,15.539,11.646
14:00:41:71,34.779,-0.315,0.290,0.012,9.272,16.406,10.507
14:00:41:736,34.805,-0.343,0.244,0.132,9.243,17.583,9.857
14:00:41:762,34.831,-0.409,0.205,0.223,9.264,19.783,9.334
14:00:41:788,34.858,-0.498,0.394,0.278,8.988,21.358,9.013
14:00:41:815,34.885,-0.473,0.340,0.164,8.810,21.442,9.048
14:00:41:841,34.911,-0.374,0.311,0.008,8.738,20.507,9.965
14:00:41:983,35.052,-0.213,0.320,0.078,8.881,19.555,11.358
14:00:41:983,35.053,-0.166,0.261,0.092,9.353,17.895,14.637
14:00:41:984,35.053,-0.107,0.027,0.035,10.074,16.086,18.812
14:00:41:985,35.054,-0.055,-0.138,-0.016,10.735,14.764,21.849
14:00:42:028,35.098,0.014,-0.255,-0.087,12.032,12.898,26.508
14:00:42:029,35.099,0.066,-0.245,-0.088,13.054,11.741,29.501
14:00:42:054,35.123,0.114,-0.266,-0.105,14.882,10.048,33.644
14:00:42:054,35.124,0.152,-0.337,-0.111,16.304,8.763,35.881
14:00:42:078,35.148,0.130,-0.407,-0.145,18.541,7.288,38.896
14:00:42:133,35.202,0.191,-0.382,-0.180,20.789,5.998,41.385
14:00:42:133,35.202,0.249,-0.331,-0.221,22.281,5.133,42.674
14:00:42:188,35.258,0.326,-0.255,-0.249,24.503,4.006,43.934
14:00:42:188,35.258,0.456,-0.042,-0.330,25.683,3.216,44.280
14:00:42:238,35.308,0.510,0.048,-0.384,26.549,2.732,44.190
14:00:42:239,35.309,0.488,-0.066,-0.282,26.344,3.109,43.677
14:00:42:263,35.333,0.414,-0.071,-0.199,25.433,4.275,43.457
14:00:42:264,35.334,0.546,0.242,-0.393,23.089,6.793,43.212
14:00:42:315,35.384,0.466,0.310,-0.345,20.884,8.632,42.657
14:00:42:343,35.412,0.261,0.219,-0.132,17.553,11.440,41.472
14:00:42:344,35.413,0.209,0.323,0.014,14.930,13.052,39.274
14:00:42:395,35.464,0.219,0.318,0.049,13.858,13.228,37.437
14:00:42:396,35.465,0.298,0.146,0.057,13.150,12.939,35.014
14:00:42:475,35.544,0.197,-0.067,0.115,12.904,13.321,34.039
14:00:42:476,35.545,0.184,-0.190,0.133,12.528,15.375,33.750
14:00:42:497,35.566,0.081,-0.281,0.097,12.288,17.492,34.104
14:00:42:555,35.625,0.066,-0.284,0.019,11.868,21.791,34.879
14:00:42:556,35.626,0.046,-0.216,-0.025,11.492,25.592,35.451
14:00:42:557,35.626,0.044,-0.180,-0.042,11.434,28.173,35.375
14:00:42:605,35.675,0.038,-0.129,-0.054,11.488,30.691,34.526
14:00:42:631,35.700,0.006,-0.074,-0.025,11.480,32.221,33.168
14:00:42:657,35.727,-0.009,-0.073,-0.020,11.392,33.250,30.314
14:00:42:658,35.728,-0.085,-0.067,0.010,11.174,33.913,26.725
14:00:42:683,35.752,-0.113,-0.088,0.036,10.958,34.125,24.102
14:00:42:709,35.778,-0.155,0.004,0.070,10.413,34.480,20.055
14:00:42:734,35.803,-0.229,0.289,0.124,9.904,34.653,17.207
14:00:42:76,35.829,-0.304,0.247,0.222,9.160,34.727,12.998
14:00:42:786,35.855,-0.326,0.192,0.272,8.728,34.881,10.607
14:00:42:812,35.882,-0.352,0.508,0.474,7.843,35.372,7.672
14:00:42:838,35.908,-0.357,0.254,0.420,7.411,35.686,6.375
14:00:42:867,35.936,-0.381,0.062,0.259,7.593,35.935,6.680
14:00:42:893,35.962,-0.292,0.170,0.164,8.108,36.735,9.098
14:00:42:918,35.987,-0.182,0.311,0.155,8.603,37.259,12.031
14:00:42:944,36.013,-0.131,0.305,0.093,9.526,37.649,17.798
14:00:42:999,36.068,-0.038,0.230,0.011,10.702,37.074,24.262
14:00:42:999,36.069,0.056,0.145,-0.064,11.807,36.139,28.640
14:00:43:022,36.092,0.160,0.006,-0.181,14.113,34.419,35.014
14:00:43:048,36.118,0.229,-0.096,-0.255,16.133,33.357,39.056
14:00:43:075,36.144,0.287,-0.223,-0.263,19.763,32.102,44.637
14:00:43:101,36.171,0.276,-0.373,-0.233,23.838,31.235,49.286
14:00:43:127,36.197,0.268,-0.402,-0.197,26.433,30.937,51.763
14:00:43:155,36.225,0.261,-0.429,-0.211,30.397,30.819,54.844
14:00:43:181,36.250,0.272,-0.480,-0.228,33.089,30.753,56.401
14:00:43:207,36.277,0.276,-0.518,-0.203,36.892,30.522,57.814
14:00:43:233,36.302,0.292,-0.512,-0.256,38.696,30.396,58.098
14:00:43:259,36.328,0.386,-0.397,-0.451,39.951,30.629,57.902
14:00:43:285,36.354,0.419,-0.321,-0.567,39.037,31.658,56.800
14:00:43:311,36.380,0.393,-0.176,-0.474,37.107,33.224,55.578
14:00:43:337,36.407,0.345,-0.074,-0.343,32.920,36.252,53.491
14:00:43:363,36.433,0.392,0.158,-0.723,29.759,38.721,51.820
14:00:43:392,36.462,0.315,0.450,-0.795,23.895,42.505,48.028
14:00:43:416,36.485,0.137,0.386,-0.457,18.291,46.992,43.741
14:00:43:443,36.512,0.099,0.485,-0.380,15.102,49.924,40.465
14:00:43:468,36.538,0.088,0.393,-0.084,11.499,53.745,35.389
14:00:43:497,36.566,0.083,0.094,-0.021,9.974,55.765,32.620
14:00:43:522,36.592,0.081,0.049,0.059,8.089,59.093,29.790
14:00:43:547,36.617,0.116,-0.014,0.074,7.058,60.960,28.787
14:00:43:575,36.645,0.037,-0.113,0.040,6.081,63.764,28.256
14:00:43:6,36.669,-0.016,-0.211,-0.036,5.492,66.552,28.520
14:00:43:626,36.695,-0.035,-0.134,-0.016,5.311,68.599,28.724
14:00:43:654,36.724,0.026,-0.014,-0.048,5.075,72.165,28.785
14:00:43:681,36.750,-0.017,-0.034,-0.050,4.941,74.749,28.605
14:00:43:706,36.776,-0.035,-0.091,-0.021,4.755,78.767,27.792
14:00:43:731,36.801,-0.021,-0.157,0.083,4.553,82.620,26.025
14:00:43:757,36.827,0.026,-0.122,0.159,4.426,84.736,24.261
14:00:43:784,36.853,0.079,-0.137,0.225,4.241,86.763,20.884
14:00:43:839,36.909,0.127,-0.120,0.279,4.066,87.285,18.174
14:00:43:84,36.909,0.197,0.081,0.439,3.571,86.958,13.496
14:00:43:862,36.932,0.113,0.397,0.574,2.527,85.162,8.105
14:00:43:889,36.959,0.072,0.416,0.593,1.509,83.419,4.509
14:00:43:915,36.985,0.257,0.271,0.625,0.154,81.471,0.162
14:00:43:941,37.011,0.371,0.227,0.718,-0.480,81.007,-1.778
14:00:43:968,37.037,0.366,-0.040,0.736,-0.781,81.346,-2.928
14:00:43:993,37.062,0.253,-0.113,0.704,-0.185,82.302,-1.783
14:00:44:02,37.090,0.227,0.061,0.625,0.466,82.968,0.262
14:00:44:048,37.118,0.198,0.183,0.548,1.711,83.592,5.123
14:00:44:075,37.145,0.150,0.290,0.426,2.743,83.404,9.262
14:00:44:098,37.168,0.009,0.445,0.236,4.803,82.298,16.108
14:00:44:154,37.223,-0.092,0.517,-0.031,6.635,80.892,20.858
14:00:44:155,37.224,-0.153,0.425,-0.241,10.567,78.058,27.952
14:00:44:179,37.248,-0.219,0.289,-0.500,16.058,75.135,34.998
14:00:44:204,37.274,-0.194,0.160,-0.604,20.540,73.487,39.688
14:00:44:23,37.299,-0.142,-0.115,-0.737,28.330,71.381,46.646
14:00:44:256,37.325,-0.092,-0.264,-0.593,33.767,70.601,51.291
14:00:44:282,37.352,0.044,-0.481,-0.457,41.545,70.369,57.843
14:00:44:308,37.378,0.156,-0.491,-0.230,49.048,70.385,63.442
14:00:44:336,37.405,0.115,-0.483,-0.249,54.257,69.852,66.640
14:00:44:361,37.431,0.191,-0.630,-0.284,61.679,68.019,69.984
14:00:44:387,37.457,0.204,-0.594,-0.346,65.137,66.388,70.978
14:00:44:413,37.483,0.271,-0.555,-0.455,67.801,64.165,71.172
14:00:44:44,37.509,0.372,-0.521,-0.496,68.288,62.916,70.648
14:00:44:468,37.537,0.383,-0.502,-0.461,66.351,62.781,69.149
14:00:44:493,37.562,0.353,-0.427,-0.649,62.086,64.331,67.336
14:00:44:519,37.588,0.193,-0.229,-0.903,57.131,65.967,65.327
14:00:44:575,37.644,0.016,-0.198,-0.903,47.734,69.879,61.795
14:00:44:575,37.644,-0.072,0.049,-0.930,40.248,73.712,59.150
14:00:44:6,37.669,-0.110,0.343,-0.834,27.611,80.969,54.168
14:00:44:601,37.670,-0.077,0.461,-0.564,17.098,88.526,48.287
14:00:44:652,37.722,-0.061,0.433,-0.385,12.565,92.828,44.132
14:00:44:653,37.723,0.008,0.276,-0.183,8.788,97.852,38.011
14:00:44:676,37.745,-0.035,0.153,-0.087,7.559,100.316,34.145
14:00:44:731,37.800,-0.042,0.045,0.016,7.003,103.407,29.049
14:00:44:732,37.801,-0.100,0.060,0.056,7.111,106.689,24.731
14:00:44:784,37.853,-0.121,0.093,0.109,7.391,109.379,22.219
14:00:44:785,37.854,-0.098,0.168,0.209,8.177,114.116,18.908
14:00:44:807,37.877,-0.017,0.168,0.347,8.890,117.446,16.897
14:00:44:834,37.904,0.112,0.107,0.431,10.088,122.025,13.770
14:00:44:86,37.929,0.189,0.050,0.482,10.798,124.303,11.356
14:00:44:886,37.955,0.270,0.000,0.467,11.566,126.350,7.235
14:00:44:912,37.981,0.433,-0.039,0.526,11.981,127.489,2.786
14:00:44:939,38.008,0.492,-0.026,0.577,11.933,127.868,-0.206
14:00:44:966,38.035,0.543,-0.078,0.636,11.469,128.150,-4.362
14:00:45:02,38.089,0.591,-0.165,0.688,11.255,128.422,-6.551
14:00:45:021,38.090,0.751,0.008,0.823,10.622,128.906,-8.743
14:00:45:043,38.113,0.586,-0.123,0.689,10.032,128.972,-8.746
14:00:45:07,38.139,0.465,0.025,0.616,9.454,128.814,-7.422
14:00:45:098,38.167,0.486,0.197,0.572,8.320,128.095,-3.569
14:00:45:123,38.193,0.290,0.248,0.519,7.493,127.203,-0.015
14:00:45:148,38.218,0.209,0.263,0.461,6.551,125.024,6.190
14:00:45:175,38.244,0.105,0.194,0.348,6.221,122.820,10.657
14:00:45:23,38.299,-0.009,0.209,0.219,6.249,118.104,17.230
14:00:45:231,38.300,-0.118,0.063,-0.033,7.155,111.851,23.544
14:00:45:256,38.325,-0.050,0.016,-0.021,8.597,106.964,27.498
14:00:45:309,38.378,-0.147,-0.015,-0.193,11.590,99.989,32.869
14:00:45:311,38.380,-0.229,0.023,-0.385,14.063,96.028,36.028
14:00:45:332,38.402,-0.233,-0.014,-0.435,18.514,91.063,40.004
14:00:45:358,38.428,-0.252,-0.059,-0.513,23.203,87.739,43.368
14:00:45:385,38.454,-0.299,-0.150,-0.540,26.351,86.627,45.446
14:00:45:411,38.480,-0.317,-0.261,-0.547,30.829,86.614,48.700
14:00:45:438,38.507,-0.307,-0.313,-0.552,33.533,87.510,51.038
14:00:45:464,38.533,-0.298,-0.342,-0.554,36.755,89.430,54.462
14:00:45:519,38.588,-0.288,-0.320,-0.592,38.550,91.121,57.030
14:00:45:52,38.589,-0.209,-0.361,-0.555,38.862,92.098,58.218
14:00:45:542,38.612,-0.147,-0.351,-0.491,37.355,93.510,59.038
14:00:45:57,38.639,-0.246,-0.238,-0.581,34.840,94.147,58.668
14:00:45:595,38.664,-0.216,-0.173,-0.527,29.030,94.836,56.510
14:00:45:651,38.720,-0.044,0.026,-0.518,24.533,95.168,54.129
14:00:45:651,38.720,0.127,0.293,-0.471,18.069,95.061,49.062
14:00:45:674,38.743,0.189,0.255,-0.399,13.436,93.496,42.945
14:00:45:729,38.798,0.157,0.251,-0.356,11.084,91.808,38.802
14:00:45:729,38.799,0.218,0.095,-0.260,8.269,90.567,33.285
14:00:45:753,38.822,0.243,-0.008,-0.156,6.823,91.371,30.405
14:00:45:778,38.848,0.190,-0.177,-0.076,5.376,94.213,27.275
14:00:45:806,38.875,0.133,-0.181,0.081,4.835,97.024,25.756
14:00:45:832,38.901,0.102,-0.081,0.101,4.372,102.061,23.914
14:00:45:857,38.927,0.114,-0.057,0.142,4.320,107.134,22.163
14:00:45:883,38.953,0.210,0.038,0.229,4.458,110.087,20.781
14:00:45:91,38.979,0.256,-0.050,0.244,4.754,113.030,18.585
14:00:45:938,39.008,0.292,-0.061,0.295,4.894,114.519,16.932
14:00:45:963,39.033,0.323,-0.108,0.319,5.028,115.868,14.325
14:00:45:989,39.058,0.225,0.070,0.339,4.950,117.370,11.910
14:00:46:015,39.084,0.195,0.213,0.421,4.778,119.023,10.568
14:00:46:041,39.111,0.269,0.097,0.488,4.845,122.798,9.514
14:00:46:069,39.138,0.319,0.101,0.469,5.006,125.277,9.604
14:00:46:093,39.163,0.546,0.386,0.545,4.667,128.137,10.097
14:00:46:12,39.189,0.444,0.389,0.575,4.027,128.295,11.065
14:00:46:146,39.215,0.245,0.449,0.520,3.483,126.850,12.070
14:00:46:173,39.242,0.098,0.395,0.357,2.888,123.164,14.499
14:00:46:199,39.268,0.013,0.329,0.187,2.748,120.370,16.916
14:00:46:225,39.295,0.001,0.278,0.151,2.949,116.341,21.802
14:00:46:251,39.320,0.071,0.230,0.188,3.504,112.896,27.948
14:00:46:278,39.348,-0.075,0.064,-0.156,4.374,109.658,32.350
14:00:46:305,39.375,-0.096,0.145,-0.038,5.150,106.934,39.829
14:00:46:33,39.400,-0.178,0.315,-0.190,5.948,105.147,45.163
14:00:46:386,39.455,-0.270,0.250,-0.376,9.089,101.882,53.348
14:00:46:386,39.455,-0.337,0.243,-0.392,15.458,99.092,61.400
14:00:46:408,39.478,-0.241,0.136,-0.424,22.233,97.803,66.758
14:00:46:435,39.504,-0.104,0.022,-0.414,36.577,96.945,74.971
14:00:46:49,39.560,0.031,0.053,-0.279,50.485,97.053,80.640
14:00:46:491,39.560,0.079,0.157,-0.226,86.050,97.331,89.226
14:00:46:513,39.583,0.139,0.244,-0.349,114.270,97.837,95.211
14:00:46:539,39.609,0.105,0.139,-0.508,138.394,99.086,104.150
14:00:46:566,39.635,0.010,-0.074,-0.429,150.130,101.540,113.083
14:00:46:592,39.662,0.037,-0.041,-0.301,155.885,102.768,118.835
14:00:46:618,39.688,0.049,0.099,-0.506,162.122,103.503,127.404
14:00:46:645,39.714,-0.149,-0.163,-0.390,164.106,104.142,133.207
14:00:46:673,39.742,-0.160,-0.204,-0.228,165.321,105.689,141.678
14:00:46:697,39.767,-0.190,-0.311,-0.403,165.757,106.990,149.979
14:00:46:724,39.793,-0.174,-0.453,-0.284,165.909,107.976,155.154
14:00:46:75,39.819,-0.336,-0.396,-0.052,166.619,108.590,161.249
14:00:46:776,39.845,-0.256,-0.353,-0.030,167.075,107.340,164.348
14:00:46:832,39.902,0.159,-0.266,-0.270,166.895,103.974,167.812
14:00:46:832,39.902,0.250,-0.238,-0.176,165.504,101.948,170.405
14:00:46:855,39.925,0.220,-0.298,-0.091,164.366,101.516,171.951
14:00:46:883,39.952,0.269,-0.408,-0.090,163.044,100.953,173.895
14:00:46:91,39.979,0.204,-0.402,-0.098,162.640,100.626,174.955
14:00:46:911,39.980,0.239,-0.424,-0.073,162.605,100.059,176.320
14:00:46:935,40.004,0.160,-0.302,-0.003,162.860,100.251,177.011
14:00:47:021,40.090,0.154,-0.205,0.069,163.446,100.662,177.725
14:00:47:021,40.091,0.206,-0.090,0.060,163.914,100.975,178.065
14:00:47:021,40.091,0.234,-0.064,0.047,164.036,101.123,178.160
14:00:47:039,40.108,0.230,-0.045,0.030,163.860,101.355,178.297
14:00:47:065,40.134,0.215,-0.034,-0.068,163.541,101.526,178.483
14:00:47:091,40.160,0.211,0.024,-0.045,162.976,101.782,179.098
14:00:47:118,40.187,0.186,0.114,0.023,162.651,101.953,-179.905
14:00:47:144,40.213,0.162,0.212,-0.016,162.559,101.671,-179.227
14:00:47:17,40.239,0.149,0.370,-0.028,162.149,100.609,-178.217
14:00:47:196,40.265,0.094,0.496,-0.181,161.770,100.410,-177.676
14:00:47:251,40.320,0.004,0.239,-0.477,161.273,100.451,-177.327
14:00:47:252,40.321,0.097,0.054,-0.361,160.889,101.663,-177.082
14:00:47:277,40.346,0.052,-0.115,-0.301,160.400,103.004,-176.495
14:00:47:302,40.371,0.084,-0.273,-0.136,160.152,103.984,-175.896
14:00:47:328,40.398,0.155,-0.284,-0.027,160.044,104.488,-175.539
14:00:47:354,40.424,0.048,-0.232,-0.060,160.083,104.871,-175.473
14:00:47:41,40.480,-0.002,-0.179,-0.077,160.152,105.675,-175.614
14:00:47:411,40.480,0.055,-0.150,-0.086,160.142,106.841,-175.912
14:00:47:432,40.502,0.038,-0.105,-0.185,160.045,107.667,-176.185
14:00:47:459,40.528,0.066,-0.096,-0.225,159.994,108.050,-176.248
14:00:47:485,40.554,0.095,-0.158,-0.110,159.909,109.114,-176.028
14:00:47:511,40.581,0.151,-0.201,-0.039,159.828,110.094,-175.723
14:00:47:627,40.696,0.128,-0.224,-0.050,159.813,112.175,-175.304
14:00:47:627,40.696,0.104,-0.207,-0.073,159.936,113.849,-175.024
14:00:47:627,40.697,0.041,-0.035,-0.093,160.356,116.941,-174.399
14:00:47:627,40.697,0.014,0.064,-0.104,160.968,119.963,-173.530
14:00:47:672,40.741,0.029,0.154,0.027,161.548,121.778,-172.910
14:00:47:672,40.741,0.021,0.236,-0.068,162.301,123.806,-171.935
14:00:47:695,40.764,0.056,0.240,-0.142,162.529,125.267,-171.135
14:00:47:721,40.791,0.075,0.204,-0.060,162.970,127.669,-169.961
14:00:47:747,40.817,0.085,0.227,-0.208,163.419,128.970,-169.260
14:00:47:773,40.843,0.005,0.144,-0.287,163.521,129.774,-169.046
14:00:47:801,40.871,0.055,-0.060,-0.465,163.458,131.998,-169.162
14:00:47:855,40.924,0.123,-0.197,-0.585,163.367,133.813,-169.494
14:00:47:856,40.925,0.082,-0.222,-0.554,163.317,136.715,-170.467
14:00:47:88,40.949,0.025,-0.316,-0.358,163.318,139.511,-171.985
14:00:47:905,40.974,0.011,-0.357,-0.263,163.324,141.241,-173.314
14:00:47:931,41.001,0.020,-0.446,-0.215,163.397,143.446,-175.801
14:00:47:959,41.029,0.092,-0.463,-0.236,163.531,144.706,-177.674
14:00:47:984,41.054,0.134,-0.528,-0.225,163.945,146.886,179.324
14:00:48:039,41.109,0.178,-0.553,-0.210,164.276,148.623,177.157
14:00:48:04,41.109,0.228,-0.551,-0.264,164.812,151.334,173.322
14:00:48:062,41.131,0.210,-0.573,-0.550,165.555,153.556,168.533
14:00:48:091,41.160,0.151,-0.652,-0.686,166.215,155.263,164.738
14:00:48:116,41.185,-0.079,-0.623,-0.431,167.115,159.679,157.942
14:00:48:141,41.210,-0.151,-0.334,-0.127,167.172,163.563,152.398
14:00:48:167,41.237,-0.056,-0.326,-0.083,165.842,169.589,142.037
14:00:48:193,41.263,-0.175,-0.464,-0.051,162.939,174.846,129.566
14:00:48:22,41.290,-0.433,-0.136,0.111,159.546,177.991,120.319
14:00:48:276,41.345,-0.344,-0.205,0.103,146.195,-177.675,106.022
14:00:48:276,41.345,-0.352,0.427,0.257,120.015,-174.860,96.060
14:00:48:298,41.368,-0.247,0.862,0.096,48.851,-171.008,81.014
14:00:48:381,41.451,-0.336,1.330,0.281,28.619,-169.046,71.189
14:00:48:382,41.451,-0.067,1.265,0.395,15.461,-166.391,59.572
14:00:48:438,41.507,0.403,0.936,0.246,6.318,-162.313,53.624
14:00:48:438,41.507,0.551,0.758,0.092,1.022,-159.409,51.273
14:00:48:438,41.507,0.658,0.504,-0.179,-4.736,-156.199,48.487
14:00:48:459,41.529,0.543,0.183,-0.311,-6.588,-155.516,47.293
14:00:48:482,41.552,0.502,-0.034,-0.291,-6.709,-156.649,46.495
14:00:48:509,41.578,0.403,-0.178,-0.218,-5.004,-159.354,46.663
14:00:48:535,41.604,0.246,-0.236,-0.197,-3.533,-161.428,47.005
14:00:48:561,41.631,0.178,-0.222,-0.180,-1.425,-164.241,47.611
14:00:48:588,41.657,0.122,-0.269,-0.134,-0.055,-165.751,48.004
14:00:48:613,41.683,0.080,-0.263,-0.146,1.862,-167.434,48.451
14:00:48:64,41.709,-0.012,-0.186,-0.168,3.661,-168.439,48.619
14:00:48:666,41.735,-0.048,-0.161,-0.116,5.055,-168.832,48.496
14:00:48:692,41.761,-0.133,-0.132,0.055,7.106,-169.104,47.593
14:00:48:719,41.788,-0.202,0.049,0.137,7.723,-168.798,46.462
14:00:48:745,41.814,-0.179,0.180,0.105,7.498,-167.546,44.110
14:00:48:771,41.840,-0.080,0.101,-0.003,7.171,-164.795,41.220
14:00:48:799,41.868,-0.108,0.085,0.028,7.078,-163.637,39.211
14:00:48:881,41.950,-0.186,0.413,0.137,6.530,-162.000,36.042
14:00:48:882,41.951,-0.032,0.393,0.125,6.066,-160.872,33.711
14:00:48:905,41.974,0.042,0.367,-0.064,5.370,-159.162,30.462
14:00:48:906,41.975,0.039,0.341,-0.252,4.532,-157.744,28.089
14:00:49:017,42.087,-0.018,0.055,-0.287,3.008,-156.623,26.779
14:00:49:018,42.088,-0.024,-0.084,-0.307,2.555,-156.350,27.023
14:00:49:022,42.091,-0.037,-0.254,-0.269,2.360,-155.778,27.794
14:00:49:033,42.103,0.016,-0.443,-0.201,2.607,-154.468,28.546
14:00:49:089,42.158,0.027,-0.424,-0.145,2.880,-153.268,28.779
14:00:49:09,42.159,0.054,-0.303,-0.108,3.313,-151.223,28.696
14:00:49:113,42.182,0.089,-0.219,-0.110,3.667,-149.900,28.301
14:00:49:139,42.208,0.122,-0.141,-0.136,4.331,-147.363,26.934
14:00:49:191,42.261,0.132,-0.095,-0.130,4.823,-147.046,25.519
14:00:49:22,42.290,0.174,-0.075,-0.158,5.424,-146.271,22.683
14:00:49:221,42.290,0.235,-0.060,-0.210,5.677,-147.451,19.224
14:00:49:276,42.345,0.255,-0.039,-0.290,5.607,-147.913,16.739
14:00:49:276,42.345,0.315,0.147,-0.217,5.208,-150.319,13.182
14:00:49:277,42.346,0.339,0.398,-0.172,4.634,-151.037,10.917
14:00:49:296,42.366,0.350,0.230,-0.237,4.036,-152.131,8.210
14:00:49:322,42.392,0.349,0.245,-0.372,3.938,-150.566,6.666
14:00:49:407,42.476,0.366,0.265,-0.514,3.966,-149.014,6.317
14:00:49:407,42.476,0.452,0.188,-0.486,4.130,-145.689,6.895
14:00:49:427,42.497,0.458,0.163,-0.416,4.178,-144.659,7.924
14:00:49:458,42.527,0.356,0.143,-0.249,4.188,-144.173,10.330
14:00:49:458,42.527,0.169,0.076,-0.124,4.271,-145.245,12.497
14:00:49:48,42.549,0.112,0.040,-0.113,4.533,-147.092,16.352
14:00:49:506,42.576,0.060,-0.124,-0.094,4.944,-149.552,20.312
14:00:49:534,42.603,0.059,-0.165,-0.078,5.289,-151.370,22.761
14:00:49:613,42.682,-0.004,-0.231,-0.024,5.948,-154.342,26.181
14:00:49:668,42.737,-0.052,-0.244,0.007,6.390,-156.169,28.255
14:00:49:669,42.738,-0.110,-0.281,0.015,7.146,-158.811,31.056
14:00:49:695,42.765,-0.094,-0.283,0.023,8.010,-160.966,33.319
14:00:49:696,42.765,-0.122,-0.251,0.053,8.718,-162.178,34.474
14:00:49:719,42.788,-0.152,-0.169,0.110,9.939,-163.696,35.715
14:00:49:745,42.815,-0.185,-0.124,0.129,10.883,-164.613,36.207
14:00:49:746,42.815,-0.266,-0.099,0.130,12.412,-165.883,36.419
14:00:49:796,42.865,-0.339,0.004,0.189,13.506,-166.414,36.188
14:00:49:937,43.006,-0.360,0.053,0.225,13.696,-165.916,36.002
14:00:49:937,43.007,-0.298,0.002,0.143,12.978,-163.579,35.789
14:00:49:938,43.008,-0.252,0.075,0.185,11.989,-161.176,35.658
14:00:49:939,43.009,-0.277,0.291,0.242,10.013,-157.271,35.190
14:00:49:98,43.050,-0.157,0.323,0.138,8.603,-154.721,34.293
14:00:50:037,43.106,-0.103,0.311,0.041,6.792,-151.369,31.874
14:00:50:037,43.107,-0.088,0.321,-0.160,5.579,-149.096,28.762
14:00:50:088,43.157,-0.117,0.227,-0.176,5.168,-148.239,26.988
14:00:50:088,43.158,-0.180,0.057,-0.080,4.677,-147.093,25.036
14:00:50:119,43.189,-0.136,-0.128,-0.081,4.495,-145.836,24.267
14:00:50:12,43.189,-0.113,-0.293,-0.081,4.638,-143.156,23.698
14:00:50:121,43.190,-0.070,-0.388,-0.044,5.177,-139.368,23.274
14:00:50:121,43.191,-0.002,-0.346,-0.016,5.581,-136.152,22.988
14:00:50:194,43.263,0.071,-0.203,-0.007,6.353,-130.810,22.302
14:00:50:195,43.264,0.106,-0.108,-0.057,6.985,-127.367,21.468
14:00:50:196,43.265,0.169,-0.004,-0.126,7.972,-122.735,19.590
14:00:50:244,43.313,0.191,-0.063,-0.169,8.503,-120.267,17.935
14:00:50:245,43.314,0.183,-0.097,-0.216,8.967,-117.162,15.083
14:00:50:269,43.338,0.190,-0.133,-0.296,8.991,-114.854,11.853
14:00:50:293,43.363,0.201,-0.090,-0.349,8.752,-113.749,9.592
14:00:50:32,43.389,0.220,0.144,-0.559,7.996,-112.657,5.932
14:00:50:375,43.444,0.226,0.099,-0.644,7.255,-112.492,3.438
14:00:50:376,43.445,0.078,-0.088,-0.682,6.056,-112.821,0.094
14:00:50:428,43.497,0.001,-0.042,-0.831,4.812,-113.239,-2.233
14:00:50:428,43.498,0.103,0.162,-0.832,3.831,-113.933,-3.172
14:00:50:48,43.550,0.324,0.434,-0.628,2.847,-114.790,-3.183
14:00:50:481,43.550,0.305,0.460,-0.488,3.152,-114.456,-1.772
14:00:50:503,43.573,0.132,0.320,-0.388,4.732,-112.267,2.793
14:00:50:56,43.629,0.026,0.147,-0.327,6.103,-108.949,9.613
14:00:50:56,43.629,0.029,0.036,-0.268,6.465,-106.914,14.731
14:00:50:582,43.652,0.037,0.063,-0.182,6.348,-105.728,22.152
14:00:50:608,43.678,-0.054,-0.014,0.016,6.584,-107.439,26.332
14:00:50:635,43.705,-0.078,-0.107,0.071,7.687,-110.494,32.251
14:00:50:661,43.731,-0.211,-0.285,0.191,8.946,-112.851,35.431
14:00:50:719,43.788,-0.179,-0.353,0.187,14.740,-119.807,41.896
14:00:50:74,43.809,-0.208,-0.327,0.246,16.603,-121.227,43.343
14:00:50:796,43.866,-0.255,-0.329,0.312,19.259,-122.835,44.724
14:00:50:796,43.866,-0.224,-0.233,0.391,20.326,-123.240,45.117
14:00:50:819,43.888,-0.193,-0.172,0.416,20.814,-122.783,45.244
14:00:50:874,43.943,-0.177,-0.064,0.540,19.973,-121.126,44.687
14:00:50:874,43.944,-0.196,-0.083,0.436,18.445,-119.330,43.963
14:00:50:902,43.971,-0.146,-0.141,0.242,15.148,-115.177,42.521
14:00:50:924,43.993,-0.098,-0.059,0.271,12.972,-111.923,41.285
14:00:50:951,44.020,0.100,0.211,0.396,10.318,-106.621,38.722
14:00:51:007,44.077,0.204,0.641,0.396,8.165,-100.754,34.838
14:00:51:007,44.077,0.188,0.704,0.141,7.283,-96.260,31.723
14:00:51:029,44.098,0.010,0.370,-0.144,7.383,-89.751,27.054
14:00:51:085,44.155,-0.019,0.028,-0.105,7.876,-85.819,24.399
14:00:51:085,44.155,-0.057,-0.017,-0.154,8.340,-80.065,21.813
14:00:51:108,44.177,-0.086,-0.057,-0.209,8.500,-76.810,20.918
14:00:51:134,44.203,-0.056,-0.156,-0.222,8.842,-73.540,20.296
14:00:51:16,44.229,-0.026,-0.213,-0.199,9.514,-71.582,20.285
14:00:51:186,44.256,-0.034,-0.160,-0.137,10.168,-70.846,20.309
14:00:51:212,44.282,-0.026,-0.111,-0.146,11.159,-69.153,20.144
14:00:51:241,44.310,-0.049,-0.101,-0.203,11.827,-67.960,19.786
14:00:51:295,44.364,-0.053,-0.148,-0.235,12.726,-66.187,18.548
14:00:51:295,44.364,-0.074,-0.156,-0.280,13.568,-64.915,16.420
14:00:51:318,44.387,-0.073,-0.113,-0.294,14.030,-64.366,14.606
14:00:51:373,44.442,-0.085,-0.063,-0.359,14.563,-63.839,11.418
14:00:51:374,44.443,-0.097,0.103,-0.455,14.804,-63.546,9.170
14:00:51:398,44.467,-0.099,0.130,-0.499,15.022,-62.850,5.954
14:00:51:454,44.524,-0.157,0.062,-0.526,15.249,-61.367,3.531
14:00:51:455,44.525,-0.289,0.139,-0.600,15.363,-59.965,2.496
14:00:51:456,44.525,-0.281,0.317,-0.698,15.385,-58.083,1.756
14:00:51:534,44.604,-0.185,0.320,-0.711,15.185,-57.170,1.856
14:00:51:534,44.604,-0.154,0.155,-0.590,14.903,-56.527,3.389
14:00:51:559,44.629,-0.124,0.053,-0.442,14.642,-56.867,5.201
14:00:51:559,44.629,-0.108,0.030,-0.373,14.119,-58.625,8.617
14:00:51:61,44.680,-0.078,-0.091,-0.298,13.747,-61.784,12.329
14:00:51:61,44.680,-0.082,-0.155,-0.232,13.636,-64.657,14.554
14:00:51:632,44.702,-0.028,-0.221,-0.141,13.820,-69.654,17.395
14:00:51:659,44.728,0.034,-0.234,-0.032,14.293,-72.876,19.390
14:00:51:714,44.784,0.098,-0.219,0.062,15.501,-76.860,22.441
14:00:51:715,44.784,0.208,-0.197,0.084,17.219,-79.279,25.557
14:00:51:768,44.838,0.277,-0.154,0.080,18.487,-79.775,27.761
14:00:51:768,44.838,0.367,-0.084,0.152,20.575,-79.618,30.970
14:00:51:79,44.859,0.372,-0.122,0.193,22.131,-79.398,32.950
14:00:51:816,44.886,0.372,-0.157,0.224,23.901,-78.795,35.065
14:00:51:842,44.912,0.431,-0.043,0.222,23.575,-77.861,35.905
14:00:51:869,44.938,0.332,-0.089,0.252,23.470,-75.803,37.791
14:00:51:895,44.964,0.177,-0.179,0.278,22.482,-73.825,39.069
14:00:51:921,44.991,0.237,-0.111,0.270,21.323,-72.612,39.459
14:00:51:951,45.020,0.363,0.258,0.293,18.669,-71.187,38.805
14:00:51:973,45.043,0.164,0.284,0.213,16.786,-70.495,37.538
14:00:52:,45.069,-0.133,0.194,0.135,14.685,-70.201,34.548
14:00:52:028,45.098,-0.269,0.273,0.128,12.696,-71.191,30.728
14:00:52:052,45.121,-0.220,0.237,0.133,11.339,-71.853,28.111
14:00:52:108,45.177,-0.230,0.090,0.114,9.765,-72.340,25.067
14:00:52:109,45.178,-0.212,-0.098,0.046,9.207,-71.416,23.681
14:00:52:131,45.200,-0.214,-0.220,-0.015,9.088,-68.705,22.673
14:00:52:157,45.227,-0.148,-0.233,-0.110,9.431,-64.874,22.470
14:00:52:184,45.253,-0.107,-0.185,-0.181,9.753,-62.069,22.569
14:00:52:239,45.308,-0.046,-0.086,-0.189,10.449,-58.699,22.729
14:00:52:24,45.309,-0.055,-0.111,-0.199,11.061,-57.187,22.771
14:00:52:351,45.421,-0.161,-0.031,-0.237,12.126,-56.536,22.016
14:00:52:351,45.421,-0.107,-0.185,-0.227,12.750,-57.028,21.072
14:00:52:352,45.421,-0.124,-0.229,-0.210,13.386,-57.801,19.245
14:00:52:352,45.422,-0.059,-0.194,-0.217,13.690,-58.770,17.258
14:00:52:395,45.464,0.015,0.092,-0.333,13.675,-58.816,15.915
14:00:52:423,45.492,0.061,0.347,-0.420,13.435,-59.138,13.845
14:00:52:424,45.493,0.013,0.203,-0.413,13.348,-59.168,12.705
14:00:52:446,45.515,-0.070,0.299,-0.422,13.051,-59.116,11.485
14:00:52:472,45.542,-0.187,0.411,-0.469,12.701,-58.724,10.916
14:00:52:5,45.570,-0.174,0.446,-0.522,12.008,-58.645,10.525
14:00:52:525,45.595,-0.075,0.124,-0.462,11.448,-59.516,10.966
14:00:52:581,45.651,-0.054,-0.022,-0.281,11.073,-60.864,11.655
14:00:52:581,45.651,-0.070,-0.063,-0.231,10.672,-64.074,13.384
14:00:52:662,45.732,-0.111,-0.088,-0.171,10.530,-66.371,14.865
14:00:52:663,45.732,-0.102,-0.128,-0.150,10.618,-69.652,17.350
14:00:52:664,45.733,-0.041,-0.238,-0.126,10.968,-72.326,19.984
14:00:52:685,45.754,0.017,-0.271,-0.063,11.324,-74.303,21.605
14:00:52:71,45.779,0.084,-0.171,0.016,12.070,-76.742,24.127
14:00:52:735,45.804,0.114,-0.127,0.025,12.664,-77.982,25.815
14:00:52:761,45.830,0.168,-0.117,0.057,13.754,-79.341,28.116
14:00:52:817,45.886,0.183,-0.158,0.083,15.091,-80.462,30.167
14:00:52:817,45.886,0.191,-0.160,0.124,16.086,-81.263,31.261
14:00:52:84,45.909,0.210,-0.199,0.212,17.569,-82.618,32.451
14:00:52:895,45.965,0.231,-0.127,0.227,18.251,-82.920,33.050
14:00:52:896,45.965,0.272,-0.037,0.247,18.594,-82.411,33.642
14:00:52:918,45.988,0.259,0.060,0.256,18.280,-81.509,33.729
14:00:52:945,46.014,0.161,-0.021,0.157,17.023,-79.213,33.343
14:00:52:971,46.040,0.222,0.206,0.163,15.157,-76.420,32.220
14:00:52:997,46.067,0.221,0.298,0.093,13.762,-74.538,30.964
14:00:53:024,46.093,0.098,0.445,-0.037,11.735,-71.779,28.111
14:00:53:05,46.120,-0.118,0.320,-0.155,10.581,-70.255,25.678
14:00:53:133,46.203,-0.152,0.097,-0.160,9.587,-69.119,22.210
14:00:53:133,46.203,-0.168,-0.194,-0.091,9.038,-69.360,19.916
14:00:53:158,46.228,-0.199,-0.212,-0.072,8.736,-69.295,19.140
14:00:53:159,46.228,-0.227,-0.317,-0.086,8.575,-68.953,18.946
14:00:53:181,46.250,-0.153,-0.365,-0.142,8.696,-67.918,19.349
14:00:53:209,46.278,-0.023,-0.233,-0.158,9.098,-65.884,20.354
14:00:53:29,46.359,-0.002,-0.061,-0.167,9.457,-63.283,21.412
14:00:53:291,46.360,0.011,0.109,-0.180,9.719,-61.719,22.004
14:00:53:34,46.410,-0.097,-0.114,-0.111,10.738,-59.788,22.571
14:00:53:368,46.437,-0.134,-0.160,-0.095,10.915,-59.967,21.975
14:00:53:369,46.438,-0.093,-0.267,-0.096,10.786,-59.895,21.142
14:00:53:391,46.460,-0.069,-0.210,-0.118,10.608,-59.891,20.661
14:00:53:417,46.487,-0.010,0.171,-0.131,10.073,-59.395,19.743
14:00:53:443,46.513,-0.015,0.313,-0.169,9.687,-59.244,18.996
14:00:53:47,46.540,-0.033,0.220,-0.198,9.453,-57.899,17.958
14:00:53:496,46.565,-0.127,0.344,-0.182,9.240,-56.596,17.327
14:00:53:553,46.622,-0.232,0.479,-0.264,8.845,-54.143,16.661
14:00:53:553,46.622,-0.183,0.442,-0.355,8.404,-52.649,16.193
14:00:53:604,46.674,-0.134,0.205,-0.325,8.537,-52.456,16.172
14:00:53:605,46.674,-0.119,-0.059,-0.158,9.161,-53.787,16.561
14:00:53:629,46.699,-0.158,-0.232,-0.069,9.607,-55.044,17.202
14:00:53:685,46.754,-0.158,-0.262,-0.053,10.277,-57.063,18.598
14:00:53:685,46.754,-0.181,-0.329,-0.111,10.956,-58.009,20.158
14:00:53:735,46.804,-0.095,-0.346,-0.108,11.425,-58.499,21.235
14:00:53:736,46.805,-0.025,-0.276,-0.075,12.290,-59.050,23.010
14:00:53:76,46.830,0.061,-0.098,-0.067,12.923,-59.245,24.220
14:00:53:788,46.857,0.145,-0.028,-0.065,14.018,-59.575,26.011
14:00:53:789,46.858,0.188,-0.107,-0.037,15.394,-59.968,27.792
14:00:53:811,46.881,0.200,-0.142,0.010,16.423,-60.317,28.903
14:00:53:837,46.907,0.224,-0.142,0.027,17.763,-60.922,30.175
14:00:53:864,46.933,0.255,-0.126,0.053,18.429,-61.086,30.862
14:00:53:89,46.959,0.322,-0.015,0.053,18.902,-60.766,31.628
14:00:53:943,47.012,0.338,0.041,0.064,18.843,-60.321,31.840
14:00:53:972,47.041,0.241,0.056,0.106,18.148,-59.213,31.730
14:00:53:972,47.042,0.314,0.001,0.119,16.938,-57.779,31.099
14:00:54:024,47.093,0.437,0.178,0.166,15.778,-56.874,30.205
14:00:54:025,47.094,0.313,0.243,0.049,13.781,-54.842,28.258
14:00:54:047,47.117,0.204,0.263,0.000,12.512,-53.292,26.622
14:00:54:074,47.143,0.051,0.232,0.049,10.859,-51.151,24.080
14:00:54:1,47.169,0.081,0.115,0.091,9.427,-49.074,22.173
14:00:54:128,47.197,0.078,0.124,0.068,8.484,-47.415,21.295
14:00:54:153,47.222,-0.038,-0.001,0.025,7.396,-44.737,20.368
14:00:54:179,47.248,-0.104,-0.234,0.070,7.055,-42.886,19.867
14:00:54:205,47.274,-0.108,-0.338,0.014,6.842,-39.461,19.131
14:00:54:231,47.301,-0.101,-0.331,-0.053,6.835,-36.675,18.621
14:00:54:259,47.328,-0.128,-0.219,-0.106,6.869,-32.006,17.747
14:00:54:284,47.353,-0.235,-0.075,-0.164,7.029,-27.416,16.616
14:00:54:31,47.379,-0.292,-0.071,-0.191,7.255,-24.917,15.670
14:00:54:366,47.435,-0.312,-0.015,-0.193,7.628,-22.430,13.816
14:00:54:366,47.436,-0.296,-0.021,-0.167,7.801,-21.600,12.324
14:00:54:389,47.458,-0.334,-0.047,-0.137,7.781,-20.856,10.028
14:00:54:415,47.485,-0.481,0.081,-0.066,7.328,-20.268,7.880
14:00:54:441,47.510,-0.521,0.257,-0.097,6.814,-20.155,6.560
14:00:54:468,47.537,-0.445,0.226,-0.123,5.976,-20.382,5.065
14:00:54:494,47.563,-0.533,0.191,0.041,5.592,-20.409,4.567
14:00:54:52,47.589,-0.480,0.156,0.086,5.620,-19.866,4.771
14:00:54:549,47.618,-0.462,0.347,-0.021,6.301,-18.260,6.101
14:00:54:574,47.643,-0.339,0.278,-0.089,7.209,-16.434,7.873
14:00:54:599,47.668,-0.229,0.135,-0.148,8.931,-12.761,12.043
14:00:54:625,47.694,-0.181,0.088,-0.101,9.950,-10.083,15.580
14:00:54:651,47.720,-0.191,0.008,-0.073,11.058,-6.753,21.311
14:00:54:68,47.749,-0.127,-0.077,-0.083,11.718,-5.953,24.802
14:00:54:705,47.774,-0.006,-0.142,-0.015,12.993,-6.796,29.003
14:00:54:73,47.800,0.120,-0.171,-0.028,14.721,-8.823,32.637
14:00:54:756,47.826,0.258,-0.178,0.004,16.048,-10.480,34.688
14:00:54:782,47.852,0.269,-0.215,0.046,17.909,-12.406,37.394
14:00:54:808,47.878,0.300,-0.294,0.064,19.116,-13.213,38.987
14:00:54:836,47.906,0.322,-0.429,0.082,21.031,-14.171,40.994
14:00:54:861,47.930,0.392,-0.467,0.037,22.964,-14.799,42.245
14:00:54:888,47.957,0.407,-0.382,0.017,23.848,-14.681,42.828
14:00:54:916,47.985,0.489,-0.211,-0.030,24.334,-13.764,42.981
14:00:54:941,48.011,0.587,-0.004,-0.062,23.962,-12.724,42.618
14:00:54:998,48.068,0.506,0.013,-0.079,22.351,-9.989,41.580
14:00:54:998,48.068,0.330,-0.092,-0.072,20.768,-7.344,40.688
14:00:55:019,48.089,0.428,0.169,-0.273,18.198,-2.393,39.162
14:00:55:045,48.114,0.356,0.472,-0.353,15.431,3.233,36.753
14:00:55:071,48.140,0.230,0.471,-0.377,13.956,7.295,34.875
14:00:55:127,48.196,-0.001,0.478,-0.273,12.316,13.359,31.650
14:00:55:127,48.197,-0.083,0.172,-0.075,11.656,16.939,29.373
14:00:55:179,48.248,-0.152,0.072,0.009,11.057,21.195,26.336
14:00:55:234,48.304,-0.192,-0.039,0.083,10.540,24.151,24.064
14:00:55:235,48.304,-0.165,-0.127,0.102,10.300,25.495,23.057
14:00:55:236,48.305,-0.101,-0.262,0.057,10.190,26.428,22.333
14:00:55:256,48.325,-0.006,-0.296,-0.045,10.272,27.022,22.241
14:00:55:281,48.350,-0.065,-0.148,-0.055,10.417,28.496,22.235
14:00:55:308,48.377,-0.104,-0.027,-0.012,10.407,29.905,21.968
14:00:55:333,48.403,-0.213,0.021,0.121,10.403,31.548,20.623
14:00:55:36,48.429,-0.223,-0.124,0.202,10.519,32.093,17.951
14:00:55:388,48.458,-0.247,-0.128,0.227,10.654,31.260,15.619
14:00:55:414,48.483,-0.265,-0.027,0.215,10.670,29.437,11.878
14:00:55:44,48.509,-0.231,-0.018,0.258,10.614,28.165,9.574
14:00:55:465,48.534,-0.353,0.143,0.328,10.552,27.185,6.892
14:00:55:491,48.560,-0.376,0.060,0.276,10.829,27.825,5.744
14:00:55:517,48.587,-0.398,0.116,0.285,11.189,29.057,5.953
14:00:55:602,48.671,-0.411,0.198,0.339,11.733,31.444,7.532
14:00:55:603,48.672,-0.518,0.344,0.208,12.079,32.449,9.058
14:00:55:604,48.673,-0.478,0.441,0.050,12.622,32.789,11.856
14:00:55:653,48.722,-0.216,0.301,-0.152,14.060,31.977,18.806
14:00:55:675,48.744,-0.109,0.131,-0.162,14.798,31.246,24.112
14:00:55:701,48.771,-0.065,0.072,-0.177,15.278,30.121,27.631
14:00:55:73,48.800,0.009,-0.099,-0.156,16.705,26.476,32.157
14:00:55:754,48.823,0.073,-0.192,-0.151,18.851,21.703,35.887
14:00:55:782,48.851,0.194,-0.289,-0.177,20.790,18.320,38.058
14:00:55:808,48.877,0.235,-0.293,-0.147,24.011,13.895,40.927
14:00:55:835,48.905,0.237,-0.258,-0.148,26.240,11.356,42.454
14:00:55:859,48.928,0.328,-0.244,-0.178,29.737,7.938,43.978
14:00:55:887,48.957,0.351,-0.270,-0.201,31.933,5.981,44.541
14:00:55:914,48.983,0.371,-0.262,-0.244,34.635,4.569,45.308
14:00:55:939,49.008,0.465,-0.317,-0.244,36.848,4.449,46.247
14:00:55:966,49.035,0.496,-0.239,-0.271,37.637,5.317,46.917
14:00:55:991,49.061,0.587,-0.167,-0.356,37.789,7.301,47.589
14:00:56:018,49.087,0.593,-0.313,-0.213,37.165,8.907,47.654
14:00:56:043,49.113,0.573,-0.227,-0.267,35.011,12.185,47.414
14:00:56:075,49.144,0.666,0.249,-0.665,31.345,16.027,46.306
14:00:56:075,49.144,0.496,0.139,-0.582,28.666,18.900,44.971
14:00:56:096,49.165,0.327,0.240,-0.520,24.912,23.508,42.460
14:00:56:122,49.191,0.289,0.226,-0.451,22.757,26.374,40.484
14:00:56:179,49.248,0.196,0.142,-0.323,20.163,30.316,37.541
14:00:56:179,49.248,0.126,0.123,-0.265,18.640,32.730,35.679
14:00:56:229,49.299,0.060,0.135,-0.231,16.554,36.288,32.740
14:00:56:23,49.299,-0.015,-0.011,-0.131,15.183,39.694,29.751
14:00:56:254,49.323,-0.055,-0.193,-0.093,14.664,41.733,27.721
14:00:56:279,49.349,-0.096,-0.176,-0.064,14.122,45.519,24.643
14:00:56:305,49.374,-0.207,-0.072,-0.037,13.922,48.424,22.607
14:00:56:358,49.427,-0.258,0.027,-0.014,13.832,52.947,19.354
14:00:56:387,49.456,-0.343,0.097,0.100,14.024,57.404,15.859
14:00:56:387,49.457,-0.356,0.026,0.238,14.328,60.122,13.340
14:00:56:413,49.482,-0.340,-0.085,0.386,14.778,63.381,9.375
14:00:56:437,49.507,-0.313,-0.128,0.471,14.941,65.041,6.678
14:00:56:463,49.532,-0.311,-0.021,0.628,14.778,66.300,2.533
14:00:56:489,49.558,-0.331,0.132,0.804,13.979,66.446,-1.346
14:00:56:515,49.584,-0.272,0.093,0.782,13.080,65.928,-3.258
14:00:56:541,49.611,0.014,-0.020,0.823,11.474,65.221,-4.482
14:00:56:569,49.638,-0.012,-0.102,0.706,10.359,64.870,-4.082
14:00:56:594,49.664,-0.204,0.006,0.516,9.056,64.650,-1.695
14:00:56:62,49.689,-0.230,0.268,0.441,8.595,64.820,1.198
14:00:56:646,49.716,-0.125,0.489,0.422,8.524,65.437,7.381
14:00:56:672,49.742,0.004,0.475,0.266,9.073,65.486,15.028
14:00:56:701,49.770,0.074,0.398,0.124,9.699,64.866,20.408
14:00:56:726,49.796,0.149,0.181,-0.033,11.414,62.658,28.191
14:00:56:752,49.822,0.117,0.078,-0.095,13.200,60.825,32.926
14:00:56:778,49.848,0.147,-0.017,-0.117,17.167,57.539,39.298
14:00:56:804,49.873,0.117,-0.069,-0.111,22.418,53.414,44.037
14:00:56:83,49.899,0.162,-0.047,-0.202,26.344,50.328,46.317
14:00:56:856,49.925,0.192,-0.134,-0.317,32.821,45.379,48.766
14:00:56:883,49.952,0.225,-0.314,-0.272,37.288,42.276,50.110
14:00:56:909,49.978,0.318,-0.431,-0.294,43.353,38.799,52.148
14:00:56:935,50.005,0.325,-0.341,-0.456,46.475,37.696,53.555
14:00:56:963,50.032,0.349,-0.417,-0.505,50.148,37.810,55.917
14:00:56:989,50.058,0.382,-0.383,-0.598,52.154,39.760,58.271
14:00:57:014,50.083,0.439,-0.449,-0.612,52.395,41.765,59.519
14:00:57:04,50.109,0.414,-0.482,-0.614,51.131,45.638,60.812
14:00:57:066,50.135,0.303,-0.223,-0.787,48.763,48.927,61.226
14:00:57:123,50.192,0.215,-0.068,-0.984,42.582,54.464,60.703
14:00:57:123,50.193,0.059,0.080,-1.088,33.902,60.574,58.511
14:00:57:176,50.246,-0.046,0.190,-0.967,27.351,65.269,56.391
14:00:57:176,50.246,-0.058,0.224,-0.679,17.930,73.188,52.513
14:00:57:197,50.267,-0.024,0.263,-0.594,12.588,78.489,49.505
14:00:57:223,50.293,0.001,0.225,-0.240,6.632,86.108,44.684
14:00:57:252,50.321,-0.012,0.137,-0.124,3.584,92.119,39.557
14:00:57:304,50.374,-0.047,0.103,-0.091,2.729,95.035,36.061
14:00:57:33,50.399,-0.094,0.010,-0.031,2.726,97.704,31.091
14:00:57:358,50.427,-0.063,-0.009,0.027,3.234,98.842,27.898
14:00:57:358,50.428,-0.050,-0.008,0.089,4.003,101.165,23.216
14:00:57:381,50.450,-0.058,0.036,0.176,4.512,103.209,20.156
14:00:57:438,50.507,-0.017,0.141,0.250,5.341,106.883,15.658
14:00:57:438,50.507,-0.059,0.074,0.341,6.400,110.890,11.467
14:00:57:46,50.529,-0.007,0.097,0.415,7.271,113.726,8.808
14:00:57:488,50.557,0.115,0.280,0.643,8.726,118.180,4.693
14:00:57:513,50.582,0.245,0.127,0.711,9.836,121.101,1.931
14:00:57:539,50.608,0.451,-0.067,0.735,11.914,125.557,-1.924
14:00:57:565,50.634,0.747,-0.060,1.001,13.487,128.742,-5.561
14:00:57:591,50.661,0.834,-0.178,1.208,13.714,129.282,-7.565
14:00:57:618,50.687,0.627,-0.394,0.911,13.045,127.858,-8.539
14:00:57:644,50.713,0.457,-0.062,0.481,11.823,125.669,-7.427
14:00:57:67,50.739,0.603,0.134,0.485,9.605,121.989,-3.135
14:00:57:696,50.766,0.539,0.145,0.544,8.295,119.436,0.952
14:00:57:724,50.794,0.317,0.236,0.466,6.921,115.374,7.935
14:00:57:75,50.820,0.049,0.271,0.248,6.671,111.011,15.313
14:00:57:776,50.846,-0.144,0.246,0.043,7.399,107.883,20.136
14:00:57:802,50.872,-0.211,0.234,-0.168,10.035,102.851,27.107
14:00:57:857,50.926,-0.257,0.172,-0.256,12.966,99.657,31.633
14:00:57:857,50.927,-0.346,0.101,-0.455,18.877,95.126,37.735
14:00:57:88,50.950,-0.396,-0.065,-0.709,25.660,92.675,43.932
14:00:57:906,50.976,-0.340,-0.352,-0.921,30.211,92.353,48.245
14:00:57:932,51.002,-0.275,-0.555,-1.010,35.772,93.328,53.497
14:00:57:959,51.028,-0.307,-0.525,-0.937,38.065,94.542,55.748
14:00:57:985,51.054,-0.261,-0.606,-0.981,39.700,95.607,56.783
14:00:58:013,51.082,-0.134,-0.709,-1.022,39.345,95.971,55.647
14:00:58:039,51.109,-0.296,-0.515,-1.131,37.566,96.390,54.080
14:00:58:091,51.161,-0.635,-0.132,-1.166,32.451,98.248,51.355
14:00:58:119,51.188,-0.535,0.047,-0.882,28.179,100.533,49.579
14:00:58:12,51.189,-0.423,0.207,-0.751,21.356,104.725,46.378
14:00:58:143,51.213,-0.307,0.327,-0.553,17.113,107.424,43.645
14:00:58:169,51.238,-0.282,0.336,-0.322,12.173,110.486,38.658
14:00:58:195,51.265,-0.205,0.223,-0.174,9.281,112.317,33.013
14:00:58:25,51.320,-0.100,0.134,-0.043,7.898,113.357,29.031
14:00:58:251,51.320,-0.075,0.090,0.070,6.441,115.044,23.014
14:00:58:278,51.348,0.016,0.197,0.242,5.827,116.478,19.005
14:00:58:278,51.348,0.103,0.241,0.344,5.263,118.893,12.853
14:00:58:3,51.369,0.328,0.195,0.421,5.066,121.453,6.717
14:00:58:326,51.395,0.521,0.105,0.496,5.111,123.055,2.636
14:00:58:353,51.422,0.747,-0.086,0.496,5.094,124.700,-3.412
