Time,Second,AccelerationX,AccelerationY,AccelerationZ,EulerAnglesX,EulerAnglesY,EulerAnglesZ
13:51:29:663,0.000,-0.150,0.039,-0.045,1.237,0.382,16.910
13:51:29:69,0.027,-0.132,0.021,-0.065,2.021,0.739,18.689
13:51:29:718,0.055,-0.127,-0.024,-0.090,2.425,1.374,20.021
13:51:29:742,0.079,-0.114,-0.025,-0.094,2.858,2.300,22.198
13:51:29:77,0.107,-0.059,-0.033,-0.101,3.164,2.764,24.381
13:51:29:796,0.133,-0.037,-0.027,-0.101,2.994,2.782,25.847
13:51:29:821,0.158,0.017,-0.034,-0.071,2.813,2.254,27.663
13:51:29:847,0.184,0.036,-0.022,-0.018,3.012,1.396,28.686
13:51:29:904,0.240,0.173,-0.060,0.028,3.476,-1.555,29.505
13:51:29:904,0.240,0.299,-0.088,0.091,4.132,-6.017,29.755
13:51:29:926,0.263,0.294,-0.065,0.113,4.305,-8.649,29.818
13:51:29:952,0.289,0.267,-0.062,0.092,4.170,-11.520,29.798
13:51:30:008,0.344,0.207,-0.043,0.076,3.868,-12.232,29.711
13:51:30:008,0.345,0.155,-0.023,0.051,3.327,-12.282,29.487
13:51:30:061,0.398,0.086,-0.020,0.021,2.977,-11.497,29.044
13:51:30:062,0.398,0.051,-0.018,-0.010,2.877,-10.694,28.679
13:51:30:084,0.421,0.009,-0.014,-0.001,2.794,-9.171,28.082
13:51:30:139,0.476,-0.027,0.000,-0.014,2.709,-7.952,27.711
13:51:30:14,0.476,-0.048,-0.001,-0.021,2.490,-6.187,27.290
13:51:30:163,0.499,-0.075,0.014,-0.027,2.292,-5.159,27.106
13:51:30:217,0.554,-0.081,0.019,-0.014,1.986,-4.079,26.957
13:51:30:218,0.555,-0.068,0.007,-0.001,1.732,-3.623,27.040
13:51:30:241,0.578,-0.043,0.004,0.015,1.634,-3.619,27.215
13:51:30:297,0.633,-0.024,-0.005,0.019,1.526,-3.821,27.311
13:51:30:297,0.634,-0.006,-0.008,0.037,1.513,-4.097,27.416
13:51:30:322,0.659,0.020,-0.005,0.037,1.550,-4.542,27.589
13:51:30:375,0.712,0.041,-0.002,0.040,1.627,-5.022,27.728
13:51:30:376,0.712,0.053,-0.008,0.037,1.695,-5.304,27.780
13:51:30:4,0.737,0.050,-0.019,0.038,1.892,-5.715,27.639
13:51:30:427,0.764,0.040,-0.022,0.025,1.986,-5.815,27.532
13:51:30:451,0.787,0.029,-0.016,0.021,2.070,-5.751,27.432
13:51:30:479,0.816,0.008,-0.013,0.009,2.074,-5.589,27.409
13:51:30:504,0.840,0.001,-0.006,0.010,2.054,-5.336,27.389
13:51:30:559,0.896,-0.009,-0.011,0.009,2.017,-5.047,27.374
13:51:30:56,0.896,-0.013,-0.008,0.014,1.986,-4.901,27.383
13:51:30:583,0.919,-0.013,-0.009,0.019,1.958,-4.747,27.399
13:51:30:638,0.974,-0.007,-0.006,0.017,1.959,-4.713,27.423
13:51:30:639,0.975,0.002,-0.006,0.025,2.025,-4.776,27.440
13:51:30:662,0.999,0.011,-0.012,0.011,2.129,-4.887,27.431
13:51:30:718,1.055,0.012,-0.012,0.015,2.183,-4.966,27.422
13:51:30:718,1.055,0.014,-0.018,0.006,2.239,-5.044,27.404
13:51:30:74,1.077,0.010,-0.012,0.013,2.248,-5.044,27.395
13:51:30:796,1.132,0.002,-0.005,0.011,2.235,-5.053,27.385
13:51:30:796,1.133,-0.004,-0.010,0.020,2.235,-5.037,27.392
13:51:30:819,1.155,-0.004,-0.007,0.019,2.258,-5.037,27.393
13:51:30:878,1.215,-0.007,-0.007,0.031,2.303,-5.053,27.398
13:51:30:878,1.215,-0.010,-0.010,0.021,2.353,-5.083,27.398
13:51:30:879,1.215,-0.001,-0.013,0.027,2.467,-5.206,27.405
13:51:30:925,1.261,0.017,0.008,0.018,2.537,-5.346,27.395
13:51:30:95,1.287,0.024,-0.001,0.021,2.671,-5.544,27.365
13:51:30:98,1.317,0.028,-0.028,0.017,2.777,-5.561,27.323
13:51:30:98,1.317,0.023,-0.034,0.022,2.801,-5.447,27.301
13:51:31:031,1.368,0.003,-0.025,0.012,2.765,-5.131,27.277
13:51:31:032,1.369,-0.008,-0.019,0.015,2.706,-4.941,27.242
13:51:31:056,1.393,-0.012,-0.018,0.016,2.618,-4.782,27.156
13:51:31:108,1.445,-0.017,-0.021,0.027,2.573,-4.723,27.077
13:51:31:138,1.475,-0.018,-0.009,0.025,2.516,-4.635,26.968
13:51:31:139,1.475,-0.014,0.008,0.033,2.483,-4.530,26.907
13:51:31:189,1.525,-0.013,-0.010,0.043,2.477,-4.451,26.859
13:51:31:19,1.526,-0.019,-0.016,0.049,2.515,-4.299,26.799
13:51:31:214,1.550,-0.026,-0.015,0.052,2.555,-4.157,26.759
13:51:31:269,1.606,-0.033,-0.009,0.050,2.671,-3.914,26.716
13:51:31:269,1.606,-0.033,-0.003,0.036,2.801,-3.756,26.666
13:51:31:291,1.628,-0.036,0.001,0.022,2.902,-3.745,26.615
13:51:31:318,1.654,-0.046,0.023,0.029,3.049,-3.884,26.522
13:51:31:345,1.682,-0.058,0.004,0.017,3.181,-4.181,26.435
13:51:31:37,1.707,-0.071,-0.030,0.020,3.333,-4.935,26.200
13:51:31:396,1.732,-0.139,-0.010,0.022,3.300,-6.100,25.778
13:51:31:422,1.759,-0.184,-0.017,0.064,3.188,-7.202,25.415
13:51:31:448,1.785,-0.222,-0.070,0.126,3.079,-9.871,24.744
13:51:31:535,1.871,-0.136,-0.159,0.101,3.123,-11.923,24.363
13:51:31:535,1.871,-0.181,-0.118,0.092,3.071,-13.742,24.050
13:51:31:535,1.871,-0.257,0.111,0.046,2.880,-13.935,23.975
13:51:31:583,1.919,-0.254,0.149,-0.057,2.739,-14.050,23.967
13:51:31:584,1.920,-0.231,0.132,-0.101,3.104,-14.237,24.202
13:51:31:606,1.942,-0.195,0.100,-0.051,3.571,-14.550,24.606
13:51:31:632,1.969,-0.134,0.002,-0.010,4.354,-15.584,25.666
13:51:31:689,2.026,-0.109,-0.087,0.020,4.779,-16.351,26.597
13:51:31:69,2.026,-0.101,-0.109,0.037,5.219,-17.581,28.174
13:51:31:711,2.048,-0.038,-0.126,0.019,5.554,-18.887,29.723
13:51:31:737,2.074,0.003,-0.117,0.013,5.839,-19.759,30.645
13:51:31:764,2.100,0.078,-0.080,-0.002,6.373,-20.857,31.802
13:51:31:79,2.127,0.101,-0.087,-0.002,6.783,-21.382,32.400
13:51:31:816,2.153,0.056,-0.145,0.049,7.433,-22.042,33.002
13:51:31:844,2.181,0.035,-0.130,0.090,7.861,-22.574,33.200
13:51:31:869,2.206,0.075,-0.074,0.072,7.938,-22.851,33.054
13:51:31:895,2.232,0.141,0.019,0.032,7.849,-23.122,32.475
13:51:31:921,2.258,0.122,0.087,0.027,7.663,-22.973,31.891
13:51:31:977,2.314,0.090,0.102,0.036,7.204,-22.134,30.789
13:51:31:978,2.314,0.103,0.114,-0.006,6.819,-21.226,29.985
13:51:32:028,2.364,0.149,0.138,-0.059,6.162,-19.364,28.802
13:51:32:053,2.389,0.223,0.333,-0.197,5.382,-16.267,27.752
13:51:32:081,2.418,0.107,0.303,-0.171,4.849,-13.433,27.078
13:51:32:082,2.419,-0.084,0.083,-0.093,3.960,-8.816,26.083
13:51:32:134,2.471,-0.170,-0.124,-0.034,3.289,-6.212,25.318
13:51:32:135,2.472,-0.140,-0.188,-0.007,2.375,-3.831,24.169
13:51:32:159,2.496,-0.056,-0.103,0.015,1.639,-3.053,23.191
13:51:32:184,2.521,-0.058,-0.047,0.051,1.252,-3.041,22.689
13:51:32:24,2.576,0.005,-0.034,0.051,0.821,-3.515,22.068
13:51:32:24,2.577,-0.006,-0.035,0.067,0.619,-3.763,21.702
13:51:32:262,2.599,0.014,-0.108,0.099,0.432,-3.459,21.227
13:51:32:29,2.627,-0.087,-0.100,0.097,0.313,-2.610,21.002
13:51:32:316,2.652,-0.134,-0.126,0.070,0.134,-0.832,20.798
13:51:32:341,2.678,-0.150,-0.134,0.084,0.004,0.980,20.695
13:51:32:367,2.704,-0.171,-0.131,0.088,-0.056,1.958,20.603
13:51:32:423,2.759,-0.182,-0.137,0.125,-0.111,2.791,20.313
13:51:32:424,2.760,-0.145,-0.110,0.147,-0.125,2.892,20.020
13:51:32:446,2.783,-0.173,-0.132,0.155,-0.069,2.479,19.454
13:51:32:473,2.809,-0.130,-0.090,0.200,0.113,1.955,18.861
13:51:32:5,2.837,-0.077,-0.028,0.240,0.156,1.886,18.568
13:51:32:526,2.862,-0.026,0.382,0.233,-0.150,2.978,18.522
13:51:32:551,2.888,-0.114,0.411,0.227,-0.257,4.324,18.687
13:51:32:578,2.914,-0.185,0.643,0.261,-0.369,5.863,19.020
13:51:32:604,2.940,-0.251,0.535,0.131,-0.063,4.551,19.264
13:51:32:689,3.025,-0.126,0.089,0.038,1.067,1.979,19.500
13:51:32:689,3.025,0.082,-0.145,-0.166,3.388,-2.897,19.769
13:51:32:69,3.027,0.114,0.004,-0.170,4.981,-5.127,20.126
13:51:32:737,3.074,0.123,-0.074,-0.107,7.576,-5.991,21.365
13:51:32:738,3.075,0.017,-0.181,-0.076,9.429,-4.659,23.443
13:51:32:762,3.098,-0.047,-0.210,-0.092,9.967,-3.290,24.839
13:51:32:816,3.153,-0.041,-0.236,-0.182,9.912,-1.883,26.392
13:51:32:817,3.154,-0.089,-0.269,-0.173,9.775,-1.659,26.919
13:51:32:841,3.178,-0.015,-0.244,-0.167,9.891,-3.538,27.086
13:51:32:924,3.261,0.030,-0.186,-0.105,10.090,-5.667,26.799
13:51:32:925,3.262,0.030,-0.210,-0.072,10.426,-9.158,26.192
13:51:32:926,3.263,0.103,-0.191,-0.102,10.685,-12.097,25.764
13:51:33:001,3.337,0.102,-0.117,-0.097,10.768,-13.250,25.681
13:51:33:001,3.338,0.131,-0.046,-0.106,10.801,-13.793,25.943
13:51:33:077,3.413,0.158,-0.058,-0.102,10.781,-13.498,26.349
13:51:33:108,3.444,0.223,0.010,-0.120,10.534,-12.072,27.148
13:51:33:109,3.445,0.288,0.061,-0.103,9.864,-9.768,27.905
13:51:33:138,3.475,0.323,0.108,-0.124,9.179,-8.004,28.191
13:51:33:139,3.475,0.204,0.443,-0.113,7.834,-5.091,27.853
13:51:33:139,3.475,0.126,0.074,-0.072,7.003,-3.712,27.254
13:51:33:14,3.476,0.138,-0.074,-0.005,6.057,-1.897,26.369
13:51:33:182,3.518,0.181,0.070,0.041,5.504,-1.039,26.099
13:51:33:21,3.547,0.267,0.206,0.037,4.769,0.282,26.273
13:51:33:211,3.548,0.236,0.156,-0.003,4.221,1.149,26.864
13:51:33:234,3.570,0.234,0.053,0.000,3.988,1.977,27.284
13:51:33:26,3.596,0.170,-0.107,0.056,3.701,3.204,27.837
13:51:33:288,3.624,0.131,-0.146,0.090,3.525,4.236,28.068
13:51:33:343,3.679,0.086,-0.161,0.058,3.314,5.269,28.186
13:51:33:343,3.680,0.057,-0.173,0.068,3.179,6.448,28.017
13:51:33:426,3.762,0.029,-0.229,0.072,3.129,7.026,27.810
13:51:33:426,3.763,-0.011,-0.294,0.078,3.047,8.222,27.443
13:51:33:427,3.763,-0.056,-0.276,0.072,2.946,8.942,27.200
13:51:33:503,3.840,-0.054,-0.198,0.082,2.911,9.924,26.756
13:51:33:503,3.840,-0.028,-0.143,0.042,3.058,10.165,26.285
13:51:33:504,3.840,-0.016,-0.060,0.013,3.239,10.267,26.063
13:51:33:524,3.860,0.061,0.278,-0.073,3.601,10.290,25.880
13:51:33:578,3.914,0.085,0.562,-0.124,3.928,10.301,25.749
13:51:33:578,3.915,0.083,0.402,-0.164,4.667,10.202,25.749
13:51:33:601,3.938,0.082,0.227,-0.227,5.312,10.304,26.056
13:51:33:657,3.993,0.118,0.179,-0.225,6.304,10.936,26.968
13:51:33:657,3.994,0.147,0.095,-0.219,7.104,12.040,28.406
13:51:33:709,4.046,0.131,-0.081,-0.164,7.402,12.817,29.500
13:51:33:71,4.046,0.110,-0.263,-0.126,7.549,14.129,31.008
13:51:33:733,4.070,0.126,-0.270,-0.097,7.457,14.583,31.708
13:51:33:759,4.096,0.200,-0.203,-0.106,7.241,15.074,32.128
13:51:33:815,4.152,0.218,-0.091,-0.107,6.925,15.008,31.898
13:51:33:816,4.152,0.183,-0.079,-0.106,6.677,14.969,31.446
13:51:33:868,4.204,0.198,-0.040,-0.099,6.183,15.438,30.477
13:51:33:868,4.204,0.133,-0.009,-0.061,5.708,16.013,29.708
13:51:33:89,4.226,0.063,-0.075,0.021,4.756,17.411,28.407
13:51:33:916,4.252,-0.067,-0.182,0.158,4.042,18.204,27.422
13:51:33:944,4.280,-0.078,-0.118,0.225,3.018,18.981,25.720
13:51:33:969,4.306,-0.083,0.024,0.184,2.122,18.289,23.836
13:51:33:995,4.332,-0.079,0.113,0.197,1.502,17.622,22.529
13:51:34:021,4.358,-0.082,0.154,0.172,0.653,16.985,20.626
13:51:34:109,4.445,-0.131,0.087,0.201,0.263,17.259,19.509
13:51:34:109,4.446,-0.224,0.045,0.200,-0.078,18.597,18.061
13:51:34:109,4.446,-0.303,0.137,0.266,-0.211,19.865,17.313
13:51:34:126,4.462,-0.362,-0.061,0.427,-0.395,21.516,16.369
13:51:34:152,4.489,-0.352,-0.299,0.417,-0.350,21.544,15.765
13:51:34:179,4.515,-0.321,0.118,0.379,-0.378,20.376,15.563
13:51:34:265,4.602,-0.254,0.154,0.263,-0.310,17.437,15.545
13:51:34:266,4.602,-0.183,0.144,0.205,0.099,15.493,15.817
13:51:34:266,4.602,-0.126,0.124,0.209,1.326,13.994,16.857
13:51:34:286,4.622,-0.130,-0.091,0.196,2.864,14.414,18.760
13:51:34:341,4.678,-0.137,-0.217,0.153,3.943,15.240,20.536
13:51:34:342,4.678,-0.114,-0.197,0.064,5.486,16.432,23.512
13:51:34:362,4.699,-0.104,0.018,-0.061,6.509,16.833,25.357
13:51:34:418,4.754,0.011,0.042,-0.117,8.510,16.656,27.713
13:51:34:419,4.755,0.104,-0.019,-0.234,10.857,16.240,29.470
13:51:34:473,4.810,0.162,-0.030,-0.310,12.293,16.192,30.297
13:51:34:473,4.810,0.244,-0.100,-0.354,13.929,16.681,31.107
13:51:34:524,4.860,0.309,-0.151,-0.420,14.578,17.451,31.359
13:51:34:524,4.860,0.336,-0.203,-0.467,14.575,19.530,31.534
13:51:34:546,4.883,0.489,0.103,-0.678,13.988,21.306,31.332
13:51:34:572,4.909,0.477,0.068,-0.749,12.408,24.002,30.014
13:51:34:599,4.936,0.347,0.170,-0.677,10.298,26.596,27.578
13:51:34:627,4.963,0.269,0.144,-0.483,8.693,28.277,25.702
13:51:34:652,4.988,0.294,0.093,-0.406,6.299,30.265,23.030
13:51:34:678,5.014,0.214,0.168,-0.080,4.751,31.441,21.209
13:51:34:704,5.040,0.192,0.139,0.012,2.648,33.139,17.958
13:51:34:73,5.066,0.058,0.033,0.034,0.651,36.454,14.400
13:51:34:756,5.093,-0.058,-0.080,0.367,-0.630,40.480,12.047
13:51:34:782,5.119,0.055,-0.213,0.603,-2.397,47.237,8.655
13:51:34:809,5.146,0.033,-0.310,0.647,-3.405,51.038,5.925
13:51:34:835,5.172,-0.181,-0.137,0.612,-4.794,55.074,1.804
13:51:34:863,5.199,-0.313,-0.089,0.598,-5.017,58.408,-1.558
13:51:34:888,5.225,-0.392,-0.072,0.559,-4.358,60.736,-3.238
13:51:34:914,5.250,-0.353,-0.008,0.754,-2.849,64.351,-5.033
13:51:34:94,5.277,-0.331,-0.266,0.914,-1.575,66.543,-5.802
13:51:35:025,5.362,-0.288,-0.320,0.979,-0.358,68.845,-6.659
13:51:35:025,5.362,-0.125,-0.313,1.052,-0.773,69.145,-6.728
13:51:35:026,5.363,-0.015,0.077,1.044,-2.026,68.269,-5.834
13:51:35:075,5.412,-0.134,0.852,1.011,-5.141,64.906,-3.577
13:51:35:075,5.412,0.109,0.575,0.412,-6.429,61.331,-0.658
13:51:35:098,5.434,0.389,0.618,0.050,-5.852,55.659,6.474
13:51:35:184,5.521,0.517,0.578,-0.092,-3.419,50.935,15.329
13:51:35:184,5.521,0.462,0.391,-0.054,-0.839,48.375,21.329
13:51:35:184,5.521,0.391,0.217,-0.257,4.024,45.666,29.209
13:51:35:204,5.541,0.726,-0.313,-0.496,7.541,44.821,33.871
13:51:35:23,5.566,0.524,-0.173,-0.278,11.631,46.449,40.418
13:51:35:256,5.593,0.337,-0.193,-0.384,15.269,49.088,45.587
13:51:35:281,5.618,0.284,-0.352,-0.439,18.172,50.789,48.542
13:51:35:308,5.645,0.314,-0.608,-0.418,23.492,53.188,51.936
13:51:35:334,5.670,0.264,-0.735,-0.390,27.089,54.595,53.492
13:51:35:36,5.697,0.182,-0.778,-0.419,31.269,56.786,54.882
13:51:35:415,5.752,0.190,-0.542,-0.575,32.850,58.653,55.456
13:51:35:416,5.753,0.195,-0.408,-0.723,32.561,62.316,55.363
13:51:35:441,5.778,-0.027,-0.327,-1.082,28.706,66.737,53.561
13:51:35:497,5.834,-0.376,-0.099,-1.316,24.306,70.509,51.491
13:51:35:498,5.834,-0.671,0.121,-1.210,15.372,78.886,48.097
13:51:35:499,5.835,-0.640,0.365,-0.735,9.008,86.100,45.354
13:51:35:574,5.911,-0.324,0.619,-0.268,1.571,97.168,40.001
13:51:35:575,5.911,0.205,0.626,0.033,-1.779,105.527,33.468
13:51:35:6,5.936,-0.059,0.507,-0.044,-2.302,108.068,29.077
13:51:35:6,5.937,-0.069,0.201,0.372,-2.344,107.450,23.350
13:51:35:65,5.986,0.193,-0.041,0.263,-2.385,104.629,19.864
13:51:35:68,6.016,0.104,-0.086,0.102,-2.782,101.304,15.372
13:51:35:68,6.016,0.232,-0.053,0.139,-3.325,101.169,12.302
13:51:35:73,6.067,0.311,0.057,0.387,-3.624,104.290,7.595
13:51:35:731,6.067,0.388,0.217,0.635,-3.171,108.494,2.460
13:51:35:756,6.093,0.438,0.099,0.684,-2.511,110.794,-0.959
13:51:35:781,6.118,0.530,0.173,0.813,-1.253,113.133,-6.239
13:51:35:807,6.143,0.609,0.011,0.871,-0.523,114.134,-9.649
13:51:35:859,6.195,0.795,-0.515,0.839,2.662,119.019,-15.613
13:51:35:887,6.223,0.925,-0.528,0.809,3.786,120.417,-15.894
13:51:35:912,6.249,0.833,-0.341,1.056,4.731,120.768,-14.840
13:51:35:967,6.303,0.586,0.036,1.047,4.680,119.271,-13.347
13:51:35:967,6.304,0.402,0.291,0.990,4.744,115.479,-9.643
13:51:35:99,6.327,0.017,0.477,0.889,5.160,112.439,-5.971
13:51:36:016,6.353,-0.367,0.461,0.491,6.173,105.744,1.300
13:51:36:042,6.379,-0.312,0.141,0.086,8.054,95.954,8.784
13:51:36:098,6.435,-0.360,0.050,0.034,9.885,88.626,12.768
13:51:36:099,6.436,-0.309,-0.057,-0.458,13.096,77.867,17.646
13:51:36:121,6.458,-0.256,0.037,-0.503,15.500,71.980,20.625
13:51:36:148,6.484,-0.215,-0.087,-0.490,19.542,66.401,25.385
13:51:36:174,6.510,-0.120,-0.267,-0.573,23.456,65.759,29.503
13:51:36:2,6.537,-0.127,-0.269,-0.579,26.093,66.484,31.738
13:51:36:226,6.562,-0.158,-0.303,-0.732,30.127,68.251,34.359
13:51:36:253,6.589,-0.244,-0.367,-0.783,32.147,70.125,35.772
13:51:36:279,6.615,-0.254,-0.437,-0.825,33.822,73.782,37.536
13:51:36:306,6.642,-0.306,-0.380,-0.868,33.245,78.583,38.631
13:51:36:39,6.726,-0.441,-0.197,-0.834,31.377,82.245,38.661
13:51:36:39,6.727,-0.860,0.137,-0.732,26.720,88.226,37.203
13:51:36:391,6.727,-0.286,0.340,-0.150,23.452,92.380,35.382
13:51:36:41,6.747,-0.148,0.353,-0.250,20.121,94.791,31.514
13:51:36:437,6.773,-0.090,0.258,-0.181,17.995,94.679,29.089
13:51:36:463,6.799,-0.040,0.189,-0.029,14.562,93.628,25.924
13:51:36:491,6.828,0.118,-0.054,0.003,11.474,92.189,22.903
13:51:36:517,6.853,0.216,-0.212,-0.230,9.360,91.834,20.626
13:51:36:542,6.879,0.292,-0.199,-0.085,6.133,93.434,16.636
13:51:36:568,6.904,0.324,-0.023,0.154,4.196,96.184,13.637
13:51:36:595,6.932,0.368,0.070,0.303,2.190,101.652,8.439
13:51:36:62,6.957,0.591,0.161,0.628,0.863,107.211,2.783
13:51:36:646,6.983,0.585,0.147,0.658,-0.071,109.936,-1.005
13:51:36:673,7.009,0.555,0.060,0.681,-1.397,112.233,-5.961
13:51:36:699,7.035,0.622,-0.025,0.785,-2.244,112.836,-8.711
13:51:36:725,7.061,0.625,0.029,0.815,-3.121,111.831,-11.751
13:51:36:751,7.088,0.701,-0.102,0.750,-3.247,111.154,-12.944
13:51:36:777,7.114,0.798,-0.082,0.903,-2.702,109.100,-13.562
13:51:36:805,7.142,0.728,0.406,1.227,-1.544,106.777,-12.702
13:51:36:831,7.167,0.379,0.706,1.050,-0.094,104.566,-11.010
13:51:36:856,7.193,0.250,0.187,0.527,3.306,101.734,-6.066
13:51:36:882,7.219,0.081,-0.051,0.247,5.610,100.432,-1.416
13:51:36:909,7.245,-0.013,-0.070,0.188,8.805,98.522,6.868
13:51:36:935,7.271,-0.128,-0.075,-0.039,11.953,94.021,14.540
13:51:36:961,7.298,-0.306,0.126,-0.221,14.429,91.348,19.848
13:51:36:987,7.324,-0.400,0.136,-0.214,18.624,89.102,27.608
13:51:37:014,7.351,-0.412,0.098,-0.393,21.856,87.540,32.289
13:51:37:04,7.377,-0.274,-0.400,-0.624,27.606,85.198,38.142
13:51:37:067,7.403,-0.239,-0.482,-0.648,33.642,83.532,42.200
13:51:37:094,7.430,-0.384,-0.523,-0.671,37.193,83.405,44.051
13:51:37:119,7.455,-0.330,-0.813,-0.727,41.167,84.730,45.946
13:51:37:145,7.481,-0.250,-0.625,-0.751,43.052,86.794,47.335
13:51:37:172,7.508,-0.333,-0.558,-0.901,43.158,90.736,48.224
13:51:37:197,7.534,-0.392,-0.204,-0.758,41.407,93.111,47.453
13:51:37:224,7.561,-0.595,0.201,-0.747,36.355,96.118,44.488
13:51:37:25,7.587,-0.603,0.339,-0.713,28.441,98.493,39.083
13:51:37:276,7.613,-0.024,0.526,-0.318,22.861,100.598,35.194
13:51:37:304,7.641,0.102,0.443,-0.204,15.286,102.927,29.072
13:51:37:33,7.666,-0.076,0.329,-0.263,10.733,102.363,25.049
13:51:37:356,7.692,0.026,0.279,-0.301,4.661,99.799,19.396
13:51:37:381,7.718,0.077,0.152,-0.240,0.722,98.730,14.816
13:51:37:41,7.746,0.098,0.148,0.059,-0.490,100.356,12.063
13:51:37:463,7.800,0.085,-0.114,0.263,-0.079,105.104,7.881
13:51:37:464,7.800,0.143,-0.099,0.370,1.058,108.201,4.455
13:51:37:488,7.825,0.401,0.123,0.628,3.598,113.433,-0.868
13:51:37:513,7.850,0.664,0.048,0.629,6.448,117.480,-5.959
13:51:37:539,7.876,0.696,-0.221,0.669,7.650,118.852,-9.134
13:51:37:565,7.902,0.772,-0.543,0.953,8.801,119.945,-13.612
13:51:37:592,7.928,0.760,-0.726,1.413,9.298,120.595,-16.126
13:51:37:618,7.954,0.868,-0.729,1.271,9.853,120.948,-18.657
13:51:37:644,7.980,0.966,-0.418,1.136,9.449,119.606,-18.801
13:51:37:67,8.006,0.963,-0.162,1.254,8.571,118.262,-17.265
13:51:37:696,8.033,0.610,0.611,1.476,6.836,115.759,-12.690
13:51:37:723,8.059,0.387,1.166,1.416,5.815,113.517,-8.344
13:51:37:777,8.113,-0.133,1.346,0.864,5.662,109.083,0.503
13:51:37:803,8.140,-0.313,1.454,0.064,6.777,105.353,7.927
13:51:37:832,8.169,-0.472,1.230,-0.589,10.429,99.100,20.652
13:51:37:832,8.169,-0.606,0.166,-1.329,18.146,92.648,33.678
13:51:37:857,8.194,-0.306,-0.589,-1.341,25.445,90.396,40.922
13:51:37:858,8.194,-0.113,-0.942,-0.729,35.765,89.439,47.873
13:51:37:908,8.245,-0.169,-0.996,-1.094,40.434,89.783,50.927
13:51:37:994,8.331,-0.202,-0.978,-1.106,43.559,90.484,52.460
13:51:37:994,8.331,-0.339,-1.025,-1.037,43.987,92.775,53.260
13:51:37:997,8.333,-0.335,-1.146,-0.951,43.446,95.058,53.767
13:51:37:997,8.333,-0.382,-0.860,-0.774,40.629,98.887,53.573
13:51:38:1,8.437,-0.648,-0.462,-0.775,37.155,101.204,52.040
13:51:38:101,8.437,-0.706,-0.232,-0.614,29.908,104.667,47.507
13:51:38:101,8.437,-0.682,-0.008,-0.443,24.733,107.007,43.455
13:51:38:101,8.438,-1.002,0.878,-0.350,16.875,110.350,36.027
13:51:38:176,8.512,-0.754,1.331,-0.004,10.383,114.417,26.833
13:51:38:176,8.513,-0.201,1.136,0.332,7.473,117.199,20.807
13:51:38:176,8.513,-0.477,0.836,0.445,4.580,121.340,12.213
13:51:38:224,8.561,-0.563,0.861,0.438,3.431,125.096,7.118
13:51:38:225,8.562,-0.013,0.355,0.890,4.107,134.850,2.183
13:51:38:306,8.642,0.507,-0.065,0.736,6.143,146.246,-0.346
13:51:38:307,8.643,0.572,-0.207,0.594,7.147,152.583,-1.797
13:51:38:308,8.644,0.803,-0.243,0.415,8.170,160.363,-4.514
13:51:38:356,8.692,0.937,-0.215,0.469,8.770,164.842,-6.418
13:51:38:356,8.693,1.132,-0.400,0.450,9.814,170.474,-9.242
13:51:38:38,8.716,1.119,-0.422,0.267,10.838,173.971,-11.739
13:51:38:405,8.742,1.114,-0.377,0.135,11.379,175.860,-12.913
13:51:38:431,8.768,1.157,-0.411,0.023,11.756,178.587,-13.784
13:51:38:457,8.794,1.258,-0.345,0.000,11.652,-179.528,-13.951
13:51:38:484,8.820,1.095,0.021,-0.442,11.567,-177.195,-14.612
13:51:38:511,8.848,0.820,0.010,-0.767,10.662,-177.340,-14.737
13:51:38:567,8.904,0.590,-0.118,-0.526,6.564,179.177,-13.407
13:51:38:568,8.904,0.373,0.380,-0.213,3.333,173.372,-12.818
13:51:38:648,8.985,0.446,0.347,-0.223,3.246,170.247,-12.461
13:51:38:648,8.985,0.504,0.300,-0.216,5.056,167.783,-9.731
13:51:38:648,8.985,0.328,0.347,-0.208,6.340,167.107,-6.723
13:51:38:726,9.062,0.224,0.185,-0.175,8.032,167.621,-0.797
13:51:38:727,9.063,0.216,0.003,-0.050,9.799,168.960,6.843
13:51:38:727,9.064,0.245,0.136,0.058,11.041,169.352,12.329
13:51:38:746,9.083,-0.147,0.193,0.032,13.709,168.496,20.191
13:51:38:802,9.139,-0.760,-0.114,0.053,16.188,167.498,24.860
13:51:38:803,9.139,-0.755,-0.312,0.077,20.719,167.041,31.671
13:51:38:825,9.162,-0.633,-0.669,0.144,23.956,168.050,35.079
13:51:38:91,9.246,-0.668,-0.743,0.179,28.178,171.361,38.325
13:51:38:91,9.247,-0.544,-0.726,0.212,30.971,175.118,39.899
13:51:38:911,9.248,-0.640,-0.424,0.267,31.412,177.829,39.878
13:51:38:93,9.267,-0.781,-0.255,0.502,30.010,-178.415,38.103
13:51:39:015,9.351,-0.638,-0.087,0.550,27.896,-176.309,36.165
13:51:39:015,9.352,-0.568,0.277,0.604,24.017,-173.878,32.179
13:51:39:016,9.353,-0.393,0.446,0.723,20.198,-172.009,26.618
13:51:39:096,9.432,-0.116,0.484,0.500,18.376,-170.581,22.973
13:51:39:096,9.432,0.150,0.588,0.267,16.203,-168.241,17.630
13:51:39:096,9.433,0.085,0.451,0.204,14.868,-166.654,14.431
13:51:39:143,9.479,0.193,0.350,0.060,12.833,-163.481,10.586
13:51:39:143,9.480,0.339,0.071,-0.180,11.699,-160.856,8.345
13:51:39:168,9.505,0.357,-0.079,-0.310,10.327,-157.098,4.938
13:51:39:193,9.530,0.438,-0.124,-0.399,9.825,-153.408,1.396
13:51:39:221,9.558,0.388,-0.104,-0.354,9.841,-151.114,-1.091
13:51:39:246,9.583,0.530,-0.299,-0.583,10.977,-147.247,-4.436
13:51:39:272,9.608,0.659,-0.283,-0.578,11.842,-145.584,-6.680
13:51:39:297,9.634,0.725,-0.281,-0.597,13.067,-144.165,-10.025
13:51:39:353,9.690,0.804,-0.246,-0.576,14.485,-143.298,-12.704
13:51:39:354,9.690,0.821,-0.082,-0.565,15.509,-142.522,-13.622
13:51:39:378,9.714,0.786,-0.083,-0.579,17.033,-140.695,-13.201
13:51:39:404,9.741,0.795,-0.166,-0.599,17.397,-139.535,-11.723
13:51:39:429,9.765,0.821,0.040,-0.639,16.878,-138.979,-8.705
13:51:39:455,9.792,0.882,0.259,-0.419,15.443,-140.909,-5.158
13:51:39:481,9.818,0.826,0.461,-0.229,14.411,-143.772,-2.401
13:51:39:508,9.844,0.542,0.606,0.012,13.647,-149.762,2.741
13:51:39:562,9.898,0.386,0.605,0.232,13.892,-154.162,6.858
13:51:39:62,9.957,0.003,0.346,0.487,15.558,-161.344,13.393
13:51:39:62,9.957,-0.254,0.001,0.502,18.930,-169.527,18.422
13:51:39:62,9.957,-0.489,-0.154,0.430,21.853,-175.737,20.978
13:51:39:639,9.976,-0.599,-0.326,0.153,26.904,177.208,24.474
13:51:39:666,10.003,-0.431,-0.325,0.234,30.350,176.028,27.771
13:51:39:721,10.057,-0.532,-0.382,0.313,34.687,177.102,32.280
13:51:39:722,10.058,-0.550,-0.428,0.420,38.124,179.463,36.232
13:51:39:744,10.080,-0.656,-0.541,0.480,40.095,-178.420,38.548
13:51:39:77,10.107,-0.786,-0.679,0.490,42.321,-174.657,41.260
13:51:39:796,10.133,-0.835,-0.727,0.610,43.079,-172.146,42.138
13:51:39:823,10.159,-0.733,-0.597,0.643,42.718,-168.952,41.248
13:51:39:849,10.186,-0.586,-0.195,0.705,40.272,-166.210,37.909
13:51:39:991,10.328,-0.488,0.192,0.919,37.254,-164.265,34.362
13:51:39:992,10.328,-0.214,0.486,1.176,30.926,-160.419,28.109
13:51:39:992,10.328,0.162,0.560,0.819,26.722,-156.939,24.219
13:51:39:992,10.329,0.331,0.583,0.411,21.749,-151.529,18.259
13:51:40:009,10.346,0.357,0.361,0.238,18.225,-148.332,12.202
13:51:40:01,10.346,0.487,0.253,0.103,16.433,-147.221,8.471
13:51:40:062,10.399,0.185,0.045,0.000,14.547,-146.052,3.016
13:51:40:063,10.399,0.098,-0.104,-0.099,13.675,-145.160,-0.127
13:51:40:087,10.424,0.120,-0.177,-0.227,12.892,-142.706,-3.977
13:51:40:113,10.450,0.317,0.048,-0.415,12.862,-138.363,-7.437
13:51:40:138,10.474,0.393,0.038,-0.545,13.314,-134.722,-9.553
13:51:40:165,10.501,0.432,-0.083,-0.618,14.318,-129.097,-12.000
13:51:40:191,10.528,0.445,-0.135,-0.684,15.093,-125.419,-13.092
13:51:40:218,10.554,0.398,-0.080,-0.797,16.141,-120.188,-13.851
13:51:40:243,10.580,0.363,-0.166,-0.955,16.697,-115.195,-13.281
13:51:40:298,10.634,0.257,-0.263,-1.054,16.766,-112.522,-12.414
13:51:40:299,10.635,0.072,-0.340,-1.029,16.251,-110.430,-11.048
13:51:40:353,10.690,0.121,-0.424,-0.940,15.649,-110.360,-10.025
13:51:40:354,10.690,0.668,0.423,-1.049,13.588,-112.336,-8.042
13:51:40:355,10.691,0.489,0.583,-0.506,12.111,-115.306,-6.275
13:51:40:403,10.740,0.338,0.598,-0.235,12.161,-120.079,-1.362
13:51:40:404,10.741,0.108,0.629,-0.087,13.985,-122.158,6.683
13:51:40:514,10.851,0.126,0.487,-0.045,15.570,-122.006,13.471
13:51:40:515,10.851,0.145,0.307,0.192,18.396,-121.944,24.316
13:51:40:516,10.852,0.110,0.187,0.381,21.170,-123.139,30.961
13:51:40:531,10.868,-0.376,-0.399,0.737,36.093,-132.500,43.347
13:51:40:557,10.894,-0.490,-0.666,0.641,41.159,-134.918,45.230
13:51:40:584,10.921,-0.458,-0.625,0.588,47.119,-136.163,47.433
13:51:40:61,10.947,-0.389,-0.606,0.637,49.702,-135.163,49.153
13:51:40:665,11.002,-0.397,-0.929,0.915,51.606,-131.915,51.680
13:51:40:666,11.003,-0.275,-0.867,0.934,51.448,-128.427,53.396
13:51:40:689,11.026,-0.102,-0.673,0.926,48.625,-121.583,55.566
13:51:40:745,11.082,0.054,-0.221,0.970,42.155,-114.494,55.358
13:51:40:745,11.082,0.276,0.253,1.187,35.990,-110.478,53.067
13:51:40:768,11.104,0.236,0.478,0.936,26.114,-106.105,46.739
13:51:40:853,11.190,0.022,0.608,0.459,20.698,-104.634,41.633
13:51:40:853,11.190,-0.038,0.570,0.064,15.082,-104.725,33.898
13:51:40:854,11.190,-0.083,0.353,0.247,11.048,-106.635,27.117
13:51:40:904,11.240,-0.041,0.278,0.090,8.907,-106.262,23.487
13:51:40:904,11.241,-0.152,-0.011,-0.042,7.059,-102.104,19.750
13:51:40:925,11.262,-0.074,-0.027,-0.252,6.882,-97.904,18.126
13:51:40:98,11.317,-0.001,0.024,-0.265,7.466,-91.287,15.952
13:51:40:981,11.318,0.140,0.124,-0.334,8.867,-84.627,13.956
13:51:41:005,11.342,0.123,0.148,-0.491,10.331,-80.688,12.527
13:51:41:03,11.367,0.127,0.084,-0.535,12.786,-76.005,10.541
13:51:41:056,11.393,0.131,-0.057,-0.579,14.368,-73.341,9.138
13:51:41:083,11.419,0.156,-0.120,-0.687,16.301,-69.670,7.165
13:51:41:109,11.445,0.106,-0.145,-0.755,17.317,-67.360,6.128
13:51:41:164,11.500,0.009,-0.164,-0.804,18.204,-64.348,5.123
13:51:41:165,11.501,-0.310,-0.211,-0.672,18.325,-63.081,5.197
13:51:41:217,11.554,-0.270,0.024,-0.898,18.110,-62.239,5.708
13:51:41:218,11.554,0.132,0.990,-0.993,17.462,-63.018,6.547
13:51:41:24,11.577,-0.208,0.286,-0.317,17.620,-64.960,7.536
13:51:41:269,11.605,-0.457,-0.007,-0.210,18.049,-67.581,11.020
13:51:41:407,11.743,-0.459,-0.199,-0.396,18.783,-69.579,15.813
13:51:41:408,11.744,0.054,0.099,-0.250,19.407,-71.806,19.165
13:51:41:408,11.745,0.455,0.539,0.267,21.192,-75.947,24.850
13:51:41:409,11.746,0.458,0.545,0.334,22.955,-77.550,29.526
13:51:41:427,11.764,0.448,0.236,0.372,25.988,-78.303,38.404
13:51:41:427,11.764,0.499,-0.002,0.550,28.822,-79.164,44.436
13:51:41:453,11.789,0.476,-0.154,0.653,35.537,-81.003,52.530
13:51:41:477,11.813,0.456,-0.331,0.724,44.642,-82.858,59.379
13:51:41:503,11.839,0.295,-0.603,0.591,51.260,-84.060,62.949
13:51:41:529,11.866,0.143,-0.751,0.506,59.137,-85.737,66.499
13:51:41:555,11.892,-0.032,-1.163,0.500,61.606,-86.611,67.415
13:51:41:611,11.947,-0.042,-1.253,0.552,61.560,-87.098,67.329
13:51:41:612,11.948,0.206,-0.723,0.694,55.436,-86.777,64.681
13:51:41:635,11.972,0.292,-0.283,0.762,48.419,-86.323,61.409
13:51:41:66,11.997,0.263,0.260,0.878,35.808,-86.263,54.224
13:51:41:687,12.023,0.196,0.718,0.716,28.326,-87.180,48.344
13:51:41:713,12.049,0.004,0.717,0.502,21.667,-90.591,39.633
13:51:41:739,12.075,-0.065,0.232,0.544,18.098,-93.324,32.315
13:51:41:768,12.105,-0.206,-0.013,0.282,16.409,-91.775,29.458
13:51:41:791,12.128,-0.251,-0.140,0.033,14.060,-85.592,27.167
13:51:41:818,12.155,-0.264,-0.169,-0.249,12.763,-80.256,26.580
13:51:41:844,12.181,-0.188,0.060,-0.208,11.424,-73.461,25.504
13:51:41:87,12.207,-0.283,0.204,-0.231,10.788,-69.749,24.442
13:51:41:898,12.235,0.075,0.174,-0.152,9.270,-63.654,23.083
13:51:41:923,12.260,0.217,0.283,-0.457,7.477,-52.874,23.385
13:51:41:95,12.286,-0.063,0.282,-0.737,6.498,-43.915,24.866
13:51:41:975,12.311,-0.137,0.270,-0.631,4.789,-34.075,27.182
13:51:42:002,12.338,-0.287,0.139,-0.610,3.511,-30.046,28.401
13:51:42:027,12.364,-0.219,0.166,-0.479,2.127,-29.199,29.335
13:51:42:054,12.390,-0.126,0.422,-0.340,1.780,-31.681,30.200
13:51:42:109,12.446,0.074,0.453,-0.299,2.378,-35.196,30.775
13:51:42:11,12.446,0.260,0.105,-0.262,4.561,-42.096,31.983
13:51:42:133,12.469,0.254,-0.110,-0.068,6.666,-47.078,32.918
13:51:42:215,12.551,0.125,-0.188,0.140,9.862,-54.107,34.173
13:51:42:216,12.552,-0.010,-0.422,0.071,11.609,-58.325,35.154
13:51:42:24,12.577,-0.084,-0.464,-0.020,13.526,-63.516,37.082
13:51:42:241,12.578,0.061,-0.361,0.123,15.700,-68.333,39.386
13:51:42:264,12.600,0.150,-0.259,0.235,17.427,-71.380,40.779
13:51:42:29,12.627,0.291,-0.124,0.413,20.345,-75.755,42.170
13:51:42:317,12.653,0.335,-0.056,0.522,22.051,-78.443,42.438
13:51:42:343,12.679,0.303,-0.229,0.506,23.707,-81.602,41.933
13:51:42:369,12.706,0.266,-0.246,0.496,23.854,-83.008,40.956
13:51:42:395,12.732,0.300,-0.067,0.517,23.146,-82.715,40.367
13:51:42:45,12.787,0.220,-0.007,0.406,21.441,-80.937,39.617
13:51:42:451,12.788,0.209,0.033,0.270,20.243,-80.210,38.920
13:51:42:616,12.953,0.345,0.279,0.287,18.475,-77.786,36.950
13:51:42:617,12.953,0.315,0.437,0.225,17.285,-76.676,35.207
13:51:42:617,12.954,0.151,0.331,0.088,15.267,-73.716,32.526
13:51:42:617,12.954,-0.144,-0.020,-0.012,13.145,-72.425,30.544
13:51:42:638,12.975,-0.219,-0.120,-0.095,11.814,-71.726,29.791
13:51:42:639,12.975,-0.207,-0.159,-0.121,10.378,-72.824,29.333
13:51:42:64,12.976,-0.116,-0.232,-0.033,9.949,-73.909,29.172
13:51:42:687,13.023,-0.039,-0.316,0.008,9.949,-76.097,29.152
13:51:42:688,13.024,0.026,-0.201,0.038,10.117,-76.061,29.558
13:51:42:713,13.050,0.065,-0.127,-0.005,10.201,-74.602,29.917
13:51:42:714,13.050,0.044,-0.055,-0.044,10.468,-72.575,30.194
13:51:42:852,13.189,-0.038,-0.092,-0.087,10.769,-71.028,30.115
13:51:42:853,13.190,0.018,-0.010,-0.037,11.105,-69.849,29.606
13:51:42:853,13.190,0.100,0.347,-0.028,10.899,-68.181,28.765
13:51:42:853,13.190,0.054,0.268,-0.072,10.490,-67.636,28.141
13:51:42:873,13.209,-0.011,0.045,-0.040,9.687,-65.517,27.691
13:51:42:873,13.210,-0.041,0.035,-0.022,9.014,-64.476,27.785
13:51:42:953,13.290,0.047,0.577,-0.051,7.826,-62.181,28.355
13:51:42:954,13.290,0.063,0.641,-0.027,7.191,-61.790,28.983
13:51:42:954,13.291,0.096,0.139,0.003,7.186,-62.024,30.127
13:51:43:001,13.337,0.072,-0.091,0.100,8.039,-64.077,31.158
13:51:43:03,13.366,0.040,-0.201,0.085,8.782,-65.437,31.968
13:51:43:03,13.366,-0.046,-0.405,0.111,9.813,-68.374,32.913
13:51:43:052,13.388,-0.064,-0.497,0.040,10.182,-69.470,33.477
13:51:43:078,13.414,-0.059,-0.423,0.002,10.246,-70.399,34.663
13:51:43:104,13.441,0.071,-0.261,0.075,10.353,-70.875,35.673
13:51:43:162,13.498,0.158,-0.200,0.095,10.869,-71.940,36.133
13:51:43:162,13.499,0.187,-0.086,0.194,12.598,-73.075,36.707
13:51:43:183,13.519,0.242,-0.093,0.336,14.381,-73.913,37.178
13:51:43:209,13.545,0.426,-0.014,0.569,17.192,-73.468,38.176
13:51:43:235,13.571,0.501,0.004,0.491,18.452,-72.243,38.833
13:51:43:261,13.598,0.498,-0.070,0.465,18.524,-69.020,39.350
13:51:43:289,13.626,0.602,0.183,0.377,16.883,-65.658,38.317
13:51:43:315,13.651,0.592,0.278,0.301,15.206,-63.493,36.630
13:51:43:341,13.677,0.454,0.265,0.218,11.687,-60.001,33.331
13:51:43:368,13.704,-0.015,0.222,0.225,9.300,-58.115,30.955
13:51:43:393,13.730,-0.153,0.085,0.134,6.200,-58.062,27.795
13:51:43:419,13.755,-0.093,-0.018,0.084,3.952,-60.207,25.781
13:51:43:445,13.782,-0.165,-0.161,0.155,2.993,-60.559,25.170
13:51:43:472,13.808,-0.254,-0.311,0.246,2.074,-58.704,25.033
13:51:43:527,13.863,-0.296,-0.251,-0.015,1.600,-55.717,25.142
13:51:43:528,13.864,-0.315,-0.207,-0.049,1.125,-50.451,25.379
13:51:43:551,13.888,-0.312,-0.121,-0.056,1.099,-46.275,25.142
13:51:43:577,13.914,-0.319,-0.094,-0.020,1.288,-44.709,24.599
13:51:43:603,13.939,-0.275,-0.124,0.014,1.630,-43.746,23.139
13:51:43:659,13.996,-0.266,-0.071,-0.017,1.716,-43.573,21.845
13:51:43:66,13.996,-0.239,0.265,-0.134,1.432,-43.200,19.684
13:51:43:681,14.018,-0.187,0.392,-0.143,0.953,-42.939,18.336
13:51:43:709,14.046,-0.327,0.170,-0.075,0.391,-41.577,17.355
13:51:43:735,14.072,-0.511,0.582,0.068,0.051,-40.262,17.747
13:51:43:761,14.097,-0.342,0.722,0.084,-0.120,-39.491,18.840
13:51:43:786,14.123,-0.040,0.337,0.056,0.278,-37.988,22.064
13:51:43:813,14.149,-0.087,0.499,0.266,0.700,-36.295,25.420
13:51:43:839,14.175,-0.012,0.434,0.401,0.936,-34.325,31.870
13:51:43:867,14.203,0.085,-0.054,0.354,1.704,-34.932,38.942
13:51:43:892,14.229,0.118,-0.243,0.338,3.335,-36.329,43.350
13:51:43:918,14.254,0.127,-0.500,0.257,7.109,-38.180,48.892
13:51:43:944,14.281,0.384,-0.530,0.359,9.624,-38.912,52.263
13:51:43:97,14.307,0.326,-0.625,0.371,12.993,-38.981,56.512
13:51:43:996,14.333,0.314,-0.743,0.257,15.042,-38.607,58.570
13:51:44:024,14.361,0.290,-0.719,0.246,17.835,-38.068,60.297
13:51:44:05,14.386,0.640,-0.612,0.440,19.802,-37.713,60.731
13:51:44:076,14.413,0.905,-0.533,0.523,19.967,-37.211,60.021
13:51:44:102,14.438,1.014,-0.344,0.332,17.237,-35.102,57.492
13:51:44:128,14.464,1.004,-0.279,0.334,13.863,-32.279,55.265
13:51:44:156,14.492,1.753,0.554,0.171,7.557,-26.072,50.758
13:51:44:181,14.518,1.148,0.624,-0.009,0.730,-17.577,44.365
13:51:44:207,14.544,0.472,0.419,0.147,-2.984,-12.200,39.480
13:51:44:233,14.570,0.203,0.302,0.456,-5.968,-7.908,31.372
13:51:44:259,14.595,0.237,0.429,0.397,-7.065,-8.344,26.485
13:51:44:285,14.622,0.654,0.316,0.184,-8.951,-11.135,19.200
13:51:44:313,14.649,0.212,0.081,0.071,-9.734,-9.299,11.732
13:51:44:338,14.675,-0.172,0.130,0.012,-9.156,-5.048,6.641
13:51:44:364,14.700,-0.629,0.208,0.027,-6.633,2.029,-0.708
13:51:44:39,14.727,-0.894,0.173,0.208,-4.248,5.824,-5.423
13:51:44:417,14.753,-1.033,0.209,0.242,-0.654,9.942,-11.955
13:51:44:445,14.782,-1.537,-0.072,0.266,3.468,13.609,-17.462
13:51:44:47,14.807,-1.997,-0.468,0.280,6.401,15.628,-20.440
13:51:44:496,14.832,-1.934,-0.958,0.742,11.475,18.193,-22.732
13:51:44:521,14.858,-2.076,-1.087,0.905,13.061,18.293,-22.530
13:51:44:548,14.884,-2.416,-0.821,0.934,13.935,16.102,-21.022
13:51:44:574,14.910,-1.870,0.033,0.786,15.102,13.695,-19.353
13:51:44:6,14.936,-1.723,0.684,0.654,17.558,9.944,-12.954
13:51:44:655,14.992,-0.881,2.187,0.133,17.534,7.762,-1.667
13:51:44:656,14.993,0.297,2.585,-0.241,16.955,7.154,7.822
13:51:44:679,15.016,1.327,2.086,-0.351,15.661,7.195,23.966
13:51:44:706,15.043,1.752,1.482,-0.526,16.432,8.599,39.707
13:51:44:732,15.068,1.760,0.279,-0.189,20.631,10.415,49.862
13:51:44:758,15.094,1.291,-0.848,0.131,33.745,11.714,64.986
13:51:44:784,15.121,1.224,-0.721,0.166,45.852,11.872,72.976
13:51:44:81,15.147,1.533,-1.095,-0.065,59.465,14.666,79.587
13:51:44:839,15.175,1.499,-1.293,-0.359,65.118,16.342,82.658
13:51:44:865,15.202,0.598,-1.610,0.205,87.469,19.044,89.319
13:51:44:889,15.226,0.457,-1.921,0.087,102.588,20.993,93.633
13:51:44:916,15.252,0.248,-1.741,0.121,108.461,22.330,95.421
13:51:44:942,15.278,0.711,-1.881,-0.018,105.079,22.658,94.533
13:51:44:97,15.307,0.841,-1.406,-0.192,95.973,22.079,91.810
13:51:44:971,15.308,1.070,-1.056,-0.381,74.481,19.278,85.347
13:51:45:082,15.418,1.803,-0.649,-0.629,43.363,16.650,74.083
13:51:45:082,15.419,1.792,0.119,-0.515,30.392,15.585,67.451
13:51:45:083,15.420,1.919,1.284,-0.959,15.279,14.098,55.725
13:51:45:084,15.420,1.356,0.994,-0.466,8.610,13.167,47.491
13:51:45:131,15.467,0.756,1.541,-0.406,2.960,13.195,35.845
13:51:45:131,15.468,0.100,1.417,0.396,0.474,13.565,28.009
13:51:45:181,15.518,-0.805,1.152,0.983,-1.395,13.357,16.602
13:51:45:181,15.518,-0.585,1.285,0.534,-4.312,9.545,5.219
13:51:45:206,15.543,-0.939,0.747,0.713,-6.086,8.730,-1.750
13:51:45:232,15.568,-1.414,0.244,0.556,-5.107,11.091,-10.844
13:51:45:256,15.593,-1.400,-0.028,0.505,-2.651,13.996,-15.565
13:51:45:283,15.619,-1.454,-0.473,0.457,2.902,19.824,-20.109
13:51:45:309,15.645,-1.615,-0.738,0.497,8.061,26.542,-21.858
13:51:45:335,15.672,-1.626,-1.090,0.581,10.206,30.188,-22.099
13:51:45:365,15.701,-1.755,-1.019,0.379,9.461,31.903,-21.650
13:51:45:387,15.724,-0.955,-0.495,0.547,6.398,30.392,-20.305
13:51:45:416,15.752,-0.840,-0.137,0.716,2.160,29.128,-15.689
13:51:45:441,15.778,-0.180,1.168,1.047,-0.514,33.267,-8.086
13:51:45:469,15.805,1.049,1.374,0.738,-4.227,37.274,-0.794
13:51:45:493,15.829,1.277,0.882,0.714,-11.238,40.586,10.447
13:51:45:519,15.856,1.226,-0.010,0.064,-14.320,40.950,15.342
13:51:45:545,15.882,1.266,-0.284,-1.163,-13.545,27.454,20.914
13:51:45:571,15.908,2.552,-0.746,-1.243,-7.798,8.425,23.264
13:51:45:626,15.963,1.253,-0.766,-0.020,-0.116,-6.178,22.807
13:51:45:627,15.964,0.894,-0.688,0.118,3.536,-7.581,21.766
13:51:45:65,15.987,0.651,-0.609,-0.146,3.226,-2.570,21.608
13:51:45:676,16.013,0.292,-0.395,-0.584,-0.465,9.300,22.083
13:51:45:703,16.039,-0.134,-0.009,-0.558,-3.740,17.679,22.279
13:51:45:729,16.065,-0.154,0.242,-0.425,-8.230,27.707,21.744
13:51:45:755,16.092,-0.186,0.198,-0.224,-9.860,34.196,20.784
13:51:45:781,16.118,-0.077,0.096,-0.142,-9.688,36.633,20.045
13:51:45:837,16.173,0.099,0.078,-0.128,-8.629,38.563,18.855
13:51:45:838,16.174,0.215,0.367,0.018,-7.944,39.614,17.771
13:51:45:862,16.198,0.073,0.649,0.125,-7.699,42.096,15.571
13:51:45:888,16.224,-0.036,0.195,0.269,-7.927,44.248,14.225
13:51:45:939,16.275,0.372,-0.169,0.398,-10.697,49.645,12.302
13:51:46:025,16.361,0.526,-0.043,0.418,-12.970,50.570,12.890
13:51:46:025,16.361,0.506,-0.065,0.233,-16.731,51.280,14.771
13:51:46:025,16.362,0.307,-0.331,0.225,-18.648,52.923,15.808
13:51:46:045,16.382,0.330,-0.334,0.383,-20.578,57.922,16.604
13:51:46:07,16.407,0.446,-0.321,0.504,-21.145,61.859,17.165
13:51:46:097,16.433,0.540,-0.312,0.219,-20.705,62.395,17.600
13:51:46:124,16.460,0.349,-0.239,0.236,-19.585,62.594,17.673
13:51:46:18,16.516,0.225,-0.167,0.318,-18.760,63.204,17.081
13:51:46:18,16.517,0.193,-0.074,0.231,-17.568,64.327,15.625
13:51:46:202,16.538,0.198,0.109,0.385,-16.750,65.277,14.346
13:51:46:257,16.593,0.249,0.083,0.472,-15.501,66.876,12.175
13:51:46:257,16.594,0.364,0.096,0.502,-14.982,68.462,10.170
13:51:46:309,16.645,0.442,0.020,0.671,-14.988,69.514,9.051
13:51:46:31,16.646,0.482,0.189,0.822,-15.299,70.944,7.822
13:51:46:332,16.669,0.411,0.400,0.660,-15.401,70.191,7.843
13:51:46:359,16.696,0.316,0.141,0.234,-14.076,67.991,9.373
13:51:46:387,16.723,0.393,-0.165,0.010,-11.124,66.468,12.047
13:51:46:44,16.777,0.399,-0.212,-0.029,-8.979,67.301,14.073
13:51:46:441,16.778,0.326,-0.293,-0.047,-6.957,71.301,17.304
13:51:46:466,16.802,0.177,-0.301,-0.008,-6.515,74.921,19.360
13:51:46:491,16.827,0.085,-0.226,0.035,-6.486,79.994,21.981
13:51:46:518,16.855,0.086,-0.064,-0.092,-6.469,83.509,23.955
13:51:46:545,16.881,0.117,-0.070,-0.211,-6.133,85.425,25.105
13:51:46:598,16.934,0.065,-0.045,-0.333,-5.246,87.914,26.850
13:51:46:599,16.935,0.020,-0.096,-0.304,-4.436,89.411,27.882
13:51:46:65,16.987,0.044,-0.192,-0.391,-3.123,91.324,29.012
13:51:46:651,16.987,0.060,-0.147,-0.372,-2.363,92.241,29.105
13:51:46:675,17.012,0.062,-0.033,-0.280,-1.418,93.502,28.131
13:51:46:73,17.066,0.043,-0.001,-0.308,-0.772,94.896,26.012
13:51:46:73,17.067,-0.038,0.199,-0.212,-0.340,96.294,24.399
13:51:46:782,17.118,-0.046,0.319,-0.059,0.300,99.980,21.607
13:51:46:782,17.119,0.022,0.274,0.074,0.661,102.837,19.302
13:51:46:805,17.142,0.236,0.097,0.189,0.873,107.210,15.394
13:51:46:831,17.168,0.394,-0.157,0.310,0.603,111.258,11.726
13:51:46:857,17.194,0.367,-0.114,0.345,0.279,113.329,9.680
13:51:46:886,17.223,0.422,-0.162,0.385,0.273,115.412,7.578
13:51:46:914,17.251,0.366,-0.277,0.332,0.711,116.385,6.851
13:51:46:936,17.273,0.362,-0.292,0.367,1.777,118.376,6.504
13:51:46:963,17.299,0.327,-0.196,0.403,2.876,121.008,6.818
13:51:46:991,17.327,0.339,-0.150,0.407,3.422,122.487,7.175
13:51:47:017,17.353,0.313,-0.128,0.403,3.889,123.586,7.646
13:51:47:042,17.379,0.285,-0.144,0.351,4.006,123.609,7.879
13:51:47:068,17.405,0.234,-0.083,0.338,3.920,123.546,8.240
13:51:47:094,17.431,0.227,0.144,0.400,3.486,124.376,8.766
13:51:47:12,17.457,0.292,0.126,0.425,3.201,124.991,9.148
13:51:47:149,17.485,0.439,0.037,0.454,2.577,125.093,9.663
13:51:47:174,17.510,0.591,-0.066,0.513,1.987,124.182,9.962
13:51:47:201,17.537,0.442,0.190,0.631,0.859,121.021,10.390
13:51:47:258,17.595,0.239,0.557,0.551,0.129,117.958,10.916
13:51:47:259,17.595,0.119,0.281,0.403,0.053,112.811,12.674
13:51:47:259,17.595,0.133,0.006,0.239,0.492,108.427,15.654
13:51:47:279,17.615,0.144,-0.080,0.145,0.576,106.056,18.145
13:51:47:304,17.640,0.066,-0.226,0.096,0.225,103.215,22.437
13:51:47:471,17.808,0.043,-0.226,0.027,-0.169,101.494,25.630
13:51:47:472,17.809,-0.052,-0.184,-0.137,-0.714,99.267,30.708
13:51:47:473,17.810,-0.047,-0.143,-0.248,-0.744,97.376,35.663
13:51:47:474,17.811,-0.032,-0.113,-0.312,-0.279,96.026,38.743
13:51:47:496,17.832,-0.049,-0.210,-0.503,1.261,93.998,42.906
13:51:47:496,17.832,-0.031,-0.232,-0.550,2.582,93.024,45.059
13:51:47:496,17.833,-0.018,-0.267,-0.508,4.442,92.262,46.956
13:51:47:515,17.852,-0.038,-0.296,-0.470,5.255,92.229,47.154
13:51:47:57,17.907,-0.025,-0.257,-0.512,5.071,93.172,46.408
13:51:47:571,17.907,0.104,-0.174,-0.434,3.291,95.384,44.646
13:51:47:621,17.958,0.067,0.084,-0.413,1.748,97.061,42.637
13:51:47:622,17.959,0.085,0.201,-0.262,0.071,99.177,37.872
13:51:47:647,17.984,0.267,0.154,-0.055,-0.223,100.218,33.885
13:51:47:701,18.037,0.240,0.317,-0.028,0.135,100.941,27.495
13:51:47:701,18.038,0.230,0.430,0.061,0.817,101.119,21.520
13:51:47:726,18.062,0.336,0.296,0.194,1.421,101.807,18.329
13:51:47:751,18.087,0.448,-0.030,0.270,2.193,103.110,14.700
13:51:47:779,18.115,0.483,-0.202,0.297,2.451,103.984,12.936
13:51:47:805,18.141,0.502,-0.340,0.308,2.467,105.079,11.157
13:51:47:83,18.167,0.378,-0.296,0.392,2.194,105.027,9.727
13:51:47:856,18.192,0.266,-0.272,0.382,1.969,104.311,8.805
13:51:47:881,18.218,0.198,-0.228,0.374,1.841,102.998,7.469
13:51:47:908,18.244,0.180,-0.204,0.393,1.964,102.334,6.572
13:51:47:934,18.270,0.154,-0.220,0.412,2.525,101.988,5.348
13:51:47:96,18.297,0.118,-0.160,0.421,3.040,102.291,4.677
13:51:47:986,18.323,0.074,0.074,0.457,3.793,103.775,3.953
13:51:48:012,18.349,0.076,0.075,0.478,4.491,106.449,3.832
13:51:48:039,18.376,0.132,-0.100,0.423,4.873,108.863,4.454
13:51:48:068,18.404,0.240,0.275,0.496,4.664,113.035,5.894
13:51:48:091,18.428,0.342,0.657,0.623,3.855,115.395,6.912
13:51:48:119,18.456,0.226,0.664,0.641,1.918,116.678,8.424
13:51:48:145,18.482,-0.020,0.427,0.443,0.811,115.825,9.665
13:51:48:171,18.507,0.076,0.287,0.336,-0.055,112.904,11.917
13:51:48:196,18.533,0.143,0.123,0.133,-0.552,107.059,14.661
13:51:48:223,18.559,0.017,-0.126,-0.026,-0.692,101.207,16.571
13:51:48:249,18.586,0.051,-0.277,-0.035,-0.274,90.267,19.411
13:51:48:275,18.612,0.069,-0.449,-0.148,0.568,83.255,21.454
13:51:48:301,18.638,0.127,-0.451,-0.234,2.349,74.827,24.719
13:51:48:358,18.694,0.219,-0.391,-0.264,4.152,69.960,28.009
13:51:48:358,18.694,0.231,-0.379,-0.369,5.228,68.269,30.098
13:51:48:38,18.717,0.155,-0.412,-0.424,6.333,68.853,33.136
13:51:48:436,18.772,0.019,-0.331,-0.344,6.514,70.737,35.254
13:51:48:436,18.773,-0.022,-0.265,-0.266,6.373,74.564,38.380
13:51:48:459,18.796,-0.037,-0.173,-0.203,5.990,78.650,40.721
13:51:48:485,18.822,-0.040,-0.026,-0.320,5.846,80.902,41.367
13:51:48:541,18.877,0.007,0.098,-0.407,5.564,83.580,41.052
13:51:48:541,18.878,0.113,0.018,-0.301,5.260,85.104,39.993
13:51:48:565,18.902,0.065,0.137,-0.372,4.259,86.853,37.497
13:51:48:591,18.927,-0.053,0.542,-0.484,2.038,88.807,33.670
13:51:48:617,18.953,-0.035,0.727,-0.298,0.120,91.000,30.308
13:51:48:643,18.979,0.322,0.542,0.171,-2.126,94.695,24.216
13:51:48:669,19.005,0.275,0.198,0.349,-3.025,96.444,19.832
13:51:48:755,19.092,0.169,-0.106,0.173,-3.629,97.056,14.012
13:51:48:755,19.092,0.292,-0.064,0.139,-4.050,97.144,11.351
13:51:48:756,19.092,0.333,-0.171,0.295,-4.332,99.256,10.012
13:51:48:774,19.110,0.348,-0.270,0.248,-4.448,103.485,11.107
13:51:48:829,19.166,0.395,-0.241,0.340,-4.615,107.351,12.752
13:51:48:83,19.167,0.353,-0.203,0.325,-4.962,112.967,15.951
13:51:48:855,19.192,0.254,-0.301,0.115,-5.080,115.841,18.144
13:51:48:879,19.216,0.151,-0.313,-0.011,-4.928,119.308,20.513
13:51:48:905,19.242,0.174,-0.478,0.041,-4.868,123.208,22.011
13:51:48:932,19.268,0.226,-0.369,0.154,-4.899,126.047,22.469
13:51:48:958,19.294,0.188,-0.383,0.161,-4.484,129.871,21.425
13:51:48:984,19.321,0.281,-0.016,0.321,-4.117,132.410,20.146
13:51:49:01,19.347,0.243,0.414,0.339,-3.295,134.844,17.296
13:51:49:036,19.373,0.307,0.432,0.485,-2.308,136.000,13.913
13:51:49:063,19.400,0.292,0.094,0.435,-1.469,136.370,12.249
13:51:49:089,19.426,0.551,-0.038,0.422,-1.087,137.207,10.498
13:51:49:115,19.452,0.816,0.675,0.737,-1.946,137.544,9.659
13:51:49:171,19.508,0.754,0.739,0.727,-3.926,135.269,9.636
13:51:49:171,19.508,0.320,0.387,0.473,-5.438,128.208,12.047
13:51:49:194,19.531,0.228,0.333,0.358,-6.196,121.707,14.936
13:51:49:22,19.557,0.068,0.327,0.041,-6.163,109.888,20.849
13:51:49:302,19.639,-0.041,0.326,-0.356,-4.862,101.968,25.492
13:51:49:303,19.640,0.066,-0.016,-0.404,-0.448,93.406,32.414
13:51:49:329,19.665,0.171,-0.212,-0.506,3.474,89.901,36.881
13:51:49:329,19.665,0.222,-0.196,-0.722,9.676,87.627,42.694
13:51:49:411,19.748,0.158,-0.457,-0.690,15.855,88.894,47.704
13:51:49:411,19.748,0.053,-0.570,-0.578,19.673,91.627,50.734
13:51:49:412,19.748,0.085,-0.634,-0.338,24.424,97.043,54.535
13:51:49:43,19.766,0.184,-0.782,-0.279,27.271,100.301,56.145
13:51:49:489,19.825,0.200,-0.764,-0.339,30.415,104.259,57.480
13:51:49:489,19.826,0.023,-0.667,-0.417,31.356,107.490,57.533
13:51:49:49,19.827,-0.136,-0.557,-0.429,30.584,109.486,56.724
13:51:49:538,19.874,-0.178,-0.453,-0.581,26.445,112.772,53.991
13:51:49:592,19.929,-0.295,-0.472,-0.485,22.001,115.720,51.195
13:51:49:593,19.930,-0.829,0.021,-0.310,13.083,121.919,45.291
13:51:49:805,20.141,-0.802,0.865,-0.196,6.691,127.615,39.881
13:51:49:805,20.142,-0.387,1.296,0.101,0.811,138.103,29.794
13:51:49:806,20.143,0.323,1.526,0.433,-0.084,147.365,18.127
13:51:49:826,20.162,0.396,0.981,0.603,1.189,150.683,10.906
13:51:49:86,20.197,0.378,0.115,0.775,4.058,151.967,3.421
13:51:49:861,20.198,0.107,-0.310,0.042,5.656,152.040,0.785
13:51:49:861,20.198,0.070,-0.183,-0.025,6.119,152.345,0.640
13:51:49:862,20.199,0.226,-0.208,-0.094,5.714,154.874,4.113
13:51:49:912,20.249,0.308,-0.331,-0.033,5.070,157.717,7.257
13:51:49:913,20.249,0.382,-0.051,0.071,3.552,163.238,11.625
13:51:49:914,20.250,0.238,-0.321,0.100,3.107,166.454,13.493
13:51:49:914,20.251,0.219,-0.417,0.099,3.730,169.620,14.626
13:51:49:932,20.268,0.208,-0.432,0.133,4.874,171.719,14.067
13:51:49:933,20.269,0.209,-0.384,0.137,7.123,173.250,11.487
13:51:49:987,20.323,0.399,0.009,0.139,9.788,174.989,6.819
13:51:49:987,20.323,0.679,0.328,0.128,11.358,176.040,2.490
13:51:50:037,20.373,0.984,0.407,0.268,12.305,177.377,-5.570
13:51:50:063,20.400,1.119,0.293,0.231,12.187,177.884,-11.059
13:51:50:064,20.401,1.184,0.043,0.027,11.371,178.028,-18.244
13:51:50:088,20.424,1.040,-0.172,-0.161,10.155,178.734,-22.479
13:51:50:114,20.450,0.875,-0.256,-0.305,9.760,179.812,-22.841
13:51:50:139,20.475,0.884,-0.085,-0.150,7.977,-179.180,-20.250
13:51:50:165,20.502,0.950,-0.003,0.011,6.287,-179.300,-16.844
13:51:50:193,20.529,0.852,0.143,0.086,4.802,179.062,-10.397
13:51:50:218,20.555,0.706,0.357,0.167,5.029,175.523,-3.062
13:51:50:245,20.582,0.324,0.284,0.165,6.255,171.846,1.635
13:51:50:299,20.636,-0.123,-0.065,0.068,9.491,165.859,8.274
13:51:50:3,20.637,-0.053,-0.173,0.066,12.132,162.277,11.985
13:51:50:323,20.659,-0.575,-0.361,-0.034,14.857,155.635,16.241
13:51:50:349,20.686,-0.246,-0.413,-0.096,16.613,151.847,18.682
13:51:50:375,20.712,-0.357,-0.481,-0.107,19.386,148.964,22.154
13:51:50:401,20.738,-0.514,-0.405,0.006,22.004,148.930,23.991
13:51:50:427,20.764,-0.485,-0.321,0.118,23.558,150.043,24.709
13:51:50:455,20.792,-0.420,-0.141,0.228,25.600,153.172,26.083
13:51:50:511,20.848,-0.477,-0.078,0.256,26.636,155.514,26.999
13:51:50:511,20.848,-0.503,-0.172,0.226,27.397,159.092,28.449
13:51:50:592,20.929,-0.482,-0.118,0.242,26.936,162.217,29.260
13:51:50:592,20.929,-0.364,-0.014,0.200,25.861,164.155,29.098
13:51:50:593,20.930,-0.269,0.306,0.412,23.047,166.559,27.292
13:51:50:641,20.978,-0.136,0.315,0.342,20.449,167.863,25.139
13:51:50:641,20.978,0.072,0.509,0.334,16.674,170.359,20.842
13:51:50:665,21.002,0.055,0.496,0.184,14.937,171.599,17.534
13:51:50:694,21.030,0.036,0.339,0.087,13.094,172.856,13.147
13:51:50:716,21.053,0.208,0.104,-0.074,11.618,175.913,11.319
13:51:50:801,21.138,0.377,-0.121,-0.318,10.829,179.180,11.143
13:51:50:802,21.139,0.359,-0.175,-0.376,9.268,-176.218,11.793
13:51:50:803,21.139,0.333,-0.271,-0.296,8.118,-174.274,12.281
13:51:50:821,21.158,0.200,-0.257,-0.146,6.792,-172.569,12.806
13:51:50:877,21.214,0.354,-0.224,-0.138,6.916,-170.050,13.538
13:51:50:932,21.269,0.360,-0.201,-0.117,7.688,-168.727,14.014
13:51:50:933,21.270,0.257,-0.215,-0.051,9.592,-168.031,13.980
13:51:50:934,21.270,0.209,-0.145,-0.037,11.059,-168.132,13.365
13:51:50:955,21.291,0.185,-0.151,-0.031,12.895,-167.329,11.513
13:51:50:981,21.317,0.321,-0.203,-0.009,13.641,-166.994,9.198
13:51:51:007,21.343,0.226,-0.244,-0.064,13.622,-165.588,7.672
13:51:51:032,21.368,0.419,0.082,-0.065,12.948,-164.536,5.349
13:51:51:058,21.395,0.525,0.260,-0.095,12.137,-162.967,3.840
13:51:51:084,21.421,0.542,0.244,-0.144,10.794,-162.041,1.719
13:51:51:11,21.447,0.615,0.361,-0.293,9.947,-160.769,0.499
13:51:51:138,21.474,0.661,0.524,-0.284,8.584,-161.142,-0.920
13:51:51:221,21.558,0.612,0.363,-0.087,7.809,-162.072,-1.327
13:51:51:222,21.558,0.554,0.267,-0.049,8.081,-163.209,-0.842
13:51:51:223,21.559,0.287,0.150,-0.106,9.294,-165.479,0.990
13:51:51:243,21.579,-0.003,-0.017,-0.168,10.467,-167.040,3.003
13:51:51:326,21.662,0.038,-0.091,-0.186,12.540,-168.759,6.851
13:51:51:327,21.663,0.044,-0.176,-0.079,14.804,-170.066,11.435
13:51:51:327,21.664,-0.054,-0.160,0.099,16.398,-170.735,14.569
13:51:51:436,21.773,-0.281,-0.211,0.192,19.133,-171.451,19.163
13:51:51:437,21.773,-0.216,-0.245,0.183,21.276,-170.589,22.685
13:51:51:437,21.773,-0.169,-0.270,0.231,24.818,-167.790,28.343
13:51:51:437,21.773,-0.177,-0.443,0.294,28.250,-164.332,33.381
13:51:51:452,21.788,-0.181,-0.511,0.264,30.357,-162.019,36.082
13:51:51:507,21.843,-0.155,-0.467,0.274,32.832,-158.941,38.769
13:51:51:508,21.845,-0.153,-0.430,0.296,33.698,-157.411,39.352
13:51:51:586,21.923,-0.193,-0.327,0.477,33.718,-155.485,38.737
13:51:51:587,21.923,-0.180,-0.213,0.541,32.749,-153.793,37.663
13:51:51:612,21.949,-0.152,-0.099,0.544,30.223,-150.235,35.445
13:51:51:613,21.949,-0.059,0.159,0.656,27.146,-145.539,32.714
13:51:51:666,22.003,0.148,0.520,0.905,24.939,-141.555,30.560
13:51:51:666,22.003,0.386,0.559,0.619,22.455,-134.200,27.431
13:51:51:687,22.024,0.294,0.450,0.092,21.441,-129.033,25.409
13:51:51:714,22.051,0.215,0.397,-0.065,20.229,-122.925,22.156
13:51:51:743,22.080,0.086,0.232,-0.070,18.722,-119.532,19.320
13:51:51:744,22.080,0.077,0.105,-0.169,17.581,-117.590,17.940
13:51:51:768,22.104,0.020,-0.147,-0.182,16.107,-115.490,16.720
13:51:51:793,22.129,0.015,-0.192,-0.123,15.423,-113.363,16.346
13:51:51:848,22.184,0.058,-0.172,-0.270,14.970,-109.448,15.907
13:51:51:849,22.185,0.082,-0.158,-0.237,14.952,-106.523,15.514
13:51:51:9,22.237,0.066,-0.190,-0.300,15.208,-102.703,14.637
13:51:51:928,22.264,0.036,-0.341,-0.351,15.780,-100.187,13.220
13:51:51:953,22.290,0.040,-0.387,-0.336,16.255,-99.396,11.868
13:51:51:954,22.290,0.129,-0.140,-0.389,16.819,-98.853,9.356
13:51:51:978,22.314,0.204,-0.030,-0.436,17.190,-98.772,7.394
13:51:52:032,22.368,0.261,0.020,-0.470,17.722,-98.951,4.346
13:51:52:033,22.369,0.398,0.385,-0.581,18.058,-98.825,1.592
13:51:52:056,22.393,0.243,0.361,-0.592,18.222,-98.147,0.295
13:51:52:082,22.418,-0.011,0.024,-0.542,18.297,-96.037,0.190
13:51:52:109,22.445,0.052,0.205,-0.662,18.116,-94.262,0.966
13:51:52:135,22.471,0.147,0.246,-0.640,17.203,-92.398,3.152
13:51:52:161,22.497,0.342,0.311,-0.443,16.322,-92.810,6.599
13:51:52:186,22.523,0.447,0.614,-0.188,16.214,-94.308,9.580
13:51:52:242,22.579,0.290,0.526,0.137,17.370,-97.627,15.266
13:51:52:242,22.579,0.143,0.311,0.260,18.942,-100.256,19.468
13:51:52:268,22.604,0.007,-0.087,0.232,22.000,-104.192,25.622
13:51:52:292,22.628,0.048,-0.348,0.243,24.322,-106.111,29.739
13:51:52:318,22.654,0.086,-0.505,0.403,27.310,-106.966,35.906
13:51:52:344,22.680,0.006,-0.484,0.362,29.051,-105.781,41.823
13:51:52:37,22.707,-0.084,-0.437,0.240,29.753,-104.850,45.222
13:51:52:396,22.733,0.020,-0.556,0.228,31.190,-104.967,48.496
13:51:52:422,22.759,0.047,-0.618,0.272,32.388,-105.649,49.672
13:51:52:449,22.786,-0.004,-0.571,0.351,33.840,-106.805,50.505
13:51:52:475,22.812,-0.046,-0.367,0.448,34.092,-107.583,50.422
13:51:52:502,22.838,-0.066,-0.248,0.507,33.523,-107.931,49.738
13:51:52:557,22.894,-0.016,-0.049,0.491,31.154,-107.783,47.711
13:51:52:558,22.894,0.008,0.047,0.487,28.850,-107.347,45.679
13:51:52:638,22.975,0.261,0.511,0.856,24.943,-106.351,41.553
13:51:52:639,22.976,0.256,0.807,0.591,22.092,-104.763,38.013
13:51:52:64,22.977,0.244,0.807,0.216,18.755,-100.322,32.946
13:51:52:719,23.055,0.220,0.665,0.145,17.009,-95.879,28.224
13:51:52:719,23.056,0.062,0.429,0.114,16.319,-92.664,26.316
13:51:52:72,23.057,-0.162,0.093,-0.071,15.368,-88.350,25.655
13:51:52:739,23.075,-0.166,-0.191,-0.095,14.897,-86.829,25.753
13:51:52:764,23.101,-0.065,-0.268,-0.044,14.570,-85.852,26.356
13:51:52:79,23.127,0.022,-0.355,-0.019,14.791,-84.624,27.094
13:51:52:818,23.154,0.032,-0.392,-0.020,15.272,-83.420,27.488
13:51:52:874,23.210,0.070,-0.408,-0.116,16.530,-81.137,27.726
13:51:52:874,23.211,0.074,-0.473,-0.098,17.705,-79.969,27.691
13:51:52:895,23.232,0.027,-0.420,-0.113,19.626,-78.359,27.342
13:51:52:951,23.287,0.081,-0.264,-0.060,21.130,-77.485,26.489
13:51:52:952,23.288,0.151,-0.056,-0.035,21.687,-76.861,25.593
13:51:52:975,23.311,0.222,0.093,-0.107,21.709,-75.878,23.897
13:51:53:,23.337,0.233,0.137,-0.134,21.372,-74.994,22.609
13:51:53:026,23.363,0.109,0.090,-0.217,20.556,-73.454,20.657
13:51:53:053,23.389,0.058,0.001,-0.291,20.023,-71.817,19.544
13:51:53:081,23.417,0.263,0.589,-0.416,18.962,-69.728,17.790
13:51:53:134,23.471,0.378,1.073,-0.649,18.324,-69.254,15.695
13:51:53:135,23.472,0.455,0.590,-0.516,18.549,-70.057,15.098
13:51:53:158,23.495,0.367,0.252,-0.321,19.510,-71.526,15.765
13:51:53:214,23.550,0.223,0.038,-0.095,20.181,-72.507,17.413
13:51:53:214,23.551,0.192,-0.189,-0.041,20.746,-74.759,21.394
13:51:53:236,23.573,0.125,-0.221,-0.115,21.245,-78.180,26.822
13:51:53:264,23.601,0.201,-0.185,-0.056,22.079,-82.175,29.592
13:51:53:29,23.626,0.030,-0.466,0.460,24.348,-89.688,32.549
13:51:53:315,23.651,0.041,-0.458,0.343,26.073,-93.476,34.557
13:51:53:341,23.678,0.164,-0.548,0.280,28.760,-97.596,37.337
13:51:53:368,23.705,0.102,-0.680,0.394,30.496,-99.770,38.897
13:51:53:396,23.732,0.081,-0.626,0.443,32.720,-101.778,40.618
13:51:53:421,23.757,0.070,-0.561,0.482,34.531,-103.618,41.476
13:51:53:446,23.783,0.168,-0.376,0.594,35.042,-104.293,41.600
13:51:53:53,23.867,0.254,-0.027,0.743,34.347,-104.584,41.069
13:51:53:53,23.867,0.226,0.123,0.579,32.991,-103.953,40.248
13:51:53:557,23.894,0.115,0.120,0.390,29.984,-102.058,38.490
13:51:53:558,23.894,0.365,0.299,0.617,26.505,-99.512,35.853
13:51:53:665,24.002,0.394,0.494,0.569,23.938,-97.146,33.622
13:51:53:666,24.003,0.281,0.801,0.084,19.921,-92.457,30.069
13:51:53:667,24.004,0.222,0.637,-0.098,17.631,-90.048,27.309
13:51:53:668,24.004,0.205,0.503,-0.092,15.001,-88.870,23.079
13:51:53:712,24.049,-0.023,0.175,-0.121,13.312,-89.003,20.573
13:51:53:713,24.049,-0.130,-0.112,-0.055,12.621,-89.187,20.259
13:51:53:737,24.074,-0.077,-0.232,0.003,11.931,-89.412,21.391
13:51:53:791,24.127,-0.070,-0.238,-0.082,11.707,-88.383,23.132
13:51:53:792,24.128,-0.117,-0.375,-0.139,11.905,-86.223,26.383
13:51:53:817,24.153,-0.099,-0.510,-0.129,12.752,-84.557,29.476
13:51:53:842,24.179,-0.086,-0.593,-0.133,13.619,-83.974,31.386
13:51:53:868,24.204,-0.038,-0.604,-0.028,14.950,-83.223,34.011
13:51:53:893,24.230,0.060,-0.525,0.094,15.580,-82.147,35.918
13:51:53:98,24.317,0.071,-0.453,0.084,16.153,-80.266,38.908
13:51:53:981,24.318,0.188,-0.030,0.242,16.326,-78.959,40.505
13:51:53:982,24.318,0.370,0.297,0.405,16.123,-77.465,41.523
13:51:53:983,24.319,0.390,0.296,0.293,15.170,-74.913,40.559
13:51:54:056,24.393,0.297,0.391,0.244,14.225,-72.712,38.928
13:51:54:057,24.393,0.088,1.049,0.163,12.095,-68.483,35.472
13:51:54:058,24.394,0.083,1.302,0.010,10.763,-66.844,32.615
13:51:54:132,24.469,0.177,0.682,-0.175,11.184,-68.273,28.763
13:51:54:133,24.470,0.173,0.094,0.145,13.843,-72.674,25.624
13:51:54:16,24.496,0.066,-0.139,0.239,15.783,-75.408,25.055
13:51:54:16,24.496,-0.035,-0.620,0.135,18.312,-76.760,27.325
13:51:54:24,24.576,-0.034,-0.548,0.016,19.725,-75.163,30.126
13:51:54:241,24.577,0.115,-0.426,0.043,20.600,-72.096,34.625
13:51:54:241,24.578,0.186,-0.386,0.062,20.895,-70.502,37.226
13:51:54:29,24.626,0.220,-0.381,0.090,21.263,-69.498,40.269
13:51:54:29,24.627,0.226,-0.498,0.130,21.931,-69.572,42.683
13:51:54:342,24.678,0.251,-0.542,0.145,22.580,-69.867,44.032
13:51:54:343,24.679,0.285,-0.527,0.139,23.372,-70.005,45.722
13:51:54:365,24.701,0.327,-0.326,0.286,23.519,-69.860,46.435
13:51:54:391,24.728,0.334,-0.172,0.413,22.895,-69.429,46.345
13:51:54:42,24.757,0.344,0.054,0.557,21.189,-68.234,44.565
13:51:54:446,24.782,0.255,0.156,0.294,19.361,-66.300,42.883
13:51:54:472,24.808,0.487,0.424,0.316,16.734,-62.295,40.355
13:51:54:498,24.834,0.624,1.014,0.272,15.152,-58.714,38.461
13:51:54:552,24.888,0.150,0.788,0.050,13.197,-53.118,35.186
13:51:54:553,24.889,0.037,0.306,0.129,11.457,-50.041,33.133
13:51:54:575,24.912,-0.042,0.301,0.129,9.870,-48.471,33.219
13:51:54:603,24.940,-0.138,0.124,0.162,7.541,-48.035,34.875
13:51:54:629,24.966,-0.012,-0.314,0.250,6.757,-49.130,36.328
13:51:54:655,24.992,-0.044,-0.366,0.207,6.383,-50.974,38.563
13:51:54:68,25.017,-0.082,-0.516,0.110,6.174,-51.141,40.137
13:51:54:74,25.077,-0.086,-0.649,0.054,5.793,-51.072,42.421
13:51:54:74,25.077,-0.099,-0.712,0.038,5.583,-50.657,44.274
13:51:54:759,25.096,-0.116,-0.741,0.053,5.625,-50.911,45.198
13:51:54:785,25.122,-0.045,-0.495,0.071,5.751,-51.031,45.770
13:51:54:812,25.149,-0.036,-0.253,-0.004,6.031,-51.729,45.312
13:51:54:839,25.175,0.128,0.119,0.142,6.894,-52.606,43.743
13:51:54:864,25.201,0.314,0.609,0.271,7.333,-52.998,42.343
13:51:54:89,25.227,0.326,0.663,0.242,6.922,-51.420,40.208
13:51:54:917,25.253,0.041,0.397,0.162,5.055,-48.070,38.851
13:51:54:943,25.279,-0.266,0.378,0.289,3.272,-45.413,38.301
13:51:54:971,25.307,-0.363,0.396,0.247,0.973,-43.474,37.432
13:51:54:996,25.333,0.118,0.433,0.257,0.384,-44.059,37.084
13:51:55:022,25.359,0.178,0.462,0.370,0.514,-44.888,37.130
13:51:55:049,25.386,0.136,0.170,0.466,1.170,-45.270,38.296
13:51:55:074,25.410,0.142,0.088,0.407,1.743,-45.796,39.655
13:51:55:102,25.438,0.248,-0.182,0.266,3.749,-46.901,41.425
13:51:55:128,25.465,0.192,-0.456,0.180,5.538,-47.358,42.367
13:51:55:153,25.490,0.126,-0.534,0.163,7.684,-46.585,43.973
13:51:55:18,25.516,0.115,-0.484,0.146,8.206,-44.492,45.609
13:51:55:205,25.542,0.105,-0.439,0.115,7.860,-42.883,46.373
13:51:55:231,25.568,0.151,-0.503,0.073,7.270,-41.075,47.074
13:51:55:258,25.595,0.191,-0.459,0.085,6.968,-40.053,47.246
13:51:55:284,25.621,0.195,-0.435,0.168,6.480,-38.900,47.002
13:51:55:311,25.648,0.221,-0.332,0.236,5.870,-38.137,46.460
13:51:55:337,25.673,0.249,-0.121,0.247,3.885,-36.621,45.084
13:51:55:363,25.699,0.295,0.140,0.303,1.269,-34.102,42.791
13:51:55:389,25.726,0.225,0.200,0.276,-0.270,-31.754,40.907
13:51:55:415,25.751,0.463,0.501,0.282,-1.722,-27.976,38.117
13:51:55:441,25.778,0.544,1.020,0.283,-2.492,-24.672,35.805
13:51:55:468,25.804,0.075,0.718,0.245,-3.891,-18.332,32.465
13:51:55:522,25.858,-0.173,0.102,0.381,-5.103,-13.442,29.802
13:51:55:549,25.886,-0.089,0.137,0.463,-5.723,-11.932,28.817
13:51:55:55,25.887,0.032,0.010,0.381,-6.479,-11.554,28.886
13:51:55:604,25.941,0.063,-0.102,0.327,-6.604,-11.653,29.457
13:51:55:604,25.941,0.051,-0.297,0.373,-6.393,-10.136,30.153
13:51:55:626,25.962,-0.139,-0.477,0.292,-6.051,-7.281,30.632
13:51:55:682,26.018,-0.155,-0.533,0.236,-5.622,-5.624,30.901
13:51:55:682,26.019,-0.152,-0.539,0.185,-4.690,-3.938,31.329
13:51:55:704,26.041,-0.088,-0.482,0.177,-3.928,-3.366,31.535
13:51:55:732,26.069,-0.091,-0.473,0.177,-2.538,-3.030,31.722
13:51:55:757,26.093,-0.030,-0.301,0.107,-1.073,-2.869,31.659
13:51:55:784,26.121,0.078,-0.114,0.061,-0.092,-2.955,31.402
13:51:55:81,26.147,0.113,0.147,0.054,1.962,-2.465,30.781
13:51:55:836,26.172,0.179,0.086,0.016,3.587,-1.749,30.278
13:51:55:862,26.198,0.067,-0.067,0.171,5.425,0.797,29.689
13:51:55:889,26.226,0.161,0.981,0.147,5.828,5.046,29.441
13:51:55:915,26.252,0.122,1.159,0.227,5.264,7.614,28.682
13:51:55:941,26.277,-0.029,0.511,0.040,3.884,8.639,28.025
13:51:55:966,26.303,0.010,0.304,-0.019,3.664,7.955,28.295
13:51:56:022,26.359,0.184,0.027,0.222,4.557,6.503,31.642
13:51:56:047,26.384,0.120,-0.199,0.228,5.495,4.597,34.270
13:51:56:073,26.409,0.224,-0.395,0.218,7.883,1.094,36.667
13:51:56:098,26.434,0.209,-0.410,0.205,9.858,-0.942,38.203
13:51:56:124,26.461,0.175,-0.464,0.199,12.342,-2.658,40.663
13:51:56:15,26.487,0.157,-0.489,0.176,13.551,-3.078,42.342
13:51:56:176,26.513,0.191,-0.503,0.151,14.991,-2.966,44.931
13:51:56:205,26.541,0.240,-0.508,0.097,16.234,-2.774,47.188
13:51:56:23,26.566,0.270,-0.535,0.110,16.932,-2.439,48.357
13:51:56:285,26.622,0.376,-0.325,0.114,16.989,-2.268,49.245
13:51:56:285,26.622,0.469,-0.149,-0.106,16.098,-2.114,49.009
13:51:56:308,26.644,0.544,-0.099,0.042,14.278,-1.696,47.118
13:51:56:335,26.672,0.464,0.074,0.293,12.557,-0.359,43.730
13:51:56:361,26.698,0.658,0.666,0.132,11.532,0.607,40.731
13:51:56:387,26.724,0.586,0.970,0.116,9.987,1.995,34.471
13:51:56:413,26.750,0.027,0.506,0.400,8.175,3.186,30.308
13:51:56:528,26.865,-0.040,0.178,0.442,5.929,5.414,25.744
13:51:56:528,26.865,-0.104,0.121,0.484,4.696,6.924,24.702
13:51:56:529,26.866,-0.044,0.037,0.468,3.332,8.044,25.571
13:51:56:53,26.867,0.270,-0.236,0.282,2.723,7.372,27.754
13:51:56:548,26.885,0.214,-0.334,0.247,2.553,7.657,29.375
13:51:56:549,26.885,0.259,-0.374,0.167,2.199,8.735,31.487
13:51:56:571,26.907,0.192,-0.472,0.073,1.926,10.035,32.512
13:51:56:655,26.991,0.109,-0.536,0.061,1.596,12.225,33.679
13:51:56:656,26.992,0.073,-0.572,0.065,1.360,14.101,34.419
13:51:56:656,26.993,0.072,-0.507,0.093,1.198,14.797,34.640
13:51:56:677,27.013,0.059,-0.312,0.033,1.044,15.623,34.304
13:51:56:701,27.038,0.148,-0.264,-0.002,1.391,15.721,33.476
13:51:56:757,27.094,0.289,-0.141,0.226,2.734,16.663,31.594
13:51:56:758,27.094,0.340,0.134,0.291,3.231,17.591,29.151
13:51:56:81,27.146,0.301,0.184,0.256,2.438,18.750,27.501
13:51:56:81,27.147,0.322,0.176,0.296,0.234,22.776,25.191
13:51:56:863,27.200,0.307,0.691,0.630,-1.160,26.541,23.631
13:51:56:864,27.200,0.265,0.858,0.602,-2.799,31.053,21.700
13:51:56:885,27.222,0.198,0.608,0.326,-3.317,32.258,21.273
13:51:56:912,27.248,0.250,0.374,0.282,-2.730,33.337,21.702
13:51:56:938,27.274,0.344,0.015,0.265,-1.946,33.082,23.589
13:51:56:964,27.300,0.257,-0.182,0.212,-1.694,32.760,25.225
13:51:56:99,27.327,0.142,-0.547,0.089,-1.350,32.860,27.628
13:51:57:017,27.353,0.106,-0.567,0.118,-1.138,34.252,29.045
13:51:57:043,27.379,0.106,-0.428,0.087,-0.820,36.711,30.913
13:51:57:069,27.406,0.104,-0.409,0.071,-0.477,38.185,31.834
13:51:57:095,27.432,0.142,-0.437,0.011,0.057,38.543,32.797
13:51:57:121,27.458,0.164,-0.385,0.008,0.385,38.705,33.425
13:51:57:179,27.516,0.229,-0.252,-0.039,0.487,38.384,33.747
13:51:57:18,27.516,0.297,-0.264,-0.059,0.535,37.659,33.931
13:51:57:2,27.537,0.335,-0.114,-0.005,0.323,37.499,33.728
13:51:57:256,27.592,0.382,-0.091,-0.031,-0.571,38.709,32.850
13:51:57:256,27.593,0.371,-0.047,-0.064,-1.737,41.299,31.192
13:51:57:279,27.615,0.344,-0.056,-0.022,-2.459,44.162,29.804
13:51:57:335,27.672,0.492,0.585,-0.168,-3.284,49.393,26.880
13:51:57:335,27.672,0.329,0.787,-0.112,-3.611,53.474,23.858
13:51:57:416,27.753,0.253,0.396,0.170,-4.640,59.554,19.601
13:51:57:417,27.753,0.409,0.200,0.369,-5.513,64.430,15.771
13:51:57:418,27.754,0.475,0.139,0.403,-6.038,66.258,14.048
13:51:57:437,27.773,0.443,-0.056,0.274,-6.816,67.464,13.178
13:51:57:463,27.799,0.476,-0.231,0.220,-7.027,67.412,13.220
13:51:57:489,27.825,0.507,-0.354,0.153,-6.909,68.513,13.139
13:51:57:515,27.852,0.403,-0.371,0.168,-6.653,70.057,12.697
13:51:57:572,27.908,0.331,-0.425,0.184,-6.159,73.380,11.700
13:51:57:572,27.909,0.268,-0.483,0.251,-5.517,76.590,10.553
13:51:57:594,27.931,0.227,-0.474,0.281,-4.942,77.857,9.693
13:51:57:62,27.957,0.231,-0.410,0.300,-3.910,79.219,8.197
13:51:57:648,27.985,0.165,-0.265,0.335,-3.167,79.741,6.975
13:51:57:703,28.040,0.118,-0.102,0.343,-2.056,80.229,4.872
13:51:57:704,28.040,0.104,0.218,0.444,-1.024,80.748,2.230
13:51:57:725,28.062,0.108,0.233,0.505,-0.421,81.568,0.164
13:51:57:754,28.091,0.258,-0.120,0.538,0.288,84.058,-2.457
13:51:57:78,28.116,0.374,-0.135,0.628,0.866,86.650,-3.689
13:51:57:833,28.170,0.524,0.510,1.045,1.621,89.939,-4.953
13:51:57:834,28.170,0.340,0.362,0.894,2.072,91.616,-4.841
13:51:57:858,28.194,0.346,0.346,0.734,2.533,91.817,-3.657
13:51:57:913,28.250,0.347,0.231,0.533,3.274,92.107,-0.210
13:51:57:914,28.251,0.238,-0.076,0.391,3.341,92.189,3.011
13:51:57:936,28.272,0.205,-0.302,0.234,2.943,91.198,8.769
13:51:57:991,28.328,0.209,-0.372,0.076,2.750,89.721,13.016
13:51:57:992,28.329,0.205,-0.331,0.010,2.908,86.849,19.579
13:51:58:015,28.351,0.163,-0.340,-0.067,3.701,83.791,25.711
13:51:58:04,28.377,0.133,-0.378,-0.095,4.604,81.842,29.430
13:51:58:066,28.403,0.086,-0.472,-0.180,6.497,79.163,34.141
13:51:58:093,28.430,0.053,-0.450,-0.246,7.974,77.668,36.556
13:51:58:121,28.458,0.074,-0.351,-0.304,10.118,75.800,39.027
13:51:58:146,28.483,0.027,-0.172,-0.460,11.692,74.252,39.900
13:51:58:172,28.508,0.056,-0.019,-0.568,11.888,73.794,39.573
13:51:58:199,28.536,0.062,0.159,-0.456,9.985,75.055,37.930
13:51:58:225,28.561,0.135,0.126,-0.361,7.696,76.781,36.134
13:51:58:253,28.589,0.114,0.437,-0.373,4.254,79.713,32.483
13:51:58:306,28.642,0.185,0.627,-0.220,1.724,82.478,27.787
13:51:58:307,28.643,0.287,0.528,-0.031,0.286,84.259,24.270
13:51:58:329,28.666,0.479,0.245,0.190,-1.701,86.158,18.947
13:51:58:385,28.721,0.534,0.021,0.226,-2.808,86.592,15.991
13:51:58:385,28.722,0.531,-0.090,0.261,-3.848,86.804,12.956
13:51:58:408,28.744,0.462,-0.309,0.178,-4.137,87.518,10.544
13:51:58:463,28.800,0.434,-0.341,0.127,-4.018,88.720,9.139
13:51:58:464,28.801,0.370,-0.311,0.267,-3.400,91.956,6.980
13:51:58:488,28.825,0.354,-0.363,0.290,-2.706,94.328,5.627
13:51:58:513,28.850,0.285,-0.433,0.368,-1.590,97.134,3.958
13:51:58:539,28.876,0.278,-0.458,0.415,-0.900,98.036,3.145
13:51:58:565,28.902,0.329,-0.449,0.397,-0.216,97.942,1.985
13:51:58:592,28.928,0.272,-0.343,0.374,0.197,97.131,1.050
13:51:58:621,28.957,0.229,-0.204,0.388,0.462,96.874,0.529
13:51:58:646,28.983,0.217,0.085,0.481,1.010,97.020,-0.090
13:51:58:672,29.008,0.228,0.101,0.445,1.401,97.666,-0.199
13:51:58:698,29.034,0.323,0.386,0.548,1.764,99.341,0.295
13:51:58:724,29.061,0.493,0.618,0.662,1.481,100.384,0.978
13:51:58:752,29.089,0.310,0.686,0.666,0.924,99.516,1.741
13:51:58:753,29.089,0.148,0.446,0.422,0.820,96.976,3.597
13:51:58:804,29.141,0.237,0.178,0.238,1.241,95.205,5.449
13:51:58:805,29.142,0.233,0.144,0.225,1.446,93.362,9.144
13:51:58:829,29.165,0.152,-0.051,0.205,1.102,91.551,12.011
13:51:58:854,29.191,0.103,-0.183,0.148,0.730,88.037,16.211
13:51:58:91,29.246,0.092,-0.217,-0.043,1.205,83.449,20.296
13:51:58:91,29.247,0.111,-0.248,-0.051,1.929,80.668,22.872
13:51:58:933,29.269,0.099,-0.372,-0.084,3.287,77.363,26.744
13:51:58:959,29.296,0.091,-0.440,-0.072,4.300,75.743,29.381
13:51:58:987,29.324,0.063,-0.504,-0.077,5.954,73.668,33.300
13:51:59:013,29.349,0.087,-0.435,-0.170,7.874,71.452,36.840
13:51:59:039,29.376,0.093,-0.363,-0.224,9.361,69.809,38.698
13:51:59:065,29.401,0.112,-0.157,-0.418,11.868,67.168,40.278
13:51:59:09,29.427,0.126,-0.049,-0.546,13.418,65.471,40.320
13:51:59:117,29.453,0.220,0.054,-0.605,14.667,63.924,39.189
13:51:59:145,29.481,0.154,0.486,-0.757,14.233,64.110,37.628
13:51:59:17,29.506,0.130,0.310,-0.532,11.895,66.838,34.463
13:51:59:195,29.532,0.239,0.285,-0.232,8.868,72.051,31.501
13:51:59:222,29.558,0.307,0.383,-0.084,6.994,75.760,29.460
13:51:59:279,29.615,0.292,0.209,-0.082,4.987,79.787,26.727
13:51:59:279,29.615,0.316,-0.053,-0.008,4.226,81.513,25.323
13:51:59:3,29.637,0.330,-0.177,-0.054,3.743,83.051,23.369
13:51:59:327,29.663,0.296,-0.301,-0.097,3.580,83.552,20.908
13:51:59:357,29.693,0.265,-0.332,-0.071,3.500,84.205,18.928
13:51:59:38,29.717,0.181,-0.266,0.059,3.394,86.391,15.531
13:51:59:405,29.742,0.153,-0.247,0.237,3.416,88.266,13.154
13:51:59:431,29.768,0.150,-0.337,0.318,3.623,90.508,9.398
13:51:59:458,29.794,0.157,-0.432,0.354,3.712,91.537,5.655
13:51:59:484,29.821,0.175,-0.338,0.394,3.544,91.889,3.294
13:51:59:51,29.847,0.130,0.034,0.495,3.042,92.124,0.005
13:51:59:537,29.873,0.134,0.158,0.592,2.758,92.476,-2.018
13:51:59:563,29.899,0.229,0.156,0.650,2.898,93.847,-4.308
13:51:59:589,29.926,0.332,-0.011,0.712,3.182,95.395,-5.243
13:51:59:616,29.953,0.485,0.087,0.827,3.364,97.827,-6.156
13:51:59:643,29.980,0.372,0.214,0.980,2.895,98.779,-6.713
13:51:59:669,30.005,0.284,0.328,0.928,2.339,97.959,-6.626
13:51:59:695,30.032,0.263,0.205,0.712,1.820,95.234,-5.369
13:51:59:72,30.057,0.267,0.122,0.569,1.630,93.057,-3.726
13:51:59:748,30.085,0.234,0.115,0.513,1.343,90.157,-0.242
13:51:59:774,30.110,0.144,-0.055,0.389,1.083,87.466,4.217
13:51:59:8,30.137,0.106,-0.117,0.295,1.121,85.354,7.683
13:51:59:826,30.162,0.076,-0.173,0.173,1.782,81.559,13.222
13:51:59:852,30.188,0.071,-0.135,-0.023,2.717,78.763,16.868
13:51:59:879,30.215,0.050,-0.159,-0.091,4.700,74.981,22.136
13:51:59:904,30.240,0.007,-0.226,-0.264,6.449,72.849,25.517
13:51:59:93,30.267,0.035,-0.300,-0.337,9.622,70.289,30.206
13:51:59:957,30.293,0.014,-0.281,-0.393,13.045,68.843,34.242
13:51:59:983,30.320,0.085,-0.363,-0.423,15.063,68.681,36.096
13:52:00:009,30.346,0.059,-0.162,-0.523,17.013,69.353,37.907
13:52:00:035,30.372,0.049,-0.094,-0.544,17.414,70.106,38.400
13:52:00:091,30.427,0.136,-0.130,-0.588,17.094,71.213,38.236
13:52:00:091,30.428,0.157,0.082,-0.681,15.559,72.795,37.173
13:52:00:172,30.509,0.103,0.291,-0.694,13.700,74.162,35.697
13:52:00:173,30.510,0.165,0.170,-0.424,10.582,77.179,33.105
13:52:00:174,30.511,0.123,0.337,-0.333,8.553,79.538,31.091
13:52:00:193,30.530,0.126,0.345,-0.255,6.139,83.079,27.894
13:52:00:279,30.616,0.165,0.261,-0.129,4.418,86.448,24.921
13:52:00:279,30.616,0.210,0.197,-0.017,3.444,88.462,22.883
13:52:00:279,30.616,0.260,0.064,0.085,2.148,90.717,19.563
13:52:00:356,30.693,0.286,-0.010,0.103,1.454,91.829,17.180
13:52:00:357,30.694,0.304,-0.145,0.165,0.625,93.501,13.437
13:52:00:358,30.695,0.263,-0.215,0.237,0.238,94.974,10.833
13:52:00:378,30.714,0.270,-0.278,0.278,0.039,97.806,6.791
13:52:00:405,30.742,0.267,-0.363,0.381,0.331,100.975,2.846
13:52:00:458,30.795,0.269,-0.372,0.406,0.732,102.978,0.202
13:52:00:461,30.798,0.264,-0.381,0.480,1.537,105.891,-3.703
13:52:00:569,30.905,0.267,-0.441,0.519,2.160,107.622,-6.123
13:52:00:57,30.906,0.308,-0.283,0.655,2.900,109.948,-9.407
13:52:00:57,30.907,0.393,-0.157,0.780,3.136,111.717,-12.298
13:52:00:618,30.955,0.457,-0.118,0.712,2.899,112.664,-13.589
13:52:00:619,30.956,0.701,0.191,0.805,2.149,114.445,-14.088
13:52:00:62,30.956,0.725,0.451,0.908,1.220,115.685,-13.684
13:52:00:669,31.006,0.490,0.374,0.698,-0.739,116.387,-10.935
13:52:00:67,31.006,0.442,0.426,0.373,-1.691,116.119,-6.116
13:52:00:692,31.028,0.491,0.467,0.177,-2.011,115.607,-2.229
13:52:00:748,31.084,0.419,0.216,0.014,-2.722,113.673,4.091
13:52:00:805,31.141,0.313,0.035,-0.077,-3.276,111.738,8.146
13:52:00:805,31.142,0.089,-0.076,-0.065,-3.806,108.792,13.940
13:52:00:805,31.142,0.004,-0.175,-0.109,-3.842,106.721,17.505
13:52:00:882,31.219,0.161,-0.363,0.005,-3.444,103.601,22.042
13:52:00:883,31.220,0.098,-0.474,-0.176,-2.792,98.794,25.859
13:52:00:884,31.220,-0.029,-0.600,-0.308,-2.062,95.053,27.872
13:52:00:901,31.238,0.068,-0.544,-0.471,-0.464,89.435,30.411
13:52:00:928,31.264,0.079,-0.323,-0.690,0.485,86.860,31.540
13:52:00:954,31.291,0.014,-0.218,-0.722,1.236,85.739,32.205
13:52:01:039,31.376,-0.049,-0.128,-0.778,1.339,88.390,31.615
13:52:01:04,31.376,-0.077,-0.127,-0.581,1.072,92.491,30.615
13:52:01:041,31.377,-0.025,0.205,-0.497,0.162,101.028,28.521
13:52:01:121,31.458,-0.124,0.953,-0.331,-0.611,107.333,26.215
13:52:01:121,31.458,0.006,0.694,-0.046,-1.146,115.948,22.336
13:52:01:121,31.458,0.153,0.469,0.058,-0.654,122.936,19.218
13:52:01:122,31.459,0.148,0.353,-0.035,-0.001,126.389,17.491
13:52:01:332,31.669,0.168,0.303,0.006,0.925,130.884,15.535
13:52:01:333,31.670,0.173,0.175,0.071,1.555,134.042,14.432
13:52:01:334,31.670,0.139,-0.098,0.143,3.099,139.313,12.670
13:52:01:35,31.686,0.253,-0.449,0.162,6.910,150.105,9.930
13:52:01:41,31.746,0.339,-0.536,0.171,9.367,157.433,8.418
13:52:01:41,31.747,0.388,-0.539,0.195,10.987,162.064,7.298
13:52:01:411,31.748,0.463,-0.502,0.197,13.401,167.927,5.460
13:52:01:412,31.749,0.494,-0.397,0.249,14.910,170.884,4.174
13:52:01:517,31.853,0.512,-0.193,0.268,16.931,173.994,2.048
13:52:01:517,31.853,0.586,0.029,0.294,18.502,176.668,-0.127
13:52:01:517,31.854,0.595,-0.030,0.239,19.349,178.870,-1.008
13:52:01:517,31.854,0.530,-0.197,0.046,20.260,-176.997,-0.793
13:52:01:538,31.874,0.766,0.291,0.094,20.640,-172.985,0.046
13:52:01:538,31.875,0.929,0.575,0.104,20.593,-169.157,1.204
13:52:01:539,31.875,0.861,0.324,0.042,20.421,-166.976,1.927
13:52:01:559,31.895,0.692,0.326,0.035,20.277,-167.359,2.652
13:52:01:585,31.921,0.520,0.356,0.043,20.050,-168.737,3.241
13:52:01:637,31.974,0.435,0.282,0.089,19.702,-170.249,4.032
13:52:01:664,32.000,0.343,-0.137,-0.019,19.341,-171.755,6.064
13:52:01:692,32.028,0.228,-0.477,-0.126,19.404,-173.050,7.840
13:52:01:693,32.029,0.156,-0.537,-0.106,19.652,-174.944,10.885
13:52:01:717,32.053,0.086,-0.469,-0.028,19.812,-177.325,14.022
13:52:01:743,32.079,0.049,-0.475,0.030,19.966,-179.138,15.873
13:52:01:798,32.135,-0.022,-0.441,0.058,20.519,177.970,18.491
13:52:01:799,32.135,-0.133,-0.300,0.048,21.059,176.276,20.012
13:52:01:821,32.157,-0.272,-0.237,0.166,21.998,174.170,21.817
13:52:01:906,32.243,-0.276,-0.197,0.251,22.644,173.526,22.681
13:52:01:906,32.243,-0.291,-0.107,0.263,23.367,173.815,23.378
13:52:01:906,32.243,-0.290,0.208,0.301,23.321,175.138,22.763
13:52:01:954,32.291,-0.177,0.318,0.257,22.672,176.151,21.513
13:52:01:955,32.292,-0.038,0.609,0.400,21.267,177.557,18.606
13:52:02:066,32.402,0.078,0.415,0.307,20.501,179.049,16.266
13:52:02:066,32.403,0.297,0.275,0.066,19.862,-177.238,12.777
13:52:02:067,32.403,0.481,0.429,-0.028,19.394,-173.538,9.111
13:52:02:068,32.404,0.570,0.384,0.002,19.108,-171.860,6.562
13:52:02:083,32.419,0.586,0.112,-0.036,19.039,-170.267,3.234
13:52:02:109,32.446,0.506,-0.145,-0.133,19.319,-169.449,1.550
13:52:02:135,32.472,0.426,-0.358,-0.206,20.167,-167.833,0.169
13:52:02:191,32.528,0.480,-0.484,-0.192,21.266,-165.367,0.156
13:52:02:192,32.528,0.475,-0.501,-0.165,22.041,-163.807,0.648
13:52:02:215,32.551,0.422,-0.603,-0.161,23.226,-162.324,1.779
13:52:02:299,32.636,0.373,-0.634,-0.132,23.843,-162.038,2.650
13:52:02:299,32.636,0.340,-0.543,-0.067,24.372,-162.506,4.042
13:52:02:3,32.637,0.222,-0.366,0.042,24.493,-163.241,4.992
13:52:02:32,32.657,0.179,-0.168,0.061,24.406,-164.849,6.175
13:52:02:345,32.682,0.210,-0.021,0.211,23.913,-166.869,6.509
13:52:02:372,32.709,0.199,0.165,0.364,23.559,-167.548,6.510
13:52:02:398,32.735,0.150,0.123,0.239,23.228,-166.429,7.024
13:52:02:424,32.761,0.197,-0.063,-0.065,22.933,-164.545,7.796
13:52:02:45,32.787,0.349,0.211,-0.037,22.024,-161.525,8.801
13:52:02:477,32.813,0.610,0.755,0.093,20.737,-160.271,8.335
13:52:02:504,32.841,0.569,0.654,0.166,20.287,-160.676,7.641
13:52:02:611,32.948,0.370,0.380,0.258,20.444,-161.164,7.633
13:52:02:612,32.948,0.192,0.186,0.108,20.831,-160.688,8.457
13:52:02:641,32.978,0.191,0.061,-0.014,20.678,-159.507,10.879
13:52:02:642,32.979,0.203,-0.089,-0.027,19.979,-159.248,12.571
13:52:02:642,32.979,0.189,-0.240,-0.018,18.966,-160.166,14.394
13:52:02:689,33.026,0.019,-0.381,-0.101,18.663,-161.722,15.726
13:52:02:69,33.027,-0.005,-0.401,-0.112,18.728,-162.454,16.649
13:52:02:854,33.190,-0.003,-0.470,-0.060,19.006,-162.633,18.364
13:52:02:855,33.191,-0.004,-0.519,-0.039,19.284,-162.337,19.582
13:52:02:855,33.192,-0.051,-0.490,0.027,19.885,-161.873,21.076
13:52:02:856,33.193,-0.119,-0.323,0.151,20.526,-161.480,21.824
13:52:02:908,33.244,-0.128,-0.041,0.299,20.884,-160.989,21.866
13:52:02:908,33.244,-0.135,0.150,0.428,21.304,-159.661,21.282
13:52:02:908,33.245,-0.093,-0.025,0.424,21.617,-158.061,20.805
13:52:02:908,33.245,-0.096,-0.018,0.419,21.984,-153.937,20.618
13:52:02:978,33.314,0.137,0.882,0.927,22.051,-150.331,20.457
13:52:03:084,33.420,0.359,0.751,0.668,21.790,-143.771,19.422
13:52:03:085,33.421,0.360,0.332,0.206,21.390,-138.419,17.890
13:52:03:116,33.453,0.330,0.269,0.026,21.091,-135.986,16.305
13:52:03:117,33.453,0.193,0.302,-0.029,20.362,-134.309,14.107
13:52:03:118,33.454,0.180,0.197,-0.077,19.717,-133.595,13.336
13:52:03:118,33.455,0.068,-0.126,-0.147,19.031,-131.810,13.558
13:52:03:191,33.528,0.057,-0.235,-0.214,18.905,-128.062,15.038
13:52:03:191,33.528,0.092,-0.320,-0.257,19.030,-125.046,16.199
13:52:03:249,33.585,0.072,-0.397,-0.240,19.365,-121.236,17.513
13:52:03:249,33.586,0.068,-0.436,-0.203,19.608,-119.399,18.022
13:52:03:249,33.586,0.082,-0.452,-0.192,19.930,-117.494,18.213
13:52:03:249,33.586,0.137,-0.381,-0.163,20.324,-116.320,17.718
13:52:03:267,33.604,0.168,-0.331,-0.162,20.632,-115.775,17.031
13:52:03:268,33.604,0.235,-0.191,-0.117,21.079,-115.223,15.543
13:52:03:32,33.656,0.387,0.220,-0.021,21.300,-114.832,14.351
13:52:03:321,33.657,0.442,0.424,-0.027,21.437,-113.820,12.347
13:52:03:372,33.709,0.460,0.267,-0.099,21.280,-112.195,11.215
13:52:03:373,33.709,0.151,-0.023,-0.291,20.956,-108.720,10.696
13:52:03:425,33.761,0.262,0.527,-0.598,20.116,-105.767,10.664
13:52:03:425,33.762,0.460,0.886,-0.396,18.843,-105.853,10.051
13:52:03:448,33.785,0.377,0.446,-0.078,18.329,-107.412,9.599
13:52:03:474,33.811,0.235,0.086,-0.043,19.335,-107.375,10.998
13:52:03:581,33.918,-0.055,0.040,-0.180,21.758,-106.026,15.171
13:52:03:614,33.951,-0.100,-0.111,-0.099,23.864,-105.138,19.604
13:52:03:615,33.951,-0.022,-0.240,-0.019,24.631,-105.317,22.027
13:52:03:616,33.952,-0.013,-0.246,-0.003,25.763,-106.103,25.386
13:52:03:616,33.953,-0.018,-0.220,0.057,26.671,-106.729,27.404
13:52:03:661,33.997,0.040,-0.243,0.091,27.918,-108.093,29.832
13:52:03:662,33.998,0.078,-0.257,0.212,28.613,-109.283,31.012
13:52:03:685,34.022,0.048,-0.349,0.318,29.642,-111.343,32.517
13:52:03:71,34.047,0.106,-0.405,0.435,30.278,-113.028,33.678
13:52:03:797,34.134,0.154,-0.327,0.538,30.323,-113.982,33.993
13:52:03:798,34.134,0.241,-0.225,0.662,29.937,-113.983,33.629
13:52:03:798,34.134,0.228,-0.124,0.633,29.397,-113.462,33.005
13:52:03:843,34.179,0.227,-0.053,0.512,28.418,-111.278,31.981
13:52:03:872,34.208,0.387,0.188,0.629,26.986,-108.597,30.627
13:52:03:872,34.208,0.623,0.419,0.826,25.822,-105.926,29.524
13:52:04:009,34.345,0.554,0.439,0.375,24.478,-99.536,28.671
13:52:04:01,34.346,0.371,0.314,0.096,23.578,-94.807,28.323
13:52:04:01,34.347,0.153,0.147,-0.002,22.185,-88.943,27.542
13:52:04:011,34.348,-0.085,-0.001,-0.100,21.189,-86.059,26.819
13:52:04:057,34.394,-0.121,-0.057,-0.104,19.945,-83.886,25.460
13:52:04:058,34.395,-0.057,-0.122,-0.062,19.581,-82.818,23.905
13:52:04:059,34.395,-0.040,-0.195,-0.003,19.771,-82.423,22.955
13:52:04:108,34.445,-0.036,-0.282,-0.084,20.348,-79.599,21.881
13:52:04:109,34.446,-0.015,-0.278,-0.230,20.736,-77.628,21.436
13:52:04:16,34.496,-0.012,-0.293,-0.240,21.496,-74.349,20.951
13:52:04:161,34.497,-0.007,-0.252,-0.248,22.273,-72.319,20.461
13:52:04:213,34.549,0.009,-0.166,-0.256,22.696,-71.060,20.130
13:52:04:213,34.550,0.075,-0.079,-0.268,23.196,-69.510,19.654
13:52:04:296,34.633,0.155,0.050,-0.297,23.344,-68.511,19.523
13:52:04:297,34.633,0.221,0.201,-0.292,23.302,-67.115,19.606
13:52:04:297,34.634,0.063,0.089,-0.274,23.080,-66.310,20.028
13:52:04:373,34.710,0.074,0.211,-0.304,22.735,-66.405,20.152
13:52:04:373,34.710,0.165,0.724,-0.422,21.985,-68.384,19.433
13:52:04:374,34.711,0.565,0.655,-0.311,21.676,-71.027,18.438
13:52:04:393,34.730,0.574,0.306,-0.176,22.431,-74.787,17.827
13:52:04:419,34.756,0.413,0.105,-0.081,23.591,-75.807,18.628
13:52:04:446,34.782,0.215,-0.242,-0.061,25.980,-75.212,21.742
13:52:04:472,34.808,0.149,-0.302,0.035,28.089,-74.715,26.144
13:52:04:528,34.864,0.182,-0.316,0.119,29.241,-75.577,29.025
13:52:04:529,34.865,0.184,-0.378,0.206,30.815,-77.972,33.064
13:52:04:55,34.887,0.167,-0.331,0.228,31.896,-80.434,35.172
13:52:04:578,34.915,0.165,-0.385,0.239,33.499,-84.782,36.934
13:52:04:604,34.941,0.116,-0.491,0.277,34.393,-87.974,37.553
13:52:04:656,34.992,0.260,-0.358,0.321,35.103,-92.353,38.376
13:52:04:769,35.106,0.243,-0.163,0.305,34.813,-92.596,38.472
13:52:04:77,35.106,0.283,0.094,0.360,34.855,-93.018,38.499
13:52:04:771,35.107,0.343,0.007,0.450,35.025,-92.811,38.350
13:52:04:772,35.108,0.238,-0.137,0.383,35.063,-91.771,38.464
13:52:04:787,35.124,0.368,0.154,0.517,34.436,-88.805,38.945
13:52:04:814,35.150,0.543,0.401,0.520,33.370,-86.715,38.674
13:52:04:87,35.206,0.461,0.412,0.301,30.874,-83.531,37.179
13:52:04:87,35.206,0.147,0.230,0.138,29.159,-81.891,35.812
13:52:04:945,35.281,0.065,0.231,0.151,27.191,-80.890,33.642
13:52:05:164,35.501,0.097,0.180,0.118,25.939,-82.171,31.684
13:52:05:165,35.502,0.108,0.020,0.136,25.452,-83.122,30.597
13:52:05:166,35.502,-0.055,-0.255,0.124,25.129,-83.790,29.598
13:52:05:166,35.503,-0.107,-0.283,0.040,24.836,-82.549,29.472
13:52:05:192,35.529,-0.078,-0.264,-0.057,24.022,-80.100,29.719
13:52:05:192,35.529,-0.013,-0.301,-0.088,23.457,-77.894,29.979
13:52:05:192,35.529,0.020,-0.305,-0.124,23.496,-76.934,30.091
13:52:05:193,35.530,0.037,-0.254,-0.093,23.972,-76.175,30.401
13:52:05:373,35.710,0.079,-0.227,-0.077,24.311,-75.405,30.797
13:52:05:374,35.711,0.145,-0.126,-0.031,24.924,-74.506,31.403
13:52:05:375,35.711,0.283,0.089,-0.001,25.184,-73.110,31.868
13:52:05:376,35.712,0.332,0.216,0.007,25.050,-72.251,32.102
13:52:05:401,35.738,0.190,-0.007,-0.052,24.568,-70.055,32.659
13:52:05:401,35.738,0.196,0.109,-0.047,24.149,-68.660,33.146
13:52:05:401,35.738,0.386,0.766,-0.051,23.139,-66.858,33.463
13:52:05:402,35.739,0.475,0.861,-0.039,22.632,-67.238,33.102
13:52:05:428,35.765,0.520,0.373,-0.019,22.961,-68.154,32.756
13:52:05:429,35.765,0.382,-0.046,0.105,24.382,-69.106,33.925
13:52:05:429,35.765,0.147,-0.210,0.087,25.156,-68.537,35.608
13:52:05:429,35.766,0.086,-0.257,0.048,25.747,-68.751,38.325
13:52:05:443,35.780,0.126,-0.357,0.002,25.949,-69.579,39.486
13:52:05:469,35.806,0.150,-0.401,0.088,26.434,-72.166,40.519
13:52:05:496,35.832,0.193,-0.281,0.145,27.081,-75.285,41.042
13:52:05:551,35.887,0.196,-0.272,0.168,27.589,-77.355,41.224
13:52:05:551,35.888,0.170,-0.321,0.170,28.343,-80.080,41.365
13:52:05:577,35.913,0.139,-0.395,0.203,28.801,-81.560,41.505
13:52:05:578,35.915,0.140,-0.370,0.228,29.342,-83.061,41.753
13:52:05:63,35.967,0.136,-0.241,0.320,29.555,-84.075,41.911
13:52:05:633,35.969,0.206,-0.027,0.393,29.390,-83.553,42.341
13:52:05:712,36.048,0.357,0.084,0.495,28.563,-82.004,42.721
13:52:05:712,36.048,0.267,-0.014,0.370,27.836,-79.828,43.099
13:52:05:713,36.049,0.165,-0.132,0.266,26.769,-75.753,44.150
13:52:05:732,36.068,0.402,0.105,0.411,25.827,-72.776,44.789
13:52:05:787,36.123,0.631,0.603,0.465,23.958,-67.891,45.254
13:52:05:788,36.124,0.379,0.472,0.330,22.710,-64.123,45.141
13:52:05:812,36.149,0.194,0.307,0.241,22.373,-62.751,44.597
13:52:05:839,36.175,-0.095,0.103,0.165,22.376,-62.395,43.723
13:52:05:891,36.227,-0.172,-0.176,0.116,22.723,-62.400,43.265
13:52:05:918,36.255,-0.171,-0.324,0.100,23.804,-63.041,42.760
13:52:05:919,36.255,-0.097,-0.403,0.099,24.470,-62.517,42.664
13:52:05:941,36.278,-0.003,-0.344,0.070,24.727,-60.674,42.983
13:52:05:968,36.304,0.095,-0.271,0.027,24.438,-57.902,43.496
13:52:05:995,36.331,0.099,-0.248,0.003,24.107,-56.496,43.669
13:52:06:02,36.357,0.091,-0.231,0.008,23.678,-55.190,43.469
13:52:06:047,36.383,0.093,-0.235,0.023,23.450,-55.473,43.018
13:52:06:102,36.439,0.137,0.016,0.158,21.126,-55.299,40.633
13:52:06:126,36.463,0.271,0.225,0.192,19.874,-54.128,40.012
13:52:06:152,36.489,0.211,0.179,0.144,17.146,-50.994,39.292
13:52:06:178,36.515,0.026,0.103,0.112,14.898,-47.868,38.983
13:52:06:204,36.541,-0.078,0.429,0.116,11.389,-42.548,38.413
13:52:06:23,36.567,0.104,0.941,0.093,9.044,-39.095,37.385
13:52:06:286,36.622,0.354,0.764,0.017,8.637,-38.140,36.892
13:52:06:286,36.623,0.251,0.185,0.151,8.938,-36.758,37.894
13:52:06:309,36.646,0.065,-0.102,0.281,8.668,-35.450,39.379
13:52:06:336,36.672,0.012,-0.215,0.218,6.984,-34.738,42.476
13:52:06:362,36.698,-0.086,-0.472,0.193,5.749,-35.232,44.633
13:52:06:39,36.727,-0.139,-0.498,0.227,4.793,-36.601,47.391
13:52:06:414,36.751,0.067,-0.462,0.314,4.158,-37.868,49.492
13:52:06:469,36.806,0.134,-0.299,0.322,3.310,-38.025,50.576
13:52:06:47,36.807,0.189,-0.295,0.259,2.101,-37.574,52.040
13:52:06:495,36.832,0.198,-0.315,0.233,1.874,-37.305,52.935
13:52:06:521,36.857,0.270,-0.344,0.214,2.413,-36.866,53.999
13:52:06:546,36.882,0.340,-0.239,0.303,3.367,-36.259,54.315
13:52:06:572,36.908,0.428,-0.147,0.347,3.885,-35.741,54.038
13:52:06:598,36.934,0.568,0.005,0.335,3.853,-34.374,52.690
13:52:06:626,36.963,0.384,-0.002,0.243,3.160,-32.418,51.290
13:52:06:739,37.075,0.297,0.028,0.233,2.197,-28.437,48.748
13:52:06:739,37.076,0.533,0.313,0.235,1.890,-25.428,46.831
13:52:06:74,37.076,0.561,0.439,0.120,1.885,-20.736,43.469
13:52:06:741,37.077,0.387,0.423,-0.014,2.198,-15.727,39.927
13:52:06:756,37.092,0.212,0.322,-0.022,2.564,-12.489,37.545
13:52:06:782,37.118,-0.004,0.083,0.163,3.027,-8.141,34.371
13:52:06:866,37.202,-0.066,0.063,0.198,2.873,-6.057,32.882
13:52:06:869,37.205,-0.134,0.008,0.169,2.099,-4.001,31.538
13:52:06:869,37.205,-0.026,-0.132,0.169,1.658,-3.902,31.154
13:52:06:886,37.223,-0.046,-0.187,0.188,1.611,-3.995,31.139
13:52:06:913,37.250,-0.037,-0.259,0.198,1.339,-3.408,31.085
13:52:06:969,37.306,-0.121,-0.386,0.182,1.020,-2.302,30.929
13:52:06:97,37.306,-0.124,-0.460,0.188,0.724,-0.886,30.604
13:52:06:992,37.328,-0.139,-0.441,0.180,0.716,0.148,30.050
13:52:07:018,37.354,-0.116,-0.355,0.160,0.749,0.553,29.639
13:52:07:073,37.410,-0.031,-0.173,0.157,0.947,0.708,28.901
13:52:07:074,37.411,0.029,-0.070,0.164,1.059,0.590,28.299
13:52:07:098,37.434,-0.036,0.168,0.236,0.983,0.939,27.096
13:52:07:154,37.490,-0.037,0.472,0.201,0.506,1.435,26.155
13:52:07:154,37.491,-0.082,0.422,0.241,-0.527,2.505,24.894
13:52:07:175,37.512,-0.150,0.393,0.377,-1.352,3.578,24.082
13:52:07:202,37.538,-0.203,0.531,0.420,-1.821,3.938,23.789
13:52:07:258,37.595,-0.197,0.524,0.289,-1.957,3.017,24.058
13:52:07:258,37.595,-0.054,0.241,0.090,-1.474,1.657,25.074
13:52:07:282,37.619,0.101,0.184,0.136,-0.231,-0.935,27.686
13:52:07:307,37.644,0.212,0.037,0.226,1.105,-3.896,31.113
13:52:07:334,37.670,0.220,-0.046,0.197,1.908,-6.227,33.613
13:52:07:361,37.697,0.232,-0.271,0.122,3.162,-9.500,37.408
13:52:07:386,37.722,0.257,-0.387,0.148,3.919,-10.962,39.947
13:52:07:411,37.748,0.309,-0.368,0.158,4.634,-12.136,43.726
13:52:07:497,37.833,0.297,-0.361,0.145,4.933,-12.292,47.115
13:52:07:498,37.834,0.300,-0.371,0.119,5.188,-12.001,49.077
13:52:07:499,37.835,0.321,-0.412,0.106,6.094,-12.221,51.456
13:52:07:517,37.853,0.354,-0.462,0.119,6.968,-12.468,52.575
13:52:07:543,37.880,0.421,-0.345,0.140,8.255,-12.968,53.424
13:52:07:57,37.907,0.562,-0.219,0.157,9.229,-13.514,53.531
13:52:07:654,37.990,0.732,-0.033,0.167,10.642,-14.538,52.771
13:52:07:655,37.991,0.642,-0.077,0.200,11.271,-15.003,51.267
13:52:07:655,37.992,0.545,-0.166,0.219,11.024,-14.781,50.299
13:52:07:676,38.012,0.751,0.167,0.109,9.294,-13.047,48.450
13:52:07:701,38.037,0.675,0.329,0.062,7.371,-10.751,46.813
13:52:07:727,38.064,0.465,0.340,0.072,3.959,-6.063,44.047
13:52:07:786,38.122,0.180,0.250,0.245,1.044,-1.708,40.983
13:52:07:786,38.122,0.088,0.131,0.284,-0.281,0.348,39.063
13:52:07:786,38.123,0.088,0.038,0.265,-1.306,1.567,36.621
13:52:07:864,38.201,0.078,-0.086,0.238,-1.563,2.338,35.446
13:52:07:864,38.201,0.119,-0.337,0.211,-1.533,3.376,34.442
13:52:07:865,38.202,-0.002,-0.418,0.214,-1.946,6.722,34.018
13:52:07:884,38.221,-0.028,-0.403,0.211,-2.589,9.672,33.842
13:52:07:971,38.307,-0.023,-0.302,0.197,-3.487,13.913,33.579
13:52:07:971,38.308,-0.005,-0.260,0.217,-3.818,16.002,33.260
13:52:07:971,38.308,-0.008,-0.251,0.201,-3.720,17.948,32.504
13:52:08:017,38.354,0.053,-0.224,0.189,-3.390,18.081,31.820
13:52:08:045,38.381,0.084,-0.136,0.128,-2.893,17.944,30.591
13:52:08:045,38.382,0.115,0.054,0.178,-2.580,17.681,29.120
13:52:08:098,38.435,0.140,0.313,0.233,-2.561,17.568,27.928
13:52:08:098,38.435,0.114,0.299,0.285,-2.955,17.741,25.895
13:52:08:121,38.457,0.047,0.273,0.503,-3.440,17.913,24.645
13:52:08:149,38.485,0.034,0.348,0.667,-4.225,18.372,22.871
13:52:08:174,38.510,0.049,0.601,0.364,-4.592,17.043,21.758
13:52:08:257,38.594,0.193,0.580,0.173,-4.181,16.813,21.881
13:52:08:258,38.595,0.217,0.301,0.206,-2.756,19.431,23.782
13:52:08:259,38.596,0.180,0.094,0.277,-2.249,22.696,26.371
13:52:08:279,38.616,0.047,-0.182,0.179,-2.697,27.183,31.209
13:52:08:304,38.641,0.107,-0.396,0.052,-3.159,28.782,34.878
13:52:08:331,38.667,0.210,-0.442,0.002,-3.209,29.295,40.388
13:52:08:357,38.693,0.408,-0.547,-0.074,-2.319,28.455,45.455
13:52:08:436,38.773,0.399,-0.581,-0.084,-1.300,27.778,48.144
13:52:08:465,38.802,0.372,-0.620,-0.062,0.604,26.790,50.690
13:52:08:496,38.833,0.373,-0.590,-0.080,1.753,26.267,51.283
13:52:08:496,38.833,0.416,-0.546,-0.065,2.688,25.920,51.045
13:52:08:496,38.833,0.513,-0.300,-0.045,1.938,26.606,49.865
13:52:08:517,38.853,0.606,-0.042,-0.005,0.639,27.645,48.539
13:52:08:543,38.879,0.599,0.219,-0.117,-1.674,29.739,45.400
13:52:08:568,38.904,0.473,0.107,-0.071,-3.125,31.498,42.782
13:52:08:682,39.019,0.480,0.193,-0.029,-4.900,35.209,38.737
13:52:08:682,39.019,0.515,0.724,-0.255,-6.121,40.091,33.825
13:52:08:683,39.019,0.319,0.671,-0.093,-6.738,44.079,30.152
13:52:08:683,39.020,0.119,0.229,0.238,-7.406,50.052,24.926
13:52:08:698,39.035,0.121,0.084,0.295,-7.556,53.170,21.918
13:52:08:724,39.061,0.123,0.118,0.182,-7.721,56.565,18.742
13:52:08:838,39.175,0.212,0.075,0.143,-7.991,57.690,17.476
13:52:08:839,39.176,0.278,-0.208,0.104,-8.524,59.898,16.025
13:52:08:839,39.176,0.282,-0.352,0.181,-9.219,62.819,14.721
13:52:08:841,39.178,0.237,-0.349,0.194,-9.746,64.909,13.723
13:52:08:915,39.251,0.220,-0.327,0.236,-10.448,69.124,11.920
13:52:08:915,39.251,0.240,-0.362,0.400,-10.722,71.743,10.597
13:52:08:915,39.252,0.256,-0.368,0.429,-10.891,75.241,8.471
13:52:08:995,39.331,0.225,-0.346,0.499,-10.957,77.212,6.261
13:52:08:995,39.332,0.223,-0.307,0.547,-10.977,78.075,4.750
13:52:08:995,39.332,0.217,-0.268,0.506,-10.949,77.873,2.549
13:52:09:073,39.409,0.261,-0.106,0.565,-10.949,77.622,1.066
13:52:09:073,39.409,0.366,0.133,0.691,-11.019,77.933,-1.421
13:52:09:073,39.409,0.395,0.157,0.887,-10.968,78.667,-3.219
13:52:09:094,39.430,0.405,0.191,0.987,-10.461,80.857,-5.498
13:52:09:119,39.455,0.349,0.293,1.113,-9.505,83.575,-6.193
13:52:09:146,39.482,0.319,0.159,0.978,-8.597,84.875,-4.894
13:52:09:229,39.565,0.426,0.119,0.661,-7.341,85.581,-0.319
13:52:09:23,39.566,0.433,0.355,0.477,-6.820,85.109,4.082
13:52:09:23,39.567,0.338,0.397,0.300,-6.095,82.146,11.985
13:52:09:249,39.586,0.130,0.163,-0.028,-4.530,76.704,20.229
13:52:09:305,39.641,0.232,-0.129,-0.138,-2.539,72.843,25.371
13:52:09:305,39.642,0.245,-0.293,-0.240,1.027,67.659,32.199
13:52:09:328,39.665,0.186,-0.407,-0.341,3.510,64.960,36.179
13:52:09:354,39.691,0.195,-0.472,-0.300,7.194,62.205,41.414
13:52:09:41,39.746,0.139,-0.421,-0.401,9.651,61.042,44.357
13:52:09:435,39.771,0.130,-0.420,-0.417,13.333,59.840,47.629
13:52:09:462,39.799,0.138,-0.413,-0.451,16.595,59.133,49.330
13:52:09:463,39.800,0.131,-0.399,-0.472,18.093,58.955,49.679
13:52:09:486,39.822,0.182,-0.303,-0.548,18.322,59.334,49.248
13:52:09:511,39.848,0.245,-0.094,-0.506,16.795,60.310,48.354
13:52:09:538,39.874,0.245,-0.055,-0.418,12.807,62.879,46.280
13:52:09:652,39.988,0.218,0.040,-0.402,8.214,65.939,43.542
13:52:09:653,39.989,0.178,0.395,-0.502,5.316,68.119,40.927
13:52:09:653,39.990,0.191,0.502,-0.377,1.743,72.312,36.136
13:52:09:654,39.991,0.280,0.482,-0.086,-0.291,75.615,32.469
13:52:09:671,40.008,0.404,0.321,0.153,-2.722,80.289,26.631
13:52:09:696,40.033,0.390,0.019,0.181,-4.284,83.632,21.567
13:52:09:751,40.088,0.426,-0.181,0.237,-4.751,85.079,19.120
13:52:09:752,40.089,0.461,-0.371,0.121,-5.034,86.924,16.366
13:52:09:803,40.140,0.352,-0.384,0.091,-4.954,88.478,14.830
13:52:09:804,40.141,0.297,-0.329,0.167,-4.302,91.871,12.184
13:52:09:828,40.164,0.227,-0.139,0.323,-3.399,94.728,10.030
13:52:09:853,40.190,0.207,-0.098,0.392,-1.497,98.607,6.523
13:52:09:879,40.216,0.211,-0.085,0.458,0.479,101.304,3.327
13:52:09:905,40.242,0.246,-0.067,0.503,1.418,102.024,1.477
13:52:09:961,40.297,0.287,-0.165,0.475,2.079,102.227,-0.667
13:52:09:962,40.298,0.309,-0.068,0.506,2.128,102.142,-1.758
13:52:09:986,40.322,0.328,0.037,0.562,1.960,102.525,-3.057
13:52:10:012,40.348,0.369,0.063,0.609,1.903,103.656,-4.099
13:52:10:037,40.374,0.392,-0.025,0.565,2.116,104.791,-4.464
13:52:10:064,40.400,0.499,-0.003,0.612,2.657,106.964,-4.431
13:52:10:092,40.429,0.379,0.017,0.672,3.216,108.396,-3.928
13:52:10:093,40.430,0.314,0.335,0.620,4.026,109.763,-2.404
13:52:10:116,40.452,0.247,0.390,0.511,4.985,110.819,0.272
13:52:10:171,40.507,0.204,0.262,0.413,5.227,111.595,3.043
13:52:10:172,40.508,0.209,0.044,0.330,4.638,112.285,7.991
13:52:10:196,40.532,0.210,-0.079,0.269,3.796,111.598,11.406
13:52:10:252,40.588,0.176,-0.354,0.167,2.470,108.111,16.351
13:52:10:252,40.588,0.181,-0.443,-0.002,1.887,104.557,19.311
13:52:10:303,40.639,0.175,-0.396,-0.071,1.665,98.909,23.569
13:52:10:303,40.640,0.177,-0.348,-0.151,2.407,94.751,27.727
13:52:10:413,40.750,0.165,-0.231,-0.159,3.175,93.508,30.253
13:52:10:414,40.751,0.073,-0.030,-0.206,4.206,93.657,33.572
13:52:10:415,40.751,-0.014,-0.073,-0.288,4.860,94.311,35.539
13:52:10:416,40.752,-0.001,-0.044,-0.330,6.079,94.939,37.827
13:52:10:433,40.770,-0.032,0.171,-0.521,7.236,94.803,39.253
13:52:10:486,40.823,-0.065,0.153,-0.586,7.715,94.467,39.484
13:52:10:487,40.823,0.073,0.021,-0.449,7.610,94.346,39.075
13:52:10:51,40.846,0.025,0.123,-0.455,7.084,94.538,38.373
13:52:10:565,40.901,-0.018,0.112,-0.397,5.928,95.461,36.458
13:52:10:566,40.902,0.128,0.088,-0.224,4.279,97.740,33.750
13:52:10:59,40.926,0.347,0.074,-0.083,2.906,99.583,31.544
13:52:10:615,40.952,0.525,0.133,0.058,0.948,101.115,27.860
13:52:10:641,40.978,0.453,0.118,0.095,0.056,100.677,25.139
13:52:10:668,41.004,0.381,-0.083,0.078,-0.291,99.010,21.223
13:52:10:693,41.029,0.360,-0.285,0.085,-0.002,98.447,18.920
13:52:10:748,41.085,0.370,-0.362,0.140,0.820,100.257,16.202
13:52:10:749,41.086,0.324,-0.353,0.223,1.749,103.992,14.471
13:52:10:774,41.110,0.303,-0.281,0.272,2.363,106.477,13.636
13:52:10:798,41.135,0.299,-0.203,0.281,3.343,109.051,12.651
13:52:10:825,41.161,0.276,-0.098,0.315,3.946,109.814,12.008
13:52:10:85,41.187,0.256,-0.124,0.273,4.767,109.632,11.047
13:52:10:877,41.213,0.250,-0.010,0.310,5.421,109.167,9.928
13:52:10:933,41.269,0.188,0.109,0.310,5.767,108.949,9.156
13:52:10:935,41.271,0.150,0.172,0.345,6.217,109.445,8.075
13:52:10:957,41.294,0.208,0.030,0.374,6.412,110.298,7.537
13:52:10:982,41.319,0.293,-0.062,0.379,6.406,111.989,6.918
13:52:11:01,41.346,0.373,0.407,0.584,6.157,112.533,6.454
13:52:11:035,41.372,0.380,0.584,0.646,5.400,111.512,5.520
13:52:11:09,41.426,0.184,0.391,0.508,4.782,108.674,5.183
13:52:11:091,41.427,0.113,0.153,0.356,4.643,107.051,5.779
13:52:11:142,41.479,0.182,0.004,0.216,4.558,106.325,7.998
13:52:11:143,41.479,0.237,-0.269,0.270,4.219,106.515,10.243
13:52:11:165,41.502,0.253,-0.418,0.264,3.123,106.092,14.364
13:52:11:194,41.530,0.197,-0.489,0.162,1.850,103.415,18.592
13:52:11:219,41.556,0.170,-0.445,0.084,1.220,100.747,21.427
13:52:11:244,41.581,0.114,-0.214,-0.056,0.798,96.559,25.531
13:52:11:271,41.607,0.119,-0.160,-0.120,0.887,93.974,28.074
13:52:11:351,41.687,0.102,-0.102,-0.212,1.497,90.161,31.549
13:52:11:382,41.718,0.100,-0.090,-0.237,2.220,87.932,33.452
13:52:11:383,41.719,0.104,-0.115,-0.338,3.595,84.911,35.596
13:52:11:383,41.720,0.129,-0.115,-0.348,4.978,82.908,36.967
13:52:11:431,41.768,0.101,0.062,-0.441,5.676,82.072,37.498
13:52:11:432,41.768,0.055,0.044,-0.496,6.031,82.199,37.613
13:52:11:457,41.794,0.094,-0.112,-0.336,5.620,83.001,37.471
13:52:11:481,41.817,0.056,0.041,-0.347,3.850,85.657,36.815
13:52:11:508,41.844,0.071,0.148,-0.263,1.193,88.881,35.105
13:52:11:533,41.869,0.137,0.088,-0.137,-0.642,91.147,33.431
13:52:11:559,41.896,0.329,0.219,0.034,-3.079,94.010,29.991
13:52:11:585,41.922,0.354,0.376,0.110,-4.288,95.104,27.318
13:52:11:612,41.949,0.340,0.340,0.072,-5.263,95.085,23.797
13:52:11:641,41.977,0.440,0.020,0.177,-5.408,94.688,21.541
13:52:11:667,42.003,0.471,-0.234,0.109,-5.333,94.442,20.987
13:52:11:778,42.115,0.505,-0.438,0.100,-5.380,95.205,21.372
13:52:11:779,42.115,0.449,-0.450,0.108,-5.493,96.457,22.033
13:52:11:78,42.116,0.372,-0.330,0.074,-5.715,98.646,23.179
13:52:11:781,42.117,0.344,-0.281,0.093,-5.775,100.170,23.813
13:52:11:823,42.160,0.330,-0.234,0.122,-5.878,102.802,24.407
13:52:11:85,42.187,0.389,-0.289,0.275,-5.980,105.200,24.365
13:52:11:936,42.273,0.430,-0.338,0.380,-6.021,106.226,24.011
13:52:11:936,42.273,0.386,-0.267,0.386,-6.022,106.162,23.091
13:52:11:937,42.273,0.360,0.062,0.281,-5.981,105.003,22.514
13:52:11:958,42.294,0.322,0.318,0.207,-5.919,102.718,21.557
13:52:11:958,42.294,0.287,0.283,0.197,-5.847,101.014,20.741
13:52:11:979,42.316,0.413,0.409,0.161,-6.017,100.597,20.629
13:52:12:064,42.401,0.499,0.582,0.180,-6.584,100.180,21.125
13:52:12:065,42.402,0.322,0.667,0.060,-6.849,99.683,22.257
13:52:12:066,42.402,0.176,0.627,-0.132,-5.974,97.734,24.945
13:52:12:173,42.509,0.237,0.356,-0.253,-4.478,96.818,27.147
13:52:12:173,42.510,0.197,0.123,-0.292,-1.740,96.265,30.953
13:52:12:174,42.511,0.241,-0.176,-0.229,1.065,96.549,34.899
13:52:12:175,42.511,0.216,-0.287,-0.181,2.917,96.941,37.499
13:52:12:251,42.587,0.229,-0.383,-0.240,6.182,97.215,41.295
13:52:12:251,42.588,0.172,-0.399,-0.289,8.876,96.904,43.513
13:52:12:252,42.589,0.137,-0.448,-0.386,13.372,96.515,46.149
13:52:12:253,42.589,0.188,-0.461,-0.345,17.242,96.956,47.563
13:52:12:296,42.632,0.190,-0.477,-0.343,18.875,98.180,48.040
13:52:12:32,42.657,0.151,-0.477,-0.268,19.908,101.268,48.325
13:52:12:409,42.745,0.115,-0.407,-0.235,19.923,103.926,48.220
13:52:12:41,42.746,0.085,-0.367,-0.247,19.527,107.663,47.435
13:52:12:41,42.747,-0.051,-0.236,-0.285,18.851,111.656,45.748
13:52:12:411,42.748,-0.134,-0.055,-0.312,17.968,114.142,44.100
13:52:12:426,42.762,-0.158,0.044,-0.235,15.874,118.832,40.898
13:52:12:511,42.847,-0.176,0.061,-0.161,14.291,122.712,38.386
13:52:12:511,42.847,-0.434,0.448,-0.059,12.108,129.731,34.137
13:52:12:512,42.848,-0.449,0.640,0.107,10.927,135.491,30.965
13:52:12:559,42.896,-0.322,0.594,0.325,10.141,145.320,26.756
13:52:12:561,42.897,-0.056,0.449,0.415,10.252,155.309,22.866
13:52:12:583,42.920,0.113,0.282,0.417,10.622,161.292,20.648
13:52:12:64,42.976,0.234,0.074,0.317,11.295,168.452,17.693
13:52:12:64,42.976,0.415,-0.072,0.156,11.679,171.809,15.743
13:52:12:749,43.086,0.385,-0.205,0.100,12.177,174.255,12.601
13:52:12:75,43.086,0.316,-0.293,0.092,12.731,174.734,9.316
13:52:12:751,43.087,0.322,-0.246,0.113,13.236,175.027,7.099
13:52:12:882,43.218,0.407,-0.127,0.175,15.233,178.217,1.569
13:52:12:883,43.219,0.584,-0.092,0.184,16.914,-178.400,-1.920
13:52:12:883,43.220,0.755,-0.063,0.161,18.082,-176.170,-4.400
13:52:12:884,43.221,0.846,-0.117,0.044,19.783,-173.258,-8.327
13:52:12:901,43.238,0.969,-0.181,-0.098,21.129,-171.268,-12.259
13:52:12:927,43.264,1.070,-0.131,-0.140,21.579,-170.542,-14.728
13:52:12:928,43.264,1.054,-0.183,-0.195,21.750,-169.803,-17.463
13:52:12:98,43.316,0.994,-0.225,-0.340,21.707,-169.125,-18.266
13:52:12:98,43.317,0.957,-0.298,-0.436,21.342,-166.769,-17.839
13:52:13:005,43.342,1.017,-0.192,-0.281,20.353,-166.215,-15.831
13:52:13:061,43.398,1.005,-0.006,-0.216,19.418,-165.473,-13.669
13:52:13:061,43.398,0.860,0.247,-0.119,18.070,-166.210,-8.941
13:52:13:17,43.506,0.621,0.307,-0.003,17.208,-166.758,-4.625
13:52:13:171,43.507,0.407,0.347,0.017,15.949,-167.914,2.927
13:52:13:172,43.508,0.208,0.189,0.054,15.156,-169.610,8.243
13:52:13:172,43.509,0.071,0.128,0.085,14.539,-173.906,16.418
13:52:13:187,43.523,-0.130,0.005,0.114,15.529,-178.588,23.630
13:52:13:328,43.665,-0.238,-0.107,0.108,17.033,178.397,27.819
13:52:13:329,43.666,-0.271,-0.248,0.084,19.995,174.638,33.266
13:52:13:329,43.666,-0.333,-0.284,0.082,22.266,172.536,36.194
13:52:13:33,43.667,-0.346,-0.397,0.101,25.883,170.077,39.510
13:52:13:348,43.685,-0.411,-0.423,0.079,28.955,169.363,41.471
13:52:13:348,43.685,-0.447,-0.373,0.142,30.272,169.110,42.311
13:52:13:371,43.708,-0.534,-0.232,0.218,30.859,170.884,42.885
13:52:13:397,43.733,-0.405,-0.171,0.169,30.265,172.017,42.592
13:52:13:452,43.789,-0.361,-0.156,0.105,28.098,175.043,41.092
13:52:13:453,43.789,-0.396,0.025,0.216,24.933,177.453,38.269
13:52:13:535,43.871,-0.343,0.231,0.237,22.459,179.451,35.616
13:52:13:535,43.872,-0.078,0.504,0.023,18.762,-177.257,30.513
13:52:13:536,43.873,0.014,0.576,-0.086,16.668,-175.728,26.439
13:52:13:585,43.921,0.268,0.576,-0.097,14.451,-174.757,19.936
13:52:13:585,43.922,0.239,0.091,-0.203,14.086,-174.597,16.304
13:52:13:607,43.943,0.324,-0.103,-0.307,14.510,-172.326,12.437
13:52:13:691,44.028,0.333,-0.310,-0.356,15.404,-168.513,10.785
13:52:13:692,44.029,0.348,-0.363,-0.240,16.162,-165.939,10.533
13:52:13:693,44.030,0.372,-0.241,-0.145,17.384,-162.121,10.921
13:52:13:711,44.048,0.368,-0.175,-0.030,18.208,-159.902,11.508
13:52:13:768,44.104,0.322,-0.158,0.018,19.378,-157.388,12.500
13:52:13:768,44.105,0.292,-0.236,0.027,20.290,-155.854,13.248
13:52:13:791,44.128,0.275,-0.228,0.065,20.680,-154.230,13.460
13:52:13:847,44.183,0.300,-0.055,0.153,20.894,-152.872,13.303
13:52:13:847,44.184,0.372,0.077,0.220,20.827,-151.042,12.958
13:52:13:956,44.293,0.382,0.061,0.161,20.440,-148.477,12.292
13:52:13:957,44.294,0.489,0.378,0.070,19.760,-144.708,11.621
13:52:13:958,44.295,0.647,0.705,-0.057,19.168,-143.037,10.772
13:52:13:959,44.296,0.605,0.486,-0.048,18.475,-142.013,9.170
13:52:14:004,44.341,0.407,0.104,0.058,18.454,-142.282,8.627
13:52:14:005,44.342,0.076,-0.202,-0.042,18.975,-140.150,10.112
13:52:14:086,44.422,-0.023,-0.245,-0.100,19.039,-137.251,12.515
13:52:14:086,44.422,0.019,-0.399,-0.210,17.884,-133.472,16.758
13:52:14:087,44.423,0.213,-0.405,-0.196,16.055,-133.192,19.280
13:52:14:164,44.501,0.152,-0.326,-0.081,15.111,-135.137,19.734
13:52:14:165,44.502,-0.034,-0.116,0.018,14.181,-139.837,19.170
13:52:14:166,44.503,-0.055,-0.128,0.196,13.928,-143.181,18.538
13:52:14:265,44.601,-0.037,-0.132,0.208,13.868,-146.545,17.952
13:52:14:378,44.715,0.006,-0.263,0.156,13.993,-146.304,18.212
13:52:14:379,44.715,0.035,-0.203,0.100,13.943,-144.335,18.673
13:52:14:379,44.716,0.133,0.030,0.112,13.639,-140.481,18.841
13:52:14:38,44.717,0.182,0.086,0.106,13.315,-137.711,18.378
13:52:14:433,44.769,0.315,0.161,0.027,12.943,-133.491,17.041
13:52:14:433,44.769,0.343,0.282,-0.036,13.200,-130.117,14.882
13:52:14:433,44.770,0.422,0.601,0.057,13.506,-128.495,13.087
13:52:14:433,44.770,0.434,0.580,-0.019,13.967,-125.922,10.931
13:52:14:451,44.787,0.156,0.067,-0.396,14.096,-124.323,10.049
13:52:14:451,44.788,-0.017,0.029,-0.394,13.548,-123.624,9.677
13:52:14:531,44.868,-0.166,0.114,-0.044,12.664,-124.340,10.195
13:52:14:532,44.868,-0.219,0.053,0.132,11.657,-124.564,12.439
13:52:14:533,44.869,-0.163,-0.147,0.167,11.789,-122.156,15.716
13:52:14:771,45.108,-0.088,-0.267,0.132,12.438,-119.347,17.743
13:52:14:772,45.108,0.023,-0.270,0.079,13.764,-114.774,20.001
13:52:14:773,45.109,0.052,-0.326,0.108,14.713,-112.062,20.969
13:52:14:773,45.110,0.026,-0.371,0.122,15.962,-108.846,21.717
13:52:14:903,45.239,0.032,-0.346,0.063,16.488,-106.676,21.599
13:52:14:904,45.240,0.052,-0.332,0.050,16.450,-105.584,21.025
13:52:14:904,45.241,0.095,-0.277,-0.041,16.112,-103.504,19.605
13:52:14:92,45.256,0.173,0.312,-0.197,15.642,-100.649,16.181
13:52:14:946,45.282,0.264,0.498,-0.217,15.482,-99.493,14.365
13:52:15:037,45.373,0.143,0.269,-0.280,15.326,-97.433,12.113
13:52:15:037,45.374,-0.108,-0.012,-0.385,15.299,-94.735,10.802
13:52:15:038,45.374,-0.045,0.218,-0.446,15.061,-92.957,10.227
13:52:15:038,45.374,0.204,0.771,-0.571,14.319,-91.476,9.178
13:52:15:062,45.398,0.369,0.303,-0.269,14.339,-91.377,8.980
13:52:15:062,45.398,0.187,0.047,-0.159,15.853,-91.063,10.458
13:52:15:062,45.399,-0.068,-0.146,-0.120,17.629,-89.105,14.144
13:52:15:062,45.399,-0.060,-0.333,-0.219,18.433,-87.449,17.282
13:52:15:087,45.424,0.008,-0.308,-0.183,18.991,-86.559,21.822
13:52:15:087,45.424,0.086,-0.242,-0.089,19.360,-87.194,24.311
13:52:15:088,45.424,0.174,-0.127,0.131,20.295,-89.143,27.462
13:52:15:088,45.424,0.172,-0.168,0.232,21.233,-90.473,29.287
13:52:15:133,45.469,0.172,-0.236,0.244,22.945,-91.802,31.927
13:52:15:133,45.469,0.198,-0.281,0.283,24.479,-91.793,34.576
13:52:15:244,45.581,0.226,-0.275,0.316,25.196,-91.168,36.253
13:52:15:245,45.581,0.264,-0.178,0.312,25.905,-89.967,38.229
13:52:15:245,45.582,0.315,-0.026,0.414,26.189,-89.427,38.882
13:52:15:246,45.583,0.301,-0.087,0.374,26.147,-88.725,38.791
13:52:15:348,45.685,0.189,-0.136,0.256,25.298,-87.119,38.279
13:52:15:349,45.686,0.307,0.128,0.328,24.450,-85.945,37.676
13:52:15:35,45.687,0.412,0.321,0.312,23.103,-83.546,35.961
13:52:15:351,45.688,0.348,0.287,0.170,22.277,-81.891,34.501
13:52:15:393,45.729,0.104,0.201,0.019,20.919,-79.172,32.148
13:52:15:419,45.755,-0.072,0.060,-0.055,19.557,-77.302,29.902
13:52:15:448,45.784,-0.075,0.000,-0.058,18.733,-76.843,28.580
13:52:15:448,45.785,-0.144,-0.108,-0.136,18.056,-77.010,27.065
13:52:15:471,45.807,-0.110,-0.157,-0.067,18.022,-77.194,26.335
13:52:15:499,45.835,-0.068,-0.200,-0.030,18.482,-77.373,25.700
13:52:15:524,45.860,-0.030,-0.168,-0.078,18.882,-76.435,25.585
13:52:15:637,45.973,0.064,-0.100,-0.140,19.424,-74.578,25.771
13:52:15:637,45.974,0.062,-0.067,-0.152,19.964,-72.836,26.107
13:52:15:638,45.975,0.077,-0.059,-0.123,20.306,-72.103,26.239
13:52:15:639,45.976,0.079,-0.037,-0.072,20.629,-71.805,26.233
13:52:15:684,46.020,0.125,0.097,-0.074,20.687,-71.487,26.197
13:52:15:685,46.022,0.125,0.164,-0.085,20.610,-70.886,26.168
13:52:15:736,46.073,0.134,0.188,-0.104,20.510,-69.882,26.072
13:52:15:736,46.073,0.110,0.207,-0.105,20.463,-69.510,26.075
13:52:15:847,46.184,0.072,0.225,-0.138,20.329,-68.487,26.188
13:52:15:848,46.184,0.125,0.328,-0.171,20.300,-68.324,26.352
13:52:15:848,46.185,0.254,0.300,-0.154,20.631,-68.554,26.650
13:52:15:849,46.186,0.289,0.125,-0.118,21.279,-69.791,26.949
13:52:15:864,46.201,0.266,-0.115,-0.057,22.480,-71.310,27.674
13:52:15:892,46.229,0.183,-0.250,0.011,23.413,-73.014,28.781
13:52:15:946,46.283,0.175,-0.313,-0.033,23.734,-73.967,29.660
13:52:15:947,46.283,0.138,-0.436,-0.017,24.012,-75.781,30.993
13:52:16:028,46.364,0.201,-0.301,0.034,24.159,-77.112,31.695
13:52:16:028,46.365,0.231,-0.224,0.064,24.383,-79.738,32.268
13:52:16:029,46.366,0.329,-0.114,0.141,24.745,-82.356,32.304
13:52:16:048,46.385,0.336,-0.112,0.174,25.128,-84.073,32.164
13:52:16:074,46.411,0.318,-0.149,0.196,25.715,-85.864,32.075
13:52:16:101,46.437,0.315,-0.072,0.212,25.980,-86.587,32.206
13:52:16:127,46.463,0.354,-0.022,0.267,26.140,-86.518,32.623
13:52:16:21,46.547,0.327,-0.029,0.256,25.950,-84.715,33.518
13:52:16:264,46.601,0.168,-0.164,0.203,25.455,-82.654,34.333
13:52:16:265,46.601,0.232,0.011,0.234,24.866,-81.071,34.680
13:52:16:265,46.602,0.312,0.310,0.206,23.826,-78.801,34.367
13:52:16:285,46.621,0.190,0.356,0.125,23.220,-77.762,33.456
13:52:16:311,46.647,-0.037,0.095,0.039,22.791,-77.666,31.931
13:52:16:369,46.706,-0.096,0.018,0.039,22.847,-78.165,30.962
13:52:16:369,46.706,-0.043,-0.040,0.089,23.054,-78.136,30.771
13:52:16:47,46.806,-0.051,-0.168,0.081,23.799,-77.684,31.065
13:52:16:53,46.866,-0.018,-0.308,0.062,24.528,-76.883,31.551
13:52:16:531,46.867,0.037,-0.299,0.065,25.400,-75.399,32.493
13:52:16:531,46.868,0.153,-0.198,0.064,25.695,-73.458,33.233
13:52:16:532,46.869,0.178,-0.153,0.046,25.631,-72.680,33.383
13:52:16:687,47.024,0.168,-0.103,-0.052,25.404,-71.998,33.004
13:52:16:688,47.024,0.128,-0.190,-0.006,25.346,-72.160,32.478
13:52:16:689,47.025,0.157,-0.073,-0.007,25.346,-71.854,31.728
13:52:16:69,47.026,0.283,0.092,0.023,25.021,-71.258,30.963
13:52:16:788,47.125,0.323,0.205,0.005,24.577,-70.349,30.478
13:52:16:789,47.126,0.158,0.068,-0.070,23.748,-68.858,30.021
13:52:16:872,47.209,0.083,0.220,-0.099,23.121,-67.302,29.861
13:52:16:872,47.209,0.136,0.470,-0.154,22.177,-65.422,29.573
13:52:16:873,47.209,0.192,0.647,-0.170,21.821,-64.935,28.950
13:52:16:873,47.210,0.126,0.370,-0.167,22.323,-65.961,27.876
13:52:16:892,47.229,-0.012,-0.063,-0.119,23.297,-67.169,27.641
13:52:16:893,47.229,-0.087,-0.112,-0.136,23.702,-67.894,28.047
13:52:16:924,47.261,-0.073,-0.158,-0.166,24.138,-68.568,29.111
13:52:16:925,47.262,-0.001,-0.254,-0.091,24.688,-69.820,29.940
13:52:16:926,47.263,0.070,-0.279,-0.042,25.946,-71.435,31.487
13:52:16:927,47.264,0.221,-0.174,0.045,27.426,-72.933,33.332
13:52:16:946,47.282,0.296,-0.122,0.084,28.426,-73.123,34.762
13:52:16:946,47.282,0.414,-0.104,0.113,29.896,-72.929,37.249
13:52:16:993,47.330,0.446,-0.161,0.150,30.926,-72.552,39.167
13:52:17:022,47.359,0.438,-0.199,0.241,32.570,-72.274,42.119
13:52:17:023,47.359,0.458,-0.190,0.350,33.586,-72.288,43.814
13:52:17:074,47.411,0.503,-0.309,0.510,34.686,-72.414,45.818
13:52:17:075,47.412,0.423,-0.345,0.479,34.906,-72.019,47.158
13:52:17:126,47.462,0.358,-0.331,0.444,34.430,-71.226,47.371
13:52:17:152,47.488,0.482,-0.077,0.474,32.713,-69.927,46.674
13:52:17:267,47.603,0.488,0.148,0.374,30.976,-68.290,45.652
13:52:17:267,47.604,0.373,0.235,0.254,27.922,-65.911,43.513
13:52:17:267,47.604,0.084,0.277,0.137,24.975,-64.246,40.707
13:52:17:268,47.604,-0.030,0.235,0.091,23.364,-64.119,38.790
13:52:17:343,47.680,-0.084,0.157,0.117,21.595,-64.174,36.405
13:52:17:344,47.681,-0.192,-0.016,0.088,20.806,-64.396,35.371
13:52:17:345,47.682,-0.207,-0.245,0.076,20.104,-63.020,34.681
13:52:17:346,47.683,-0.207,-0.275,0.017,19.677,-61.354,34.745
13:52:17:419,47.755,-0.090,-0.192,-0.019,19.097,-57.743,35.318
13:52:17:42,47.756,0.003,-0.126,-0.002,18.786,-54.512,35.717
13:52:17:421,47.758,0.039,-0.095,0.009,18.687,-52.794,35.689
13:52:17:441,47.778,0.040,-0.110,0.012,18.738,-51.109,35.108
13:52:17:468,47.805,0.057,-0.077,-0.021,18.709,-50.110,34.427
13:52:17:551,47.888,0.108,0.095,-0.019,18.523,-48.694,33.190
13:52:17:551,47.888,0.182,0.294,-0.072,18.018,-46.819,31.646
13:52:17:552,47.888,0.106,0.179,-0.080,17.593,-45.593,30.724
13:52:17:571,47.907,-0.017,0.063,-0.081,16.812,-42.888,29.839
13:52:17:597,47.934,0.012,0.438,-0.153,16.194,-41.082,29.639
13:52:17:623,47.960,0.125,0.838,-0.145,15.241,-38.847,29.585
13:52:17:649,47.986,0.116,0.315,-0.109,14.950,-38.357,29.996
13:52:17:676,48.012,0.110,0.056,-0.067,15.047,-38.398,31.053
13:52:17:702,48.038,-0.027,-0.174,0.004,14.946,-38.255,33.730
13:52:17:728,48.065,0.002,-0.158,0.025,14.488,-38.166,36.058
13:52:17:755,48.091,0.087,-0.192,0.101,13.771,-39.163,39.618
13:52:17:782,48.118,0.146,-0.277,0.155,13.701,-40.579,41.874
13:52:17:807,48.144,0.175,-0.333,0.207,14.441,-43.150,44.895
13:52:17:835,48.172,0.183,-0.367,0.276,15.765,-45.245,47.198
13:52:17:861,48.197,0.230,-0.368,0.306,16.798,-46.422,48.392
13:52:17:887,48.223,0.251,-0.418,0.287,18.276,-47.643,49.364
13:52:17:913,48.249,0.287,-0.362,0.329,19.017,-47.807,49.693
13:52:17:939,48.275,0.387,-0.222,0.354,19.425,-47.076,49.695
13:52:17:964,48.301,0.497,-0.060,0.361,18.748,-45.074,49.031
13:52:17:993,48.329,0.492,0.015,0.287,17.730,-43.108,48.085
13:52:18:018,48.355,0.382,-0.063,0.165,16.007,-39.408,46.156
13:52:18:044,48.380,0.513,0.122,0.186,14.903,-36.585,44.678
13:52:18:101,48.437,0.601,0.415,0.091,13.193,-31.873,41.821
13:52:18:101,48.438,0.497,0.543,-0.063,11.368,-26.954,38.369
13:52:18:122,48.459,0.185,0.336,-0.059,10.281,-23.949,36.064
13:52:18:148,48.485,0.012,0.039,0.160,8.920,-20.573,33.521
13:52:18:174,48.511,0.008,0.000,0.212,7.924,-19.101,32.732
13:52:18:201,48.537,-0.009,-0.047,0.267,6.399,-17.574,32.811
13:52:18:227,48.563,0.063,-0.282,0.283,5.774,-16.536,33.258
13:52:18:253,48.590,0.035,-0.341,0.257,5.133,-13.248,33.968
13:52:18:279,48.616,-0.021,-0.296,0.182,4.522,-8.173,34.427
13:52:18:308,48.645,-0.030,-0.232,0.123,4.218,-4.619,34.456
13:52:18:334,48.670,-0.080,-0.191,0.119,4.030,0.165,33.857
13:52:18:361,48.697,-0.114,-0.096,0.071,4.104,2.742,32.956
13:52:18:414,48.750,-0.144,-0.038,0.066,4.469,5.575,30.815
13:52:18:414,48.751,-0.196,0.010,0.046,5.166,7.550,28.024
13:52:18:437,48.773,-0.203,0.125,0.040,5.725,8.623,26.008
13:52:18:465,48.802,-0.311,0.360,0.072,6.298,10.292,22.988
13:52:18:519,48.855,-0.351,0.347,0.124,6.412,11.452,21.238
13:52:18:52,48.856,-0.480,0.052,0.358,6.246,12.908,19.447
13:52:18:543,48.880,-0.611,0.073,0.527,6.012,13.359,18.781
13:52:18:569,48.905,-0.531,0.615,0.411,5.444,12.037,18.757
13:52:18:596,48.932,-0.260,0.606,0.319,5.302,9.249,20.451
13:52:18:681,49.018,-0.129,0.258,0.374,5.742,7.456,22.874
13:52:18:682,49.019,-0.026,0.221,0.349,6.861,4.897,27.743
13:52:18:682,49.019,0.128,0.088,0.252,8.073,3.097,31.696
13:52:18:729,49.065,0.195,-0.002,0.199,11.017,0.431,37.902
13:52:18:729,49.066,0.356,-0.217,0.092,15.445,-1.827,44.023
13:52:18:783,49.120,0.439,-0.204,0.040,18.916,-2.686,47.956
13:52:18:783,49.120,0.464,-0.340,-0.060,24.458,-2.738,53.491
13:52:18:805,49.141,0.507,-0.451,-0.101,28.349,-2.214,56.858
13:52:18:831,49.167,0.476,-0.543,-0.168,34.176,-0.889,61.279
13:52:18:886,49.222,0.487,-0.629,-0.202,37.674,0.301,63.696
13:52:18:887,49.223,0.522,-0.637,-0.256,41.264,2.237,66.389
13:52:18:909,49.246,0.619,-0.559,-0.289,41.724,4.226,67.565
13:52:18:966,49.303,0.660,-0.482,-0.249,39.976,5.393,67.329
13:52:18:967,49.303,0.641,-0.356,-0.106,34.386,7.002,65.559
13:52:19:047,49.383,0.904,-0.022,-0.265,29.539,7.688,63.627
13:52:19:047,49.384,0.795,0.090,-0.174,21.479,8.330,59.147
13:52:19:048,49.384,0.555,0.225,0.183,14.736,8.485,53.305
13:52:19:068,49.404,0.471,0.350,0.306,11.698,7.850,48.955
13:52:19:093,49.430,0.409,0.236,0.325,9.290,5.833,42.814
13:52:19:18,49.517,0.269,0.205,0.294,8.140,5.281,39.296
13:52:19:181,49.518,0.161,0.039,0.321,6.205,7.627,34.909
13:52:19:182,49.519,-0.011,0.010,0.352,4.588,11.989,31.399
13:52:19:183,49.520,-0.018,-0.091,0.347,3.894,15.002,29.387
13:52:19:2,49.536,-0.099,-0.108,0.328,3.165,19.720,26.756
13:52:19:226,49.562,-0.088,-0.089,0.334,2.945,22.625,25.281
13:52:19:251,49.588,-0.119,-0.072,0.306,3.046,26.245,23.327
13:52:19:277,49.614,-0.135,-0.086,0.292,3.421,28.003,22.053
13:52:19:362,49.698,-0.156,-0.132,0.254,4.184,30.405,20.167
13:52:19:362,49.699,-0.197,0.019,0.214,5.074,31.888,18.057
13:52:19:363,49.700,-0.249,0.174,0.138,5.656,32.639,16.471
13:52:19:382,49.719,-0.325,0.247,0.172,6.440,33.627,14.036
13:52:19:408,49.745,-0.343,0.195,0.269,6.777,34.129,12.606
13:52:19:435,49.771,-0.395,0.367,0.290,6.996,34.870,11.029
13:52:19:52,49.857,-0.399,0.438,0.306,7.202,35.946,10.649
13:52:19:52,49.857,-0.346,0.342,0.261,7.346,37.103,11.446
13:52:19:521,49.857,-0.200,0.035,0.203,7.293,39.441,14.432
13:52:19:54,49.877,-0.059,-0.038,0.181,6.774,40.929,17.485
13:52:19:566,49.903,0.189,-0.187,0.220,5.045,41.526,22.860
13:52:19:621,49.958,0.217,-0.377,0.099,3.778,39.759,26.299
13:52:19:622,49.958,0.236,-0.349,-0.036,2.943,34.858,30.528
13:52:19:675,50.012,0.429,-0.317,-0.074,3.201,30.994,32.998
13:52:19:675,50.012,0.404,-0.190,-0.051,3.431,29.955,34.125
13:52:19:697,50.034,0.347,-0.216,-0.066,3.570,29.261,35.984
13:52:19:752,50.089,0.386,-0.269,-0.042,3.575,28.892,37.230
13:52:19:753,50.089,0.438,-0.251,-0.040,3.675,28.565,38.954
13:52:19:776,50.113,0.602,-0.110,-0.163,3.825,28.007,40.193
13:52:19:86,50.197,0.636,-0.033,-0.207,3.788,28.545,40.591
13:52:19:861,50.198,0.577,-0.087,-0.139,3.211,30.003,40.448
13:52:19:862,50.198,0.541,-0.053,-0.092,2.612,31.955,39.855
13:52:19:91,50.246,0.653,0.288,-0.257,1.751,34.534,38.195
13:52:19:911,50.247,0.469,0.514,-0.172,1.079,36.743,36.482
13:52:19:934,50.271,0.374,0.352,0.036,-0.035,39.430,33.663
13:52:19:96,50.296,0.359,0.157,0.314,-0.927,40.037,30.682
13:52:19:986,50.323,0.391,0.067,0.322,-1.410,39.247,29.134
13:52:20:012,50.348,0.411,-0.016,0.286,-1.969,37.923,27.703
13:52:20:038,50.375,0.421,-0.143,0.283,-2.306,38.215,27.151
13:52:20:065,50.401,0.298,-0.364,0.285,-2.610,41.301,26.549
13:52:20:09,50.427,0.191,-0.382,0.233,-2.429,45.531,25.995
13:52:20:117,50.454,0.131,-0.367,0.198,-2.113,48.353,25.710
13:52:20:202,50.538,0.159,-0.272,0.122,-1.534,52.538,25.272
13:52:20:203,50.539,0.107,-0.199,0.106,-1.128,54.565,24.780
13:52:20:204,50.540,0.126,-0.128,0.062,-0.591,57.146,23.693
13:52:20:251,50.588,0.078,-0.124,-0.026,-0.153,59.191,22.273
13:52:20:252,50.589,0.047,-0.113,0.035,0.039,60.893,21.201
13:52:20:356,50.692,0.043,0.049,0.216,-0.035,63.321,19.110
13:52:20:388,50.725,0.029,0.055,0.303,-0.336,64.557,17.402
13:52:20:389,50.725,0.046,-0.090,0.511,-1.001,64.584,14.738
13:52:20:39,50.726,0.114,0.121,0.594,-1.603,63.832,12.889
13:52:20:391,50.727,0.056,0.563,0.637,-2.798,61.556,10.234
13:52:20:407,50.743,-0.069,0.585,0.468,-3.395,59.590,8.724
13:52:20:49,50.827,-0.076,0.226,0.321,-3.070,59.617,9.082
13:52:20:491,50.828,0.194,-0.140,0.395,-2.368,62.207,11.643
13:52:20:492,50.828,0.271,-0.334,0.475,-2.748,65.066,14.473
13:52:20:6,50.936,0.320,-0.258,0.537,-4.943,69.299,19.919
13:52:20:6,50.936,0.370,-0.077,0.467,-7.656,71.163,26.043
13:52:20:6,50.937,0.431,0.030,0.345,-8.707,70.585,30.135
13:52:20:601,50.937,0.568,0.066,-0.083,-9.089,68.220,36.063
13:52:20:615,50.952,0.559,-0.043,-0.217,-8.792,66.909,39.510
13:52:20:642,50.979,0.472,-0.157,-0.169,-8.206,66.205,44.203
13:52:20:668,51.005,0.436,-0.311,-0.218,-7.762,66.031,46.971
13:52:20:695,51.031,0.406,-0.429,-0.172,-6.906,65.924,50.291
13:52:20:721,51.057,0.378,-0.490,-0.198,-5.722,65.635,52.568
13:52:20:747,51.084,0.417,-0.441,-0.298,-4.713,65.210,53.386
13:52:20:803,51.140,0.416,-0.297,-0.400,-3.467,64.814,53.173
13:52:20:803,51.140,0.410,-0.237,-0.424,-3.067,65.050,51.957
13:52:20:826,51.162,0.392,-0.139,-0.359,-3.304,66.683,48.772
13:52:20:852,51.188,0.301,0.188,-0.463,-3.840,69.856,44.190
13:52:20:881,51.218,0.195,0.557,-0.398,-4.078,72.799,40.219
13:52:20:906,51.243,0.134,0.687,-0.258,-3.852,78.157,32.983
13:52:20:932,51.269,0.181,0.572,0.150,-2.968,83.964,25.245
13:52:20:985,51.321,0.150,0.334,0.226,-2.222,87.237,21.000
13:52:21:063,51.400,0.172,-0.012,0.316,-1.035,91.337,16.589
13:52:21:098,51.435,0.273,-0.247,0.377,-0.482,94.014,14.932
13:52:21:099,51.435,0.287,-0.374,0.340,-0.096,97.137,14.058
13:52:21:099,51.436,0.250,-0.278,0.249,0.045,98.422,14.263
13:52:21:1,51.437,0.216,-0.236,0.216,0.332,99.727,15.210
13:52:21:144,51.480,0.182,-0.199,0.170,0.730,101.193,16.399
13:52:21:144,51.481,0.155,-0.207,0.151,1.084,102.158,17.033
13:52:21:167,51.504,0.118,-0.220,0.101,1.721,103.324,17.406
13:52:21:222,51.559,0.140,-0.188,0.177,2.187,103.784,17.070
13:52:21:223,51.560,0.175,-0.185,0.178,2.956,103.722,15.934
13:52:21:248,51.584,0.190,-0.004,0.274,3.876,103.432,14.000
13:52:21:301,51.637,0.217,0.119,0.334,4.589,103.305,12.460
13:52:21:302,51.638,0.179,0.005,0.333,5.705,103.580,10.206
13:52:21:324,51.661,0.287,0.098,0.446,6.313,104.287,8.983
13:52:21:351,51.688,0.285,0.387,0.546,6.855,106.493,7.721
13:52:21:377,51.713,0.278,0.484,0.531,6.866,108.120,7.209
13:52:21:437,51.774,0.230,0.327,0.478,6.333,109.545,7.439
13:52:21:437,51.774,0.099,-0.043,0.284,5.231,109.235,9.370
13:52:21:438,51.775,0.247,-0.156,0.164,4.214,108.691,11.413
13:52:21:458,51.794,0.271,-0.233,0.099,2.510,106.881,14.502
13:52:21:54,51.877,0.224,-0.252,0.130,1.447,105.101,16.486
13:52:21:541,51.877,0.168,-0.288,0.143,0.345,102.111,19.144
13:52:21:542,51.878,0.169,-0.282,0.061,-0.224,98.608,21.501
13:52:21:587,51.924,0.162,-0.238,0.054,-0.353,96.151,22.994
13:52:21:749,52.086,0.141,-0.272,-0.033,-0.005,92.400,25.059
