Time,Second,AccelerationX,AccelerationY,AccelerationZ,EulerAnglesX,EulerAnglesY,EulerAnglesZ
13:51:29:826,0.000,0.019,-0.003,0.026,7.881,-12.110,-17.860
13:51:29:904,0.077,-0.063,-0.007,-0.017,8.363,-10.664,-18.071
13:51:29:98,0.154,-0.052,-0.020,-0.022,8.444,-10.648,-18.171
13:51:30:35,0.523,-0.045,-0.028,-0.019,8.451,-10.845,-18.235
13:51:30:438,0.612,-0.051,-0.013,-0.014,8.434,-10.991,-18.231
13:51:30:438,0.612,-0.038,-0.002,-0.005,8.393,-11.273,-18.186
13:51:30:438,0.612,-0.011,0.007,0.002,8.325,-11.698,-18.170
13:51:30:439,0.612,0.010,-0.001,0.019,8.264,-12.021,-18.149
13:51:30:514,0.687,0.035,-0.005,0.024,8.188,-12.520,-18.146
13:51:30:515,0.688,0.017,-0.004,0.010,8.340,-13.509,-19.017
13:51:30:515,0.689,0.021,0.003,0.005,8.316,-13.494,-19.005
13:51:30:796,0.970,0.016,0.004,0.009,8.312,-13.454,-19.012
13:51:31:246,1.420,0.006,-0.007,-0.001,8.316,-13.323,-19.013
13:51:31:247,1.421,-0.005,-0.002,0.000,8.244,-13.190,-18.954
13:51:31:248,1.422,0.001,-0.003,0.006,8.224,-13.256,-18.915
13:51:31:33,1.503,0.010,-0.008,0.003,8.160,-13.428,-18.836
13:51:31:33,1.504,-0.004,-0.014,0.008,8.135,-13.500,-19.017
13:51:31:331,1.504,0.020,0.023,0.013,6.381,-17.540,-19.164
13:51:31:332,1.505,0.011,0.042,0.003,6.357,-18.610,-18.446
13:51:31:408,1.581,-0.029,-0.048,-0.027,6.498,-18.637,-18.464
13:51:31:409,1.582,-0.030,-0.077,-0.009,6.601,-18.770,-18.511
13:51:31:41,1.583,-0.028,-0.055,-0.014,6.560,-18.871,-18.461
13:51:31:411,1.584,0.002,-0.002,0.019,6.574,-11.423,-16.993
13:51:31:932,2.106,0.004,0.001,0.013,6.537,-11.834,-17.048
13:51:31:933,2.106,0.033,-0.002,0.001,6.497,-14.099,-17.224
13:51:31:934,2.107,0.008,-0.002,-0.001,6.804,-12.069,-17.323
13:51:31:934,2.108,0.008,0.000,0.004,6.802,-12.060,-17.347
13:51:31:958,2.132,0.008,0.001,0.001,6.803,-11.962,-17.369
13:51:31:959,2.132,0.004,-0.007,0.002,6.816,-11.813,-17.393
13:51:31:96,2.134,0.001,-0.006,0.001,6.826,-11.702,-17.408
13:51:32:003,2.176,-0.012,-0.005,-0.002,6.848,-11.431,-17.448
13:51:32:028,2.201,-0.011,-0.003,0.000,6.845,-11.285,-17.456
13:51:32:327,2.500,0.033,0.003,0.012,6.484,-12.161,-17.602
13:51:32:327,2.501,-0.008,-0.014,0.010,6.085,-11.612,-16.952
13:51:32:328,2.501,-0.013,-0.009,0.007,6.028,-11.928,-16.777
13:51:32:329,2.502,-0.075,-0.011,0.002,6.053,-13.139,-16.180
13:51:32:404,2.578,-0.113,-0.018,-0.013,6.131,-14.415,-15.555
13:51:32:405,2.579,-0.180,-0.027,-0.027,6.245,-15.484,-14.972
13:51:32:406,2.579,-0.276,-0.085,-0.080,6.466,-17.357,-13.591
13:51:32:407,2.580,-0.233,-0.073,-0.086,6.663,-18.998,-12.379
13:51:32:484,2.657,-0.188,-0.081,-0.068,7.132,-21.861,-10.348
13:51:32:484,2.657,-0.194,0.023,-0.139,7.791,-24.097,-8.064
13:51:32:485,2.658,-0.128,0.153,-0.072,8.317,-24.888,-6.289
13:51:32:485,2.659,-0.072,0.131,-0.070,8.860,-24.783,-3.441
13:51:32:536,2.710,0.406,0.005,0.339,12.573,-35.985,14.955
13:51:32:537,2.711,0.394,0.002,0.303,12.103,-34.539,14.211
13:51:32:538,2.712,0.378,0.125,0.287,11.334,-32.408,12.643
13:51:32:538,2.712,0.435,0.305,0.314,10.883,-31.256,11.319
13:51:32:584,2.758,0.408,0.242,0.230,10.509,-29.792,8.897
13:51:32:585,2.758,0.296,0.064,0.139,10.291,-28.660,5.803
13:51:32:615,2.789,0.252,-0.052,0.099,10.172,-27.862,3.292
13:51:32:616,2.789,0.161,0.029,-0.021,10.119,-26.074,-1.054
13:51:32:616,2.789,0.063,0.166,-0.104,10.262,-24.384,-4.223
13:51:32:617,2.790,0.007,0.186,-0.151,10.896,-21.523,-9.098
13:51:32:667,2.840,-0.282,-0.310,-0.261,14.466,-16.503,-32.708
13:51:32:668,2.841,-0.309,-0.354,-0.229,14.796,-15.450,-34.714
13:51:32:669,2.842,-0.337,-0.366,-0.222,14.839,-14.748,-35.734
13:51:32:669,2.843,-0.336,-0.375,-0.189,14.540,-13.735,-36.789
13:51:32:692,2.865,-0.333,-0.363,-0.168,13.604,-13.124,-37.168
13:51:32:692,2.866,-0.333,-0.319,-0.157,12.520,-12.997,-37.002
13:51:32:693,2.866,-0.412,-0.006,-0.189,10.380,-13.319,-35.957
13:51:32:771,2.944,-0.392,0.191,-0.181,8.908,-13.809,-34.525
13:51:32:771,2.945,-0.317,0.440,-0.203,6.971,-14.610,-31.099
13:51:32:772,2.945,-0.243,0.652,-0.150,6.405,-14.921,-27.917
13:51:32:827,3.000,0.063,0.384,0.023,6.332,-14.567,-22.024
13:51:32:827,3.000,0.132,0.108,0.155,6.586,-13.148,-15.962
13:51:32:827,3.001,-0.103,-0.014,0.171,6.845,-11.833,-12.562
13:51:32:827,3.001,0.091,0.012,0.287,6.657,-11.435,-9.131
13:51:32:903,3.077,-0.010,-0.039,0.426,5.640,-14.547,-8.296
13:51:32:904,3.077,0.047,-0.004,0.391,4.879,-18.645,-8.940
13:51:32:905,3.078,0.306,-0.069,0.370,3.571,-26.718,-11.062
13:51:32:905,3.079,0.107,-0.124,0.155,2.878,-30.550,-12.730
13:51:32:929,3.103,0.079,-0.105,0.111,2.803,-32.910,-14.918
13:51:32:93,3.104,0.062,-0.151,-0.033,3.283,-33.209,-16.023
13:51:32:931,3.105,0.065,-0.154,-0.035,4.392,-32.527,-16.986
13:51:32:931,3.105,0.044,-0.162,-0.050,5.507,-31.679,-17.143
13:51:32:98,3.153,0.018,-0.161,-0.056,6.164,-31.290,-16.838
13:51:32:98,3.153,0.079,-0.125,0.004,6.864,-31.241,-15.900
13:51:32:98,3.154,0.133,-0.127,0.094,7.129,-31.329,-15.010
13:51:33:22,3.394,0.197,0.014,0.220,7.477,-30.916,-13.325
13:51:33:22,3.394,0.215,0.338,0.168,8.187,-29.432,-11.295
13:51:33:221,3.394,0.242,0.456,0.090,8.773,-27.876,-9.823
13:51:33:221,3.395,0.208,0.563,0.143,9.578,-25.510,-7.933
13:51:33:27,3.444,0.234,0.141,0.150,10.000,-24.085,-7.030
13:51:33:271,3.445,0.159,-0.047,0.034,10.792,-21.535,-7.000
13:51:33:272,3.446,0.062,0.094,-0.053,11.558,-18.435,-8.394
13:51:33:376,3.549,-0.349,0.080,-0.143,12.978,-14.064,-12.852
13:51:33:376,3.550,-0.184,-0.071,-0.100,13.388,-14.063,-14.559
13:51:33:377,3.551,-0.067,-0.127,-0.118,13.916,-15.780,-16.930
13:51:33:378,3.551,-0.155,-0.174,-0.166,14.127,-18.502,-19.080
13:51:33:428,3.602,-0.188,-0.185,-0.189,14.255,-20.084,-20.174
13:51:33:429,3.602,-0.201,-0.229,-0.224,14.637,-21.397,-21.415
13:51:33:43,3.603,-0.270,-0.341,-0.212,14.983,-21.491,-21.984
13:51:33:431,3.604,-0.258,-0.374,-0.191,15.590,-20.965,-22.386
13:51:33:448,3.621,-0.286,-0.318,-0.237,16.258,-20.238,-22.544
13:51:33:449,3.622,-0.323,-0.289,-0.251,16.603,-19.916,-22.593
13:51:33:5,3.674,-0.313,-0.276,-0.205,16.804,-19.965,-22.610
13:51:33:501,3.675,-0.320,-0.140,-0.234,16.703,-20.379,-22.644
13:51:33:58,3.754,-0.366,0.141,-0.303,16.392,-21.428,-22.638
13:51:33:581,3.755,-0.220,0.350,-0.169,15.771,-22.552,-22.080
13:51:33:718,3.891,-0.088,0.248,-0.017,15.042,-22.855,-21.309
13:51:33:718,3.891,0.039,0.273,0.070,14.174,-22.190,-19.894
13:51:33:718,3.892,0.034,0.268,0.066,13.915,-20.953,-18.854
13:51:33:719,3.893,0.048,0.214,0.080,13.691,-18.458,-17.358
13:51:33:74,3.914,0.087,0.108,0.158,13.336,-16.763,-16.438
13:51:33:741,3.915,0.105,-0.080,0.150,12.911,-14.906,-15.632
13:51:33:742,3.916,0.144,-0.096,0.161,12.562,-13.402,-15.471
13:51:33:82,3.994,0.196,0.021,0.157,12.445,-12.883,-15.549
13:51:33:821,3.994,0.240,0.089,0.172,12.541,-11.143,-15.759
13:51:33:821,3.994,0.215,0.094,0.142,12.781,-10.302,-16.005
13:51:33:899,4.072,0.179,0.115,0.105,13.364,-8.330,-16.605
13:51:33:899,4.072,0.091,0.122,0.028,14.225,-6.694,-17.485
13:51:33:899,4.072,0.056,0.021,0.015,14.910,-4.933,-18.263
13:51:33:975,4.149,-0.020,-0.184,-0.039,15.895,-3.496,-19.819
13:51:33:975,4.149,-0.125,-0.205,-0.077,16.466,-2.166,-21.007
13:51:34:03,4.204,-0.261,-0.199,-0.086,17.201,-1.452,-22.574
13:51:34:031,4.204,-0.324,-0.200,-0.128,17.718,-1.094,-23.517
13:51:34:031,4.204,-0.327,-0.151,-0.202,17.804,-1.934,-23.632
13:51:34:109,4.283,-0.352,-0.225,-0.218,17.343,-4.048,-23.385
13:51:34:109,4.283,-0.418,-0.263,-0.167,16.558,-6.019,-22.921
13:51:34:189,4.363,-0.300,0.015,-0.100,13.790,-11.021,-18.980
13:51:34:19,4.364,-0.314,0.090,-0.181,13.335,-11.402,-16.911
13:51:34:191,4.365,-0.378,0.139,-0.179,12.792,-11.161,-13.396
13:51:34:321,4.494,-0.235,0.186,0.013,12.157,-10.776,-10.653
13:51:34:321,4.495,-0.071,0.294,0.180,11.223,-10.291,-6.086
13:51:34:322,4.496,0.107,0.280,0.199,10.693,-9.734,-1.227
13:51:34:323,4.496,0.148,0.220,0.224,10.516,-9.822,2.108
13:51:34:399,4.572,0.224,0.034,0.346,10.488,-10.835,6.938
13:51:34:4,4.573,0.273,0.071,0.312,10.891,-12.159,10.124
13:51:34:401,4.574,0.533,0.113,0.314,12.656,-15.593,14.337
13:51:34:401,4.575,0.713,0.013,0.387,14.509,-18.416,16.730
13:51:34:417,4.590,0.847,-0.136,0.479,17.789,-22.196,19.601
13:51:34:557,4.731,1.020,-0.168,0.528,20.846,-24.669,21.462
13:51:34:558,4.732,1.139,-0.404,0.733,22.388,-25.448,22.098
13:51:34:559,4.733,1.180,-0.437,0.582,23.411,-23.675,22.696
13:51:34:714,4.888,0.999,0.128,0.072,21.487,-14.330,22.360
13:51:34:715,4.889,0.919,0.368,-0.277,20.341,-8.431,20.353
13:51:34:716,4.889,0.728,0.343,-0.413,20.212,-4.848,18.266
13:51:34:717,4.890,0.503,0.201,-0.419,21.129,-1.036,14.075
13:51:34:767,4.941,0.399,0.165,-0.451,22.270,0.117,10.455
13:51:34:768,4.942,0.281,0.185,-0.520,24.144,-0.187,3.532
13:51:34:769,4.943,0.133,0.218,-0.580,25.392,-1.475,-4.313
13:51:34:77,4.943,0.002,0.114,-0.598,25.729,-1.969,-9.575
13:51:34:784,4.958,-0.154,0.115,-0.553,25.791,-0.472,-16.385
13:51:34:843,5.016,-0.269,0.080,-0.579,26.233,2.448,-20.111
13:51:34:843,5.017,-0.424,-0.076,-0.574,27.865,9.000,-24.664
13:51:34:844,5.018,-0.601,-0.196,-0.476,30.561,16.637,-28.271
13:51:34:863,5.036,-0.658,-0.302,-0.328,32.713,21.744,-30.321
13:51:34:918,5.092,-0.912,-0.290,-0.258,36.097,28.251,-33.346
13:51:34:945,5.118,-0.904,-0.388,-0.186,38.001,31.210,-35.295
13:51:34:945,5.119,-0.895,-0.416,-0.118,39.344,33.051,-38.265
13:51:34:999,5.173,-1.004,-0.232,-0.081,38.944,32.157,-40.989
13:51:34:999,5.173,-1.081,-0.231,-0.034,38.030,30.493,-42.259
13:51:35:05,5.224,-0.834,-0.751,0.350,35.172,27.830,-42.301
13:51:35:05,5.224,-0.674,-0.902,0.845,31.681,26.583,-40.856
13:51:35:073,5.246,0.035,0.379,0.544,26.232,26.330,-36.087
13:51:35:133,5.306,-0.453,0.266,0.504,25.425,30.747,-29.359
13:51:35:133,5.306,-0.828,0.334,0.429,25.373,36.336,-23.436
13:51:35:133,5.306,-0.614,0.516,0.316,24.004,45.790,-12.834
13:51:35:21,5.383,-0.465,0.545,0.224,22.600,51.864,-5.642
13:51:35:211,5.384,-0.232,0.490,0.128,20.356,57.660,3.770
13:51:35:211,5.385,0.113,0.654,-0.060,18.428,58.677,11.248
13:51:35:23,5.404,0.350,0.502,-0.272,17.968,56.970,15.535
13:51:35:287,5.460,0.775,0.006,-0.424,18.710,52.307,20.889
13:51:35:287,5.460,0.970,-0.427,-0.359,20.017,48.876,23.641
13:51:35:396,5.570,1.013,-0.490,-0.373,22.574,44.566,26.765
13:51:35:397,5.571,0.928,-0.274,-0.642,24.461,42.867,29.221
13:51:35:398,5.571,0.957,-0.131,-0.825,24.968,42.945,30.380
13:51:35:399,5.572,0.913,-0.389,-0.688,24.968,44.379,31.262
13:51:35:443,5.617,0.848,-0.436,-0.622,24.578,45.954,31.378
13:51:35:444,5.617,0.831,-0.383,-0.643,23.800,48.465,30.645
13:51:35:519,5.693,0.612,-0.097,-0.941,23.327,50.331,29.362
13:51:35:549,5.723,0.386,0.106,-1.077,22.813,54.329,26.408
13:51:35:55,5.724,0.004,0.224,-0.695,22.587,58.967,21.815
13:51:35:574,5.748,-0.152,0.396,-0.566,22.797,61.472,17.706
13:51:35:575,5.749,-0.363,0.537,-0.382,23.946,64.551,10.945
13:51:35:599,5.773,-0.361,0.306,-0.359,25.139,65.976,6.663
13:51:35:655,5.828,-0.445,0.091,-0.285,27.185,67.372,0.322
13:51:35:655,5.828,-0.520,0.017,-0.204,29.257,67.887,-5.799
13:51:35:676,5.850,-0.531,0.052,-0.082,30.542,68.343,-9.594
13:51:35:732,5.906,-0.706,0.020,0.049,32.805,70.392,-14.174
13:51:35:732,5.906,-0.736,-0.051,0.207,34.492,72.583,-16.626
13:51:35:756,5.930,-0.713,-0.170,0.384,37.063,75.584,-19.959
13:51:35:811,5.985,-0.678,-0.263,0.618,39.447,77.746,-22.854
13:51:35:812,5.985,-0.551,-0.498,0.726,40.501,78.380,-24.682
13:51:35:834,6.007,-0.382,-0.533,0.788,40.545,77.887,-27.088
13:51:35:889,6.063,-0.471,-0.225,0.914,39.886,76.978,-28.262
13:51:35:89,6.064,-0.634,-0.426,1.212,38.687,75.891,-29.003
13:51:35:912,6.086,-0.427,-0.386,1.073,35.969,75.513,-27.901
13:51:35:969,6.142,-0.288,-0.003,1.003,33.434,75.973,-26.010
13:51:35:969,6.142,-0.320,0.417,0.871,30.106,77.939,-21.574
13:51:36:021,6.195,-0.289,0.438,0.723,27.983,80.361,-17.583
13:51:36:022,6.195,-0.293,0.326,0.717,24.660,84.818,-10.903
13:51:36:045,6.219,-0.178,0.296,0.372,21.472,87.749,-4.437
13:51:36:128,6.302,-0.134,0.264,0.251,19.498,88.200,-0.408
13:51:36:129,6.303,-0.112,0.179,0.143,16.982,86.880,5.395
13:51:36:13,6.303,-0.057,0.243,-0.193,15.804,84.106,8.927
13:51:36:202,6.376,0.096,0.392,-0.437,15.111,78.154,13.962
13:51:36:425,6.599,0.346,0.280,-0.769,16.125,70.986,18.811
13:51:36:425,6.599,0.524,0.159,-1.026,17.550,66.503,21.933
13:51:36:425,6.599,0.584,-0.210,-1.028,20.069,61.965,26.367
13:51:36:425,6.599,0.824,-0.329,-1.002,21.210,59.916,28.749
13:51:36:472,6.645,0.971,-0.482,-0.966,22.730,57.874,31.249
13:51:36:473,6.646,1.039,-0.583,-1.003,23.183,56.945,32.151
13:51:36:474,6.647,0.973,-0.565,-0.990,23.216,57.360,32.333
13:51:36:494,6.668,0.633,-0.345,-0.977,23.444,56.828,30.162
13:51:36:495,6.668,0.410,-0.050,-1.003,23.973,56.323,27.192
13:51:36:569,6.743,0.235,0.361,-0.873,24.352,55.084,20.356
13:51:36:596,6.770,0.125,0.525,-0.750,24.066,54.344,14.730
13:51:36:657,6.831,-0.171,0.568,-0.558,22.876,53.768,5.453
13:51:36:658,6.832,-0.273,0.454,-0.340,21.276,54.439,-3.535
13:51:36:659,6.832,-0.300,0.310,-0.238,20.544,56.111,-8.887
13:51:36:66,6.833,-0.398,0.072,-0.051,20.439,61.235,-15.606
13:51:36:709,6.883,-0.402,-0.089,0.095,21.320,65.446,-19.366
13:51:36:71,6.884,-0.419,-0.084,0.155,23.793,71.509,-24.220
13:51:36:711,6.884,-0.595,0.037,0.394,27.797,77.355,-28.343
13:51:36:712,6.885,-0.718,0.011,0.672,31.149,80.912,-30.899
13:51:36:733,6.906,-0.840,-0.204,0.976,36.848,85.475,-34.454
13:51:36:733,6.906,-0.681,-0.574,1.106,40.098,87.638,-36.343
13:51:36:734,6.907,-0.240,-0.955,1.209,42.516,87.950,-39.338
13:51:36:812,6.985,-0.116,-0.802,1.389,41.681,85.042,-42.146
13:51:36:812,6.985,-0.476,-0.728,1.094,40.460,83.031,-42.194
13:51:36:813,6.986,-0.147,-0.653,1.161,37.246,83.251,-37.945
13:51:36:861,7.034,-0.104,0.035,1.305,34.109,86.783,-32.268
13:51:36:862,7.035,-0.295,0.428,1.282,29.983,93.136,-22.846
13:51:36:886,7.060,-0.673,0.678,0.953,25.553,100.330,-12.999
13:51:36:94,7.114,-0.585,0.704,0.775,21.866,105.133,-6.492
13:51:36:94,7.114,-0.243,0.894,0.755,16.065,109.414,1.817
13:51:37:021,7.195,-0.390,0.948,-0.001,12.926,108.537,5.938
13:51:37:022,7.196,-0.095,0.315,-0.869,10.969,97.802,9.834
13:51:37:071,7.244,0.232,-0.072,-0.784,11.205,76.976,16.698
13:51:37:072,7.245,0.190,-0.075,-0.945,14.156,66.859,21.066
13:51:37:094,7.268,0.233,-0.023,-1.037,16.934,62.125,23.989
13:51:37:149,7.323,0.755,-0.031,-1.257,20.796,58.712,29.231
13:51:37:15,7.323,1.098,-0.678,-1.256,24.123,58.170,34.837
13:51:37:173,7.347,1.137,-1.104,-1.268,25.778,58.654,37.617
13:51:37:228,7.402,1.403,-0.768,-0.899,26.357,57.902,37.433
13:51:37:229,7.402,1.095,-0.317,-0.779,26.130,57.245,35.398
13:51:37:251,7.425,0.755,-0.169,-0.895,25.595,56.806,29.997
13:51:37:307,7.480,0.390,0.294,-1.268,24.782,56.298,22.128
13:51:37:307,7.481,0.237,0.755,-1.272,23.796,56.301,15.721
13:51:37:33,7.504,-0.108,1.155,-0.785,22.046,57.916,5.062
13:51:37:386,7.560,-0.300,0.924,-0.294,21.301,60.311,-2.136
13:51:37:386,7.560,-0.519,0.620,0.065,21.787,65.433,-12.385
13:51:37:467,7.641,-0.659,0.281,0.352,24.773,70.237,-21.770
13:51:37:468,7.642,-0.706,0.114,0.425,27.742,72.249,-27.517
13:51:37:469,7.642,-0.869,0.237,0.586,33.179,73.956,-35.373
13:51:37:519,7.693,-1.152,0.458,0.851,37.633,74.702,-40.394
13:51:37:52,7.694,-1.127,0.128,0.869,45.900,76.396,-46.900
13:51:37:521,7.695,-1.183,-0.758,1.260,54.417,77.080,-52.380
13:51:37:598,7.772,-0.563,-1.508,1.053,58.394,75.953,-56.782
13:51:37:599,7.772,-0.350,-1.096,1.007,62.455,70.137,-68.643
13:51:37:623,7.796,-0.010,-1.502,1.113,63.520,67.276,-75.679
13:51:37:623,7.796,0.504,-1.870,1.081,53.953,66.854,-81.489
13:51:37:674,7.848,-0.469,-0.213,0.454,-1.266,66.095,-80.702
13:51:37:675,7.848,0.397,-0.816,1.139,-18.679,65.152,-77.845
13:51:37:697,7.871,0.062,-0.118,1.431,-1.145,64.978,-67.430
13:51:37:751,7.925,0.267,1.058,1.330,9.023,65.541,-59.446
13:51:37:782,7.955,-0.156,0.362,1.653,19.926,70.414,-46.284
13:51:37:782,7.955,-0.637,0.990,1.519,20.230,73.444,-32.558
13:51:37:863,8.036,-0.731,1.278,0.753,19.145,71.180,-24.997
13:51:37:863,8.036,-0.514,1.349,-0.103,18.548,63.367,-16.042
13:51:37:863,8.036,-0.220,1.203,-0.660,19.276,56.712,-10.715
13:51:37:91,8.083,-0.119,1.025,-0.985,22.580,48.416,-3.077
13:51:38:05,8.224,0.354,0.615,-1.374,27.793,44.961,5.630
13:51:38:05,8.224,0.396,0.338,-1.496,32.144,45.859,12.558
13:51:38:05,8.224,0.718,-1.339,-2.337,39.459,48.022,22.696
13:51:38:051,8.224,1.308,-1.544,-1.378,43.853,46.046,25.340
13:51:38:071,8.245,1.477,-1.002,-1.231,48.895,41.272,24.226
13:51:38:072,8.246,1.291,-1.356,-1.643,49.599,40.028,22.641
13:51:38:073,8.246,0.957,-0.951,-1.703,48.339,38.268,17.480
13:51:38:121,8.294,0.235,-0.372,-1.844,45.847,37.479,11.218
13:51:38:121,8.295,-0.221,0.423,-1.710,43.486,37.212,6.330
13:51:38:146,8.319,-0.381,0.803,-1.294,39.724,39.578,-1.364
13:51:38:199,8.373,-0.925,1.192,-1.134,37.642,44.278,-5.949
13:51:38:2,8.374,-1.385,1.333,-0.641,36.421,54.794,-12.269
13:51:38:223,8.397,-1.758,1.055,0.016,37.477,66.838,-18.182
13:51:38:279,8.453,-1.635,0.673,0.397,38.925,74.276,-22.212
13:51:38:279,8.453,-1.242,0.310,0.756,41.569,83.156,-28.690
13:51:38:36,8.533,-1.062,0.143,0.885,43.610,87.650,-33.320
13:51:38:36,8.534,-0.946,0.012,1.067,47.531,93.298,-39.959
13:51:38:361,8.535,-0.890,-0.169,1.347,53.198,98.998,-45.006
13:51:38:436,8.610,-0.762,-0.350,1.562,57.480,103.228,-47.354
13:51:38:438,8.611,0.008,-1.025,1.653,63.475,110.636,-48.559
13:51:38:461,8.635,0.383,-1.286,1.527,66.755,114.839,-48.732
13:51:38:488,8.662,0.620,-1.447,1.199,69.672,115.474,-52.176
13:51:38:489,8.663,0.665,-1.297,0.903,69.767,110.669,-59.309
13:51:38:511,8.685,0.689,-1.106,0.763,67.422,107.766,-62.607
13:51:38:568,8.741,0.750,-0.842,0.716,58.563,104.324,-63.662
13:51:38:568,8.742,0.562,-0.258,0.577,47.787,101.496,-62.290
13:51:38:648,8.822,0.636,0.107,0.680,27.871,97.353,-57.555
13:51:38:649,8.822,0.572,0.921,0.849,20.388,95.547,-51.325
13:51:38:65,8.823,0.501,0.593,0.927,24.760,97.367,-46.593
13:51:38:669,8.842,0.256,0.590,0.908,29.954,101.145,-37.291
13:51:38:724,8.898,-0.044,0.664,0.691,30.849,102.203,-30.807
13:51:38:75,8.924,-0.445,0.733,0.444,31.526,101.773,-21.598
13:51:38:751,8.925,-0.637,0.629,0.045,32.784,100.309,-13.291
13:51:38:802,8.976,-0.731,0.537,-0.220,33.914,99.143,-8.051
13:51:38:888,9.062,-0.720,0.288,-0.553,36.072,98.594,-0.255
13:51:38:888,9.062,-0.459,0.079,-0.890,37.499,99.507,5.173
13:51:38:889,9.062,-0.384,-0.138,-1.069,39.788,101.971,13.249
13:51:38:89,9.063,-0.529,-0.796,-1.569,41.684,103.307,18.140
13:51:38:964,9.138,-0.425,-0.924,-1.720,44.172,102.082,21.313
13:51:38:965,9.138,-0.534,-0.364,-1.722,44.892,99.881,19.902
13:51:38:966,9.139,-0.510,-0.516,-1.249,44.400,102.481,20.549
13:51:39:045,9.218,-0.823,-0.326,-0.972,42.404,108.289,21.858
13:51:39:045,9.218,-0.933,-0.123,-0.790,40.973,109.941,20.068
13:51:39:045,9.218,-1.105,0.151,-0.610,38.444,109.933,13.659
13:51:39:174,9.348,-1.290,0.576,-0.318,35.309,112.908,7.057
13:51:39:175,9.348,-1.381,0.761,-0.109,33.324,118.356,3.732
13:51:39:195,9.369,-1.328,0.720,0.436,31.254,132.709,0.868
13:51:39:258,9.432,-0.895,0.578,0.905,30.950,146.482,0.548
13:51:39:259,9.432,-0.380,0.434,1.235,32.156,169.436,1.473
13:51:39:259,9.432,0.133,0.280,1.311,34.922,-169.383,3.431
13:51:39:259,9.432,0.546,0.186,1.092,37.223,-158.045,4.790
13:51:39:334,9.507,0.754,0.017,0.897,41.238,-147.266,5.146
13:51:39:335,9.508,0.788,-0.237,0.901,44.391,-144.335,4.001
13:51:39:335,9.509,0.637,-0.580,0.816,48.773,-146.035,-1.399
13:51:39:337,9.510,1.063,-0.836,0.989,52.484,-149.628,-8.289
13:51:39:409,9.583,1.279,-1.325,0.757,54.842,-149.145,-9.904
13:51:39:41,9.584,1.166,-1.134,0.336,56.318,-144.643,-8.175
13:51:39:411,9.585,1.159,-0.836,0.043,55.813,-143.957,-9.106
13:51:39:547,9.721,1.155,-0.586,-0.012,52.653,-148.725,-14.144
13:51:39:547,9.721,1.086,0.232,0.022,45.783,-153.330,-16.558
13:51:39:548,9.721,1.035,0.579,0.659,40.322,-154.250,-15.262
13:51:39:548,9.721,1.119,0.741,-0.157,34.224,-148.063,-7.533
13:51:39:781,9.955,1.245,1.014,-0.376,30.944,-144.257,-1.674
13:51:39:782,9.956,0.454,0.841,-0.033,26.806,-149.409,2.566
13:51:39:783,9.957,-0.151,0.406,0.261,24.326,-167.283,2.645
13:51:39:784,9.957,-0.292,0.427,0.263,24.225,178.483,2.664
13:51:39:86,10.033,-0.552,0.345,0.241,26.429,158.030,3.457
13:51:39:86,10.034,-0.916,0.329,0.260,29.203,146.532,4.256
13:51:39:861,10.035,-1.153,0.151,0.055,33.929,136.045,6.982
13:51:39:862,10.035,-1.243,-0.354,-0.114,37.605,135.076,12.726
13:51:39:992,10.165,-1.366,-0.472,-0.357,39.181,137.549,17.963
13:51:39:992,10.165,-1.268,-0.601,-0.483,41.110,141.288,25.024
13:51:39:992,10.166,-1.342,-0.732,-1.009,42.256,141.888,27.955
13:51:39:993,10.167,-0.983,-0.905,-0.979,43.662,138.822,27.865
13:51:40:061,10.235,-1.107,-0.704,-0.869,44.112,134.692,24.829
13:51:40:095,10.268,-1.345,-0.303,-0.854,43.345,128.086,17.655
13:51:40:095,10.269,-1.379,0.156,-0.493,40.538,124.918,10.450
13:51:40:095,10.269,-1.362,0.330,-0.232,37.887,125.507,6.059
13:51:40:148,10.322,-1.199,0.738,0.333,33.809,130.696,0.193
13:51:40:149,10.322,-0.832,0.884,0.728,31.529,135.849,-3.843
13:51:40:15,10.323,-0.384,0.732,0.937,29.042,143.631,-10.828
13:51:40:228,10.402,0.158,0.119,0.801,26.596,158.517,-21.927
13:51:40:228,10.402,0.259,0.041,0.721,27.351,168.452,-26.764
13:51:40:229,10.402,0.404,0.082,0.790,28.973,174.716,-29.443
13:51:40:229,10.403,0.666,0.135,0.981,32.895,-176.271,-32.232
13:51:40:254,10.427,0.779,-0.164,0.974,38.487,-166.514,-32.778
13:51:40:254,10.428,1.029,-0.410,0.894,42.596,-158.893,-31.830
13:51:40:255,10.428,1.356,-0.882,0.336,48.099,-147.001,-28.519
13:51:40:256,10.429,1.213,-0.816,-0.022,50.669,-140.775,-26.247
13:51:40:303,10.476,0.995,-0.851,-0.252,52.494,-136.844,-25.957
13:51:40:303,10.477,0.867,-0.736,-0.319,51.273,-139.775,-30.023
13:51:40:304,10.477,0.905,-0.592,-0.553,48.509,-144.343,-34.034
13:51:40:381,10.555,0.871,0.070,-0.441,41.347,-150.631,-37.386
13:51:40:381,10.555,0.222,0.527,-0.268,35.683,-152.127,-35.835
13:51:40:382,10.556,0.320,0.371,-0.359,30.813,-147.792,-28.500
13:51:40:533,10.706,0.793,0.269,-0.527,30.117,-134.259,-16.019
13:51:40:621,10.794,0.753,0.310,-0.622,29.374,-124.754,-7.274
13:51:40:621,10.795,0.621,0.589,-0.366,26.836,-118.500,2.088
13:51:40:622,10.796,0.464,0.600,0.035,25.485,-121.249,5.822
13:51:40:623,10.796,0.077,0.488,0.654,25.204,-133.826,8.609
13:51:40:699,10.873,-0.190,0.387,0.866,26.328,-144.797,9.710
13:51:40:7,10.874,-0.634,0.187,0.828,29.062,-160.918,10.636
13:51:40:701,10.874,-0.935,0.004,0.713,32.260,-171.999,12.405
13:51:40:702,10.875,-1.158,-0.177,0.527,34.343,-175.483,14.695
13:51:40:752,10.926,-1.872,-0.756,0.372,37.076,-177.114,19.297
13:51:40:753,10.927,-1.876,-0.941,0.250,38.451,-177.409,21.682
13:51:40:753,10.927,-1.775,-0.560,0.297,39.176,-177.851,22.390
13:51:40:754,10.928,-1.615,-0.653,0.456,38.481,-177.457,21.234
13:51:40:772,10.945,-1.613,-0.312,0.601,37.045,-177.673,18.601
13:51:40:773,10.946,-1.288,0.191,0.880,34.073,-176.615,13.233
13:51:40:91,11.083,-0.918,0.640,1.132,31.553,-173.826,9.404
13:51:40:91,11.084,-0.360,1.073,1.270,28.091,-165.611,3.666
13:51:40:911,11.085,0.404,1.059,1.078,26.547,-150.875,-1.272
13:51:40:912,11.085,0.741,0.724,0.764,26.916,-139.084,-3.936
13:51:40:987,11.161,0.926,0.214,0.311,29.215,-122.108,-7.021
13:51:40:988,11.162,0.785,0.069,0.020,31.601,-112.693,-8.538
13:51:40:989,11.163,0.745,-0.085,-0.147,35.476,-103.331,-11.685
13:51:41:036,11.209,1.085,-0.023,-0.324,42.067,-100.421,-21.321
13:51:41:036,11.209,1.118,-0.414,-0.662,46.351,-101.484,-27.015
13:51:41:058,11.231,0.988,-0.945,-0.649,48.716,-104.286,-31.129
13:51:41:113,11.287,0.877,-1.198,-0.742,50.631,-110.083,-37.687
13:51:41:114,11.287,0.531,-1.086,-0.671,48.866,-118.103,-43.997
13:51:41:191,11.365,0.143,-0.726,-0.495,45.547,-122.158,-46.127
13:51:41:222,11.396,0.209,-0.634,-0.947,40.332,-123.137,-45.171
13:51:41:222,11.396,0.546,-0.428,-1.065,37.538,-122.007,-42.346
13:51:41:223,11.396,1.248,0.212,-1.177,33.529,-118.893,-35.382
13:51:41:27,11.444,-0.209,0.922,-0.535,27.744,-112.877,-24.964
13:51:41:271,11.445,-0.213,0.683,0.014,25.656,-106.291,-17.127
13:51:41:351,11.525,0.200,0.501,-0.826,23.644,-91.929,-4.223
13:51:41:352,11.526,0.141,0.912,-0.563,21.241,-88.212,1.870
13:51:41:487,11.661,0.262,1.133,0.006,19.019,-93.458,8.342
13:51:41:488,11.662,0.087,0.899,0.851,19.776,-105.663,13.618
13:51:41:489,11.662,-0.105,0.411,0.960,21.752,-114.879,16.736
13:51:41:49,11.663,-0.435,0.008,1.029,26.699,-128.005,20.232
13:51:41:512,11.685,-0.684,-0.107,1.018,30.774,-135.112,22.011
13:51:41:512,11.686,-1.038,-0.153,1.421,37.204,-142.518,24.761
13:51:41:512,11.686,-1.308,-1.468,1.619,41.033,-144.873,27.117
13:51:41:559,11.733,-1.419,-1.246,1.047,44.298,-146.579,29.374
13:51:41:56,11.733,-1.213,-0.907,0.807,45.326,-147.315,28.973
13:51:41:584,11.758,-1.090,-0.894,0.902,44.553,-147.998,27.010
13:51:41:668,11.842,-0.859,-0.491,1.131,41.704,-148.417,21.461
13:51:41:668,11.842,-0.534,-0.022,1.327,38.845,-148.170,17.402
13:51:41:669,11.843,-0.225,0.563,1.485,33.833,-144.854,10.927
13:51:41:746,11.920,0.319,1.061,1.173,28.768,-137.343,4.119
13:51:41:747,11.920,0.579,1.193,0.722,25.962,-130.983,-0.846
13:51:41:747,11.921,0.672,0.880,0.026,23.391,-121.615,-9.171
13:51:41:795,11.969,0.706,0.430,-0.218,22.955,-115.609,-14.543
13:51:41:796,11.970,0.650,0.057,-0.475,24.106,-108.384,-22.260
13:51:41:878,12.052,0.546,-0.144,-0.485,26.413,-103.960,-29.262
13:51:41:879,12.053,0.537,-0.186,-0.629,28.363,-101.872,-33.189
13:51:41:88,12.053,0.689,-0.152,-0.746,31.906,-99.090,-37.242
13:51:41:93,12.103,0.492,-0.442,-0.688,34.543,-96.147,-38.040
13:51:41:931,12.104,0.353,-0.702,-0.671,39.011,-88.812,-35.733
13:51:41:931,12.105,0.222,-0.881,-0.905,42.911,-80.277,-31.378
13:51:42:006,12.180,0.087,-0.722,-1.149,43.936,-75.807,-28.569
13:51:42:007,12.181,-0.061,-0.579,-1.338,43.115,-72.456,-25.701
13:51:42:032,12.206,0.183,-0.393,-1.381,41.199,-73.338,-24.926
13:51:42:033,12.207,0.507,-0.001,-1.294,36.330,-78.527,-24.315
13:51:42:085,12.258,0.230,0.552,-0.826,29.093,-84.614,-21.867
13:51:42:085,12.259,0.020,0.622,-0.481,24.258,-87.333,-18.322
13:51:42:108,12.281,0.068,0.597,-0.206,19.582,-88.988,-11.420
13:51:42:328,12.502,0.266,0.489,-0.383,17.663,-88.625,-6.253
13:51:42:329,12.503,0.090,0.526,-0.050,15.047,-89.208,1.783
13:51:42:33,12.503,-0.001,0.432,-0.097,14.173,-94.327,8.341
13:51:42:331,12.504,-0.013,0.173,0.800,15.151,-101.594,11.601
13:51:42:485,12.659,-0.145,0.109,0.784,18.080,-111.709,15.561
13:51:42:486,12.660,-0.249,0.244,1.063,20.680,-117.003,18.101
13:51:42:487,12.661,-0.443,0.114,1.169,24.751,-122.730,21.522
13:51:42:488,12.661,-0.512,-0.222,1.150,26.944,-124.103,24.264
13:51:42:539,12.713,-0.568,-0.490,1.142,29.491,-123.400,28.878
13:51:42:54,12.713,-0.681,-0.793,1.152,30.524,-120.927,33.133
13:51:42:54,12.713,-0.738,-0.853,1.038,30.270,-119.335,34.745
13:51:42:54,12.714,-0.676,-0.632,0.789,28.860,-117.687,34.930
13:51:42:617,12.790,-0.370,-0.300,0.775,27.744,-117.040,33.872
13:51:42:617,12.791,-0.164,-0.176,0.848,26.501,-117.220,30.450
13:51:42:617,12.791,-0.017,0.076,0.976,25.394,-118.730,24.824
13:51:42:618,12.791,0.123,0.381,1.045,24.355,-119.973,20.001
13:51:42:642,12.816,0.058,0.374,0.728,22.675,-122.015,11.366
13:51:42:642,12.816,-0.018,0.333,0.530,21.202,-123.349,5.110
13:51:42:643,12.817,-0.073,0.186,0.287,18.843,-123.687,-3.532
13:51:42:644,12.818,0.250,0.167,0.039,16.804,-120.851,-11.425
13:51:42:69,12.863,0.361,0.163,-0.082,15.916,-117.841,-16.281
13:51:42:69,12.863,0.508,0.215,-0.325,15.764,-112.616,-22.978
13:51:42:712,12.885,0.492,0.177,-0.681,16.399,-108.839,-26.773
13:51:42:769,12.943,0.315,-0.153,-0.857,18.125,-103.512,-31.144
13:51:42:905,13.078,0.305,-0.402,-0.963,20.028,-99.830,-34.402
13:51:42:905,13.079,0.336,-0.445,-1.042,20.784,-98.961,-35.951
13:51:42:906,13.080,0.121,-0.472,-0.939,20.311,-99.375,-36.892
13:51:42:907,13.080,0.076,-0.339,-0.732,18.982,-100.363,-36.365
13:51:42:928,13.102,0.077,-0.133,-0.670,16.885,-102.257,-34.346
13:51:42:929,13.102,0.132,0.231,-0.782,15.224,-103.837,-31.048
13:51:42:929,13.102,0.025,0.372,-0.598,14.559,-104.291,-27.900
13:51:42:979,13.152,-0.154,0.410,-0.334,14.355,-103.180,-21.726
13:51:42:979,13.152,0.002,0.350,-0.254,14.830,-101.589,-17.167
13:51:43:001,13.174,0.040,0.163,-0.148,15.598,-99.276,-10.466
13:51:43:056,13.230,-0.002,0.023,-0.174,15.925,-99.137,-4.471
13:51:43:056,13.230,-0.047,-0.081,-0.034,16.419,-100.763,-1.253
13:51:43:079,13.253,-0.054,-0.116,0.184,17.597,-104.675,2.847
13:51:43:132,13.306,-0.084,-0.021,0.495,18.869,-108.037,5.210
13:51:43:162,13.335,-0.014,-0.021,0.626,21.434,-112.934,8.114
13:51:43:162,13.336,-0.167,0.031,0.853,23.174,-115.558,9.791
13:51:43:213,13.386,-0.305,0.098,1.113,25.677,-117.940,12.271
13:51:43:214,13.387,-0.152,-0.411,1.210,28.128,-116.916,15.890
13:51:43:297,13.470,-0.176,-0.716,1.270,29.490,-116.585,17.769
13:51:43:297,13.470,-0.422,-0.206,1.148,30.916,-120.888,16.039
13:51:43:297,13.471,-0.269,-0.144,1.089,31.322,-123.697,14.017
13:51:43:429,13.603,0.061,0.025,1.062,30.169,-124.807,10.923
13:51:43:43,13.604,0.247,0.232,0.943,27.465,-123.967,7.080
13:51:43:431,13.605,0.418,0.400,0.767,25.384,-122.414,4.109
13:51:43:432,13.606,0.286,0.553,0.642,22.496,-118.581,-0.755
13:51:43:508,13.681,0.252,0.467,0.300,20.944,-113.866,-3.989
13:51:43:508,13.682,0.300,0.280,0.126,19.544,-103.782,-8.637
13:51:43:509,13.683,0.415,-0.156,-0.212,19.364,-92.460,-13.357
13:51:43:51,13.683,0.342,-0.205,-0.321,19.550,-86.298,-16.828
13:51:43:526,13.700,0.297,-0.183,-0.380,20.130,-79.554,-22.225
13:51:43:746,13.919,0.273,-0.047,-0.491,20.731,-76.203,-25.544
13:51:43:746,13.920,0.261,0.001,-0.585,21.746,-72.649,-29.867
13:51:43:747,13.921,0.250,-0.060,-0.683,23.194,-70.433,-33.485
13:51:43:748,13.921,0.201,-0.229,-0.769,24.428,-69.283,-35.548
13:51:43:791,13.965,0.049,-0.460,-0.872,26.163,-68.115,-38.218
13:51:43:981,14.155,-0.124,-0.615,-0.946,26.652,-68.153,-39.719
13:51:43:982,14.156,-0.468,-0.732,-0.929,25.404,-69.589,-40.577
13:51:43:983,14.157,-0.197,-0.386,-1.312,21.957,-73.570,-38.633
13:51:44:035,14.208,-0.321,0.543,-0.231,13.690,-84.109,-28.640
13:51:44:035,14.208,-0.313,0.739,0.062,13.159,-84.562,-22.520
13:51:44:035,14.208,-0.042,0.725,-0.239,15.380,-80.057,-13.652
13:51:44:035,14.209,0.161,0.422,-0.312,16.757,-70.626,-3.270
13:51:44:06,14.234,-0.063,0.255,-0.130,16.685,-65.629,3.169
13:51:44:06,14.234,-0.027,0.099,0.209,16.442,-62.177,10.828
13:51:44:061,14.235,0.106,0.106,0.381,16.595,-62.500,14.728
13:51:44:062,14.236,0.233,-0.119,0.854,18.283,-66.407,18.746
13:51:44:112,14.285,0.173,-0.369,1.182,21.261,-71.042,21.676
13:51:44:113,14.286,0.204,-0.537,1.342,23.685,-73.350,23.408
13:51:44:114,14.287,0.286,-0.621,1.206,26.356,-73.130,26.193
13:51:44:114,14.288,0.620,-0.446,1.308,27.348,-71.745,27.516
13:51:44:186,14.360,0.804,-0.521,1.151,27.983,-68.447,28.317
13:51:44:186,14.360,0.745,-0.562,1.152,27.087,-64.156,28.011
13:51:44:27,14.444,1.324,-0.083,1.223,25.680,-61.032,26.637
13:51:44:271,14.445,1.517,0.578,0.677,22.998,-54.346,23.255
13:51:44:272,14.445,1.085,0.682,0.237,21.356,-48.467,20.256
13:51:44:4,14.574,1.027,0.895,0.081,22.520,-35.331,7.189
13:51:44:401,14.575,0.497,0.897,-0.405,23.737,-28.997,3.471
13:51:44:402,14.576,0.064,0.389,-0.704,26.136,-21.454,-3.519
13:51:44:403,14.577,0.057,0.348,-0.804,27.814,-17.537,-8.251
13:51:44:427,14.601,-0.359,0.387,-0.902,30.456,-14.938,-16.220
13:51:44:428,14.602,-0.508,0.114,-0.921,33.281,-13.984,-21.807
13:51:44:429,14.602,-0.448,-0.115,-0.851,38.597,-13.803,-30.135
13:51:44:43,14.603,-0.831,-0.278,-1.003,45.599,-11.389,-37.473
13:51:44:502,14.676,-1.164,-0.822,-0.717,50.837,-9.361,-41.158
13:51:44:503,14.677,-1.366,-1.609,-0.364,56.670,-8.574,-45.645
13:51:44:504,14.677,-1.438,-1.834,-0.469,58.342,-9.630,-47.658
13:51:44:552,14.726,-1.585,-1.911,-0.369,57.886,-10.809,-47.526
13:51:44:553,14.726,-1.620,-1.411,-0.438,52.417,-12.478,-44.935
13:51:44:575,14.749,-1.591,-0.687,-0.502,46.192,-13.778,-42.090
13:51:44:632,14.805,-1.392,0.608,-0.917,35.738,-16.028,-35.742
13:51:44:633,14.806,-1.023,1.245,-1.000,29.595,-15.864,-28.954
13:51:44:655,14.829,-0.717,1.568,-0.925,21.702,-10.657,-14.981
13:51:44:711,14.885,-0.250,1.843,-0.733,15.193,-3.331,-0.784
13:51:44:711,14.885,0.364,1.373,-0.044,11.902,-1.082,6.291
13:51:44:761,14.935,0.525,0.832,0.348,7.395,-0.360,15.740
13:51:44:844,15.017,0.594,0.840,0.513,4.296,-1.311,22.112
13:51:44:844,15.017,1.071,0.694,0.721,2.982,-8.836,31.495
13:51:44:926,15.099,1.776,-0.166,1.175,9.009,-20.209,40.393
13:51:44:927,15.100,1.639,-0.828,1.289,16.131,-25.563,45.113
13:51:44:927,15.101,1.274,-2.261,1.639,27.319,-30.106,50.286
13:51:44:928,15.102,1.060,-1.971,1.485,26.581,-28.533,51.466
13:51:45:004,15.177,1.135,-1.148,1.195,21.905,-24.751,51.316
13:51:45:005,15.178,1.293,-0.872,0.937,24.053,-25.326,47.225
13:51:45:005,15.179,1.718,-0.626,1.274,26.497,-28.008,42.042
13:51:45:006,15.180,1.560,0.031,0.966,26.409,-29.372,33.358
13:51:45:023,15.196,1.711,0.782,0.487,25.170,-28.469,27.089
13:51:45:162,15.336,1.424,1.577,-0.270,23.300,-24.440,16.556
13:51:45:163,15.337,0.673,1.915,-0.872,22.567,-18.592,5.073
13:51:45:164,15.338,0.094,1.859,-1.075,23.652,-14.393,-2.678
13:51:45:165,15.339,-0.414,1.199,-1.166,27.481,-8.942,-13.769
13:51:45:24,15.414,-0.797,0.624,-1.215,31.081,-6.120,-20.959
13:51:45:241,15.415,-1.226,0.208,-1.103,37.783,-2.594,-30.965
13:51:45:241,15.415,-1.127,-0.023,-1.053,42.996,-0.677,-36.634
13:51:45:242,15.416,-1.299,-0.470,-0.806,51.487,1.515,-44.323
13:51:45:316,15.489,-1.315,-0.949,-0.614,58.480,1.664,-52.379
13:51:45:317,15.490,-1.181,-1.327,-0.392,62.260,0.492,-58.751
13:51:45:318,15.491,-1.163,-2.010,-0.065,66.764,-3.511,-69.211
13:51:45:395,15.568,-1.164,-2.607,0.072,66.914,-5.993,-74.044
13:51:45:395,15.569,-0.695,-1.330,-0.991,55.464,-9.559,-75.499
13:51:45:396,15.570,-1.032,-0.786,0.556,28.486,-11.485,-72.387
13:51:45:445,15.619,-0.967,-0.788,0.830,15.933,-10.595,-67.840
13:51:45:445,15.619,-0.521,0.634,1.420,12.711,-6.035,-59.118
13:51:45:467,15.641,-0.763,0.973,0.701,18.794,0.262,-52.672
13:51:45:525,15.698,-1.663,0.529,1.273,30.621,14.849,-42.623
13:51:45:525,15.698,-1.615,0.587,1.217,29.735,17.805,-31.518
13:51:45:547,15.721,-0.945,0.917,-0.153,25.949,9.359,-27.323
13:51:45:632,15.806,0.251,0.687,-0.310,20.939,-9.421,-23.572
13:51:45:632,15.806,0.524,0.670,-0.033,18.673,-22.383,-22.125
13:51:45:632,15.806,0.299,0.608,-0.129,19.840,-36.248,-20.651
13:51:45:681,15.854,0.660,0.562,-0.247,24.931,-43.023,-18.341
13:51:45:682,15.855,0.980,0.343,-0.186,29.241,-42.844,-15.368
13:51:45:764,15.937,1.137,-0.209,-0.310,35.883,-33.634,-5.968
13:51:45:764,15.938,1.330,-0.060,-0.344,39.122,-23.475,3.127
13:51:45:764,15.938,1.431,-0.428,-0.461,41.955,-8.233,17.478
13:51:45:841,16.014,1.390,-1.157,-0.029,42.459,-0.190,25.823
13:51:45:842,16.015,1.256,-0.673,0.075,42.324,1.682,26.773
13:51:45:842,16.016,1.482,-0.594,-0.309,41.433,2.117,24.448
13:51:45:891,16.064,1.310,-0.292,-0.634,40.577,1.251,21.191
13:51:45:891,16.065,1.179,0.010,-0.891,38.792,-1.098,13.894
13:51:46:003,16.177,0.685,0.424,-1.078,35.703,-0.913,6.174
13:51:46:004,16.177,0.352,0.593,-1.078,33.233,1.425,1.350
13:51:46:004,16.177,-0.132,0.922,-0.990,30.080,7.506,-5.651
13:51:46:004,16.177,-0.311,0.833,-0.819,28.474,12.543,-10.394
13:51:46:049,16.222,-0.713,0.576,-0.563,27.245,21.411,-17.462
13:51:46:049,16.222,-0.808,0.422,-0.396,27.457,27.734,-22.018
13:51:46:072,16.245,-0.963,0.352,-0.163,29.764,36.885,-28.372
13:51:46:127,16.301,-1.129,0.310,0.090,33.769,44.545,-34.667
13:51:46:127,16.301,-1.293,0.061,0.303,37.232,48.264,-38.903
13:51:46:181,16.355,-1.398,-0.342,0.667,42.526,51.248,-44.774
13:51:46:181,16.355,-1.260,-0.843,0.676,45.006,51.204,-47.645
13:51:46:203,16.376,-1.232,-0.874,0.504,46.132,48.498,-50.561
13:51:46:26,16.433,-0.744,-0.764,0.804,43.586,43.949,-53.078
13:51:46:26,16.433,-0.268,-0.883,1.017,40.299,42.946,-53.732
13:51:46:281,16.455,0.027,-0.961,1.372,36.975,45.662,-53.166
13:51:46:337,16.511,-0.334,-0.754,1.181,36.915,49.280,-51.125
13:51:46:337,16.511,-0.107,-0.143,1.215,36.251,56.295,-45.391
13:51:46:36,16.534,-0.075,0.035,1.311,34.117,63.844,-35.978
13:51:46:416,16.590,-0.416,0.619,0.989,32.606,66.835,-29.934
13:51:46:416,16.590,-0.480,0.869,0.775,31.049,68.866,-22.229
13:51:46:439,16.612,-0.581,0.713,0.430,30.126,68.021,-17.462
13:51:46:581,16.754,-0.580,0.630,-0.024,29.004,61.629,-11.704
13:51:46:581,16.755,-0.490,0.415,-0.557,28.987,50.098,-8.022
13:51:46:582,16.755,-0.310,0.382,-0.768,29.915,40.792,-6.763
13:51:46:583,16.756,0.176,0.325,-0.919,32.591,27.435,-5.758
13:51:46:791,16.964,0.364,0.094,-0.883,34.944,20.926,-4.791
13:51:46:791,16.965,0.367,-0.208,-1.299,39.487,16.483,-1.192
13:51:46:791,16.965,0.945,-1.158,-1.851,43.918,17.388,5.564
13:51:46:792,16.965,0.818,-0.747,-0.870,45.083,17.805,8.396
13:51:46:816,16.990,1.176,-0.850,-0.867,44.877,18.676,10.528
13:51:46:816,16.990,1.160,-0.911,-1.006,43.545,19.655,11.072
13:51:46:817,16.991,0.775,-0.500,-1.070,39.935,20.142,9.120
13:51:46:818,16.991,0.565,0.031,-1.088,37.230,19.700,6.429
13:51:46:869,17.042,0.361,0.466,-1.010,32.456,19.186,0.780
13:51:46:869,17.043,-0.018,0.886,-0.810,26.671,20.395,-5.894
13:51:46:87,17.044,-0.110,1.177,-0.591,22.310,22.276,-10.749
13:51:46:871,17.045,-0.328,1.203,-0.295,15.886,27.390,-18.921
13:51:46:89,17.063,-0.576,1.058,0.003,12.596,32.860,-24.748
13:51:46:89,17.064,-0.694,0.704,0.297,10.554,43.694,-33.663
13:51:46:942,17.116,-0.757,0.083,0.701,13.154,55.072,-42.638
13:51:46:943,17.116,-0.705,-0.150,0.786,16.859,61.401,-47.769
13:51:46:964,17.138,-0.570,-0.239,0.839,23.072,68.209,-53.923
13:51:47:019,17.193,-0.426,-0.415,0.986,26.842,71.217,-57.137
13:51:47:02,17.194,-0.318,-0.745,1.071,33.004,74.197,-61.167
13:51:47:044,17.218,-0.257,-1.280,1.033,38.533,75.773,-63.737
13:51:47:1,17.273,-0.181,-1.357,1.065,40.593,75.665,-64.628
13:51:47:1,17.274,-0.004,-1.048,1.158,38.288,74.494,-64.649
13:51:47:151,17.325,0.184,-0.907,1.176,34.128,73.437,-63.692
13:51:47:152,17.326,-0.049,-0.593,1.279,26.848,71.988,-60.269
13:51:47:176,17.350,-0.226,-0.253,1.264,22.819,71.155,-54.729
13:51:47:229,17.403,-0.402,-0.015,1.512,21.938,71.304,-50.009
13:51:47:23,17.404,-0.287,0.542,1.133,20.851,72.098,-41.420
13:51:47:253,17.427,-0.436,0.597,0.959,20.326,72.907,-35.199
13:51:47:394,17.568,-0.512,0.732,0.676,19.974,74.047,-25.548
13:51:47:394,17.568,-0.472,0.742,0.256,19.158,72.980,-16.210
13:51:47:395,17.568,-0.390,0.791,-0.073,18.563,70.151,-10.679
13:51:47:396,17.569,-0.296,0.682,-0.482,18.751,64.697,-3.055
13:51:47:414,17.588,-0.182,0.622,-0.652,19.630,60.693,1.662
13:51:47:415,17.588,0.076,0.434,-0.956,22.153,55.478,8.482
13:51:47:497,17.670,0.277,0.244,-1.176,25.723,51.851,15.333
13:51:47:497,17.671,0.465,0.061,-1.359,28.588,49.910,19.582
13:51:47:498,17.672,0.945,-0.706,-1.511,33.332,47.938,25.509
13:51:47:543,17.716,1.222,-1.285,-1.315,35.994,47.383,28.688
13:51:47:571,17.744,1.106,-0.943,-0.959,37.261,47.517,31.370
13:51:47:572,17.745,0.805,-0.780,-0.889,36.305,50.237,32.397
13:51:47:623,17.797,0.715,-0.614,-0.985,35.435,49.444,30.493
13:51:47:624,17.798,0.486,-0.181,-0.936,33.998,45.935,24.085
13:51:47:753,17.926,0.270,-0.157,-0.941,32.467,42.091,18.124
13:51:47:789,17.962,0.232,0.242,-1.022,28.962,35.722,7.787
13:51:47:789,17.963,0.064,0.835,-0.952,26.157,33.157,1.119
13:51:47:789,17.963,-0.171,1.068,-0.685,21.654,33.380,-7.721
13:51:47:789,17.963,-0.390,1.107,-0.320,17.755,38.492,-15.717
13:51:47:836,18.010,-0.519,0.978,-0.055,16.541,44.083,-20.907
13:51:47:836,18.010,-1.000,0.551,0.625,19.168,56.947,-28.166
13:51:47:837,18.011,-1.227,0.104,0.874,23.516,66.472,-32.104
13:51:47:857,18.030,-0.911,-0.095,0.874,30.606,76.686,-38.115
13:51:47:913,18.086,-0.515,-0.231,0.856,37.735,82.792,-45.132
13:51:47:913,18.086,-0.270,-0.413,0.852,42.564,85.118,-50.201
13:51:47:935,18.109,-0.135,-0.741,0.826,49.106,86.155,-58.055
13:51:47:991,18.165,-0.141,-0.823,0.753,52.293,85.545,-63.166
13:51:47:991,18.165,-0.174,-0.797,0.812,54.913,83.969,-69.565
13:51:48:014,18.188,-0.183,-0.861,0.770,55.170,82.478,-74.012
13:51:48:156,18.330,-0.042,-0.764,0.640,53.463,81.843,-75.798
13:51:48:156,18.330,-0.062,-0.552,0.813,48.056,81.386,-76.784
13:51:48:157,18.330,-0.092,-0.521,0.935,42.690,81.050,-76.281
13:51:48:157,18.331,-0.223,-0.293,1.039,31.937,80.596,-72.875
13:51:48:312,18.486,-0.088,0.110,1.119,21.513,80.142,-65.807
13:51:48:313,18.486,-0.026,0.266,1.044,17.533,79.766,-59.459
13:51:48:314,18.487,-0.097,0.506,0.948,15.539,79.423,-48.337
13:51:48:314,18.488,-0.137,0.417,0.721,15.410,79.643,-40.702
13:51:48:364,18.538,-0.090,0.241,0.656,14.473,78.846,-29.478
13:51:48:365,18.539,-0.291,0.040,0.402,12.061,72.796,-21.299
13:51:48:366,18.540,-0.230,0.020,-0.005,10.464,65.642,-17.522
13:51:48:367,18.541,-0.077,0.066,-0.404,8.234,51.496,-13.669
13:51:48:384,18.558,0.079,0.222,-0.545,7.302,41.280,-12.057
13:51:48:385,18.559,0.376,0.419,-0.522,7.360,28.952,-10.515
13:51:48:466,18.640,0.485,0.278,-0.576,10.123,24.495,-8.162
13:51:48:466,18.640,0.511,0.071,-0.621,12.989,25.831,-5.574
13:51:48:467,18.641,0.428,-0.092,-0.621,17.878,32.845,0.272
13:51:48:516,18.689,0.161,0.207,-0.747,20.903,39.227,5.524
13:51:48:516,18.690,0.172,0.181,-1.031,24.707,46.457,13.464
13:51:48:54,18.713,0.031,-0.479,-1.103,27.140,47.318,16.776
13:51:48:596,18.769,0.612,-0.067,-0.362,29.900,42.612,16.094
13:51:48:596,18.770,0.515,-0.025,-0.795,30.860,36.404,12.250
13:51:48:735,18.908,0.436,-0.071,-0.908,30.169,33.475,9.211
13:51:48:735,18.909,0.334,0.074,-0.871,27.818,30.762,3.421
13:51:48:736,18.909,0.190,0.471,-0.875,25.745,30.900,-0.648
13:51:48:736,18.909,-0.173,0.656,-0.774,22.645,35.979,-6.460
13:51:48:75,18.924,-0.597,0.579,-0.475,21.411,47.135,-11.552
13:51:48:811,18.985,-0.720,0.499,-0.270,22.192,57.256,-14.204
13:51:48:812,18.986,-0.875,0.262,0.118,25.969,74.100,-17.463
13:51:48:812,18.986,-0.762,0.030,0.380,29.035,84.654,-19.156
13:51:48:813,18.987,-0.585,-0.082,0.588,33.416,95.853,-22.490
13:51:48:829,19.003,-0.516,-0.119,0.751,37.173,100.939,-27.802
13:51:48:884,19.058,-0.503,-0.189,0.818,39.327,101.538,-32.489
13:51:48:884,19.058,-0.470,-0.347,0.765,41.916,99.735,-40.512
13:51:48:907,19.080,-0.323,-0.488,0.775,43.375,97.752,-46.006
13:51:48:962,19.136,-0.305,-0.554,0.737,45.418,94.115,-54.401
13:51:48:963,19.136,-0.326,-0.617,0.809,47.095,90.755,-62.403
13:51:48:985,19.159,-0.301,-0.608,0.796,47.937,88.431,-67.105
13:51:49:257,19.430,-0.253,-0.687,0.805,47.629,85.641,-72.806
13:51:49:258,19.432,-0.078,-0.700,0.649,44.150,84.358,-75.278
13:51:49:258,19.432,0.520,-0.952,0.176,29.985,83.345,-75.739
13:51:49:336,19.509,0.302,0.832,0.366,11.249,83.495,-65.047
13:51:49:337,19.510,0.332,0.764,0.244,16.773,86.464,-53.436
13:51:49:338,19.511,-0.369,0.808,0.192,21.162,92.730,-43.729
13:51:49:338,19.512,-0.429,0.464,0.690,26.481,110.009,-25.665
13:51:49:362,19.536,0.604,-0.047,1.206,27.216,127.609,-7.932
13:51:49:363,19.536,0.670,-0.054,0.915,26.613,130.495,-2.058
13:51:49:364,19.537,-0.281,-0.110,0.537,25.183,122.704,-1.074
13:51:49:364,19.538,-0.571,0.219,0.079,24.069,113.245,-2.411
13:51:49:414,19.587,-0.523,0.433,0.021,23.628,97.036,-5.301
13:51:49:415,19.588,-0.361,0.462,-0.345,23.611,78.545,-7.587
13:51:49:415,19.589,-0.306,0.339,-0.900,24.510,68.052,-7.655
13:51:49:434,19.608,0.201,-0.405,-0.965,30.726,58.477,-3.389
13:51:49:488,19.661,0.245,-0.253,-0.812,34.053,62.851,2.253
13:51:49:488,19.661,0.006,-0.094,-0.686,35.681,68.825,7.066
13:51:49:511,19.684,-0.159,-0.095,-1.117,37.091,78.311,14.989
13:51:49:783,19.956,-0.530,-0.730,-1.053,37.548,85.028,20.352
13:51:49:783,19.957,-0.202,-0.531,-1.134,37.550,86.030,20.225
13:51:49:784,19.957,-0.564,-0.177,-1.159,37.138,85.746,16.919
13:51:49:785,19.958,-0.743,-0.002,-1.004,36.355,85.965,13.863
13:51:49:809,19.982,-1.067,0.578,-0.790,34.484,88.369,8.654
13:51:49:809,19.983,-1.239,0.826,-0.456,32.909,93.456,2.872
13:51:49:81,19.983,-1.139,0.739,-0.205,32.271,98.064,-1.281
13:51:49:811,19.984,-0.926,0.593,0.280,32.375,108.211,-6.744
13:51:49:861,20.035,-0.729,0.411,0.694,33.014,116.807,-9.788
13:51:49:861,20.035,-0.474,0.255,0.945,34.640,130.016,-13.689
13:51:49:862,20.036,-0.303,0.068,0.755,36.752,141.708,-16.923
13:51:49:863,20.037,-0.237,0.031,0.890,38.491,148.091,-19.383
13:51:49:881,20.054,-0.043,-0.041,1.041,41.819,154.521,-24.084
13:51:49:882,20.055,0.087,-0.223,1.122,44.276,156.738,-28.142
13:51:49:932,20.105,0.267,-0.457,1.111,48.498,158.178,-34.409
13:51:49:962,20.135,0.392,-0.708,0.872,52.882,158.157,-40.833
13:51:49:962,20.135,0.637,-1.034,0.750,55.927,156.872,-46.068
13:51:50:012,20.186,0.482,-0.929,0.696,59.615,152.234,-55.116
13:51:50:012,20.186,0.512,-0.709,0.778,61.643,148.222,-61.836
13:51:50:088,20.262,0.467,-0.673,0.755,62.697,142.433,-70.317
13:51:50:177,20.351,0.500,-0.427,0.369,57.700,138.885,-74.884
13:51:50:177,20.351,0.684,-0.374,0.191,48.938,137.360,-75.681
13:51:50:178,20.351,0.658,-0.170,0.167,30.542,135.219,-73.449
13:51:50:179,20.352,0.636,0.216,0.355,22.588,134.496,-70.115
13:51:50:225,20.399,0.753,0.243,0.483,20.448,135.601,-62.424
13:51:50:225,20.399,0.789,0.246,0.405,21.624,137.717,-55.399
13:51:50:226,20.400,0.951,0.546,0.470,22.887,142.704,-42.656
13:51:50:245,20.419,0.634,0.553,0.419,22.072,146.674,-29.510
13:51:50:494,20.667,0.285,0.331,0.470,20.768,146.799,-21.610
13:51:50:494,20.667,-0.201,0.393,0.203,19.110,142.398,-12.292
13:51:50:494,20.668,-0.958,0.093,-0.321,19.117,133.295,-6.905
13:51:50:494,20.668,-0.769,0.051,-0.306,19.696,129.412,-4.093
13:51:50:755,20.929,-0.367,0.050,-0.185,20.252,129.799,1.424
13:51:50:755,20.929,-0.293,0.078,-0.207,20.261,132.895,6.179
13:51:50:755,20.929,-0.623,0.000,-0.497,19.583,138.578,13.594
13:51:50:756,20.929,-0.634,-0.118,-0.545,18.432,143.270,20.016
13:51:50:777,20.951,-0.744,0.150,-0.605,17.715,144.429,23.817
13:51:50:778,20.952,-0.863,-0.166,-0.735,19.840,142.950,28.745
13:51:50:779,20.952,-0.968,-0.550,-0.870,22.753,140.479,30.972
13:51:50:833,21.007,-0.854,-0.717,-1.245,26.725,136.600,31.660
13:51:50:833,21.007,-0.797,-0.048,-0.816,26.493,136.951,30.259
13:51:50:834,21.008,-0.723,-0.006,-0.619,24.418,139.777,28.961
13:51:50:834,21.008,-0.689,0.093,-0.322,21.408,144.412,25.059
13:51:50:859,21.032,-0.914,0.580,-0.051,20.260,146.981,21.329
13:51:50:859,21.033,-0.747,0.724,0.049,20.091,150.452,14.164
13:51:50:86,21.034,-0.558,0.576,0.092,20.840,152.356,8.845
13:51:50:861,21.034,-0.467,0.409,0.184,22.554,154.055,0.821
13:51:50:912,21.085,-0.293,0.230,0.508,24.614,155.605,-6.563
13:51:50:912,21.086,-0.164,0.194,0.544,26.132,157.229,-11.075
13:51:50:913,21.087,-0.026,0.023,0.722,28.516,160.769,-16.564
13:51:51:068,21.242,0.154,-0.104,0.844,34.506,172.390,-19.935
13:51:51:069,21.243,0.371,-0.230,0.824,39.048,-179.798,-20.604
13:51:51:07,21.244,0.474,-0.320,0.792,42.002,-175.190,-21.228
13:51:51:071,21.244,0.629,-0.422,0.724,46.030,-169.853,-22.849
13:51:51:148,21.321,0.624,-0.608,0.473,48.111,-167.884,-24.542
13:51:51:148,21.322,0.578,-0.654,0.426,50.403,-168.677,-29.491
13:51:51:149,21.322,0.604,-0.637,0.441,51.711,-174.171,-37.951
13:51:51:149,21.323,0.668,-0.633,0.530,51.780,-179.324,-44.530
13:51:51:279,21.452,0.705,-0.532,0.536,49.339,172.858,-53.108
13:51:51:279,21.453,0.702,-0.554,0.454,45.022,168.421,-56.817
13:51:51:28,21.454,0.733,-0.292,0.239,32.535,164.047,-57.922
13:51:51:281,21.454,0.409,0.469,0.074,19.447,162.140,-53.511
13:51:51:304,21.478,0.191,0.698,-0.181,15.231,162.779,-48.567
13:51:51:305,21.479,0.123,0.409,-0.248,17.054,169.020,-39.797
13:51:51:306,21.479,0.997,-0.075,-0.169,20.586,177.574,-32.677
13:51:51:307,21.480,0.712,0.384,-0.365,22.747,-169.985,-20.759
13:51:51:356,21.530,0.458,0.367,-0.078,21.747,-167.343,-12.541
13:51:51:357,21.531,0.132,0.271,0.216,20.761,-171.267,-9.380
13:51:51:358,21.532,-0.351,0.159,0.211,19.817,177.883,-6.363
13:51:51:359,21.533,-0.628,0.119,0.052,19.892,168.602,-5.261
13:51:51:376,21.550,-0.898,0.126,-0.311,20.952,155.388,-4.153
13:51:51:431,21.605,-0.914,0.143,-0.366,23.581,148.410,-1.456
13:51:51:432,21.605,-1.128,0.055,-0.294,26.129,147.866,2.074
13:51:51:595,21.769,-0.936,-0.192,0.188,29.867,152.531,8.407
13:51:51:595,21.769,-0.812,-0.363,0.161,31.748,156.095,12.447
13:51:51:596,21.769,-0.650,-0.275,-0.020,33.708,157.904,15.054
13:51:51:597,21.770,-0.908,-0.152,-0.241,34.682,156.670,14.506
13:51:51:663,21.837,-0.997,-0.233,-0.172,35.624,153.148,11.550
13:51:51:83,22.003,-1.131,-0.111,0.039,35.456,149.978,7.633
13:51:51:83,22.004,-1.175,0.155,0.343,34.874,149.153,4.997
13:51:51:831,22.005,-1.035,0.175,0.595,33.471,151.265,1.715
13:51:51:832,22.005,-0.720,0.363,0.864,32.288,155.076,0.024
13:51:51:882,22.056,-0.414,0.495,0.964,30.779,163.617,-2.425
13:51:51:883,22.057,-0.068,0.437,0.949,30.062,174.106,-5.036
13:51:51:883,22.057,0.172,0.222,0.843,30.089,-178.341,-6.669
13:51:51:884,22.058,0.318,-0.006,0.692,30.405,-167.486,-8.824
13:51:51:909,22.082,0.328,-0.191,0.532,30.582,-161.274,-10.446
13:51:51:909,22.083,0.412,-0.115,0.493,31.089,-154.412,-14.003
13:51:51:91,22.083,0.570,-0.010,0.472,31.789,-149.258,-18.229
13:51:51:911,22.084,0.729,0.034,0.445,32.462,-145.861,-20.961
13:51:51:959,22.132,0.782,-0.184,0.279,33.918,-140.789,-25.044
13:51:51:959,22.132,0.784,-0.314,0.113,35.047,-137.660,-28.002
13:51:51:959,22.133,0.801,-0.353,0.013,37.102,-133.714,-32.530
13:51:51:979,22.152,0.702,-0.543,-0.169,38.951,-131.291,-37.442
13:51:52:035,22.209,0.731,-0.555,-0.229,39.731,-130.719,-40.820
13:51:52:035,22.209,0.705,-0.552,-0.351,39.835,-131.816,-46.170
13:51:52:087,22.260,0.585,-0.482,-0.503,38.785,-133.340,-49.259
13:51:52:087,22.261,0.361,-0.297,-0.456,34.378,-135.412,-51.923
13:51:52:197,22.370,0.380,-0.081,-0.438,28.438,-136.395,-51.125
13:51:52:197,22.371,0.376,0.075,-0.450,24.800,-136.435,-49.024
13:51:52:198,22.372,0.265,0.379,-0.550,20.079,-135.138,-43.868
13:51:52:199,22.372,0.256,0.602,-0.584,18.515,-133.597,-39.381
13:51:52:274,22.448,0.337,0.565,-0.734,18.904,-130.717,-32.132
13:51:52:275,22.448,0.291,0.697,-0.289,18.984,-130.304,-26.623
13:51:52:275,22.448,0.107,0.575,0.057,18.390,-134.672,-19.314
13:51:52:322,22.496,-0.109,0.268,0.313,18.715,-142.364,-13.514
13:51:52:323,22.496,-0.144,-0.034,0.310,19.761,-147.748,-10.174
13:51:52:347,22.520,-0.483,-0.031,0.362,22.081,-155.457,-6.076
13:51:52:617,22.791,-0.673,-0.150,0.479,24.225,-160.397,-3.825
13:51:52:618,22.792,-0.702,-0.235,0.524,28.191,-163.567,0.229
13:51:52:619,22.792,-0.525,-0.394,0.557,32.359,-160.553,6.157
13:51:52:62,22.793,-0.415,-0.423,0.567,34.571,-156.307,10.844
13:51:52:724,22.898,-0.427,-0.345,0.760,37.013,-150.704,17.126
13:51:52:725,22.898,-0.505,-0.160,0.764,38.346,-149.094,19.431
13:51:52:725,22.898,-0.456,-0.228,0.736,39.856,-149.861,19.352
13:51:52:725,22.899,-0.587,-0.332,0.572,40.068,-151.797,17.782
13:51:52:775,22.948,-0.640,-0.117,0.802,39.505,-153.034,16.356
13:51:52:775,22.949,-0.610,-0.012,0.945,37.875,-153.550,14.020
13:51:52:776,22.950,-0.369,0.029,1.036,36.230,-152.673,12.262
13:51:52:777,22.950,-0.087,0.291,1.043,32.925,-149.588,8.949
13:51:52:801,22.975,0.192,0.676,0.876,29.139,-145.000,4.274
13:51:52:802,22.975,0.306,0.701,0.654,26.646,-141.283,0.557
13:51:52:802,22.976,0.331,0.479,0.344,23.411,-135.058,-5.429
13:51:52:803,22.977,0.352,0.259,0.214,21.800,-130.516,-9.541
13:51:52:85,23.024,0.445,0.120,0.049,20.507,-123.536,-16.087
13:51:52:85,23.024,0.431,-0.053,-0.103,20.176,-117.810,-22.980
13:51:52:851,23.025,0.397,-0.168,-0.206,20.168,-114.632,-27.537
13:51:52:87,23.044,0.334,-0.317,-0.287,20.163,-110.829,-34.141
13:51:53:09,23.264,0.265,-0.412,-0.289,20.154,-108.901,-38.184
13:51:53:091,23.264,0.256,-0.527,-0.423,20.639,-106.466,-43.415
13:51:53:092,23.265,0.300,-0.564,-0.549,21.589,-104.988,-46.068
13:51:53:168,23.342,0.357,-0.370,-0.728,24.657,-102.099,-48.806
13:51:53:169,23.343,-0.018,-0.456,-0.904,24.695,-101.807,-48.609
13:51:53:17,23.344,-0.142,-0.283,-0.822,23.245,-101.908,-47.034
13:51:53:171,23.344,0.195,0.130,-1.094,21.699,-102.685,-44.870
13:51:53:214,23.387,0.415,0.382,-1.266,20.441,-103.342,-42.736
13:51:53:247,23.421,0.280,0.808,-0.936,17.072,-104.750,-37.512
13:51:53:248,23.421,0.133,0.950,-0.679,15.276,-105.699,-33.194
13:51:53:249,23.422,0.055,0.624,-0.374,13.719,-106.899,-26.084
13:51:53:3,23.473,0.067,0.078,-0.288,12.875,-109.559,-14.533
13:51:53:3,23.473,0.076,0.158,0.342,13.221,-113.827,-8.492
13:51:53:302,23.475,0.060,-0.025,0.541,14.102,-116.735,-4.837
13:51:53:302,23.476,-0.130,-0.167,0.431,15.567,-120.664,0.267
13:51:53:316,23.490,-0.273,-0.259,0.425,16.848,-122.743,3.742
13:51:53:402,23.576,-0.294,-0.263,0.492,19.519,-125.106,8.910
13:51:53:403,23.577,-0.232,-0.237,0.638,23.147,-126.314,14.671
13:51:53:404,23.577,-0.266,-0.234,0.842,25.998,-126.751,18.790
13:51:53:451,23.625,-0.401,-0.254,1.133,30.540,-126.756,25.085
13:51:53:451,23.625,-0.626,-0.321,1.337,33.239,-126.123,28.835
13:51:53:501,23.675,-0.460,-0.509,1.054,35.516,-125.183,32.148
13:51:53:614,23.788,-0.636,-0.292,0.565,35.113,-125.625,32.051
13:51:53:615,23.788,-0.714,-0.160,0.550,33.993,-126.204,31.349
13:51:53:616,23.789,-0.822,-0.153,0.919,32.161,-126.925,29.274
13:51:53:617,23.790,-0.497,-0.025,1.200,30.513,-127.846,26.923
13:51:53:663,23.837,-0.206,0.151,1.251,27.603,-128.070,21.773
13:51:53:664,23.838,0.020,0.649,1.067,24.132,-127.297,14.821
13:51:53:665,23.839,0.042,0.748,0.568,22.139,-125.780,9.517
13:51:53:684,23.858,0.149,0.577,0.188,20.066,-121.653,2.345
13:51:53:74,23.914,0.134,0.353,0.289,19.607,-117.717,-1.302
13:51:53:74,23.914,0.259,0.233,0.222,20.105,-110.418,-6.155
13:51:53:762,23.936,0.449,0.059,-0.023,21.930,-101.473,-10.831
13:51:53:848,24.021,0.560,-0.043,-0.283,23.741,-95.507,-14.227
13:51:53:848,24.022,0.526,-0.265,-0.606,27.205,-87.348,-19.798
13:51:53:849,24.022,0.401,-0.363,-0.643,29.853,-83.199,-23.684
13:51:53:899,24.073,0.278,-0.535,-0.632,33.908,-79.671,-29.882
13:51:53:899,24.073,0.351,-0.480,-0.667,37.578,-79.955,-37.434
13:51:54:061,24.235,0.356,-0.562,-0.861,39.505,-82.177,-43.292
13:51:54:062,24.236,0.420,-0.767,-1.049,40.135,-88.051,-52.437
13:51:54:063,24.237,0.330,-0.636,-0.995,37.385,-92.580,-57.568
13:51:54:064,24.237,0.156,-0.612,-0.919,26.093,-99.452,-61.754
13:51:54:113,24.287,0.045,-0.755,-1.123,14.174,-103.808,-61.745
13:51:54:114,24.288,0.106,0.607,-0.734,-0.587,-110.173,-55.649
13:51:54:114,24.288,-0.835,0.928,-0.703,-2.255,-114.886,-44.499
13:51:54:115,24.289,-0.403,1.047,-1.096,3.426,-113.385,-35.612
13:51:54:13,24.304,-0.127,0.812,-1.197,12.935,-104.556,-21.579
13:51:54:186,24.360,0.374,0.524,-0.458,15.618,-100.958,-12.116
13:51:54:186,24.360,0.073,0.378,0.194,16.918,-107.849,-2.818
13:51:54:209,24.383,0.045,0.100,0.371,19.876,-124.000,-0.411
13:51:54:265,24.438,-0.069,0.175,0.469,22.758,-135.796,-0.804
13:51:54:288,24.461,-0.175,0.194,0.992,31.776,-155.375,-2.256
13:51:54:344,24.518,-0.313,-0.228,1.151,38.143,-155.475,1.052
13:51:54:344,24.518,-0.148,-0.546,1.355,44.362,-146.558,10.307
13:51:54:366,24.540,-0.126,-0.891,1.445,48.012,-139.372,18.026
13:51:54:503,24.677,-0.301,-0.923,1.112,52.257,-134.268,24.863
13:51:54:503,24.677,-0.335,-0.879,0.831,54.290,-136.354,23.978
13:51:54:64,24.814,-0.468,-0.960,0.819,55.610,-142.448,19.160
13:51:54:64,24.814,-0.646,-0.764,1.184,54.514,-149.065,12.787
13:51:54:64,24.814,-0.418,-0.420,1.535,52.730,-151.398,9.198
13:51:54:641,24.814,0.024,0.057,1.705,48.236,-149.659,6.178
13:51:54:666,24.839,0.188,0.442,1.711,43.748,-145.584,4.806
13:51:54:666,24.839,0.577,1.174,1.389,35.830,-135.864,1.807
13:51:54:666,24.840,0.883,1.393,0.679,28.817,-123.903,-3.667
13:51:54:667,24.840,0.872,1.280,0.284,25.324,-115.727,-8.336
13:51:54:746,24.919,0.839,0.934,-0.165,22.660,-103.455,-16.249
13:51:54:746,24.919,0.857,0.653,-0.526,22.818,-95.575,-21.787
13:51:54:746,24.919,0.586,0.096,-0.737,24.924,-86.019,-30.199
13:51:54:746,24.920,0.394,-0.120,-1.061,28.292,-79.326,-38.656
13:51:54:79,24.963,0.249,-0.513,-0.924,31.201,-76.229,-43.643
13:51:54:79,24.964,-0.037,-0.683,-1.019,35.594,-72.165,-49.349
13:51:54:813,24.986,-0.027,-0.830,-1.222,39.189,-70.569,-53.209
13:51:54:869,25.043,0.084,-1.016,-1.099,45.172,-70.553,-58.716
13:51:54:869,25.043,0.138,-1.072,-1.221,47.699,-71.582,-61.349
13:51:55:112,25.286,-0.048,-1.103,-1.118,47.355,-73.746,-64.384
13:51:55:112,25.286,-0.449,-1.161,-0.903,38.266,-76.525,-65.229
13:51:55:113,25.286,-0.418,-0.623,-0.726,26.207,-78.927,-63.666
13:51:55:113,25.287,-0.572,-0.090,-0.618,8.773,-82.615,-58.875
13:51:55:164,25.338,-0.901,0.222,-0.335,2.558,-84.569,-53.877
13:51:55:164,25.338,-0.816,0.979,-0.286,3.148,-84.913,-44.389
13:51:55:164,25.338,-0.853,0.762,-0.795,12.151,-78.855,-34.105
13:51:55:165,25.339,-0.579,0.990,-0.916,16.094,-74.090,-26.295
13:51:55:181,25.355,-0.120,0.991,-0.294,17.845,-73.556,-16.097
13:51:55:242,25.416,0.158,0.776,0.132,18.008,-78.008,-10.721
13:51:55:243,25.417,0.269,0.629,0.366,19.822,-88.786,-5.375
13:51:55:244,25.417,0.383,0.539,0.585,24.072,-99.498,-2.319
13:51:55:245,25.418,0.423,0.451,0.751,27.905,-104.860,-0.467
13:51:55:322,25.495,0.498,0.048,0.972,34.340,-109.181,2.961
13:51:55:322,25.495,0.652,-0.318,1.096,38.645,-109.372,6.377
13:51:55:322,25.496,0.460,-0.736,1.248,44.184,-107.647,11.467
13:51:55:323,25.496,0.199,-0.891,1.105,48.423,-106.361,14.968
13:51:55:342,25.515,0.355,-0.878,0.972,50.571,-105.677,16.077
13:51:55:342,25.516,0.400,-0.860,1.110,52.791,-104.280,17.575
13:51:55:391,25.564,0.270,-0.904,1.105,53.309,-104.197,17.377
13:51:55:532,25.705,0.409,-0.708,1.108,52.410,-104.789,15.325
13:51:55:532,25.706,1.053,-0.309,1.243,50.182,-103.759,13.007
13:51:55:533,25.706,1.077,0.000,1.174,47.622,-102.087,11.004
13:51:55:534,25.707,1.127,0.389,0.776,41.486,-97.095,7.663
13:51:55:554,25.727,1.186,0.822,0.572,36.727,-92.306,4.891
13:51:55:554,25.728,1.120,1.023,0.194,29.658,-83.767,-0.518
13:51:55:555,25.729,0.909,1.144,-0.249,23.777,-74.144,-7.449
13:51:55:634,25.808,0.747,1.186,-0.681,21.210,-67.125,-12.850
13:51:55:635,25.808,0.334,0.895,-1.188,19.923,-56.055,-21.312
13:51:55:635,25.808,0.023,0.556,-1.137,20.439,-48.744,-26.573
13:51:55:712,25.886,-0.422,0.167,-1.048,23.533,-37.270,-33.828
13:51:55:712,25.886,-0.851,-0.496,-1.168,27.665,-31.157,-39.192
13:51:55:713,25.886,-1.059,-0.989,-0.895,33.622,-26.351,-47.163
13:51:55:761,25.934,-0.774,-1.333,-0.544,36.350,-25.841,-53.281
13:51:55:761,25.935,-0.455,-1.494,-0.586,35.884,-27.473,-56.402
13:51:55:784,25.958,-0.710,-1.349,-0.740,28.412,-31.729,-60.619
13:51:55:841,26.014,-1.088,-0.740,-0.453,18.453,-34.552,-61.707
13:51:55:841,26.014,-1.065,-0.597,-0.218,2.729,-37.537,-61.312
13:51:55:997,26.170,-1.381,-0.594,-0.037,-4.744,-37.737,-59.462
13:51:56:058,26.231,-1.506,0.155,-0.448,-3.474,-37.411,-56.853
13:51:56:058,26.231,-1.446,1.075,-0.086,1.073,-35.131,-50.203
13:51:56:058,26.231,-1.608,0.914,-0.171,4.853,-32.287,-43.215
13:51:56:058,26.232,-1.510,0.870,-0.243,11.224,-26.701,-31.266
13:51:56:074,26.247,-0.582,0.981,-0.338,12.541,-27.142,-20.234
13:51:56:24,26.414,-0.105,0.899,-0.183,12.022,-32.540,-14.121
13:51:56:241,26.414,0.421,0.767,0.212,12.726,-45.208,-7.075
13:51:56:243,26.417,0.505,0.552,0.226,14.759,-54.325,-3.649
13:51:56:244,26.417,0.572,0.377,0.347,19.749,-66.039,-0.025
13:51:56:321,26.494,0.788,0.073,0.559,25.872,-72.823,3.470
13:51:56:321,26.495,0.868,-0.194,0.552,30.115,-73.338,6.692
13:51:56:322,26.495,1.011,-0.454,0.756,36.567,-69.602,13.953
13:51:56:322,26.495,1.473,-1.268,0.810,40.843,-66.128,19.325
13:51:56:371,26.545,0.940,-1.276,1.002,46.258,-61.172,26.596
13:51:56:372,26.546,0.740,-0.850,0.670,49.598,-58.620,29.566
13:51:56:373,26.547,0.744,-1.018,0.625,50.665,-56.353,31.421
13:51:56:373,26.547,0.904,-0.942,0.556,49.688,-56.043,30.271
13:51:56:447,26.621,1.216,-0.652,0.546,48.144,-57.866,27.257
13:51:56:448,26.621,1.541,-0.201,0.495,45.169,-62.350,20.503
13:51:56:448,26.622,1.352,0.251,0.669,42.212,-66.331,14.260
13:51:56:528,26.702,1.304,0.969,0.309,35.221,-69.118,5.234
13:51:56:529,26.703,0.940,1.387,-0.119,27.409,-65.889,-2.241
13:51:56:53,26.704,0.633,1.569,-0.594,22.627,-61.257,-7.019
13:51:56:531,26.705,0.157,1.166,-0.780,17.471,-51.374,-14.540
13:51:56:579,26.752,-0.073,0.674,-0.741,15.796,-42.867,-19.332
13:51:56:579,26.752,-0.329,0.664,-0.781,16.104,-29.598,-26.761
13:51:56:579,26.752,-1.077,-0.034,-0.795,19.422,-19.137,-35.362
13:51:56:599,26.772,-1.169,-0.335,-0.608,21.353,-14.735,-40.797
13:51:56:655,26.828,-0.899,-0.474,-0.551,22.365,-11.892,-48.399
13:51:56:655,26.828,-1.067,-1.066,-0.205,21.588,-10.911,-52.839
13:51:56:764,26.938,-1.135,-1.332,-0.224,18.673,-10.168,-56.977
13:51:56:765,26.938,-0.975,-1.249,-0.518,16.193,-11.558,-58.176
13:51:56:766,26.939,-1.231,-1.228,-0.370,13.701,-12.343,-57.782
13:51:57:022,27.195,-1.205,-0.631,0.557,11.486,-10.914,-51.991
13:51:57:023,27.196,-1.032,-0.109,0.577,14.056,-6.314,-46.007
13:51:57:109,27.283,-1.146,0.668,0.219,15.886,-0.515,-38.449
13:51:57:109,27.283,-1.560,1.277,0.153,13.930,3.565,-31.281
13:51:57:109,27.283,-0.695,1.588,0.610,13.049,7.669,-19.958
13:51:57:109,27.283,-0.373,1.324,0.417,13.304,8.598,-13.704
13:51:57:211,27.384,0.265,1.179,0.258,13.343,3.867,-5.650
13:51:57:212,27.385,0.536,0.592,0.183,14.484,-4.561,0.524
13:51:57:212,27.386,0.680,0.380,0.146,16.476,-10.301,3.555
13:51:57:215,27.388,0.776,0.063,0.114,20.558,-15.707,7.920
13:51:57:263,27.437,0.943,-0.015,0.021,23.795,-16.856,11.304
13:51:57:264,27.438,1.063,-0.238,-0.174,29.027,-15.900,16.915
13:51:57:265,27.438,1.004,-0.502,-0.068,33.989,-14.313,22.067
13:51:57:266,27.439,0.963,-0.653,-0.080,37.169,-13.388,24.810
13:51:57:282,27.455,0.946,-1.017,0.052,40.881,-12.176,27.680
13:51:57:343,27.517,0.966,-0.851,0.108,42.270,-11.588,28.392
13:51:57:343,27.517,1.130,-0.795,0.136,43.428,-10.279,28.604
13:51:57:343,27.517,1.213,-0.688,-0.109,43.203,-7.658,28.001
13:51:57:345,27.518,1.132,-0.651,-0.258,42.312,-5.467,27.130
13:51:57:421,27.594,1.023,-0.490,-0.413,40.135,-2.152,24.760
13:51:57:422,27.595,0.993,-0.104,-0.642,38.235,-0.228,22.045
13:51:57:422,27.596,0.932,0.571,-1.031,35.302,2.820,16.403
13:51:57:423,27.597,0.598,0.702,-1.021,32.719,5.231,12.097
13:51:57:468,27.641,0.266,0.948,-1.069,28.707,9.894,4.633
13:51:57:468,27.642,-0.363,1.335,-1.101,25.630,16.115,-3.960
13:51:57:498,27.672,-0.800,1.338,-0.926,24.459,21.310,-9.912
13:51:57:498,27.672,-1.274,0.693,-0.405,24.239,29.286,-18.646
13:51:57:499,27.673,-0.886,0.279,-0.106,24.262,33.795,-24.416
13:51:57:547,27.720,-0.786,0.050,0.073,24.538,39.179,-33.085
13:51:57:547,27.720,-0.836,-0.183,0.234,25.482,42.764,-41.417
13:51:57:658,27.832,-0.892,-0.333,0.323,26.083,44.235,-46.167
13:51:57:658,27.832,-0.731,-0.478,0.222,26.998,45.854,-51.546
13:51:57:659,27.833,-0.869,-0.771,0.386,27.952,47.115,-54.420
13:51:57:66,27.834,-0.927,-1.017,0.563,30.405,48.718,-58.223
13:51:57:701,27.875,-0.802,-1.305,0.695,31.592,49.858,-60.250
13:51:57:734,27.908,-0.765,-1.033,0.800,30.500,50.235,-60.584
13:51:57:734,27.908,-0.487,-0.763,1.108,27.178,50.324,-60.231
13:51:57:734,27.908,-0.237,-0.658,1.135,24.002,50.978,-58.823
13:51:57:783,27.956,-0.233,-0.057,1.021,21.110,53.452,-54.481
13:51:57:783,27.957,-0.456,0.231,1.264,22.854,57.832,-47.373
13:51:57:864,28.037,-0.419,0.568,1.365,23.366,62.066,-40.714
13:51:57:864,28.038,-0.604,0.799,1.503,22.047,69.522,-27.961
13:51:57:865,28.039,-0.382,1.069,1.062,20.380,72.119,-20.089
13:51:57:911,28.085,-0.316,1.103,0.488,17.403,69.240,-10.690
13:51:57:998,28.171,-0.014,0.771,-0.265,15.884,58.911,-3.854
13:51:57:998,28.172,0.157,0.588,-0.455,16.350,50.058,-0.234
13:51:57:999,28.173,0.312,0.309,-0.745,19.553,36.842,3.878
13:51:58:,28.173,0.443,0.095,-0.813,22.988,29.551,6.032
13:51:58:017,28.190,0.490,-0.165,-0.812,28.704,22.731,8.884
13:51:58:073,28.247,0.430,-0.430,-0.923,32.508,20.531,11.245
13:51:58:073,28.247,0.765,-0.769,-0.938,37.672,18.532,14.964
13:51:58:094,28.268,0.894,-0.790,-0.770,41.511,17.544,17.348
13:51:58:179,28.353,0.928,-0.710,-0.846,43.368,17.564,18.447
13:51:58:179,28.353,0.802,-0.626,-0.958,44.777,20.544,20.673
13:51:58:18,28.354,0.916,-0.465,-0.834,44.444,22.194,21.445
13:51:58:23,28.403,0.853,-0.384,-0.777,42.118,23.933,20.620
13:51:58:23,28.403,0.783,-0.131,-0.786,38.670,23.052,16.796
13:51:58:253,28.427,0.623,0.044,-1.008,36.125,22.019,13.071
13:51:58:308,28.482,0.270,0.507,-1.196,31.467,20.863,6.229
13:51:58:308,28.482,-0.055,1.007,-0.933,27.626,21.119,0.990
13:51:58:361,28.535,-0.305,1.220,-0.521,21.414,23.488,-7.766
13:51:58:361,28.535,-0.500,1.209,-0.046,15.618,28.244,-17.444
13:51:58:383,28.556,-0.605,0.957,0.201,12.627,33.116,-24.055
13:51:58:438,28.612,-0.729,0.493,0.308,10.635,42.357,-33.675
13:51:58:439,28.613,-0.772,0.365,0.489,11.371,48.665,-39.778
13:51:58:463,28.637,-0.719,-0.135,0.763,15.075,57.227,-48.898
13:51:58:602,28.776,-0.469,-0.692,0.827,20.293,63.924,-56.919
13:51:58:603,28.776,-0.338,-0.762,0.757,23.713,67.204,-61.186
13:51:58:604,28.777,-0.208,-0.844,0.723,29.048,70.911,-66.357
13:51:58:604,28.778,-0.134,-1.216,0.870,32.986,72.668,-69.317
13:51:58:622,28.796,-0.214,-1.334,0.892,37.385,73.537,-72.520
13:51:58:623,28.797,-0.336,-1.247,0.862,32.563,71.919,-74.077
13:51:58:675,28.848,-0.287,-1.117,0.854,20.381,70.100,-74.057
13:51:58:675,28.849,-0.248,-0.556,1.084,-5.982,67.047,-72.429
13:51:58:699,28.872,-0.299,-0.182,1.321,-18.198,64.468,-70.037
13:51:58:725,28.898,-0.181,0.361,1.263,-22.504,60.061,-63.523
13:51:58:752,28.925,0.157,0.912,1.154,-16.711,56.668,-53.595
13:51:58:779,28.952,0.229,1.186,0.941,-10.434,55.723,-46.435
13:51:58:803,28.976,-0.202,0.898,0.764,-0.983,58.123,-36.084
13:51:58:831,29.005,-0.213,0.527,0.486,3.987,61.277,-29.079
13:51:58:97,29.143,-0.149,0.456,0.199,8.810,64.154,-19.817
13:51:58:971,29.144,0.181,0.232,-0.184,10.965,65.395,-14.262
13:51:58:971,29.145,0.114,0.173,-0.485,13.041,64.338,-7.560
13:51:58:972,29.146,0.369,-0.026,-0.976,15.409,61.143,-2.002
13:51:59:048,29.222,0.577,-0.345,-1.295,17.100,57.519,0.941
13:51:59:049,29.223,0.871,-0.432,-1.530,19.809,51.992,3.028
13:51:59:05,29.224,0.774,-0.620,-1.732,21.562,48.606,3.105
13:51:59:051,29.225,0.873,-0.667,-1.501,23.427,44.723,1.550
13:51:59:124,29.298,0.770,-0.034,-1.566,23.409,40.847,-2.673
13:51:59:124,29.298,0.500,0.465,-1.372,22.468,38.399,-6.956
13:51:59:125,29.299,0.394,0.952,-1.084,19.400,34.844,-14.644
13:51:59:202,29.376,-0.171,1.835,-0.708,16.557,33.319,-20.406
13:51:59:203,29.376,-0.366,1.953,-0.060,11.921,33.502,-29.778
13:51:59:204,29.377,-0.581,1.551,0.552,8.291,37.451,-40.793
13:51:59:223,29.396,-0.846,1.099,0.815,7.475,41.303,-48.547
13:51:59:278,29.452,-0.877,0.443,0.944,9.278,47.106,-60.265
13:51:59:279,29.452,-0.760,0.040,0.960,12.171,50.673,-68.908
13:51:59:328,29.502,-0.646,-0.381,0.930,23.485,55.502,-82.266
13:51:59:358,29.532,-0.053,-0.868,0.352,153.010,58.297,-91.974
13:51:59:358,29.532,-0.305,-0.820,0.361,-161.251,60.128,-97.998
13:51:59:409,29.583,-0.429,-0.892,0.388,-146.308,64.247,-105.791
13:51:59:41,29.584,-0.233,-1.117,0.263,-136.105,67.579,-108.116
13:51:59:434,29.608,-0.499,-0.935,0.331,-133.106,75.267,-115.364
13:51:59:49,29.663,-0.414,-0.801,0.293,-133.700,85.649,-124.053
13:51:59:49,29.663,-0.276,-0.577,0.381,-136.366,92.665,-129.132
13:51:59:512,29.685,0.044,-0.415,1.052,-147.052,96.810,-131.885
13:51:59:567,29.741,-0.588,0.009,0.372,-163.918,93.325,-132.377
13:51:59:568,29.741,-0.799,-0.773,-0.134,152.857,78.182,-136.043
13:51:59:59,29.764,-0.004,-0.465,0.050,128.453,50.271,-157.417
13:51:59:646,29.819,-0.225,-0.931,0.448,122.038,16.868,170.082
13:51:59:647,29.820,0.648,-0.087,0.067,116.608,-18.905,130.791
13:51:59:671,29.845,0.396,0.434,0.602,111.732,-21.061,123.019
13:51:59:724,29.898,0.449,0.382,0.630,106.193,-21.455,117.291
13:51:59:725,29.899,0.695,0.373,0.470,103.172,-24.052,111.256
13:51:59:749,29.922,0.572,0.437,0.170,102.405,-25.051,109.053
13:51:59:805,29.979,0.220,0.105,0.375,102.330,-23.880,109.076
13:51:59:805,29.979,0.151,-0.003,0.282,102.623,-22.540,109.752
13:51:59:856,30.030,0.021,-0.249,-0.017,103.408,-21.214,110.339
13:51:59:856,30.030,-0.013,-0.359,-0.139,104.430,-19.413,111.502
13:51:59:91,30.084,-0.041,-0.382,-0.184,105.029,-18.036,112.322
13:51:59:911,30.085,0.063,-0.344,-0.141,105.712,-16.272,113.135
13:51:59:935,30.109,0.073,-0.291,-0.049,106.132,-15.305,113.471
13:51:59:935,30.109,0.100,-0.215,0.008,106.707,-13.753,113.976
13:51:59:958,30.131,0.122,-0.090,-0.013,107.363,-12.253,114.505
13:52:00:012,30.185,0.156,0.035,0.018,107.744,-11.189,114.959
13:52:00:041,30.215,0.065,0.163,0.031,108.140,-10.053,115.277
13:52:00:041,30.215,0.085,0.261,0.063,108.218,-9.584,115.237
13:52:00:123,30.297,0.010,0.357,0.085,108.013,-8.816,115.109
13:52:00:123,30.297,0.039,0.371,-0.017,107.617,-8.586,114.540
13:52:00:123,30.297,-0.019,0.305,-0.016,106.725,-9.040,113.086
13:52:00:171,30.345,-0.195,0.168,0.056,105.912,-9.236,112.239
13:52:00:172,30.345,-0.246,0.119,0.065,105.592,-9.096,112.074
13:52:00:196,30.369,-0.260,0.031,0.091,105.649,-7.880,112.696
13:52:00:25,30.423,-0.229,-0.034,0.120,105.824,-6.842,113.258
13:52:00:25,30.424,-0.226,-0.023,0.165,105.976,-4.566,114.389
13:52:00:302,30.476,-0.175,-0.104,0.185,105.834,-2.501,115.087
13:52:00:302,30.476,-0.124,-0.152,0.176,105.587,-1.212,115.103
13:52:00:326,30.499,-0.081,-0.254,0.192,105.274,0.302,115.194
13:52:00:405,30.579,0.027,-0.400,0.120,105.315,1.832,115.644
13:52:00:492,30.666,0.086,-0.451,0.080,106.030,4.693,117.632
13:52:00:493,30.667,0.026,-0.465,0.110,107.590,9.501,121.786
13:52:00:494,30.667,-0.032,-0.324,0.119,108.787,13.015,125.010
13:52:00:495,30.668,-0.004,-0.152,0.048,110.668,18.242,129.298
13:52:00:541,30.715,-0.092,-0.064,0.009,111.964,21.192,132.002
13:52:00:542,30.715,-0.210,0.112,0.022,113.604,24.833,135.603
13:52:00:543,30.716,-0.243,0.265,0.055,114.441,26.937,137.681
13:52:00:561,30.735,-0.213,0.297,0.103,114.495,26.931,137.750
13:52:00:618,30.792,-0.147,0.348,0.061,114.256,26.943,137.818
13:52:00:618,30.792,-0.212,0.359,0.459,113.809,28.376,139.083
13:52:00:7,30.874,-0.111,0.321,0.577,112.590,29.408,139.489
13:52:00:7,30.874,0.075,0.321,0.391,111.603,28.298,138.008
13:52:00:701,30.875,0.084,0.299,0.348,111.189,28.910,138.049
13:52:00:835,31.009,-0.119,0.159,0.310,110.744,30.234,138.341
13:52:00:835,31.009,-0.177,0.026,0.225,110.569,30.682,137.908
13:52:00:836,31.009,-0.144,-0.183,0.146,110.276,30.605,136.557
13:52:00:836,31.009,-0.117,-0.317,0.122,110.000,30.766,135.437
13:52:00:852,31.026,-0.102,-0.442,0.062,109.458,30.558,133.609
13:52:00:909,31.082,-0.068,-0.496,0.009,108.689,31.095,131.949
13:52:00:909,31.083,-0.027,-0.464,-0.014,107.990,31.104,130.735
13:52:00:91,31.084,-0.056,-0.418,-0.007,106.786,31.117,128.830
13:52:00:929,31.102,-0.056,-0.327,-0.004,105.945,30.846,127.593
13:52:00:985,31.159,-0.072,-0.250,-0.012,104.757,30.810,125.979
13:52:00:986,31.160,-0.085,0.027,-0.029,103.752,30.804,124.929
13:52:01:008,31.182,-0.300,0.196,0.063,103.159,31.932,124.737
13:52:01:065,31.238,-0.465,0.275,0.162,102.181,33.844,124.690
13:52:01:065,31.238,-0.347,0.430,0.356,101.407,35.072,124.530
13:52:01:087,31.260,-0.503,0.496,0.492,100.060,35.716,123.262
13:52:01:172,31.345,-0.347,0.351,0.481,98.604,36.442,120.875
13:52:01:172,31.346,-0.225,0.276,0.426,97.648,36.741,119.105
13:52:01:173,31.347,-0.166,0.102,0.356,96.297,39.028,117.231
13:52:01:222,31.395,-0.170,0.048,0.367,95.364,39.418,114.963
13:52:01:222,31.395,-0.022,-0.128,0.332,94.080,39.044,110.646
13:52:01:273,31.446,0.110,-0.312,0.226,93.307,40.368,108.502
13:52:01:36,31.534,0.148,-0.439,0.174,93.072,42.646,108.760
13:52:01:36,31.534,0.126,-0.530,0.057,93.109,49.520,112.400
13:52:01:36,31.534,0.064,-0.645,-0.046,93.404,57.815,119.157
13:52:01:36,31.534,0.182,-0.499,0.155,94.182,83.980,142.988
13:52:01:376,31.550,0.297,-0.425,0.076,95.335,118.315,175.046
13:52:01:431,31.605,0.145,-0.354,0.115,96.223,138.237,-167.184
13:52:01:431,31.605,0.067,-0.005,0.375,97.264,164.354,-143.638
13:52:01:454,31.628,0.034,0.166,0.195,97.794,177.530,-132.074
13:52:01:51,31.683,0.081,0.299,0.038,98.725,-172.481,-123.331
13:52:01:51,31.684,0.035,0.357,-0.183,99.098,-167.712,-118.792
13:52:01:533,31.707,0.156,0.393,-0.203,98.973,-165.623,-115.418
13:52:01:59,31.763,0.386,0.390,-0.152,98.300,-163.714,-109.903
13:52:01:59,31.764,0.598,0.307,0.074,97.614,-163.572,-106.218
13:52:01:611,31.785,0.460,0.079,0.106,96.433,-164.946,-101.461
13:52:01:884,32.058,0.336,-0.265,-0.004,93.927,-166.926,-95.947
13:52:01:884,32.058,0.280,-0.411,-0.058,91.032,-168.309,-91.398
13:52:01:885,32.059,0.290,-0.016,0.199,84.927,-170.932,-84.171
13:52:01:886,32.060,-0.003,0.045,0.289,78.253,-174.011,-77.552
13:52:01:906,32.080,-0.131,0.051,0.299,73.870,-175.729,-72.857
13:52:01:907,32.081,-0.286,0.033,0.252,68.128,-177.291,-65.327
13:52:01:908,32.082,-0.291,-0.078,0.139,65.327,-177.509,-60.371
13:52:01:963,32.137,-0.563,-0.294,0.058,62.104,-177.138,-53.426
13:52:01:963,32.137,-0.825,-0.407,-0.038,59.889,-176.495,-49.382
13:52:01:964,32.138,-0.972,-0.274,-0.244,55.841,-173.349,-43.313
13:52:01:965,32.139,-1.169,0.073,0.006,52.066,-169.005,-38.374
13:52:01:987,32.160,-1.253,0.520,0.436,50.116,-166.422,-35.612
13:52:01:987,32.160,-1.053,0.707,0.654,48.705,-162.479,-32.896
13:52:01:987,32.160,-0.851,0.727,0.577,48.626,-160.096,-32.290
13:52:02:034,32.208,-0.518,0.711,0.620,50.375,-157.688,-33.868
13:52:02:035,32.209,-0.437,0.547,0.869,53.562,-157.971,-39.107
13:52:02:058,32.231,-0.435,0.485,1.085,55.902,-158.616,-43.618
13:52:02:146,32.320,-0.006,0.248,0.844,59.426,-157.057,-49.449
13:52:02:146,32.320,0.324,-0.008,0.339,61.577,-154.786,-52.622
13:52:02:148,32.322,0.394,-0.122,0.162,64.239,-151.210,-57.039
13:52:02:148,32.322,0.449,-0.317,0.040,66.247,-148.540,-61.437
13:52:02:322,32.496,0.464,-0.481,0.080,67.206,-147.611,-64.531
13:52:02:409,32.583,0.569,-0.617,-0.024,67.581,-147.016,-69.007
13:52:02:41,32.583,0.498,-0.762,-0.307,66.822,-146.845,-71.124
13:52:02:411,32.584,0.359,-0.863,-0.418,64.194,-146.048,-72.825
13:52:02:412,32.585,0.351,-1.007,-0.463,62.122,-144.926,-73.062
13:52:02:435,32.608,0.452,-0.935,-0.400,61.550,-144.535,-72.866
13:52:02:435,32.609,0.517,-1.057,-0.568,59.092,-144.610,-71.382
13:52:02:436,32.610,0.673,-0.818,-0.615,55.183,-145.025,-69.377
13:52:02:437,32.610,0.835,-0.418,-0.537,44.997,-147.147,-65.112
13:52:02:516,32.690,0.876,0.417,-0.348,31.104,-151.487,-58.799
13:52:02:516,32.690,0.933,0.863,-0.239,23.513,-154.812,-53.045
13:52:02:516,32.690,1.209,1.258,-0.109,18.812,-158.913,-42.305
13:52:02:516,32.690,0.957,1.604,0.034,18.486,-160.920,-33.662
13:52:02:649,32.823,0.421,1.420,0.423,19.195,-163.925,-20.741
13:52:02:649,32.823,0.206,1.130,0.573,20.125,-167.145,-14.014
13:52:02:649,32.823,-0.266,0.565,0.315,21.764,-175.068,-7.780
13:52:02:65,32.823,-0.417,0.238,0.076,24.052,174.693,-5.776
13:52:02:721,32.894,-0.508,0.128,0.192,25.776,168.459,-5.595
13:52:02:722,32.895,-0.598,0.140,0.254,28.648,162.003,-5.216
13:52:02:723,32.896,-0.718,-0.036,0.575,30.985,159.952,-4.369
13:52:02:802,32.976,-0.752,-0.343,0.357,34.894,159.323,-1.989
13:52:02:802,32.976,-0.841,-0.647,0.302,38.801,160.877,2.574
13:52:02:802,32.976,-0.884,-0.631,0.300,41.629,162.237,6.278
13:52:02:935,33.108,-1.077,-0.825,0.140,46.128,163.949,11.343
13:52:02:935,33.108,-1.336,-1.178,0.239,48.953,165.733,14.759
13:52:02:935,33.108,-0.993,-0.739,0.236,51.430,168.863,18.235
13:52:02:936,33.109,-0.709,-0.685,0.062,51.936,171.443,18.922
13:52:03:111,33.285,-0.900,-0.732,0.072,51.285,172.299,18.199
13:52:03:112,33.285,-1.059,-0.277,0.602,49.453,173.222,15.499
13:52:03:164,33.338,-1.155,0.091,1.119,47.839,173.860,12.691
13:52:03:165,33.339,-0.937,0.185,1.227,44.096,174.880,7.137
13:52:03:215,33.388,-0.510,0.568,1.341,39.215,176.864,0.232
13:52:03:451,33.624,-0.094,1.024,1.374,36.193,178.550,-5.293
13:52:03:485,33.658,0.326,0.783,0.999,32.014,-179.097,-14.600
13:52:03:485,33.659,0.329,0.590,0.670,29.089,-177.435,-20.608
13:52:03:486,33.660,0.403,0.308,0.457,25.036,-172.405,-27.923
13:52:03:487,33.661,0.564,0.097,0.316,22.446,-164.965,-33.902
13:52:03:533,33.707,0.673,0.021,0.230,21.916,-159.787,-37.636
13:52:03:534,33.708,0.865,-0.220,0.070,22.864,-152.107,-42.055
13:52:03:61,33.783,0.794,-0.264,0.008,24.170,-147.253,-44.134
13:52:03:611,33.784,0.784,-0.333,-0.007,26.765,-140.848,-46.540
13:52:03:77,33.943,0.968,-0.664,-0.443,30.242,-135.173,-48.423
13:52:03:77,33.943,0.908,-0.769,-0.596,32.528,-132.113,-49.110
13:52:03:931,34.105,0.785,-0.758,-0.685,34.832,-128.902,-48.703
13:52:03:932,34.106,0.728,-0.533,-0.797,35.555,-127.733,-47.820
13:52:03:933,34.107,0.566,-0.435,-0.840,35.222,-126.888,-45.756
13:52:03:934,34.108,0.070,0.030,-0.664,32.362,-126.133,-41.909
13:52:03:983,34.157,-0.098,0.161,-0.543,30.295,-124.727,-38.387
13:52:03:984,34.158,0.498,0.419,-0.715,28.723,-120.594,-31.694
13:52:03:985,34.158,0.493,0.715,-0.565,27.739,-116.628,-25.835
13:52:03:986,34.159,0.408,0.817,-0.340,25.940,-109.976,-15.475
13:52:04:01,34.183,0.407,0.756,-0.379,24.750,-105.222,-5.803
13:52:04:01,34.184,0.298,0.694,0.002,24.166,-106.157,-1.091
13:52:04:011,34.185,0.152,0.506,0.324,24.682,-113.124,3.648
13:52:04:064,34.237,-0.155,0.123,0.759,29.803,-131.421,8.015
13:52:04:064,34.237,-0.330,-0.048,0.952,32.995,-138.743,8.797
13:52:04:064,34.238,-0.582,-0.223,0.900,38.006,-147.090,9.994
13:52:04:064,34.238,-0.868,-0.512,0.819,42.617,-149.954,13.409
13:52:04:088,34.262,-0.643,-0.747,0.930,45.358,-148.518,17.374
13:52:04:089,34.263,-0.633,-0.895,0.818,48.725,-144.143,23.580
13:52:04:09,34.263,-0.558,-0.708,0.928,50.713,-141.547,26.711
13:52:04:091,34.264,-0.447,-0.628,0.939,51.491,-140.606,27.309
13:52:04:141,34.315,-0.487,-0.694,0.852,51.719,-141.266,25.792
13:52:04:142,34.316,-0.545,-0.641,0.832,51.024,-143.267,23.111
13:52:04:143,34.316,0.302,0.630,0.909,33.366,-137.421,1.848
13:52:04:144,34.317,0.391,0.651,0.638,28.341,-132.737,-5.556
13:52:04:19,34.364,0.577,0.568,0.287,25.453,-129.420,-10.666
13:52:04:19,34.364,0.616,0.422,0.065,22.195,-123.190,-18.078
13:52:04:302,34.476,0.586,0.233,-0.164,20.443,-115.866,-24.811
13:52:04:302,34.476,0.540,0.063,-0.337,20.429,-110.729,-28.874
13:52:04:302,34.476,0.439,-0.033,-0.515,21.856,-103.799,-34.314
13:52:04:302,34.476,0.390,-0.257,-0.678,24.627,-98.366,-39.003
13:52:04:378,34.552,0.332,-0.527,-0.915,26.626,-95.497,-41.392
13:52:04:378,34.552,0.149,-0.731,-1.036,29.160,-93.169,-44.616
13:52:04:379,34.553,0.097,-0.825,-1.295,29.954,-92.893,-46.374
13:52:04:38,34.554,-0.019,-0.583,-1.131,28.681,-94.177,-47.386
13:52:04:431,34.604,-0.161,-0.359,-0.852,25.709,-95.799,-46.179
13:52:04:431,34.605,-0.018,-0.323,-0.892,24.063,-96.533,-44.258
13:52:04:432,34.606,0.353,0.154,-1.096,21.941,-97.583,-39.865
13:52:04:433,34.606,0.296,0.741,-0.919,20.231,-98.374,-36.030
13:52:04:456,34.629,0.422,0.842,-0.468,17.006,-99.015,-22.453
13:52:04:456,34.630,0.406,0.688,-0.196,16.337,-99.502,-13.641
13:52:04:457,34.631,0.312,0.473,0.097,16.185,-101.747,-5.245
13:52:04:499,34.673,0.234,0.378,0.298,16.539,-104.318,-0.172
13:52:04:589,34.762,0.084,0.212,0.516,17.865,-108.834,6.952
13:52:04:589,34.762,0.094,0.226,0.625,19.567,-112.679,10.929
13:52:04:589,34.763,-0.074,0.157,0.889,23.202,-119.622,15.483
13:52:04:59,34.764,-0.308,-0.022,0.972,27.341,-125.574,19.586
13:52:04:743,34.917,-0.418,-0.212,1.064,30.544,-128.593,22.440
13:52:04:743,34.917,-0.522,-0.671,1.129,35.919,-131.723,26.898
13:52:04:744,34.918,-0.576,-0.984,1.167,39.499,-133.001,29.831
13:52:04:798,34.972,-0.840,-1.163,1.039,44.473,-135.063,32.514
13:52:04:799,34.973,-0.870,-0.915,0.964,46.835,-136.162,32.996
13:52:04:8,34.974,-0.635,-0.783,0.805,46.768,-134.390,33.721
13:52:04:801,34.975,-0.525,-0.606,0.857,44.848,-132.391,33.705
13:52:04:875,35.049,-0.552,-0.428,1.007,43.126,-131.911,32.137
13:52:04:876,35.049,-0.423,-0.218,1.282,39.852,-131.847,27.592
13:52:04:877,35.050,-0.153,0.218,1.319,35.380,-131.615,20.824
13:52:04:878,35.051,0.038,0.536,1.274,31.979,-131.229,15.197
13:52:04:893,35.067,0.181,0.842,0.948,26.731,-129.943,5.855
13:52:04:948,35.122,0.271,0.789,0.497,23.427,-127.862,-0.055
13:52:04:949,35.122,0.341,0.678,0.196,19.879,-121.949,-7.191
13:52:04:973,35.147,0.422,0.496,0.029,18.714,-113.062,-12.270
13:52:05:028,35.202,0.418,0.356,-0.029,19.286,-106.553,-15.137
13:52:05:028,35.202,0.460,0.038,-0.413,21.902,-96.411,-18.590
13:52:05:11,35.283,0.499,-0.046,-0.611,24.514,-90.279,-20.395
13:52:05:11,35.284,0.437,-0.212,-0.826,28.872,-82.576,-22.686
13:52:05:111,35.285,0.185,-0.553,-1.006,32.974,-77.466,-24.703
13:52:05:182,35.356,0.174,-0.597,-0.938,35.386,-75.420,-25.416
13:52:05:271,35.444,0.199,-0.843,-1.193,38.371,-74.967,-26.822
13:52:05:271,35.445,0.210,-0.822,-1.128,39.279,-77.480,-28.910
13:52:05:272,35.446,0.025,-0.565,-0.641,37.779,-83.957,-32.204
13:52:05:321,35.494,0.407,0.061,-1.247,32.073,-93.133,-32.811
13:52:05:321,35.494,0.374,0.601,-0.853,27.476,-98.075,-28.649
13:52:05:321,35.495,0.297,0.794,-0.370,24.009,-99.526,-23.238
13:52:05:397,35.571,0.367,0.751,-0.147,20.996,-99.845,-14.754
13:52:05:398,35.572,0.129,0.699,-0.473,19.218,-99.408,-9.581
13:52:05:399,35.573,-0.143,0.508,-0.226,16.619,-100.585,-2.071
13:52:05:419,35.592,0.028,0.455,0.029,15.624,-105.124,4.102
13:52:05:473,35.647,0.021,0.433,0.637,16.582,-111.229,7.189
13:52:05:474,35.648,-0.124,0.228,0.932,20.350,-123.331,9.351
13:52:05:497,35.670,-0.232,0.067,0.941,23.845,-131.884,9.797
13:52:05:633,35.806,-0.542,-0.238,1.152,29.949,-143.947,9.174
13:52:05:633,35.806,-0.643,-0.585,1.007,35.919,-152.923,7.959
13:52:05:769,35.943,-0.603,-0.622,0.886,39.225,-157.060,6.837
13:52:05:77,35.944,-0.547,-0.637,0.821,43.277,-160.085,5.966
13:52:05:771,35.945,-0.690,-0.680,1.089,45.335,-160.183,6.153
13:52:05:771,35.945,-0.502,-0.723,1.217,47.336,-157.845,7.159
13:52:05:788,35.962,-0.338,-0.679,1.152,47.636,-153.178,8.832
13:52:05:789,35.963,-0.373,-0.639,1.064,46.721,-149.206,10.069
13:52:05:874,36.048,-0.130,-0.349,1.193,44.255,-142.004,11.483
13:52:05:875,36.049,0.189,0.088,1.369,42.050,-136.736,11.763
13:52:05:876,36.049,0.485,0.489,1.286,37.766,-128.694,10.457
13:52:05:877,36.050,0.708,0.690,0.994,32.720,-121.335,6.313
13:52:05:925,36.099,0.769,0.850,0.750,29.561,-117.070,1.992
13:52:05:926,36.100,0.771,0.793,0.281,25.652,-111.353,-6.023
13:52:05:927,36.101,0.696,0.592,0.016,23.618,-107.794,-11.719
13:52:05:928,36.101,0.495,0.139,-0.208,21.161,-102.630,-20.259
13:52:05:945,36.119,0.434,0.054,-0.418,19.880,-99.114,-25.726
13:52:05:997,36.170,0.366,0.018,-0.566,19.167,-94.281,-33.268
13:52:06:027,36.200,0.311,-0.102,-0.701,19.522,-89.969,-39.080
13:52:06:027,36.200,0.264,-0.291,-0.579,20.082,-87.374,-41.791
13:52:06:077,36.251,0.208,-0.439,-0.781,21.846,-82.987,-44.413
13:52:06:235,36.409,0.179,-0.575,-0.775,23.812,-80.099,-45.599
13:52:06:236,36.409,0.166,-0.488,-0.904,27.315,-76.261,-46.666
13:52:06:294,36.468,0.000,-0.522,-0.758,29.493,-73.950,-47.180
13:52:06:295,36.469,-0.092,-0.651,-0.637,29.259,-72.982,-47.293
13:52:06:295,36.469,-0.370,-0.441,-0.266,25.515,-71.834,-46.638
13:52:06:296,36.470,-0.515,0.105,-0.050,22.516,-70.933,-45.354
13:52:06:45,36.623,-0.390,0.257,-0.363,21.062,-68.420,-42.100
13:52:06:45,36.624,-0.245,0.440,-0.430,21.337,-63.265,-35.981
13:52:06:451,36.625,-0.554,0.411,-0.527,21.022,-58.818,-30.217
13:52:06:479,36.653,-0.681,0.389,-0.474,19.589,-53.535,-20.903
13:52:06:479,36.653,-0.567,0.338,-0.349,18.384,-52.626,-15.718
13:52:06:479,36.653,-0.168,0.400,-0.089,16.728,-56.191,-9.565
13:52:06:479,36.653,0.170,0.350,0.178,16.562,-63.410,-4.641
13:52:06:608,36.782,0.246,0.302,0.290,17.506,-68.882,-1.726
13:52:06:609,36.783,0.323,0.132,0.587,20.264,-76.920,2.296
13:52:06:61,36.784,0.400,0.024,0.770,22.835,-81.057,4.892
13:52:06:684,36.858,0.218,-0.338,1.009,31.074,-83.705,14.396
13:52:06:685,36.859,0.332,-0.468,1.354,33.613,-81.707,18.715
13:52:06:686,36.860,0.731,-0.809,1.318,36.454,-75.972,25.237
13:52:06:767,36.940,0.667,-0.591,1.222,36.681,-71.575,28.225
13:52:06:767,36.941,0.530,-0.510,0.913,35.379,-65.138,30.824
13:52:06:768,36.942,0.523,-0.493,0.969,33.835,-61.275,31.662
13:52:06:769,36.942,0.752,-0.331,0.954,31.709,-57.899,30.298
13:52:06:845,37.019,0.970,0.009,0.774,30.394,-57.072,25.964
13:52:06:845,37.019,1.094,0.160,0.451,29.312,-57.169,21.848
13:52:06:846,37.019,1.127,0.435,0.258,27.436,-57.266,14.382
13:52:06:847,37.020,1.107,0.805,-0.093,25.903,-56.270,8.927
13:52:06:923,37.097,0.826,0.960,-0.347,23.591,-52.038,0.817
13:52:06:924,37.098,0.401,0.781,-0.770,22.174,-44.552,-7.076
13:52:06:926,37.099,-0.006,0.403,-0.822,21.896,-38.541,-12.007
13:52:06:926,37.100,-0.178,0.042,-0.532,21.877,-30.503,-18.818
13:52:06:969,37.143,-0.173,-0.042,-0.432,22.033,-26.372,-23.143
13:52:07:056,37.230,-0.204,-0.136,-0.516,22.750,-22.058,-29.507
13:52:07:056,37.230,-0.429,-0.392,-0.536,23.300,-19.766,-35.696
13:52:07:057,37.231,-0.396,-0.469,-0.481,23.258,-19.172,-39.232
13:52:07:057,37.231,-0.405,-0.497,-0.442,22.755,-18.855,-43.417
13:52:07:132,37.306,-0.484,-0.614,-0.336,22.382,-18.862,-45.786
13:52:07:133,37.306,-0.521,-0.610,-0.292,21.831,-18.819,-48.907
13:52:07:134,37.307,-0.648,-0.536,-0.167,20.538,-18.600,-51.289
13:52:07:181,37.354,-0.746,-0.362,-0.064,19.253,-18.408,-52.320
13:52:07:183,37.356,-0.809,-0.250,0.210,16.866,-18.086,-52.584
13:52:07:267,37.440,-0.829,-0.115,0.139,15.082,-17.522,-51.697
13:52:07:267,37.440,-0.857,0.203,-0.085,13.078,-15.895,-48.418
13:52:07:267,37.441,-0.816,0.466,-0.028,11.682,-13.385,-42.728
13:52:07:267,37.441,-0.632,0.678,0.074,10.637,-11.532,-37.663
13:52:07:45,37.624,-0.802,0.483,-0.065,10.258,-8.123,-29.640
13:52:07:45,37.624,-0.833,0.285,-0.075,10.207,-5.952,-24.602
13:52:07:45,37.624,-0.641,0.283,-0.091,9.324,-5.833,-17.409
13:52:07:45,37.624,-0.178,0.363,-0.056,8.019,-10.250,-10.407
13:52:07:582,37.755,0.117,0.341,-0.052,7.687,-15.174,-5.937
13:52:07:582,37.755,0.430,0.310,0.025,8.620,-24.508,0.414
13:52:07:582,37.756,0.614,0.227,0.160,10.287,-31.016,4.251
13:52:07:583,37.757,0.673,0.104,0.300,13.852,-39.422,9.159
13:52:07:633,37.807,0.706,-0.077,0.441,17.965,-44.501,13.626
13:52:07:633,37.807,0.692,-0.202,0.509,20.714,-45.987,16.804
13:52:07:634,37.808,0.790,-0.311,0.519,24.706,-45.816,22.123
13:52:07:635,37.809,0.877,-0.383,0.495,27.503,-45.058,26.014
13:52:07:661,37.834,1.476,-0.887,0.450,32.476,-45.243,30.798
13:52:07:661,37.834,0.786,-0.550,0.769,35.571,-47.400,31.533
13:52:07:661,37.835,0.535,-0.413,0.615,38.127,-52.412,28.895
13:52:07:661,37.835,0.703,-0.540,0.696,37.896,-55.757,26.026
13:52:07:706,37.879,0.931,-0.489,0.715,36.568,-56.825,24.003
13:52:07:706,37.880,1.243,-0.098,0.525,33.154,-57.242,19.629
13:52:07:728,37.901,1.305,0.384,0.274,30.212,-56.314,16.323
13:52:07:869,38.043,1.049,0.701,0.088,24.877,-52.716,10.388
13:52:07:869,38.043,0.641,0.805,-0.104,19.624,-46.782,3.117
13:52:07:87,38.044,0.382,0.766,-0.151,16.771,-41.930,-1.897
13:52:07:87,38.044,0.103,0.590,-0.274,14.184,-32.961,-9.537
13:52:07:947,38.120,0.015,0.397,-0.389,13.385,-26.691,-14.865
13:52:07:947,38.121,-0.295,0.252,-0.531,14.046,-17.653,-22.816
13:52:07:948,38.122,-0.471,0.159,-0.416,15.801,-11.291,-30.491
13:52:07:949,38.122,-0.603,-0.072,-0.356,17.524,-7.819,-35.005
13:52:08:078,38.252,-0.618,-0.263,-0.307,20.253,-4.160,-40.914
13:52:08:079,38.253,-0.649,-0.327,-0.288,22.129,-2.708,-44.250
13:52:08:08,38.254,-0.732,-0.441,-0.274,24.987,-1.362,-48.066
13:52:08:081,38.255,-0.777,-0.503,-0.306,28.177,-0.821,-50.672
13:52:08:098,38.272,-0.873,-0.546,-0.294,30.069,-0.856,-52.024
13:52:08:099,38.273,-0.822,-0.798,-0.183,30.632,-1.636,-53.189
13:52:08:153,38.327,-0.793,-0.711,0.041,28.451,-2.865,-53.380
13:52:08:153,38.327,-0.875,-0.460,0.062,21.732,-5.930,-52.496
13:52:08:174,38.348,-0.876,-0.101,0.175,12.874,-8.952,-49.344
13:52:08:228,38.401,-0.854,0.242,0.416,8.189,-9.793,-45.780
13:52:08:343,38.517,-0.800,0.661,0.516,5.784,-8.412,-38.983
13:52:08:344,38.517,-0.758,0.581,0.379,6.470,-5.119,-33.454
13:52:08:344,38.517,-0.714,0.419,0.159,8.144,3.152,-23.577
13:52:08:344,38.518,-0.611,0.367,0.104,8.897,8.234,-16.890
13:52:08:393,38.567,-0.350,0.472,0.112,8.457,12.619,-7.101
13:52:08:394,38.567,-0.070,0.751,0.032,7.806,12.286,1.774
13:52:08:394,38.567,0.580,0.507,0.148,8.095,10.070,7.114
13:52:08:41,38.584,0.803,0.292,0.267,9.801,5.801,14.406
13:52:08:466,38.639,1.221,-0.013,0.433,11.631,2.434,18.856
13:52:08:466,38.640,1.411,-0.308,0.278,15.961,-1.530,24.890
13:52:08:548,38.721,1.666,-0.675,0.310,21.961,-4.309,30.282
13:52:08:548,38.722,1.659,-1.255,0.116,25.843,-5.731,31.921
13:52:08:549,38.723,1.409,-0.441,0.198,28.248,-5.557,32.118
13:52:08:626,38.800,0.939,-0.434,0.059,27.689,-2.921,32.512
13:52:08:627,38.801,1.002,-0.383,-0.030,26.424,0.095,30.998
13:52:08:627,38.801,1.063,-0.034,-0.485,26.363,0.184,26.752
13:52:08:787,38.961,1.272,0.298,-0.697,26.502,-0.996,22.624
13:52:08:788,38.961,0.986,0.331,-0.562,26.722,-2.585,14.932
13:52:08:789,38.962,0.822,0.491,-0.475,26.347,-3.085,9.187
13:52:08:84,39.014,0.088,0.736,-0.727,24.202,5.274,-6.606
13:52:08:84,39.014,-0.235,0.645,-0.805,24.241,11.915,-10.564
13:52:08:841,39.015,-0.660,0.570,-0.806,26.067,23.750,-15.769
13:52:08:842,39.016,-0.953,0.505,-0.722,28.493,31.996,-18.740
13:52:08:857,39.031,-1.240,0.370,-0.438,33.683,44.602,-22.092
13:52:08:917,39.091,-1.280,0.018,-0.004,39.839,56.531,-24.176
13:52:08:919,39.093,-1.219,-0.204,0.195,43.852,63.039,-25.559
13:52:08:919,39.093,-0.937,-0.548,0.391,49.244,68.493,-28.656
13:52:08:963,39.136,-0.812,-0.734,0.457,52.336,68.401,-32.518
13:52:08:993,39.167,-0.869,-1.023,0.453,56.071,62.497,-41.881
13:52:08:993,39.167,-0.879,-1.331,0.492,57.413,53.094,-52.653
13:52:09:041,39.215,-0.915,-1.271,0.614,56.286,47.139,-58.366
13:52:09:067,39.240,-0.620,-0.868,0.595,49.546,40.820,-62.860
13:52:09:126,39.300,-0.404,-0.434,0.671,40.917,38.915,-62.922
13:52:09:126,39.300,-0.377,-0.264,0.980,29.606,40.029,-59.547
13:52:09:127,39.300,-0.085,0.426,1.125,25.710,43.332,-55.142
13:52:09:234,39.407,-0.065,0.499,0.811,25.414,52.488,-45.767
13:52:09:234,39.407,-1.105,0.248,1.313,26.171,68.793,-32.955
13:52:09:235,39.408,-0.505,0.299,1.397,25.364,78.308,-23.889
13:52:09:235,39.409,-0.343,0.696,1.137,21.343,83.683,-13.754
13:52:09:28,39.453,-0.101,0.909,0.507,18.090,81.748,-9.109
13:52:09:28,39.454,0.150,0.541,-0.010,14.231,72.062,-4.165
13:52:09:303,39.476,0.170,0.507,-0.382,12.581,58.060,0.529
13:52:09:385,39.559,0.308,0.458,-0.636,13.164,47.962,3.569
13:52:09:386,39.560,0.533,0.345,-0.751,15.831,34.840,7.597
13:52:09:576,39.749,0.642,0.170,-0.790,18.573,28.785,10.330
13:52:09:576,39.750,0.981,-0.073,-1.000,23.502,23.952,15.247
13:52:09:577,39.751,1.020,-0.784,-1.106,27.959,23.766,20.511
13:52:09:578,39.751,1.110,-0.899,-0.727,29.521,24.747,22.818
13:52:09:645,39.819,0.808,-0.284,-0.564,29.482,27.737,24.687
13:52:09:677,39.851,0.827,-0.404,-0.446,28.199,30.725,25.689
13:52:09:678,39.851,0.835,-0.380,-0.451,25.443,33.248,25.349
13:52:09:679,39.852,0.766,-0.153,-0.664,23.856,32.094,21.714
13:52:09:732,39.906,0.653,0.030,-0.881,22.900,30.443,17.976
13:52:09:733,39.907,0.469,0.629,-1.023,20.459,29.114,11.268
13:52:09:734,39.908,0.259,0.927,-0.895,18.317,30.062,6.238
13:52:09:734,39.908,-0.063,0.972,-0.497,15.493,34.641,-1.846
13:52:09:755,39.929,-0.205,0.807,-0.103,14.244,41.760,-10.558
13:52:09:756,39.930,-0.306,0.700,0.023,14.810,47.444,-16.399
13:52:09:757,39.931,-0.581,0.320,0.226,17.702,56.303,-25.121
13:52:09:803,39.976,-0.668,0.038,0.365,20.493,61.289,-30.816
13:52:09:833,40.006,-0.606,-0.109,0.476,24.956,66.221,-39.427
13:52:09:833,40.006,-0.584,-0.225,0.632,29.152,68.831,-48.029
13:52:09:885,40.059,-0.583,-0.336,0.719,31.755,69.811,-53.368
13:52:09:885,40.059,-0.579,-0.377,0.826,35.585,70.589,-60.159
13:52:09:906,40.080,-0.575,-0.592,0.949,38.325,70.817,-63.621
13:52:09:933,40.107,-0.374,-0.882,0.780,41.912,70.563,-67.133
13:52:09:959,40.133,-0.332,-1.149,0.780,43.828,70.299,-68.754
13:52:09:986,40.159,-0.317,-1.184,0.873,43.843,69.233,-70.291
13:52:10:012,40.185,-0.249,-0.930,0.923,36.639,67.775,-70.186
13:52:10:038,40.211,-0.173,-0.704,1.084,27.325,66.949,-68.999
13:52:10:064,40.238,-0.108,-0.436,1.111,11.953,66.136,-65.253
13:52:10:091,40.265,-0.089,0.010,1.183,5.000,65.864,-61.413
13:52:10:117,40.290,-0.173,0.272,1.237,1.873,65.940,-54.291
13:52:10:145,40.318,-0.325,0.336,1.079,3.587,67.505,-45.049
13:52:10:17,40.344,-0.248,0.561,1.167,5.083,69.244,-37.926
13:52:10:195,40.369,-0.188,0.667,0.658,6.754,70.555,-27.169
13:52:10:251,40.425,-0.137,0.565,0.481,7.319,70.019,-20.232
13:52:10:252,40.425,0.106,0.589,0.085,7.515,65.502,-11.035
13:52:10:275,40.448,0.064,0.557,-0.294,8.973,58.480,-3.216
13:52:10:46,40.634,0.144,0.538,-0.458,10.760,54.621,1.558
13:52:10:493,40.667,0.262,0.346,-0.652,13.858,49.193,7.884
13:52:10:494,40.668,0.368,0.164,-0.855,16.119,46.386,11.667
13:52:10:495,40.669,0.539,-0.085,-0.883,19.647,43.914,16.963
13:52:10:496,40.669,0.610,-0.431,-0.849,22.947,44.010,22.601
13:52:10:625,40.799,0.576,-0.528,-0.936,24.930,45.228,26.388
13:52:10:626,40.799,0.704,-0.632,-1.126,27.624,46.903,30.835
13:52:10:626,40.800,0.869,-0.680,-0.760,28.760,46.655,31.994
13:52:10:627,40.801,0.864,-0.606,-0.598,28.956,45.496,31.415
13:52:10:651,40.825,0.582,-0.508,-0.656,27.532,44.933,28.970
13:52:10:652,40.826,0.439,-0.424,-0.741,26.065,44.611,26.206
13:52:10:653,40.826,0.227,0.131,-0.990,23.301,43.624,20.205
13:52:10:654,40.827,0.146,0.807,-0.939,20.772,42.948,15.089
13:52:10:7,40.873,0.182,0.818,-0.651,16.592,42.690,6.189
13:52:10:701,40.874,0.150,0.773,-0.359,13.668,43.044,-0.407
13:52:10:701,40.875,0.157,0.782,-0.088,9.450,45.452,-10.434
13:52:10:723,40.897,-0.242,0.657,0.139,6.818,51.792,-20.402
13:52:10:776,40.950,-0.452,0.620,0.283,6.723,57.516,-27.017
13:52:10:777,40.950,-0.598,0.430,0.551,9.314,65.875,-36.582
13:52:10:799,40.973,-0.619,0.150,0.821,12.807,70.806,-42.425
13:52:10:854,41.028,-0.553,-0.087,0.999,21.098,77.252,-50.179
13:52:10:855,41.029,-0.399,-0.390,1.064,30.854,81.113,-56.845
13:52:10:88,41.053,-0.386,-0.604,0.988,36.860,82.117,-60.731
13:52:10:906,41.079,-0.257,-0.893,0.873,43.573,82.005,-65.698
13:52:10:931,41.105,-0.146,-1.269,1.049,46.293,81.311,-68.639
13:52:10:986,41.160,-0.081,-1.300,1.023,46.212,79.234,-71.956
13:52:10:986,41.160,-0.284,-0.871,0.983,36.631,76.195,-72.843
13:52:11:009,41.183,-0.328,-0.673,1.016,23.261,74.033,-72.265
13:52:11:099,41.272,-0.291,-0.467,1.396,0.582,71.104,-69.532
13:52:11:099,41.273,0.156,-0.099,1.252,-8.546,69.340,-65.918
13:52:11:099,41.273,0.290,0.230,1.130,-9.501,67.879,-57.834
13:52:11:1,41.273,0.129,0.356,0.943,-1.413,69.089,-48.167
13:52:11:144,41.317,-0.234,0.181,1.055,4.876,72.212,-41.068
13:52:11:144,41.318,-0.265,0.242,0.986,9.792,77.748,-29.730
13:52:11:431,41.604,-0.213,0.354,0.795,9.920,78.520,-22.626
13:52:11:468,41.641,-0.169,0.688,-0.033,8.739,72.578,-13.810
13:52:11:468,41.641,-0.104,0.753,-0.279,9.404,64.085,-6.732
13:52:11:468,41.641,0.032,0.731,-0.449,10.598,58.341,-2.374
13:52:11:468,41.642,0.286,0.654,-0.688,13.254,50.263,3.378
13:52:11:546,41.720,0.399,0.356,-0.899,15.555,46.587,7.028
13:52:11:546,41.720,0.495,0.086,-0.965,19.218,45.065,13.123
13:52:11:546,41.720,0.592,-0.367,-1.003,22.848,47.673,20.339
13:52:11:547,41.721,0.481,-0.582,-1.111,25.158,50.199,25.122
13:52:11:599,41.772,0.618,-0.953,-1.153,28.240,51.793,29.745
13:52:11:599,41.772,0.792,-0.601,-0.722,29.479,50.196,29.249
13:52:11:599,41.773,0.783,-0.458,-0.627,30.579,46.963,26.755
13:52:11:599,41.773,0.736,-0.419,-0.870,30.636,41.904,21.169
13:52:11:624,41.798,0.641,-0.311,-0.962,29.882,37.906,16.007
13:52:11:624,41.798,0.650,0.360,-1.204,27.125,33.569,7.617
13:52:11:625,41.798,0.403,1.089,-1.081,24.405,33.084,1.912
13:52:11:625,41.798,0.127,1.385,-0.744,20.107,36.188,-6.880
13:52:11:671,41.845,-0.327,1.396,-0.259,18.204,40.603,-13.007
13:52:11:675,41.849,-0.650,1.260,0.139,18.136,49.274,-22.514
13:52:11:675,41.849,-0.975,0.825,0.582,21.861,57.826,-32.333
13:52:11:692,41.865,-0.969,0.503,0.755,26.056,62.112,-38.799
13:52:11:832,42.006,-0.990,0.051,0.820,33.382,65.709,-48.844
13:52:11:833,42.007,-0.829,-0.236,0.839,37.468,66.247,-55.452
13:52:11:834,42.008,-0.894,-0.099,0.527,37.142,63.139,-65.892
13:52:11:834,42.008,-2.001,0.107,0.512,0.416,58.477,-75.970
13:52:11:91,42.084,-1.798,0.289,0.672,-62.950,57.165,-81.722
13:52:11:911,42.085,-0.492,0.086,1.012,-93.886,65.068,-92.567
13:52:11:912,42.086,-0.323,-0.225,1.184,-105.144,74.238,-101.351
13:52:11:913,42.086,-0.394,-0.303,1.077,-128.785,86.471,-113.429
13:52:11:93,42.104,-0.673,-0.016,1.293,-172.914,91.545,-120.277
13:52:12:043,42.217,-1.038,-0.635,1.234,147.981,89.172,-124.172
13:52:12:043,42.217,-0.600,-1.474,0.905,120.329,71.278,-144.659
13:52:12:043,42.217,0.636,-1.338,1.040,113.979,33.562,175.045
13:52:12:044,42.218,1.000,-0.808,-0.062,110.287,-8.303,124.216
13:52:12:118,42.291,0.962,-0.324,0.121,104.087,-8.765,110.510
13:52:12:118,42.292,0.781,-0.088,0.192,99.502,-5.999,105.423
13:52:12:119,42.293,0.570,0.059,-0.068,94.827,-4.107,97.984
13:52:12:138,42.311,0.438,-0.047,-0.119,92.824,-2.110,94.448
13:52:12:224,42.398,0.180,-0.060,-0.078,91.336,1.897,91.918
13:52:12:224,42.398,0.105,-0.036,-0.015,91.381,6.980,91.892
13:52:12:224,42.398,0.009,-0.064,-0.026,91.805,10.426,92.427
13:52:12:276,42.449,-0.038,-0.135,-0.004,92.710,15.296,93.580
13:52:12:276,42.449,-0.046,-0.268,0.063,93.315,18.307,94.371
13:52:12:324,42.498,-0.092,-0.220,0.051,93.740,21.954,94.892
13:52:12:325,42.499,-0.031,-0.056,0.096,93.618,23.531,94.659
13:52:12:439,42.612,0.022,-0.044,0.190,93.036,25.227,93.879
13:52:12:439,42.613,0.046,0.002,0.231,92.385,26.689,93.020
13:52:12:439,42.613,0.053,0.057,0.183,92.157,27.768,92.697
13:52:12:44,42.613,-0.030,0.137,0.135,92.120,29.781,92.674
13:52:12:568,42.741,-0.125,0.172,0.221,91.998,31.088,92.570
13:52:12:568,42.742,-0.155,0.159,0.247,91.349,32.637,91.771
13:52:12:569,42.742,-0.096,0.158,0.296,90.428,33.756,90.572
13:52:12:57,42.743,-0.112,0.183,0.359,89.645,34.266,89.515
13:52:12:587,42.761,-0.177,0.133,0.309,88.215,34.736,87.483
13:52:12:588,42.762,-0.112,-0.044,0.330,87.404,35.069,86.253
13:52:12:64,42.813,-0.103,-0.132,0.283,86.700,36.745,85.086
13:52:12:64,42.814,-0.094,-0.186,0.206,86.787,38.432,85.003
13:52:12:664,42.837,-0.064,-0.243,0.194,87.137,40.549,85.325
13:52:12:719,42.893,-0.038,-0.367,0.160,87.829,42.787,86.124
13:52:12:719,42.893,-0.142,-0.462,-0.041,88.322,44.978,86.807
13:52:12:824,42.997,-0.317,-0.492,-0.186,89.368,47.377,88.609
13:52:12:824,42.998,-0.586,-0.718,-0.570,91.033,51.110,93.307
13:52:12:882,43.056,-0.605,-0.968,-0.615,92.139,58.535,102.814
13:52:12:883,43.057,0.105,-1.093,-0.234,93.094,-160.913,-111.615
13:52:12:884,43.058,0.647,-0.767,0.070,93.050,-151.411,-97.906
13:52:12:885,43.058,0.763,-0.258,0.108,92.299,-154.646,-92.990
13:52:13:016,43.190,0.993,-0.560,0.140,89.628,-162.244,-89.652
13:52:13:016,43.190,1.085,-0.438,0.330,85.844,-167.020,-86.638
13:52:13:016,43.190,1.266,0.013,0.418,73.831,-172.494,-78.629
13:52:13:016,43.190,1.269,0.316,0.478,63.829,-173.649,-71.256
13:52:13:093,43.267,1.090,0.587,0.652,52.649,-171.080,-56.998
13:52:13:093,43.267,1.206,0.778,1.131,45.040,-162.447,-37.918
13:52:13:093,43.267,1.024,0.987,1.547,40.240,-154.301,-23.336
13:52:13:094,43.268,0.561,0.727,1.184,34.257,-143.607,-4.208
13:52:13:196,43.370,0.491,0.868,1.049,30.240,-139.834,4.280
13:52:13:197,43.371,0.085,1.087,0.760,24.828,-141.246,10.674
13:52:13:198,43.372,-0.327,0.794,0.593,21.108,-150.059,13.080
13:52:13:199,43.373,-0.534,0.636,0.583,19.902,-158.689,14.075
13:52:13:406,43.579,-0.934,0.365,0.615,20.344,-174.484,15.196
13:52:13:407,43.580,-1.183,0.194,0.460,21.803,174.361,15.756
13:52:13:407,43.581,-1.401,-0.063,0.091,25.485,159.727,17.279
13:52:13:538,43.712,-1.328,-0.448,-0.347,30.474,149.377,19.915
13:52:13:539,43.713,-1.341,-0.725,-0.855,34.030,145.247,22.698
13:52:13:54,43.714,-1.324,-1.079,-1.278,38.672,143.844,28.238
13:52:13:541,43.715,-1.287,-1.008,-1.039,40.382,145.378,31.851
13:52:13:62,43.793,-0.992,-0.597,-0.745,40.454,148.042,33.923
13:52:13:62,43.793,-0.588,-0.046,-0.466,38.573,148.777,32.106
13:52:13:62,43.794,-0.977,-0.193,-0.730,37.568,147.039,28.585
13:52:13:62,43.794,-1.335,-0.106,-0.440,36.415,143.165,20.691
13:52:13:645,43.818,-1.587,0.101,-0.361,35.372,141.092,14.544
13:52:13:645,43.818,-1.584,0.990,0.244,33.211,141.580,5.316
13:52:13:646,43.819,-0.996,1.314,0.689,31.887,144.766,-0.317
13:52:13:647,43.820,-0.485,1.328,1.030,30.778,152.798,-8.372
13:52:13:775,43.948,0.050,1.043,1.221,32.256,163.801,-15.495
13:52:13:776,43.949,0.312,0.544,1.293,35.160,172.568,-18.932
13:52:13:776,43.950,0.755,0.112,1.159,41.558,-174.616,-22.960
13:52:13:777,43.951,1.001,-0.108,1.055,46.126,-167.961,-25.776
13:52:13:801,43.974,1.106,-0.314,0.871,52.505,-162.302,-31.143
13:52:13:802,43.975,1.294,-0.582,0.719,57.792,-160.509,-36.941
13:52:13:803,43.976,1.353,-0.931,0.711,61.114,-161.289,-41.579
13:52:13:804,43.977,1.129,-1.508,0.312,64.709,-164.734,-49.063
13:52:13:848,44.022,1.042,-1.707,0.157,66.556,-168.027,-55.083
13:52:13:849,44.022,0.895,-1.600,0.261,66.959,-172.873,-63.236
13:52:13:931,44.105,0.845,-1.193,-0.075,62.336,-174.122,-66.874
13:52:13:932,44.106,0.779,-0.627,-0.483,55.414,-172.636,-65.486
13:52:13:933,44.107,0.761,-0.091,-0.214,44.666,-168.789,-58.417
13:52:13:934,44.108,1.128,0.579,-0.176,40.815,-163.775,-50.993
13:52:13:977,44.150,0.857,0.752,-0.671,38.710,-150.187,-34.989
13:52:14:065,44.238,1.031,1.054,-0.868,37.233,-136.245,-19.319
13:52:14:065,44.238,0.752,0.984,-0.542,35.386,-134.147,-12.894
13:52:14:065,44.238,0.582,0.662,0.212,33.215,-141.289,-8.345
13:52:14:065,44.239,-0.316,0.511,0.631,32.185,-150.137,-6.941
13:52:14:168,44.342,-0.816,0.438,0.594,31.464,-163.416,-4.379
13:52:14:168,44.342,-0.598,0.309,0.523,33.317,-168.495,1.254
13:52:14:169,44.343,-0.609,0.087,0.563,35.286,-166.943,7.172
13:52:14:17,44.344,-0.987,-0.167,0.408,37.159,-160.162,18.731
13:52:14:213,44.387,-0.963,-0.169,0.393,37.787,-155.688,25.729
13:52:14:241,44.414,-0.994,-0.425,0.352,40.069,-153.146,32.608
13:52:14:242,44.415,-1.425,-0.768,0.165,44.195,-155.358,35.537
13:52:14:295,44.469,-1.522,-0.828,0.060,46.733,-157.454,35.753
13:52:14:296,44.469,-1.202,-0.669,0.190,48.497,-158.772,34.665
13:52:14:454,44.627,-1.002,-0.368,0.429,48.355,-158.345,33.361
13:52:14:454,44.628,-0.988,-0.224,0.833,47.248,-156.419,30.834
13:52:14:589,44.763,-0.915,0.068,1.200,45.854,-153.897,26.990
13:52:14:589,44.763,-0.617,0.124,1.362,44.570,-152.203,23.574
13:52:14:59,44.764,-0.183,0.388,1.462,42.779,-149.463,17.195
13:52:14:591,44.765,0.094,0.482,1.323,41.819,-147.450,12.482
13:52:14:615,44.789,0.472,0.164,0.904,39.625,-141.023,0.940
13:52:14:616,44.790,0.577,-0.036,0.675,38.204,-134.310,-4.315
13:52:14:617,44.791,0.679,-0.059,0.439,36.929,-125.432,-7.876
13:52:14:693,44.867,0.766,0.036,0.354,36.726,-119.438,-9.966
13:52:14:694,44.868,0.901,0.065,0.257,37.667,-110.469,-12.364
13:52:14:695,44.868,1.019,-0.009,0.143,38.787,-104.615,-13.407
13:52:14:696,44.869,1.028,-0.131,-0.040,40.991,-97.033,-14.638
13:52:14:743,44.916,0.956,-0.431,-0.386,43.595,-91.986,-16.683
13:52:14:743,44.917,0.870,-0.638,-0.564,45.185,-90.846,-19.155
13:52:14:744,44.917,0.668,-0.929,-0.872,46.670,-92.822,-24.864
13:52:14:764,44.938,0.274,-0.740,-1.036,46.331,-96.354,-29.341
13:52:14:895,45.069,-0.138,-0.173,-0.938,43.621,-102.418,-34.217
13:52:14:975,45.149,0.110,0.268,0.147,40.525,-105.107,-33.169
13:52:15:141,45.315,0.189,-0.045,-0.449,39.355,-102.688,-29.833
13:52:15:141,45.315,0.490,0.091,-1.404,37.398,-93.053,-20.210
13:52:15:141,45.315,0.231,0.735,-0.891,34.982,-87.318,-12.863
13:52:15:142,45.316,0.113,0.838,-0.332,31.213,-82.438,-4.056
13:52:15:427,45.601,0.274,0.685,-0.195,28.112,-80.513,3.327
13:52:15:428,45.602,0.428,0.704,-0.115,26.763,-81.581,7.409
13:52:15:429,45.602,0.460,0.487,0.244,26.747,-88.454,12.019
13:52:15:481,45.654,0.456,0.203,0.634,28.283,-95.958,13.991
13:52:15:482,45.655,0.233,0.069,0.910,32.524,-109.883,15.380
13:52:15:483,45.656,-0.093,-0.168,1.042,38.000,-125.124,14.392
13:52:15:483,45.657,-0.345,-0.258,1.018,41.524,-134.244,13.231
13:52:15:508,45.681,-0.642,-0.380,1.067,46.143,-143.097,13.171
13:52:15:508,45.681,-0.678,-0.551,1.023,48.782,-143.949,15.880
13:52:15:509,45.682,-0.715,-0.833,1.044,51.801,-137.591,25.083
13:52:15:509,45.683,-0.609,-0.909,1.162,52.549,-129.429,33.918
13:52:15:588,45.762,-0.510,-0.566,0.954,51.879,-125.734,37.182
13:52:15:588,45.762,-0.552,-0.529,0.746,49.724,-123.737,37.782
13:52:15:589,45.762,-0.706,-0.531,0.915,48.154,-125.234,35.141
13:52:15:589,45.762,-0.634,-0.403,1.176,45.598,-128.639,28.831
13:52:15:665,45.838,-0.228,0.011,1.384,43.208,-130.101,23.848
13:52:15:665,45.839,0.023,0.350,1.359,38.993,-130.095,15.934
13:52:15:666,45.840,0.315,0.688,0.969,34.747,-127.771,7.735
13:52:15:667,45.840,0.477,0.774,0.667,32.165,-125.734,1.997
13:52:15:712,45.886,0.529,0.620,0.365,28.942,-122.291,-6.190
13:52:15:712,45.886,0.582,0.408,0.213,27.350,-118.836,-10.982
13:52:15:743,45.917,0.668,0.298,-0.048,25.914,-112.007,-17.303
13:52:15:744,45.918,0.602,0.159,-0.349,25.858,-105.147,-23.168
13:52:15:745,45.919,0.572,0.022,-0.494,26.597,-100.673,-26.780
13:52:15:746,45.920,0.464,-0.155,-0.730,28.278,-95.088,-31.871
13:52:15:797,45.970,0.368,-0.356,-0.842,29.447,-92.339,-34.836
13:52:15:797,45.971,0.258,-0.589,-0.826,30.230,-90.194,-38.478
13:52:15:798,45.972,0.038,-0.652,-0.968,29.824,-89.382,-40.736
13:52:15:799,45.973,-0.054,-0.706,-1.063,29.083,-89.211,-41.151
13:52:15:919,46.093,0.068,-0.443,-0.798,27.340,-89.924,-39.981
13:52:15:955,46.129,-0.097,-0.226,-0.841,25.461,-90.742,-38.336
13:52:15:956,46.130,-0.072,0.120,-0.815,22.318,-91.917,-34.099
13:52:15:957,46.130,0.090,0.536,-0.706,20.790,-91.822,-27.624
13:52:15:957,46.131,0.166,0.754,-0.585,20.449,-90.600,-21.980
13:52:16:033,46.206,0.006,0.681,-0.223,20.134,-87.428,-12.421
13:52:16:033,46.207,0.084,0.633,-0.326,19.911,-85.382,-6.254
13:52:16:034,46.208,0.185,0.644,-0.141,19.570,-85.559,1.456
13:52:16:19,46.364,0.216,0.288,0.244,21.539,-92.856,11.886
13:52:16:19,46.364,0.243,0.110,0.582,24.920,-99.136,17.066
13:52:16:191,46.365,0.307,0.053,0.843,28.076,-103.536,20.068
13:52:16:192,46.366,0.209,-0.059,1.003,33.679,-109.639,24.123
13:52:16:323,46.496,0.093,-0.222,1.065,37.398,-113.130,26.448
13:52:16:323,46.497,-0.077,-0.418,1.056,42.317,-117.387,29.533
13:52:16:324,46.498,-0.173,-0.603,1.013,46.097,-120.219,32.423
13:52:16:325,46.498,-0.599,-0.817,1.123,47.894,-121.569,34.220
13:52:16:37,46.544,-0.825,-1.051,1.232,49.340,-121.751,37.117
13:52:16:371,46.545,-0.734,-1.113,1.024,48.975,-120.031,38.759
13:52:16:372,46.546,-0.661,-0.792,0.921,46.841,-119.757,38.125
13:52:16:402,46.576,-0.792,-0.507,1.090,44.421,-120.680,34.269
13:52:16:403,46.576,-0.639,-0.346,1.227,42.383,-121.825,30.496
13:52:16:403,46.576,-0.193,0.228,1.468,38.696,-122.532,23.517
13:52:16:403,46.577,0.076,0.525,1.353,35.848,-122.349,18.107
13:52:16:444,46.617,0.334,0.748,1.032,31.331,-121.320,9.003
13:52:16:479,46.653,0.444,0.885,0.563,27.314,-118.993,-0.712
13:52:16:48,46.654,0.437,0.762,0.266,25.206,-116.190,-6.766
13:52:16:481,46.654,0.500,0.607,-0.034,23.211,-109.857,-15.349
13:52:16:481,46.655,0.718,0.241,-0.363,23.583,-104.042,-20.293
13:52:16:557,46.731,0.560,0.199,-0.591,25.586,-96.817,-27.565
13:52:16:558,46.732,0.504,-0.009,-0.719,28.602,-91.805,-33.977
13:52:16:559,46.733,0.487,-0.104,-0.833,30.680,-89.541,-37.804
13:52:16:559,46.733,0.330,-0.496,-0.768,32.981,-87.658,-42.462
13:52:16:603,46.776,0.183,-0.708,-0.953,34.001,-86.995,-44.883
13:52:16:634,46.808,0.056,-0.991,-1.143,34.714,-86.725,-47.938
13:52:16:635,46.808,-0.207,-1.011,-1.121,33.223,-87.462,-48.553
13:52:16:635,46.808,-0.063,-0.624,-0.793,30.861,-88.410,-47.604
13:52:16:683,46.856,-0.275,-0.168,-0.971,26.444,-89.615,-44.594
13:52:16:683,46.856,-0.185,0.114,-1.035,24.372,-89.640,-40.971
13:52:16:706,46.879,-0.009,0.710,-1.030,22.861,-88.166,-33.236
13:52:16:761,46.935,-0.113,0.776,-0.591,21.765,-84.819,-22.968
13:52:16:762,46.935,-0.052,0.801,-0.498,21.438,-81.884,-15.533
13:52:16:843,47.016,0.293,0.996,-0.434,21.085,-80.061,-5.309
13:52:16:843,47.017,0.515,0.875,-0.041,21.446,-82.523,0.095
13:52:16:844,47.018,0.566,0.682,0.354,23.723,-91.244,6.543
13:52:16:921,47.095,0.524,0.293,0.774,26.561,-99.146,9.711
13:52:16:922,47.096,0.313,0.063,1.033,32.361,-111.848,12.497
13:52:16:922,47.096,0.107,-0.079,1.264,39.109,-123.331,13.428
13:52:17:002,47.175,-0.046,-0.188,1.329,43.540,-128.558,14.496
13:52:17:002,47.176,-0.294,-0.749,1.773,50.023,-130.214,20.025
13:52:17:002,47.176,-0.659,-1.439,1.445,53.941,-127.070,26.620
13:52:17:077,47.251,-0.810,-1.101,1.013,56.502,-123.772,32.159
13:52:17:078,47.252,-0.624,-0.961,0.941,56.905,-121.277,35.045
13:52:17:215,47.389,-0.664,-1.075,1.129,56.171,-120.579,35.223
13:52:17:215,47.389,-0.629,-0.814,1.283,53.344,-120.855,31.967
13:52:17:216,47.389,-0.212,-0.465,1.502,50.718,-121.080,28.958
13:52:17:216,47.390,-0.011,-0.129,1.576,46.293,-121.345,23.107
13:52:17:284,47.458,0.360,0.455,1.408,40.982,-119.925,16.054
13:52:17:339,47.513,0.641,0.809,1.163,37.422,-117.559,11.147
13:52:17:34,47.514,0.759,0.923,0.775,32.411,-113.601,2.825
13:52:17:372,47.545,0.816,0.904,0.447,29.659,-110.555,-3.027
13:52:17:372,47.546,0.825,0.727,0.104,26.528,-104.746,-11.685
13:52:17:373,47.547,0.716,0.452,-0.218,24.672,-97.529,-19.827
13:52:17:374,47.547,0.638,0.271,-0.428,24.425,-92.461,-24.954
13:52:17:421,47.595,0.480,0.075,-0.643,25.374,-85.517,-32.575
13:52:17:422,47.595,0.402,0.010,-0.775,26.618,-81.768,-37.404
13:52:17:422,47.595,0.338,-0.150,-0.836,29.062,-77.609,-43.722
13:52:17:442,47.616,0.233,-0.394,-1.032,30.765,-75.464,-47.154
13:52:17:496,47.669,0.024,-0.712,-0.968,32.577,-73.241,-50.986
13:52:17:498,47.672,-0.119,-0.975,-0.954,32.932,-72.561,-53.571
13:52:17:52,47.694,-0.112,-0.980,-0.998,32.102,-72.951,-54.926
13:52:17:604,47.777,-0.205,-0.790,-0.919,27.285,-74.730,-56.022
13:52:17:604,47.778,-0.563,-0.357,-0.519,17.947,-76.488,-54.469
13:52:17:605,47.779,-0.641,-0.088,-0.368,12.932,-76.711,-51.457
13:52:17:653,47.827,-0.440,0.645,-0.543,11.708,-75.289,-45.014
13:52:17:654,47.828,-0.259,0.551,-0.666,13.578,-72.160,-39.329
13:52:17:732,47.906,-0.232,0.676,-0.587,15.869,-62.687,-27.336
13:52:17:733,47.907,-0.371,0.634,-0.486,16.475,-55.211,-18.409
13:52:17:946,48.120,-0.388,0.654,-0.399,15.704,-46.671,-6.636
13:52:17:946,48.120,-0.092,0.522,-0.142,14.056,-46.621,2.055
13:52:17:947,48.121,0.221,0.268,0.311,13.893,-51.793,6.627
13:52:18:029,48.202,0.369,0.232,0.884,16.117,-64.572,12.139
13:52:18:029,48.202,0.435,0.273,1.316,19.380,-72.647,15.638
13:52:18:029,48.202,0.382,0.026,1.534,25.863,-80.971,20.680
13:52:18:03,48.203,0.531,-1.066,2.122,32.227,-82.002,27.458
13:52:18:046,48.220,-0.018,-1.091,1.217,34.603,-79.417,31.685
13:52:18:106,48.280,0.371,-0.483,1.078,35.496,-75.330,34.779
13:52:18:107,48.280,0.302,-0.768,1.155,36.058,-72.918,36.231
13:52:18:107,48.281,0.481,-0.757,1.244,36.546,-71.763,35.799
13:52:18:108,48.282,0.648,-0.456,1.257,37.131,-73.691,31.781
13:52:18:134,48.307,0.800,-0.315,1.271,36.885,-75.677,27.845
13:52:18:135,48.308,1.118,0.122,1.237,35.674,-78.289,21.031
13:52:18:135,48.308,1.171,0.445,0.905,34.198,-79.459,15.944
13:52:18:136,48.309,1.108,0.728,0.602,31.072,-78.519,8.512
13:52:18:181,48.355,0.973,0.790,0.161,27.950,-74.200,1.339
13:52:18:182,48.356,0.889,0.794,-0.122,26.392,-69.739,-3.395
13:52:18:183,48.357,0.693,0.654,-0.533,25.279,-61.597,-10.515
13:52:18:261,48.435,0.406,0.201,-0.791,25.351,-55.849,-15.314
13:52:18:261,48.435,0.134,-0.024,-0.762,25.904,-48.211,-22.573
13:52:18:261,48.435,-0.050,-0.151,-0.731,26.455,-43.182,-30.263
13:52:18:334,48.508,-0.088,-0.123,-0.676,26.676,-41.357,-35.400
13:52:18:388,48.562,-0.159,-0.117,-0.781,26.730,-39.837,-42.276
13:52:18:417,48.590,-0.142,-0.144,-0.830,26.624,-39.129,-45.987
13:52:18:417,48.591,-0.220,-0.296,-0.865,26.849,-37.708,-50.292
13:52:18:473,48.647,-0.401,-0.510,-0.718,27.320,-36.661,-52.699
13:52:18:473,48.647,-0.469,-0.685,-0.623,28.100,-35.018,-56.118
13:52:18:474,48.648,-0.792,-1.016,-0.565,27.211,-33.547,-59.011
13:52:18:475,48.649,-1.166,-0.778,-0.179,24.283,-32.881,-59.902
13:52:18:491,48.665,-0.943,-0.384,0.097,16.908,-31.955,-58.469
13:52:18:546,48.719,-0.612,0.118,0.208,12.713,-30.828,-55.617
13:52:18:547,48.720,-0.908,-0.161,0.067,11.577,-27.206,-49.774
13:52:18:628,48.801,-1.146,0.036,-0.254,13.806,-20.642,-41.415
13:52:18:628,48.802,-1.006,0.459,0.056,14.187,-14.742,-34.035
13:52:18:629,48.803,-0.602,0.824,0.219,14.270,-4.145,-21.555
13:52:18:841,49.015,-0.728,0.885,0.140,13.504,3.163,-13.004
13:52:18:842,49.015,-0.428,0.958,0.149,10.683,9.585,-1.291
13:52:18:843,49.016,0.152,0.775,0.098,8.074,5.205,8.010
13:52:18:843,49.017,0.575,0.620,0.072,8.383,-2.401,13.061
13:52:18:867,49.041,0.942,0.353,0.193,12.426,-15.987,19.198
13:52:18:868,49.041,1.191,-0.062,0.341,16.754,-24.628,22.259
13:52:18:869,49.042,1.178,-0.419,0.539,23.736,-33.837,26.272
13:52:18:946,49.120,1.036,-0.788,0.656,31.188,-36.102,34.380
13:52:18:946,49.120,1.115,-0.825,0.616,31.930,-32.483,39.424
13:52:18:947,49.121,0.972,-0.765,0.640,31.247,-29.635,41.784
13:52:18:948,49.122,0.889,-0.685,0.712,29.363,-27.290,43.156
13:52:19:106,49.279,0.976,-0.532,0.682,27.981,-27.885,41.207
13:52:19:106,49.279,1.037,-0.416,0.609,27.186,-28.913,38.727
13:52:19:106,49.280,1.038,-0.073,0.401,24.674,-30.581,32.461
13:52:19:107,49.280,1.076,0.238,0.262,22.414,-31.351,27.012
13:52:19:156,49.329,0.971,0.505,0.150,18.667,-31.775,17.725
13:52:19:157,49.330,0.655,0.689,0.057,14.679,-30.724,7.900
13:52:19:157,49.331,0.451,0.698,0.017,12.351,-28.837,1.417
13:52:19:158,49.332,0.079,0.517,-0.278,9.935,-23.593,-7.777
13:52:19:231,49.405,-0.047,0.365,-0.291,8.916,-19.285,-13.490
13:52:19:232,49.405,-0.264,0.281,-0.339,8.919,-12.386,-21.475
13:52:19:393,49.566,-0.421,0.174,-0.332,10.702,-5.924,-28.362
13:52:19:393,49.567,-0.545,0.129,-0.328,12.657,-2.186,-32.293
13:52:19:394,49.568,-0.655,-0.018,-0.319,16.154,2.180,-37.324
13:52:19:395,49.568,-0.751,-0.199,-0.334,18.499,4.302,-40.138
13:52:19:524,49.697,-1.190,-0.534,-0.348,21.932,6.100,-43.360
13:52:19:524,49.698,-1.528,-1.168,-0.040,23.213,6.475,-44.384
13:52:19:525,49.699,-1.784,-1.357,0.045,22.293,4.265,-44.112
13:52:19:551,49.725,-1.591,-0.280,0.473,12.664,-6.064,-40.027
13:52:19:551,49.725,-1.400,0.182,0.425,6.639,-11.141,-33.598
13:52:19:552,49.725,-0.645,1.012,0.777,4.237,-13.021,-27.673
13:52:19:552,49.726,-0.282,1.219,0.431,4.257,-12.190,-17.769
13:52:19:628,49.801,-0.535,1.217,-0.168,6.732,-5.124,-7.123
13:52:19:629,49.802,-0.121,1.129,0.095,7.782,-2.197,0.053
13:52:19:629,49.803,0.495,0.664,0.247,9.277,-4.930,9.603
13:52:19:63,49.804,0.729,0.445,0.233,11.265,-9.307,15.168
13:52:19:675,49.849,0.977,0.230,0.187,17.142,-18.011,21.967
13:52:19:675,49.849,1.286,-0.080,0.233,25.836,-26.899,26.518
13:52:19:756,49.930,1.322,-0.271,0.309,31.827,-31.437,28.712
13:52:19:757,49.931,1.318,-0.808,0.470,39.824,-34.948,32.034
13:52:19:758,49.932,1.286,-1.101,0.542,43.857,-34.608,34.833
13:52:19:808,49.981,1.135,-1.307,0.586,47.400,-31.607,38.994
13:52:19:808,49.982,1.149,-1.172,0.743,48.243,-28.910,41.304
13:52:19:888,50.062,1.033,-1.116,0.492,47.705,-25.097,43.196
13:52:19:889,50.062,1.010,-0.883,0.335,45.793,-23.604,41.617
13:52:19:889,50.063,1.177,-0.563,0.178,44.039,-23.815,38.889
13:52:19:909,50.083,1.316,-0.233,0.116,40.444,-24.808,32.987
13:52:20:051,50.224,1.453,0.139,-0.106,35.266,-25.177,25.526
13:52:20:051,50.224,1.437,0.616,-0.322,31.351,-24.233,19.878
13:52:20:051,50.225,1.066,1.213,-0.668,25.549,-20.896,10.590
13:52:20:051,50.225,0.682,1.385,-0.721,22.101,-17.617,3.906
13:52:20:07,50.244,0.083,1.321,-0.673,18.605,-11.440,-6.573
13:52:20:07,50.244,-0.441,0.915,-0.683,17.309,-4.268,-17.105
13:52:20:259,50.433,-0.692,0.553,-0.589,17.509,0.305,-23.899
13:52:20:259,50.433,-0.860,0.307,-0.370,18.719,5.972,-33.667
13:52:20:26,50.434,-0.961,0.170,-0.262,20.022,9.059,-39.744
13:52:20:261,50.435,-0.980,-0.031,-0.192,22.335,12.514,-47.780
13:52:20:285,50.459,-1.012,-0.203,-0.207,24.330,14.459,-52.239
13:52:20:286,50.460,-1.034,-0.510,-0.026,28.047,17.363,-57.428
13:52:20:287,50.461,-0.960,-0.643,0.039,32.242,19.512,-61.381
13:52:20:288,50.461,-0.960,-0.757,0.143,34.903,20.378,-63.365
13:52:20:366,50.539,-0.821,-0.820,0.188,37.290,21.020,-65.152
13:52:20:366,50.539,-0.584,-0.967,0.346,37.153,21.001,-65.652
13:52:20:366,50.540,-0.401,-0.891,0.609,32.854,20.965,-65.440
13:52:20:366,50.540,-0.559,-0.707,0.773,26.114,20.933,-63.669
13:52:20:41,50.583,-0.552,-0.457,0.923,21.615,21.386,-61.206
13:52:20:41,50.584,-0.352,0.214,0.946,16.146,23.245,-55.103
13:52:20:433,50.606,-0.334,0.333,0.874,14.720,25.196,-50.048
13:52:20:489,50.663,-0.625,0.190,0.673,14.485,30.176,-40.587
13:52:20:489,50.663,-0.648,0.154,0.540,15.239,35.050,-30.401
13:52:20:516,50.690,-0.634,0.357,0.408,15.286,37.442,-23.831
13:52:20:569,50.742,-0.501,0.911,0.146,15.196,38.740,-14.821
13:52:20:569,50.743,0.135,0.836,-0.168,15.345,37.947,-9.262
13:52:20:59,50.764,0.334,0.662,-0.272,15.649,35.508,-1.125
13:52:20:648,50.821,0.537,0.329,-0.323,16.490,32.611,6.050
13:52:20:648,50.822,0.696,0.231,-0.309,17.308,31.106,10.503
13:52:20:725,50.898,0.812,0.126,-0.404,19.409,29.423,17.057
13:52:20:783,50.957,1.001,-0.146,-0.630,21.645,28.148,21.379
13:52:20:783,50.957,1.187,-0.991,-0.741,25.757,25.474,25.853
13:52:20:784,50.958,1.127,-0.129,-0.402,28.049,22.921,25.972
13:52:20:785,50.959,1.094,-0.212,-0.285,28.576,23.096,26.067
13:52:20:943,51.117,1.061,-0.504,-0.368,27.577,25.387,26.339
13:52:20:943,51.117,0.931,-0.425,-0.533,26.300,27.278,25.840
13:52:20:943,51.117,0.781,-0.257,-0.692,23.945,30.332,23.447
13:52:20:944,51.117,0.546,0.162,-0.874,21.222,34.186,19.378
13:52:20:964,51.138,0.337,0.549,-0.817,19.383,37.479,15.760
13:52:20:965,51.138,-0.014,0.789,-0.610,17.088,43.368,8.952
13:52:20:966,51.139,-0.226,0.818,-0.378,16.190,47.348,3.564
13:52:21:015,51.189,-0.356,0.702,-0.127,16.107,52.955,-5.221
13:52:21:016,51.189,-0.461,0.574,-0.024,16.660,56.160,-11.521
13:52:21:037,51.210,-0.612,0.414,0.212,18.569,60.603,-20.926
13:52:21:118,51.291,-0.608,0.126,0.353,20.846,63.498,-30.174
13:52:21:147,51.321,-0.616,0.050,0.429,22.105,64.389,-36.285
13:52:21:148,51.321,-0.597,-0.176,0.518,23.620,65.171,-44.816
13:52:21:171,51.345,-0.558,-0.296,0.551,24.428,65.581,-49.890
13:52:21:172,51.346,-0.542,-0.407,0.596,25.479,66.153,-56.468
13:52:21:222,51.395,-0.518,-0.551,0.695,26.843,66.735,-61.494
13:52:21:25,51.423,-0.453,-0.623,0.662,27.929,67.143,-64.264
13:52:21:25,51.424,-0.358,-0.839,0.817,29.398,67.785,-67.742
13:52:21:304,51.477,-0.173,-0.865,0.844,28.878,68.073,-69.325
13:52:21:304,51.477,0.043,-0.753,0.783,24.268,68.580,-70.132
13:52:21:325,51.499,0.102,-0.532,0.993,17.937,69.330,-68.868
13:52:21:381,51.555,-0.031,-0.299,1.181,15.129,69.861,-66.707
13:52:21:382,51.555,-0.018,-0.022,1.149,13.557,71.428,-61.307
13:52:21:404,51.578,0.114,0.129,1.059,13.428,73.593,-56.240
13:52:21:458,51.632,0.158,0.167,1.041,14.540,77.998,-47.423
13:52:21:488,51.661,0.023,0.166,1.021,15.715,83.149,-38.168
13:52:21:488,51.662,-0.169,0.097,0.968,15.804,85.671,-31.942
13:52:21:539,51.713,-0.268,0.310,0.720,14.573,85.617,-23.306
13:52:21:539,51.713,-0.267,0.426,0.368,13.168,82.510,-18.254
13:52:21:562,51.735,-0.166,0.437,-0.022,11.527,73.710,-11.538
13:52:21:617,51.791,0.058,0.370,-0.437,11.365,61.616,-5.533
13:52:21:618,51.792,0.323,0.369,-0.638,12.292,53.144,-1.962
13:52:21:834,52.007,0.507,0.404,-0.811,15.541,43.036,3.202
13:52:21:834,52.008,0.548,0.093,-1.011,18.612,39.098,6.808
13:52:21:835,52.009,0.750,-0.205,-1.341,23.451,37.715,13.053
13:52:21:836,52.009,0.714,-0.533,-0.989,26.360,40.380,18.240
13:52:21:905,52.078,0.442,-0.233,-0.622,26.560,43.072,20.375
13:52:21:94,52.114,0.546,-0.364,-0.608,25.490,47.270,22.744
13:52:21:941,52.114,0.601,-0.293,-0.760,24.556,48.775,22.966
13:52:21:941,52.114,0.504,-0.300,-0.774,23.249,48.318,20.537
13:52:21:941,52.115,0.354,-0.126,-0.792,22.153,47.135,17.423
13:52:21:991,52.165,0.111,0.310,-0.802,20.034,45.640,11.563
13:52:21:992,52.166,0.034,0.488,-0.616,16.898,45.553,4.569
13:52:21:993,52.166,-0.009,0.558,-0.451,14.434,46.804,-0.429
13:52:21:994,52.167,-0.031,0.459,-0.158,11.026,50.417,-8.141
13:52:22:013,52.186,-0.038,0.387,0.019,9.302,53.994,-13.295
13:52:22:013,52.187,-0.158,0.284,0.002,8.517,61.335,-21.206
13:52:22:064,52.238,-0.335,0.209,0.381,10.256,70.040,-28.848
13:52:22:065,52.238,-0.562,-0.130,0.768,13.979,77.366,-32.983
13:52:22:148,52.322,-0.422,-0.159,0.758,20.350,86.396,-37.623
13:52:22:149,52.322,-0.312,-0.121,0.737,24.000,90.513,-40.345
13:52:22:15,52.323,-0.181,-0.203,0.740,28.615,94.099,-44.764
13:52:22:28,52.454,-0.231,-0.295,0.836,32.853,94.276,-52.335
13:52:22:281,52.454,-0.137,-0.369,0.733,33.085,92.889,-55.961
13:52:22:281,52.455,0.287,-0.258,0.408,31.991,91.875,-57.823
13:52:22:282,52.456,0.667,-0.035,0.308,28.023,90.221,-60.457
13:52:22:299,52.472,0.764,0.466,0.205,20.659,88.004,-63.732
13:52:22:357,52.531,0.777,1.298,0.119,13.040,86.683,-65.414
