Time,Second,AccelerationX,AccelerationY,AccelerationZ,EulerAnglesX,EulerAnglesY,EulerAnglesZ
16:55:52:612,0.000,0.015,0.002,0.000,-5.673,-32.555,-7.837
16:55:52:755,0.143,0.012,0.002,-0.003,-5.656,-32.555,-7.843
16:55:52:755,0.143,0.015,0.000,-0.004,-5.640,-32.566,-7.848
16:55:52:755,0.143,0.015,0.005,-0.005,-5.638,-32.566,-7.858
16:55:52:755,0.143,0.012,-0.001,-0.001,-5.633,-32.591,-7.860
16:55:52:822,0.210,0.012,0.001,0.000,-5.642,-32.586,-7.868
16:55:52:902,0.290,0.017,0.002,0.001,-5.649,-32.585,-7.880
16:55:52:99,0.378,0.013,0.002,0.003,-5.658,-32.588,-7.887
16:55:52:99,0.378,0.012,0.001,0.000,-5.670,-32.588,-7.880
16:55:52:991,0.379,0.017,0.002,0.000,-5.674,-32.589,-7.861
16:55:52:992,0.380,0.010,0.001,-0.004,-5.678,-32.584,-7.846
16:55:53:033,0.421,0.009,0.001,0.003,-5.685,-32.585,-7.818
16:55:53:119,0.507,0.011,0.002,-0.007,-5.687,-32.585,-7.808
16:55:53:12,0.508,0.011,0.002,0.005,-5.693,-32.581,-7.784
16:55:53:121,0.509,0.020,0.003,-0.006,-5.934,-32.618,-7.328
16:55:53:122,0.510,0.015,0.006,-0.002,-5.954,-32.614,-7.288
16:55:53:198,0.586,-0.003,0.000,-0.004,-5.959,-32.615,-7.202
16:55:53:199,0.587,0.002,-0.003,0.000,-5.969,-32.614,-7.139
16:55:53:2,0.588,0.019,-0.001,0.002,-5.968,-32.594,-7.119
16:55:53:347,0.735,0.006,0.002,-0.010,-5.991,-32.489,-7.066
16:55:53:795,1.183,0.013,-0.005,0.002,-5.989,-32.460,-7.047
16:55:53:926,1.314,0.015,0.000,-0.005,-6.119,-32.170,-7.177
16:55:53:959,1.347,0.015,-0.001,-0.001,-6.126,-32.169,-7.235
16:55:53:96,1.348,0.014,0.000,-0.001,-6.135,-32.169,-7.258
16:55:53:961,1.349,0.012,-0.001,0.002,-6.132,-32.171,-7.293
16:55:53:962,1.350,0.022,0.002,-0.006,-6.140,-32.163,-7.321
16:55:54:086,1.474,0.018,0.001,0.000,-6.161,-32.164,-7.428
16:55:54:087,1.475,0.021,0.001,-0.006,-6.178,-32.160,-7.464
16:55:54:247,1.635,0.022,0.001,-0.008,-6.191,-32.160,-7.533
16:55:54:247,1.635,0.017,0.001,-0.001,-6.199,-32.157,-7.566
16:55:54:248,1.636,0.016,0.002,-0.007,-6.208,-32.158,-7.614
16:55:54:559,1.947,0.014,0.001,-0.002,-6.224,-32.159,-7.654
16:55:54:56,1.948,0.014,-0.002,0.000,-6.245,-32.158,-7.716
16:55:54:771,2.159,0.017,0.000,-0.005,-6.248,-32.151,-7.743
16:55:54:771,2.159,0.013,-0.003,0.004,-6.260,-32.153,-7.761
16:55:54:772,2.160,0.021,0.000,-0.001,-6.269,-32.152,-7.784
16:55:54:852,2.240,0.011,0.003,-0.002,-6.277,-32.149,-7.797
16:55:54:853,2.241,0.018,0.006,-0.006,-6.289,-32.148,-7.810
16:55:54:854,2.242,0.019,0.003,0.000,-6.291,-32.146,-7.821
16:55:54:855,2.243,0.016,0.001,-0.001,-6.303,-32.146,-7.834
16:55:54:932,2.320,0.016,0.002,0.002,-6.316,-32.143,-7.848
16:55:54:932,2.320,0.016,0.001,0.001,-6.280,-32.152,-7.909
16:55:54:932,2.320,0.012,0.003,-0.005,-6.362,-32.113,-8.010
16:55:54:933,2.321,0.010,0.001,0.003,-6.374,-32.110,-8.024
16:55:55:063,2.451,0.012,0.002,0.001,-6.374,-32.110,-8.024
16:55:55:063,2.451,0.011,0.002,-0.003,-6.374,-32.110,-8.024
16:55:55:064,2.452,0.010,-0.001,0.003,-6.374,-32.110,-8.024
16:55:55:065,2.453,0.013,0.002,-0.001,-6.370,-32.112,-8.002
16:55:55:222,2.610,0.015,0.000,0.003,-6.370,-32.112,-8.002
16:55:55:223,2.611,0.013,0.002,-0.004,-6.370,-32.112,-8.002
16:55:55:224,2.612,0.011,0.002,-0.004,-6.370,-32.112,-8.002
16:55:55:395,2.783,0.016,0.003,-0.007,-6.370,-32.112,-8.002
16:55:55:667,3.055,0.010,0.001,0.003,-6.370,-32.112,-8.002
16:55:55:667,3.055,0.015,0.002,-0.007,-6.370,-32.112,-8.002
16:55:55:668,3.056,0.014,0.000,0.001,-6.370,-32.112,-8.002
16:55:55:669,3.057,0.011,0.002,-0.002,-6.370,-32.112,-8.002
16:55:55:745,3.133,0.011,-0.001,0.001,-6.370,-32.112,-8.002
16:55:55:745,3.133,0.010,0.002,0.005,-6.370,-32.112,-8.002
16:55:55:746,3.134,0.012,0.002,0.000,-6.370,-32.112,-8.002
16:55:55:747,3.135,0.006,0.001,0.005,-6.370,-32.112,-8.002
16:55:55:824,3.212,0.009,-0.001,0.002,-6.370,-32.112,-8.002
16:55:55:824,3.212,0.011,0.002,-0.002,-6.370,-32.112,-8.002
16:55:55:825,3.213,0.012,0.000,0.000,-6.370,-32.112,-8.002
16:55:55:825,3.213,0.010,0.000,0.003,-6.370,-32.112,-8.002
16:55:55:902,3.290,0.014,0.000,0.006,-6.370,-32.112,-8.002
16:55:55:903,3.291,0.011,0.002,0.003,-6.370,-32.112,-8.002
16:55:55:903,3.291,0.009,0.001,0.003,-6.370,-32.112,-8.002
16:55:55:904,3.292,0.012,-0.001,-0.007,-6.370,-32.112,-8.002
16:55:56:106,3.494,0.009,0.001,0.002,-6.370,-32.112,-8.002
16:55:56:107,3.495,0.004,0.001,0.004,-6.370,-32.112,-8.002
16:55:56:346,3.734,0.014,0.003,-0.002,-6.370,-32.112,-8.002
16:55:56:347,3.735,0.006,0.000,0.004,-6.370,-32.112,-8.002
16:55:56:348,3.736,0.012,0.002,0.000,-6.370,-32.112,-8.002
16:55:56:524,3.912,0.012,0.000,0.002,-6.367,-32.114,-7.991
16:55:56:603,3.991,0.005,0.003,0.004,-6.365,-32.113,-7.980
16:55:56:629,4.017,0.004,0.005,0.006,-6.365,-32.113,-7.980
16:55:56:687,4.075,0.005,-0.001,0.003,-6.365,-32.113,-7.980
16:55:56:687,4.075,0.008,0.001,0.003,-6.365,-32.113,-7.980
16:55:56:688,4.076,0.010,0.000,0.006,-6.365,-32.113,-7.980
16:55:56:792,4.180,0.004,0.001,0.004,-6.365,-32.113,-7.980
16:55:56:792,4.180,0.002,0.002,0.002,-6.365,-32.113,-7.980
16:55:56:794,4.182,0.007,0.001,-0.002,-6.365,-32.113,-7.980
16:55:56:873,4.261,0.003,0.000,0.006,-6.365,-32.113,-7.980
16:55:56:874,4.262,0.004,0.001,-0.003,-6.365,-32.113,-7.980
16:55:56:874,4.262,0.003,0.000,0.003,-6.365,-32.113,-7.980
16:55:56:875,4.263,0.011,0.002,-0.001,-6.365,-32.113,-7.980
16:55:57:006,4.394,-0.001,0.001,0.001,-6.365,-32.113,-7.980
16:55:57:007,4.395,0.002,0.002,-0.003,-6.365,-32.113,-7.980
16:55:57:008,4.396,-0.002,0.003,0.005,-6.365,-32.113,-7.980
16:55:57:583,4.971,0.002,0.000,-0.003,-6.365,-32.113,-7.980
16:55:57:584,4.972,-0.001,0.002,0.004,-6.365,-32.113,-7.980
16:55:57:585,4.973,-0.005,-0.001,0.008,-6.365,-32.113,-7.980
16:55:57:586,4.974,-0.001,0.000,0.001,-6.365,-32.113,-7.980
16:55:57:6,4.988,-0.006,0.001,0.005,-6.365,-32.113,-7.980
16:55:57:629,5.017,0.006,0.001,0.009,-6.332,-32.096,-7.983
16:55:57:63,5.018,-0.006,0.007,0.003,-6.240,-32.058,-7.987
16:55:57:757,5.145,-0.011,-0.009,0.008,-6.038,-31.997,-7.995
16:55:57:817,5.205,-0.005,-0.006,-0.002,-5.976,-31.996,-7.994
16:55:57:818,5.206,-0.014,0.000,0.005,-5.971,-31.998,-7.993
16:55:57:819,5.207,-0.006,-0.001,-0.002,-5.971,-31.998,-7.993
16:55:57:82,5.208,-0.008,0.001,0.007,-5.988,-32.010,-7.992
16:55:57:844,5.232,-0.010,0.006,0.011,-6.003,-32.020,-7.995
16:55:57:845,5.233,-0.008,0.004,0.008,-6.003,-32.020,-7.995
16:55:57:846,5.234,-0.015,-0.001,0.011,-6.003,-32.020,-7.995
16:55:57:847,5.235,-0.008,-0.001,0.009,-6.003,-32.020,-7.995
16:55:57:864,5.252,-0.011,-0.003,0.010,-6.013,-32.019,-7.997
16:55:57:865,5.253,-0.001,0.001,0.009,-6.041,-31.976,-7.997
16:55:57:894,5.282,-0.055,-0.022,0.008,-6.067,-31.767,-8.096
16:55:57:894,5.282,-0.042,-0.001,0.019,-6.124,-31.409,-8.366
16:55:57:895,5.283,-0.023,-0.020,0.007,-6.148,-31.205,-8.679
16:55:57:925,5.313,-0.025,0.016,-0.001,-6.164,-31.146,-8.826
16:55:57:925,5.313,-0.204,0.282,-0.019,-4.072,-44.176,-10.898
16:55:57:925,5.313,-0.620,0.258,-0.410,-5.674,-42.884,-14.847
16:55:57:925,5.313,-0.919,0.220,-0.656,-6.453,-41.744,-17.107
16:55:57:972,5.360,-1.433,0.009,-1.003,-7.109,-40.222,-19.313
16:55:57:973,5.361,-1.350,-0.268,-0.993,-7.180,-39.823,-19.666
16:55:57:974,5.362,-0.559,-0.283,-0.686,-6.888,-40.262,-18.905
16:55:58:001,5.389,0.379,2.694,1.494,-5.304,-40.214,-17.515
16:55:58:002,5.390,-0.149,-0.090,0.230,-5.048,-37.613,-13.034
16:55:58:003,5.391,-0.087,0.131,-0.147,-5.239,-36.994,-11.880
16:55:58:004,5.392,0.044,-0.016,-0.015,-5.393,-36.958,-11.161
16:55:58:028,5.416,0.003,-0.052,0.026,-5.385,-37.362,-10.110
16:55:58:028,5.416,0.050,0.038,0.039,-5.496,-37.577,-8.880
16:55:58:029,5.417,-0.032,0.030,-0.016,-5.587,-37.704,-7.851
16:55:58:03,5.418,-0.039,0.044,-0.010,-5.478,-38.226,-6.286
16:55:58:048,5.436,0.006,0.068,0.004,-5.165,-38.756,-5.169
16:55:58:049,5.437,-0.018,0.133,0.141,-4.648,-39.601,-3.472
16:55:58:072,5.460,0.066,0.115,-0.002,-3.906,-40.026,-1.803
16:55:58:098,5.486,0.037,0.046,0.036,-3.317,-40.144,-0.671
16:55:58:123,5.511,0.034,0.208,0.083,-2.509,-40.030,1.159
16:55:58:15,5.538,0.171,0.153,0.151,-1.844,-40.059,2.598
16:55:58:176,5.564,0.399,0.293,0.116,-0.584,-40.074,5.559
16:55:58:231,5.619,0.442,0.362,0.398,1.286,-39.991,9.894
16:55:58:232,5.620,0.669,0.316,0.430,2.999,-40.042,13.564
16:55:58:395,5.783,1.321,0.141,0.524,6.557,-40.929,20.008
16:55:58:396,5.784,1.075,0.770,0.340,15.637,-43.292,34.544
16:55:58:397,5.785,1.114,-0.056,-0.119,20.332,-44.229,41.418
16:55:58:417,5.805,0.903,-0.885,0.259,25.737,-43.803,47.804
16:55:58:418,5.806,0.626,-1.093,0.346,27.688,-42.311,50.211
16:55:58:572,5.960,0.428,-1.243,0.350,25.869,-41.285,49.248
16:55:58:652,6.040,0.125,-0.990,0.069,22.781,-41.367,45.837
16:55:58:653,6.041,0.167,-0.970,0.045,20.313,-42.167,42.078
16:55:58:736,6.124,0.346,-0.966,0.358,15.921,-43.201,34.608
16:55:58:737,6.125,0.442,-0.656,0.353,11.358,-43.634,25.780
16:55:58:762,6.150,0.311,0.605,0.128,1.080,-42.745,1.640
16:55:58:762,6.150,-0.191,1.319,-0.354,-3.336,-39.953,-9.603
16:55:58:763,6.151,-1.483,1.476,-1.054,-6.600,-36.517,-17.176
16:55:58:815,6.203,-2.617,1.060,-1.466,-11.287,-30.732,-27.051
16:55:58:816,6.204,-3.320,-1.064,-0.926,-12.271,-26.638,-32.355
16:55:58:817,6.205,-2.832,-0.690,-0.200,-12.841,-26.225,-32.540
16:55:58:818,6.206,1.356,2.114,1.243,-9.087,-23.512,-28.394
16:55:58:84,6.228,-0.842,-0.115,-0.697,-6.821,-23.474,-22.848
16:55:58:84,6.228,-0.437,0.276,-0.225,-6.577,-21.972,-18.588
16:55:58:84,6.228,-0.165,0.409,-0.388,-6.926,-21.030,-16.333
16:55:58:888,6.276,-0.077,-0.169,-0.125,-6.445,-20.844,-15.514
16:55:58:888,6.276,-0.056,0.184,0.062,-6.451,-20.838,-14.229
16:55:58:911,6.299,-0.039,0.071,0.041,-6.399,-20.854,-13.327
16:55:58:966,6.354,-0.036,0.082,-0.081,-6.436,-20.715,-12.040
16:55:58:967,6.355,-0.007,0.052,-0.030,-6.276,-20.841,-11.192
16:55:59:018,6.406,-0.006,0.046,-0.039,-6.195,-21.355,-9.859
16:55:59:045,6.433,0.045,0.054,-0.076,-6.055,-22.233,-8.397
16:55:59:046,6.434,-0.020,0.070,0.046,-5.867,-23.080,-7.332
16:55:59:127,6.515,0.036,0.115,0.043,-5.367,-24.554,-5.550
16:55:59:128,6.516,0.114,0.144,0.080,-4.833,-25.583,-4.230
16:55:59:128,6.516,0.186,0.182,0.172,-3.644,-27.152,-1.892
16:55:59:542,6.930,0.330,0.317,0.168,-1.924,-28.218,1.177
16:55:59:709,7.097,0.453,0.490,0.188,-0.471,-28.646,3.816
16:55:59:71,7.098,0.681,0.274,0.277,2.683,-29.485,8.861
16:55:59:711,7.099,1.224,0.350,0.447,4.840,-30.601,13.099
16:55:59:712,7.100,2.168,0.364,0.093,8.189,-31.817,21.321
16:55:59:781,7.169,1.492,0.374,-0.141,12.569,-30.307,32.006
16:55:59:782,7.170,1.187,0.105,-0.346,15.709,-28.752,39.422
16:55:59:936,7.324,0.572,-0.817,-0.294,19.178,-24.099,45.955
16:56:00:489,7.877,0.805,-1.566,0.086,20.506,-21.718,47.062
16:56:00:514,7.902,0.423,-1.410,-0.137,19.238,-18.173,44.056
16:56:00:731,8.119,0.281,-1.072,-0.239,18.147,-16.291,40.797
16:56:00:732,8.120,0.314,-1.014,-0.433,16.690,-14.528,33.818
16:56:00:75,8.138,0.445,0.119,-0.828,10.990,-10.791,7.356
16:56:00:81,8.198,0.199,0.426,-0.702,9.055,-9.035,-0.087
16:56:00:811,8.199,-0.611,1.170,-0.818,5.025,-3.444,-10.776
16:56:00:812,8.200,-2.196,0.949,-0.305,0.903,5.396,-20.587
16:56:00:812,8.200,-2.259,1.274,0.159,-1.375,10.713,-25.940
16:56:00:837,8.225,-2.868,-0.416,1.019,-2.747,16.553,-30.324
16:56:00:837,8.225,-2.335,-0.088,1.595,-2.864,18.831,-30.812
16:56:00:838,8.226,0.523,1.129,-0.279,0.266,22.238,-25.009
16:56:00:839,8.227,-1.809,-0.395,0.673,0.217,22.305,-21.046
16:56:00:889,8.277,-0.211,-0.668,0.271,-0.371,24.300,-17.929
16:56:00:889,8.277,-0.511,0.165,0.097,-1.305,26.190,-14.924
16:56:00:89,8.278,-0.100,0.299,0.012,-0.959,26.577,-13.692
16:56:00:891,8.279,0.015,0.037,-0.004,-0.585,26.757,-11.823
16:56:00:915,8.303,-0.018,0.087,-0.077,-0.827,26.858,-10.414
16:56:00:916,8.304,-0.108,0.063,0.022,-0.632,26.770,-8.381
16:56:00:917,8.305,0.441,0.341,-0.427,6.010,27.108,8.023
16:56:00:963,8.351,-1.038,-0.853,3.057,-5.458,56.498,-32.823
16:56:00:963,8.351,0.003,-0.049,0.018,-2.093,61.586,-12.910
16:56:00:994,8.382,-0.059,0.119,0.052,-2.144,61.897,-11.375
16:56:00:995,8.383,0.055,0.012,0.064,-2.016,61.909,-10.529
16:56:00:996,8.384,-0.019,0.038,-0.023,-2.012,61.692,-9.353
16:56:00:996,8.384,-0.131,0.078,-0.094,-2.007,61.383,-8.536
16:56:01:073,8.461,-0.094,0.083,-0.090,-1.916,60.516,-7.144
16:56:01:074,8.462,-0.086,-0.008,-0.136,-1.665,59.881,-6.105
16:56:01:074,8.462,-0.033,0.096,-0.049,-1.190,59.335,-4.163
16:56:01:075,8.463,0.149,0.236,-0.072,-0.416,58.534,-1.914
16:56:01:102,8.490,0.290,0.229,-0.176,0.395,57.929,-0.157
16:56:01:102,8.490,0.226,0.408,-0.425,1.879,57.440,3.161
16:56:01:102,8.490,0.378,0.351,-0.481,3.210,57.436,6.044
16:56:01:103,8.491,0.284,0.306,-0.840,5.953,57.405,11.572
16:56:01:148,8.536,0.454,0.297,-2.279,9.067,56.147,18.395
16:56:01:149,8.537,0.151,0.506,-1.527,11.996,55.388,24.226
16:56:01:149,8.537,-0.188,0.017,-1.787,16.971,56.589,35.307
16:56:01:198,8.586,0.014,-0.490,-1.234,20.477,58.316,42.291
16:56:01:198,8.586,-0.201,-1.180,0.419,24.595,62.625,48.299
16:56:01:249,8.637,0.069,-1.353,-1.029,22.346,64.673,47.014
16:56:01:306,8.694,-0.010,-1.166,-0.143,20.957,65.722,44.375
16:56:01:306,8.694,-0.183,-1.148,-0.494,18.512,65.816,37.061
16:56:01:307,8.695,0.030,-0.762,-0.636,16.759,65.156,30.732
16:56:01:414,8.802,-0.089,-0.430,-0.455,14.042,64.792,20.601
16:56:01:415,8.803,-0.062,-0.089,-0.583,12.339,64.568,13.189
16:56:01:416,8.804,-0.154,0.484,-0.501,9.137,64.389,2.047
16:56:01:416,8.804,-0.311,0.960,-0.019,5.362,67.484,-9.086
16:56:01:49,8.878,-0.643,1.333,1.063,2.713,71.867,-16.180
16:56:01:491,8.879,-0.843,0.155,2.676,-0.848,79.103,-25.018
16:56:01:492,8.880,-0.537,-0.467,3.218,-1.384,84.847,-28.231
16:56:01:538,8.926,0.770,-0.400,3.116,-0.790,89.835,-30.506
16:56:01:565,8.953,-0.155,1.937,-1.399,0.109,92.137,-26.047
16:56:01:566,8.954,0.717,-0.312,1.521,1.277,91.016,-22.198
16:56:01:589,8.977,-0.035,0.218,0.125,1.094,93.684,-18.041
16:56:01:642,9.030,-0.168,0.302,0.068,1.226,94.535,-16.265
16:56:01:729,9.117,0.136,-0.028,0.345,0.364,95.788,-13.997
16:56:01:729,9.117,0.119,-0.030,0.039,0.240,95.898,-12.304
16:56:01:729,9.117,-0.011,0.005,-0.067,0.161,96.072,-11.179
16:56:01:861,9.249,-0.020,0.016,-0.015,0.150,96.290,-9.649
16:56:01:862,9.250,-0.011,0.069,-0.045,0.290,96.401,-8.759
16:56:01:863,9.251,-0.048,0.112,-0.015,0.339,96.320,-7.345
16:56:01:864,9.252,-0.096,0.092,0.011,0.380,95.951,-5.788
16:56:01:934,9.322,-0.008,0.035,-0.051,0.498,95.319,-4.593
16:56:01:935,9.323,-0.010,0.076,-0.120,0.936,94.386,-2.619
16:56:01:966,9.354,-0.077,0.123,-0.123,1.401,94.103,-1.125
16:56:01:966,9.354,-0.020,0.183,-0.217,2.477,93.830,1.471
16:56:01:966,9.354,0.064,0.201,-0.347,3.458,93.611,3.537
16:56:01:967,9.355,-0.170,0.366,-0.623,5.224,93.708,7.440
16:56:02:141,9.529,-0.263,0.217,-0.813,7.556,93.971,12.599
16:56:02:615,10.003,-0.556,0.135,-1.198,9.294,93.750,16.521
16:56:02:935,10.323,-1.048,0.668,-1.179,12.631,93.227,24.106
16:56:02:935,10.323,-0.849,0.106,-0.947,16.172,94.284,31.124
16:56:02:935,10.323,-0.656,-0.082,-0.913,22.247,95.538,41.718
16:56:02:956,10.344,-0.303,-1.058,-0.210,26.309,98.566,48.193
16:56:03:011,10.399,-0.360,-1.094,-0.762,27.012,100.428,49.499
16:56:03:011,10.399,-0.184,-1.269,-0.529,23.111,103.215,46.499
16:56:03:173,10.561,-0.150,-0.975,0.090,21.292,104.268,43.480
16:56:03:174,10.562,-0.265,-0.977,-0.451,18.512,104.313,36.056
16:56:03:2,10.588,-0.376,0.048,-0.433,11.382,102.507,9.303
16:56:03:201,10.589,-0.345,0.608,-0.262,9.010,102.599,2.155
16:56:03:201,10.589,-0.181,1.043,0.413,5.253,105.313,-8.230
16:56:03:202,10.590,0.327,1.112,1.647,2.561,108.970,-14.920
16:56:03:221,10.609,1.002,0.870,2.347,-1.292,114.985,-23.342
16:56:03:221,10.609,1.796,-0.445,2.910,-2.177,120.555,-27.300
16:56:03:253,10.641,2.190,-0.725,2.242,-1.350,122.713,-27.667
16:56:03:253,10.641,-0.628,1.468,-0.461,0.542,125.119,-21.094
16:56:03:254,10.642,-0.562,0.176,-0.539,0.447,125.294,-17.732
16:56:03:255,10.643,0.118,-1.007,0.650,1.118,126.520,-14.565
16:56:03:349,10.737,0.393,-0.119,0.048,1.153,128.085,-11.874
16:56:03:376,10.764,-0.122,0.048,-0.005,1.313,128.784,-0.196
16:56:03:41,10.798,-1.005,0.932,-0.641,17.196,125.454,31.041
16:56:03:41,10.798,-1.126,-0.224,-0.126,24.251,124.759,41.412
16:56:03:41,10.798,-0.571,-0.635,-0.379,28.236,124.600,46.731
16:56:03:411,10.799,-0.573,-0.998,-0.569,31.426,125.841,50.004
16:56:03:437,10.825,-0.176,-1.322,-0.398,27.943,127.190,48.561
16:56:03:438,10.826,0.026,-0.971,0.096,23.261,127.909,45.078
16:56:03:438,10.826,-0.238,-0.144,-0.465,9.445,122.210,15.632
16:56:03:439,10.827,-0.243,0.369,-0.413,5.282,120.882,4.902
16:56:03:487,10.875,0.050,1.007,-0.102,2.325,120.901,-2.151
16:56:03:488,10.876,0.856,1.227,0.574,-2.027,123.779,-12.760
16:56:03:489,10.877,1.527,0.776,1.722,-6.204,128.450,-22.026
16:56:03:62,11.008,2.197,-0.063,2.056,-7.713,132.140,-26.537
16:56:03:62,11.008,2.622,-0.785,1.621,-7.328,135.661,-28.899
16:56:03:621,11.009,1.637,0.339,1.277,-6.884,136.676,-27.630
16:56:03:621,11.009,1.360,-0.833,1.081,-4.521,137.053,-21.517
16:56:03:64,11.028,0.434,0.560,0.293,-3.162,138.477,-18.218
16:56:03:641,11.029,0.293,-0.410,-0.057,-2.619,138.917,-15.707
16:56:03:724,11.112,0.109,-0.102,0.051,-3.079,140.209,-13.743
16:56:03:725,11.113,-0.079,0.022,-0.025,-3.013,140.593,-12.576
16:56:03:726,11.114,-0.087,-0.050,-0.044,-3.133,140.905,-11.031
16:56:03:726,11.114,0.120,0.073,-0.006,-3.164,141.056,-10.004
16:56:03:748,11.136,0.039,0.004,-0.118,-3.211,141.053,-8.458
16:56:03:748,11.136,-0.105,0.028,0.006,-3.285,140.927,-6.953
16:56:03:748,11.136,-0.024,0.104,0.033,-3.269,140.832,-5.857
16:56:03:779,11.167,-0.056,0.089,0.043,-2.919,140.546,-4.051
16:56:03:779,11.167,-0.103,0.227,-0.138,-2.578,140.215,-2.797
16:56:03:779,11.167,-0.090,0.216,-0.125,-1.893,139.680,-0.859
16:56:03:78,11.168,-0.208,0.217,-0.144,-0.997,139.189,1.503
16:56:03:797,11.185,-0.243,0.215,-0.267,-0.202,138.846,3.501
16:56:03:797,11.185,-0.410,0.354,-0.304,1.283,138.686,7.371
16:56:03:819,11.207,-0.711,0.394,-0.365,2.632,138.635,10.591
16:56:03:875,11.263,-1.505,0.135,-0.219,5.694,138.088,16.783
16:56:03:876,11.264,-1.999,0.371,-0.781,10.039,135.814,24.798
16:56:03:9,11.288,-0.932,0.749,-0.639,14.463,134.308,31.311
16:56:03:955,11.343,-1.503,-0.148,-0.181,21.973,132.781,41.923
16:56:03:955,11.343,-0.079,-0.934,-0.269,26.442,132.999,47.937
16:56:04:084,11.472,-0.907,-1.048,-0.440,29.171,135.385,51.541
16:56:04:14,11.528,-0.107,-1.135,0.020,24.810,137.053,50.291
16:56:04:14,11.528,-0.206,-1.018,0.104,20.332,137.776,46.641
16:56:04:163,11.551,-0.268,-1.024,-0.446,16.466,136.344,39.101
16:56:04:214,11.602,-0.271,-0.855,-0.611,13.892,135.182,32.835
16:56:04:486,11.874,-0.349,-0.401,-0.490,9.837,133.740,22.393
16:56:04:487,11.875,-0.284,0.010,-0.321,7.208,133.083,15.023
16:56:04:488,11.876,0.002,0.397,-0.330,3.786,131.945,3.839
16:56:04:507,11.895,0.985,0.987,0.365,-2.726,134.510,-13.153
16:56:04:507,11.895,1.648,0.845,1.149,-6.280,139.064,-22.281
16:56:04:565,11.953,2.128,0.052,1.505,-7.415,142.583,-27.588
16:56:04:566,11.954,2.248,-0.831,1.317,-7.130,146.627,-32.722
16:56:04:566,11.954,1.890,-0.389,0.962,-7.402,147.550,-33.544
16:56:04:567,11.955,0.775,0.793,0.320,-7.312,147.142,-31.791
16:56:04:581,11.969,0.460,1.713,-1.066,-5.576,145.363,-28.613
16:56:04:611,11.999,1.999,-0.755,0.856,-3.999,144.695,-22.450
16:56:04:612,12.000,0.273,-0.189,0.404,-3.796,145.802,-18.423
16:56:04:643,12.031,0.404,0.171,0.159,-3.677,145.990,-16.785
16:56:04:644,12.032,0.190,-0.118,0.041,-4.004,147.389,-14.709
16:56:04:645,12.033,-0.044,0.015,0.010,-3.868,147.667,-13.071
16:56:04:646,12.034,0.057,0.010,0.051,-3.833,147.441,-12.107
16:56:04:662,12.050,0.083,0.007,-0.019,-3.797,147.253,-10.783
16:56:04:695,12.083,-0.073,0.041,-0.010,-3.820,147.041,-9.944
16:56:04:696,12.084,-0.030,-0.005,0.104,-3.943,146.961,-8.710
16:56:04:697,12.085,-0.036,0.035,0.072,-3.978,147.049,-7.290
16:56:04:746,12.134,-0.010,0.159,-0.137,-3.341,146.114,-4.492
16:56:04:747,12.135,-0.144,0.201,-0.129,-2.887,145.379,-3.258
16:56:04:747,12.135,-0.170,0.243,-0.177,-1.956,144.554,-1.074
16:56:04:768,12.156,-0.218,0.329,-0.216,-1.215,144.230,0.794
16:56:04:769,12.157,-0.444,0.385,-0.253,0.214,143.904,4.387
16:56:04:791,12.179,-0.712,0.447,-0.344,2.414,143.670,9.242
16:56:04:846,12.234,-1.076,0.351,-0.245,4.530,143.293,13.378
16:56:04:847,12.235,-2.125,0.480,-0.388,8.369,141.507,21.466
16:56:04:87,12.258,-0.757,0.650,-0.249,11.979,140.197,27.667
16:56:04:896,12.284,-1.305,-0.220,0.215,18.340,139.034,37.612
16:56:04:923,12.311,-0.349,-0.704,0.084,23.523,139.257,45.314
16:56:05:117,12.505,-0.811,-1.151,-0.416,26.143,140.069,47.030
16:56:05:118,12.506,-0.444,-1.413,-0.416,23.754,140.910,45.211
16:56:05:119,12.507,-0.190,-1.058,-0.061,21.666,141.185,42.941
16:56:05:119,12.507,-0.487,-0.991,-0.329,17.733,140.137,36.761
16:56:05:422,12.810,-0.337,-0.688,-0.429,13.805,139.039,28.531
16:56:05:535,12.923,-0.399,-0.519,-0.407,11.251,138.314,22.195
16:56:05:536,12.924,-0.465,0.032,-0.396,7.320,137.675,11.663
16:56:05:537,12.925,-0.383,0.417,-0.313,4.721,137.771,4.333
16:56:05:538,12.926,0.078,1.117,0.079,0.948,140.057,-6.838
16:56:05:588,12.976,1.006,1.413,0.904,-1.288,143.645,-14.334
16:56:05:588,12.976,1.843,1.149,1.062,-4.243,150.725,-24.316
16:56:05:589,12.977,3.217,-0.493,1.215,-4.883,157.884,-29.975
16:56:05:59,12.978,2.998,-0.491,0.523,-4.572,160.311,-30.938
16:56:05:614,13.002,-1.092,2.560,-0.423,-3.123,162.306,-26.371
16:56:05:615,13.003,0.414,0.321,0.705,-1.652,160.813,-21.901
16:56:05:616,13.004,0.755,-0.644,-0.060,-1.765,162.467,-18.008
16:56:05:616,13.004,0.074,0.260,-0.018,-1.461,163.324,-15.523
16:56:05:669,13.057,0.143,-0.076,-0.069,-1.439,163.890,-13.992
16:56:05:669,13.057,0.069,0.014,-0.089,-1.268,163.956,-12.274
16:56:05:669,13.057,0.141,0.065,0.210,-1.224,164.023,-11.083
16:56:05:669,13.057,0.023,-0.011,0.033,-1.234,163.743,-9.329
16:56:05:686,13.074,-0.033,0.092,-0.027,-0.830,163.105,-7.698
16:56:06:084,13.472,-0.030,0.115,-0.090,-0.540,162.760,-6.624
16:56:06:085,13.473,-0.032,0.116,-0.050,-0.066,162.543,-5.067
16:56:06:085,13.473,-0.083,0.050,-0.034,0.294,162.359,-4.040
16:56:06:428,13.816,-0.109,0.043,0.013,1.016,162.161,-2.343
16:56:06:429,13.817,-0.076,0.112,0.007,1.583,162.253,-1.066
16:56:06:43,13.818,-0.187,0.162,-0.030,2.662,162.355,1.137
16:56:06:43,13.818,-0.333,0.205,-0.133,4.091,162.415,3.928
16:56:06:507,13.895,-0.582,0.390,0.027,5.299,162.648,6.300
16:56:06:508,13.896,-0.746,0.261,-0.016,7.727,163.094,10.765
16:56:06:509,13.897,-1.836,0.292,0.315,9.843,162.872,14.275
16:56:06:525,13.913,-1.175,-0.057,0.458,19.664,163.129,30.975
16:56:06:586,13.974,-0.722,-0.174,0.657,23.844,163.394,37.853
16:56:06:586,13.974,0.282,-1.498,-0.400,28.726,166.498,44.832
16:56:06:587,13.975,-0.935,-0.926,0.395,28.070,169.925,45.191
16:56:06:587,13.975,-0.323,-1.067,0.184,23.308,174.515,42.354
16:56:06:638,14.026,-0.320,-0.841,0.423,20.743,176.464,38.814
16:56:06:639,14.027,-0.628,-1.049,0.410,17.789,178.243,31.344
16:56:06:639,14.027,-0.445,-0.387,0.439,14.922,179.511,22.059
16:56:06:64,14.028,-0.290,-0.251,0.452,13.055,-179.517,15.397
16:56:06:717,14.105,-0.517,0.148,0.681,10.055,-177.939,4.605
16:56:06:718,14.106,0.125,0.750,0.656,7.677,-175.798,-2.288
16:56:06:718,14.106,0.703,0.996,0.589,3.830,-171.120,-12.588
16:56:06:719,14.107,1.628,1.670,-0.155,-0.894,-164.423,-21.365
16:56:06:796,14.184,2.250,0.354,-2.417,-3.930,-153.243,-28.265
16:56:06:797,14.185,-0.204,0.049,0.047,-0.985,-148.611,-4.772
16:56:06:798,14.186,-0.117,0.011,0.065,-0.294,-148.506,-2.971
16:56:06:848,14.236,-0.051,0.053,-0.004,1.115,-147.843,0.384
16:56:06:849,14.237,-0.215,0.073,0.104,2.160,-147.801,2.541
16:56:06:85,14.238,-0.245,0.207,0.167,2.950,-147.634,4.310
16:56:06:85,14.238,-0.409,0.209,0.286,4.457,-147.257,7.619
16:56:07:137,14.525,-0.444,0.323,0.511,5.754,-146.835,10.444
16:56:07:137,14.525,-0.600,0.149,0.655,8.443,-146.561,15.357
16:56:07:138,14.526,-0.630,0.071,1.317,10.941,-147.141,18.931
16:56:07:181,14.569,-0.513,-0.110,1.133,21.562,-146.259,37.351
16:56:07:215,14.603,0.164,-0.025,0.865,25.601,-145.959,43.586
16:56:07:216,14.604,-0.569,-1.018,0.390,30.034,-144.306,48.652
16:56:07:217,14.605,-0.455,-1.122,0.854,29.584,-142.628,49.321
16:56:07:218,14.606,-0.390,-1.281,0.425,26.263,-140.420,47.185
16:56:07:286,14.674,-0.142,-0.965,0.271,23.018,-140.316,42.924
16:56:07:399,14.787,-0.268,-1.082,0.209,20.656,-140.873,38.533
16:56:07:4,14.788,-0.455,-0.842,0.367,16.158,-141.566,30.070
16:56:07:401,14.789,-0.309,-0.525,0.390,13.133,-141.834,23.572
16:56:07:401,14.789,-0.243,-0.134,0.447,8.878,-142.315,12.884
16:56:07:47,14.858,-0.192,0.381,0.374,4.332,-142.366,1.650
16:56:07:522,14.910,0.067,0.995,0.103,1.090,-140.637,-5.897
16:56:07:556,14.944,0.938,1.345,-1.016,-3.425,-135.486,-17.041
16:56:07:557,14.945,1.533,1.109,-1.514,-6.253,-131.230,-23.523
16:56:07:558,14.946,1.616,-0.067,-2.157,-7.794,-125.059,-30.833
16:56:07:559,14.947,1.173,-1.016,-2.940,-8.074,-122.888,-32.371
16:56:07:766,15.154,0.848,-0.002,-1.942,-7.060,-120.352,-29.855
16:56:07:766,15.154,1.047,-1.061,-2.795,-4.027,-119.837,-21.561
16:56:07:766,15.154,0.395,0.703,-0.367,-3.578,-117.838,-19.360
16:56:07:793,15.181,-0.162,-0.413,-0.527,-3.310,-117.326,-16.060
16:56:07:794,15.182,-0.082,-0.177,-0.270,-3.588,-116.964,-14.663
16:56:07:795,15.183,0.000,0.184,0.002,-3.207,-116.573,-12.885
16:56:07:795,15.183,-0.028,-0.017,-0.013,-3.086,-116.561,-11.362
16:56:07:917,15.305,0.091,0.016,-0.005,-3.190,-116.446,-10.330
16:56:07:95,15.338,-0.100,0.030,-0.052,-3.071,-116.679,-8.756
16:56:07:951,15.339,-0.011,0.104,-0.038,-2.933,-117.007,-7.767
16:56:07:952,15.340,-0.014,0.101,0.023,-2.643,-117.714,-6.168
16:56:07:952,15.340,-0.025,0.095,0.084,-2.320,-118.241,-5.074
16:56:08:051,15.439,-0.100,0.096,0.096,-1.449,-119.075,-3.281
16:56:08:051,15.439,-0.101,0.103,0.125,-0.468,-119.585,-1.217
16:56:08:108,15.496,-0.127,0.179,0.095,0.256,-119.793,0.407
16:56:08:109,15.497,-0.237,0.153,0.242,1.684,-120.132,3.186
16:56:08:109,15.497,-0.173,0.365,0.518,2.853,-120.130,5.513
16:56:08:11,15.498,-0.236,0.314,0.660,5.088,-119.943,10.056
16:56:08:134,15.522,-0.116,0.113,1.256,8.004,-120.386,15.795
16:56:08:135,15.523,-0.268,0.266,2.009,10.233,-121.010,20.500
16:56:08:136,15.524,-0.015,0.826,1.549,15.102,-120.529,30.386
16:56:08:137,15.525,0.398,-0.133,1.152,19.435,-119.999,37.908
16:56:08:152,15.540,-0.009,-1.302,0.805,24.986,-112.828,46.961
16:56:08:213,15.601,0.139,-1.041,0.224,22.114,-110.296,42.702
16:56:08:214,15.602,0.236,-0.919,0.376,20.033,-109.814,38.236
16:56:08:215,15.603,0.198,-0.969,0.541,16.918,-109.341,29.578
16:56:08:216,15.604,0.211,-0.691,0.630,14.530,-108.941,23.011
16:56:08:232,15.620,0.448,-0.143,0.415,10.937,-107.882,12.476
16:56:08:291,15.679,0.520,0.343,0.439,7.233,-106.225,1.407
16:56:08:292,15.680,0.584,0.795,-0.026,4.394,-103.786,-5.903
16:56:08:293,15.681,0.798,1.274,-0.962,-0.135,-98.154,-16.738
16:56:08:294,15.682,0.181,0.707,-2.664,-3.166,-93.278,-23.055
16:56:08:342,15.730,-0.214,0.159,-2.329,-6.745,-87.704,-30.538
16:56:08:342,15.730,-0.859,-0.728,-2.840,-8.240,-84.924,-33.202
16:56:08:343,15.731,-1.806,-0.521,-1.837,-7.851,-82.134,-32.372
16:56:08:37,15.758,0.040,2.067,2.090,-3.914,-78.492,-26.574
16:56:08:371,15.759,0.066,-1.049,-2.184,-2.900,-77.726,-20.409
16:56:08:372,15.760,-0.474,-0.561,0.108,-3.295,-76.600,-17.304
16:56:08:373,15.761,-0.225,0.175,-0.463,-3.512,-75.483,-14.754
16:56:08:388,15.776,-0.148,-0.160,-0.002,-2.855,-75.277,-13.359
16:56:08:444,15.832,-0.123,-0.076,0.027,-2.598,-75.169,-11.622
16:56:08:445,15.833,0.013,0.082,-0.162,-2.587,-75.036,-10.497
16:56:08:503,15.891,-0.070,0.014,-0.004,-2.342,-75.327,-8.946
16:56:08:503,15.891,-0.033,0.042,0.006,-2.070,-75.755,-7.459
16:56:08:504,15.892,0.001,0.086,0.048,-1.605,-76.266,-4.930
16:56:08:528,15.916,-0.003,0.091,0.019,-1.274,-76.326,-3.824
16:56:08:529,15.917,0.052,0.083,0.114,-0.513,-76.522,-2.087
16:56:08:53,15.918,0.032,0.159,0.188,0.525,-76.773,0.004
16:56:08:53,15.918,0.038,0.170,0.339,1.433,-76.819,1.762
16:56:08:577,15.965,0.172,0.338,0.485,3.085,-76.408,5.325
16:56:08:578,15.966,0.250,0.415,0.646,4.485,-75.968,8.487
16:56:08:579,15.967,0.620,0.152,0.984,7.492,-75.719,14.231
16:56:08:597,15.985,1.153,0.038,1.473,9.880,-76.347,18.683
16:56:08:625,16.013,1.030,0.878,0.906,14.438,-76.253,28.093
16:56:08:65,16.038,0.931,-0.191,0.538,20.868,-74.737,39.260
16:56:08:706,16.094,0.687,-0.240,0.485,24.216,-73.028,45.574
16:56:08:707,16.095,0.278,-0.268,0.013,27.099,-69.596,49.445
16:56:08:729,16.117,0.266,-1.382,0.411,24.949,-67.391,48.583
16:56:08:815,16.203,0.165,-1.065,-0.037,21.532,-65.141,45.324
16:56:08:815,16.203,0.372,-1.028,0.205,18.175,-65.130,38.933
16:56:08:815,16.203,0.331,-1.015,0.248,16.133,-65.618,33.245
16:56:08:835,16.223,0.413,-0.637,0.541,12.750,-66.541,23.296
16:56:08:913,16.301,0.366,-0.207,0.307,10.235,-66.887,16.175
16:56:08:944,16.332,0.448,0.123,0.397,6.260,-67.462,4.812
16:56:08:944,16.332,0.115,0.865,0.009,1.597,-66.301,-6.404
16:56:09:028,16.416,-0.448,1.432,-0.693,-1.722,-63.895,-13.755
16:56:09:029,16.417,-0.830,1.829,-1.460,-6.964,-59.322,-23.712
16:56:09:185,16.573,-1.010,1.039,-1.418,-7.313,-49.710,-29.390
16:56:09:185,16.573,-1.696,-0.539,-1.079,-5.092,-49.031,-22.402
16:56:09:186,16.574,-0.552,-0.831,0.071,-3.815,-47.764,-19.250
16:56:09:187,16.575,-0.496,0.047,0.142,-3.677,-46.584,-17.466
16:56:09:201,16.589,-0.347,-0.220,-0.223,-3.717,-45.820,-15.282
16:56:09:263,16.651,-0.103,0.000,0.150,-3.926,-45.442,-14.185
16:56:09:264,16.652,-0.046,0.057,0.053,-4.147,-45.308,-12.601
16:56:09:265,16.653,-0.017,0.088,-0.039,-4.369,-45.334,-10.968
16:56:09:265,16.653,0.017,0.035,-0.065,-4.267,-45.586,-9.910
16:56:09:282,16.670,0.021,0.075,-0.003,-4.192,-46.184,-8.247
16:56:09:338,16.726,0.005,0.102,0.010,-4.107,-46.643,-7.181
16:56:09:339,16.727,0.052,0.051,0.060,-3.666,-47.186,-5.486
16:56:09:34,16.728,0.070,0.042,0.019,-3.291,-47.224,-4.226
16:56:09:418,16.806,0.042,0.179,0.027,-2.654,-47.036,-2.108
16:56:09:418,16.806,0.136,0.193,0.249,-1.712,-47.304,0.387
16:56:09:418,16.806,0.157,0.190,0.383,-0.883,-47.615,2.524
16:56:09:438,16.826,0.400,0.396,0.410,0.639,-47.638,6.665
16:56:09:464,16.852,0.768,0.340,0.518,2.050,-47.697,10.192
16:56:09:49,16.878,1.192,0.147,0.718,5.243,-48.759,16.623
16:56:09:516,16.904,1.450,0.728,0.616,9.111,-50.889,24.795
16:56:09:543,16.931,1.107,0.843,0.617,12.473,-50.731,31.974
16:56:09:569,16.957,1.089,-0.091,-0.054,18.382,-50.984,43.002
16:56:09:595,16.983,1.152,-0.560,0.598,21.800,-50.097,47.239
16:56:09:623,17.011,0.776,-0.918,0.348,24.634,-49.994,48.849
16:56:09:706,17.094,0.090,-1.355,0.267,22.940,-49.756,46.632
16:56:09:706,17.094,0.115,-1.106,0.098,19.821,-50.127,42.066
16:56:09:707,17.095,0.302,-1.047,0.271,15.740,-51.816,34.867
16:56:09:781,17.169,0.351,-0.863,0.477,12.897,-53.002,28.894
16:56:09:811,17.199,0.322,-0.401,0.433,8.769,-54.702,18.830
16:56:09:811,17.199,0.326,0.061,0.443,5.863,-55.607,11.641
16:56:09:812,17.200,0.203,0.482,0.433,1.307,-56.342,0.577
16:56:09:911,17.299,-0.630,1.191,-0.162,-3.632,-53.864,-10.616
16:56:10:016,17.404,-0.957,1.310,-0.628,-6.873,-51.314,-18.132
16:56:10:148,17.536,-1.712,1.020,-1.908,-11.084,-46.550,-27.921
16:56:10:234,17.622,-2.743,-1.058,-1.600,-11.782,-43.886,-32.092
16:56:10:235,17.623,-2.680,-0.572,-1.128,-12.731,-42.179,-33.724
16:56:10:236,17.624,0.845,2.974,1.210,-10.191,-39.689,-29.428
16:56:10:237,17.625,-2.286,-0.742,-0.754,-8.176,-40.973,-24.194
16:56:10:286,17.674,-0.111,-0.449,0.151,-6.599,-39.073,-20.389
16:56:10:287,17.675,-0.369,0.001,-0.149,-6.584,-38.465,-18.892
16:56:10:314,17.702,0.006,-0.059,0.070,-6.641,-37.435,-14.723
16:56:10:314,17.702,-0.071,-0.006,-0.028,-6.807,-37.224,-13.312
16:56:10:314,17.702,-0.037,0.085,-0.050,-6.926,-37.287,-12.396
16:56:10:315,17.703,0.022,0.094,-0.083,-6.910,-37.654,-10.978
16:56:10:364,17.752,0.001,0.079,-0.049,-6.888,-38.034,-9.948
16:56:10:364,17.752,0.013,0.097,-0.004,-6.680,-39.014,-8.289
16:56:10:365,17.753,0.014,0.092,0.067,-6.229,-39.946,-6.505
16:56:10:384,17.772,-0.029,0.129,0.085,-5.864,-40.415,-5.225
16:56:10:445,17.833,0.129,0.222,0.120,-5.095,-41.334,-3.005
16:56:10:445,17.833,0.116,0.143,0.335,-4.376,-41.997,-1.153
16:56:10:447,17.835,0.266,0.363,0.325,-3.082,-42.561,2.424
16:56:10:447,17.835,0.410,0.367,0.416,-1.939,-42.726,5.495
16:56:10:464,17.852,0.926,0.278,0.384,0.618,-43.207,11.202
16:56:10:465,17.853,2.178,0.435,0.859,3.740,-44.824,19.119
16:56:10:516,17.904,1.028,0.746,0.388,6.612,-45.925,25.635
16:56:10:568,17.956,1.511,-0.117,0.432,11.498,-46.704,36.076
16:56:10:599,17.987,0.432,-0.425,0.158,14.924,-47.161,42.818
16:56:10:599,17.987,-0.351,-0.776,-0.197,19.945,-50.593,47.563
16:56:10:599,17.987,0.249,-1.384,0.318,19.105,-51.381,45.700
16:56:10:728,18.116,0.107,-1.199,0.284,17.269,-55.238,42.640
16:56:10:729,18.117,0.294,-1.061,0.475,13.647,-56.957,36.169
16:56:10:759,18.147,0.208,-0.765,0.597,11.273,-58.207,30.699
16:56:10:76,18.148,0.225,-0.540,0.693,7.835,-60.119,21.071
16:56:10:761,18.149,0.266,0.074,0.581,4.107,-61.554,10.280
16:56:10:762,18.150,0.151,0.356,0.529,1.540,-62.149,2.824
16:56:10:776,18.164,-0.151,0.996,0.110,-2.251,-61.145,-8.540
16:56:10:831,18.219,-0.837,1.291,-0.790,-4.827,-58.819,-15.986
16:56:10:832,18.220,-1.455,0.909,-1.929,-8.741,-54.159,-25.977
16:56:10:857,18.245,-1.973,0.014,-2.041,-10.135,-50.597,-31.551
16:56:10:94,18.328,-2.480,-0.938,-1.643,-10.780,-47.108,-35.580
16:56:10:941,18.329,-1.977,-0.231,-1.234,-10.049,-45.077,-33.836
16:56:10:942,18.330,0.600,2.245,1.273,-7.842,-43.721,-30.568
16:56:11:311,18.699,-0.438,-0.051,-0.822,-5.111,-43.331,-23.728
16:56:11:312,18.700,-0.314,-0.418,0.205,-5.933,-42.512,-21.266
16:56:11:313,18.701,-0.251,0.168,-0.049,-5.690,-42.160,-19.295
16:56:11:314,18.702,-0.081,-0.002,0.077,-5.396,-41.708,-17.463
16:56:11:364,18.752,-0.079,0.024,-0.047,-5.288,-41.733,-16.479
16:56:11:364,18.752,-0.114,0.023,-0.005,-5.098,-41.754,-15.144
16:56:11:365,18.753,0.032,0.040,0.067,-4.962,-41.703,-14.297
16:56:11:39,18.778,-0.024,0.047,-0.091,-4.721,-41.821,-12.083
16:56:11:391,18.779,0.021,0.088,-0.082,-4.400,-42.310,-10.554
16:56:11:391,18.779,-0.049,0.113,0.168,-3.883,-43.278,-8.870
16:56:11:391,18.779,0.069,0.221,0.093,-3.442,-43.772,-7.611
16:56:11:416,18.804,0.058,0.219,0.177,-2.422,-44.546,-5.323
16:56:11:417,18.805,0.073,0.224,0.278,-1.615,-45.078,-3.438
16:56:11:418,18.806,0.333,0.419,0.235,-0.084,-45.619,0.033
16:56:11:419,18.807,0.474,0.431,0.365,2.205,-46.082,4.693
16:56:11:52,18.908,1.159,0.322,0.471,4.189,-46.861,8.680
16:56:11:521,18.909,1.914,0.492,0.792,7.655,-48.488,16.748
16:56:11:522,18.910,0.802,0.317,0.276,10.302,-48.938,23.568
16:56:11:523,18.911,1.313,0.151,0.018,15.196,-48.579,33.965
16:56:11:595,18.983,0.538,-0.830,-0.073,19.588,-45.529,42.775
16:56:11:596,18.984,0.211,-0.735,0.210,21.480,-43.722,44.682
16:56:11:619,19.007,0.393,-1.518,0.193,20.482,-41.048,42.567
16:56:11:675,19.063,0.281,-1.081,0.048,19.233,-39.782,40.173
16:56:11:676,19.064,0.199,-0.993,-0.179,16.960,-39.069,34.157
16:56:11:676,19.064,0.652,-0.960,0.142,15.107,-39.255,28.537
16:56:11:722,19.110,0.497,-0.513,0.095,12.216,-39.061,18.895
16:56:12:067,19.455,0.476,-0.020,-0.058,9.161,-38.304,8.426
16:56:12:068,19.456,0.581,0.395,-0.098,7.056,-37.747,0.980
16:56:12:115,19.503,0.032,1.138,-0.407,3.540,-34.468,-10.218
16:56:12:256,19.644,-1.167,1.242,-1.004,1.177,-30.025,-17.598
16:56:12:256,19.644,-2.059,0.955,-1.370,-2.282,-21.543,-27.477
16:56:12:257,19.645,-3.360,-0.876,-0.426,-3.463,-12.985,-33.113
16:56:12:414,19.802,-0.149,0.383,-0.607,-2.900,-7.422,-31.788
16:56:12:415,19.803,-0.046,1.020,0.484,-1.662,-7.266,-28.038
16:56:12:44,19.828,-0.544,0.186,-0.056,-2.454,-5.640,-18.241
16:56:12:44,19.828,-0.173,0.110,0.159,-1.737,-5.494,-16.319
16:56:12:702,20.090,-0.111,0.081,0.058,-0.699,-5.211,-11.756
16:56:12:703,20.091,-0.039,0.124,0.123,0.158,-5.388,-10.129
16:56:12:703,20.091,0.032,0.111,-0.012,0.901,-5.544,-8.649
16:56:12:729,20.117,-0.010,0.052,0.033,2.506,-5.395,-5.861
16:56:12:729,20.117,0.027,0.102,-0.013,3.164,-5.185,-4.606
16:56:12:73,20.118,0.158,0.137,-0.012,4.329,-4.836,-2.530
16:56:12:731,20.119,0.385,0.211,-0.066,5.791,-4.430,0.021
16:56:13:061,20.449,0.453,0.366,-0.184,6.959,-3.840,2.384
16:56:13:227,20.615,0.734,0.338,-0.176,9.397,-3.075,6.968
16:56:13:228,20.616,1.270,0.076,-0.646,11.566,-3.069,10.568
16:56:13:228,20.616,1.536,0.716,-1.086,15.184,-3.631,17.717
16:56:13:246,20.634,0.184,0.082,-0.611,25.412,0.384,36.623
16:56:13:306,20.694,0.806,-1.220,-0.474,29.946,7.630,46.048
16:56:13:306,20.694,0.273,-1.127,-0.195,25.170,12.861,44.228
16:56:13:307,20.695,-0.029,-0.950,-0.306,22.480,15.191,41.505
16:56:13:307,20.695,0.281,-1.004,-0.386,19.161,16.597,34.453
16:56:13:385,20.773,0.504,-0.713,-0.467,16.802,16.858,24.736
16:56:13:385,20.773,0.274,-0.399,-0.468,15.126,16.800,17.528
16:56:13:386,20.774,0.285,0.050,-0.546,12.541,16.704,6.066
16:56:13:387,20.775,0.217,0.397,-0.565,10.463,17.045,-1.669
16:56:13:516,20.904,-2.753,-0.835,1.963,-0.219,36.256,-36.596
16:56:13:517,20.905,-1.429,0.003,1.845,-0.640,37.521,-38.324
16:56:13:518,20.906,-0.883,-0.109,1.212,-1.977,37.942,-35.817
16:56:13:519,20.907,-0.697,0.387,1.193,-0.377,38.439,-29.972
16:56:13:542,20.930,-1.074,-0.064,0.354,2.016,39.275,-24.751
16:56:13:543,20.931,0.082,-0.417,0.205,1.378,41.116,-21.218
16:56:13:544,20.932,-0.349,0.149,0.229,1.009,41.709,-19.856
16:56:13:544,20.932,-0.108,0.015,0.120,0.882,42.734,-18.045
16:56:13:595,20.983,0.262,0.477,-0.393,2.956,41.607,-1.657
16:56:13:595,20.983,0.806,0.238,-2.029,9.870,40.544,13.857
16:56:13:596,20.984,0.642,0.556,-0.861,14.224,38.316,22.884
16:56:13:596,20.984,0.940,0.242,-1.243,18.363,37.725,30.102
16:56:13:62,21.009,0.855,0.665,-1.173,25.449,36.312,41.014
16:56:13:621,21.009,0.316,-0.868,-0.532,31.639,38.456,46.969
16:56:13:622,21.010,1.161,-1.566,-1.479,27.671,39.869,46.477
16:56:13:623,21.011,-0.166,-0.829,-0.219,22.568,43.740,42.343
16:56:13:796,21.184,0.198,-1.017,-0.278,20.113,43.951,37.832
16:56:13:876,21.264,0.399,-0.941,-0.301,17.787,43.269,28.841
16:56:14:111,21.499,0.397,-0.510,-0.270,16.068,42.942,21.956
16:56:14:198,21.586,0.133,-0.221,-0.272,13.005,42.966,11.436
16:56:14:199,21.587,0.128,0.227,-0.487,10.068,42.996,-0.081
16:56:14:2,21.588,-0.103,0.837,-0.341,7.897,43.556,-7.625
16:56:14:2,21.588,-0.553,1.290,0.289,4.754,46.897,-18.903
16:56:14:252,21.640,-1.033,1.542,1.185,2.842,50.701,-26.167
16:56:14:252,21.640,-2.225,-0.037,2.314,0.709,57.995,-34.909
16:56:14:252,21.640,-0.837,-1.243,3.244,1.358,62.803,-39.598
16:56:14:253,21.641,-0.661,-0.088,2.148,-0.449,63.421,-39.403
16:56:14:277,21.665,0.573,2.061,0.020,0.530,64.725,-33.569
16:56:14:277,21.665,0.053,-0.629,1.392,1.490,62.550,-28.238
16:56:14:278,21.666,-0.899,0.257,1.178,2.665,64.352,-23.002
16:56:14:279,21.667,-0.122,0.157,0.003,3.149,65.103,-21.244
16:56:14:356,21.744,-0.098,-0.022,0.217,2.392,66.087,-19.113
16:56:14:356,21.744,-0.160,0.194,-0.010,2.444,66.382,-17.237
16:56:14:357,21.745,-0.003,-0.099,0.031,2.500,66.271,-16.167
16:56:14:358,21.746,-0.155,0.061,0.019,2.528,66.534,-14.651
16:56:14:51,21.898,-0.084,0.028,0.022,2.613,66.589,-13.788
16:56:14:51,21.898,-0.013,0.001,0.025,2.740,66.760,-12.585
16:56:14:534,21.922,-0.160,0.036,0.003,2.889,66.716,-11.533
16:56:14:535,21.923,-0.071,0.075,-0.041,2.987,66.416,-10.859
16:56:14:558,21.946,-0.020,0.098,0.003,3.279,65.879,-9.728
16:56:14:75,22.138,-0.120,0.384,-2.026,13.026,64.872,10.778
16:56:14:751,22.139,-0.313,0.759,-1.219,15.716,64.229,16.186
16:56:14:751,22.139,0.013,0.325,-1.463,21.081,65.714,26.730
16:56:14:752,22.140,-0.398,-0.190,-0.863,27.344,67.972,38.321
16:56:14:828,22.216,0.102,-1.584,0.008,31.598,71.271,45.327
16:56:14:829,22.217,-0.234,-1.189,-1.280,31.916,77.843,48.932
16:56:14:83,22.218,-0.384,-1.121,-0.079,29.487,82.117,47.123
16:56:14:83,22.218,-0.433,-0.960,-0.497,25.612,86.443,42.152
16:56:15:065,22.453,-0.518,-1.118,-0.384,23.005,89.321,33.318
16:56:15:065,22.453,-0.693,-0.713,-0.699,21.076,91.288,26.203
16:56:15:066,22.454,-0.961,-0.166,-0.291,18.430,94.140,15.117
16:56:15:067,22.455,-1.171,-0.096,-0.235,16.363,95.729,7.326
16:56:15:329,22.717,-1.185,0.601,0.056,12.947,98.735,-3.828
16:56:15:329,22.717,-1.048,0.913,0.493,10.065,101.642,-10.672
16:56:15:329,22.717,-0.521,1.337,1.730,5.004,106.825,-19.742
16:56:15:33,22.718,0.865,0.643,2.544,0.803,110.941,-26.408
16:56:15:381,22.769,1.721,-0.447,2.747,-0.591,112.302,-30.317
16:56:15:382,22.770,2.192,0.005,1.885,-2.036,112.360,-30.796
16:56:15:383,22.771,-0.985,0.932,-1.388,0.296,113.993,-27.344
16:56:15:383,22.771,1.260,0.579,1.339,0.467,114.916,-19.917
16:56:15:458,22.846,-0.192,0.438,0.373,0.501,116.744,-15.987
16:56:15:459,22.847,0.032,-0.106,0.519,0.349,118.088,-14.461
16:56:15:46,22.848,0.129,-0.263,-0.009,0.646,118.627,-13.005
16:56:15:461,22.849,-0.100,0.233,-0.047,0.479,118.560,-12.070
16:56:15:563,22.951,-0.042,0.155,-0.084,0.157,118.545,-10.609
16:56:15:564,22.952,-0.169,0.104,0.045,-0.274,119.048,-9.101
16:56:15:565,22.953,-0.143,-0.043,0.037,-0.326,119.198,-8.159
16:56:15:566,22.954,-0.127,-0.002,-0.041,-0.354,118.818,-6.730
16:56:15:642,23.030,-0.263,0.005,-0.063,-0.354,118.528,-5.709
16:56:15:642,23.030,-0.052,0.046,-0.006,-0.361,118.250,-3.832
16:56:15:643,23.031,-0.360,0.370,-0.513,1.925,112.809,4.663
16:56:15:644,23.032,-0.330,0.340,-0.642,3.576,112.832,9.289
16:56:15:686,23.074,-0.671,0.193,-0.798,6.104,112.966,15.270
16:56:15:739,23.127,-1.140,-0.076,-1.074,8.548,112.691,20.038
16:56:15:871,23.259,-0.231,-0.975,-0.261,23.251,112.674,45.044
16:56:15:984,23.372,-0.286,-1.183,-0.447,20.238,111.922,39.259
16:56:15:984,23.372,-0.207,-0.737,-0.625,16.182,110.235,29.129
16:56:15:985,23.373,-0.260,-0.387,-0.580,13.460,109.114,21.987
16:56:15:986,23.374,-0.306,0.005,-0.529,9.607,107.256,10.625
16:56:16:061,23.449,-0.192,0.599,-0.537,5.367,106.292,-0.950
16:56:16:062,23.450,-0.096,1.029,-0.243,2.208,107.014,-8.334
16:56:16:063,23.451,0.820,1.364,1.129,-2.808,109.930,-19.013
16:56:16:064,23.452,1.725,0.411,2.846,-6.325,112.875,-24.544
16:56:16:079,23.467,1.761,-0.282,2.760,-7.318,117.815,-30.905
16:56:16:141,23.529,2.288,-0.060,1.907,-7.615,120.569,-30.572
16:56:16:141,23.529,0.779,0.429,0.527,-6.302,123.230,-25.857
16:56:16:219,23.607,0.095,-0.141,-0.037,-3.326,124.096,-13.982
16:56:16:22,23.608,0.148,-0.027,0.082,-3.325,124.532,-12.372
16:56:16:221,23.609,-0.003,0.006,-0.233,-3.369,124.532,-11.454
16:56:16:222,23.610,-0.072,0.049,-0.086,-3.856,124.787,-10.027
16:56:16:242,23.630,-0.171,0.105,0.102,-4.153,124.853,-9.023
16:56:16:242,23.630,-0.142,0.027,0.021,-4.275,124.582,-7.460
16:56:16:275,23.663,-0.074,0.015,-0.073,-4.220,124.166,-5.793
16:56:16:275,23.663,-0.089,0.055,-0.115,-4.123,123.851,-4.676
16:56:16:275,23.663,-0.308,0.187,-0.324,-2.459,122.840,2.603
16:56:16:276,23.664,-0.314,0.225,-0.415,-1.235,122.421,6.262
16:56:16:299,23.687,-0.318,0.255,-0.678,0.529,122.239,11.167
16:56:16:3,23.688,-0.744,0.252,-0.762,2.273,122.116,15.184
16:56:16:301,23.689,-1.496,-0.047,-0.945,6.022,121.240,22.910
16:56:16:351,23.739,-1.225,-0.005,-1.115,15.275,118.288,40.386
16:56:16:351,23.739,-1.454,0.048,-0.776,22.865,116.836,51.475
16:56:16:352,23.740,0.277,-1.151,0.120,28.380,118.353,55.441
16:56:16:353,23.741,-0.729,-1.465,-0.852,27.303,118.409,54.403
16:56:16:404,23.792,0.043,-1.111,-0.161,24.746,118.978,51.664
16:56:16:404,23.792,-0.155,-1.048,-0.289,20.192,118.315,45.271
16:56:16:405,23.793,-0.114,-1.005,-0.540,16.118,116.857,36.128
16:56:16:406,23.794,-0.122,-0.746,-0.551,13.498,115.857,29.175
16:56:16:427,23.815,-0.309,-0.161,-0.482,9.489,114.570,17.913
16:56:16:427,23.815,-0.155,0.328,-0.440,7.193,113.799,10.049
16:56:16:427,23.815,0.018,0.660,-0.277,3.720,113.299,-1.487
16:56:16:447,23.835,0.311,1.211,0.320,1.106,114.706,-8.736
16:56:16:505,23.893,0.858,1.060,1.058,-2.535,118.782,-18.860
16:56:16:505,23.893,1.312,0.560,2.017,-5.047,123.775,-28.089
16:56:16:506,23.894,1.616,-0.313,2.082,-5.334,126.688,-32.621
16:56:16:692,24.080,2.007,-0.723,1.725,-6.353,128.400,-35.269
16:56:16:692,24.080,1.462,-0.309,1.326,-6.449,128.678,-34.338
16:56:16:693,24.081,-2.050,1.589,-1.569,-4.944,129.531,-29.645
16:56:16:694,24.082,2.234,-0.989,1.585,-4.331,128.879,-24.620
16:56:16:871,24.259,0.142,0.519,0.611,-2.590,130.527,-18.274
16:56:16:872,24.260,0.157,-0.065,-0.032,-2.867,131.090,-15.514
16:56:16:902,24.290,0.063,-0.212,-0.021,-3.094,131.719,-14.266
16:56:16:903,24.291,0.058,-0.005,0.054,-3.110,132.099,-12.486
16:56:16:904,24.292,-0.046,-0.034,-0.121,-3.123,132.151,-11.584
16:56:16:904,24.292,0.042,0.070,0.020,-3.343,132.144,-10.156
16:56:16:954,24.342,-0.086,0.058,-0.031,-3.744,132.022,-8.866
16:56:16:955,24.343,-0.075,-0.017,-0.057,-4.023,131.921,-7.962
16:56:16:956,24.344,-0.078,0.068,-0.015,-4.234,131.695,-6.656
16:56:16:957,24.345,-0.076,0.076,0.016,-4.219,131.280,-5.839
16:56:16:98,24.368,-0.076,0.038,-0.093,-4.244,130.367,-5.291
16:56:16:981,24.369,-0.170,0.083,-0.131,-4.007,129.395,-3.732
16:56:16:981,24.369,-0.119,0.222,-0.178,-3.730,128.772,-2.392
16:56:16:982,24.370,-0.116,0.184,-0.348,-2.949,123.553,0.201
16:56:16:997,24.385,-0.263,0.407,-0.423,-2.204,123.154,2.478
16:56:17:025,24.413,-0.216,0.356,-0.602,-0.469,118.814,6.903
16:56:17:081,24.469,-0.772,0.281,-0.833,2.346,118.146,12.600
16:56:17:081,24.469,-1.507,0.284,-1.340,4.611,117.231,17.747
16:56:17:102,24.490,-0.878,0.477,-0.819,8.587,115.471,27.737
16:56:17:157,24.545,-1.359,-0.040,-0.779,11.384,115.166,34.881
16:56:17:235,24.623,-1.227,-0.202,-0.873,16.380,113.740,44.826
16:56:17:264,24.652,0.394,-1.207,0.376,20.710,114.773,49.696
16:56:17:265,24.653,-0.745,-1.394,-0.821,23.668,114.458,49.771
16:56:17:289,24.677,0.024,-1.309,-0.247,22.314,114.267,46.106
16:56:17:29,24.678,-0.195,-1.130,-0.280,20.419,113.832,42.540
16:56:17:315,24.703,-0.202,-0.956,-0.370,16.549,113.016,35.100
16:56:17:316,24.704,-0.204,-0.796,-0.488,14.180,112.297,28.983
16:56:17:419,24.807,-0.263,-0.337,-0.544,10.878,111.126,18.665
16:56:17:558,24.946,-0.249,0.040,-0.566,7.656,110.153,7.668
16:56:17:559,24.947,-0.172,0.552,-0.442,5.273,110.141,0.322
16:56:17:559,24.947,0.018,1.454,0.175,1.403,112.780,-10.719
16:56:17:56,24.948,0.493,1.532,1.173,-0.989,116.284,-17.992
16:56:17:585,24.973,0.738,0.646,2.190,-3.801,123.376,-27.948
16:56:17:585,24.973,2.509,-0.732,1.903,-4.050,127.952,-32.552
16:56:17:586,24.974,2.093,-0.403,1.576,-5.401,130.400,-34.568
16:56:17:587,24.975,-1.257,0.945,0.188,-4.160,132.948,-29.530
16:56:17:663,25.051,0.267,1.092,-0.264,-3.171,132.543,-25.021
16:56:17:663,25.051,0.855,0.891,0.706,-1.262,134.244,-19.296
16:56:17:664,25.052,0.005,-0.415,-0.100,-0.950,135.184,-17.535
16:56:17:665,25.053,0.093,0.309,0.087,-1.597,136.093,-15.306
16:56:17:759,25.147,-0.162,0.214,-0.032,-1.645,136.767,-13.366
16:56:17:82,25.208,-0.068,-0.019,0.068,-1.692,137.095,-12.241
16:56:17:821,25.209,-0.028,0.139,0.065,-1.778,137.581,-10.535
16:56:17:822,25.210,0.087,0.085,-0.111,-1.608,137.517,-9.353
16:56:17:823,25.211,0.023,0.052,-0.117,-1.252,137.307,-7.632
16:56:17:838,25.226,-0.119,0.130,-0.053,-0.931,137.136,-5.991
16:56:17:896,25.284,-0.131,0.087,0.000,-0.606,136.974,-4.863
16:56:17:897,25.285,-0.010,0.020,-0.058,0.080,136.700,-3.183
16:56:17:898,25.286,-0.052,0.022,-0.136,0.598,136.513,-2.114
16:56:17:917,25.305,-0.065,0.073,-0.164,1.433,136.448,-0.361
16:56:17:996,25.384,-0.163,0.086,-0.179,2.059,136.532,1.010
16:56:18:083,25.471,-0.281,0.200,-0.171,3.232,136.839,3.483
16:56:18:241,25.629,-1.819,0.337,-0.459,12.246,131.346,20.134
16:56:18:242,25.630,-0.820,0.648,-0.484,17.572,131.449,29.340
16:56:18:243,25.631,-0.916,0.201,0.058,23.507,131.951,38.657
16:56:18:32,25.708,-0.455,-1.069,-0.232,28.084,135.324,46.232
16:56:18:321,25.709,-0.413,-1.257,-0.153,25.369,138.703,45.071
16:56:18:322,25.710,-0.242,-0.952,0.081,21.474,142.084,42.011
16:56:18:323,25.711,-0.435,-0.903,0.081,18.031,144.273,36.337
16:56:18:371,25.759,-0.518,-0.855,-0.036,16.107,145.465,31.241
16:56:18:372,25.760,-0.583,-0.570,0.048,13.339,147.445,22.348
16:56:18:373,25.761,-0.568,-0.294,0.195,11.424,148.927,15.855
16:56:18:374,25.762,-0.617,0.087,0.396,8.661,150.865,5.539
16:56:18:448,25.836,-0.357,0.707,0.472,5.412,153.663,-4.993
16:56:18:448,25.836,-0.018,1.050,0.661,2.925,156.759,-11.977
16:56:18:741,26.129,2.290,0.535,0.861,-3.705,167.851,-27.331
16:56:18:742,26.130,3.000,-0.368,0.266,-5.979,173.761,-32.845
16:56:18:743,26.131,2.286,-0.276,-0.497,-6.755,175.524,-34.200
16:56:18:744,26.132,0.383,0.096,-0.302,-5.758,177.648,-30.804
16:56:18:818,26.206,1.130,0.370,-0.601,-4.101,179.257,-24.993
16:56:18:819,26.207,0.255,-0.106,0.088,-2.739,179.437,-21.616
16:56:18:82,26.208,0.432,-0.436,-0.166,-3.119,-178.368,-19.234
16:56:18:82,26.208,0.318,0.271,-0.149,-3.544,-176.832,-17.892
16:56:18:894,26.282,-0.024,-0.086,-0.164,-2.714,-176.288,-16.152
16:56:18:895,26.283,-0.120,-0.125,-0.147,-2.842,-176.090,-14.698
16:56:18:896,26.284,0.009,0.072,-0.141,-2.939,-175.883,-13.595
16:56:18:977,26.365,-0.027,0.028,-0.049,-2.952,-175.575,-11.942
16:56:18:977,26.365,0.075,0.078,-0.035,-2.751,-175.491,-10.776
16:56:18:977,26.365,0.008,0.073,-0.080,-2.445,-175.737,-9.047
16:56:18:978,26.366,-0.061,0.105,-0.007,-2.270,-175.951,-7.930
16:56:19:188,26.576,-0.083,0.076,0.016,-1.741,-176.310,-6.291
16:56:19:189,26.577,-0.074,0.045,-0.008,-1.081,-176.468,-4.530
16:56:19:189,26.577,-0.082,0.066,-0.027,-0.637,-176.490,-3.316
16:56:19:19,26.578,-0.108,0.119,-0.062,0.115,-176.436,-1.462
16:56:19:207,26.595,-0.299,0.117,-0.082,0.727,-176.458,-0.083
16:56:19:207,26.595,-0.427,0.268,0.009,1.902,-178.327,2.551
16:56:19:343,26.731,-0.556,0.297,0.039,3.575,-177.700,6.352
16:56:19:344,26.732,-0.710,0.333,0.179,5.196,-178.613,9.528
16:56:19:345,26.733,-1.526,0.258,0.902,8.376,-178.994,15.513
16:56:19:397,26.785,-1.086,0.357,0.592,16.047,-178.863,30.602
16:56:19:397,26.785,-1.053,-0.084,0.679,21.153,-178.083,40.254
16:56:19:398,26.786,-0.415,-1.134,0.221,24.035,-176.847,44.780
16:56:19:399,26.787,-0.754,-1.180,0.233,23.882,-175.213,46.784
16:56:19:423,26.811,-0.276,-1.106,0.135,20.256,-173.125,44.809
16:56:19:423,26.811,-0.178,-0.923,0.229,15.720,-171.889,40.275
16:56:19:424,26.812,-0.318,-0.913,0.103,13.441,-172.230,35.752
16:56:19:425,26.813,-0.561,-0.797,0.076,10.889,-173.418,27.139
16:56:19:448,26.836,-0.563,-0.480,0.101,8.041,-175.008,16.965
16:56:19:449,26.837,-0.553,-0.107,0.103,5.914,-175.904,9.687
16:56:19:45,26.838,-0.392,0.545,0.013,2.188,-177.017,-1.341
16:56:19:451,26.839,0.119,1.179,-0.081,-0.827,-176.505,-8.641
16:56:19:465,26.853,1.173,1.425,-0.404,-5.741,-173.003,-19.329
16:56:19:525,26.913,2.358,0.509,-0.806,-9.851,-167.844,-29.051
16:56:19:526,26.914,2.661,-0.207,-0.700,-10.653,-164.249,-34.065
16:56:19:527,26.915,2.207,-0.862,-1.574,-11.351,-160.958,-36.330
16:56:19:599,26.987,1.451,-0.134,-1.360,-11.323,-159.717,-34.413
16:56:19:679,27.067,0.614,0.707,-0.962,-9.238,-158.232,-28.681
16:56:19:68,27.068,0.609,-0.117,-0.027,-6.081,-157.950,-24.093
16:56:19:782,27.170,0.104,-0.619,-0.342,-5.654,-157.055,-21.104
16:56:19:866,27.254,0.092,0.027,-0.219,-6.056,-156.107,-19.352
16:56:19:866,27.254,0.077,0.094,-0.069,-5.824,-155.797,-18.342
16:56:19:867,27.255,0.050,0.011,-0.075,-5.746,-155.653,-17.008
16:56:20:027,27.415,0.005,0.039,0.008,-5.738,-155.570,-16.150
16:56:20:027,27.415,-0.030,-0.011,-0.038,-5.911,-155.350,-14.651
16:56:20:028,27.416,0.036,0.029,-0.160,-6.012,-155.322,-13.089
16:56:20:029,27.417,0.015,0.098,-0.017,-6.019,-155.403,-12.040
16:56:20:099,27.487,-0.022,0.107,-0.013,-5.822,-155.788,-10.410
16:56:20:099,27.487,0.010,0.105,-0.023,-5.582,-156.218,-9.326
16:56:20:157,27.545,-0.086,0.116,-0.030,-5.039,-156.970,-7.639
16:56:20:158,27.546,-0.151,0.160,-0.095,-4.355,-157.713,-5.875
16:56:20:158,27.546,-0.240,0.162,-0.040,-3.773,-158.256,-4.517
16:56:20:159,27.547,-0.308,0.196,-0.048,-2.616,-158.855,-1.925
16:56:20:211,27.599,-0.410,0.365,0.121,-1.628,-159.031,0.344
16:56:20:212,27.600,-0.541,0.302,0.088,0.588,-161.290,4.595
16:56:20:212,27.600,-1.123,0.384,0.651,2.557,-161.862,8.064
16:56:20:213,27.601,-1.522,0.311,1.211,5.759,-163.207,15.110
16:56:20:236,27.624,-0.827,0.851,0.738,8.898,-163.706,25.062
16:56:20:238,27.626,-0.937,0.194,1.200,11.815,-163.032,32.042
16:56:20:238,27.626,-0.309,-0.391,0.524,15.620,-160.617,42.441
16:56:20:239,27.627,0.329,-0.818,-0.402,18.744,-157.446,46.383
16:56:20:315,27.703,-0.482,-1.188,0.790,18.353,-154.465,46.311
16:56:20:316,27.704,-0.024,-1.026,0.212,16.212,-152.273,42.268
16:56:20:316,27.704,0.132,-0.932,0.306,14.901,-151.169,38.487
16:56:20:317,27.705,-0.113,-0.959,0.500,13.059,-150.608,30.352
16:56:20:337,27.725,-0.246,-0.761,0.569,11.911,-150.503,23.898
16:56:20:338,27.726,-0.033,-0.246,0.474,9.910,-150.340,13.523
16:56:20:339,27.727,-0.119,0.143,0.582,7.536,-150.331,2.447
16:56:20:388,27.776,0.066,0.523,0.420,5.290,-149.364,-4.879
16:56:20:388,27.776,0.679,1.131,0.010,1.401,-144.978,-15.903
16:56:20:41,27.798,1.618,1.157,-1.022,-1.187,-139.965,-23.130
16:56:20:465,27.853,1.625,0.831,-1.416,-3.965,-131.841,-32.502
16:56:20:516,27.904,1.367,-1.029,-3.011,-5.143,-124.871,-37.205
16:56:20:576,27.964,0.818,-0.360,-2.445,-5.766,-122.537,-37.593
16:56:20:577,27.965,-1.254,2.746,1.057,-3.691,-118.527,-31.904
16:56:20:578,27.966,0.674,-0.829,-1.106,-2.433,-119.919,-26.885
16:56:20:578,27.966,-0.080,-0.403,-0.502,-2.208,-118.453,-23.554
16:56:20:594,27.982,-0.034,-0.084,-0.117,-2.175,-117.365,-22.100
16:56:20:648,28.036,-0.131,-0.381,-0.237,-2.448,-116.283,-20.317
16:56:20:753,28.141,-0.226,-0.157,-0.061,-2.450,-116.014,-18.831
16:56:20:892,28.280,-0.049,0.122,-0.089,-2.553,-115.978,-17.885
16:56:20:893,28.281,0.003,0.045,-0.087,-2.798,-115.874,-16.496
16:56:20:893,28.281,-0.027,0.054,-0.034,-2.615,-115.958,-15.719
16:56:20:92,28.308,0.078,0.075,0.066,-2.582,-116.969,-13.225
16:56:20:92,28.308,0.112,0.054,0.046,-2.518,-117.440,-12.194
16:56:20:92,28.308,-0.005,0.015,0.019,-2.215,-118.283,-10.327
16:56:20:921,28.309,-0.105,0.122,-0.046,-1.954,-118.671,-8.935
16:56:20:989,28.377,-0.219,0.204,0.043,-1.252,-119.153,-6.725
16:56:21:044,28.432,-0.261,0.202,0.201,-0.503,-119.500,-5.054
16:56:21:045,28.433,-0.229,0.385,0.331,0.857,-119.560,-1.847
16:56:21:146,28.534,-0.271,0.355,0.541,2.639,-119.068,2.580
16:56:21:202,28.590,-0.186,0.360,0.799,4.226,-118.794,6.321
16:56:21:203,28.591,-0.286,0.382,2.159,7.003,-119.245,13.328
16:56:21:312,28.700,0.114,0.738,1.472,8.849,-119.642,19.581
16:56:21:312,28.700,0.088,0.020,1.344,13.433,-118.611,30.564
16:56:21:313,28.701,0.204,-0.079,0.642,17.914,-117.327,41.021
16:56:21:314,28.702,-0.067,-1.181,0.258,20.712,-114.954,45.169
16:56:21:338,28.726,0.143,-1.215,0.864,20.385,-112.291,45.622
16:56:21:339,28.727,0.090,-1.111,0.133,18.447,-110.088,43.270
16:56:21:34,28.728,0.185,-0.991,0.231,15.332,-108.000,38.112
16:56:21:34,28.728,0.134,-0.959,0.311,13.107,-107.505,30.307
16:56:21:359,28.747,0.029,-0.740,0.597,11.929,-107.698,23.772
16:56:21:36,28.748,0.102,-0.331,0.480,9.981,-108.072,13.070
16:56:21:673,29.061,0.145,0.044,0.533,8.440,-108.380,5.527
16:56:21:674,29.062,0.265,0.744,0.317,5.260,-108.295,-5.986
16:56:21:757,29.145,0.459,1.250,-0.337,2.615,-106.739,-13.613
16:56:21:757,29.145,0.536,1.349,-1.906,-2.005,-102.197,-24.465
16:56:21:758,29.146,0.194,0.200,-2.983,-6.848,-97.284,-33.212
16:56:21:854,29.242,0.023,-0.699,-3.009,-7.725,-94.050,-37.672
16:56:21:889,29.277,-1.068,-0.631,-2.495,-8.910,-92.379,-39.660
16:56:21:89,29.278,-0.345,2.259,1.122,-7.635,-91.607,-37.301
16:56:21:891,29.279,-0.284,-0.832,-2.139,-6.257,-91.778,-29.513
16:56:21:892,29.280,0.237,-0.183,-0.177,-4.715,-89.630,-24.680
16:56:21:994,29.382,-0.201,-0.497,-0.402,-3.705,-89.177,-23.276
16:56:21:995,29.383,-0.232,-0.277,-0.084,-3.404,-88.264,-21.375
16:56:21:996,29.384,-0.113,0.006,0.041,-3.351,-87.908,-20.226
16:56:22:099,29.487,0.067,0.037,-0.110,-3.527,-87.643,-17.925
16:56:22:1,29.488,-0.034,0.008,-0.130,-3.800,-87.759,-16.573
16:56:22:101,29.489,0.038,0.061,-0.089,-3.920,-88.386,-15.183
16:56:22:102,29.490,0.017,0.031,-0.044,-4.070,-88.987,-13.991
16:56:22:126,29.514,-0.012,0.062,0.005,-4.066,-90.021,-12.645
16:56:22:126,29.514,0.031,0.073,-0.042,-3.933,-90.630,-11.698
16:56:22:127,29.515,0.027,0.041,0.013,-3.693,-91.468,-10.199
16:56:22:128,29.516,-0.027,0.115,0.043,-3.235,-92.105,-8.515
16:56:22:205,29.593,-0.087,0.110,0.096,-2.735,-92.556,-7.184
16:56:22:206,29.594,-0.093,0.292,0.216,-1.766,-93.039,-4.695
16:56:22:206,29.594,-0.154,0.330,0.324,-0.928,-93.213,-2.544
16:56:22:207,29.595,-0.031,0.364,0.440,0.851,-95.502,1.524
16:56:22:257,29.645,0.462,0.424,1.082,3.422,-96.017,6.870
16:56:22:258,29.646,0.648,0.560,1.751,5.184,-96.949,11.818
16:56:22:259,29.647,0.380,0.742,0.699,8.483,-98.236,21.178
16:56:22:26,29.648,0.517,0.248,0.913,11.207,-98.443,27.894
16:56:22:283,29.671,0.385,-0.209,0.985,15.385,-100.069,36.797
16:56:22:284,29.672,-0.047,-0.741,-0.177,18.833,-99.894,41.202
16:56:22:285,29.673,0.135,-1.152,0.994,21.806,-100.322,41.816
16:56:22:285,29.673,-0.080,-1.241,0.230,19.299,-101.296,38.330
16:56:22:541,29.929,0.055,-1.026,0.258,17.004,-101.118,35.324
16:56:22:541,29.929,0.053,-0.824,0.424,12.933,-101.262,28.989
16:56:22:704,30.092,-0.044,-0.652,0.466,10.634,-101.569,23.719
16:56:22:705,30.093,-0.016,-0.386,0.499,7.427,-102.269,14.510
16:56:22:706,30.094,-0.073,0.092,0.462,4.016,-103.000,4.360
16:56:22:706,30.094,-0.087,0.435,0.321,1.498,-103.218,-2.622
16:56:22:755,30.143,-0.049,1.085,-0.153,-2.735,-101.653,-13.239
16:56:22:755,30.143,0.074,1.375,-1.514,-5.677,-99.038,-20.141
16:56:22:755,30.143,0.118,1.179,-2.088,-10.290,-94.379,-29.842
16:56:22:782,30.170,-0.364,-0.856,-2.931,-11.298,-90.795,-34.579
16:56:22:783,30.171,-0.995,-0.693,-2.292,-11.659,-87.140,-37.850
16:56:22:784,30.172,0.408,0.444,-0.472,-10.069,-84.384,-35.049
16:56:22:914,30.302,0.171,-0.152,0.176,-5.585,-82.405,-25.550
16:56:22:914,30.302,-0.441,-0.326,-0.603,-5.168,-82.310,-23.954
16:56:22:915,30.303,-0.123,-0.078,0.042,-5.215,-81.469,-22.082
16:56:22:916,30.304,0.003,0.047,-0.079,-5.058,-80.999,-20.671
16:56:23:019,30.407,-0.057,-0.022,0.006,-4.999,-80.900,-19.838
16:56:23:019,30.407,-0.059,0.006,-0.073,-5.014,-80.577,-18.503
16:56:23:02,30.408,0.002,0.033,-0.061,-5.084,-80.545,-17.633
16:56:23:02,30.408,-0.020,0.034,-0.054,-5.069,-80.932,-16.262
16:56:23:045,30.433,0.052,0.059,-0.015,-5.134,-81.301,-15.137
16:56:23:046,30.434,0.028,0.069,-0.043,-4.985,-82.058,-13.507
16:56:23:047,30.435,-0.016,0.112,-0.004,-4.647,-82.971,-11.753
16:56:23:047,30.435,-0.080,0.121,0.024,-4.287,-83.538,-10.452
16:56:23:063,30.451,-0.081,0.162,0.057,-3.633,-84.261,-8.363
16:56:23:097,30.485,-0.079,0.172,0.200,-3.061,-84.815,-6.736
16:56:23:097,30.485,0.016,0.310,0.263,-2.005,-85.497,-3.771
16:56:23:098,30.486,-0.005,0.307,0.395,-0.466,-87.066,0.269
16:56:23:099,30.487,0.182,0.383,0.541,0.951,-87.374,3.558
16:56:23:149,30.537,0.557,0.464,1.640,3.775,-88.821,10.418
16:56:23:15,30.538,0.462,0.769,0.958,5.920,-90.259,16.515
16:56:23:151,30.539,0.197,0.684,0.623,9.829,-90.858,26.874
16:56:23:176,30.564,0.422,-0.200,0.609,17.123,-91.290,41.408
16:56:23:176,30.564,0.208,-0.816,0.479,19.731,-91.202,42.354
16:56:23:177,30.565,0.037,-1.279,0.321,17.855,-92.054,39.914
16:56:23:195,30.583,0.035,-0.907,0.323,12.667,-92.377,30.828
16:56:23:196,30.584,-0.096,-0.806,0.487,9.695,-93.586,22.545
16:56:23:219,30.607,-0.148,-0.520,0.581,6.722,-94.700,12.916
16:56:23:273,30.661,-0.130,-0.111,0.401,4.519,-95.157,6.046
16:56:23:3,30.688,-0.120,0.413,0.311,0.914,-95.574,-4.592
16:56:23:301,30.689,-0.180,0.747,-0.079,-1.763,-94.731,-11.707
16:56:23:326,30.714,-0.370,1.142,-1.143,-5.669,-91.394,-22.566
16:56:23:351,30.739,-0.377,0.576,-2.502,-9.220,-86.625,-32.344
16:56:23:378,30.766,-0.645,-0.202,-2.808,-10.549,-83.724,-36.830
16:56:23:402,30.790,-1.201,-1.008,-2.794,-11.327,-81.535,-39.235
16:56:23:432,30.820,0.757,0.980,0.191,-10.823,-80.787,-37.779
16:56:23:432,30.820,-0.167,0.920,0.130,-9.138,-81.446,-31.848
16:56:23:455,30.843,-0.432,0.575,-0.925,-6.252,-79.836,-26.924
16:56:23:481,30.869,-0.102,-0.372,-0.021,-5.725,-79.580,-25.337
16:56:23:771,31.159,-0.095,-0.040,-0.134,-5.497,-78.882,-23.706
16:56:23:799,31.187,-0.070,-0.012,-0.159,-5.141,-78.598,-22.713
16:56:23:851,31.239,-0.096,-0.023,-0.100,-4.878,-78.477,-21.487
16:56:23:985,31.373,-0.062,0.004,-0.082,-4.873,-78.289,-20.681
16:56:23:986,31.374,0.029,0.051,-0.101,-5.008,-78.202,-19.474
16:56:24:042,31.430,-0.044,-0.005,-0.152,-4.949,-78.437,-18.346
16:56:24:043,31.431,-0.034,0.055,-0.101,-4.862,-78.852,-17.501
16:56:24:147,31.535,-0.011,0.172,0.000,-4.121,-81.168,-12.756
16:56:24:148,31.536,-0.093,0.207,0.109,-3.348,-82.285,-10.569
16:56:24:149,31.537,-0.135,0.160,0.209,-2.636,-82.918,-8.835
16:56:24:279,31.667,0.119,0.465,0.461,-0.197,-83.608,-2.613
16:56:24:28,31.668,0.309,0.472,0.553,2.295,-84.324,2.810
16:56:24:28,31.668,1.032,0.692,2.099,4.354,-85.631,7.807
16:56:24:303,31.691,0.551,0.138,0.656,12.028,-88.271,28.202
16:56:24:304,31.692,0.861,-0.116,0.826,14.375,-88.467,33.966
16:56:24:305,31.693,-0.378,-1.384,-0.433,19.608,-87.666,38.877
16:56:24:385,31.773,0.280,-1.306,0.923,19.438,-87.645,38.171
16:56:24:386,31.774,-0.041,-1.324,0.241,17.175,-87.129,34.651
16:56:24:387,31.775,0.177,-0.933,0.351,13.707,-87.236,28.544
16:56:24:428,31.816,0.040,-0.497,0.602,8.545,-88.373,13.678
16:56:24:464,31.852,-0.077,-0.023,0.483,6.651,-88.615,6.789
16:56:24:464,31.852,-0.100,0.266,0.380,3.626,-88.850,-4.131
16:56:24:464,31.852,-0.072,1.005,0.064,0.138,-86.944,-15.433
16:56:24:464,31.852,-0.220,1.256,-0.807,-1.939,-83.332,-22.966
16:56:24:516,31.904,-0.167,0.926,-2.243,-4.419,-76.720,-33.554
16:56:24:517,31.905,-0.570,-0.413,-2.843,-4.819,-72.035,-38.786
16:56:24:517,31.905,-1.591,-1.279,-2.628,-4.424,-68.310,-42.440
16:56:24:518,31.906,-1.223,-0.349,-1.713,-5.294,-67.573,-41.669
16:56:24:541,31.929,0.179,2.605,1.454,-2.786,-66.018,-35.768
16:56:24:542,31.930,-0.296,-1.105,-1.154,-0.289,-66.003,-28.538
16:56:24:542,31.930,0.009,-0.079,-0.622,-0.643,-64.630,-26.248
16:56:24:543,31.931,0.013,0.363,-0.343,-0.451,-63.999,-24.036
16:56:24:62,32.008,-0.135,-0.102,-0.109,0.052,-63.776,-22.479
16:56:24:62,32.008,-0.258,-0.060,-0.051,0.433,-63.703,-20.733
16:56:24:621,32.009,0.012,0.125,-0.236,0.616,-63.405,-19.123
16:56:24:621,32.009,0.007,0.038,-0.098,0.783,-63.667,-18.011
16:56:24:638,32.026,-0.044,0.097,-0.070,1.034,-64.166,-16.251
16:56:24:697,32.085,-0.040,0.063,-0.043,1.305,-64.457,-15.094
16:56:24:698,32.086,0.000,0.036,-0.082,1.877,-64.630,-13.458
16:56:24:699,32.087,-0.011,0.002,-0.100,2.352,-64.765,-12.395
16:56:24:7,32.088,-0.018,0.047,-0.040,3.189,-65.081,-10.775
16:56:24:717,32.105,-0.042,0.093,-0.025,4.163,-65.232,-9.051
16:56:24:772,32.160,-0.007,0.141,0.036,4.906,-65.374,-7.784
16:56:24:772,32.160,0.138,0.238,0.150,6.279,-65.503,-5.457
16:56:24:794,32.182,0.189,0.301,0.254,7.426,-65.399,-3.471
16:56:24:82,32.208,0.412,0.367,0.396,9.721,-65.225,0.445
16:56:24:875,32.263,1.147,0.388,0.821,11.609,-65.380,3.775
16:56:24:876,32.264,1.670,0.432,0.831,14.542,-65.555,10.477
16:56:24:955,32.343,0.887,0.816,0.568,19.350,-64.166,20.269
16:56:24:956,32.344,1.163,0.228,0.025,23.146,-63.695,27.490
16:56:25:01,32.398,1.088,-0.357,0.344,27.745,-60.465,36.684
16:56:25:01,32.398,0.754,-0.854,0.403,30.322,-57.581,39.639
16:56:25:011,32.399,0.910,-1.370,0.282,26.808,-51.508,39.033
16:56:25:11,32.498,0.327,-1.043,-0.131,23.028,-46.428,35.136
16:56:25:197,32.585,0.549,-0.905,-0.066,21.023,-44.542,30.879
16:56:25:198,32.586,0.605,-0.923,-0.029,19.067,-42.350,22.084
16:56:25:198,32.586,0.678,-0.472,-0.127,17.843,-41.149,15.102
16:56:25:2,32.588,0.714,-0.175,-0.273,16.217,-39.300,3.956
16:56:25:25,32.638,0.619,0.314,-0.657,13.857,-37.072,-7.337
16:56:25:25,32.638,0.315,0.805,-0.921,11.924,-34.654,-14.731
16:56:25:25,32.638,-0.992,1.211,-1.682,8.344,-29.166,-24.929
16:56:25:251,32.639,-2.976,0.159,-1.325,4.533,-24.808,-29.661
16:56:25:932,33.320,-3.306,-0.356,-0.781,3.335,-17.745,-33.697
16:56:25:933,33.321,-3.484,0.321,0.279,4.576,-12.472,-33.652
16:56:25:933,33.321,-0.440,0.652,-0.360,6.088,-10.314,-28.293
16:56:25:934,33.322,0.702,0.240,-0.747,6.076,-9.944,-24.404
16:56:26:011,33.399,-0.332,0.498,-0.687,6.334,-9.852,-22.900
16:56:26:011,33.399,-0.316,-0.251,0.038,5.802,-8.167,-20.329
16:56:26:012,33.400,-0.197,0.125,0.238,5.941,-7.517,-19.028
16:56:26:013,33.401,0.134,-0.019,-0.011,5.678,-7.275,-17.472
16:56:26:038,33.426,0.059,0.019,-0.142,5.312,-7.097,-15.679
16:56:26:039,33.427,0.046,0.089,-0.367,5.136,-6.968,-14.334
16:56:26:039,33.427,0.001,0.041,-0.135,5.247,-7.106,-12.244
16:56:26:04,33.428,0.010,0.021,-0.117,5.396,-7.257,-10.806
16:56:26:064,33.452,0.025,0.019,-0.153,5.746,-7.397,-8.584
16:56:26:064,33.452,-0.001,0.028,-0.132,6.304,-7.284,-6.338
16:56:26:065,33.453,-0.049,0.053,-0.102,6.761,-7.211,-4.848
16:56:26:066,33.454,0.216,0.118,-0.011,7.609,-7.486,-2.583
16:56:26:142,33.530,0.368,0.216,0.055,8.313,-7.584,-0.732
16:56:26:142,33.530,0.510,0.314,-0.131,9.556,-7.558,2.936
16:56:26:143,33.531,0.724,0.246,-0.099,11.324,-7.058,7.837
16:56:26:144,33.532,0.787,0.199,-0.223,13.021,-7.236,11.459
16:56:26:187,33.575,1.691,0.206,-0.340,16.580,-8.931,18.240
16:56:26:22,33.608,1.650,1.147,-0.578,19.250,-9.523,25.002
16:56:26:221,33.609,0.441,-1.105,-0.161,23.526,-1.822,35.647
16:56:26:222,33.610,0.386,-0.926,-0.014,21.850,-2.427,29.144
16:56:26:223,33.611,0.546,-0.605,-0.118,19.167,-3.801,18.310
16:56:26:297,33.685,0.545,-0.054,-0.261,16.201,-4.764,6.792
16:56:26:298,33.686,0.427,0.207,-0.272,14.014,-5.187,-0.936
16:56:26:299,33.687,-0.162,0.973,-0.345,10.114,-3.322,-12.010
16:56:26:343,33.731,-1.392,1.317,-0.414,7.601,-0.024,-19.048
16:56:26:378,33.766,-2.478,0.969,-0.291,4.430,5.694,-28.717
16:56:26:379,33.767,-2.796,-0.151,0.067,3.838,9.346,-34.187
16:56:26:38,33.768,-2.923,-1.120,1.004,3.598,12.233,-38.639
16:56:26:381,33.769,-1.523,-0.005,1.361,1.599,12.981,-37.184
16:56:26:404,33.792,1.636,2.041,-0.648,3.729,15.221,-32.829
16:56:26:405,33.793,-1.702,-0.778,0.519,5.121,15.935,-24.797
16:56:26:406,33.794,-1.096,0.423,-0.178,4.735,17.302,-22.231
16:56:26:407,33.795,-0.303,0.355,-0.235,4.951,18.390,-20.119
16:56:26:425,33.813,-0.001,-0.265,0.135,5.192,18.986,-18.370
16:56:26:425,33.813,-0.071,0.023,-0.112,5.155,19.160,-17.389
16:56:26:484,33.872,-0.081,0.017,-0.112,5.056,19.207,-16.175
16:56:26:484,33.872,-0.012,0.017,0.024,4.911,19.331,-15.304
16:56:26:484,33.872,-0.059,0.050,-0.015,4.827,19.345,-14.289
16:56:26:485,33.873,-0.019,0.020,-0.140,4.710,19.242,-13.413
16:56:26:5,33.888,-0.059,0.024,-0.168,4.640,19.104,-12.757
16:56:26:526,33.914,-0.055,0.038,-0.178,4.633,18.556,-11.655
16:56:26:552,33.940,-0.045,0.032,-0.140,4.714,17.920,-10.830
16:56:26:579,33.967,0.046,0.068,-0.161,4.896,16.920,-9.351
16:56:26:605,33.993,0.157,0.160,-0.044,5.222,16.357,-8.171
16:56:26:633,34.021,0.243,0.270,-0.087,6.161,15.761,-5.963
16:56:26:658,34.046,0.286,0.455,-0.267,7.547,15.550,-2.754
16:56:26:818,34.206,0.461,0.421,-0.243,8.938,15.296,-0.003
16:56:26:819,34.207,0.882,0.365,-0.707,11.806,14.712,5.102
16:56:26:958,34.346,1.778,0.333,-1.408,14.096,14.014,9.682
16:56:26:958,34.346,0.775,0.398,-1.150,17.573,13.791,19.355
16:56:26:959,34.347,0.861,0.087,-1.197,22.048,15.182,30.218
16:56:26:96,34.348,0.517,-0.295,-1.070,25.034,16.451,37.174
16:56:27:,34.388,-0.336,-0.948,0.410,30.487,20.516,45.239
16:56:27:036,34.424,0.590,-1.334,-0.802,32.085,22.822,46.490
16:56:27:037,34.425,0.506,-1.221,-0.523,28.392,25.247,43.646
16:56:27:037,34.425,-0.038,-1.014,-0.301,26.679,26.897,40.908
16:56:27:038,34.426,0.146,-0.920,-0.492,23.732,27.666,34.294
16:56:27:052,34.440,0.272,-0.820,-0.509,21.385,27.598,25.301
16:56:27:113,34.501,0.237,-0.505,-0.525,19.815,27.333,18.487
16:56:27:114,34.502,0.219,-0.096,-0.602,17.304,26.924,7.442
16:56:27:115,34.503,-0.005,0.539,-0.583,14.065,27.505,-3.735
16:56:27:191,34.579,-1.342,1.098,0.637,7.926,35.533,-20.738
16:56:27:192,34.580,-1.856,0.944,1.131,5.937,40.136,-26.458
16:56:27:193,34.581,-2.054,-0.432,2.209,5.044,47.185,-31.538
16:56:27:193,34.581,-0.917,-0.210,2.381,4.043,50.251,-32.191
16:56:27:238,34.626,-0.967,0.478,-0.469,4.261,52.735,-28.732
16:56:27:239,34.627,-0.782,-0.851,1.144,5.999,53.204,-20.813
16:56:27:262,34.650,-0.319,0.544,-0.066,5.785,55.025,-18.781
16:56:27:423,34.811,0.051,0.147,-0.129,5.904,56.226,-16.361
16:56:27:424,34.812,-0.010,-0.190,0.138,5.587,56.798,-15.077
16:56:27:629,35.017,-0.093,0.233,-0.170,5.653,56.964,-13.712
16:56:27:718,35.106,0.005,0.096,-0.121,5.617,57.028,-12.337
16:56:27:718,35.106,-0.180,0.096,-0.059,5.334,57.110,-11.251
16:56:27:719,35.107,-0.108,0.078,-0.104,5.186,56.865,-9.616
16:56:27:719,35.107,-0.024,0.088,-0.101,5.128,56.501,-8.479
16:56:27:735,35.123,-0.033,0.050,-0.116,5.278,56.017,-6.771
16:56:27:796,35.184,-0.082,0.045,-0.177,5.810,55.779,-5.013
16:56:27:797,35.185,0.004,0.047,-0.156,6.318,55.693,-3.718
16:56:27:798,35.186,0.051,0.094,-0.179,7.223,55.844,-1.626
16:56:27:799,35.187,0.070,0.207,-0.306,7.905,56.101,-0.018
16:56:27:815,35.203,0.218,0.231,-0.483,9.289,56.370,2.930
16:56:27:875,35.263,0.200,0.422,-0.711,11.107,57.132,7.123
16:56:27:876,35.264,0.346,0.284,-0.810,12.775,57.618,10.686
16:56:27:876,35.264,0.065,-0.228,-1.693,16.187,57.517,16.845
16:56:27:877,35.265,0.183,-0.019,-2.083,18.582,57.067,22.194
16:56:27:897,35.285,0.161,0.654,-1.439,24.116,58.439,33.595
16:56:27:898,35.286,-0.476,-0.237,-1.349,29.172,59.300,41.522
16:56:27:899,35.287,-0.187,-0.846,-1.029,34.992,62.726,51.190
16:56:28:,35.388,0.117,-1.231,-1.034,36.087,66.468,53.848
16:56:28:001,35.389,-0.021,-1.147,-0.302,32.048,69.268,51.892
16:56:28:268,35.656,-0.138,-1.004,-0.171,25.815,72.608,46.888
16:56:28:269,35.657,-0.210,-1.022,-0.289,22.676,73.339,41.877
16:56:28:27,35.658,-0.074,-0.825,-0.665,19.311,73.374,32.356
16:56:28:271,35.659,-0.119,-0.494,-0.512,16.485,72.630,21.541
16:56:28:347,35.735,-0.171,-0.133,-0.595,14.559,71.901,13.917
16:56:28:348,35.736,-0.149,0.448,-0.610,11.085,70.696,2.417
16:56:28:349,35.737,-0.195,0.793,-0.243,8.033,71.121,-4.877
16:56:28:838,36.226,-0.477,1.279,2.004,-0.452,76.904,-21.840
16:56:28:864,36.252,-0.515,0.117,2.892,-3.090,81.365,-29.182
16:56:28:898,36.286,0.751,-0.498,2.819,-3.851,83.442,-31.754
16:56:28:899,36.287,0.793,0.238,2.167,-4.205,84.073,-30.242
16:56:28:9,36.288,0.475,0.522,1.307,-3.350,84.469,-23.376
16:56:28:9,36.288,-0.223,0.570,0.546,-1.083,85.244,-18.804
16:56:28:925,36.313,0.182,-0.374,0.221,-0.675,86.672,-15.798
16:56:28:925,36.313,0.110,-0.077,0.119,-0.740,87.699,-14.027
16:56:28:926,36.314,0.001,0.096,-0.014,-0.622,88.012,-13.026
16:56:28:927,36.315,0.007,-0.009,-0.076,-0.621,88.059,-11.792
16:56:28:97,36.358,-0.021,0.030,-0.010,-0.764,88.163,-10.978
16:56:29:056,36.444,-0.083,0.041,-0.055,-1.046,88.203,-9.701
16:56:29:056,36.444,-0.075,0.025,-0.151,-1.256,87.853,-8.475
16:56:29:057,36.445,-0.098,0.061,-0.068,-1.295,87.452,-7.520
16:56:29:104,36.492,-0.113,0.073,-0.088,-1.039,86.078,-4.811
16:56:29:104,36.492,-0.059,0.115,-0.191,-0.549,85.010,-2.992
16:56:29:161,36.549,0.019,0.193,-0.215,-0.075,84.421,-1.622
16:56:29:162,36.550,0.137,0.189,-0.365,0.931,83.567,0.795
16:56:29:162,36.550,-0.008,0.341,-0.569,2.175,83.102,4.074
16:56:29:163,36.551,-0.026,0.361,-0.651,3.265,83.045,6.989
16:56:29:189,36.577,-0.146,0.315,-0.953,5.785,82.950,12.499
16:56:29:189,36.577,0.007,-0.493,-0.634,12.436,80.546,21.740
16:56:29:189,36.577,-0.058,0.051,-0.707,8.495,79.443,10.811
16:56:29:19,36.578,-0.113,0.836,-0.413,5.632,79.163,3.258
16:56:29:24,36.628,-0.114,1.220,0.199,0.889,81.302,-8.082
16:56:29:241,36.629,-0.291,1.650,1.967,-3.995,85.206,-18.788
16:56:29:242,36.630,0.586,0.398,3.229,-7.024,88.225,-23.998
16:56:29:242,36.630,0.830,-0.467,2.988,-7.868,91.812,-28.567
16:56:29:346,36.734,1.495,0.035,2.364,-8.021,93.244,-28.109
16:56:29:346,36.734,1.008,0.044,1.433,-6.320,95.930,-22.343
16:56:29:347,36.735,-0.059,0.846,0.377,-4.296,96.804,-17.070
16:56:29:347,36.735,0.368,-0.337,0.701,-3.727,97.039,-15.242
16:56:29:417,36.805,0.060,-0.172,-0.130,-3.883,98.029,-13.390
16:56:29:503,36.891,0.048,0.049,0.053,-3.662,98.375,-12.310
16:56:29:503,36.891,0.009,-0.038,-0.208,-3.663,98.829,-10.994
16:56:29:503,36.891,-0.029,0.031,-0.016,-3.797,99.210,-10.098
16:56:29:504,36.892,-0.045,0.055,-0.026,-4.032,99.560,-8.729
16:56:29:651,37.039,-0.041,0.030,-0.085,-4.131,99.326,-7.456
16:56:29:686,37.074,-0.057,0.084,-0.137,-4.284,99.093,-6.875
16:56:29:687,37.075,-0.087,0.096,-0.123,-4.253,98.598,-5.375
16:56:29:688,37.076,-0.066,0.118,-0.086,-4.123,98.245,-4.264
16:56:29:689,37.077,0.005,0.097,-0.151,-3.813,97.471,-2.474
16:56:29:738,37.126,-0.046,0.179,-0.235,-3.305,96.557,-0.433
16:56:29:739,37.127,0.052,0.147,-0.349,-2.789,95.937,1.191
16:56:29:74,37.128,0.018,0.226,-0.471,-1.786,95.246,4.360
16:56:29:766,37.154,-0.303,0.377,-0.826,1.128,94.795,12.319
16:56:29:766,37.154,-0.667,0.173,-1.855,3.231,94.165,16.719
16:56:29:766,37.154,-0.562,0.302,-2.047,7.336,91.913,25.937
16:56:29:766,37.154,-0.582,0.152,-1.006,12.012,90.927,37.205
16:56:29:817,37.205,-0.843,-0.093,-1.036,15.645,90.156,44.193
16:56:29:818,37.206,-0.065,-0.643,0.146,21.621,91.178,52.688
16:56:29:818,37.206,-0.361,-1.626,-1.199,25.821,91.632,53.811
16:56:29:819,37.207,0.042,-1.381,-0.254,22.922,90.860,50.830
16:56:29:897,37.285,-0.008,-1.236,-0.276,18.818,90.361,45.479
16:56:29:897,37.285,0.065,-1.020,-0.426,15.601,89.388,40.415
16:56:29:898,37.286,0.142,-0.883,-0.668,11.732,87.708,31.246
16:56:29:898,37.286,0.176,-0.517,-0.707,9.468,86.665,24.198
16:56:29:918,37.306,0.150,0.023,-0.662,6.187,85.143,13.115
16:56:29:918,37.306,0.188,0.616,-0.543,2.599,83.935,1.712
16:56:30:1,37.488,0.178,1.310,-0.006,0.148,84.538,-5.982
16:56:30:1,37.488,-0.051,1.509,1.822,-3.554,87.521,-16.916
16:56:30:203,37.591,0.286,0.899,2.377,-5.725,90.163,-23.170
16:56:30:229,37.617,0.919,-0.524,2.948,-7.111,94.351,-28.365
16:56:30:29,37.678,1.040,-0.469,2.824,-6.915,96.290,-28.983
16:56:30:29,37.678,-0.006,2.430,-1.309,-6.537,98.265,-23.969
16:56:30:291,37.679,-0.118,0.815,0.354,-4.271,97.522,-17.986
16:56:30:292,37.680,0.359,-0.493,0.331,-3.669,97.791,-16.201
16:56:30:308,37.696,0.054,-0.051,-0.234,-3.419,98.323,-14.291
16:56:30:362,37.750,-0.006,0.067,0.030,-3.466,98.771,-13.043
16:56:30:363,37.751,0.009,0.004,-0.104,-3.431,99.053,-11.730
16:56:30:446,37.834,-0.029,0.037,0.067,-3.472,99.278,-10.663
16:56:30:447,37.835,-0.019,0.061,-0.048,-3.435,99.276,-10.054
16:56:30:447,37.835,0.035,0.008,-0.101,-3.336,99.031,-9.294
16:56:30:788,38.176,-0.056,0.038,-0.043,-3.287,98.883,-8.750
16:56:30:789,38.177,-0.082,0.069,-0.073,-3.228,98.412,-7.754
16:56:30:79,38.178,-0.067,0.056,-0.083,-3.155,96.507,-6.919
16:56:30:791,38.179,0.028,0.075,-0.116,-2.868,95.340,-5.480
16:56:30:809,38.197,-0.044,0.212,-0.197,-2.479,92.807,-3.722
16:56:30:81,38.198,-0.038,0.224,-0.253,-2.070,91.919,-2.224
16:56:30:867,38.255,0.063,0.247,-0.445,-0.763,89.672,0.585
16:56:30:868,38.256,0.047,0.415,-0.586,0.291,89.076,3.018
16:56:30:868,38.256,0.045,0.275,-0.774,2.424,88.154,7.782
16:56:30:869,38.257,-0.254,0.252,-1.534,5.372,87.437,13.957
16:56:30:92,38.308,-0.626,0.022,-2.546,7.803,86.761,19.480
16:56:30:92,38.308,-0.477,0.814,-0.827,11.002,87.033,30.783
16:56:30:921,38.309,-0.866,0.129,-0.844,13.809,87.873,38.405
16:56:30:922,38.310,-0.733,-0.215,-1.179,18.344,89.617,48.436
16:56:30:939,38.327,-0.085,-0.988,0.071,24.671,93.467,52.429
16:56:31:125,38.513,-0.356,-1.230,-0.833,23.159,93.783,50.900
16:56:31:125,38.513,0.044,-1.241,0.062,21.734,95.913,47.184
16:56:31:209,38.597,-0.225,-1.015,-0.163,20.273,96.922,43.513
16:56:31:21,38.598,-0.349,-1.000,-0.436,17.374,97.425,35.954
16:56:31:21,38.598,-0.385,-0.810,-0.459,15.524,97.900,29.746
16:56:31:211,38.599,-0.507,-0.318,-0.405,12.741,98.755,19.505
16:56:31:253,38.641,-0.656,0.145,-0.426,10.882,99.190,12.280
16:56:31:287,38.675,-0.634,0.569,-0.195,7.727,100.277,1.084
16:56:31:288,38.676,-0.501,1.350,0.636,3.953,104.102,-10.076
16:56:31:289,38.677,0.427,1.770,1.365,1.295,108.137,-17.279
16:56:31:29,38.678,1.022,0.267,2.793,-3.016,114.232,-25.988
16:56:31:368,38.756,1.807,-0.565,2.155,-4.863,118.948,-31.165
16:56:31:368,38.756,2.557,0.269,1.225,-5.827,120.096,-32.056
16:56:31:446,38.834,0.593,-0.414,0.281,-2.301,124.617,-17.588
16:56:31:447,38.835,0.208,0.428,0.120,-2.688,125.889,-16.111
16:56:31:447,38.835,0.000,0.132,-0.068,-1.973,126.361,-14.069
16:56:31:448,38.836,0.032,-0.154,-0.369,-1.612,126.403,-12.400
16:56:31:515,38.903,-0.012,0.181,0.215,-1.666,126.555,-11.291
16:56:31:602,38.990,0.029,0.022,0.020,-1.639,126.429,-9.565
16:56:31:602,38.990,0.026,0.033,-0.117,-1.419,126.177,-8.407
16:56:31:603,38.991,0.011,0.072,-0.153,-1.119,125.875,-6.844
16:56:31:604,38.992,-0.066,0.053,-0.093,-0.813,125.787,-5.390
16:56:31:677,39.065,-0.058,0.032,-0.012,-0.526,125.880,-4.415
16:56:31:678,39.066,-0.017,0.046,-0.060,0.104,125.741,-2.952
16:56:31:76,39.148,-0.049,0.073,-0.172,0.596,125.548,-1.996
16:56:31:761,39.149,-0.049,0.093,-0.194,1.480,125.375,-0.319
16:56:31:762,39.150,-0.180,0.104,-0.259,2.225,125.362,1.092
16:56:31:762,39.150,-0.322,0.319,-0.311,3.605,125.784,3.968
16:56:31:778,39.166,-0.295,0.240,-0.510,5.525,126.488,7.810
16:56:31:838,39.226,-0.597,0.221,-0.505,7.165,127.032,10.969
16:56:31:839,39.227,-1.772,0.164,-0.581,10.080,127.337,17.016
16:56:31:84,39.228,-1.748,0.271,-0.542,12.577,127.494,22.446
16:56:31:841,39.229,-0.791,0.496,-0.606,18.361,128.697,32.552
16:56:31:864,39.252,-1.302,-0.160,-0.393,24.244,129.319,42.289
16:56:31:865,39.253,-1.101,-0.544,-0.202,27.452,131.147,46.941
16:56:31:866,39.254,-0.601,-0.776,-0.311,27.412,134.832,48.556
16:56:31:893,39.281,-0.367,-0.921,0.049,18.604,140.079,41.324
16:56:31:893,39.281,-0.418,-0.895,0.075,16.069,141.211,36.846
16:56:31:894,39.282,-0.700,-0.774,-0.098,13.309,142.384,28.216
16:56:31:894,39.282,-0.589,-0.490,0.020,10.904,143.180,18.200
16:56:31:918,39.306,-0.659,-0.188,0.100,9.272,143.795,11.039
16:56:31:918,39.306,-0.639,0.361,0.333,6.258,144.983,0.097
16:56:31:918,39.306,-0.259,0.910,0.576,3.687,146.458,-7.160
16:56:31:919,39.307,0.559,1.219,1.025,-1.044,150.266,-17.697
16:56:31:939,39.327,1.954,0.834,0.501,-6.237,155.045,-27.026
16:56:31:94,39.328,2.499,0.263,0.739,-9.347,158.116,-31.573
16:56:31:941,39.329,2.958,-0.798,0.300,-10.332,162.108,-34.783
16:56:31:96,39.348,1.881,0.361,-1.429,-10.125,163.652,-33.781
16:56:31:986,39.374,-1.350,1.300,-0.342,-6.486,168.167,-28.021
16:56:32:013,39.401,0.905,0.104,0.104,-4.963,169.897,-21.873
16:56:32:039,39.427,-0.116,-0.025,-0.095,-4.530,170.885,-20.281
16:56:32:065,39.453,0.214,0.419,-0.098,-4.731,172.149,-18.564
16:56:32:204,39.592,0.146,0.162,-0.045,-4.223,172.220,-17.417
16:56:32:205,39.593,-0.065,0.058,-0.105,-4.191,172.206,-16.173
16:56:32:206,39.594,0.041,0.102,-0.035,-4.397,172.361,-14.874
16:56:32:573,39.961,0.039,0.058,0.044,-4.419,172.498,-14.070
16:56:32:574,39.962,0.039,-0.010,-0.012,-4.174,172.298,-12.931
16:56:32:575,39.963,-0.072,0.034,-0.088,-4.024,171.849,-12.099
16:56:32:576,39.964,-0.051,0.028,-0.049,-3.812,171.183,-10.680
16:56:32:783,40.171,-0.091,0.026,0.005,-3.664,170.851,-9.610
16:56:32:784,40.172,-0.013,0.105,-0.022,-3.468,170.317,-7.647
16:56:32:785,40.173,-0.062,0.153,-0.180,-2.774,169.586,-5.590
16:56:32:81,40.198,-0.366,0.216,-0.247,-0.769,168.503,-1.268
16:56:32:81,40.198,-0.570,0.449,-0.095,0.329,168.529,1.205
16:56:32:812,40.200,-0.690,0.355,-0.188,2.492,168.795,6.060
16:56:32:812,40.200,-1.195,0.104,0.159,5.477,168.840,12.478
16:56:32:836,40.224,-2.095,0.052,0.212,7.576,168.308,17.909
16:56:32:836,40.224,-1.200,0.830,0.388,11.407,168.532,28.512
16:56:32:837,40.225,-1.410,-0.010,0.502,15.058,169.178,35.868
16:56:32:838,40.226,-1.462,-0.042,0.560,19.626,171.098,45.962
16:56:32:862,40.250,0.519,-1.342,-0.320,23.424,173.697,49.206
16:56:32:863,40.251,-1.036,-1.310,0.406,19.985,176.076,47.523
16:56:32:864,40.252,-0.174,-1.127,0.095,16.361,178.802,43.155
16:56:32:864,40.252,-0.077,-0.877,0.284,14.316,179.404,38.905
16:56:32:888,40.276,-0.511,-0.916,0.291,12.114,179.249,30.089
16:56:32:889,40.277,-0.454,-0.589,0.218,10.901,178.778,23.372
16:56:32:89,40.278,-0.427,-0.287,0.266,8.643,177.996,12.519
16:56:32:891,40.279,-0.402,0.197,0.326,5.657,177.130,1.222
16:56:32:907,40.295,-0.255,0.610,0.285,2.916,177.418,-6.333
16:56:32:933,40.321,0.666,1.361,0.261,-2.016,-179.633,-17.573
16:56:32:968,40.356,1.740,1.590,-0.456,-5.470,-176.393,-24.721
16:56:32:968,40.356,2.954,0.155,-0.645,-10.085,-171.197,-33.214
16:56:32:969,40.357,2.809,-0.996,-1.314,-10.757,-166.804,-37.861
16:56:32:97,40.358,1.582,-0.162,-1.864,-11.118,-165.205,-37.134
16:56:33:046,40.434,-1.355,2.021,0.194,-7.187,-160.625,-30.538
16:56:33:046,40.434,2.064,-0.870,-0.541,-5.124,-160.494,-24.681
16:56:33:047,40.435,0.010,-0.482,-0.436,-4.034,-158.447,-21.474
16:56:33:048,40.436,0.215,-0.347,0.003,-3.648,-157.306,-19.889
16:56:33:066,40.454,0.026,-0.336,-0.418,-2.915,-156.754,-17.544
16:56:33:067,40.455,-0.212,-0.068,-0.165,-2.945,-156.340,-15.909
16:56:33:118,40.506,0.017,0.106,-0.119,-3.043,-156.056,-14.829
16:56:33:119,40.507,0.068,0.092,0.016,-3.033,-155.817,-13.222
16:56:33:142,40.530,0.043,0.200,-0.030,-2.771,-155.975,-12.139
16:56:33:197,40.585,-0.089,0.015,-0.033,-2.371,-156.491,-10.540
16:56:33:197,40.585,-0.108,0.057,-0.058,-1.983,-156.918,-8.934
16:56:33:22,40.608,-0.031,0.084,-0.008,-1.661,-157.056,-7.863
16:56:33:275,40.663,0.009,0.078,0.003,-1.064,-157.328,-6.146
16:56:33:276,40.664,-0.076,0.065,0.004,-0.544,-157.635,-4.956
16:56:33:299,40.687,-0.171,0.120,-0.009,0.445,-158.104,-2.920
16:56:33:404,40.792,-0.337,0.185,-0.006,1.293,-158.543,-1.234
16:56:33:623,41.011,-0.411,0.412,0.218,2.960,-158.560,2.166
16:56:33:624,41.012,-0.647,0.372,0.223,5.461,-158.605,6.820
16:56:33:626,41.014,-1.007,0.167,0.796,7.636,-158.928,10.661
16:56:33:626,41.014,-1.118,0.563,1.499,10.733,-159.572,18.719
16:56:33:642,41.030,-0.861,0.782,0.782,13.573,-158.830,25.951
16:56:33:702,41.090,-0.452,-0.060,1.159,18.971,-156.994,37.122
16:56:33:703,41.091,-0.146,-0.941,0.153,23.558,-152.742,45.814
16:56:33:729,41.117,0.121,-0.947,0.248,18.586,-143.336,41.241
16:56:33:729,41.117,0.135,-0.942,0.372,16.341,-141.895,34.423
16:56:33:73,41.118,-0.054,-0.802,0.594,14.358,-141.434,25.420
16:56:33:73,41.118,-0.064,-0.644,0.508,13.120,-141.256,18.667
16:56:33:751,41.139,0.076,-0.172,0.599,10.679,-141.150,7.918
16:56:33:751,41.140,0.098,0.127,0.636,8.633,-140.951,0.664
16:56:33:752,41.140,0.345,0.716,0.330,4.579,-138.532,-10.020
16:56:33:771,41.159,0.835,1.199,-0.138,1.514,-135.280,-17.155
16:56:33:798,41.186,1.528,0.923,-1.762,-2.964,-129.180,-27.042
16:56:33:911,41.299,1.627,0.037,-2.254,-6.618,-124.276,-34.606
16:56:33:912,41.300,1.204,-0.753,-2.721,-7.312,-121.582,-37.439
16:56:33:913,41.301,-0.309,-0.079,-2.578,-7.526,-119.463,-37.140
16:56:33:914,41.302,-0.079,0.810,-1.074,-4.853,-116.848,-33.097
16:56:33:929,41.317,1.165,-0.784,-1.152,-3.552,-116.426,-25.617
16:56:33:956,41.344,-0.305,-0.464,-0.289,-2.950,-114.863,-22.898
16:56:33:981,41.369,0.013,-0.057,-0.278,-3.059,-113.937,-21.642
16:56:34:008,41.396,-0.142,-0.161,-0.241,-2.620,-113.576,-19.855
16:56:34:093,41.481,0.014,0.130,-0.055,-2.729,-113.499,-18.931
16:56:34:093,41.481,-0.025,0.012,-0.067,-2.702,-113.528,-17.576
16:56:34:094,41.482,0.089,0.078,0.085,-2.879,-113.487,-16.099
16:56:34:113,41.501,0.077,-0.013,-0.018,-2.844,-113.540,-14.963
16:56:34:169,41.557,0.028,0.041,-0.084,-2.829,-113.681,-13.107
16:56:34:169,41.557,-0.018,0.127,-0.015,-2.650,-113.879,-11.900
16:56:34:279,41.667,-0.083,0.150,-0.059,-2.183,-114.433,-10.101
16:56:34:279,41.667,-0.091,0.113,0.014,-1.781,-114.802,-8.861
16:56:34:28,41.668,-0.073,0.129,0.032,-1.103,-115.153,-6.892
16:56:34:325,41.713,-0.165,0.202,0.294,0.511,-115.731,-2.492
16:56:34:326,41.714,-0.102,0.383,0.455,2.105,-115.595,1.406
16:56:34:437,41.825,-0.129,0.405,0.711,3.617,-115.490,4.756
16:56:34:437,41.825,-0.063,0.144,1.319,6.632,-115.872,10.967
16:56:34:438,41.826,0.218,0.630,1.534,9.672,-117.035,19.421
16:56:34:439,41.827,-0.047,0.853,1.057,12.803,-116.868,26.525
16:56:34:595,41.983,0.250,-0.133,1.314,17.986,-117.307,36.808
16:56:34:596,41.984,0.474,-0.379,0.663,20.887,-116.077,42.759
16:56:34:597,41.985,-0.074,-0.543,0.102,24.029,-114.703,45.189
16:56:34:598,41.986,-0.093,-1.230,0.627,21.276,-113.321,43.239
16:56:34:675,42.063,0.117,-1.012,0.161,17.490,-111.667,39.049
16:56:34:675,42.063,0.082,-0.911,0.445,13.768,-111.763,32.129
16:56:34:675,42.063,-0.058,-0.840,0.485,11.826,-112.184,26.332
16:56:34:676,42.064,-0.093,-0.511,0.599,8.936,-112.918,16.369
16:56:34:691,42.079,-0.013,-0.109,0.435,6.794,-113.065,9.274
16:56:34:722,42.110,0.010,0.314,0.401,3.240,-113.195,-1.882
16:56:34:723,42.111,0.188,1.173,-0.179,-1.250,-111.386,-13.307
16:56:34:724,42.112,0.225,1.215,-1.124,-4.376,-108.476,-20.751
16:56:34:743,42.131,0.482,1.261,-2.381,-9.506,-103.379,-30.285
16:56:34:884,42.272,0.202,-0.802,-3.202,-10.598,-100.163,-34.567
16:56:34:884,42.272,-0.392,-0.935,-3.234,-11.384,-97.459,-37.132
16:56:34:885,42.273,0.319,2.094,0.852,-9.769,-96.113,-32.710
16:56:34:886,42.274,0.448,-0.804,-1.557,-9.089,-98.645,-27.617
16:56:34:904,42.292,0.015,-0.031,0.201,-6.811,-97.403,-24.015
16:56:34:905,42.293,-0.138,0.186,-0.446,-6.267,-96.767,-22.442
16:56:34:956,42.344,-0.062,-0.152,-0.163,-5.864,-95.800,-20.803
16:56:34:957,42.345,-0.025,0.044,-0.091,-5.829,-95.383,-19.440
16:56:35:009,42.397,-0.020,0.024,-0.064,-5.855,-95.315,-18.609
16:56:35:064,42.452,0.072,0.106,-0.075,-6.057,-95.011,-17.311
16:56:35:064,42.452,0.027,-0.010,-0.059,-6.033,-95.219,-16.454
16:56:35:065,42.453,0.014,0.056,-0.081,-6.100,-95.862,-15.059
16:56:35:303,42.691,0.022,0.066,-0.033,-6.042,-96.454,-14.002
16:56:35:304,42.692,-0.024,0.070,-0.028,-5.986,-97.343,-12.480
16:56:35:305,42.693,-0.010,0.073,0.013,-5.706,-98.128,-10.998
16:56:35:306,42.694,-0.017,0.109,0.013,-5.481,-98.520,-9.860
16:56:35:408,42.796,-0.022,0.208,0.020,-4.928,-99.146,-7.839
16:56:35:409,42.797,-0.106,0.186,0.195,-4.325,-99.872,-6.235
16:56:35:41,42.798,-0.154,0.272,0.331,-3.128,-100.731,-3.060
16:56:35:411,42.799,-0.117,0.402,0.449,-2.105,-100.929,-0.241
16:56:35:461,42.849,-0.015,0.346,0.706,0.100,-101.362,5.060
16:56:35:461,42.849,0.207,0.227,1.323,3.005,-102.402,12.023
16:56:35:462,42.850,0.194,0.689,1.378,5.066,-103.706,18.063
16:56:35:463,42.851,0.062,0.564,0.928,8.388,-104.044,29.191
16:56:35:566,42.954,0.542,0.083,1.182,11.078,-104.662,36.461
16:56:35:566,42.954,0.431,-0.227,0.106,15.497,-103.156,45.816
16:56:35:567,42.955,0.227,-1.110,1.115,19.286,-102.523,47.321
16:56:35:568,42.956,0.085,-1.473,0.997,16.852,-102.472,44.651
16:56:35:584,42.972,0.138,-1.146,0.165,14.194,-102.058,39.497
16:56:35:645,43.033,0.196,-0.998,0.388,12.085,-102.739,34.792
16:56:35:645,43.033,0.029,-0.867,0.440,9.695,-104.393,26.000
16:56:35:646,43.034,-0.083,-0.500,0.633,7.261,-106.508,15.495
16:56:35:647,43.035,-0.077,-0.170,0.501,5.206,-107.463,8.039
16:56:35:723,43.111,-0.134,0.451,0.402,1.337,-108.407,-3.478
16:56:35:723,43.111,0.071,1.293,-0.477,-2.089,-107.599,-11.130
16:56:35:724,43.112,0.155,1.548,-1.714,-7.262,-103.734,-22.398
16:56:35:725,43.113,-0.041,0.374,-2.839,-11.475,-98.829,-32.027
16:56:35:769,43.157,-0.157,-0.498,-3.037,-12.755,-95.860,-36.223
16:56:35:77,43.158,-0.774,-0.864,-2.608,-12.789,-92.838,-37.195
16:56:35:792,43.180,0.427,1.594,0.642,-11.614,-91.205,-35.054
16:56:35:878,43.266,-0.101,-1.428,-2.062,-9.033,-91.134,-28.365
16:56:35:878,43.266,-0.226,-0.481,0.266,-6.777,-88.872,-25.050
16:56:35:879,43.267,-0.226,-0.411,-0.603,-5.965,-88.580,-22.723
16:56:35:928,43.316,-0.095,-0.136,-0.125,-5.742,-87.896,-21.037
16:56:35:928,43.316,-0.044,0.044,-0.074,-5.676,-87.651,-20.035
16:56:36:009,43.397,-0.057,-0.035,0.001,-5.674,-87.345,-18.872
16:56:36:01,43.398,-0.020,0.033,-0.179,-5.808,-87.086,-18.061
16:56:36:01,43.398,0.021,0.013,-0.188,-5.943,-87.149,-16.984
16:56:36:294,43.682,-0.003,0.068,-0.012,-6.037,-87.476,-16.265
16:56:36:381,43.769,0.032,0.023,-0.045,-6.282,-87.928,-15.105
16:56:36:381,43.769,0.055,0.043,-0.083,-6.301,-88.449,-13.831
16:56:36:381,43.769,-0.002,0.041,-0.021,-6.210,-88.900,-12.921
16:56:36:382,43.770,-0.064,0.111,0.007,-5.988,-89.566,-11.474
16:56:36:398,43.786,0.025,0.232,0.011,-5.762,-90.030,-10.325
16:56:36:511,43.899,-0.082,0.168,0.171,-5.012,-91.088,-8.147
16:56:36:511,43.899,-0.041,0.436,0.291,-3.805,-91.999,-5.116
16:56:36:512,43.900,-0.177,0.446,0.377,-2.623,-92.563,-2.376
16:56:36:513,43.901,0.037,0.472,0.646,-0.237,-93.451,2.739
16:56:36:539,43.927,0.486,0.482,1.146,1.732,-94.360,7.048
16:56:36:54,43.928,0.375,0.323,2.002,5.350,-96.321,16.333
16:56:36:54,43.928,0.306,0.446,0.605,8.690,-96.829,27.659
16:56:36:541,43.929,0.730,0.027,1.337,10.936,-97.335,34.443
16:56:36:608,43.996,0.509,-0.227,0.271,14.791,-95.888,42.788
16:56:36:636,44.024,0.302,-1.412,1.110,18.599,-95.205,44.190
16:56:36:638,44.026,0.073,-1.237,0.813,17.166,-96.419,41.544
16:56:36:669,44.057,-0.032,-1.197,0.190,16.179,-96.904,38.624
16:56:36:67,44.058,-0.048,-0.970,0.523,13.245,-98.674,31.638
16:56:36:67,44.058,-0.174,-0.794,0.577,10.295,-100.657,22.816
16:56:36:671,44.059,-0.177,-0.437,0.599,8.196,-101.839,16.223
16:56:36:689,44.077,-0.190,0.005,0.556,4.951,-103.106,5.621
16:56:36:69,44.078,-0.158,0.663,0.371,2.445,-103.664,-1.662
16:56:36:748,44.136,-0.123,1.026,-0.028,-1.573,-102.347,-12.736
16:56:36:748,44.136,0.155,1.352,-1.567,-5.584,-98.200,-23.908
16:56:36:749,44.137,0.171,1.135,-2.409,-8.149,-94.635,-30.951
16:56:36:75,44.138,-0.221,-0.722,-3.119,-9.845,-89.508,-38.273
16:56:36:765,44.153,-1.031,-0.951,-2.792,-10.534,-87.995,-40.173
16:56:36:825,44.213,0.070,0.094,-1.185,-9.488,-85.779,-37.943
16:56:36:826,44.214,-0.683,0.224,-1.501,-7.956,-85.121,-33.826
16:56:36:827,44.215,-0.118,0.512,-0.657,-4.696,-84.753,-27.379
16:56:36:827,44.215,-0.341,-0.313,-0.462,-4.327,-83.569,-24.452
16:56:36:902,44.290,-0.057,-0.081,-0.266,-4.299,-83.155,-23.178
16:56:36:903,44.291,-0.074,0.057,-0.127,-3.542,-82.940,-21.406
16:56:36:903,44.291,-0.076,-0.053,0.021,-3.357,-82.921,-20.461
16:56:36:981,44.369,-0.027,0.009,-0.088,-3.176,-82.731,-19.033
16:56:36:981,44.369,-0.056,0.001,-0.148,-2.979,-82.647,-17.644
16:56:36:982,44.370,-0.100,-0.008,-0.066,-2.697,-82.798,-16.769
16:56:37:028,44.416,-0.047,0.058,-0.050,-2.360,-83.067,-15.476
16:56:37:186,44.574,0.014,0.075,-0.095,-2.113,-83.360,-14.591
16:56:37:431,44.819,-0.027,0.123,-0.035,-1.636,-83.900,-13.179
16:56:37:432,44.820,-0.051,0.140,0.029,-1.038,-84.518,-11.631
16:56:37:433,44.821,-0.031,0.206,0.072,-0.573,-84.861,-10.430
16:56:37:433,44.821,-0.066,0.185,0.200,0.398,-85.428,-8.146
16:56:37:587,44.975,0.165,0.495,0.254,1.290,-85.671,-6.128
16:56:37:588,44.976,0.001,0.416,0.388,3.235,-86.105,-2.047
16:56:37:589,44.977,0.409,0.453,0.949,5.089,-86.661,1.272
16:56:37:589,44.977,1.058,0.511,1.890,8.208,-87.649,8.151
16:56:37:661,45.049,0.849,0.741,0.845,11.367,-88.128,18.188
16:56:37:661,45.049,0.574,0.155,0.787,14.645,-87.478,25.180
16:56:38:288,45.676,0.711,0.001,0.608,18.857,-86.596,34.841
16:56:38:532,45.920,-0.414,-1.273,-0.285,22.195,-84.285,39.773
16:56:38:533,45.921,0.447,-1.180,0.659,23.873,-81.130,40.997
16:56:38:534,45.922,0.125,-1.153,0.192,21.503,-77.401,37.853
16:56:38:535,45.923,0.182,-1.018,0.177,19.991,-75.388,34.700
16:56:38:611,45.999,0.458,-0.891,0.274,17.664,-73.352,27.819
16:56:38:612,46.000,0.554,-0.731,0.435,16.265,-72.003,22.073
16:56:38:613,46.001,0.613,-0.370,0.221,14.645,-69.163,12.351
16:56:38:716,46.104,0.906,0.492,-0.374,12.072,-63.725,-5.668
16:56:38:717,46.105,0.569,0.948,-1.053,9.632,-59.041,-16.327
16:56:38:717,46.105,-0.121,1.033,-2.141,7.635,-54.667,-22.989
16:56:38:718,46.106,-1.378,0.539,-1.468,4.790,-47.477,-31.566
16:56:38:874,46.262,-1.936,-0.470,-2.132,2.805,-43.776,-35.881
16:56:38:874,46.262,-2.340,-0.362,-1.150,1.496,-40.771,-39.835
16:56:38:875,46.263,-1.051,0.089,-0.229,0.343,-40.763,-38.366
16:56:38:876,46.264,1.069,1.997,0.657,2.097,-39.812,-34.210
16:56:38:893,46.281,-0.982,0.611,-1.162,1.828,-40.975,-26.912
16:56:39:103,46.491,0.301,-0.180,-0.195,1.361,-39.275,-24.946
16:56:39:293,46.681,-0.274,0.283,-0.581,1.860,-37.501,-22.625
16:56:39:294,46.682,0.102,-0.013,-0.016,3.015,-37.213,-21.186
16:56:39:295,46.683,-0.162,0.311,-0.257,3.150,-36.722,-19.853
16:56:39:372,46.760,-1.821,1.189,-0.555,4.930,-6.791,-22.028
16:56:39:373,46.761,-2.036,1.013,-0.250,2.158,-3.035,-28.340
16:56:39:374,46.762,-2.871,-0.344,-0.012,-0.149,2.251,-35.853
16:56:39:399,46.787,-2.664,-0.794,1.044,-0.296,4.257,-38.395
16:56:39:4,46.788,-1.716,0.106,1.126,-1.928,4.557,-37.073
16:56:39:4,46.788,-1.582,0.340,0.571,-0.369,5.367,-33.267
16:56:39:401,46.789,-0.508,0.000,-0.428,1.072,4.133,-25.481
16:56:39:53,46.918,-0.633,-0.175,-0.080,0.989,5.367,-21.402
16:56:39:53,46.918,-0.304,0.207,0.050,1.367,5.892,-19.976
16:56:39:531,46.919,-0.086,0.016,0.036,1.514,6.590,-18.355
16:56:39:532,46.920,0.076,-0.003,-0.006,1.463,6.758,-17.370
16:56:39:548,46.936,-0.081,0.075,-0.129,0.871,6.763,-14.904
16:56:39:581,46.969,-0.026,-0.024,-0.063,0.741,6.632,-14.212
16:56:39:581,46.969,-0.009,0.014,-0.118,0.545,6.212,-13.153
16:56:39:581,46.969,-0.004,0.037,-0.145,0.471,5.827,-12.414
16:56:39:608,46.996,0.009,0.058,0.002,0.499,3.863,-9.938
16:56:39:609,46.997,1.679,0.245,-0.634,9.799,-3.152,16.687
16:56:39:61,46.998,0.881,-0.195,-0.800,19.946,-2.953,42.867
16:56:39:611,46.999,0.644,-1.277,-0.133,26.444,-0.418,46.463
16:56:39:627,47.015,0.985,-1.256,-0.272,24.779,-0.579,44.776
16:56:39:708,47.096,0.163,-1.133,-0.024,22.388,0.929,40.607
16:56:39:708,47.097,0.359,-0.862,-0.242,20.907,1.771,36.712
16:56:39:758,47.146,0.427,-0.833,-0.248,18.321,2.120,29.105
16:56:39:837,47.225,0.485,-0.559,-0.223,17.037,2.153,22.980
16:56:39:924,47.312,0.446,-0.238,-0.280,14.756,2.162,12.809
16:56:39:924,47.312,0.414,0.255,-0.388,12.286,2.077,2.020
16:56:39:925,47.313,0.153,0.710,-0.397,10.201,3.181,-5.238
16:56:39:942,47.330,-1.843,1.092,-0.056,4.932,11.757,-22.219
16:56:40:002,47.390,-2.409,0.274,0.434,3.059,18.412,-29.791
16:56:40:003,47.391,-2.282,-0.699,1.623,2.486,22.950,-32.920
16:56:40:004,47.392,-1.723,-0.079,1.397,1.694,24.134,-32.095
16:56:40:004,47.392,1.171,2.233,-0.564,2.053,25.501,-26.221
16:56:40:082,47.470,-1.587,-0.825,1.131,3.797,25.311,-21.380
16:56:40:082,47.470,-0.004,-0.497,0.054,3.750,27.196,-18.566
16:56:40:083,47.471,-0.123,0.340,0.028,3.228,28.432,-16.279
16:56:40:084,47.472,-0.025,-0.434,0.295,3.571,28.769,-14.915
16:56:40:229,47.617,0.139,-0.145,0.090,3.641,28.801,-13.367
16:56:40:582,47.970,-0.096,0.111,-0.127,3.423,28.991,-12.357
16:56:40:582,47.970,-0.012,0.019,-0.097,3.530,28.638,-10.894
16:56:40:583,47.971,0.079,0.074,-0.049,3.600,28.098,-9.847
16:56:40:584,47.972,0.011,0.066,-0.066,3.757,27.347,-8.206
16:56:40:633,48.021,-0.004,-0.010,-0.105,4.063,26.936,-6.643
16:56:40:633,48.021,-0.022,0.026,-0.152,4.383,26.673,-5.611
16:56:40:634,48.022,0.118,0.032,-0.041,5.156,26.170,-4.027
16:56:40:635,48.023,0.148,0.040,-0.070,5.746,26.058,-2.904
16:56:40:658,48.046,0.074,0.074,-0.083,6.699,26.201,-1.005
16:56:40:659,48.047,0.199,0.111,-0.249,7.867,26.346,1.181
16:56:40:66,48.048,0.274,0.205,-0.266,8.774,26.635,3.108
16:56:40:66,48.048,0.401,0.253,-0.321,10.491,27.476,6.808
16:56:41:078,48.466,0.471,0.187,-0.769,12.001,28.091,9.816
16:56:41:079,48.467,0.947,0.124,-1.232,14.791,28.360,15.587
16:56:41:08,48.468,0.600,0.520,-1.400,18.383,29.052,24.174
16:56:41:081,48.469,0.658,0.715,-0.998,22.206,30.310,30.959
16:56:41:181,48.569,0.220,-0.138,-1.028,28.391,31.478,41.075
16:56:41:182,48.570,0.197,-0.931,-0.151,31.742,33.606,46.500
16:56:41:182,48.570,0.058,-0.535,0.005,33.976,37.333,49.334
16:56:41:253,48.641,0.215,-1.138,-0.508,30.689,40.367,47.568
16:56:41:314,48.702,0.028,-0.997,-0.366,26.069,43.654,43.171
16:56:41:315,48.703,0.102,-0.991,-0.557,22.627,45.535,36.751
16:56:41:316,48.704,-1.153,0.378,2.099,-2.268,60.606,-27.673
16:56:41:338,48.726,0.305,-0.308,2.473,-5.929,65.497,-32.031
16:56:41:339,48.727,0.781,0.685,-1.450,-2.230,69.518,-27.933
16:56:41:34,48.728,-0.513,-0.355,2.641,-1.172,72.306,-19.594
16:56:41:472,48.860,-0.424,1.006,-0.038,-1.460,73.677,-17.451
16:56:41:472,48.860,-0.421,0.265,0.094,-1.087,75.047,-15.005
16:56:41:473,48.861,0.329,-0.298,0.106,-0.533,75.114,-13.576
16:56:41:551,48.939,0.052,0.075,-0.008,-0.209,75.144,-10.283
16:56:41:551,48.939,-0.095,0.128,-0.004,-0.437,75.230,-9.165
16:56:41:552,48.940,-0.085,0.104,-0.043,-0.277,74.895,-7.602
16:56:41:553,48.941,0.019,0.325,-0.590,3.921,73.543,5.751
16:56:41:577,48.965,0.089,0.305,-0.765,5.913,73.771,10.321
16:56:41:578,48.966,-0.138,0.184,-1.218,8.918,73.788,16.315
16:56:41:579,48.967,-0.449,0.213,-2.148,11.114,73.305,21.609
16:56:41:579,48.967,0.002,0.673,-0.919,16.019,73.158,31.487
16:56:41:604,48.992,-0.399,0.000,-1.247,20.109,72.449,37.919
16:56:41:604,48.992,0.016,-0.950,-0.567,30.122,73.037,48.747
16:56:41:605,48.993,-0.057,-1.462,-0.956,27.930,73.250,47.115
16:56:41:606,48.994,0.070,-1.247,-0.236,23.495,73.749,43.255
16:56:41:684,49.072,-0.054,-0.911,-0.568,19.609,73.489,39.200
16:56:41:684,49.072,-0.008,-0.805,-0.529,14.514,73.197,31.262
16:56:41:685,49.073,0.002,-0.496,-0.656,11.747,72.784,24.791
16:56:41:686,49.074,0.008,-0.185,-0.664,8.091,72.039,14.114
16:56:41:735,49.123,-0.014,0.346,-0.553,4.214,71.459,3.131
16:56:41:736,49.124,-0.042,0.808,-0.387,1.425,71.962,-4.185
16:56:41:737,49.125,-0.175,1.308,0.812,-3.386,74.744,-14.859
16:56:41:738,49.126,-0.088,1.353,1.646,-6.902,76.751,-21.621
16:56:41:761,49.149,-0.034,0.067,2.592,-9.832,80.801,-29.758
16:56:41:761,49.149,0.679,-0.530,2.847,-10.383,83.981,-32.551
16:56:41:762,49.150,0.827,-0.033,2.200,-10.092,85.233,-30.517
16:56:41:763,49.151,0.719,0.638,1.571,-7.537,85.970,-22.590
16:56:41:91,49.298,-0.161,0.777,0.221,-4.850,86.976,-18.244
16:56:41:946,49.334,0.249,-0.529,0.907,-4.051,87.756,-15.415
16:56:41:946,49.334,0.235,-0.337,-0.114,-3.752,88.779,-13.107
16:56:41:946,49.334,0.068,0.166,0.218,-3.847,89.389,-11.828
16:56:41:947,49.335,0.156,-0.017,-0.149,-3.982,89.684,-10.450
16:56:42:024,49.412,-0.078,0.052,0.015,-4.345,89.906,-9.527
16:56:42:025,49.413,-0.080,0.089,-0.008,-4.590,89.858,-8.272
16:56:42:025,49.413,-0.102,0.065,-0.113,-4.557,89.454,-7.412
16:56:42:026,49.414,0.050,0.067,-0.088,-4.496,88.805,-5.875
16:56:42:1,49.488,0.040,0.084,-0.102,-4.329,88.114,-3.171
16:56:42:101,49.489,-0.039,0.077,-0.095,-4.192,87.952,-1.344
16:56:42:147,49.535,-0.021,0.124,-0.117,-3.991,87.810,-0.013
16:56:42:286,49.674,-0.004,0.116,-0.356,-3.368,87.178,2.377
16:56:42:286,49.674,0.045,0.285,-0.480,-2.724,86.764,4.476
16:56:42:287,49.675,0.042,0.326,-0.544,-1.467,86.614,8.574
16:56:42:288,49.676,-0.095,0.290,-0.754,0.672,86.253,13.771
16:56:42:365,49.753,-0.443,0.158,-1.961,3.034,85.405,17.995
16:56:42:365,49.753,-0.400,0.333,-2.055,7.473,82.642,26.472
16:56:42:366,49.754,-0.238,0.582,-1.026,10.933,81.635,33.682
16:56:42:367,49.755,-0.626,0.068,-1.525,16.442,81.070,44.038
16:56:42:443,49.831,-0.640,-0.569,-1.110,22.231,81.823,51.870
16:56:42:444,49.832,-0.035,-0.885,-0.576,26.302,82.151,53.070
16:56:42:445,49.833,0.091,-1.254,-0.702,24.265,81.557,50.388
16:56:42:446,49.834,0.199,-1.188,-0.193,22.253,81.196,47.647
16:56:42:469,49.857,0.070,-0.965,-0.308,17.486,79.922,41.522
16:56:42:47,49.858,0.144,-0.855,-0.423,13.337,78.265,33.573
16:56:42:471,49.859,0.124,-0.648,-0.486,10.852,77.130,27.321
16:56:42:472,49.860,0.112,-0.171,-0.525,7.445,75.115,16.982
16:56:42:521,49.909,0.297,0.100,-0.253,5.120,73.664,10.117
16:56:42:522,49.910,0.340,0.457,-0.100,0.675,73.068,-0.193
16:56:42:523,49.911,0.121,1.039,0.496,-3.811,74.996,-10.815
16:56:42:539,49.927,0.123,0.517,2.241,-10.262,78.006,-26.052
16:56:42:594,49.982,0.327,-0.276,2.305,-12.115,78.856,-30.089
16:56:42:595,49.983,0.411,-0.484,2.289,-13.068,80.109,-32.706
16:56:42:676,50.064,-0.621,-0.448,1.339,-12.705,81.307,-31.132
16:56:42:677,50.065,0.573,2.220,-2.529,-10.314,81.297,-26.572
16:56:42:677,50.065,-0.440,-0.228,1.439,-7.391,81.738,-19.022
16:56:42:754,50.142,-0.112,-0.445,-0.227,-7.054,82.204,-17.171
16:56:42:755,50.143,0.127,0.358,0.433,-6.564,83.186,-15.009
16:56:42:778,50.166,0.096,-0.079,-0.007,-6.223,83.542,-13.831
16:56:42:779,50.167,-0.002,0.049,-0.027,-6.088,83.879,-12.332
16:56:42:861,50.249,0.018,0.070,0.082,-5.999,83.734,-10.999
16:56:42:861,50.249,0.027,-0.018,-0.031,-5.990,83.585,-10.216
16:56:42:862,50.250,0.101,-0.026,-0.097,-5.971,83.048,-9.190
16:56:42:995,50.383,0.014,0.049,-0.076,-6.023,82.594,-8.457
16:56:42:995,50.383,-0.059,0.023,-0.067,-5.991,81.788,-7.261
16:56:42:996,50.384,-0.032,0.065,-0.054,-5.780,80.856,-6.023
16:56:43:094,50.482,0.053,0.132,-0.129,-4.904,78.991,-3.766
16:56:43:094,50.482,0.033,0.171,-0.171,-4.405,78.291,-2.622
16:56:43:121,50.509,0.080,0.151,-0.298,-3.317,77.430,-0.417
16:56:43:122,50.510,0.105,0.317,-0.441,-2.408,76.929,1.531
16:56:43:148,50.536,0.206,0.349,-0.543,-0.508,76.577,5.426
16:56:43:15,50.538,0.092,0.298,-0.760,2.173,76.411,10.493
16:56:43:15,50.538,-0.280,0.322,-1.946,4.347,76.016,14.760
16:56:43:169,50.557,-0.421,0.322,-1.490,7.752,75.283,23.538
16:56:43:224,50.612,-0.168,0.447,-0.754,10.369,75.584,30.686
16:56:43:225,50.613,-0.464,-0.016,-0.940,15.387,75.403,40.651
16:56:43:39,50.778,-0.168,-0.607,-0.216,20.758,76.300,48.516
16:56:43:39,50.778,0.224,-0.934,0.313,25.337,77.418,50.117
16:56:43:39,50.778,0.152,-1.463,-0.800,23.176,77.623,47.946
16:56:43:391,50.779,-0.072,-0.983,-0.176,21.561,77.435,45.523
16:56:43:406,50.794,-0.164,-0.798,-0.215,17.923,77.037,40.103
16:56:43:493,50.881,0.011,-0.936,-0.509,14.243,76.663,31.410
16:56:43:494,50.882,0.055,-0.674,-0.739,12.266,75.732,24.322
16:56:43:495,50.883,0.048,-0.022,-0.534,9.335,74.575,12.924
16:56:43:496,50.884,-0.036,0.314,-0.548,7.158,73.872,5.086
16:56:43:544,50.932,0.017,0.966,-0.352,3.140,74.751,-6.407
16:56:43:544,50.932,-0.103,1.307,1.067,0.306,77.706,-13.593
16:56:43:545,50.933,-0.272,1.075,1.860,-3.881,83.550,-23.467
16:56:43:566,50.954,0.031,0.087,2.882,-6.403,90.276,-30.340
16:56:43:621,51.009,0.604,-0.875,2.843,-6.148,93.384,-32.560
16:56:43:622,51.010,0.718,0.407,2.348,-6.445,94.744,-31.816
16:56:43:623,51.011,0.474,1.192,0.081,-4.661,95.387,-26.899
16:56:43:7,51.088,0.246,0.792,1.001,-3.133,94.982,-20.661
16:56:43:701,51.089,0.487,-0.331,0.332,-2.367,96.908,-18.370
16:56:43:701,51.089,-0.109,0.219,0.100,-2.804,98.285,-16.909
16:56:43:721,51.109,0.051,0.092,0.110,-2.269,98.859,-14.735
16:56:43:772,51.160,0.023,0.062,-0.133,-2.042,98.822,-13.774
16:56:43:804,51.192,0.102,0.062,0.048,-1.955,99.066,-12.365
16:56:43:804,51.192,0.115,0.033,-0.034,-1.943,98.956,-11.235
16:56:43:853,51.241,0.053,0.089,-0.019,-1.875,98.799,-10.560
16:56:43:881,51.269,0.087,0.092,-0.043,-1.701,98.155,-9.484
16:56:43:882,51.270,-0.014,0.109,-0.083,-1.582,97.566,-8.845
16:56:43:933,51.321,-0.040,0.010,-0.078,-1.063,96.613,-7.833
16:56:43:934,51.322,-0.049,-0.091,-0.183,-0.564,96.021,-7.034
16:56:43:957,51.345,-0.090,0.074,-0.158,0.356,95.636,-5.601
16:56:44:041,51.429,0.079,0.122,-0.254,1.627,95.585,-3.648
16:56:44:042,51.430,0.083,0.199,-0.280,2.690,95.668,-2.071
16:56:44:042,51.430,-0.011,0.319,-0.515,4.567,96.234,1.053
16:56:44:061,51.449,-0.165,0.401,-0.556,6.090,97.057,3.727
16:56:44:141,51.529,-0.458,0.289,-0.913,9.002,98.009,8.741
16:56:44:309,51.697,-1.409,0.104,-1.530,12.273,98.123,15.443
16:56:44:309,51.697,-1.126,0.501,-0.874,14.880,99.161,21.678
16:56:44:31,51.698,-0.976,-0.016,-0.753,20.667,102.154,32.288
16:56:44:311,51.699,-0.891,-0.262,-0.695,23.922,104.740,39.021
16:56:44:386,51.774,0.146,-1.081,-0.121,27.863,110.197,45.987
16:56:44:387,51.775,-0.790,-1.266,-0.331,26.815,113.797,46.877
16:56:44:388,51.776,-0.528,-1.007,-0.157,21.665,119.023,43.915
16:56:44:388,51.776,-0.459,-0.893,0.038,18.486,122.531,39.225
16:56:44:44,51.828,-0.648,-0.912,-0.065,16.757,124.063,34.419
16:56:44:44,51.828,-0.689,-0.661,-0.073,14.673,125.637,25.504
16:56:44:441,51.829,-0.671,-0.386,0.078,13.219,126.626,18.906
16:56:44:442,51.830,-0.740,-0.109,0.096,10.860,127.666,8.399
16:56:44:458,51.846,-0.641,0.590,0.179,7.471,128.851,-2.189
16:56:44:458,51.846,-0.316,0.945,0.413,4.567,130.629,-9.228
16:56:44:596,51.984,0.797,1.416,1.374,-0.344,135.894,-19.425
16:56:44:596,51.984,1.645,0.854,1.293,-3.074,139.876,-25.711
16:56:44:597,51.985,2.088,0.040,1.574,-5.941,145.230,-32.932
16:56:44:598,51.986,2.708,-0.754,0.800,-6.920,148.260,-35.351
16:56:44:833,52.221,2.312,-0.101,0.050,-7.175,149.043,-34.038
16:56:44:833,52.221,-0.646,1.737,-0.617,-4.730,151.594,-28.617
16:56:44:834,52.222,0.926,0.628,0.383,-3.523,151.567,-23.823
16:56:44:835,52.223,-0.062,-0.289,0.171,-3.484,153.914,-20.949
16:56:45:2,52.588,0.278,0.172,0.084,-3.488,154.989,-19.697
16:56:45:2,52.588,0.282,0.053,-0.005,-3.176,155.733,-18.082
16:56:45:201,52.589,-0.059,-0.010,-0.156,-3.112,155.743,-16.813
16:56:45:202,52.590,0.105,0.081,0.016,-3.237,155.815,-15.969
16:56:45:225,52.613,0.046,0.109,-0.021,-3.398,155.941,-14.685
16:56:45:225,52.613,0.045,0.037,-0.023,-3.460,155.836,-13.809
16:56:45:226,52.614,-0.004,0.040,-0.051,-3.596,155.315,-12.404
16:56:45:273,52.661,-0.071,0.067,0.039,-3.585,154.571,-10.895
16:56:45:274,52.662,-0.106,0.084,0.033,-3.403,154.026,-9.823
16:56:45:358,52.746,-0.061,0.067,-0.077,-2.853,153.413,-8.095
16:56:45:359,52.747,-0.050,0.122,-0.102,-2.361,153.141,-6.915
16:56:45:359,52.747,-0.128,0.188,-0.162,-1.430,152.805,-4.868
16:56:45:36,52.748,-0.184,0.172,-0.318,-0.632,152.633,-3.198
16:56:45:436,52.824,-0.396,0.417,-0.145,0.807,152.928,0.052
16:56:45:436,52.824,-0.489,0.336,-0.303,2.820,153.701,4.442
16:56:45:437,52.825,-0.961,0.311,-0.237,4.636,153.924,8.075
16:56:45:438,52.826,-0.250,0.008,-0.056,-91.962,-17.709,95.311
16:56:45:49,52.878,-0.783,0.703,0.069,10.066,153.354,21.230
16:56:45:49,52.878,-1.110,0.152,0.145,15.193,153.463,31.062
16:56:45:49,52.878,-0.628,-0.471,0.157,19.518,154.109,40.324
16:56:45:491,52.879,-0.173,-1.135,-0.217,22.404,157.039,43.854
16:56:45:507,52.895,-0.904,-1.096,0.158,21.612,159.729,44.210
16:56:45:621,53.009,-0.608,-1.244,0.071,19.480,162.304,42.576
16:56:45:621,53.009,-0.249,-0.854,0.268,16.320,163.975,38.650
16:56:45:622,53.010,-0.450,-0.866,0.139,13.393,164.511,31.875
16:56:45:623,53.011,-0.487,-0.777,0.117,11.778,164.505,26.051
16:56:45:646,53.034,-0.520,-0.440,0.126,9.232,164.241,16.055
16:56:45:646,53.034,-0.529,0.050,0.230,7.279,164.311,8.892
16:56:45:648,53.036,-0.341,0.415,0.283,3.923,164.991,-2.020
16:56:45:648,53.036,0.199,1.166,0.445,1.169,166.797,-9.350
16:56:45:664,53.052,1.666,1.475,0.507,-3.600,171.965,-20.255
16:56:45:7,53.088,2.240,0.704,-0.116,-8.072,178.372,-30.232
16:56:45:701,53.089,2.717,-0.208,-0.092,-9.941,-177.535,-35.043
16:56:45:701,53.089,2.780,-0.941,-1.049,-10.855,-173.618,-37.375
16:56:45:702,53.090,-0.439,0.727,-0.152,-10.183,-172.411,-35.678
16:56:45:751,53.139,2.182,-0.239,-1.176,-7.745,-170.866,-29.445
16:56:45:751,53.139,0.485,0.415,0.019,-5.638,-169.910,-23.583
16:56:45:752,53.140,0.496,-0.435,-0.309,-5.410,-168.904,-21.662
16:56:45:753,53.141,0.125,-0.070,-0.054,-5.612,-167.999,-19.761
16:56:45:804,53.192,0.061,-0.121,-0.178,-5.141,-167.890,-18.674
16:56:45:805,53.193,-0.178,-0.104,-0.142,-5.011,-167.816,-17.247
16:56:45:805,53.193,0.118,0.056,-0.073,-5.178,-167.596,-16.274
16:56:45:806,53.194,0.071,0.045,-0.008,-5.312,-167.575,-14.956
16:56:45:82,53.208,0.025,0.020,-0.040,-5.298,-167.899,-13.682
16:56:45:848,53.236,0.030,0.012,-0.065,-5.284,-168.208,-12.847
16:56:45:876,53.264,0.018,0.051,-0.029,-5.229,-168.789,-11.594
16:56:45:876,53.264,0.032,0.092,-0.012,-5.119,-169.304,-10.699
16:56:45:899,53.287,-0.053,0.068,-0.042,-4.885,-170.307,-9.239
16:56:46:381,53.769,-0.148,0.129,-0.079,-4.531,-171.343,-7.641
16:56:46:382,53.770,-0.161,0.145,-0.092,-4.163,-171.965,-6.397
16:56:46:382,53.770,-0.260,0.270,-0.012,-3.269,-172.709,-4.000
16:56:46:383,53.771,-0.338,0.373,0.048,-2.435,-173.011,-1.849
16:56:46:611,53.999,-0.514,0.348,-0.029,-0.497,-173.546,2.318
16:56:46:612,54.000,-1.113,0.359,0.398,2.199,-174.437,7.715
16:56:46:643,54.031,-1.921,0.329,0.524,4.402,-175.289,12.480
16:56:46:644,54.032,-0.900,0.760,0.621,7.195,-175.785,22.418
16:56:46:645,54.033,-1.019,0.209,0.864,9.260,-174.654,29.815
16:56:46:646,54.034,-0.812,-0.174,0.837,12.556,-172.963,39.692
16:56:46:74,54.128,0.848,-1.184,-0.394,15.023,-170.314,45.249
16:56:46:793,54.181,-0.940,-1.350,0.565,18.334,-166.389,46.462
16:56:46:979,54.367,-0.410,-1.054,0.475,15.280,-164.793,42.796
16:56:46:98,54.368,0.056,-1.073,0.151,14.777,-162.860,39.551
16:56:47:16,54.548,-0.209,-0.831,0.560,13.520,-161.946,32.427
16:56:47:221,54.609,-0.303,-0.780,0.514,12.767,-161.719,26.401
16:56:47:221,54.609,-0.243,-0.402,0.540,11.751,-161.482,16.101
16:56:47:222,54.610,-0.212,0.068,0.660,9.937,-161.448,5.177
16:56:47:223,54.611,0.005,0.426,0.626,8.019,-161.040,-2.070
16:56:47:353,54.741,0.589,1.052,0.381,4.354,-158.057,-12.641
16:56:47:353,54.741,1.374,1.171,0.109,1.628,-154.185,-19.346
16:56:47:353,54.741,1.819,0.461,-1.262,-1.709,-146.787,-28.473
16:56:47:354,54.742,2.198,0.116,-1.401,-3.800,-142.517,-33.240
16:56:47:379,54.767,1.884,-0.876,-2.035,-5.040,-137.654,-37.152
16:56:47:379,54.767,0.418,-0.182,-2.045,-5.880,-135.438,-36.120
16:56:47:38,54.768,-1.116,1.536,0.987,-2.923,-133.073,-32.899
16:56:47:381,54.769,-0.427,-0.591,0.025,-2.293,-129.943,-23.400
16:56:47:431,54.819,0.424,0.383,-0.096,-1.970,-128.585,-20.955
16:56:47:432,54.820,-0.149,-0.391,-0.304,-1.610,-127.679,-18.921
16:56:47:433,54.821,-0.075,0.121,-0.024,-1.738,-127.337,-17.840
16:56:47:434,54.822,0.026,0.097,-0.181,-1.607,-127.217,-16.405
16:56:47:458,54.846,0.062,0.080,-0.071,-1.801,-127.106,-15.437
16:56:47:459,54.847,0.008,0.031,0.019,-1.992,-128.308,-12.738
16:56:47:459,54.847,0.043,0.114,0.006,-2.037,-128.869,-11.844
16:56:47:46,54.848,-0.207,0.378,0.329,1.834,-130.647,-1.297
16:56:47:478,54.866,-0.335,0.414,0.416,3.001,-130.438,1.436
16:56:47:509,54.897,-0.141,-1.318,0.369,21.115,-121.542,45.961
16:56:47:509,54.897,0.130,-0.981,0.179,17.205,-119.343,40.898
16:56:47:51,54.898,-0.004,-1.086,0.474,14.901,-119.253,35.855
16:56:47:536,54.924,-0.170,-0.832,0.678,12.284,-120.126,26.130
16:56:47:536,54.924,-0.126,-0.332,0.480,9.906,-121.150,15.236
16:56:47:537,54.925,-0.095,0.050,0.490,8.193,-121.643,7.653
16:56:47:538,54.926,-0.093,0.612,0.434,5.252,-122.693,-4.006
16:56:47:668,55.056,0.220,1.331,-0.372,1.568,-120.993,-15.231
16:56:47:669,55.057,0.455,1.242,-1.471,-1.050,-118.215,-22.272
16:56:47:669,55.057,0.927,0.496,-2.382,-4.205,-113.130,-31.716
16:56:47:896,55.284,0.200,-1.010,-2.898,-4.404,-105.614,-39.305
16:56:48:008,55.396,1.074,-0.043,-1.056,-5.056,-104.691,-37.996
16:56:48:009,55.397,-0.350,0.154,-1.113,-4.240,-104.575,-32.421
16:56:48:01,55.398,0.051,0.896,-1.481,-1.748,-104.482,-25.936
16:56:48:053,55.441,-0.029,-0.071,-0.147,-1.713,-102.558,-22.406
16:56:48:088,55.476,0.118,0.151,-0.163,-1.441,-102.031,-21.270
16:56:48:088,55.476,0.011,-0.002,-0.047,-1.356,-101.842,-19.884
16:56:48:089,55.477,0.034,0.004,-0.143,-1.399,-101.797,-18.516
16:56:48:089,55.477,0.005,-0.009,-0.077,-1.578,-101.797,-17.611
16:56:48:14,55.528,0.039,0.051,-0.035,-1.924,-101.761,-16.365
16:56:48:141,55.529,0.013,0.051,-0.041,-2.052,-101.725,-15.383
16:56:48:142,55.530,0.058,0.065,0.007,-2.125,-102.019,-13.818
16:56:48:143,55.531,0.030,0.066,-0.032,-2.109,-102.391,-12.729
16:56:48:192,55.580,-0.054,0.151,0.021,-1.960,-103.112,-11.060
16:56:48:193,55.581,-0.094,0.186,0.022,-1.623,-103.733,-9.247
16:56:48:217,55.605,-0.159,0.392,0.350,0.433,-104.876,-2.479
16:56:48:217,55.605,-0.006,0.432,0.559,2.284,-105.178,2.228
16:56:48:218,55.606,0.202,0.355,1.523,5.201,-106.242,8.693
16:56:48:272,55.660,0.172,0.361,2.215,7.280,-107.549,14.804
16:56:48:273,55.661,0.182,0.766,0.808,10.982,-108.442,25.228
16:56:48:274,55.662,0.223,0.166,1.137,13.872,-108.645,32.030
16:56:48:274,55.662,0.231,-0.218,1.458,17.861,-107.784,40.918
16:56:48:288,55.676,-0.025,-0.839,-0.105,22.434,-106.532,43.659
16:56:48:323,55.711,0.102,-1.111,1.060,20.615,-106.212,41.769
16:56:48:324,55.712,0.066,-1.038,0.048,17.562,-104.981,37.232
16:56:48:325,55.713,0.138,-0.998,0.416,15.102,-105.077,32.712
16:56:48:326,55.714,0.094,-0.759,0.401,12.017,-106.004,24.273
16:56:48:346,55.734,-0.051,-0.531,0.515,10.360,-107.024,17.672
16:56:48:347,55.735,-0.033,-0.103,0.442,7.525,-108.619,7.098
16:56:48:348,55.736,-0.060,0.226,0.295,3.965,-109.947,-3.709
16:56:48:397,55.785,-0.059,0.672,0.193,0.963,-109.808,-10.880
16:56:48:398,55.786,0.169,1.318,-0.786,-4.127,-106.708,-21.458
16:56:48:85,56.238,0.172,1.114,-1.820,-7.502,-103.470,-28.460
16:56:48:85,56.238,0.061,0.365,-2.553,-11.140,-97.848,-38.066
16:56:48:851,56.239,-0.493,-1.568,-3.375,-11.750,-94.052,-43.493
16:56:48:852,56.240,-0.760,-1.102,-2.705,-12.791,-93.482,-43.765
16:56:48:928,56.316,0.551,1.150,0.717,-9.968,-92.541,-38.633
16:56:48:929,56.317,-0.465,1.447,0.130,-8.859,-94.010,-33.126
16:56:48:929,56.317,-0.003,0.656,-1.284,-5.495,-91.947,-27.338
16:56:48:93,56.318,-0.453,-0.759,-0.047,-4.398,-91.541,-25.452
16:56:49:007,56.395,-0.177,0.266,-0.470,-4.129,-90.198,-23.400
16:56:49:008,56.396,0.022,0.153,-0.284,-3.760,-89.741,-21.875
16:56:49:008,56.396,-0.018,-0.021,-0.099,-3.717,-89.716,-21.126
16:56:49:009,56.397,0.017,-0.001,-0.021,-3.896,-89.562,-19.964
16:56:49:06,56.448,-0.006,-0.013,-0.064,-4.018,-89.506,-19.189
16:56:49:06,56.448,-0.026,-0.001,-0.048,-4.246,-89.725,-18.091
16:56:49:06,56.448,0.023,0.077,-0.091,-4.537,-90.158,-16.820
16:56:49:085,56.473,0.049,0.048,-0.075,-4.555,-91.059,-14.479
16:56:49:086,56.474,-0.021,0.109,-0.032,-4.246,-92.633,-11.767
16:56:49:087,56.475,-0.014,0.187,0.047,-3.940,-93.507,-10.526
16:56:49:112,56.500,-0.131,0.177,0.111,-3.243,-94.366,-8.269
16:56:49:112,56.500,0.003,0.372,0.260,-2.206,-95.178,-5.197
16:56:49:113,56.501,-0.047,0.398,0.304,-1.182,-95.520,-2.494
16:56:49:114,56.502,0.066,0.405,0.516,1.016,-96.320,2.449
16:56:49:163,56.551,0.334,0.483,1.442,3.078,-97.339,6.602
16:56:49:164,56.552,0.324,0.429,1.736,6.453,-99.650,15.201
16:56:49:165,56.553,0.121,0.789,0.706,10.203,-100.657,25.697
16:56:49:166,56.554,0.678,0.152,1.316,12.831,-101.648,32.439
16:56:49:321,56.709,0.598,-0.313,0.865,17.221,-101.053,40.952
16:56:49:322,56.710,-0.077,-0.757,-0.115,21.581,-100.554,43.148
16:56:49:339,56.727,0.152,-0.970,0.246,13.749,-100.966,32.076
16:56:49:375,56.763,-0.045,-0.838,0.389,10.517,-102.464,23.812
16:56:49:375,56.763,-0.128,-0.679,0.599,8.547,-103.556,17.278
16:56:49:375,56.763,-0.123,-0.182,0.533,5.268,-104.707,6.733
16:56:49:376,56.764,-0.126,0.217,0.413,2.835,-105.093,-0.573
16:56:49:39,56.778,-0.067,0.786,0.060,-1.542,-104.260,-11.754
16:56:49:446,56.834,-0.110,1.172,-1.286,-5.998,-100.442,-23.005
16:56:49:446,56.834,0.148,1.073,-2.306,-8.993,-97.248,-29.925
16:56:49:469,56.857,-0.273,-0.021,-2.870,-11.271,-92.378,-38.421
16:56:49:522,56.910,-0.700,-1.311,-3.008,-11.377,-90.126,-41.423
16:56:49:551,56.939,-0.707,-0.678,-2.249,-12.199,-88.703,-40.382
16:56:49:551,56.939,-0.065,2.457,1.881,-9.250,-88.462,-35.978
16:56:49:603,56.991,-0.473,-1.039,-1.931,-6.906,-89.035,-30.234
16:56:49:604,56.992,0.259,-0.270,-0.105,-5.481,-87.480,-26.543
16:56:49:627,57.015,-0.209,-0.319,-0.484,-5.075,-86.965,-24.882
16:56:49:71,57.098,-0.137,-0.204,-0.187,-4.590,-86.215,-23.415
16:56:49:71,57.098,-0.037,-0.045,0.019,-4.377,-86.050,-22.524
16:56:49:764,57.152,-0.026,-0.032,-0.079,-4.211,-86.130,-21.366
16:56:49:765,57.153,-0.014,-0.038,-0.123,-4.210,-86.077,-20.195
16:56:49:766,57.154,0.017,0.030,-0.080,-4.270,-86.093,-19.447
16:56:49:842,57.230,-0.008,0.033,-0.081,-4.359,-86.412,-18.270
16:56:49:842,57.230,0.017,0.066,-0.075,-4.393,-86.710,-17.432
16:56:49:917,57.305,0.033,0.038,-0.092,-4.329,-87.165,-16.107
16:56:50:077,57.465,0.092,0.064,-0.085,-4.158,-87.547,-15.184
16:56:50:078,57.466,0.018,0.099,-0.109,-3.809,-88.359,-13.725
16:56:50:345,57.733,-0.076,0.175,0.064,-3.231,-89.528,-12.098
16:56:50:345,57.733,-0.131,0.205,0.144,-2.675,-90.168,-10.738
16:56:50:346,57.734,0.004,0.402,0.196,-1.589,-90.740,-7.981
16:56:50:347,57.735,-0.062,0.462,0.324,0.097,-91.414,-4.026
16:56:50:37,57.758,0.049,0.491,0.544,1.678,-92.104,-0.744
16:56:50:371,57.759,0.389,0.498,1.429,4.758,-93.525,5.519
16:56:50:372,57.760,0.566,0.330,2.133,7.021,-94.465,11.435
16:56:50:373,57.761,0.417,0.842,0.586,10.275,-94.753,22.408
16:56:50:4,57.788,0.735,0.172,1.093,12.854,-94.399,29.321
16:56:50:4,57.788,0.700,-0.221,1.199,16.556,-92.795,38.423
16:56:50:4,57.788,-0.281,-0.836,-0.670,21.955,-90.333,42.228
16:56:50:401,57.789,0.467,-1.223,1.004,20.841,-90.210,40.679
16:56:50:423,57.811,0.050,-1.177,0.190,19.521,-88.778,36.503
16:56:50:424,57.812,0.221,-0.986,0.260,18.007,-88.487,32.512
16:56:50:426,57.814,0.235,-0.841,0.422,15.395,-88.585,24.539
16:56:50:426,57.814,0.248,-0.582,0.476,12.856,-88.725,14.922
16:56:50:442,57.830,0.286,-0.215,0.294,11.033,-88.714,7.944
16:56:50:503,57.891,0.298,0.290,0.309,8.183,-88.757,-3.200
16:56:50:504,57.892,0.247,0.661,0.082,5.887,-87.777,-10.566
16:56:50:505,57.893,0.013,1.218,-0.872,2.667,-82.828,-21.273
16:56:50:506,57.894,-0.080,1.048,-2.050,1.105,-78.023,-28.147
16:56:50:74,58.128,-0.484,0.176,-2.582,0.539,-69.639,-36.874
16:56:50:74,58.128,-1.719,-1.013,-2.478,2.007,-63.752,-41.624
16:56:50:741,58.129,-1.710,-0.904,-2.100,0.160,-62.910,-41.786
16:56:50:742,58.130,1.736,0.758,-0.246,0.797,-61.261,-36.677
16:56:50:755,58.143,-0.505,-1.155,-1.220,0.846,-63.464,-31.297
16:56:50:835,58.223,-0.038,0.849,-1.133,1.987,-61.510,-26.878
16:56:50:922,58.310,0.147,0.079,-0.320,2.084,-60.368,-24.228
16:56:50:923,58.311,-0.325,-0.293,-0.280,2.213,-59.946,-22.841
16:56:50:924,58.312,0.079,0.158,-0.119,2.631,-59.716,-21.161
16:56:50:924,58.312,-0.111,0.027,-0.036,2.754,-59.624,-20.096
16:56:51:203,58.591,-0.001,0.110,-0.150,2.597,-59.806,-18.706
16:56:51:285,58.673,-0.010,0.044,-0.133,2.637,-60.465,-17.381
16:56:51:286,58.674,-0.011,0.034,-0.042,2.703,-61.016,-16.463
16:56:51:517,58.905,0.032,0.009,-0.083,2.955,-61.660,-15.130
16:56:51:545,58.933,0.057,-0.029,-0.095,3.303,-61.861,-14.250
16:56:51:599,58.987,0.036,-0.036,-0.116,3.877,-62.004,-12.940
16:56:51:6,58.988,0.000,0.021,-0.060,4.268,-62.101,-12.085
16:56:51:702,59.090,0.003,0.058,-0.032,4.980,-62.007,-10.791
16:56:51:728,59.116,0.008,0.116,0.058,5.808,-61.798,-9.312
16:56:51:832,59.220,0.138,0.242,0.122,6.469,-61.609,-8.060
16:56:51:99,59.378,0.182,0.339,0.205,7.811,-61.087,-5.392
16:56:52:079,59.467,0.372,0.426,0.271,9.045,-60.594,-2.977
16:56:52:08,59.468,0.677,0.435,0.302,11.508,-60.262,1.675
16:56:52:08,59.468,1.658,0.364,0.909,14.705,-60.658,8.027
16:56:52:08,59.468,1.541,0.425,0.375,17.025,-60.585,13.883
16:56:52:099,59.487,0.804,0.250,0.402,22.323,-58.703,24.293
16:56:52:099,59.487,1.018,0.006,-0.023,26.049,-57.626,30.783
16:56:52:183,59.571,0.759,-0.801,0.250,29.908,-53.126,38.927
16:56:52:184,59.572,0.780,-1.070,0.301,31.135,-49.876,41.071
16:56:52:184,59.572,0.533,-1.178,0.216,28.317,-44.491,39.856
16:56:52:185,59.573,0.273,-1.000,-0.161,25.486,-40.332,36.621
16:56:52:235,59.623,0.494,-0.873,-0.198,23.555,-38.614,32.818
16:56:52:236,59.624,0.552,-0.576,-0.227,20.013,-36.328,19.126
16:56:52:237,59.625,0.588,-0.304,-0.384,17.662,-35.484,9.220
16:56:52:238,59.626,-0.128,1.081,-0.915,8.285,-30.142,-17.544
16:56:52:287,59.675,1.259,1.240,0.265,1.798,-15.233,-31.967
16:56:52:288,59.676,-0.819,-0.386,-0.686,3.651,-13.975,-24.770
16:56:52:289,59.677,-0.230,-0.593,0.201,3.550,-12.424,-22.544
16:56:52:29,59.678,-0.356,0.307,-0.378,3.580,-10.440,-20.291
16:56:52:41,59.798,0.093,0.005,-0.181,3.747,-10.149,-15.886
16:56:52:49,59.878,-0.120,0.079,-0.115,3.571,-10.077,-14.494
16:56:52:628,60.016,0.135,0.120,-0.078,5.947,-12.781,-5.673
16:56:52:629,60.017,1.635,0.277,-0.344,14.888,-13.528,11.535
16:56:52:63,60.018,1.042,0.600,-0.585,17.416,-14.667,17.327
16:56:52:631,60.019,0.823,0.236,-0.360,22.587,-14.908,27.059
16:56:52:655,60.043,0.996,-0.222,-0.885,27.822,-15.133,35.847
16:56:52:655,60.043,0.074,-0.687,0.147,30.878,-13.651,40.813
16:56:52:656,60.044,0.750,-1.231,0.078,33.007,-11.559,43.159
16:56:52:657,60.045,0.356,-1.322,0.013,30.752,-10.140,41.748
16:56:52:672,60.060,0.182,-1.077,-0.114,26.761,-8.968,38.084
16:56:52:708,60.096,0.330,-0.865,-0.116,22.594,-9.455,31.639
16:56:52:708,60.096,0.464,-0.835,-0.004,20.417,-10.530,26.074
16:56:52:71,60.098,2.234,-0.594,-1.101,-166.580,116.237,177.588
16:56:52:734,60.122,0.414,0.342,-0.122,10.643,-14.411,-0.933
16:56:52:734,60.122,0.059,0.980,-0.272,6.075,-13.208,-11.197
16:56:52:735,60.123,-0.538,1.325,-0.435,3.149,-10.223,-17.844
16:56:52:736,60.124,-1.752,1.078,-0.212,-0.659,-4.043,-27.397
16:56:52:752,60.140,-2.689,-0.191,-0.143,-1.865,0.751,-32.680
16:56:52:785,60.173,-3.041,-1.027,0.898,-1.307,6.475,-36.848
16:56:52:786,60.174,-1.512,-0.060,0.938,-1.832,8.784,-35.013
16:56:52:787,60.175,1.552,2.475,-0.083,0.047,10.960,-31.489
16:56:52:788,60.176,-1.185,-0.458,0.353,2.571,10.810,-23.833
