Time,Second,AccelerationX,AccelerationY,AccelerationZ,EulerAnglesX,EulerAnglesY,EulerAnglesZ
11:18:06:499,0.000,0.031,0.011,-0.018,1.234,-23.746,-15.446
11:18:06:5,0.001,0.022,0.002,-0.060,1.854,-20.714,-15.495
11:18:06:5,0.001,0.011,0.002,-0.069,2.229,-18.807,-15.567
11:18:06:501,0.002,0.006,-0.004,-0.079,2.691,-16.182,-15.799
11:18:06:515,0.016,-0.016,-0.014,-0.076,3.001,-13.643,-16.140
11:18:06:541,0.043,-0.036,-0.012,-0.094,3.207,-11.927,-16.407
11:18:06:568,0.069,-0.076,-0.014,-0.112,3.694,-9.422,-16.914
11:18:06:594,0.095,-0.126,-0.034,-0.097,3.994,-7.831,-17.218
11:18:06:65,0.151,-0.122,-0.038,-0.063,4.268,-5.981,-17.649
11:18:06:65,0.151,-0.103,-0.026,-0.073,4.229,-5.069,-18.116
11:18:06:672,0.174,-0.063,-0.013,0.004,3.882,-5.069,-18.603
11:18:06:786,0.287,-0.031,-0.001,-0.008,2.839,-6.014,-19.574
11:18:06:787,0.288,-0.022,-0.010,-0.040,1.907,-7.012,-20.210
11:18:06:788,0.289,0.017,0.043,-0.036,0.461,-7.587,-20.841
11:18:06:789,0.290,-0.009,0.040,0.009,-0.579,-6.751,-21.169
11:18:06:83,0.332,-0.051,-0.055,-0.058,-1.715,-4.237,-21.266
11:18:06:885,0.387,-0.048,-0.059,-0.056,-2.086,-2.829,-21.044
11:18:06:886,0.388,-0.038,-0.048,-0.034,-2.577,-0.597,-20.524
11:18:06:909,0.410,-0.022,-0.023,-0.029,-3.008,1.446,-19.996
11:18:06:994,0.496,0.132,0.030,0.199,-3.199,2.109,-20.008
11:18:06:994,0.496,-0.039,-0.005,0.160,-3.444,2.286,-20.267
11:18:06:995,0.496,-0.009,-0.007,0.053,-3.731,1.653,-20.425
11:18:07:067,0.569,0.026,-0.010,0.055,-3.826,0.651,-20.381
11:18:07:098,0.599,-0.022,0.004,0.020,-3.144,0.583,-20.134
11:18:07:099,0.600,-0.064,0.010,-0.008,-2.480,0.863,-19.941
11:18:07:1,0.601,-0.082,-0.007,-0.026,-1.549,0.908,-19.632
11:18:07:177,0.678,-0.070,-0.005,-0.018,-1.017,0.724,-19.442
11:18:07:178,0.679,-0.075,-0.001,-0.024,-0.433,-0.021,-18.969
11:18:07:178,0.680,-0.065,0.002,-0.017,-0.178,-0.541,-18.576
11:18:07:198,0.699,-0.046,-0.002,-0.028,0.100,-1.699,-18.060
11:18:07:224,0.725,-0.025,-0.009,-0.035,0.306,-2.881,-17.610
11:18:07:279,0.780,-0.020,0.000,-0.049,0.381,-3.637,-17.305
11:18:07:28,0.781,-0.002,0.015,-0.045,0.398,-4.690,-16.789
11:18:07:33,0.831,0.022,0.018,-0.045,0.396,-5.265,-16.432
11:18:07:387,0.888,0.027,0.013,-0.037,0.422,-5.766,-15.874
11:18:07:388,0.889,0.025,-0.007,-0.028,0.515,-5.823,-15.264
11:18:07:388,0.890,0.027,-0.022,-0.030,0.607,-5.727,-14.817
11:18:07:408,0.909,0.051,-0.018,-0.038,0.634,-5.619,-14.220
11:18:07:463,0.964,0.052,-0.011,-0.039,0.573,-5.643,-13.925
11:18:07:464,0.965,0.055,-0.012,-0.038,0.399,-5.650,-13.604
11:18:07:486,0.988,0.061,-0.008,-0.011,0.269,-5.686,-13.525
11:18:07:513,1.015,0.031,0.000,0.006,0.197,-5.812,-13.524
11:18:07:569,1.070,0.066,0.013,0.034,0.111,-6.626,-13.560
11:18:07:569,1.071,0.049,0.002,0.037,0.082,-7.007,-13.653
11:18:07:65,1.151,0.022,-0.015,0.021,0.057,-7.292,-13.872
11:18:07:65,1.151,0.004,0.017,0.012,-0.029,-7.538,-14.246
11:18:07:651,1.152,-0.016,-0.002,0.009,-0.118,-7.789,-14.555
11:18:07:67,1.172,-0.013,-0.004,0.022,-0.315,-8.369,-15.110
11:18:07:697,1.199,-0.038,-0.010,-0.002,-0.444,-8.823,-15.487
11:18:07:755,1.256,-0.027,0.006,0.007,-0.720,-9.684,-16.056
11:18:07:755,1.257,-0.023,0.009,0.006,-1.047,-10.716,-16.671
11:18:07:756,1.258,-0.025,0.013,0.016,-1.251,-11.437,-17.063
11:18:07:864,1.365,-0.049,0.006,0.003,-1.491,-12.460,-17.589
11:18:07:864,1.365,-0.053,-0.008,0.003,-1.616,-13.148,-17.892
11:18:07:864,1.366,-0.060,-0.020,-0.014,-1.746,-14.125,-18.228
11:18:07:865,1.366,-0.072,-0.011,-0.013,-1.832,-14.756,-18.364
11:18:07:936,1.437,-0.065,-0.013,-0.017,-1.969,-15.892,-18.432
11:18:07:936,1.438,-0.045,-0.028,0.012,-2.139,-17.425,-18.352
11:18:07:962,1.463,-0.009,-0.033,0.011,-2.262,-18.651,-18.211
11:18:07:963,1.464,0.001,-0.030,0.016,-2.493,-20.716,-17.845
11:18:07:985,1.486,0.030,-0.025,0.023,-2.732,-22.853,-17.303
11:18:08:04,1.541,0.055,-0.007,0.041,-2.896,-24.304,-16.927
11:18:08:041,1.542,0.088,0.018,0.068,-3.081,-26.347,-16.349
11:18:08:151,1.652,0.091,0.020,0.073,-3.112,-27.578,-15.954
11:18:08:152,1.653,0.111,0.009,0.081,-3.006,-29.038,-15.594
11:18:08:153,1.654,0.103,0.003,0.076,-2.809,-29.596,-15.692
11:18:08:154,1.655,0.082,0.005,0.053,-2.370,-29.814,-15.834
11:18:08:169,1.670,0.056,0.014,0.025,-1.848,-29.474,-15.448
11:18:08:224,1.725,0.043,0.013,0.003,-1.469,-29.044,-15.254
11:18:08:225,1.726,0.032,0.012,-0.007,-0.940,-28.292,-15.073
11:18:08:275,1.776,0.009,-0.001,-0.026,-0.665,-27.799,-15.033
11:18:08:334,1.835,0.005,-0.002,-0.028,-0.400,-27.327,-15.100
11:18:08:334,1.835,0.009,-0.015,-0.033,-0.314,-27.184,-15.254
11:18:08:334,1.835,0.019,-0.010,-0.029,-0.366,-27.229,-15.389
11:18:08:44,1.941,0.017,-0.005,-0.018,-0.496,-27.330,-15.583
11:18:08:441,1.942,0.015,-0.008,-0.013,-0.572,-27.326,-15.711
11:18:08:442,1.943,0.005,-0.011,0.000,-0.628,-27.204,-15.850
11:18:08:442,1.944,-0.009,-0.013,0.008,-0.640,-26.923,-15.957
11:18:08:458,1.959,-0.020,-0.007,0.014,-0.625,-26.709,-16.011
11:18:08:513,2.015,-0.030,0.005,0.014,-0.579,-26.455,-16.073
11:18:08:514,2.015,-0.030,-0.005,0.022,-0.557,-26.463,-16.101
11:18:08:566,2.068,-0.013,0.004,0.016,-0.555,-26.690,-16.168
11:18:08:567,2.069,-0.005,-0.006,0.013,-0.584,-27.003,-16.244
11:18:08:618,2.119,0.005,-0.015,-0.001,-0.599,-27.198,-16.260
11:18:08:618,2.120,0.007,-0.007,-0.003,-0.612,-27.462,-16.256
11:18:08:729,2.230,0.012,0.001,-0.008,-0.607,-27.613,-16.248
11:18:08:73,2.231,0.011,-0.004,0.001,-0.585,-27.812,-16.207
11:18:08:73,2.231,0.017,-0.007,0.003,-0.553,-27.981,-16.166
11:18:08:731,2.232,0.012,0.003,0.007,-0.543,-28.088,-16.164
11:18:08:799,2.300,-0.003,-0.009,0.003,-0.509,-28.133,-16.177
11:18:08:826,2.327,-0.004,-0.014,0.006,-0.503,-28.205,-16.210
11:18:08:857,2.358,0.001,-0.005,0.001,-0.521,-28.384,-16.270
11:18:08:858,2.359,0.003,-0.004,0.004,-0.552,-28.496,-16.303
11:18:08:859,2.360,0.006,-0.003,-0.003,-0.591,-28.646,-16.305
11:18:08:907,2.408,0.010,-0.013,0.007,-0.643,-28.811,-16.312
11:18:08:908,2.409,0.018,-0.011,0.007,-0.673,-28.908,-16.310
11:18:09:017,2.519,0.022,-0.006,0.003,-0.708,-28.988,-16.292
11:18:09:018,2.520,0.017,-0.003,0.000,-0.751,-28.981,-16.266
11:18:09:019,2.521,0.022,-0.011,0.012,-0.771,-28.948,-16.254
11:18:09:02,2.521,0.008,0.004,0.005,-0.797,-28.844,-16.250
11:18:09:122,2.624,0.004,0.002,-0.001,-0.810,-28.782,-16.258
11:18:09:123,2.625,0.006,-0.004,0.003,-0.833,-28.694,-16.260
11:18:09:124,2.625,0.002,0.000,-0.006,-0.853,-28.686,-16.262
11:18:09:125,2.626,-0.003,-0.001,-0.001,-0.881,-28.551,-16.268
11:18:09:14,2.642,-0.001,-0.001,-0.004,-0.933,-28.448,-16.266
11:18:09:195,2.697,0.000,-0.010,0.006,-0.981,-28.402,-16.281
11:18:09:196,2.698,0.004,-0.007,-0.001,-1.072,-28.324,-16.305
11:18:09:245,2.747,0.002,-0.002,0.004,-1.126,-28.257,-16.320
11:18:09:273,2.774,0.006,-0.001,0.002,-1.198,-28.171,-16.326
11:18:09:3,2.802,0.010,-0.006,0.009,-1.246,-28.089,-16.306
11:18:09:301,2.803,0.012,-0.006,0.002,-1.275,-28.020,-16.287
11:18:09:411,2.912,0.012,-0.008,0.015,-1.307,-27.874,-16.252
11:18:09:412,2.913,0.016,-0.002,0.008,-1.318,-27.747,-16.246
11:18:09:413,2.914,0.016,0.002,0.012,-1.341,-27.508,-16.258
11:18:09:429,2.930,0.000,0.012,-0.001,-1.312,-27.010,-16.289
11:18:09:511,3.012,0.014,-0.005,0.007,-1.311,-26.748,-16.308
11:18:09:511,3.013,0.007,-0.008,0.001,-1.309,-26.574,-16.333
11:18:09:561,3.063,0.014,0.000,0.002,-1.316,-26.291,-16.402
11:18:09:587,3.089,0.002,-0.008,0.006,-1.306,-26.063,-16.443
11:18:09:7,3.202,-0.002,0.003,0.000,-1.267,-25.666,-16.495
11:18:09:701,3.203,-0.011,0.003,0.002,-1.201,-25.244,-16.529
11:18:09:702,3.203,-0.014,-0.002,0.004,-1.155,-24.974,-16.527
11:18:09:724,3.225,-0.017,-0.006,0.003,-1.021,-24.376,-16.521
11:18:09:724,3.225,-0.018,-0.002,0.000,-0.979,-24.206,-16.519
11:18:09:725,3.226,-0.013,-0.002,0.002,-0.914,-23.990,-16.508
11:18:09:802,3.303,-0.009,-0.001,-0.004,-0.871,-23.851,-16.496
11:18:09:802,3.303,-0.012,0.005,0.007,-0.805,-23.684,-16.444
11:18:09:827,3.329,-0.001,0.005,0.013,-0.728,-23.529,-16.363
11:18:09:828,3.329,-0.004,-0.015,0.005,-0.682,-23.425,-16.306
11:18:09:878,3.379,0.011,0.008,-0.009,-0.680,-23.470,-16.261
11:18:09:879,3.380,0.007,0.002,0.003,-0.728,-23.634,-16.299
11:18:09:932,3.433,0.058,0.034,0.021,-0.939,-24.066,-16.416
11:18:09:932,3.433,0.072,0.006,0.049,-1.044,-24.243,-16.539
11:18:09:984,3.486,0.063,-0.005,0.030,-1.076,-24.043,-16.782
11:18:09:984,3.486,0.034,-0.003,0.017,-1.033,-23.559,-17.044
11:18:10:095,3.596,0.031,0.002,0.010,-0.964,-23.148,-17.179
11:18:10:095,3.597,0.024,0.002,0.007,-0.828,-22.567,-17.447
11:18:10:096,3.597,0.009,0.005,-0.009,-0.717,-22.248,-17.658
11:18:10:097,3.598,-0.010,-0.009,-0.024,-0.558,-21.817,-18.010
11:18:10:114,3.616,-0.030,-0.020,-0.032,-0.448,-21.455,-18.427
11:18:10:115,3.616,-0.028,-0.016,-0.032,-0.424,-21.264,-18.753
11:18:10:218,3.719,-0.040,-0.023,-0.047,-0.575,-21.243,-19.227
11:18:10:243,3.745,-0.037,-0.024,-0.042,-0.793,-21.435,-19.524
11:18:10:277,3.779,-0.017,-0.022,-0.041,-1.135,-21.752,-20.091
11:18:10:278,3.780,-0.028,-0.029,-0.038,-1.393,-21.846,-20.677
11:18:10:354,3.856,-0.054,-0.031,-0.022,-1.956,-21.506,-21.124
11:18:10:355,3.856,-0.044,-0.011,-0.017,-2.108,-21.420,-21.077
11:18:10:355,3.856,-0.055,-0.002,-0.002,-2.219,-21.250,-20.993
11:18:10:403,3.905,-0.056,-0.009,0.024,-2.279,-21.069,-20.902
11:18:10:404,3.905,-0.070,0.000,0.047,-2.367,-20.864,-20.748
11:18:10:483,3.984,-0.051,-0.001,0.061,-2.464,-20.959,-20.642
11:18:10:484,3.985,-0.031,0.007,0.079,-2.784,-21.792,-20.518
11:18:10:537,4.039,-0.001,0.021,0.069,-3.100,-23.096,-20.378
11:18:10:538,4.039,0.007,0.012,0.051,-3.215,-23.944,-20.268
11:18:10:538,4.040,0.042,0.001,0.041,-3.401,-25.499,-20.134
11:18:10:672,4.173,0.040,0.004,0.042,-3.488,-26.379,-20.041
11:18:10:673,4.174,0.021,0.000,0.028,-3.465,-27.237,-19.968
11:18:10:673,4.175,0.027,0.002,0.036,-3.409,-27.938,-20.033
11:18:10:674,4.176,0.028,-0.001,0.031,-3.392,-28.391,-20.097
11:18:10:702,4.203,0.049,0.000,0.054,-3.397,-29.043,-20.259
11:18:10:703,4.204,0.071,0.027,0.068,-3.506,-29.491,-20.264
11:18:10:715,4.216,0.073,0.010,0.070,-3.627,-30.048,-20.277
11:18:10:8,4.301,0.053,-0.039,0.045,-3.614,-30.280,-20.252
11:18:10:8,4.302,0.065,-0.041,0.053,-3.613,-30.437,-20.226
11:18:10:801,4.303,0.107,-0.043,0.057,-3.692,-30.809,-20.173
11:18:10:961,4.462,0.111,-0.043,0.054,-3.706,-30.914,-20.105
11:18:10:961,4.463,0.117,-0.033,0.045,-3.666,-30.580,-20.402
11:18:10:962,4.463,0.101,0.059,0.025,-3.293,-29.678,-20.389
11:18:10:984,4.485,0.122,0.065,0.034,-2.029,-27.648,-19.806
11:18:10:984,4.486,0.107,0.062,0.024,-1.409,-26.637,-19.608
11:18:10:985,4.487,0.056,0.050,-0.024,-0.366,-24.592,-19.511
11:18:11:063,4.564,0.012,-0.015,-0.041,0.306,-23.118,-19.625
11:18:11:063,4.564,-0.002,-0.036,-0.043,1.092,-21.158,-20.107
11:18:11:064,4.565,-0.039,-0.053,-0.069,1.621,-19.737,-20.922
11:18:11:082,4.584,-0.062,-0.019,-0.103,1.781,-19.209,-21.595
11:18:11:136,4.637,-0.070,0.017,-0.108,1.706,-19.250,-22.667
11:18:11:242,4.743,-0.055,0.045,-0.127,1.458,-19.832,-23.318
11:18:11:329,4.830,-0.050,0.026,-0.118,0.959,-21.059,-24.112
11:18:11:33,4.831,-0.014,-0.048,-0.116,0.413,-22.384,-24.610
11:18:11:33,4.832,0.011,-0.116,-0.085,-0.067,-23.063,-24.895
11:18:11:331,4.832,0.024,-0.137,-0.078,-0.991,-23.508,-25.327
11:18:11:354,4.856,0.016,-0.115,-0.073,-1.649,-23.289,-25.554
11:18:11:355,4.856,-0.005,-0.074,-0.113,-2.533,-22.133,-25.723
11:18:11:356,4.857,-0.047,-0.004,-0.097,-3.311,-20.480,-25.575
11:18:11:357,4.858,-0.061,0.035,-0.079,-3.809,-19.354,-25.222
11:18:11:371,4.872,-0.057,0.154,0.091,-4.573,-17.982,-24.370
11:18:11:399,4.901,0.223,0.198,0.730,-4.205,-16.627,-24.107
11:18:11:453,4.954,-0.200,-0.073,0.087,-3.104,-15.150,-24.456
11:18:11:454,4.955,-0.104,-0.238,0.029,-3.087,-15.863,-24.656
11:18:11:476,4.978,0.017,0.065,0.120,-3.787,-16.786,-24.535
11:18:11:645,5.146,-0.060,-0.013,-0.056,-3.261,-16.529,-24.332
11:18:11:645,5.146,-0.117,-0.017,-0.129,-2.512,-16.092,-24.131
11:18:11:646,5.147,-0.083,0.009,-0.143,-1.857,-16.269,-23.741
11:18:11:647,5.148,-0.038,-0.020,-0.088,-1.615,-17.194,-23.191
11:18:11:666,5.167,-0.023,-0.026,-0.072,-1.593,-17.877,-22.801
11:18:11:666,5.168,0.018,-0.012,-0.026,-1.773,-19.003,-22.340
11:18:11:667,5.169,0.036,-0.011,-0.019,-1.995,-19.654,-22.160
11:18:11:745,5.246,0.042,0.004,0.010,-2.426,-20.495,-22.117
11:18:11:746,5.247,0.043,0.027,0.045,-2.780,-21.021,-22.223
11:18:11:746,5.247,0.039,0.007,0.035,-2.933,-21.250,-22.299
11:18:11:765,5.266,0.037,0.003,0.041,-3.035,-21.497,-22.489
11:18:11:792,5.294,0.027,0.008,0.038,-3.023,-21.599,-22.610
11:18:11:871,5.372,0.016,0.019,0.030,-2.943,-21.603,-22.745
11:18:11:932,5.433,0.006,0.001,0.001,-2.794,-21.514,-22.767
11:18:11:933,5.434,0.002,-0.003,-0.004,-2.680,-21.342,-22.775
11:18:11:934,5.435,-0.015,-0.001,-0.039,-2.465,-20.862,-22.774
11:18:11:934,5.435,-0.037,-0.009,-0.044,-2.345,-20.510,-22.792
11:18:12:007,5.508,-0.032,-0.010,-0.031,-2.294,-20.327,-22.795
11:18:12:008,5.509,-0.025,-0.011,-0.018,-2.318,-20.303,-22.735
11:18:12:009,5.510,-0.008,-0.009,-0.005,-2.387,-20.478,-22.624
11:18:12:028,5.529,-0.003,0.005,0.005,-2.453,-20.653,-22.554
11:18:12:054,5.555,0.015,0.008,0.010,-2.472,-20.786,-22.506
11:18:12:08,5.582,0.008,-0.002,0.005,-2.444,-20.822,-22.456
11:18:12:161,5.662,0.005,-0.003,-0.003,-2.414,-20.747,-22.418
11:18:12:221,5.722,0.014,-0.001,0.000,-2.502,-20.863,-22.383
11:18:12:221,5.723,0.020,0.007,-0.007,-2.599,-20.865,-22.369
11:18:12:222,5.723,0.012,0.005,-0.004,-2.637,-20.818,-22.347
11:18:12:223,5.725,0.040,0.003,-0.001,-2.687,-20.703,-22.331
11:18:12:297,5.798,0.019,0.018,0.005,-2.677,-20.493,-22.356
11:18:12:297,5.798,-0.018,-0.001,0.004,-2.533,-19.954,-22.337
11:18:12:297,5.799,-0.013,-0.017,-0.007,-2.441,-19.759,-22.331
11:18:12:319,5.820,0.002,-0.004,-0.003,-2.431,-19.715,-22.318
11:18:12:32,5.821,-0.014,0.006,-0.014,-2.386,-19.557,-22.316
11:18:12:343,5.844,-0.013,0.001,-0.005,-2.390,-19.450,-22.312
11:18:12:428,5.929,-0.019,-0.009,-0.005,-2.386,-19.320,-22.334
11:18:12:428,5.929,-0.003,0.001,0.007,-2.463,-19.336,-22.383
11:18:12:429,5.930,-0.007,-0.004,0.008,-2.521,-19.390,-22.426
11:18:12:447,5.949,0.002,-0.006,0.006,-2.595,-19.503,-22.436
11:18:12:474,5.975,0.000,0.002,-0.001,-2.626,-19.573,-22.430
11:18:12:5,6.001,0.002,0.001,0.004,-2.642,-19.742,-22.376
11:18:12:585,6.086,0.010,-0.010,-0.001,-2.653,-19.962,-22.322
11:18:12:585,6.087,0.010,-0.011,0.004,-2.657,-20.093,-22.290
11:18:12:586,6.087,0.004,-0.005,0.001,-2.666,-20.188,-22.273
11:18:12:605,6.107,-0.009,-0.004,-0.003,-2.644,-20.192,-22.264
11:18:12:631,6.132,-0.010,0.006,-0.007,-2.651,-20.332,-22.251
11:18:12:686,6.187,-0.010,-0.004,0.000,-2.679,-20.468,-22.240
11:18:12:711,6.212,-0.016,0.000,-0.006,-2.700,-20.646,-22.226
11:18:12:739,6.241,-0.015,-0.005,-0.002,-2.734,-20.837,-22.207
11:18:12:74,6.241,0.000,0.000,0.000,-2.770,-20.967,-22.178
11:18:12:791,6.293,0.001,0.005,0.005,-2.827,-21.150,-22.124
11:18:12:792,6.294,0.002,0.002,0.002,-2.836,-21.244,-22.065
11:18:12:903,6.405,0.008,-0.005,0.011,-2.849,-21.298,-22.019
11:18:12:904,6.405,0.008,-0.004,0.003,-2.859,-21.317,-21.948
11:18:12:904,6.405,0.003,-0.001,0.002,-2.852,-21.405,-21.902
11:18:12:905,6.406,0.014,0.002,-0.001,-2.851,-21.400,-21.836
11:18:12:921,6.422,0.006,0.002,0.000,-2.854,-21.400,-21.816
11:18:13:008,6.510,0.007,0.001,-0.007,-2.842,-21.352,-21.786
11:18:13:009,6.510,0.001,0.001,-0.005,-2.846,-21.245,-21.773
11:18:13:009,6.510,0.003,-0.002,-0.005,-2.847,-21.144,-21.774
11:18:13:026,6.527,-0.004,-0.007,0.006,-2.837,-20.964,-21.787
11:18:13:105,6.606,-0.007,-0.002,0.005,-2.821,-20.836,-21.779
11:18:13:16,6.661,-0.011,0.002,-0.001,-2.807,-20.627,-21.742
11:18:13:16,6.662,0.001,-0.007,0.008,-2.802,-20.472,-21.669
11:18:13:189,6.690,0.001,-0.002,0.007,-2.789,-20.344,-21.621
11:18:13:19,6.691,0.019,0.000,0.008,-2.798,-20.267,-21.597
11:18:13:191,6.692,0.014,-0.009,-0.005,-2.808,-20.190,-21.583
11:18:13:266,6.767,0.009,-0.004,-0.008,-2.795,-20.001,-21.565
11:18:13:266,6.768,0.005,0.000,-0.016,-2.788,-19.810,-21.558
11:18:13:291,6.792,0.004,0.002,-0.012,-2.779,-19.691,-21.541
11:18:13:292,6.793,0.009,0.000,-0.008,-2.796,-19.587,-21.551
11:18:13:314,6.815,0.004,0.003,0.004,-2.800,-19.476,-21.553
11:18:13:368,6.869,-0.004,-0.003,-0.005,-2.768,-19.234,-21.573
11:18:13:451,6.952,-0.011,-0.007,0.000,-2.737,-19.028,-21.586
11:18:13:451,6.953,-0.005,-0.001,-0.001,-2.722,-18.950,-21.589
11:18:13:475,6.976,-0.003,-0.005,0.005,-2.708,-18.882,-21.591
11:18:13:476,6.977,-0.001,-0.010,-0.003,-2.695,-18.849,-21.576
11:18:13:586,7.087,0.004,-0.014,-0.005,-2.695,-18.849,-21.576
11:18:13:586,7.088,0.003,0.001,-0.001,-2.704,-18.843,-21.571
11:18:13:587,7.089,-0.002,0.007,-0.003,-2.680,-18.786,-21.552
11:18:13:588,7.089,0.000,0.006,0.007,-2.626,-18.671,-21.490
11:18:13:606,7.107,-0.002,-0.003,0.003,-2.588,-18.572,-21.446
11:18:13:606,7.107,-0.010,0.001,-0.003,-2.516,-18.419,-21.395
11:18:13:659,7.160,-0.014,-0.002,0.001,-2.460,-18.334,-21.373
11:18:13:66,7.161,-0.015,-0.002,-0.003,-2.402,-18.289,-21.369
11:18:13:681,7.182,-0.018,-0.002,-0.006,-2.339,-18.320,-21.391
11:18:13:708,7.210,-0.016,-0.004,-0.014,-2.329,-18.422,-21.420
11:18:13:85,7.351,-0.014,-0.008,-0.020,-2.349,-18.639,-21.476
11:18:13:85,7.351,-0.013,-0.008,-0.015,-2.409,-18.920,-21.531
11:18:13:85,7.351,-0.016,-0.013,-0.014,-2.441,-19.151,-21.553
11:18:13:851,7.352,-0.001,-0.003,0.007,-2.518,-19.596,-21.580
11:18:13:868,7.369,0.007,0.004,0.013,-2.565,-19.925,-21.600
11:18:13:868,7.370,0.013,0.006,0.021,-2.622,-20.454,-21.626
11:18:13:892,7.393,0.020,0.004,0.015,-2.655,-20.836,-21.665
11:18:13:948,7.449,0.021,0.003,0.016,-2.716,-21.314,-21.732
11:18:13:948,7.450,0.016,0.002,0.008,-2.712,-21.582,-21.795
11:18:13:97,7.471,0.009,-0.002,0.007,-2.684,-21.667,-21.835
11:18:13:996,7.497,-0.001,0.010,-0.008,-2.598,-21.682,-21.881
11:18:14:052,7.553,-0.006,0.001,-0.002,-2.519,-21.656,-21.905
11:18:14:053,7.554,-0.008,-0.006,-0.015,-2.393,-21.673,-21.925
11:18:14:103,7.604,-0.016,-0.007,-0.006,-2.333,-21.804,-21.987
11:18:14:133,7.634,-0.013,-0.006,-0.014,-2.314,-21.908,-22.017
11:18:14:133,7.635,-0.013,0.001,-0.002,-2.312,-22.090,-22.057
11:18:14:154,7.655,-0.004,-0.008,-0.001,-2.333,-22.253,-22.080
11:18:14:237,7.738,0.006,-0.015,0.004,-2.403,-22.574,-22.114
11:18:14:237,7.738,0.019,-0.009,0.009,-2.513,-22.913,-22.172
11:18:14:261,7.763,0.011,0.002,0.009,-2.574,-23.053,-22.207
11:18:14:262,7.764,0.008,0.011,0.008,-2.595,-23.156,-22.201
11:18:14:286,7.787,0.008,0.007,0.010,-2.571,-23.185,-22.167
11:18:14:34,7.841,0.010,0.001,0.006,-2.511,-23.181,-22.115
11:18:14:369,7.870,0.005,0.002,0.000,-2.454,-23.111,-22.078
11:18:14:369,7.870,-0.006,-0.002,-0.005,-2.403,-22.998,-22.081
11:18:14:391,7.893,-0.015,0.000,-0.008,-2.348,-22.807,-22.096
11:18:14:417,7.918,-0.020,-0.005,-0.010,-2.320,-22.725,-22.103
11:18:14:443,7.944,-0.020,-0.001,-0.010,-2.313,-22.691,-22.099
11:18:14:531,8.032,-0.003,-0.011,0.001,-2.334,-22.748,-22.087
11:18:14:532,8.033,-0.004,-0.009,0.001,-2.351,-22.775,-22.085
11:18:14:532,8.033,-0.004,0.000,0.002,-2.380,-22.851,-22.103
11:18:14:533,8.034,0.009,-0.003,0.004,-2.420,-22.960,-22.116
11:18:14:548,8.049,0.007,-0.002,0.003,-2.448,-23.112,-22.129
11:18:14:574,8.075,0.012,0.005,-0.006,-2.465,-23.235,-22.142
11:18:14:658,8.159,0.004,0.004,0.002,-2.468,-23.295,-22.162
11:18:14:66,8.161,0.007,-0.007,-0.010,-2.482,-23.363,-22.211
11:18:14:665,8.166,0.007,-0.003,-0.002,-2.511,-23.428,-22.249
11:18:14:68,8.182,0.007,0.001,-0.009,-2.553,-23.512,-22.327
11:18:14:706,8.207,0.000,-0.004,0.003,-2.576,-23.547,-22.376
11:18:14:819,8.320,0.002,-0.002,-0.003,-2.595,-23.589,-22.420
11:18:14:819,8.321,0.000,0.000,0.006,-2.600,-23.649,-22.450
11:18:14:82,8.322,0.003,0.000,0.008,-2.589,-23.672,-22.451
11:18:14:821,8.323,0.002,-0.002,0.006,-2.561,-23.666,-22.452
11:18:14:836,8.338,0.007,-0.007,0.003,-2.559,-23.656,-22.462
11:18:14:863,8.364,0.002,-0.007,0.002,-2.554,-23.653,-22.468
11:18:14:947,8.448,-0.003,-0.002,-0.001,-2.556,-23.652,-22.488
11:18:14:948,8.449,0.000,-0.011,0.003,-2.556,-23.652,-22.488
11:18:14:948,8.450,-0.002,-0.003,-0.002,-2.558,-23.662,-22.488
11:18:14:968,8.469,-0.005,-0.008,-0.002,-2.571,-23.700,-22.487
11:18:14:994,8.495,-0.006,-0.001,0.001,-2.593,-23.741,-22.449
11:18:15:02,8.521,0.000,0.001,0.006,-2.624,-23.817,-22.437
11:18:15:101,8.602,0.007,0.011,0.008,-2.651,-23.868,-22.430
11:18:15:132,8.633,-0.002,-0.001,0.003,-2.673,-23.869,-22.433
11:18:15:132,8.633,-0.004,-0.004,0.002,-2.658,-23.821,-22.435
11:18:15:132,8.634,-0.007,-0.007,0.000,-2.659,-23.750,-22.435
11:18:15:21,8.711,-0.002,-0.003,0.002,-2.671,-23.732,-22.429
11:18:15:21,8.712,-0.001,-0.005,0.004,-2.673,-23.752,-22.409
11:18:15:211,8.712,-0.003,-0.006,-0.003,-2.685,-23.771,-22.378
11:18:15:23,8.731,0.003,0.002,-0.004,-2.693,-23.800,-22.347
11:18:15:257,8.759,0.003,0.004,0.008,-2.703,-23.828,-22.325
11:18:15:283,8.784,0.003,0.001,0.003,-2.696,-23.825,-22.322
11:18:15:337,8.838,-0.003,-0.002,0.008,-2.691,-23.825,-22.321
11:18:15:388,8.890,-0.002,-0.001,0.002,-2.700,-23.889,-22.335
11:18:15:42,8.921,-0.004,-0.003,0.004,-2.715,-23.972,-22.359
11:18:15:421,8.922,0.007,-0.012,-0.004,-2.759,-24.071,-22.361
11:18:15:422,8.923,0.000,0.003,0.001,-2.787,-24.126,-22.358
11:18:15:5,9.001,0.008,0.000,-0.002,-2.799,-24.236,-22.357
11:18:15:5,9.002,0.005,0.001,0.010,-2.805,-24.341,-22.350
11:18:15:5,9.002,-0.005,-0.007,-0.003,-2.790,-24.374,-22.351
11:18:15:519,9.020,-0.005,-0.005,-0.003,-2.819,-24.460,-22.348
11:18:15:545,9.046,-0.010,-0.010,-0.007,-2.865,-24.557,-22.329
11:18:15:572,9.073,-0.009,-0.012,-0.002,-2.882,-24.610,-22.283
11:18:15:598,9.099,-0.011,0.012,0.003,-2.889,-24.645,-22.175
11:18:15:624,9.125,-0.012,-0.010,0.005,-2.899,-24.760,-22.098
11:18:15:65,9.151,0.006,0.004,0.008,-2.957,-24.978,-21.965
11:18:15:677,9.179,-0.004,0.000,0.000,-2.980,-25.029,-21.887
11:18:15:789,9.290,-0.011,0.019,0.012,-2.964,-25.002,-21.797
11:18:15:789,9.290,-0.021,-0.006,0.013,-2.935,-25.114,-21.763
11:18:15:79,9.291,0.001,0.005,0.006,-2.934,-25.276,-21.702
11:18:15:808,9.309,-0.003,-0.002,0.008,-2.946,-25.527,-21.678
11:18:15:835,9.336,-0.011,-0.003,-0.004,-2.958,-25.717,-21.675
11:18:15:864,9.365,-0.001,-0.002,0.003,-3.031,-26.155,-21.662
11:18:15:864,9.365,0.016,-0.005,0.006,-3.105,-26.592,-21.658
11:18:15:915,9.416,0.015,0.002,0.002,-3.138,-26.840,-21.643
11:18:15:916,9.417,0.020,-0.004,0.013,-3.182,-27.222,-21.622
11:18:15:939,9.441,0.029,0.005,0.018,-3.211,-27.470,-21.617
11:18:15:965,9.466,0.022,0.005,0.021,-3.228,-27.715,-21.640
11:18:16:021,9.522,0.020,0.005,0.014,-3.235,-27.836,-21.669
11:18:16:021,9.523,0.014,0.003,0.021,-3.238,-27.871,-21.673
11:18:16:073,9.574,0.013,-0.006,0.010,-3.223,-27.859,-21.661
11:18:16:074,9.575,0.010,0.000,0.017,-3.213,-27.825,-21.646
11:18:16:098,9.599,0.010,-0.008,0.004,-3.196,-27.737,-21.618
11:18:16:176,9.677,0.009,0.001,0.010,-3.180,-27.628,-21.589
11:18:16:208,9.709,0.004,0.002,0.002,-3.162,-27.499,-21.571
11:18:16:208,9.709,0.004,-0.005,0.004,-3.140,-27.351,-21.553
11:18:16:209,9.710,0.007,-0.009,0.001,-3.141,-27.275,-21.559
11:18:16:228,9.729,-0.003,-0.005,0.010,-3.138,-27.154,-21.601
11:18:16:254,9.756,-0.009,-0.009,-0.004,-3.124,-27.040,-21.629
11:18:16:307,9.808,-0.004,0.003,-0.007,-3.135,-27.023,-21.622
11:18:16:394,9.895,0.015,-0.006,0.009,-3.194,-27.073,-21.616
11:18:16:394,9.896,0.016,-0.008,0.008,-3.210,-27.035,-21.630
11:18:16:395,9.897,0.010,-0.001,0.006,-3.195,-26.916,-21.623
11:18:16:396,9.898,0.010,-0.002,0.014,-3.159,-26.785,-21.601
11:18:16:501,10.003,0.008,0.001,0.005,-3.118,-26.645,-21.590
11:18:16:502,10.003,-0.009,0.005,0.005,-3.046,-26.400,-21.552
11:18:16:503,10.004,-0.011,-0.006,-0.004,-3.019,-26.258,-21.531
11:18:16:503,10.005,-0.006,-0.010,-0.003,-2.994,-26.076,-21.498
11:18:16:517,10.018,-0.015,-0.007,-0.003,-2.989,-25.884,-21.470
11:18:16:543,10.044,-0.015,-0.006,-0.004,-2.981,-25.790,-21.435
11:18:16:604,10.105,-0.010,-0.004,0.001,-2.981,-25.683,-21.349
11:18:16:604,10.105,-0.005,-0.001,-0.006,-2.959,-25.637,-21.291
11:18:16:605,10.106,-0.005,0.006,0.005,-2.928,-25.567,-21.198
11:18:16:648,10.149,-0.004,0.007,0.000,-2.898,-25.507,-21.134
11:18:16:677,10.178,-0.008,-0.002,0.005,-2.885,-25.484,-21.111
11:18:16:678,10.179,-0.006,-0.007,-0.004,-2.887,-25.493,-21.110
11:18:16:758,10.259,-0.007,-0.003,-0.001,-2.898,-25.522,-21.110
11:18:16:759,10.260,-0.007,0.001,-0.017,-2.930,-25.613,-21.091
11:18:16:76,10.261,0.004,-0.010,0.001,-2.986,-25.750,-21.051
11:18:16:81,10.312,0.007,-0.007,-0.007,-3.008,-25.817,-21.037
11:18:16:811,10.312,0.003,-0.002,0.010,-3.054,-25.915,-21.029
11:18:16:891,10.392,0.009,-0.002,0.007,-3.072,-25.963,-21.006
11:18:16:892,10.393,0.000,0.006,0.005,-3.043,-25.933,-20.913
11:18:16:911,10.413,-0.002,0.000,0.009,-3.022,-25.881,-20.869
11:18:16:937,10.439,-0.002,-0.004,0.007,-2.975,-25.788,-20.813
11:18:16:963,10.464,-0.009,-0.002,0.003,-2.946,-25.722,-20.775
11:18:17:047,10.548,-0.008,-0.003,-0.004,-2.924,-25.670,-20.721
11:18:17:048,10.549,-0.004,0.001,-0.001,-2.928,-25.685,-20.685
11:18:17:048,10.550,0.002,-0.002,-0.004,-2.943,-25.728,-20.649
11:18:17:069,10.570,0.001,0.000,-0.002,-2.957,-25.756,-20.627
11:18:17:147,10.648,0.004,0.000,0.005,-2.970,-25.795,-20.626
11:18:17:178,10.680,-0.001,-0.007,0.004,-2.979,-25.814,-20.626
11:18:17:179,10.680,-0.004,-0.002,0.009,-2.976,-25.809,-20.610
11:18:17:18,10.681,-0.005,-0.006,0.010,-2.974,-25.794,-20.575
11:18:17:199,10.700,-0.005,0.005,0.006,-2.969,-25.795,-20.535
11:18:17:225,10.726,0.009,-0.007,0.002,-2.969,-25.796,-20.485
11:18:17:251,10.753,0.002,-0.003,-0.001,-2.945,-25.729,-20.437
11:18:17:366,10.868,0.001,0.000,-0.004,-2.923,-25.693,-20.408
11:18:17:366,10.868,0.006,-0.002,0.003,-2.915,-25.674,-20.369
11:18:17:366,10.868,0.002,-0.001,-0.004,-2.894,-25.617,-20.330
11:18:17:367,10.869,-0.007,0.006,0.002,-2.866,-25.541,-20.303
11:18:17:47,10.971,-0.004,0.000,-0.001,-2.828,-25.452,-20.271
11:18:17:47,10.972,-0.009,0.001,0.005,-2.813,-25.409,-20.258
11:18:17:471,10.973,-0.010,-0.001,0.001,-2.780,-25.339,-20.225
11:18:17:472,10.974,-0.007,-0.003,0.004,-2.769,-25.295,-20.201
11:18:17:488,10.989,0.001,-0.007,-0.001,-2.771,-25.295,-20.171
11:18:17:574,11.076,0.006,0.006,0.011,-2.760,-25.287,-20.141
11:18:17:574,11.076,-0.016,-0.015,-0.005,-2.719,-25.243,-20.134
11:18:17:575,11.076,-0.005,-0.002,0.001,-2.679,-25.230,-20.087
11:18:17:593,11.094,-0.002,-0.007,-0.006,-2.668,-25.282,-20.047
11:18:17:619,11.120,0.002,-0.002,-0.004,-2.661,-25.288,-20.022
11:18:17:645,11.146,0.003,0.002,-0.010,-2.662,-25.288,-19.982
11:18:17:728,11.230,0.001,0.007,-0.006,-2.662,-25.278,-19.952
11:18:17:728,11.230,0.009,-0.001,0.010,-2.646,-25.251,-19.902
11:18:17:753,11.255,-0.002,0.002,0.003,-2.614,-25.155,-19.876
11:18:17:754,11.255,-0.002,0.003,0.007,-2.602,-25.117,-19.877
11:18:17:777,11.278,0.001,-0.004,0.009,-2.591,-25.088,-19.877
11:18:17:861,11.362,-0.004,-0.003,0.004,-2.572,-25.041,-19.880
11:18:17:861,11.363,-0.010,-0.001,0.000,-2.533,-24.947,-19.883
11:18:17:862,11.364,-0.010,-0.002,0.002,-2.492,-24.842,-19.887
11:18:17:882,11.383,-0.018,-0.010,0.001,-2.463,-24.752,-19.874
11:18:17:908,11.409,-0.015,-0.004,-0.002,-2.416,-24.643,-19.823
11:18:17:963,11.465,-0.010,-0.003,-0.005,-2.394,-24.607,-19.785
11:18:17:964,11.466,-0.003,-0.001,0.001,-2.355,-24.578,-19.712
11:18:17:987,11.488,-0.005,-0.002,-0.008,-2.296,-24.507,-19.635
11:18:18:014,11.515,-0.006,-0.003,-0.004,-2.260,-24.453,-19.588
11:18:18:041,11.543,-0.002,-0.004,-0.007,-2.229,-24.387,-19.510
11:18:18:153,11.654,-0.002,-0.013,-0.005,-2.212,-24.345,-19.466
11:18:18:153,11.655,0.006,-0.007,-0.006,-2.199,-24.307,-19.407
11:18:18:154,11.655,0.003,-0.003,-0.003,-2.178,-24.240,-19.368
11:18:18:155,11.656,0.001,0.010,-0.010,-2.155,-24.188,-19.345
11:18:18:17,11.671,-0.001,-0.009,-0.001,-2.132,-24.117,-19.291
11:18:18:255,11.756,0.006,0.006,-0.003,-2.136,-24.066,-19.262
11:18:18:255,11.757,-0.006,0.004,0.002,-2.149,-23.988,-19.266
11:18:18:256,11.757,-0.002,-0.002,-0.001,-2.140,-23.914,-19.262
11:18:18:275,11.776,-0.008,-0.002,-0.004,-2.115,-23.807,-19.263
11:18:18:328,11.830,-0.016,0.001,-0.008,-2.082,-23.707,-19.271
11:18:18:408,11.909,-0.014,0.000,-0.006,-2.063,-23.660,-19.274
11:18:18:441,11.943,-0.008,-0.003,-0.006,-2.044,-23.612,-19.274
11:18:18:442,11.943,-0.011,-0.002,-0.006,-2.021,-23.546,-19.277
11:18:18:443,11.944,-0.008,-0.003,-0.008,-2.008,-23.507,-19.268
11:18:18:443,11.945,-0.006,-0.005,-0.003,-1.996,-23.474,-19.253
11:18:18:459,11.960,-0.004,0.006,0.002,-1.984,-23.441,-19.249
11:18:18:545,12.046,-0.003,-0.001,-0.002,-1.931,-23.394,-19.227
11:18:18:545,12.046,0.000,-0.003,0.000,-1.913,-23.387,-19.218
11:18:18:545,12.046,0.001,-0.006,0.002,-1.859,-23.365,-19.192
11:18:18:565,12.066,-0.004,-0.009,-0.005,-1.794,-23.310,-19.171
11:18:18:591,12.092,-0.006,-0.001,-0.011,-1.731,-23.265,-19.149
11:18:18:617,12.118,-0.002,0.003,-0.009,-1.646,-23.233,-19.100
11:18:18:642,12.144,-0.002,-0.017,-0.013,-1.594,-23.232,-19.053
11:18:18:698,12.199,-0.003,-0.003,-0.015,-1.514,-23.143,-18.977
11:18:18:699,12.200,0.006,-0.005,-0.009,-1.484,-23.138,-18.949
11:18:18:722,12.224,0.008,-0.006,0.001,-1.485,-23.128,-18.919
11:18:18:807,12.308,-0.005,-0.006,-0.011,-1.449,-23.048,-18.916
11:18:18:808,12.309,-0.005,-0.002,-0.003,-1.425,-23.032,-18.918
11:18:18:808,12.309,-0.002,-0.002,-0.011,-1.396,-23.072,-18.925
11:18:18:826,12.328,-0.005,-0.005,-0.002,-1.370,-23.151,-18.961
11:18:18:852,12.354,-0.006,-0.006,-0.014,-1.355,-23.203,-18.992
11:18:18:879,12.380,-0.008,-0.008,-0.007,-1.342,-23.341,-19.048
11:18:18:906,12.408,-0.006,0.001,-0.008,-1.342,-23.472,-19.088
11:18:18:932,12.433,-0.004,0.001,-0.005,-1.334,-23.675,-19.130
11:18:18:958,12.459,-0.003,-0.002,-0.010,-1.319,-23.848,-19.151
11:18:18:987,12.489,-0.003,-0.005,0.002,-1.307,-23.956,-19.157
11:18:18:988,12.489,0.000,-0.009,-0.002,-1.302,-24.102,-19.163
11:18:19:01,12.511,-0.004,-0.001,0.007,-1.297,-24.194,-19.164
11:18:19:092,12.593,-0.002,0.001,-0.003,-1.272,-24.289,-19.166
11:18:19:093,12.594,0.003,0.006,0.001,-1.254,-24.407,-19.143
11:18:19:121,12.622,0.009,-0.008,0.004,-1.244,-24.479,-19.133
11:18:19:121,12.622,0.002,-0.003,-0.002,-1.229,-24.542,-19.134
11:18:19:141,12.643,0.003,-0.008,0.002,-1.220,-24.578,-19.140
11:18:19:226,12.727,0.001,-0.004,-0.001,-1.195,-24.648,-19.137
11:18:19:227,12.728,-0.003,-0.005,-0.006,-1.172,-24.697,-19.134
11:18:19:228,12.729,-0.006,-0.003,-0.006,-1.156,-24.729,-19.135
11:18:19:246,12.748,-0.009,-0.004,-0.005,-1.147,-24.796,-19.132
11:18:19:301,12.803,-0.003,-0.003,-0.009,-1.164,-24.864,-19.130
11:18:19:302,12.804,-0.007,-0.007,-0.004,-1.193,-24.940,-19.128
11:18:19:413,12.914,0.002,-0.009,-0.002,-1.233,-25.049,-19.111
11:18:19:414,12.915,0.008,-0.009,0.006,-1.276,-25.153,-19.097
11:18:19:414,12.915,0.017,-0.007,0.000,-1.329,-25.301,-19.089
11:18:19:415,12.916,0.015,-0.009,0.007,-1.359,-25.381,-19.091
11:18:19:43,12.931,0.023,-0.012,0.004,-1.395,-25.492,-19.094
11:18:19:515,13.016,0.022,-0.011,0.012,-1.445,-25.610,-19.116
11:18:19:515,13.017,0.026,-0.001,0.005,-1.482,-25.710,-19.138
11:18:19:516,13.017,0.018,0.008,0.000,-1.500,-25.798,-19.157
11:18:19:536,13.037,0.022,0.011,0.004,-1.513,-25.836,-19.166
11:18:19:674,13.175,0.017,0.005,0.004,-1.520,-25.835,-19.186
11:18:19:674,13.175,0.002,0.000,-0.005,-1.515,-25.785,-19.226
11:18:19:674,13.175,-0.011,0.002,-0.001,-1.517,-25.635,-19.297
11:18:19:699,13.200,-0.017,-0.002,-0.002,-1.526,-25.442,-19.356
11:18:19:699,13.201,-0.022,-0.002,-0.004,-1.526,-25.316,-19.371
11:18:19:7,13.201,-0.018,-0.002,-0.005,-1.534,-25.148,-19.384
11:18:19:806,13.308,-0.022,-0.007,-0.005,-1.538,-25.057,-19.374
11:18:19:807,13.308,-0.016,-0.009,-0.006,-1.547,-24.945,-19.353
11:18:19:808,13.309,-0.018,0.000,-0.002,-1.554,-24.894,-19.303
11:18:19:808,13.310,-0.012,-0.002,-0.003,-1.548,-24.884,-19.262
11:18:19:825,13.326,-0.010,0.002,-0.002,-1.543,-24.885,-19.212
11:18:19:879,13.380,-0.006,-0.001,-0.008,-1.533,-24.906,-19.172
11:18:19:88,13.381,-0.003,0.002,-0.009,-1.554,-24.958,-19.136
11:18:19:903,13.404,-0.001,-0.003,-0.006,-1.582,-25.029,-19.129
11:18:19:958,13.460,0.002,-0.009,-0.004,-1.617,-25.074,-19.126
11:18:19:959,13.461,0.000,-0.003,-0.002,-1.675,-25.135,-19.122
11:18:19:984,13.485,0.001,0.006,-0.006,-1.699,-25.172,-19.130
11:18:20:095,13.596,0.008,0.006,0.004,-1.713,-25.225,-19.124
11:18:20:096,13.597,0.004,-0.001,-0.003,-1.714,-25.225,-19.134
11:18:20:097,13.598,0.000,0.003,0.000,-1.712,-25.220,-19.129
11:18:20:197,13.698,0.001,-0.006,-0.006,-1.708,-25.191,-19.189
11:18:20:198,13.700,-0.001,0.000,-0.005,-1.714,-25.200,-19.229
11:18:20:199,13.700,0.006,0.001,-0.008,-1.726,-25.223,-19.254
11:18:20:278,13.779,0.004,-0.002,-0.004,-1.724,-25.224,-19.284
11:18:20:278,13.779,0.003,-0.005,-0.002,-1.718,-25.205,-19.315
11:18:20:278,13.779,0.004,-0.005,0.002,-1.744,-25.201,-19.363
11:18:20:384,13.885,0.003,-0.005,0.001,-1.730,-25.157,-19.409
11:18:20:385,13.886,-0.003,-0.006,0.001,-1.714,-25.115,-19.436
11:18:20:385,13.886,0.000,-0.006,-0.005,-1.700,-25.077,-19.467
11:18:20:386,13.887,-0.003,-0.004,-0.003,-1.696,-25.072,-19.483
11:18:20:402,13.903,-0.001,-0.004,-0.009,-1.691,-25.043,-19.493
11:18:20:486,13.988,-0.002,0.000,-0.004,-1.689,-25.028,-19.498
11:18:20:487,13.988,-0.003,0.004,-0.010,-1.688,-25.024,-19.494
11:18:20:487,13.989,0.004,-0.009,-0.004,-1.701,-25.011,-19.492
11:18:20:506,14.008,0.000,-0.008,-0.003,-1.716,-24.974,-19.496
11:18:20:532,14.034,-0.003,0.002,-0.001,-1.742,-24.960,-19.515
11:18:20:559,14.060,0.002,-0.004,0.001,-1.747,-24.953,-19.519
11:18:20:674,14.176,0.001,-0.004,-0.002,-1.763,-24.926,-19.513
11:18:20:674,14.176,-0.001,0.002,-0.002,-1.763,-24.866,-19.523
11:18:20:674,14.176,-0.002,0.002,-0.007,-1.766,-24.824,-19.522
11:18:20:675,14.176,0.000,0.000,0.001,-1.777,-24.742,-19.512
11:18:20:804,14.306,0.000,-0.004,-0.006,-1.782,-24.666,-19.486
11:18:20:805,14.307,-0.003,-0.003,0.002,-1.782,-24.540,-19.452
11:18:20:806,14.308,0.002,-0.004,-0.002,-1.798,-24.452,-19.405
11:18:20:807,14.308,0.004,-0.008,0.001,-1.808,-24.405,-19.369
11:18:20:855,14.356,0.010,0.001,-0.005,-1.816,-24.323,-19.328
11:18:20:855,14.357,0.006,-0.004,-0.003,-1.825,-24.271,-19.307
11:18:20:855,14.357,0.014,-0.010,-0.009,-1.843,-24.228,-19.296
11:18:20:932,14.434,0.012,-0.003,-0.001,-1.840,-24.213,-19.291
11:18:20:933,14.435,0.011,0.001,-0.004,-1.847,-24.212,-19.311
11:18:20:934,14.436,0.010,0.005,-0.002,-1.843,-24.203,-19.342
11:18:20:953,14.454,0.011,-0.006,0.000,-1.851,-24.156,-19.346
11:18:21:067,14.568,0.002,0.001,0.001,-1.853,-24.020,-19.352
11:18:21:068,14.569,-0.002,-0.001,-0.001,-1.815,-23.865,-19.354
11:18:21:068,14.569,0.002,-0.008,0.008,-1.784,-23.784,-19.351
11:18:21:069,14.570,-0.005,-0.002,-0.005,-1.730,-23.632,-19.355
11:18:21:084,14.586,-0.006,0.001,-0.005,-1.696,-23.537,-19.348
11:18:21:163,14.664,-0.006,0.002,-0.011,-1.649,-23.424,-19.352
11:18:21:251,14.752,-0.002,-0.003,-0.005,-1.622,-23.332,-19.358
11:18:21:252,14.753,-0.001,-0.004,-0.010,-1.594,-23.266,-19.360
11:18:21:252,14.754,0.001,-0.004,-0.007,-1.567,-23.205,-19.356
11:18:21:253,14.754,0.005,-0.006,-0.004,-1.564,-23.186,-19.367
11:18:21:35,14.851,-0.004,-0.015,-0.010,-1.401,-23.207,-19.472
11:18:21:35,14.851,-0.008,-0.006,-0.012,-1.361,-23.249,-19.480
11:18:21:373,14.874,-0.004,-0.003,-0.012,-1.325,-23.350,-19.457
11:18:21:457,14.958,0.001,-0.008,0.000,-1.315,-23.427,-19.423
11:18:21:458,14.959,-0.004,0.006,-0.010,-1.293,-23.501,-19.384
11:18:21:459,14.960,-0.004,-0.005,0.000,-1.260,-23.566,-19.366
11:18:21:478,14.979,-0.002,-0.010,-0.001,-1.229,-23.637,-19.343
11:18:21:534,15.035,-0.003,-0.015,0.002,-1.201,-23.687,-19.350
11:18:21:535,15.036,-0.002,-0.019,-0.009,-1.228,-23.788,-19.394
11:18:21:612,15.114,-0.001,-0.015,-0.001,-1.290,-23.929,-19.440
11:18:21:613,15.115,0.005,-0.010,0.000,-1.362,-24.064,-19.491
11:18:21:636,15.137,-0.002,-0.004,-0.005,-1.480,-24.292,-19.559
11:18:21:665,15.166,-0.003,-0.002,-0.007,-1.576,-24.463,-19.617
11:18:21:665,15.166,0.002,0.001,-0.006,-1.739,-24.744,-19.721
11:18:21:747,15.249,-0.021,0.010,-0.018,-1.865,-24.996,-19.813
11:18:21:748,15.249,-0.009,0.014,-0.009,-1.972,-25.255,-19.860
11:18:21:748,15.249,0.007,-0.006,-0.008,-2.145,-25.762,-19.926
11:18:21:767,15.268,0.020,-0.007,0.004,-2.271,-26.119,-19.969
11:18:21:793,15.294,0.024,0.001,0.003,-2.429,-26.618,-20.006
11:18:21:819,15.320,0.028,0.006,-0.002,-2.523,-27.047,-20.026
11:18:21:845,15.347,0.031,0.017,0.006,-2.573,-27.312,-20.021
11:18:21:901,15.402,0.037,0.027,0.009,-2.600,-27.615,-19.992
11:18:21:901,15.403,0.045,0.025,0.032,-2.621,-27.804,-20.000
11:18:21:924,15.425,0.043,0.016,0.031,-2.564,-27.890,-20.132
11:18:22:01,15.511,0.012,0.004,0.013,-2.384,-27.651,-20.215
11:18:22:01,15.511,0.002,-0.001,0.004,-2.236,-27.439,-20.256
11:18:22:01,15.511,-0.011,-0.005,-0.009,-2.012,-27.097,-20.331
11:18:22:029,15.530,-0.023,-0.006,-0.023,-1.864,-26.874,-20.391
11:18:22:057,15.558,-0.022,-0.007,-0.019,-1.693,-26.605,-20.431
11:18:22:082,15.583,-0.027,-0.009,-0.020,-1.559,-26.411,-20.437
11:18:22:193,15.694,-0.030,-0.013,-0.011,-1.477,-26.303,-20.423
11:18:22:194,15.695,-0.028,-0.012,-0.008,-1.348,-26.183,-20.393
11:18:22:195,15.696,-0.030,-0.014,0.001,-1.282,-26.164,-20.369
11:18:22:217,15.718,-0.011,-0.006,0.002,-1.210,-26.241,-20.310
11:18:22:217,15.718,-0.002,-0.004,0.009,-1.177,-26.337,-20.283
11:18:22:328,15.829,0.005,-0.009,-0.001,-1.147,-26.494,-20.277
11:18:22:328,15.829,0.008,-0.010,0.004,-1.132,-26.642,-20.274
11:18:22:328,15.829,0.012,-0.004,-0.005,-1.127,-26.724,-20.276
11:18:22:329,15.830,0.014,-0.004,0.007,-1.146,-26.791,-20.284
11:18:22:344,15.845,0.003,-0.001,-0.001,-1.127,-26.744,-20.296
11:18:22:37,15.871,0.000,-0.004,0.003,-1.121,-26.721,-20.322
11:18:22:396,15.898,-0.002,0.001,0.001,-1.125,-26.725,-20.356
11:18:22:452,15.953,0.001,-0.001,0.001,-1.135,-26.759,-20.381
11:18:22:453,15.954,0.001,-0.002,-0.009,-1.156,-26.791,-20.415
11:18:22:475,15.976,0.003,-0.007,-0.009,-1.164,-26.821,-20.435
11:18:22:586,16.088,0.006,-0.006,-0.007,-1.201,-26.885,-20.462
11:18:22:587,16.088,0.008,0.002,0.001,-1.226,-26.947,-20.485
11:18:22:588,16.089,0.006,-0.001,-0.005,-1.237,-26.960,-20.509
11:18:22:639,16.140,0.001,-0.003,-0.001,-1.228,-26.937,-20.516
11:18:22:64,16.141,-0.004,-0.003,-0.003,-1.217,-26.908,-20.517
11:18:22:64,16.141,0.004,0.000,0.001,-1.217,-26.908,-20.517
11:18:22:719,16.220,0.002,-0.002,0.000,-1.183,-26.833,-20.489
11:18:22:719,16.220,-0.005,-0.006,0.000,-1.132,-26.710,-20.442
11:18:22:719,16.221,0.000,0.002,0.006,-1.087,-26.601,-20.370
11:18:22:739,16.240,-0.001,0.007,-0.009,-1.046,-26.505,-20.311
11:18:22:765,16.266,-0.012,0.002,-0.003,-0.956,-26.267,-20.206
11:18:22:82,16.321,-0.012,-0.008,-0.006,-0.875,-26.068,-20.101
11:18:22:821,16.322,-0.014,0.000,-0.003,-0.845,-26.006,-20.036
11:18:22:872,16.373,-0.007,-0.002,-0.004,-0.833,-25.978,-19.967
11:18:22:873,16.374,-0.011,-0.005,-0.002,-0.817,-25.949,-19.918
11:18:22:896,16.397,-0.005,-0.003,-0.007,-0.855,-25.952,-19.864
11:18:22:98,16.482,0.007,0.001,0.009,-0.944,-26.073,-19.831
11:18:22:981,16.482,0.012,-0.002,0.004,-0.999,-26.140,-19.832
11:18:22:981,16.483,0.013,-0.007,0.008,-1.085,-26.222,-19.841
11:18:23:,16.501,0.005,-0.002,-0.002,-1.129,-26.246,-19.858
11:18:23:026,16.528,-0.001,-0.007,0.007,-1.161,-26.250,-19.855
11:18:23:053,16.555,0.014,0.004,0.000,-1.202,-26.365,-19.882
11:18:23:108,16.609,0.013,-0.010,0.013,-1.212,-26.388,-19.886
11:18:23:109,16.610,0.024,0.008,0.003,-1.223,-26.508,-19.926
11:18:23:16,16.662,0.007,-0.014,-0.009,-1.198,-26.512,-19.939
11:18:23:161,16.663,0.002,-0.017,-0.027,-1.164,-26.356,-19.941
11:18:23:184,16.685,0.010,-0.001,-0.007,-1.255,-26.372,-20.004
11:18:23:271,16.772,-0.002,0.002,-0.012,-1.302,-26.324,-20.029
11:18:23:272,16.773,0.014,0.006,0.013,-1.379,-26.246,-20.037
11:18:23:272,16.774,-0.027,0.001,0.008,-1.374,-26.070,-20.002
11:18:23:273,16.775,-0.014,0.015,0.030,-1.333,-25.900,-19.919
11:18:23:315,16.816,-0.007,0.001,0.027,-1.274,-25.838,-19.872
11:18:23:429,16.931,-0.013,-0.005,0.005,-1.210,-25.713,-19.842
11:18:23:43,16.932,-0.027,-0.005,-0.013,-1.108,-25.467,-19.819
11:18:23:431,16.932,-0.014,-0.002,-0.019,-1.067,-25.363,-19.821
11:18:23:432,16.933,-0.006,0.000,-0.010,-1.083,-25.380,-19.790
11:18:23:45,16.952,0.014,0.003,-0.005,-1.100,-25.407,-19.748
11:18:23:451,16.952,-0.013,-0.021,-0.011,-1.081,-25.274,-19.693
11:18:23:562,17.063,0.009,-0.001,-0.004,-1.074,-25.128,-19.627
11:18:23:562,17.063,0.010,0.001,0.017,-1.111,-25.128,-19.630
11:18:23:562,17.063,-0.001,-0.004,0.002,-1.099,-24.963,-19.645
11:18:23:562,17.064,0.006,-0.010,-0.003,-1.086,-24.834,-19.645
11:18:23:607,17.108,0.012,-0.005,-0.011,-1.123,-24.733,-19.678
11:18:23:607,17.109,-0.002,-0.007,-0.010,-1.124,-24.612,-19.696
11:18:23:688,17.190,-0.007,-0.023,-0.022,-1.078,-24.463,-19.674
11:18:23:689,17.191,0.001,-0.007,-0.006,-1.049,-24.352,-19.641
11:18:23:69,17.191,0.002,-0.005,0.001,-1.041,-24.292,-19.610
11:18:23:709,17.210,-0.002,-0.001,-0.001,-1.037,-24.162,-19.590
11:18:23:735,17.237,-0.008,-0.003,-0.003,-1.016,-24.019,-19.595
11:18:23:763,17.265,-0.019,-0.002,0.005,-1.017,-23.939,-19.585
11:18:23:876,17.377,-0.003,-0.002,-0.005,-1.010,-23.930,-19.585
11:18:23:876,17.378,-0.006,-0.001,-0.010,-1.010,-23.905,-19.581
11:18:23:876,17.378,0.010,-0.001,-0.009,-1.050,-23.948,-19.578
11:18:23:877,17.379,0.003,-0.003,-0.009,-1.108,-23.974,-19.578
11:18:23:893,17.394,-0.001,-0.007,-0.009,-1.135,-23.950,-19.577
11:18:23:977,17.478,0.001,-0.002,0.000,-1.187,-23.967,-19.579
11:18:23:978,17.479,-0.001,0.001,0.004,-1.242,-24.008,-19.575
11:18:23:998,17.500,-0.004,-0.001,0.009,-1.350,-24.016,-19.572
11:18:24:024,17.525,0.000,-0.003,0.002,-1.384,-24.045,-19.595
11:18:24:05,17.551,0.002,-0.003,0.003,-1.451,-24.050,-19.616
11:18:24:076,17.578,-0.003,-0.001,-0.011,-1.478,-23.995,-19.614
11:18:24:132,17.633,0.004,0.007,-0.001,-1.526,-23.962,-19.616
11:18:24:133,17.634,0.012,-0.006,0.000,-1.565,-23.915,-19.613
11:18:24:156,17.657,0.003,0.001,0.000,-1.558,-23.821,-19.608
11:18:24:269,17.770,0.002,0.000,-0.005,-1.517,-23.642,-19.576
11:18:24:269,17.771,0.003,-0.013,-0.002,-1.490,-23.540,-19.552
11:18:24:27,17.772,0.002,0.000,-0.003,-1.460,-23.414,-19.534
11:18:24:271,17.772,-0.002,-0.002,-0.005,-1.455,-23.325,-19.535
11:18:24:286,17.788,-0.004,-0.005,-0.016,-1.458,-23.198,-19.539
11:18:24:313,17.814,-0.001,-0.007,-0.008,-1.491,-23.112,-19.537
11:18:24:397,17.899,0.006,-0.002,-0.009,-1.518,-23.093,-19.531
11:18:24:398,17.899,0.003,-0.007,-0.006,-1.565,-23.060,-19.523
11:18:24:527,18.029,0.002,0.000,-0.005,-1.660,-23.009,-19.492
11:18:24:527,18.029,-0.003,0.002,-0.009,-1.699,-22.963,-19.489
11:18:24:557,18.059,-0.011,-0.005,-0.009,-1.705,-22.876,-19.495
11:18:24:558,18.060,-0.012,-0.003,-0.009,-1.721,-22.844,-19.494
11:18:24:559,18.061,-0.007,-0.004,-0.006,-1.738,-22.881,-19.493
11:18:24:56,18.061,-0.007,0.001,-0.007,-1.771,-22.976,-19.490
11:18:24:576,18.077,0.003,-0.006,-0.001,-1.822,-23.109,-19.487
11:18:24:66,18.161,0.000,-0.003,-0.007,-1.843,-23.166,-19.485
11:18:24:66,18.161,0.013,0.007,-0.003,-1.851,-23.271,-19.480
11:18:24:661,18.162,0.003,-0.008,-0.012,-1.834,-23.248,-19.455
11:18:24:68,18.182,-0.011,-0.009,0.018,-1.826,-23.189,-19.426
11:18:24:707,18.209,0.028,0.012,0.020,-1.890,-23.380,-19.451
11:18:24:733,18.234,0.012,-0.002,0.005,-1.888,-23.340,-19.451
11:18:24:817,18.318,-0.009,-0.013,-0.004,-1.893,-23.249,-19.452
11:18:24:818,18.319,0.006,-0.004,-0.003,-1.930,-23.303,-19.460
11:18:24:818,18.320,0.004,-0.001,0.000,-1.992,-23.384,-19.455
11:18:24:838,18.339,0.003,-0.006,-0.002,-2.009,-23.421,-19.453
11:18:24:865,18.366,0.007,0.000,0.000,-2.030,-23.443,-19.457
11:18:24:948,18.450,0.000,0.001,-0.006,-2.045,-23.410,-19.457
11:18:24:949,18.450,-0.004,-0.002,-0.005,-2.055,-23.378,-19.456
11:18:24:95,18.451,-0.002,-0.006,0.000,-2.056,-23.378,-19.466
11:18:24:971,18.472,0.024,0.004,-0.010,-2.041,-23.295,-19.473
11:18:24:995,18.497,-0.022,-0.005,-0.012,-1.954,-23.038,-19.439
11:18:25:051,18.552,-0.050,-0.011,-0.007,-1.780,-22.764,-19.289
11:18:25:051,18.552,0.010,-0.003,0.001,-1.731,-22.812,-19.171
11:18:25:133,18.634,0.006,0.015,0.000,-1.688,-22.789,-19.023
11:18:25:133,18.634,-0.016,-0.006,-0.007,-1.657,-22.709,-18.940
11:18:25:134,18.635,0.000,0.001,0.011,-1.668,-22.753,-18.783
11:18:25:238,18.740,0.028,0.013,0.019,-1.767,-23.018,-18.715
11:18:25:24,18.741,0.034,0.009,0.020,-1.809,-23.148,-18.697
11:18:25:24,18.741,0.013,0.002,-0.005,-1.793,-23.100,-18.728
11:18:25:261,18.763,0.014,0.011,-0.013,-1.747,-22.951,-18.808
11:18:25:262,18.763,-0.004,-0.007,-0.024,-1.683,-22.866,-18.857
11:18:25:284,18.785,-0.016,-0.004,0.009,-1.559,-22.795,-18.855
11:18:25:34,18.841,-0.021,-0.010,-0.006,-1.473,-22.687,-18.809
11:18:25:34,18.841,-0.053,-0.025,-0.008,-1.389,-22.449,-18.674
11:18:25:363,18.864,0.008,0.007,0.004,-1.449,-22.530,-18.660
11:18:25:389,18.890,-0.025,-0.036,-0.009,-1.590,-22.665,-18.597
11:18:25:53,19.032,0.035,0.018,0.025,-1.637,-22.863,-18.689
11:18:25:531,19.033,0.001,-0.017,-0.050,-1.477,-22.757,-18.709
11:18:25:532,19.033,-0.041,-0.027,-0.004,-1.230,-22.464,-18.573
11:18:25:549,19.051,0.000,0.014,0.051,-1.125,-22.414,-18.122
11:18:25:55,19.051,-0.004,0.029,0.023,-1.100,-22.122,-17.947
11:18:25:631,19.132,-0.008,0.021,-0.031,-1.270,-22.171,-17.772
11:18:25:632,19.133,0.109,0.056,0.128,-1.654,-22.872,-17.773
11:18:25:633,19.134,0.030,0.006,-0.003,-1.535,-22.659,-17.972
11:18:25:655,19.156,-0.032,-0.014,-0.045,-1.057,-21.576,-18.030
11:18:25:655,19.157,-0.005,-0.011,-0.001,-0.834,-21.179,-17.970
11:18:25:79,19.292,-0.023,-0.028,-0.031,-0.731,-21.028,-17.809
11:18:25:79,19.292,0.008,-0.008,-0.012,-0.700,-20.967,-17.515
11:18:25:791,19.292,0.010,0.007,-0.003,-0.750,-20.854,-17.437
11:18:25:815,19.316,-0.016,0.004,-0.027,-0.823,-20.854,-17.424
11:18:25:815,19.316,0.003,0.011,0.036,-0.977,-20.871,-17.487
11:18:25:816,19.317,-0.018,-0.007,0.018,-0.963,-20.698,-17.563
11:18:25:922,19.424,-0.024,0.006,-0.018,-0.913,-20.460,-17.641
11:18:25:923,19.425,-0.002,-0.017,-0.019,-0.861,-20.487,-17.673
11:18:25:924,19.426,0.003,0.005,-0.013,-0.859,-20.453,-17.638
11:18:25:925,19.426,-0.038,-0.014,0.023,-0.799,-20.422,-17.590
11:18:25:943,19.444,-0.002,-0.009,0.004,-0.708,-20.244,-17.503
11:18:26:024,19.525,-0.031,-0.003,0.007,-0.669,-19.960,-17.425
11:18:26:024,19.525,0.000,-0.008,-0.017,-0.737,-20.080,-17.352
11:18:26:105,19.606,0.031,0.015,0.067,-0.903,-20.496,-17.235
11:18:26:105,19.606,-0.016,-0.005,0.017,-0.757,-20.332,-17.156
11:18:26:106,19.607,0.027,-0.005,-0.034,-0.571,-20.153,-17.038
11:18:26:213,19.714,0.008,-0.024,-0.024,-0.446,-20.126,-16.918
11:18:26:213,19.714,-0.014,-0.002,-0.034,-0.365,-20.017,-16.771
11:18:26:214,19.715,-0.024,-0.004,0.005,-0.295,-19.896,-16.533
11:18:26:214,19.715,0.036,0.005,-0.012,-0.217,-20.051,-16.371
11:18:26:233,19.734,0.002,0.005,0.000,-0.162,-19.918,-16.273
11:18:26:233,19.734,-0.017,-0.006,-0.017,-0.129,-19.827,-16.189
11:18:26:284,19.785,0.016,0.003,-0.016,-0.208,-20.007,-16.197
11:18:26:311,19.813,-0.004,0.007,0.003,-0.330,-20.245,-16.268
11:18:26:312,19.813,0.002,-0.002,0.000,-0.372,-20.380,-16.397
11:18:26:334,19.835,-0.027,0.005,-0.010,-0.401,-20.411,-16.470
11:18:26:502,20.004,-0.006,-0.008,0.015,-0.504,-20.712,-16.572
11:18:26:503,20.005,-0.009,-0.014,0.004,-0.563,-20.919,-16.604
11:18:26:504,20.005,-0.017,-0.006,0.006,-0.574,-21.078,-16.645
11:18:26:504,20.006,-0.020,-0.012,-0.012,-0.550,-21.196,-16.631
11:18:26:524,20.025,-0.014,-0.006,-0.005,-0.549,-21.337,-16.612
11:18:26:524,20.025,-0.003,0.000,-0.007,-0.558,-21.641,-16.597
11:18:26:526,20.027,0.003,-0.004,-0.003,-0.564,-21.850,-16.597
11:18:26:603,20.104,0.000,-0.008,-0.007,-0.588,-22.112,-16.591
11:18:26:603,20.104,0.002,-0.004,0.002,-0.606,-22.295,-16.607
11:18:26:604,20.105,0.003,-0.008,0.000,-0.649,-22.539,-16.615
11:18:26:623,20.124,0.014,0.002,0.003,-0.660,-22.758,-16.595
11:18:26:675,20.177,0.014,0.004,0.007,-0.677,-22.931,-16.599
11:18:26:79,20.291,0.013,0.003,0.000,-0.677,-23.086,-16.575
11:18:26:79,20.291,0.009,-0.002,0.002,-0.674,-23.162,-16.581
11:18:26:791,20.292,0.007,-0.010,0.000,-0.673,-23.182,-16.601
11:18:26:792,20.293,-0.009,-0.008,0.000,-0.667,-23.143,-16.602
11:18:26:895,20.396,-0.008,-0.004,-0.019,-0.655,-23.099,-16.597
11:18:26:896,20.397,-0.006,0.005,-0.010,-0.655,-23.154,-16.562
11:18:26:896,20.397,0.004,-0.009,-0.008,-0.649,-23.235,-16.523
11:18:26:914,20.415,-0.001,0.001,-0.007,-0.643,-23.346,-16.493
11:18:26:996,20.498,0.015,-0.005,-0.004,-0.608,-23.566,-16.492
11:18:26:996,20.498,0.007,-0.006,-0.014,-0.565,-23.537,-16.470
11:18:26:999,20.501,-0.001,0.000,-0.011,-0.554,-23.478,-16.430
11:18:27:049,20.550,0.017,-0.003,0.007,-0.553,-23.649,-16.432
11:18:27:049,20.550,0.004,0.012,0.004,-0.549,-23.724,-16.437
11:18:27:069,20.571,0.002,-0.008,0.000,-0.527,-23.712,-16.444
11:18:27:182,20.684,0.011,-0.010,0.007,-0.529,-23.722,-16.443
11:18:27:183,20.685,0.009,-0.005,0.006,-0.509,-23.730,-16.450
11:18:27:184,20.685,0.009,-0.006,-0.001,-0.487,-23.693,-16.431
11:18:27:185,20.686,0.010,-0.011,0.009,-0.487,-23.663,-16.421
11:18:27:2,20.702,0.013,-0.005,0.005,-0.484,-23.673,-16.431
11:18:27:256,20.757,0.005,0.002,0.006,-0.483,-23.663,-16.441
11:18:27:256,20.758,-0.001,0.004,-0.010,-0.467,-23.606,-16.482
11:18:27:28,20.781,-0.002,-0.001,-0.001,-0.455,-23.572,-16.527
11:18:27:305,20.807,-0.010,-0.013,-0.008,-0.438,-23.520,-16.543
11:18:27:361,20.862,-0.017,-0.004,0.007,-0.422,-23.477,-16.559
11:18:27:361,20.862,-0.010,-0.007,0.008,-0.411,-23.499,-16.570
11:18:27:471,20.972,-0.013,-0.005,0.008,-0.390,-23.532,-16.572
11:18:27:472,20.973,-0.005,-0.001,0.007,-0.392,-23.621,-16.562
11:18:27:473,20.974,0.002,0.008,0.011,-0.395,-23.711,-16.563
11:18:27:573,21.075,0.000,-0.006,0.003,-0.395,-23.912,-16.564
11:18:27:574,21.076,0.006,-0.008,-0.002,-0.386,-23.963,-16.555
11:18:27:575,21.076,0.000,-0.006,0.005,-0.366,-23.976,-16.537
11:18:27:594,21.095,0.002,-0.005,0.000,-0.336,-23.975,-16.494
11:18:27:652,21.153,0.000,0.001,0.011,-0.316,-23.962,-16.461
11:18:27:652,21.153,0.003,-0.003,0.001,-0.294,-23.940,-16.426
11:18:27:727,21.228,-0.001,-0.009,0.004,-0.266,-23.939,-16.414
11:18:27:757,21.259,0.002,-0.008,-0.006,-0.262,-23.944,-16.408
11:18:27:758,21.260,-0.008,0.001,-0.003,-0.263,-23.974,-16.429
11:18:27:759,21.260,0.007,-0.014,0.003,-0.275,-24.043,-16.449
11:18:27:866,21.367,-0.004,-0.012,-0.002,-0.278,-24.062,-16.458
11:18:27:867,21.368,0.004,-0.004,0.007,-0.288,-24.172,-16.499
11:18:27:867,21.369,-0.002,-0.007,0.009,-0.284,-24.212,-16.509
11:18:27:868,21.370,0.001,-0.002,0.006,-0.287,-24.262,-16.510
11:18:27:886,21.388,0.003,0.003,0.008,-0.296,-24.312,-16.530
11:18:27:886,21.388,0.002,0.005,0.004,-0.299,-24.336,-16.525
11:18:27:935,21.436,-0.001,-0.011,0.009,-0.292,-24.322,-16.529
11:18:27:962,21.463,-0.004,-0.012,0.009,-0.275,-24.279,-16.526
11:18:28:015,21.516,-0.004,-0.011,0.004,-0.262,-24.226,-16.531
11:18:28:046,21.547,0.000,-0.005,-0.001,-0.252,-24.202,-16.517
11:18:28:046,21.548,0.001,-0.001,-0.011,-0.250,-24.177,-16.482
11:18:28:047,21.549,0.005,0.002,-0.007,-0.250,-24.177,-16.482
11:18:28:154,21.655,0.002,-0.006,0.001,-0.255,-24.206,-16.481
11:18:28:155,21.656,0.008,-0.011,0.010,-0.285,-24.237,-16.475
11:18:28:155,21.656,0.004,-0.005,0.013,-0.310,-24.259,-16.478
11:18:28:156,21.657,-0.002,0.000,0.004,-0.325,-24.257,-16.477
11:18:28:171,21.673,0.010,0.001,0.005,-0.326,-24.267,-16.477
11:18:28:256,21.757,0.004,-0.007,0.008,-0.361,-24.287,-16.479
11:18:28:258,21.759,0.006,0.000,0.002,-0.374,-24.275,-16.468
11:18:28:258,21.760,0.000,-0.006,0.011,-0.374,-24.275,-16.468
11:18:28:277,21.778,0.001,-0.004,0.000,-0.363,-24.246,-16.458
11:18:28:333,21.834,-0.002,0.000,0.005,-0.354,-24.218,-16.460
11:18:28:333,21.834,0.000,-0.001,-0.004,-0.342,-24.179,-16.450
11:18:28:444,21.945,-0.010,-0.003,0.006,-0.330,-24.141,-16.441
11:18:28:444,21.946,-0.004,-0.005,-0.002,-0.329,-24.136,-16.436
11:18:28:444,21.946,-0.011,-0.002,0.008,-0.329,-24.136,-16.436
11:18:28:445,21.946,-0.002,-0.004,0.003,-0.332,-24.150,-16.441
11:18:28:46,21.961,-0.003,-0.007,0.010,-0.339,-24.184,-16.405
11:18:28:545,22.046,0.004,-0.006,0.001,-0.353,-24.222,-16.374
11:18:28:545,22.047,0.002,-0.003,0.005,-0.365,-24.240,-16.364
11:18:28:546,22.047,0.005,-0.003,-0.001,-0.368,-24.255,-16.368
11:18:28:566,22.067,0.004,-0.005,0.005,-0.371,-24.249,-16.353
11:18:28:62,22.122,0.001,-0.003,0.000,-0.372,-24.204,-16.328
11:18:28:621,22.123,0.003,-0.002,0.003,-0.376,-24.198,-16.312
11:18:28:675,22.176,0.005,-0.004,0.009,-0.387,-24.181,-16.296
11:18:28:675,22.176,0.000,-0.008,0.003,-0.407,-24.148,-16.284
11:18:28:727,22.228,0.001,-0.005,0.006,-0.411,-24.143,-16.269
11:18:28:728,22.229,0.005,-0.008,0.005,-0.408,-24.143,-16.239
11:18:28:838,22.339,0.006,-0.001,0.003,-0.412,-24.147,-16.214
11:18:28:838,22.339,0.008,-0.002,0.008,-0.409,-24.128,-16.214
11:18:28:838,22.340,0.006,-0.006,0.004,-0.406,-24.108,-16.214
11:18:28:839,22.340,0.008,-0.009,-0.003,-0.416,-24.102,-16.218
11:18:28:854,22.355,0.006,-0.007,0.008,-0.438,-24.078,-16.216
11:18:28:94,22.441,0.002,-0.003,-0.004,-0.456,-24.081,-16.240
11:18:28:94,22.442,0.011,-0.005,0.005,-0.476,-24.099,-16.259
11:18:28:94,22.442,0.011,-0.003,0.001,-0.474,-24.099,-16.299
11:18:28:96,22.462,0.010,-0.003,0.003,-0.484,-24.073,-16.333
11:18:29:014,22.516,0.008,-0.004,0.002,-0.515,-24.044,-16.386
11:18:29:015,22.516,0.006,-0.010,0.009,-0.544,-24.036,-16.429
11:18:29:125,22.627,0.016,-0.014,0.008,-0.592,-24.009,-16.495
11:18:29:125,22.627,0.010,0.000,0.010,-0.626,-23.890,-16.558
11:18:29:126,22.628,0.011,0.007,0.001,-0.650,-23.786,-16.595
11:18:29:127,22.629,0.010,-0.002,0.011,-0.670,-23.588,-16.638
11:18:29:144,22.645,0.008,0.004,0.003,-0.675,-23.453,-16.693
11:18:29:227,22.729,0.001,0.005,0.007,-0.662,-23.235,-16.763
11:18:29:228,22.729,-0.008,-0.012,0.000,-0.626,-22.969,-16.834
11:18:29:229,22.730,-0.014,-0.013,0.000,-0.612,-22.821,-16.884
11:18:29:248,22.749,-0.015,-0.001,-0.009,-0.607,-22.647,-16.969
11:18:29:303,22.804,-0.020,-0.003,-0.007,-0.607,-22.527,-17.018
11:18:29:304,22.805,-0.012,-0.003,-0.005,-0.618,-22.370,-17.072
11:18:29:326,22.828,-0.024,-0.006,-0.005,-0.625,-22.239,-17.101
11:18:29:412,22.913,-0.018,-0.004,-0.005,-0.638,-22.182,-17.115
11:18:29:412,22.914,-0.010,-0.004,0.006,-0.652,-22.135,-17.120
11:18:29:412,22.914,-0.004,-0.001,0.000,-0.659,-22.114,-17.119
11:18:29:432,22.933,-0.001,0.000,-0.003,-0.660,-22.089,-17.114
11:18:29:516,23.017,-0.002,-0.006,-0.003,-0.653,-22.070,-17.125
11:18:29:516,23.018,-0.001,-0.006,-0.004,-0.653,-22.070,-17.135
11:18:29:517,23.019,-0.003,0.000,-0.006,-0.656,-22.074,-17.159
11:18:29:537,23.038,-0.007,0.000,-0.016,-0.663,-22.078,-17.184
11:18:29:621,23.122,-0.001,-0.001,-0.005,-0.676,-22.117,-17.203
11:18:29:621,23.122,0.001,-0.015,-0.006,-0.695,-22.134,-17.222
11:18:29:703,23.205,-0.005,-0.002,-0.001,-0.716,-22.156,-17.246
11:18:29:703,23.205,0.003,-0.011,-0.003,-0.742,-22.248,-17.260
11:18:29:704,23.205,0.009,-0.006,0.006,-0.770,-22.319,-17.264
11:18:29:705,23.207,0.008,0.000,-0.004,-0.818,-22.392,-17.261
11:18:29:809,23.310,0.011,0.000,0.004,-0.855,-22.457,-17.269
11:18:29:809,23.310,0.015,-0.001,-0.003,-0.877,-22.469,-17.263
11:18:29:81,23.311,0.009,-0.009,0.002,-0.897,-22.436,-17.242
11:18:29:811,23.312,0.008,-0.007,0.000,-0.917,-22.408,-17.215
11:18:29:825,23.326,0.011,-0.008,0.006,-0.920,-22.407,-17.185
11:18:29:91,23.411,0.012,0.003,0.001,-0.920,-22.392,-17.140
11:18:29:91,23.411,0.008,0.006,0.001,-0.899,-22.340,-17.106
11:18:29:911,23.412,0.004,0.003,-0.007,-0.888,-22.261,-17.066
11:18:29:958,23.459,0.001,-0.003,0.000,-0.885,-22.212,-17.046
11:18:29:987,23.488,0.003,-0.012,-0.005,-0.892,-22.160,-17.036
11:18:29:987,23.488,-0.003,-0.006,0.000,-0.904,-22.109,-17.035
11:18:30:097,23.598,-0.002,-0.004,-0.011,-0.915,-22.082,-17.029
11:18:30:098,23.599,0.008,-0.002,-0.010,-0.932,-22.035,-16.994
11:18:30:098,23.599,-0.002,-0.004,-0.009,-0.952,-21.971,-16.972
11:18:30:099,23.600,-0.002,0.004,-0.007,-0.976,-21.928,-16.961
11:18:30:115,23.616,0.005,-0.006,0.006,-1.000,-21.950,-16.955
11:18:30:201,23.703,0.009,-0.005,0.004,-1.021,-21.952,-16.959
11:18:30:202,23.703,0.002,-0.003,-0.002,-1.039,-21.929,-16.958
11:18:30:203,23.705,0.004,0.001,-0.013,-1.044,-21.898,-16.958
11:18:30:204,23.705,0.001,0.001,-0.004,-1.065,-21.860,-16.961
11:18:30:219,23.720,-0.002,-0.001,-0.007,-1.083,-21.808,-16.960
11:18:30:275,23.777,-0.002,-0.001,-0.002,-1.100,-21.785,-16.959
11:18:30:275,23.777,0.004,-0.006,-0.002,-1.129,-21.781,-16.938
11:18:30:386,23.887,0.005,-0.005,0.001,-1.131,-21.766,-16.913
11:18:30:386,23.888,0.005,0.000,-0.009,-1.122,-21.727,-16.873
11:18:30:387,23.889,0.007,-0.003,-0.008,-1.111,-21.703,-16.849
11:18:30:388,23.890,0.006,0.000,-0.014,-1.111,-21.673,-16.829
11:18:30:405,23.906,0.005,-0.008,-0.005,-1.136,-21.665,-16.833
11:18:30:487,23.988,-0.001,-0.001,-0.010,-1.159,-21.647,-16.826
11:18:30:488,23.989,-0.004,0.004,-0.002,-1.178,-21.614,-16.805
11:18:30:489,23.990,0.005,-0.009,0.003,-1.179,-21.599,-16.770
11:18:30:507,24.009,0.004,0.001,0.004,-1.172,-21.540,-16.720
11:18:30:561,24.062,0.000,0.000,0.003,-1.163,-21.491,-16.692
11:18:30:59,24.091,0.006,-0.002,0.013,-1.153,-21.468,-16.677
11:18:30:591,24.092,0.004,0.001,0.004,-1.143,-21.419,-16.647
11:18:30:673,24.174,0.000,0.001,0.003,-1.131,-21.380,-16.628
11:18:30:674,24.175,0.008,0.001,-0.002,-1.121,-21.357,-16.603
11:18:30:674,24.175,0.005,-0.006,0.000,-1.106,-21.299,-16.584
11:18:30:694,24.195,0.005,-0.003,-0.005,-1.093,-21.256,-16.570
11:18:30:776,24.277,0.005,-0.002,-0.002,-1.077,-21.198,-16.541
11:18:30:777,24.278,0.011,-0.005,-0.005,-1.064,-21.155,-16.517
11:18:30:778,24.279,0.004,-0.005,-0.002,-1.032,-21.064,-16.473
11:18:30:797,24.298,0.003,0.001,-0.005,-1.001,-20.943,-16.430
11:18:30:883,24.384,0.001,-0.002,-0.002,-0.978,-20.871,-16.406
11:18:30:883,24.385,0.003,-0.009,-0.002,-0.951,-20.770,-16.382
11:18:30:883,24.385,0.004,-0.005,-0.006,-0.937,-20.717,-16.367
11:18:30:902,24.403,-0.004,-0.005,-0.010,-0.904,-20.607,-16.345
11:18:30:957,24.458,0.004,0.001,-0.011,-0.883,-20.544,-16.330
11:18:30:958,24.460,0.001,-0.015,-0.001,-0.870,-20.496,-16.310
11:18:30:982,24.483,-0.005,-0.003,-0.013,-0.849,-20.424,-16.317
11:18:31:064,24.566,-0.008,-0.006,-0.003,-0.835,-20.401,-16.313
11:18:31:065,24.567,-0.003,-0.009,-0.012,-0.812,-20.394,-16.304
11:18:31:066,24.567,-0.003,0.000,-0.001,-0.794,-20.416,-16.283
11:18:31:085,24.587,0.002,0.000,-0.013,-0.799,-20.421,-16.279
11:18:31:168,24.669,0.002,0.000,-0.003,-0.805,-20.460,-16.278
11:18:31:169,24.670,0.008,0.001,0.000,-0.806,-20.465,-16.283
11:18:31:193,24.694,0.001,0.001,0.000,-0.817,-20.398,-16.278
11:18:31:194,24.695,0.007,-0.003,0.001,-0.820,-20.313,-16.283
11:18:31:218,24.719,0.005,-0.009,0.002,-0.805,-20.250,-16.278
11:18:31:272,24.773,0.006,-0.002,-0.002,-0.784,-20.138,-16.284
11:18:31:273,24.774,0.001,0.002,0.004,-0.754,-20.047,-16.280
11:18:31:353,24.855,-0.006,-0.003,-0.009,-0.707,-19.903,-16.282
11:18:31:354,24.855,-0.007,-0.007,0.002,-0.691,-19.835,-16.283
11:18:31:355,24.857,-0.007,-0.004,-0.009,-0.663,-19.749,-16.283
11:18:31:374,24.876,-0.009,0.002,-0.010,-0.627,-19.644,-16.285
11:18:31:458,24.959,-0.005,-0.006,-0.005,-0.600,-19.608,-16.277
11:18:31:459,24.960,-0.004,-0.018,-0.006,-0.569,-19.587,-16.243
11:18:31:46,24.961,-0.005,-0.002,-0.011,-0.554,-19.589,-16.233
11:18:31:479,24.980,-0.007,-0.007,-0.010,-0.517,-19.624,-16.234
11:18:31:563,25.064,-0.001,-0.007,-0.009,-0.488,-19.708,-16.225
11:18:31:564,25.065,-0.002,0.001,-0.017,-0.466,-19.741,-16.217
11:18:31:565,25.066,0.001,0.005,-0.006,-0.447,-19.824,-16.217
11:18:31:584,25.085,0.009,-0.007,-0.005,-0.451,-19.883,-16.217
11:18:31:641,25.142,0.002,-0.009,0.002,-0.452,-19.893,-16.217
11:18:31:641,25.142,0.000,-0.006,-0.002,-0.452,-19.888,-16.222
11:18:31:662,25.164,0.000,-0.009,0.006,-0.454,-19.903,-16.227
11:18:31:747,25.248,0.010,-0.001,-0.003,-0.440,-19.950,-16.222
11:18:31:748,25.249,0.005,0.002,0.006,-0.421,-19.967,-16.208
11:18:31:748,25.250,0.015,-0.002,-0.001,-0.398,-20.016,-16.214
11:18:31:768,25.269,0.014,-0.005,0.005,-0.382,-20.043,-16.231
11:18:31:852,25.353,0.011,-0.007,-0.003,-0.381,-20.033,-16.260
11:18:31:853,25.354,-0.002,-0.004,-0.006,-0.359,-19.971,-16.306
11:18:31:854,25.355,-0.003,-0.002,-0.009,-0.355,-19.942,-16.326
11:18:31:873,25.374,0.001,-0.005,0.001,-0.344,-19.933,-16.336
11:18:31:899,25.400,0.001,-0.007,-0.004,-0.340,-19.904,-16.346
11:18:31:925,25.427,-0.009,-0.002,-0.003,-0.331,-19.875,-16.367
11:18:32:039,25.540,-0.002,-0.011,-0.001,-0.335,-19.895,-16.396
11:18:32:04,25.541,-0.010,-0.006,0.003,-0.334,-19.915,-16.416
11:18:32:041,25.542,-0.007,-0.003,-0.008,-0.343,-19.959,-16.461
11:18:32:041,25.542,-0.005,-0.003,-0.010,-0.366,-20.036,-16.501
11:18:32:056,25.558,-0.003,-0.005,-0.008,-0.380,-20.084,-16.530
11:18:32:141,25.642,-0.008,-0.004,-0.003,-0.401,-20.141,-16.570
11:18:32:142,25.643,-0.005,-0.004,-0.003,-0.414,-20.184,-16.594
11:18:32:142,25.644,0.001,-0.005,0.001,-0.433,-20.302,-16.614
11:18:32:162,25.663,0.003,-0.007,0.001,-0.436,-20.422,-16.614
11:18:32:249,25.750,0.003,-0.005,-0.003,-0.433,-20.477,-16.609
11:18:32:25,25.751,0.001,-0.006,0.000,-0.428,-20.543,-16.615
11:18:32:252,25.753,0.005,-0.014,-0.009,-0.422,-20.599,-16.630
11:18:32:252,25.753,0.003,-0.003,-0.005,-0.410,-20.716,-16.656
11:18:32:331,25.832,0.003,0.000,-0.018,-0.394,-20.848,-16.667
11:18:32:331,25.832,-0.002,0.007,-0.018,-0.382,-20.940,-16.668
11:18:32:331,25.833,0.009,-0.002,-0.010,-0.396,-21.068,-16.668
11:18:32:346,25.847,0.004,-0.001,0.005,-0.419,-21.115,-16.667
11:18:32:427,25.928,-0.001,0.001,0.001,-0.432,-21.158,-16.682
11:18:32:427,25.929,0.010,-0.009,0.020,-0.448,-21.226,-16.701
11:18:32:454,25.955,0.010,-0.002,0.000,-0.450,-21.341,-16.696
11:18:32:454,25.955,0.004,0.001,-0.004,-0.418,-21.430,-16.713
11:18:32:505,26.006,0.009,-0.002,-0.010,-0.400,-21.508,-16.740
11:18:32:532,26.033,0.005,-0.003,-0.007,-0.381,-21.586,-16.757
11:18:32:533,26.034,0.000,-0.005,-0.010,-0.378,-21.596,-16.756
11:18:32:613,26.115,-0.006,-0.005,-0.003,-0.368,-21.598,-16.757
11:18:32:614,26.116,0.001,-0.004,0.000,-0.373,-21.697,-16.757
11:18:32:615,26.116,0.000,-0.002,0.002,-0.362,-21.764,-16.753
11:18:32:634,26.135,0.000,-0.004,-0.004,-0.344,-21.861,-16.729
11:18:32:721,26.223,0.002,0.001,0.007,-0.341,-21.947,-16.725
11:18:32:721,26.223,0.003,-0.007,-0.001,-0.341,-22.047,-16.725
11:18:32:722,26.223,0.000,-0.003,0.008,-0.326,-22.119,-16.727
11:18:32:739,26.240,0.005,0.000,0.001,-0.319,-22.150,-16.707
11:18:32:823,26.325,0.006,0.010,0.005,-0.305,-22.212,-16.669
11:18:32:824,26.326,0.005,-0.008,0.007,-0.291,-22.239,-16.634
11:18:32:825,26.326,0.004,-0.005,0.007,-0.278,-22.240,-16.595
11:18:32:844,26.345,0.006,-0.006,0.009,-0.246,-22.250,-16.562
11:18:32:9,26.401,0.007,-0.007,0.007,-0.226,-22.257,-16.548
11:18:32:9,26.401,0.003,0.001,-0.002,-0.198,-22.256,-16.535
11:18:33:012,26.513,0.001,-0.004,-0.012,-0.176,-22.244,-16.531
11:18:33:012,26.513,0.001,-0.008,-0.003,-0.176,-22.244,-16.541
11:18:33:012,26.513,0.000,-0.013,-0.001,-0.204,-22.240,-16.579
11:18:33:013,26.514,-0.003,-0.012,0.004,-0.221,-22.233,-16.613
11:18:33:115,26.616,0.000,-0.005,-0.002,-0.238,-22.256,-16.668
11:18:33:116,26.617,-0.003,-0.004,-0.002,-0.242,-22.281,-16.672
11:18:33:133,26.634,0.003,-0.005,-0.005,-0.187,-22.394,-16.672
11:18:33:188,26.690,-0.004,-0.001,0.002,-0.170,-22.406,-16.702
11:18:33:189,26.690,-0.008,-0.004,-0.003,-0.151,-22.414,-16.719
11:18:33:264,26.766,-0.009,-0.003,-0.005,-0.133,-22.478,-16.771
11:18:33:296,26.797,0.000,-0.002,-0.001,-0.134,-22.598,-16.821
11:18:33:297,26.798,-0.001,-0.003,0.000,-0.135,-22.658,-16.852
11:18:33:297,26.799,-0.001,-0.001,-0.007,-0.139,-22.768,-16.903
11:18:33:404,26.905,0.001,-0.008,0.004,-0.131,-22.865,-16.940
11:18:33:405,26.907,0.006,-0.006,0.002,-0.122,-23.027,-16.972
11:18:33:422,26.923,0.010,-0.004,-0.002,-0.139,-23.301,-17.058
11:18:33:477,26.978,0.009,-0.008,0.003,-0.146,-23.335,-17.072
11:18:33:478,26.979,0.007,-0.006,0.005,-0.150,-23.350,-17.098
11:18:33:589,27.090,0.009,-0.001,0.004,-0.149,-23.345,-17.103
11:18:33:589,27.090,0.010,0.001,0.003,-0.135,-23.287,-17.103
11:18:33:589,27.090,0.003,-0.003,0.000,-0.107,-23.210,-17.104
11:18:33:59,27.091,0.003,-0.002,0.000,-0.075,-23.170,-17.101
11:18:33:693,27.195,-0.002,-0.005,0.001,-0.048,-23.103,-17.102
11:18:33:694,27.196,0.001,-0.003,-0.007,-0.036,-23.055,-17.102
11:18:33:695,27.196,-0.007,-0.002,0.000,-0.014,-22.983,-17.098
11:18:33:695,27.197,0.001,-0.002,-0.006,0.000,-22.955,-17.119
11:18:33:71,27.212,0.007,-0.001,0.005,-0.001,-22.960,-17.124
11:18:33:766,27.267,0.004,-0.012,-0.002,0.013,-22.902,-17.124
11:18:33:766,27.268,0.003,-0.008,0.008,0.015,-22.892,-17.124
11:18:33:789,27.291,0.019,-0.015,0.003,0.025,-22.924,-17.125
11:18:33:816,27.317,0.024,0.004,0.011,0.043,-22.937,-17.146
11:18:33:842,27.343,0.028,0.011,0.010,0.061,-22.874,-17.172
11:18:33:868,27.369,0.017,0.007,0.018,0.116,-22.733,-17.244
11:18:33:954,27.455,0.010,-0.020,0.008,0.159,-22.665,-17.311
11:18:33:954,27.455,0.008,-0.015,0.010,0.194,-22.591,-17.442
11:18:33:955,27.456,-0.006,0.004,-0.009,0.225,-22.411,-17.568
11:18:33:973,27.474,-0.011,0.003,-0.009,0.231,-22.323,-17.627
11:18:33:999,27.501,0.004,-0.006,-0.005,0.234,-22.283,-17.676
11:18:34:113,27.614,0.004,-0.006,-0.002,0.256,-22.212,-17.682
11:18:34:113,27.615,0.001,-0.002,0.002,0.280,-22.060,-17.687
11:18:34:114,27.616,0.006,-0.010,0.013,0.291,-21.981,-17.726
11:18:34:272,27.773,-0.002,0.000,0.006,0.357,-21.821,-17.759
11:18:34:272,27.773,0.000,-0.003,-0.009,0.383,-21.785,-17.770
11:18:34:272,27.774,0.009,-0.012,0.001,0.375,-21.769,-17.784
11:18:34:289,27.791,-0.009,0.005,0.001,0.397,-21.572,-17.783
11:18:34:376,27.877,0.005,-0.012,0.006,0.406,-21.523,-17.753
11:18:34:377,27.878,0.004,-0.016,0.001,0.420,-21.484,-17.723
11:18:34:378,27.879,-0.003,-0.015,-0.001,0.444,-21.412,-17.688
11:18:34:378,27.879,0.010,0.003,-0.002,0.412,-21.362,-17.651
11:18:34:395,27.897,0.002,0.014,0.004,0.391,-21.274,-17.614
11:18:34:396,27.897,0.007,0.007,0.004,0.379,-21.085,-17.526
11:18:34:448,27.949,0.004,0.002,0.012,0.378,-20.919,-17.449
11:18:34:449,27.950,0.008,0.001,0.006,0.371,-20.627,-17.356
11:18:34:472,27.973,0.011,-0.003,0.009,0.359,-20.298,-17.266
11:18:34:498,27.999,0.010,0.000,-0.005,0.353,-20.027,-17.194
11:18:34:556,28.057,0.003,-0.003,-0.002,0.350,-19.580,-17.055
11:18:34:557,28.058,0.013,-0.011,0.001,0.352,-19.289,-16.953
11:18:34:557,28.059,0.019,-0.014,0.006,0.342,-18.846,-16.798
11:18:34:664,28.165,0.008,-0.002,0.002,0.338,-18.320,-16.650
11:18:34:665,28.166,0.010,0.005,0.005,0.339,-17.984,-16.563
11:18:34:666,28.167,0.018,-0.003,0.002,0.339,-17.514,-16.440
11:18:34:682,28.183,0.001,-0.015,-0.006,0.370,-16.693,-16.381
11:18:34:761,28.262,-0.020,-0.023,-0.009,0.392,-16.302,-16.415
11:18:34:789,28.290,-0.019,-0.015,-0.014,0.396,-16.132,-16.444
11:18:34:84,28.341,-0.024,-0.009,-0.015,0.365,-15.888,-16.432
11:18:34:954,28.455,-0.019,0.001,-0.011,0.344,-15.755,-16.403
11:18:34:954,28.455,-0.008,0.000,-0.001,0.315,-15.631,-16.382
11:18:34:955,28.456,-0.003,-0.003,0.000,0.300,-15.594,-16.377
11:18:34:956,28.457,-0.005,-0.004,0.000,0.271,-15.580,-16.437
11:18:34:972,28.473,-0.008,0.006,-0.005,0.226,-15.534,-16.526
11:18:35:059,28.560,-0.006,-0.001,-0.016,0.201,-15.526,-16.581
11:18:35:059,28.561,-0.009,0.002,-0.014,0.155,-15.554,-16.626
11:18:35:06,28.561,-0.005,-0.003,-0.015,0.129,-15.556,-16.642
11:18:35:06,28.562,0.005,-0.005,0.002,0.089,-15.510,-16.631
11:18:35:081,28.582,0.009,-0.004,-0.003,0.076,-15.493,-16.606
11:18:35:082,28.583,0.018,-0.006,0.003,0.075,-15.498,-16.591
11:18:35:082,28.584,0.020,0.002,-0.018,0.081,-15.524,-16.596
11:18:35:157,28.658,0.015,0.002,-0.013,0.083,-15.514,-16.596
11:18:35:158,28.659,0.002,-0.012,-0.024,0.081,-15.459,-16.591
11:18:35:241,28.743,-0.007,-0.005,-0.015,0.060,-15.461,-16.586
11:18:35:242,28.743,-0.008,-0.013,-0.015,0.049,-15.465,-16.581
11:18:35:346,28.847,-0.012,0.000,0.004,-0.019,-15.600,-16.426
11:18:35:347,28.848,-0.006,0.001,0.011,-0.046,-15.716,-16.356
11:18:35:348,28.849,-0.004,0.000,0.015,-0.062,-15.789,-16.311
11:18:35:349,28.850,0.003,0.006,0.016,-0.099,-15.934,-16.261
11:18:35:364,28.865,0.007,0.004,0.020,-0.122,-16.056,-16.246
11:18:35:421,28.922,0.014,0.001,0.011,-0.139,-16.203,-16.256
11:18:35:421,28.922,0.001,-0.003,-0.002,-0.138,-16.263,-16.275
11:18:35:443,28.944,-0.002,-0.008,-0.007,-0.126,-16.285,-16.296
11:18:35:469,28.971,-0.010,-0.014,-0.003,-0.139,-16.338,-16.330
11:18:35:497,28.998,-0.012,-0.011,0.002,-0.150,-16.376,-16.341
11:18:35:522,29.024,-0.009,-0.007,0.006,-0.173,-16.458,-16.336
11:18:35:637,29.138,-0.002,0.000,0.003,-0.215,-16.602,-16.335
11:18:35:637,29.138,0.016,-0.002,0.013,-0.252,-16.707,-16.334
11:18:35:637,29.138,0.016,-0.013,0.006,-0.288,-16.777,-16.349
11:18:35:637,29.138,0.020,0.007,-0.002,-0.314,-16.809,-16.354
11:18:35:653,29.155,0.021,0.002,0.008,-0.338,-16.830,-16.378
11:18:35:706,29.207,0.014,0.000,-0.004,-0.328,-16.797,-16.393
11:18:35:736,29.238,0.011,-0.001,0.003,-0.319,-16.768,-16.404
11:18:35:737,29.238,0.004,-0.005,-0.007,-0.299,-16.701,-16.434
11:18:35:818,29.319,-0.002,-0.007,-0.002,-0.297,-16.616,-16.449
11:18:35:819,29.320,-0.006,-0.004,-0.011,-0.292,-16.512,-16.454
11:18:35:819,29.320,-0.010,-0.002,-0.003,-0.283,-16.458,-16.449
11:18:35:925,29.427,-0.002,-0.004,-0.010,-0.283,-16.453,-16.444
11:18:35:925,29.427,-0.004,-0.003,0.000,-0.289,-16.462,-16.444
11:18:35:926,29.427,-0.010,-0.007,-0.006,-0.295,-16.466,-16.439
11:18:35:927,29.428,-0.014,-0.006,-0.003,-0.293,-16.522,-16.434
11:18:35:942,29.443,-0.010,-0.007,-0.007,-0.296,-16.581,-16.424
11:18:36:026,29.527,-0.013,-0.003,0.002,-0.317,-16.683,-16.419
11:18:36:027,29.528,-0.005,-0.001,-0.005,-0.339,-16.830,-16.409
11:18:36:027,29.529,-0.006,-0.002,-0.003,-0.357,-16.952,-16.413
11:18:36:046,29.548,0.007,-0.003,0.003,-0.392,-17.148,-16.412
11:18:36:213,29.714,0.001,-0.010,0.007,-0.414,-17.224,-16.412
11:18:36:214,29.715,0.004,0.003,0.001,-0.444,-17.385,-16.426
11:18:36:215,29.716,0.016,0.001,0.005,-0.465,-17.557,-16.441
11:18:36:215,29.717,0.015,0.001,0.001,-0.464,-17.627,-16.431
11:18:36:236,29.738,0.029,0.007,0.000,-0.450,-17.699,-16.451
11:18:36:237,29.738,0.040,0.010,0.010,-0.438,-17.721,-16.471
11:18:36:316,29.817,0.028,-0.005,0.008,-0.251,-17.667,-16.645
11:18:36:316,29.817,0.004,0.007,-0.007,-0.130,-17.609,-16.761
11:18:36:316,29.817,-0.026,0.005,-0.023,0.071,-17.463,-16.990
11:18:36:336,29.838,-0.056,-0.019,-0.046,0.197,-17.402,-17.182
11:18:36:391,29.892,-0.070,-0.017,-0.033,0.252,-17.577,-17.529
11:18:36:392,29.893,-0.054,-0.009,-0.013,0.183,-17.943,-17.775
11:18:36:414,29.916,-0.068,-0.012,0.004,0.169,-18.121,-17.775
11:18:36:44,29.941,-0.037,-0.011,0.006,0.199,-18.531,-17.674
11:18:36:496,29.997,-0.007,-0.009,0.024,0.170,-18.937,-17.655
11:18:36:496,29.998,0.017,-0.015,0.011,0.137,-19.573,-17.598
11:18:36:606,30.108,0.032,0.006,0.019,0.114,-19.985,-17.565
11:18:36:607,30.109,0.036,-0.006,0.005,0.084,-20.496,-17.563
11:18:36:608,30.110,0.024,-0.010,-0.005,0.059,-20.854,-17.624
11:18:36:609,30.111,0.016,-0.019,-0.002,0.045,-21.027,-17.660
11:18:36:624,30.125,0.016,-0.007,0.003,0.019,-21.274,-17.681
11:18:36:703,30.204,0.006,-0.005,0.006,-0.020,-21.479,-17.691
11:18:36:765,30.266,0.005,-0.010,0.010,-0.048,-21.620,-17.695
11:18:36:766,30.267,0.012,-0.012,0.008,-0.123,-21.845,-17.708
11:18:36:766,30.267,0.007,-0.008,0.012,-0.164,-21.964,-17.712
11:18:36:767,30.268,0.010,-0.006,0.004,-0.257,-22.061,-17.688
11:18:36:781,30.283,0.007,-0.007,0.007,-0.332,-22.119,-17.653
11:18:36:898,30.399,0.024,0.002,0.010,-0.450,-22.192,-17.587
11:18:36:899,30.400,0.021,0.002,0.012,-0.524,-22.165,-17.498
11:18:36:899,30.401,0.029,0.003,0.014,-0.571,-22.118,-17.444
11:18:36:9,30.401,0.031,0.008,0.012,-0.622,-22.000,-17.392
11:18:36:916,30.417,0.022,0.007,0.007,-0.648,-21.871,-17.374
11:18:36:916,30.418,0.022,0.013,0.005,-0.666,-21.573,-17.348
11:18:36:998,30.499,0.006,0.012,-0.001,-0.650,-21.179,-17.342
11:18:36:998,30.499,0.010,0.007,0.001,-0.618,-20.909,-17.349
11:18:36:999,30.500,0.001,-0.002,0.007,-0.539,-20.444,-17.356
11:18:37:075,30.576,-0.016,-0.005,0.000,-0.304,-19.597,-17.372
11:18:37:075,30.576,0.016,0.011,-0.004,-0.154,-19.274,-17.402
11:18:37:153,30.655,0.068,0.023,0.040,-0.084,-19.033,-17.422
11:18:37:154,30.656,0.122,0.042,0.108,0.087,-17.853,-17.527
11:18:37:178,30.680,0.167,0.004,0.204,0.341,-16.209,-17.724
11:18:37:179,30.680,0.265,0.142,0.179,0.766,-13.281,-18.493
11:18:37:229,30.731,0.289,0.262,0.118,1.276,-10.037,-20.021
11:18:37:257,30.758,0.444,0.240,0.043,1.965,-7.527,-21.419
11:18:37:258,30.759,0.356,0.296,-0.015,3.816,-2.807,-24.650
11:18:37:282,30.783,0.102,0.330,0.012,5.582,0.843,-27.296
11:18:37:308,30.809,0.083,0.331,0.011,8.937,5.769,-31.988
11:18:37:334,30.835,0.076,0.375,-0.060,13.166,9.730,-37.327
11:18:37:388,30.889,0.033,0.397,-0.093,17.132,12.226,-41.201
11:18:37:389,30.890,-0.125,0.293,-0.128,25.262,16.322,-46.763
11:18:37:413,30.914,-0.195,0.262,-0.155,32.002,18.955,-50.371
11:18:37:467,30.968,-0.224,0.164,-0.145,42.836,22.189,-55.805
11:18:37:468,30.969,-0.198,0.145,-0.188,54.045,24.708,-61.189
11:18:37:49,30.992,-0.211,0.000,-0.145,61.246,26.186,-64.611
11:18:37:547,31.048,-0.165,-0.074,-0.130,70.321,27.780,-69.542
11:18:37:547,31.048,-0.128,-0.045,-0.149,75.323,28.466,-72.843
11:18:37:598,31.099,-0.072,-0.142,-0.108,81.305,29.250,-77.389
11:18:37:599,31.100,-0.086,-0.209,-0.063,85.712,29.352,-81.923
11:18:37:68,31.181,-0.044,-0.272,0.036,87.747,29.035,-84.849
11:18:37:68,31.182,-0.033,-0.230,0.046,89.903,27.478,-89.703
11:18:37:681,31.183,-0.104,-0.214,-0.042,91.001,25.368,-93.704
11:18:37:895,31.396,-0.078,-0.232,-0.027,92.345,19.005,-102.332
11:18:37:895,31.396,-0.028,-0.253,0.043,92.928,12.205,-110.430
11:18:37:919,31.421,-0.008,-0.256,0.073,93.433,-3.576,-127.756
11:18:37:92,31.422,-0.084,-0.177,-0.020,93.815,-27.378,-153.141
11:18:37:921,31.422,-0.101,-0.145,-0.014,93.977,-49.915,-176.409
11:18:37:973,31.474,-0.059,-0.158,0.007,94.235,-95.108,136.364
11:18:37:973,31.474,-0.036,-0.143,0.039,94.219,-105.174,125.413
11:18:37:973,31.475,-0.060,-0.101,0.010,94.068,-112.039,117.764
11:18:37:974,31.476,-0.055,-0.101,0.012,93.916,-115.721,113.623
11:18:38:023,31.524,-0.040,-0.072,0.053,93.778,-118.776,109.711
11:18:38:024,31.525,-0.033,-0.068,0.093,93.716,-119.856,108.253
11:18:38:024,31.525,-0.080,-0.051,0.036,93.752,-120.114,107.179
11:18:38:071,31.572,-0.081,0.001,0.010,93.966,-120.157,106.743
11:18:38:071,31.573,-0.058,0.013,0.016,94.177,-119.674,106.859
11:18:38:152,31.653,-0.032,-0.009,0.012,94.500,-118.790,107.328
11:18:38:153,31.654,0.000,-0.010,0.037,94.691,-117.950,107.611
11:18:38:154,31.655,-0.035,-0.044,0.021,94.995,-117.040,108.279
11:18:38:202,31.703,-0.066,-0.074,0.010,95.253,-116.255,108.664
11:18:38:227,31.729,-0.060,-0.064,0.030,95.395,-116.252,108.504
11:18:38:254,31.756,0.000,-0.042,0.029,95.724,-115.761,108.529
11:18:38:255,31.757,0.007,-0.034,0.024,95.929,-115.331,108.797
11:18:38:331,31.832,-0.014,-0.039,0.020,96.181,-114.477,109.340
11:18:38:362,31.864,-0.033,-0.046,0.002,96.428,-114.000,109.629
11:18:38:363,31.864,-0.007,-0.029,0.026,96.552,-113.717,109.529
11:18:38:364,31.865,-0.021,-0.023,0.034,96.590,-113.937,109.179
11:18:38:441,31.943,-0.035,-0.047,0.042,96.615,-113.812,109.105
11:18:38:442,31.943,-0.037,-0.031,0.044,96.460,-114.277,108.599
11:18:38:442,31.944,-0.015,-0.034,0.032,96.272,-114.768,108.000
11:18:38:549,32.050,-0.017,-0.031,0.012,96.131,-115.244,107.630
11:18:38:55,32.051,-0.040,-0.035,-0.001,95.852,-115.940,106.922
11:18:38:55,32.052,-0.037,-0.017,0.007,95.564,-116.884,106.141
11:18:38:551,32.053,-0.053,-0.006,0.069,95.195,-118.223,105.016
11:18:38:568,32.069,-0.038,-0.008,0.045,95.134,-118.655,104.776
11:18:38:593,32.094,-0.012,0.023,0.010,95.135,-118.548,104.935
11:18:38:62,32.122,-0.027,0.004,-0.007,95.150,-118.220,105.327
11:18:38:646,32.147,-0.044,-0.002,-0.029,95.168,-118.063,105.590
11:18:38:728,32.229,-0.041,0.003,-0.020,95.166,-118.068,105.649
11:18:38:728,32.229,-0.030,-0.008,0.007,95.033,-118.447,105.248
11:18:38:839,32.340,-0.074,-0.004,0.011,94.728,-118.801,104.483
11:18:38:84,32.341,-0.072,0.005,0.007,94.558,-119.125,103.927
11:18:38:84,32.341,-0.033,0.007,0.016,94.464,-119.277,103.428
11:18:38:841,32.342,-0.026,-0.001,0.044,94.429,-119.501,102.946
11:18:38:862,32.363,-0.014,0.005,0.033,94.477,-119.146,102.937
11:18:38:882,32.384,-0.001,-0.031,0.007,94.937,-117.423,104.115
11:18:38:938,32.440,-0.014,-0.022,0.000,95.074,-117.101,104.440
11:18:38:938,32.440,-0.036,-0.007,0.016,95.117,-117.070,104.476
11:18:39:045,32.547,-0.017,-0.025,0.028,95.086,-117.283,104.263
11:18:39:046,32.548,0.009,-0.020,0.028,95.114,-117.346,104.088
11:18:39:047,32.548,-0.012,0.010,0.025,95.093,-117.682,103.892
11:18:39:128,32.629,-0.033,0.008,0.017,95.046,-117.904,103.757
11:18:39:128,32.630,-0.012,-0.012,0.008,95.095,-118.037,103.804
11:18:39:129,32.630,0.015,-0.005,0.013,95.169,-118.084,103.923
11:18:39:13,32.631,0.003,0.011,0.020,95.233,-118.145,104.144
11:18:39:147,32.648,-0.032,-0.008,-0.010,95.301,-118.035,104.528
11:18:39:149,32.650,-0.036,0.005,-0.008,95.338,-118.096,104.629
11:18:39:198,32.699,-0.029,0.009,0.022,95.290,-118.560,104.368
11:18:39:223,32.724,-0.037,-0.006,0.006,95.237,-118.833,104.208
11:18:39:251,32.753,-0.027,-0.006,0.016,95.125,-119.171,103.996
11:18:39:329,32.830,-0.059,0.013,0.019,94.949,-119.649,103.599
11:18:39:416,32.917,-0.032,-0.001,0.025,94.863,-120.016,103.294
11:18:39:417,32.918,0.000,0.007,0.022,94.901,-120.099,103.271
11:18:39:417,32.919,-0.015,0.010,0.023,94.942,-120.126,103.377
11:18:39:44,32.941,-0.017,-0.012,0.011,95.112,-119.947,103.979
11:18:39:44,32.942,-0.004,-0.010,0.023,95.173,-120.067,104.063
11:18:39:441,32.943,-0.034,-0.026,0.008,95.176,-120.279,104.153
11:18:39:517,33.018,-0.021,-0.020,-0.005,95.186,-120.345,104.294
11:18:39:518,33.019,-0.020,-0.023,-0.006,95.137,-120.743,104.208
11:18:39:519,33.020,-0.014,-0.007,-0.011,95.017,-121.271,103.857
11:18:39:538,33.039,-0.028,-0.003,-0.005,94.767,-122.208,103.121
11:18:39:565,33.067,0.014,0.005,0.008,94.572,-122.987,102.461
11:18:39:619,33.121,0.010,0.020,0.022,94.436,-123.486,102.031
11:18:39:62,33.121,-0.035,0.023,0.004,94.225,-124.050,101.500
11:18:39:643,33.144,-0.019,0.018,0.014,94.205,-124.133,101.432
11:18:39:698,33.200,-0.001,0.013,0.023,94.387,-123.791,101.847
11:18:39:699,33.201,0.006,-0.009,0.011,94.664,-123.067,102.705
11:18:39:723,33.224,-0.034,-0.032,-0.022,94.804,-122.568,103.300
11:18:39:806,33.307,-0.052,-0.021,-0.029,94.895,-122.162,103.844
11:18:39:806,33.308,-0.049,-0.016,-0.005,94.865,-122.255,103.805
11:18:39:807,33.309,-0.036,-0.014,0.015,94.756,-122.759,103.327
11:18:39:826,33.328,-0.014,-0.008,0.020,94.586,-123.334,102.696
11:18:39:853,33.354,-0.016,0.007,0.009,94.438,-123.688,102.283
11:18:39:908,33.409,-0.015,0.005,0.004,94.241,-124.107,101.786
11:18:39:909,33.410,-0.011,0.006,0.001,94.166,-124.289,101.568
11:18:39:931,33.433,0.020,-0.009,0.012,94.138,-124.393,101.451
11:18:39:958,33.459,-0.015,0.003,-0.008,94.069,-124.461,101.395
11:18:40:038,33.539,-0.020,-0.009,-0.009,94.054,-124.471,101.411
11:18:40:1,33.601,0.011,-0.001,0.009,94.107,-124.514,101.443
11:18:40:1,33.601,0.009,0.002,0.007,94.155,-124.523,101.525
11:18:40:1,33.601,-0.009,-0.002,-0.009,94.204,-124.382,101.796
11:18:40:1,33.601,-0.004,-0.011,-0.016,94.279,-124.160,102.155
11:18:40:115,33.616,-0.002,0.001,-0.002,94.307,-124.173,102.246
11:18:40:142,33.643,-0.025,-0.006,0.006,94.302,-124.299,102.271
11:18:40:197,33.698,-0.024,-0.001,-0.009,94.326,-124.283,102.394
11:18:40:198,33.699,-0.010,0.002,0.004,94.358,-124.274,102.560
11:18:40:222,33.723,-0.030,-0.006,-0.011,94.278,-124.415,102.495
11:18:40:247,33.748,-0.026,-0.010,-0.016,94.162,-124.681,102.246
11:18:40:302,33.803,-0.020,0.010,0.011,93.918,-125.412,101.522
11:18:40:303,33.804,-0.029,0.012,0.012,93.732,-125.985,100.930
11:18:40:328,33.829,0.000,0.014,0.013,93.535,-126.574,100.293
11:18:40:381,33.882,0.004,0.021,0.014,93.452,-126.796,100.049
11:18:40:381,33.882,-0.009,0.003,0.001,93.437,-126.800,100.048
11:18:40:405,33.906,0.021,-0.014,0.006,93.471,-126.682,100.166
11:18:40:489,33.990,0.012,-0.028,0.005,93.464,-126.686,100.180
11:18:40:49,33.991,0.002,-0.034,-0.001,93.365,-126.867,100.013
11:18:40:49,33.991,0.007,-0.055,0.012,93.235,-127.208,99.681
11:18:40:509,34.010,0.001,-0.038,0.019,93.104,-127.588,99.299
11:18:40:535,34.037,-0.010,-0.077,0.028,92.866,-128.192,98.672
11:18:40:561,34.062,-0.005,-0.119,0.047,92.754,-128.382,98.450
11:18:40:589,34.090,0.010,-0.226,0.082,92.697,-128.221,98.616
11:18:40:615,34.116,0.015,-0.362,0.100,92.692,-127.265,99.536
11:18:40:64,34.141,0.008,-0.466,0.102,92.671,-126.185,100.739
11:18:40:696,34.197,-0.007,-0.586,0.116,92.576,-123.235,104.042
11:18:40:697,34.198,-0.006,-0.674,0.148,92.510,-118.469,109.238
11:18:40:807,34.308,-0.065,-0.688,0.122,92.389,-73.469,155.209
11:18:40:807,34.308,-0.124,-0.732,0.033,92.024,24.461,-105.342
11:18:40:808,34.310,-0.164,-0.646,-0.035,91.460,32.691,-95.766
11:18:40:854,34.356,-0.415,-0.193,-0.321,88.325,36.500,-87.326
11:18:40:855,34.356,-0.331,-0.309,-0.250,84.893,35.355,-83.993
11:18:40:905,34.407,-0.373,-0.329,-0.097,77.527,34.013,-79.253
11:18:40:906,34.408,-0.523,0.026,-0.263,68.379,31.837,-75.973
11:18:40:929,34.431,-0.384,0.397,-0.392,43.163,26.699,-70.756
11:18:40:956,34.457,-0.428,0.686,-0.501,21.978,23.067,-66.159
11:18:40:982,34.483,-0.010,1.033,-0.466,2.422,16.539,-58.261
11:18:41:008,34.510,-0.228,0.523,-0.139,0.154,12.927,-49.265
11:18:41:063,34.564,-0.199,0.589,-0.058,0.203,11.132,-43.103
11:18:41:064,34.565,-0.009,0.589,0.046,-0.614,7.769,-33.832
11:18:41:175,34.676,2.949,2.239,1.390,-1.657,5.590,-27.451
11:18:41:176,34.677,0.424,0.865,0.484,-2.233,1.475,-20.054
11:18:41:176,34.677,1.599,0.122,0.538,-5.530,-13.451,-22.661
11:18:41:177,34.678,0.034,0.250,0.091,-6.806,-11.713,-23.244
11:18:41:218,34.720,-0.260,-0.052,-0.184,-3.804,-4.741,-24.731
11:18:41:25,34.751,-0.085,-0.131,-0.165,-2.526,-2.358,-26.052
11:18:41:25,34.752,-0.131,-0.183,-0.204,-1.082,-0.016,-27.306
11:18:41:251,34.752,-0.137,-0.168,-0.168,0.210,1.434,-27.513
11:18:41:464,34.965,-0.186,-0.157,-0.123,2.442,3.581,-27.068
11:18:41:464,34.966,-0.140,-0.147,-0.090,4.323,4.357,-25.900
11:18:41:465,34.967,-0.109,-0.066,-0.168,5.048,3.616,-24.838
11:18:41:466,34.967,-0.060,-0.025,-0.164,5.134,0.534,-23.191
11:18:41:483,34.984,-0.031,0.010,-0.196,4.800,-2.228,-22.032
11:18:41:485,34.986,0.034,0.016,-0.199,4.102,-6.577,-20.090
11:18:41:569,35.071,0.154,0.051,-0.163,3.103,-10.691,-18.404
11:18:41:57,35.071,0.209,0.030,-0.110,2.446,-12.818,-17.443
11:18:41:571,35.072,0.169,0.001,-0.092,1.628,-14.357,-16.214
11:18:41:571,35.073,0.173,0.035,-0.012,1.049,-14.627,-15.566
11:18:41:622,35.123,0.118,0.039,0.069,0.171,-14.487,-14.838
11:18:41:622,35.123,0.060,0.004,0.206,-0.739,-15.123,-14.362
11:18:41:622,35.123,0.169,0.026,0.247,-1.545,-17.458,-14.287
11:18:41:622,35.123,0.331,0.014,0.293,-2.721,-22.140,-14.358
11:18:41:638,35.139,0.251,-0.005,0.180,-3.257,-24.337,-14.562
11:18:41:72,35.222,0.222,0.015,0.129,-3.489,-25.012,-14.719
11:18:41:721,35.223,0.147,0.012,0.036,-3.239,-23.423,-14.911
11:18:41:746,35.247,0.109,0.013,-0.011,-2.918,-21.736,-15.024
11:18:41:747,35.248,0.081,0.017,-0.028,-2.270,-18.835,-15.111
11:18:41:769,35.271,0.071,0.004,-0.039,-1.794,-16.850,-15.099
11:18:41:853,35.355,0.052,-0.001,-0.023,-1.100,-14.086,-14.962
11:18:41:856,35.357,0.029,-0.018,-0.038,-0.504,-11.748,-14.802
11:18:41:874,35.375,0.019,-0.015,-0.042,0.117,-9.191,-14.684
11:18:41:959,35.460,0.023,-0.015,-0.037,0.115,-8.846,-14.752
11:18:41:959,35.460,0.039,-0.012,-0.035,0.002,-8.605,-14.985
11:18:41:96,35.461,0.025,-0.003,-0.029,-0.133,-8.340,-15.319
11:18:42:037,35.538,0.002,0.010,-0.032,-0.208,-8.158,-15.526
11:18:42:038,35.539,0.003,0.009,-0.017,-0.364,-8.009,-15.832
11:18:42:038,35.540,0.012,-0.003,-0.006,-0.487,-7.985,-16.056
11:18:42:058,35.559,0.005,0.000,0.010,-0.689,-7.968,-16.374
11:18:42:143,35.644,0.007,-0.008,0.016,-0.863,-7.919,-16.636
11:18:42:143,35.644,0.013,-0.012,0.041,-0.910,-7.805,-16.776
11:18:42:148,35.649,-0.010,-0.015,0.038,-0.863,-7.565,-16.862
11:18:42:25,35.752,-0.013,-0.016,0.038,-0.817,-7.542,-16.859
11:18:42:251,35.753,0.009,-0.015,0.026,-0.834,-8.011,-16.823
11:18:42:252,35.753,0.031,0.002,0.038,-0.900,-8.563,-16.787
11:18:42:252,35.754,0.043,-0.004,0.022,-1.027,-9.497,-16.699
11:18:42:268,35.769,0.056,-0.017,0.008,-1.073,-10.358,-16.613
11:18:42:295,35.796,0.051,-0.013,-0.002,-1.070,-10.769,-16.556
11:18:42:32,35.822,0.050,-0.013,-0.010,-1.036,-11.201,-16.394
11:18:42:347,35.848,0.053,-0.005,-0.010,-1.043,-11.411,-16.341
11:18:42:428,35.930,0.055,0.007,-0.013,-1.043,-11.672,-16.238
11:18:42:429,35.931,0.054,0.010,-0.015,-1.060,-11.872,-16.116
11:18:42:454,35.955,0.054,0.012,-0.015,-1.085,-12.064,-16.049
11:18:42:455,35.956,0.053,0.009,-0.006,-1.160,-12.324,-15.988
11:18:42:536,36.037,0.063,0.001,0.000,-1.234,-12.514,-16.006
11:18:42:537,36.038,0.062,0.008,0.005,-1.361,-12.689,-16.193
11:18:42:537,36.039,0.050,-0.010,0.006,-1.424,-12.682,-16.439
11:18:42:556,36.058,0.027,-0.004,0.007,-1.432,-12.474,-16.557
11:18:42:612,36.113,0.015,0.004,-0.001,-1.416,-12.240,-16.665
11:18:42:612,36.114,0.004,0.001,0.004,-1.395,-12.042,-16.708
11:18:42:636,36.138,0.004,-0.007,-0.007,-1.356,-11.932,-16.753
11:18:42:72,36.221,0.001,-0.005,-0.004,-1.351,-11.937,-16.778
11:18:42:721,36.222,0.007,0.001,-0.010,-1.369,-11.989,-16.793
11:18:42:721,36.222,0.010,0.003,0.001,-1.398,-12.105,-16.792
11:18:42:74,36.241,0.008,0.003,0.002,-1.399,-12.115,-16.792
11:18:42:848,36.350,0.007,-0.001,0.003,-1.382,-12.133,-16.746
11:18:42:849,36.351,0.015,-0.006,0.004,-1.374,-12.280,-16.699
11:18:42:906,36.408,0.022,-0.010,0.008,-1.381,-12.494,-16.701
11:18:42:907,36.409,0.024,-0.007,0.003,-1.379,-12.724,-16.717
11:18:42:908,36.409,0.013,-0.004,0.004,-1.364,-12.901,-16.729
11:18:42:909,36.410,0.011,-0.004,-0.003,-1.350,-13.118,-16.731
11:18:42:924,36.425,0.015,-0.011,0.009,-1.352,-13.438,-16.736
11:18:43:009,36.510,0.009,-0.001,-0.004,-1.372,-13.700,-16.738
11:18:43:009,36.510,0.018,-0.003,0.009,-1.402,-13.966,-16.705
11:18:43:01,36.511,0.020,0.001,0.013,-1.406,-14.091,-16.668
11:18:43:03,36.531,0.016,0.007,0.021,-1.388,-14.244,-16.596
11:18:43:115,36.616,0.030,0.007,0.026,-1.365,-14.438,-16.573
11:18:43:115,36.616,0.029,-0.005,0.025,-1.346,-14.625,-16.616
11:18:43:115,36.616,0.032,-0.014,0.016,-1.342,-14.899,-16.708
11:18:43:136,36.637,0.020,-0.013,-0.004,-1.341,-15.094,-16.770
11:18:43:219,36.720,0.020,-0.007,0.004,-1.352,-15.366,-16.842
11:18:43:219,36.720,0.028,-0.004,-0.005,-1.373,-15.833,-16.897
11:18:43:22,36.721,0.028,0.004,0.002,-1.382,-16.026,-16.919
11:18:43:239,36.740,0.025,-0.006,-0.002,-1.389,-16.400,-16.960
11:18:43:295,36.796,0.020,-0.010,0.003,-1.411,-16.541,-16.994
11:18:43:295,36.796,0.029,-0.008,0.001,-1.486,-16.810,-17.062
11:18:43:318,36.819,0.024,-0.003,0.010,-1.532,-16.928,-17.114
11:18:43:407,36.909,0.019,0.003,0.000,-1.580,-17.021,-17.163
11:18:43:408,36.909,0.030,-0.001,0.020,-1.593,-17.099,-17.202
11:18:43:408,36.909,0.029,0.004,0.005,-1.579,-17.135,-17.236
11:18:43:408,36.910,0.021,0.001,0.006,-1.569,-17.202,-17.271
11:18:43:509,37.010,0.021,-0.003,0.000,-1.570,-17.231,-17.301
11:18:43:509,37.010,0.011,-0.003,0.001,-1.543,-17.190,-17.326
11:18:43:509,37.010,0.004,0.000,-0.006,-1.519,-17.108,-17.332
11:18:43:583,37.084,0.018,-0.003,0.000,-1.541,-17.145,-17.342
11:18:43:584,37.085,0.017,-0.002,0.005,-1.549,-17.099,-17.337
11:18:43:61,37.112,0.005,0.000,-0.004,-1.544,-16.970,-17.309
11:18:43:611,37.112,0.008,-0.008,0.004,-1.534,-16.952,-17.259
11:18:43:693,37.194,0.014,-0.007,0.008,-1.533,-16.947,-17.224
11:18:43:693,37.194,0.010,-0.007,0.007,-1.513,-16.896,-17.159
11:18:43:693,37.194,0.010,-0.005,0.004,-1.498,-16.843,-17.116
11:18:43:713,37.214,0.011,-0.009,0.003,-1.479,-16.796,-17.046
11:18:43:796,37.297,0.015,-0.003,0.000,-1.486,-16.821,-16.990
11:18:43:797,37.298,0.021,0.001,0.000,-1.485,-16.881,-16.960
11:18:43:797,37.299,0.025,0.001,-0.002,-1.497,-17.035,-16.933
11:18:43:816,37.317,0.036,-0.017,-0.002,-1.512,-17.158,-16.947
11:18:43:902,37.403,0.030,-0.011,0.000,-1.532,-17.179,-16.991
11:18:43:902,37.403,0.028,0.010,-0.001,-1.537,-17.138,-17.042
11:18:43:902,37.404,0.027,0.013,0.009,-1.524,-17.080,-17.073
11:18:43:923,37.424,0.030,0.009,-0.006,-1.470,-16.967,-17.084
11:18:43:979,37.480,0.071,0.030,0.015,-1.481,-16.911,-17.060
11:18:43:979,37.481,0.501,0.138,0.389,-1.829,-16.856,-17.081
11:18:44:,37.502,0.631,0.080,0.386,-1.564,-15.361,-17.738
11:18:44:027,37.528,0.382,0.255,0.190,-0.576,-10.666,-19.604
11:18:44:053,37.554,0.392,0.418,0.199,0.523,-6.149,-23.035
11:18:44:081,37.582,0.324,0.425,-0.016,1.922,-3.024,-26.031
11:18:44:105,37.607,0.476,0.696,-0.099,4.980,1.358,-31.770
11:18:44:132,37.633,0.179,0.708,-0.076,11.543,8.003,-38.307
11:18:44:187,37.688,-0.037,0.693,-0.097,18.850,13.275,-42.493
11:18:44:188,37.689,-0.341,0.380,-0.107,33.053,20.205,-48.354
11:18:44:238,37.739,-0.311,0.267,-0.131,42.509,23.069,-52.510
11:18:44:266,37.768,-0.324,0.280,-0.268,55.687,25.308,-59.403
11:18:44:266,37.768,-0.348,0.044,-0.224,63.959,26.545,-63.698
11:18:44:289,37.791,-0.291,-0.196,-0.109,74.318,27.637,-69.737
11:18:44:345,37.847,-0.190,-0.216,-0.161,81.554,27.345,-75.783
11:18:44:346,37.847,-0.225,-0.240,-0.198,85.001,26.638,-79.858
11:18:44:37,37.871,-0.142,-0.345,-0.076,88.708,24.432,-86.279
11:18:44:396,37.897,-0.124,-0.340,-0.041,90.423,21.349,-91.609
11:18:44:509,38.010,-0.108,-0.318,-0.070,92.282,11.863,-103.866
11:18:44:509,38.010,-0.089,-0.321,-0.082,93.466,-10.857,-128.849
11:18:44:509,38.011,-0.065,-0.330,-0.006,93.945,-44.436,-163.639
11:18:44:51,38.011,-0.090,-0.312,0.042,94.490,-92.310,147.191
11:18:44:525,38.027,-0.114,-0.297,-0.054,94.873,-104.375,134.339
11:18:44:581,38.083,-0.035,-0.285,0.092,95.779,-116.803,120.078
11:18:44:604,38.106,-0.078,-0.262,0.015,96.067,-117.338,119.091
11:18:44:659,38.161,-0.137,-0.208,-0.101,96.312,-117.755,117.882
11:18:44:661,38.163,-0.135,-0.148,-0.056,96.341,-119.084,115.986
11:18:44:684,38.185,-0.040,-0.101,0.026,96.532,-120.932,113.350
11:18:44:766,38.268,-0.030,-0.041,0.024,96.684,-121.551,111.900
11:18:44:766,38.268,-0.037,-0.017,0.026,96.621,-121.853,111.013
11:18:44:792,38.294,-0.034,-0.002,0.015,96.622,-121.875,110.130
11:18:44:792,38.294,-0.032,-0.033,0.006,96.673,-121.754,109.755
11:18:44:814,38.315,-0.028,-0.005,0.053,96.566,-121.883,108.898
11:18:44:871,38.372,-0.046,-0.023,0.023,96.508,-121.742,108.351
11:18:44:871,38.372,-0.064,-0.052,0.000,96.507,-121.576,108.079
11:18:44:893,38.395,-0.060,-0.057,0.040,96.378,-121.877,107.205
11:18:44:948,38.449,-0.088,-0.048,0.037,96.190,-122.293,106.384
11:18:44:949,38.450,-0.044,-0.073,0.049,96.083,-122.608,105.561
11:18:44:972,38.474,-0.046,-0.059,0.068,96.060,-122.606,105.088
11:18:45:025,38.526,-0.053,-0.036,0.074,96.038,-122.570,104.890
11:18:45:054,38.555,-0.051,-0.015,0.042,96.213,-122.004,105.233
11:18:45:054,38.556,-0.033,-0.014,0.032,96.420,-121.390,105.731
11:18:45:077,38.578,-0.043,-0.012,0.043,96.697,-120.622,106.391
11:18:45:161,38.662,-0.040,-0.010,0.018,96.823,-120.285,106.657
11:18:45:181,38.683,-0.047,-0.047,-0.003,97.153,-119.775,107.417
11:18:45:237,38.738,-0.031,-0.071,-0.001,97.091,-119.982,107.353
11:18:45:238,38.739,-0.052,-0.059,0.022,97.027,-120.293,107.162
11:18:45:262,38.763,-0.065,-0.024,0.022,96.861,-120.855,106.803
11:18:45:344,38.846,-0.048,-0.022,-0.018,96.852,-120.866,106.932
11:18:45:345,38.847,-0.024,-0.003,0.002,96.846,-121.095,106.833
11:18:45:346,38.848,-0.055,0.009,0.016,96.725,-121.616,106.458
11:18:45:365,38.867,-0.060,0.010,-0.007,96.682,-121.741,106.404
11:18:45:42,38.921,-0.027,-0.053,-0.009,96.660,-121.680,106.597
11:18:45:503,39.004,-0.011,-0.057,0.003,96.552,-121.711,106.709
11:18:45:503,39.004,-0.039,-0.080,0.024,96.442,-121.906,106.683
11:18:45:504,39.005,-0.058,-0.109,0.012,96.200,-122.456,106.357
11:18:45:527,39.028,-0.060,-0.100,0.054,95.972,-122.854,106.043
11:18:45:527,39.029,-0.078,-0.093,0.051,95.582,-123.193,105.856
11:18:45:549,39.050,-0.065,-0.189,0.105,95.462,-122.907,106.374
11:18:45:634,39.135,-0.030,-0.292,0.178,95.558,-122.147,107.353
11:18:45:634,39.135,0.077,-0.433,0.147,95.908,-118.613,111.513
11:18:45:635,39.136,0.027,-0.520,0.113,95.956,-113.584,117.270
11:18:45:769,39.270,-0.050,-0.620,0.113,95.738,-89.429,142.924
11:18:45:77,39.271,-0.130,-0.640,0.052,95.551,-12.726,-138.500
11:18:45:771,39.272,-0.129,-0.583,-0.060,95.298,10.445,-113.922
11:18:45:771,39.272,-0.164,-0.555,-0.059,94.104,22.030,-99.950
11:18:45:838,39.340,-0.165,-0.547,-0.025,92.806,24.995,-94.956
11:18:45:875,39.376,-0.242,-0.252,-0.251,89.618,26.073,-89.580
11:18:45:875,39.376,-0.317,0.129,-0.199,82.149,24.698,-84.669
11:18:45:876,39.377,-0.601,-0.142,-0.453,50.208,16.986,-76.074
11:18:45:922,39.424,-0.771,0.376,-0.631,29.455,13.059,-72.343
11:18:45:923,39.425,-0.291,1.084,-0.520,0.595,6.573,-66.184
11:18:45:924,39.425,-0.006,0.573,-0.386,-4.194,2.698,-59.380
11:18:45:959,39.460,-0.260,0.122,-0.402,-1.043,1.857,-54.589
11:18:46:03,39.531,-0.109,0.490,-0.201,-1.831,-0.650,-47.727
11:18:46:127,39.628,0.019,0.351,-0.080,-2.581,-1.921,-34.104
11:18:46:156,39.658,-0.654,-0.023,2.691,-2.423,0.817,-28.892
11:18:46:215,39.716,0.074,0.702,-0.136,-2.209,0.426,-25.319
11:18:46:215,39.717,0.777,-0.379,0.345,-3.793,-7.797,-27.469
11:18:46:216,39.718,0.182,0.274,0.177,-5.694,-11.469,-29.028
11:18:46:32,39.821,-0.109,-0.154,-0.174,-3.187,-8.001,-29.585
11:18:46:321,39.822,-0.085,-0.154,-0.238,-1.237,-6.719,-29.176
11:18:46:321,39.822,-0.114,-0.111,-0.185,-0.058,-6.016,-28.558
11:18:46:322,39.823,-0.108,-0.091,-0.132,1.469,-5.273,-27.265
11:18:46:339,39.841,-0.072,-0.071,-0.106,1.988,-5.588,-26.161
11:18:46:34,39.842,-0.026,-0.033,-0.129,2.266,-6.914,-24.489
11:18:46:422,39.923,-0.050,-0.043,-0.158,2.382,-8.145,-22.728
11:18:46:422,39.924,-0.035,-0.041,-0.173,2.239,-8.983,-21.588
11:18:46:423,39.925,-0.007,-0.003,-0.134,1.730,-10.354,-20.023
11:18:46:582,40.084,0.065,0.025,-0.065,1.331,-11.325,-19.083
11:18:46:583,40.084,0.071,0.031,-0.033,0.678,-12.650,-17.756
11:18:46:584,40.085,0.052,0.016,0.008,-0.158,-14.216,-16.553
11:18:46:584,40.086,0.131,0.043,0.089,-0.940,-16.040,-16.067
11:18:46:603,40.104,0.191,0.062,0.158,-2.098,-19.495,-15.642
11:18:46:604,40.105,0.224,0.051,0.205,-2.799,-21.779,-15.575
11:18:46:628,40.129,0.220,0.061,0.243,-3.515,-24.261,-15.734
11:18:46:629,40.130,0.120,0.019,0.121,-3.578,-24.855,-15.994
11:18:46:652,40.153,0.114,0.006,0.081,-3.433,-24.540,-16.201
11:18:46:707,40.208,0.099,0.007,0.032,-3.029,-23.527,-16.517
11:18:46:708,40.210,0.065,0.002,-0.001,-2.646,-22.566,-16.704
11:18:46:73,40.232,0.034,0.013,-0.013,-2.016,-20.994,-16.930
11:18:46:757,40.258,-0.009,-0.035,-0.040,-1.283,-19.396,-17.000
11:18:46:87,40.371,0.011,-0.029,-0.055,-0.951,-18.693,-17.073
11:18:46:871,40.372,0.004,-0.030,-0.038,-0.713,-18.121,-17.195
11:18:46:872,40.373,-0.002,-0.011,-0.053,-0.714,-17.921,-17.266
11:18:46:873,40.374,-0.001,0.007,-0.035,-0.752,-17.745,-17.356
11:18:46:92,40.421,-0.002,0.005,-0.031,-0.713,-17.650,-17.467
11:18:46:92,40.421,-0.010,-0.009,-0.024,-0.743,-17.636,-17.496
11:18:46:969,40.471,-0.002,-0.026,-0.014,-0.863,-17.883,-17.538
11:18:46:97,40.472,0.002,-0.017,0.000,-0.976,-18.247,-17.604
11:18:46:993,40.494,0.009,-0.007,0.019,-1.141,-18.633,-17.669
11:18:47:045,40.547,0.001,0.005,0.060,-1.318,-19.313,-17.615
11:18:47:161,40.662,0.021,-0.005,0.061,-1.421,-20.190,-17.556
11:18:47:161,40.662,0.052,0.013,0.058,-1.506,-20.854,-17.524
11:18:47:161,40.663,0.067,0.013,0.047,-1.653,-21.805,-17.412
11:18:47:162,40.663,0.075,-0.013,0.032,-1.695,-22.140,-17.318
11:18:47:177,40.678,0.071,-0.028,0.024,-1.666,-22.285,-17.189
11:18:47:261,40.762,0.061,-0.006,0.012,-1.614,-22.117,-17.056
11:18:47:262,40.763,0.055,-0.010,0.004,-1.584,-21.957,-17.064
11:18:47:262,40.764,0.057,-0.009,0.009,-1.553,-21.771,-17.026
11:18:47:31,40.811,0.047,-0.009,-0.001,-1.529,-21.664,-16.997
11:18:47:337,40.838,0.041,-0.009,-0.002,-1.497,-21.413,-16.955
11:18:47:338,40.839,0.038,-0.020,-0.006,-1.515,-21.200,-16.946
11:18:47:389,40.890,0.023,-0.016,-0.002,-1.543,-20.976,-16.936
11:18:47:441,40.942,0.017,-0.023,-0.010,-1.640,-20.667,-16.918
11:18:47:466,40.967,0.015,-0.014,-0.006,-1.801,-20.429,-16.908
11:18:47:553,41.054,0.025,-0.003,-0.008,-1.932,-20.301,-16.894
11:18:47:554,41.055,0.027,0.013,0.006,-2.088,-20.124,-16.826
11:18:47:555,41.056,0.031,0.019,0.006,-2.149,-19.936,-16.755
11:18:47:603,41.105,0.010,0.007,0.028,-2.099,-19.300,-16.559
11:18:47:603,41.105,0.003,0.013,0.031,-2.010,-19.183,-16.494
11:18:47:604,41.105,0.003,0.008,0.019,-1.898,-18.919,-16.390
11:18:47:624,41.125,0.003,-0.004,0.014,-1.821,-18.835,-16.358
11:18:47:677,41.178,-0.001,-0.005,0.010,-1.747,-18.625,-16.342
11:18:47:704,41.206,-0.005,0.000,0.014,-1.696,-18.662,-16.342
11:18:47:705,41.206,-0.007,0.007,0.014,-1.670,-18.621,-16.389
11:18:47:728,41.229,-0.011,-0.008,0.006,-1.628,-18.781,-16.423
11:18:47:755,41.256,0.002,0.001,0.003,-1.615,-18.893,-16.453
11:18:47:838,41.340,0.001,-0.006,0.002,-1.595,-19.155,-16.521
11:18:47:84,41.342,0.019,0.002,0.012,-1.595,-19.355,-16.549
11:18:47:84,41.342,0.024,0.005,0.011,-1.616,-19.826,-16.660
11:18:47:888,41.390,0.028,0.011,0.023,-1.630,-20.259,-16.761
11:18:47:889,41.391,0.033,-0.008,0.011,-1.604,-20.497,-16.856
11:18:47:975,41.476,0.032,-0.010,0.015,-1.574,-20.721,-16.996
11:18:47:975,41.477,0.027,-0.024,0.002,-1.573,-20.876,-17.090
11:18:47:975,41.477,0.045,-0.009,0.011,-1.593,-21.183,-17.217
11:18:47:975,41.477,0.040,-0.012,0.003,-1.592,-21.413,-17.367
11:18:47:991,41.492,0.031,-0.011,-0.002,-1.576,-21.445,-17.438
11:18:48:046,41.547,0.032,-0.006,-0.008,-1.590,-21.638,-17.501
11:18:48:046,41.547,0.029,0.006,0.001,-1.616,-21.639,-17.565
11:18:48:128,41.629,0.032,0.001,0.002,-1.639,-21.601,-17.690
11:18:48:129,41.630,0.022,0.004,0.009,-1.641,-21.489,-17.830
11:18:48:129,41.631,0.008,0.008,0.003,-1.602,-21.259,-17.909
11:18:48:148,41.649,-0.006,0.007,0.006,-1.544,-20.947,-17.973
11:18:48:261,41.763,0.004,-0.012,0.002,-1.518,-20.810,-18.005
11:18:48:262,41.764,0.002,-0.007,0.002,-1.500,-20.667,-18.011
11:18:48:263,41.764,0.015,-0.002,0.004,-1.489,-20.419,-17.994
11:18:48:264,41.765,0.024,-0.001,0.010,-1.444,-20.250,-17.990
11:18:48:28,41.781,0.015,0.023,-0.008,-1.328,-19.520,-17.994
11:18:48:333,41.834,0.060,0.061,0.021,-1.311,-19.017,-17.962
11:18:48:361,41.862,0.096,0.022,0.049,-1.266,-17.972,-17.880
11:18:48:362,41.863,0.120,-0.012,0.096,-1.047,-16.632,-17.983
11:18:48:441,41.942,0.220,0.003,0.146,-0.878,-15.514,-18.252
11:18:48:441,41.942,0.382,0.150,0.246,-0.718,-13.161,-19.297
11:18:48:467,41.969,0.462,0.366,0.128,-0.574,-11.267,-20.714
11:18:48:467,41.969,0.562,0.534,0.090,0.225,-7.481,-24.078
11:18:48:549,42.050,0.475,0.635,-0.045,2.728,-0.886,-29.167
11:18:48:549,42.050,0.265,0.718,-0.106,5.681,4.265,-33.624
11:18:48:549,42.050,0.065,0.686,-0.119,13.006,12.036,-40.897
11:18:48:569,42.070,-0.056,0.717,-0.169,20.144,16.860,-45.867
11:18:48:594,42.096,-0.358,0.467,-0.204,34.934,23.575,-52.940
11:18:48:62,42.122,-0.456,-0.054,-0.130,46.085,27.164,-57.280
11:18:48:647,42.148,-0.396,-0.260,-0.057,60.136,29.841,-63.897
11:18:48:673,42.175,-0.311,-0.196,-0.187,70.600,29.845,-70.685
11:18:48:841,42.343,-0.362,-0.196,-0.257,76.799,29.095,-75.458
11:18:48:841,42.343,-0.249,-0.518,-0.042,84.221,27.504,-82.029
11:18:48:841,42.343,-0.293,-0.319,-0.192,87.744,25.644,-86.393
11:18:48:842,42.343,-0.226,-0.271,-0.220,92.134,21.633,-94.278
11:18:48:862,42.363,-0.054,-0.343,0.006,94.804,15.256,-103.599
11:18:48:863,42.364,-0.003,-0.315,0.105,95.828,9.391,-111.068
11:18:48:864,42.365,-0.103,-0.144,-0.072,96.774,0.715,-122.413
11:18:48:914,42.415,-0.043,-0.237,-0.066,97.146,-5.824,-130.709
11:18:48:914,42.415,-0.037,-0.256,0.004,97.242,-21.567,-148.441
11:18:48:935,42.436,0.002,-0.212,0.113,96.885,-46.316,-174.794
11:18:48:961,42.463,-0.003,-0.161,0.090,96.590,-62.760,167.868
11:18:49:046,42.548,-0.029,-0.147,0.001,96.281,-79.494,150.123
11:18:49:047,42.548,-0.029,-0.146,0.038,96.081,-88.732,140.429
11:18:49:047,42.549,-0.015,-0.074,0.101,95.687,-99.901,128.825
11:18:49:13,42.631,-0.097,-0.017,-0.022,95.468,-104.864,123.618
11:18:49:13,42.631,-0.128,0.002,-0.059,95.467,-106.695,121.594
11:18:49:13,42.631,-0.050,-0.043,0.010,95.579,-110.334,117.727
11:18:49:146,42.647,-0.076,-0.036,-0.031,95.622,-112.488,115.396
11:18:49:201,42.702,-0.077,0.002,-0.025,95.484,-115.366,112.067
11:18:49:201,42.703,-0.078,-0.027,-0.003,95.324,-117.969,109.062
11:18:49:224,42.725,-0.091,-0.028,0.000,95.191,-119.458,107.137
11:18:49:279,42.781,-0.098,-0.064,-0.012,95.019,-121.460,104.618
11:18:49:28,42.781,-0.027,-0.084,0.056,95.008,-122.325,103.440
11:18:49:361,42.863,-0.004,-0.054,0.089,94.909,-123.214,102.062
11:18:49:362,42.863,-0.044,-0.077,0.068,94.731,-123.389,101.128
11:18:49:363,42.864,-0.067,-0.067,0.021,94.696,-123.286,100.920
11:18:49:412,42.913,-0.034,-0.076,0.037,94.773,-122.604,101.148
11:18:49:412,42.913,-0.030,-0.076,0.049,94.798,-122.199,101.294
11:18:49:523,43.024,-0.003,-0.067,0.080,94.952,-121.260,101.917
11:18:49:523,43.024,-0.061,-0.042,0.020,95.108,-120.273,102.743
11:18:49:523,43.024,-0.085,-0.048,0.004,95.341,-118.699,104.094
11:18:49:524,43.025,-0.032,-0.026,0.070,95.680,-117.655,105.097
11:18:49:568,43.069,-0.025,0.026,0.012,95.868,-117.044,105.703
11:18:49:593,43.094,-0.060,0.025,-0.008,95.858,-116.613,106.076
11:18:49:621,43.122,-0.055,-0.008,0.003,95.689,-117.348,105.382
11:18:49:622,43.123,-0.042,0.014,0.021,95.574,-118.188,104.479
11:18:49:644,43.146,-0.018,0.049,0.053,95.332,-119.935,102.955
11:18:49:671,43.172,-0.072,0.014,0.033,95.203,-120.819,102.221
11:18:49:697,43.198,-0.048,0.033,0.037,95.148,-121.819,101.645
11:18:49:81,43.311,-0.115,-0.007,0.032,95.095,-122.558,101.397
11:18:49:811,43.312,-0.152,-0.020,0.019,95.133,-122.815,101.509
11:18:49:812,43.313,-0.090,0.004,-0.005,95.441,-122.643,102.207
11:18:49:858,43.359,-0.064,-0.030,-0.036,96.079,-121.494,104.013
11:18:49:858,43.359,-0.076,-0.043,-0.059,96.377,-120.649,105.068
11:18:49:88,43.382,-0.054,-0.031,-0.041,96.508,-120.174,105.609
11:18:49:907,43.408,-0.078,-0.019,-0.025,96.409,-120.173,105.657
11:18:49:933,43.434,-0.043,-0.044,0.027,96.420,-120.148,105.667
11:18:49:96,43.462,-0.014,-0.017,0.026,96.594,-119.706,106.157
11:18:50:014,43.516,-0.050,-0.013,-0.014,96.778,-119.021,106.871
11:18:50:015,43.517,-0.090,-0.004,-0.010,96.911,-118.694,107.282
11:18:50:067,43.568,-0.046,-0.004,0.000,97.250,-118.104,108.043
11:18:50:068,43.569,-0.037,0.006,-0.001,97.464,-117.772,108.520
11:18:50:09,43.591,-0.059,0.001,0.004,97.463,-117.782,108.686
11:18:50:175,43.676,-0.085,-0.036,-0.020,97.293,-118.124,108.423
11:18:50:175,43.677,-0.049,-0.044,-0.001,97.224,-118.522,108.091
11:18:50:176,43.678,-0.041,-0.014,0.024,97.026,-119.215,107.409
11:18:50:195,43.697,-0.057,-0.038,-0.005,96.904,-119.643,107.037
11:18:50:249,43.750,-0.008,-0.014,0.027,96.818,-120.139,106.536
11:18:50:28,43.781,-0.039,-0.010,-0.009,96.852,-120.222,106.581
11:18:50:28,43.782,-0.085,-0.007,-0.038,96.851,-120.003,106.933
11:18:50:281,43.783,-0.053,0.001,-0.014,96.977,-119.954,107.200
11:18:50:301,43.802,-0.032,0.008,-0.009,97.050,-120.046,107.237
11:18:50:356,43.857,-0.062,0.000,-0.020,96.907,-120.392,107.029
11:18:50:356,43.857,-0.120,0.007,-0.050,96.694,-120.677,106.721
11:18:50:406,43.908,-0.060,0.022,0.006,96.512,-121.381,106.080
11:18:50:464,43.965,-0.045,0.027,0.015,96.339,-122.001,105.486
11:18:50:464,43.966,-0.078,0.008,-0.002,96.151,-122.341,105.102
11:18:50:465,43.967,-0.060,0.004,-0.007,95.970,-122.662,104.696
11:18:50:484,43.985,-0.011,-0.004,0.022,95.933,-122.752,104.606
11:18:50:541,44.042,-0.018,-0.024,0.003,95.860,-122.561,104.826
11:18:50:541,44.042,-0.102,-0.020,-0.055,95.789,-122.038,105.429
11:18:50:563,44.064,-0.075,-0.002,-0.053,95.838,-121.614,105.849
11:18:50:589,44.091,-0.011,0.013,-0.002,96.029,-121.278,106.336
11:18:50:694,44.196,-0.058,-0.002,-0.011,96.137,-121.106,106.592
11:18:50:757,44.259,-0.083,0.014,-0.005,96.173,-120.964,106.809
11:18:50:758,44.259,-0.081,0.007,0.003,96.267,-120.804,106.996
11:18:50:759,44.260,-0.037,0.010,0.033,96.396,-120.597,107.204
11:18:50:76,44.261,-0.037,-0.012,0.017,96.563,-120.096,107.675
11:18:50:776,44.277,-0.069,-0.010,-0.003,96.600,-119.753,107.991
11:18:50:777,44.278,-0.065,-0.023,-0.009,96.714,-119.307,108.383
11:18:50:801,44.302,-0.039,-0.021,0.014,96.848,-119.091,108.551
11:18:50:826,44.328,-0.025,-0.034,0.018,96.861,-119.000,108.624
11:18:50:852,44.353,-0.066,-0.014,-0.001,96.744,-118.831,108.559
11:18:50:878,44.379,-0.035,-0.013,-0.002,96.709,-118.917,108.444
11:18:50:934,44.436,-0.030,0.004,0.017,96.653,-119.235,108.090
11:18:50:934,44.436,-0.066,0.004,0.020,96.595,-119.485,107.810
11:18:50:957,44.458,-0.061,0.007,0.018,96.563,-119.645,107.647
11:18:50:983,44.484,-0.006,0.012,0.044,96.657,-119.508,107.847
11:18:51:067,44.569,-0.046,0.008,0.000,96.726,-119.121,108.237
11:18:51:068,44.569,-0.055,-0.007,-0.021,96.815,-118.589,108.856
11:18:51:069,44.570,-0.055,-0.007,-0.018,96.850,-118.417,109.074
11:18:51:088,44.589,-0.056,-0.008,-0.006,96.798,-118.539,108.969
11:18:51:114,44.615,-0.041,-0.020,0.010,96.677,-118.837,108.629
11:18:51:17,44.671,-0.034,-0.016,0.012,96.602,-119.025,108.419
11:18:51:17,44.672,-0.045,-0.013,0.000,96.477,-119.126,108.290
11:18:51:193,44.694,-0.044,-0.004,-0.012,96.469,-119.007,108.353
11:18:51:25,44.751,-0.017,0.004,0.002,96.568,-118.762,108.473
11:18:51:25,44.751,-0.012,0.010,0.007,96.621,-118.495,108.714
11:18:51:272,44.773,-0.068,0.007,-0.029,96.604,-118.309,108.868
11:18:51:328,44.829,-0.073,0.019,-0.019,96.638,-118.246,108.912
11:18:51:328,44.829,-0.009,0.011,0.021,96.693,-118.381,108.811
11:18:51:35,44.852,-0.029,0.010,0.007,96.672,-118.595,108.633
11:18:51:379,44.880,-0.072,0.003,-0.008,96.596,-118.687,108.562
11:18:51:404,44.905,-0.055,-0.003,-0.019,96.584,-118.793,108.446
11:18:51:429,44.930,-0.016,-0.028,0.014,96.600,-118.925,108.342
11:18:51:456,44.957,-0.012,-0.033,0.004,96.608,-118.802,108.489
11:18:51:482,44.983,-0.077,-0.037,-0.024,96.538,-118.701,108.583
11:18:51:508,45.009,-0.042,-0.018,-0.009,96.584,-118.738,108.534
11:18:51:534,45.035,-0.017,-0.022,0.012,96.673,-118.658,108.608
11:18:51:561,45.062,-0.012,-0.014,-0.006,96.717,-118.284,108.986
11:18:51:587,45.088,-0.062,-0.030,-0.040,96.640,-118.168,109.086
11:18:51:614,45.115,-0.022,-0.063,-0.003,96.453,-118.635,108.579
11:18:51:639,45.140,0.024,-0.167,0.073,96.169,-119.387,107.773
11:18:51:665,45.167,0.106,-0.382,0.117,95.918,-119.272,107.814
11:18:51:721,45.223,0.174,-0.755,0.142,95.282,-117.280,109.820
11:18:51:722,45.223,0.173,-0.913,0.125,94.715,-111.913,115.260
11:18:51:744,45.245,0.043,-1.134,0.015,93.520,-43.479,-176.163
11:18:51:77,45.271,-0.203,-0.978,-0.047,91.684,35.198,-97.039
11:18:51:825,45.326,-0.257,-0.810,0.016,90.213,40.886,-90.517
11:18:51:852,45.354,-0.284,-0.779,0.040,87.811,42.084,-86.694
11:18:51:853,45.354,-0.409,-0.782,0.007,85.584,41.492,-84.558
11:18:51:875,45.377,-0.518,-0.479,-0.052,79.318,40.274,-79.604
11:18:51:902,45.403,-0.662,-0.381,0.135,68.362,38.361,-72.800
11:18:51:928,45.429,-1.062,-0.061,-0.248,56.214,35.242,-68.184
11:18:51:955,45.456,-1.102,1.131,-0.878,29.830,25.985,-61.224
11:18:52:038,45.540,-1.441,0.927,-0.649,15.546,18.294,-54.579
11:18:52:039,45.541,-0.151,2.368,-0.967,-0.471,4.317,-43.752
11:18:52:04,45.541,0.746,1.146,-0.165,-3.889,-2.268,-35.213
11:18:52:06,45.561,0.321,0.529,-0.147,-1.821,0.404,-29.952
11:18:52:114,45.616,2.212,1.809,3.188,-3.521,-1.415,-25.085
11:18:52:115,45.617,1.264,1.290,-0.594,-9.157,-19.661,-25.384
11:18:52:138,45.639,0.758,-0.266,0.360,-13.461,-25.177,-29.183
11:18:52:164,45.666,0.057,-0.443,0.070,-13.392,-21.253,-27.694
11:18:52:271,45.772,0.095,-0.312,-0.249,-10.731,-16.330,-30.225
11:18:52:299,45.801,0.079,-0.208,-0.191,-9.850,-15.238,-30.814
11:18:52:3,45.801,0.009,-0.145,-0.220,-8.353,-14.183,-30.995
11:18:52:328,45.829,-0.047,-0.210,-0.231,-5.097,-11.927,-30.651
11:18:52:328,45.829,-0.049,-0.135,-0.169,-2.078,-11.119,-29.395
11:18:52:329,45.830,-0.012,-0.095,-0.165,-0.406,-11.587,-28.087
11:18:52:435,45.937,0.027,0.007,-0.236,1.338,-13.066,-25.834
11:18:52:436,45.938,0.042,0.039,-0.216,1.801,-14.423,-24.509
11:18:52:438,45.939,0.090,0.058,-0.214,1.688,-16.565,-22.820
11:18:52:438,45.939,0.128,0.057,-0.213,0.989,-18.669,-21.496
11:18:52:454,45.956,0.161,0.036,-0.147,0.162,-20.089,-20.911
11:18:52:481,45.982,0.192,0.050,-0.077,-1.179,-21.278,-20.426
11:18:52:538,46.039,0.120,0.061,0.044,-1.928,-21.127,-20.337
11:18:52:538,46.040,0.037,0.007,0.196,-2.800,-19.887,-20.504
11:18:52:539,46.040,-0.037,0.053,0.465,-3.636,-19.706,-20.758
11:18:52:594,46.096,0.015,0.103,0.574,-3.864,-20.730,-21.009
11:18:52:594,46.096,-0.090,-0.118,0.103,-3.712,-21.303,-21.169
11:18:52:699,46.200,0.011,-0.007,0.067,-4.117,-22.129,-21.284
11:18:52:699,46.201,0.088,0.060,0.120,-4.986,-24.265,-21.329
11:18:52:7,46.202,0.058,0.041,0.017,-4.951,-24.823,-21.302
11:18:52:701,46.203,-0.015,-0.019,-0.063,-4.232,-23.718,-21.020
11:18:52:715,46.217,0.019,-0.011,-0.078,-3.442,-22.693,-20.617
11:18:52:742,46.243,0.028,-0.006,-0.058,-3.044,-22.215,-20.216
11:18:52:826,46.327,0.049,-0.005,-0.036,-2.760,-21.716,-19.543
11:18:52:827,46.328,0.053,-0.001,-0.015,-2.682,-21.486,-19.152
11:18:52:828,46.329,0.048,-0.004,-0.017,-2.586,-21.280,-18.631
11:18:52:847,46.348,0.062,0.008,0.011,-2.521,-21.174,-18.214
11:18:52:903,46.404,0.063,0.009,0.010,-2.498,-20.994,-18.021
11:18:52:903,46.404,0.041,0.013,0.025,-2.407,-20.594,-17.804
11:18:52:983,46.484,0.029,0.006,0.024,-2.310,-20.178,-17.683
11:18:52:983,46.484,0.042,-0.004,0.020,-2.152,-19.582,-17.546
11:18:53:008,46.509,0.026,-0.017,0.009,-1.997,-18.943,-17.568
11:18:53:008,46.509,0.005,-0.023,0.010,-1.869,-18.566,-17.600
11:18:53:031,46.532,-0.015,-0.010,-0.004,-1.679,-18.103,-17.630
11:18:53:116,46.617,-0.001,-0.001,-0.009,-1.556,-17.896,-17.630
11:18:53:116,46.618,-0.001,0.015,-0.018,-1.472,-17.638,-17.633
11:18:53:117,46.619,0.014,0.006,0.015,-1.414,-17.476,-17.646
11:18:53:135,46.636,0.006,0.004,0.031,-1.307,-17.142,-17.630
11:18:53:162,46.663,-0.043,-0.023,0.029,-1.051,-16.490,-17.498
11:18:53:217,46.718,-0.024,-0.006,0.015,-0.988,-16.174,-17.406
11:18:53:219,46.720,0.002,0.003,0.033,-1.087,-16.395,-17.388
11:18:53:267,46.768,0.000,0.001,0.034,-1.207,-16.598,-17.345
11:18:53:297,46.799,0.011,-0.022,0.028,-1.196,-16.705,-17.240
11:18:53:297,46.799,0.034,-0.028,0.047,-1.143,-16.684,-17.121
11:18:53:407,46.908,0.041,-0.034,0.072,-1.027,-16.586,-17.057
11:18:53:407,46.908,-0.043,-0.025,0.030,-0.790,-16.156,-16.826
11:18:53:408,46.909,-0.043,0.048,-0.029,-0.720,-16.073,-16.422
11:18:53:428,46.930,0.109,0.014,-0.007,-1.484,-17.854,-16.136
11:18:53:509,47.010,0.095,0.039,0.015,-1.802,-18.200,-16.155
11:18:53:509,47.011,0.016,-0.007,-0.020,-1.847,-17.718,-16.225
11:18:53:51,47.011,0.005,-0.023,-0.004,-1.864,-17.350,-16.365
11:18:53:529,47.030,0.029,-0.026,0.003,-1.969,-17.272,-16.614
11:18:53:555,47.057,0.027,-0.027,-0.011,-2.088,-17.489,-16.695
11:18:53:583,47.084,0.046,-0.009,-0.004,-2.184,-17.806,-16.698
11:18:53:695,47.197,0.026,-0.006,-0.004,-2.285,-18.243,-16.620
11:18:53:696,47.197,0.037,0.001,-0.002,-2.311,-18.351,-16.478
11:18:53:697,47.198,0.045,0.002,0.015,-2.327,-18.417,-16.260
11:18:53:697,47.199,0.033,0.010,0.016,-2.304,-18.097,-16.101
11:18:53:713,47.215,0.027,0.009,0.028,-2.287,-17.746,-16.052
11:18:53:797,47.298,0.009,0.003,0.036,-2.247,-17.071,-16.104
11:18:53:798,47.299,-0.005,-0.015,0.040,-2.204,-16.631,-16.177
11:18:53:799,47.300,0.001,-0.009,0.034,-2.153,-16.091,-16.331
11:18:53:818,47.320,-0.020,-0.013,0.038,-2.090,-15.787,-16.487
11:18:53:901,47.402,0.001,-0.012,0.036,-2.058,-15.770,-16.586
11:18:53:901,47.402,0.010,-0.002,0.013,-2.021,-15.918,-16.760
11:18:53:985,47.486,0.000,0.000,-0.001,-1.988,-15.966,-16.853
11:18:53:986,47.487,-0.003,0.001,-0.007,-1.951,-16.145,-16.986
11:18:53:986,47.487,0.004,-0.008,-0.002,-1.951,-16.168,-17.110
11:18:53:986,47.488,0.000,-0.005,-0.006,-1.949,-16.177,-17.201
11:18:54:002,47.503,0.002,0.003,-0.007,-1.926,-16.078,-17.323
11:18:54:086,47.587,-0.003,-0.008,-0.019,-1.891,-16.118,-17.387
11:18:54:086,47.588,-0.012,-0.004,-0.014,-1.850,-15.953,-17.450
11:18:54:087,47.589,-0.016,0.008,-0.018,-1.827,-15.865,-17.531
11:18:54:107,47.608,-0.018,0.003,-0.012,-1.839,-15.802,-17.592
11:18:54:274,47.775,-0.014,0.004,-0.014,-1.888,-15.768,-17.717
11:18:54:274,47.775,-0.017,0.000,-0.005,-1.932,-15.736,-17.813
11:18:54:274,47.775,-0.027,-0.005,-0.008,-1.983,-15.615,-17.975
11:18:54:299,47.800,-0.028,-0.012,0.005,-2.011,-15.489,-18.127
11:18:54:3,47.801,-0.028,-0.014,-0.004,-2.018,-15.391,-18.225
11:18:54:301,47.802,-0.034,-0.008,0.004,-1.995,-15.313,-18.316
11:18:54:301,47.803,-0.034,-0.011,-0.005,-1.965,-15.262,-18.331
11:18:54:375,47.876,-0.034,-0.016,-0.007,-1.886,-15.235,-18.281
11:18:54:375,47.877,-0.015,-0.015,-0.010,-1.844,-15.332,-18.230
11:18:54:376,47.878,-0.010,-0.006,-0.007,-1.825,-15.471,-18.192
11:18:54:395,47.896,-0.011,0.003,-0.018,-1.771,-15.535,-18.107
11:18:54:422,47.923,-0.016,-0.001,-0.018,-1.713,-15.510,-18.032
11:18:54:477,47.978,-0.018,-0.013,-0.016,-1.647,-15.466,-17.917
11:18:54:478,47.979,-0.026,-0.001,-0.015,-1.598,-15.465,-17.827
11:18:54:5,48.002,-0.022,0.003,-0.014,-1.581,-15.523,-17.791
11:18:54:527,48.028,-0.016,-0.002,-0.006,-1.583,-15.763,-17.748
11:18:54:582,48.083,-0.013,-0.006,-0.005,-1.598,-16.051,-17.734
11:18:54:583,48.084,-0.013,-0.004,-0.004,-1.657,-16.603,-17.737
11:18:54:693,48.194,0.002,0.002,0.001,-1.720,-17.009,-17.777
11:18:54:694,48.195,0.008,0.001,0.003,-1.819,-17.659,-17.862
11:18:54:695,48.196,0.014,-0.003,0.001,-1.915,-18.291,-17.918
11:18:54:771,48.273,0.021,0.001,0.007,-2.059,-19.205,-17.969
11:18:54:772,48.274,0.012,-0.001,-0.003,-2.074,-19.389,-17.961
11:18:54:773,48.275,-0.002,0.000,-0.001,-2.012,-19.354,-17.899
11:18:54:774,48.275,-0.016,0.007,-0.009,-1.924,-19.197,-17.812
11:18:54:789,48.291,-0.021,0.014,-0.008,-1.867,-19.131,-17.740
11:18:54:871,48.372,-0.021,0.006,-0.015,-1.807,-19.206,-17.656
11:18:54:872,48.373,-0.020,-0.012,-0.007,-1.794,-19.303,-17.600
11:18:54:895,48.396,-0.023,0.002,-0.013,-1.798,-19.628,-17.561
11:18:54:953,48.454,-0.014,0.000,0.005,-1.836,-20.029,-17.551
11:18:54:953,48.454,-0.024,0.005,-0.009,-1.841,-20.289,-17.540
11:18:54:954,48.455,-0.025,0.009,-0.005,-1.821,-20.803,-17.476
11:18:54:973,48.474,-0.005,-0.011,-0.004,-1.821,-21.314,-17.422
11:18:55:057,48.558,0.015,-0.011,0.008,-1.946,-22.464,-17.382
11:18:55:058,48.559,0.041,0.007,0.018,-2.160,-23.753,-17.335
11:18:55:059,48.560,0.049,0.007,0.028,-2.296,-24.516,-17.309
11:18:55:078,48.580,0.050,-0.004,0.034,-2.463,-25.467,-17.240
11:18:55:163,48.664,0.055,-0.009,0.035,-2.525,-25.975,-17.296
11:18:55:164,48.665,0.060,0.005,0.034,-2.577,-26.506,-17.414
11:18:55:165,48.666,0.054,0.016,0.028,-2.552,-26.649,-17.496
11:18:55:242,48.743,0.034,0.018,0.018,-2.415,-26.509,-17.550
11:18:55:242,48.744,0.015,0.003,0.011,-2.273,-26.423,-17.498
11:18:55:242,48.744,0.015,-0.014,0.008,-2.234,-26.354,-17.487
11:18:55:349,48.850,0.027,-0.007,0.012,-2.272,-26.459,-17.573
11:18:55:35,48.851,0.022,-0.003,0.011,-2.301,-26.193,-17.702
11:18:55:351,48.852,0.008,-0.007,0.000,-2.287,-25.953,-17.735
11:18:55:352,48.853,-0.005,-0.002,-0.007,-2.270,-25.428,-17.754
11:18:55:368,48.869,0.000,-0.013,0.004,-2.248,-25.109,-17.747
11:18:55:48,48.981,-0.012,-0.008,0.002,-2.192,-24.570,-17.709
11:18:55:481,48.982,-0.012,0.015,-0.005,-2.144,-24.161,-17.630
11:18:55:482,48.983,-0.008,0.003,0.001,-2.132,-23.962,-17.572
11:18:55:483,48.984,0.005,-0.016,0.002,-2.143,-23.830,-17.522
11:18:55:527,49.028,0.004,-0.009,0.004,-2.141,-23.755,-17.527
11:18:55:528,49.029,0.003,0.000,-0.006,-2.113,-23.578,-17.530
11:18:55:638,49.139,-0.002,0.002,-0.004,-2.095,-23.465,-17.537
11:18:55:639,49.141,0.005,0.001,-0.010,-2.084,-23.492,-17.543
11:18:55:64,49.141,0.004,-0.002,-0.007,-2.085,-23.397,-17.549
11:18:55:64,49.142,0.007,-0.011,-0.006,-2.088,-23.306,-17.569
11:18:55:657,49.158,0.002,-0.011,-0.001,-2.111,-23.131,-17.619
11:18:55:74,49.241,-0.008,0.003,-0.006,-2.127,-22.968,-17.629
11:18:55:741,49.242,-0.006,0.008,-0.006,-2.144,-22.720,-17.625
11:18:55:742,49.243,0.001,-0.001,-0.002,-2.156,-22.463,-17.581
11:18:55:76,49.262,0.000,-0.005,0.002,-2.165,-22.281,-17.541
11:18:55:84,49.341,-0.004,-0.001,-0.001,-2.187,-21.947,-17.503
11:18:55:87,49.372,-0.006,0.011,0.001,-2.209,-21.764,-17.494
11:18:55:87,49.372,-0.003,0.006,0.007,-2.221,-21.366,-17.463
11:18:55:924,49.425,-0.024,0.001,-0.009,-2.157,-20.860,-17.415
11:18:55:925,49.426,-0.021,0.010,-0.009,-2.126,-20.649,-17.374
11:18:55:925,49.426,-0.004,-0.001,-0.002,-2.125,-20.505,-17.311
11:18:55:944,49.445,-0.004,-0.005,0.004,-2.126,-20.395,-17.272
11:18:56:029,49.530,-0.005,-0.006,0.000,-2.115,-20.121,-17.210
11:18:56:029,49.530,-0.011,0.001,-0.004,-2.067,-19.739,-17.146
11:18:56:03,49.531,-0.008,0.000,-0.011,-2.041,-19.527,-17.094
11:18:56:05,49.551,-0.006,0.005,-0.005,-2.018,-19.251,-16.988
11:18:56:129,49.630,-0.005,0.010,-0.007,-1.995,-19.090,-16.916
11:18:56:161,49.662,-0.005,-0.002,0.000,-1.964,-18.791,-16.805
11:18:56:161,49.662,0.002,-0.010,-0.002,-1.965,-18.576,-16.732
11:18:56:162,49.663,0.007,-0.004,0.006,-1.966,-18.462,-16.689
11:18:56:209,49.711,-0.003,0.002,-0.002,-1.927,-18.258,-16.632
11:18:56:21,49.712,-0.007,0.000,-0.002,-1.882,-18.074,-16.595
11:18:56:233,49.734,-0.004,-0.002,-0.007,-1.840,-17.945,-16.552
11:18:56:318,49.819,-0.005,0.010,-0.002,-1.818,-17.869,-16.544
11:18:56:318,49.819,-0.005,0.011,-0.008,-1.788,-17.773,-16.545
11:18:56:319,49.820,0.005,-0.011,0.003,-1.749,-17.658,-16.548
11:18:56:338,49.839,-0.004,0.002,-0.006,-1.714,-17.563,-16.550
11:18:56:422,49.923,-0.007,-0.002,-0.003,-1.652,-17.462,-16.552
11:18:56:423,49.924,0.000,-0.011,-0.006,-1.602,-17.444,-16.547
11:18:56:424,49.925,-0.003,-0.005,-0.006,-1.567,-17.419,-16.538
11:18:56:444,49.945,-0.003,0.002,-0.005,-1.499,-17.353,-16.535
11:18:56:499,50.000,-0.005,0.001,-0.008,-1.450,-17.300,-16.536
11:18:56:499,50.000,-0.006,-0.002,-0.007,-1.391,-17.223,-16.523
11:18:56:522,50.024,-0.008,-0.006,-0.007,-1.384,-17.309,-16.557
11:18:56:548,50.050,-0.006,0.001,-0.003,-1.384,-17.304,-16.582
11:18:56:604,50.105,-0.004,-0.005,0.009,-1.358,-17.267,-16.623
11:18:56:604,50.105,-0.007,-0.005,0.008,-1.311,-17.199,-16.629
11:18:56:627,50.128,-0.010,-0.003,0.007,-1.245,-17.143,-16.625
11:18:56:713,50.214,-0.001,-0.008,0.007,-1.211,-17.153,-16.631
11:18:56:713,50.214,-0.001,-0.003,0.001,-1.160,-17.155,-16.666
11:18:56:713,50.214,0.000,0.004,0.001,-1.103,-17.117,-16.723
11:18:56:732,50.233,0.007,0.005,-0.010,-1.055,-17.069,-16.758
11:18:56:811,50.312,0.047,0.028,0.039,-1.070,-17.061,-16.814
11:18:56:871,50.373,0.276,0.090,0.280,-1.206,-16.936,-16.988
11:18:56:872,50.373,0.447,0.129,0.304,-0.956,-15.952,-17.683
11:18:56:873,50.374,0.479,0.355,0.055,-0.010,-12.061,-19.976
11:18:56:874,50.375,0.517,0.610,0.105,0.623,-8.363,-22.395
11:18:56:919,50.420,0.553,0.618,0.065,2.363,-2.262,-28.218
11:18:56:919,50.420,0.430,0.851,-0.106,6.492,3.775,-36.053
11:18:56:971,50.472,0.131,0.828,-0.161,11.727,8.269,-41.763
11:18:56:972,50.473,-0.218,0.588,-0.179,24.816,15.259,-50.034
11:18:56:994,50.495,-0.391,0.261,-0.189,36.099,18.854,-55.440
11:18:57:02,50.521,-0.339,0.000,-0.152,52.953,21.938,-63.399
11:18:57:079,50.581,-0.293,-0.064,-0.180,62.722,22.863,-68.534
11:18:57:08,50.581,-0.337,-0.103,-0.227,74.959,23.246,-75.995
11:18:57:08,50.581,-0.367,-0.159,-0.312,84.181,22.865,-83.236
11:18:57:184,50.685,-0.239,-0.383,-0.097,92.407,20.338,-94.566
11:18:57:185,50.686,-0.193,-0.414,-0.045,94.194,18.191,-99.672
11:18:57:207,50.709,-0.082,-0.423,0.004,95.958,13.767,-108.032
11:18:57:208,50.709,-0.034,-0.394,-0.004,96.792,8.613,-116.248
11:18:57:289,50.790,-0.046,-0.355,-0.001,96.936,5.399,-121.060
11:18:57:289,50.791,-0.139,-0.278,-0.053,96.788,0.972,-127.496
11:18:57:29,50.792,-0.121,-0.259,-0.046,96.532,-3.756,-133.368
11:18:57:396,50.898,-0.059,-0.276,0.055,96.018,-17.178,-148.062
11:18:57:398,50.900,-0.045,-0.227,0.095,95.474,-32.537,-164.388
11:18:57:399,50.900,-0.099,-0.186,0.054,95.075,-41.020,-173.432
11:18:57:399,50.900,-0.120,-0.130,0.021,94.675,-58.445,168.439
11:18:57:414,50.916,-0.070,-0.136,0.047,94.500,-70.918,155.540
11:18:57:441,50.942,-0.053,-0.107,0.074,94.209,-84.354,141.586
11:18:57:467,50.968,-0.053,-0.053,0.084,93.923,-90.510,135.004
11:18:57:493,50.994,-0.059,-0.051,0.049,93.862,-91.121,134.125
11:18:57:549,51.050,-0.061,-0.089,0.019,93.869,-90.342,134.549
11:18:57:55,51.051,-0.035,-0.071,0.049,93.841,-91.960,132.766
11:18:57:572,51.073,0.006,-0.064,0.064,93.699,-96.432,128.233
11:18:57:598,51.099,-0.041,-0.052,0.024,93.553,-98.013,126.644
11:18:57:679,51.181,-0.077,-0.053,-0.040,92.977,-94.495,129.930
11:18:57:681,51.182,-0.094,-0.043,0.018,92.775,-92.752,131.539
