Time,Second,AccelerationX,AccelerationY,AccelerationZ,EulerAnglesX,EulerAnglesY,EulerAnglesZ
11:11:48:632,0.000,0.007,-0.004,-0.018,-10.013,-26.238,11.797
11:11:48:632,0.000,0.004,-0.012,-0.016,-10.041,-26.164,11.953
11:11:48:654,0.023,0.000,-0.011,-0.031,-10.079,-26.124,12.070
11:11:48:68,0.048,0.006,-0.003,-0.021,-10.126,-26.069,12.230
11:11:48:706,0.075,-0.004,-0.008,-0.018,-10.114,-26.059,12.328
11:11:48:733,0.101,-0.006,-0.006,-0.017,-10.088,-26.051,12.454
11:11:48:76,0.128,-0.008,-0.017,-0.038,-10.082,-25.999,12.559
11:11:48:785,0.154,-0.004,-0.017,-0.012,-10.087,-25.954,12.628
11:11:48:812,0.180,0.012,0.007,-0.012,-10.110,-25.928,12.736
11:11:48:838,0.206,0.001,-0.011,-0.007,-10.078,-25.975,12.851
11:11:48:864,0.233,0.006,-0.008,-0.016,-10.049,-26.002,13.068
11:11:48:89,0.258,-0.012,-0.007,-0.021,-10.067,-25.939,13.315
11:11:48:918,0.286,-0.004,-0.005,-0.018,-10.101,-25.902,13.488
11:11:48:944,0.312,-0.017,-0.013,-0.011,-10.178,-25.857,13.736
11:11:48:999,0.367,-0.010,-0.010,-0.016,-10.253,-25.873,13.903
11:11:48:999,0.367,-0.007,-0.005,-0.025,-10.376,-25.989,14.150
11:11:49:021,0.390,-0.010,-0.010,-0.035,-10.538,-26.121,14.372
11:11:49:048,0.416,0.007,-0.006,-0.017,-10.633,-26.175,14.478
11:11:49:074,0.442,0.009,-0.005,-0.013,-10.735,-26.182,14.612
11:11:49:1,0.469,0.002,-0.005,-0.018,-10.787,-26.127,14.715
11:11:49:126,0.495,-0.003,-0.010,-0.018,-10.891,-26.034,14.841
11:11:49:153,0.521,-0.011,-0.014,-0.028,-10.955,-25.986,14.923
11:11:49:179,0.547,-0.003,-0.004,-0.019,-11.094,-25.980,15.031
11:11:49:205,0.573,-0.008,-0.005,-0.042,-11.225,-26.009,15.099
11:11:49:231,0.600,-0.007,-0.007,-0.032,-11.318,-26.021,15.117
11:11:49:259,0.628,0.007,-0.003,-0.029,-11.448,-26.002,15.090
11:11:49:285,0.653,0.007,-0.003,-0.010,-11.520,-25.949,15.050
11:11:49:313,0.681,0.008,0.003,-0.009,-11.595,-25.850,15.035
11:11:49:314,0.682,0.017,-0.006,-0.007,-11.630,-25.709,15.058
11:11:49:365,0.734,0.008,-0.011,-0.017,-11.629,-25.511,15.098
11:11:49:366,0.735,-0.016,-0.010,-0.013,-11.637,-25.110,15.158
11:11:49:418,0.787,-0.032,-0.005,-0.050,-11.667,-24.926,15.199
11:11:49:419,0.787,-0.012,-0.006,-0.041,-11.667,-24.817,15.219
11:11:49:442,0.810,-0.002,-0.003,-0.024,-11.674,-24.785,15.207
11:11:49:468,0.836,0.005,-0.006,-0.008,-11.616,-24.705,15.110
11:11:49:494,0.862,-0.014,-0.005,-0.024,-11.555,-24.623,15.001
11:11:49:52,0.888,-0.018,-0.014,-0.017,-11.528,-24.602,14.949
11:11:49:546,0.915,0.005,0.002,-0.013,-11.505,-24.669,14.847
11:11:49:602,0.970,-0.004,-0.001,-0.022,-11.510,-24.701,14.761
11:11:49:602,0.971,-0.011,-0.005,-0.031,-11.533,-24.705,14.613
11:11:49:626,0.994,0.002,-0.013,-0.001,-11.558,-24.793,14.411
11:11:49:651,1.020,0.000,-0.013,0.000,-11.564,-24.845,14.235
11:11:49:677,1.046,-0.005,-0.013,-0.002,-11.620,-24.922,13.964
11:11:49:704,1.072,0.008,-0.011,-0.005,-11.684,-25.053,13.811
11:11:49:732,1.100,0.022,0.002,-0.007,-11.777,-25.256,13.606
11:11:49:757,1.125,0.020,-0.010,-0.016,-11.873,-25.299,13.426
11:11:49:782,1.151,-0.006,-0.005,-0.020,-11.932,-25.231,13.333
11:11:49:809,1.177,-0.017,-0.006,-0.025,-11.987,-25.146,13.184
11:11:49:835,1.204,-0.012,-0.009,-0.016,-12.008,-25.139,13.071
11:11:49:861,1.230,-0.010,-0.009,-0.016,-12.058,-25.195,12.879
11:11:49:889,1.257,-0.009,0.005,-0.020,-12.102,-25.269,12.758
11:11:49:914,1.282,-0.015,0.002,-0.013,-12.190,-25.497,12.597
11:11:49:94,1.309,0.010,0.006,-0.027,-12.288,-25.748,12.415
11:11:49:966,1.334,0.017,-0.025,-0.002,-12.319,-25.840,12.283
11:11:49:992,1.361,0.016,-0.015,-0.020,-12.394,-25.887,12.123
11:11:50:019,1.387,0.016,-0.014,-0.009,-12.448,-25.894,12.049
11:11:50:046,1.414,0.003,-0.003,-0.032,-12.549,-25.937,12.027
11:11:50:072,1.441,-0.003,-0.004,-0.015,-12.644,-26.011,12.054
11:11:50:098,1.466,-0.007,-0.006,-0.024,-12.691,-26.070,12.083
11:11:50:124,1.493,0.001,0.003,-0.025,-12.744,-26.185,12.097
11:11:50:15,1.518,-0.003,-0.001,-0.029,-12.767,-26.222,12.064
11:11:50:206,1.574,-0.006,-0.001,-0.024,-12.761,-26.222,11.973
11:11:50:206,1.575,0.006,-0.007,-0.011,-12.742,-26.240,11.886
11:11:50:229,1.598,0.006,-0.004,-0.014,-12.690,-26.274,11.739
11:11:50:258,1.626,-0.002,-0.005,-0.017,-12.638,-26.234,11.596
11:11:50:281,1.649,-0.003,-0.006,-0.016,-12.576,-26.173,11.489
11:11:50:34,1.708,-0.007,-0.007,-0.015,-12.505,-26.074,11.332
11:11:50:34,1.708,-0.004,-0.006,-0.015,-12.450,-26.055,11.248
11:11:50:36,1.729,0.004,-0.008,-0.014,-12.395,-26.069,11.123
11:11:50:388,1.757,0.004,-0.011,-0.018,-12.349,-26.082,11.036
11:11:50:413,1.781,0.004,-0.004,-0.016,-12.282,-26.068,10.919
11:11:50:439,1.808,0.000,-0.010,0.000,-12.208,-26.017,10.835
11:11:50:465,1.833,0.007,-0.006,-0.011,-12.174,-25.976,10.797
11:11:50:491,1.860,-0.002,-0.007,-0.013,-12.126,-25.887,10.774
11:11:50:518,1.886,-0.007,-0.002,-0.014,-12.092,-25.846,10.772
11:11:50:545,1.914,-0.001,0.005,-0.016,-12.083,-25.848,10.801
11:11:50:571,1.939,0.002,-0.007,-0.019,-12.086,-25.907,10.851
11:11:50:596,1.965,-0.009,-0.011,-0.019,-12.076,-25.905,10.884
11:11:50:623,1.991,-0.003,-0.004,-0.013,-12.056,-25.932,10.933
11:11:50:649,2.017,0.001,-0.006,-0.025,-12.048,-25.977,10.967
11:11:50:675,2.043,0.006,0.001,-0.019,-12.049,-26.019,11.009
11:11:50:701,2.070,0.000,-0.006,-0.023,-12.024,-26.017,11.058
11:11:50:727,2.096,-0.013,-0.010,-0.014,-12.006,-26.026,11.099
11:11:50:754,2.123,-0.001,-0.007,-0.007,-11.991,-26.143,11.177
11:11:50:78,2.148,0.006,-0.004,-0.008,-11.993,-26.262,11.251
11:11:50:806,2.175,0.011,-0.007,-0.025,-12.020,-26.411,11.384
11:11:50:861,2.230,0.008,-0.001,-0.017,-12.040,-26.453,11.485
11:11:50:862,2.231,0.004,0.001,-0.021,-12.036,-26.413,11.655
11:11:50:887,2.255,-0.003,-0.010,-0.020,-12.011,-26.319,11.815
11:11:50:913,2.281,-0.002,-0.011,-0.025,-11.990,-26.247,11.922
11:11:50:938,2.307,-0.002,-0.002,-0.005,-11.959,-26.141,12.069
11:11:50:964,2.333,-0.003,-0.010,-0.022,-11.941,-26.059,12.186
11:11:50:99,2.358,-0.005,-0.007,-0.019,-11.914,-25.939,12.347
11:11:51:017,2.386,0.004,-0.005,-0.013,-11.893,-25.826,12.506
11:11:51:043,2.411,0.017,0.013,-0.018,-11.886,-25.731,12.631
11:11:51:069,2.438,-0.014,-0.012,-0.024,-11.843,-25.471,12.814
11:11:51:095,2.464,-0.016,0.005,-0.031,-11.814,-25.287,12.929
11:11:51:121,2.490,-0.013,-0.013,-0.011,-11.678,-25.205,13.091
11:11:51:148,2.516,-0.002,-0.009,-0.014,-11.612,-25.206,13.245
11:11:51:175,2.543,0.006,-0.005,-0.014,-11.596,-25.186,13.325
11:11:51:2,2.568,0.012,-0.009,-0.010,-11.569,-25.106,13.450
11:11:51:227,2.595,0.007,-0.006,-0.016,-11.562,-24.983,13.530
11:11:51:253,2.621,-0.019,-0.006,-0.018,-11.539,-24.649,13.643
11:11:51:279,2.647,-0.013,-0.006,-0.018,-11.528,-24.406,13.684
11:11:51:305,2.673,-0.001,-0.003,-0.037,-11.504,-24.112,13.673
11:11:51:332,2.701,-0.013,-0.009,-0.026,-11.468,-23.819,13.623
11:11:51:358,2.726,-0.020,-0.007,-0.019,-11.424,-23.630,13.547
11:11:51:413,2.781,-0.019,-0.009,-0.014,-11.348,-23.504,13.430
11:11:51:414,2.782,0.005,-0.010,-0.019,-11.310,-23.494,13.313
11:11:51:465,2.834,-0.002,0.002,-0.026,-11.271,-23.518,13.129
11:11:51:466,2.835,-0.002,0.007,-0.021,-11.162,-23.632,12.996
11:11:51:49,2.859,-0.001,-0.014,-0.003,-11.067,-23.733,12.953
11:11:51:515,2.884,0.007,-0.011,-0.013,-10.961,-23.912,12.912
11:11:51:542,2.910,-0.001,-0.010,-0.012,-10.945,-24.009,12.904
11:11:51:568,2.936,0.009,-0.004,-0.025,-10.936,-24.121,12.921
11:11:51:594,2.962,-0.007,-0.010,-0.024,-10.951,-24.150,12.934
11:11:51:623,2.991,-0.008,-0.007,-0.023,-10.974,-24.165,12.943
11:11:51:624,2.992,-0.002,-0.004,-0.006,-10.963,-24.247,12.940
11:11:51:705,3.073,-0.005,-0.004,-0.018,-10.977,-24.329,12.960
11:11:51:705,3.074,-0.008,-0.011,-0.013,-11.024,-24.471,12.998
11:11:51:706,3.075,-0.002,-0.003,-0.015,-11.069,-24.569,13.021
11:11:51:725,3.093,-0.008,-0.005,-0.015,-11.164,-24.718,13.045
11:11:51:751,3.120,-0.004,-0.012,-0.017,-11.282,-24.853,13.043
11:11:51:778,3.146,0.001,-0.008,-0.006,-11.377,-24.919,13.032
11:11:51:804,3.172,0.005,-0.008,-0.016,-11.556,-24.992,13.007
11:11:51:83,3.199,0.008,0.004,-0.031,-11.674,-25.018,12.987
11:11:51:857,3.225,-0.008,-0.013,-0.020,-11.799,-25.023,12.966
11:11:51:883,3.251,-0.018,0.005,-0.020,-11.860,-25.049,12.948
11:11:51:909,3.277,0.000,-0.006,-0.008,-11.909,-25.224,12.900
11:11:51:935,3.303,0.010,0.009,-0.021,-11.965,-25.432,12.833
11:11:51:961,3.330,0.007,-0.016,-0.026,-12.001,-25.532,12.792
11:11:52:018,3.386,-0.003,-0.003,-0.013,-12.025,-25.632,12.721
11:11:52:018,3.386,-0.003,-0.017,0.003,-12.038,-25.700,12.672
11:11:52:04,3.409,0.018,0.000,-0.007,-12.055,-25.806,12.625
11:11:52:066,3.435,0.009,-0.002,-0.024,-12.146,-25.943,12.648
11:11:52:093,3.461,0.005,-0.004,-0.026,-12.196,-26.017,12.702
11:11:52:119,3.487,-0.010,0.001,-0.023,-12.252,-26.025,12.747
11:11:52:147,3.516,-0.003,-0.007,-0.023,-12.246,-26.004,12.753
11:11:52:171,3.539,-0.009,-0.005,-0.017,-12.239,-25.951,12.717
11:11:52:198,3.567,0.001,-0.003,-0.020,-12.248,-25.911,12.642
11:11:52:224,3.592,-0.011,-0.007,-0.019,-12.243,-25.906,12.583
11:11:52:25,3.618,-0.004,-0.004,-0.028,-12.237,-25.899,12.456
11:11:52:276,3.645,-0.008,-0.005,-0.020,-12.218,-25.909,12.352
11:11:52:303,3.671,-0.012,-0.007,-0.028,-12.179,-25.975,12.172
11:11:52:329,3.697,-0.006,-0.010,-0.010,-12.153,-26.063,12.036
11:11:52:384,3.752,-0.004,-0.001,-0.018,-12.123,-26.225,11.824
11:11:52:385,3.753,0.017,-0.011,-0.008,-12.090,-26.335,11.616
11:11:52:408,3.776,0.007,0.002,-0.020,-12.058,-26.363,11.500
11:11:52:434,3.803,-0.007,-0.003,-0.014,-11.982,-26.394,11.333
11:11:52:461,3.829,0.008,-0.007,-0.013,-11.914,-26.417,11.214
11:11:52:487,3.855,0.006,-0.007,-0.016,-11.796,-26.354,11.009
11:11:52:513,3.881,-0.004,-0.006,-0.011,-11.657,-26.257,10.830
11:11:52:539,3.907,-0.002,-0.013,-0.011,-11.572,-26.193,10.715
11:11:52:566,3.935,-0.002,-0.007,-0.019,-11.462,-26.139,10.556
11:11:52:592,3.960,-0.002,-0.027,-0.008,-11.380,-26.127,10.455
11:11:52:648,4.016,-0.006,-0.006,-0.014,-11.303,-26.120,10.303
11:11:52:648,4.016,0.001,-0.008,-0.008,-11.249,-26.142,10.194
11:11:52:67,4.038,0.007,-0.002,-0.024,-11.207,-26.138,10.033
11:11:52:697,4.065,0.002,-0.008,-0.020,-11.135,-26.099,9.869
11:11:52:722,4.091,-0.002,-0.007,-0.019,-11.085,-26.072,9.776
11:11:52:749,4.118,-0.001,-0.008,-0.010,-10.975,-26.075,9.646
11:11:52:775,4.143,0.014,-0.010,-0.007,-10.903,-26.090,9.582
11:11:52:802,4.170,-0.019,0.004,-0.027,-10.803,-26.113,9.556
11:11:52:828,4.196,0.003,-0.009,0.001,-10.662,-26.216,9.593
11:11:52:854,4.222,0.002,-0.014,-0.002,-10.620,-26.233,9.628
11:11:52:88,4.249,0.005,-0.001,-0.007,-10.593,-26.235,9.691
11:11:52:906,4.275,0.001,-0.007,-0.027,-10.605,-26.219,9.761
11:11:52:933,4.301,-0.013,-0.019,-0.024,-10.574,-26.222,9.897
11:11:52:988,4.356,-0.002,-0.018,-0.026,-10.516,-26.269,9.971
11:11:52:989,4.357,-0.003,-0.012,-0.011,-10.459,-26.338,10.037
11:11:53:012,4.380,0.016,0.006,-0.013,-10.457,-26.395,10.121
11:11:53:038,4.406,0.008,-0.007,-0.017,-10.464,-26.433,10.196
11:11:53:064,4.433,0.022,0.005,-0.007,-10.443,-26.519,10.371
11:11:53:119,4.488,-0.017,-0.001,-0.021,-10.402,-26.565,10.492
11:11:53:12,4.488,0.000,-0.008,-0.020,-10.379,-26.592,10.628
11:11:53:143,4.511,-0.007,-0.008,-0.021,-10.398,-26.556,10.697
11:11:53:17,4.539,0.005,-0.008,-0.022,-10.429,-26.497,10.784
11:11:53:196,4.564,-0.006,-0.006,-0.017,-10.458,-26.457,10.872
11:11:53:221,4.590,-0.036,0.003,-0.018,-10.474,-26.452,10.945
11:11:53:248,4.617,-0.009,-0.014,-0.022,-10.494,-26.547,11.015
11:11:53:274,4.642,0.013,-0.008,-0.040,-10.532,-26.600,11.019
11:11:53:3,4.669,-0.002,-0.007,-0.016,-10.478,-26.549,10.911
11:11:53:327,4.695,-0.005,-0.007,0.001,-10.361,-26.439,10.806
11:11:53:354,4.722,-0.014,-0.010,0.002,-10.301,-26.431,10.759
11:11:53:381,4.749,0.004,0.003,-0.014,-10.279,-26.543,10.754
11:11:53:406,4.774,0.015,-0.005,-0.027,-10.299,-26.620,10.760
11:11:53:431,4.800,0.007,-0.006,-0.023,-10.283,-26.654,10.790
11:11:53:458,4.826,-0.009,-0.008,-0.012,-10.215,-26.608,10.844
11:11:53:484,4.853,-0.002,-0.006,-0.013,-10.172,-26.567,10.887
11:11:53:536,4.905,0.001,-0.001,-0.017,-10.102,-26.465,10.996
11:11:53:563,4.931,-0.008,-0.009,-0.015,-10.051,-26.383,11.037
11:11:53:589,4.957,-0.010,-0.009,-0.020,-10.013,-26.301,11.077
11:11:53:617,4.986,-0.017,-0.010,-0.018,-9.982,-26.279,11.095
11:11:53:643,5.012,-0.006,-0.008,-0.010,-9.957,-26.270,11.091
11:11:53:668,5.037,0.000,-0.010,-0.020,-9.960,-26.276,11.061
11:11:53:695,5.063,-0.007,-0.007,-0.014,-9.968,-26.248,11.024
11:11:53:72,5.088,0.000,-0.008,-0.016,-9.972,-26.283,11.004
11:11:53:746,5.115,-0.004,-0.009,-0.013,-10.012,-26.348,10.947
11:11:53:773,5.142,0.002,-0.002,-0.022,-10.081,-26.391,10.871
11:11:53:799,5.167,0.012,-0.039,-0.054,-10.155,-26.414,10.816
11:11:53:825,5.194,0.007,-0.020,-0.019,-10.198,-26.447,10.689
11:11:53:853,5.221,-0.017,-0.022,-0.019,-10.221,-26.428,10.638
11:11:53:881,5.250,0.003,-0.006,-0.029,-10.287,-26.366,10.487
11:11:53:881,5.250,0.006,-0.005,-0.015,-10.346,-26.275,10.277
11:11:53:934,5.302,0.013,-0.008,-0.015,-10.362,-26.176,10.126
11:11:53:934,5.303,-0.004,-0.003,-0.015,-10.368,-25.996,9.930
11:11:53:986,5.354,-0.001,-0.004,-0.024,-10.356,-25.904,9.827
11:11:53:987,5.355,0.001,-0.011,-0.013,-10.323,-25.812,9.691
11:11:54:011,5.379,0.003,-0.012,-0.011,-10.250,-25.707,9.581
11:11:54:036,5.405,0.001,-0.007,-0.009,-10.215,-25.637,9.551
11:11:54:062,5.430,0.002,0.003,-0.016,-10.179,-25.509,9.519
11:11:54:088,5.456,-0.007,-0.004,-0.001,-10.142,-25.416,9.533
11:11:54:114,5.482,-0.007,-0.015,-0.022,-10.096,-25.308,9.546
11:11:54:14,5.508,0.002,-0.002,-0.018,-10.084,-25.281,9.555
11:11:54:166,5.535,-0.008,-0.008,-0.022,-10.083,-25.221,9.532
11:11:54:193,5.561,-0.011,-0.008,-0.019,-10.074,-25.206,9.533
11:11:54:221,5.589,-0.006,-0.015,-0.011,-10.056,-25.222,9.518
11:11:54:246,5.614,-0.007,-0.001,-0.015,-10.052,-25.262,9.454
11:11:54:272,5.640,0.007,-0.005,-0.020,-10.062,-25.288,9.398
11:11:54:298,5.666,-0.003,-0.004,-0.010,-10.026,-25.262,9.290
11:11:54:324,5.692,-0.004,-0.012,-0.024,-9.904,-25.265,9.203
11:11:54:35,5.719,-0.012,-0.017,-0.028,-9.842,-25.288,9.175
11:11:54:377,5.745,-0.003,-0.009,-0.015,-9.778,-25.426,9.169
11:11:54:403,5.771,0.004,-0.009,-0.023,-9.736,-25.534,9.146
11:11:54:429,5.797,-0.008,-0.011,-0.012,-9.686,-25.680,9.130
11:11:54:455,5.824,-0.001,-0.002,-0.020,-9.673,-25.769,9.104
11:11:54:483,5.851,0.002,-0.012,-0.017,-9.669,-25.855,9.018
11:11:54:508,5.877,0.001,0.004,-0.021,-9.677,-25.878,8.883
11:11:54:565,5.933,-0.001,-0.001,-0.005,-9.676,-25.927,8.810
11:11:54:565,5.933,0.007,-0.016,-0.018,-9.681,-25.919,8.691
11:11:54:587,5.955,0.002,-0.010,-0.017,-9.698,-25.855,8.612
11:11:54:613,5.981,0.003,-0.002,-0.012,-9.711,-25.751,8.502
11:11:54:639,6.008,-0.033,0.001,-0.024,-9.733,-25.617,8.401
11:11:54:694,6.063,-0.002,-0.006,-0.024,-9.751,-25.579,8.330
11:11:54:696,6.064,0.006,-0.010,0.000,-9.755,-25.606,8.225
11:11:54:719,6.087,0.012,-0.003,-0.024,-9.775,-25.611,8.160
11:11:54:745,6.114,0.007,-0.013,-0.012,-9.798,-25.594,8.072
11:11:54:771,6.139,-0.009,-0.007,-0.018,-9.794,-25.524,8.011
11:11:54:797,6.166,-0.012,-0.004,-0.020,-9.788,-25.452,7.919
11:11:54:824,6.192,-0.005,-0.012,-0.020,-9.781,-25.444,7.806
11:11:54:85,6.219,-0.007,-0.006,-0.020,-9.776,-25.472,7.730
11:11:54:877,6.245,0.004,-0.010,-0.020,-9.761,-25.537,7.602
11:11:54:903,6.271,-0.002,-0.006,-0.011,-9.744,-25.549,7.499
11:11:54:928,6.297,0.000,0.002,-0.019,-9.728,-25.550,7.363
11:11:54:985,6.353,0.003,-0.014,-0.011,-9.707,-25.582,7.240
11:11:54:985,6.353,-0.007,-0.004,-0.023,-9.702,-25.606,7.168
11:11:55:006,6.375,0.006,-0.003,-0.009,-9.674,-25.671,7.066
11:11:55:033,6.402,-0.001,-0.007,-0.013,-9.663,-25.696,7.013
11:11:55:059,6.428,0.002,-0.006,-0.011,-9.654,-25.734,6.936
11:11:55:085,6.454,-0.003,-0.008,-0.020,-9.645,-25.745,6.898
11:11:55:112,6.480,-0.007,-0.012,-0.019,-9.619,-25.745,6.827
11:11:55:138,6.506,-0.001,0.001,-0.016,-9.583,-25.803,6.753
11:11:55:164,6.533,0.001,0.004,-0.021,-9.558,-25.864,6.693
11:11:55:19,6.559,0.003,-0.017,-0.008,-9.512,-25.895,6.619
11:11:55:218,6.586,0.003,-0.005,-0.013,-9.477,-25.897,6.576
11:11:55:245,6.613,0.006,-0.012,-0.005,-9.440,-25.888,6.510
11:11:55:27,6.638,0.006,-0.013,-0.022,-9.427,-25.868,6.488
11:11:55:295,6.664,-0.002,-0.016,-0.014,-9.418,-25.824,6.470
11:11:55:322,6.690,-0.007,0.002,-0.028,-9.401,-25.783,6.445
11:11:55:348,6.716,-0.015,0.003,-0.022,-9.400,-25.788,6.430
11:11:55:374,6.743,0.004,-0.010,-0.023,-9.373,-25.830,6.362
11:11:55:402,6.770,0.004,-0.011,-0.014,-9.338,-25.864,6.302
11:11:55:427,6.796,0.000,-0.004,-0.025,-9.287,-25.890,6.193
11:11:55:453,6.821,-0.002,-0.007,-0.009,-9.231,-25.879,6.074
11:11:55:479,6.847,0.006,-0.010,-0.013,-9.188,-25.891,6.009
11:11:55:505,6.874,0.002,-0.013,-0.009,-9.149,-25.892,5.933
11:11:55:533,6.901,0.004,-0.003,-0.013,-9.135,-25.891,5.892
11:11:55:558,6.926,-0.003,-0.003,-0.011,-9.129,-25.890,5.879
11:11:55:584,6.953,0.000,-0.013,-0.013,-9.136,-25.882,5.891
11:11:55:61,6.979,-0.005,-0.006,-0.009,-9.141,-25.896,5.926
11:11:55:637,7.005,0.004,-0.007,-0.022,-9.171,-25.939,5.976
11:11:55:663,7.031,0.008,-0.014,-0.017,-9.176,-25.965,6.022
11:11:55:691,7.059,-0.001,-0.002,-0.023,-9.208,-25.958,6.090
11:11:55:716,7.085,0.004,-0.012,-0.009,-9.220,-25.942,6.134
11:11:55:742,7.110,0.001,-0.007,-0.025,-9.230,-25.898,6.206
11:11:55:797,7.165,-0.002,-0.011,-0.011,-9.238,-25.840,6.302
11:11:55:797,7.166,-0.008,-0.004,-0.013,-9.248,-25.805,6.375
11:11:55:821,7.189,0.001,-0.007,-0.020,-9.261,-25.771,6.485
11:11:55:846,7.215,-0.008,-0.007,-0.022,-9.307,-25.765,6.594
11:11:55:873,7.241,-0.008,-0.010,-0.012,-9.342,-25.779,6.664
11:11:55:899,7.267,0.002,-0.011,-0.007,-9.400,-25.826,6.761
11:11:55:925,7.294,0.004,-0.010,-0.026,-9.449,-25.835,6.820
11:11:55:952,7.320,-0.001,-0.018,-0.008,-9.536,-25.815,6.915
11:11:55:979,7.347,0.005,-0.004,-0.026,-9.593,-25.795,6.974
11:11:56:004,7.373,-0.001,0.000,-0.021,-9.669,-25.770,7.070
11:11:56:03,7.398,0.007,-0.009,-0.030,-9.725,-25.743,7.180
11:11:56:057,7.425,0.011,0.000,-0.017,-9.758,-25.708,7.265
11:11:56:083,7.451,0.006,-0.010,-0.017,-9.800,-25.587,7.417
11:11:56:111,7.479,0.001,-0.004,-0.005,-9.824,-25.487,7.539
11:11:56:135,7.504,0.007,-0.009,-0.013,-9.876,-25.354,7.766
11:11:56:162,7.531,-0.007,0.000,-0.010,-9.982,-25.173,8.031
11:11:56:193,7.561,-0.004,-0.010,-0.019,-10.078,-25.083,8.234
11:11:56:194,7.562,-0.028,-0.005,-0.016,-10.247,-25.015,8.547
11:11:56:272,7.641,-0.005,-0.006,-0.047,-10.368,-25.060,8.737
11:11:56:273,7.641,0.000,-0.001,-0.037,-10.435,-25.145,8.873
11:11:56:274,7.642,-0.024,0.005,-0.026,-10.436,-25.157,8.885
11:11:56:294,7.663,-0.021,-0.008,-0.024,-10.425,-25.198,8.860
11:11:56:32,7.688,0.000,-0.004,-0.017,-10.381,-25.278,8.714
11:11:56:345,7.714,-0.006,0.000,-0.013,-10.334,-25.346,8.576
11:11:56:371,7.740,0.004,-0.017,-0.017,-10.258,-25.446,8.360
11:11:56:427,7.795,0.010,-0.008,-0.022,-10.204,-25.508,8.214
11:11:56:428,7.796,0.019,-0.012,-0.018,-10.098,-25.553,8.002
11:11:56:452,7.820,-0.015,0.014,-0.017,-10.020,-25.521,7.879
11:11:56:477,7.846,0.017,-0.013,0.003,-9.901,-25.532,7.731
11:11:56:503,7.871,0.013,-0.010,-0.014,-9.819,-25.469,7.660
11:11:56:56,7.929,0.002,-0.019,-0.010,-9.778,-25.374,7.652
11:11:56:561,7.929,0.004,-0.011,-0.006,-9.713,-25.228,7.672
11:11:56:582,7.950,0.001,-0.007,-0.012,-9.668,-25.131,7.715
11:11:56:608,7.976,-0.007,-0.006,-0.036,-9.610,-24.945,7.790
11:11:56:634,8.003,-0.053,0.014,-0.069,-9.519,-24.824,7.774
11:11:56:689,8.058,0.016,-0.018,0.015,-9.434,-24.836,7.721
11:11:56:69,8.059,-0.001,-0.011,-0.017,-9.350,-24.801,7.706
11:11:56:713,8.082,-0.002,-0.015,-0.033,-9.283,-24.785,7.703
11:11:56:798,8.167,0.009,0.000,-0.019,-9.207,-24.848,7.720
11:11:56:798,8.167,-0.008,-0.001,-0.014,-9.070,-24.904,7.691
11:11:56:799,8.167,-0.003,-0.010,0.004,-8.966,-24.941,7.630
11:11:56:819,8.187,-0.021,0.007,-0.022,-8.879,-24.980,7.527
11:11:56:845,8.213,0.017,-0.007,0.008,-8.861,-25.080,7.422
11:11:56:87,8.239,0.018,0.000,-0.016,-8.843,-25.202,7.360
11:11:56:897,8.265,-0.030,0.009,-0.022,-8.849,-25.165,7.344
11:11:56:923,8.291,0.008,-0.036,-0.007,-8.809,-25.143,7.427
11:11:56:949,8.318,0.014,-0.020,-0.009,-8.813,-25.107,7.487
11:11:56:976,8.344,0.010,-0.007,-0.012,-8.821,-25.075,7.533
11:11:57:003,8.371,-0.010,-0.014,-0.027,-8.850,-25.009,7.635
11:11:57:028,8.396,-0.021,-0.003,-0.014,-8.892,-24.924,7.682
11:11:57:054,8.423,-0.005,-0.011,-0.002,-8.997,-24.836,7.645
11:11:57:08,8.449,0.017,-0.016,-0.013,-9.122,-24.795,7.641
11:11:57:107,8.475,-0.009,-0.012,-0.012,-9.214,-24.704,7.646
11:11:57:133,8.501,-0.006,0.006,-0.028,-9.382,-24.590,7.700
11:11:57:16,8.528,0.004,-0.010,-0.029,-9.504,-24.522,7.743
11:11:57:187,8.555,-0.004,-0.001,-0.017,-9.663,-24.388,7.812
11:11:57:212,8.580,-0.005,-0.013,-0.024,-9.811,-24.329,7.925
11:11:57:238,8.606,-0.011,-0.003,-0.032,-9.915,-24.301,7.992
11:11:57:264,8.633,0.005,-0.007,-0.027,-10.044,-24.270,8.025
11:11:57:32,8.688,0.001,-0.002,-0.026,-10.115,-24.209,8.026
11:11:57:32,8.689,-0.010,0.000,-0.023,-10.174,-24.144,8.012
11:11:57:373,8.742,0.006,-0.014,-0.004,-10.204,-24.161,7.998
11:11:57:373,8.742,-0.006,-0.008,-0.021,-10.264,-24.153,7.975
11:11:57:395,8.764,0.002,-0.005,-0.016,-10.337,-24.119,7.927
11:11:57:421,8.790,-0.005,-0.002,-0.018,-10.374,-24.116,7.913
11:11:57:449,8.818,0.002,-0.007,-0.017,-10.427,-24.154,7.924
11:11:57:475,8.843,-0.002,0.001,-0.022,-10.449,-24.175,7.938
11:11:57:5,8.869,-0.001,-0.003,-0.027,-10.467,-24.213,7.943
11:11:57:527,8.895,0.011,-0.028,-0.008,-10.446,-24.313,7.963
11:11:57:553,8.921,-0.016,-0.005,-0.011,-10.395,-24.425,7.944
11:11:57:579,8.948,-0.015,0.050,-0.026,-10.366,-24.659,7.919
11:11:57:606,8.974,0.002,-0.029,-0.012,-10.260,-24.939,7.951
11:11:57:632,9.000,0.006,-0.010,-0.030,-10.196,-25.271,7.977
11:11:57:658,9.027,0.017,-0.008,0.006,-10.158,-25.449,7.958
11:11:57:684,9.053,0.001,-0.010,-0.015,-10.079,-25.694,7.959
11:11:57:71,9.079,-0.022,-0.011,-0.046,-10.093,-25.858,7.872
11:11:57:737,9.105,0.012,-0.011,-0.029,-10.112,-25.952,7.801
11:11:57:763,9.131,0.002,-0.012,-0.009,-10.144,-25.952,7.666
11:11:57:791,9.159,-0.034,-0.018,-0.028,-10.186,-25.881,7.558
11:11:57:816,9.184,-0.029,-0.023,-0.021,-10.334,-25.868,7.372
11:11:57:842,9.210,0.018,0.004,0.012,-10.542,-25.950,7.124
11:11:57:867,9.236,-0.046,-0.009,-0.052,-10.676,-25.967,6.947
11:11:57:894,9.263,0.004,-0.003,-0.033,-10.898,-26.003,6.610
11:11:57:922,9.290,-0.003,-0.015,-0.025,-11.045,-26.059,6.391
11:11:57:947,9.316,0.014,-0.006,0.008,-11.300,-26.086,6.017
11:11:57:973,9.342,-0.009,0.002,-0.030,-11.479,-26.035,5.707
11:11:57:999,9.367,0.030,-0.021,-0.011,-11.739,-26.108,5.288
11:11:58:025,9.394,0.001,0.016,0.002,-12.060,-26.090,4.796
11:11:58:052,9.420,-0.024,0.006,-0.045,-12.324,-26.024,4.418
11:11:58:107,9.475,-0.026,-0.017,-0.028,-12.764,-25.792,3.704
11:11:58:108,9.476,0.020,-0.003,-0.004,-13.080,-25.538,3.137
11:11:58:131,9.500,0.021,0.000,-0.024,-13.533,-25.142,2.163
11:11:58:157,9.525,-0.021,-0.013,-0.020,-13.906,-24.629,1.191
11:11:58:213,9.581,0.006,-0.006,-0.040,-14.150,-24.452,0.621
11:11:58:214,9.582,0.017,-0.003,-0.058,-14.429,-24.308,-0.161
11:11:58:235,9.604,0.008,0.004,-0.032,-14.608,-24.186,-0.648
11:11:58:262,9.630,0.001,0.019,-0.036,-14.939,-23.981,-1.344
11:11:58:29,9.658,-0.024,0.038,-0.032,-15.233,-23.702,-2.080
11:11:58:316,9.684,-0.041,0.042,-0.036,-15.427,-23.504,-2.628
11:11:58:341,9.709,-0.027,0.056,-0.018,-15.644,-23.130,-3.740
11:11:58:369,9.738,-0.061,0.084,-0.006,-15.788,-22.820,-4.620
11:11:58:394,9.763,-0.037,0.099,-0.024,-16.017,-22.623,-6.117
11:11:58:419,9.788,-0.021,0.112,-0.016,-16.154,-22.371,-7.208
11:11:58:475,9.843,-0.084,0.106,-0.033,-16.301,-22.133,-8.998
11:11:58:476,9.844,-0.114,0.086,-0.118,-16.385,-21.719,-10.951
11:11:58:501,9.869,-0.045,0.090,-0.022,-16.486,-21.359,-12.267
11:11:58:501,9.870,-0.161,0.045,-0.037,-16.500,-20.660,-14.295
11:11:58:552,9.920,-0.181,0.048,-0.101,-16.479,-20.116,-15.759
11:11:58:581,9.950,-0.179,-0.043,-0.090,-16.500,-19.470,-18.193
11:11:58:581,9.950,-0.214,0.005,-0.174,-16.630,-19.014,-21.116
11:11:58:603,9.971,-0.290,0.037,-0.191,-16.876,-18.746,-23.470
11:11:58:629,9.997,-0.583,0.112,-0.173,-17.411,-17.443,-27.871
11:11:58:655,10.024,-1.020,0.387,-0.153,-17.844,-16.012,-31.609
11:11:58:74,10.108,-1.588,0.521,-0.448,-17.886,-13.281,-38.476
11:11:58:741,10.109,-0.911,0.122,-0.378,-17.589,-11.300,-43.530
11:11:58:742,10.110,-1.001,-0.383,-0.334,-17.231,-8.356,-50.819
11:11:58:76,10.129,0.379,0.073,0.029,-14.001,-5.955,-55.291
11:11:58:787,10.155,-0.377,-0.504,-0.171,-10.006,-4.537,-56.290
11:11:58:813,10.181,-0.642,-1.324,0.178,-4.585,-1.629,-53.753
11:11:58:839,10.208,-0.397,-0.966,0.234,-3.471,-0.556,-51.038
11:11:58:867,10.235,-0.439,-0.864,0.222,-4.819,-0.234,-45.296
11:11:58:892,10.261,-0.557,-0.547,0.139,-7.066,-0.602,-37.617
11:11:58:948,10.316,-0.525,-0.437,0.057,-8.287,-0.934,-31.612
11:11:58:948,10.316,-0.562,0.039,0.273,-9.585,-1.243,-21.696
11:11:58:97,10.339,-0.302,0.476,0.281,-10.227,-1.448,-14.646
11:11:58:996,10.365,0.466,0.999,0.114,-11.178,-3.127,-3.520
11:11:59:052,10.421,1.624,1.133,-0.182,-11.590,-4.495,3.522
11:11:59:053,10.421,2.244,0.201,-0.264,-11.676,-6.140,12.171
11:11:59:103,10.472,3.269,-1.130,0.119,-11.182,-6.778,16.190
11:11:59:189,10.558,3.593,-0.472,-0.202,-11.217,-6.744,15.086
11:11:59:19,10.558,-0.974,0.264,-0.042,-12.281,-8.034,10.972
11:11:59:191,10.559,0.163,-0.918,-0.249,-12.359,-8.798,8.534
11:11:59:236,10.605,0.041,0.086,0.058,-14.443,-9.017,3.104
11:11:59:236,10.605,-0.022,0.173,-0.064,-14.970,-8.499,1.882
11:11:59:259,10.628,-0.017,0.193,-0.035,-15.826,-7.571,-0.176
11:11:59:285,10.654,-0.136,0.190,-0.152,-16.224,-6.858,-1.746
11:11:59:312,10.680,-0.117,0.254,-0.103,-16.586,-5.669,-4.445
11:11:59:34,10.708,-0.149,0.179,0.051,-16.727,-4.689,-6.452
11:11:59:364,10.733,-0.191,0.194,0.048,-16.873,-3.139,-9.429
11:11:59:392,10.761,-0.260,0.067,0.034,-17.065,-1.551,-12.351
11:11:59:446,10.814,-0.363,0.087,0.001,-17.269,-0.380,-14.415
11:11:59:446,10.815,-0.465,-0.047,-0.034,-17.698,1.688,-18.146
11:11:59:47,10.838,-0.570,0.119,0.009,-18.173,3.609,-21.668
11:11:59:495,10.864,-0.989,0.379,0.273,-18.741,8.129,-28.699
11:11:59:522,10.890,-1.296,0.474,0.604,-18.313,14.906,-37.942
11:11:59:548,10.916,-2.015,0.506,-0.015,-17.390,19.537,-44.258
11:11:59:575,10.943,-1.156,-0.939,0.088,-17.078,23.334,-51.439
11:11:59:629,10.998,-0.337,-0.691,0.114,-13.190,25.015,-54.641
11:11:59:63,10.999,-0.730,-1.442,0.336,-4.804,29.132,-53.775
11:11:59:653,11.021,-0.131,-1.346,0.287,-0.448,32.687,-49.422
11:11:59:679,11.048,-0.136,-1.055,0.381,-0.959,34.441,-44.422
11:11:59:706,11.074,-0.560,-0.890,0.493,-3.964,36.624,-34.765
11:11:59:732,11.100,-0.558,-0.479,0.477,-7.060,36.784,-27.782
11:11:59:76,11.128,-0.305,0.222,0.583,-11.399,34.876,-15.818
11:11:59:788,11.156,0.585,1.140,0.420,-13.747,33.054,-6.861
11:11:59:84,11.208,1.825,1.226,-0.310,-15.963,30.801,5.816
11:11:59:84,11.208,2.388,0.027,-1.999,-16.011,30.344,14.239
11:11:59:864,11.233,2.188,-0.695,-1.849,-16.168,31.173,16.908
11:11:59:893,11.261,0.915,-0.836,-2.294,-17.010,32.323,16.384
11:11:59:945,11.313,0.892,2.510,2.296,-17.352,29.656,14.338
11:11:59:945,11.314,0.691,0.589,-0.423,-16.744,28.727,10.735
11:11:59:969,11.337,0.103,0.332,0.105,-17.741,29.791,8.427
11:11:59:994,11.363,0.115,0.055,-0.181,-19.169,30.129,6.539
11:12:00:02,11.389,-0.082,0.218,-0.041,-19.692,30.937,4.668
11:12:00:076,11.444,-0.075,0.306,-0.058,-19.927,31.735,3.007
11:12:00:077,11.445,-0.141,0.313,0.039,-20.081,33.120,-0.082
11:12:00:099,11.468,-0.116,0.480,0.272,-20.108,34.450,-2.645
11:12:00:126,11.494,-0.073,0.304,0.321,-20.138,36.742,-6.987
11:12:00:152,11.520,-0.315,0.201,0.394,-20.328,38.960,-11.171
11:12:00:207,11.576,-0.455,-0.004,0.432,-20.562,40.542,-14.288
11:12:00:208,11.577,-0.407,0.052,0.439,-21.176,43.129,-19.878
11:12:00:288,11.657,-0.475,0.460,0.973,-21.730,45.841,-24.617
11:12:00:289,11.658,-0.720,0.331,1.631,-22.431,51.463,-33.823
11:12:00:29,11.659,-1.427,-0.017,1.308,-21.897,57.898,-44.227
11:12:00:309,11.678,-2.075,-0.419,1.869,-23.289,61.412,-50.149
11:12:00:336,11.704,-0.010,-0.038,-0.296,-21.213,62.676,-55.602
11:12:00:362,11.730,-0.236,-1.453,0.505,-17.075,64.310,-55.515
11:12:00:446,11.815,0.017,-1.401,0.338,-9.950,67.549,-52.006
11:12:00:447,11.816,0.055,-1.086,0.409,-6.879,70.005,-44.439
11:12:00:449,11.817,-0.122,-0.975,0.607,-6.900,71.135,-37.649
11:12:00:526,11.894,-0.208,-0.281,0.590,-9.017,71.546,-26.164
11:12:00:526,11.894,0.046,0.597,0.319,-10.633,70.925,-17.835
11:12:00:527,11.895,0.585,0.981,-0.348,-13.284,68.183,-4.380
11:12:00:575,11.944,1.176,1.456,-2.369,-14.528,65.255,4.440
11:12:00:576,11.944,1.077,-0.183,-3.209,-14.790,62.209,14.234
11:12:00:598,11.966,1.049,-0.756,-2.381,-14.545,61.639,18.003
11:12:00:654,12.022,0.242,-1.283,-3.243,-14.461,61.494,16.778
11:12:00:654,12.022,0.238,-0.833,0.242,-14.596,58.996,11.983
11:12:00:677,12.045,0.282,-1.365,-0.133,-15.038,58.919,9.168
11:12:00:703,12.072,0.010,0.061,-0.362,-17.076,58.961,5.653
11:12:00:729,12.098,0.005,0.184,-0.109,-17.665,59.326,3.636
11:12:00:758,12.127,0.002,0.129,-0.020,-18.321,60.533,0.673
11:12:00:759,12.128,-0.001,0.393,0.133,-18.779,61.992,-2.597
11:12:00:812,12.181,0.043,0.422,0.201,-18.976,62.951,-4.861
11:12:00:812,12.181,0.005,0.299,0.318,-18.938,64.724,-8.561
11:12:00:835,12.203,-0.036,0.136,0.343,-18.931,65.894,-10.909
11:12:00:893,12.261,-0.282,0.144,0.498,-19.065,67.711,-14.544
11:12:00:893,12.261,-0.256,-0.011,0.634,-19.287,70.295,-19.150
11:12:00:918,12.287,-0.240,0.075,0.818,-19.402,72.829,-23.365
11:12:00:94,12.308,0.084,0.466,1.370,-19.771,77.596,-31.832
11:12:00:965,12.334,-0.615,0.166,1.735,-19.296,81.458,-38.501
11:12:01:021,12.389,-1.014,-0.038,2.519,-18.929,87.028,-48.176
11:12:01:022,12.390,-0.248,-0.123,-0.054,-17.626,88.424,-54.620
11:12:01:044,12.413,-0.064,-1.231,0.955,-13.916,89.590,-55.770
11:12:01:071,12.439,0.059,-1.362,0.158,-7.219,91.990,-53.588
11:12:01:126,12.494,0.118,-1.146,0.283,-4.870,93.226,-49.705
11:12:01:127,12.495,0.126,-1.072,0.561,-4.740,94.619,-40.576
11:12:01:15,12.518,0.028,-0.523,0.482,-6.201,95.047,-33.260
11:12:01:175,12.544,0.048,-0.098,0.447,-9.293,94.324,-21.448
11:12:01:202,12.570,0.225,0.840,-0.302,-12.772,90.614,-7.488
11:12:01:287,12.656,0.406,1.266,-1.910,-14.431,87.743,1.674
11:12:01:288,12.656,-0.012,0.311,-3.273,-15.139,86.132,11.496
11:12:01:289,12.657,-0.123,-0.371,-2.757,-14.995,87.408,14.040
11:12:01:307,12.675,0.244,-0.217,-4.152,-15.114,86.834,12.235
11:12:01:333,12.701,0.223,-1.099,-0.569,-14.987,84.930,7.824
11:12:01:359,12.728,0.435,-0.588,-1.085,-16.213,84.525,5.117
11:12:01:386,12.754,-0.061,0.103,-0.233,-17.807,84.980,2.095
11:12:01:412,12.780,0.092,0.163,-0.194,-18.503,85.530,0.227
11:12:01:439,12.807,-0.081,0.280,0.123,-19.204,86.815,-2.739
11:12:01:465,12.833,0.017,0.337,0.086,-19.408,87.739,-4.849
11:12:01:491,12.859,0.003,0.439,0.210,-19.446,89.416,-8.084
11:12:01:517,12.885,0.149,0.316,0.370,-19.244,91.608,-11.669
11:12:01:543,12.911,0.089,0.124,0.454,-19.156,93.115,-13.991
11:12:01:569,12.938,-0.051,-0.014,0.597,-19.170,95.765,-18.002
11:12:01:595,12.964,0.008,0.120,0.826,-19.305,98.059,-21.508
11:12:01:622,12.991,0.196,0.106,0.941,-19.542,102.212,-28.425
11:12:01:65,13.018,0.488,0.324,1.216,-19.812,107.225,-37.564
11:12:01:676,13.044,0.351,0.001,1.679,-19.444,111.168,-44.058
11:12:01:755,13.124,0.481,-0.550,2.222,-19.320,115.484,-52.064
11:12:01:785,13.153,-0.081,-0.264,0.348,-17.458,116.365,-55.699
11:12:01:786,13.154,0.426,-1.474,0.097,-11.768,118.629,-56.178
11:12:01:786,13.155,0.314,-1.184,0.337,-7.786,121.073,-52.091
11:12:01:806,13.174,0.333,-1.206,0.229,-6.714,122.573,-47.166
11:12:01:861,13.229,0.454,-0.677,0.376,-6.965,124.768,-37.467
11:12:01:862,13.230,0.607,-0.385,0.454,-7.618,126.083,-29.912
11:12:01:913,13.282,0.694,0.167,0.342,-9.483,127.494,-17.608
11:12:01:914,13.282,0.246,1.011,-0.472,-11.249,127.593,-8.952
11:12:01:937,13.306,-0.652,1.119,-1.601,-13.356,126.984,3.216
11:12:01:994,13.362,-2.089,0.139,-2.380,-14.199,127.597,11.400
11:12:01:994,13.362,-1.979,-0.654,-1.920,-14.289,129.285,13.773
11:12:02:016,13.384,-2.075,-0.772,-2.647,-14.984,130.630,12.666
11:12:02:042,13.411,0.036,-0.053,0.535,-16.065,128.405,9.537
11:12:02:155,13.524,-0.322,-0.982,-0.979,-15.736,127.575,5.022
11:12:02:156,13.525,-0.320,0.190,-0.481,-17.502,128.120,1.230
11:12:02:157,13.525,-0.040,0.220,-0.125,-18.058,129.015,-0.723
11:12:02:158,13.526,-0.007,0.176,0.045,-18.683,130.544,-3.235
11:12:02:174,13.542,0.037,0.376,0.127,-19.079,131.630,-4.797
11:12:02:2,13.568,0.129,0.537,0.166,-19.202,133.377,-7.496
11:12:02:225,13.594,0.453,0.516,0.150,-18.987,134.872,-9.725
11:12:02:252,13.620,0.503,0.128,0.136,-18.630,137.023,-13.144
11:12:02:278,13.647,0.408,0.021,0.481,-18.546,138.885,-16.570
11:12:02:306,13.674,0.427,0.013,0.650,-18.600,140.432,-19.364
11:12:02:331,13.699,0.590,-0.045,0.315,-18.841,143.947,-25.047
11:12:02:357,13.725,1.322,0.293,0.496,-19.047,147.012,-30.136
11:12:02:383,13.751,1.483,0.160,0.671,-19.528,151.351,-39.426
11:12:02:409,13.778,1.837,-0.738,1.400,-19.799,155.709,-48.988
11:12:02:494,13.863,0.583,0.908,0.753,-19.721,157.531,-54.637
11:12:02:495,13.863,1.023,-1.199,0.438,-16.224,158.003,-58.547
11:12:02:496,13.864,0.413,-1.186,-0.032,-12.287,158.630,-58.810
11:12:02:518,13.886,0.011,-1.211,0.073,-6.128,159.293,-55.587
11:12:02:54,13.909,0.266,-1.192,0.024,-2.424,160.310,-47.221
11:12:02:567,13.935,0.528,-0.929,0.227,-1.767,161.017,-39.845
11:12:02:622,13.991,0.727,-0.478,0.318,-2.833,161.770,-27.678
11:12:02:623,13.992,0.547,0.310,0.403,-4.600,160.635,-19.075
11:12:02:646,14.015,-0.658,1.085,-0.206,-7.526,155.139,-5.187
11:12:02:759,14.127,-2.621,1.511,-0.721,-8.542,150.579,3.592
11:12:02:76,14.128,-3.537,0.393,-1.002,-8.245,145.601,12.794
11:12:02:761,14.129,-2.579,-1.028,-1.205,-7.419,145.107,15.156
11:12:02:762,14.130,-3.655,0.853,-0.534,-7.994,145.078,13.519
11:12:02:836,14.204,-1.016,-1.645,-0.676,-9.662,142.885,7.470
11:12:02:836,14.204,-0.365,0.503,0.384,-9.748,142.573,4.158
11:12:02:836,14.205,-0.273,-0.023,-0.040,-12.438,142.656,0.598
11:12:02:856,14.225,-0.193,0.304,0.132,-13.747,143.547,-2.879
11:12:02:911,14.279,-0.059,0.318,0.016,-14.300,144.661,-5.258
11:12:02:911,14.280,0.159,0.499,0.039,-14.731,146.241,-8.821
11:12:02:964,14.332,0.242,0.545,0.111,-14.882,147.273,-11.137
11:12:02:964,14.333,0.349,0.161,0.108,-14.635,148.817,-14.596
11:12:03:127,14.495,0.430,0.077,0.214,-14.535,149.800,-16.590
11:12:03:128,14.496,0.564,0.065,0.399,-14.316,151.507,-19.477
11:12:03:129,14.497,0.455,-0.092,0.115,-14.173,153.950,-23.386
11:12:03:13,14.498,0.798,-0.153,0.059,-14.062,156.076,-26.850
11:12:03:152,14.520,0.966,0.053,-0.032,-14.428,159.108,-34.317
11:12:03:153,14.521,1.440,0.142,0.465,-14.658,161.247,-40.065
11:12:03:154,14.522,2.306,-0.519,1.440,-15.611,164.508,-48.821
11:12:03:203,14.571,0.395,0.357,0.366,-15.665,164.196,-56.301
11:12:03:203,14.572,1.144,-0.687,0.358,-13.660,164.040,-58.036
11:12:03:204,14.573,0.326,-0.917,0.174,-9.003,164.495,-58.680
11:12:03:223,14.592,0.024,-0.983,0.145,-5.316,164.822,-56.886
11:12:03:25,14.618,0.222,-1.190,-0.005,-1.701,165.403,-50.132
11:12:03:276,14.644,0.457,-1.077,-0.079,-0.667,165.964,-43.631
11:12:03:33,14.699,0.654,-0.595,0.063,-1.271,166.306,-32.469
11:12:03:357,14.726,0.761,-0.180,0.306,-3.107,164.594,-20.020
11:12:03:358,14.727,0.386,0.536,0.164,-4.923,160.940,-10.867
11:12:03:381,14.749,-1.024,1.231,-0.249,-6.210,153.339,3.262
11:12:03:436,14.804,-3.019,1.136,-0.377,-5.569,148.763,11.285
11:12:03:437,14.805,-3.234,-1.022,-0.296,-2.779,147.027,17.825
11:12:03:459,14.828,-2.241,-1.046,-0.618,-4.212,149.770,19.825
11:12:03:485,14.854,-3.843,-1.088,0.317,-5.505,151.170,17.622
11:12:03:566,14.934,0.826,-0.549,0.490,-5.936,151.085,9.904
11:12:03:624,14.992,-0.187,0.727,0.113,-10.077,149.872,1.803
11:12:03:624,14.992,-0.379,0.333,0.009,-11.051,150.222,-0.631
11:12:03:698,15.066,-0.083,0.188,-0.059,-12.014,151.332,-3.982
11:12:03:758,15.127,-0.092,0.244,0.132,-12.866,152.585,-6.886
11:12:03:759,15.127,-0.115,0.306,-0.040,-13.148,153.458,-8.715
11:12:03:759,15.127,0.141,0.416,0.115,-13.284,155.081,-11.372
11:12:03:76,15.128,0.234,0.330,0.094,-13.145,156.168,-13.084
11:12:03:775,15.143,0.412,0.271,0.261,-12.799,157.568,-15.481
11:12:03:804,15.172,0.411,0.082,0.243,-12.123,158.952,-17.696
11:12:03:805,15.173,0.210,-0.060,0.188,-11.412,159.974,-19.083
11:12:04:039,15.407,0.198,-0.059,0.024,-10.403,161.660,-21.396
11:12:04:065,15.433,0.145,-0.317,-0.091,-10.068,162.897,-23.312
11:12:04:091,15.459,0.270,-0.365,-0.098,-10.158,164.775,-27.039
11:12:04:144,15.512,0.397,-0.188,0.080,-10.868,166.414,-32.164
11:12:04:17,15.538,0.531,-0.135,0.184,-11.228,167.762,-36.377
11:12:04:256,15.624,1.502,0.058,0.641,-11.570,170.306,-43.589
11:12:04:257,15.625,1.855,0.073,1.023,-12.160,172.017,-49.181
11:12:04:257,15.626,1.768,0.758,0.771,-12.982,172.803,-57.855
11:12:04:258,15.627,1.155,-0.286,0.440,-12.380,172.086,-61.230
11:12:04:357,15.725,0.655,-0.572,0.374,-11.059,170.839,-64.850
11:12:04:357,15.725,0.022,-0.933,0.022,-10.026,168.442,-64.032
11:12:04:44,15.809,-0.263,-0.976,-0.010,-9.051,166.451,-60.868
11:12:04:441,15.809,0.159,-1.204,0.060,-7.007,163.430,-52.234
11:12:04:442,15.810,0.188,-0.701,0.219,-5.721,161.807,-44.946
11:12:04:443,15.811,0.155,-0.660,0.317,-3.934,160.017,-33.125
11:12:04:46,15.829,0.338,-0.133,0.303,-3.002,159.149,-20.239
11:12:04:461,15.829,-0.472,0.744,-0.051,-3.691,157.199,-11.183
11:12:04:494,15.862,-1.205,1.019,0.087,-4.864,152.684,2.484
11:12:04:494,15.862,-3.144,1.128,-0.686,-5.402,148.966,9.945
11:12:04:494,15.862,-2.995,-1.041,-0.476,-3.961,147.212,16.075
11:12:04:495,15.863,-1.346,-0.962,-0.328,-4.448,149.599,17.396
11:12:04:51,15.878,-1.245,-0.921,-0.008,-7.255,155.005,16.525
11:12:04:597,15.966,0.332,1.375,0.610,-8.942,153.216,11.072
11:12:04:598,15.967,-0.470,-1.087,-0.334,-8.594,152.952,7.382
11:12:04:599,15.968,-0.018,-0.060,-0.004,-11.274,152.210,3.232
11:12:04:6,15.968,-0.356,0.279,-0.170,-12.044,152.785,1.082
11:12:04:644,16.012,0.049,0.200,0.108,-13.259,153.890,-1.743
11:12:04:644,16.013,-0.023,0.306,0.117,-13.833,154.810,-3.432
11:12:04:676,16.044,-0.051,0.439,0.102,-14.243,156.233,-5.761
11:12:04:677,16.045,0.155,0.351,0.091,-14.070,158.244,-8.176
11:12:04:678,16.046,0.253,0.175,0.106,-13.840,159.785,-9.697
11:12:04:679,16.047,0.245,0.036,0.086,-13.611,161.946,-11.896
11:12:04:696,16.064,0.307,0.015,0.242,-13.541,163.248,-13.432
11:12:04:697,16.065,0.334,-0.053,0.227,-13.449,165.692,-16.337
11:12:04:777,16.146,0.503,-0.124,0.072,-13.353,169.275,-20.898
11:12:04:778,16.147,0.662,0.396,0.056,-13.511,172.044,-25.134
11:12:04:779,16.147,0.904,0.456,-0.027,-13.213,176.997,-32.997
11:12:04:828,16.196,1.735,0.300,0.266,-12.275,-179.123,-38.720
11:12:04:828,16.197,1.362,-0.367,0.354,-11.422,-175.084,-46.289
11:12:04:909,16.278,0.170,-0.410,-0.082,-7.535,-174.643,-51.581
11:12:04:91,16.278,0.446,-0.802,-0.215,-4.268,-173.165,-52.360
11:12:04:911,16.279,0.267,-1.260,-0.121,-0.103,-170.366,-49.235
11:12:05:018,16.387,0.044,-1.062,-0.244,0.240,-169.056,-45.087
11:12:05:019,16.388,0.376,-0.830,-0.242,-2.145,-167.796,-36.307
11:12:05:019,16.388,0.444,-0.441,-0.237,-4.424,-167.372,-29.300
11:12:05:02,16.388,0.412,-0.053,-0.354,-7.325,-166.304,-18.268
11:12:05:035,16.403,0.027,0.582,-0.433,-10.234,-164.950,-6.559
11:12:05:06,16.429,-0.354,0.841,-0.520,-12.162,-163.976,1.259
11:12:05:277,16.645,-1.923,0.950,0.064,-14.415,-162.678,11.591
11:12:05:277,16.645,-1.851,0.033,0.769,-15.165,-160.827,16.494
11:12:05:438,16.807,-2.045,-1.002,0.733,-16.278,-157.857,20.406
11:12:05:438,16.807,-1.191,-0.745,0.394,-17.566,-156.302,19.481
11:12:05:439,16.807,-1.348,1.045,0.391,-17.472,-158.266,17.012
11:12:05:44,16.808,-0.559,-0.691,-0.153,-16.794,-159.892,13.054
11:12:05:456,16.824,-0.341,-0.979,0.540,-17.016,-160.054,10.038
11:12:05:488,16.856,-0.424,-0.044,0.024,-18.181,-159.707,6.741
11:12:05:489,16.857,-0.081,0.141,0.286,-18.777,-158.986,4.792
11:12:05:517,16.885,0.034,0.293,0.070,-19.130,-156.160,-0.671
11:12:05:518,16.886,-0.048,0.317,0.042,-18.926,-155.106,-2.529
11:12:05:518,16.887,0.109,0.348,-0.113,-18.552,-153.301,-5.283
11:12:05:519,16.887,0.099,0.144,-0.159,-18.303,-152.115,-7.022
11:12:05:541,16.909,0.179,0.160,-0.171,-18.089,-150.195,-9.661
11:12:05:542,16.910,0.337,0.035,-0.097,-17.982,-147.900,-12.636
11:12:05:542,16.911,0.334,-0.060,-0.161,-17.974,-145.953,-15.139
11:12:05:594,16.962,0.343,0.027,-0.393,-18.110,-142.518,-20.248
11:12:05:595,16.963,0.485,0.392,-0.708,-18.344,-139.899,-24.783
11:12:05:596,16.964,0.598,0.319,-0.973,-18.120,-134.927,-33.107
11:12:05:597,16.965,1.775,0.567,-0.998,-17.139,-130.982,-39.167
11:12:05:668,17.037,1.103,-0.727,-0.736,-16.935,-127.577,-46.511
11:12:05:669,17.038,-0.172,-0.119,0.262,-12.346,-126.146,-51.085
11:12:05:694,17.062,0.459,-1.066,-0.439,-7.296,-123.235,-50.842
11:12:05:694,17.062,-0.005,-1.288,-0.412,-1.577,-118.738,-47.506
11:12:05:746,17.114,-0.156,-0.975,-0.353,-0.872,-116.939,-43.693
11:12:05:747,17.115,0.060,-0.949,-0.578,-3.441,-115.368,-35.941
11:12:05:77,17.138,0.284,-0.429,-0.523,-7.784,-116.006,-26.662
11:12:05:796,17.164,0.088,0.014,-0.382,-10.333,-117.261,-19.900
11:12:05:822,17.190,-0.244,0.533,-0.512,-13.162,-119.824,-8.401
11:12:05:875,17.243,-0.797,1.115,0.876,-14.423,-122.320,-0.374
11:12:05:903,17.272,-0.823,0.924,1.692,-14.867,-125.598,10.832
11:12:05:904,17.272,-1.009,0.177,2.252,-14.547,-125.601,15.877
11:12:05:928,17.296,-1.121,-0.843,2.013,-15.317,-123.910,20.184
11:12:05:983,17.352,-1.114,-0.352,1.441,-16.804,-122.363,19.722
11:12:05:983,17.352,-0.127,1.011,-0.468,-16.488,-123.171,17.271
11:12:06:035,17.403,-0.622,-1.093,0.380,-15.767,-125.168,12.959
11:12:06:036,17.404,-0.270,-0.029,0.224,-16.398,-125.737,10.585
11:12:06:059,17.428,-0.200,0.331,0.095,-17.685,-125.401,6.889
11:12:06:085,17.454,0.055,0.107,0.129,-18.418,-124.297,3.879
11:12:06:139,17.508,-0.104,0.118,0.057,-18.831,-123.465,2.052
11:12:06:14,17.509,-0.071,0.250,0.038,-19.414,-122.350,-0.411
11:12:06:163,17.532,-0.051,0.299,0.006,-19.641,-121.456,-2.054
11:12:06:19,17.558,-0.050,0.383,-0.131,-19.652,-119.954,-4.657
11:12:06:215,17.584,-0.057,0.228,-0.250,-19.553,-118.804,-6.572
11:12:06:243,17.612,0.027,0.164,-0.275,-19.493,-117.245,-9.333
11:12:06:269,17.637,0.177,0.015,-0.206,-19.398,-115.922,-12.111
11:12:06:295,17.663,0.244,-0.064,-0.243,-19.290,-114.915,-14.133
11:12:06:321,17.689,0.208,0.071,-0.292,-19.256,-113.119,-17.846
11:12:06:347,17.715,0.057,0.005,-0.343,-19.265,-109.498,-21.032
11:12:06:373,17.741,0.018,0.290,-1.094,-19.540,-105.924,-27.473
11:12:06:399,17.768,-0.180,0.383,-1.250,-19.778,-102.031,-35.932
11:12:06:426,17.794,0.507,0.283,-1.863,-19.567,-99.015,-42.154
11:12:06:479,17.847,0.962,-0.698,-1.925,-20.188,-95.674,-50.292
11:12:06:509,17.877,-0.025,0.024,0.125,-19.281,-96.407,-54.447
11:12:06:509,17.877,0.068,-0.934,-0.754,-16.646,-94.832,-56.308
11:12:06:531,17.899,0.145,-1.098,-0.051,-11.293,-93.210,-54.903
11:12:06:557,17.926,0.080,-1.177,0.003,-8.372,-91.133,-51.800
11:12:06:584,17.953,0.010,-1.095,-0.392,-6.193,-89.953,-44.081
11:12:06:61,17.978,0.039,-0.754,-0.513,-6.222,-89.352,-37.562
11:12:06:635,18.004,0.073,-0.286,-0.640,-7.476,-88.953,-26.660
11:12:06:662,18.030,0.006,0.389,-0.447,-9.335,-89.757,-18.576
11:12:06:717,18.086,-0.190,1.060,0.406,-12.748,-94.065,-5.209
11:12:06:718,18.087,-0.163,1.105,2.304,-14.530,-99.866,6.856
11:12:06:742,18.110,0.030,0.486,3.153,-14.204,-101.396,11.541
11:12:06:767,18.136,-0.029,-0.906,2.393,-14.691,-98.500,13.406
11:12:06:793,18.162,-0.370,-0.409,0.908,-16.039,-96.052,11.914
11:12:06:82,18.188,-0.157,2.574,-2.015,-17.382,-99.103,8.012
11:12:06:845,18.214,-0.017,-1.287,0.982,-17.000,-99.516,4.624
11:12:06:873,18.241,-0.056,0.966,-0.180,-19.544,-99.096,0.782
11:12:06:898,18.267,-0.058,0.321,0.244,-20.779,-97.952,-2.255
11:12:06:954,18.323,-0.110,0.247,-0.021,-21.378,-96.805,-4.206
11:12:06:955,18.323,0.011,0.434,-0.136,-22.159,-95.150,-7.184
11:12:06:977,18.345,-0.088,0.529,-0.242,-22.230,-94.036,-9.229
11:12:07:003,18.371,-0.204,0.317,-0.391,-21.898,-91.894,-12.489
11:12:07:029,18.398,-0.152,0.033,-0.375,-21.708,-89.560,-15.427
11:12:07:085,18.453,-0.007,-0.075,-0.460,-21.671,-88.014,-17.398
11:12:07:085,18.454,0.143,-0.073,-0.451,-21.747,-85.389,-21.061
11:12:07:109,18.477,-0.036,-0.082,-0.532,-21.838,-82.988,-24.456
11:12:07:134,18.503,-0.307,0.144,-0.972,-22.181,-78.498,-31.246
11:12:07:161,18.529,-0.553,0.269,-0.979,-22.499,-73.441,-40.096
11:12:07:216,18.585,-0.295,-0.005,-1.691,-22.059,-69.308,-46.519
11:12:07:217,18.585,-0.386,-0.253,-1.920,-23.097,-65.162,-54.989
11:12:07:268,18.636,-0.322,-0.671,-0.238,-21.851,-65.252,-59.404
11:12:07:293,18.662,-0.518,-1.065,-0.498,-17.704,-63.838,-61.326
11:12:07:321,18.690,-0.121,-1.067,-0.099,-13.866,-62.602,-60.551
11:12:07:322,18.690,-0.138,-1.178,0.001,-9.362,-61.147,-55.801
11:12:07:377,18.745,-0.605,-1.001,-0.398,-8.082,-59.401,-46.995
11:12:07:377,18.745,-0.655,-0.710,-0.427,-8.545,-58.631,-39.990
11:12:07:378,18.746,-0.593,-0.230,-0.589,-9.976,-58.458,-28.508
11:12:07:511,18.879,-0.512,0.576,-0.456,-11.070,-59.328,-19.928
11:12:07:512,18.880,-0.229,1.222,0.147,-12.659,-61.607,-5.997
11:12:07:513,18.881,1.138,1.053,1.662,-13.189,-63.341,6.553
11:12:07:514,18.882,1.877,0.108,2.405,-13.354,-62.546,11.971
11:12:07:531,18.899,1.238,-1.032,2.026,-14.320,-58.546,15.254
11:12:07:532,18.900,1.116,-0.536,1.398,-15.334,-55.938,14.264
11:12:07:555,18.923,-2.494,2.375,1.135,-16.523,-57.782,9.651
11:12:07:581,18.949,-0.110,-0.500,0.058,-15.671,-58.881,6.044
11:12:07:636,19.004,-0.083,0.875,0.337,-17.743,-59.094,0.829
11:12:07:637,19.005,0.073,0.310,0.158,-19.424,-58.041,-2.991
11:12:07:688,19.057,0.164,0.150,-0.172,-20.179,-56.969,-5.436
11:12:07:689,19.058,0.129,0.326,-0.051,-20.972,-54.941,-8.953
11:12:07:712,19.080,-0.111,0.531,0.003,-21.333,-53.718,-11.008
11:12:07:738,19.106,-0.221,0.574,-0.129,-21.564,-51.825,-14.096
11:12:07:765,19.133,-0.411,0.363,-0.294,-21.142,-49.692,-17.326
11:12:07:82,19.188,-0.466,0.143,-0.242,-20.728,-48.154,-19.350
11:12:07:82,19.189,-0.389,-0.025,-0.333,-20.146,-45.523,-22.274
11:12:07:843,19.212,-0.384,0.101,-0.480,-19.777,-43.602,-24.422
11:12:07:87,19.238,-0.557,-0.253,-0.539,-19.309,-39.861,-28.839
11:12:07:925,19.293,-1.014,0.050,-0.549,-19.160,-37.002,-32.930
11:12:07:926,19.294,-1.131,-0.039,-0.650,-19.427,-33.105,-40.819
11:12:07:977,19.346,-1.215,-0.676,-0.829,-19.115,-29.337,-49.393
11:12:07:978,19.347,-1.005,0.589,-0.963,-17.994,-27.236,-54.990
11:12:08:001,19.369,-0.768,-0.764,-0.321,-16.082,-26.802,-60.825
11:12:08:056,19.424,-0.351,-0.947,-0.162,-14.108,-26.338,-62.612
11:12:08:057,19.425,-0.195,-0.999,-0.206,-9.199,-25.014,-62.300
11:12:08:079,19.448,-0.099,-1.100,-0.028,-2.916,-23.484,-57.993
11:12:08:106,19.474,-0.354,-1.119,-0.073,-0.749,-22.191,-52.868
11:12:08:132,19.500,-0.693,-0.810,-0.176,-0.883,-19.991,-42.421
11:12:08:187,19.555,-0.796,-0.261,-0.235,-2.555,-19.198,-34.540
11:12:08:188,19.556,-0.821,0.345,-0.343,-5.978,-19.975,-22.027
11:12:08:211,19.579,-0.001,1.507,-0.056,-8.218,-22.003,-13.043
11:12:08:237,19.605,1.276,1.562,0.789,-10.310,-26.855,1.102
11:12:08:263,19.632,3.236,0.240,0.749,-9.948,-29.345,11.945
11:12:08:29,19.658,3.380,-0.714,1.296,-9.833,-29.327,15.444
11:12:08:316,19.684,3.135,0.297,0.820,-10.182,-29.057,14.720
11:12:08:342,19.710,-1.483,2.696,1.472,-11.349,-30.722,9.961
11:12:08:369,19.737,0.397,-1.493,0.467,-10.907,-31.085,4.387
11:12:08:394,19.763,-0.034,-0.062,0.171,-13.830,-30.757,0.594
11:12:08:423,19.791,0.240,0.313,0.153,-14.710,-29.870,-1.663
11:12:08:447,19.815,0.073,0.338,0.029,-15.489,-28.479,-4.547
11:12:08:475,19.843,-0.153,0.525,-0.037,-15.772,-27.422,-6.431
11:12:08:53,19.898,-0.289,0.636,-0.101,-15.651,-25.507,-9.481
11:12:08:53,19.899,-0.511,0.363,0.032,-15.305,-24.219,-11.646
11:12:08:581,19.950,-0.584,0.177,0.026,-14.814,-22.608,-14.710
11:12:08:582,19.951,-0.610,0.044,-0.290,-14.555,-20.957,-17.865
11:12:08:606,19.974,-0.555,0.054,-0.378,-14.435,-19.461,-20.469
11:12:08:631,20.000,-0.650,-0.207,-0.181,-14.292,-16.224,-26.099
11:12:08:657,20.026,-1.304,0.180,-0.131,-14.491,-14.016,-31.073
11:12:08:684,20.052,-1.321,0.011,-0.111,-14.443,-10.998,-39.885
11:12:08:71,20.078,-1.623,-0.764,-0.530,-13.043,-7.167,-48.886
11:12:08:736,20.104,-0.916,0.759,-0.628,-10.738,-5.586,-54.444
11:12:08:762,20.130,-0.971,-0.923,-0.330,-6.665,-6.403,-58.432
11:12:08:788,20.157,-0.239,-1.027,-0.056,-4.594,-6.868,-59.545
11:12:08:815,20.183,0.139,-0.853,-0.001,-0.907,-7.663,-58.122
11:12:08:842,20.210,-0.030,-1.030,-0.018,1.288,-7.509,-54.397
11:12:08:896,20.265,-0.203,-1.161,-0.043,2.879,-6.547,-44.977
11:12:08:897,20.265,-0.649,-0.695,-0.201,1.622,-5.699,-32.989
11:12:08:92,20.288,-0.779,-0.360,-0.118,-0.257,-5.928,-24.441
11:12:08:946,20.314,-0.307,0.794,-0.207,-3.886,-9.736,-11.264
11:12:08:972,20.340,1.072,1.504,-0.036,-5.827,-14.637,-2.237
11:12:08:998,20.367,2.675,1.257,0.332,-6.509,-22.494,9.695
11:12:09:025,20.393,3.087,-0.906,0.072,-4.362,-25.612,15.300
11:12:09:052,20.420,2.097,-0.946,0.318,-4.998,-25.094,16.692
11:12:09:078,20.446,2.641,0.329,-0.109,-6.669,-23.463,12.701
11:12:09:104,20.472,-0.048,0.415,-0.550,-7.907,-24.789,8.208
11:12:09:159,20.528,0.549,-0.779,0.491,-8.628,-25.453,3.129
11:12:09:16,20.529,-0.017,0.550,-0.020,-10.845,-25.405,0.994
11:12:09:182,20.551,0.260,0.259,-0.101,-12.364,-24.299,-2.128
11:12:09:208,20.577,0.042,0.377,0.018,-12.993,-22.648,-5.247
11:12:09:236,20.604,-0.146,0.405,-0.053,-13.178,-21.718,-7.365
11:12:09:262,20.631,-0.245,0.630,-0.043,-13.101,-20.609,-10.460
11:12:09:288,20.656,-0.443,0.307,-0.047,-12.681,-19.724,-12.516
11:12:09:314,20.683,-0.558,0.090,-0.125,-12.215,-18.077,-15.259
11:12:09:34,20.709,-0.515,-0.072,-0.169,-11.865,-16.196,-18.136
11:12:09:366,20.734,-0.518,-0.049,-0.248,-11.738,-14.820,-20.557
11:12:09:392,20.761,-0.792,-0.120,-0.096,-11.795,-12.099,-25.858
11:12:09:419,20.787,-1.034,-0.036,-0.005,-11.964,-10.062,-30.636
11:12:09:444,20.813,-1.418,0.173,-0.053,-11.731,-6.953,-39.339
11:12:09:472,20.841,-1.984,-0.818,-0.724,-10.582,-3.265,-48.362
11:12:09:497,20.865,-0.885,1.015,-0.715,-9.173,-2.096,-54.034
11:12:09:525,20.893,-0.944,-1.325,-0.231,-5.614,-3.238,-57.210
11:12:09:55,20.919,-0.213,-1.158,-0.093,-2.938,-3.094,-57.763
11:12:09:576,20.944,0.131,-0.889,-0.088,2.127,-2.944,-55.543
11:12:09:634,21.003,-0.256,-1.270,-0.027,4.280,-2.364,-51.389
11:12:09:635,21.004,-0.486,-1.153,0.021,4.871,-1.202,-41.598
11:12:09:636,21.004,-0.655,-0.492,-0.222,2.971,-0.615,-30.199
11:12:09:685,21.054,-0.863,-0.047,-0.223,0.943,-1.394,-21.926
11:12:09:685,21.054,-0.038,1.241,-0.349,-2.654,-7.047,-8.643
11:12:09:736,21.104,2.033,1.504,-0.358,-4.385,-13.165,0.326
11:12:09:737,21.105,3.259,0.782,-0.342,-4.848,-20.988,11.672
11:12:09:759,21.128,2.875,-1.219,0.248,-3.658,-22.264,16.493
11:12:09:786,21.154,2.294,-1.251,0.578,-5.070,-20.266,17.109
11:12:09:812,21.180,-0.894,2.856,1.509,-6.653,-20.903,11.650
11:12:09:839,21.207,0.209,-1.625,0.370,-5.807,-22.232,7.296
11:12:09:865,21.233,0.149,0.925,-0.220,-8.471,-23.454,2.352
11:12:09:891,21.259,0.257,-0.258,0.060,-9.931,-22.842,0.130
11:12:09:917,21.285,0.149,0.135,-0.213,-11.669,-21.637,-2.595
11:12:09:943,21.312,0.038,0.330,-0.014,-12.051,-19.870,-5.984
11:12:09:998,21.367,-0.147,0.618,0.042,-12.207,-18.876,-7.907
11:12:09:999,21.368,-0.330,0.267,-0.144,-12.064,-17.395,-10.938
11:12:10:022,21.391,-0.286,0.186,-0.086,-11.600,-16.376,-12.887
11:12:10:048,21.417,-0.313,-0.101,-0.087,-11.358,-14.757,-15.517
11:12:10:075,21.443,-0.425,0.025,-0.356,-11.221,-13.090,-18.190
11:12:10:101,21.469,-0.452,0.066,-0.334,-11.173,-11.710,-20.544
11:12:10:127,21.495,-0.725,-0.044,-0.295,-10.955,-8.649,-25.577
11:12:10:154,21.523,-1.024,0.302,-0.049,-11.078,-6.508,-30.084
11:12:10:181,21.549,-1.226,0.218,-0.166,-10.526,-3.000,-38.229
11:12:10:235,21.603,-2.718,-0.203,-0.661,-9.242,0.612,-43.808
11:12:10:236,21.604,-0.506,0.592,-0.589,-7.151,3.520,-51.201
11:12:10:258,21.627,-0.839,-1.169,0.170,-3.287,4.105,-54.376
11:12:10:288,21.656,-0.258,-1.176,0.095,0.032,5.349,-53.472
11:12:10:312,21.681,-0.279,-1.032,0.098,2.756,7.216,-48.905
11:12:10:338,21.706,-0.266,-1.016,0.170,2.785,8.187,-43.892
11:12:10:394,21.762,-0.558,-0.739,0.145,0.539,9.249,-34.060
11:12:10:394,21.762,-0.644,-0.217,0.046,-2.577,9.502,-23.111
11:12:10:416,21.784,-0.542,0.203,0.066,-5.075,8.716,-15.387
11:12:10:442,21.811,0.329,0.930,0.011,-8.659,5.706,-3.124
11:12:10:527,21.895,1.981,1.223,-0.219,-10.354,3.374,4.902
11:12:10:527,21.896,2.332,0.302,-0.449,-11.490,2.748,14.850
11:12:10:528,21.897,2.486,-0.614,-0.510,-11.949,5.712,17.796
11:12:10:547,21.916,1.474,-0.760,0.003,-14.832,11.533,18.942
11:12:10:573,21.942,2.226,1.756,0.318,-15.197,11.089,16.265
11:12:10:6,21.968,0.834,2.027,0.817,-13.766,8.398,13.688
11:12:10:685,22.054,0.939,-1.368,-0.218,-14.681,7.097,9.678
11:12:10:686,22.054,0.212,0.254,-0.190,-15.918,7.494,8.033
11:12:10:686,22.054,0.176,0.082,-0.094,-16.517,8.308,5.786
11:12:10:734,22.102,0.079,0.112,0.078,-17.012,9.277,4.207
11:12:10:734,22.103,-0.029,0.183,-0.103,-17.468,9.936,3.386
11:12:10:757,22.125,-0.057,0.138,-0.228,-17.854,11.322,1.779
11:12:10:784,22.153,-0.224,0.192,-0.028,-17.966,12.740,0.333
11:12:10:81,22.178,-0.141,0.055,0.043,-17.952,15.146,-2.150
11:12:10:836,22.204,-0.191,0.090,0.038,-18.045,16.571,-3.973
11:12:10:862,22.230,-0.269,0.084,0.057,-18.389,18.514,-7.109
11:12:10:888,22.257,-0.194,0.104,0.140,-19.036,20.337,-10.877
11:12:10:915,22.283,-0.268,0.113,0.211,-19.686,21.742,-13.856
11:12:10:97,22.338,-0.461,0.167,0.455,-21.101,24.803,-19.385
11:12:10:971,22.339,-1.015,0.577,0.804,-22.197,27.813,-24.146
11:12:10:995,22.363,-0.764,0.648,0.983,-23.527,34.052,-33.431
11:12:11:02,22.388,-1.302,0.324,0.758,-23.421,42.387,-43.822
11:12:11:047,22.415,-1.404,-0.144,0.965,-24.010,46.521,-49.133
11:12:11:128,22.497,0.311,0.444,-0.381,-21.087,50.929,-54.760
11:12:11:128,22.497,-0.442,-1.527,0.907,-16.039,53.927,-56.126
11:12:11:154,22.522,0.062,-1.428,0.749,-9.433,58.210,-54.567
11:12:11:154,22.523,0.255,-1.033,0.263,-7.993,59.800,-51.687
11:12:11:177,22.545,-0.037,-1.173,0.679,-7.793,61.310,-44.048
11:12:11:203,22.572,-0.048,-0.481,0.588,-9.222,61.592,-33.650
11:12:11:258,22.627,-0.168,-0.360,0.461,-9.617,61.382,-25.981
11:12:11:259,22.628,0.085,0.392,0.534,-10.018,61.367,-13.503
11:12:11:282,22.651,0.563,0.920,-0.727,-10.749,60.074,-0.750
11:12:11:337,22.706,0.613,0.898,-1.848,-11.088,57.846,6.905
11:12:11:338,22.707,1.318,-0.279,-3.215,-11.292,54.545,14.600
11:12:11:362,22.730,1.003,-1.048,-2.430,-11.459,54.525,16.484
11:12:11:387,22.755,2.797,2.167,-0.397,-12.302,54.894,13.722
11:12:11:413,22.782,-1.497,0.906,1.719,-13.478,53.853,11.172
11:12:11:439,22.808,0.424,0.330,-0.940,-13.929,53.435,6.584
11:12:11:466,22.834,-0.048,0.181,-0.340,-15.860,54.009,3.491
11:12:11:521,22.890,0.030,0.231,-0.174,-16.555,54.718,1.439
11:12:11:522,22.890,-0.026,0.226,-0.098,-17.312,56.127,-1.222
11:12:11:546,22.914,0.033,0.400,0.014,-17.780,57.176,-3.024
11:12:11:571,22.940,0.026,0.592,0.162,-18.220,58.993,-6.156
11:12:11:598,22.967,-0.025,0.362,0.321,-18.180,61.158,-9.810
11:12:11:623,22.992,-0.013,0.179,0.356,-18.030,62.513,-12.121
11:12:11:65,23.018,-0.220,0.040,0.413,-17.837,64.603,-15.472
11:12:11:676,23.044,-0.394,0.143,0.447,-17.721,66.183,-17.847
11:12:11:702,23.071,-0.261,0.073,0.592,-17.545,69.756,-22.717
11:12:11:73,23.098,-0.235,0.163,1.231,-17.535,74.481,-29.929
11:12:11:756,23.124,-0.040,0.262,1.286,-17.549,77.452,-35.799
11:12:11:782,23.150,-0.556,-0.533,1.795,-16.085,82.016,-44.789
11:12:11:807,23.176,-0.542,0.530,0.271,-15.069,84.361,-49.972
11:12:11:834,23.202,-0.166,-0.516,0.790,-12.263,84.467,-55.494
11:12:11:86,23.228,0.065,-1.166,0.243,-9.898,84.954,-56.460
11:12:11:886,23.254,-0.041,-0.872,-0.065,-5.550,85.142,-55.104
11:12:11:946,23.314,0.053,-1.251,0.257,-2.806,85.665,-49.108
11:12:11:946,23.315,0.082,-1.085,0.488,-2.264,86.118,-42.580
11:12:11:946,23.315,-0.105,-0.594,0.606,-3.281,86.690,-31.001
11:12:11:993,23.362,-0.213,0.264,0.532,-4.838,86.472,-22.818
11:12:11:994,23.363,0.102,0.910,-0.241,-8.500,82.701,-9.182
11:12:12:017,23.386,0.405,1.407,-1.767,-11.187,77.296,4.858
11:12:12:043,23.411,0.233,0.996,-3.568,-11.877,74.770,12.094
11:12:12:07,23.438,-0.045,-1.185,-2.573,-11.242,76.235,16.370
11:12:12:096,23.465,0.196,-0.732,-2.236,-12.363,78.213,14.932
11:12:12:151,23.520,1.575,2.675,0.431,-13.718,75.053,10.745
11:12:12:152,23.520,0.189,-1.563,-0.391,-13.053,74.683,7.033
11:12:12:203,23.572,-0.092,0.501,0.142,-15.684,74.442,3.845
11:12:12:204,23.572,0.193,0.290,-0.245,-17.111,75.411,0.900
11:12:12:228,23.597,-0.026,0.334,-0.056,-17.920,76.470,-0.862
11:12:12:253,23.621,0.009,0.379,0.092,-18.878,78.229,-3.780
11:12:12:309,23.677,0.033,0.604,0.237,-19.173,79.348,-5.840
11:12:12:309,23.678,0.079,0.418,0.347,-19.112,81.406,-9.320
11:12:12:332,23.700,0.131,0.122,0.352,-19.009,83.558,-12.542
11:12:12:36,23.728,0.015,-0.023,0.506,-18.995,84.961,-14.738
11:12:12:414,23.782,-0.124,0.157,0.618,-19.254,87.213,-18.747
11:12:12:415,23.783,-0.030,0.096,0.690,-19.474,89.578,-22.491
11:12:12:438,23.806,0.252,0.101,1.185,-20.077,94.030,-29.874
11:12:12:464,23.833,0.238,0.362,1.431,-20.657,96.831,-36.079
11:12:12:604,23.972,0.021,-0.297,1.906,-21.692,101.427,-45.745
11:12:12:605,23.973,-0.335,0.907,1.292,-22.232,104.716,-54.311
11:12:12:606,23.974,0.074,-0.789,0.960,-20.775,105.088,-56.847
11:12:12:606,23.974,0.108,-1.283,-0.064,-15.462,106.601,-57.268
11:12:12:624,23.992,0.010,-1.360,0.284,-11.373,107.992,-55.060
11:12:12:624,23.993,0.180,-1.294,0.218,-6.691,110.441,-47.821
11:12:12:648,24.016,0.048,-0.847,0.523,-5.300,113.292,-37.556
11:12:12:674,24.042,0.291,-0.541,0.808,-6.092,114.767,-29.401
11:12:12:7,24.068,0.318,0.368,0.447,-9.199,114.978,-15.857
11:12:12:727,24.095,-0.204,1.166,-0.629,-11.950,113.393,-6.518
11:12:12:752,24.121,-0.815,1.041,-2.589,-15.574,109.449,6.479
11:12:12:779,24.147,-1.595,-0.343,-3.048,-16.535,109.766,14.542
11:12:12:834,24.203,-1.368,-1.242,-1.726,-16.792,112.892,16.440
11:12:12:835,24.203,-0.929,1.571,-4.333,-17.426,113.222,13.966
11:12:12:857,24.225,-0.283,-1.889,-0.338,-18.272,110.234,12.046
11:12:12:883,24.252,-0.528,0.892,-0.063,-18.765,109.551,7.517
11:12:12:939,24.307,-0.121,-0.045,-0.322,-20.390,110.213,5.580
11:12:12:939,24.308,-0.151,0.158,-0.005,-21.363,111.379,2.762
11:12:12:963,24.332,-0.074,0.271,-0.148,-22.186,112.663,0.420
11:12:12:99,24.358,0.132,0.318,0.056,-22.856,113.740,-1.143
11:12:13:015,24.383,0.192,0.464,0.127,-23.223,115.769,-4.139
11:12:13:041,24.409,0.387,0.328,0.264,-23.285,117.590,-6.476
11:12:13:067,24.435,0.383,0.137,0.336,-23.576,120.638,-10.082
11:12:13:094,24.462,0.510,0.051,0.429,-24.157,124.137,-14.601
11:12:13:119,24.488,0.639,0.003,0.307,-24.895,126.885,-18.527
11:12:13:146,24.514,1.102,0.304,0.483,-26.083,132.242,-26.460
11:12:13:172,24.540,1.115,0.426,0.272,-26.880,136.374,-32.997
11:12:13:198,24.567,1.199,-0.033,1.366,-28.742,143.278,-43.401
11:12:13:226,24.594,1.056,0.615,0.633,-31.140,147.211,-49.630
11:12:13:281,24.650,0.708,-0.645,0.295,-30.248,148.789,-55.469
11:12:13:282,24.650,0.401,-1.292,0.155,-24.621,151.003,-56.134
11:12:13:332,24.701,0.300,-1.109,0.170,-20.142,152.210,-54.800
11:12:13:333,24.702,0.182,-1.142,-0.051,-13.015,154.087,-49.222
11:12:13:357,24.725,0.477,-1.010,0.177,-9.370,155.706,-43.389
11:12:13:382,24.751,0.690,-0.596,0.172,-7.583,157.996,-32.373
11:12:13:408,24.777,0.823,-0.188,0.123,-8.441,158.764,-19.656
11:12:13:464,24.832,0.155,0.983,-0.255,-10.263,157.219,-10.478
11:12:13:465,24.833,-2.154,1.246,-0.984,-12.408,151.992,3.069
11:12:13:487,24.855,-3.592,0.465,-1.141,-12.725,148.605,10.674
11:12:13:513,24.882,-3.224,-0.852,-0.734,-11.986,148.651,16.049
11:12:13:599,24.967,-2.599,-0.719,-1.682,-12.222,151.601,14.729
11:12:13:6,24.968,1.901,2.101,0.493,-14.026,151.599,9.331
11:12:13:6,24.968,-0.617,-0.055,-0.682,-13.687,150.312,4.430
11:12:13:619,24.988,-0.071,0.401,-0.074,-15.375,150.629,1.467
11:12:13:676,25.044,-0.135,0.301,-0.199,-17.159,152.915,-4.871
11:12:13:697,25.066,-0.077,0.434,0.008,-17.846,154.523,-7.973
11:12:13:724,25.092,0.311,0.808,-0.166,-18.262,156.400,-11.161
11:12:13:75,25.118,0.603,0.692,0.019,-18.211,157.685,-13.597
11:12:13:778,25.146,0.665,0.169,0.028,-17.456,159.522,-17.028
11:12:13:802,25.170,0.666,0.093,0.325,-16.898,161.105,-19.187
11:12:13:83,25.198,0.698,0.183,0.256,-16.241,163.286,-22.651
11:12:13:884,25.252,0.967,-0.131,0.114,-16.002,165.818,-27.429
11:12:13:884,25.253,1.316,-0.246,0.095,-16.015,167.480,-31.752
11:12:13:966,25.334,1.680,-0.410,0.495,-16.294,169.371,-39.853
11:12:13:966,25.335,0.835,0.440,0.328,-16.009,170.815,-46.152
11:12:13:967,25.335,2.270,0.177,0.764,-12.760,172.635,-53.721
11:12:13:986,25.354,0.945,-0.989,0.499,-8.868,172.172,-56.402
11:12:14:012,25.381,0.410,-0.887,0.320,-4.811,171.179,-59.120
11:12:14:039,25.407,0.127,-1.010,0.109,-1.175,170.197,-57.636
11:12:14:065,25.433,0.070,-1.015,0.064,-0.258,169.816,-53.623
11:12:14:091,25.459,0.029,-0.928,0.224,0.055,169.806,-43.743
11:12:14:117,25.486,0.650,-0.897,0.475,-0.665,170.104,-35.115
11:12:14:145,25.514,0.908,-0.046,0.316,-3.124,169.187,-20.781
11:12:14:17,25.538,0.170,1.004,0.453,-5.744,164.020,-5.988
11:12:14:196,25.564,-0.802,1.439,-0.011,-6.966,157.792,4.141
11:12:14:222,25.591,-2.875,0.986,-0.658,-6.258,149.833,17.274
11:12:14:248,25.617,-3.887,-1.221,-0.100,-5.099,147.505,22.939
11:12:14:307,25.675,-2.428,-1.989,-1.046,-5.130,150.315,25.420
11:12:14:308,25.676,-1.866,-0.933,-0.185,-7.380,153.266,23.527
11:12:14:309,25.677,-1.215,2.710,-0.569,-8.649,152.492,14.810
11:12:14:357,25.725,-0.140,-1.064,-0.165,-8.675,150.880,7.534
11:12:14:357,25.725,-0.109,1.507,-0.382,-11.082,150.538,4.249
11:12:14:435,25.803,-0.343,-0.001,0.298,-12.815,151.512,-0.117
11:12:14:435,25.804,0.102,0.340,0.134,-13.422,152.599,-2.793
11:12:14:546,25.915,-0.228,0.302,-0.054,-13.534,153.791,-6.432
11:12:14:547,25.916,0.097,0.647,-0.217,-13.895,154.748,-9.160
11:12:14:548,25.916,0.254,0.691,-0.074,-14.261,155.468,-11.059
11:12:14:549,25.917,0.417,0.239,0.179,-13.738,156.470,-14.168
11:12:14:566,25.935,0.421,0.166,0.299,-13.528,157.206,-16.175
11:12:14:567,25.936,0.315,-0.041,0.213,-12.912,158.622,-18.839
11:12:14:591,25.959,0.274,-0.062,0.035,-11.719,160.365,-21.501
11:12:14:645,26.013,0.486,-0.103,0.069,-11.137,161.575,-23.609
11:12:14:646,26.014,0.372,-0.335,-0.027,-10.895,163.638,-27.766
11:12:14:698,26.066,0.396,-0.339,0.056,-11.082,165.285,-31.113
11:12:14:698,26.066,0.614,-0.264,0.356,-11.305,167.997,-37.137
11:12:14:779,26.147,0.895,-0.453,0.628,-10.991,170.009,-41.818
11:12:14:78,26.148,1.369,1.314,0.754,-9.147,173.227,-50.333
11:12:14:781,26.149,1.760,0.173,0.710,-7.515,174.251,-56.834
11:12:14:829,26.197,1.568,-0.291,0.682,-5.969,173.625,-60.334
11:12:14:83,26.198,0.581,-0.609,0.288,-4.630,172.117,-64.510
11:12:14:852,26.221,-0.085,-0.866,-0.020,-4.306,170.746,-65.033
11:12:14:905,26.273,-0.224,-1.313,-0.068,-4.160,168.360,-60.880
11:12:14:964,26.332,0.092,-1.099,-0.151,-3.740,166.613,-52.070
11:12:14:964,26.332,0.310,-0.856,0.070,-3.523,166.275,-44.670
11:12:14:964,26.333,0.574,-0.555,-0.065,-3.643,166.422,-31.693
11:12:15:042,26.410,0.392,0.256,-0.214,-4.245,166.228,-22.024
11:12:15:043,26.411,-0.201,0.654,-0.292,-5.883,163.908,-6.730
11:12:15:043,26.412,-2.043,1.609,0.043,-6.929,161.023,3.062
11:12:15:091,26.459,-3.920,0.830,-0.582,-7.604,155.719,14.776
11:12:15:092,26.460,-3.208,-1.067,-0.274,-8.166,155.029,21.361
11:12:15:144,26.512,-2.033,-1.156,-0.089,-9.537,157.691,21.994
11:12:15:144,26.513,0.416,0.680,-0.784,-10.666,161.137,18.785
11:12:15:168,26.536,-1.344,2.304,-1.949,-11.579,159.227,14.801
11:12:15:194,26.562,-0.745,-0.627,0.220,-12.082,156.962,10.063
11:12:15:25,26.618,-0.250,-0.143,0.130,-13.544,156.695,7.569
11:12:15:272,26.641,-0.052,0.023,-0.168,-15.495,158.817,1.484
11:12:15:299,26.667,-0.065,0.271,0.061,-16.066,159.583,-0.218
11:12:15:326,26.694,-0.058,0.325,-0.073,-16.649,160.752,-2.545
11:12:15:351,26.719,0.058,0.260,0.052,-16.785,161.798,-4.222
11:12:15:377,26.745,0.161,0.175,0.068,-16.675,163.797,-6.791
11:12:15:403,26.772,0.216,0.096,0.082,-16.686,165.942,-9.405
11:12:15:43,26.798,0.250,-0.024,0.151,-16.722,167.419,-11.328
11:12:15:456,26.825,0.462,0.146,0.229,-17.072,169.962,-15.048
11:12:15:482,26.851,0.519,0.136,0.170,-17.319,172.191,-18.447
11:12:15:509,26.877,0.731,0.416,0.078,-17.689,176.915,-25.064
11:12:15:535,26.903,1.347,0.362,-0.010,-17.328,-176.281,-33.746
11:12:15:592,26.960,1.741,0.616,0.080,-16.123,-171.311,-39.898
11:12:15:592,26.960,1.086,-0.674,-0.039,-13.748,-166.162,-46.964
11:12:15:614,26.982,0.161,-0.783,-0.125,-9.020,-163.649,-49.992
11:12:15:669,27.037,0.772,-1.397,-0.582,-3.426,-159.395,-49.910
11:12:15:669,27.038,0.056,-1.186,-0.373,-1.467,-157.253,-47.807
11:12:15:693,27.061,0.345,-1.086,-0.448,-3.043,-155.593,-41.840
11:12:15:749,27.117,0.377,-0.607,-0.312,-6.516,-154.907,-33.322
11:12:15:749,27.117,0.392,-0.316,-0.405,-8.744,-155.240,-26.314
11:12:15:8,27.168,0.258,0.361,-0.471,-11.232,-154.862,-14.753
11:12:15:801,27.169,-0.058,0.930,-0.430,-12.632,-153.430,-7.173
11:12:15:824,27.192,-1.248,1.049,0.190,-14.832,-151.615,3.427
11:12:15:85,27.218,-1.966,0.196,0.883,-16.638,-149.137,11.233
11:12:15:991,27.360,-2.124,-0.116,1.033,-17.453,-147.263,14.060
11:12:15:992,27.360,-1.793,-0.607,0.693,-17.779,-145.415,14.309
11:12:16:011,27.379,-0.620,0.293,0.365,-17.227,-150.593,6.462
11:12:16:012,27.380,-0.115,-0.053,-0.046,-18.539,-149.678,3.412
11:12:16:061,27.429,0.039,-0.055,0.071,-19.440,-148.352,0.971
11:12:16:118,27.486,-0.018,0.166,0.007,-19.895,-147.411,-0.586
11:12:16:119,27.487,0.026,0.249,0.100,-20.251,-145.921,-3.260
11:12:16:119,27.488,0.000,0.000,-0.001,-87.167,-14.027,-2.554
11:12:16:167,27.536,0.096,0.333,-0.141,-19.928,-142.967,-8.037
11:12:16:168,27.537,0.081,0.276,-0.306,-19.442,-141.221,-11.051
11:12:16:251,27.619,0.063,0.202,-0.328,-19.187,-140.388,-12.983
11:12:16:251,27.619,0.307,0.109,-0.249,-18.967,-139.305,-15.894
11:12:16:251,27.620,0.494,0.107,-0.173,-18.859,-138.341,-18.050
11:12:16:271,27.639,0.581,0.020,-0.377,-18.755,-135.755,-22.354
11:12:16:297,27.665,0.589,0.183,-0.604,-18.686,-133.375,-26.278
11:12:16:376,27.745,0.779,0.268,-1.120,-18.631,-128.946,-33.959
11:12:16:436,27.804,0.681,0.192,-1.294,-17.562,-123.959,-43.066
11:12:16:436,27.805,1.371,-0.001,-1.696,-15.703,-120.527,-48.828
11:12:16:438,27.806,0.670,0.073,-0.318,-12.933,-118.457,-55.303
11:12:16:438,27.807,0.404,-1.180,-0.912,-9.940,-118.142,-57.819
11:12:16:454,27.822,-0.047,-1.253,-0.410,-6.407,-115.567,-56.994
11:12:16:512,27.881,-0.045,-1.098,-0.045,-4.257,-114.963,-52.684
11:12:16:513,27.881,0.058,-1.188,-0.289,-4.184,-114.457,-47.646
11:12:16:513,27.882,0.106,-0.795,-0.608,-5.736,-114.199,-37.694
11:12:16:561,27.930,0.162,-0.305,-0.544,-7.065,-114.591,-30.175
11:12:16:562,27.931,0.089,0.107,-0.523,-8.995,-115.383,-17.972
11:12:16:614,27.982,-0.337,0.965,0.142,-11.235,-117.576,-4.725
11:12:16:614,27.983,-0.725,1.252,1.492,-12.310,-119.817,3.760
11:12:16:637,28.005,-1.095,0.244,2.869,-12.811,-121.582,13.622
11:12:16:664,28.032,-0.811,-0.340,2.720,-12.881,-120.002,16.304
11:12:16:691,28.060,-2.469,-0.729,2.331,-13.423,-117.198,15.879
11:12:16:717,28.085,-0.582,3.015,-1.653,-14.237,-118.112,11.609
11:12:16:774,28.142,-0.087,-0.962,0.726,-13.776,-120.079,7.231
11:12:16:774,28.143,-0.049,0.353,0.112,-16.124,-120.181,4.051
11:12:16:795,28.163,0.008,0.101,0.062,-16.879,-119.462,2.241
11:12:16:821,28.189,0.008,0.158,-0.026,-17.867,-118.538,0.029
11:12:16:848,28.216,0.096,0.280,0.033,-18.393,-117.631,-1.509
11:12:16:873,28.242,0.103,0.233,-0.067,-18.929,-116.009,-4.154
11:12:16:9,28.268,0.062,0.349,-0.117,-18.885,-114.243,-6.953
11:12:16:955,28.324,-0.019,0.318,-0.230,-18.667,-112.920,-8.888
11:12:16:956,28.325,0.039,0.174,-0.390,-18.360,-110.839,-11.783
11:12:16:978,28.347,0.013,0.172,-0.416,-18.309,-109.618,-13.756
11:12:17:005,28.373,0.190,0.025,-0.524,-18.353,-107.671,-17.185
11:12:17:089,28.457,0.225,0.030,-0.550,-18.493,-106.228,-20.015
11:12:17:09,28.458,0.202,0.162,-0.788,-18.769,-103.051,-25.682
11:12:17:091,28.459,0.061,0.248,-1.294,-18.943,-98.451,-33.528
11:12:17:11,28.478,0.018,0.154,-1.349,-18.623,-94.822,-39.647
11:12:17:165,28.534,0.518,-0.482,-2.222,-17.345,-89.394,-48.760
11:12:17:166,28.535,0.481,0.402,0.499,-16.445,-87.967,-53.450
11:12:17:189,28.558,0.034,-0.780,-0.680,-12.076,-87.972,-57.369
11:12:17:215,28.583,-0.130,-1.220,-0.233,-8.021,-87.057,-56.233
11:12:17:241,28.610,-0.092,-1.035,0.014,-5.630,-85.776,-53.644
11:12:17:268,28.636,-0.138,-1.207,-0.281,-3.307,-85.510,-46.282
11:12:17:293,28.662,-0.207,-0.813,-0.565,-3.050,-85.129,-39.664
11:12:17:321,28.690,-0.171,-0.367,-0.641,-4.338,-85.451,-28.664
11:12:17:347,28.715,0.099,0.616,-0.504,-5.671,-86.326,-20.729
11:12:17:372,28.740,0.075,1.342,0.257,-8.250,-89.512,-7.725
11:12:17:399,28.767,0.121,1.128,2.397,-9.730,-94.600,4.763
11:12:17:425,28.793,0.302,-0.116,3.175,-9.896,-96.892,11.288
11:12:17:452,28.821,0.308,-0.193,2.522,-9.906,-95.569,15.590
11:12:17:478,28.847,1.355,-1.440,2.538,-10.183,-93.752,14.830
11:12:17:504,28.872,-0.100,1.378,-0.229,-11.403,-95.424,9.687
11:12:17:53,28.898,0.279,-0.674,1.001,-10.950,-96.196,4.853
11:12:17:556,28.925,-0.084,0.763,-0.090,-12.279,-96.613,1.795
11:12:17:582,28.950,0.086,0.364,0.000,-13.293,-95.908,-1.544
11:12:17:609,28.977,-0.001,0.250,0.078,-13.840,-95.229,-3.302
11:12:17:635,29.003,0.085,0.240,0.047,-14.452,-94.164,-5.655
11:12:17:661,29.030,-0.046,0.329,-0.035,-14.634,-93.496,-6.997
11:12:17:687,29.056,-0.012,0.359,-0.146,-14.682,-92.161,-9.159
11:12:17:713,29.082,0.044,0.069,-0.131,-14.467,-90.632,-11.350
11:12:17:74,29.108,0.088,0.011,-0.197,-14.345,-89.627,-12.765
11:12:17:767,29.136,0.138,0.008,-0.241,-14.186,-88.166,-14.993
11:12:17:792,29.161,0.131,0.029,-0.393,-14.077,-86.961,-16.823
11:12:17:848,29.216,0.120,0.012,-0.552,-13.978,-84.595,-20.619
11:12:17:848,29.217,0.042,0.215,-0.838,-13.922,-81.532,-26.254
11:12:17:871,29.240,-0.014,0.300,-0.946,-13.723,-78.803,-31.085
11:12:17:897,29.265,-0.432,0.440,-1.423,-12.511,-73.415,-39.635
11:12:17:925,29.294,0.098,0.142,-1.628,-10.127,-69.753,-45.317
11:12:17:951,29.319,-0.344,-0.856,-0.692,-5.524,-65.777,-51.398
11:12:18:063,29.432,-0.140,-0.450,-0.240,-0.164,-63.869,-54.325
11:12:18:064,29.433,-0.620,-1.275,-0.628,5.818,-60.011,-53.679
11:12:18:065,29.434,-0.447,-1.222,0.020,6.143,-57.678,-50.090
11:12:18:066,29.434,-0.444,-1.003,-0.051,3.166,-56.605,-45.945
11:12:18:081,29.450,-0.516,-0.814,-0.409,-2.413,-55.845,-37.776
11:12:18:109,29.477,-0.459,-0.324,-0.267,-5.990,-56.479,-31.254
11:12:18:135,29.504,-0.454,0.075,-0.289,-9.339,-57.553,-19.842
11:12:18:16,29.529,-0.439,0.891,0.122,-10.743,-56.147,-7.872
11:12:18:186,29.554,0.065,1.008,0.730,-11.397,-55.045,-0.142
11:12:18:213,29.581,1.395,0.745,1.641,-12.555,-54.865,9.841
11:12:18:239,29.607,1.795,-0.014,2.178,-13.341,-54.355,13.607
11:12:18:265,29.633,1.369,-0.461,1.539,-14.643,-52.551,15.908
11:12:18:291,29.660,-0.068,-0.723,3.056,-14.293,-51.682,14.379
11:12:18:317,29.686,0.073,0.738,-0.045,-15.349,-53.843,10.262
11:12:18:373,29.742,0.561,-0.478,0.678,-15.246,-55.047,6.555
11:12:18:374,29.743,0.185,0.385,0.131,-16.513,-54.528,4.706
11:12:18:396,29.764,0.058,0.068,0.017,-17.647,-53.086,2.202
11:12:18:422,29.791,0.071,0.093,0.003,-18.268,-52.215,0.760
11:12:18:449,29.817,0.097,0.180,-0.023,-18.966,-50.648,-1.644
11:12:18:475,29.844,0.060,0.310,-0.109,-19.276,-48.625,-4.551
11:12:18:501,29.870,-0.179,0.505,0.018,-19.276,-47.120,-6.760
11:12:18:528,29.896,-0.309,0.372,-0.124,-19.074,-44.781,-10.544
11:12:18:553,29.922,-0.295,0.267,-0.147,-18.936,-43.487,-12.952
11:12:18:58,29.948,-0.364,0.023,-0.249,-18.723,-41.646,-16.418
11:12:18:607,29.975,-0.442,0.170,-0.531,-18.787,-39.850,-20.162
11:12:18:663,30.031,-0.577,0.156,-0.558,-18.883,-37.802,-23.468
11:12:18:663,30.032,-1.294,0.225,-0.735,-18.866,-32.999,-30.478
11:12:18:718,30.087,-1.520,0.252,-0.567,-18.678,-29.353,-36.548
11:12:18:718,30.087,-2.000,-0.285,-1.204,-17.327,-23.925,-46.408
11:12:18:718,30.087,-0.443,0.853,-0.715,-16.189,-21.044,-52.076
11:12:18:793,30.161,-0.201,0.241,-0.500,-12.511,-20.657,-58.581
11:12:18:793,30.162,-0.659,-1.391,-0.053,-7.777,-19.641,-59.327
11:12:18:819,30.187,-0.112,-1.199,0.114,-4.488,-19.421,-57.916
11:12:18:82,30.188,-0.106,-1.112,0.019,-1.519,-18.852,-52.054
11:12:18:842,30.211,-0.516,-1.037,-0.091,-1.072,-18.501,-45.733
11:12:18:869,30.237,-0.717,-0.702,-0.231,-2.439,-18.724,-33.519
11:12:18:895,30.263,-0.626,0.153,-0.297,-4.677,-20.425,-20.131
11:12:18:921,30.289,0.033,1.088,-0.172,-6.512,-23.533,-10.729
11:12:18:948,30.317,1.592,1.411,0.545,-8.536,-31.697,3.814
11:12:18:973,30.342,3.241,1.183,1.037,-8.695,-37.401,12.256
11:12:19:,30.368,3.295,-1.303,0.903,-7.490,-40.651,19.627
11:12:19:027,30.395,2.641,-1.362,1.345,-8.248,-38.153,19.766
11:12:19:052,30.420,0.369,2.105,-2.097,-9.275,-35.593,14.221
11:12:19:079,30.447,-0.130,-1.687,0.173,-9.878,-37.750,7.672
11:12:19:105,30.473,0.869,0.759,0.207,-11.163,-38.031,4.897
11:12:19:131,30.499,0.311,0.082,0.266,-13.322,-37.265,1.116
11:12:19:157,30.526,0.013,0.302,-0.109,-14.153,-36.574,-1.095
11:12:19:185,30.553,0.008,0.426,-0.053,-14.911,-34.881,-4.059
11:12:19:21,30.578,-0.216,0.620,-0.028,-15.194,-33.281,-6.880
11:12:19:236,30.605,-0.313,0.523,-0.060,-15.059,-32.052,-9.101
11:12:19:291,30.660,-0.470,0.141,-0.036,-14.757,-30.223,-12.401
11:12:19:292,30.661,-0.422,0.033,-0.227,-14.699,-29.050,-14.586
11:12:19:344,30.712,-0.481,-0.016,-0.429,-14.688,-27.176,-18.171
11:12:19:344,30.713,-0.694,0.010,-0.290,-14.773,-25.504,-21.292
11:12:19:367,30.736,-1.069,0.082,-0.402,-14.870,-22.278,-27.741
11:12:19:393,30.762,-1.397,0.278,-0.355,-14.681,-18.493,-36.669
11:12:19:42,30.788,-2.226,-0.245,-1.232,-13.772,-15.601,-43.088
11:12:19:476,30.844,-1.522,0.345,-1.065,-13.391,-14.268,-51.898
11:12:19:476,30.845,-0.871,-0.645,-0.248,-11.354,-15.207,-55.184
11:12:19:5,30.868,-0.692,-1.035,-0.036,-7.040,-14.029,-55.861
11:12:19:525,30.894,0.054,-1.122,0.069,-1.793,-13.261,-52.660
11:12:19:582,30.951,-0.262,-1.289,0.049,-0.218,-12.551,-47.783
11:12:19:582,30.951,-0.528,-0.882,0.040,-0.680,-11.956,-37.915
11:12:19:604,30.972,-0.451,-0.453,-0.238,-1.865,-11.989,-30.247
11:12:19:63,30.998,-0.780,0.027,-0.280,-4.403,-13.619,-17.326
11:12:19:656,31.025,-0.201,1.070,-0.044,-6.594,-17.208,-7.415
11:12:19:682,31.051,1.436,1.233,0.566,-8.459,-24.692,7.507
11:12:19:709,31.077,4.196,0.398,0.645,-7.976,-30.066,18.342
11:12:19:736,31.104,3.982,-1.247,0.669,-6.805,-30.190,22.000
11:12:19:761,31.129,2.170,-0.798,0.941,-8.093,-27.772,21.447
11:12:19:787,31.156,1.709,0.995,-1.457,-9.400,-28.459,17.962
11:12:19:814,31.182,0.414,-2.053,0.443,-9.173,-29.566,10.647
11:12:19:84,31.208,0.230,0.938,0.012,-12.297,-30.092,6.384
11:12:19:866,31.235,0.250,-0.235,0.066,-13.083,-29.475,3.780
11:12:19:922,31.290,0.233,0.237,-0.065,-14.161,-28.304,0.461
11:12:19:922,31.290,0.035,0.480,0.007,-14.471,-27.432,-1.428
11:12:19:945,31.313,-0.185,0.530,0.099,-14.666,-26.034,-4.176
11:12:19:971,31.339,-0.313,0.484,0.025,-14.568,-25.195,-6.195
11:12:19:997,31.366,-0.450,0.268,-0.025,-14.261,-23.814,-9.200
11:12:20:024,31.392,-0.487,0.018,-0.263,-14.203,-22.470,-12.320
11:12:20:051,31.419,-0.581,0.116,-0.376,-14.331,-21.396,-14.913
11:12:20:076,31.445,-0.545,0.005,-0.196,-14.500,-18.987,-20.443
11:12:20:103,31.471,-1.142,0.318,-0.202,-14.846,-16.662,-25.387
11:12:20:128,31.497,-1.296,0.287,-0.323,-14.985,-12.691,-34.305
11:12:20:184,31.553,-2.013,-0.410,-0.765,-13.834,-7.820,-43.589
11:12:20:185,31.553,-1.467,0.624,-0.904,-13.578,-5.738,-49.082
11:12:20:208,31.576,-1.224,-0.842,-0.158,-11.297,-5.810,-53.551
11:12:20:234,31.602,-0.305,-1.187,0.035,-8.417,-5.217,-53.938
11:12:20:26,31.628,-0.167,-0.996,-0.050,-3.703,-4.246,-51.595
11:12:20:286,31.655,-0.360,-1.108,0.176,-1.625,-3.169,-44.815
11:12:20:313,31.681,-0.485,-0.862,0.181,-1.803,-2.594,-38.241
11:12:20:339,31.707,-0.777,-0.558,-0.199,-3.753,-2.439,-26.811
11:12:20:365,31.733,-0.646,0.020,-0.065,-6.148,-4.130,-18.168
11:12:20:391,31.760,0.628,0.841,0.232,-9.388,-10.652,-3.478
11:12:20:417,31.786,2.471,1.491,0.338,-10.516,-15.196,6.268
11:12:20:443,31.812,3.840,0.828,0.381,-10.269,-19.658,17.191
11:12:20:471,31.839,2.734,-1.266,-0.234,-9.230,-18.223,22.390
11:12:20:496,31.865,2.641,-1.339,0.378,-10.140,-16.492,21.581
11:12:20:522,31.891,0.877,1.443,0.413,-12.126,-18.771,15.276
11:12:20:549,31.917,-0.112,-2.228,0.698,-10.525,-18.788,11.274
11:12:20:604,31.973,0.051,1.051,0.141,-13.495,-19.957,7.620
11:12:20:605,31.973,0.240,0.226,0.143,-14.149,-19.551,5.425
11:12:20:627,31.996,0.094,0.097,0.027,-15.708,-18.640,2.827
11:12:20:654,32.022,0.091,0.311,0.022,-16.280,-17.354,0.254
11:12:20:68,32.048,-0.054,0.447,-0.054,-16.474,-16.378,-1.389
11:12:20:707,32.075,-0.131,0.259,-0.038,-16.436,-14.761,-3.987
11:12:20:762,32.131,-0.171,0.100,0.005,-16.387,-13.462,-5.676
11:12:20:762,32.131,-0.251,0.008,-0.037,-16.427,-11.398,-8.148
11:12:20:785,32.153,-0.482,0.216,-0.234,-16.709,-9.333,-11.155
11:12:20:811,32.180,-0.291,-0.047,0.046,-16.948,-7.345,-13.974
11:12:20:838,32.206,-0.905,0.156,0.159,-17.332,-3.178,-19.725
11:12:20:864,32.232,-0.898,0.428,0.415,-17.815,-0.289,-24.852
11:12:20:892,32.260,-1.288,0.484,0.055,-17.229,5.164,-34.090
11:12:20:916,32.284,-2.388,0.044,-0.407,-16.552,10.817,-43.570
11:12:20:943,32.312,-0.760,-0.487,0.016,-17.033,11.183,-48.430
11:12:20:969,32.338,-0.478,-0.847,0.196,-13.478,11.857,-52.970
11:12:20:999,32.368,-0.228,-1.247,0.046,-9.367,14.029,-52.453
11:12:20:999,32.368,-0.047,-1.163,0.141,-4.054,16.390,-49.219
11:12:21:079,32.448,-0.239,-1.142,0.238,-2.688,17.533,-45.023
11:12:21:08,32.449,-0.516,-0.930,0.218,-3.443,19.059,-36.005
11:12:21:129,32.497,-0.354,0.428,0.196,-8.225,19.209,-17.284
11:12:21:129,32.498,0.219,1.019,0.219,-11.217,18.693,-5.038
11:12:21:152,32.521,1.736,1.171,-0.624,-12.873,17.056,2.816
11:12:21:179,32.547,2.358,0.141,-1.176,-14.234,14.049,13.089
11:12:21:205,32.574,2.256,-0.682,-0.707,-15.649,15.031,18.805
11:12:21:26,32.628,1.406,-0.728,-0.558,-16.971,17.351,19.590
11:12:21:261,32.629,2.400,0.971,0.023,-16.451,16.969,17.767
11:12:21:284,32.653,0.499,0.419,0.030,-15.961,14.120,15.273
11:12:21:368,32.737,0.377,-0.640,0.141,-16.116,12.546,12.015
11:12:21:369,32.737,0.276,0.083,-0.181,-17.427,12.799,10.482
11:12:21:37,32.738,0.002,0.181,-0.100,-18.251,14.234,8.544
11:12:21:449,32.817,0.138,0.115,-0.153,-18.738,15.124,7.001
11:12:21:449,32.817,0.091,0.071,0.059,-19.013,15.747,6.012
11:12:21:449,32.817,-0.013,0.194,-0.074,-19.489,17.092,4.135
11:12:21:467,32.836,-0.124,0.158,-0.017,-19.678,18.260,2.542
11:12:21:494,32.862,-0.012,0.230,0.147,-19.766,20.173,-0.106
11:12:21:52,32.888,-0.095,0.231,0.107,-19.946,21.964,-2.848
11:12:21:574,32.942,-0.102,0.072,0.061,-20.132,23.204,-4.821
11:12:21:632,33.000,-0.239,0.056,0.118,-20.537,25.167,-8.306
11:12:21:632,33.000,-0.230,0.106,0.291,-21.001,26.597,-11.244
11:12:21:632,33.001,-0.549,0.338,0.459,-22.014,29.281,-16.933
11:12:21:652,33.020,-0.690,0.491,0.725,-22.751,32.020,-21.927
11:12:21:678,33.047,-0.707,0.875,1.140,-23.338,39.018,-31.596
11:12:21:734,33.102,-1.249,0.151,0.696,-22.432,47.324,-41.633
11:12:21:734,33.102,-0.855,-0.428,0.821,-23.053,50.701,-46.583
11:12:21:756,33.124,0.230,-0.016,-0.398,-19.057,54.664,-51.488
11:12:21:812,33.180,-0.322,-1.582,0.868,-15.393,57.470,-51.636
11:12:21:813,33.181,0.139,-1.498,0.671,-11.761,60.665,-48.719
11:12:21:864,33.233,0.221,-1.027,0.411,-11.963,61.941,-43.039
11:12:21:865,33.233,0.083,-0.970,0.667,-12.975,62.140,-37.498
11:12:21:887,33.256,-0.037,-0.315,0.600,-14.565,61.053,-27.447
11:12:21:913,33.282,0.199,0.056,0.484,-14.500,60.337,-19.912
11:12:21:94,33.309,0.455,0.505,0.216,-13.576,61.006,-8.392
11:12:21:966,33.334,0.709,0.991,-1.168,-13.341,60.693,-0.670
11:12:21:992,33.361,0.845,0.501,-2.325,-13.400,58.820,9.657
11:12:22:021,33.389,1.156,-0.410,-2.564,-13.734,56.620,15.340
11:12:22:074,33.442,0.660,-0.271,-1.991,-13.781,56.167,15.791
11:12:22:075,33.443,1.646,2.572,1.362,-14.880,54.006,11.679
11:12:22:098,33.466,-0.058,-0.374,-0.161,-14.790,54.724,8.870
11:12:22:124,33.492,0.456,0.741,-0.614,-16.038,53.964,5.508
11:12:22:15,33.518,0.004,0.387,-0.346,-17.245,54.575,2.787
11:12:22:176,33.545,0.079,0.109,-0.206,-17.673,55.355,1.073
11:12:22:203,33.571,0.011,0.208,-0.074,-18.443,56.456,-1.179
11:12:22:229,33.597,0.089,0.251,0.016,-18.779,57.209,-2.674
11:12:22:284,33.652,-0.011,0.379,0.079,-19.066,58.485,-5.194
11:12:22:285,33.653,0.021,0.360,0.218,-19.094,60.185,-8.241
11:12:22:308,33.676,0.036,0.152,0.207,-19.019,61.348,-10.344
11:12:22:334,33.702,0.030,0.071,0.273,-18.945,63.052,-13.470
11:12:22:36,33.728,-0.202,0.131,0.396,-18.933,64.198,-15.610
11:12:22:388,33.757,-0.352,0.184,0.561,-18.966,66.356,-19.480
11:12:22:442,33.810,-0.240,0.096,0.655,-18.914,68.603,-23.040
11:12:22:442,33.811,-0.226,0.242,1.307,-18.856,73.127,-30.305
11:12:22:495,33.863,-0.492,0.145,1.471,-18.243,77.855,-39.425
11:12:22:495,33.863,-0.878,-0.081,2.104,-17.766,80.608,-45.718
11:12:22:518,33.886,0.102,-0.177,0.492,-17.297,81.049,-52.976
11:12:22:545,33.914,-0.299,-0.693,0.658,-14.809,80.859,-56.033
11:12:22:6,33.968,-0.167,-1.255,0.586,-10.171,82.970,-56.030
11:12:22:6,33.968,0.129,-0.995,-0.070,-6.420,83.425,-52.980
11:12:22:623,33.992,0.076,-1.107,0.044,-5.080,83.835,-48.729
11:12:22:649,34.017,0.021,-1.021,0.566,-5.212,84.523,-39.483
11:12:22:675,34.043,-0.044,-0.487,0.592,-6.625,84.204,-32.167
11:12:22:702,34.070,-0.023,0.136,0.705,-9.417,82.286,-20.057
11:12:22:728,34.096,0.128,1.062,0.075,-12.291,78.071,-6.231
11:12:22:754,34.122,0.162,1.324,-1.033,-13.443,74.793,2.867
11:12:22:78,34.148,0.166,0.327,-3.297,-13.665,70.742,13.747
11:12:22:806,34.175,0.269,-0.527,-3.228,-13.480,71.278,17.436
11:12:22:833,34.202,1.066,-1.645,-3.067,-14.665,74.127,18.390
11:12:22:859,34.227,0.613,2.282,0.430,-15.142,73.484,14.394
11:12:22:885,34.253,-0.091,-1.921,-0.667,-15.084,70.960,9.490
11:12:22:911,34.280,0.117,0.449,-0.018,-17.292,70.232,5.911
11:12:22:937,34.306,0.049,-0.056,-0.115,-18.018,70.774,3.471
11:12:22:993,34.361,0.038,0.056,0.004,-19.100,71.604,0.102
11:12:22:994,34.362,0.014,0.191,-0.169,-19.724,72.191,-1.711
11:12:23:016,34.385,0.124,0.217,-0.065,-20.277,72.893,-3.954
11:12:23:042,34.411,0.073,0.352,0.045,-20.520,74.076,-6.270
11:12:23:069,34.437,0.028,0.270,0.148,-20.570,75.246,-7.973
11:12:23:095,34.464,-0.019,0.171,0.212,-20.451,77.352,-10.601
11:12:23:122,34.490,-0.050,0.117,0.266,-20.432,78.898,-12.432
11:12:23:147,34.516,-0.145,0.205,0.460,-20.344,81.416,-15.524
11:12:23:174,34.542,-0.132,0.090,0.623,-20.321,83.786,-18.697
11:12:23:203,34.571,0.132,0.337,0.823,-20.546,88.280,-25.160
11:12:23:204,34.572,0.208,0.423,1.205,-20.191,94.372,-34.006
11:12:23:254,34.622,0.018,0.504,1.969,-19.524,98.332,-40.101
11:12:23:282,34.650,0.025,-0.617,1.176,-18.775,101.271,-47.233
11:12:23:282,34.651,0.215,-0.836,0.335,-16.134,102.597,-50.622
11:12:23:335,34.703,0.328,-1.207,0.698,-11.401,106.091,-51.269
11:12:23:335,34.704,0.312,-1.204,0.141,-8.431,108.766,-48.490
11:12:23:387,34.755,0.283,-1.173,0.109,-8.558,110.109,-44.714
11:12:23:387,34.756,0.438,-0.848,0.368,-10.738,111.508,-36.961
11:12:23:41,34.779,0.439,-0.533,0.330,-12.542,111.676,-30.740
11:12:23:466,34.835,0.457,-0.166,0.403,-14.778,110.989,-19.751
11:12:23:466,34.835,0.519,0.837,0.033,-16.537,110.294,-7.765
11:12:23:518,34.886,0.237,1.194,-0.607,-17.490,109.320,0.213
11:12:23:518,34.887,-0.872,0.750,-1.946,-18.102,108.068,10.481
11:12:23:542,34.910,-1.356,-0.009,-2.292,-18.693,109.132,14.371
11:12:23:567,34.936,-0.704,-0.963,-1.867,-20.211,112.589,16.452
11:12:23:623,34.991,-0.238,-0.389,-1.063,-21.034,114.475,15.046
11:12:23:624,34.992,2.100,2.347,-0.933,-21.400,111.412,11.963
11:12:23:673,35.041,0.129,0.651,-0.061,-22.238,109.369,5.919
11:12:23:699,35.067,-0.039,0.235,-0.167,-23.526,110.672,3.008
11:12:23:754,35.123,-0.178,0.176,-0.065,-24.136,111.538,1.250
11:12:23:755,35.123,0.019,0.199,-0.092,-24.780,112.838,-1.324
11:12:23:778,35.146,0.086,0.311,-0.076,-25.290,114.383,-4.087
11:12:23:804,35.173,0.209,0.349,-0.074,-25.501,115.699,-6.002
11:12:23:83,35.199,0.292,0.249,0.071,-25.622,118.051,-9.104
11:12:23:915,35.283,0.307,0.177,0.221,-25.730,119.592,-11.194
11:12:23:915,35.283,0.280,0.110,0.281,-26.020,121.723,-14.446
11:12:23:916,35.284,0.358,0.202,0.469,-26.304,123.389,-16.955
11:12:24:022,35.391,0.567,-0.004,0.400,-26.877,127.562,-22.191
11:12:24:023,35.392,1.039,0.242,0.626,-27.685,133.415,-29.794
11:12:24:024,35.392,1.209,0.311,0.484,-28.359,137.762,-36.064
11:12:24:042,35.410,1.066,-0.304,0.642,-29.573,148.885,-51.587
11:12:24:097,35.465,0.068,-0.398,0.125,-27.541,151.165,-57.000
11:12:24:097,35.465,0.489,-1.310,0.014,-22.698,153.524,-56.943
11:12:24:119,35.487,0.254,-1.122,-0.078,-19.199,154.404,-55.378
11:12:24:145,35.514,0.190,-1.072,-0.049,-14.292,155.949,-50.044
11:12:24:172,35.540,0.571,-1.008,0.041,-12.068,157.139,-44.572
11:12:24:197,35.566,0.640,-0.673,0.049,-11.028,158.449,-34.585
11:12:24:253,35.622,0.503,-0.180,0.058,-11.190,158.755,-27.526
11:12:24:254,35.622,0.456,0.514,0.009,-12.401,157.787,-15.850
11:12:24:276,35.645,-0.926,1.000,-0.514,-14.102,153.337,-3.101
11:12:24:302,35.671,-1.940,1.137,-0.900,-14.632,149.744,4.634
11:12:24:329,35.698,-3.008,-0.268,-1.028,-14.519,146.430,11.808
11:12:24:442,35.811,-2.193,-0.635,-0.942,-14.627,146.426,13.030
11:12:24:443,35.812,-1.374,-0.186,-0.110,-15.098,147.194,10.771
11:12:24:444,35.812,0.369,1.247,0.494,-16.499,145.525,7.900
11:12:24:574,35.943,-0.214,0.145,0.173,-18.682,145.186,0.243
11:12:24:575,35.944,-0.213,0.065,-0.132,-19.695,145.774,-1.641
11:12:24:618,35.987,0.070,0.285,-0.102,-21.652,149.125,-8.167
11:12:24:65,36.018,0.372,0.499,-0.052,-21.846,150.981,-10.883
11:12:24:65,36.019,0.435,0.451,-0.030,-21.761,152.180,-12.951
11:12:24:699,36.068,0.556,-0.041,0.213,-21.395,155.050,-18.136
11:12:24:7,36.069,0.622,0.135,0.429,-21.572,156.376,-21.654
11:12:24:723,36.091,0.826,-0.035,0.104,-21.866,158.997,-26.843
11:12:24:749,36.117,1.301,-0.031,0.156,-22.101,161.598,-31.593
11:12:24:775,36.144,1.492,0.201,0.002,-23.187,165.246,-40.531
11:12:24:801,36.169,2.319,-0.234,0.906,-23.977,167.616,-46.997
11:12:24:856,36.225,1.235,0.441,0.436,-26.183,170.331,-55.924
11:12:24:857,36.226,1.282,-0.960,0.343,-25.505,170.101,-60.179
11:12:24:91,36.278,0.477,-1.214,0.090,-21.063,169.644,-61.626
11:12:24:91,36.278,0.134,-1.071,0.141,-14.059,168.650,-60.409
11:12:24:934,36.303,0.011,-1.060,0.013,-9.798,168.073,-57.372
11:12:24:959,36.328,0.202,-1.062,0.038,-5.688,167.248,-48.978
11:12:24:985,36.353,0.615,-0.764,0.345,-4.521,166.842,-41.433
11:12:25:012,36.380,0.806,-0.388,0.438,-4.713,166.002,-28.662
11:12:25:038,36.406,0.244,0.812,0.475,-7.322,161.091,-14.609
11:12:25:065,36.433,-0.773,1.637,0.167,-9.094,155.681,-5.122
11:12:25:09,36.458,-3.097,1.079,-0.667,-9.465,148.748,6.584
11:12:25:144,36.512,-3.701,-0.389,-0.282,-8.714,148.213,10.720
11:12:25:172,36.540,-2.752,-0.898,-1.007,-9.304,152.763,10.580
11:12:25:172,36.541,1.537,3.092,0.414,-9.720,154.504,6.648
11:12:25:224,36.593,-0.451,0.278,0.274,-11.154,152.885,-0.646
11:12:25:225,36.594,-0.557,0.509,-0.013,-13.773,152.496,-5.070
11:12:25:248,36.617,-0.064,-0.099,-0.118,-14.747,153.173,-7.673
11:12:25:306,36.674,0.001,0.191,0.083,-15.938,154.199,-11.247
11:12:25:306,36.675,0.150,0.388,-0.025,-16.204,155.133,-13.438
11:12:25:307,36.676,0.344,0.439,-0.105,-16.163,156.508,-16.395
11:12:25:354,36.722,0.530,0.465,0.072,-15.828,157.734,-19.456
11:12:25:382,36.750,0.520,0.170,0.095,-15.492,158.547,-21.484
11:12:25:382,36.751,0.527,-0.044,0.153,-14.916,160.003,-24.356
11:12:25:405,36.773,0.663,-0.026,0.290,-14.620,160.965,-26.237
11:12:25:461,36.829,0.756,-0.012,0.405,-13.987,162.635,-29.625
11:12:25:461,36.829,1.040,-0.366,0.300,-13.252,165.385,-35.308
11:12:25:571,36.940,1.422,-0.127,0.384,-13.118,167.250,-40.430
11:12:25:572,36.940,1.671,-0.088,0.535,-12.760,169.746,-49.579
11:12:25:573,36.941,1.832,0.425,0.807,-11.872,171.598,-55.738
11:12:25:574,36.942,1.581,0.178,0.644,-11.563,171.540,-64.633
11:12:25:589,36.957,1.110,-1.046,0.228,-10.858,170.702,-67.186
11:12:25:644,37.013,0.317,-0.761,0.182,-9.505,169.409,-69.760
11:12:25:645,37.013,0.096,-0.923,0.112,-6.669,168.456,-68.176
11:12:25:726,37.094,-0.061,-1.112,-0.005,-3.803,167.935,-64.368
11:12:25:727,37.096,0.172,-1.176,0.041,-1.690,167.776,-55.379
11:12:25:728,37.096,0.443,-0.880,0.069,-2.278,167.854,-48.103
11:12:25:728,37.096,0.443,-0.880,0.069,-2.278,167.854,-48.103
11:12:25:746,37.115,0.409,-0.687,0.138,-4.327,166.927,-36.129
11:12:25:774,37.142,-0.160,0.162,-0.096,-6.987,164.316,-23.060
11:12:25:799,37.168,-0.544,0.345,-0.156,-8.718,161.191,-13.834
11:12:25:825,37.194,-1.683,1.411,-0.360,-10.702,154.369,-0.426
11:12:25:851,37.220,-3.022,1.103,-0.860,-10.530,150.341,6.398
11:12:25:878,37.246,-2.751,-0.390,-0.133,-9.150,149.664,11.577
11:12:25:905,37.273,-1.372,-0.331,-0.182,-9.320,151.413,11.161
11:12:25:93,37.299,-0.872,2.825,-0.726,-11.657,151.191,5.877
11:12:25:985,37.354,-1.051,-2.481,-0.030,-11.809,149.694,-1.490
11:12:25:986,37.355,-0.092,1.419,-0.260,-14.848,149.508,-4.534
11:12:26:009,37.378,0.087,0.308,-0.065,-16.948,150.388,-8.114
11:12:26:147,37.515,0.016,0.148,-0.122,-18.042,150.954,-10.320
11:12:26:148,37.516,0.097,0.258,0.087,-18.456,151.937,-13.479
11:12:26:149,37.517,0.142,0.321,0.005,-18.440,153.128,-16.219
11:12:26:202,37.570,0.369,0.555,-0.107,-18.282,154.037,-17.988
11:12:26:202,37.571,0.466,0.302,0.151,-17.897,155.575,-20.763
11:12:26:203,37.571,0.442,0.130,0.146,-17.544,156.571,-22.526
11:12:26:204,37.572,0.547,0.079,0.230,-17.058,158.360,-24.974
11:12:26:219,37.587,0.516,-0.024,0.237,-16.652,158.953,-26.620
11:12:26:333,37.701,0.538,-0.158,0.247,-15.869,161.879,-29.726
11:12:26:333,37.701,0.766,-0.402,0.190,-15.251,165.150,-34.708
11:12:26:334,37.702,0.896,-0.079,0.119,-15.219,167.307,-39.226
11:12:26:335,37.703,1.383,0.039,0.354,-14.577,170.873,-47.385
11:12:26:379,37.748,2.525,-0.481,1.086,-12.981,173.549,-53.004
11:12:26:38,37.749,0.785,0.646,0.811,-11.490,174.919,-60.837
11:12:26:403,37.771,0.963,-0.960,0.086,-8.081,174.454,-65.015
11:12:26:429,37.797,0.393,-0.981,0.050,-4.148,174.809,-65.703
11:12:26:455,37.823,0.096,-1.133,0.001,1.195,175.853,-63.368
11:12:26:481,37.850,0.261,-1.198,-0.118,2.421,176.731,-59.379
11:12:26:509,37.877,0.457,-0.969,-0.080,1.412,178.782,-50.550
11:12:26:534,37.902,0.728,-0.677,0.001,-0.646,-179.744,-43.604
11:12:26:56,37.929,0.998,-0.280,0.032,-4.909,-178.482,-32.172
11:12:26:614,37.983,0.340,0.896,-0.179,-9.878,179.668,-19.091
11:12:26:642,38.010,-0.535,1.185,-0.295,-12.281,177.377,-9.718
11:12:26:643,38.011,-2.612,1.186,-0.273,-13.938,174.857,2.800
11:12:26:666,38.035,-3.146,0.208,0.079,-13.725,176.314,7.777
11:12:26:692,38.060,-2.918,-0.862,-0.405,-14.041,-179.656,10.134
11:12:26:718,38.086,0.573,2.530,-1.948,-15.130,178.811,5.458
11:12:26:803,38.171,-0.436,-1.560,0.469,-14.784,177.208,2.288
11:12:26:804,38.172,0.336,0.319,-0.174,-16.365,176.988,-1.980
11:12:26:804,38.173,0.092,0.225,0.050,-17.130,177.874,-4.309
11:12:26:823,38.191,0.170,0.106,0.039,-18.224,178.903,-7.262
11:12:26:849,38.217,0.095,0.306,0.078,-19.212,-179.731,-9.609
11:12:26:956,38.324,0.141,0.286,0.038,-19.716,-178.689,-11.051
11:12:27:092,38.460,0.263,0.406,0.033,-19.724,-176.928,-13.373
11:12:27:092,38.461,0.389,0.232,-0.038,-19.353,-175.473,-15.027
11:12:27:093,38.462,0.410,0.051,-0.055,-18.860,-173.087,-17.511
11:12:27:121,38.490,0.480,0.015,-0.022,-18.692,-171.551,-19.270
11:12:27:122,38.490,0.679,0.037,0.015,-18.576,-168.629,-22.643
11:12:27:123,38.491,0.691,-0.153,-0.277,-18.360,-164.267,-27.732
11:12:27:123,38.492,1.115,0.142,-0.611,-18.432,-161.039,-32.390
11:12:27:143,38.511,1.116,0.384,-0.890,-18.174,-156.125,-41.096
11:12:27:144,38.512,2.196,-0.004,-0.584,-17.259,-152.153,-47.407
11:12:27:145,38.513,1.673,-0.694,-0.622,-17.407,-147.817,-55.613
11:12:27:193,38.562,0.379,-0.623,-0.127,-12.752,-146.226,-60.774
11:12:27:194,38.562,0.737,-1.441,-0.562,-8.184,-144.408,-60.741
11:12:27:217,38.586,-0.036,-1.093,-0.185,-2.849,-142.878,-58.264
11:12:27:273,38.641,0.055,-1.229,-0.131,-0.655,-141.718,-54.344
11:12:27:273,38.641,0.325,-1.031,-0.341,0.560,-139.478,-45.504
11:12:27:295,38.663,0.398,-0.702,-0.467,-0.207,-138.154,-38.243
11:12:27:322,38.690,0.522,-0.268,-0.560,-2.216,-136.608,-26.210
11:12:27:347,38.716,0.251,0.924,-0.332,-5.425,-137.166,-13.447
11:12:27:404,38.773,-0.357,1.260,0.213,-7.326,-139.374,-4.946
11:12:27:404,38.773,-1.587,1.020,1.695,-8.511,-143.318,6.646
11:12:27:426,38.795,-2.070,0.012,2.487,-8.397,-144.006,11.568
11:12:27:482,38.851,-1.939,-0.975,1.723,-8.777,-140.855,13.306
11:12:27:482,38.851,0.174,2.959,-1.626,-9.273,-140.577,8.165
11:12:27:505,38.873,0.460,0.079,0.223,-9.994,-142.409,5.156
11:12:27:533,38.901,-0.581,-0.013,0.670,-11.057,-143.247,1.110
11:12:27:561,38.929,0.160,0.042,0.223,-12.332,-142.434,-0.921
11:12:27:561,38.930,-0.008,0.242,0.389,-13.476,-141.419,-3.511
11:12:27:615,38.983,0.122,0.189,0.118,-13.980,-140.544,-4.999
11:12:27:615,38.983,0.168,0.255,-0.003,-14.790,-138.929,-7.164
11:12:27:636,39.004,0.222,0.365,-0.016,-15.170,-137.132,-9.464
11:12:27:663,39.031,0.250,0.464,-0.162,-15.005,-135.820,-11.180
11:12:27:689,39.058,0.306,0.227,-0.361,-14.537,-133.640,-13.895
11:12:27:716,39.085,0.300,0.126,-0.352,-14.384,-132.205,-15.680
11:12:27:772,39.140,0.510,-0.010,-0.276,-14.286,-130.041,-18.678
11:12:27:772,39.140,0.454,-0.045,-0.335,-14.345,-127.122,-22.636
11:12:27:823,39.191,0.514,-0.105,-0.580,-14.334,-124.562,-26.223
11:12:27:849,39.217,0.513,0.288,-1.027,-14.542,-120.165,-33.465
11:12:27:85,39.218,0.870,0.165,-1.361,-14.088,-116.578,-39.251
11:12:27:873,39.242,1.203,-0.232,-1.875,-11.642,-110.424,-47.986
11:12:27:926,39.295,0.351,0.572,-0.320,-10.554,-107.951,-52.935
11:12:27:955,39.323,0.230,-0.637,-0.709,-4.814,-107.128,-57.839
11:12:27:955,39.324,-0.014,-1.136,-0.449,-0.769,-105.111,-57.561
11:12:27:977,39.346,-0.005,-1.075,-0.251,1.103,-103.599,-55.670
11:12:28:004,39.372,-0.090,-1.118,-0.220,2.439,-102.906,-49.461
11:12:28:03,39.399,0.015,-0.861,-0.532,2.414,-102.086,-43.259
11:12:28:085,39.454,0.007,-0.589,-0.613,1.294,-101.007,-32.084
11:12:28:086,39.454,0.083,-0.105,-0.791,-0.807,-101.017,-19.558
11:12:28:11,39.478,0.050,1.004,-0.104,-2.845,-103.124,-10.596
11:12:28:135,39.503,-0.132,1.354,1.849,-4.936,-108.905,2.795
11:12:28:221,39.590,-0.493,0.984,3.127,-5.059,-113.015,10.110
11:12:28:221,39.590,-0.326,-1.036,3.365,-3.859,-115.055,16.274
11:12:28:222,39.590,-0.594,-1.410,2.689,-4.288,-113.326,16.553
11:12:28:242,39.610,-0.487,3.052,-0.986,-5.430,-111.949,11.447
11:12:28:266,39.635,-0.091,-1.696,0.509,-5.645,-113.910,5.899
11:12:28:293,39.661,0.050,0.278,0.525,-7.185,-114.015,3.388
11:12:28:319,39.687,0.157,0.116,0.182,-9.105,-113.227,0.088
11:12:28:345,39.714,0.057,0.207,0.118,-9.978,-112.648,-1.799
11:12:28:371,39.740,0.202,0.263,0.107,-10.928,-111.232,-4.285
11:12:28:397,39.766,0.215,0.351,0.018,-11.698,-109.832,-6.644
11:12:28:482,39.851,0.050,0.546,-0.135,-11.806,-108.746,-8.355
11:12:28:483,39.851,0.151,0.187,-0.240,-11.717,-106.893,-11.099
11:12:28:484,39.852,0.110,0.129,-0.314,-11.560,-105.601,-12.824
11:12:28:532,39.900,0.254,0.049,-0.438,-11.497,-103.491,-15.469
11:12:28:532,39.901,0.368,0.080,-0.531,-11.524,-101.851,-17.517
11:12:28:556,39.924,0.242,0.009,-0.589,-11.447,-98.052,-21.859
11:12:28:581,39.950,0.118,0.299,-1.126,-11.298,-93.041,-28.364
11:12:28:608,39.976,-0.010,0.385,-1.151,-10.892,-89.499,-33.837
11:12:28:634,40.002,0.215,-0.087,-2.065,-8.439,-83.621,-42.600
11:12:28:69,40.058,0.480,0.482,-0.175,-7.039,-80.477,-47.867
11:12:28:691,40.059,-0.065,-0.508,-0.539,-2.448,-79.147,-53.233
11:12:28:742,40.110,-0.247,-1.151,-0.288,1.922,-77.198,-53.436
11:12:28:743,40.111,-0.096,-1.130,-0.260,3.402,-76.018,-51.112
11:12:28:765,40.134,-0.225,-1.158,-0.186,3.534,-74.219,-44.367
11:12:28:82,40.189,-0.145,-0.847,-0.381,2.279,-72.907,-37.945
11:12:28:821,40.189,-0.263,-0.490,-0.672,-0.753,-71.269,-26.409
11:12:28:845,40.214,-0.324,0.243,-0.566,-4.555,-71.226,-13.715
11:12:28:929,40.297,-0.224,0.892,-0.019,-7.335,-72.825,-4.399
11:12:28:929,40.298,0.158,1.107,1.685,-10.152,-76.107,9.270
11:12:28:93,40.299,0.684,0.592,2.887,-10.546,-77.169,16.621
11:12:28:949,40.317,1.228,-1.187,2.725,-10.317,-75.465,22.542
11:12:28:977,40.346,0.854,-1.249,2.527,-11.083,-73.780,22.581
11:12:29:06,40.428,-0.815,2.921,-0.572,-12.175,-75.252,17.203
11:12:29:06,40.428,0.193,-1.083,0.306,-11.375,-76.554,12.020
11:12:29:061,40.429,0.482,-0.593,0.608,-12.553,-76.565,8.886
11:12:29:08,40.449,0.303,-0.193,0.331,-14.143,-75.864,5.668
11:12:29:107,40.475,0.151,0.081,0.149,-14.886,-75.071,3.900
11:12:29:16,40.529,0.251,0.300,0.080,-15.842,-73.583,1.463
11:12:29:19,40.558,0.091,0.440,0.033,-16.438,-72.041,-0.864
11:12:29:19,40.558,0.052,0.482,-0.036,-16.447,-70.833,-2.604
11:12:29:211,40.580,-0.144,0.308,-0.171,-16.155,-68.662,-5.259
11:12:29:267,40.635,-0.166,0.216,-0.247,-16.012,-67.226,-6.876
11:12:29:267,40.636,-0.141,0.190,-0.458,-15.925,-64.696,-9.562
11:12:29:291,40.659,-0.117,-0.055,-0.321,-15.932,-62.328,-12.020
11:12:29:347,40.715,-0.343,-0.050,-0.456,-16.172,-58.021,-17.219
11:12:29:347,40.716,-0.746,0.320,-0.418,-16.680,-53.389,-24.585
11:12:29:456,40.825,-0.892,0.507,-0.536,-16.671,-49.878,-30.457
11:12:29:457,40.825,-1.062,0.005,-1.733,-15.708,-43.558,-39.814
11:12:29:474,40.842,-0.446,-1.278,-0.236,-6.539,-37.484,-50.906
11:12:29:5,40.868,-0.033,-0.991,0.098,-3.648,-36.452,-49.044
11:12:29:556,40.924,-0.216,-1.185,-0.068,-1.149,-34.567,-42.630
11:12:29:556,40.924,-0.514,-0.881,-0.245,-1.011,-33.444,-36.410
11:12:29:579,40.947,-0.491,-0.523,-0.330,-2.788,-32.623,-25.336
11:12:29:605,40.974,-0.623,0.121,-0.394,-4.381,-32.626,-17.275
11:12:29:633,41.002,0.154,1.116,0.291,-7.370,-35.367,-4.235
11:12:29:659,41.027,1.876,0.933,1.148,-9.304,-41.699,9.127
11:12:29:684,41.052,2.683,0.607,1.503,-9.698,-45.666,16.703
11:12:29:71,41.079,2.738,-1.137,1.738,-8.992,-48.200,22.917
11:12:29:736,41.105,1.777,-1.516,1.573,-9.504,-47.326,23.201
11:12:29:765,41.134,-0.055,2.440,1.141,-10.073,-48.293,18.166
11:12:29:766,41.135,-0.386,-2.263,0.311,-10.462,-49.259,14.931
11:12:29:818,41.186,0.634,0.399,0.395,-11.659,-50.135,11.106
11:12:29:819,41.187,0.339,0.194,0.152,-13.212,-49.781,7.930
11:12:29:868,41.236,0.171,0.203,0.171,-13.830,-49.216,5.963
11:12:29:927,41.295,0.211,0.272,0.022,-14.791,-48.142,3.430
11:12:29:927,41.295,0.168,0.311,-0.003,-15.226,-47.279,1.715
11:12:29:928,41.296,0.040,0.357,0.012,-15.221,-45.855,-0.966
11:12:29:946,41.315,-0.112,0.260,0.007,-14.938,-44.135,-3.713
11:12:29:974,41.343,-0.229,0.235,-0.086,-14.847,-43.050,-5.471
11:12:30:057,41.425,-0.209,0.097,-0.222,-14.897,-41.635,-8.170
11:12:30:058,41.426,-0.296,0.134,-0.417,-15.027,-40.646,-10.257
11:12:30:059,41.427,-0.255,-0.045,-0.145,-15.338,-38.170,-14.623
11:12:30:077,41.446,-0.748,0.231,-0.394,-15.843,-34.045,-20.992
11:12:30:104,41.473,-0.811,0.348,-0.140,-16.164,-30.772,-26.380
11:12:30:13,41.498,-1.485,0.478,-0.712,-15.640,-24.585,-35.549
11:12:30:156,41.525,-1.748,-0.212,-1.673,-14.491,-20.317,-41.578
11:12:30:183,41.551,0.217,0.402,-0.195,-11.710,-17.911,-48.664
11:12:30:209,41.577,-0.976,-0.959,-0.155,-8.152,-18.489,-51.246
11:12:30:236,41.604,-0.611,-1.035,-0.175,-5.280,-16.873,-50.932
11:12:30:261,41.630,-0.033,-1.067,0.100,-2.629,-16.197,-46.893
11:12:30:289,41.658,-0.458,-1.067,-0.020,-2.370,-15.667,-42.019
11:12:30:314,41.682,-0.634,-0.705,-0.012,-3.586,-15.610,-32.469
11:12:30:37,41.738,-0.547,-0.173,-0.181,-5.054,-16.494,-25.264
11:12:30:37,41.738,-0.551,0.179,-0.185,-7.299,-18.969,-13.558
11:12:30:393,41.761,0.121,1.100,0.185,-9.195,-24.340,-0.327
11:12:30:448,41.816,1.554,1.113,0.543,-9.322,-29.849,8.685
11:12:30:449,41.817,3.093,0.482,0.460,-7.562,-37.174,20.183
11:12:30:53,41.898,3.516,-0.953,1.197,-5.850,-39.166,24.102
11:12:30:53,41.899,2.197,-0.636,0.674,-6.763,-37.560,26.136
11:12:30:531,41.900,0.412,0.790,-1.393,-8.478,-35.747,24.307
11:12:30:55,41.918,0.950,2.004,1.759,-9.122,-36.880,18.196
11:12:30:578,41.946,0.175,-0.547,-0.560,-9.727,-37.960,14.235
11:12:30:633,42.001,0.756,0.275,0.265,-11.293,-38.598,12.319
11:12:30:633,42.001,0.434,0.090,0.215,-12.652,-37.742,9.725
11:12:30:655,42.024,0.250,0.146,0.075,-13.289,-37.241,8.465
11:12:30:681,42.050,0.211,0.227,0.050,-14.269,-36.446,6.822
11:12:30:709,42.077,0.178,0.260,-0.071,-14.874,-35.032,4.776
11:12:30:764,42.132,0.064,0.296,-0.167,-15.015,-33.877,3.208
11:12:30:764,42.133,-0.144,0.456,0.159,-15.045,-31.888,0.317
11:12:30:787,42.155,-0.282,0.269,0.120,-15.049,-30.638,-1.609
11:12:30:813,42.181,-0.293,0.151,-0.080,-15.174,-28.996,-4.738
11:12:30:839,42.208,-0.439,0.087,-0.267,-15.557,-27.136,-8.578
11:12:30:865,42.233,-0.453,-0.021,-0.111,-15.892,-25.268,-12.092
11:12:30:921,42.289,-0.992,0.510,-0.103,-16.723,-21.836,-19.434
11:12:30:921,42.289,-1.114,0.477,-0.098,-17.115,-19.131,-25.581
11:12:30:945,42.314,-1.529,0.112,-0.717,-17.217,-13.769,-35.404
11:12:30:999,42.368,-1.294,-0.074,-0.483,-18.535,-11.817,-41.136
11:12:31:,42.368,0.174,-0.026,-0.105,-17.436,-12.376,-46.727
11:12:31:023,42.391,-0.576,-1.243,-0.079,-14.639,-11.654,-46.849
11:12:31:049,42.417,-0.174,-1.108,0.033,-12.202,-11.517,-44.980
11:12:31:075,42.444,-0.144,-0.949,0.054,-8.679,-11.247,-38.686
11:12:31:102,42.470,-0.418,-0.978,-0.048,-6.644,-10.705,-32.571
11:12:31:128,42.496,-0.521,-0.494,-0.164,-5.726,-10.296,-22.005
11:12:31:154,42.523,-0.355,0.003,-0.290,-6.312,-11.795,-10.196
11:12:31:181,42.549,0.323,0.661,-0.233,-7.156,-15.379,-1.677
11:12:31:206,42.575,1.970,0.991,0.208,-7.667,-23.470,11.280
11:12:31:233,42.601,3.015,1.040,0.576,-7.308,-28.923,18.483
11:12:31:259,42.628,3.460,-1.243,0.261,-5.040,-32.188,23.710
11:12:31:286,42.655,2.270,-1.173,0.599,-5.619,-31.361,24.042
11:12:31:311,42.680,0.107,-0.032,-0.093,-7.155,-29.355,20.975
11:12:31:367,42.735,0.831,-1.415,0.860,-7.949,-32.628,16.103
11:12:31:367,42.736,0.211,0.059,-0.414,-8.546,-33.528,14.000
11:12:31:392,42.761,0.459,0.265,-0.261,-11.014,-33.588,11.054
11:12:31:418,42.786,0.389,0.031,0.079,-11.981,-33.205,9.357
11:12:31:443,42.811,0.203,0.265,0.200,-12.910,-32.375,7.208
11:12:31:498,42.866,0.071,0.283,0.037,-13.565,-31.144,4.848
11:12:31:499,42.867,0.041,0.502,0.020,-13.752,-30.203,3.126
11:12:31:521,42.890,-0.162,0.367,0.070,-13.726,-28.612,0.277
11:12:31:548,42.917,-0.213,0.214,-0.021,-13.780,-27.602,-1.625
11:12:31:574,42.942,-0.249,0.046,-0.098,-13.967,-26.363,-4.513
11:12:31:6,42.968,-0.274,0.136,-0.257,-14.262,-25.594,-6.705
11:12:31:626,42.995,-0.426,0.040,-0.125,-14.840,-23.600,-11.088
11:12:31:654,43.023,-0.879,0.331,-0.114,-15.389,-20.255,-17.768
11:12:31:68,43.048,-1.233,0.488,-0.034,-15.906,-17.612,-23.552
11:12:31:705,43.074,-1.485,0.356,-0.453,-16.054,-12.640,-33.484
11:12:31:732,43.100,-1.697,-0.313,-0.759,-16.327,-9.466,-40.036
11:12:31:758,43.126,0.577,0.580,-0.140,-15.771,-8.235,-47.346
11:12:31:813,43.181,-0.992,-1.094,0.005,-12.721,-7.654,-48.304
11:12:31:814,43.182,-0.180,-1.242,0.035,-10.236,-7.747,-46.896
11:12:31:865,43.234,-0.198,-1.019,0.048,-7.441,-7.076,-41.509
11:12:31:866,43.235,-0.406,-1.127,0.104,-6.375,-6.901,-35.912
11:12:31:889,43.257,-0.600,-0.606,0.071,-6.319,-6.729,-25.272
11:12:31:915,43.283,-0.566,-0.122,-0.038,-6.962,-7.079,-17.613
11:12:31:944,43.313,-0.309,0.569,0.173,-8.621,-9.344,-4.966
11:12:31:945,43.313,1.161,1.150,0.334,-10.048,-14.288,8.449
11:12:31:968,43.337,3.099,0.951,0.216,-10.083,-18.008,16.457
11:12:31:994,43.362,3.528,-1.540,-0.076,-8.733,-21.139,24.095
11:12:32:049,43.417,2.541,-1.332,0.102,-9.029,-20.557,25.353
11:12:32:102,43.470,1.818,-0.645,-1.996,-10.709,-19.336,23.080
11:12:32:103,43.471,0.885,-1.135,0.455,-11.393,-21.544,19.074
11:12:32:128,43.497,1.013,-0.607,-0.394,-11.440,-22.091,14.279
11:12:32:129,43.497,0.733,-0.149,-0.050,-13.317,-22.563,10.345
11:12:32:182,43.550,0.400,-0.008,0.046,-14.151,-22.152,8.132
11:12:32:182,43.550,0.178,0.113,0.172,-14.960,-21.395,5.344
11:12:32:204,43.572,0.088,0.221,0.033,-15.318,-20.855,3.798
11:12:32:259,43.628,0.111,0.426,0.160,-15.635,-19.858,1.644
11:12:32:26,43.628,-0.026,0.158,-0.004,-15.793,-18.350,-0.922
11:12:32:341,43.709,-0.014,0.093,0.030,-15.862,-17.283,-2.632
11:12:32:342,43.710,-0.007,-0.013,-0.103,-16.074,-15.606,-5.277
11:12:32:343,43.711,-0.193,0.203,-0.154,-16.291,-14.240,-7.218
11:12:32:361,43.730,-0.375,0.102,-0.121,-16.769,-11.214,-11.034
11:12:32:388,43.756,-0.752,0.521,-0.136,-17.305,-6.810,-17.084
11:12:32:528,43.896,-0.660,0.688,0.215,-17.577,-3.196,-22.589
11:12:32:529,43.897,-1.334,0.377,-0.213,-16.994,4.226,-31.702
11:12:32:53,43.898,-1.461,0.259,-0.265,-17.489,7.684,-37.410
11:12:32:531,43.899,0.023,-0.279,-0.076,-15.508,10.517,-43.433
11:12:32:548,43.916,-0.727,-1.148,0.304,-10.972,14.913,-44.862
11:12:32:549,43.917,-0.333,-1.085,0.360,-8.728,17.524,-43.876
11:12:32:571,43.940,-0.157,-1.089,0.383,-8.540,20.495,-39.177
11:12:32:598,43.966,-0.494,-0.865,0.519,-10.499,21.680,-34.076
11:12:32:624,43.992,-0.427,-0.439,0.617,-14.593,21.864,-24.669
11:12:32:652,44.020,-0.164,0.020,0.529,-16.694,21.526,-17.680
11:12:32:706,44.074,0.052,0.337,0.746,-18.792,22.750,-6.738
11:12:32:707,44.075,1.261,0.755,0.350,-20.863,24.568,4.297
11:12:32:729,44.097,1.717,0.531,-0.364,-22.278,25.363,11.274
11:12:32:755,44.124,2.488,-0.153,-0.980,-24.596,26.598,18.955
11:12:32:811,44.180,2.346,-0.630,-0.987,-25.552,28.211,20.527
11:12:32:811,44.180,1.074,-0.679,-0.801,-26.235,29.359,20.644
11:12:32:863,44.231,1.717,2.112,2.001,-25.844,27.680,18.715
11:12:32:864,44.232,0.356,-2.321,-0.831,-25.039,26.225,15.262
11:12:32:887,44.256,0.115,0.278,0.363,-26.378,25.931,12.332
11:12:32:973,44.341,0.207,0.060,-0.003,-27.376,26.698,10.522
11:12:32:973,44.341,0.245,0.223,-0.091,-28.495,28.134,8.034
11:12:32:973,44.341,0.162,0.220,-0.040,-29.106,29.248,6.280
11:12:32:993,44.361,0.227,0.313,0.103,-29.632,30.906,3.205
11:12:33:02,44.388,0.209,0.427,0.270,-29.719,32.899,-0.425
11:12:33:044,44.413,0.103,0.418,0.361,-29.602,34.423,-3.084
11:12:33:07,44.439,0.032,0.158,0.433,-29.359,36.863,-7.014
11:12:33:097,44.465,-0.157,0.214,0.463,-29.395,38.651,-9.710
11:12:33:18,44.548,-0.488,0.208,0.502,-29.664,42.163,-14.698
11:12:33:18,44.548,-0.311,0.198,0.792,-30.296,47.556,-22.084
11:12:33:205,44.574,-0.651,0.346,1.377,-30.910,51.707,-28.560
11:12:33:205,44.574,-0.807,0.074,1.458,-32.063,57.637,-39.593
11:12:33:228,44.596,-1.298,-0.391,1.806,-32.588,61.581,-46.739
11:12:33:256,44.624,-0.310,0.585,0.298,-33.242,64.586,-55.086
11:12:33:309,44.678,-0.384,-1.311,0.951,-31.889,65.300,-57.306
11:12:33:31,44.679,0.102,-1.265,0.243,-27.433,66.433,-57.489
11:12:33:333,44.701,-0.101,-1.079,0.123,-21.740,67.507,-53.519
11:12:33:359,44.728,-0.020,-1.215,0.193,-18.253,68.416,-48.255
11:12:33:386,44.754,-0.119,-0.866,0.735,-15.841,69.729,-37.285
11:12:33:412,44.780,-0.208,-0.374,0.711,-15.971,70.131,-29.013
11:12:33:438,44.806,-0.049,0.411,0.319,-17.803,68.429,-15.364
11:12:33:464,44.832,0.900,0.921,-0.871,-20.533,62.504,0.199
11:12:33:49,44.859,1.468,1.266,-2.180,-21.984,58.017,9.837
11:12:33:546,44.915,1.254,0.098,-3.565,-22.329,54.570,18.661
11:12:33:547,44.915,0.798,-1.290,-2.450,-21.766,55.513,20.362
11:12:33:569,44.938,1.553,-0.526,-1.129,-22.810,58.190,17.658
11:12:33:595,44.964,0.165,0.051,-0.008,-23.875,56.227,13.944
11:12:33:621,44.990,0.382,-0.593,-0.250,-23.739,55.304,9.153
11:12:33:677,45.045,0.381,0.184,0.037,-25.984,55.731,5.007
11:12:33:678,45.046,0.215,0.230,-0.156,-26.732,56.443,2.617
11:12:33:701,45.069,0.328,0.208,0.069,-27.454,57.828,-0.759
11:12:33:782,45.150,0.242,0.460,0.235,-27.928,60.426,-5.976
11:12:33:782,45.151,0.186,0.325,0.348,-27.632,62.246,-9.416
11:12:33:806,45.175,0.111,0.066,0.457,-27.353,63.753,-11.776
11:12:33:832,45.200,-0.068,0.246,0.618,-27.297,66.203,-15.281
11:12:33:858,45.226,-0.268,0.153,0.714,-27.333,68.402,-18.146
11:12:33:884,45.253,-0.155,0.059,0.797,-27.538,73.271,-24.416
11:12:33:91,45.279,0.294,0.177,1.031,-27.966,77.145,-29.977
11:12:33:966,45.334,-0.067,0.105,1.323,-28.012,83.524,-39.822
11:12:33:966,45.335,-0.642,-0.389,2.130,-26.985,89.538,-49.736
11:12:33:989,45.358,-0.250,0.510,0.474,-26.595,91.330,-54.971
11:12:34:015,45.383,-0.159,-0.727,0.829,-24.031,91.007,-59.590
11:12:34:042,45.411,0.021,-1.284,0.250,-21.396,91.728,-60.380
11:12:34:068,45.436,0.025,-0.948,0.039,-16.436,92.178,-58.399
11:12:34:094,45.462,0.011,-1.208,0.208,-13.663,93.294,-52.413
11:12:34:12,45.489,0.035,-1.112,0.427,-13.335,94.095,-46.363
11:12:34:148,45.516,0.105,-0.548,0.734,-15.282,94.709,-35.414
11:12:34:205,45.573,0.322,0.185,0.691,-17.113,94.487,-27.367
11:12:34:206,45.574,0.602,1.067,-0.135,-20.437,91.609,-13.750
11:12:34:207,45.575,0.710,1.220,-1.940,-23.080,86.932,0.301
11:12:34:225,45.594,0.304,0.912,-2.996,-23.830,84.608,8.086
11:12:34:252,45.620,-0.133,-0.759,-2.561,-23.727,86.530,11.840
11:12:34:278,45.647,0.326,-0.662,-1.950,-24.066,88.719,9.872
11:12:34:304,45.672,2.911,1.944,0.322,-25.548,85.576,6.069
11:12:34:331,45.699,-0.438,-2.801,-0.755,-24.221,84.888,2.377
11:12:34:386,45.754,0.319,0.365,0.236,-26.483,84.804,-1.384
11:12:34:387,45.755,0.160,0.486,-0.054,-27.778,85.897,-4.650
11:12:34:438,45.807,-0.010,0.102,0.094,-28.080,86.820,-6.830
11:12:34:439,45.808,0.197,0.239,0.101,-28.654,88.055,-9.509
11:12:34:52,45.888,0.230,0.357,0.171,-28.889,88.908,-11.250
11:12:34:521,45.889,0.217,0.394,0.260,-28.779,90.384,-14.210
11:12:34:521,45.889,0.235,0.169,0.406,-28.453,92.378,-17.329
11:12:34:54,45.909,0.204,0.108,0.491,-28.331,93.875,-19.451
11:12:34:595,45.964,0.186,-0.073,0.545,-28.189,96.692,-23.173
11:12:34:596,45.965,0.153,-0.039,0.769,-28.322,98.881,-26.409
11:12:34:648,46.017,0.237,-0.063,0.848,-28.833,102.592,-33.023
11:12:34:649,46.017,0.827,0.247,0.943,-29.577,105.568,-38.741
11:12:34:672,46.040,0.444,-0.025,1.540,-29.576,111.032,-48.446
11:12:34:698,46.066,0.470,-0.267,2.239,-30.394,115.613,-57.742
11:12:34:812,46.181,0.416,-0.393,0.856,-31.216,116.694,-62.332
11:12:34:813,46.181,0.356,-1.144,0.698,-27.032,117.900,-66.168
11:12:34:813,46.182,0.215,-1.286,-0.006,-22.106,118.984,-65.884
11:12:34:814,46.182,0.183,-1.275,0.092,-15.669,120.513,-62.288
11:12:34:829,46.197,0.283,-1.124,0.169,-12.293,122.704,-54.733
11:12:34:885,46.253,0.460,-0.989,0.390,-11.898,124.131,-47.832
11:12:34:885,46.253,0.640,-0.373,0.515,-13.027,125.709,-36.053
11:12:34:908,46.276,0.634,0.308,0.450,-14.229,126.156,-27.680
11:12:34:934,46.303,0.511,1.103,-0.332,-16.378,126.002,-14.415
11:12:34:987,46.355,-0.675,1.388,-1.791,-17.475,125.175,-5.913
11:12:35:016,46.384,-1.509,0.775,-2.253,-18.233,124.700,3.210
11:12:35:017,46.385,-1.438,-0.490,-1.930,-18.524,126.275,6.026
11:12:35:126,46.495,-0.930,-0.852,-2.089,-18.853,127.274,4.532
11:12:35:127,46.496,0.306,1.191,0.346,-21.390,125.424,0.641
11:12:35:128,46.497,-1.141,-2.757,-0.596,-20.362,125.008,-3.104
11:12:35:129,46.497,0.290,0.139,0.101,-22.603,125.830,-6.845
11:12:35:198,46.566,-0.084,0.083,-0.123,-23.756,127.247,-10.106
11:12:35:227,46.595,0.190,0.175,0.052,-24.214,128.319,-11.999
11:12:35:227,46.596,0.181,0.301,0.176,-24.993,130.010,-14.666
11:12:35:252,46.620,0.385,0.454,0.154,-25.238,131.120,-16.486
11:12:35:307,46.676,0.515,0.389,0.201,-25.029,132.849,-19.514
11:12:35:308,46.677,0.602,0.080,0.292,-24.758,134.199,-21.624
11:12:35:309,46.677,0.614,0.011,0.395,-24.426,136.477,-24.706
11:12:35:328,46.696,0.590,-0.074,0.691,-24.324,139.244,-28.436
11:12:35:354,46.722,0.600,-0.239,0.447,-24.305,141.657,-31.793
11:12:35:409,46.778,1.112,-0.092,0.532,-24.532,146.199,-38.725
11:12:35:41,46.778,1.307,0.124,0.343,-24.958,149.331,-44.491
11:12:35:433,46.801,1.566,-0.533,1.069,-24.276,154.431,-53.906
11:12:35:459,46.828,1.408,0.222,1.135,-23.012,158.603,-62.618
11:12:35:515,46.883,0.308,0.439,0.984,-19.974,158.697,-67.305
11:12:35:515,46.883,0.766,-1.513,0.457,-14.692,158.534,-69.216
11:12:35:625,46.994,-0.007,-1.041,-0.037,-9.739,158.422,-68.919
11:12:35:626,46.995,-0.075,-0.970,-0.063,-3.152,158.229,-65.188
11:12:35:627,46.995,0.277,-1.306,-0.008,-1.008,158.616,-59.931
11:12:35:628,46.996,0.511,-1.010,0.144,-0.789,159.452,-49.263
11:12:35:644,47.012,0.784,-0.503,0.415,-3.395,159.725,-37.209
11:12:35:669,47.037,0.824,0.244,0.663,-5.965,158.269,-28.562
11:12:35:696,47.064,-0.209,1.407,-0.092,-10.185,151.752,-14.523
11:12:35:749,47.118,-2.047,1.750,-0.695,-11.574,146.350,-5.299
11:12:35:806,47.175,-3.452,0.324,-1.231,-11.487,141.575,4.153
11:12:35:807,47.175,-2.439,-0.462,-1.382,-10.923,143.058,5.949
11:12:35:808,47.176,-1.910,0.524,-2.307,-11.071,144.203,3.150
11:12:35:856,47.224,0.200,-0.453,0.735,-13.497,143.109,-2.987
11:12:35:857,47.225,-0.491,-0.083,-0.977,-13.193,142.558,-6.897
11:12:35:908,47.276,0.037,-0.027,-0.192,-15.942,143.573,-11.425
11:12:35:909,47.277,-0.299,0.267,0.125,-16.806,144.387,-14.127
11:12:35:932,47.300,0.071,0.246,0.053,-17.646,145.984,-17.546
11:12:35:958,47.326,0.281,0.499,0.096,-18.076,147.410,-20.393
11:12:36:014,47.383,0.490,0.616,0.156,-18.071,148.370,-22.365
11:12:36:014,47.383,0.670,0.318,0.228,-17.618,149.651,-25.636
11:12:36:036,47.405,0.626,0.029,0.331,-17.164,150.356,-27.697
11:12:36:063,47.431,0.672,-0.053,0.559,-16.368,151.821,-30.564
11:12:36:089,47.458,0.587,-0.039,0.455,-15.415,153.836,-33.748
11:12:36:144,47.513,0.822,-0.272,0.423,-14.750,155.776,-36.870
11:12:36:145,47.513,1.129,-0.373,0.363,-14.113,158.790,-43.376
11:12:36:168,47.536,1.361,-0.285,0.544,-13.831,160.518,-48.883
11:12:36:221,47.590,1.594,-0.973,0.672,-11.408,162.993,-57.262
11:12:36:25,47.618,1.435,0.466,1.227,-6.568,163.841,-65.068
11:12:36:25,47.618,1.285,-0.978,0.596,-2.828,163.268,-67.502
11:12:36:273,47.641,0.354,-0.702,0.173,2.339,162.470,-69.644
11:12:36:387,47.755,0.005,-0.993,0.124,5.573,162.081,-68.580
11:12:36:388,47.756,0.141,-1.193,0.086,7.072,162.109,-62.397
11:12:36:388,47.757,0.314,-0.998,0.031,6.004,162.385,-56.011
11:12:36:389,47.758,0.674,-0.695,0.209,2.581,162.974,-44.587
11:12:36:404,47.772,0.806,-0.397,0.305,-1.868,162.009,-32.091
11:12:36:433,47.801,0.472,0.561,0.274,-5.458,158.769,-23.050
11:12:36:434,47.802,-0.636,1.205,-0.188,-8.720,151.568,-8.416
11:12:36:456,47.825,-2.374,1.735,-0.546,-9.293,147.036,0.257
11:12:36:483,47.851,-3.411,0.392,-0.740,-7.990,143.704,8.477
11:12:36:509,47.877,-2.028,-0.807,-0.799,-7.494,145.920,10.866
11:12:36:535,47.904,-1.177,0.324,-0.051,-8.638,148.337,9.794
11:12:36:591,47.959,0.330,2.884,-0.302,-10.201,149.172,3.371
11:12:36:591,47.960,0.233,-0.434,-0.116,-10.808,147.445,-1.512
11:12:36:616,47.985,-0.787,0.520,-0.331,-12.625,147.297,-7.504
11:12:36:641,48.010,-0.086,-0.013,-0.250,-14.125,148.230,-10.691
11:12:36:667,48.035,-0.227,0.092,0.308,-15.439,149.553,-15.046
11:12:36:693,48.061,0.075,0.255,0.108,-15.604,150.873,-18.498
11:12:36:719,48.088,0.091,0.365,0.028,-15.793,151.708,-20.257
11:12:36:774,48.143,0.408,0.619,0.040,-16.058,153.035,-22.607
11:12:36:775,48.144,0.632,0.430,0.277,-15.835,153.934,-24.288
11:12:36:825,48.194,0.689,0.250,0.277,-15.035,155.135,-26.858
11:12:36:853,48.222,0.659,-0.059,0.443,-13.691,156.737,-29.116
11:12:36:854,48.222,0.643,0.051,0.449,-12.709,157.974,-30.559
11:12:36:877,48.245,0.470,-0.221,0.127,-11.293,159.751,-33.202
11:12:36:904,48.272,0.546,-0.366,0.176,-10.811,161.028,-35.540
11:12:37:01,48.378,0.616,-0.594,0.344,-10.617,162.576,-40.430
11:12:37:037,48.406,0.763,-0.409,0.505,-10.788,163.681,-44.667
11:12:37:038,48.407,0.797,-0.565,0.579,-10.340,165.495,-51.962
11:12:37:066,48.434,2.221,0.575,1.164,-7.146,168.074,-59.809
11:12:37:067,48.435,1.597,-0.189,0.899,-4.612,168.225,-64.238
11:12:37:068,48.436,0.889,-0.529,0.374,-1.089,167.065,-68.697
11:12:37:087,48.455,0.491,-0.719,0.328,-0.079,166.567,-70.070
11:12:37:113,48.482,0.241,-1.151,0.141,1.214,165.504,-67.869
11:12:37:169,48.537,0.074,-0.946,0.099,1.536,164.571,-61.207
11:12:37:17,48.538,0.296,-0.973,0.165,2.026,164.886,-54.958
11:12:37:194,48.563,0.550,-0.804,0.075,1.571,166.012,-43.874
11:12:37:218,48.586,0.815,-0.409,0.234,0.057,166.704,-35.769
11:12:37:245,48.613,0.274,0.750,0.063,-4.175,165.632,-22.633
11:12:37:385,48.753,-0.861,1.418,-0.076,-7.002,162.667,-12.829
11:12:37:385,48.754,-2.105,2.024,-0.825,-10.138,156.216,1.105
11:12:37:386,48.755,-3.663,-0.434,-0.596,-9.130,154.255,8.711
11:12:37:387,48.755,-2.156,-0.819,-0.797,-8.948,156.646,10.444
11:12:37:403,48.771,-1.561,-0.677,0.135,-10.335,160.030,7.992
11:12:37:46,48.829,-0.280,2.522,-2.010,-12.425,159.176,4.286
11:12:37:461,48.829,-0.542,-0.480,-0.445,-12.290,157.616,-1.413
11:12:37:461,48.830,-0.254,-0.051,-0.043,-14.574,158.139,-5.521
11:12:37:481,48.849,0.110,0.446,0.230,-15.387,158.992,-7.658
11:12:37:565,48.933,0.021,0.245,0.075,-16.062,160.317,-10.419
11:12:37:565,48.934,0.237,0.320,0.172,-16.478,161.156,-12.018
11:12:37:566,48.935,0.151,0.310,0.117,-16.886,162.282,-14.174
11:12:37:585,48.954,0.245,0.330,0.111,-16.788,163.078,-15.691
11:12:37:641,49.009,0.426,0.177,0.125,-16.390,164.657,-17.973
11:12:37:641,49.010,0.548,0.129,0.148,-16.109,166.595,-20.280
11:12:37:666,49.035,0.584,0.018,0.161,-15.970,168.177,-22.075
11:12:37:721,49.090,0.700,-0.138,0.186,-15.883,171.131,-25.770
11:12:37:721,49.090,0.829,-0.048,0.204,-15.938,173.461,-29.282
11:12:37:743,49.111,0.866,0.304,-0.120,-15.832,178.099,-36.353
11:12:37:77,49.138,1.860,0.180,0.707,-13.446,-175.193,-45.004
11:12:37:824,49.193,2.500,0.070,0.326,-11.411,-170.848,-50.911
11:12:37:825,49.194,0.613,-0.572,-0.179,-10.140,-168.213,-58.360
11:12:37:848,49.217,0.601,-1.168,-0.045,-5.164,-167.198,-61.675
11:12:37:903,49.272,0.522,-1.501,-0.331,4.407,-164.746,-61.392
11:12:37:904,49.273,-0.047,-1.102,-0.307,7.810,-163.512,-58.944
11:12:37:957,49.325,0.264,-1.129,-0.269,7.564,-161.737,-51.919
11:12:37:957,49.325,0.622,-0.735,-0.361,3.503,-160.263,-41.760
11:12:37:979,49.348,0.686,-0.456,-0.329,0.387,-160.179,-34.057
11:12:38:007,49.375,0.647,0.288,-0.329,-3.749,-161.348,-21.585
11:12:38:091,49.460,-0.264,1.301,-0.073,-5.907,-162.603,-12.897
11:12:38:091,49.460,-1.708,1.317,0.639,-7.220,-163.614,-1.127
11:12:38:092,49.460,-2.504,0.407,1.316,-6.721,-162.046,6.663
11:12:38:111,49.479,-2.056,-0.181,1.229,-6.850,-159.559,8.328
11:12:38:136,49.505,-2.586,0.158,0.302,-7.007,-157.982,5.460
11:12:38:163,49.532,0.373,2.785,-1.457,-8.959,-159.396,2.769
11:12:38:218,49.587,-0.448,-1.560,0.487,-8.377,-160.624,-2.338
11:12:38:219,49.588,-0.033,0.001,-0.098,-9.949,-160.214,-4.594
11:12:38:243,49.611,0.065,0.176,0.227,-10.910,-159.004,-7.381
11:12:38:297,49.665,0.080,0.166,0.094,-11.536,-157.546,-9.526
11:12:38:298,49.666,0.209,0.273,0.209,-11.996,-156.609,-10.791
11:12:38:401,49.769,0.319,0.340,0.091,-12.270,-154.847,-12.861
11:12:38:427,49.795,0.420,0.346,-0.024,-12.095,-153.599,-14.396
11:12:38:462,49.830,0.440,0.255,-0.166,-11.452,-151.531,-16.896
11:12:38:462,49.831,0.480,0.100,-0.237,-10.946,-149.401,-19.372
11:12:38:463,49.832,0.757,-0.024,-0.155,-10.779,-147.901,-21.301
11:12:38:464,49.832,0.791,-0.054,-0.153,-10.650,-145.108,-25.195
11:12:38:507,49.875,0.658,-0.043,-0.294,-10.493,-142.518,-28.718
11:12:38:558,49.926,0.892,0.173,-0.796,-9.835,-137.632,-35.678
11:12:38:613,49.981,1.004,0.106,-0.962,-7.218,-131.762,-43.949
11:12:38:614,49.982,1.593,-0.253,-1.307,-4.268,-127.796,-49.366
11:12:38:643,50.011,0.910,-0.372,-0.899,0.793,-124.348,-55.948
11:12:38:643,50.011,0.365,-0.700,-0.388,7.227,-123.855,-58.841
11:12:38:643,50.012,0.169,-1.282,-0.578,12.490,-120.621,-58.283
11:12:38:694,50.062,-0.055,-1.040,-0.098,14.574,-119.886,-56.236
11:12:38:694,50.063,-0.089,-0.941,0.004,14.495,-118.647,-50.176
11:12:38:695,50.064,0.158,-1.049,-0.640,11.741,-116.932,-40.238
11:12:38:774,50.142,0.269,-0.554,-0.643,8.985,-116.392,-32.439
11:12:38:774,50.142,0.480,0.079,-0.590,4.930,-117.015,-20.501
11:12:38:774,50.143,0.159,0.984,0.327,2.175,-119.513,-12.390
11:12:38:793,50.161,-0.243,1.148,1.601,-0.311,-125.363,-0.384
11:12:38:819,50.188,-1.112,0.414,3.074,-0.811,-129.424,9.089
11:12:38:846,50.214,-1.249,-0.469,2.974,-0.780,-128.874,12.352
11:12:38:93,50.298,-1.575,-0.847,1.775,-1.324,-124.762,11.820
11:12:38:93,50.299,0.172,3.031,-0.984,-1.621,-125.163,7.656
11:12:38:931,50.300,-0.406,-1.776,0.364,-1.843,-127.440,3.458
11:12:38:98,50.348,-0.087,0.408,1.229,-3.517,-128.328,0.831
11:12:38:98,50.348,0.043,0.199,0.353,-5.102,-127.279,-2.516
11:12:39:004,50.373,0.163,0.142,0.177,-5.854,-126.152,-4.933
11:12:39:058,50.427,0.200,0.254,0.224,-6.219,-125.330,-6.288
11:12:39:059,50.427,0.270,0.278,0.138,-6.891,-123.894,-8.120
11:12:39:082,50.450,0.231,0.501,-0.016,-7.060,-122.863,-9.467
11:12:39:188,50.556,0.353,0.408,-0.192,-6.710,-121.177,-11.973
11:12:39:222,50.590,0.400,0.113,-0.287,-5.897,-119.347,-14.616
