Time,Second,AccelerationX,AccelerationY,AccelerationZ,EulerAnglesX,EulerAnglesY,EulerAnglesZ
09:27:18:316,0.000,1.361,-0.283,0.264,-5.500,10.538,5.114
09:27:18:341,0.024,-0.134,-0.282,0.229,-3.085,6.450,5.062
09:27:18:367,0.051,-0.082,0.053,-0.015,-3.374,3.118,5.869
09:27:18:393,0.077,-0.039,-0.015,-0.048,-3.819,-1.714,7.326
09:27:18:449,0.133,0.059,0.049,-0.091,-4.763,-3.919,9.149
09:27:18:45,0.133,-0.106,0.009,-0.080,-5.288,-4.307,10.510
09:27:18:472,0.156,-0.045,0.066,-0.156,-5.866,-4.838,12.463
09:27:18:498,0.182,-0.138,0.038,-0.204,-5.943,-5.281,13.563
09:27:18:554,0.238,0.012,-0.043,-0.169,-5.175,-6.357,14.445
09:27:18:554,0.238,-0.013,-0.040,-0.169,-4.328,-7.269,14.720
09:27:18:577,0.261,-0.002,-0.054,-0.167,-2.904,-8.742,15.157
09:27:18:603,0.287,-0.008,-0.050,-0.143,-1.655,-9.991,15.481
09:27:18:629,0.313,-0.036,-0.015,-0.100,-1.034,-10.823,15.649
09:27:18:685,0.369,-0.051,0.048,-0.011,-0.279,-12.744,15.708
09:27:18:686,0.369,0.162,0.015,0.242,0.337,-14.868,15.647
09:27:18:708,0.392,0.208,-0.044,0.297,1.248,-17.171,15.622
09:27:18:735,0.418,0.004,-0.009,0.136,1.659,-16.956,15.719
09:27:18:76,0.444,-0.216,0.008,0.133,1.644,-16.204,15.797
09:27:18:788,0.472,-0.297,0.075,0.174,0.934,-15.488,15.681
09:27:18:814,0.497,-0.392,0.184,-0.048,0.080,-15.174,15.553
09:27:18:84,0.524,-0.563,0.267,-0.253,-1.346,-14.622,15.985
09:27:18:867,0.551,-0.556,0.136,-0.157,-0.728,-16.051,16.452
09:27:18:893,0.576,-0.387,0.091,-0.136,0.668,-18.471,16.917
09:27:18:977,0.661,-0.248,0.134,-0.160,3.261,-22.589,18.334
09:27:18:977,0.661,-0.196,0.087,-0.123,5.260,-24.924,19.586
09:27:18:978,0.662,-0.095,0.105,-0.090,8.043,-27.492,21.939
09:27:19:024,0.708,-0.071,0.113,-0.090,9.557,-28.798,23.823
09:27:19:053,0.737,0.060,0.113,-0.012,11.439,-30.814,26.900
09:27:19:054,0.738,0.133,0.092,-0.006,13.145,-32.860,30.085
09:27:19:076,0.759,0.202,0.089,0.009,14.219,-34.000,32.196
09:27:19:131,0.814,0.166,0.076,-0.060,16.139,-35.183,35.037
09:27:19:132,0.815,3.136,-1.191,1.040,19.174,-36.818,37.224
09:27:19:155,0.839,-0.560,0.032,0.071,21.932,-32.523,40.806
09:27:19:181,0.865,0.302,0.163,0.066,21.047,-25.237,47.879
09:27:19:208,0.891,-0.008,-0.016,-0.134,19.859,-25.691,47.060
09:27:19:234,0.918,0.105,-0.056,0.013,19.502,-29.836,44.088
09:27:19:26,0.943,0.204,-0.105,0.068,20.375,-33.230,41.549
09:27:19:315,0.999,0.134,-0.075,0.039,23.018,-38.078,39.352
09:27:19:316,1.000,0.077,-0.008,0.106,28.735,-41.451,39.488
09:27:19:338,1.022,0.040,0.030,0.198,32.367,-42.975,39.709
09:27:19:394,1.078,-0.059,-0.087,-0.039,36.692,-44.018,41.045
09:27:19:395,1.078,-0.073,-0.194,-0.102,38.915,-44.048,42.995
09:27:19:418,1.101,-0.066,-0.091,0.000,41.149,-44.081,45.346
09:27:19:443,1.127,-0.323,0.012,0.041,40.673,-44.951,44.257
09:27:19:47,1.153,-0.080,0.095,0.333,39.512,-46.550,42.793
09:27:19:496,1.180,0.980,-0.127,0.362,38.330,-44.458,46.338
09:27:19:522,1.206,-0.504,-0.070,-0.198,37.625,-36.608,52.266
09:27:19:55,1.233,0.208,0.244,-0.094,29.961,-31.211,55.020
09:27:19:578,1.262,-0.085,-0.127,-0.155,26.033,-28.343,56.680
09:27:19:578,1.262,0.023,-0.105,-0.126,18.500,-24.216,58.940
09:27:19:63,1.314,-0.457,-0.195,-0.500,10.728,-20.561,60.556
09:27:19:63,1.314,0.093,0.058,-0.058,9.371,-20.816,60.546
09:27:19:653,1.337,-0.190,-0.021,-0.076,7.490,-20.798,61.346
09:27:19:68,1.363,-0.110,0.369,0.398,7.332,-20.342,61.108
09:27:19:735,1.419,-0.278,-0.153,0.027,12.985,-15.563,62.518
09:27:19:735,1.419,0.210,-0.048,0.193,20.797,-13.177,64.196
09:27:19:787,1.471,1.365,0.754,0.027,18.121,-15.610,64.727
09:27:19:788,1.472,0.698,1.153,-0.846,21.641,-16.623,65.047
09:27:19:811,1.494,-2.207,-1.621,0.869,31.726,-10.422,62.161
09:27:19:866,1.550,0.101,-0.246,0.382,37.608,-10.800,62.143
09:27:19:867,1.551,-0.457,-0.160,0.050,40.603,-8.799,61.890
09:27:19:889,1.573,-0.281,0.078,0.007,41.968,-8.355,62.346
09:27:19:947,1.630,-0.029,0.060,-0.041,42.473,-9.033,62.189
09:27:19:947,1.630,0.038,-0.027,-0.001,42.812,-9.937,61.950
09:27:19:968,1.652,-0.145,-0.112,0.044,42.955,-12.027,62.199
09:27:19:994,1.678,2.017,1.164,-0.183,40.075,-16.241,62.183
09:27:20:022,1.706,-0.133,-0.131,0.060,39.626,-18.352,62.387
09:27:20:048,1.732,-0.166,-0.145,0.052,39.430,-17.782,62.415
09:27:20:102,1.786,-0.069,-0.074,0.019,38.201,-17.560,62.238
09:27:20:103,1.787,0.009,-0.079,-0.046,36.369,-17.454,62.006
09:27:20:126,1.810,0.037,-0.009,-0.049,35.591,-17.522,61.810
09:27:20:152,1.836,0.028,0.014,-0.036,35.670,-17.604,61.549
09:27:20:178,1.862,-0.049,-0.069,0.021,37.252,-17.502,61.266
09:27:20:204,1.888,-0.048,-0.026,0.004,38.409,-17.597,60.809
09:27:20:26,1.943,-0.096,-0.007,0.024,40.917,-18.245,59.774
09:27:20:261,1.944,-0.043,-0.139,0.035,42.130,-19.135,58.519
09:27:20:285,1.969,-0.021,-0.202,0.060,43.007,-20.611,56.611
09:27:20:31,1.994,-0.041,-0.262,0.019,43.016,-21.996,55.096
09:27:20:335,2.019,0.002,-0.117,-0.049,42.370,-22.958,54.164
09:27:20:362,2.045,0.048,-0.072,-0.074,41.176,-25.439,51.782
09:27:20:388,2.072,0.121,0.052,-0.198,40.851,-28.165,48.923
09:27:20:416,2.100,0.641,-0.023,0.175,40.157,-34.265,41.228
09:27:20:442,2.125,0.658,-0.196,0.684,39.732,-36.907,37.504
09:27:20:467,2.151,-0.053,-0.494,0.074,38.154,-32.883,40.432
09:27:20:493,2.177,0.262,-0.001,0.041,30.916,-28.347,38.438
09:27:20:52,2.203,0.268,-0.167,0.137,26.633,-25.286,37.204
09:27:20:546,2.230,0.284,0.037,0.039,19.764,-19.935,34.158
09:27:20:572,2.256,0.117,0.166,-0.021,15.915,-16.091,31.625
09:27:20:6,2.284,0.068,0.202,0.027,11.850,-10.846,27.104
09:27:20:626,2.310,0.012,0.270,0.093,9.183,-6.057,21.998
09:27:20:651,2.334,-0.004,0.228,-0.026,7.984,-2.021,18.843
09:27:20:677,2.361,-0.197,0.353,0.134,6.993,3.085,13.938
09:27:20:703,2.387,-0.131,0.159,0.067,7.384,5.103,10.614
09:27:20:729,2.413,-0.259,0.203,-0.098,7.777,10.045,6.681
09:27:20:755,2.439,-0.484,0.077,-0.096,8.405,15.282,4.113
09:27:20:784,2.468,-0.389,0.010,-0.105,8.977,16.979,2.636
09:27:20:809,2.493,-0.308,-0.037,-0.135,9.739,17.910,0.991
09:27:20:835,2.519,-0.237,-0.045,-0.125,9.955,18.087,0.344
09:27:20:861,2.545,-0.238,-0.040,-0.113,9.857,18.512,-0.096
09:27:20:887,2.571,-0.295,-0.019,-0.101,9.523,19.181,-0.027
09:27:20:913,2.597,-0.288,-0.005,-0.097,8.812,19.932,0.370
09:27:20:94,2.623,-0.247,-0.030,-0.059,7.780,20.059,1.148
09:27:20:965,2.649,-0.246,-0.028,-0.055,7.246,19.899,1.306
09:27:20:993,2.677,-0.255,-0.036,-0.018,6.214,19.673,1.829
09:27:21:019,2.703,-0.189,-0.026,0.077,5.650,19.465,1.814
09:27:21:044,2.728,-0.033,0.011,0.169,4.919,18.786,1.477
09:27:21:071,2.754,0.062,0.046,0.251,4.743,18.669,0.714
09:27:21:097,2.781,-0.053,0.026,0.223,4.861,19.283,0.429
09:27:21:123,2.807,-0.163,0.031,0.205,4.985,19.712,-0.021
09:27:21:151,2.835,-0.086,0.045,0.149,5.057,18.845,-0.134
09:27:21:177,2.861,0.002,-0.004,0.008,5.176,17.246,0.137
09:27:21:202,2.886,0.029,-0.007,-0.022,5.253,16.284,0.571
09:27:21:228,2.912,-0.043,-0.008,-0.042,5.287,15.530,1.295
09:27:21:254,2.938,-0.066,-0.026,-0.052,5.234,15.658,2.170
09:27:21:281,2.964,-0.093,-0.040,-0.056,5.103,16.107,2.796
09:27:21:308,2.992,-0.042,-0.036,-0.059,4.836,16.561,3.630
09:27:21:333,3.017,0.005,-0.029,-0.056,4.587,16.728,4.238
09:27:21:418,3.101,0.042,-0.034,-0.017,4.506,16.486,4.531
09:27:21:418,3.102,0.014,-0.027,0.004,4.393,16.525,4.902
09:27:21:419,3.103,-0.026,-0.021,0.012,4.285,16.796,5.175
09:27:21:438,3.122,0.022,-0.021,0.027,4.056,17.175,5.543
09:27:21:464,3.148,0.005,0.013,0.035,3.951,17.316,5.677
09:27:21:491,3.174,0.016,0.003,0.054,3.945,17.297,5.760
09:27:21:517,3.201,-0.010,-0.017,0.029,4.128,17.151,5.740
09:27:21:543,3.227,-0.029,-0.006,0.040,4.177,17.235,5.677
09:27:21:57,3.254,-0.057,-0.004,0.025,4.190,17.304,5.531
09:27:21:597,3.281,-0.085,0.013,0.031,4.194,17.271,5.447
09:27:21:622,3.306,-0.100,0.014,0.025,4.280,16.846,5.388
09:27:21:648,3.332,-0.083,-0.009,0.025,4.380,16.398,5.433
09:27:21:674,3.358,-0.072,-0.013,0.017,4.511,15.513,6.003
09:27:21:701,3.384,-0.060,-0.015,0.023,4.654,14.586,6.484
09:27:21:727,3.411,-0.032,-0.012,0.015,4.789,13.936,6.740
09:27:21:753,3.437,-0.032,-0.012,0.012,5.007,12.677,7.019
09:27:21:78,3.463,-0.027,-0.014,-0.001,5.239,11.802,7.233
09:27:21:806,3.490,-0.017,-0.011,-0.003,5.377,11.051,7.327
09:27:21:832,3.516,-0.010,-0.020,0.002,5.530,10.376,7.401
09:27:21:858,3.542,-0.012,-0.015,0.013,5.616,9.967,7.430
09:27:21:888,3.571,-0.018,-0.012,0.007,5.725,9.449,7.453
09:27:21:888,3.572,-0.009,-0.006,0.007,5.805,8.958,7.445
09:27:21:941,3.625,-0.014,-0.012,-0.004,5.908,8.632,7.437
09:27:21:941,3.625,-0.017,-0.009,0.001,5.976,8.430,7.487
09:27:21:993,3.676,-0.019,0.000,0.000,6.005,8.343,7.533
09:27:21:994,3.677,-0.024,-0.012,0.016,6.066,8.235,7.614
09:27:22:016,3.700,-0.026,-0.007,0.000,6.116,8.205,7.670
09:27:22:042,3.726,-0.023,0.002,-0.007,6.152,8.146,7.740
09:27:22:068,3.752,-0.048,0.006,-0.001,6.166,8.166,7.837
09:27:22:096,3.780,-0.032,0.004,0.003,6.183,8.012,7.932
09:27:22:121,3.805,-0.024,0.005,0.008,6.216,7.814,8.000
09:27:22:147,3.831,0.007,-0.020,0.006,6.259,7.579,8.015
09:27:22:173,3.857,-0.021,-0.003,0.013,6.308,7.381,8.013
09:27:22:199,3.883,-0.015,-0.004,0.002,6.328,7.170,8.043
09:27:22:226,3.909,-0.011,-0.012,0.007,6.355,7.009,8.076
09:27:22:252,3.936,-0.021,-0.007,-0.004,6.373,6.904,8.098
09:27:22:278,3.962,-0.027,-0.001,-0.001,6.388,6.817,8.116
09:27:22:304,3.988,-0.022,-0.007,-0.003,6.420,6.521,8.128
09:27:22:331,4.014,-0.013,-0.006,0.007,6.446,6.354,8.113
09:27:22:357,4.041,-0.010,-0.008,0.002,6.480,6.136,8.068
09:27:22:383,4.067,-0.013,-0.007,0.008,6.501,6.030,8.068
09:27:22:409,4.093,-0.026,-0.001,-0.001,6.508,5.994,8.091
09:27:22:437,4.121,-0.015,-0.001,0.011,6.533,5.806,8.151
09:27:22:464,4.148,-0.010,-0.005,0.005,6.546,5.729,8.192
09:27:22:489,4.172,-0.010,-0.009,0.009,6.566,5.571,8.244
09:27:22:514,4.198,-0.022,-0.009,0.002,6.572,5.594,8.318
09:27:22:54,4.224,-0.025,-0.010,0.010,6.573,5.374,8.375
09:27:22:568,4.252,-0.027,-0.010,0.008,6.575,5.402,8.466
09:27:22:593,4.277,-0.028,-0.009,0.009,6.583,5.404,8.527
09:27:22:619,4.303,-0.018,-0.007,0.003,6.612,5.365,8.601
09:27:22:646,4.330,-0.022,-0.011,0.007,6.628,5.346,8.637
09:27:22:672,4.356,-0.021,-0.014,0.006,6.654,5.310,8.664
09:27:22:698,4.382,-0.014,-0.006,0.004,6.661,5.301,8.693
09:27:22:724,4.408,-0.020,0.001,-0.002,6.669,5.275,8.706
09:27:22:751,4.435,-0.018,0.002,0.013,6.721,5.209,8.711
09:27:22:777,4.461,-0.018,-0.009,0.013,6.750,5.167,8.720
09:27:22:803,4.487,-0.017,-0.013,0.009,6.780,5.143,8.735
09:27:22:83,4.514,-0.024,-0.010,0.008,6.792,5.150,8.779
09:27:22:856,4.539,-0.016,0.003,0.013,6.807,5.115,8.821
09:27:22:882,4.566,-0.025,-0.002,0.006,6.811,5.129,8.927
09:27:22:91,4.594,-0.016,-0.011,0.003,6.819,5.100,8.977
09:27:22:935,4.619,-0.015,-0.009,0.006,6.833,5.087,9.073
09:27:22:961,4.645,-0.015,-0.011,-0.001,6.839,5.089,9.167
09:27:22:987,4.671,-0.018,-0.012,0.004,6.841,5.070,9.220
09:27:23:013,4.697,-0.012,-0.014,-0.003,6.850,5.035,9.285
09:27:23:04,4.723,-0.013,-0.013,0.003,6.851,5.018,9.322
09:27:23:067,4.751,-0.016,-0.010,-0.001,6.859,5.017,9.367
09:27:23:092,4.776,-0.012,-0.009,0.004,6.857,5.017,9.400
09:27:23:118,4.802,-0.012,-0.012,-0.003,6.856,5.013,9.438
09:27:23:144,4.828,-0.002,-0.015,0.004,6.860,5.002,9.469
09:27:23:171,4.854,-0.005,-0.013,0.000,6.866,4.998,9.483
09:27:23:199,4.883,-0.004,-0.009,0.003,6.869,5.015,9.520
09:27:23:225,4.908,-0.005,-0.007,0.003,6.885,5.026,9.536
09:27:23:251,4.934,-0.007,-0.007,0.006,6.898,5.103,9.575
09:27:23:276,4.960,-0.009,0.000,0.000,6.909,5.221,9.618
09:27:23:302,4.986,-0.012,0.000,0.012,6.913,5.309,9.651
09:27:23:328,5.012,-0.015,-0.005,0.007,6.929,5.424,9.696
09:27:23:355,5.038,-0.011,-0.001,0.011,6.944,5.517,9.730
09:27:23:382,5.066,-0.015,-0.002,0.008,6.966,5.664,9.785
09:27:23:407,5.091,-0.013,0.000,0.012,7.004,5.782,9.829
09:27:23:433,5.117,-0.011,-0.002,0.003,7.030,5.837,9.842
09:27:23:459,5.143,-0.009,-0.012,0.005,7.066,5.910,9.858
09:27:23:512,5.196,-0.001,-0.002,0.003,7.095,6.031,9.883
09:27:23:538,5.222,-0.004,-0.012,0.002,7.097,6.088,9.889
09:27:23:564,5.248,-0.002,-0.006,0.006,7.117,6.112,9.893
09:27:23:591,5.274,-0.005,-0.008,0.007,7.110,6.187,9.897
09:27:23:618,5.302,-0.014,-0.005,0.000,7.099,6.271,9.893
09:27:23:644,5.328,-0.015,-0.005,0.006,7.099,6.370,9.892
09:27:23:669,5.353,-0.014,-0.009,0.003,7.105,6.418,9.907
09:27:23:696,5.380,-0.013,-0.011,0.009,7.094,6.499,9.929
09:27:23:722,5.406,-0.015,-0.007,-0.001,7.090,6.583,9.955
09:27:23:749,5.433,-0.015,-0.006,0.003,7.090,6.643,9.972
09:27:23:775,5.459,-0.012,-0.009,-0.005,7.079,6.706,9.989
09:27:23:801,5.485,-0.010,-0.008,0.004,7.075,6.739,10.002
09:27:23:827,5.511,-0.007,-0.010,0.000,7.062,6.806,10.014
09:27:23:853,5.537,-0.007,-0.009,0.012,7.056,6.886,10.035
09:27:23:879,5.563,-0.008,-0.003,0.007,7.049,6.943,10.033
09:27:23:907,5.591,-0.008,-0.003,0.007,7.033,7.021,10.015
09:27:23:934,5.618,-0.010,-0.011,0.012,7.026,7.065,9.996
09:27:23:959,5.643,-0.010,-0.010,0.013,7.006,7.142,9.968
09:27:23:985,5.668,-0.014,-0.004,0.002,6.997,7.241,9.959
09:27:24:011,5.695,-0.013,-0.002,0.008,6.985,7.293,9.943
09:27:24:037,5.721,-0.015,-0.010,0.003,6.974,7.339,9.900
09:27:24:063,5.747,-0.015,-0.009,0.009,6.967,7.375,9.866
09:27:24:09,5.773,-0.017,-0.012,0.005,6.948,7.452,9.838
09:27:24:117,5.801,-0.015,-0.005,0.014,6.914,7.492,9.830
09:27:24:143,5.826,-0.011,0.000,0.005,6.901,7.480,9.834
09:27:24:168,5.852,-0.007,-0.009,0.006,6.894,7.469,9.815
09:27:24:195,5.879,-0.011,-0.008,0.007,6.876,7.479,9.800
09:27:24:221,5.904,-0.012,-0.005,0.008,6.839,7.525,9.798
09:27:24:247,5.931,-0.014,-0.006,0.007,6.799,7.526,9.807
09:27:24:275,5.959,-0.013,-0.011,0.007,6.787,7.505,9.811
09:27:24:299,5.983,-0.013,-0.007,0.009,6.765,7.483,9.818
09:27:24:329,6.012,-0.015,-0.003,0.003,6.752,7.481,9.823
09:27:24:33,6.013,-0.014,-0.002,0.006,6.724,7.470,9.832
09:27:24:353,6.036,-0.015,-0.002,0.004,6.706,7.441,9.833
09:27:24:378,6.062,-0.013,-0.004,0.011,6.690,7.357,9.836
09:27:24:404,6.088,-0.010,-0.010,0.010,6.676,7.223,9.832
09:27:24:431,6.115,-0.006,-0.003,0.013,6.669,7.122,9.826
09:27:24:457,6.141,-0.008,0.000,0.004,6.661,6.951,9.814
09:27:24:483,6.167,-0.006,0.002,0.007,6.664,6.840,9.805
09:27:24:509,6.193,-0.006,0.001,-0.005,6.665,6.697,9.795
09:27:24:536,6.220,-0.011,-0.001,0.002,6.658,6.568,9.784
09:27:24:591,6.275,-0.013,-0.010,0.003,6.652,6.471,9.784
09:27:24:592,6.276,-0.007,0.002,0.008,6.637,6.333,9.775
09:27:24:614,6.298,-0.013,-0.001,0.008,6.625,6.237,9.787
09:27:24:641,6.324,-0.008,-0.002,0.012,6.635,6.051,9.774
09:27:24:667,6.351,-0.009,-0.005,0.012,6.651,5.860,9.763
09:27:24:693,6.377,-0.011,-0.004,0.015,6.657,5.760,9.763
09:27:24:719,6.403,-0.018,-0.002,0.007,6.657,5.649,9.787
09:27:24:746,6.430,-0.014,-0.001,0.010,6.669,5.539,9.828
09:27:24:772,6.456,-0.011,-0.004,0.001,6.710,5.334,9.899
09:27:24:8,6.484,-0.009,-0.003,0.005,6.737,5.187,9.950
09:27:24:825,6.509,-0.006,-0.004,0.000,6.773,4.991,10.039
09:27:24:851,6.534,-0.006,-0.001,0.000,6.803,4.840,10.148
09:27:24:906,6.590,-0.005,0.000,-0.004,6.822,4.752,10.219
09:27:24:907,6.591,-0.004,-0.008,0.002,6.850,4.606,10.324
09:27:24:931,6.614,-0.004,-0.013,0.005,6.871,4.497,10.383
09:27:24:956,6.640,-0.001,-0.005,0.005,6.900,4.361,10.477
09:27:24:982,6.666,-0.003,-0.004,0.000,6.926,4.230,10.555
09:27:25:008,6.692,0.001,-0.001,-0.002,6.948,4.133,10.604
09:27:25:034,6.718,0.001,-0.004,0.003,6.983,3.980,10.668
09:27:25:061,6.745,0.002,-0.008,0.000,7.004,3.875,10.701
09:27:25:087,6.771,0.002,-0.011,0.006,7.032,3.727,10.763
09:27:25:113,6.797,0.005,-0.007,0.001,7.062,3.594,10.834
09:27:25:141,6.825,0.004,-0.007,0.007,7.078,3.513,10.886
09:27:25:166,6.850,0.005,-0.007,0.000,7.117,3.416,10.960
09:27:25:193,6.877,0.006,-0.012,0.006,7.132,3.359,10.991
09:27:25:218,6.902,0.006,-0.010,-0.004,7.154,3.303,11.051
09:27:25:245,6.929,0.004,-0.007,0.001,7.163,3.266,11.085
09:27:25:27,6.954,0.005,-0.005,-0.001,7.184,3.197,11.125
09:27:25:297,6.981,0.005,-0.008,0.006,7.199,3.125,11.128
09:27:25:323,7.007,0.003,-0.011,-0.006,7.213,3.082,11.122
09:27:25:349,7.033,0.002,-0.006,-0.010,7.220,3.006,11.117
09:27:25:376,7.059,0.002,-0.001,-0.020,7.214,2.906,11.100
09:27:25:403,7.087,0.004,-0.022,-0.009,7.200,2.598,11.056
09:27:25:429,7.113,0.010,-0.029,-0.009,7.192,2.168,11.005
09:27:25:455,7.138,0.004,-0.023,-0.004,7.149,1.942,10.969
09:27:25:481,7.165,0.001,-0.011,0.004,7.060,1.708,10.891
09:27:25:507,7.191,-0.002,-0.003,0.020,7.005,1.632,10.808
09:27:25:533,7.217,-0.007,-0.006,0.023,6.917,1.601,10.691
09:27:25:56,7.244,-0.016,0.003,0.032,6.897,1.598,10.634
09:27:25:586,7.269,-0.018,0.007,0.031,6.910,1.550,10.590
09:27:25:614,7.298,-0.010,0.005,0.029,6.969,1.403,10.584
09:27:25:64,7.323,-0.005,0.004,0.011,7.007,1.285,10.566
09:27:25:666,7.349,-0.006,0.006,0.004,7.036,1.135,10.540
09:27:25:692,7.376,-0.008,-0.002,-0.005,7.049,1.021,10.527
09:27:25:717,7.401,-0.006,0.001,0.000,7.057,0.810,10.491
09:27:25:743,7.427,-0.007,-0.007,-0.002,7.074,0.574,10.467
09:27:25:769,7.453,-0.006,-0.017,0.007,7.069,0.414,10.450
09:27:25:796,7.479,-0.005,-0.009,-0.002,7.038,0.179,10.441
09:27:25:822,7.506,-0.005,0.000,-0.009,7.025,0.016,10.454
09:27:25:848,7.532,0.001,-0.001,0.003,7.033,-0.322,10.455
09:27:25:876,7.560,0.016,-0.006,-0.002,7.033,-0.545,10.445
09:27:25:902,7.586,-0.002,-0.007,0.003,7.014,-0.563,10.436
09:27:25:929,7.613,-0.006,-0.010,-0.006,6.972,-0.554,10.455
09:27:25:954,7.638,-0.009,-0.008,0.002,6.958,-0.626,10.476
09:27:25:981,7.665,0.007,-0.008,0.000,6.977,-0.860,10.480
09:27:26:007,7.690,0.009,-0.014,0.002,7.003,-0.999,10.499
09:27:26:032,7.716,0.003,-0.020,-0.003,7.003,-0.983,10.527
09:27:26:058,7.742,-0.005,-0.028,0.002,6.985,-0.896,10.569
09:27:26:085,7.768,-0.001,-0.057,-0.005,6.984,-0.840,10.604
09:27:26:112,7.796,0.007,-0.058,-0.006,6.999,-0.720,10.677
09:27:26:137,7.821,0.008,-0.025,-0.017,6.993,-0.574,10.748
09:27:26:163,7.847,0.002,-0.003,-0.002,6.962,-0.296,10.860
09:27:26:189,7.873,0.003,-0.004,-0.012,6.924,-0.074,10.941
09:27:26:216,7.900,0.003,0.002,-0.019,6.904,0.015,10.968
09:27:26:242,7.926,0.011,0.021,-0.019,6.851,0.016,10.963
09:27:26:27,7.954,0.016,0.028,-0.005,6.825,-0.057,10.946
09:27:26:295,7.979,0.014,-0.004,0.006,6.779,-0.128,10.947
09:27:26:323,8.007,0.006,-0.025,0.018,6.701,-0.020,11.021
09:27:26:347,8.030,0.000,-0.028,0.028,6.633,0.124,11.113
09:27:26:374,8.058,-0.002,-0.040,0.036,6.632,0.382,11.287
09:27:26:4,8.083,0.001,-0.036,0.008,6.656,0.543,11.405
09:27:26:426,8.110,0.002,-0.037,0.011,6.706,0.744,11.508
09:27:26:452,8.136,0.005,-0.030,0.013,6.769,1.004,11.502
09:27:26:479,8.162,-0.003,-0.037,0.005,6.782,1.279,11.462
09:27:26:504,8.188,-0.008,-0.045,-0.001,6.831,1.727,11.406
09:27:26:534,8.217,-0.009,-0.030,-0.009,6.893,2.017,11.380
09:27:26:534,8.218,-0.001,0.013,-0.008,7.006,2.441,11.337
09:27:26:557,8.241,-0.004,0.056,-0.021,7.064,2.907,11.280
09:27:26:583,8.267,-0.004,0.052,-0.013,7.077,3.219,11.249
09:27:26:611,8.294,-0.014,0.037,-0.020,7.062,3.617,11.241
09:27:26:636,8.320,-0.016,0.031,-0.007,7.029,3.797,11.280
09:27:26:662,8.346,-0.010,0.007,0.000,6.997,3.958,11.404
09:27:26:688,8.372,-0.008,-0.010,0.010,6.963,4.029,11.521
09:27:26:743,8.427,-0.001,-0.011,-0.001,6.909,4.133,11.718
09:27:26:744,8.428,0.011,-0.008,0.005,6.884,4.248,11.908
09:27:26:767,8.451,0.006,-0.002,-0.005,6.861,4.366,12.005
09:27:26:793,8.477,0.006,-0.005,0.002,6.815,4.557,12.134
09:27:26:819,8.503,0.007,-0.003,-0.009,6.772,4.655,12.191
09:27:26:846,8.530,0.011,-0.001,-0.001,6.727,4.712,12.257
09:27:26:872,8.556,0.015,-0.009,-0.002,6.687,4.729,12.283
09:27:26:898,8.582,0.014,-0.017,0.003,6.658,4.765,12.289
09:27:26:951,8.634,0.000,-0.010,0.003,6.560,4.908,12.295
09:27:26:978,8.662,0.001,-0.008,-0.003,6.531,4.986,12.302
09:27:27:003,8.687,0.001,0.000,0.000,6.523,5.016,12.295
09:27:27:029,8.713,0.002,0.009,-0.003,6.509,5.064,12.263
09:27:27:056,8.739,-0.001,0.006,0.004,6.490,5.130,12.212
09:27:27:082,8.766,-0.002,-0.004,0.009,6.472,5.166,12.181
09:27:27:108,8.792,-0.003,-0.003,0.018,6.452,5.213,12.173
09:27:27:135,8.818,-0.001,-0.006,0.018,6.456,5.239,12.178
09:27:27:161,8.845,0.001,-0.010,0.020,6.478,5.241,12.180
09:27:27:187,8.871,0.007,-0.005,0.009,6.508,5.249,12.175
09:27:27:214,8.897,0.005,-0.003,0.000,6.530,5.251,12.177
09:27:27:239,8.923,0.003,-0.001,-0.003,6.566,5.281,12.169
09:27:27:267,8.950,0.000,-0.010,-0.011,6.592,5.288,12.155
09:27:27:292,8.976,0.000,-0.011,-0.007,6.618,5.288,12.113
09:27:27:318,9.002,-0.002,-0.013,-0.013,6.643,5.291,12.082
09:27:27:345,9.028,-0.003,0.000,-0.006,6.645,5.297,12.076
09:27:27:371,9.055,0.000,-0.001,-0.009,6.653,5.265,12.072
09:27:27:397,9.081,0.005,-0.005,-0.004,6.656,5.233,12.070
09:27:27:423,9.107,0.007,-0.009,0.000,6.671,5.181,12.064
09:27:27:449,9.133,0.010,-0.010,0.011,6.681,5.155,12.054
09:27:27:477,9.161,0.012,-0.011,0.006,6.689,5.149,12.057
09:27:27:503,9.186,0.015,-0.001,0.002,6.692,5.177,12.073
09:27:27:528,9.212,0.016,-0.002,-0.004,6.684,5.225,12.070
09:27:27:555,9.238,0.014,-0.006,0.002,6.671,5.336,12.072
09:27:27:61,9.294,0.013,-0.007,-0.007,6.654,5.426,12.074
09:27:27:611,9.295,0.009,-0.007,0.002,6.626,5.546,12.081
09:27:27:662,9.346,0.001,-0.007,0.003,6.607,5.640,12.079
09:27:27:663,9.347,0.000,-0.011,0.006,6.594,5.692,12.064
09:27:27:687,9.371,-0.002,-0.012,0.003,6.577,5.771,12.033
09:27:27:713,9.396,-0.003,-0.010,0.010,6.565,5.827,12.023
09:27:27:738,9.422,-0.003,-0.003,0.001,6.550,5.890,12.019
09:27:27:765,9.448,0.004,-0.007,0.003,6.543,5.928,12.027
09:27:27:791,9.475,0.006,-0.008,-0.003,6.534,5.969,12.031
09:27:27:817,9.501,0.007,-0.001,0.005,6.520,6.037,12.032
09:27:27:844,9.528,0.005,-0.005,0.001,6.507,6.089,12.016
09:27:27:869,9.553,0.004,-0.006,0.001,6.494,6.142,11.989
09:27:27:896,9.579,0.002,-0.010,0.004,6.486,6.177,11.966
09:27:27:924,9.608,0.003,-0.010,0.009,6.472,6.257,11.945
09:27:27:95,9.633,-0.002,-0.007,0.007,6.444,6.377,11.952
09:27:27:975,9.659,-0.002,-0.007,0.009,6.431,6.450,11.958
09:27:28:001,9.685,-0.005,-0.009,0.004,6.403,6.560,11.975
09:27:28:028,9.711,-0.006,-0.007,-0.004,6.389,6.628,11.976
09:27:28:08,9.763,-0.006,-0.006,0.001,6.364,6.764,11.998
09:27:28:106,9.789,-0.001,-0.006,0.004,6.360,6.769,12.015
09:27:28:132,9.816,0.000,-0.004,0.000,6.359,6.786,12.032
09:27:28:158,9.842,0.000,-0.009,0.010,6.354,6.801,12.039
09:27:28:185,9.869,0.002,-0.004,-0.001,6.353,6.838,12.046
09:27:28:211,9.894,0.001,-0.001,0.005,6.357,6.871,12.066
09:27:28:238,9.922,0.001,-0.004,-0.004,6.372,6.878,12.066
09:27:28:263,9.947,0.004,-0.010,0.006,6.394,6.863,12.064
09:27:28:29,9.973,0.002,-0.012,0.004,6.394,6.863,12.064
09:27:28:316,10.000,0.004,-0.009,0.007,6.394,6.863,12.064
09:27:28:342,10.026,0.003,0.000,0.002,6.398,6.832,12.062
09:27:28:368,10.052,0.002,-0.009,0.006,6.400,6.810,12.061
09:27:28:394,10.078,0.005,-0.007,-0.003,6.402,6.806,12.065
09:27:28:421,10.105,0.005,-0.003,0.005,6.404,6.800,12.081
09:27:28:449,10.132,0.005,-0.006,0.001,6.400,6.807,12.087
09:27:28:474,10.158,0.003,-0.010,0.003,6.400,6.807,12.087
09:27:28:499,10.183,0.004,-0.012,0.005,6.400,6.807,12.087
09:27:28:526,10.210,0.004,-0.010,0.009,6.400,6.807,12.087
09:27:28:552,10.236,0.005,-0.004,0.005,6.400,6.807,12.087
09:27:28:578,10.262,0.005,-0.004,0.005,6.400,6.807,12.087
09:27:28:605,10.289,0.006,-0.007,0.004,6.400,6.807,12.087
09:27:28:631,10.315,0.002,-0.009,0.007,6.403,6.827,12.087
09:27:28:657,10.341,0.003,-0.007,0.004,6.398,6.829,12.088
09:27:28:683,10.367,0.005,-0.009,0.008,6.398,6.829,12.088
09:27:28:71,10.393,0.002,-0.009,0.007,6.396,6.847,12.090
09:27:28:736,10.420,0.003,-0.008,0.001,6.394,6.869,12.091
09:27:28:762,10.446,0.002,-0.001,0.005,6.381,6.900,12.096
09:27:28:788,10.472,-0.001,-0.007,0.001,6.378,6.922,12.097
09:27:28:817,10.500,0.000,-0.010,0.012,6.378,6.922,12.097
09:27:28:842,10.526,0.005,0.000,-0.002,6.372,6.941,12.100
09:27:28:868,10.551,0.002,-0.002,0.011,6.371,6.969,12.106
09:27:28:896,10.580,0.003,-0.002,0.004,6.366,6.977,12.097
09:27:28:897,10.581,0.003,-0.011,0.011,6.367,6.979,12.074
09:27:28:949,10.633,-0.002,-0.016,0.004,6.364,6.993,12.071
09:27:28:949,10.633,0.000,-0.008,0.012,6.359,7.003,12.073
09:27:29:001,10.685,0.002,-0.004,0.005,6.359,6.994,12.072
09:27:29:002,10.685,0.006,-0.006,0.009,6.359,6.994,12.072
09:27:29:024,10.708,0.003,-0.008,0.009,6.359,7.003,12.073
09:27:29:08,10.764,0.000,-0.007,0.012,6.356,7.025,12.074
09:27:29:08,10.764,-0.004,-0.010,0.007,6.355,7.035,12.075
09:27:29:105,10.789,-0.004,-0.009,0.011,6.355,7.035,12.075
09:27:29:131,10.814,-0.002,-0.009,0.005,6.355,7.035,12.075
09:27:29:156,10.839,0.000,-0.006,0.010,6.355,7.035,12.075
09:27:29:182,10.866,-0.001,-0.003,0.005,6.355,7.035,12.075
09:27:29:208,10.892,0.002,-0.007,0.011,6.356,7.025,12.074
09:27:29:235,10.918,0.004,-0.010,0.003,6.360,7.009,12.078
09:27:29:261,10.945,0.006,-0.011,0.007,6.362,7.004,12.083
09:27:29:287,10.971,0.009,-0.009,0.008,6.367,6.989,12.075
09:27:29:313,10.997,0.009,-0.008,0.011,6.365,6.973,12.081
09:27:29:34,11.023,0.003,-0.008,0.012,6.365,6.973,12.081
09:27:29:366,11.050,0.002,-0.004,0.010,6.365,6.973,12.081
09:27:29:393,11.077,0.003,-0.009,0.006,6.369,6.974,12.090
09:27:29:419,11.102,0.003,-0.004,0.000,6.372,6.974,12.111
09:27:29:444,11.128,0.002,-0.004,0.008,6.366,6.974,12.123
09:27:29:471,11.154,0.003,-0.012,0.003,6.368,6.969,12.128
09:27:29:497,11.181,0.009,-0.001,0.005,6.365,6.989,12.151
09:27:29:524,11.208,0.001,-0.001,0.002,6.354,7.046,12.183
09:27:29:551,11.235,0.003,0.001,0.011,6.354,7.064,12.188
09:27:29:576,11.260,-0.001,-0.011,0.004,6.354,7.064,12.188
09:27:29:602,11.286,0.000,-0.012,0.011,6.343,7.090,12.198
09:27:29:658,11.342,-0.002,-0.009,0.006,6.338,7.125,12.195
09:27:29:658,11.342,0.005,-0.001,0.011,6.336,7.128,12.206
09:27:29:681,11.365,0.003,-0.005,-0.003,6.335,7.137,12.206
09:27:29:707,11.391,0.007,-0.001,0.007,6.329,7.157,12.209
09:27:29:734,11.417,0.000,-0.004,0.008,6.326,7.179,12.210
09:27:29:759,11.443,0.000,-0.003,0.015,6.319,7.199,12.213
09:27:29:786,11.469,-0.001,-0.011,0.011,6.319,7.199,12.213
09:27:29:812,11.496,0.000,-0.008,0.016,6.319,7.199,12.213
09:27:29:84,11.524,-0.008,-0.006,0.008,6.319,7.199,12.213
09:27:29:866,11.549,-0.005,-0.005,0.007,6.325,7.188,12.211
09:27:29:891,11.575,-0.005,-0.005,0.001,6.328,7.167,12.199
09:27:29:917,11.601,-0.001,-0.005,0.005,6.331,7.145,12.198
09:27:29:943,11.627,-0.002,-0.008,0.000,6.335,7.105,12.195
09:27:29:969,11.653,0.004,-0.010,0.009,6.323,7.044,12.172
09:27:29:996,11.680,0.002,-0.013,0.005,6.313,7.011,12.165
09:27:30:024,11.707,-0.001,-0.009,0.010,6.285,6.978,12.152
09:27:30:049,11.733,-0.003,-0.004,0.008,6.263,6.975,12.150
09:27:30:074,11.758,0.005,-0.008,0.008,6.240,6.916,12.140
09:27:30:101,11.784,0.003,-0.005,0.004,6.215,6.850,12.138
09:27:30:127,11.811,0.001,-0.001,0.008,6.190,6.820,12.120
09:27:30:153,11.837,0.006,-0.012,0.011,6.167,6.754,12.084
09:27:30:181,11.865,0.006,-0.006,-0.001,6.143,6.715,12.065
09:27:30:207,11.891,0.001,-0.003,0.009,6.098,6.696,12.054
09:27:30:233,11.917,0.003,-0.007,0.002,6.083,6.657,12.032
09:27:30:259,11.942,0.000,-0.013,0.006,6.056,6.600,11.988
09:27:30:284,11.968,-0.003,-0.014,0.003,6.023,6.561,11.961
09:27:30:311,11.994,-0.002,-0.009,0.007,6.006,6.532,11.962
09:27:30:338,12.021,0.000,-0.001,0.002,5.983,6.455,11.948
09:27:30:364,12.048,0.001,-0.001,0.011,5.972,6.397,11.945
09:27:30:39,12.073,0.002,-0.004,0.002,5.954,6.336,11.946
09:27:30:416,12.100,-0.004,0.000,0.013,5.921,6.306,11.963
09:27:30:442,12.126,-0.002,-0.006,0.009,5.915,6.264,11.975
09:27:30:468,12.152,0.000,-0.007,0.016,5.912,6.189,11.997
09:27:30:494,12.178,-0.001,-0.011,0.010,5.917,6.152,12.011
09:27:30:523,12.206,-0.001,-0.008,0.012,5.931,6.095,12.043
09:27:30:548,12.232,0.000,-0.002,0.003,5.947,6.011,12.068
09:27:30:574,12.258,0.003,0.000,0.010,5.959,5.954,12.079
09:27:30:6,12.284,0.000,-0.002,0.001,5.974,5.881,12.094
09:27:30:626,12.310,0.000,-0.005,0.008,5.985,5.834,12.106
09:27:30:652,12.336,0.006,-0.008,0.002,6.002,5.755,12.137
09:27:30:679,12.362,-0.004,-0.001,0.013,6.002,5.676,12.163
09:27:30:706,12.390,0.012,-0.011,0.006,6.011,5.629,12.196
09:27:30:732,12.416,0.000,0.000,0.007,6.025,5.551,12.206
09:27:30:758,12.441,0.010,-0.003,0.006,6.040,5.487,12.222
09:27:30:783,12.467,0.006,-0.001,0.010,6.056,5.413,12.237
09:27:30:81,12.493,0.009,-0.009,0.009,6.068,5.330,12.242
09:27:30:836,12.520,0.013,-0.009,0.008,6.081,5.288,12.259
09:27:30:862,12.546,0.010,0.001,0.007,6.087,5.263,12.293
09:27:30:888,12.572,0.008,-0.007,0.001,6.094,5.231,12.312
09:27:30:915,12.598,0.012,-0.012,0.008,6.108,5.174,12.301
09:27:30:941,12.625,0.008,-0.015,0.003,6.118,5.147,12.303
09:27:30:967,12.651,0.008,-0.016,0.012,6.118,5.147,12.303
09:27:30:993,12.677,0.010,-0.002,0.002,6.118,5.137,12.302
09:27:31:022,12.706,0.012,-0.009,0.006,6.121,5.115,12.301
09:27:31:047,12.731,0.013,-0.009,0.000,6.128,5.096,12.298
09:27:31:073,12.757,0.007,-0.005,0.010,6.125,5.110,12.283
09:27:31:098,12.782,0.002,-0.008,0.000,6.122,5.111,12.262
09:27:31:157,12.840,0.007,-0.011,0.008,6.127,5.090,12.217
09:27:31:157,12.841,0.005,-0.013,0.003,6.131,5.078,12.183
09:27:31:158,12.842,0.003,-0.006,0.006,6.128,5.072,12.136
09:27:31:206,12.890,-0.001,-0.008,0.003,6.130,5.073,12.102
09:27:31:207,12.891,0.000,-0.006,0.008,6.146,5.083,12.054
09:27:31:23,12.913,0.000,-0.007,0.004,6.167,5.085,12.013
09:27:31:285,12.969,-0.003,-0.008,0.008,6.183,5.087,11.986
09:27:31:286,12.969,-0.003,-0.009,0.005,6.185,5.118,11.975
09:27:31:31,12.993,-0.001,-0.008,0.006,6.193,5.146,11.977
09:27:31:361,13.045,-0.003,-0.005,0.002,6.188,5.199,11.980
09:27:31:387,13.071,-0.005,-0.005,0.007,6.180,5.246,11.989
09:27:31:417,13.101,-0.005,-0.006,-0.001,6.172,5.261,11.987
09:27:31:418,13.101,0.000,-0.013,0.011,6.172,5.261,11.987
09:27:31:44,13.123,0.004,-0.006,0.004,6.168,5.267,11.994
09:27:31:466,13.150,0.001,-0.002,0.005,6.163,5.309,12.018
09:27:31:493,13.177,0.004,-0.004,0.011,6.156,5.328,12.021
09:27:31:519,13.203,0.004,-0.015,0.010,6.150,5.357,12.028
09:27:31:545,13.229,0.003,-0.022,0.009,6.138,5.421,12.033
09:27:31:571,13.255,0.006,-0.014,0.008,6.128,5.472,12.038
09:27:31:597,13.281,0.006,-0.002,0.006,6.111,5.546,12.045
09:27:31:623,13.307,0.011,-0.007,0.001,6.104,5.576,12.038
09:27:31:649,13.333,0.010,-0.007,0.008,6.088,5.643,12.007
09:27:31:678,13.362,0.001,-0.004,0.000,6.058,5.770,11.987
09:27:31:704,13.388,0.000,-0.002,0.009,6.046,5.837,11.966
09:27:31:729,13.413,0.002,-0.009,0.008,6.036,5.878,11.927
09:27:31:755,13.439,0.001,-0.012,0.015,6.030,5.911,11.897
09:27:31:781,13.465,-0.003,-0.010,0.003,6.016,5.978,11.855
09:27:31:807,13.491,-0.005,-0.001,0.015,5.999,6.030,11.818
09:27:31:834,13.517,-0.008,-0.003,0.006,6.001,6.040,11.785
09:27:31:86,13.544,-0.005,-0.006,0.012,6.000,6.040,11.743
09:27:31:886,13.570,-0.007,-0.007,0.009,5.994,6.054,11.719
09:27:31:912,13.596,-0.008,-0.006,0.013,5.986,6.086,11.722
09:27:31:938,13.622,-0.004,-0.012,0.007,5.982,6.103,11.718
09:27:31:965,13.648,-0.001,-0.010,0.009,5.982,6.103,11.718
09:27:31:991,13.675,-0.001,-0.006,0.002,5.980,6.122,11.719
09:27:32:017,13.701,-0.001,-0.009,0.008,5.980,6.122,11.719
09:27:32:044,13.728,0.007,-0.010,0.004,5.977,6.128,11.726
09:27:32:071,13.755,0.006,-0.005,0.007,5.972,6.154,11.722
09:27:32:097,13.780,0.003,-0.002,0.003,5.963,6.196,11.726
09:27:32:122,13.806,0.006,-0.010,0.004,5.965,6.201,11.731
09:27:32:148,13.832,0.006,-0.009,0.001,5.959,6.212,11.733
09:27:32:204,13.888,0.004,-0.006,0.009,5.943,6.273,11.740
09:27:32:204,13.888,0.001,0.001,0.013,5.930,6.321,11.750
09:27:32:227,13.911,0.001,0.001,0.015,5.921,6.369,11.781
09:27:32:253,13.937,0.007,-0.007,0.013,5.910,6.412,11.807
09:27:32:282,13.966,0.005,-0.004,0.007,5.893,6.472,11.825
09:27:32:306,13.989,0.001,-0.007,0.007,5.878,6.573,11.858
09:27:32:332,14.016,0.004,-0.011,-0.002,5.871,6.611,11.866
09:27:32:36,14.043,0.007,-0.009,0.008,5.866,6.635,11.874
09:27:32:385,14.069,0.004,-0.008,0.000,5.856,6.663,11.872
09:27:32:411,14.095,0.006,-0.005,0.006,5.846,6.714,11.877
09:27:32:438,14.121,0.004,-0.005,0.002,5.839,6.261,11.880
09:27:32:464,14.147,0.007,-0.006,0.008,5.836,6.283,11.880
09:27:32:49,14.174,0.005,-0.005,0.002,5.826,6.309,11.890
09:27:32:517,14.201,0.006,-0.007,0.013,5.819,6.329,11.893
09:27:32:573,14.257,0.005,-0.007,0.010,5.812,6.179,11.894
09:27:32:573,14.257,0.004,-0.004,0.018,5.808,6.228,11.901
09:27:32:594,14.278,0.001,-0.004,0.011,5.799,6.269,11.905
09:27:32:621,14.305,-0.001,-0.010,0.018,5.791,6.231,11.913
09:27:32:647,14.331,0.002,-0.007,0.007,5.791,6.274,11.913
09:27:32:673,14.357,0.004,-0.006,0.004,5.781,6.247,11.933
09:27:32:7,14.383,-0.002,-0.006,0.000,5.776,6.305,11.940
09:27:32:726,14.410,-0.003,-0.009,0.009,5.786,6.306,11.937
09:27:32:753,14.437,-0.005,-0.011,0.008,5.785,6.327,11.916
09:27:32:778,14.462,-0.002,-0.005,0.012,5.785,6.242,11.915
09:27:32:805,14.489,-0.002,0.000,0.011,5.787,6.220,11.914
09:27:32:831,14.515,0.001,-0.004,0.018,5.793,6.167,11.911
09:27:32:857,14.541,0.001,-0.006,0.011,5.794,6.157,11.911
09:27:32:883,14.567,0.002,-0.008,0.015,5.791,6.137,11.911
09:27:32:911,14.594,-0.004,-0.009,0.007,5.791,6.137,11.911
09:27:32:937,14.620,0.000,-0.011,0.010,5.800,6.104,11.908
09:27:32:962,14.646,0.001,-0.010,0.011,5.807,6.057,11.899
09:27:32:988,14.672,-0.001,-0.010,0.010,5.807,5.986,11.904
09:27:33:014,14.698,0.000,-0.005,0.008,5.808,5.977,11.904
09:27:33:042,14.726,0.004,-0.008,0.003,5.816,5.817,11.899
09:27:33:067,14.751,0.007,-0.006,0.009,5.825,5.775,11.896
09:27:33:093,14.777,0.005,-0.008,0.004,5.829,5.509,11.891
09:27:33:12,14.804,0.003,-0.009,0.012,5.834,5.483,11.894
09:27:33:146,14.830,0.003,-0.008,0.008,5.840,5.403,11.886
09:27:33:172,14.856,0.004,-0.009,0.012,5.848,5.374,11.882
09:27:33:198,14.882,0.006,-0.003,0.000,5.850,5.352,11.881
09:27:33:224,14.908,0.003,-0.003,0.009,5.850,5.352,11.881
09:27:33:251,14.935,0.007,-0.015,0.006,5.857,5.332,11.878
09:27:33:278,14.961,0.011,-0.002,0.005,5.853,5.319,11.891
09:27:33:303,14.987,0.004,-0.001,0.003,5.850,5.340,11.903
09:27:33:33,15.014,0.002,-0.009,0.014,5.851,5.261,11.896
09:27:33:356,15.040,0.000,-0.013,0.013,5.851,5.261,11.896
09:27:33:382,15.066,0.000,-0.012,0.016,5.846,5.105,11.913
09:27:33:409,15.092,0.003,-0.004,0.008,5.839,5.131,11.943
09:27:33:435,15.119,0.004,-0.001,0.014,5.842,5.078,11.962
09:27:33:463,15.146,0.000,-0.011,0.005,5.834,5.099,11.987
09:27:33:49,15.173,0.000,-0.006,0.016,5.826,5.093,12.007
09:27:33:491,15.174,-0.001,-0.007,0.011,5.815,5.136,12.032
09:27:33:54,15.224,-0.002,-0.009,0.006,5.813,5.157,12.033
09:27:33:569,15.252,-0.001,-0.007,0.007,5.827,5.175,12.033
09:27:33:57,15.253,-0.001,-0.005,0.012,5.842,5.112,12.038
09:27:33:623,15.307,-0.002,-0.006,0.007,5.842,5.112,12.038
09:27:33:623,15.307,0.002,-0.004,0.016,5.842,5.112,12.038
09:27:33:645,15.328,0.007,-0.009,0.016,5.842,5.112,12.038
09:27:33:7,15.384,0.007,-0.011,0.018,5.846,5.081,12.036
09:27:33:7,15.384,0.003,-0.011,0.015,5.842,5.112,12.038
09:27:33:752,15.436,0.002,-0.007,0.015,5.834,5.144,12.041
09:27:33:753,15.437,-0.001,-0.009,0.013,5.825,5.168,12.040
09:27:33:777,15.461,-0.002,-0.007,0.008,5.824,5.195,12.046
09:27:33:803,15.486,-0.009,-0.005,0.007,5.816,5.228,12.049
09:27:33:829,15.513,-0.008,-0.009,0.006,5.815,5.237,12.050
09:27:33:856,15.540,-0.002,-0.007,0.011,5.815,5.237,12.050
09:27:33:881,15.565,-0.004,0.000,0.001,5.815,5.237,12.050
09:27:33:907,15.591,-0.005,0.001,0.015,5.814,5.232,12.045
09:27:33:934,15.617,-0.005,-0.008,0.010,5.821,5.196,12.025
09:27:33:959,15.643,-0.002,-0.009,0.021,5.829,5.173,12.023
09:27:33:986,15.670,-0.002,-0.013,0.014,5.832,5.141,12.021
09:27:34:012,15.696,0.005,-0.003,0.018,5.841,5.100,12.017
09:27:34:039,15.722,0.000,-0.003,0.003,5.848,5.070,12.013
09:27:34:064,15.748,0.000,-0.006,0.013,5.857,5.038,12.010
09:27:34:091,15.774,-0.004,-0.006,0.011,5.859,5.016,12.010
09:27:34:117,15.801,-0.001,-0.004,0.014,5.852,4.979,12.006
09:27:34:143,15.827,-0.002,-0.007,0.010,5.867,4.927,12.000
09:27:34:17,15.853,0.000,-0.005,0.018,5.873,4.889,11.992
09:27:34:196,15.880,0.000,-0.007,0.008,5.882,4.847,11.988
09:27:34:222,15.906,0.000,-0.003,0.014,5.885,4.825,11.987
09:27:34:249,15.933,0.002,-0.003,0.013,5.894,4.783,11.983
09:27:34:275,15.959,0.003,-0.007,0.016,5.903,4.742,11.979
09:27:34:301,15.985,0.002,-0.009,0.007,5.912,4.700,11.976
09:27:34:327,16.011,-0.001,-0.006,0.006,5.921,4.658,11.972
09:27:34:354,16.037,0.002,-0.007,0.002,5.930,4.616,11.968
09:27:34:38,16.063,0.004,-0.008,0.010,5.945,4.564,11.961
09:27:34:406,16.090,0.003,-0.005,0.009,5.948,4.533,11.960
09:27:34:434,16.117,0.001,-0.005,0.006,5.957,4.491,11.956
09:27:34:458,16.142,0.002,-0.008,0.012,5.972,4.448,11.950
09:27:34:485,16.168,0.007,-0.010,0.004,5.974,4.426,11.949
09:27:34:511,16.195,0.006,-0.003,0.004,5.976,4.422,11.954
09:27:34:537,16.221,0.003,-0.006,0.003,5.971,4.414,11.951
09:27:34:565,16.249,0.002,-0.010,0.015,5.984,4.367,11.929
09:27:34:59,16.274,-0.003,-0.014,0.007,5.990,4.352,11.888
09:27:34:617,16.301,-0.008,-0.015,0.011,5.987,4.353,11.868
09:27:34:643,16.327,-0.002,-0.002,0.004,5.985,4.330,11.858
09:27:34:668,16.352,-0.003,-0.001,0.008,5.998,4.299,11.852
09:27:34:694,16.378,0.001,-0.007,0.000,6.002,4.266,11.840
09:27:34:722,16.405,-0.004,-0.004,0.009,6.002,4.266,11.840
09:27:34:748,16.432,-0.005,-0.006,0.001,6.002,4.266,11.840
09:27:34:774,16.458,0.001,-0.008,0.008,6.009,4.246,11.837
09:27:34:802,16.485,0.003,-0.015,0.003,6.011,4.224,11.836
09:27:34:827,16.511,0.001,-0.009,0.011,6.010,4.219,11.831
09:27:34:852,16.536,0.000,-0.007,0.005,6.010,4.219,11.831
09:27:34:878,16.562,0.001,-0.005,0.010,6.010,4.219,11.831
09:27:34:905,16.588,-0.001,-0.006,0.007,6.010,4.219,11.831
09:27:34:931,16.615,-0.001,-0.007,0.012,6.010,4.219,11.831
09:27:34:957,16.641,0.000,-0.006,0.006,6.010,4.219,11.831
09:27:34:985,16.669,-0.001,-0.007,0.011,6.010,4.219,11.831
09:27:35:009,16.693,-0.001,-0.007,0.006,6.010,4.219,11.831
09:27:35:037,16.721,0.003,-0.005,0.009,6.010,4.219,11.831
09:27:35:063,16.746,0.002,-0.004,0.006,6.010,4.219,11.831
09:27:35:088,16.772,0.003,-0.009,0.015,6.017,4.214,11.834
09:27:35:115,16.798,0.008,-0.002,0.005,6.017,4.214,11.834
09:27:35:141,16.825,0.003,-0.004,0.007,6.007,4.241,11.832
09:27:35:167,16.851,0.002,-0.005,0.013,6.003,4.257,11.839
09:27:35:196,16.880,0.003,-0.008,0.012,6.005,4.256,11.817
09:27:35:221,16.905,-0.002,-0.012,0.016,6.005,4.257,11.806
09:27:35:275,16.959,-0.002,-0.005,0.008,6.006,4.262,11.811
09:27:35:276,16.959,0.000,-0.003,0.011,6.006,4.262,11.811
09:27:35:298,16.982,0.004,-0.011,0.002,6.003,4.251,11.812
09:27:35:325,17.008,0.003,-0.007,0.012,6.001,4.255,11.808
09:27:35:351,17.035,-0.004,-0.006,0.002,5.997,4.304,11.815
09:27:35:377,17.061,0.000,-0.005,0.011,5.991,4.324,11.818
09:27:35:403,17.087,0.002,-0.009,0.005,5.992,4.315,11.817
09:27:35:43,17.114,0.002,-0.011,0.015,5.997,4.304,11.815
09:27:35:486,17.170,-0.004,-0.005,0.009,5.989,4.319,11.813
09:27:35:486,17.170,0.000,-0.003,0.025,6.012,4.321,11.815
09:27:35:508,17.192,-0.003,-0.003,0.017,6.034,4.324,11.817
09:27:35:535,17.219,0.002,-0.005,0.024,6.082,4.331,11.816
09:27:35:561,17.245,0.007,-0.009,0.010,6.130,4.347,11.819
09:27:35:588,17.272,0.003,-0.008,0.010,6.155,4.370,11.820
09:27:35:614,17.297,-0.005,-0.005,-0.003,6.157,4.409,11.825
09:27:35:64,17.324,-0.001,-0.011,-0.002,6.178,4.415,11.823
09:27:35:666,17.350,-0.003,-0.010,-0.002,6.183,4.405,11.821
09:27:35:692,17.376,-0.001,-0.018,0.009,6.190,4.385,11.818
09:27:35:718,17.402,0.004,-0.009,0.009,6.201,4.342,11.792
09:27:35:745,17.428,-0.004,0.000,0.015,6.195,4.347,11.767
09:27:35:771,17.455,-0.003,-0.004,0.014,6.197,4.329,11.728
09:27:35:797,17.481,-0.004,-0.006,0.022,6.208,4.298,11.680
09:27:35:823,17.507,-0.001,-0.010,0.019,6.206,4.302,11.676
09:27:35:85,17.534,0.006,-0.008,0.016,6.206,4.302,11.676
09:27:35:876,17.560,0.000,0.001,0.007,6.200,4.304,11.678
09:27:35:907,17.591,0.002,-0.010,0.011,6.220,4.310,11.676
09:27:35:907,17.591,0.003,-0.005,0.005,6.212,4.352,11.680
09:27:35:957,17.641,-0.004,-0.008,0.001,6.199,4.383,11.685
09:27:35:958,17.642,0.002,-0.009,0.012,6.199,4.383,11.685
09:27:35:981,17.665,-0.002,-0.010,0.004,6.199,4.383,11.685
09:27:36:007,17.691,-0.001,-0.011,0.015,6.196,4.414,11.687
09:27:36:033,17.717,0.000,-0.003,0.007,6.196,4.414,11.687
09:27:36:06,17.743,-0.002,-0.003,0.014,6.196,4.414,11.687
09:27:36:086,17.770,0.001,-0.004,0.007,6.208,4.410,11.687
09:27:36:113,17.797,-0.002,-0.006,0.015,6.207,4.437,11.693
09:27:36:169,17.853,-0.004,-0.011,0.007,6.208,4.453,11.688
09:27:36:169,17.853,0.002,-0.008,0.019,6.208,4.453,11.688
09:27:36:191,17.875,-0.001,-0.007,0.008,6.208,4.453,11.688
09:27:36:218,17.901,-0.002,-0.005,0.016,6.204,4.459,11.694
09:27:36:244,17.928,-0.003,-0.013,0.014,6.204,4.459,11.694
09:27:36:271,17.955,0.003,-0.011,0.020,6.204,4.458,11.706
09:27:36:296,17.980,0.002,-0.005,0.009,6.201,4.486,11.734
09:27:36:323,18.007,0.002,-0.005,0.015,6.198,4.492,11.740
09:27:36:349,18.032,0.001,-0.010,0.017,6.198,4.492,11.740
09:27:36:374,18.058,-0.002,-0.011,0.021,6.193,4.501,11.732
09:27:36:401,18.085,-0.005,-0.006,0.015,6.186,4.548,11.741
09:27:36:427,18.111,0.000,-0.001,0.015,6.192,4.544,11.754
09:27:36:453,18.137,0.003,-0.004,0.006,6.192,4.534,11.765
09:27:36:482,18.165,0.002,-0.011,0.016,6.186,4.554,11.768
09:27:36:506,18.190,-0.002,-0.008,0.011,6.179,4.591,11.776
09:27:36:534,18.218,-0.002,-0.008,0.008,6.174,4.618,11.773
09:27:36:559,18.242,0.006,-0.011,0.013,6.177,4.596,11.772
09:27:36:585,18.269,0.003,-0.009,0.019,6.177,4.596,11.772
09:27:36:611,18.295,0.000,-0.003,0.018,6.170,4.633,11.780
09:27:36:637,18.321,-0.002,-0.004,0.019,6.168,4.655,11.781
09:27:36:663,18.347,-0.001,-0.005,0.014,6.168,4.655,11.781
09:27:36:689,18.373,-0.001,-0.010,0.008,6.168,4.655,11.781
09:27:36:716,18.400,0.000,-0.009,0.012,6.167,4.664,11.782
09:27:36:742,18.426,-0.001,-0.010,0.010,6.167,4.664,11.782
09:27:36:768,18.452,0.000,-0.008,0.017,6.167,4.664,11.782
09:27:36:796,18.480,-0.001,-0.004,0.003,6.167,4.664,11.782
09:27:36:821,18.505,-0.002,-0.007,0.015,6.167,4.664,11.782
09:27:36:847,18.531,0.001,-0.008,0.008,6.167,4.664,11.782
09:27:36:874,18.558,-0.001,0.001,0.015,6.164,4.662,11.788
09:27:36:9,18.584,-0.004,-0.004,0.012,6.163,4.671,11.788
09:27:36:926,18.610,0.001,-0.013,0.022,6.170,4.644,11.770
09:27:36:952,18.636,0.001,-0.013,0.009,6.164,4.654,11.772
09:27:36:978,18.662,0.003,-0.009,0.017,6.163,4.664,11.773
09:27:37:006,18.690,0.011,-0.001,0.009,6.170,4.634,11.769
09:27:37:031,18.715,0.005,-0.008,0.011,6.167,4.623,11.770
09:27:37:057,18.741,0.000,-0.009,0.009,6.164,4.666,11.750
09:27:37:083,18.767,-0.004,-0.004,0.016,6.157,4.695,11.754
09:27:37:11,18.794,-0.001,-0.009,0.011,6.157,4.695,11.754
09:27:37:136,18.820,0.002,-0.006,0.019,6.157,4.686,11.753
09:27:37:162,18.846,-0.001,-0.007,0.014,6.153,4.703,11.749
09:27:37:218,18.901,-0.004,-0.004,0.018,6.149,4.711,11.741
09:27:37:218,18.902,-0.002,-0.010,0.014,6.155,4.702,11.727
09:27:37:241,18.925,-0.002,-0.006,0.017,6.155,4.702,11.727
09:27:37:267,18.951,0.003,-0.004,0.010,6.155,4.702,11.727
09:27:37:293,18.977,0.004,-0.009,0.014,6.151,4.718,11.734
09:27:37:32,19.003,0.005,-0.009,0.015,6.148,4.738,11.747
09:27:37:346,19.030,0.009,-0.016,0.013,6.142,4.765,11.765
09:27:37:374,19.058,0.005,-0.012,0.010,6.130,4.828,11.782
09:27:37:399,19.083,0.003,-0.001,0.021,6.123,4.866,11.790
09:27:37:425,19.109,0.011,-0.011,0.016,6.125,4.871,11.795
09:27:37:451,19.135,-0.001,-0.008,0.006,6.107,4.927,11.797
09:27:37:477,19.161,-0.004,0.003,0.016,6.080,5.070,11.814
09:27:37:505,19.189,-0.001,-0.007,0.009,6.071,5.112,11.818
09:27:37:53,19.214,0.009,-0.012,0.016,6.071,5.112,11.818
09:27:37:556,19.240,-0.005,-0.013,0.011,6.051,5.218,11.827
09:27:37:582,19.266,-0.009,-0.004,0.015,6.029,5.308,11.841
09:27:37:609,19.292,0.003,-0.009,0.009,6.020,5.332,11.840
09:27:37:634,19.318,0.007,-0.011,0.015,6.011,5.374,11.844
09:27:37:662,19.346,0.001,-0.009,0.002,5.991,5.470,11.852
09:27:37:688,19.372,0.002,-0.005,0.013,5.974,5.586,11.871
09:27:37:713,19.397,0.002,-0.006,0.012,5.972,5.581,11.865
09:27:37:739,19.423,0.000,-0.006,0.022,5.977,5.570,11.821
09:27:37:766,19.450,-0.018,-0.006,0.016,5.963,5.610,11.773
09:27:37:792,19.476,-0.019,-0.005,0.020,5.966,5.685,11.751
09:27:37:819,19.503,-0.001,-0.006,0.009,5.980,5.659,11.762
09:27:37:845,19.528,0.007,-0.006,0.013,5.993,5.619,11.756
09:27:37:871,19.555,0.004,-0.007,0.005,6.002,5.602,11.748
09:27:37:897,19.581,0.000,-0.009,0.017,6.004,5.601,11.726
09:27:37:924,19.607,0.005,-0.011,0.012,6.013,5.598,11.706
09:27:37:95,19.634,0.005,-0.011,0.011,6.030,5.584,11.704
09:27:37:976,19.660,0.007,-0.014,0.009,6.034,5.578,11.698
09:27:38:031,19.715,0.007,-0.007,0.011,6.034,5.620,11.698
09:27:38:032,19.716,-0.003,-0.001,0.013,6.033,5.668,11.683
09:27:38:055,19.739,-0.005,-0.002,0.011,6.030,5.711,11.663
09:27:38:081,19.765,-0.004,-0.008,0.011,6.035,5.720,11.651
09:27:38:111,19.795,-0.001,-0.012,0.018,6.036,5.743,11.661
09:27:38:162,19.846,0.000,-0.006,0.003,6.047,5.767,11.668
09:27:38:163,19.847,0.003,-0.008,0.010,6.070,5.785,11.665
09:27:38:187,19.870,-0.001,-0.005,0.003,6.071,5.842,11.671
09:27:38:212,19.896,0.000,-0.004,0.010,6.081,5.874,11.679
09:27:38:238,19.922,-0.001,-0.008,0.006,6.110,5.909,11.680
09:27:38:294,19.977,0.000,-0.008,0.015,6.132,5.911,11.682
09:27:38:295,19.978,0.000,-0.011,0.010,6.165,5.919,11.686
09:27:38:318,20.002,0.003,-0.003,0.017,6.188,5.922,11.689
09:27:38:374,20.058,0.002,0.000,0.008,6.224,5.924,11.686
09:27:38:374,20.058,0.002,-0.001,0.012,6.256,5.927,11.685
09:27:38:396,20.080,0.003,-0.009,0.001,6.276,5.933,11.684
09:27:38:422,20.106,0.003,-0.007,0.009,6.286,5.934,11.680
09:27:38:448,20.132,0.007,-0.005,0.003,6.286,5.934,11.680
09:27:38:474,20.158,0.006,-0.009,0.013,6.299,5.928,11.670
09:27:38:501,20.185,0.003,-0.013,0.015,6.309,5.914,11.639
09:27:38:527,20.211,0.006,-0.009,0.016,6.316,5.919,11.631
09:27:38:554,20.238,0.000,-0.004,0.008,6.317,5.961,11.632
09:27:38:58,20.263,-0.007,-0.001,0.012,6.320,5.973,11.631
09:27:38:606,20.290,-0.005,-0.011,0.013,6.326,5.956,11.602
09:27:38:632,20.316,-0.006,-0.011,0.014,6.339,5.968,11.597
09:27:38:659,20.342,-0.007,-0.009,0.009,6.343,5.980,11.596
09:27:38:685,20.369,-0.001,-0.001,0.014,6.359,5.950,11.600
09:27:38:711,20.394,0.001,-0.009,0.010,6.361,5.928,11.599
09:27:38:737,20.421,0.000,-0.007,0.007,6.367,5.917,11.597
09:27:38:765,20.449,-0.001,-0.007,0.008,6.371,5.919,11.594
09:27:38:79,20.473,0.002,-0.007,0.014,6.387,5.899,11.599
09:27:38:816,20.500,0.002,-0.012,0.017,6.396,5.840,11.590
09:27:38:871,20.555,0.000,-0.009,0.015,6.396,5.830,11.589
09:27:38:872,20.556,-0.002,-0.008,0.011,6.396,5.830,11.589
09:27:38:895,20.579,-0.001,-0.005,0.003,6.396,5.830,11.589
09:27:38:923,20.606,0.000,-0.005,0.010,6.396,5.830,11.589
09:27:38:947,20.631,-0.002,-0.011,0.001,6.399,5.826,11.593
09:27:38:974,20.658,-0.003,-0.010,0.012,6.399,5.826,11.593
09:27:39:,20.683,0.004,-0.012,0.003,6.406,5.809,11.618
09:27:39:026,20.710,0.004,-0.005,0.014,6.406,5.798,11.629
09:27:39:052,20.736,0.004,-0.013,0.008,6.407,5.789,11.628
09:27:39:078,20.762,0.006,-0.004,0.011,6.403,5.809,11.652
09:27:39:105,20.789,0.005,-0.006,0.005,6.399,5.824,11.659
09:27:39:131,20.814,0.000,-0.009,0.013,6.399,5.824,11.659
09:27:39:157,20.841,0.002,-0.015,0.008,6.399,5.824,11.659
09:27:39:183,20.867,0.003,-0.012,0.012,6.399,5.833,11.663
09:27:39:209,20.893,-0.002,-0.008,0.008,6.393,5.853,11.666
09:27:39:236,20.920,0.003,-0.001,0.014,6.393,5.853,11.666
09:27:39:262,20.946,0.002,-0.009,0.002,6.393,5.853,11.666
09:27:39:288,20.972,0.001,-0.008,0.006,6.385,5.867,11.664
09:27:39:315,20.999,0.001,-0.005,0.009,6.369,5.886,11.671
09:27:39:341,21.025,0.000,-0.005,0.013,6.369,5.886,11.671
09:27:39:367,21.051,0.001,-0.007,0.009,6.374,5.862,11.663
09:27:39:393,21.077,-0.004,-0.005,0.012,6.365,5.861,11.666
09:27:39:421,21.105,0.000,-0.005,0.008,6.365,5.861,11.666
09:27:39:447,21.130,0.001,-0.005,0.014,6.365,5.861,11.666
09:27:39:472,21.156,0.003,-0.005,0.009,6.365,5.861,11.666
09:27:39:499,21.183,0.001,-0.008,0.007,6.365,5.861,11.666
09:27:39:525,21.209,0.002,-0.008,0.004,6.365,5.861,11.666
09:27:39:551,21.235,0.004,-0.005,0.008,6.369,5.845,11.659
09:27:39:577,21.261,0.001,-0.004,0.009,6.374,5.819,11.662
09:27:39:603,21.287,0.005,-0.009,0.016,6.378,5.803,11.655
09:27:39:632,21.315,0.004,-0.011,0.010,6.378,5.803,11.655
09:27:39:656,21.340,0.003,-0.003,0.000,6.377,5.813,11.656
09:27:39:683,21.366,0.001,-0.005,0.010,6.374,5.819,11.662
09:27:39:708,21.392,-0.002,-0.009,0.001,6.374,5.819,11.662
09:27:39:734,21.418,-0.004,-0.009,0.010,6.367,5.839,11.665
09:27:39:761,21.445,-0.003,-0.008,0.004,6.365,5.861,11.666
09:27:39:787,21.471,0.004,0.000,0.011,6.365,5.850,11.676
09:27:39:813,21.497,0.000,-0.010,0.005,6.372,5.844,11.691
09:27:39:84,21.523,0.003,-0.008,0.007,6.362,5.871,11.689
09:27:39:866,21.550,-0.004,-0.007,0.002,6.361,5.898,11.695
09:27:39:892,21.576,-0.001,-0.009,0.009,6.358,5.887,11.696
09:27:39:918,21.602,0.001,-0.007,0.008,6.362,5.871,11.689
09:27:39:944,21.628,0.002,-0.008,0.011,6.366,5.872,11.698
09:27:39:973,21.657,0.004,-0.005,0.004,6.364,5.873,11.720
09:27:39:998,21.682,0.004,-0.003,0.009,6.367,5.872,11.741
09:27:40:023,21.707,0.005,-0.006,0.002,6.371,5.877,11.766
09:27:40:05,21.734,0.002,-0.003,0.010,6.365,5.904,11.785
09:27:40:076,21.760,0.000,-0.005,0.008,6.361,5.909,11.803
09:27:40:102,21.786,0.004,-0.006,0.018,6.367,5.906,11.816
09:27:40:129,21.812,0.005,-0.004,0.010,6.372,5.912,11.831
09:27:40:155,21.839,-0.001,-0.010,0.011,6.394,5.914,11.833
09:27:40:181,21.865,0.003,-0.010,0.012,6.394,5.914,11.833
09:27:40:207,21.891,0.005,0.000,0.002,6.387,5.934,11.836
09:27:40:233,21.917,-0.003,0.001,0.007,6.387,5.944,11.837
09:27:40:26,21.944,-0.005,-0.002,0.009,6.399,5.913,11.832
09:27:40:286,21.970,-0.001,-0.005,0.017,6.405,5.861,11.818
09:27:40:312,21.996,-0.001,-0.012,0.012,6.414,5.829,11.814
09:27:40:339,22.022,0.000,-0.005,0.015,6.418,5.770,11.807
09:27:40:364,22.048,-0.010,-0.004,0.007,6.417,5.728,11.806
09:27:40:392,22.076,0.006,-0.011,0.012,6.441,5.633,11.796
09:27:40:417,22.101,-0.007,-0.007,0.001,6.436,5.574,11.791
09:27:40:448,22.131,-0.003,-0.007,0.009,6.440,5.516,11.783
09:27:40:448,22.131,-0.008,-0.006,-0.001,6.445,5.388,11.769
09:27:40:496,22.180,-0.003,-0.006,0.009,6.448,5.304,11.777
09:27:40:525,22.209,-0.001,-0.003,0.000,6.453,5.176,11.762
09:27:40:526,22.209,0.005,-0.007,0.008,6.447,5.116,11.769
09:27:40:577,22.261,-0.007,-0.001,0.002,6.433,5.029,11.762
09:27:40:578,22.262,0.004,-0.009,0.013,6.428,4.918,11.756
09:27:40:629,22.313,0.002,-0.013,0.010,6.417,4.861,11.750
09:27:40:656,22.340,0.002,-0.013,0.012,6.405,4.770,11.747
09:27:40:657,22.341,0.003,-0.011,0.010,6.396,4.716,11.760
09:27:40:68,22.364,0.007,-0.007,0.018,6.379,4.650,11.766
09:27:40:707,22.390,-0.001,-0.008,0.012,6.361,4.589,11.756
09:27:40:732,22.416,-0.002,-0.010,0.020,6.352,4.547,11.747
09:27:40:758,22.442,0.003,-0.012,0.007,6.369,4.473,11.740
09:27:40:784,22.468,0.001,-0.009,0.009,6.376,4.435,11.732
09:27:40:811,22.494,-0.005,-0.003,0.006,6.381,4.382,11.729
09:27:40:838,22.522,-0.001,-0.005,0.013,6.394,4.335,11.707
09:27:40:863,22.547,-0.002,-0.011,0.003,6.400,4.265,11.687
09:27:40:89,22.574,-0.004,-0.010,0.010,6.381,4.214,11.678
09:27:40:916,22.600,-0.008,0.002,0.006,6.370,4.173,11.692
09:27:40:942,22.626,0.002,-0.008,0.009,6.373,4.087,11.711
09:27:40:969,22.653,0.000,-0.005,0.013,6.378,4.034,11.708
09:27:40:995,22.679,-0.005,-0.005,0.011,6.345,4.026,11.705
09:27:41:021,22.704,-0.005,-0.006,0.012,6.336,3.982,11.708
09:27:41:048,22.731,-0.001,-0.007,0.014,6.352,3.935,11.706
09:27:41:073,22.757,0.001,-0.008,0.011,6.360,3.860,11.703
09:27:41:1,22.783,-0.003,-0.008,0.002,6.372,3.819,11.708
09:27:41:126,22.810,-0.003,-0.006,0.008,6.383,3.764,11.703
09:27:41:152,22.836,-0.003,-0.003,0.001,6.401,3.680,11.695
09:27:41:179,22.863,0.000,-0.003,0.009,6.416,3.628,11.688
09:27:41:205,22.889,-0.002,-0.008,0.002,6.425,3.568,11.679
09:27:41:231,22.915,-0.002,-0.006,0.009,6.430,3.533,11.681
09:27:41:257,22.941,-0.001,-0.004,0.005,6.443,3.480,11.708
09:27:41:283,22.967,0.001,-0.005,0.013,6.452,3.426,11.726
09:27:41:31,22.993,0.005,-0.012,0.004,6.471,3.393,11.734
09:27:41:337,23.021,0.007,-0.006,0.008,6.480,3.380,11.763
09:27:41:363,23.046,0.000,-0.002,0.005,6.478,3.381,11.785
09:27:41:388,23.072,0.004,-0.004,0.011,6.498,3.362,11.799
09:27:41:415,23.099,0.006,-0.013,0.008,6.521,3.337,11.795
09:27:41:441,23.125,0.001,-0.015,0.015,6.532,3.334,11.795
09:27:41:467,23.151,-0.002,-0.008,0.008,6.536,3.327,11.789
09:27:41:495,23.179,0.000,-0.004,0.012,6.555,3.300,11.787
09:27:41:52,23.204,0.003,-0.014,0.009,6.600,3.240,11.746
09:27:41:546,23.230,0.003,-0.007,0.013,6.626,3.220,11.714
09:27:41:572,23.256,-0.009,-0.007,0.004,6.648,3.227,11.678
09:27:41:598,23.282,-0.004,-0.010,0.008,6.685,3.213,11.647
09:27:41:625,23.309,-0.004,-0.012,0.005,6.712,3.200,11.642
09:27:41:652,23.336,-0.008,-0.013,0.008,6.741,3.197,11.646
09:27:41:678,23.362,-0.007,-0.011,0.005,6.756,3.214,11.646
09:27:41:703,23.387,-0.007,-0.007,0.008,6.776,3.227,11.671
09:27:41:73,23.413,-0.001,-0.005,0.002,6.782,3.221,11.707
09:27:41:756,23.440,-0.001,-0.006,0.004,6.782,3.227,11.734
09:27:41:782,23.466,0.000,-0.009,0.006,6.782,3.223,11.772
09:27:41:81,23.493,0.001,-0.013,0.003,6.785,3.225,11.803
09:27:41:835,23.519,0.000,-0.009,0.011,6.787,3.225,11.846
09:27:41:861,23.545,0.006,-0.015,0.003,6.789,3.219,11.873
09:27:41:888,23.571,0.008,-0.010,0.007,6.792,3.221,11.904
09:27:41:913,23.597,0.005,0.001,0.000,6.791,3.219,11.915
09:27:41:94,23.623,0.006,-0.002,0.014,6.794,3.197,11.914
09:27:41:968,23.652,0.008,-0.014,0.006,6.793,3.177,11.881
09:27:41:994,23.678,0.001,-0.018,0.013,6.781,3.191,11.870
09:27:42:02,23.703,0.000,-0.011,0.001,6.773,3.197,11.867
09:27:42:075,23.759,0.002,-0.005,0.007,6.776,3.174,11.866
09:27:42:075,23.759,0.009,-0.012,0.002,6.780,3.153,11.832
09:27:42:097,23.781,0.005,-0.004,0.007,6.768,3.180,11.788
09:27:42:123,23.807,-0.002,-0.003,0.003,6.761,3.211,11.769
09:27:42:151,23.834,0.001,-0.010,0.005,6.760,3.214,11.743
09:27:42:176,23.860,0.003,-0.013,0.006,6.760,3.226,11.721
09:27:42:202,23.886,0.002,-0.013,0.008,6.740,3.245,11.707
09:27:42:228,23.912,-0.002,-0.010,0.003,6.731,3.282,11.673
09:27:42:257,23.940,0.001,-0.007,0.010,6.729,3.298,11.647
09:27:42:282,23.966,0.001,-0.002,0.004,6.722,3.324,11.602
09:27:42:307,23.991,-0.004,0.001,0.010,6.689,3.363,11.561
09:27:42:335,24.018,-0.009,-0.004,0.009,6.673,3.366,11.540
09:27:42:36,24.044,-0.003,-0.015,0.010,6.656,3.364,11.526
09:27:42:386,24.070,-0.005,-0.009,0.008,6.650,3.360,11.522
09:27:42:413,24.096,-0.003,-0.014,0.014,6.641,3.402,11.526
09:27:42:438,24.122,-0.001,-0.003,0.006,6.633,3.435,11.530
09:27:42:465,24.148,-0.001,-0.004,0.003,6.620,3.499,11.568
09:27:42:491,24.175,0.001,-0.005,0.002,6.612,3.536,11.610
09:27:42:517,24.201,0.004,-0.010,0.006,6.609,3.556,11.634
09:27:42:543,24.227,0.008,-0.013,0.004,6.593,3.588,11.684
09:27:42:57,24.254,0.006,-0.007,-0.002,6.572,3.642,11.725
09:27:42:596,24.280,0.005,-0.003,0.011,6.536,3.709,11.789
09:27:42:622,24.306,0.011,-0.015,0.001,6.517,3.741,11.829
09:27:42:648,24.332,0.012,-0.009,0.006,6.511,3.782,11.854
09:27:42:675,24.359,0.004,-0.010,0.000,6.490,3.889,11.886
09:27:42:701,24.385,0.002,-0.008,0.007,6.478,3.952,11.902
09:27:42:727,24.411,0.006,-0.013,-0.001,6.469,3.993,11.906
09:27:42:753,24.437,0.006,-0.009,0.006,6.455,4.079,11.913
09:27:42:783,24.467,0.002,-0.007,0.001,6.434,4.152,11.922
09:27:42:783,24.467,-0.001,-0.004,0.009,6.415,4.253,11.936
09:27:42:835,24.519,-0.001,-0.008,0.007,6.400,4.306,11.942
09:27:42:836,24.520,0.000,-0.006,0.010,6.388,4.386,11.964
09:27:42:859,24.543,-0.001,-0.009,0.005,6.375,4.460,11.992
09:27:42:885,24.568,0.001,-0.005,0.014,6.346,4.576,12.037
09:27:42:911,24.595,0.000,-0.004,0.006,6.323,4.681,12.079
09:27:42:937,24.621,-0.001,0.001,0.010,6.311,4.744,12.096
09:27:42:963,24.647,0.005,-0.007,0.008,6.292,4.819,12.125
09:27:42:99,24.674,0.005,-0.001,0.010,6.280,4.889,12.157
09:27:43:046,24.729,0.000,-0.001,0.002,6.256,5.020,12.217
09:27:43:046,24.730,-0.001,-0.003,0.012,6.225,5.141,12.246
09:27:43:068,24.752,-0.001,-0.007,0.006,6.215,5.210,12.256
09:27:43:095,24.779,-0.001,-0.008,0.013,6.191,5.318,12.272
09:27:43:121,24.805,-0.001,-0.007,0.012,6.174,5.400,12.295
09:27:43:147,24.831,0.001,-0.006,0.015,6.148,5.502,12.317
09:27:43:174,24.858,0.002,-0.006,0.007,6.136,5.566,12.322
09:27:43:2,24.883,0.001,-0.005,0.010,6.124,5.630,12.327
09:27:43:226,24.910,-0.005,-0.006,0.006,6.101,5.729,12.342
09:27:43:253,24.937,-0.010,-0.004,0.001,6.090,5.792,12.347
09:27:43:279,24.962,-0.001,-0.007,0.009,6.072,5.849,12.348
09:27:43:305,24.989,-0.005,-0.008,0.002,6.071,5.876,12.354
09:27:43:331,25.015,-0.003,-0.003,0.017,6.049,5.948,12.363
09:27:43:357,25.041,-0.006,-0.004,0.007,6.038,6.003,12.367
09:27:43:383,25.067,-0.004,-0.002,0.011,6.035,6.034,12.369
09:27:43:411,25.094,-0.002,-0.005,0.004,6.021,6.073,12.375
09:27:43:436,25.120,-0.003,-0.003,0.012,6.019,6.095,12.376
09:27:43:462,25.146,0.001,-0.005,0.004,6.018,6.105,12.377
09:27:43:488,25.172,0.000,-0.004,0.014,6.012,6.115,12.379
09:27:43:515,25.198,0.001,-0.008,0.002,6.012,6.115,12.379
09:27:43:543,25.227,-0.003,-0.003,0.011,6.016,6.117,12.377
09:27:43:568,25.252,-0.001,-0.011,0.011,6.016,6.117,12.377
09:27:43:594,25.278,0.005,-0.006,0.012,6.012,6.115,12.379
09:27:43:62,25.304,-0.002,-0.004,0.003,6.015,6.127,12.378
09:27:43:646,25.330,-0.005,-0.001,0.012,6.003,6.157,12.383
09:27:43:672,25.356,-0.001,-0.009,0.007,6.015,6.144,12.383
09:27:43:698,25.382,-0.005,-0.011,0.015,6.015,6.144,12.383
09:27:43:725,25.409,0.000,-0.008,0.008,6.014,6.163,12.384
09:27:43:751,25.435,0.002,-0.008,0.007,6.014,6.163,12.384
09:27:43:779,25.462,0.007,-0.007,0.002,6.018,6.165,12.382
09:27:43:804,25.488,0.017,-0.009,-0.001,6.012,6.186,12.374
09:27:43:829,25.513,-0.011,0.004,0.003,5.999,6.227,12.368
09:27:43:856,25.540,0.007,-0.009,0.011,5.994,6.235,12.360
09:27:43:882,25.566,-0.003,-0.007,0.016,5.992,6.248,12.360
09:27:43:91,25.594,0.003,-0.008,0.018,5.986,6.268,12.363
09:27:43:935,25.619,-0.002,-0.004,0.013,5.976,6.310,12.367
09:27:43:961,25.645,-0.004,-0.004,0.016,5.972,6.336,12.363
09:27:43:987,25.671,-0.007,-0.009,0.006,5.963,6.361,12.351
09:27:44:013,25.697,-0.008,-0.009,0.001,5.966,6.358,12.344
09:27:44:041,25.725,-0.003,-0.008,0.007,5.968,6.345,12.344
09:27:44:067,25.750,-0.003,-0.005,0.003,5.974,6.335,12.342
09:27:44:092,25.776,0.001,-0.010,0.012,5.977,6.314,12.329
09:27:44:118,25.802,-0.005,-0.005,0.005,5.977,6.314,12.329
09:27:44:145,25.829,-0.001,-0.004,0.015,5.977,6.314,12.329
09:27:44:171,25.855,-0.001,-0.007,0.006,5.984,6.294,12.326
09:27:44:198,25.881,-0.002,-0.006,0.014,5.984,6.277,12.321
09:27:44:224,25.908,0.001,-0.009,0.001,5.993,6.253,12.322
09:27:44:251,25.934,-0.004,0.002,0.008,5.993,6.253,12.322
09:27:44:276,25.960,-0.005,-0.002,0.001,5.998,6.219,12.310
09:27:44:302,25.986,-0.001,-0.005,0.011,6.013,6.147,12.271
09:27:44:329,26.012,-0.005,-0.009,0.011,6.014,6.121,12.254
09:27:44:355,26.039,-0.005,-0.013,0.015,6.016,6.094,12.248
09:27:44:382,26.066,0.002,0.000,0.009,6.006,6.033,12.246
09:27:44:408,26.091,0.005,-0.008,0.012,6.016,5.991,12.242
09:27:44:433,26.117,0.004,-0.008,0.003,6.021,5.966,12.234
09:27:44:46,26.144,0.001,-0.003,0.011,6.025,5.951,12.227
09:27:44:486,26.170,-0.002,-0.009,0.004,6.019,5.911,12.213
09:27:44:513,26.197,-0.004,-0.008,0.010,6.021,5.875,12.206
09:27:44:538,26.222,-0.001,-0.013,0.009,6.024,5.844,12.204
09:27:44:565,26.248,0.002,-0.005,0.004,6.031,5.824,12.201
09:27:44:591,26.275,-0.001,-0.002,0.008,6.031,5.824,12.201
09:27:44:617,26.301,0.001,-0.007,0.012,6.031,5.824,12.201
09:27:44:644,26.328,0.001,-0.009,0.012,6.028,5.827,12.209
09:27:44:672,26.355,0.003,-0.007,0.013,6.036,5.829,12.227
09:27:44:697,26.381,0.009,-0.010,0.006,6.036,5.829,12.227
09:27:44:723,26.407,0.000,-0.003,0.004,6.022,5.854,12.227
09:27:44:749,26.432,0.003,-0.009,0.010,6.018,5.885,12.229
09:27:44:775,26.459,0.001,-0.007,0.005,6.017,5.912,12.235
09:27:44:801,26.485,0.000,-0.006,0.010,6.009,5.927,12.233
09:27:44:828,26.512,-0.001,-0.010,0.004,6.009,5.945,12.238
09:27:44:854,26.538,0.001,-0.008,0.012,6.001,5.960,12.236
09:27:44:88,26.564,0.003,-0.010,0.001,5.993,5.996,12.255
09:27:44:906,26.590,0.000,-0.001,0.011,5.981,6.065,12.287
09:27:44:932,26.616,-0.004,-0.003,0.005,5.973,6.095,12.291
09:27:44:958,26.642,-0.001,-0.012,0.019,5.978,6.097,12.289
09:27:44:985,26.669,-0.002,-0.015,0.009,5.986,6.107,12.286
09:27:45:011,26.695,-0.003,-0.010,0.016,5.977,6.138,12.301
09:27:45:037,26.721,-0.002,0.001,0.007,5.979,6.134,12.305
09:27:45:063,26.747,0.002,-0.009,0.009,5.981,6.139,12.310
09:27:45:089,26.773,-0.002,-0.003,0.005,5.975,6.149,12.312
09:27:45:119,26.802,0.000,-0.006,0.013,5.975,6.149,12.312
09:27:45:12,26.803,-0.004,-0.006,0.012,5.975,6.149,12.312
09:27:45:142,26.826,-0.002,-0.008,0.019,5.977,6.127,12.311
09:27:45:197,26.881,-0.001,-0.011,0.015,5.992,6.075,12.305
09:27:45:198,26.882,-0.005,-0.005,0.012,5.993,6.066,12.304
09:27:45:25,26.934,-0.005,-0.005,0.008,5.994,6.057,12.303
09:27:45:251,26.935,-0.001,-0.003,0.011,6.003,6.024,12.300
09:27:45:303,26.986,0.003,-0.010,0.011,6.007,6.007,12.305
09:27:45:304,26.987,0.003,-0.007,0.006,6.010,5.994,12.308
09:27:45:326,27.010,0.005,-0.007,0.008,6.013,5.977,12.312
09:27:45:382,27.065,0.006,-0.008,0.011,6.019,5.952,12.304
09:27:45:382,27.066,0.004,-0.009,0.015,6.023,5.935,12.308
09:27:45:405,27.089,0.003,-0.006,0.015,6.023,5.935,12.308
09:27:45:431,27.115,0.002,-0.002,0.011,6.023,5.935,12.308
09:27:45:457,27.141,-0.002,-0.007,0.010,6.025,5.924,12.297
09:27:45:484,27.168,0.001,-0.010,0.014,6.031,5.882,12.272
09:27:45:51,27.194,-0.002,-0.005,0.001,6.033,5.871,12.261
09:27:45:536,27.220,-0.007,0.001,0.018,6.033,5.871,12.261
09:27:45:563,27.247,-0.005,-0.005,0.008,6.046,5.810,12.233
09:27:45:589,27.272,-0.002,-0.011,0.016,6.056,5.762,12.202
09:27:45:615,27.299,-0.007,-0.011,0.004,6.067,5.709,12.187
09:27:45:641,27.325,-0.002,-0.005,0.014,6.085,5.634,12.180
09:27:45:667,27.351,-0.001,-0.004,0.000,6.099,5.568,12.168
09:27:45:694,27.377,0.002,-0.008,0.011,6.121,5.488,12.143
09:27:45:721,27.405,-0.002,-0.007,0.007,6.125,5.441,12.125
09:27:45:747,27.431,-0.003,-0.008,0.011,6.140,5.388,12.119
09:27:45:772,27.456,-0.002,-0.011,0.007,6.148,5.341,12.110
09:27:45:799,27.483,0.001,-0.012,0.012,6.166,5.258,12.102
09:27:45:825,27.509,-0.003,-0.010,0.006,6.181,5.188,12.091
09:27:45:851,27.535,-0.003,-0.006,0.013,6.192,5.151,12.092
09:27:45:877,27.561,-0.001,-0.005,0.007,6.204,5.078,12.086
09:27:45:904,27.588,0.002,-0.003,0.010,6.213,5.036,12.082
09:27:45:931,27.615,-0.001,-0.005,0.008,6.227,4.979,12.071
09:27:45:957,27.640,0.004,-0.006,0.010,6.236,4.937,12.067
09:27:45:982,27.666,0.002,-0.006,0.010,6.241,4.911,12.070
09:27:46:009,27.693,0.002,-0.006,0.017,6.247,4.890,12.078
09:27:46:035,27.718,0.001,-0.004,0.012,6.245,4.885,12.073
09:27:46:062,27.746,0.000,-0.002,0.015,6.264,4.885,12.077
09:27:46:117,27.800,0.003,-0.014,0.015,6.296,4.861,12.070
09:27:46:117,27.801,0.005,-0.005,0.006,6.308,4.858,12.071
09:27:46:14,27.824,-0.003,-0.001,0.006,6.335,4.859,12.072
09:27:46:166,27.850,-0.001,-0.004,0.006,6.354,4.860,12.065
09:27:46:193,27.876,-0.002,-0.012,0.011,6.386,4.847,12.047
09:27:46:219,27.902,-0.005,-0.015,0.002,6.403,4.842,12.046
09:27:46:245,27.929,-0.005,-0.008,0.011,6.425,4.843,12.060
09:27:46:271,27.955,-0.001,-0.003,0.000,6.460,4.821,12.084
09:27:46:297,27.981,0.006,-0.009,0.005,6.485,4.817,12.079
09:27:46:324,28.007,0.002,-0.010,0.000,6.490,4.852,12.088
09:27:46:35,28.034,0.000,-0.007,0.006,6.483,4.888,12.108
09:27:46:403,28.086,0.006,-0.015,0.008,6.483,4.894,12.135
09:27:46:428,28.112,0.000,-0.015,0.002,6.480,4.916,12.136
09:27:46:455,28.138,-0.001,-0.006,0.008,6.477,4.947,12.138
09:27:46:481,28.165,-0.002,-0.008,0.002,6.477,4.947,12.138
09:27:46:508,28.192,0.000,-0.004,0.012,6.471,4.951,12.125
09:27:46:534,28.217,-0.001,-0.006,0.008,6.470,4.947,12.108
09:27:46:56,28.244,-0.001,-0.009,0.012,6.460,4.949,12.085
09:27:46:587,28.270,-0.002,-0.008,0.007,6.460,4.949,12.085
09:27:46:614,28.298,0.001,-0.009,0.015,6.460,4.949,12.085
09:27:46:639,28.322,0.000,-0.007,0.008,6.454,4.960,12.088
09:27:46:665,28.348,0.000,-0.011,0.014,6.452,4.982,12.089
09:27:46:692,28.376,0.005,-0.011,0.005,6.451,4.991,12.090
09:27:46:718,28.402,0.005,-0.002,0.008,6.436,5.043,12.096
09:27:46:744,28.428,-0.002,-0.006,0.007,6.428,5.077,12.088
09:27:46:77,28.453,0.001,-0.012,0.010,6.421,5.102,12.053
09:27:46:796,28.480,-0.002,-0.014,0.008,6.417,5.129,12.039
09:27:46:822,28.506,0.000,-0.006,0.009,6.407,5.180,12.044
09:27:46:849,28.532,0.004,-0.003,0.006,6.399,5.213,12.047
09:27:46:876,28.560,0.006,0.000,0.011,6.400,5.228,12.041
09:27:46:932,28.616,0.008,-0.011,0.009,6.387,5.280,12.026
09:27:46:932,28.616,-0.002,-0.008,-0.001,6.359,5.341,12.016
09:27:46:953,28.637,0.001,-0.007,0.012,6.341,5.415,12.023
09:27:46:98,28.664,0.003,-0.006,0.006,6.333,5.448,12.026
09:27:47:006,28.690,0.000,-0.009,0.013,6.324,5.490,12.030
09:27:47:032,28.716,-0.004,-0.007,0.006,6.307,5.561,12.038
09:27:47:059,28.743,-0.006,-0.005,0.012,6.298,5.602,12.042
09:27:47:085,28.768,-0.007,-0.005,0.005,6.291,5.640,12.050
09:27:47:111,28.795,-0.006,-0.003,0.013,6.286,5.666,12.047
09:27:47:137,28.821,-0.006,-0.007,0.004,6.280,5.686,12.050
09:27:47:164,28.847,-0.002,-0.010,0.008,6.275,5.719,12.063
09:27:47:19,28.874,0.003,-0.011,0.006,6.274,5.736,12.079
09:27:47:217,28.901,0.005,-0.007,0.005,6.272,5.736,12.112
09:27:47:242,28.926,0.005,-0.004,0.003,6.271,5.752,12.129
09:27:47:269,28.952,0.009,-0.015,0.012,6.271,5.752,12.129
09:27:47:295,28.979,0.006,-0.003,0.001,6.257,5.783,12.156
09:27:47:321,29.005,0.004,-0.002,0.007,6.248,5.829,12.177
09:27:47:349,29.033,0.001,-0.005,0.005,6.234,5.872,12.182
09:27:47:374,29.058,0.001,-0.009,0.010,6.239,5.889,12.186
09:27:47:403,29.086,0.000,-0.011,0.010,6.228,5.925,12.184
09:27:47:404,29.087,0.005,-0.002,0.017,6.217,5.961,12.195
09:27:47:455,29.139,0.003,-0.002,0.003,6.213,5.977,12.202
09:27:47:456,29.140,0.007,-0.008,0.009,6.216,5.988,12.201
09:27:47:505,29.189,0.000,-0.004,0.010,6.208,6.020,12.204
09:27:47:534,29.218,-0.001,-0.007,0.008,6.192,6.082,12.211
09:27:47:535,29.218,0.001,-0.007,0.009,6.185,6.102,12.214
09:27:47:586,29.270,0.001,-0.010,0.012,6.185,6.102,12.214
09:27:47:587,29.271,0.003,-0.008,0.012,6.191,6.109,12.217
09:27:47:61,29.294,0.001,-0.006,0.002,6.177,6.134,12.217
09:27:47:636,29.320,0.000,-0.003,0.010,6.172,6.175,12.219
09:27:47:662,29.346,0.001,-0.006,0.004,6.170,6.197,12.220
09:27:47:689,29.373,0.003,-0.007,0.008,6.166,6.203,12.227
09:27:47:716,29.400,0.000,-0.007,0.004,6.163,6.234,12.228
09:27:47:742,29.426,0.003,-0.011,0.010,6.155,6.249,12.226
09:27:47:767,29.451,0.001,-0.008,0.004,6.148,6.287,12.235
09:27:47:794,29.478,0.002,-0.003,0.006,6.143,6.313,12.231
09:27:47:82,29.504,0.000,-0.009,0.004,6.132,6.350,12.230
09:27:47:848,29.531,0.006,-0.006,0.013,6.129,6.381,12.232
09:27:47:901,29.585,0.004,-0.005,0.000,6.124,6.407,12.228
09:27:47:902,29.586,-0.002,-0.001,0.012,6.107,6.464,12.230
09:27:47:925,29.609,-0.001,-0.010,0.010,6.105,6.469,12.215
09:27:47:951,29.635,0.000,-0.011,0.016,6.108,6.469,12.181
09:27:47:977,29.661,0.000,-0.008,0.009,6.102,6.490,12.173
09:27:48:003,29.687,0.002,0.000,0.016,6.097,6.515,12.181
09:27:48:03,29.714,0.004,-0.005,0.004,6.097,6.515,12.181
09:27:48:056,29.740,0.004,-0.010,0.009,6.093,6.547,12.183
09:27:48:082,29.766,-0.001,-0.006,0.007,6.078,6.599,12.189
09:27:48:109,29.793,0.002,-0.006,0.011,6.077,6.608,12.190
09:27:48:161,29.845,0.001,-0.012,0.008,6.077,6.608,12.190
09:27:48:187,29.871,0.002,-0.010,0.001,6.076,6.621,12.190
09:27:48:214,29.897,0.002,-0.003,0.010,6.069,6.641,12.193
09:27:48:24,29.924,0.009,-0.007,0.008,6.069,6.641,12.193
09:27:48:266,29.950,0.009,-0.009,0.009,6.063,6.651,12.195
09:27:48:293,29.977,0.006,-0.006,0.009,6.060,6.682,12.196
09:27:48:32,30.003,0.006,-0.006,0.008,6.060,6.682,12.196
09:27:48:345,30.029,0.005,-0.007,0.009,6.059,6.709,12.202
09:27:48:371,30.055,0.006,-0.008,0.003,6.050,6.724,12.200
09:27:48:398,30.081,0.008,-0.006,0.008,6.049,6.751,12.206
09:27:48:424,30.108,0.001,-0.007,0.001,6.040,6.775,12.205
09:27:48:451,30.135,0.004,-0.014,0.012,6.040,6.775,12.205
09:27:48:477,30.160,0.005,-0.002,0.000,6.036,6.798,12.228
09:27:48:503,30.187,0.004,-0.001,0.001,6.028,6.834,12.247
09:27:48:528,30.212,0.000,-0.002,0.001,6.027,6.861,12.253
09:27:48:555,30.239,0.008,-0.011,0.011,6.027,6.861,12.253
09:27:48:581,30.265,0.001,-0.014,0.005,6.020,6.881,12.256
09:27:48:608,30.291,0.008,-0.005,0.016,6.014,6.892,12.258
09:27:48:633,30.317,0.007,0.000,0.003,6.014,6.892,12.258
09:27:48:66,30.344,0.004,-0.009,0.011,6.010,6.909,12.254
09:27:48:686,30.370,0.000,-0.005,0.003,6.001,6.950,12.258
09:27:48:742,30.426,0.000,-0.007,0.010,5.992,7.007,12.267
09:27:48:743,30.427,0.000,-0.008,0.008,5.986,7.026,12.270
09:27:48:765,30.449,0.001,-0.008,0.011,5.986,7.026,12.270
09:27:48:791,30.475,-0.001,-0.007,0.007,5.983,7.048,12.271
09:27:48:818,30.502,0.002,-0.004,0.008,5.983,7.048,12.271
09:27:48:844,30.528,0.002,-0.003,0.004,5.983,7.048,12.271
09:27:48:87,30.554,0.010,-0.007,0.013,5.983,7.048,12.271
09:27:48:896,30.580,0.004,-0.006,0.010,5.977,7.069,12.263
09:27:48:922,30.606,0.004,-0.008,0.009,5.973,7.086,12.258
09:27:48:95,30.633,0.003,-0.008,0.008,5.970,7.085,12.249
09:27:48:975,30.659,-0.001,-0.007,0.009,5.972,7.106,12.249
09:27:49:001,30.685,0.002,-0.005,0.012,5.969,7.105,12.239
09:27:49:027,30.711,0.003,-0.003,0.011,5.966,7.109,12.235
09:27:49:083,30.767,-0.001,-0.009,0.014,5.966,7.106,12.219
09:27:49:084,30.767,0.002,-0.013,0.014,5.962,7.105,12.209
09:27:49:106,30.790,0.003,-0.002,0.005,5.965,7.125,12.209
09:27:49:132,30.816,0.000,-0.002,0.004,5.957,7.140,12.207
09:27:49:158,30.842,0.000,-0.006,0.012,5.960,7.130,12.184
09:27:49:185,30.868,0.000,-0.012,0.006,5.964,7.125,12.166
09:27:49:211,30.895,-0.002,-0.014,0.012,5.958,7.136,12.169
09:27:49:238,30.922,0.008,-0.001,0.002,5.965,7.116,12.166
09:27:49:265,30.949,0.004,-0.007,0.007,5.966,7.103,12.166
09:27:49:291,30.975,0.003,-0.011,0.001,5.964,7.125,12.166
09:27:49:316,31.000,0.001,-0.007,0.007,5.956,7.157,12.169
09:27:49:342,31.026,-0.001,-0.006,0.003,5.956,7.157,12.169
09:27:49:368,31.052,0.003,-0.006,0.013,5.956,7.157,12.169
09:27:49:395,31.079,0.003,-0.011,0.008,5.957,7.145,12.169
09:27:49:421,31.105,0.004,-0.008,0.009,5.956,7.157,12.169
09:27:49:447,31.131,0.004,-0.002,0.005,5.956,7.157,12.169
09:27:49:474,31.157,0.009,-0.004,0.006,5.956,7.157,12.169
09:27:49:5,31.184,0.008,-0.009,0.007,5.956,7.157,12.169
09:27:49:526,31.210,0.005,-0.008,0.009,5.956,7.157,12.169
09:27:49:552,31.236,0.006,-0.007,0.005,5.956,7.157,12.169
09:27:49:579,31.262,0.008,-0.008,0.009,5.956,7.157,12.169
09:27:49:605,31.289,0.007,-0.006,0.005,5.953,7.162,12.165
09:27:49:631,31.315,0.007,-0.007,0.014,5.948,7.187,12.173
09:27:49:659,31.343,0.008,-0.004,0.005,5.948,7.187,12.173
09:27:49:684,31.367,0.003,-0.004,0.008,5.946,7.199,12.173
09:27:49:71,31.394,0.006,-0.014,0.010,5.946,7.199,12.173
09:27:49:739,31.423,0.009,-0.003,0.002,5.945,7.209,12.174
09:27:49:74,31.424,0.002,-0.001,0.008,5.936,7.250,12.178
09:27:49:791,31.475,0.003,0.000,0.011,5.930,7.261,12.180
09:27:49:792,31.476,0.002,-0.010,0.015,5.930,7.261,12.180
09:27:49:844,31.528,-0.001,-0.011,0.008,5.928,7.283,12.181
09:27:49:845,31.528,0.002,-0.007,0.016,5.924,7.302,12.204
09:27:49:867,31.551,0.003,-0.001,0.002,5.922,7.303,12.226
09:27:49:894,31.577,0.000,-0.006,0.004,5.919,7.325,12.227
09:27:49:92,31.604,0.001,-0.008,0.002,5.908,7.360,12.237
09:27:49:946,31.630,0.001,-0.005,0.008,5.910,7.381,12.237
09:27:49:972,31.656,0.003,-0.007,0.005,5.910,7.381,12.237
09:27:49:999,31.683,-0.001,-0.010,0.008,5.910,7.381,12.237
09:27:50:025,31.708,0.000,-0.010,0.001,5.910,7.381,12.237
09:27:50:052,31.736,0.005,-0.005,0.012,5.910,7.381,12.237
09:27:50:078,31.761,0.004,-0.006,0.000,5.910,7.381,12.237
09:27:50:104,31.788,0.003,-0.003,0.009,5.910,7.381,12.237
09:27:50:13,31.813,0.002,-0.010,0.006,5.910,7.381,12.237
09:27:50:156,31.840,0.001,-0.007,0.013,5.910,7.381,12.237
09:27:50:182,31.866,0.005,-0.007,0.006,5.910,7.381,12.237
09:27:50:21,31.893,0.002,-0.008,0.010,5.904,7.392,12.239
09:27:50:235,31.919,0.000,-0.005,0.007,5.899,7.402,12.241
09:27:50:261,31.945,0.002,-0.003,0.008,5.899,7.402,12.241
09:27:50:287,31.971,-0.001,-0.007,0.008,5.899,7.402,12.241
09:27:50:314,31.997,0.003,-0.011,0.010,5.899,7.402,12.241
09:27:50:34,32.024,0.003,-0.002,0.002,5.893,7.434,12.264
09:27:50:366,32.050,0.004,0.000,0.008,5.888,7.459,12.272
09:27:50:393,32.077,-0.001,0.000,0.005,5.888,7.459,12.272
09:27:50:421,32.104,0.000,-0.009,0.014,5.892,7.476,12.276
09:27:50:446,32.130,-0.001,-0.011,0.015,5.891,7.503,12.282
09:27:50:472,32.156,0.005,-0.005,0.022,5.893,7.486,12.308
09:27:50:497,32.181,0.005,-0.004,0.011,5.887,7.497,12.310
09:27:50:524,32.207,0.002,-0.009,0.008,5.877,7.539,12.314
09:27:50:55,32.234,-0.004,-0.005,0.009,5.863,7.607,12.314
09:27:50:576,32.260,0.000,-0.007,0.006,5.866,7.617,12.324
09:27:50:602,32.286,0.001,-0.009,0.013,5.866,7.617,12.324
09:27:50:629,32.313,-0.002,-0.010,0.006,5.859,7.637,12.327
09:27:50:655,32.338,-0.002,-0.009,0.011,5.844,7.689,12.333
09:27:50:681,32.365,-0.001,-0.007,0.003,5.838,7.731,12.346
09:27:50:707,32.391,0.001,-0.004,0.008,5.842,7.732,12.355
09:27:50:735,32.419,0.001,-0.007,0.006,5.842,7.775,12.356
09:27:50:761,32.445,-0.005,-0.006,0.015,5.835,7.812,12.363
09:27:50:787,32.470,-0.004,-0.008,0.005,5.825,7.863,12.368
09:27:50:812,32.496,-0.005,-0.006,0.013,5.816,7.896,12.371
09:27:50:838,32.522,-0.002,-0.010,0.006,5.815,7.905,12.372
09:27:50:865,32.548,-0.003,-0.004,0.012,5.806,7.947,12.375
09:27:50:891,32.575,-0.006,-0.010,0.012,5.799,7.967,12.378
09:27:50:917,32.601,-0.006,-0.010,0.018,5.799,7.967,12.378
09:27:50:973,32.657,0.002,-0.001,0.007,5.793,7.977,12.380
09:27:50:973,32.657,-0.004,-0.003,0.011,5.790,8.008,12.382
09:27:50:996,32.680,-0.005,-0.005,0.007,5.784,8.019,12.384
09:27:51:022,32.706,-0.001,-0.014,0.018,5.784,8.019,12.384
09:27:51:049,32.733,-0.005,-0.009,0.009,5.788,8.035,12.388
09:27:51:075,32.759,0.002,-0.005,0.019,5.788,8.035,12.388
09:27:51:101,32.785,0.000,0.000,0.009,5.788,8.035,12.388
09:27:51:127,32.811,-0.001,-0.008,0.004,5.780,8.050,12.385
09:27:51:155,32.838,-0.002,-0.007,0.008,5.776,8.080,12.398
09:27:51:18,32.864,0.000,-0.005,0.012,5.771,8.103,12.421
09:27:51:206,32.890,0.003,-0.003,0.014,5.773,8.097,12.437
09:27:51:232,32.916,0.004,0.002,0.019,5.771,8.113,12.464
09:27:51:258,32.942,0.011,0.000,0.020,5.752,8.196,12.514
09:27:51:285,32.969,0.009,0.002,0.025,5.745,8.277,12.565
09:27:51:311,32.995,0.005,-0.010,0.025,5.738,8.349,12.654
09:27:51:337,33.021,-0.002,-0.021,0.014,5.762,8.336,12.726
09:27:51:363,33.047,-0.006,-0.018,0.010,5.806,8.262,12.800
09:27:51:39,33.074,-0.017,-0.008,-0.001,5.884,8.170,12.831
09:27:51:416,33.100,-0.014,-0.004,-0.001,5.949,8.106,12.835
09:27:51:444,33.128,-0.024,-0.013,-0.021,6.003,8.080,12.869
09:27:51:469,33.153,-0.027,-0.014,-0.022,5.996,8.110,12.958
09:27:51:495,33.179,-0.010,-0.008,-0.023,5.991,8.043,13.157
09:27:51:521,33.205,0.021,-0.005,-0.002,5.977,7.855,13.373
09:27:51:548,33.231,0.028,-0.006,-0.006,5.951,7.799,13.532
09:27:51:573,33.257,0.051,-0.008,0.016,5.894,7.864,13.782
09:27:51:601,33.285,0.053,-0.002,0.027,5.891,7.884,13.890
09:27:51:627,33.310,0.060,-0.004,0.039,5.954,7.864,14.014
09:27:51:653,33.337,0.046,-0.008,0.037,6.027,7.926,14.042
09:27:51:705,33.389,-0.004,0.014,0.020,5.910,8.407,14.144
09:27:51:731,33.415,-0.007,0.007,0.024,5.885,8.484,14.137
09:27:51:757,33.441,-0.001,-0.014,0.018,5.930,8.505,14.009
09:27:51:786,33.469,-0.013,-0.015,0.010,5.982,8.530,13.875
09:27:51:81,33.494,-0.028,-0.008,0.005,6.044,8.645,13.615
09:27:51:837,33.521,-0.024,-0.007,0.004,6.178,8.688,13.378
09:27:51:863,33.547,-0.022,-0.014,0.002,6.289,8.681,13.229
09:27:51:89,33.573,-0.020,-0.016,-0.002,6.414,8.755,13.048
09:27:51:915,33.599,-0.035,-0.016,-0.020,6.452,8.869,12.990
09:27:51:941,33.625,-0.035,-0.017,-0.023,6.468,9.066,12.961
09:27:51:967,33.651,-0.039,-0.006,-0.024,6.451,9.234,12.947
09:27:51:993,33.677,-0.040,-0.005,-0.016,6.421,9.336,12.948
09:27:52:02,33.704,-0.046,0.002,-0.010,6.332,9.498,12.970
09:27:52:047,33.731,-0.041,0.003,-0.003,6.258,9.607,13.027
09:27:52:075,33.759,-0.031,0.005,0.013,6.205,9.698,13.163
09:27:52:076,33.760,-0.004,-0.004,0.029,6.191,9.714,13.259
09:27:52:098,33.782,0.014,-0.009,0.040,6.184,9.736,13.335
09:27:52:125,33.808,0.021,-0.002,0.024,6.168,9.857,13.464
09:27:52:151,33.835,0.021,0.000,0.029,6.203,9.933,13.529
09:27:52:179,33.862,0.024,-0.008,0.009,6.299,10.006,13.552
09:27:52:204,33.888,0.024,-0.010,0.008,6.340,10.063,13.539
09:27:52:26,33.944,-0.004,-0.008,-0.005,6.355,10.164,13.531
09:27:52:26,33.944,-0.003,-0.005,0.003,6.377,10.188,13.513
09:27:52:282,33.966,-0.011,-0.007,-0.001,6.388,10.183,13.483
09:27:52:309,33.993,-0.015,-0.008,0.004,6.381,10.187,13.437
09:27:52:335,34.019,-0.022,-0.006,0.007,6.377,10.183,13.412
09:27:52:361,34.045,-0.018,-0.005,0.009,6.384,10.119,13.377
09:27:52:389,34.073,-0.016,0.001,0.008,6.412,9.995,13.334
09:27:52:414,34.098,-0.009,0.002,0.018,6.443,9.874,13.285
09:27:52:44,34.124,-0.003,-0.007,0.013,6.495,9.696,13.217
09:27:52:466,34.150,-0.004,0.002,0.017,6.529,9.596,13.168
09:27:52:492,34.176,0.018,-0.002,0.025,6.601,9.381,13.097
09:27:52:519,34.203,0.008,-0.003,0.016,6.675,9.196,13.027
09:27:52:545,34.229,-0.007,-0.009,0.002,6.752,8.959,12.933
09:27:52:571,34.255,0.005,0.001,0.010,6.823,8.785,12.874
09:27:52:598,34.282,-0.022,-0.009,0.000,6.864,8.714,12.870
09:27:52:624,34.307,-0.017,0.008,0.000,6.985,8.414,12.882
09:27:52:65,34.334,0.021,-0.004,0.016,7.110,8.037,12.836
09:27:52:676,34.360,0.007,-0.019,0.009,7.220,7.317,12.757
09:27:52:702,34.386,-0.006,-0.003,-0.006,7.286,7.285,12.695
09:27:52:729,34.413,-0.008,-0.012,-0.014,7.362,7.207,12.655
09:27:52:756,34.440,0.002,-0.005,-0.015,7.466,7.113,12.612
09:27:52:781,34.465,0.006,-0.015,-0.022,7.523,6.910,12.592
09:27:52:807,34.491,0.011,-0.013,-0.009,7.564,6.966,12.590
09:27:52:834,34.518,0.013,-0.013,-0.008,7.590,7.002,12.613
09:27:52:86,34.544,0.017,-0.008,0.002,7.602,7.077,12.643
09:27:52:887,34.571,0.023,-0.016,-0.002,7.622,7.208,12.682
09:27:52:912,34.596,0.029,-0.013,0.013,7.627,7.342,12.700
09:27:52:968,34.652,0.023,-0.009,0.005,7.606,7.355,12.692
09:27:52:968,34.652,0.017,-0.002,0.019,7.585,7.496,12.687
09:27:52:991,34.675,0.009,-0.002,0.012,7.582,7.607,12.653
09:27:53:018,34.702,0.000,-0.008,0.017,7.581,7.612,12.637
09:27:53:044,34.728,-0.013,-0.010,0.004,7.560,7.743,12.643
09:27:53:07,34.754,-0.012,-0.010,0.008,7.533,7.863,12.671
09:27:53:096,34.780,-0.018,-0.005,0.003,7.519,7.921,12.683
09:27:53:122,34.806,-0.020,0.001,0.006,7.511,7.978,12.682
09:27:53:149,34.832,-0.020,-0.001,0.000,7.500,8.015,12.681
09:27:53:177,34.861,-0.019,-0.004,0.008,7.500,8.004,12.691
09:27:53:202,34.886,-0.006,-0.007,0.002,7.505,7.978,12.694
09:27:53:227,34.911,-0.001,-0.011,0.013,7.522,7.725,12.704
09:27:53:254,34.938,0.004,-0.016,0.009,7.537,7.662,12.708
09:27:53:28,34.963,0.010,-0.007,0.004,7.550,7.544,12.726
09:27:53:306,34.990,0.005,-0.006,-0.002,7.560,7.516,12.728
09:27:53:333,35.017,0.010,-0.007,0.002,7.574,7.049,12.723
09:27:53:359,35.043,0.008,-0.008,0.007,7.575,6.998,12.710
09:27:53:386,35.069,0.002,-0.008,0.005,7.561,6.938,12.708
09:27:53:411,35.095,0.008,-0.004,0.005,7.541,6.930,12.721
09:27:53:437,35.121,0.006,-0.006,0.007,7.526,6.834,12.745
09:27:53:463,35.147,0.007,-0.010,0.006,7.504,6.842,12.775
09:27:53:49,35.174,0.006,-0.010,-0.003,7.489,6.842,12.791
09:27:53:518,35.201,0.002,-0.008,0.005,7.450,6.876,12.800
09:27:53:571,35.255,0.000,-0.008,0.000,7.429,6.854,12.807
09:27:53:572,35.256,0.001,-0.006,0.009,7.405,6.846,12.799
09:27:53:595,35.279,-0.003,-0.002,0.004,7.381,6.727,12.805
09:27:53:621,35.305,-0.008,-0.003,0.008,7.363,6.741,12.806
09:27:53:648,35.331,-0.004,-0.007,-0.005,7.355,6.617,12.812
09:27:53:674,35.357,-0.002,-0.005,0.000,7.349,6.645,12.819
09:27:53:7,35.384,-0.002,-0.006,-0.009,7.314,6.704,12.845
09:27:53:726,35.410,0.008,-0.008,0.008,7.300,6.656,12.876
09:27:53:752,35.436,0.008,-0.015,-0.001,7.292,6.678,12.889
09:27:53:779,35.462,0.004,-0.006,0.007,7.264,6.715,12.926
09:27:53:806,35.490,0.004,-0.009,0.007,7.238,6.774,12.949
09:27:53:832,35.516,0.008,-0.011,0.009,7.217,6.816,12.978
09:27:53:858,35.541,-0.003,0.000,-0.004,7.201,6.889,13.018
09:27:53:884,35.568,-0.016,-0.001,0.005,7.187,6.947,13.029
09:27:53:91,35.594,-0.013,-0.007,0.002,7.189,6.975,13.045
09:27:53:937,35.621,-0.011,-0.010,0.004,7.185,6.948,13.051
09:27:53:963,35.647,-0.013,-0.008,-0.001,7.181,6.953,13.069
09:27:53:989,35.672,-0.001,-0.003,0.001,7.178,6.878,13.090
09:27:54:015,35.699,0.006,-0.006,-0.002,7.186,6.831,13.081
09:27:54:041,35.725,0.002,-0.003,0.000,7.191,6.805,13.084
09:27:54:068,35.751,0.010,-0.003,0.005,7.182,6.772,13.076
09:27:54:093,35.777,0.015,-0.003,0.011,7.172,6.696,13.067
09:27:54:12,35.804,0.010,-0.008,0.008,7.156,6.658,13.067
09:27:54:148,35.832,0.007,-0.009,0.004,7.149,6.678,13.070
09:27:54:173,35.857,0.011,-0.011,0.000,7.135,6.725,13.092
09:27:54:199,35.882,0.012,-0.010,-0.010,7.129,6.757,13.116
09:27:54:225,35.909,0.013,-0.011,-0.003,7.117,6.810,13.143
09:27:54:251,35.935,0.001,-0.003,-0.010,7.101,6.862,13.149
09:27:54:278,35.961,-0.008,-0.006,0.000,7.083,6.940,13.119
09:27:54:303,35.987,-0.020,-0.009,-0.003,7.074,6.986,13.086
09:27:54:332,36.015,-0.021,-0.004,0.008,7.069,6.991,13.061
09:27:54:357,36.041,-0.018,-0.002,0.001,7.063,7.005,13.037
09:27:54:382,36.066,-0.014,-0.007,0.004,7.062,7.022,13.042
09:27:54:412,36.096,-0.003,-0.015,-0.006,7.068,7.012,13.040
09:27:54:413,36.096,0.001,0.004,-0.005,7.069,6.994,13.035
09:27:54:464,36.148,-0.002,-0.001,-0.009,7.076,6.974,13.031
09:27:54:465,36.148,-0.001,-0.001,0.006,7.086,6.926,13.000
09:27:54:514,36.198,-0.001,-0.005,0.001,7.088,6.900,12.983
09:27:54:543,36.226,-0.001,-0.008,0.010,7.088,6.900,12.983
09:27:54:543,36.227,0.004,-0.008,0.004,7.091,6.901,12.992
09:27:54:595,36.279,0.008,-0.008,0.002,7.089,6.901,13.025
09:27:54:596,36.280,0.008,-0.009,-0.005,7.088,6.908,13.041
09:27:54:62,36.304,0.000,-0.005,0.004,7.082,6.928,13.044
09:27:54:646,36.330,-0.004,-0.004,-0.001,7.083,6.944,13.039
09:27:54:671,36.355,-0.004,0.001,0.002,7.083,6.944,13.039
09:27:54:698,36.381,-0.004,0.001,0.002,7.080,6.944,13.018
09:27:54:724,36.408,0.000,-0.001,0.011,7.076,6.943,13.009
09:27:54:75,36.434,0.003,-0.004,0.002,7.074,6.947,13.005
09:27:54:776,36.460,0.009,-0.007,0.001,7.084,6.996,13.007
09:27:54:802,36.486,0.010,-0.009,0.001,7.094,7.029,13.015
09:27:54:829,36.513,0.011,-0.010,0.003,7.110,7.085,13.021
09:27:54:855,36.539,0.007,-0.006,0.000,7.119,7.139,13.008
09:27:54:882,36.566,0.001,-0.007,0.004,7.122,7.185,12.992
09:27:54:908,36.591,-0.007,-0.007,0.009,7.145,7.235,12.958
09:27:54:934,36.618,-0.010,-0.004,-0.005,7.155,7.262,12.939
09:27:54:96,36.644,-0.001,-0.009,0.008,7.186,7.263,12.907
09:27:54:986,36.670,0.004,-0.004,0.000,7.206,7.271,12.894
09:27:55:013,36.696,0.009,-0.003,0.000,7.232,7.278,12.880
09:27:55:039,36.723,0.006,-0.007,-0.007,7.259,7.286,12.855
09:27:55:065,36.749,0.006,-0.008,0.002,7.276,7.275,12.827
09:27:55:092,36.775,0.015,-0.015,0.000,7.308,7.268,12.783
09:27:55:117,36.801,0.013,-0.011,0.006,7.302,7.292,12.749
09:27:55:144,36.827,0.013,-0.012,0.000,7.311,7.326,12.703
09:27:55:17,36.854,0.014,-0.010,-0.003,7.339,7.384,12.657
09:27:55:196,36.880,0.012,-0.002,-0.021,7.349,7.465,12.618
09:27:55:223,36.907,0.013,0.004,-0.002,7.355,7.618,12.549
09:27:55:25,36.933,-0.001,-0.004,-0.007,7.355,7.738,12.494
09:27:55:275,36.959,-0.002,-0.010,0.005,7.369,7.897,12.407
09:27:55:301,36.984,-0.009,-0.013,0.001,7.385,8.061,12.325
09:27:55:327,37.011,-0.012,-0.010,0.008,7.392,8.161,12.267
09:27:55:354,37.038,-0.020,-0.008,0.002,7.406,8.329,12.181
09:27:55:38,37.064,-0.021,-0.010,0.001,7.424,8.467,12.136
09:27:55:406,37.090,-0.012,-0.013,-0.013,7.434,8.705,12.090
09:27:55:434,37.118,-0.026,0.016,-0.015,7.442,8.869,12.055
09:27:55:459,37.142,-0.012,0.031,-0.021,7.462,9.096,11.974
09:27:55:485,37.169,-0.019,0.049,0.001,7.468,9.263,11.849
09:27:55:54,37.224,-0.009,0.034,0.031,7.452,9.326,11.745
09:27:55:541,37.224,-0.014,0.012,0.075,7.429,9.347,11.620
09:27:55:565,37.249,0.015,-0.015,0.093,7.404,9.356,11.628
09:27:55:59,37.274,0.006,-0.068,0.073,7.353,9.426,11.801
09:27:55:616,37.300,0.037,-0.114,0.012,7.393,9.294,12.099
09:27:55:642,37.326,0.035,-0.093,-0.019,7.402,9.232,12.312
09:27:55:669,37.353,0.012,-0.033,-0.055,7.424,9.201,12.469
09:27:55:696,37.379,-0.008,-0.003,-0.071,7.460,9.199,12.351
09:27:55:721,37.405,-0.017,0.001,-0.063,7.543,9.124,11.804
09:27:55:748,37.432,-0.046,-0.004,-0.060,7.521,8.889,11.027
09:27:55:774,37.458,-0.052,0.013,-0.022,7.398,8.650,10.576
09:27:55:8,37.484,-0.073,0.046,0.021,7.335,8.270,9.978
09:27:55:828,37.511,-0.047,0.039,0.058,7.321,8.099,9.824
09:27:55:853,37.537,0.019,0.018,0.042,7.316,8.075,9.915
09:27:55:878,37.562,0.040,0.011,0.036,7.251,8.306,10.120
09:27:55:905,37.588,0.060,-0.002,0.004,7.089,8.981,10.526
09:27:55:931,37.615,0.036,-0.028,-0.004,6.833,10.097,10.987
09:27:55:959,37.642,-0.001,-0.028,-0.007,6.613,11.017,11.298
09:27:55:984,37.668,-0.003,-0.033,0.009,6.345,12.165,11.651
09:27:56:01,37.694,-0.013,-0.027,0.007,6.224,12.663,11.767
09:27:56:036,37.720,-0.004,-0.026,0.007,6.144,12.933,11.739
09:27:56:062,37.746,-0.003,-0.022,-0.004,6.157,12.846,11.513
09:27:56:089,37.772,-0.018,-0.008,0.004,6.166,12.703,11.333
09:27:56:115,37.799,-0.036,-0.002,0.004,6.166,12.646,11.112
09:27:56:141,37.825,-0.037,0.002,0.008,6.161,12.465,11.036
09:27:56:167,37.851,-0.024,0.000,0.009,6.162,12.153,11.028
09:27:56:193,37.877,-0.008,0.004,0.023,6.169,11.583,11.103
09:27:56:22,37.904,-0.001,0.007,0.023,6.173,11.313,11.191
09:27:56:246,37.930,0.014,-0.007,0.027,6.235,10.867,11.367
09:27:56:272,37.956,0.022,-0.004,0.008,6.268,10.673,11.511
09:27:56:299,37.983,0.022,-0.006,0.004,6.298,10.369,11.755
09:27:56:325,38.009,0.020,-0.015,-0.007,6.335,10.223,11.968
09:27:56:382,38.066,0.029,-0.022,-0.014,6.362,10.097,12.057
09:27:56:382,38.066,0.016,-0.011,-0.010,6.385,9.922,12.131
09:27:56:403,38.087,0.016,-0.012,-0.016,6.405,9.737,12.106
09:27:56:43,38.114,0.014,-0.007,-0.006,6.404,9.626,12.066
09:27:56:456,38.140,0.006,0.000,-0.006,6.398,9.431,12.027
09:27:56:484,38.168,0.010,-0.001,0.010,6.400,9.352,12.020
09:27:56:51,38.193,0.008,0.001,0.013,6.387,9.289,12.065
09:27:56:535,38.219,0.008,0.003,0.021,6.380,9.267,12.110
09:27:56:561,38.245,0.009,-0.006,0.017,6.428,9.210,12.188
09:27:56:587,38.271,0.012,-0.007,0.019,6.446,9.196,12.230
09:27:56:643,38.327,0.010,-0.013,0.005,6.468,9.129,12.280
09:27:56:643,38.327,0.009,-0.009,0.000,6.469,9.067,12.332
09:27:56:669,38.353,0.004,-0.004,-0.015,6.471,9.042,12.357
09:27:56:67,38.353,0.007,-0.006,-0.002,6.484,8.916,12.361
09:27:56:722,38.406,-0.001,-0.006,-0.003,6.485,8.856,12.344
09:27:56:722,38.406,-0.003,-0.005,0.010,6.473,8.718,12.335
09:27:56:745,38.428,-0.002,0.000,0.013,6.477,8.561,12.309
09:27:56:771,38.455,-0.009,0.004,0.014,6.490,8.438,12.287
09:27:56:798,38.482,0.000,-0.003,0.007,6.519,8.229,12.263
09:27:56:825,38.509,0.004,-0.003,0.010,6.540,7.972,12.245
09:27:56:85,38.534,0.008,-0.011,-0.002,6.585,7.757,12.221
09:27:56:876,38.560,0.014,-0.003,-0.005,6.618,7.607,12.201
09:27:56:932,38.616,0.015,-0.018,-0.002,6.663,7.383,12.132
09:27:56:933,38.617,0.016,-0.004,-0.004,6.696,7.186,12.070
09:27:56:984,38.668,0.015,-0.004,-0.006,6.699,7.116,12.029
09:27:56:985,38.669,0.010,-0.003,-0.002,6.713,7.017,11.963
09:27:57:008,38.692,0.009,-0.015,0.005,6.727,6.963,11.915
09:27:57:034,38.718,0.007,-0.018,0.005,6.731,6.941,11.838
09:27:57:06,38.744,0.000,-0.011,0.012,6.737,6.913,11.776
09:27:57:086,38.770,0.004,-0.008,0.012,6.754,6.836,11.741
09:27:57:112,38.796,0.000,-0.009,0.000,6.779,6.799,11.684
09:27:57:141,38.825,0.000,-0.006,-0.004,6.798,6.777,11.645
09:27:57:165,38.849,-0.001,-0.008,0.001,6.798,6.777,11.591
09:27:57:191,38.875,-0.004,-0.004,-0.006,6.800,6.713,11.535
09:27:57:219,38.902,-0.002,-0.009,0.002,6.820,6.681,11.495
09:27:57:243,38.927,-0.001,-0.012,-0.005,6.854,6.581,11.454
09:27:57:27,38.954,-0.001,-0.007,0.001,6.855,6.566,11.426
09:27:57:296,38.980,0.001,-0.007,-0.002,6.857,6.533,11.393
09:27:57:322,39.006,0.004,-0.002,0.008,6.869,6.482,11.355
09:27:57:349,39.032,0.004,-0.005,-0.004,6.884,6.464,11.333
09:27:57:375,39.059,0.003,-0.008,0.007,6.880,6.464,11.324
09:27:57:401,39.085,0.004,-0.013,0.003,6.885,6.466,11.322
09:27:57:428,39.112,0.006,-0.011,0.007,6.885,6.466,11.322
09:27:57:454,39.138,0.002,-0.010,0.000,6.885,6.466,11.322
09:27:57:48,39.164,-0.002,-0.005,0.005,6.878,6.485,11.325
09:27:57:506,39.190,-0.006,-0.008,0.002,6.869,6.527,11.329
09:27:57:533,39.217,-0.004,-0.004,0.002,6.869,6.527,11.329
09:27:57:56,39.244,-0.004,-0.004,0.004,6.869,6.527,11.329
09:27:57:585,39.269,0.000,-0.008,0.005,6.877,6.513,11.331
09:27:57:611,39.295,0.004,0.001,-0.003,6.883,6.502,11.329
09:27:57:638,39.321,0.003,-0.002,0.006,6.884,6.493,11.328
09:27:57:663,39.347,0.003,-0.003,0.000,6.890,6.465,11.309
09:27:57:69,39.373,0.005,-0.011,0.010,6.902,6.395,11.277
09:27:57:717,39.400,0.004,-0.012,0.005,6.907,6.370,11.269
09:27:57:744,39.428,0.006,-0.007,0.000,6.913,6.342,11.261
09:27:57:77,39.453,0.007,-0.003,0.000,6.916,6.311,11.259
09:27:57:795,39.479,0.006,-0.010,0.001,6.925,6.269,11.255
09:27:57:821,39.505,0.005,-0.007,0.003,6.929,6.271,11.253
09:27:57:848,39.532,0.002,-0.004,0.005,6.918,6.306,11.264
09:27:57:874,39.558,0.001,-0.004,0.000,6.910,6.352,11.284
09:27:57:9,39.584,0.002,-0.013,0.000,6.914,6.360,11.309
09:27:57:928,39.612,0.003,-0.011,0.004,6.909,6.365,11.338
09:27:57:954,39.638,-0.001,-0.004,-0.004,6.900,6.413,11.370
09:27:57:98,39.663,0.003,-0.004,0.003,6.898,6.424,11.381
09:27:58:006,39.690,0.004,-0.005,-0.002,6.911,6.430,11.403
09:27:58:031,39.715,0.007,-0.005,0.005,6.912,6.428,11.418
09:27:58:058,39.741,0.006,-0.006,0.000,6.913,6.432,11.435
09:27:58:083,39.767,0.006,-0.009,0.004,6.935,6.434,11.437
09:27:58:11,39.794,0.007,-0.010,0.000,6.946,6.440,11.439
09:27:58:138,39.822,0.005,-0.004,0.004,6.955,6.468,11.442
09:27:58:164,39.847,0.002,-0.008,0.002,6.963,6.495,11.445
09:27:58:215,39.899,0.002,-0.007,0.001,7.000,6.546,11.470
09:27:58:242,39.926,0.002,-0.010,0.006,7.010,6.601,11.500
09:27:58:267,39.951,0.004,-0.014,0.003,7.030,6.656,11.526
09:27:58:293,39.977,0.007,-0.001,0.000,7.037,6.699,11.557
09:27:58:32,40.004,0.000,-0.001,0.000,7.050,6.785,11.576
09:27:58:346,40.030,-0.001,-0.005,0.004,7.062,6.834,11.579
09:27:58:372,40.056,0.000,-0.012,0.004,7.063,6.881,11.585
09:27:58:398,40.082,0.002,-0.013,0.008,7.058,6.931,11.614
09:27:58:425,40.109,0.006,-0.007,0.011,7.055,6.963,11.616
09:27:58:451,40.135,0.001,-0.001,0.003,7.042,7.035,11.633
09:27:58:478,40.162,0.001,-0.010,0.006,7.045,7.116,11.639
09:27:58:504,40.187,0.003,-0.008,0.007,7.035,7.174,11.660
09:27:58:53,40.214,0.000,-0.004,0.007,7.012,7.280,11.703
09:27:58:557,40.241,-0.003,-0.009,-0.002,7.005,7.349,11.734
09:27:58:584,40.267,-0.002,-0.012,0.006,7.000,7.424,11.758
09:27:58:609,40.293,-0.002,-0.012,0.002,6.984,7.507,11.787
09:27:58:635,40.319,-0.003,-0.005,0.010,6.970,7.560,11.794
09:27:58:662,40.345,-0.005,-0.004,0.006,6.957,7.622,11.810
09:27:58:688,40.371,-0.003,-0.005,0.011,6.950,7.660,11.818
09:27:58:714,40.398,-0.002,-0.009,0.000,6.941,7.711,11.823
09:27:58:741,40.424,0.000,-0.006,0.011,6.934,7.738,11.842
09:27:58:766,40.450,0.001,-0.009,0.001,6.931,7.749,11.865
09:27:58:792,40.476,0.001,-0.007,0.007,6.933,7.759,11.875
09:27:58:819,40.503,0.002,-0.006,0.001,6.928,7.770,11.877
09:27:58:845,40.528,0.004,-0.005,0.009,6.928,7.770,11.877
09:27:58:871,40.555,0.003,-0.002,0.004,6.928,7.770,11.877
09:27:58:899,40.582,0.003,-0.005,0.010,6.928,7.770,11.877
09:27:58:924,40.608,0.002,-0.012,0.009,6.936,7.755,11.879
09:27:58:95,40.634,0.011,-0.001,0.010,6.936,7.755,11.879
09:27:58:976,40.660,0.000,-0.002,0.005,6.929,7.775,11.882
09:27:59:002,40.686,-0.001,-0.003,0.009,6.925,7.774,11.873
09:27:59:029,40.713,0.002,-0.012,0.006,6.933,7.745,11.869
09:27:59:056,40.739,-0.002,-0.014,0.012,6.933,7.745,11.869
09:27:59:085,40.769,0.003,-0.009,0.008,6.934,7.732,11.869
09:27:59:085,40.769,0.007,0.001,0.008,6.941,7.712,11.866
09:27:59:136,40.820,0.004,-0.009,0.007,6.941,7.712,11.866
09:27:59:137,40.821,0.004,-0.005,0.010,6.941,7.712,11.866
09:27:59:161,40.845,-0.001,-0.009,0.008,6.935,7.723,11.868
09:27:59:215,40.899,0.001,-0.010,0.008,6.935,7.723,11.868
09:27:59:216,40.900,0.003,-0.010,0.010,6.941,7.712,11.866
09:27:59:267,40.951,0.002,-0.010,0.010,6.941,7.712,11.866
09:27:59:268,40.952,0.000,-0.005,0.007,6.940,7.717,11.850
09:27:59:293,40.976,0.000,-0.006,0.003,6.936,7.716,11.841
09:27:59:318,41.002,0.002,-0.006,0.004,6.944,7.702,11.843
09:27:59:344,41.028,0.005,-0.011,0.002,6.947,7.690,11.832
09:27:59:37,41.054,0.001,-0.008,0.009,6.945,7.685,11.827
09:27:59:396,41.080,0.004,-0.011,0.001,6.945,7.685,11.827
09:27:59:424,41.108,0.004,-0.009,0.010,6.945,7.685,11.827
09:27:59:449,41.133,0.002,-0.007,0.001,6.942,7.684,11.817
09:27:59:475,41.159,0.001,-0.005,0.012,6.942,7.684,11.817
09:27:59:501,41.185,0.001,-0.008,-0.001,6.942,7.684,11.817
09:27:59:528,41.212,0.002,-0.005,0.009,6.944,7.680,11.821
09:27:59:556,41.239,0.000,-0.014,0.004,6.946,7.679,11.799
09:27:59:609,41.293,0.006,-0.006,0.007,6.946,7.679,11.799
09:27:59:61,41.294,0.000,0.000,0.001,6.941,7.695,11.807
09:27:59:633,41.316,0.002,-0.002,0.011,6.941,7.695,11.807
09:27:59:659,41.343,-0.001,-0.013,0.009,6.944,7.701,11.800
09:27:59:714,41.398,-0.001,-0.016,0.015,6.944,7.701,11.800
09:27:59:715,41.399,0.000,-0.013,0.007,6.943,7.710,11.801
09:27:59:738,41.422,0.011,-0.004,0.010,6.944,7.683,11.795
09:27:59:763,41.447,0.006,-0.005,0.000,6.945,7.674,11.794
09:27:59:79,41.474,0.002,-0.007,0.004,6.945,7.688,11.800
09:27:59:816,41.500,0.003,-0.006,0.005,6.945,7.688,11.800
09:27:59:844,41.528,0.003,-0.008,0.009,6.945,7.688,11.800
09:27:59:869,41.552,0.006,-0.008,0.013,6.947,7.670,11.799
09:27:59:895,41.579,0.003,-0.009,0.012,6.951,7.663,11.792
09:27:59:921,41.605,0.001,-0.004,0.009,6.947,7.670,11.799
09:27:59:948,41.631,0.002,-0.002,0.010,6.946,7.679,11.799
09:27:59:974,41.658,0.007,-0.006,0.004,6.951,7.653,11.803
09:28:00:,41.684,0.009,-0.009,0.007,6.953,7.649,11.807
09:28:00:026,41.710,0.005,-0.008,0.010,6.947,7.659,11.809
09:28:00:052,41.736,0.003,-0.008,0.003,6.950,7.680,11.809
09:28:00:079,41.762,0.006,-0.009,0.007,6.944,7.681,11.810
09:28:00:105,41.789,0.002,-0.006,-0.001,6.936,7.720,11.815
09:28:00:131,41.815,0.000,-0.005,0.008,6.934,7.742,11.816
09:28:00:158,41.842,0.003,-0.003,-0.002,6.929,7.757,11.823
09:28:00:185,41.869,0.001,-0.008,0.010,6.929,7.757,11.823
09:28:00:21,41.894,0.002,-0.015,0.003,6.930,7.758,11.812
09:28:00:236,41.920,0.009,-0.001,0.002,6.929,7.768,11.813
09:28:00:262,41.946,0.001,0.000,0.001,6.920,7.810,11.817
09:28:00:288,41.972,-0.002,-0.003,0.008,6.915,7.821,11.808
09:28:00:317,42.001,-0.002,-0.013,0.009,6.917,7.819,11.797
09:28:00:343,42.026,-0.005,-0.015,0.012,6.914,7.819,11.776
09:28:00:368,42.051,0.002,-0.005,0.008,6.908,7.812,11.773
09:28:00:394,42.078,0.004,-0.001,0.004,6.907,7.755,11.766
09:28:00:42,42.104,0.005,-0.011,0.001,6.911,7.707,11.748
09:28:00:447,42.130,0.004,-0.006,0.004,6.912,7.691,11.731
09:28:00:472,42.156,-0.001,-0.007,-0.003,6.891,7.679,11.728
09:28:00:499,42.183,0.000,-0.006,0.004,6.877,7.652,11.726
09:28:00:526,42.210,0.000,-0.011,0.005,6.870,7.598,11.717
09:28:00:551,42.235,0.001,-0.009,0.011,6.849,7.558,11.719
09:28:00:578,42.261,0.000,-0.004,0.007,6.833,7.535,11.713
09:28:00:603,42.287,0.000,-0.003,0.006,6.825,7.498,11.709
09:28:00:63,42.313,0.004,-0.005,0.006,6.823,7.460,11.704
09:28:00:658,42.341,0.007,-0.006,0.006,6.818,7.391,11.699
09:28:00:684,42.368,0.007,-0.011,0.006,6.802,7.336,11.693
09:28:00:735,42.419,0.010,-0.001,0.005,6.796,7.253,11.681
09:28:00:761,42.445,0.006,-0.007,0.000,6.784,7.223,11.681
09:28:00:788,42.471,0.004,-0.006,0.006,6.763,7.184,11.671
09:28:00:813,42.497,0.002,-0.003,-0.002,6.761,7.146,11.666
09:28:00:84,42.524,0.002,-0.007,0.010,6.759,7.116,11.665
09:28:00:866,42.550,0.004,-0.012,0.002,6.764,7.063,11.662
09:28:00:893,42.577,0.001,-0.001,0.004,6.758,7.041,11.653
09:28:00:919,42.602,0.002,-0.001,-0.001,6.760,7.019,11.652
09:28:00:946,42.630,0.004,-0.011,0.011,6.763,6.988,11.650
09:28:00:972,42.655,0.005,-0.013,0.001,6.778,6.935,11.644
09:28:00:998,42.681,0.003,-0.008,0.010,6.778,6.935,11.644
09:28:01:024,42.708,0.004,-0.001,0.002,6.785,6.916,11.641
09:28:01:05,42.734,0.006,-0.005,0.006,6.790,6.862,11.638
09:28:01:076,42.760,0.006,-0.008,0.000,6.803,6.832,11.633
09:28:01:102,42.786,0.003,-0.007,0.007,6.799,6.820,11.634
09:28:01:129,42.812,-0.002,-0.009,-0.003,6.804,6.805,11.627
09:28:01:155,42.839,-0.002,-0.006,0.005,6.811,6.758,11.618
09:28:01:181,42.865,-0.002,-0.007,0.006,6.829,6.684,11.599
09:28:01:208,42.891,0.000,-0.008,0.007,6.835,6.642,11.585
09:28:01:233,42.917,-0.004,-0.003,0.003,6.849,6.589,11.579
09:28:01:26,42.944,-0.001,0.000,0.004,6.867,6.505,11.571
09:28:01:287,42.971,0.000,-0.002,0.001,6.876,6.449,11.561
09:28:01:313,42.997,0.005,-0.005,0.006,6.894,6.362,11.553
09:28:01:34,43.023,0.005,-0.008,0.004,6.908,6.312,11.557
09:28:01:368,43.052,0.004,-0.008,0.009,6.924,6.229,11.571
09:28:01:368,43.052,0.004,-0.008,0.007,6.937,6.149,11.592
09:28:01:422,43.106,0.006,-0.014,0.005,6.951,6.103,11.612
09:28:01:422,43.106,0.003,-0.009,0.002,6.968,6.035,11.632
09:28:01:473,43.157,0.006,-0.012,0.000,6.981,5.984,11.636
09:28:01:473,43.157,0.008,-0.010,-0.002,7.017,5.900,11.643
09:28:01:496,43.180,0.006,-0.005,-0.008,7.021,5.849,11.651
09:28:01:524,43.208,0.003,-0.005,0.001,7.041,5.785,11.642
09:28:01:549,43.233,0.006,-0.004,-0.006,7.055,5.710,11.625
09:28:01:575,43.258,0.008,-0.009,0.004,7.069,5.654,11.602
09:28:01:601,43.285,0.002,-0.012,-0.003,7.073,5.589,11.567
09:28:01:627,43.311,0.006,-0.008,0.009,7.089,5.542,11.565
09:28:01:654,43.338,0.005,-0.009,-0.001,7.104,5.458,11.536
09:28:01:68,43.364,0.007,-0.013,0.008,7.120,5.362,11.507
09:28:01:706,43.390,0.004,-0.007,-0.001,7.131,5.319,11.480
09:28:01:733,43.416,0.005,-0.005,0.006,7.143,5.239,11.447
09:28:01:759,43.443,0.005,-0.008,0.002,7.152,5.191,11.415
09:28:01:785,43.469,0.001,-0.011,0.007,7.163,5.149,11.378
09:28:01:811,43.495,-0.001,-0.007,0.003,7.166,5.128,11.365
09:28:01:839,43.523,-0.001,-0.005,0.004,7.170,5.105,11.342
09:28:01:864,43.548,0.003,-0.002,0.001,7.185,5.037,11.307
09:28:01:89,43.574,0.002,-0.003,0.006,7.190,4.988,11.267
09:28:01:916,43.600,0.000,-0.002,0.000,7.207,4.918,11.221
09:28:01:944,43.628,0.001,-0.006,0.007,7.216,4.869,11.190
09:28:01:97,43.654,0.000,-0.009,0.003,7.227,4.799,11.157
09:28:01:995,43.679,0.000,-0.009,0.009,7.241,4.743,11.134
09:28:02:021,43.705,0.000,-0.007,0.001,7.245,4.710,11.110
09:28:02:048,43.731,-0.001,-0.005,0.007,7.254,4.662,11.078
09:28:02:075,43.759,0.001,-0.009,0.007,7.261,4.607,11.053
09:28:02:1,43.784,0.002,0.000,0.003,7.272,4.554,11.037
09:28:02:127,43.810,0.000,-0.003,0.006,7.286,4.519,11.035
09:28:02:152,43.836,0.000,-0.004,0.011,7.309,4.494,11.031
09:28:02:179,43.863,-0.003,-0.016,0.011,7.334,4.447,11.026
09:28:02:205,43.889,-0.003,-0.018,0.000,7.347,4.431,11.026
09:28:02:232,43.916,-0.003,-0.014,0.008,7.346,4.423,11.047
09:28:02:258,43.941,-0.003,-0.016,0.000,7.384,4.375,11.070
09:28:02:284,43.968,0.003,-0.024,0.003,7.421,4.332,11.081
09:28:02:31,43.994,0.000,-0.010,-0.012,7.456,4.334,11.112
09:28:02:336,44.020,-0.002,-0.007,-0.006,7.450,4.351,11.141
09:28:02:363,44.047,0.003,-0.008,-0.010,7.454,4.331,11.172
09:28:02:389,44.072,0.008,-0.015,-0.001,7.461,4.299,11.190
09:28:02:415,44.099,0.005,-0.015,-0.008,7.442,4.287,11.219
09:28:02:441,44.125,0.002,-0.015,0.001,7.397,4.323,11.264
09:28:02:468,44.151,0.004,-0.017,-0.004,7.366,4.326,11.292
09:28:02:494,44.177,0.009,-0.011,0.001,7.318,4.324,11.332
09:28:02:52,44.204,0.008,-0.012,0.001,7.286,4.338,11.350
09:28:02:55,44.233,0.005,-0.018,0.012,7.233,4.382,11.366
09:28:02:573,44.257,0.005,-0.021,0.009,7.186,4.459,11.381
09:28:02:6,44.284,0.007,-0.021,0.016,7.166,4.530,11.405
09:28:02:625,44.309,0.008,-0.009,0.008,7.139,4.662,11.446
09:28:02:652,44.336,0.009,-0.002,0.012,7.119,4.766,11.467
09:28:02:677,44.361,0.008,-0.007,0.009,7.085,4.948,11.494
09:28:02:705,44.389,0.008,0.012,0.007,7.053,5.084,11.509
09:28:02:73,44.414,0.005,0.006,0.001,7.032,5.287,11.532
09:28:02:756,44.440,0.001,0.008,0.014,7.009,5.509,11.546
09:28:02:783,44.467,0.000,-0.005,0.012,6.979,5.635,11.538
09:28:02:809,44.493,-0.003,-0.010,0.000,6.948,5.798,11.537
09:28:02:835,44.519,-0.002,-0.007,0.004,6.928,5.886,11.541
09:28:02:861,44.545,-0.002,-0.009,0.001,6.923,5.983,11.534
09:28:02:887,44.571,-0.005,-0.007,0.000,6.911,6.046,11.496
09:28:02:914,44.598,-0.005,-0.004,0.001,6.900,6.087,11.458
09:28:02:941,44.624,-0.009,-0.003,-0.010,6.888,6.143,11.405
09:28:02:966,44.650,-0.007,-0.007,-0.010,6.870,6.145,11.374
09:28:02:992,44.676,-0.005,-0.007,-0.002,6.828,6.132,11.335
09:28:03:019,44.703,-0.003,-0.006,-0.006,6.767,6.104,11.336
09:28:03:045,44.729,-0.001,-0.003,0.005,6.720,6.078,11.331
09:28:03:072,44.756,0.002,-0.007,0.007,6.670,6.032,11.327
09:28:03:099,44.783,0.007,-0.005,0.018,6.650,5.999,11.322
09:28:03:126,44.810,0.007,-0.002,0.015,6.618,5.981,11.318
09:28:03:151,44.835,0.007,-0.003,0.025,6.598,5.975,11.319
09:28:03:176,44.860,0.006,-0.007,0.013,6.613,5.965,11.314
09:28:03:203,44.886,0.006,-0.009,0.011,6.632,5.966,11.307
09:28:03:229,44.912,0.000,-0.003,-0.001,6.635,5.978,11.306
09:28:03:257,44.941,0.003,-0.013,0.001,6.640,5.976,11.304
09:28:03:282,44.966,-0.005,0.001,-0.008,6.637,5.983,11.311
09:28:03:308,44.992,0.006,-0.008,-0.007,6.625,5.992,11.337
09:28:03:333,45.017,0.000,0.002,-0.009,6.615,5.992,11.340
09:28:03:36,45.044,0.007,-0.010,0.003,6.619,5.982,11.360
09:28:03:386,45.070,0.007,-0.011,0.009,6.602,5.944,11.360
09:28:03:412,45.096,0.007,-0.007,0.014,6.592,5.942,11.375
09:28:03:439,45.122,0.008,0.000,0.008,6.583,5.949,11.394
09:28:03:466,45.150,0.009,-0.004,0.012,6.601,5.949,11.398
09:28:03:491,45.175,0.008,-0.002,0.007,6.605,5.975,11.403
09:28:03:517,45.201,0.005,-0.007,0.007,6.613,6.031,11.401
09:28:03:544,45.227,0.004,-0.007,0.002,6.621,6.068,11.404
09:28:03:57,45.254,0.004,-0.009,0.006,6.646,6.091,11.406
09:28:03:596,45.280,0.002,-0.006,0.003,6.660,6.126,11.412
09:28:03:625,45.309,0.004,-0.006,0.000,6.661,6.151,11.407
09:28:03:626,45.310,0.001,-0.005,0.001,6.657,6.157,11.414
09:28:03:678,45.361,0.003,-0.010,-0.001,6.663,6.156,11.413
09:28:03:679,45.362,0.003,-0.007,0.008,6.657,6.166,11.415
09:28:03:701,45.385,0.004,-0.006,0.003,6.659,6.187,11.414
09:28:03:728,45.411,0.003,-0.006,0.007,6.656,6.204,11.410
09:28:03:753,45.437,0.000,-0.013,0.002,6.653,6.235,11.412
09:28:03:78,45.464,0.002,-0.014,0.006,6.652,6.253,11.417
09:28:03:807,45.490,-0.001,-0.005,-0.004,6.647,6.288,11.415
09:28:03:833,45.517,0.000,-0.010,0.010,6.644,6.295,11.422
09:28:03:888,45.572,0.003,-0.007,0.000,6.643,6.304,11.422
09:28:03:888,45.572,-0.001,-0.008,0.003,6.633,6.373,11.433
09:28:03:911,45.595,-0.005,-0.004,-0.002,6.625,6.406,11.436
09:28:03:938,45.621,0.001,-0.012,0.011,6.630,6.404,11.434
09:28:03:964,45.648,-0.001,-0.014,0.009,6.631,6.409,11.440
09:28:03:99,45.674,-0.001,-0.011,0.014,6.632,6.442,11.451
09:28:04:016,45.700,0.000,-0.003,0.005,6.641,6.448,11.474
09:28:04:072,45.755,-0.001,-0.007,0.005,6.641,6.448,11.474
09:28:04:072,45.756,0.003,-0.008,0.002,6.641,6.448,11.474
09:28:04:097,45.781,-0.001,-0.006,0.003,6.644,6.460,11.473
09:28:04:121,45.805,-0.002,-0.008,-0.001,6.644,6.460,11.473
09:28:04:148,45.831,0.000,-0.009,0.011,6.643,6.444,11.479
09:28:04:175,45.859,0.002,-0.012,0.007,6.645,6.439,11.494
09:28:04:201,45.885,0.001,-0.010,0.014,6.645,6.459,11.527
09:28:04:256,45.940,0.000,-0.007,0.010,6.642,6.487,11.555
09:28:04:256,45.940,-0.004,-0.002,0.008,6.632,6.514,11.607
09:28:04:279,45.963,-0.001,-0.008,0.002,6.630,6.504,11.651
09:28:04:305,45.989,0.004,-0.009,0.004,6.652,6.428,11.722
09:28:04:332,46.016,0.001,-0.007,-0.002,6.652,6.381,11.801
09:28:04:358,46.042,0.000,0.000,0.001,6.633,6.364,11.868
09:28:04:385,46.068,0.002,0.006,0.003,6.619,6.296,11.984
09:28:04:41,46.094,0.009,-0.012,-0.002,6.618,6.216,12.064
09:28:04:436,46.120,0.003,-0.020,0.008,6.615,6.101,12.192
09:28:04:463,46.146,0.004,-0.018,0.002,6.616,5.954,12.318
09:28:04:489,46.173,-0.002,-0.005,0.002,6.630,5.828,12.376
09:28:04:516,46.200,-0.026,0.002,0.001,6.652,5.677,12.434
09:28:04:541,46.225,-0.026,0.005,0.002,6.669,5.593,12.460
09:28:04:568,46.252,-0.024,0.000,-0.001,6.701,5.463,12.559
09:28:04:594,46.278,-0.004,-0.008,0.004,6.728,5.365,12.671
09:28:04:62,46.304,0.006,-0.001,-0.002,6.736,5.209,12.871
09:28:04:646,46.330,0.019,-0.004,0.004,6.748,5.073,13.125
09:28:04:673,46.357,0.040,-0.014,-0.003,6.756,5.023,13.305
09:28:04:699,46.382,0.014,0.006,0.005,6.719,5.026,13.552
09:28:04:726,46.409,0.034,-0.008,0.000,6.706,5.004,13.719
09:28:04:751,46.435,0.038,-0.018,0.011,6.709,4.915,13.874
09:28:04:778,46.461,0.039,-0.025,0.000,6.721,4.858,13.896
09:28:04:804,46.488,0.016,-0.011,0.011,6.709,4.878,13.912
09:28:04:83,46.514,0.000,-0.001,0.013,6.714,4.884,13.926
09:28:04:856,46.540,-0.006,-0.002,0.009,6.724,4.886,13.911
09:28:04:883,46.567,-0.008,-0.005,0.002,6.752,4.941,13.869
09:28:04:91,46.593,-0.018,-0.006,0.002,6.788,5.072,13.857
09:28:04:935,46.619,-0.014,-0.004,-0.004,6.808,5.155,13.856
09:28:04:961,46.645,-0.012,0.002,0.000,6.827,5.275,13.850
09:28:04:988,46.671,-0.010,-0.004,0.000,6.837,5.350,13.837
09:28:05:014,46.698,-0.004,-0.005,0.001,6.868,5.401,13.799
09:28:05:041,46.725,-0.003,-0.012,0.008,6.888,5.456,13.749
09:28:05:067,46.750,-0.001,-0.016,0.010,6.904,5.516,13.717
09:28:05:092,46.776,0.001,-0.003,0.005,6.894,5.656,13.689
09:28:05:119,46.803,-0.001,-0.002,0.000,6.888,5.760,13.672
09:28:05:146,46.830,-0.002,-0.007,0.010,6.891,5.896,13.623
09:28:05:172,46.856,-0.008,-0.017,0.005,6.890,5.994,13.588
09:28:05:198,46.882,-0.014,-0.017,0.011,6.879,6.168,13.557
09:28:05:224,46.908,-0.015,-0.013,0.004,6.885,6.335,13.552
09:28:05:25,46.934,-0.010,-0.012,0.005,6.895,6.436,13.544
09:28:05:276,46.960,-0.006,-0.015,-0.005,6.918,6.595,13.511
09:28:05:304,46.987,-0.009,0.000,0.001,6.931,6.713,13.465
09:28:05:329,47.013,-0.014,0.002,-0.009,6.954,6.910,13.390
09:28:05:355,47.039,-0.028,0.006,-0.002,6.957,7.101,13.317
09:28:05:382,47.065,-0.030,0.001,-0.004,6.971,7.165,13.281
09:28:05:408,47.092,-0.028,-0.002,0.005,7.010,7.195,13.252
09:28:05:435,47.118,-0.034,-0.005,0.008,7.040,7.236,13.247
09:28:05:46,47.144,-0.035,-0.003,0.011,7.062,7.259,13.283
09:28:05:486,47.170,-0.022,-0.012,0.008,7.111,7.233,13.341
09:28:05:513,47.196,-0.010,-0.013,0.010,7.151,7.178,13.353
09:28:05:539,47.223,-0.004,-0.008,0.002,7.205,7.109,13.354
09:28:05:565,47.249,0.004,-0.005,0.005,7.244,7.032,13.344
09:28:05:592,47.275,0.006,-0.003,0.003,7.265,6.987,13.341
09:28:05:618,47.302,0.010,-0.003,0.009,7.292,6.897,13.347
09:28:05:644,47.327,0.018,-0.008,0.005,7.308,6.835,13.339
09:28:05:67,47.354,0.019,-0.018,0.007,7.326,6.789,13.326
09:28:05:696,47.380,0.017,-0.006,-0.002,7.340,6.807,13.327
09:28:05:723,47.406,0.007,-0.001,0.002,7.348,6.845,13.320
09:28:05:75,47.434,-0.004,-0.004,0.002,7.359,6.855,13.284
09:28:05:775,47.458,-0.004,-0.003,0.008,7.356,6.857,13.252
09:28:05:801,47.485,-0.019,-0.007,0.010,7.358,6.866,13.219
09:28:05:828,47.512,-0.012,-0.007,0.001,7.360,6.854,13.208
09:28:05:855,47.538,-0.005,-0.010,0.006,7.380,6.803,13.211
09:28:05:88,47.564,0.004,-0.012,-0.006,7.387,6.765,13.202
09:28:05:907,47.590,0.006,-0.010,-0.001,7.391,6.746,13.178
09:28:05:932,47.616,0.007,-0.009,-0.001,7.403,6.707,13.115
09:28:05:96,47.644,0.005,-0.007,0.005,7.403,6.679,13.066
09:28:05:985,47.669,0.004,-0.011,0.001,7.409,6.653,12.981
09:28:06:011,47.695,0.009,-0.010,0.007,7.410,6.648,12.943
09:28:06:041,47.724,0.012,-0.007,-0.001,7.412,6.660,12.884
09:28:06:041,47.725,0.013,-0.002,0.005,7.397,6.750,12.853
09:28:06:093,47.777,0.010,-0.007,-0.005,7.391,6.839,12.842
09:28:06:094,47.777,0.013,-0.002,0.002,7.361,7.012,12.840
09:28:06:116,47.800,0.013,-0.004,0.000,7.338,7.137,12.840
09:28:06:143,47.826,0.004,-0.002,0.010,7.290,7.346,12.819
09:28:06:171,47.854,0.005,-0.011,0.007,7.269,7.476,12.770
09:28:06:196,47.880,-0.001,-0.010,0.012,7.256,7.539,12.732
09:28:06:221,47.905,-0.020,-0.012,0.014,7.242,7.625,12.659
09:28:06:247,47.931,-0.015,-0.016,0.019,7.237,7.673,12.624
09:28:06:274,47.957,-0.001,0.008,-0.003,7.199,7.785,12.619
09:28:06:302,47.985,0.018,0.006,0.001,7.138,7.904,12.658
09:28:06:327,48.011,0.023,-0.005,-0.003,7.095,7.954,12.674
09:28:06:353,48.037,0.031,0.002,0.016,7.047,7.991,12.648
09:28:06:379,48.063,0.015,-0.012,0.010,7.023,8.068,12.599
09:28:06:405,48.089,0.002,-0.007,0.017,6.972,8.268,12.552
09:28:06:431,48.115,-0.007,0.004,0.015,6.933,8.376,12.530
09:28:06:457,48.141,-0.009,0.010,0.013,6.901,8.448,12.488
09:28:06:485,48.169,-0.012,0.003,0.013,6.900,8.499,12.447
09:28:06:51,48.194,-0.006,0.000,0.014,6.924,8.531,12.408
09:28:06:537,48.220,0.009,-0.017,0.006,6.970,8.626,12.378
09:28:06:562,48.246,0.015,-0.042,0.002,6.977,8.772,12.391
09:28:06:589,48.273,0.018,-0.043,0.002,6.943,9.101,12.472
09:28:06:615,48.299,0.024,-0.035,-0.023,6.870,9.471,12.606
09:28:06:641,48.325,0.021,-0.032,-0.025,6.801,9.724,12.682
09:28:06:668,48.351,0.006,-0.014,-0.024,6.726,9.961,12.711
09:28:06:694,48.378,-0.004,0.007,-0.012,6.701,9.994,12.598
09:28:06:72,48.404,-0.040,0.039,0.012,6.655,10.016,12.241
09:28:06:746,48.430,-0.090,0.051,0.044,6.612,10.135,11.818
09:28:06:773,48.456,-0.106,0.033,0.050,6.601,10.166,11.626
09:28:06:799,48.482,-0.089,0.025,0.051,6.625,9.915,11.548
09:28:06:825,48.509,-0.044,-0.003,0.021,6.743,9.564,11.762
09:28:06:853,48.537,-0.004,-0.029,0.011,6.872,8.864,11.857
09:28:06:878,48.562,0.012,-0.014,-0.017,6.944,8.448,11.920
09:28:06:904,48.588,0.008,-0.014,-0.019,7.056,7.925,11.981
09:28:06:93,48.614,0.009,-0.012,-0.019,7.151,7.440,12.006
09:28:06:957,48.641,0.011,-0.012,-0.009,7.212,7.126,12.031
09:28:06:983,48.666,0.015,-0.012,-0.022,7.239,6.707,12.096
09:28:07:009,48.693,0.010,-0.005,-0.009,7.229,6.449,12.160
09:28:07:035,48.719,0.018,-0.011,-0.012,7.223,5.998,12.264
09:28:07:063,48.747,0.021,-0.018,-0.006,7.213,5.552,12.344
09:28:07:089,48.773,0.027,-0.017,-0.006,7.198,5.297,12.394
09:28:07:115,48.799,0.026,-0.004,-0.001,7.164,4.993,12.449
09:28:07:141,48.825,0.031,-0.006,0.003,7.143,4.820,12.486
09:28:07:166,48.850,0.034,-0.010,0.007,7.126,4.600,12.504
09:28:07:192,48.876,0.034,-0.015,0.007,7.116,4.480,12.517
09:28:07:219,48.902,0.037,-0.017,0.008,7.106,4.463,12.526
09:28:07:245,48.929,0.033,-0.010,0.005,7.078,4.505,12.526
09:28:07:271,48.955,0.029,-0.012,-0.006,7.072,4.552,12.502
09:28:07:298,48.982,0.020,-0.009,0.003,7.038,4.659,12.393
09:28:07:324,49.008,0.010,-0.015,0.000,7.026,4.743,12.301
09:28:07:35,49.034,0.003,-0.014,0.010,7.007,4.840,12.110
09:28:07:376,49.060,0.003,-0.014,0.000,7.018,4.906,11.875
09:28:07:403,49.086,0.004,-0.017,0.009,7.026,4.972,11.707
09:28:07:428,49.112,-0.016,-0.006,-0.003,7.037,5.109,11.467
09:28:07:455,49.139,-0.010,-0.014,0.007,7.061,5.213,11.321
09:28:07:483,49.166,-0.019,-0.003,-0.004,7.081,5.389,11.150
09:28:07:51,49.194,-0.021,0.005,-0.001,7.085,5.595,11.051
09:28:07:534,49.218,-0.029,0.000,-0.004,7.083,5.743,11.023
09:28:07:56,49.244,-0.026,-0.008,0.004,7.071,5.977,11.023
09:28:07:586,49.270,-0.027,-0.020,0.004,7.045,6.142,11.063
09:28:07:613,49.296,-0.034,-0.012,0.011,7.003,6.405,11.171
09:28:07:639,49.323,-0.021,-0.003,0.005,6.980,6.572,11.296
09:28:07:665,49.349,-0.010,-0.010,0.005,6.979,6.652,11.346
09:28:07:691,49.375,-0.008,-0.004,0.001,6.967,6.780,11.407
09:28:07:719,49.403,-0.006,-0.003,0.006,6.948,6.870,11.443
09:28:07:745,49.428,-0.008,-0.005,0.004,6.931,6.983,11.489
09:28:07:77,49.454,-0.003,-0.010,0.013,6.931,7.056,11.523
09:28:07:796,49.480,-0.003,-0.011,0.004,6.942,7.101,11.552
09:28:07:823,49.506,-0.004,-0.002,0.008,6.934,7.197,11.589
09:28:07:849,49.533,-0.004,-0.005,0.001,6.926,7.244,11.598
09:28:07:875,49.559,-0.004,-0.004,0.001,6.934,7.299,11.607
09:28:07:901,49.585,-0.005,-0.005,0.002,6.925,7.341,11.612
09:28:07:929,49.613,-0.004,-0.008,0.001,6.917,7.387,11.621
09:28:07:955,49.639,-0.004,-0.008,0.004,6.911,7.401,11.597
09:28:07:981,49.665,-0.005,-0.008,0.006,6.913,7.386,11.569
09:28:08:007,49.691,-0.006,-0.005,0.004,6.921,7.321,11.500
09:28:08:033,49.716,-0.013,-0.003,0.000,6.915,7.276,11.459
09:28:08:059,49.743,-0.008,-0.010,0.011,6.914,7.169,11.382
09:28:08:086,49.770,0.001,-0.007,0.001,6.915,7.062,11.325
09:28:08:111,49.795,-0.001,-0.005,0.003,6.909,7.024,11.299
09:28:08:138,49.822,-0.005,-0.008,-0.005,6.902,7.002,11.248
09:28:08:164,49.847,-0.004,-0.012,0.004,6.909,6.976,11.218
09:28:08:19,49.874,-0.003,-0.019,-0.005,6.918,6.917,11.154
09:28:08:219,49.903,-0.012,-0.006,0.002,6.893,6.907,11.115
09:28:08:27,49.954,0.000,-0.009,0.001,6.872,6.809,11.045
09:28:08:298,49.981,0.001,-0.002,0.005,6.865,6.738,11.009
09:28:08:299,49.982,0.000,-0.003,0.010,6.853,6.679,10.974
09:28:08:321,50.005,-0.001,-0.006,0.008,6.859,6.661,10.956
09:28:08:377,50.060,-0.001,-0.006,0.013,6.871,6.630,10.951
09:28:08:377,50.061,-0.001,-0.007,0.004,6.883,6.599,10.945
09:28:08:429,50.113,-0.004,-0.008,0.003,6.883,6.599,10.945
09:28:08:43,50.114,-0.009,-0.008,-0.004,6.885,6.605,10.950
09:28:08:453,50.137,-0.004,-0.010,0.000,6.889,6.578,10.954
09:28:08:509,50.193,-0.006,-0.021,-0.005,6.907,6.537,10.946
09:28:08:509,50.193,0.005,-0.019,0.001,6.900,6.522,10.964
09:28:08:531,50.215,-0.009,-0.006,-0.002,6.905,6.479,10.951
09:28:08:557,50.241,-0.012,-0.001,0.006,6.910,6.426,10.948
09:28:08:585,50.269,0.002,-0.007,0.002,6.917,6.395,10.955
09:28:08:61,50.294,-0.006,0.010,0.004,6.913,6.369,10.950
09:28:08:636,50.320,0.011,-0.010,0.011,6.918,6.337,10.980
09:28:08:662,50.346,0.012,-0.010,0.012,6.930,6.295,10.997
09:28:08:689,50.373,0.010,0.001,0.005,6.929,6.308,11.039
09:28:08:717,50.401,0.005,-0.007,0.000,6.916,6.366,11.051
09:28:08:741,50.425,0.000,-0.011,0.003,6.901,6.445,11.063
09:28:08:768,50.451,-0.002,-0.013,-0.005,6.891,6.497,11.069
09:28:08:795,50.479,-0.006,-0.013,0.003,6.870,6.587,11.083
09:28:08:82,50.504,-0.001,-0.004,-0.005,6.864,6.646,11.113
09:28:08:846,50.530,-0.001,-0.003,-0.003,6.856,6.688,11.117
09:28:08:873,50.557,-0.003,-0.011,-0.006,6.845,6.749,11.123
09:28:08:899,50.583,-0.001,-0.006,0.005,6.837,6.781,11.127
09:28:08:926,50.610,-0.002,-0.007,0.001,6.831,6.819,11.135
09:28:08:953,50.636,0.000,-0.005,0.007,6.828,6.823,11.131
09:28:08:978,50.662,-0.001,-0.008,0.000,6.828,6.823,11.131
09:28:09:004,50.688,0.001,-0.008,0.009,6.828,6.833,11.132
09:28:09:03,50.714,0.001,-0.002,0.000,6.822,6.843,11.134
09:28:09:056,50.740,0.001,-0.004,0.002,6.822,6.843,11.134
09:28:09:083,50.766,0.001,-0.007,0.001,6.822,6.843,11.134
09:28:09:109,50.793,0.001,-0.009,0.004,6.822,6.843,11.134
09:28:09:135,50.819,0.000,-0.009,0.001,6.822,6.843,11.134
09:28:09:161,50.845,0.000,-0.007,0.009,6.822,6.843,11.134
09:28:09:188,50.872,-0.001,-0.007,0.005,6.822,6.843,11.134
09:28:09:215,50.898,-0.001,-0.008,0.008,6.826,6.844,11.143
09:28:09:24,50.924,0.000,-0.004,0.003,6.825,6.861,11.160
09:28:09:266,50.950,-0.002,-0.010,0.002,6.821,6.867,11.166
09:28:09:293,50.976,0.002,-0.008,0.000,6.817,6.872,11.184
09:28:09:319,51.003,0.000,-0.003,0.004,6.815,6.915,11.218
09:28:09:345,51.029,-0.001,-0.004,0.005,6.809,6.925,11.220
09:28:09:371,51.055,-0.001,-0.009,0.009,6.813,6.909,11.224
09:28:09:398,51.081,0.000,-0.013,0.011,6.812,6.915,11.251
09:28:09:424,51.108,0.003,-0.009,0.013,6.816,6.905,11.271
09:28:09:452,51.136,0.007,0.000,0.006,6.817,6.889,11.297
09:28:09:477,51.160,0.002,-0.010,-0.001,6.822,6.906,11.301
09:28:09:503,51.186,0.005,-0.008,0.005,6.825,6.934,11.316
09:28:09:529,51.213,-0.013,-0.001,0.000,6.815,6.981,11.359
09:28:09:555,51.239,0.002,-0.008,0.005,6.818,6.971,11.379
09:28:09:582,51.265,-0.002,-0.013,-0.001,6.816,6.972,11.401
09:28:09:608,51.292,0.003,-0.008,0.007,6.815,6.989,11.417
09:28:09:634,51.318,0.000,-0.004,0.000,6.810,7.003,11.436
09:28:09:66,51.344,0.004,-0.001,0.007,6.806,7.008,11.454
09:28:09:686,51.370,0.004,-0.006,0.000,6.811,7.004,11.479
09:28:09:713,51.397,0.004,-0.006,0.004,6.810,7.021,11.495
09:28:09:739,51.422,0.004,-0.008,-0.002,6.806,7.026,11.513
09:28:09:767,51.450,0.006,-0.010,0.008,6.810,7.027,11.522
09:28:09:791,51.475,0.005,-0.011,0.002,6.810,7.027,11.522
09:28:09:818,51.502,0.004,-0.006,0.008,6.807,7.058,11.524
09:28:09:844,51.527,0.001,-0.006,0.001,6.794,7.088,11.529
09:28:09:87,51.554,0.001,-0.004,0.002,6.792,7.110,11.530
09:28:09:896,51.580,0.001,-0.010,0.006,6.792,7.110,11.530
09:28:09:925,51.608,0.005,-0.003,0.002,6.791,7.120,11.531
09:28:09:949,51.633,0.002,-0.002,-0.002,6.776,7.172,11.538
09:28:09:975,51.659,-0.005,-0.003,0.009,6.775,7.199,11.544
09:28:10:002,51.685,-0.003,-0.009,0.003,6.775,7.192,11.528
09:28:10:027,51.711,-0.004,-0.014,0.011,6.772,7.209,11.524
09:28:10:055,51.739,-0.001,-0.010,0.009,6.768,7.240,11.526
09:28:10:08,51.764,0.002,-0.003,0.004,6.768,7.240,11.526
09:28:10:106,51.790,0.001,-0.003,0.001,6.768,7.240,11.526
09:28:10:133,51.817,0.002,-0.011,0.006,6.763,7.241,11.527
09:28:10:159,51.843,-0.002,-0.008,0.007,6.762,7.278,11.534
09:28:10:185,51.869,-0.004,-0.005,0.005,6.754,7.293,11.532
09:28:10:212,51.895,-0.005,-0.006,0.009,6.754,7.293,11.532
09:28:10:237,51.921,-0.007,-0.010,0.005,6.756,7.288,11.536
09:28:10:265,51.949,-0.008,-0.008,0.009,6.755,7.298,11.537
09:28:10:29,51.974,-0.005,-0.004,-0.001,6.749,7.308,11.539
09:28:10:316,52.000,0.001,-0.003,0.004,6.754,7.293,11.532
09:28:10:343,52.026,0.001,-0.006,0.002,6.759,7.282,11.530
09:28:10:369,52.053,0.000,-0.008,0.006,6.759,7.282,11.530
09:28:10:395,52.079,-0.002,-0.010,0.003,6.759,7.282,11.530
09:28:10:421,52.105,0.002,-0.011,0.011,6.759,7.282,11.530
09:28:10:448,52.132,-0.002,-0.007,0.004,6.759,7.282,11.530
09:28:10:475,52.159,-0.001,-0.005,0.010,6.754,7.293,11.532
09:28:10:501,52.185,-0.002,-0.003,0.001,6.754,7.293,11.532
09:28:10:527,52.211,-0.002,-0.006,0.006,6.754,7.293,11.532
09:28:10:554,52.237,-0.002,-0.016,0.008,6.754,7.293,11.532
09:28:10:581,52.265,0.001,-0.002,0.006,6.757,7.294,11.541
09:28:10:582,52.266,-0.004,-0.001,0.003,6.748,7.325,11.556
09:28:10:632,52.315,-0.007,-0.003,0.011,6.748,7.325,11.556
09:28:10:661,52.345,-0.003,-0.013,0.012,6.751,7.294,11.554
09:28:10:661,52.345,-0.006,-0.014,0.016,6.759,7.288,11.557
09:28:10:713,52.397,-0.001,-0.007,0.008,6.755,7.277,11.558
09:28:10:714,52.397,0.003,0.000,0.004,6.768,7.225,11.574
09:28:10:768,52.452,0.001,-0.004,-0.001,6.776,7.210,11.576
09:28:10:769,52.452,0.002,-0.010,0.010,6.776,7.210,11.576
09:28:10:79,52.473,-0.004,-0.011,0.007,6.776,7.210,11.576
09:28:10:845,52.529,-0.002,-0.007,0.010,6.774,7.205,11.571
09:28:10:845,52.529,-0.001,-0.010,0.007,6.780,7.152,11.568
09:28:10:897,52.581,-0.001,-0.010,0.007,6.792,7.122,11.563
09:28:10:898,52.581,-0.004,-0.007,0.007,6.784,7.094,11.560
09:28:10:92,52.604,-0.001,-0.006,0.002,6.787,7.063,11.558
09:28:10:948,52.632,0.003,-0.007,0.005,6.802,7.010,11.552
09:28:10:973,52.657,0.003,-0.010,0.001,6.805,6.979,11.550
09:28:10:999,52.683,0.002,-0.007,0.004,6.799,6.957,11.541
09:28:11:025,52.708,0.004,-0.012,0.001,6.808,6.915,11.537
09:28:11:08,52.764,0.003,-0.011,0.012,6.810,6.893,11.535
09:28:11:081,52.765,0.002,-0.012,0.001,6.801,6.893,11.539
09:28:11:105,52.788,-0.002,-0.007,0.005,6.790,6.887,11.537
09:28:11:131,52.815,-0.001,-0.007,-0.001,6.778,6.890,11.536
09:28:11:156,52.840,0.000,-0.003,0.002,6.768,6.884,11.534
09:28:11:183,52.866,-0.004,-0.010,0.002,6.755,6.883,11.529
09:28:11:209,52.893,0.003,-0.007,0.006,6.733,6.871,11.525
09:28:11:235,52.919,-0.001,-0.001,0.000,6.724,6.870,11.528
09:28:11:261,52.945,-0.002,-0.003,0.008,6.721,6.875,11.524
09:28:11:288,52.972,-0.001,-0.009,0.005,6.722,6.876,11.513
09:28:11:315,52.999,-0.002,-0.015,0.009,6.724,6.881,11.518
09:28:11:34,53.024,-0.002,-0.012,0.006,6.710,6.897,11.517
09:28:11:367,53.050,0.002,-0.004,0.004,6.706,6.895,11.519
09:28:11:393,53.076,0.000,-0.002,-0.002,6.700,6.906,11.521
09:28:11:419,53.103,0.000,-0.012,0.006,6.691,6.947,11.525
09:28:11:446,53.130,-0.003,-0.009,0.003,6.683,6.980,11.529
09:28:11:471,53.155,-0.006,-0.006,0.006,6.666,7.037,11.531
09:28:11:498,53.181,0.001,-0.011,0.004,6.666,7.037,11.531
09:28:11:524,53.208,-0.001,-0.006,0.007,6.665,7.064,11.537
09:28:11:55,53.234,-0.004,-0.005,0.008,6.656,7.106,11.541
09:28:11:576,53.260,-0.004,-0.002,0.014,6.647,7.148,11.545
09:28:11:603,53.287,-0.004,-0.005,0.010,6.647,7.148,11.545
09:28:11:629,53.313,0.001,-0.005,0.013,6.646,7.157,11.546
09:28:11:655,53.339,0.000,-0.007,0.003,6.638,7.189,11.549
09:28:11:681,53.365,-0.001,-0.011,-0.004,6.632,7.209,11.552
09:28:11:708,53.391,0.001,-0.009,0.001,6.629,7.231,11.553
09:28:11:734,53.418,-0.001,-0.007,-0.004,6.623,7.266,11.562
09:28:11:761,53.445,-0.002,-0.006,0.003,6.615,7.298,11.565
09:28:11:787,53.470,-0.002,-0.008,-0.002,6.612,7.329,11.567
09:28:11:813,53.496,0.000,-0.006,0.006,6.607,7.345,11.574
09:28:11:839,53.523,-0.001,-0.003,-0.004,6.597,7.382,11.573
09:28:11:896,53.579,-0.002,-0.012,0.013,6.595,7.404,11.574
09:28:11:896,53.580,-0.001,-0.014,0.002,6.595,7.404,11.574
09:28:11:918,53.601,0.003,-0.005,0.002,6.588,7.441,11.582
09:28:11:944,53.628,-0.004,0.000,0.001,6.578,7.475,11.582
