Time,Second,AccelerationX,AccelerationY,AccelerationZ,EulerAnglesX,EulerAnglesY,EulerAnglesZ
10:37:57:764,0.000,0.029,-0.005,0.023,116.245,-12.121,119.067
10:37:57:79,0.026,0.025,-0.027,0.004,116.027,-11.944,119.000
10:37:57:815,0.051,0.029,-0.021,0.021,115.933,-11.861,118.996
10:37:57:871,0.108,0.038,-0.012,0.020,115.701,-11.883,118.860
10:37:57:871,0.108,0.036,0.005,0.030,115.521,-11.938,118.749
10:37:57:894,0.130,0.026,-0.001,0.041,115.277,-12.120,118.588
10:37:57:921,0.157,0.033,0.020,0.042,115.171,-12.179,118.509
10:37:57:946,0.183,0.031,0.008,0.038,115.040,-12.199,118.448
10:37:57:974,0.210,0.029,-0.002,0.037,114.820,-12.113,118.431
10:37:57:999,0.236,0.028,-0.016,0.030,114.674,-12.028,118.456
10:37:58:052,0.289,0.014,-0.038,0.030,114.477,-11.947,118.472
10:37:58:081,0.317,0.031,-0.012,0.030,114.331,-11.954,118.402
10:37:58:081,0.317,0.058,0.005,0.026,114.093,-11.931,118.298
10:37:58:105,0.341,0.011,-0.005,0.022,113.789,-11.718,118.409
10:37:58:13,0.367,0.006,0.018,0.046,113.651,-11.722,118.443
10:37:58:157,0.393,0.011,-0.041,0.018,113.644,-11.671,118.348
10:37:58:212,0.448,0.000,-0.034,0.053,113.585,-11.646,118.237
10:37:58:213,0.449,0.017,0.014,0.019,113.554,-11.615,118.051
10:37:58:235,0.471,0.019,0.004,0.040,113.583,-11.584,117.987
10:37:58:263,0.499,0.025,-0.020,0.029,113.568,-11.514,117.857
10:37:58:288,0.524,0.020,-0.010,0.023,113.529,-11.543,117.664
10:37:58:315,0.551,0.023,-0.011,0.018,113.524,-11.591,117.527
10:37:58:37,0.606,0.026,-0.001,0.015,113.447,-11.720,117.247
10:37:58:37,0.606,0.009,-0.004,0.015,113.378,-11.843,117.052
10:37:58:393,0.630,0.003,-0.006,0.023,113.329,-12.117,116.752
10:37:58:419,0.655,0.015,0.001,0.023,113.404,-12.454,116.426
10:37:58:445,0.681,0.022,0.001,0.017,113.507,-12.651,116.237
10:37:58:471,0.707,0.013,-0.010,0.020,113.671,-12.701,116.150
10:37:58:498,0.734,0.023,-0.002,0.015,113.772,-12.632,116.144
10:37:58:524,0.760,0.026,0.016,0.023,113.977,-12.534,116.194
10:37:58:55,0.786,0.021,-0.005,0.024,114.155,-12.503,116.247
10:37:58:576,0.813,0.024,0.001,0.028,114.224,-12.481,116.274
10:37:58:604,0.840,0.017,0.002,0.023,114.257,-12.476,116.285
10:37:58:629,0.866,0.006,0.007,0.019,114.257,-12.450,116.327
10:37:58:682,0.918,0.012,-0.021,0.010,114.246,-12.407,116.406
10:37:58:711,0.947,0.005,-0.012,0.014,114.242,-12.356,116.483
10:37:58:711,0.947,0.017,-0.002,0.013,114.234,-12.358,116.489
10:37:58:734,0.970,0.011,-0.001,0.013,114.284,-12.332,116.530
10:37:58:76,0.997,0.014,-0.017,0.013,114.293,-12.305,116.533
10:37:58:787,1.023,0.006,-0.027,0.027,114.273,-12.299,116.469
10:37:58:813,1.049,0.017,-0.006,0.032,114.227,-12.327,116.362
10:37:58:839,1.075,0.013,0.000,0.020,114.139,-12.414,116.157
10:37:58:865,1.101,0.011,-0.018,0.009,113.977,-12.470,115.956
10:37:58:891,1.127,0.009,-0.011,0.014,113.862,-12.544,115.790
10:37:58:918,1.154,0.012,-0.004,0.018,113.659,-12.701,115.502
10:37:58:945,1.182,0.011,0.007,0.009,113.498,-12.766,115.332
10:37:58:971,1.207,0.005,-0.005,0.018,113.207,-12.834,115.080
10:37:58:997,1.233,-0.002,-0.014,0.037,112.941,-12.926,114.793
10:37:59:023,1.259,0.006,-0.005,0.017,112.832,-12.992,114.593
10:37:59:049,1.285,0.016,0.016,-0.002,112.717,-13.017,114.406
10:37:59:078,1.314,0.009,0.004,0.001,112.615,-13.008,114.358
10:37:59:079,1.315,0.005,0.009,0.005,112.558,-13.013,114.333
10:37:59:102,1.339,0.014,0.008,0.008,112.563,-13.031,114.322
10:37:59:158,1.394,-0.004,-0.012,0.011,112.547,-13.012,114.335
10:37:59:158,1.395,0.002,-0.024,0.037,112.532,-13.061,114.309
10:37:59:209,1.445,0.018,-0.022,0.034,112.527,-13.116,114.235
10:37:59:21,1.446,0.012,-0.017,0.020,112.384,-13.260,113.971
10:37:59:233,1.469,0.015,-0.001,0.005,112.292,-13.382,113.784
10:37:59:26,1.496,0.028,0.006,0.018,112.152,-13.424,113.628
10:37:59:285,1.522,0.011,0.008,-0.009,112.018,-13.351,113.611
10:37:59:313,1.549,0.008,0.006,-0.010,111.947,-13.271,113.636
10:37:59:338,1.574,0.005,-0.010,-0.007,111.841,-13.300,113.583
10:37:59:366,1.603,0.018,-0.004,0.017,111.823,-13.402,113.500
10:37:59:39,1.626,-0.003,-0.026,0.021,111.849,-13.582,113.362
10:37:59:416,1.653,0.002,-0.033,0.023,111.876,-13.815,113.120
10:37:59:445,1.681,0.006,-0.043,0.027,111.857,-14.005,112.886
10:37:59:47,1.707,0.008,-0.044,0.047,111.710,-14.359,112.356
10:37:59:495,1.731,0.016,-0.059,0.062,111.567,-14.670,111.903
10:37:59:522,1.758,0.003,-0.081,0.085,111.424,-15.221,111.088
10:37:59:548,1.784,-0.004,-0.172,0.151,111.351,-15.726,110.288
10:37:59:576,1.812,-0.004,-0.220,0.171,111.070,-16.803,108.519
10:37:59:6,1.837,0.054,-0.210,0.161,110.009,-17.619,106.144
10:37:59:628,1.864,0.124,-0.216,0.134,108.533,-18.360,104.359
10:37:59:653,1.889,0.037,-0.311,0.150,104.978,-18.877,101.355
10:37:59:679,1.915,0.078,-0.284,0.163,101.463,-19.184,98.517
10:37:59:705,1.941,0.118,-0.201,0.090,94.878,-19.967,93.498
10:37:59:761,1.997,0.121,-0.179,0.127,89.577,-20.623,89.703
10:37:59:762,1.998,0.096,-0.222,0.165,80.501,-21.676,83.535
10:37:59:784,2.020,0.126,-0.203,0.050,69.644,-22.354,76.901
10:37:59:869,2.106,0.225,-0.116,-0.038,61.345,-22.401,72.462
10:37:59:87,2.106,0.267,-0.129,-0.031,47.663,-21.700,65.736
10:37:59:871,2.107,0.328,-0.083,-0.009,38.311,-20.555,61.121
10:37:59:947,2.184,0.342,0.164,-0.100,25.017,-17.438,54.289
10:37:59:948,2.184,0.337,0.275,-0.173,13.889,-12.356,47.948
10:37:59:949,2.185,0.235,0.313,-0.214,8.041,-7.961,43.490
10:37:59:968,2.204,-0.042,0.444,-0.262,2.564,-0.711,36.486
10:37:59:994,2.230,-0.269,0.559,-0.252,1.257,3.360,31.880
10:38:00:022,2.258,-0.318,0.447,-0.215,2.605,6.100,25.492
10:38:00:075,2.311,-0.291,0.301,-0.167,5.427,4.956,19.700
10:38:00:076,2.312,-0.235,0.227,-0.139,7.055,3.160,16.157
10:38:00:099,2.335,-0.217,0.150,-0.145,8.604,0.492,11.563
10:38:00:125,2.362,-0.171,0.075,-0.106,9.071,-0.664,9.268
10:38:00:152,2.388,-0.201,0.017,-0.090,9.086,-1.128,7.039
10:38:00:179,2.415,-0.235,0.014,-0.082,8.736,-0.655,6.344
10:38:00:233,2.469,-0.247,0.019,-0.070,7.857,0.709,6.117
10:38:00:234,2.470,-0.263,-0.016,-0.035,6.641,2.502,7.219
10:38:00:257,2.494,-0.245,-0.034,-0.034,5.961,3.271,7.550
10:38:00:283,2.519,-0.217,-0.076,-0.012,5.007,4.212,8.089
10:38:00:309,2.546,-0.182,-0.099,-0.007,4.432,4.683,8.459
10:38:00:335,2.571,-0.176,-0.088,0.028,3.559,5.483,9.018
10:38:00:362,2.598,-0.106,0.018,0.176,2.862,5.844,9.476
10:38:00:388,2.624,0.121,0.003,0.228,2.851,5.615,9.593
10:38:00:414,2.650,0.047,-0.018,0.081,3.339,5.283,9.528
10:38:00:441,2.678,-0.020,0.010,0.011,3.526,5.474,9.713
10:38:00:467,2.703,-0.023,0.018,-0.046,3.650,5.692,10.074
10:38:00:493,2.729,0.004,0.046,-0.062,3.633,5.308,10.400
10:38:00:519,2.756,0.032,0.042,-0.064,3.582,4.578,10.631
10:38:00:545,2.781,0.080,0.008,-0.034,3.575,3.116,10.893
10:38:00:571,2.808,0.069,-0.017,-0.005,3.598,2.156,11.044
10:38:00:6,2.836,0.042,-0.019,0.016,3.703,1.048,11.164
10:38:00:625,2.861,0.007,-0.031,0.003,3.815,0.505,11.217
10:38:00:651,2.887,-0.056,-0.022,0.007,3.912,0.293,11.342
10:38:00:676,2.912,-0.080,-0.016,-0.001,3.885,0.538,11.547
10:38:00:703,2.939,-0.074,-0.024,-0.003,3.826,0.783,11.683
10:38:00:729,2.965,-0.093,0.008,-0.014,3.714,1.041,12.105
10:38:00:755,2.991,-0.072,0.045,-0.043,3.728,0.950,12.350
10:38:00:782,3.019,-0.048,0.041,-0.044,3.937,0.346,12.728
10:38:00:808,3.044,0.005,-0.012,-0.042,4.296,-0.546,13.072
10:38:00:834,3.070,0.016,-0.026,-0.021,4.483,-1.063,13.281
10:38:00:891,3.127,-0.008,-0.020,0.001,4.686,-1.763,13.582
10:38:00:891,3.127,0.007,0.000,0.028,4.813,-2.240,13.785
10:38:00:914,3.150,-0.004,0.006,0.007,5.020,-2.830,14.110
10:38:00:94,3.176,-0.016,0.003,-0.002,5.103,-2.801,14.532
10:38:00:965,3.202,-0.042,0.008,-0.026,5.067,-2.631,14.797
10:38:00:992,3.228,-0.045,0.027,-0.027,5.054,-2.621,15.164
10:38:01:047,3.283,-0.021,0.013,-0.030,5.121,-2.888,15.384
10:38:01:048,3.284,-0.016,-0.005,-0.014,5.249,-3.470,15.715
10:38:01:07,3.306,0.003,-0.005,-0.017,5.375,-4.137,16.011
10:38:01:096,3.333,0.004,-0.004,-0.016,5.451,-4.603,16.161
10:38:01:21,3.447,0.016,-0.013,-0.016,5.573,-5.446,16.342
10:38:01:211,3.447,0.033,-0.014,0.003,5.649,-6.038,16.424
10:38:01:212,3.448,0.032,-0.018,0.002,5.723,-6.735,16.447
10:38:01:213,3.449,0.043,0.001,0.015,5.721,-7.198,16.382
10:38:01:287,3.523,0.024,0.004,0.013,5.706,-7.292,16.307
10:38:01:287,3.523,0.002,-0.007,0.013,5.691,-7.187,16.217
10:38:01:287,3.524,-0.018,0.005,0.007,5.644,-7.024,16.163
10:38:01:307,3.543,-0.037,0.004,0.003,5.623,-6.607,16.051
10:38:01:334,3.570,-0.040,0.005,0.003,5.622,-6.582,15.974
10:38:01:359,3.595,-0.039,0.002,0.001,5.652,-6.774,15.899
10:38:01:385,3.621,-0.032,0.003,-0.008,5.697,-7.034,15.878
10:38:01:414,3.651,-0.035,0.000,-0.010,5.743,-7.192,15.861
10:38:01:415,3.652,-0.033,-0.004,-0.012,5.822,-7.585,15.843
10:38:01:467,3.703,-0.011,-0.002,-0.012,5.885,-7.894,15.810
10:38:01:468,3.704,-0.015,-0.002,-0.005,5.949,-8.253,15.760
10:38:01:491,3.728,-0.021,-0.001,-0.018,5.973,-8.392,15.762
10:38:01:517,3.753,-0.019,0.002,-0.013,5.990,-8.576,15.768
10:38:01:542,3.779,-0.006,0.002,-0.018,6.050,-8.942,15.791
10:38:01:569,3.805,0.001,0.007,-0.010,6.107,-9.243,15.803
10:38:01:595,3.831,0.007,0.010,-0.017,6.200,-9.638,15.823
10:38:01:622,3.858,0.003,0.000,-0.007,6.290,-9.916,15.842
10:38:01:677,3.913,0.006,-0.003,-0.015,6.349,-10.056,15.879
10:38:01:677,3.914,0.009,0.006,-0.004,6.427,-10.147,15.946
10:38:01:73,3.966,0.006,0.006,-0.011,6.468,-10.151,16.002
10:38:01:73,3.967,0.001,-0.002,-0.007,6.507,-10.070,16.084
10:38:01:752,3.989,0.006,-0.009,-0.016,6.538,-10.022,16.137
10:38:01:808,4.044,0.005,-0.011,-0.005,6.584,-9.847,16.199
10:38:01:809,4.045,0.005,-0.016,-0.015,6.622,-9.659,16.249
10:38:01:832,4.068,0.004,-0.008,-0.010,6.638,-9.529,16.269
10:38:01:858,4.094,-0.002,-0.009,-0.013,6.669,-9.326,16.253
10:38:01:884,4.120,-0.002,-0.009,-0.007,6.704,-9.215,16.227
10:38:01:91,4.147,-0.002,-0.014,-0.015,6.758,-9.048,16.153
10:38:01:937,4.173,-0.010,-0.008,-0.007,6.791,-8.939,16.099
10:38:01:964,4.201,-0.007,-0.010,-0.007,6.823,-8.785,16.023
10:38:02:02,4.256,-0.018,-0.004,0.004,6.833,-8.621,15.964
10:38:02:021,4.257,-0.012,-0.001,-0.008,6.820,-8.507,15.919
10:38:02:042,4.278,-0.024,-0.005,-0.011,6.813,-8.271,15.848
10:38:02:068,4.304,-0.028,0.009,-0.005,6.804,-8.123,15.824
10:38:02:094,4.330,-0.031,0.010,0.001,6.802,-7.971,15.758
10:38:02:122,4.358,-0.020,0.000,0.000,6.841,-7.868,15.664
10:38:02:148,4.384,-0.035,0.008,0.004,6.886,-7.770,15.629
10:38:02:173,4.409,-0.032,0.010,0.002,6.972,-7.594,15.611
10:38:02:201,4.437,-0.022,-0.001,-0.005,7.063,-7.516,15.595
10:38:02:226,4.463,-0.017,0.005,-0.001,7.184,-7.449,15.578
10:38:02:252,4.488,-0.010,-0.004,-0.004,7.273,-7.352,15.598
10:38:02:278,4.514,-0.016,-0.008,-0.001,7.314,-7.234,15.643
10:38:02:304,4.540,-0.008,-0.006,-0.008,7.366,-7.070,15.716
10:38:02:331,4.567,-0.002,-0.005,0.002,7.411,-6.981,15.747
10:38:02:358,4.595,-0.008,-0.008,0.003,7.454,-6.795,15.798
10:38:02:384,4.620,-0.013,-0.001,0.006,7.468,-6.574,15.859
10:38:02:409,4.646,-0.016,-0.006,0.003,7.481,-6.441,15.899
10:38:02:435,4.672,-0.028,-0.007,0.002,7.477,-6.307,15.962
10:38:02:461,4.697,-0.019,0.003,-0.008,7.473,-6.262,16.007
10:38:02:488,4.724,-0.024,-0.006,0.000,7.478,-6.264,16.039
10:38:02:514,4.750,-0.025,-0.010,-0.005,7.480,-6.318,16.060
10:38:02:54,4.777,-0.008,-0.004,0.000,7.482,-6.452,16.064
10:38:02:568,4.804,-0.028,0.005,0.000,7.473,-6.502,16.073
10:38:02:593,4.829,-0.035,0.001,0.003,7.497,-6.559,16.090
10:38:02:619,4.855,-0.014,0.002,-0.001,7.544,-6.745,16.110
10:38:02:645,4.881,-0.005,0.002,0.002,7.581,-6.856,16.123
10:38:02:673,4.910,-0.003,-0.015,-0.012,7.631,-6.958,16.168
10:38:02:699,4.935,0.002,-0.006,-0.006,7.644,-7.037,16.200
10:38:02:724,4.960,0.007,-0.004,-0.008,7.637,-7.214,16.225
10:38:02:75,4.986,0.009,-0.001,-0.002,7.610,-7.414,16.202
10:38:02:777,5.013,0.007,-0.006,-0.003,7.597,-7.562,16.168
10:38:02:832,5.068,-0.003,-0.001,-0.001,7.561,-7.795,16.104
10:38:02:833,5.069,0.005,-0.008,0.011,7.550,-7.988,16.058
10:38:02:884,5.120,-0.002,-0.001,0.018,7.526,-8.210,16.001
10:38:02:885,5.121,-0.005,0.003,0.003,7.489,-8.336,15.961
10:38:02:908,5.144,-0.012,-0.005,0.006,7.484,-8.383,15.935
10:38:02:934,5.171,-0.007,-0.009,-0.004,7.439,-8.439,15.904
10:38:02:961,5.197,-0.014,-0.005,-0.011,7.387,-8.451,15.887
10:38:02:986,5.223,-0.018,-0.006,-0.001,7.310,-8.484,15.868
10:38:03:014,5.250,-0.018,-0.003,-0.005,7.247,-8.559,15.873
10:38:03:04,5.276,-0.027,0.003,0.004,7.210,-8.627,15.866
10:38:03:065,5.302,-0.020,0.006,-0.003,7.176,-8.801,15.875
10:38:03:092,5.328,-0.015,0.010,0.000,7.167,-8.950,15.873
10:38:03:118,5.355,-0.020,0.012,-0.001,7.181,-9.130,15.873
10:38:03:173,5.409,-0.019,-0.012,0.012,7.256,-9.346,15.869
10:38:03:174,5.410,-0.012,-0.019,0.002,7.285,-9.520,15.891
10:38:03:198,5.434,-0.007,-0.019,0.007,7.292,-9.746,15.950
10:38:03:223,5.459,-0.013,-0.005,-0.001,7.270,-9.856,15.992
10:38:03:249,5.485,-0.015,-0.010,0.008,7.227,-10.039,16.056
10:38:03:275,5.511,-0.020,-0.002,-0.004,7.200,-10.175,16.091
10:38:03:301,5.538,-0.012,0.004,0.007,7.171,-10.438,16.100
10:38:03:329,5.565,-0.020,0.005,-0.003,7.172,-10.736,16.100
10:38:03:354,5.590,-0.024,0.005,0.001,7.201,-10.998,16.100
10:38:03:409,5.646,-0.011,0.001,0.009,7.285,-11.552,16.076
10:38:03:41,5.647,-0.016,-0.001,0.006,7.341,-11.987,16.048
10:38:03:433,5.669,-0.011,0.002,-0.003,7.454,-12.791,16.005
10:38:03:461,5.697,-0.001,0.004,0.006,7.595,-13.714,15.932
10:38:03:513,5.749,-0.001,0.004,-0.001,7.691,-14.299,15.878
10:38:03:54,5.777,-0.004,0.001,0.003,7.831,-15.092,15.825
10:38:03:541,5.778,-0.004,0.001,0.001,7.911,-15.540,15.816
10:38:03:564,5.800,0.000,0.000,-0.003,8.039,-16.116,15.858
10:38:03:59,5.827,0.005,0.007,-0.006,8.148,-16.544,15.951
10:38:03:618,5.854,0.007,0.000,-0.007,8.221,-16.753,16.031
10:38:03:643,5.879,0.011,-0.012,-0.013,8.317,-16.990,16.198
10:38:03:669,5.905,0.026,-0.016,-0.024,8.376,-17.115,16.325
10:38:03:695,5.931,0.030,-0.016,-0.019,8.419,-17.288,16.508
10:38:03:726,5.962,0.034,-0.017,-0.028,8.442,-17.379,16.625
10:38:03:727,5.963,0.038,-0.009,-0.025,8.432,-17.508,16.772
10:38:03:748,5.984,0.040,-0.006,-0.024,8.398,-17.642,16.819
10:38:03:774,6.010,0.035,-0.006,-0.016,8.368,-17.725,16.812
10:38:03:8,6.037,0.037,-0.012,-0.021,8.307,-17.835,16.774
10:38:03:827,6.063,0.032,-0.009,-0.009,8.239,-17.899,16.729
10:38:03:883,6.120,0.023,-0.008,-0.009,8.127,-17.983,16.664
10:38:03:883,6.120,0.016,-0.009,0.006,8.040,-18.047,16.617
10:38:03:935,6.171,0.016,-0.005,-0.003,7.892,-18.166,16.532
10:38:03:935,6.171,0.009,-0.007,0.014,7.745,-18.321,16.407
10:38:03:958,6.194,-0.001,0.001,0.011,7.655,-18.433,16.304
10:38:03:985,6.221,-0.003,0.006,0.019,7.543,-18.624,16.120
10:38:04:098,6.334,-0.006,0.002,0.018,7.479,-18.743,15.980
10:38:04:098,6.335,-0.013,0.005,0.024,7.394,-18.862,15.758
10:38:04:099,6.336,-0.021,0.005,0.014,7.310,-18.867,15.570
10:38:04:1,6.336,-0.036,0.007,0.022,7.265,-18.854,15.471
10:38:04:201,6.437,-0.033,0.018,0.018,7.226,-19.004,15.296
10:38:04:201,6.437,-0.025,0.008,0.008,7.223,-19.193,15.201
10:38:04:201,6.438,-0.026,-0.013,0.004,7.264,-19.478,15.129
10:38:04:221,6.457,-0.017,-0.020,0.001,7.301,-19.685,15.093
10:38:04:334,6.571,-0.013,-0.024,0.005,7.368,-19.927,15.067
10:38:04:335,6.571,-0.007,-0.009,-0.008,7.424,-20.012,15.067
10:38:04:336,6.572,-0.004,0.001,-0.014,7.533,-20.052,15.061
10:38:04:352,6.588,0.002,-0.001,-0.031,7.708,-19.977,15.011
10:38:04:378,6.614,0.003,0.021,-0.031,7.710,-19.854,15.002
10:38:04:434,6.670,0.002,0.015,-0.030,7.696,-19.759,15.015
10:38:04:434,6.670,-0.002,-0.007,-0.029,7.635,-19.673,15.094
10:38:04:457,6.693,0.003,-0.015,-0.027,7.604,-19.644,15.205
10:38:04:484,6.720,0.006,-0.003,-0.019,7.551,-19.634,15.427
10:38:04:509,6.746,0.024,0.003,-0.013,7.540,-19.685,15.680
10:38:04:536,6.772,0.026,-0.001,-0.008,7.528,-19.701,15.827
10:38:04:562,6.798,0.031,-0.003,-0.014,7.509,-19.598,16.007
10:38:04:588,6.824,0.029,-0.019,-0.008,7.494,-19.468,16.089
10:38:04:614,6.850,0.027,-0.035,-0.016,7.474,-19.189,16.206
10:38:04:641,6.877,0.022,-0.026,-0.007,7.450,-18.953,16.285
10:38:04:666,6.903,0.022,-0.009,-0.013,7.414,-18.644,16.376
10:38:04:693,6.929,0.021,-0.012,-0.002,7.403,-18.456,16.396
10:38:04:748,6.984,0.025,-0.012,-0.004,7.397,-18.357,16.367
10:38:04:749,6.985,0.020,0.001,-0.002,7.366,-18.188,16.300
10:38:04:771,7.008,0.014,0.018,0.002,7.318,-18.073,16.236
10:38:04:8,7.036,0.018,0.017,0.013,7.224,-17.920,16.096
10:38:04:824,7.060,0.004,0.022,0.022,7.095,-17.669,15.916
10:38:04:85,7.087,0.005,0.014,0.056,7.003,-17.289,15.795
10:38:04:876,7.113,-0.054,0.020,0.039,6.813,-16.217,15.679
10:38:04:903,7.139,-0.079,0.009,0.040,6.730,-15.508,15.636
10:38:04:929,7.165,-0.091,0.005,0.012,6.677,-14.810,15.590
10:38:04:983,7.219,-0.078,0.011,-0.003,6.753,-14.780,15.519
10:38:05:01,7.247,-0.054,0.003,0.002,6.892,-15.220,15.519
10:38:05:011,7.248,-0.011,-0.003,-0.006,7.074,-16.260,15.394
10:38:05:064,7.300,0.006,-0.001,0.001,7.173,-16.973,15.293
10:38:05:065,7.301,0.000,-0.017,0.001,7.311,-17.833,15.150
10:38:05:086,7.323,-0.004,-0.013,0.000,7.367,-18.250,15.055
10:38:05:113,7.349,-0.001,-0.015,0.001,7.364,-18.706,14.980
10:38:05:168,7.404,-0.018,-0.014,-0.001,7.324,-19.001,14.986
10:38:05:169,7.405,-0.015,-0.008,-0.004,7.305,-19.216,15.028
10:38:05:193,7.429,0.004,-0.005,0.008,7.325,-19.687,15.093
10:38:05:218,7.454,0.012,-0.007,0.002,7.363,-19.959,15.146
10:38:05:244,7.480,0.005,-0.004,0.007,7.393,-20.181,15.255
10:38:05:271,7.507,0.007,0.003,0.000,7.412,-20.273,15.364
10:38:05:297,7.533,0.009,0.005,0.007,7.434,-20.337,15.429
10:38:05:324,7.560,0.010,-0.005,0.003,7.451,-20.389,15.498
10:38:05:349,7.585,0.006,-0.012,0.010,7.459,-20.403,15.545
10:38:05:375,7.611,0.006,-0.013,0.007,7.451,-20.334,15.626
10:38:05:401,7.638,0.000,0.000,0.010,7.420,-20.349,15.667
10:38:05:428,7.664,0.002,0.002,0.007,7.379,-20.250,15.688
10:38:05:454,7.690,-0.004,-0.003,0.021,7.364,-20.336,15.667
10:38:05:48,7.716,-0.018,-0.003,0.009,7.367,-20.346,15.631
10:38:05:508,7.744,-0.016,-0.002,0.008,7.393,-20.362,15.564
10:38:05:533,7.769,-0.005,-0.001,0.006,7.406,-20.496,15.500
10:38:05:588,7.825,-0.017,0.004,0.004,7.406,-20.414,15.475
10:38:05:589,7.825,-0.012,0.002,0.001,7.418,-20.432,15.452
10:38:05:612,7.848,-0.015,-0.001,0.006,7.426,-20.216,15.449
10:38:05:638,7.875,-0.009,-0.005,0.007,7.456,-20.258,15.457
10:38:05:664,7.900,-0.005,0.005,0.009,7.465,-20.247,15.475
10:38:05:72,7.956,-0.006,0.005,0.010,7.483,-20.276,15.496
10:38:05:721,7.957,-0.006,-0.003,0.014,7.535,-20.322,15.509
10:38:05:772,8.008,0.002,-0.008,0.009,7.564,-20.356,15.517
10:38:05:773,8.009,0.002,-0.005,0.008,7.608,-20.397,15.529
10:38:05:795,8.032,0.002,-0.002,0.012,7.641,-20.388,15.528
10:38:05:822,8.059,0.004,-0.001,0.009,7.659,-20.334,15.524
10:38:05:848,8.084,0.000,0.000,0.004,7.654,-20.329,15.508
10:38:05:932,8.168,-0.002,-0.005,0.004,7.656,-20.346,15.478
10:38:05:933,8.169,-0.005,-0.009,0.004,7.657,-20.343,15.442
10:38:05:934,8.170,-0.004,-0.010,-0.003,7.656,-20.201,15.424
10:38:06:015,8.251,-0.007,-0.010,0.003,7.658,-20.200,15.399
10:38:06:015,8.252,-0.001,-0.002,-0.007,7.655,-20.153,15.399
10:38:06:016,8.252,0.000,-0.003,-0.003,7.655,-20.153,15.399
10:38:06:016,8.253,0.001,0.000,-0.008,7.648,-20.037,15.402
10:38:06:112,8.348,0.001,0.005,0.000,7.639,-20.005,15.406
10:38:06:146,8.382,-0.002,0.000,-0.001,7.628,-19.892,15.411
10:38:06:146,8.382,-0.006,-0.005,0.010,7.612,-19.817,15.425
10:38:06:147,8.383,-0.005,-0.005,0.006,7.602,-19.776,15.431
10:38:06:148,8.384,-0.015,0.000,0.016,7.599,-19.717,15.443
10:38:06:25,8.487,-0.018,0.006,0.005,7.582,-19.719,15.452
10:38:06:251,8.487,-0.019,0.005,0.007,7.573,-19.805,15.452
10:38:06:252,8.488,-0.006,-0.012,-0.001,7.610,-19.888,15.439
10:38:06:253,8.489,-0.009,-0.012,0.007,7.675,-19.943,15.433
10:38:06:268,8.504,0.002,-0.016,-0.011,7.727,-19.997,15.464
10:38:06:294,8.530,0.004,0.002,-0.005,7.740,-20.123,15.505
10:38:06:378,8.615,0.024,-0.002,-0.002,7.765,-20.237,15.494
10:38:06:379,8.616,0.007,0.009,-0.001,7.780,-20.296,15.444
10:38:06:38,8.616,0.000,-0.008,-0.017,7.780,-20.314,15.486
10:38:06:399,8.635,0.003,-0.009,0.010,7.751,-20.376,15.479
10:38:06:454,8.691,0.008,-0.010,0.010,7.721,-20.404,15.508
10:38:06:455,8.692,0.008,-0.008,0.015,7.676,-20.403,15.504
10:38:06:479,8.715,0.003,0.001,0.015,7.640,-20.365,15.505
10:38:06:504,8.740,-0.002,-0.006,0.011,7.635,-20.321,15.508
10:38:06:53,8.766,-0.001,0.000,0.007,7.629,-20.303,15.504
10:38:06:615,8.851,-0.002,0.000,0.009,7.623,-20.263,15.478
10:38:06:616,8.852,-0.006,-0.003,0.003,7.610,-20.207,15.473
10:38:06:617,8.853,-0.005,-0.002,0.003,7.603,-20.176,15.470
10:38:06:636,8.872,-0.009,-0.003,0.000,7.588,-20.137,15.448
10:38:06:661,8.897,-0.002,-0.004,-0.007,7.589,-20.130,15.441
10:38:06:688,8.924,-0.005,-0.001,0.000,7.592,-20.131,15.428
10:38:06:744,8.980,-0.001,-0.001,-0.003,7.583,-20.108,15.409
10:38:06:744,8.980,-0.005,0.002,0.003,7.572,-20.074,15.403
10:38:06:766,9.003,-0.003,0.000,0.002,7.562,-20.028,15.408
10:38:06:793,9.029,-0.006,-0.004,0.012,7.559,-20.006,15.409
10:38:06:819,9.055,-0.004,-0.009,0.007,7.552,-19.968,15.419
10:38:06:876,9.112,-0.007,0.001,0.009,7.547,-19.915,15.426
10:38:06:876,9.112,-0.005,0.000,0.004,7.543,-19.866,15.434
10:38:06:898,9.134,-0.004,-0.003,0.007,7.566,-19.811,15.438
10:38:06:924,9.160,-0.006,0.002,0.003,7.552,-19.776,15.445
10:38:06:979,9.216,-0.012,0.001,0.007,7.554,-19.704,15.450
10:38:06:98,9.216,-0.009,-0.003,0.003,7.553,-19.703,15.438
10:38:07:004,9.240,-0.007,-0.007,0.008,7.570,-19.719,15.423
10:38:07:029,9.266,-0.012,-0.005,-0.001,7.595,-19.693,15.433
10:38:07:056,9.292,-0.016,0.000,0.007,7.619,-19.692,15.444
10:38:07:112,9.348,-0.008,-0.002,0.004,7.653,-19.717,15.443
10:38:07:112,9.348,-0.008,0.001,0.003,7.672,-19.717,15.445
10:38:07:134,9.370,-0.007,-0.005,-0.001,7.701,-19.656,15.463
10:38:07:16,9.397,-0.013,-0.005,0.003,7.721,-19.609,15.499
10:38:07:187,9.423,-0.007,-0.008,-0.001,7.748,-19.559,15.565
10:38:07:213,9.450,-0.008,-0.010,0.004,7.769,-19.543,15.643
10:38:07:252,9.488,-0.002,-0.004,0.002,7.770,-19.544,15.701
10:38:07:294,9.531,-0.002,-0.003,0.006,7.781,-19.543,15.777
10:38:07:295,9.531,-0.001,-0.009,0.001,7.800,-19.536,15.819
10:38:07:319,9.555,0.001,-0.001,0.001,7.810,-19.536,15.873
10:38:07:344,9.580,0.004,-0.002,0.002,7.819,-19.550,15.920
10:38:07:37,9.606,0.007,-0.002,0.003,7.824,-19.564,15.953
10:38:07:426,9.662,0.009,-0.001,0.007,7.825,-19.562,15.994
10:38:07:426,9.662,0.009,-0.007,0.000,7.825,-19.547,16.017
10:38:07:45,9.686,0.005,-0.007,0.007,7.809,-19.550,16.038
10:38:07:475,9.712,0.011,-0.004,0.003,7.786,-19.553,16.038
10:38:07:502,9.738,0.001,0.000,0.017,7.761,-19.543,16.040
10:38:07:528,9.764,0.001,-0.008,0.010,7.745,-19.535,16.025
10:38:07:556,9.792,0.000,0.003,0.013,7.738,-19.538,16.022
10:38:07:609,9.846,-0.003,0.003,0.005,7.730,-19.539,15.980
10:38:07:61,9.847,-0.007,-0.002,0.010,7.741,-19.567,15.934
10:38:07:633,9.869,-0.001,-0.007,0.002,7.766,-19.673,15.857
10:38:07:659,9.896,-0.009,0.001,0.004,7.788,-19.754,15.793
10:38:07:715,9.951,-0.006,-0.001,0.000,7.799,-19.804,15.758
10:38:07:715,9.952,-0.006,-0.002,0.005,7.838,-19.931,15.708
10:38:07:738,9.974,-0.004,0.001,-0.001,7.853,-20.030,15.684
10:38:07:764,10.000,-0.006,-0.003,-0.001,7.882,-20.123,15.675
10:38:07:79,10.027,-0.007,-0.003,-0.007,7.907,-20.203,15.663
10:38:07:846,10.082,-0.002,-0.001,0.004,7.910,-20.270,15.650
10:38:07:846,10.083,-0.002,-0.002,-0.002,7.907,-20.359,15.647
10:38:07:869,10.105,-0.002,-0.003,0.003,7.908,-20.400,15.665
10:38:07:954,10.190,0.002,-0.008,-0.001,7.922,-20.446,15.693
10:38:07:955,10.191,0.003,-0.004,0.003,7.931,-20.505,15.729
10:38:07:956,10.192,0.006,-0.003,-0.001,7.927,-20.536,15.750
10:38:07:974,10.211,0.004,-0.005,0.005,7.916,-20.557,15.774
10:38:08:002,10.238,0.004,-0.001,0.002,7.904,-20.557,15.792
10:38:08:028,10.264,0.006,-0.001,0.004,7.879,-20.572,15.795
10:38:08:082,10.318,0.009,-0.007,0.006,7.857,-20.602,15.789
10:38:08:082,10.319,0.007,-0.008,0.004,7.839,-20.607,15.788
10:38:08:105,10.342,0.004,-0.008,0.003,7.812,-20.619,15.779
10:38:08:161,10.398,0.006,-0.004,0.001,7.810,-20.618,15.768
10:38:08:162,10.398,0.007,-0.004,0.003,7.815,-20.623,15.736
10:38:08:184,10.420,0.004,0.008,-0.005,7.795,-20.567,15.711
10:38:08:21,10.447,-0.001,0.008,0.001,7.786,-20.531,15.680
10:38:08:236,10.472,0.005,-0.004,-0.006,7.779,-20.526,15.631
10:38:08:263,10.499,0.005,-0.005,0.001,7.769,-20.485,15.618
10:38:08:289,10.526,-0.006,-0.005,-0.003,7.734,-20.367,15.606
10:38:08:317,10.553,-0.008,0.000,0.008,7.722,-20.319,15.619
10:38:08:343,10.579,-0.003,-0.002,0.005,7.711,-20.285,15.612
10:38:08:368,10.604,-0.011,0.001,0.013,7.691,-20.216,15.599
10:38:08:398,10.635,-0.009,-0.002,0.007,7.691,-20.176,15.592
10:38:08:398,10.635,-0.009,0.000,0.009,7.695,-20.158,15.584
10:38:08:45,10.686,-0.003,-0.006,0.001,7.706,-20.186,15.584
10:38:08:45,10.686,-0.001,-0.006,0.014,7.717,-20.232,15.579
10:38:08:473,10.709,0.000,-0.006,0.003,7.723,-20.243,15.576
10:38:08:528,10.765,0.002,-0.005,0.002,7.719,-20.246,15.559
10:38:08:529,10.765,0.002,-0.002,-0.001,7.720,-20.236,15.536
10:38:08:551,10.787,-0.001,-0.004,0.001,7.716,-20.213,15.526
10:38:08:579,10.815,-0.001,-0.006,-0.006,7.701,-20.167,15.498
10:38:08:604,10.841,-0.003,-0.005,0.004,7.676,-20.151,15.470
10:38:08:689,10.925,-0.001,-0.002,0.000,7.644,-20.143,15.441
10:38:08:69,10.926,-0.009,-0.002,0.002,7.591,-20.132,15.406
10:38:08:69,10.926,-0.006,-0.001,0.006,7.548,-20.145,15.381
10:38:08:768,11.004,-0.011,0.002,0.010,7.506,-20.155,15.340
10:38:08:768,11.005,-0.014,-0.006,0.017,7.488,-20.170,15.316
10:38:08:769,11.005,-0.009,-0.004,0.012,7.462,-20.210,15.300
10:38:08:817,11.053,-0.007,0.002,0.009,7.456,-20.218,15.298
10:38:08:818,11.054,-0.003,-0.004,0.004,7.461,-20.216,15.307
10:38:08:84,11.077,-0.004,-0.009,0.004,7.486,-20.202,15.304
10:38:08:867,11.103,0.001,-0.008,-0.002,7.495,-20.183,15.305
10:38:08:922,11.158,-0.002,0.000,0.005,7.494,-20.156,15.311
10:38:08:923,11.159,-0.002,0.000,-0.001,7.494,-20.156,15.311
10:38:08:946,11.182,-0.003,0.000,0.007,7.485,-20.185,15.288
10:38:08:971,11.208,-0.009,-0.002,-0.001,7.477,-20.161,15.291
10:38:09:056,11.292,-0.014,-0.002,0.004,7.476,-20.153,15.292
10:38:09:057,11.293,-0.005,-0.003,0.008,7.485,-20.185,15.288
10:38:09:058,11.294,-0.007,-0.002,0.011,7.496,-20.231,15.283
10:38:09:076,11.313,-0.002,-0.002,0.003,7.515,-20.310,15.273
10:38:09:103,11.339,0.001,-0.002,0.007,7.538,-20.386,15.260
10:38:09:129,11.365,0.007,-0.003,-0.002,7.540,-20.406,15.266
10:38:09:185,11.421,0.003,-0.003,0.004,7.545,-20.405,15.275
10:38:09:185,11.421,0.013,-0.004,-0.002,7.548,-20.427,15.274
10:38:09:208,11.444,0.007,-0.005,0.004,7.548,-20.427,15.274
10:38:09:236,11.472,0.003,-0.004,0.001,7.538,-20.392,15.267
10:38:09:26,11.497,0.002,-0.003,0.003,7.533,-20.372,15.246
10:38:09:287,11.523,0.001,-0.006,0.001,7.530,-20.353,15.218
10:38:09:313,11.549,-0.003,-0.003,0.003,7.520,-20.331,15.200
10:38:09:339,11.576,0.000,-0.003,0.006,7.517,-20.313,15.171
10:38:09:365,11.601,-0.003,-0.008,0.007,7.507,-20.297,15.159
10:38:09:392,11.628,-0.006,0.002,0.001,7.493,-20.229,15.166
10:38:09:418,11.654,-0.007,0.002,0.005,7.479,-20.189,15.144
10:38:09:444,11.681,-0.003,-0.002,0.000,7.480,-20.213,15.120
10:38:09:471,11.708,-0.003,-0.005,0.004,7.494,-20.229,15.119
10:38:09:497,11.733,-0.011,-0.002,0.008,7.483,-20.216,15.124
10:38:09:523,11.759,-0.008,-0.006,0.007,7.487,-20.225,15.129
10:38:09:549,11.785,-0.003,-0.003,0.009,7.496,-20.291,15.124
10:38:09:577,11.814,-0.003,0.000,0.007,7.509,-20.326,15.117
10:38:09:602,11.838,-0.001,-0.013,0.003,7.529,-20.386,15.113
10:38:09:658,11.895,0.008,0.003,-0.006,7.534,-20.421,15.111
10:38:09:658,11.895,0.007,-0.001,0.001,7.552,-20.480,15.095
10:38:09:681,11.917,0.000,-0.003,-0.004,7.554,-20.505,15.083
10:38:09:707,11.943,-0.005,-0.002,0.006,7.571,-20.544,15.080
10:38:09:733,11.969,-0.003,-0.001,0.002,7.574,-20.584,15.073
10:38:09:788,12.024,-0.004,-0.001,0.007,7.585,-20.612,15.073
10:38:09:789,12.025,-0.001,-0.005,-0.001,7.598,-20.646,15.067
10:38:09:812,12.048,-0.004,-0.008,0.007,7.596,-20.648,15.072
10:38:09:897,12.133,-0.004,-0.003,-0.002,7.594,-20.649,15.097
10:38:09:897,12.133,-0.002,0.000,0.006,7.615,-20.703,15.105
10:38:09:898,12.134,0.003,-0.003,0.002,7.622,-20.742,15.107
10:38:09:917,12.153,0.000,-0.001,0.004,7.634,-20.778,15.125
10:38:09:943,12.179,0.004,-0.004,0.005,7.642,-20.799,15.132
10:38:09:969,12.205,0.009,-0.011,0.008,7.647,-20.819,15.152
10:38:10:024,12.261,0.006,0.000,-0.002,7.632,-20.764,15.172
10:38:10:025,12.262,-0.001,0.003,0.005,7.623,-20.731,15.177
10:38:10:049,12.285,0.007,-0.009,0.002,7.623,-20.731,15.177
10:38:10:161,12.397,0.005,-0.013,0.006,7.618,-20.714,15.174
10:38:10:162,12.398,-0.001,-0.005,0.000,7.596,-20.647,15.185
10:38:10:163,12.399,0.001,-0.001,0.006,7.587,-20.596,15.195
10:38:10:164,12.400,0.002,-0.002,0.000,7.574,-20.555,15.195
10:38:10:179,12.415,-0.004,0.001,0.010,7.544,-20.455,15.212
10:38:10:207,12.444,-0.005,-0.004,0.008,7.530,-20.387,15.218
10:38:10:232,12.468,0.000,0.001,0.003,7.513,-20.322,15.228
10:38:10:258,12.494,0.003,-0.002,0.012,7.502,-20.276,15.233
10:38:10:284,12.520,-0.004,-0.003,0.014,7.488,-20.208,15.239
10:38:10:311,12.547,0.001,-0.004,0.015,7.488,-20.137,15.250
10:38:10:338,12.575,0.001,-0.001,0.019,7.488,-20.077,15.256
10:38:10:365,12.601,-0.003,0.000,0.012,7.494,-19.966,15.268
10:38:10:39,12.626,0.000,0.000,0.001,7.502,-19.895,15.274
10:38:10:416,12.652,-0.003,-0.002,0.004,7.515,-19.791,15.266
10:38:10:472,12.708,-0.002,-0.004,-0.001,7.536,-19.719,15.254
10:38:10:472,12.708,-0.003,-0.006,0.007,7.554,-19.711,15.238
10:38:10:494,12.730,-0.002,-0.008,0.004,7.547,-19.702,15.219
10:38:10:52,12.757,-0.008,0.000,0.013,7.540,-19.683,15.204
10:38:10:547,12.783,-0.007,-0.006,0.007,7.534,-19.649,15.184
10:38:10:574,12.811,-0.007,-0.003,0.010,7.526,-19.628,15.177
10:38:10:628,12.864,-0.009,0.002,-0.015,7.518,-19.605,15.181
10:38:10:629,12.865,-0.012,-0.003,0.006,7.551,-19.603,15.140
10:38:10:653,12.889,-0.015,-0.007,0.013,7.620,-19.636,15.155
10:38:10:679,12.915,-0.007,-0.011,0.013,7.723,-19.747,15.176
10:38:10:707,12.943,-0.002,0.001,0.002,7.755,-19.830,15.177
10:38:10:708,12.944,0.007,-0.006,0.010,7.771,-19.890,15.186
10:38:10:756,12.993,0.006,-0.008,0.005,7.779,-19.905,15.184
10:38:10:786,13.022,-0.002,-0.002,0.010,7.777,-19.901,15.183
10:38:10:786,13.022,-0.001,-0.008,0.001,7.762,-19.946,15.175
10:38:10:81,13.046,0.000,-0.003,0.005,7.749,-20.030,15.176
10:38:10:865,13.101,0.002,-0.002,0.005,7.728,-20.143,15.160
10:38:10:866,13.102,-0.003,-0.001,0.008,7.703,-20.176,15.157
10:38:10:917,13.153,-0.007,0.002,0.004,7.698,-20.192,15.153
10:38:10:918,13.154,0.002,0.018,0.005,7.717,-20.271,15.144
10:38:10:97,13.206,-0.010,0.014,0.015,7.744,-20.347,15.117
10:38:10:971,13.207,-0.024,-0.001,0.029,7.736,-20.521,15.076
10:38:10:993,13.229,-0.008,-0.012,0.029,7.746,-20.726,15.044
10:38:11:019,13.256,-0.003,-0.016,0.025,7.781,-20.961,15.026
10:38:11:104,13.341,-0.022,-0.021,0.011,7.868,-20.956,15.061
10:38:11:104,13.341,-0.024,-0.012,0.002,7.929,-20.928,15.109
10:38:11:107,13.343,0.000,-0.001,0.007,8.044,-21.063,15.159
10:38:11:125,13.361,0.020,-0.006,0.003,8.129,-21.189,15.201
10:38:11:15,13.387,0.015,-0.004,0.002,8.217,-21.218,15.294
10:38:11:204,13.440,0.013,0.009,-0.016,8.277,-21.102,15.384
10:38:11:232,13.468,0.013,-0.003,-0.009,8.332,-21.066,15.405
10:38:11:233,13.469,0.021,-0.011,-0.011,8.375,-21.087,15.382
10:38:11:257,13.493,0.012,-0.015,-0.009,8.362,-21.088,15.354
10:38:11:282,13.518,0.005,-0.014,-0.014,8.340,-21.073,15.313
10:38:11:338,13.574,0.001,-0.009,-0.005,8.295,-21.125,15.237
10:38:11:338,13.574,0.005,-0.006,-0.011,8.261,-21.180,15.179
10:38:11:361,13.597,-0.003,-0.003,-0.002,8.196,-21.227,15.092
10:38:11:386,13.623,-0.007,-0.008,-0.008,8.140,-21.220,15.053
10:38:11:413,13.649,-0.009,0.003,0.001,8.072,-21.233,15.026
10:38:11:468,13.704,-0.004,-0.002,0.004,8.019,-21.248,15.032
10:38:11:469,13.705,-0.008,-0.002,0.009,7.936,-21.219,15.077
10:38:11:491,13.728,-0.009,-0.003,0.010,7.869,-21.176,15.133
10:38:11:518,13.754,-0.004,-0.002,0.020,7.844,-21.150,15.176
10:38:11:544,13.780,-0.005,0.000,0.020,7.831,-21.099,15.225
10:38:11:6,13.836,-0.003,0.001,0.026,7.829,-21.082,15.255
10:38:11:6,13.836,0.005,0.002,0.020,7.863,-21.088,15.278
10:38:11:623,13.859,0.005,-0.001,0.016,7.906,-21.087,15.271
10:38:11:678,13.915,0.007,0.000,0.008,7.931,-21.073,15.269
10:38:11:679,13.916,0.003,-0.003,0.008,7.971,-21.023,15.270
10:38:11:731,13.967,0.002,-0.008,0.002,7.988,-20.976,15.272
10:38:11:732,13.968,0.000,-0.002,0.000,8.007,-20.933,15.278
10:38:11:755,13.991,0.000,-0.007,0.000,8.027,-20.926,15.273
10:38:11:781,14.017,0.005,-0.002,-0.007,8.042,-20.911,15.264
10:38:11:807,14.043,-0.003,0.008,-0.002,8.024,-20.868,15.239
10:38:11:833,14.069,-0.003,-0.001,-0.001,8.023,-20.860,15.221
10:38:11:859,14.095,-0.001,-0.006,-0.001,8.004,-20.863,15.208
10:38:11:885,14.122,0.001,-0.002,0.013,7.986,-20.860,15.189
10:38:11:912,14.148,-0.020,0.004,0.002,7.973,-20.835,15.148
10:38:11:967,14.203,0.006,-0.004,-0.003,7.947,-20.922,15.176
10:38:11:968,14.204,0.005,0.006,0.009,7.908,-21.051,15.116
10:38:11:991,14.227,-0.015,0.000,0.008,7.864,-21.122,15.093
10:38:12:017,14.253,-0.020,-0.020,0.019,7.874,-21.179,15.065
10:38:12:043,14.279,-0.019,-0.018,0.015,7.904,-21.286,15.008
10:38:12:098,14.334,-0.027,-0.013,0.014,7.937,-21.359,14.984
10:38:12:099,14.335,-0.010,-0.004,0.003,8.013,-21.550,14.967
10:38:12:121,14.358,-0.008,0.003,0.005,8.108,-21.720,14.920
10:38:12:149,14.385,-0.003,0.002,-0.005,8.172,-21.797,14.897
10:38:12:204,14.441,-0.009,0.000,-0.006,8.258,-21.834,14.883
10:38:12:204,14.441,-0.012,-0.001,-0.016,8.291,-21.832,14.888
10:38:12:227,14.463,-0.008,0.000,-0.012,8.325,-21.905,14.911
10:38:12:253,14.489,-0.002,-0.001,-0.017,8.345,-22.013,14.977
10:38:12:279,14.515,-0.001,-0.001,-0.008,8.354,-22.078,15.038
10:38:12:306,14.543,0.006,-0.007,-0.011,8.364,-22.131,15.158
10:38:12:332,14.568,0.013,-0.009,-0.007,8.366,-22.141,15.240
10:38:12:358,14.594,0.013,-0.009,-0.010,8.345,-22.090,15.360
10:38:12:384,14.621,0.019,-0.009,-0.013,8.308,-22.047,15.452
10:38:12:44,14.676,0.020,-0.007,-0.008,8.268,-22.036,15.505
10:38:12:441,14.677,0.015,-0.001,-0.004,8.197,-22.017,15.556
10:38:12:492,14.728,0.017,-0.006,0.003,8.146,-22.027,15.567
10:38:12:493,14.729,0.017,-0.008,0.008,8.048,-22.048,15.576
10:38:12:516,14.753,0.009,-0.003,0.016,7.940,-22.029,15.571
10:38:12:57,14.807,0.007,-0.004,0.027,7.882,-22.024,15.557
10:38:12:571,14.808,-0.008,0.003,0.019,7.805,-21.885,15.522
10:38:12:594,14.831,-0.031,0.019,0.013,7.762,-21.755,15.455
10:38:12:621,14.857,-0.027,0.010,0.027,7.757,-21.748,15.310
10:38:12:646,14.883,-0.027,0.002,0.011,7.799,-21.817,15.245
10:38:12:762,14.999,-0.018,0.002,0.021,7.917,-21.990,15.251
10:38:12:763,15.000,0.013,-0.010,0.019,8.019,-22.206,15.303
10:38:12:764,15.001,0.010,-0.011,0.014,8.078,-22.223,15.352
10:38:12:781,15.017,0.014,-0.013,-0.002,8.235,-22.151,15.440
10:38:12:831,15.068,0.017,-0.010,-0.013,8.325,-22.091,15.430
10:38:12:86,15.096,0.011,-0.009,-0.012,8.368,-22.005,15.381
10:38:12:86,15.096,0.010,-0.008,-0.024,8.375,-21.960,15.342
10:38:12:883,15.119,0.004,-0.007,-0.015,8.362,-21.946,15.289
10:38:12:942,15.178,0.006,-0.008,-0.013,8.345,-21.963,15.257
10:38:12:943,15.179,0.004,-0.008,-0.004,8.306,-22.015,15.220
10:38:12:944,15.180,0.003,-0.005,-0.007,8.274,-22.029,15.203
10:38:12:963,15.199,-0.001,-0.005,0.000,8.220,-22.000,15.174
10:38:12:988,15.224,0.002,-0.006,-0.007,8.162,-21.943,15.146
10:38:13:014,15.250,-0.003,0.003,-0.002,8.121,-21.891,15.134
10:38:13:069,15.306,-0.006,-0.001,-0.002,8.053,-21.799,15.119
10:38:13:07,15.307,-0.002,-0.001,0.004,8.013,-21.777,15.117
10:38:13:122,15.358,0.005,0.007,-0.007,7.952,-21.738,15.116
10:38:13:123,15.359,0.023,0.039,-0.021,7.874,-21.657,15.129
10:38:13:176,15.413,0.062,0.016,-0.016,7.828,-21.591,15.131
10:38:13:176,15.413,0.051,-0.041,0.005,7.748,-21.303,15.131
10:38:13:198,15.434,0.043,-0.043,0.030,7.604,-20.883,15.189
10:38:13:253,15.489,0.016,-0.029,0.048,7.350,-19.552,15.305
10:38:13:254,15.490,-0.038,0.025,0.055,7.057,-18.034,15.401
10:38:13:277,15.514,-0.046,-0.002,0.062,6.967,-17.127,15.384
10:38:13:303,15.539,-0.072,-0.019,0.020,6.755,-16.036,15.350
10:38:13:329,15.565,-0.075,0.023,-0.021,6.578,-15.655,15.325
10:38:13:355,15.592,-0.064,0.017,-0.020,6.448,-15.802,15.266
10:38:13:382,15.618,-0.009,-0.009,-0.003,6.475,-16.233,15.218
10:38:13:409,15.645,-0.012,-0.005,-0.004,6.509,-16.784,15.198
10:38:13:435,15.671,-0.016,0.011,-0.019,6.510,-17.028,15.230
10:38:13:461,15.697,-0.006,0.003,0.000,6.538,-17.236,15.248
10:38:13:487,15.723,0.001,-0.014,0.001,6.599,-17.445,15.242
10:38:13:543,15.779,0.004,-0.008,0.007,6.606,-17.616,15.254
10:38:13:543,15.779,0.016,-0.001,0.012,6.613,-17.814,15.259
10:38:13:565,15.802,0.004,-0.005,0.012,6.632,-17.881,15.262
10:38:13:592,15.828,0.005,-0.005,-0.002,6.644,-17.903,15.267
10:38:13:677,15.914,0.002,-0.001,0.001,6.646,-17.902,15.289
10:38:13:677,15.914,-0.004,-0.002,-0.002,6.636,-17.891,15.306
10:38:13:677,15.914,-0.010,-0.005,0.005,6.646,-17.892,15.312
10:38:13:697,15.934,-0.007,-0.001,-0.006,6.661,-17.935,15.305
10:38:13:781,16.017,-0.004,0.001,0.003,6.694,-18.063,15.296
10:38:13:782,16.018,-0.008,-0.003,-0.001,6.734,-18.202,15.283
10:38:13:783,16.019,-0.007,0.001,0.003,6.755,-18.289,15.273
10:38:13:802,16.038,0.002,-0.001,0.001,6.811,-18.518,15.253
10:38:13:857,16.093,-0.001,-0.005,0.008,6.861,-18.666,15.246
10:38:13:858,16.094,0.007,-0.008,0.004,6.927,-18.914,15.227
10:38:13:909,16.145,0.010,-0.003,0.008,6.983,-19.055,15.222
10:38:13:91,16.146,0.007,-0.006,0.003,7.009,-19.144,15.209
10:38:13:933,16.169,0.001,-0.002,0.001,7.037,-19.221,15.196
10:38:13:959,16.196,0.002,-0.012,-0.002,7.048,-19.267,15.191
10:38:13:987,16.223,-0.005,-0.015,0.000,7.060,-19.315,15.178
10:38:14:012,16.249,-0.002,-0.007,-0.001,7.069,-19.366,15.169
10:38:14:038,16.274,-0.004,0.004,0.002,7.030,-19.383,15.167
10:38:14:064,16.300,0.001,0.003,0.006,6.975,-19.485,15.145
10:38:14:092,16.328,-0.007,0.004,-0.002,6.954,-19.523,15.111
10:38:14:117,16.353,-0.014,0.001,0.002,6.959,-19.565,15.050
10:38:14:169,16.406,0.001,0.004,0.009,7.047,-19.854,15.006
10:38:14:196,16.432,0.004,0.001,0.005,7.112,-19.939,14.984
10:38:14:223,16.460,0.006,-0.008,0.011,7.145,-20.000,14.973
10:38:14:248,16.485,0.004,-0.016,-0.005,7.165,-19.990,14.979
10:38:14:274,16.510,-0.002,-0.008,0.003,7.166,-19.992,14.990
10:38:14:301,16.537,0.003,-0.008,-0.005,7.163,-20.149,15.000
10:38:14:326,16.563,-0.002,-0.003,0.000,7.167,-20.161,15.022
10:38:14:353,16.589,0.000,0.000,-0.004,7.162,-20.140,15.048
10:38:14:382,16.619,-0.006,-0.001,0.001,7.155,-20.076,15.091
10:38:14:406,16.642,0.004,-0.001,0.000,7.153,-20.077,15.116
10:38:14:432,16.668,0.002,-0.003,0.007,7.153,-20.073,15.146
10:38:14:487,16.723,0.008,-0.006,0.007,7.149,-20.055,15.165
10:38:14:513,16.750,0.004,-0.005,0.011,7.139,-19.999,15.193
10:38:14:514,16.750,-0.001,-0.004,0.005,7.128,-19.908,15.209
10:38:14:537,16.774,-0.002,-0.004,0.008,7.120,-19.798,15.217
10:38:14:59,16.826,-0.007,-0.005,0.001,7.095,-19.709,15.230
10:38:14:618,16.854,-0.010,0.000,0.005,7.087,-19.585,15.233
10:38:14:619,16.855,-0.007,-0.001,-0.001,7.093,-19.562,15.229
10:38:14:643,16.879,-0.003,0.001,0.000,7.097,-19.619,15.240
10:38:14:669,16.905,-0.001,-0.003,-0.001,7.102,-19.618,15.248
10:38:14:695,16.931,-0.004,-0.003,-0.001,7.095,-19.614,15.258
10:38:14:75,16.986,0.001,0.000,0.001,7.078,-19.616,15.267
10:38:14:75,16.986,0.000,-0.002,0.007,7.061,-19.629,15.265
10:38:14:773,17.009,-0.002,-0.001,0.011,7.065,-19.645,15.257
10:38:14:799,17.036,0.000,0.000,0.005,7.069,-19.657,15.232
10:38:14:826,17.062,-0.003,-0.002,0.008,7.066,-19.656,15.198
10:38:14:881,17.117,-0.002,-0.009,-0.007,7.081,-19.651,15.166
10:38:14:882,17.118,-0.005,0.001,-0.005,7.087,-19.635,15.122
10:38:14:904,17.141,-0.007,-0.003,-0.011,7.076,-19.614,15.063
10:38:14:931,17.167,-0.013,-0.009,-0.001,7.079,-19.628,15.016
10:38:14:957,17.193,-0.008,-0.001,-0.003,7.055,-19.651,14.970
10:38:14:983,17.219,-0.021,-0.001,0.002,7.036,-19.618,14.968
10:38:15:009,17.245,-0.028,-0.005,0.005,7.031,-19.545,14.999
10:38:15:036,17.272,-0.023,0.000,0.010,7.050,-19.538,15.041
10:38:15:063,17.299,-0.016,0.005,-0.003,7.058,-19.601,15.114
10:38:15:088,17.324,-0.005,-0.003,0.003,7.111,-19.791,15.157
10:38:15:114,17.350,0.003,-0.005,-0.006,7.171,-19.913,15.162
10:38:15:171,17.407,0.008,0.002,0.003,7.253,-20.044,15.154
10:38:15:171,17.407,0.012,-0.005,0.002,7.293,-20.107,15.144
10:38:15:193,17.430,0.013,-0.004,0.005,7.326,-20.153,15.128
10:38:15:219,17.456,0.014,0.006,0.004,7.355,-20.149,15.089
10:38:15:248,17.484,0.009,0.007,0.011,7.393,-20.132,15.032
10:38:15:249,17.485,-0.006,-0.006,0.010,7.446,-20.079,14.932
10:38:15:272,17.509,-0.007,-0.005,0.009,7.443,-20.072,14.892
10:38:15:329,17.565,-0.006,-0.015,0.001,7.479,-20.059,14.849
10:38:15:329,17.565,-0.007,-0.013,-0.002,7.502,-20.056,14.848
10:38:15:379,17.616,0.000,-0.015,-0.011,7.527,-20.048,14.852
10:38:15:38,17.617,0.007,-0.011,-0.009,7.533,-20.007,14.854
10:38:15:492,17.728,0.007,-0.008,-0.019,7.509,-19.920,14.879
10:38:15:492,17.728,0.004,-0.009,-0.003,7.466,-19.723,14.929
10:38:15:492,17.728,0.000,-0.004,0.000,7.421,-19.558,14.969
10:38:15:493,17.729,-0.001,0.008,0.007,7.326,-19.305,15.029
10:38:15:508,17.744,-0.006,0.002,0.018,7.270,-19.064,15.063
10:38:15:534,17.770,-0.010,-0.002,0.019,7.247,-18.937,15.080
10:38:15:561,17.797,-0.014,0.000,0.017,7.216,-18.767,15.105
10:38:15:616,17.852,-0.017,-0.004,-0.001,7.214,-18.695,15.123
10:38:15:617,17.853,-0.018,0.001,0.002,7.231,-18.712,15.137
10:38:15:754,17.990,-0.006,0.000,-0.005,7.274,-18.832,15.134
10:38:15:754,17.991,-0.008,0.002,-0.002,7.288,-18.909,15.127
10:38:15:755,17.991,-0.001,-0.001,-0.011,7.341,-18.985,15.123
10:38:15:756,17.992,-0.003,-0.003,-0.001,7.349,-19.018,15.119
10:38:15:774,18.011,-0.002,0.000,-0.001,7.360,-19.064,15.114
10:38:15:774,18.011,-0.005,-0.003,0.004,7.369,-19.097,15.109
10:38:15:797,18.033,-0.002,-0.008,-0.001,7.383,-19.146,15.108
10:38:15:852,18.088,-0.005,-0.002,0.012,7.405,-19.214,15.097
10:38:15:853,18.089,-0.003,-0.002,0.001,7.425,-19.274,15.093
10:38:15:903,18.139,-0.001,0.003,0.008,7.455,-19.399,15.078
10:38:15:931,18.167,0.002,-0.002,0.001,7.478,-19.475,15.066
10:38:15:931,18.167,0.005,-0.003,0.005,7.503,-19.564,15.053
10:38:15:955,18.191,0.005,-0.007,-0.001,7.522,-19.634,15.045
10:38:15:98,18.216,0.003,-0.006,0.005,7.533,-19.689,15.039
10:38:16:007,18.243,0.009,-0.006,0.001,7.540,-19.738,15.017
10:38:16:033,18.269,0.002,-0.001,0.005,7.542,-19.743,14.999
10:38:16:06,18.296,0.002,-0.008,0.002,7.542,-19.747,14.969
10:38:16:085,18.322,0.004,-0.003,0.003,7.539,-19.728,14.960
10:38:16:112,18.348,0.000,0.005,0.003,7.521,-19.670,14.957
10:38:16:138,18.374,-0.005,-0.006,0.005,7.516,-19.616,14.936
10:38:16:166,18.402,-0.004,-0.011,0.001,7.504,-19.586,14.925
10:38:16:192,18.428,-0.006,-0.010,0.010,7.494,-19.540,14.930
10:38:16:219,18.455,-0.003,-0.001,0.007,7.492,-19.512,14.925
10:38:16:244,18.480,-0.002,-0.001,0.007,7.490,-19.495,14.908
10:38:16:3,18.536,-0.004,-0.004,0.000,7.479,-19.459,14.890
10:38:16:3,18.536,-0.004,-0.002,0.000,7.478,-19.432,14.896
10:38:16:322,18.558,-0.002,-0.006,0.006,7.478,-19.432,14.896
10:38:16:348,18.584,-0.002,-0.005,0.001,7.472,-19.422,14.899
10:38:16:374,18.611,-0.002,-0.004,0.008,7.466,-19.396,14.897
10:38:16:401,18.637,-0.002,-0.005,0.000,7.467,-19.377,14.902
10:38:16:495,18.731,-0.004,-0.005,0.007,7.458,-19.345,14.907
10:38:16:495,18.731,0.002,-0.003,-0.011,7.450,-19.303,14.915
10:38:16:495,18.732,-0.001,-0.005,0.000,7.439,-19.275,14.915
10:38:16:506,18.742,0.001,-0.008,-0.004,7.419,-19.273,14.921
10:38:16:532,18.768,-0.002,-0.005,0.004,7.380,-19.282,14.913
10:38:16:587,18.823,-0.007,0.002,0.005,7.323,-19.292,14.902
10:38:16:588,18.824,-0.011,0.000,0.012,7.291,-19.324,14.879
10:38:16:611,18.847,-0.011,-0.003,0.002,7.289,-19.363,14.875
10:38:16:697,18.933,-0.012,0.002,0.006,7.302,-19.449,14.863
10:38:16:697,18.933,-0.003,-0.006,0.000,7.323,-19.523,14.858
10:38:16:697,18.933,0.005,-0.011,-0.002,7.360,-19.627,14.880
10:38:16:717,18.953,0.007,-0.001,-0.015,7.390,-19.632,14.917
10:38:16:742,18.979,0.008,-0.007,-0.017,7.388,-19.627,14.935
10:38:16:768,19.004,0.007,-0.009,-0.015,7.372,-19.701,14.927
10:38:16:824,19.060,0.010,-0.005,0.006,7.324,-19.825,14.890
10:38:16:825,19.061,-0.010,0.003,0.019,7.235,-20.006,14.812
10:38:16:846,19.083,-0.018,0.007,0.022,7.198,-20.154,14.759
10:38:16:873,19.109,-0.013,-0.002,0.023,7.200,-20.432,14.696
10:38:16:899,19.135,-0.014,-0.006,0.017,7.263,-20.669,14.687
10:38:16:926,19.162,-0.012,-0.006,0.003,7.303,-20.764,14.696
10:38:16:953,19.189,0.003,0.000,-0.003,7.385,-20.847,14.728
10:38:16:978,19.214,0.000,-0.003,-0.013,7.425,-20.818,14.763
10:38:17:004,19.240,-0.006,-0.004,-0.019,7.468,-20.734,14.845
10:38:17:031,19.267,0.006,-0.006,-0.019,7.475,-20.731,14.895
10:38:17:056,19.293,0.012,-0.005,-0.012,7.463,-20.817,14.955
10:38:17:084,19.320,0.011,-0.008,-0.003,7.436,-20.889,15.006
10:38:17:109,19.346,0.013,-0.007,0.004,7.414,-20.933,15.025
10:38:17:136,19.372,0.008,-0.004,0.015,7.380,-21.000,15.027
10:38:17:161,19.398,0.008,-0.001,0.012,7.358,-21.042,15.010
10:38:17:188,19.424,0.008,-0.002,0.017,7.332,-21.099,15.009
10:38:17:214,19.450,0.006,-0.004,0.006,7.325,-21.102,15.006
10:38:17:24,19.477,0.005,-0.001,0.006,7.342,-21.100,14.996
10:38:17:296,19.532,0.004,-0.002,-0.003,7.366,-21.096,14.989
10:38:17:296,19.533,0.004,-0.015,-0.001,7.387,-21.080,14.989
10:38:17:32,19.556,0.002,-0.001,-0.010,7.398,-21.004,14.999
10:38:17:345,19.582,-0.004,0.001,-0.006,7.382,-20.947,15.007
10:38:17:372,19.608,0.005,-0.002,-0.013,7.376,-20.937,15.010
10:38:17:43,19.666,-0.002,-0.006,0.000,7.352,-20.837,15.047
10:38:17:431,19.667,0.001,0.000,-0.004,7.316,-20.724,15.076
10:38:17:431,19.667,0.004,-0.008,0.009,7.281,-20.578,15.117
10:38:17:479,19.716,0.000,-0.012,0.002,7.236,-20.477,15.140
10:38:17:48,19.717,-0.004,-0.002,0.011,7.127,-20.340,15.164
10:38:17:505,19.741,-0.005,-0.006,0.010,7.050,-20.283,15.152
10:38:17:559,19.795,-0.011,0.002,0.017,7.024,-20.274,15.131
10:38:17:559,19.795,-0.009,0.000,0.009,6.999,-20.252,15.097
10:38:17:582,19.818,-0.016,0.007,0.011,6.995,-20.264,15.077
10:38:17:669,19.905,-0.012,0.005,0.007,7.002,-20.314,15.056
10:38:17:669,19.905,-0.006,0.000,0.003,7.028,-20.375,15.024
10:38:17:669,19.905,-0.008,0.002,0.002,7.042,-20.373,15.028
10:38:17:687,19.923,-0.007,0.000,0.002,7.073,-20.394,15.024
10:38:17:713,19.949,-0.006,-0.003,0.006,7.083,-20.440,15.019
10:38:17:74,19.976,-0.006,-0.007,0.006,7.099,-20.500,15.028
10:38:17:794,20.031,0.000,-0.003,0.005,7.120,-20.565,15.052
10:38:17:795,20.031,0.003,-0.005,0.003,7.134,-20.608,15.064
10:38:17:847,20.084,0.007,-0.007,0.003,7.148,-20.670,15.051
10:38:17:848,20.084,0.005,-0.006,-0.004,7.160,-20.691,15.044
10:38:17:87,20.107,0.002,-0.011,0.002,7.163,-20.713,15.043
10:38:17:926,20.162,0.008,-0.003,-0.003,7.173,-20.750,15.039
10:38:17:927,20.163,0.001,0.002,0.004,7.176,-20.799,15.031
10:38:17:978,20.214,0.004,-0.005,-0.001,7.187,-20.845,15.026
10:38:17:979,20.215,-0.001,-0.008,0.004,7.187,-20.879,15.027
10:38:18:002,20.238,-0.001,-0.009,-0.001,7.193,-20.889,15.023
10:38:18:028,20.264,0.004,-0.001,0.004,7.192,-20.896,15.030
10:38:18:054,20.290,0.006,-0.004,-0.004,7.198,-20.906,15.027
10:38:18:08,20.317,0.004,-0.002,0.000,7.198,-20.906,15.027
10:38:18:108,20.344,0.007,-0.007,-0.008,7.198,-20.906,15.027
10:38:18:133,20.369,0.006,-0.004,-0.001,7.189,-20.889,15.037
10:38:18:16,20.396,0.012,-0.005,-0.002,7.185,-20.862,15.057
10:38:18:186,20.422,0.008,-0.005,0.008,7.166,-20.801,15.061
10:38:18:212,20.448,0.006,-0.005,0.003,7.147,-20.731,15.069
10:38:18:238,20.474,0.003,-0.003,0.007,7.110,-20.606,15.083
10:38:18:264,20.501,-0.001,-0.003,0.004,7.072,-20.457,15.101
10:38:18:292,20.528,-0.003,0.000,0.008,7.052,-20.370,15.112
10:38:18:318,20.554,-0.002,-0.003,0.002,7.015,-20.245,15.106
10:38:18:343,20.579,-0.009,0.003,0.007,6.993,-20.159,15.122
10:38:18:369,20.605,-0.004,0.000,0.005,6.965,-20.066,15.131
10:38:18:395,20.631,-0.009,-0.001,0.009,6.946,-19.981,15.134
10:38:18:422,20.658,-0.004,-0.003,0.001,6.943,-19.926,15.135
10:38:18:477,20.713,-0.003,-0.003,0.007,6.944,-19.849,15.138
10:38:18:478,20.714,-0.002,-0.005,0.004,6.955,-19.802,15.120
10:38:18:53,20.766,0.001,-0.004,0.005,6.958,-19.735,15.106
10:38:18:531,20.767,-0.005,0.002,0.005,6.945,-19.679,15.101
10:38:18:553,20.790,-0.007,-0.005,0.011,6.938,-19.603,15.062
10:38:18:579,20.815,-0.010,-0.002,0.007,6.931,-19.579,15.019
10:38:18:634,20.871,-0.012,-0.004,0.005,6.928,-19.576,14.996
10:38:18:635,20.872,-0.008,0.001,0.008,6.935,-19.601,14.971
10:38:18:66,20.896,-0.008,-0.002,-0.004,6.942,-19.632,14.955
10:38:18:685,20.921,-0.009,-0.001,0.003,6.957,-19.687,14.935
10:38:18:711,20.947,-0.006,-0.006,-0.006,6.970,-19.746,14.930
10:38:18:766,21.003,-0.007,-0.006,0.002,6.987,-19.793,14.926
10:38:18:767,21.003,0.002,-0.004,-0.006,6.987,-19.882,14.911
10:38:18:79,21.026,-0.008,-0.005,0.004,6.978,-19.934,14.911
10:38:18:815,21.052,-0.003,-0.005,-0.002,6.969,-20.032,14.899
10:38:18:9,21.136,-0.003,-0.003,0.006,6.967,-20.140,14.884
10:38:18:901,21.137,0.001,-0.001,-0.001,6.953,-20.194,14.876
10:38:18:901,21.137,-0.005,-0.004,0.005,6.943,-20.265,14.870
10:38:18:921,21.157,0.000,-0.003,-0.002,6.927,-20.312,14.868
10:38:18:947,21.183,-0.001,-0.001,0.001,6.912,-20.372,14.866
10:38:18:973,21.209,0.000,-0.001,0.000,6.900,-20.403,14.867
10:38:18:999,21.236,0.000,0.000,0.002,6.889,-20.460,14.862
10:38:19:025,21.261,0.000,-0.004,0.002,6.894,-20.489,14.854
10:38:19:081,21.317,0.000,0.000,0.006,6.894,-20.489,14.854
10:38:19:082,21.318,0.003,-0.004,0.006,6.894,-20.489,14.854
10:38:19:105,21.341,0.003,-0.004,0.006,6.889,-20.487,14.856
10:38:19:131,21.367,0.002,0.008,0.003,6.877,-20.427,14.880
10:38:19:157,21.394,-0.004,0.000,0.006,6.881,-20.358,14.877
10:38:19:183,21.420,-0.001,-0.005,0.000,6.897,-20.329,14.874
10:38:19:21,21.446,-0.005,-0.005,0.003,6.915,-20.306,14.880
10:38:19:235,21.472,-0.005,-0.005,0.008,6.931,-20.302,14.878
10:38:19:261,21.498,-0.003,-0.001,0.004,6.937,-20.313,14.875
10:38:19:317,21.553,0.000,0.000,0.004,6.940,-20.335,14.873
10:38:19:318,21.554,-0.002,-0.003,0.003,6.959,-20.343,14.874
10:38:19:341,21.578,-0.001,-0.005,0.004,6.990,-20.346,14.875
10:38:19:367,21.603,0.002,0.006,0.003,7.006,-20.351,14.872
10:38:19:42,21.657,-0.001,0.001,0.012,7.037,-20.302,14.878
10:38:19:449,21.685,-0.008,-0.013,0.001,7.064,-20.134,14.949
10:38:19:449,21.685,-0.007,-0.006,0.004,7.091,-19.988,15.031
10:38:19:501,21.737,0.002,-0.001,-0.006,7.127,-19.769,15.161
10:38:19:502,21.738,0.004,-0.002,0.000,7.163,-19.572,15.302
10:38:19:525,21.761,0.012,-0.001,-0.009,7.184,-19.434,15.394
10:38:19:55,21.787,0.008,-0.004,-0.001,7.207,-19.222,15.502
10:38:19:606,21.843,0.006,-0.011,-0.002,7.209,-19.107,15.557
10:38:19:607,21.843,0.009,-0.007,0.006,7.205,-19.000,15.610
10:38:19:629,21.865,0.006,-0.002,0.009,7.183,-18.916,15.638
10:38:19:658,21.894,0.004,-0.003,0.009,7.166,-18.860,15.646
10:38:19:741,21.977,0.006,-0.012,0.004,7.167,-18.753,15.639
10:38:19:742,21.978,-0.003,-0.012,0.010,7.163,-18.656,15.622
10:38:19:742,21.978,-0.001,-0.002,-0.003,7.122,-18.512,15.606
10:38:19:761,21.998,-0.007,0.018,0.007,7.105,-18.432,15.591
10:38:19:788,22.024,-0.014,0.007,0.005,7.083,-18.342,15.531
10:38:19:814,22.050,-0.015,-0.005,0.009,7.068,-18.279,15.486
10:38:19:839,22.076,-0.021,-0.010,0.013,7.058,-18.244,15.479
10:38:19:866,22.102,-0.021,-0.005,0.015,7.070,-18.204,15.501
10:38:19:921,22.157,-0.015,-0.001,0.013,7.080,-18.220,15.513
10:38:19:922,22.158,-0.012,-0.001,0.010,7.117,-18.296,15.495
10:38:19:944,22.181,-0.016,-0.002,0.006,7.150,-18.396,15.433
10:38:19:97,22.207,-0.009,-0.011,0.004,7.176,-18.507,15.385
10:38:19:997,22.233,-0.009,-0.001,-0.001,7.182,-18.661,15.332
10:38:20:023,22.259,-0.003,-0.008,-0.001,7.179,-18.768,15.306
10:38:20:05,22.286,-0.004,-0.013,0.001,7.172,-18.911,15.282
10:38:20:075,22.312,0.000,-0.003,-0.004,7.169,-19.044,15.269
10:38:20:105,22.342,0.004,0.000,0.007,7.191,-19.145,15.258
10:38:20:105,22.342,0.013,-0.005,-0.005,7.218,-19.228,15.239
10:38:20:128,22.364,0.007,-0.004,0.000,7.210,-19.222,15.237
10:38:20:183,22.420,0.006,-0.007,-0.007,7.199,-19.176,15.242
10:38:20:184,22.421,0.007,-0.009,0.006,7.181,-19.181,15.241
10:38:20:236,22.472,0.006,-0.009,0.003,7.149,-19.192,15.233
10:38:20:236,22.473,-0.002,-0.008,0.011,7.110,-19.205,15.215
10:38:20:29,22.526,-0.002,0.002,0.004,7.084,-19.211,15.199
10:38:20:29,22.526,-0.005,0.000,0.014,7.067,-19.219,15.168
10:38:20:312,22.548,-0.002,0.001,0.005,7.057,-19.218,15.161
10:38:20:367,22.603,-0.005,0.006,0.010,7.057,-19.218,15.161
10:38:20:368,22.604,-0.003,-0.005,0.006,7.065,-19.224,15.163
10:38:20:449,22.686,0.001,-0.007,0.007,7.084,-19.224,15.165
10:38:20:45,22.686,0.004,-0.010,0.002,7.101,-19.219,15.166
10:38:20:451,22.687,0.002,-0.008,0.006,7.095,-19.193,15.164
10:38:20:469,22.705,0.000,0.000,0.000,7.085,-19.156,15.168
10:38:20:495,22.732,0.000,0.000,0.001,7.077,-19.123,15.172
10:38:20:522,22.758,-0.003,-0.005,0.003,7.068,-19.091,15.177
10:38:20:575,22.812,-0.003,-0.008,0.007,7.061,-19.053,15.186
10:38:20:603,22.839,-0.002,-0.002,0.005,7.056,-19.036,15.183
10:38:20:604,22.840,-0.002,-0.008,0.006,7.053,-19.014,15.184
10:38:20:628,22.864,-0.005,0.001,0.005,7.056,-19.018,15.188
10:38:20:653,22.889,-0.006,-0.002,0.006,7.040,-19.031,15.185
10:38:20:679,22.915,-0.001,-0.004,0.003,7.050,-19.059,15.186
10:38:20:706,22.942,-0.003,-0.001,0.006,7.045,-19.075,15.183
10:38:20:819,23.055,-0.001,-0.004,0.001,7.045,-19.075,15.183
10:38:20:82,23.056,0.001,-0.004,-0.003,7.053,-19.072,15.186
10:38:20:821,23.057,-0.002,0.000,0.004,7.045,-19.075,15.183
10:38:20:822,23.058,0.002,-0.004,-0.001,7.045,-19.075,15.183
10:38:20:838,23.074,-0.003,0.001,0.008,7.039,-19.074,15.182
10:38:20:863,23.099,0.002,-0.001,-0.001,7.042,-19.078,15.185
10:38:20:89,23.126,-0.002,-0.003,0.009,7.042,-19.078,15.185
10:38:20:915,23.152,0.001,-0.006,0.002,7.045,-19.075,15.183
10:38:20:942,23.178,0.000,0.004,0.005,7.045,-19.075,15.183
10:38:20:968,23.204,0.001,0.003,0.000,7.046,-19.072,15.166
10:38:21:024,23.260,-0.005,-0.002,0.005,7.064,-19.074,15.126
10:38:21:024,23.260,-0.001,-0.004,-0.002,7.082,-19.084,15.105
10:38:21:047,23.283,-0.005,-0.004,0.004,7.130,-19.095,15.074
10:38:21:073,23.310,0.000,-0.002,0.001,7.154,-19.097,15.055
10:38:21:099,23.335,-0.003,-0.001,0.006,7.188,-19.085,15.037
10:38:21:126,23.362,-0.003,0.000,0.001,7.222,-19.070,15.030
10:38:21:152,23.388,-0.002,-0.003,0.003,7.245,-19.049,15.035
10:38:21:178,23.414,-0.002,-0.006,0.001,7.273,-19.030,15.038
10:38:21:204,23.441,0.001,-0.005,0.002,7.283,-19.024,15.038
10:38:21:259,23.496,-0.001,-0.006,0.002,7.289,-19.016,15.040
10:38:21:26,23.497,-0.005,-0.006,0.002,7.289,-19.016,15.040
10:38:21:312,23.549,-0.003,-0.003,-0.002,7.297,-19.040,15.037
10:38:21:313,23.549,-0.002,-0.001,0.004,7.311,-19.090,15.035
10:38:21:336,23.572,0.000,-0.001,0.000,7.323,-19.138,15.023
10:38:21:363,23.599,0.005,-0.003,0.001,7.342,-19.208,15.015
10:38:21:416,23.652,0.005,-0.003,0.002,7.351,-19.222,15.015
10:38:21:472,23.708,0.004,-0.003,0.006,7.351,-19.222,15.015
10:38:21:473,23.709,0.001,0.001,0.008,7.343,-19.198,15.019
10:38:21:474,23.710,-0.002,-0.001,0.007,7.333,-19.175,15.019
10:38:21:493,23.729,0.000,-0.004,0.004,7.323,-19.138,15.023
10:38:21:548,23.784,0.001,-0.011,-0.001,7.323,-19.138,15.023
10:38:21:549,23.785,-0.002,-0.009,0.002,7.323,-19.138,15.023
10:38:21:573,23.809,-0.002,0.000,-0.004,7.322,-19.129,15.024
10:38:21:629,23.865,-0.007,0.002,0.002,7.321,-19.128,15.013
10:38:21:629,23.865,-0.006,-0.002,-0.003,7.334,-19.188,14.988
10:38:21:65,23.887,-0.008,-0.005,0.002,7.351,-19.244,14.980
10:38:21:677,23.913,-0.001,-0.002,0.000,7.365,-19.321,14.973
10:38:21:703,23.939,-0.002,-0.002,0.010,7.373,-19.382,14.959
10:38:21:731,23.967,0.004,-0.008,-0.001,7.393,-19.451,14.953
10:38:21:756,23.992,-0.001,-0.003,0.003,7.401,-19.475,14.950
10:38:21:782,24.018,0.002,-0.008,-0.003,7.403,-19.488,14.950
10:38:21:808,24.044,0.002,-0.006,-0.002,7.409,-19.514,14.952
10:38:21:863,24.099,0.004,-0.008,0.000,7.411,-19.521,14.945
10:38:21:864,24.100,-0.002,-0.007,0.000,7.409,-19.514,14.952
10:38:21:887,24.123,0.002,-0.005,-0.009,7.406,-19.510,14.948
10:38:21:914,24.151,0.000,-0.007,0.001,7.404,-19.497,14.948
10:38:21:94,24.176,-0.004,-0.003,-0.002,7.394,-19.455,14.954
10:38:21:966,24.202,-0.001,-0.005,-0.002,7.386,-19.431,14.958
10:38:21:992,24.229,-0.002,-0.007,0.000,7.373,-19.415,14.959
10:38:22:018,24.254,-0.005,0.000,0.004,7.353,-19.388,14.963
10:38:22:044,24.281,-0.004,-0.001,0.001,7.331,-19.339,14.969
10:38:22:071,24.307,-0.004,-0.004,0.012,7.317,-19.305,14.976
10:38:22:126,24.362,-0.003,0.002,0.008,7.313,-19.277,14.995
10:38:22:127,24.363,-0.001,0.001,0.012,7.295,-19.216,15.022
10:38:22:15,24.387,-0.002,-0.004,0.002,7.291,-19.167,15.030
10:38:22:176,24.412,-0.001,0.001,0.004,7.269,-19.081,15.046
10:38:22:202,24.438,-0.008,-0.006,0.003,7.254,-19.004,15.053
10:38:22:256,24.492,-0.008,-0.005,0.004,7.251,-18.998,15.060
10:38:22:284,24.520,-0.005,-0.004,0.007,7.251,-18.998,15.060
10:38:22:284,24.520,-0.001,-0.003,0.000,7.251,-18.998,15.060
10:38:22:307,24.543,-0.002,0.001,0.008,7.251,-18.998,15.060
10:38:22:386,24.622,0.002,0.001,-0.001,7.251,-18.998,15.060
10:38:22:417,24.653,-0.003,-0.001,0.006,7.244,-18.982,15.081
10:38:22:418,24.654,0.002,-0.009,0.003,7.264,-18.939,15.087
10:38:22:419,24.655,0.001,-0.007,0.004,7.262,-18.900,15.106
10:38:22:442,24.678,-0.001,-0.006,0.001,7.247,-18.845,15.125
10:38:22:442,24.678,-0.008,-0.005,0.005,7.234,-18.804,15.125
10:38:22:522,24.758,-0.005,-0.004,-0.008,7.230,-18.777,15.145
10:38:22:523,24.759,-0.001,-0.003,0.005,7.234,-18.757,15.178
10:38:22:524,24.760,-0.001,0.002,0.005,7.222,-18.721,15.206
10:38:22:543,24.779,0.001,-0.001,0.004,7.204,-18.649,15.255
10:38:22:599,24.835,0.000,-0.004,0.004,7.187,-18.589,15.293
10:38:22:6,24.836,-0.004,-0.006,0.006,7.166,-18.495,15.344
10:38:22:622,24.858,-0.007,0.011,0.003,7.143,-18.439,15.389
10:38:22:648,24.884,-0.004,0.022,0.013,7.153,-18.428,15.408
10:38:22:676,24.912,-0.008,-0.001,0.023,7.231,-18.490,15.403
10:38:22:701,24.938,-0.008,-0.006,0.030,7.231,-18.614,15.427
10:38:22:727,24.963,-0.001,-0.010,0.020,7.161,-18.940,15.498
10:38:22:753,24.989,-0.018,-0.014,0.028,7.131,-19.379,15.603
10:38:22:808,25.045,-0.010,-0.009,0.026,7.146,-19.719,15.665
10:38:22:809,25.045,0.012,-0.022,0.023,7.279,-20.350,15.603
10:38:22:832,25.068,0.017,-0.004,0.004,7.389,-20.664,15.529
10:38:22:859,25.095,0.032,0.006,-0.025,7.554,-20.800,15.452
10:38:22:884,25.121,0.032,-0.038,-0.043,7.674,-20.771,15.415
10:38:22:911,25.147,0.018,-0.035,-0.060,7.717,-20.685,15.319
10:38:22:966,25.202,-0.002,0.015,-0.057,7.516,-20.809,15.108
10:38:22:967,25.203,-0.015,0.032,-0.010,7.307,-21.063,14.904
10:38:22:989,25.225,-0.058,0.038,0.037,6.969,-21.275,14.707
10:38:23:015,25.252,-0.111,0.017,0.049,6.779,-21.184,14.701
10:38:23:042,25.278,-0.125,0.008,0.050,6.668,-21.178,14.780
10:38:23:097,25.333,-0.041,-0.022,0.051,6.778,-21.874,14.938
10:38:23:098,25.334,-0.004,-0.018,0.053,6.960,-22.405,15.034
10:38:23:121,25.357,0.036,-0.018,0.005,7.294,-22.682,15.172
10:38:23:2,25.437,0.032,-0.019,-0.010,7.504,-22.454,15.262
10:38:23:26,25.496,-0.009,0.000,-0.061,7.776,-21.635,15.398
10:38:23:261,25.497,-0.008,0.011,-0.062,8.010,-20.925,15.537
10:38:23:262,25.498,0.007,0.010,-0.060,8.140,-20.689,15.622
10:38:23:263,25.499,0.010,0.004,-0.031,8.078,-20.498,15.897
10:38:23:278,25.514,0.018,-0.012,-0.023,8.037,-20.406,16.149
10:38:23:304,25.540,0.025,-0.021,-0.005,7.964,-20.236,16.600
10:38:23:331,25.567,0.022,-0.036,-0.001,7.909,-20.072,16.910
10:38:23:386,25.622,0.028,-0.032,-0.001,7.792,-19.803,17.317
10:38:23:387,25.623,0.036,-0.001,0.003,7.670,-19.585,17.561
10:38:23:409,25.646,0.031,-0.008,0.015,7.612,-19.462,17.631
10:38:23:436,25.672,0.022,-0.001,0.010,7.518,-19.287,17.583
10:38:23:491,25.727,0.010,0.005,0.018,7.456,-19.178,17.519
10:38:23:492,25.728,-0.009,0.008,0.021,7.367,-19.103,17.399
10:38:23:516,25.752,-0.018,0.005,0.039,7.339,-19.139,17.333
10:38:23:541,25.777,-0.019,0.006,0.040,7.391,-19.255,17.237
10:38:23:625,25.861,-0.026,0.006,0.033,7.516,-19.397,17.156
10:38:23:626,25.862,-0.012,-0.008,0.019,7.624,-19.504,17.095
10:38:23:627,25.863,-0.001,-0.010,0.020,7.796,-19.619,16.945
10:38:23:646,25.882,-0.014,-0.003,-0.011,7.871,-19.581,16.840
10:38:23:671,25.908,-0.018,-0.010,-0.019,7.934,-19.449,16.668
10:38:23:7,25.936,-0.016,-0.043,-0.018,8.007,-19.547,16.460
10:38:23:725,25.961,-0.021,0.004,-0.012,8.052,-19.681,16.332
10:38:23:751,25.987,0.005,0.035,-0.012,8.085,-19.877,16.193
10:38:23:777,26.013,-0.005,0.012,-0.013,8.139,-19.966,16.111
10:38:23:803,26.040,-0.013,0.010,-0.014,8.182,-19.928,16.087
10:38:23:829,26.065,-0.006,-0.009,-0.016,8.177,-19.822,16.119
10:38:23:856,26.092,-0.002,-0.015,-0.012,8.164,-19.782,16.178
10:38:23:882,26.118,0.005,-0.016,-0.019,8.129,-19.693,16.290
10:38:23:909,26.145,-0.003,-0.019,-0.006,8.106,-19.603,16.336
10:38:23:935,26.171,-0.001,-0.020,-0.019,8.068,-19.511,16.350
10:38:23:961,26.197,0.011,-0.004,-0.013,8.042,-19.526,16.353
10:38:23:987,26.223,0.014,0.001,-0.011,7.971,-19.532,16.332
10:38:24:013,26.249,0.007,-0.001,0.008,7.874,-19.523,16.284
10:38:24:068,26.304,0.014,0.004,0.000,7.788,-19.508,16.236
10:38:24:069,26.305,-0.002,0.011,0.020,7.655,-19.453,16.143
10:38:24:092,26.328,-0.004,0.001,0.031,7.610,-19.408,16.083
10:38:24:118,26.355,-0.010,0.004,0.033,7.593,-19.335,15.981
10:38:24:145,26.381,-0.019,0.011,0.021,7.610,-19.282,15.930
10:38:24:172,26.408,-0.024,0.002,0.020,7.668,-19.227,15.886
10:38:24:228,26.464,-0.004,-0.007,0.004,7.799,-19.347,15.882
10:38:24:249,26.486,-0.001,-0.014,-0.012,7.877,-19.338,15.886
10:38:24:276,26.512,0.004,-0.013,-0.014,7.911,-19.330,15.886
10:38:24:36,26.596,0.009,-0.015,-0.017,7.950,-19.313,15.888
10:38:24:361,26.597,0.005,-0.011,-0.022,7.948,-19.241,15.906
10:38:24:361,26.598,0.008,-0.004,-0.029,7.909,-19.169,15.920
10:38:24:381,26.617,0.006,0.000,-0.017,7.840,-19.081,15.940
10:38:24:492,26.729,0.006,0.001,-0.016,7.773,-19.040,15.939
10:38:24:493,26.729,0.004,0.000,-0.006,7.660,-18.994,15.952
10:38:24:494,26.730,-0.001,-0.008,0.012,7.532,-18.933,15.943
10:38:24:513,26.749,-0.015,0.001,0.018,7.440,-18.852,15.933
10:38:24:601,26.837,-0.034,0.007,0.028,7.344,-18.729,15.918
10:38:24:601,26.837,-0.040,0.002,0.017,7.357,-18.675,15.927
10:38:24:602,26.838,-0.038,0.010,0.019,7.423,-18.697,15.980
10:38:24:602,26.838,-0.025,0.006,0.001,7.531,-18.859,16.030
10:38:24:617,26.854,-0.012,-0.007,0.001,7.600,-19.053,16.037
10:38:24:647,26.883,0.000,-0.005,-0.016,7.676,-19.398,16.020
10:38:24:647,26.883,-0.003,-0.006,-0.003,7.697,-19.663,15.958
10:38:24:698,26.934,-0.008,-0.005,-0.015,7.733,-20.128,15.804
10:38:24:699,26.935,-0.007,0.001,-0.008,7.763,-20.437,15.698
10:38:24:751,26.987,-0.014,0.002,-0.012,7.820,-20.737,15.617
10:38:24:752,26.988,-0.007,0.002,-0.003,7.887,-20.886,15.634
10:38:24:803,27.040,0.011,0.001,-0.012,7.942,-20.997,15.688
10:38:24:804,27.041,0.031,-0.003,-0.001,7.997,-21.052,15.871
10:38:24:827,27.063,0.021,-0.006,-0.014,8.007,-20.954,16.035
10:38:24:853,27.089,0.028,-0.012,-0.009,7.973,-20.827,16.224
10:38:24:909,27.145,0.040,-0.023,-0.002,7.921,-20.773,16.318
10:38:24:909,27.145,0.033,-0.018,0.004,7.877,-20.718,16.329
10:38:24:934,27.170,0.037,-0.019,0.016,7.833,-20.653,16.270
10:38:24:959,27.195,0.022,-0.009,0.017,7.800,-20.546,16.222
10:38:25:011,27.247,0.002,0.000,0.008,7.740,-20.308,16.168
10:38:25:04,27.276,-0.002,0.001,0.011,7.717,-20.149,16.131
10:38:25:04,27.277,-0.013,0.005,-0.005,7.692,-19.922,16.083
10:38:25:063,27.300,-0.010,-0.002,-0.007,7.689,-19.764,16.029
10:38:25:091,27.327,-0.013,-0.001,-0.005,7.672,-19.689,15.996
10:38:25:116,27.353,-0.013,-0.010,0.002,7.658,-19.650,15.927
10:38:25:142,27.378,-0.015,-0.004,-0.005,7.649,-19.625,15.872
10:38:25:198,27.434,-0.026,0.001,-0.002,7.624,-19.526,15.814
10:38:25:198,27.434,-0.028,0.000,0.002,7.612,-19.445,15.761
10:38:25:221,27.457,-0.018,0.002,-0.011,7.606,-19.423,15.729
10:38:25:247,27.483,-0.024,0.001,-0.003,7.576,-19.314,15.702
10:38:25:331,27.567,-0.030,0.003,-0.012,7.563,-19.241,15.760
10:38:25:332,27.568,-0.008,-0.003,0.010,7.593,-19.305,15.799
10:38:25:333,27.569,-0.010,0.000,-0.004,7.589,-19.348,15.789
10:38:25:352,27.588,-0.004,-0.004,0.004,7.597,-19.387,15.791
10:38:25:437,27.673,0.003,-0.001,0.001,7.622,-19.449,15.785
10:38:25:437,27.673,0.001,0.000,0.009,7.634,-19.470,15.779
10:38:25:438,27.674,0.006,-0.003,0.002,7.670,-19.484,15.777
10:38:25:457,27.693,0.007,-0.002,0.004,7.692,-19.472,15.777
10:38:25:483,27.719,0.011,-0.006,-0.004,7.726,-19.423,15.770
10:38:25:51,27.746,0.004,-0.005,0.004,7.756,-19.344,15.747
10:38:25:536,27.772,0.000,-0.005,-0.006,7.753,-19.262,15.736
10:38:25:562,27.798,-0.004,-0.005,0.000,7.757,-19.152,15.726
10:38:25:617,27.854,-0.003,0.001,-0.003,7.764,-19.088,15.739
10:38:25:618,27.855,-0.009,0.004,0.003,7.777,-18.984,15.731
10:38:25:641,27.877,-0.009,0.000,0.002,7.789,-18.931,15.718
10:38:25:667,27.903,-0.010,-0.004,0.008,7.820,-18.912,15.708
10:38:25:693,27.929,0.003,0.005,0.001,7.889,-18.897,15.699
10:38:25:749,27.985,0.010,-0.015,0.023,8.019,-18.942,15.631
10:38:25:749,27.985,-0.011,0.004,-0.006,8.151,-19.080,15.469
10:38:25:772,28.008,0.007,0.008,-0.014,8.205,-19.211,15.452
10:38:25:798,28.035,0.005,-0.008,0.003,8.208,-19.501,15.269
10:38:25:826,28.062,-0.021,-0.014,0.012,8.180,-19.676,15.145
10:38:25:852,28.088,-0.023,-0.016,0.007,8.169,-19.755,15.104
10:38:25:877,28.113,-0.025,-0.017,-0.005,8.211,-19.794,15.123
10:38:25:903,28.139,-0.010,-0.005,-0.010,8.252,-19.827,15.160
10:38:25:929,28.166,0.002,-0.007,-0.011,8.312,-19.951,15.203
10:38:25:956,28.192,0.021,-0.011,-0.021,8.305,-20.013,15.259
10:38:26:011,28.247,0.022,-0.010,-0.024,8.258,-19.968,15.292
10:38:26:012,28.248,0.015,0.001,-0.013,8.131,-19.825,15.307
10:38:26:034,28.271,-0.002,-0.004,-0.006,8.056,-19.736,15.307
10:38:26:061,28.297,0.002,0.001,0.010,7.952,-19.721,15.316
10:38:26:087,28.323,0.002,0.003,0.012,7.893,-19.714,15.336
10:38:26:172,28.408,-0.009,0.007,0.025,7.850,-19.697,15.348
10:38:26:172,28.408,-0.010,0.003,0.005,7.880,-19.722,15.314
10:38:26:175,28.412,-0.004,0.000,0.007,7.894,-19.760,15.277
10:38:26:192,28.428,-0.004,0.005,-0.016,7.920,-19.764,15.223
10:38:26:305,28.541,-0.002,-0.007,-0.005,7.950,-19.786,15.218
10:38:26:306,28.542,0.003,-0.015,-0.009,7.968,-19.856,15.237
10:38:26:307,28.543,0.011,-0.014,0.005,7.981,-19.915,15.278
10:38:26:308,28.544,0.017,-0.005,-0.002,7.979,-19.928,15.291
10:38:26:324,28.560,0.010,-0.004,0.008,7.955,-19.915,15.256
10:38:26:351,28.587,0.001,-0.005,0.000,7.940,-19.878,15.224
10:38:26:376,28.612,-0.006,0.010,0.005,7.892,-19.836,15.168
10:38:26:402,28.638,-0.005,0.015,0.007,7.882,-19.854,15.109
10:38:26:428,28.664,0.001,0.020,0.011,7.936,-19.959,14.985
10:38:26:455,28.691,0.004,0.020,0.017,8.008,-20.052,14.847
10:38:26:48,28.717,0.000,-0.002,0.021,8.047,-20.077,14.762
10:38:26:507,28.743,0.003,-0.020,0.008,8.080,-20.083,14.661
10:38:26:533,28.770,0.003,-0.024,0.011,8.105,-20.043,14.599
10:38:26:59,28.827,0.010,-0.026,-0.010,8.140,-19.932,14.515
10:38:26:59,28.827,0.016,-0.022,-0.011,8.160,-19.777,14.382
10:38:26:613,28.849,0.028,-0.017,-0.026,8.141,-19.653,14.232
10:38:26:638,28.874,0.029,-0.010,-0.021,8.048,-19.434,13.968
10:38:26:664,28.901,0.043,0.044,-0.006,7.938,-19.287,13.788
10:38:26:719,28.956,0.031,0.033,0.025,7.777,-19.180,13.415
10:38:26:72,28.957,-0.014,-0.006,0.046,7.673,-19.111,13.058
10:38:26:745,28.981,-0.039,-0.017,0.044,7.528,-18.942,12.499
10:38:26:77,29.006,-0.079,-0.031,0.019,7.415,-18.682,12.069
10:38:26:798,29.035,-0.074,-0.027,0.002,7.405,-18.508,11.838
10:38:26:799,29.036,-0.053,-0.004,-0.020,7.435,-18.273,11.611
10:38:26:854,29.091,-0.045,0.011,-0.038,7.454,-18.133,11.539
10:38:26:855,29.091,-0.046,0.022,-0.046,7.447,-17.968,11.515
10:38:26:875,29.111,-0.033,0.039,-0.042,7.417,-18.127,11.506
10:38:26:901,29.137,-0.036,0.063,0.011,7.420,-18.463,11.392
10:38:26:927,29.163,-0.056,0.075,0.035,7.461,-19.188,11.010
10:38:27:011,29.247,-0.097,0.038,0.025,7.461,-19.588,10.960
10:38:27:012,29.248,-0.051,-0.033,0.036,7.569,-20.193,11.120
10:38:27:013,29.249,-0.056,-0.068,0.064,7.766,-20.588,11.374
10:38:27:172,29.408,0.026,-0.055,0.067,8.184,-21.244,12.079
10:38:27:173,29.410,0.072,-0.055,0.038,8.580,-21.617,12.965
10:38:27:174,29.410,0.069,-0.044,-0.029,8.765,-21.425,13.593
10:38:27:175,29.411,0.038,-0.043,-0.067,8.868,-20.679,14.289
10:38:27:252,29.488,0.013,-0.080,-0.069,8.901,-20.253,14.467
10:38:27:252,29.488,-0.012,-0.070,-0.053,8.838,-20.054,14.244
10:38:27:273,29.509,-0.071,0.024,-0.012,8.384,-23.315,11.789
10:38:27:273,29.510,-0.055,0.034,-0.009,8.415,-25.085,11.161
10:38:27:294,29.531,-0.013,0.028,0.013,8.595,-27.453,10.546
10:38:27:321,29.557,0.015,0.027,0.040,8.794,-28.742,10.439
10:38:27:376,29.612,0.032,0.032,0.030,9.045,-29.675,10.804
10:38:27:377,29.613,0.008,0.018,-0.007,9.144,-29.138,11.738
10:38:27:428,29.664,0.002,0.002,-0.039,9.162,-28.491,12.483
10:38:27:429,29.665,0.032,-0.018,-0.034,9.179,-27.657,13.564
10:38:27:453,29.689,0.041,-0.040,-0.031,9.179,-27.296,14.165
10:38:27:478,29.715,0.025,-0.036,-0.037,9.166,-26.878,14.853
10:38:27:505,29.741,0.026,-0.026,-0.018,9.131,-27.039,15.147
10:38:27:56,29.796,0.051,-0.015,0.003,9.130,-27.356,15.157
10:38:27:56,29.796,0.065,0.005,0.020,9.173,-27.761,15.120
10:38:27:584,29.821,0.055,0.010,0.022,9.183,-27.792,15.084
10:38:27:609,29.845,0.051,0.018,0.034,9.184,-27.759,14.941
10:38:27:636,29.872,0.058,0.006,0.043,9.192,-27.536,14.805
10:38:27:662,29.898,0.056,0.001,0.055,9.235,-27.239,14.720
10:38:27:717,29.953,0.041,-0.008,0.040,9.314,-26.202,14.653
10:38:27:718,29.954,0.014,-0.003,0.027,9.323,-25.398,14.712
10:38:27:741,29.977,-0.018,-0.006,-0.011,9.280,-24.279,14.762
10:38:27:767,30.004,-0.022,-0.012,-0.018,9.269,-23.972,14.696
10:38:27:793,30.029,-0.016,-0.025,-0.028,9.361,-23.907,14.449
10:38:27:82,30.056,0.027,-0.027,0.015,9.496,-24.132,14.029
10:38:27:845,30.082,0.011,-0.022,-0.007,9.544,-24.149,13.705
10:38:27:872,30.108,-0.016,-0.016,-0.015,9.561,-23.907,13.257
10:38:27:898,30.135,-0.024,-0.001,-0.023,9.558,-23.718,12.943
10:38:27:924,30.160,-0.043,0.008,-0.024,9.511,-23.285,12.600
10:38:27:98,30.216,-0.045,0.013,-0.021,9.457,-22.995,12.380
10:38:27:98,30.216,-0.047,0.013,-0.018,9.429,-22.867,12.315
10:38:28:003,30.239,-0.035,0.007,-0.011,9.401,-22.647,12.335
10:38:28:029,30.266,-0.041,0.005,0.002,9.417,-22.407,12.419
10:38:28:056,30.292,-0.036,0.002,-0.009,9.429,-21.902,12.682
10:38:28:111,30.347,-0.035,0.004,-0.002,9.430,-21.526,12.900
10:38:28:112,30.348,-0.013,0.003,-0.005,9.433,-21.092,13.219
10:38:28:135,30.371,-0.006,-0.004,0.002,9.410,-20.707,13.509
10:38:28:19,30.426,-0.010,-0.008,0.004,9.393,-20.458,13.669
10:38:28:191,30.427,-0.006,-0.015,0.006,9.356,-20.205,13.857
10:38:28:266,30.502,-0.008,-0.023,0.007,9.327,-20.085,13.928
10:38:28:298,30.534,-0.013,-0.024,0.009,9.294,-19.920,13.977
10:38:28:298,30.534,-0.020,-0.012,0.004,9.267,-19.773,13.982
10:38:28:299,30.535,-0.024,-0.005,0.002,9.244,-19.719,13.960
10:38:28:347,30.584,-0.020,0.001,0.003,9.145,-19.721,13.867
10:38:28:348,30.585,-0.024,-0.003,-0.010,9.100,-19.723,13.774
10:38:28:372,30.608,-0.018,0.007,0.002,9.028,-19.788,13.601
10:38:28:397,30.634,-0.035,-0.002,-0.005,8.991,-19.838,13.481
10:38:28:482,30.718,-0.035,-0.006,0.003,8.962,-19.921,13.460
10:38:28:482,30.718,-0.005,-0.009,-0.010,8.950,-20.156,13.482
10:38:28:483,30.719,-0.004,-0.003,-0.005,8.944,-20.319,13.495
10:38:28:502,30.738,0.001,-0.009,-0.016,8.958,-20.478,13.569
10:38:28:528,30.765,-0.007,-0.002,-0.016,8.952,-20.485,13.613
10:38:28:583,30.820,0.005,-0.007,-0.021,8.937,-20.462,13.680
10:38:28:584,30.821,0.004,0.000,-0.014,8.922,-20.470,13.683
10:38:28:607,30.844,0.010,0.001,-0.016,8.886,-20.535,13.673
10:38:28:634,30.870,-0.003,0.001,-0.001,8.838,-20.597,13.664
10:38:28:659,30.896,0.014,-0.004,0.006,8.803,-20.657,13.659
10:38:28:686,30.922,0.008,0.002,0.021,8.773,-20.745,13.634
10:38:28:712,30.948,0.012,0.003,0.024,8.787,-20.773,13.620
10:38:28:738,30.975,0.011,0.009,0.032,8.808,-20.785,13.585
10:38:28:793,31.030,0.004,0.002,0.022,8.884,-20.748,13.501
10:38:28:794,31.031,0.007,-0.007,0.010,8.932,-20.858,13.456
10:38:28:817,31.053,0.006,-0.004,-0.003,8.966,-20.814,13.372
10:38:28:843,31.079,0.002,-0.002,-0.003,8.999,-20.795,13.336
10:38:28:869,31.106,0.004,-0.003,-0.011,9.051,-20.796,13.278
10:38:28:898,31.134,0.000,-0.004,-0.009,9.097,-20.805,13.228
10:38:28:922,31.159,0.002,-0.010,-0.014,9.106,-20.775,13.194
10:38:28:948,31.184,0.004,-0.013,-0.012,9.096,-20.715,13.147
10:38:28:978,31.214,0.004,-0.012,-0.005,9.075,-20.669,13.124
10:38:28:978,31.214,-0.002,-0.010,0.000,9.055,-20.637,13.101
10:38:29:03,31.266,-0.003,-0.010,-0.001,9.023,-20.525,13.097
10:38:29:031,31.267,-0.017,-0.005,-0.005,9.013,-20.478,13.103
10:38:29:08,31.316,-0.018,-0.003,-0.007,8.994,-20.393,13.132
10:38:29:109,31.345,-0.012,-0.008,-0.007,8.980,-20.319,13.158
10:38:29:109,31.346,0.008,-0.015,0.010,8.969,-20.290,13.147
10:38:29:19,31.426,-0.003,-0.004,-0.003,8.958,-20.239,13.124
10:38:29:191,31.427,-0.021,0.001,-0.008,8.930,-20.105,13.142
10:38:29:192,31.428,-0.011,-0.007,-0.013,8.919,-20.065,13.154
10:38:29:211,31.447,-0.006,-0.004,-0.003,8.920,-20.088,13.177
10:38:29:238,31.474,-0.008,-0.010,-0.003,8.923,-20.114,13.203
10:38:29:263,31.499,0.000,-0.006,0.000,8.923,-20.144,13.233
10:38:29:318,31.554,0.007,0.002,-0.004,8.901,-20.209,13.238
10:38:29:319,31.555,-0.005,-0.008,-0.001,8.881,-20.260,13.231
10:38:29:371,31.607,-0.002,-0.007,-0.008,8.872,-20.306,13.223
10:38:29:372,31.608,-0.001,-0.005,0.000,8.865,-20.384,13.209
10:38:29:396,31.632,0.003,-0.008,-0.003,8.864,-20.436,13.204
10:38:29:421,31.657,-0.004,-0.007,0.002,8.846,-20.501,13.195
10:38:29:447,31.683,-0.003,-0.005,-0.004,8.830,-20.531,13.210
10:38:29:473,31.709,-0.007,-0.004,0.001,8.805,-20.572,13.205
10:38:29:499,31.736,-0.010,-0.004,-0.004,8.798,-20.601,13.215
10:38:29:527,31.763,-0.008,0.000,0.006,8.805,-20.614,13.223
10:38:29:552,31.788,-0.008,-0.003,0.002,8.800,-20.585,13.232
10:38:29:578,31.815,-0.012,-0.004,0.000,8.794,-20.550,13.259
10:38:29:634,31.870,-0.005,-0.004,-0.003,8.792,-20.493,13.308
10:38:29:634,31.870,-0.008,-0.001,0.002,8.797,-20.404,13.358
10:38:29:657,31.893,-0.016,0.001,-0.005,8.799,-20.342,13.388
10:38:29:683,31.919,-0.009,-0.005,-0.003,8.800,-20.335,13.428
10:38:29:709,31.945,-0.008,-0.004,-0.002,8.803,-20.346,13.450
10:38:29:764,32.001,-0.013,-0.006,0.000,8.811,-20.371,13.446
10:38:29:765,32.002,-0.006,-0.007,0.004,8.822,-20.449,13.462
10:38:29:789,32.025,-0.006,-0.004,0.004,8.814,-20.503,13.472
10:38:29:814,32.051,-0.006,-0.007,0.001,8.826,-20.529,13.494
10:38:29:841,32.077,-0.003,-0.010,-0.009,8.822,-20.528,13.508
10:38:29:896,32.133,-0.005,0.002,-0.002,8.842,-20.524,13.539
10:38:29:897,32.133,-0.005,-0.003,-0.007,8.850,-20.527,13.552
10:38:29:919,32.155,-0.005,-0.001,-0.002,8.868,-20.503,13.578
10:38:29:946,32.183,-0.002,-0.008,-0.005,8.872,-20.478,13.610
10:38:30:025,32.261,-0.007,-0.006,0.002,8.879,-20.478,13.630
10:38:30:054,32.290,0.000,-0.003,-0.001,8.885,-20.485,13.657
10:38:30:055,32.291,0.000,-0.001,0.005,8.881,-20.484,13.670
10:38:30:165,32.401,0.001,-0.005,-0.006,8.881,-20.484,13.670
10:38:30:166,32.402,0.000,-0.009,0.003,8.884,-20.473,13.669
10:38:30:214,32.450,-0.005,-0.007,-0.004,8.859,-20.370,13.683
10:38:30:215,32.451,-0.006,-0.008,-0.001,8.846,-20.301,13.691
10:38:30:215,32.452,-0.002,-0.005,-0.003,8.835,-20.261,13.703
10:38:30:293,32.529,-0.004,-0.006,0.001,8.817,-20.182,13.714
10:38:30:293,32.529,-0.007,-0.002,0.001,8.799,-20.103,13.724
10:38:30:294,32.530,-0.008,-0.001,0.006,8.785,-20.059,13.733
10:38:30:314,32.551,-0.007,-0.002,-0.002,8.767,-19.980,13.743
10:38:30:34,32.576,-0.012,0.001,0.005,8.757,-19.934,13.749
10:38:30:366,32.602,-0.009,-0.010,-0.002,8.746,-19.894,13.761
10:38:30:392,32.628,-0.013,-0.002,0.008,8.746,-19.894,13.761
10:38:30:418,32.654,-0.010,-0.005,0.005,8.749,-19.901,13.754
10:38:30:444,32.681,-0.003,-0.001,-0.003,8.739,-19.942,13.765
10:38:30:472,32.708,-0.010,0.004,0.002,8.727,-19.966,13.759
10:38:30:527,32.764,-0.010,-0.003,0.000,8.736,-19.992,13.748
10:38:30:527,32.764,-0.011,-0.008,-0.002,8.742,-20.021,13.739
10:38:30:578,32.815,-0.009,-0.007,0.003,8.730,-20.097,13.727
10:38:30:579,32.816,-0.002,-0.001,0.005,8.714,-20.203,13.712
10:38:30:602,32.838,-0.001,-0.001,0.009,8.714,-20.282,13.700
10:38:30:628,32.864,-0.012,-0.003,-0.004,8.701,-20.361,13.677
10:38:30:656,32.892,0.004,-0.009,0.003,8.706,-20.424,13.668
10:38:30:71,32.946,-0.010,-0.014,0.000,8.694,-20.458,13.639
10:38:30:711,32.947,-0.005,-0.009,-0.006,8.645,-20.478,13.660
10:38:30:733,32.969,-0.002,-0.011,0.002,8.612,-20.513,13.654
10:38:30:759,32.995,-0.003,-0.007,-0.012,8.583,-20.542,13.647
10:38:30:786,33.022,0.002,-0.005,-0.008,8.553,-20.566,13.640
10:38:30:866,33.102,-0.001,-0.005,-0.005,8.507,-20.593,13.607
10:38:30:896,33.133,-0.006,-0.008,0.002,8.436,-20.577,13.600
10:38:30:897,33.134,-0.007,-0.006,-0.005,8.387,-20.547,13.604
10:38:30:898,33.134,-0.011,-0.006,0.004,8.314,-20.499,13.603
10:38:30:917,33.153,-0.010,-0.005,-0.003,8.269,-20.478,13.593
10:38:31:031,33.267,-0.011,-0.002,0.007,8.222,-20.466,13.578
10:38:31:031,33.267,-0.008,-0.001,-0.002,8.189,-20.456,13.584
10:38:31:032,33.268,-0.013,0.005,0.005,8.173,-20.436,13.582
10:38:31:033,33.269,-0.009,0.002,0.000,8.168,-20.406,13.591
10:38:31:048,33.284,-0.003,-0.001,0.007,8.165,-20.388,13.610
10:38:31:132,33.369,0.000,0.002,0.005,8.160,-20.324,13.665
10:38:31:133,33.370,-0.003,-0.001,0.009,8.170,-20.280,13.684
10:38:31:134,33.371,0.004,-0.004,0.001,8.177,-20.217,13.721
10:38:31:153,33.389,-0.003,-0.002,0.013,8.189,-20.149,13.731
10:38:31:18,33.416,-0.018,0.011,0.008,8.206,-20.109,13.740
10:38:31:205,33.442,0.004,-0.017,0.001,8.282,-20.126,13.792
10:38:31:232,33.468,0.004,0.002,0.001,8.276,-20.179,13.825
10:38:31:258,33.494,0.005,-0.002,0.004,8.286,-20.214,13.784
10:38:31:285,33.522,-0.002,-0.007,-0.002,8.329,-20.153,13.784
10:38:31:314,33.550,0.002,-0.002,0.001,8.330,-20.071,13.760
10:38:31:314,33.550,-0.015,-0.004,-0.001,8.346,-19.933,13.729
10:38:31:366,33.602,-0.003,-0.005,-0.011,8.354,-19.879,13.718
10:38:31:367,33.603,-0.008,-0.007,-0.005,8.372,-19.810,13.709
10:38:31:39,33.626,0.003,-0.008,-0.002,8.382,-19.755,13.720
10:38:31:417,33.653,0.000,-0.005,0.004,8.378,-19.640,13.735
10:38:31:472,33.709,-0.002,-0.005,-0.002,8.359,-19.481,13.746
10:38:31:472,33.709,-0.004,-0.005,0.004,8.336,-19.369,13.748
10:38:31:494,33.731,-0.013,-0.002,0.000,8.301,-19.233,13.766
10:38:31:523,33.759,-0.013,-0.001,0.008,8.285,-19.186,13.771
10:38:31:576,33.812,-0.012,-0.005,0.003,8.275,-19.149,13.775
10:38:31:577,33.813,-0.011,-0.005,0.003,8.279,-19.157,13.779
10:38:31:6,33.837,-0.011,-0.008,-0.003,8.280,-19.184,13.773
10:38:31:626,33.862,-0.014,-0.010,0.001,8.264,-19.259,13.775
10:38:31:652,33.888,-0.004,0.006,-0.005,8.264,-19.334,13.792
10:38:31:678,33.915,-0.007,0.012,0.004,8.289,-19.403,13.826
10:38:31:704,33.940,0.004,-0.006,0.000,8.310,-19.407,13.878
10:38:31:73,33.967,0.004,-0.008,0.003,8.363,-19.357,13.967
10:38:31:758,33.994,0.002,-0.012,-0.002,8.401,-19.227,14.075
10:38:31:784,34.020,0.001,-0.011,0.002,8.412,-19.124,14.140
10:38:31:809,34.045,0.007,-0.006,-0.005,8.414,-19.002,14.215
10:38:31:835,34.072,0.002,-0.011,-0.003,8.399,-18.917,14.253
10:38:31:862,34.098,-0.004,-0.005,0.006,8.359,-18.805,14.286
10:38:31:917,34.153,-0.010,0.000,-0.001,8.332,-18.727,14.300
10:38:31:943,34.180,-0.011,-0.002,0.008,8.299,-18.684,14.306
10:38:31:944,34.181,-0.017,-0.001,0.007,8.259,-18.639,14.311
10:38:31:996,34.232,-0.016,0.005,0.011,8.237,-18.632,14.316
10:38:31:997,34.233,-0.015,-0.001,-0.002,8.228,-18.624,14.322
10:38:32:02,34.256,-0.021,-0.006,-0.004,8.205,-18.612,14.345
10:38:32:133,34.369,-0.009,-0.006,0.004,8.207,-18.682,14.367
10:38:32:134,34.370,-0.007,-0.005,-0.002,8.202,-18.797,14.405
10:38:32:134,34.371,-0.013,0.007,-0.003,8.204,-18.882,14.433
10:38:32:135,34.372,0.019,0.003,0.006,8.250,-19.039,14.455
10:38:32:151,34.387,-0.007,0.002,-0.008,8.274,-19.135,14.448
10:38:32:177,34.413,0.010,-0.007,0.004,8.317,-19.205,14.489
10:38:32:291,34.527,0.019,-0.008,0.000,8.344,-19.249,14.521
10:38:32:292,34.528,0.016,-0.008,0.008,8.347,-19.249,14.555
10:38:32:292,34.528,0.022,-0.016,0.000,8.339,-19.216,14.560
10:38:32:293,34.529,0.013,-0.009,0.000,8.306,-19.121,14.571
10:38:32:308,34.544,-0.008,-0.004,-0.008,8.268,-18.878,14.597
10:38:32:363,34.600,-0.006,-0.005,-0.004,8.253,-18.732,14.594
10:38:32:364,34.600,-0.010,-0.009,-0.010,8.227,-18.693,14.590
10:38:32:418,34.654,-0.007,-0.004,0.005,8.215,-18.694,14.561
10:38:32:418,34.654,-0.015,0.004,0.001,8.187,-18.650,14.576
10:38:32:439,34.676,-0.013,0.004,0.007,8.164,-18.640,14.588
10:38:32:466,34.702,-0.007,0.002,0.000,8.137,-18.649,14.609
10:38:32:492,34.728,-0.009,0.000,0.009,8.145,-18.700,14.646
10:38:32:518,34.754,-0.002,-0.008,0.004,8.174,-18.795,14.648
10:38:32:545,34.781,0.003,-0.007,0.004,8.181,-18.834,14.649
10:38:32:571,34.807,0.004,-0.011,-0.003,8.196,-18.825,14.647
10:38:32:597,34.833,0.010,-0.014,0.000,8.189,-18.776,14.669
10:38:32:623,34.859,0.005,-0.018,-0.017,8.166,-18.663,14.692
10:38:32:679,34.915,0.022,0.000,0.006,8.153,-18.613,14.693
10:38:32:679,34.915,0.012,0.002,-0.013,8.123,-18.525,14.698
10:38:32:703,34.939,0.004,-0.002,0.010,8.084,-18.381,14.684
10:38:32:728,34.965,-0.020,-0.010,0.005,8.037,-18.246,14.673
10:38:32:755,34.991,-0.013,-0.010,0.008,7.983,-18.132,14.626
10:38:32:781,35.017,-0.018,-0.005,0.007,7.949,-18.083,14.591
10:38:32:807,35.043,-0.029,-0.003,0.005,7.924,-18.022,14.528
10:38:32:833,35.069,-0.030,0.000,0.006,7.917,-18.029,14.515
10:38:32:859,35.096,-0.021,-0.001,0.009,7.941,-18.083,14.491
10:38:32:944,35.180,-0.029,0.006,-0.003,7.969,-18.120,14.517
10:38:32:945,35.181,-0.018,0.011,-0.009,7.991,-18.147,14.546
10:38:32:945,35.182,-0.024,0.012,-0.004,7.998,-18.173,14.628
10:38:32:964,35.200,-0.009,0.001,0.004,8.045,-18.237,14.669
10:38:32:991,35.227,-0.007,-0.011,0.015,8.112,-18.348,14.720
10:38:33:018,35.254,-0.008,-0.012,0.013,8.165,-18.446,14.809
10:38:33:072,35.308,-0.001,-0.014,0.020,8.201,-18.527,14.865
10:38:33:073,35.309,-0.005,-0.009,0.003,8.243,-18.612,14.978
10:38:33:126,35.362,-0.018,-0.002,0.004,8.275,-18.657,15.055
10:38:33:126,35.362,-0.012,0.001,-0.009,8.348,-18.826,15.174
10:38:33:207,35.443,-0.005,-0.009,0.001,8.446,-19.081,15.309
10:38:33:207,35.443,-0.001,-0.028,-0.012,8.496,-19.227,15.412
10:38:33:208,35.444,-0.025,-0.025,0.006,8.504,-19.418,15.579
10:38:33:227,35.464,-0.005,-0.016,0.008,8.505,-19.784,15.681
10:38:33:253,35.489,-0.004,0.006,0.018,8.495,-20.158,15.670
10:38:33:309,35.545,-0.027,0.016,-0.004,8.486,-20.512,15.731
10:38:33:309,35.545,-0.014,0.011,0.009,8.532,-20.739,15.766
10:38:33:332,35.568,0.001,0.013,-0.004,8.633,-20.987,15.878
10:38:33:36,35.596,0.004,0.022,-0.004,8.722,-21.149,15.943
10:38:33:384,35.621,0.030,0.016,-0.011,8.865,-21.328,16.120
10:38:33:411,35.647,0.041,-0.014,-0.009,8.980,-21.377,16.318
10:38:33:437,35.673,0.048,-0.028,-0.019,9.045,-21.344,16.455
10:38:33:463,35.699,0.052,-0.005,-0.016,9.052,-21.252,16.522
10:38:33:522,35.758,0.040,-0.007,0.004,8.978,-21.220,16.454
10:38:33:522,35.758,0.053,-0.016,0.015,8.923,-21.242,16.289
10:38:33:523,35.759,0.030,-0.002,0.021,8.831,-21.046,16.095
10:38:33:572,35.808,0.007,-0.007,0.022,8.774,-20.794,16.053
10:38:33:572,35.808,-0.004,-0.011,0.022,8.714,-20.464,16.001
10:38:33:622,35.858,0.000,-0.006,0.005,8.713,-20.267,15.954
10:38:33:65,35.886,-0.008,-0.010,0.001,8.692,-19.872,15.898
10:38:33:65,35.886,-0.014,-0.019,-0.010,8.703,-19.574,15.861
10:38:33:674,35.911,0.004,-0.017,-0.004,8.712,-19.257,15.790
10:38:33:7,35.936,-0.002,0.001,-0.014,8.674,-18.881,15.680
10:38:33:726,35.962,-0.024,0.007,-0.002,8.622,-18.605,15.619
10:38:33:811,36.047,-0.031,-0.001,0.002,8.545,-18.307,15.524
10:38:33:811,36.047,-0.036,0.012,0.019,8.518,-18.178,15.451
10:38:33:812,36.048,-0.053,0.006,0.014,8.541,-17.982,15.392
10:38:33:831,36.067,-0.048,0.004,0.023,8.589,-17.879,15.396
10:38:33:857,36.093,-0.050,0.002,0.005,8.686,-17.763,15.445
10:38:33:913,36.149,-0.028,-0.002,0.008,8.833,-17.782,15.519
10:38:33:913,36.149,-0.018,0.002,-0.006,8.911,-17.821,15.549
10:38:33:936,36.172,-0.021,0.000,-0.006,9.014,-17.812,15.624
10:38:33:962,36.198,0.002,-0.013,-0.011,9.083,-17.808,15.682
10:38:33:989,36.225,0.016,-0.008,-0.017,9.167,-17.752,15.789
10:38:34:016,36.253,0.010,-0.019,-0.014,9.200,-17.623,15.901
10:38:34:042,36.278,0.012,-0.012,0.002,9.189,-17.630,15.959
10:38:34:096,36.333,0.041,-0.005,0.024,9.128,-17.865,15.921
10:38:34:097,36.334,0.015,-0.005,0.027,9.065,-17.917,15.860
10:38:34:119,36.356,-0.030,-0.005,0.012,8.961,-17.884,15.756
10:38:34:146,36.382,-0.040,0.007,0.008,8.927,-17.992,15.610
10:38:34:172,36.408,-0.041,0.008,-0.017,8.933,-18.128,15.502
10:38:34:2,36.436,0.000,0.012,0.009,9.008,-18.621,15.362
10:38:34:226,36.463,0.007,0.005,-0.005,9.057,-18.975,15.234
10:38:34:278,36.514,-0.008,-0.013,-0.008,9.105,-19.230,15.085
10:38:34:303,36.540,-0.003,-0.007,-0.015,9.104,-19.419,15.067
10:38:34:359,36.595,-0.008,-0.003,-0.007,9.097,-19.626,15.128
10:38:34:36,36.596,-0.006,-0.008,-0.014,9.108,-19.817,15.175
10:38:34:382,36.618,0.009,-0.016,-0.014,9.122,-20.282,15.231
10:38:34:408,36.644,0.033,-0.011,-0.003,9.121,-20.605,15.231
10:38:34:435,36.671,0.016,-0.004,-0.007,9.099,-20.854,15.209
10:38:34:46,36.697,0.008,-0.003,-0.015,9.054,-21.035,15.096
10:38:34:487,36.723,0.006,0.003,-0.005,9.037,-21.177,15.011
10:38:34:514,36.751,0.011,0.008,-0.007,9.024,-21.325,14.922
10:38:34:54,36.776,0.012,0.000,0.005,9.015,-21.381,14.911
10:38:34:567,36.803,0.028,-0.008,0.011,9.018,-21.394,14.957
10:38:34:621,36.857,0.034,-0.013,0.019,9.010,-21.323,15.020
10:38:34:622,36.858,0.042,-0.017,0.012,8.991,-21.244,15.031
10:38:34:645,36.881,0.038,-0.015,0.018,8.933,-21.046,14.987
10:38:34:672,36.909,0.027,-0.011,0.001,8.884,-20.869,14.960
10:38:34:697,36.933,0.017,-0.008,0.008,8.813,-20.715,14.882
10:38:34:752,36.988,0.004,-0.015,0.002,8.771,-20.652,14.816
10:38:34:753,36.989,-0.004,-0.007,0.001,8.689,-20.545,14.697
10:38:34:806,37.042,-0.021,0.009,-0.004,8.600,-20.448,14.545
10:38:34:806,37.043,-0.029,0.008,0.001,8.555,-20.456,14.434
10:38:34:828,37.064,-0.025,0.006,-0.009,8.520,-20.547,14.260
10:38:34:854,37.091,-0.033,0.008,-0.019,8.508,-20.586,14.154
10:38:34:881,37.117,-0.042,0.007,0.010,8.559,-20.607,14.079
10:38:34:907,37.143,-0.027,-0.009,0.020,8.740,-20.822,14.000
10:38:34:934,37.170,-0.017,0.000,0.022,8.815,-20.940,13.976
10:38:35:018,37.254,-0.005,0.007,0.000,8.899,-21.030,14.028
10:38:35:018,37.254,-0.003,0.001,0.005,8.912,-21.063,14.115
10:38:35:019,37.255,0.007,-0.010,0.016,9.018,-21.171,14.197
10:38:35:038,37.274,0.017,-0.004,0.006,9.083,-21.225,14.256
10:38:35:065,37.301,0.030,-0.009,0.004,9.187,-21.244,14.321
10:38:35:091,37.327,0.030,-0.007,-0.001,9.239,-21.204,14.386
10:38:35:118,37.354,0.028,-0.001,-0.003,9.244,-21.152,14.426
10:38:35:145,37.381,0.039,-0.011,0.009,9.215,-21.113,14.448
10:38:35:171,37.407,0.040,-0.024,0.002,9.198,-21.089,14.417
10:38:35:226,37.462,0.034,-0.029,0.006,9.148,-20.957,14.321
10:38:35:226,37.462,-0.003,-0.035,-0.016,9.033,-20.718,14.250
10:38:35:248,37.484,-0.008,0.001,-0.014,8.961,-20.595,14.161
10:38:35:274,37.511,0.011,0.018,-0.015,8.918,-20.504,13.826
10:38:35:33,37.566,-0.008,0.008,-0.005,8.894,-20.362,13.564
10:38:35:33,37.567,-0.017,0.024,-0.010,8.821,-19.897,13.209
10:38:35:354,37.590,-0.025,0.031,-0.007,8.747,-19.326,12.970
10:38:35:38,37.616,-0.002,0.029,-0.015,8.677,-18.994,12.901
10:38:35:406,37.642,-0.009,-0.010,0.012,8.560,-18.550,12.812
10:38:35:463,37.699,-0.005,0.000,0.004,8.477,-18.304,12.727
10:38:35:463,37.699,0.011,-0.010,0.005,8.301,-18.104,12.549
10:38:35:484,37.721,0.052,0.045,-0.062,8.179,-17.929,12.160
10:38:35:511,37.747,0.047,0.080,-0.047,8.057,-17.709,11.748
10:38:35:537,37.773,-0.022,0.015,0.013,7.912,-17.259,10.906
10:38:35:565,37.801,-0.086,-0.021,0.044,7.709,-16.937,10.360
10:38:35:591,37.827,-0.131,-0.050,0.067,7.379,-16.632,9.409
10:38:35:616,37.853,-0.154,-0.036,0.092,6.957,-16.770,8.546
10:38:35:642,37.878,-0.182,-0.006,0.056,6.638,-17.097,8.081
10:38:35:668,37.905,-0.130,-0.022,-0.012,6.320,-18.111,7.582
10:38:35:695,37.931,-0.100,-0.047,-0.030,6.243,-19.086,7.382
10:38:35:723,37.959,-0.066,-0.028,-0.052,6.294,-20.494,7.288
10:38:35:747,37.983,-0.036,-0.015,-0.061,6.354,-21.322,7.372
10:38:35:774,38.011,-0.010,-0.030,-0.059,6.473,-22.408,7.632
10:38:35:858,38.094,0.030,-0.065,-0.057,6.514,-23.087,8.011
10:38:35:859,38.095,0.026,-0.061,-0.046,6.471,-23.275,8.274
10:38:35:859,38.095,0.013,-0.035,-0.020,6.188,-23.649,8.691
10:38:35:878,38.114,0.060,-0.012,0.022,5.952,-24.316,8.953
10:38:35:905,38.142,0.068,0.018,0.058,5.606,-25.809,9.201
10:38:35:932,38.168,0.091,0.021,0.075,5.411,-27.458,9.195
10:38:35:989,38.225,0.022,0.020,0.054,5.497,-28.118,9.010
10:38:35:99,38.226,-0.007,0.049,0.031,5.800,-29.068,8.625
10:38:35:991,38.227,-0.021,0.024,0.015,6.169,-29.700,8.388
10:38:36:009,38.246,0.014,0.008,-0.001,6.694,-30.560,8.343
10:38:36:036,38.272,0.036,-0.029,0.021,7.003,-30.753,8.564
10:38:36:121,38.357,0.000,-0.040,-0.024,7.462,-30.065,9.254
10:38:36:121,38.357,-0.025,-0.013,-0.050,7.922,-28.779,10.217
10:38:36:122,38.358,0.003,0.012,-0.050,8.234,-28.075,10.895
10:38:36:141,38.378,0.024,0.003,-0.040,8.701,-26.999,11.874
10:38:36:167,38.403,0.035,-0.001,-0.055,8.926,-26.239,12.496
10:38:36:252,38.488,0.041,0.002,-0.049,9.089,-25.135,13.298
10:38:36:252,38.488,0.044,-0.003,-0.041,9.165,-24.233,13.956
10:38:36:253,38.489,0.041,-0.002,-0.029,9.202,-23.773,14.345
10:38:36:272,38.508,0.060,0.006,-0.012,9.186,-23.308,14.769
10:38:36:328,38.564,0.066,-0.014,0.001,9.128,-23.023,14.948
10:38:36:329,38.565,0.050,-0.033,0.003,9.049,-22.481,15.376
10:38:36:38,38.616,0.032,-0.014,0.022,8.963,-22.192,15.681
10:38:36:381,38.617,0.109,-0.030,0.107,8.901,-22.180,16.028
10:38:36:432,38.668,0.107,-0.015,0.119,8.734,-21.255,16.270
10:38:36:433,38.669,0.043,0.011,0.093,8.571,-20.007,16.407
10:38:36:456,38.692,-0.032,0.003,0.051,8.378,-17.722,16.480
10:38:36:482,38.718,-0.094,0.021,-0.002,8.257,-16.608,16.411
10:38:36:51,38.746,-0.091,0.007,-0.019,8.209,-16.457,15.954
10:38:36:563,38.799,0.040,-0.066,0.049,8.566,-17.761,15.227
10:38:36:564,38.800,0.057,-0.056,0.043,8.815,-18.299,14.699
10:38:36:587,38.823,0.009,-0.016,-0.004,9.006,-18.196,14.079
10:38:36:613,38.850,-0.002,-0.006,-0.023,9.103,-17.927,13.676
10:38:36:64,38.876,-0.007,-0.002,-0.018,9.189,-17.467,13.088
10:38:36:665,38.902,-0.027,0.004,-0.038,9.192,-17.098,12.711
10:38:36:693,38.929,-0.048,0.018,-0.038,9.109,-16.554,12.184
10:38:36:718,38.954,-0.046,0.008,-0.037,8.995,-16.241,11.755
10:38:36:744,38.981,-0.049,0.006,-0.023,8.897,-16.175,11.487
10:38:36:8,39.036,-0.058,0.009,-0.011,8.758,-16.091,11.221
10:38:36:8,39.037,-0.069,0.001,0.003,8.666,-16.009,11.179
10:38:36:825,39.061,-0.063,0.009,0.012,8.578,-15.894,11.324
10:38:36:85,39.086,-0.067,0.002,0.034,8.564,-15.578,11.583
10:38:36:876,39.113,-0.065,-0.002,0.032,8.604,-15.335,11.819
10:38:36:903,39.139,-0.050,-0.009,0.044,8.727,-15.128,12.145
10:38:36:928,39.164,-0.022,-0.017,0.041,8.808,-15.112,12.316
10:38:36:954,39.190,-0.010,-0.013,0.044,8.816,-15.250,12.498
10:38:36:981,39.217,-0.005,-0.009,0.026,8.876,-15.413,12.590
10:38:37:036,39.272,-0.003,-0.003,0.021,8.949,-15.529,12.608
10:38:37:037,39.273,-0.001,0.003,0.004,9.087,-15.735,12.604
10:38:37:089,39.325,0.002,0.007,0.003,9.167,-15.872,12.628
10:38:37:089,39.326,0.000,0.002,-0.008,9.285,-16.000,12.750
10:38:37:112,39.348,-0.003,0.009,-0.009,9.355,-16.184,12.883
10:38:37:139,39.375,0.011,-0.012,-0.002,9.454,-16.194,13.132
10:38:37:164,39.401,0.010,-0.007,-0.011,9.538,-16.145,13.431
10:38:37:191,39.427,0.015,-0.001,-0.013,9.570,-16.086,13.652
10:38:37:217,39.454,0.023,-0.005,-0.004,9.620,-16.219,13.987
10:38:37:272,39.509,0.037,-0.009,0.005,9.629,-16.260,14.190
10:38:37:273,39.510,0.038,-0.014,0.011,9.637,-16.368,14.438
10:38:37:297,39.533,0.043,-0.006,0.014,9.618,-16.381,14.657
10:38:37:323,39.559,0.048,-0.007,0.021,9.615,-16.582,14.759
10:38:37:348,39.585,0.053,-0.012,0.021,9.589,-16.664,14.818
10:38:37:404,39.640,0.055,-0.024,0.017,9.578,-16.700,14.800
10:38:37:404,39.641,0.056,-0.029,0.026,9.567,-16.697,14.684
10:38:37:427,39.663,0.030,-0.009,0.008,9.549,-16.530,14.604
10:38:37:453,39.690,-0.017,0.035,0.017,9.379,-16.147,14.567
10:38:37:481,39.717,0.041,0.045,0.036,9.264,-16.170,14.382
10:38:37:535,39.771,0.043,0.033,0.049,9.203,-16.130,14.229
10:38:37:535,39.772,-0.028,0.009,0.053,8.970,-15.389,14.039
10:38:37:559,39.795,-0.070,0.000,0.038,8.794,-14.713,13.935
10:38:37:585,39.821,-0.092,-0.030,0.017,8.666,-14.231,13.763
10:38:37:612,39.848,-0.048,-0.039,0.036,8.723,-14.391,13.614
10:38:37:638,39.874,-0.043,-0.013,0.007,8.905,-14.880,13.351
10:38:37:663,39.900,-0.030,0.050,-0.048,9.259,-15.453,13.027
10:38:37:69,39.926,0.028,0.003,-0.078,9.566,-15.986,12.706
10:38:37:716,39.952,0.031,-0.067,-0.072,10.016,-16.591,12.218
10:38:37:742,39.978,0.021,-0.084,-0.083,10.213,-16.647,11.861
10:38:37:77,40.006,-0.001,-0.061,-0.073,10.196,-16.436,11.727
10:38:37:794,40.031,-0.040,-0.034,-0.080,9.997,-16.162,11.671
10:38:37:822,40.058,-0.050,-0.039,-0.069,9.807,-16.217,11.663
10:38:37:848,40.084,-0.043,0.013,-0.024,9.423,-16.437,11.674
10:38:37:874,40.110,-0.067,0.034,0.071,9.125,-16.676,11.701
10:38:37:929,40.166,-0.044,0.009,0.102,8.790,-17.031,11.735
10:38:37:93,40.166,-0.057,0.035,0.129,8.502,-17.928,11.689
10:38:37:952,40.188,-0.016,0.007,0.144,8.442,-18.893,11.547
10:38:37:979,40.215,-0.004,-0.043,0.095,8.536,-19.967,11.267
10:38:38:004,40.240,-0.083,-0.004,0.002,8.703,-20.100,11.079
10:38:38:06,40.296,-0.069,0.021,-0.038,8.890,-20.785,10.866
10:38:38:06,40.297,-0.003,-0.011,-0.007,9.194,-21.903,10.783
10:38:38:085,40.321,-0.015,0.014,-0.027,9.371,-22.199,10.821
10:38:38:109,40.346,-0.047,0.016,-0.059,9.616,-22.342,11.000
10:38:38:167,40.404,-0.003,-0.012,-0.057,9.790,-22.527,11.118
10:38:38:168,40.405,0.001,-0.019,-0.045,9.972,-22.740,11.380
10:38:38:169,40.406,0.006,-0.027,-0.050,10.027,-22.628,11.784
10:38:38:217,40.453,-0.011,-0.017,-0.055,9.906,-22.442,12.181
10:38:38:244,40.480,0.004,-0.011,-0.051,9.822,-22.369,12.772
10:38:38:244,40.481,0.017,-0.009,-0.032,9.709,-22.448,13.189
10:38:38:296,40.532,0.030,-0.008,-0.025,9.486,-22.649,13.811
10:38:38:297,40.533,0.031,-0.007,-0.004,9.307,-22.814,14.202
10:38:38:376,40.612,-0.010,0.001,-0.040,9.082,-23.381,14.692
10:38:38:376,40.612,0.069,0.010,0.159,9.121,-25.200,14.848
10:38:38:43,40.666,0.093,0.005,0.191,9.281,-26.474,14.828
10:38:38:431,40.667,0.071,-0.004,0.159,9.487,-27.320,14.897
10:38:38:451,40.687,0.002,-0.004,-0.014,9.460,-27.398,15.052
10:38:38:506,40.743,0.075,-0.039,-0.002,9.483,-28.161,14.986
10:38:38:507,40.743,0.085,-0.028,-0.019,9.570,-28.210,14.781
10:38:38:53,40.766,-0.001,-0.041,-0.058,9.411,-27.619,14.289
10:38:38:556,40.793,-0.013,-0.079,-0.044,9.371,-27.415,13.858
10:38:38:582,40.818,0.009,-0.035,-0.026,9.252,-27.240,13.210
10:38:38:608,40.844,-0.013,0.002,0.024,9.103,-26.872,12.880
10:38:38:664,40.900,-0.059,0.025,0.027,8.703,-25.683,12.748
10:38:38:664,40.900,-0.103,0.025,0.027,8.166,-24.211,12.959
10:38:38:687,40.923,-0.084,0.024,0.011,7.845,-23.495,13.150
10:38:38:714,40.950,-0.075,0.031,0.001,7.569,-23.115,13.412
10:38:38:739,40.976,-0.010,-0.003,0.034,7.577,-23.249,13.557
10:38:38:767,41.003,-0.002,-0.005,0.015,7.831,-23.541,13.689
10:38:38:792,41.028,0.010,-0.003,-0.003,8.174,-23.685,13.767
10:38:38:818,41.055,0.022,-0.005,-0.001,8.317,-23.783,13.796
10:38:38:845,41.081,0.026,-0.016,-0.005,8.433,-23.852,13.817
10:38:38:871,41.107,0.026,-0.006,-0.004,8.429,-23.813,13.849
10:38:38:899,41.136,0.024,-0.005,0.004,8.364,-23.687,13.936
10:38:38:923,41.159,0.003,0.001,0.001,8.294,-23.553,14.036
10:38:38:95,41.186,-0.023,0.008,0.024,8.168,-23.224,14.193
10:38:38:976,41.212,-0.023,-0.002,0.024,8.084,-22.917,14.253
10:38:39:002,41.238,-0.023,-0.001,0.022,8.038,-22.857,14.261
10:38:39:028,41.265,-0.012,-0.008,0.010,8.045,-22.782,14.310
10:38:39:055,41.291,-0.008,-0.007,0.014,8.045,-22.845,14.340
10:38:39:081,41.317,0.019,-0.005,0.005,8.054,-22.980,14.390
10:38:39:107,41.343,0.019,-0.007,0.010,8.062,-22.986,14.439
10:38:39:162,41.398,0.018,-0.008,0.009,8.036,-22.852,14.470
10:38:39:163,41.399,-0.003,0.000,0.000,7.972,-22.496,14.529
10:38:39:188,41.424,-0.056,0.021,-0.008,7.923,-22.238,14.549
10:38:39:213,41.449,-0.068,0.017,0.003,7.907,-22.175,14.504
10:38:39:268,41.505,-0.065,0.002,-0.001,7.954,-22.368,14.443
10:38:39:269,41.505,-0.039,0.005,0.011,8.116,-23.049,14.467
10:38:39:291,41.527,0.015,-0.008,0.030,8.297,-24.042,14.391
10:38:39:317,41.553,0.018,-0.015,0.033,8.467,-24.593,14.376
10:38:39:343,41.579,0.005,-0.014,0.005,8.676,-24.998,14.403
10:38:39:37,41.606,-0.008,-0.007,-0.018,8.792,-25.222,14.425
10:38:39:397,41.633,0.033,-0.020,0.000,8.973,-25.680,14.448
10:38:39:422,41.658,0.050,-0.015,0.017,9.050,-25.787,14.505
10:38:39:477,41.713,0.027,-0.001,-0.005,9.047,-25.652,14.561
10:38:39:478,41.714,0.030,-0.005,0.015,8.996,-25.471,14.561
10:38:39:5,41.737,0.040,-0.004,0.039,8.974,-25.294,14.513
10:38:39:528,41.764,0.007,0.011,0.031,8.888,-24.691,14.545
10:38:39:554,41.790,-0.016,-0.002,0.030,8.887,-23.962,14.532
10:38:39:581,41.817,-0.030,-0.005,0.017,8.876,-23.520,14.507
10:38:39:606,41.842,-0.026,0.000,-0.009,8.848,-23.270,14.433
10:38:39:632,41.868,-0.055,0.014,-0.020,8.864,-23.233,14.340
10:38:39:658,41.894,-0.039,-0.004,-0.009,8.916,-23.663,14.153
10:38:39:685,41.921,-0.026,-0.014,-0.013,8.958,-24.007,14.135
10:38:39:712,41.948,-0.032,-0.013,-0.012,8.976,-24.337,14.148
10:38:39:737,41.973,-0.038,-0.015,-0.015,9.002,-24.549,14.246
10:38:39:763,42.000,-0.024,-0.010,0.001,9.007,-24.799,14.304
10:38:39:819,42.055,0.002,-0.009,0.009,8.964,-25.158,14.367
10:38:39:82,42.056,-0.008,-0.007,0.007,8.932,-25.274,14.406
10:38:39:842,42.078,0.005,-0.007,0.003,8.910,-25.465,14.456
10:38:39:87,42.106,0.012,-0.008,0.019,8.894,-25.604,14.485
10:38:39:896,42.132,0.010,-0.005,0.008,8.877,-25.646,14.501
10:38:39:95,42.186,-0.002,0.012,0.007,8.842,-25.792,14.536
10:38:39:95,42.186,-0.025,-0.001,0.008,8.864,-25.819,14.516
10:38:39:974,42.210,-0.026,-0.015,0.005,8.956,-25.984,14.406
10:38:40:,42.236,-0.016,-0.006,-0.009,8.993,-26.318,14.304
10:38:40:026,42.262,0.000,-0.006,0.005,9.031,-26.550,14.239
10:38:40:052,42.288,-0.004,0.000,-0.002,9.081,-26.743,14.226
10:38:40:107,42.344,0.000,-0.006,-0.003,9.091,-26.877,14.250
10:38:40:108,42.344,0.025,-0.001,0.019,9.072,-27.150,14.282
10:38:40:131,42.368,0.027,-0.008,0.019,9.060,-27.272,14.303
10:38:40:216,42.452,0.029,-0.009,0.020,9.027,-27.369,14.250
10:38:40:217,42.453,0.017,-0.016,0.020,8.981,-27.279,14.174
10:38:40:217,42.453,0.008,-0.008,0.008,8.930,-27.113,14.152
10:38:40:238,42.474,0.001,-0.001,0.008,8.869,-26.838,14.135
10:38:40:263,42.500,-0.002,-0.004,-0.001,8.856,-26.663,14.099
10:38:40:289,42.525,-0.007,-0.004,-0.004,8.819,-26.419,14.065
10:38:40:315,42.551,-0.009,-0.009,-0.004,8.739,-26.238,14.030
10:38:40:341,42.577,-0.013,-0.007,-0.003,8.662,-26.159,14.017
10:38:40:397,42.633,-0.014,-0.005,0.005,8.533,-26.079,13.982
10:38:40:397,42.633,-0.019,-0.004,0.004,8.449,-26.020,13.954
10:38:40:419,42.656,-0.023,-0.004,0.008,8.339,-25.940,13.920
10:38:40:446,42.682,-0.010,-0.003,0.006,8.254,-25.895,13.886
10:38:40:472,42.708,-0.009,-0.008,0.014,8.208,-25.852,13.866
10:38:40:499,42.735,-0.013,-0.009,0.002,8.144,-25.708,13.826
10:38:40:529,42.765,-0.013,-0.003,0.005,8.104,-25.592,13.813
10:38:40:53,42.766,-0.012,-0.002,0.002,8.044,-25.414,13.795
10:38:40:551,42.787,-0.019,-0.003,0.002,7.998,-25.275,13.798
10:38:40:606,42.842,-0.013,0.003,0.001,7.950,-25.109,13.820
10:38:40:607,42.843,-0.017,0.004,0.010,7.935,-24.976,13.859
10:38:40:657,42.893,-0.009,0.001,0.005,7.921,-24.892,13.902
10:38:40:685,42.921,-0.009,-0.002,0.015,7.919,-24.777,13.963
10:38:40:686,42.922,-0.005,-0.001,0.009,7.931,-24.699,14.009
10:38:40:737,42.973,-0.006,-0.001,0.011,7.962,-24.603,14.062
10:38:40:738,42.974,-0.002,-0.011,0.004,7.999,-24.542,14.087
10:38:40:79,43.026,-0.003,-0.006,0.006,8.030,-24.508,14.098
10:38:40:791,43.027,-0.003,-0.001,-0.001,8.061,-24.474,14.108
10:38:40:814,43.050,-0.001,0.001,0.007,8.066,-24.471,14.124
10:38:40:839,43.076,0.007,-0.004,0.008,8.076,-24.499,14.124
10:38:40:866,43.102,-0.004,-0.007,0.006,8.081,-24.501,14.122
10:38:40:892,43.128,0.003,-0.009,0.006,8.098,-24.497,14.122
10:38:40:918,43.154,-0.001,-0.007,0.008,8.101,-24.492,14.127
10:38:40:945,43.181,0.002,-0.010,0.002,8.117,-24.485,14.135
10:38:40:971,43.207,0.007,-0.006,0.004,8.161,-24.478,14.140
10:38:40:997,43.233,0.021,-0.006,0.010,8.195,-24.472,14.130
10:38:41:08,43.316,0.025,0.002,0.007,8.245,-24.409,14.112
10:38:41:08,43.316,0.024,-0.001,0.013,8.258,-24.265,14.079
10:38:41:105,43.341,0.020,-0.005,0.017,8.269,-24.054,14.060
10:38:41:105,43.342,-0.004,0.003,0.011,8.278,-23.608,14.052
10:38:41:129,43.365,-0.016,-0.004,0.000,8.307,-23.301,14.058
10:38:41:156,43.392,-0.021,-0.005,0.004,8.346,-22.988,14.052
10:38:41:181,43.418,-0.006,-0.008,-0.008,8.376,-22.886,14.052
10:38:41:207,43.443,-0.002,-0.011,0.005,8.409,-22.848,14.021
10:38:41:233,43.470,0.088,-0.037,0.002,8.363,-22.682,14.029
10:38:41:26,43.496,-0.067,0.031,-0.042,8.303,-22.274,14.081
10:38:41:286,43.522,-0.040,-0.005,-0.004,8.391,-21.838,14.268
10:38:41:341,43.577,-0.018,-0.003,0.022,8.441,-21.699,14.327
10:38:41:342,43.578,-0.021,-0.012,0.017,8.487,-21.487,14.372
10:38:41:365,43.602,-0.018,-0.008,0.004,8.496,-21.325,14.403
10:38:41:391,43.627,-0.009,-0.010,-0.002,8.467,-21.267,14.419
10:38:41:417,43.653,-0.010,-0.007,-0.002,8.411,-21.232,14.433
10:38:41:443,43.680,-0.007,0.001,-0.003,8.355,-21.244,14.435
10:38:41:469,43.706,-0.010,-0.001,0.007,8.308,-21.247,14.426
10:38:41:497,43.733,-0.013,0.003,0.007,8.263,-21.238,14.403
10:38:41:523,43.759,-0.017,0.003,0.018,8.223,-21.213,14.385
10:38:41:549,43.785,-0.018,0.003,0.007,8.214,-21.198,14.384
10:38:41:575,43.811,-0.021,0.005,0.006,8.236,-21.236,14.389
10:38:41:601,43.837,0.066,-0.024,0.004,8.270,-21.341,14.388
10:38:41:656,43.892,0.061,-0.011,0.000,8.255,-21.205,14.408
10:38:41:657,43.893,-0.098,0.026,-0.041,8.333,-20.672,14.593
10:38:41:709,43.945,-0.034,-0.009,0.013,8.604,-20.549,14.833
10:38:41:709,43.945,-0.016,-0.016,0.017,8.737,-20.651,14.912
10:38:41:732,43.968,-0.008,-0.022,0.006,8.713,-20.851,14.985
10:38:41:788,44.024,-0.010,-0.022,-0.012,8.548,-21.037,15.065
10:38:41:788,44.024,-0.006,-0.035,-0.010,8.341,-21.335,15.159
10:38:41:841,44.077,-0.006,-0.015,-0.004,8.116,-21.631,15.188
10:38:41:842,44.078,-0.017,-0.001,-0.007,7.962,-21.823,15.211
10:38:41:863,44.099,-0.006,0.014,0.004,7.696,-22.170,15.267
10:38:41:921,44.157,-0.007,0.019,0.007,7.530,-22.443,15.295
10:38:41:921,44.157,-0.002,0.013,0.015,7.374,-22.877,15.297
10:38:41:942,44.178,0.009,0.010,0.030,7.332,-23.150,15.278
10:38:41:969,44.205,-0.008,0.008,0.022,7.405,-23.474,15.247
10:38:41:995,44.231,0.038,-0.006,-0.007,7.543,-23.812,15.148
10:38:42:081,44.317,0.022,0.001,0.019,7.618,-23.940,15.100
10:38:42:081,44.317,0.016,0.008,0.006,7.725,-24.047,14.990
10:38:42:081,44.317,0.011,-0.005,0.010,7.832,-24.080,14.934
10:38:42:158,44.395,0.002,-0.010,-0.007,7.958,-24.067,14.847
10:38:42:159,44.395,-0.001,-0.006,-0.002,8.024,-24.052,14.788
10:38:42:16,44.396,-0.002,-0.007,-0.012,8.110,-24.062,14.707
10:38:42:178,44.415,-0.002,-0.007,-0.001,8.188,-24.154,14.656
10:38:42:205,44.441,0.002,-0.006,0.002,8.218,-24.193,14.620
10:38:42:231,44.467,-0.002,-0.001,-0.001,8.244,-24.191,14.604
10:38:42:257,44.493,-0.004,-0.002,0.008,8.254,-24.102,14.616
10:38:42:283,44.520,-0.010,0.002,0.010,8.269,-24.029,14.630
10:38:42:31,44.546,0.010,-0.015,0.018,8.306,-23.933,14.631
10:38:42:336,44.572,0.010,-0.020,0.021,8.305,-23.853,14.632
10:38:42:363,44.599,-0.007,-0.020,-0.012,8.260,-23.734,14.640
10:38:42:389,44.625,0.022,-0.022,0.004,8.215,-23.745,14.606
10:38:42:445,44.681,0.014,-0.007,0.009,8.183,-23.631,14.552
10:38:42:445,44.681,-0.029,0.002,-0.002,8.208,-23.272,14.576
10:38:42:467,44.703,-0.024,-0.019,0.011,8.270,-23.142,14.568
10:38:42:522,44.759,-0.022,0.000,-0.001,8.346,-23.058,14.561
10:38:42:523,44.759,-0.032,0.015,-0.001,8.376,-23.013,14.608
10:38:42:546,44.782,-0.033,0.008,0.010,8.465,-22.981,14.735
10:38:42:572,44.808,-0.015,-0.022,0.001,8.589,-22.937,14.961
10:38:42:686,44.922,-0.019,-0.025,-0.010,8.667,-22.851,15.167
10:38:42:686,44.922,-0.004,-0.027,-0.009,8.799,-22.693,15.546
10:38:42:687,44.923,0.029,-0.013,-0.008,8.879,-22.650,15.786
10:38:42:688,44.924,0.029,0.019,-0.001,8.944,-22.545,16.132
10:38:42:704,44.940,0.027,-0.002,0.003,8.971,-22.279,16.439
10:38:42:73,44.966,0.013,0.000,0.010,8.953,-21.970,16.595
10:38:42:785,45.021,-0.005,0.030,-0.001,8.877,-21.423,16.824
10:38:42:786,45.022,-0.019,0.031,0.013,8.842,-21.082,16.893
10:38:42:839,45.075,-0.031,0.030,0.003,8.872,-20.867,16.940
10:38:42:839,45.075,-0.020,0.027,0.014,8.982,-21.062,16.939
10:38:42:861,45.097,-0.011,0.009,0.011,9.075,-21.316,16.885
10:38:42:919,45.155,-0.105,0.034,-0.068,9.231,-21.526,16.913
10:38:42:92,45.156,0.027,-0.051,0.005,9.501,-21.865,16.944
10:38:42:92,45.157,0.083,-0.072,0.072,9.931,-23.009,16.480
10:38:42:969,45.206,0.004,-0.039,0.013,10.066,-23.617,16.269
10:38:42:969,45.206,0.037,-0.047,0.037,10.230,-24.335,16.026
10:38:42:992,45.229,0.036,-0.003,0.018,10.226,-24.383,15.797
10:38:43:019,45.255,0.015,0.018,0.012,10.180,-24.102,15.679
10:38:43:044,45.281,0.040,0.006,-0.003,10.103,-23.684,15.544
10:38:43:097,45.333,0.022,0.000,-0.013,10.000,-23.278,15.544
10:38:43:126,45.362,-0.008,0.004,-0.024,9.749,-22.516,15.656
10:38:43:127,45.363,-0.024,0.006,-0.008,9.507,-21.949,15.742
10:38:43:179,45.415,-0.021,-0.005,0.014,9.382,-21.713,15.776
10:38:43:179,45.415,-0.023,-0.013,0.048,9.248,-21.272,15.744
10:38:43:231,45.468,-0.061,0.003,0.031,9.168,-20.828,15.693
10:38:43:232,45.468,-0.073,0.018,0.014,9.101,-20.282,15.628
10:38:43:255,45.491,-0.052,0.018,0.003,9.145,-20.138,15.580
10:38:43:281,45.517,-0.033,0.024,0.003,9.300,-20.169,15.554
10:38:43:307,45.543,0.003,0.016,0.001,9.465,-20.289,15.564
10:38:43:362,45.599,0.003,0.013,-0.001,9.536,-20.282,15.632
10:38:43:363,45.600,0.002,-0.009,0.000,9.606,-20.286,15.759
10:38:43:387,45.623,0.011,-0.019,0.004,9.630,-20.356,15.841
10:38:43:412,45.649,0.001,-0.029,0.012,9.633,-20.475,15.939
10:38:43:439,45.675,-0.001,-0.031,0.006,9.629,-20.657,15.971
10:38:43:494,45.730,-0.002,-0.020,0.009,9.631,-20.846,15.928
10:38:43:494,45.730,0.008,-0.022,-0.006,9.645,-20.905,15.766
10:38:43:517,45.753,-0.002,-0.010,0.010,9.665,-21.158,15.575
10:38:43:544,45.780,0.020,0.019,0.005,9.691,-21.667,15.104
10:38:43:57,45.806,-0.021,0.039,-0.011,9.754,-21.988,14.791
10:38:43:625,45.861,-0.005,0.029,-0.018,9.791,-22.443,14.504
10:38:43:626,45.862,-0.049,0.007,-0.007,9.838,-22.862,14.281
10:38:43:678,45.914,-0.024,-0.015,0.019,9.879,-23.275,14.115
10:38:43:678,45.914,-0.010,-0.033,0.016,9.929,-23.872,14.031
10:38:43:701,45.937,0.008,-0.029,0.016,9.948,-24.099,14.060
10:38:43:756,45.992,-0.006,-0.014,0.003,9.944,-24.042,14.220
10:38:43:757,45.993,-0.012,-0.018,-0.010,9.955,-23.852,14.385
10:38:43:809,46.046,-0.004,-0.006,-0.005,9.973,-23.825,14.446
10:38:43:81,46.046,0.005,0.013,-0.010,9.967,-23.772,14.504
10:38:43:832,46.068,0.001,0.008,-0.001,9.934,-23.623,14.513
10:38:43:859,46.095,0.000,0.004,0.002,9.867,-23.522,14.530
10:38:43:884,46.121,-0.011,0.013,0.018,9.808,-23.377,14.571
10:38:43:941,46.177,-0.018,0.007,0.025,9.772,-23.336,14.653
10:38:43:941,46.177,-0.011,0.008,0.023,9.817,-23.509,14.771
10:38:43:964,46.200,0.017,-0.010,0.025,9.876,-23.689,14.818
10:38:43:991,46.227,0.012,-0.025,0.013,9.946,-23.825,14.885
10:38:44:016,46.252,0.000,-0.024,0.003,9.979,-23.817,14.908
10:38:44:072,46.308,0.008,-0.020,-0.003,10.052,-23.810,14.876
10:38:44:073,46.309,0.007,-0.019,-0.021,10.099,-23.788,14.793
10:38:44:124,46.360,0.008,-0.018,-0.019,10.112,-23.771,14.720
10:38:44:124,46.361,0.004,0.002,-0.024,10.096,-23.766,14.626
10:38:44:148,46.384,0.010,0.004,-0.029,10.073,-23.857,14.585
10:38:44:204,46.440,0.013,0.000,-0.005,10.002,-23.977,14.536
10:38:44:204,46.440,-0.002,-0.003,-0.011,9.900,-23.988,14.542
10:38:44:226,46.462,-0.013,-0.007,0.005,9.817,-23.961,14.568
10:38:44:252,46.489,-0.010,-0.006,0.009,9.711,-23.926,14.625
10:38:44:334,46.570,-0.017,-0.002,0.025,9.658,-23.784,14.736
10:38:44:334,46.571,-0.008,0.013,0.025,9.686,-23.780,14.743
10:38:44:358,46.594,-0.001,0.014,0.013,9.736,-23.795,14.732
10:38:44:384,46.620,-0.002,0.001,0.010,9.787,-23.785,14.696
10:38:44:409,46.646,0.000,-0.006,-0.007,9.807,-23.772,14.684
10:38:44:465,46.701,0.003,-0.005,-0.001,9.829,-23.800,14.665
10:38:44:465,46.702,0.008,-0.006,-0.006,9.841,-23.841,14.663
10:38:44:489,46.725,0.009,-0.012,0.004,9.851,-23.903,14.687
10:38:44:545,46.781,0.010,-0.012,-0.004,9.850,-23.898,14.706
10:38:44:545,46.782,0.001,-0.019,-0.001,9.837,-23.848,14.708
10:38:44:567,46.803,0.002,-0.012,-0.010,9.808,-23.756,14.726
10:38:44:593,46.830,0.000,-0.003,-0.004,9.771,-23.703,14.730
10:38:44:65,46.886,-0.012,-0.010,-0.009,9.711,-23.687,14.681
10:38:44:65,46.886,-0.003,0.003,0.004,9.670,-23.829,14.608
10:38:44:73,46.967,-0.006,0.014,0.008,9.634,-23.921,14.539
10:38:44:731,46.968,-0.022,0.017,0.008,9.595,-23.979,14.484
10:38:44:732,46.968,-0.016,0.003,0.016,9.589,-24.047,14.474
10:38:44:81,47.046,-0.011,-0.002,0.013,9.609,-24.134,14.480
10:38:44:81,47.046,-0.004,-0.002,0.007,9.626,-24.163,14.524
10:38:44:811,47.047,0.006,-0.010,0.011,9.676,-24.245,14.584
10:38:44:859,47.095,0.015,-0.020,0.006,9.741,-24.290,14.642
10:38:44:859,47.096,0.017,-0.020,0.003,9.780,-24.275,14.668
10:38:44:911,47.147,0.020,-0.008,-0.016,9.809,-24.218,14.656
10:38:44:912,47.148,0.016,-0.005,-0.018,9.808,-24.195,14.633
10:38:44:964,47.201,0.013,-0.009,-0.012,9.776,-24.214,14.573
10:38:44:965,47.201,0.010,-0.001,-0.021,9.702,-24.221,14.533
10:38:44:987,47.223,0.002,0.003,-0.006,9.642,-24.233,14.503
10:38:45:077,47.313,0.002,-0.006,0.001,9.573,-24.248,14.495
10:38:45:077,47.313,0.001,-0.003,0.013,9.517,-24.256,14.481
10:38:45:077,47.314,-0.004,0.000,0.008,9.460,-24.216,14.424
10:38:45:078,47.314,-0.012,0.000,0.027,9.409,-24.163,14.407
10:38:45:118,47.354,-0.007,-0.009,0.028,9.407,-24.128,14.396
10:38:45:177,47.413,-0.001,-0.010,0.022,9.435,-23.924,14.368
10:38:45:178,47.414,-0.011,-0.004,-0.002,9.435,-23.637,14.399
10:38:45:178,47.414,-0.011,-0.004,-0.003,9.472,-23.227,14.421
10:38:45:226,47.463,0.001,-0.001,-0.016,9.489,-23.035,14.418
10:38:45:227,47.463,0.000,-0.002,-0.016,9.496,-22.863,14.421
10:38:45:25,47.486,0.008,-0.001,-0.015,9.466,-22.841,14.426
10:38:45:303,47.539,0.009,-0.008,0.000,9.459,-22.838,14.389
10:38:45:332,47.568,0.012,-0.004,-0.004,9.427,-22.764,14.342
10:38:45:332,47.568,0.013,-0.001,0.002,9.384,-22.662,14.296
10:38:45:355,47.591,-0.013,-0.015,-0.001,9.308,-22.351,14.245
10:38:45:439,47.675,-0.016,0.002,-0.006,9.210,-22.076,14.215
10:38:45:44,47.676,-0.014,0.001,0.001,9.170,-21.960,14.202
10:38:45:441,47.677,-0.019,0.003,0.011,9.149,-21.889,14.197
10:38:45:46,47.696,-0.016,0.002,0.005,9.154,-21.864,14.230
10:38:45:486,47.722,-0.008,-0.004,0.014,9.171,-21.952,14.242
10:38:45:595,47.831,-0.009,-0.004,0.011,9.191,-21.994,14.261
10:38:45:596,47.832,-0.006,-0.009,0.007,9.242,-22.055,14.297
10:38:45:623,47.859,-0.007,-0.006,0.002,9.282,-22.172,14.291
10:38:45:624,47.860,-0.010,-0.002,-0.002,9.306,-22.277,14.253
10:38:45:701,47.938,0.003,-0.002,-0.012,9.401,-22.637,14.166
10:38:45:702,47.939,-0.004,-0.005,-0.006,9.432,-22.758,14.153
10:38:45:703,47.939,-0.001,-0.007,-0.011,9.443,-22.815,14.182
10:38:45:751,47.988,0.005,-0.007,-0.004,9.455,-22.866,14.205
10:38:45:752,47.989,0.019,-0.006,-0.002,9.458,-22.897,14.245
10:38:45:775,48.011,0.013,-0.013,0.008,9.464,-22.832,14.272
10:38:45:832,48.068,0.005,-0.012,0.006,9.451,-22.591,14.335
10:38:45:832,48.068,0.033,-0.006,0.013,9.447,-22.394,14.374
10:38:45:912,48.148,0.020,0.008,-0.007,9.382,-21.810,14.433
10:38:45:912,48.148,-0.023,0.010,0.013,9.322,-20.991,14.555
10:38:45:913,48.149,-0.024,0.004,-0.005,9.288,-20.525,14.642
10:38:45:932,48.168,-0.015,-0.004,0.006,9.251,-20.239,14.700
10:38:45:958,48.195,0.001,-0.010,0.017,9.271,-20.316,14.711
10:38:46:013,48.250,-0.020,-0.003,0.013,9.328,-20.282,14.745
10:38:46:014,48.251,-0.001,-0.006,0.015,9.450,-20.328,14.748
10:38:46:038,48.274,-0.002,-0.003,0.003,9.540,-20.414,14.698
10:38:46:063,48.300,0.012,-0.001,-0.010,9.638,-20.501,14.643
10:38:46:089,48.326,0.013,0.007,-0.010,9.693,-20.503,14.607
10:38:46:145,48.381,0.004,-0.004,-0.013,9.742,-20.440,14.592
10:38:46:145,48.382,0.009,-0.020,-0.014,9.762,-20.415,14.593
10:38:46:168,48.404,0.014,-0.021,-0.018,9.745,-20.414,14.585
10:38:46:196,48.432,0.002,-0.006,-0.006,9.692,-20.411,14.549
10:38:46:222,48.459,-0.002,-0.014,-0.008,9.653,-20.432,14.518
10:38:46:247,48.483,0.000,-0.013,0.000,9.593,-20.542,14.420
10:38:46:273,48.510,-0.006,-0.003,0.007,9.536,-20.604,14.332
10:38:46:3,48.536,-0.015,-0.001,0.008,9.456,-20.615,14.240
10:38:46:326,48.562,-0.025,0.004,0.013,9.388,-20.640,14.154
10:38:46:411,48.648,-0.023,0.006,0.021,9.362,-20.689,14.109
10:38:46:411,48.648,-0.030,-0.004,0.014,9.345,-20.719,14.065
10:38:46:412,48.648,-0.020,-0.006,0.001,9.380,-20.745,14.075
10:38:46:46,48.696,-0.017,0.002,0.012,9.427,-20.828,14.089
10:38:46:461,48.697,-0.009,0.000,-0.004,9.459,-20.875,14.099
10:38:46:572,48.808,-0.001,-0.003,0.000,9.497,-20.932,14.125
10:38:46:572,48.808,0.004,-0.009,-0.011,9.536,-20.952,14.162
10:38:46:572,48.808,0.004,-0.008,-0.006,9.548,-20.975,14.192
10:38:46:573,48.809,0.012,-0.013,-0.004,9.557,-21.070,14.191
10:38:46:588,48.824,0.006,-0.015,0.004,9.559,-21.148,14.172
10:38:46:729,48.965,0.005,-0.011,0.004,9.567,-21.284,14.129
10:38:46:73,48.966,-0.007,0.000,0.042,9.607,-21.387,14.071
10:38:46:731,48.967,-0.015,-0.007,0.051,9.682,-21.400,14.046
10:38:46:805,49.041,0.024,0.002,0.006,9.913,-21.363,13.856
10:38:46:806,49.042,0.027,-0.006,0.010,10.043,-21.139,13.613
10:38:46:807,49.043,0.028,0.007,-0.015,10.104,-20.791,13.479
10:38:46:857,49.093,-0.008,0.031,-0.023,10.172,-20.084,13.396
10:38:46:857,49.094,-0.013,0.013,-0.031,10.220,-19.557,13.400
10:38:46:858,49.095,-0.015,0.001,-0.016,10.210,-19.454,13.384
10:38:46:937,49.173,-0.007,-0.007,0.024,10.204,-19.839,13.242
10:38:46:937,49.173,0.007,-0.028,0.048,10.205,-20.563,13.002
10:38:46:937,49.173,0.001,-0.031,0.043,10.160,-21.002,12.834
10:38:46:985,49.221,-0.046,-0.026,0.036,10.113,-21.560,12.533
10:38:46:986,49.222,-0.057,-0.010,0.014,10.118,-21.949,12.295
10:38:47:009,49.245,-0.052,0.004,0.004,10.193,-22.581,11.962
10:38:47:035,49.271,-0.026,0.005,-0.020,10.284,-22.923,11.846
10:38:47:12,49.356,-0.023,-0.002,-0.024,10.421,-23.235,11.709
10:38:47:12,49.356,-0.047,0.021,-0.024,10.685,-23.192,11.762
10:38:47:121,49.357,-0.210,0.023,-0.204,11.031,-23.511,11.744
10:38:47:169,49.405,-0.035,-0.055,-0.099,11.674,-26.668,11.393
10:38:47:169,49.406,0.140,0.000,0.081,12.101,-29.895,10.917
10:38:47:193,49.429,0.129,0.021,0.099,12.421,-33.214,10.587
10:38:47:246,49.482,0.053,0.025,-0.008,12.434,-34.043,10.897
10:38:47:274,49.510,0.074,0.019,-0.002,12.328,-34.034,11.168
10:38:47:275,49.511,0.119,-0.023,0.020,12.132,-33.722,11.497
10:38:47:297,49.534,0.129,-0.073,0.024,11.960,-33.228,11.747
10:38:47:438,49.675,0.118,-0.092,0.015,11.507,-32.076,12.135
10:38:47:438,49.675,0.119,-0.076,0.067,11.085,-31.261,12.297
10:38:47:439,49.676,0.079,-0.053,0.028,10.175,-29.869,12.026
10:38:47:44,49.676,0.004,-0.022,0.008,9.110,-28.226,11.746
10:38:47:563,49.800,-0.033,0.018,-0.014,8.458,-27.230,11.274
10:38:47:564,49.800,-0.326,0.062,-0.144,8.008,-26.580,10.172
10:38:47:748,49.984,-0.185,-0.008,-0.013,8.062,-28.078,9.185
10:38:47:749,49.985,-0.100,0.009,0.070,8.245,-32.771,7.655
10:38:47:779,50.015,-0.066,0.003,0.079,8.420,-36.953,6.493
10:38:47:78,50.016,-0.052,-0.003,0.042,8.545,-38.786,6.139
10:38:47:78,50.016,-0.001,-0.013,0.003,8.796,-39.889,6.243
10:38:47:91,50.146,0.023,0.010,-0.025,9.076,-38.591,7.811
10:38:47:911,50.147,0.042,-0.001,-0.020,9.100,-37.191,8.800
10:38:47:912,50.148,0.025,-0.012,-0.074,8.925,-34.391,10.542
10:38:47:913,50.149,-0.005,-0.018,-0.091,8.620,-31.482,12.229
10:38:47:931,50.167,0.004,-0.020,-0.096,8.444,-30.081,13.179
10:38:47:932,50.168,0.031,-0.028,-0.058,8.326,-28.882,14.231
10:38:47:963,50.200,0.062,-0.016,0.017,8.254,-28.651,14.653
10:38:47:964,50.200,0.086,0.029,0.078,8.264,-28.768,14.976
10:38:48:013,50.250,0.088,0.017,0.094,8.492,-28.127,14.824
10:38:48:014,50.251,0.037,0.013,0.049,8.648,-27.103,14.711
10:38:48:015,50.251,-0.013,0.003,0.016,8.835,-25.602,14.600
10:38:48:041,50.277,0.019,-0.018,0.009,8.895,-25.155,14.822
10:38:48:042,50.278,0.035,-0.044,0.024,9.077,-25.094,14.917
10:38:48:043,50.279,0.005,-0.036,-0.004,9.329,-24.751,14.928
10:38:48:043,50.279,-0.002,-0.019,0.006,9.528,-24.654,14.788
10:38:48:086,50.322,0.019,-0.016,0.006,9.904,-24.726,14.359
10:38:48:115,50.351,0.019,0.013,0.005,10.167,-24.717,13.964
10:38:48:115,50.351,0.024,0.009,-0.006,10.563,-24.546,13.253
10:38:48:137,50.373,0.008,-0.017,-0.009,10.888,-23.949,12.544
10:38:48:164,50.400,0.002,-0.013,-0.027,11.036,-23.318,12.149
10:38:48:219,50.455,-0.031,-0.012,-0.040,11.166,-22.217,11.757
10:38:48:219,50.455,-0.047,-0.003,-0.055,11.240,-21.552,11.543
10:38:48:243,50.479,-0.050,-0.006,-0.049,11.326,-20.739,11.291
10:38:48:268,50.505,-0.044,-0.012,-0.051,11.263,-20.232,11.289
10:38:48:295,50.531,-0.042,-0.007,-0.046,11.191,-19.999,11.297
10:38:48:321,50.557,-0.037,-0.007,-0.042,11.045,-19.743,11.284
10:38:48:347,50.584,-0.039,-0.004,-0.037,10.930,-19.504,11.297
10:38:48:402,50.639,-0.037,-0.013,-0.036,10.684,-19.216,11.326
10:38:48:403,50.639,-0.042,-0.019,-0.027,10.489,-19.135,11.378
10:38:48:426,50.662,-0.047,-0.018,-0.025,10.147,-18.980,11.539
10:38:48:482,50.718,-0.039,-0.007,-0.010,9.796,-19.194,11.718
10:38:48:482,50.718,-0.037,-0.007,-0.003,9.570,-19.330,11.838
10:38:48:533,50.770,-0.033,0.011,0.018,9.255,-19.679,12.014
10:38:48:534,50.771,-0.011,0.011,0.083,9.059,-19.895,12.106
10:38:48:557,50.793,-0.018,0.009,0.115,8.862,-20.183,12.140
10:38:48:671,50.908,0.024,0.011,0.162,8.780,-20.624,12.144
10:38:48:672,50.908,0.024,-0.008,0.150,8.808,-20.911,12.053
10:38:48:672,50.909,0.028,-0.007,0.098,8.897,-21.367,11.861
10:38:48:673,50.910,0.022,0.025,0.078,8.921,-21.598,11.713
10:38:48:688,50.925,-0.034,0.002,0.047,9.154,-21.121,11.320
10:38:48:715,50.951,-0.047,-0.010,-0.012,9.278,-20.764,11.181
10:38:48:828,51.065,-0.026,-0.023,-0.012,9.475,-20.631,11.184
10:38:48:829,51.065,-0.010,-0.008,-0.023,9.749,-20.482,11.117
10:38:48:846,51.083,-0.008,-0.012,-0.015,10.308,-20.498,11.285
10:38:48:872,51.108,-0.021,-0.016,-0.032,10.462,-20.367,11.425
10:38:48:957,51.193,-0.026,-0.010,-0.028,10.531,-20.212,11.680
10:38:48:958,51.194,-0.011,-0.011,-0.031,10.586,-20.223,11.831
10:38:48:959,51.195,-0.004,-0.010,-0.025,10.690,-20.330,12.018
10:38:48:978,51.214,0.008,-0.005,-0.027,10.739,-20.361,12.183
10:38:49:003,51.239,0.012,-0.003,-0.019,10.801,-20.412,12.483
10:38:49:058,51.295,0.014,0.002,-0.011,10.840,-20.386,12.729
10:38:49:059,51.296,0.031,0.003,-0.003,10.850,-20.233,13.187
10:38:49:083,51.319,0.038,-0.006,-0.008,10.762,-20.020,13.692
10:38:49:109,51.345,0.025,-0.010,0.001,10.650,-19.838,14.078
10:38:49:134,51.371,0.022,-0.015,0.010,10.426,-19.652,14.670
10:38:49:191,51.427,0.025,-0.018,0.019,10.281,-19.681,15.020
10:38:49:191,51.427,0.037,-0.023,0.039,10.065,-19.964,15.396
10:38:49:213,51.449,0.030,-0.024,0.075,9.937,-20.334,15.559
10:38:49:269,51.505,0.070,-0.019,0.144,9.818,-21.033,15.638
10:38:49:27,51.506,0.077,-0.006,0.154,9.724,-21.433,15.613
10:38:49:292,51.528,0.026,-0.003,0.091,9.632,-21.298,15.557
10:38:49:318,51.555,-0.007,-0.001,0.057,9.574,-20.829,15.365
10:38:49:345,51.581,0.007,-0.012,0.050,9.677,-20.663,15.112
10:38:49:371,51.607,0.029,0.007,0.030,9.882,-20.816,14.741
10:38:49:397,51.633,0.002,-0.018,0.008,10.039,-20.806,14.464
10:38:49:452,51.689,0.014,-0.007,0.007,10.156,-20.837,14.232
10:38:49:453,51.690,0.019,-0.007,0.004,10.311,-20.992,13.869
10:38:49:477,51.713,0.006,-0.012,-0.007,10.392,-21.045,13.632
10:38:49:502,51.739,-0.005,-0.016,-0.006,10.460,-21.043,13.279
10:38:49:529,51.765,-0.016,-0.016,-0.017,10.492,-21.042,12.959
10:38:49:584,51.821,-0.003,-0.009,-0.005,10.499,-21.116,12.775
10:38:49:584,51.821,-0.011,-0.008,-0.015,10.478,-21.156,12.584
10:38:49:665,51.901,-0.019,-0.006,-0.011,10.449,-21.153,12.512
10:38:49:666,51.902,-0.015,-0.003,-0.016,10.396,-21.146,12.447
10:38:49:667,51.903,-0.016,0.002,-0.006,10.313,-21.129,12.460
10:38:49:688,51.925,-0.012,-0.005,-0.007,10.244,-21.101,12.505
10:38:49:689,51.926,-0.012,-0.006,0.000,10.107,-21.009,12.638
10:38:49:739,51.975,-0.010,-0.001,-0.006,10.005,-20.956,12.768
10:38:49:767,52.004,-0.005,0.019,0.035,9.894,-20.959,12.973
