Time,Second,AccelerationX,AccelerationY,AccelerationZ,EulerAnglesX,EulerAnglesY,EulerAnglesZ
14:42:14:874,0.000,-0.009,-0.012,-0.003,-11.926,69.061,-0.270
14:42:15:136,0.262,-0.011,-0.013,-0.013,-11.793,69.180,-0.157
14:42:15:426,0.551,-0.011,-0.008,-0.004,-11.591,69.384,0.021
14:42:16:106,1.232,-0.012,-0.008,0.008,-11.389,69.601,0.224
14:42:16:396,1.521,-0.021,-0.021,-0.017,-10.571,70.683,1.138
14:42:17:268,2.394,0.001,-0.018,-0.002,-8.303,68.324,0.953
14:42:17:269,2.395,-0.011,-0.014,-0.009,-8.303,68.333,0.952
14:42:17:269,2.395,-0.008,-0.015,0.004,-8.307,68.358,0.956
14:42:17:367,2.492,-0.013,-0.010,0.003,-8.319,68.396,0.984
14:42:17:448,2.574,-0.008,-0.009,-0.005,-8.369,68.465,0.985
14:42:17:449,2.575,-0.006,-0.011,-0.003,-8.557,68.566,1.187
14:42:17:56,2.686,-0.004,-0.014,-0.011,-8.948,68.677,1.461
14:42:17:56,2.686,-0.008,-0.011,-0.011,-8.947,68.743,1.571
14:42:17:561,2.687,-0.011,-0.014,-0.014,-8.951,68.829,1.679
14:42:17:562,2.688,-0.020,-0.007,-0.013,-8.954,68.985,1.856
14:42:17:951,3.077,-0.022,-0.018,-0.004,-8.847,69.311,2.427
14:42:17:952,3.078,-0.021,-0.016,0.000,-8.777,69.290,2.526
14:42:17:953,3.079,-0.022,-0.008,-0.008,-8.372,67.766,0.652
14:42:18:524,3.650,0.003,-0.012,-0.027,-8.350,67.696,0.590
14:42:18:637,3.763,0.005,-0.024,-0.016,-8.300,67.625,0.545
14:42:18:638,3.764,-0.016,-0.013,-0.004,-8.281,67.625,0.542
14:42:18:638,3.764,-0.016,-0.004,0.017,-8.242,67.662,0.530
14:42:18:638,3.764,-0.011,-0.018,0.000,-8.707,67.580,1.260
14:42:19:214,4.339,-0.010,-0.011,-0.004,-7.897,67.729,2.116
14:42:19:214,4.340,-0.010,-0.015,-0.008,-6.224,67.601,4.069
14:42:19:215,4.341,-0.001,-0.004,-0.016,-4.443,67.097,4.027
14:42:19:216,4.342,-0.006,-0.013,-0.005,-3.582,66.417,5.156
14:42:19:311,4.437,0.238,-0.058,-0.127,-6.650,76.063,13.131
14:42:19:862,4.988,0.161,0.019,-0.125,-6.188,76.992,11.323
14:42:19:896,5.022,0.062,0.095,-0.072,-4.189,79.217,5.288
14:42:19:897,5.023,-0.135,0.019,0.014,-0.136,82.838,-5.489
14:42:19:898,5.024,-0.327,0.056,0.476,1.067,84.452,-7.862
14:42:19:899,5.025,-0.459,-0.221,0.653,3.585,87.465,-11.376
14:42:21:384,6.510,-0.445,-0.186,0.559,3.305,86.783,-11.895
14:42:21:419,6.545,0.149,0.372,-0.499,2.683,86.103,-11.647
14:42:21:419,6.545,-0.024,-0.018,-0.103,1.591,84.916,-11.339
14:42:21:42,6.546,-0.113,0.158,-0.090,0.578,84.632,-10.860
14:42:21:421,6.547,-0.057,0.012,0.036,-8.934,89.715,-5.904
14:42:21:44,6.566,-0.035,-0.022,-0.009,-9.514,89.668,-5.318
14:42:21:441,6.567,-0.018,-0.027,0.004,-10.443,89.704,-3.946
14:42:21:707,6.833,0.174,0.108,-0.562,-20.174,81.241,27.127
14:42:21:708,6.834,0.018,-0.084,-0.680,-20.388,77.705,31.617
14:42:21:709,6.835,0.040,0.354,-0.107,-21.163,73.900,36.775
14:42:21:709,6.835,0.370,0.260,-0.605,-22.793,72.138,40.442
14:42:22:487,7.612,0.129,-0.045,-0.466,-25.239,70.081,44.881
14:42:22:913,8.039,-0.006,-0.260,0.249,1.095,90.098,-18.218
14:42:22:913,8.039,-0.606,0.168,0.176,-0.016,90.274,-16.801
14:42:22:914,8.040,0.001,0.053,0.499,-1.327,91.495,-15.107
14:42:23:089,8.215,-0.061,-0.232,0.167,-2.702,92.719,-13.163
14:42:23:362,8.487,-0.114,-0.031,-0.085,-6.636,93.787,-10.395
14:42:23:362,8.487,0.313,0.220,-0.237,-17.911,80.510,14.641
14:42:23:363,8.488,0.325,0.259,-0.508,-18.630,79.362,18.801
14:42:23:364,8.489,0.393,0.273,-0.729,-19.267,77.936,21.861
14:42:23:387,8.513,0.157,0.066,-1.059,-20.446,75.743,26.929
14:42:23:388,8.514,-0.177,0.234,-0.595,-21.584,73.736,30.824
14:42:23:389,8.515,-0.219,-0.623,-0.233,-22.205,116.927,44.459
14:42:23:39,8.516,-0.188,-0.451,-0.242,-19.513,118.506,40.865
14:42:24:07,9.196,-0.228,-0.354,-0.296,-14.943,120.094,34.493
14:42:24:071,9.197,-0.186,-0.075,-0.335,-12.068,120.848,29.712
14:42:24:114,9.240,-0.207,0.435,-0.023,-5.393,128.263,8.161
14:42:24:17,9.296,1.546,-0.971,1.824,5.705,150.557,-18.614
14:42:24:171,9.297,-1.684,1.959,-1.407,3.619,150.872,-16.801
14:42:24:219,9.345,0.972,0.590,0.456,2.830,150.345,-16.567
14:42:24:358,9.484,-0.314,-0.078,0.326,0.636,151.495,-14.096
14:42:24:358,9.484,-0.489,-0.400,-0.394,-26.522,142.974,46.737
14:42:24:359,9.485,0.272,0.685,0.250,-6.358,152.727,-2.174
14:42:24:36,9.485,0.841,0.812,0.567,-4.948,154.339,-10.523
14:42:24:463,9.589,0.808,-0.790,1.420,-1.619,157.530,-22.796
14:42:24:464,9.590,0.023,-0.002,0.056,-5.916,171.162,-12.961
14:42:24:464,9.590,-0.082,-0.037,0.006,-9.928,170.388,-6.378
14:42:25:008,10.134,-0.007,-0.001,-0.001,-10.713,169.927,-3.545
14:42:25:009,10.135,0.044,-0.007,0.021,-10.991,169.773,-2.477
14:42:25:224,10.350,0.036,0.013,0.020,-11.536,170.752,-0.911
14:42:25:225,10.351,0.043,0.018,0.006,-11.855,170.360,0.037
14:42:25:226,10.352,0.011,0.027,-0.002,-12.297,170.695,1.369
14:42:25:226,10.352,-0.013,0.037,0.006,-12.720,170.059,2.603
14:42:25:435,10.561,-0.359,-0.493,-0.116,-18.886,158.895,40.280
14:42:25:435,10.561,-0.427,-0.438,-0.127,-16.723,159.492,36.473
14:42:25:436,10.562,-0.438,-0.315,-0.168,-13.670,160.393,29.761
14:42:25:436,10.562,-0.271,-0.033,-0.235,-11.441,161.651,21.939
14:42:25:592,10.718,-0.295,0.059,-0.216,-10.257,162.886,16.395
14:42:25:593,10.719,-0.146,0.483,-0.146,-8.933,165.692,7.424
14:42:25:593,10.719,0.153,0.744,-0.037,-8.059,167.685,1.179
14:42:25:594,10.720,0.587,0.980,0.147,-6.375,170.283,-7.911
14:42:25:692,10.818,1.153,-0.472,0.476,-0.725,178.074,-22.898
14:42:25:693,10.819,-1.450,1.418,-0.863,-1.574,-178.170,-20.061
14:42:26:378,11.504,1.495,-0.019,-0.032,-1.168,-176.288,-19.188
14:42:26:378,11.504,0.470,0.610,0.388,-2.480,-173.548,-16.357
14:42:26:378,11.504,0.279,-0.382,-0.157,-3.542,-171.264,-14.419
14:42:26:738,11.864,0.531,0.171,-0.111,-4.208,-170.275,-13.309
14:42:26:846,11.971,0.028,0.009,0.108,-5.813,-170.492,-11.990
14:42:26:847,11.972,-0.190,-0.175,0.136,-6.568,-171.223,-11.337
14:42:27:42,12.546,-0.316,0.244,-0.053,-16.416,-176.849,19.137
14:42:27:662,12.787,-0.689,0.311,-0.326,-17.109,-178.379,23.563
14:42:27:663,12.788,-0.302,-0.431,-0.193,-31.050,-178.150,51.990
14:42:27:955,13.081,-0.421,-0.961,0.269,-29.759,-176.509,51.307
14:42:27:956,13.082,-0.415,-0.892,0.320,-27.141,-173.903,48.840
14:42:27:956,13.082,-0.303,-0.726,0.289,-24.952,-170.867,46.125
14:42:27:957,13.083,0.020,0.118,0.440,-10.304,-146.842,16.270
14:42:27:998,13.124,0.249,0.529,0.537,-7.112,-142.284,7.423
14:42:28:059,13.185,1.203,1.081,0.058,-5.200,-139.103,1.604
14:42:28:06,13.186,1.721,0.904,-0.177,-1.995,-135.199,-5.823
14:42:28:061,13.187,1.927,-0.658,-0.704,3.255,-126.327,-12.194
14:42:28:061,13.187,-0.206,0.275,0.701,1.745,-126.322,-11.330
14:42:28:107,13.233,0.698,0.611,-0.088,0.521,-126.646,-10.191
14:42:28:108,13.234,0.184,0.012,-0.681,-1.067,-124.710,-7.990
14:42:28:135,13.261,0.086,-0.226,-0.175,-1.729,-124.665,-7.087
14:42:28:136,13.262,0.102,0.052,-0.002,-3.074,-124.607,-6.426
14:42:28:137,13.263,0.120,0.008,0.866,-17.039,-126.715,39.998
14:42:28:218,13.343,-0.312,0.298,0.646,-23.202,-125.045,45.773
14:42:28:218,13.344,-0.329,-0.595,0.310,-29.153,-122.801,50.521
14:42:28:219,13.345,0.146,-0.032,-0.596,2.427,-100.347,-19.676
14:42:28:611,13.737,0.757,0.502,-0.268,-0.467,-97.074,-15.392
14:42:28:612,13.738,-0.218,0.294,0.275,-17.086,-98.121,18.751
14:42:28:613,13.739,-0.069,0.563,0.518,-23.260,-106.481,40.982
14:42:28:785,13.911,-0.092,0.171,0.310,-10.470,-103.165,19.169
14:42:28:901,14.026,-0.038,0.518,0.222,-8.706,-101.867,10.507
14:42:28:901,14.026,0.045,0.770,-0.210,-7.818,-100.462,4.407
14:42:28:902,14.027,0.311,0.899,-0.545,-6.484,-98.977,-4.721
14:42:28:903,14.028,0.471,0.748,-1.299,-5.478,-97.937,-13.158
14:42:28:971,14.097,0.411,0.162,-1.980,-4.302,-96.792,-17.941
14:42:29:003,14.129,1.260,-0.999,-2.131,-2.141,-95.263,-21.895
14:42:29:004,14.130,-0.013,-0.270,-0.919,-1.891,-93.373,-21.396
14:42:29:004,14.130,-0.401,1.598,1.599,-2.669,-91.138,-19.298
14:42:29:363,14.489,-0.032,0.375,-1.216,-2.589,-88.248,-17.645
14:42:29:443,14.569,0.796,0.292,0.223,-3.631,-87.002,-15.851
14:42:29:477,14.603,-0.401,0.012,-1.196,-4.729,-83.839,-13.525
14:42:29:477,14.603,0.048,0.133,-0.429,-5.153,-82.365,-12.111
14:42:29:478,14.604,0.107,-0.105,0.013,-6.774,-83.203,-10.700
14:42:29:479,14.605,0.078,0.087,0.169,-8.277,-83.879,-9.526
14:42:29:941,15.067,0.109,-0.060,0.202,-8.935,-83.823,-8.825
14:42:29:966,15.092,0.092,-0.012,0.004,-9.513,-83.093,-7.525
14:42:30:186,15.312,0.036,0.085,-0.102,-9.818,-82.962,-6.565
14:42:30:187,15.313,0.007,0.034,0.005,-14.082,-87.781,5.685
14:42:30:188,15.314,0.016,0.036,0.021,-14.407,-88.142,6.629
14:42:30:189,15.315,-0.009,0.073,0.090,-14.884,-88.797,8.109
14:42:30:291,15.417,-0.018,0.062,0.134,-15.193,-89.221,9.207
14:42:30:291,15.417,-0.167,0.080,0.998,-20.450,-97.145,28.938
14:42:30:292,15.418,-0.255,-0.070,0.718,-21.137,-100.827,34.068
14:42:30:293,15.419,0.099,0.323,0.628,-21.419,-105.017,40.255
14:42:30:336,15.462,-0.244,0.114,0.750,-22.906,-106.894,44.221
14:42:30:519,15.644,-0.212,-0.146,0.602,-24.980,-108.891,48.041
14:42:30:651,15.777,0.062,-0.679,0.179,-24.571,-110.709,50.003
14:42:30:682,15.808,-0.208,-0.825,0.538,-23.813,-112.523,51.729
14:42:30:683,15.809,-0.059,-0.868,0.360,-22.192,-112.783,50.438
14:42:30:684,15.810,-0.120,-0.692,0.207,-20.829,-112.659,48.393
14:42:30:864,15.990,-0.030,-0.794,-0.603,-2.135,-95.791,-19.681
14:42:30:864,15.990,-0.288,0.583,-0.458,-2.277,-93.793,-17.858
14:42:31:151,16.277,0.520,-0.174,-0.115,-3.370,-91.877,-15.736
14:42:31:152,16.278,-0.225,0.172,-0.409,-4.260,-90.377,-14.646
14:42:31:522,16.648,0.067,0.014,-0.402,-5.486,-89.008,-13.000
14:42:31:523,16.649,0.089,-0.089,-0.009,-6.448,-89.191,-12.127
14:42:31:524,16.650,-0.027,0.094,0.079,-15.506,-91.826,8.147
14:42:31:814,16.939,-0.040,0.073,0.138,-16.136,-92.505,10.179
14:42:31:814,16.940,-0.209,-0.112,0.755,-22.702,-102.260,34.853
14:42:31:815,16.940,0.108,0.494,0.622,-22.905,-105.602,39.254
14:42:31:816,16.941,-0.266,0.129,0.894,-25.182,-108.734,45.815
14:42:31:888,17.014,-0.209,-0.314,0.572,-27.721,-110.836,49.801
14:42:31:889,17.015,-0.112,-0.516,0.265,-27.927,-112.558,51.553
14:42:32:104,17.230,-0.150,-0.941,0.409,-26.008,-114.644,52.585
14:42:32:104,17.230,-0.127,-0.858,0.253,-23.480,-115.278,51.502
14:42:32:104,17.230,-0.221,-0.661,0.215,-20.178,-115.640,48.317
14:42:32:105,17.231,-0.435,-0.142,0.217,-10.578,-117.477,32.426
14:42:32:127,17.252,0.713,0.578,-1.343,-0.793,-99.165,-14.987
14:42:32:127,17.253,1.066,-1.163,-2.224,3.388,-95.803,-20.666
14:42:32:128,17.254,0.076,-0.165,-0.188,2.730,-95.428,-19.452
14:42:32:207,17.333,0.117,-0.441,0.140,1.834,-96.462,-19.330
14:42:32:208,17.334,0.255,0.895,-0.163,-0.088,-96.543,-17.131
14:42:32:209,17.335,0.063,0.188,0.019,-5.283,-91.679,-10.798
14:42:32:209,17.335,0.135,0.123,0.185,-6.020,-91.939,-10.309
14:42:32:234,17.360,0.029,-0.026,0.051,-11.080,-95.430,1.202
14:42:32:235,17.361,0.025,0.006,0.079,-11.569,-96.178,2.521
14:42:32:236,17.362,0.040,0.220,0.703,-21.443,-110.070,39.965
14:42:32:308,17.433,-0.036,-0.912,0.450,-27.943,-106.843,49.099
14:42:32:308,17.434,0.369,0.166,0.373,-7.815,-83.393,13.626
14:42:32:388,17.514,0.352,0.585,-0.002,-5.884,-81.051,7.931
14:42:32:388,17.514,0.544,0.817,-0.178,-3.202,-78.487,-0.978
14:42:32:389,17.515,0.588,0.932,-1.020,-1.315,-76.133,-9.746
14:42:32:67,17.796,-0.265,0.214,-2.389,0.198,-74.584,-14.741
14:42:33:091,18.217,0.904,-0.306,-1.708,1.966,-73.368,-19.221
14:42:33:178,18.304,0.481,-0.007,0.080,-1.563,-63.775,-12.821
14:42:33:179,18.305,-0.177,0.071,-0.553,-2.412,-61.790,-11.358
14:42:33:18,18.305,0.050,-0.010,-0.010,-3.302,-61.840,-10.631
14:42:33:181,18.306,0.065,-0.104,0.026,-4.675,-62.562,-9.717
14:42:33:205,18.331,0.111,0.049,0.177,-5.612,-63.097,-8.985
14:42:33:205,18.331,0.167,-0.040,0.149,-6.482,-62.714,-7.692
14:42:33:206,18.332,0.003,0.032,-0.135,-7.002,-61.614,-6.140
14:42:33:207,18.333,0.012,0.071,-0.033,-7.466,-61.504,-5.108
14:42:33:258,18.384,0.022,0.000,0.063,-8.057,-61.794,-3.579
14:42:33:258,18.384,0.111,-0.057,0.148,-8.391,-61.656,-2.618
14:42:33:259,18.385,0.006,0.050,-0.032,-8.844,-61.114,-0.933
14:42:33:259,18.385,0.009,-0.023,-0.025,-9.307,-60.719,0.628
14:42:33:284,18.410,0.004,0.017,-0.017,-9.635,-60.720,1.687
14:42:33:284,18.410,0.022,0.002,0.034,-10.103,-60.805,3.151
14:42:33:285,18.411,0.028,0.016,0.009,-10.400,-60.780,4.018
14:42:33:286,18.412,0.009,0.015,0.018,-10.827,-60.822,5.373
14:42:33:304,18.430,0.001,-0.001,0.069,-11.221,-60.965,6.853
14:42:33:305,18.430,0.039,0.037,0.102,-11.508,-61.025,7.953
14:42:33:362,18.488,0.053,0.101,0.123,-12.025,-61.063,9.876
14:42:33:363,18.489,-0.055,0.127,0.097,-12.424,-61.112,11.361
14:42:33:389,18.515,-0.476,0.091,-1.712,-2.756,-39.507,-18.018
14:42:33:389,18.515,-1.090,-1.032,-2.458,0.050,-35.283,-21.784
14:42:33:39,18.516,-0.644,-0.461,-1.210,0.734,-31.850,-20.686
14:42:33:391,18.517,1.333,1.263,0.791,-0.101,-29.550,-18.685
14:42:33:467,18.593,-0.803,-0.595,-0.205,0.044,-25.955,-17.358
14:42:33:468,18.594,-0.514,0.349,-0.567,-0.664,-23.422,-15.432
14:42:33:469,18.595,0.115,-0.007,-0.089,-2.244,-21.717,-13.447
14:42:33:47,18.596,-0.371,-0.221,-0.153,-3.464,-19.974,-11.877
14:42:33:49,18.615,-0.072,0.186,-0.067,-4.580,-19.471,-11.170
14:42:33:49,18.616,0.103,-0.167,-0.075,-5.834,-19.003,-10.097
14:42:33:491,18.617,0.035,-0.058,-0.044,-6.729,-18.900,-9.331
14:42:33:565,18.691,0.061,0.023,0.010,-7.931,-18.692,-8.115
14:42:33:566,18.692,-0.001,0.031,-0.024,-8.427,-18.023,-7.300
14:42:33:65,18.776,-0.085,0.000,-0.061,-8.939,-17.041,-6.194
14:42:33:651,18.777,0.112,-0.049,0.041,-9.540,-17.186,-4.841
14:42:33:652,18.778,0.115,-0.035,0.041,-9.935,-17.306,-3.823
14:42:33:653,18.779,0.019,-0.014,0.008,-10.469,-17.141,-2.277
14:42:33:669,18.795,0.030,-0.020,-0.012,-10.823,-17.039,-1.314
14:42:33:752,18.878,-0.030,0.008,0.009,-11.321,-17.029,0.210
14:42:33:752,18.878,-0.010,0.027,0.005,-11.861,-17.170,1.543
14:42:33:753,18.879,0.006,-0.001,0.006,-12.211,-17.271,2.348
14:42:33:772,18.898,0.028,-0.050,0.009,-12.637,-17.453,3.582
14:42:33:856,18.981,0.048,0.007,0.010,-12.933,-17.080,4.472
14:42:33:858,18.984,0.028,0.071,0.029,-13.367,-17.509,5.921
14:42:33:878,19.004,0.062,0.068,0.113,-13.631,-17.456,6.980
14:42:34:335,19.461,0.087,0.077,0.142,-14.047,-18.039,8.817
14:42:34:335,19.461,0.094,0.121,0.123,-14.635,-17.968,11.026
14:42:34:335,19.461,0.185,0.167,0.097,-15.068,-18.087,12.714
14:42:34:336,19.462,0.340,0.263,0.167,-15.657,-17.898,15.691
14:42:34:355,19.481,0.335,0.161,0.206,-16.056,-18.150,18.042
14:42:34:355,19.481,0.484,0.210,0.207,-16.778,-18.303,21.967
14:42:35:304,20.430,0.502,0.171,0.364,-17.671,-19.464,26.418
14:42:35:305,20.431,0.787,0.015,0.432,-18.164,-20.562,29.589
14:42:35:306,20.432,0.643,-0.076,0.381,-18.363,-23.733,34.662
14:42:35:306,20.432,0.859,0.134,-0.104,-18.336,-26.023,38.525
14:42:35:328,20.454,0.714,0.179,0.311,-21.078,-27.336,44.241
14:42:35:328,20.454,0.523,-0.199,0.224,-24.190,-27.391,47.773
14:42:35:329,20.455,0.351,-0.540,0.098,-25.306,-27.932,49.509
14:42:35:401,20.527,0.714,-0.951,0.127,-26.307,-28.077,50.252
14:42:35:611,20.737,0.439,-0.914,0.036,-26.052,-27.406,49.230
14:42:35:699,20.825,0.311,-0.629,0.139,-25.539,-25.332,45.843
14:42:35:699,20.825,0.286,-0.571,0.193,-24.307,-24.260,42.394
14:42:35:7,20.826,0.331,-0.464,0.240,-21.400,-22.998,36.032
14:42:35:701,20.827,0.371,-0.253,0.327,-18.169,-22.251,28.558
14:42:35:831,20.957,0.255,-0.055,0.330,-16.091,-21.805,23.018
14:42:35:831,20.957,0.215,0.157,0.320,-13.313,-21.031,14.102
14:42:35:832,20.958,-0.027,0.637,0.245,-11.930,-20.270,7.780
14:42:35:832,20.958,-0.338,0.788,-0.001,-10.167,-18.987,-1.957
14:42:35:987,21.113,-0.992,1.085,-0.483,-8.808,-16.847,-11.226
14:42:35:988,21.114,-1.683,0.345,-0.851,-7.184,-14.632,-16.537
14:42:35:989,21.115,-1.772,-0.324,-1.566,-4.066,-10.629,-21.681
14:42:35:989,21.115,-2.219,-1.404,-1.245,-2.487,-7.954,-22.781
14:42:36:276,21.401,0.538,0.510,0.168,-2.431,-4.741,-20.551
14:42:36:276,21.402,1.124,-0.026,0.027,-21.377,-7.617,29.534
14:42:36:277,21.403,0.636,-0.015,0.056,-22.472,-9.635,33.422
14:42:36:278,21.403,0.395,0.374,-0.001,-24.672,-11.990,39.830
14:42:36:381,21.507,0.611,-0.064,0.175,-29.237,-12.163,45.381
14:42:36:382,21.508,0.858,-0.482,0.097,-31.155,-12.925,47.870
14:42:36:383,21.509,0.311,-0.723,0.028,-32.361,-12.907,50.656
14:42:36:384,21.510,0.411,-0.959,-0.029,-32.276,-12.555,51.409
14:42:36:484,21.610,0.369,-0.948,-0.093,-30.042,-11.098,49.862
14:42:36:485,21.611,-0.277,0.694,-0.433,-7.165,7.281,0.847
14:42:36:485,21.611,-0.571,0.853,-0.528,-5.952,8.437,-5.158
14:42:36:959,22.084,-1.472,0.408,-0.536,-4.784,10.263,-13.272
14:42:36:959,22.085,-1.981,-0.562,-0.080,-4.055,11.368,-17.936
14:42:36:96,22.086,-1.927,-0.750,-1.051,-3.791,11.429,-21.785
14:42:36:961,22.086,-1.202,-0.672,0.093,-3.904,12.736,-22.094
14:42:37:064,22.190,1.302,0.489,0.471,-3.816,15.356,-20.391
14:42:37:064,22.190,-1.093,-0.460,0.765,-3.246,20.517,-19.063
14:42:37:065,22.191,-0.604,0.153,0.046,-3.063,24.305,-17.207
14:42:37:066,22.192,-0.176,0.098,0.030,-6.798,28.087,-12.887
14:42:37:088,22.214,0.000,-0.197,-0.048,-7.820,27.737,-11.741
14:42:37:089,22.214,-0.006,0.117,0.025,-8.890,27.332,-10.853
14:42:37:09,22.215,0.191,-0.010,-0.155,-10.020,26.971,-9.565
14:42:37:639,22.765,0.014,0.045,0.018,-14.054,27.914,1.599
14:42:37:64,22.765,0.010,0.038,0.015,-14.485,27.727,2.660
14:42:37:641,22.766,0.016,0.004,0.036,-15.086,27.361,4.227
14:42:37:667,22.793,0.054,0.043,0.012,-15.471,26.541,5.263
14:42:37:668,22.794,0.075,0.073,0.013,-16.063,26.071,6.943
14:42:37:746,22.872,0.158,0.117,0.166,-18.146,24.085,13.196
14:42:37:747,22.873,0.304,0.196,-0.144,-18.891,24.009,15.293
14:42:37:748,22.874,0.414,0.366,-0.003,-20.065,23.343,19.033
14:42:37:749,22.875,1.003,-0.029,-0.150,-22.511,16.530,32.646
14:42:37:772,22.898,0.175,0.551,-0.012,-7.881,24.024,9.119
14:42:37:773,22.899,-0.383,0.965,-0.139,-5.736,27.526,-0.262
14:42:37:773,22.899,-0.900,1.175,-0.137,-4.434,30.623,-6.343
14:42:37:842,22.968,-2.737,-0.875,0.908,1.225,42.455,-17.666
14:42:37:93,23.056,-2.675,-1.491,0.695,3.786,47.290,-19.603
14:42:37:93,23.056,-0.182,-0.001,-0.530,3.093,48.785,-18.267
14:42:37:931,23.057,1.319,1.208,-1.320,1.604,49.449,-17.406
14:42:37:932,23.058,-0.515,1.018,0.611,0.491,50.844,-15.085
14:42:38:167,23.293,-0.463,-0.134,-0.142,-0.345,51.783,-13.548
14:42:38:167,23.293,-0.021,-0.019,0.379,-2.619,53.533,-11.701
14:42:38:168,23.294,0.116,0.095,-0.036,-13.995,56.270,10.468
14:42:38:169,23.295,0.211,0.053,0.068,-14.412,56.169,12.013
14:42:38:187,23.313,0.244,0.099,0.043,-15.292,56.537,14.723
14:42:38:188,23.314,0.192,0.247,-0.319,-16.331,56.760,17.852
14:42:38:219,23.345,0.362,0.322,-0.383,-16.917,56.690,20.366
14:42:38:22,23.346,0.844,0.301,-0.556,-17.502,55.287,25.039
14:42:38:22,23.346,0.921,0.128,-1.031,-17.964,53.935,28.626
14:42:38:221,23.347,0.616,-0.131,-1.069,-18.884,51.400,34.762
14:42:38:323,23.448,0.280,0.567,-0.646,-21.150,50.086,41.953
14:42:38:323,23.448,0.568,0.255,-0.600,-25.329,51.570,46.612
14:42:38:324,23.449,0.350,-0.303,-0.464,-30.850,53.563,50.410
14:42:38:607,23.733,0.197,-0.555,-0.342,-33.450,55.197,51.820
14:42:38:608,23.734,0.060,-0.943,-0.434,-34.889,58.718,52.377
14:42:38:739,23.865,-0.054,-0.775,-0.303,-34.533,60.864,51.398
14:42:38:74,23.866,-0.127,-0.695,-0.321,-32.515,64.197,48.342
14:42:39:027,24.153,-0.043,-0.659,-0.394,-28.202,67.734,43.132
14:42:39:028,24.154,-0.021,-0.473,-0.419,-25.001,69.890,38.910
14:42:39:181,24.307,-0.009,-0.240,-0.514,-20.249,73.155,31.768
14:42:39:214,24.340,-0.107,-0.009,-0.471,-17.148,75.469,26.497
14:42:39:214,24.340,-0.191,0.136,-0.406,-12.989,78.590,18.119
14:42:39:215,24.341,-0.301,0.500,-0.117,-9.791,81.304,9.092
14:42:39:689,24.814,-0.397,0.602,0.199,-8.132,82.663,2.757
14:42:39:69,24.815,-0.763,0.979,0.826,-6.522,84.061,-6.661
14:42:39:69,24.816,-0.274,0.726,2.380,-5.887,84.880,-12.554
14:42:39:691,24.817,-0.659,-0.186,1.581,-4.484,83.795,-19.251
14:42:39:793,24.919,-1.577,-0.804,2.267,-4.234,83.954,-22.615
14:42:39:794,24.920,-0.422,-0.758,1.208,-3.906,84.210,-22.579
14:42:39:795,24.921,0.251,1.606,-1.929,-5.193,85.962,-20.807
14:42:39:795,24.921,-0.712,0.857,0.684,-4.454,87.844,-19.859
14:42:39:863,24.989,-0.059,0.058,0.300,-5.346,91.764,-17.336
14:42:39:898,25.024,-0.040,-0.338,0.402,-5.982,93.260,-16.126
14:42:39:899,25.025,-0.034,0.208,0.327,-7.104,94.287,-14.397
14:42:39:9,25.026,-0.086,-0.063,-0.114,-8.546,94.090,-13.022
14:42:39:901,25.027,0.008,0.011,-0.014,-11.666,93.908,-6.717
14:42:39:978,25.104,0.007,-0.001,-0.026,-12.134,93.774,-5.558
14:42:39:978,25.104,0.013,0.043,0.025,-14.189,93.442,0.561
14:42:39:979,25.105,0.025,0.070,0.038,-14.814,93.038,2.263
14:42:39:98,25.106,0.278,0.342,-0.935,-23.001,87.257,27.556
14:42:40:187,25.313,0.128,-0.117,-0.344,-23.227,81.706,33.269
14:42:40:188,25.314,-0.014,-0.891,-0.286,-23.598,67.959,48.835
14:42:40:189,25.314,0.002,-0.706,-0.094,-21.424,67.798,45.442
14:42:40:19,25.315,0.050,-0.698,-0.190,-19.533,67.550,41.890
14:42:40:289,25.415,0.226,-0.609,-0.400,-16.338,66.302,35.212
14:42:40:29,25.416,-0.061,0.042,0.073,-10.679,88.535,-13.286
14:42:40:291,25.417,0.055,0.070,0.197,-11.846,88.180,-12.375
14:42:40:37,25.496,-0.038,-0.039,-0.213,-12.580,87.788,-11.739
14:42:40:37,25.496,-0.057,-0.074,-0.182,-13.151,87.840,-10.831
14:42:40:946,26.072,-0.022,-0.016,-0.108,-13.695,87.673,-8.936
14:42:40:947,26.073,0.047,-0.022,-0.030,-14.204,86.794,-7.436
14:42:40:948,26.074,0.008,-0.021,-0.089,-14.472,86.521,-6.478
14:42:41:129,26.255,0.006,-0.014,0.000,-14.872,86.503,-5.080
14:42:41:13,26.256,0.018,-0.018,0.043,-15.183,86.493,-4.136
14:42:41:131,26.257,0.028,-0.016,0.004,-15.725,86.076,-2.733
14:42:41:238,26.363,0.020,0.008,-0.026,-16.319,85.665,-1.421
14:42:41:238,26.364,0.020,-0.010,-0.041,-16.681,85.493,-0.611
14:42:41:239,26.365,-0.001,0.006,-0.003,-17.263,85.263,0.683
14:42:41:24,26.365,0.011,0.009,-0.007,-17.673,84.965,1.601
14:42:41:369,26.494,0.056,0.020,-0.071,-18.302,84.326,3.083
14:42:41:369,26.495,0.046,0.037,-0.104,-18.982,83.883,4.793
14:42:41:37,26.496,0.033,0.217,-0.174,-21.020,83.230,10.013
14:42:41:371,26.497,0.187,0.208,-0.162,-21.942,82.364,13.154
14:42:41:386,26.512,0.288,0.205,-0.200,-22.598,81.647,15.547
14:42:42:121,27.247,0.371,0.289,-0.293,-23.810,80.256,19.618
14:42:43:072,28.198,0.491,0.247,-0.537,-25.100,77.701,24.324
14:42:43:073,28.199,0.379,-0.043,-1.067,-25.902,75.065,27.841
14:42:43:074,28.200,0.135,0.609,-0.435,-29.595,69.324,37.702
14:42:43:47,28.595,0.387,0.289,-0.494,-33.031,67.119,43.250
14:42:43:47,28.596,0.387,-0.545,-0.855,-35.274,64.023,47.641
14:42:43:471,28.597,0.065,-0.657,-0.304,-35.701,62.997,49.431
14:42:43:472,28.598,-0.075,0.231,-0.118,-4.765,87.893,-15.104
14:42:43:489,28.615,-0.090,-0.114,0.443,-5.992,89.829,-13.429
14:42:43:489,28.615,-0.047,-0.001,-0.136,-9.609,90.483,-10.735
14:42:43:574,28.700,0.009,0.025,-0.013,-11.098,91.443,-7.954
14:42:43:575,28.701,0.004,-0.138,-0.060,-11.647,90.982,-6.482
14:42:43:575,28.701,0.026,0.014,0.072,-13.478,90.638,-2.285
14:42:43:576,28.702,0.018,-0.004,0.008,-13.914,89.911,-1.269
14:42:43:617,28.743,-0.006,-0.005,-0.064,-14.562,89.404,0.260
14:42:43:678,28.804,0.022,0.026,0.007,-15.161,88.659,1.836
14:42:43:679,28.805,0.021,0.005,0.017,-15.558,88.410,2.846
14:42:43:679,28.805,-0.006,0.006,-0.068,-16.139,87.489,4.353
14:42:43:68,28.806,0.095,0.096,-0.062,-16.553,87.067,5.476
14:42:43:758,28.884,0.124,0.078,-0.073,-17.276,86.416,7.389
14:42:43:758,28.884,0.173,0.080,-0.063,-17.841,86.081,8.844
14:42:43:781,28.906,-0.166,-0.822,-0.394,-26.991,93.991,48.200
14:42:43:782,28.907,-0.070,-0.702,-0.384,-23.761,95.915,43.491
14:42:43:783,28.908,-0.102,-0.111,-0.478,-14.271,102.275,25.151
14:42:43:862,28.988,1.335,-0.307,0.815,-0.048,133.997,-18.092
14:42:43:863,28.989,0.321,0.003,0.694,-1.355,137.828,-15.436
14:42:43:864,28.990,0.386,0.092,-0.075,-2.371,139.298,-14.716
14:42:43:865,28.991,0.082,0.114,0.319,-3.938,141.133,-13.388
14:42:43:967,29.093,-0.308,-0.252,-0.125,-4.890,141.175,-12.636
14:42:43:968,29.093,-0.064,0.030,0.004,-6.045,141.318,-11.425
14:42:43:969,29.094,0.060,-0.006,-0.001,-7.367,141.901,-10.099
14:42:43:969,29.095,0.106,0.059,0.085,-7.909,142.576,-9.210
14:42:44:065,29.191,0.053,-0.021,0.065,-8.510,143.747,-7.940
14:42:44:274,29.400,-0.020,0.029,-0.020,-9.260,143.631,-6.474
14:42:44:431,29.557,-0.013,0.037,-0.060,-9.746,143.247,-5.310
14:42:46:112,31.238,-0.010,-0.007,0.018,-10.349,143.038,-3.564
14:42:46:585,31.711,0.018,0.003,0.013,-10.726,142.910,-2.406
14:42:46:662,31.788,0.036,-0.007,0.030,-11.295,142.656,-0.719
14:42:46:776,31.902,0.000,-0.002,-0.005,-11.701,142.426,0.329
14:42:46:777,31.903,0.018,0.041,-0.005,-12.284,142.289,1.846
14:42:46:778,31.904,0.045,0.044,-0.012,-12.794,142.254,3.283
14:42:46:876,32.002,-0.012,0.008,-0.011,-13.604,140.723,5.610
14:42:46:876,32.002,-0.027,0.018,-0.047,-13.915,140.674,6.583
14:42:46:951,32.077,-0.049,0.040,-0.089,-14.409,139.093,8.249
14:42:47:556,32.681,0.075,0.034,-0.144,-15.062,137.900,10.286
14:42:47:635,32.761,-0.057,0.061,-0.079,-15.619,137.969,11.843
14:42:48:036,33.162,-0.259,0.186,-0.148,-16.447,136.919,14.421
14:42:48:037,33.163,-0.153,0.289,-0.292,-16.974,136.694,16.528
14:42:48:038,33.164,-0.136,0.301,-0.500,-17.679,134.638,20.288
14:42:48:039,33.165,-0.255,0.322,-0.791,-18.138,133.639,23.189
14:42:48:061,33.186,-0.519,0.142,-0.981,-18.856,130.439,28.200
14:42:48:061,33.187,-0.426,-0.040,-0.493,-19.669,127.649,33.641
14:42:48:062,33.188,-0.634,0.162,-0.143,-20.667,126.065,37.977
14:42:48:237,33.362,-0.504,0.271,-0.550,-24.504,126.303,44.179
14:42:48:325,33.451,-0.355,-0.747,-0.205,-26.502,130.486,43.964
14:42:48:326,33.452,0.041,0.978,0.354,-6.238,142.550,-3.615
14:42:48:326,33.452,0.069,0.016,0.021,-10.263,176.772,-6.177
14:42:48:327,33.453,-0.586,-0.412,-0.154,-25.476,167.803,43.919
14:42:48:614,33.739,-0.260,-0.489,0.020,-27.423,168.437,46.339
14:42:48:614,33.739,-0.355,-0.801,0.184,-24.769,171.551,45.626
14:42:48:615,33.740,-0.307,-0.568,0.106,-22.502,175.397,41.233
14:42:48:616,33.741,-0.394,-0.430,0.154,-20.531,178.191,37.271
14:42:48:842,33.968,-0.507,-0.365,0.207,-16.693,-178.033,30.494
14:42:49:318,34.444,-0.367,-0.038,0.182,-12.808,-174.697,23.090
14:42:49:318,34.444,-0.302,0.022,0.212,-10.401,-172.579,17.851
14:42:49:423,34.548,2.658,-0.890,0.792,2.065,-155.680,-21.860
14:42:49:423,34.549,-0.115,0.094,0.083,-12.042,-138.847,9.779
14:42:49:505,34.631,-0.159,0.097,0.007,-12.411,-138.877,11.352
14:42:49:506,34.632,-0.024,-0.598,0.199,-28.474,-127.028,43.180
14:42:49:507,34.633,-0.123,-0.361,0.292,-25.484,-123.204,36.557
14:42:49:508,34.634,-0.313,-0.232,0.280,-20.918,-121.156,29.563
14:42:49:558,34.684,-0.338,-0.088,0.199,-17.631,-120.407,24.637
14:42:49:559,34.685,-0.239,0.061,0.040,-12.863,-120.207,16.696
14:42:49:559,34.685,-0.242,0.421,0.152,-10.111,-120.679,11.227
14:42:49:585,34.711,1.243,-0.634,-1.067,2.746,-108.246,-19.542
14:42:49:585,34.711,-0.033,-0.007,0.431,0.804,-107.956,-17.793
14:42:49:586,34.712,0.185,-0.087,-1.199,0.230,-107.730,-16.322
14:42:49:587,34.713,0.654,-0.120,0.270,-1.552,-107.545,-14.294
14:42:49:612,34.737,0.008,0.083,-0.413,-3.076,-106.731,-13.069
14:42:49:612,34.738,0.049,0.006,0.026,-9.047,-105.245,-4.861
14:42:49:613,34.739,-0.026,-0.092,0.175,-9.699,-105.419,-3.353
14:42:49:614,34.739,-0.012,-0.154,0.115,-10.025,-105.294,-2.172
14:42:49:656,34.782,-0.024,0.033,-0.019,-10.550,-104.938,-0.390
14:42:49:691,34.817,-0.121,0.154,0.256,-15.874,-106.382,15.978
14:42:49:691,34.817,-0.249,-0.487,0.389,-18.908,-112.714,36.116
14:42:49:691,34.817,-0.327,-0.200,0.388,-15.108,-112.452,28.507
14:42:49:692,34.818,-0.083,0.662,-0.017,-8.977,-108.807,4.564
14:42:49:711,34.837,0.306,1.073,-0.279,-7.854,-107.987,-2.144
14:42:49:712,34.838,0.850,0.099,-1.789,-4.604,-105.246,-19.258
14:42:49:76,34.886,2.229,-1.118,-2.193,-2.684,-103.014,-22.091
14:42:49:812,34.938,0.833,-1.039,-1.773,-1.987,-99.904,-21.201
14:42:50:4,35.526,0.266,0.619,0.890,-3.288,-97.854,-19.396
14:42:50:4,35.526,-0.167,0.615,-1.610,-3.139,-95.057,-17.321
14:42:50:401,35.527,0.582,0.032,0.008,-4.393,-94.616,-15.686
14:42:50:402,35.528,-0.249,0.068,-0.430,-6.094,-92.779,-13.372
14:42:50:659,35.785,0.005,-0.041,-0.135,-6.874,-91.747,-11.492
14:42:50:659,35.785,0.078,0.107,0.005,-7.916,-91.880,-10.571
14:42:50:66,35.785,0.061,-0.122,0.043,-9.103,-92.072,-9.325
14:42:51:083,36.209,0.027,0.026,0.074,-10.479,-92.094,-7.293
14:42:51:083,36.209,0.001,-0.018,0.011,-11.147,-92.047,-5.688
14:42:51:083,36.209,0.013,0.059,0.005,-11.642,-92.286,-4.461
14:42:51:344,36.470,0.001,-0.002,0.072,-12.337,-92.775,-2.617
14:42:51:345,36.470,0.006,0.006,0.021,-12.734,-92.942,-1.430
14:42:51:346,36.471,0.017,0.027,0.031,-13.351,-93.226,0.325
14:42:51:347,36.472,0.010,0.021,0.001,-13.921,-93.675,2.068
14:42:51:521,36.646,-0.022,0.030,0.010,-14.307,-94.114,3.190
14:42:51:728,36.854,-0.043,0.030,0.045,-14.888,-94.795,4.815
14:42:51:811,36.937,-0.017,0.011,0.061,-15.247,-95.126,5.823
14:42:51:812,36.938,0.007,0.009,0.050,-15.847,-95.637,7.480
14:42:52:045,37.171,-0.018,0.058,0.148,-16.252,-97.227,8.702
14:42:52:333,37.458,-0.096,0.060,0.123,-16.905,-98.045,10.771
14:42:53:313,38.439,-0.185,0.069,0.097,-17.699,-99.771,13.271
14:42:53:314,38.440,0.150,-0.534,-0.024,-27.791,-121.187,52.769
14:42:53:315,38.441,-0.333,-0.856,0.343,-27.302,-122.730,53.879
14:42:53:316,38.442,-0.160,-1.014,0.359,-24.778,-123.399,51.964
14:42:53:385,38.510,-0.119,-0.820,0.248,-23.511,-123.380,49.626
14:42:53:385,38.511,0.178,1.029,-0.312,-9.866,-116.726,-0.045
14:42:53:469,38.595,0.706,1.381,-0.905,-8.916,-115.161,-9.866
14:42:53:47,38.596,1.066,-0.923,-1.318,-4.018,-107.534,-21.944
14:42:53:471,38.597,0.033,0.028,0.101,-13.524,-94.002,-1.151
14:42:53:472,38.598,0.019,-0.052,0.064,-14.026,-94.763,0.147
14:42:53:54,38.666,-0.020,0.030,0.064,-14.406,-95.289,1.123
14:42:53:645,38.771,-0.028,0.014,0.048,-15.014,-95.987,2.649
14:42:53:967,39.093,-0.213,0.067,0.120,-19.294,-99.948,12.943
14:42:53:968,39.094,-0.162,0.120,0.229,-20.515,-100.338,15.731
14:42:53:968,39.094,-0.159,0.198,0.363,-21.416,-100.673,17.924
14:42:54:358,39.484,-0.374,0.313,0.447,-22.802,-101.937,22.039
14:42:54:358,39.484,-0.082,-0.947,0.305,-29.374,-122.411,51.840
14:42:54:441,39.567,-0.053,0.324,-0.018,-9.883,-113.228,9.292
14:42:54:442,39.568,0.327,0.483,-0.220,-8.243,-109.100,0.694
14:42:54:443,39.568,0.938,0.761,-1.277,-4.099,-101.997,-12.545
14:42:54:468,39.594,0.024,0.014,0.015,-12.489,-92.667,2.455
14:42:54:468,39.594,-0.626,-0.769,-0.597,-1.329,-67.268,-16.617
14:42:54:469,39.595,-0.131,0.324,-1.139,-1.445,-64.478,-14.817
14:42:54:47,39.596,0.088,0.309,-0.172,-3.605,-63.288,-12.741
14:42:54:546,39.672,0.040,-0.180,-0.004,-4.576,-62.663,-11.649
14:42:54:547,39.673,0.055,0.000,-0.144,-5.804,-61.503,-10.324
14:42:54:548,39.674,0.023,0.047,0.000,-6.992,-61.131,-9.057
14:42:54:572,39.698,0.094,0.027,0.062,-8.676,-60.684,-7.189
14:42:54:573,39.698,0.015,-0.029,0.016,-9.134,-60.431,-6.397
14:42:54:574,39.699,-0.024,0.061,-0.021,-9.602,-60.108,-5.045
14:42:54:651,39.777,0.002,0.019,0.031,-13.192,-62.022,5.747
14:42:54:652,39.778,0.012,0.282,0.864,-17.454,-65.442,24.315
14:42:54:653,39.779,0.366,0.064,1.117,-18.065,-67.693,29.269
14:42:54:653,39.779,0.822,0.176,0.455,-20.518,-70.466,39.266
14:42:54:677,39.803,0.283,0.721,-0.133,-7.273,-41.291,6.991
14:42:54:678,39.804,0.101,1.053,-0.600,-5.603,-38.668,0.481
14:42:54:679,39.805,-0.926,0.010,-1.603,-0.317,-29.501,-15.504
14:42:54:679,39.805,-0.916,-0.594,-2.857,1.543,-26.527,-18.203
14:42:54:731,39.857,-0.980,-0.066,-1.664,2.303,-24.439,-19.278
14:42:54:731,39.857,1.816,1.525,1.311,1.553,-24.351,-17.505
14:42:54:731,39.857,-0.647,-0.842,0.085,0.617,-22.792,-16.205
14:42:54:732,39.858,-0.330,0.613,-0.884,0.000,-20.999,-14.312
14:42:54:756,39.882,-0.007,0.294,-0.229,-2.403,-20.353,-12.276
14:42:54:757,39.882,-0.226,-0.337,-0.069,-3.564,-18.491,-10.574
14:42:54:758,39.883,-0.097,-0.003,-0.102,-4.404,-17.512,-9.807
14:42:54:759,39.884,0.051,0.074,0.013,-5.783,-17.032,-8.612
14:42:54:832,39.958,-0.008,-0.037,-0.029,-6.633,-16.743,-7.718
14:42:54:833,39.959,0.126,-0.012,-0.018,-7.661,-16.680,-6.602
14:42:54:833,39.959,0.223,-0.034,-0.027,-8.424,-16.121,-5.458
14:42:54:907,40.033,-0.093,-0.041,0.025,-8.786,-15.499,-4.609
14:42:55:009,40.135,-0.109,0.064,0.067,-9.430,-14.946,-2.933
14:42:55:413,40.539,0.046,-0.002,0.019,-9.950,-14.992,-1.770
14:42:55:413,40.539,0.089,-0.027,-0.011,-10.653,-14.913,-0.038
14:42:55:414,40.540,-0.035,0.012,0.043,-11.052,-14.633,1.226
14:42:55:676,40.802,0.010,0.015,0.004,-12.356,-14.307,5.087
14:42:55:677,40.802,-0.047,0.067,0.030,-12.797,-14.451,6.359
14:42:55:677,40.803,-0.053,0.085,0.066,-13.479,-13.833,8.216
14:42:55:678,40.804,0.007,0.049,0.083,-13.926,-14.165,9.395
14:42:55:701,40.827,0.060,0.022,0.130,-14.522,-14.041,11.132
14:42:55:702,40.828,0.149,0.110,0.107,-15.144,-14.297,13.118
14:42:55:702,40.828,0.138,0.244,0.153,-15.686,-13.763,14.660
14:42:55:703,40.829,0.330,0.337,0.186,-16.583,-13.777,17.433
14:42:55:727,40.853,0.373,0.266,0.237,-17.205,-13.403,19.655
14:42:55:728,40.854,0.616,0.281,0.300,-18.213,-13.957,23.670
14:42:55:729,40.855,1.106,0.232,0.447,-19.292,-15.032,28.524
14:42:55:73,40.856,1.172,0.061,0.365,-19.918,-16.966,32.159
14:42:55:808,40.934,0.516,0.045,-0.241,-19.931,-20.963,38.280
14:42:55:808,40.934,0.912,-0.003,0.216,-20.653,-22.901,43.005
14:42:55:809,40.934,0.496,-0.206,0.461,-25.165,-22.526,48.040
14:42:55:809,40.934,0.155,-0.529,-0.013,-27.495,-22.405,49.843
14:42:55:938,41.064,0.608,-0.773,0.450,-29.762,-21.675,51.852
14:42:55:938,41.064,0.343,-1.074,-0.073,-30.278,-20.658,50.947
14:42:55:939,41.065,0.326,-0.752,0.030,-29.959,-18.800,48.923
14:42:55:94,41.066,0.268,-0.603,0.073,-27.721,-16.576,43.729
14:42:56:112,41.237,0.389,-0.456,0.198,-25.273,-15.450,39.237
14:42:56:672,41.798,0.393,-0.283,0.347,-20.796,-14.694,31.638
14:42:56:673,41.798,-1.835,0.269,-0.621,-5.869,-9.854,-20.987
14:42:56:674,41.799,-2.296,-1.546,-1.511,-2.724,-6.735,-25.317
14:42:56:674,41.800,-1.241,-0.440,-0.966,-2.153,-5.219,-25.357
14:42:56:691,41.817,1.936,1.898,0.118,-3.318,-2.493,-22.719
14:42:56:778,41.904,-1.256,0.386,0.499,-3.206,-1.201,-22.358
14:42:56:778,41.904,-0.561,0.038,-0.137,-3.477,1.852,-19.751
14:42:56:779,41.905,-0.179,0.078,-0.347,-5.277,2.640,-17.730
14:42:56:78,41.906,-0.359,0.006,0.092,-6.507,3.459,-16.521
14:42:57:241,42.367,-0.087,-0.053,0.009,-7.628,4.569,-14.974
14:42:57:355,42.480,-0.209,-0.034,0.000,-8.299,5.040,-14.303
14:42:57:355,42.481,0.091,0.039,-0.023,-9.646,4.781,-12.931
14:42:57:356,42.482,0.185,-0.023,-0.066,-10.880,4.070,-11.308
14:42:57:357,42.483,0.025,-0.005,-0.043,-11.264,4.312,-10.338
14:42:57:485,42.610,-0.111,-0.009,0.025,-11.640,4.984,-8.673
14:42:57:485,42.610,0.050,0.009,0.048,-11.996,4.920,-7.425
14:42:57:485,42.610,0.072,-0.030,0.023,-12.559,4.358,-5.448
14:42:57:924,43.050,-0.008,0.005,0.008,-12.887,4.237,-4.172
14:42:58:16,43.286,-0.054,0.023,0.029,-13.384,4.173,-2.256
14:42:58:351,43.476,-0.037,-0.005,0.023,-13.909,3.846,-0.378
14:42:58:351,43.477,-0.014,-0.007,0.016,-14.299,3.453,0.801
14:42:58:457,43.583,0.350,-0.674,-0.016,-27.566,-7.669,44.259
14:42:58:458,43.584,0.423,-0.451,0.056,-22.947,-5.774,37.432
14:42:58:459,43.585,0.448,-0.362,0.057,-19.803,-4.791,32.364
14:42:58:565,43.691,0.406,0.166,0.073,-13.019,-3.311,18.147
14:42:58:565,43.691,0.229,0.519,0.097,-10.524,-1.475,8.731
14:42:58:565,43.691,-0.213,1.003,-0.063,-9.130,0.099,2.140
14:42:58:566,43.692,-0.797,1.347,-0.275,-7.472,2.682,-7.845
14:42:58:641,43.767,-1.572,0.502,-0.769,-5.119,8.064,-16.088
14:42:58:642,43.768,0.083,0.008,-0.012,-15.328,25.784,2.918
14:42:58:643,43.769,0.020,0.068,0.036,-16.066,25.748,4.791
14:42:58:644,43.770,0.023,0.055,0.087,-16.521,25.552,5.972
14:42:58:72,43.846,0.056,0.048,0.094,-17.168,25.263,7.657
14:42:58:721,43.847,0.106,-0.004,0.052,-17.799,25.025,9.345
14:42:58:722,43.847,0.176,0.035,0.035,-18.277,24.928,10.614
14:42:58:747,43.873,0.597,0.327,0.030,-21.739,23.746,20.642
14:42:58:747,43.873,-0.402,0.780,-0.242,-7.954,44.557,4.061
14:42:58:748,43.874,-0.166,-0.422,0.783,-6.102,67.913,-13.618
14:42:58:749,43.875,0.021,-0.117,-0.089,-9.032,69.585,-10.516
14:42:58:825,43.951,-0.006,-0.040,-0.216,-9.998,70.279,-9.291
14:42:58:826,43.952,0.037,-0.037,-0.025,-11.865,71.437,-5.015
14:42:58:827,43.953,-0.001,-0.018,0.051,-12.432,71.490,-3.950
14:42:58:827,43.953,0.023,0.022,0.082,-13.091,71.503,-2.227
14:42:58:925,44.051,0.005,-0.006,0.051,-13.751,71.270,-0.554
14:42:58:925,44.051,-0.009,-0.002,-0.003,-14.151,70.968,0.523
14:42:59:14,44.266,0.038,0.053,0.074,-14.742,70.474,2.137
14:42:59:14,44.266,0.068,0.045,0.053,-15.096,70.070,3.161
14:42:59:141,44.267,0.077,0.027,0.026,-15.616,69.467,4.669
14:42:59:142,44.268,0.067,0.059,-0.009,-16.102,69.078,6.211
14:42:59:294,44.420,0.115,0.059,-0.038,-16.420,68.695,7.401
14:42:59:294,44.420,0.176,0.070,-0.080,-16.968,68.171,9.536
14:42:59:295,44.421,0.232,0.099,0.007,-17.478,67.905,11.236
14:42:59:974,45.100,0.167,0.137,-0.209,-18.409,68.062,14.143
14:42:59:974,45.100,0.272,0.330,-0.377,-19.078,68.228,16.389
14:42:59:997,45.123,0.331,0.291,-0.323,-20.156,67.995,20.558
14:43:00:4,45.525,0.643,0.314,-0.735,-21.286,66.356,25.489
14:43:00:4,45.526,0.714,0.112,-1.078,-21.928,64.400,29.185
14:43:00:401,45.527,0.509,-0.119,-0.474,-21.985,60.116,35.500
14:43:00:402,45.528,-0.074,0.149,-0.978,-22.677,57.987,40.338
14:43:00:557,45.683,0.455,-0.175,-0.529,-27.182,58.713,46.044
14:43:00:558,45.684,0.314,-0.146,-0.405,-30.308,59.623,49.019
14:43:00:558,45.684,0.250,-0.396,-0.359,-31.980,60.276,50.539
14:43:00:559,45.685,0.015,-1.032,-0.511,-33.095,62.315,50.185
14:43:00:684,45.810,-0.022,-0.822,-0.338,-32.729,64.010,48.444
14:43:00:684,45.810,0.032,-0.762,-0.286,-30.924,66.828,44.043
14:43:01:625,46.751,0.152,-0.566,-0.294,-28.829,68.803,39.813
14:43:02:054,47.180,0.202,-0.478,-0.311,-24.846,71.020,32.416
14:43:02:055,47.181,0.307,-0.254,-0.313,-20.623,72.278,24.241
14:43:02:055,47.181,0.345,-0.008,-0.295,-18.063,72.843,18.277
14:43:02:056,47.182,0.255,0.307,-0.153,-14.624,73.729,8.828
14:43:02:337,47.463,0.108,0.851,0.137,-12.789,74.230,2.094
14:43:02:338,47.464,-1.291,-0.080,1.938,-7.208,78.622,-21.947
14:43:02:464,47.590,-1.811,-1.438,2.494,-3.851,82.802,-25.101
14:43:03:027,48.153,-0.645,0.389,0.297,-5.544,87.830,-20.368
14:43:03:027,48.153,0.247,0.230,-0.407,-22.404,86.272,19.870
14:43:03:027,48.153,-0.044,0.458,-0.688,-27.285,75.588,40.118
14:43:03:07,48.196,0.314,0.314,-0.043,-16.424,83.867,7.048
14:43:03:182,48.308,0.189,0.775,0.188,-12.735,83.548,-2.640
14:43:03:183,48.309,-0.171,1.242,1.154,-10.977,82.726,-9.204
14:43:03:184,48.309,-0.491,0.902,1.788,-9.320,81.277,-18.229
14:43:03:185,48.310,-0.795,-0.657,1.082,-5.284,85.555,-24.796
14:43:03:703,48.829,0.259,0.487,-0.821,-5.796,88.210,-22.812
14:43:03:703,48.829,0.596,0.383,1.020,-6.348,89.252,-20.704
14:43:03:86,48.986,-0.630,0.161,0.386,-7.333,90.779,-18.266
14:43:03:861,48.987,0.083,-0.089,0.241,-9.800,94.529,-13.359
14:43:04:147,49.273,0.012,-0.052,0.195,-10.299,95.397,-12.503
14:43:04:148,49.274,-1.689,-0.717,1.391,-5.965,73.669,-24.774
14:43:04:333,49.459,-0.010,-0.037,-0.139,-13.718,81.769,-6.306
14:43:04:334,49.460,0.014,0.012,0.088,-14.029,81.635,-5.476
14:43:04:355,49.481,0.024,-0.011,0.081,-14.458,81.276,-4.278
14:43:05:064,50.190,0.014,0.001,-0.006,-14.911,80.666,-3.063
14:43:05:089,50.215,0.111,0.081,0.012,-17.062,76.777,6.270
14:43:05:442,50.568,0.133,0.092,-0.037,-17.493,75.667,8.114
14:43:05:442,50.568,-0.147,0.270,-0.686,-23.072,65.302,36.270
14:43:05:443,50.569,-1.355,-1.379,2.715,-1.712,92.873,-25.999
14:43:05:444,50.570,-0.332,-0.711,1.313,-0.910,95.037,-26.076
14:43:05:641,50.767,-0.354,1.564,-0.839,-2.336,98.353,-23.419
14:43:05:798,50.924,-0.339,0.596,1.184,-1.772,100.683,-22.183
14:43:05:939,51.065,0.046,0.060,0.244,-5.287,105.988,-16.590
14:43:05:94,51.066,-0.092,0.038,-0.025,-6.979,106.147,-15.645
14:43:05:94,51.066,-0.136,-0.125,-0.150,-8.021,106.446,-14.565
14:43:05:941,51.067,-0.032,-0.055,0.092,-8.573,106.975,-13.738
14:43:06:325,51.451,0.009,0.137,0.102,-9.420,107.083,-12.068
14:43:06:796,51.922,0.254,0.418,-0.539,-18.502,102.628,18.032
14:43:07:452,52.578,0.302,0.379,-1.063,-18.824,100.768,21.444
14:43:07:586,52.712,-0.106,-0.495,-0.470,-29.455,96.676,45.562
14:43:07:855,52.981,-0.028,-0.641,-0.465,-32.108,99.541,47.599
14:43:07:856,52.982,-0.387,0.665,0.725,-2.980,138.468,-1.894
14:43:07:857,52.983,-0.090,0.936,1.264,-1.547,140.522,-7.757
14:43:07:857,52.983,0.420,0.501,1.017,0.903,149.920,-18.051
14:43:07:881,53.007,0.159,0.447,0.298,-0.698,150.444,-16.872
14:43:07:882,53.008,0.026,-0.048,0.104,-5.264,154.785,-12.189
14:43:07:883,53.009,-0.804,0.203,-0.255,-17.977,142.723,40.606
14:43:08:011,53.137,0.439,1.078,0.319,-6.282,155.269,-7.008
14:43:08:011,53.137,1.199,0.977,0.802,-5.145,157.198,-15.967
14:43:08:012,53.138,1.546,-0.305,1.455,-2.308,159.383,-22.327
14:43:08:454,53.579,1.661,-1.048,1.757,-0.792,160.940,-24.594
14:43:08:454,53.580,-0.102,0.024,0.064,-7.847,172.648,-11.686
14:43:08:535,53.661,-0.027,0.053,0.023,-10.426,171.696,-4.590
14:43:08:536,53.662,-0.004,0.022,0.031,-11.347,171.920,-1.756
14:43:08:537,53.663,0.033,0.026,0.003,-11.960,171.896,-0.193
14:43:08:564,53.690,-0.030,-0.022,0.028,-12.381,171.640,0.816
14:43:08:564,53.690,-0.042,-0.008,0.051,-12.983,171.670,2.317
14:43:08:565,53.691,-0.340,-0.951,-0.096,-30.245,156.193,48.749
14:43:08:566,53.692,-0.010,-0.061,0.197,-2.064,-168.983,-10.432
14:43:08:637,53.762,-0.531,-0.052,0.079,-23.310,-177.155,46.521
14:43:08:638,53.763,-0.323,-0.641,0.228,-23.110,-169.172,43.352
14:43:08:897,54.023,-0.035,0.616,0.235,-5.481,-155.640,5.117
14:43:09:294,54.420,0.648,1.110,0.388,-3.387,-152.224,-4.568
14:43:09:294,54.420,1.834,1.005,-0.200,-2.204,-149.570,-10.647
14:43:09:976,55.102,2.250,0.297,-1.168,0.908,-145.265,-17.638
14:43:09:977,55.103,3.017,-1.090,-0.412,3.893,-140.731,-20.702
14:43:10:009,55.134,1.736,-0.891,-0.462,4.104,-139.166,-19.953
14:43:10:009,55.135,-1.591,1.881,1.333,1.748,-137.849,-17.831
14:43:10:01,55.135,0.716,-0.457,-1.247,2.152,-136.748,-16.624
14:43:10:01,55.136,0.674,0.043,0.317,0.224,-135.874,-14.200
14:43:10:26,55.386,-0.013,0.350,-0.336,-1.419,-135.493,-12.999
14:43:10:402,55.528,0.108,-0.251,-0.128,-2.234,-134.069,-11.184
14:43:10:402,55.528,-0.023,0.011,0.041,-10.651,-131.760,6.085
14:43:10:403,55.529,-0.034,0.031,0.082,-11.047,-130.809,7.586
14:43:10:404,55.530,-0.116,0.066,0.081,-11.734,-130.101,10.581
14:43:10:659,55.785,-0.113,0.083,0.003,-12.362,-130.070,12.890
14:43:10:659,55.785,-0.100,0.062,0.180,-12.806,-128.814,14.573
14:43:11:162,56.288,-0.141,0.236,0.322,-13.479,-128.562,17.516
14:43:11:163,56.289,-0.271,0.193,0.247,-13.880,-127.881,19.875
14:43:11:164,56.290,-0.453,0.202,0.328,-14.445,-128.729,23.792
14:43:11:164,56.290,-0.640,0.249,0.455,-15.180,-129.125,28.341
14:43:11:241,56.366,-0.733,-0.008,0.702,-15.536,-130.714,31.668
14:43:11:242,56.368,-0.368,-0.093,0.516,-15.740,-133.376,37.088
14:43:11:242,56.368,-0.075,-0.127,0.459,-16.366,-115.492,27.944
14:43:11:267,56.393,0.167,0.694,-0.615,-5.275,-96.183,-17.847
14:43:11:268,56.394,-0.184,0.328,0.540,-20.586,-93.631,22.194
14:43:11:269,56.395,-0.342,0.357,0.801,-21.413,-94.915,25.428
14:43:11:346,56.472,-0.198,0.050,1.107,-22.582,-98.358,30.671
14:43:11:347,56.473,0.122,0.065,0.367,-23.568,-102.793,36.507
14:43:11:348,56.474,0.133,0.227,0.454,-24.906,-105.053,40.788
14:43:11:349,56.475,-0.321,-0.016,0.226,-14.044,-111.362,23.962
14:43:11:478,56.604,-0.271,0.155,0.242,-11.594,-110.038,15.508
14:43:11:478,56.604,-0.222,0.483,0.114,-10.377,-108.964,9.577
14:43:11:479,56.605,0.096,0.718,-0.150,-8.489,-107.588,0.265
14:43:11:48,56.606,0.427,1.226,-0.687,-7.410,-107.072,-6.098
14:43:11:629,56.755,0.266,-0.182,-0.331,-5.634,-88.283,-10.093
14:43:11:63,56.756,0.052,-0.076,-0.376,-7.080,-86.967,-7.632
14:43:11:759,56.885,-0.098,0.040,0.126,-17.563,-92.033,11.407
14:43:12:047,57.172,0.008,0.137,0.239,-18.499,-92.449,13.715
14:43:12:24,57.365,-0.090,0.375,0.381,-19.231,-92.597,15.718
14:43:12:241,57.366,-0.213,0.287,0.402,-20.460,-93.266,19.451
14:43:12:241,57.367,-0.200,0.273,0.604,-21.943,-94.328,23.863
14:43:12:242,57.368,-0.328,0.312,0.835,-23.114,-95.725,27.206
14:43:12:888,58.014,-0.226,-0.040,1.140,-24.450,-99.690,32.704
14:43:13:859,58.985,-0.177,0.066,0.180,-24.677,-103.511,36.787
14:43:14:146,59.272,-0.014,0.270,0.893,-25.673,-108.588,43.618
14:43:14:26,59.386,-0.293,0.129,0.573,-27.407,-110.720,47.201
14:43:14:261,59.387,-0.154,-0.473,0.335,-28.386,-114.268,50.744
14:43:14:262,59.388,-0.381,-0.861,0.519,-26.928,-117.364,52.595
14:43:14:263,59.389,-0.095,-1.069,0.305,-25.238,-118.498,52.289
14:43:14:436,59.562,-0.159,-0.809,0.254,-22.760,-119.151,49.853
14:43:14:47,59.595,-0.270,-0.616,0.269,-21.346,-119.374,47.058
14:43:14:47,59.596,-0.400,-0.531,0.292,-18.433,-119.502,41.228
14:43:14:523,59.649,-0.323,-0.011,0.210,-12.314,-117.014,20.792
14:43:14:523,59.649,-0.242,0.362,0.206,-11.157,-115.438,14.982
14:43:14:524,59.650,-0.131,0.531,0.087,-9.619,-112.493,5.780
14:43:14:525,59.651,0.178,0.942,-0.269,-7.707,-109.760,-4.003
14:43:14:549,59.675,-0.006,0.247,-1.603,-1.448,-97.106,-17.992
14:43:14:55,59.676,0.045,0.008,0.060,-10.651,-92.341,-1.654
14:43:14:55,59.676,0.040,-0.050,0.086,-11.633,-93.296,0.730
14:43:14:551,59.677,0.035,0.016,0.075,-12.060,-94.365,1.942
14:43:14:577,59.703,0.013,-0.001,0.030,-12.371,-94.513,2.868
14:43:14:578,59.704,0.079,-0.229,-0.268,-12.892,-95.559,4.328
14:43:14:651,59.777,0.078,0.049,0.316,-11.206,-86.292,21.721
14:43:14:652,59.778,0.178,0.116,0.357,-7.859,-83.125,14.063
14:43:14:653,59.778,0.237,0.352,0.330,-6.073,-80.454,8.710
14:43:14:68,59.806,0.387,0.732,0.000,-3.244,-75.589,0.448
14:43:14:681,59.807,0.702,1.029,-0.285,-1.242,-71.868,-5.151
14:43:14:682,59.808,0.264,-0.628,-1.673,6.874,-55.364,-17.347
14:43:14:683,59.809,0.450,1.365,1.453,5.056,-54.496,-15.237
14:43:14:701,59.827,-0.657,-0.586,-0.715,4.488,-52.223,-13.188
14:43:14:701,59.827,0.303,0.470,-0.487,2.815,-51.070,-10.830
14:43:14:724,59.850,0.303,-0.253,-0.319,0.809,-50.150,-9.009
14:43:14:76,59.886,-0.113,0.126,-0.359,-1.024,-48.446,-7.245
14:43:14:76,59.886,-0.079,-0.022,-0.222,-1.681,-47.310,-6.719
14:43:14:76,59.886,0.060,-0.052,-0.017,-3.002,-47.181,-6.093
14:43:14:761,59.887,0.014,0.052,-0.036,-3.934,-47.085,-5.817
14:43:14:838,59.964,0.036,0.034,-0.069,-5.057,-46.654,-5.253
14:43:14:839,59.964,0.122,0.015,-0.004,-5.990,-46.385,-4.668
14:43:14:84,59.965,0.089,-0.038,-0.008,-6.377,-46.107,-4.207
14:43:14:857,59.983,-0.001,-0.079,-0.013,-7.325,-45.810,-2.815
14:43:14:857,59.983,0.120,-0.063,0.066,-7.903,-46.279,-1.886
14:43:14:938,60.064,0.076,0.000,0.049,-8.245,-46.314,-1.174
14:43:14:939,60.065,0.053,-0.018,0.000,-8.813,-46.016,-0.019
14:43:14:94,60.066,0.042,-0.008,-0.019,-9.392,-45.929,1.307
14:43:14:959,60.085,0.073,-0.008,0.012,-9.774,-45.986,2.227
14:43:15:043,60.169,0.060,0.035,-0.011,-10.320,-46.025,3.632
14:43:15:043,60.169,-0.006,0.013,-0.038,-10.655,-46.039,4.558
14:43:15:068,60.194,0.020,0.008,-0.013,-11.133,-46.206,5.853
14:43:15:068,60.194,0.067,-0.005,0.023,-11.557,-46.505,7.100
14:43:15:119,60.245,0.061,0.033,0.038,-11.843,-46.625,7.996
14:43:15:12,60.246,0.014,0.049,0.093,-12.318,-46.901,9.545
14:43:15:143,60.268,-0.009,0.090,0.086,-12.696,-46.943,10.746
14:43:15:227,60.353,0.157,0.149,0.106,-13.294,-46.935,12.781
14:43:15:228,60.354,0.169,0.224,0.190,-13.637,-46.897,14.401
14:43:15:229,60.355,0.085,0.175,0.258,-14.114,-47.222,17.307
14:43:15:645,60.771,0.242,0.198,0.342,-14.719,-47.385,20.733
14:43:15:646,60.771,0.367,0.232,0.521,-15.282,-47.727,23.397
14:43:16:09,61.216,0.408,0.220,0.631,-16.402,-48.533,27.964
14:43:16:511,61.637,0.645,0.079,0.800,-17.244,-49.671,31.405
14:43:16:512,61.638,0.291,0.134,0.403,-17.448,-52.444,36.785
14:43:16:702,61.828,0.733,0.062,0.587,-17.600,-55.533,42.973
14:43:16:702,61.828,0.448,0.001,0.566,-19.695,-55.373,46.183
14:43:16:703,61.828,-0.030,-0.255,0.322,-21.800,-55.631,49.154
14:43:16:703,61.829,0.533,-0.867,0.675,-22.597,-55.760,50.730
14:43:17:06,62.186,0.478,-1.004,0.267,-23.785,-54.445,50.761
14:43:17:463,62.589,0.336,-0.718,0.185,-24.694,-51.174,48.173
14:43:17:464,62.590,0.236,-0.627,0.151,-24.400,-48.420,45.117
14:43:17:464,62.590,0.273,-0.484,0.193,-22.019,-44.798,39.335
14:43:17:465,62.591,0.310,-0.377,0.326,-19.865,-42.835,34.928
14:43:17:483,62.609,0.200,-0.072,0.309,-16.474,-39.849,27.723
14:43:17:484,62.610,0.198,-0.039,0.198,-14.024,-37.908,22.613
14:43:17:594,62.720,0.356,0.143,0.164,-10.843,-35.012,14.731
14:43:17:595,62.721,0.264,0.522,-0.048,-8.153,-31.533,6.304
14:43:17:595,62.721,0.340,0.717,-0.287,-6.322,-29.027,0.317
14:43:17:596,62.722,-0.983,1.234,-1.003,-3.703,-24.601,-8.744
14:43:18:065,63.190,-0.929,0.101,-1.338,-1.124,-22.214,-13.613
14:43:18:065,63.191,-1.520,-0.545,-1.824,2.734,-17.832,-18.228
14:43:18:066,63.192,-1.469,-0.992,-1.534,3.980,-16.505,-19.405
14:43:18:144,63.270,-0.606,-0.183,-1.022,2.128,-16.859,-18.384
14:43:18:144,63.270,0.067,0.033,0.013,-10.616,-9.875,-0.782
14:43:18:144,63.270,0.337,0.191,0.148,-15.997,-9.756,17.798
14:43:18:456,63.582,0.517,0.238,0.149,-16.908,-10.164,21.847
14:43:18:456,63.582,0.361,-0.138,0.304,-23.618,-22.270,47.736
14:43:18:746,63.872,0.137,-0.483,0.014,-24.048,-23.740,50.256
14:43:18:747,63.873,0.590,-1.062,0.040,-23.813,-25.041,51.433
14:43:18:747,63.873,0.348,-0.879,-0.021,-23.164,-24.491,50.187
14:43:18:844,63.970,-1.224,-0.725,0.211,-1.967,1.853,-19.584
14:43:18:98,64.106,0.058,-0.010,-0.002,-11.734,5.231,-5.022
14:43:18:981,64.107,0.049,-0.051,-0.023,-12.073,5.108,-4.079
14:43:19:537,64.663,-0.020,-0.019,-0.013,-12.439,5.102,-2.405
14:43:19:538,64.664,-0.001,0.015,0.015,-13.023,4.775,-0.761
14:43:19:539,64.665,0.036,0.005,-0.016,-13.444,4.177,0.269
14:43:19:54,64.666,0.029,0.007,-0.035,-13.990,3.866,1.739
14:43:19:665,64.791,0.014,0.023,-0.017,-14.319,3.347,2.718
14:43:19:666,64.792,0.025,0.019,-0.002,-14.843,2.864,4.197
14:43:19:693,64.819,0.129,0.047,0.047,-15.730,1.899,6.717
14:43:19:694,64.820,0.558,-0.868,0.157,-32.007,-13.800,53.287
14:43:19:695,64.821,0.340,-0.817,-0.024,-31.113,-12.026,51.758
14:43:19:695,64.821,0.359,-0.663,-0.044,-26.356,-7.435,44.400
14:43:19:722,64.848,0.369,-0.468,0.020,-22.228,-4.513,37.988
14:43:19:722,64.848,0.425,-0.359,0.008,-19.513,-2.663,33.248
14:43:19:764,64.890,-0.838,0.638,-0.463,-1.179,24.555,-15.749
14:43:20:085,65.211,0.037,-0.056,-0.029,-9.872,26.331,-6.880
14:43:20:086,65.212,0.080,-0.029,-0.036,-10.414,25.988,-5.420
14:43:20:087,65.213,0.017,0.005,-0.007,-12.054,25.656,-1.586
14:43:20:115,65.241,0.015,0.004,-0.008,-13.782,25.462,3.425
14:43:20:115,65.241,0.067,0.032,-0.005,-14.202,25.713,4.981
14:43:20:116,65.241,0.083,0.054,0.051,-14.517,25.716,6.077
14:43:20:116,65.242,0.065,-0.104,-0.498,-16.193,46.473,24.002
14:43:20:215,65.341,0.047,0.054,-0.503,-13.408,48.774,18.591
14:43:20:215,65.341,-0.212,0.480,-0.410,-9.786,51.613,9.592
14:43:20:264,65.390,-0.705,1.007,-0.222,-8.196,53.409,3.283
14:43:20:377,65.503,-1.380,0.139,1.670,-4.213,61.551,-12.948
14:43:20:377,65.503,-2.159,-0.412,0.998,-2.276,64.816,-15.370
14:43:20:379,65.505,0.825,1.380,-1.418,-2.114,69.291,-14.935
14:43:21:024,66.150,-0.176,-0.277,1.068,-2.914,70.515,-13.723
14:43:21:08,66.206,-0.595,-0.019,-0.227,-4.149,71.772,-11.845
14:43:21:081,66.207,-0.132,0.360,0.767,-5.386,72.491,-10.844
14:43:21:129,66.255,-0.035,-0.164,-0.209,-6.402,73.633,-9.556
14:43:21:365,66.491,-0.026,-0.317,-0.044,-6.988,74.326,-9.160
14:43:21:657,66.783,0.009,0.075,-0.266,-8.141,74.915,-8.768
14:43:21:658,66.783,-0.085,-0.097,-0.192,-8.985,75.615,-8.370
14:43:22:234,67.360,0.010,-0.048,0.146,-9.801,77.239,-7.682
14:43:22:346,67.471,0.007,-0.039,-0.013,-12.646,79.123,-1.306
14:43:22:346,67.472,-0.012,-0.023,-0.052,-13.235,78.832,0.097
14:43:22:347,67.473,0.017,0.026,0.011,-13.808,78.695,1.540
14:43:22:348,67.473,0.021,0.009,-0.003,-14.186,78.609,2.461
14:43:22:628,67.754,0.008,0.008,0.006,-14.714,78.490,3.826
14:43:22:629,67.755,-0.007,0.013,-0.051,-15.032,78.273,4.737
14:43:22:736,67.862,0.013,0.029,-0.022,-15.465,77.950,6.137
14:43:22:737,67.863,0.092,0.032,-0.045,-15.915,77.371,7.708
14:43:22:914,68.040,0.152,0.276,-0.271,-17.973,76.394,15.273
14:43:23:03,68.155,0.224,0.189,-0.369,-18.758,76.137,18.754
14:43:23:03,68.155,0.224,0.291,-0.493,-19.458,75.873,21.459
14:43:23:03,68.156,0.402,0.221,-0.716,-20.897,74.906,26.192
14:43:23:03,68.156,-0.652,0.473,0.358,-3.300,84.980,-17.418
14:43:23:704,68.829,-0.127,0.239,0.040,-5.118,85.895,-15.436
14:43:23:705,68.830,0.054,-0.017,0.474,-5.904,87.478,-14.198
14:43:24:621,69.747,-0.123,0.000,0.067,-6.675,88.713,-12.898
14:43:24:968,70.094,0.016,0.029,0.002,-14.758,89.105,1.850
14:43:24:969,70.095,0.079,0.285,-0.316,-19.781,87.259,15.709
14:43:24:969,70.095,0.172,0.217,-0.304,-20.523,86.963,18.212
14:43:25:154,70.280,-1.864,-1.187,1.938,-3.270,82.409,-24.801
14:43:25:154,70.280,-1.150,-0.889,1.881,-3.629,83.041,-24.700
14:43:25:155,70.281,-0.425,0.085,0.215,-5.277,89.377,-18.799
14:43:25:156,70.282,0.144,-0.072,0.397,-6.588,91.855,-16.715
14:43:25:26,70.386,-0.025,-0.059,0.486,-7.249,92.847,-15.638
14:43:25:261,70.387,-0.010,0.103,0.072,-8.670,93.057,-14.503
14:43:25:262,70.388,0.021,0.018,0.086,-14.239,90.896,-3.672
14:43:25:262,70.388,0.000,-0.003,0.000,-14.856,90.279,-2.021
14:43:25:802,70.928,-0.007,0.030,0.027,-15.818,89.455,0.533
14:43:25:831,70.957,0.043,0.010,0.024,-16.183,89.103,1.513
14:43:25:832,70.958,0.103,0.060,-0.058,-17.693,87.368,5.711
14:43:26:168,71.294,0.433,0.326,-0.890,-24.113,82.724,26.167
14:43:26:274,71.400,0.319,-0.118,-0.943,-25.102,78.117,32.032
14:43:26:337,71.463,0.062,0.130,-0.238,-25.647,75.028,36.381
14:43:26:338,71.464,0.189,0.280,-0.763,-28.178,72.187,42.989
14:43:26:339,71.465,0.241,-0.243,-0.689,-30.681,69.687,47.050
14:43:26:887,72.013,0.022,0.172,0.119,-9.185,95.562,-13.978
14:43:26:887,72.013,0.047,0.510,-0.023,-10.199,73.509,4.550
14:43:26:888,72.014,0.104,0.194,0.485,-1.913,98.930,-15.518
14:43:26:889,72.015,0.188,-0.270,0.522,-3.181,100.627,-13.884
14:43:26:904,72.030,-0.106,-0.117,-0.151,-6.232,102.166,-11.505
14:43:27:018,72.144,-0.058,-0.063,0.003,-8.099,104.855,-9.841
14:43:27:018,72.144,-0.036,0.025,0.048,-8.823,105.776,-8.766
14:43:27:019,72.145,-0.057,0.003,-0.022,-9.475,106.220,-7.409
14:43:27:02,72.146,-0.005,0.007,0.047,-9.855,106.410,-6.521
14:43:27:455,72.581,-0.029,-0.108,-0.010,-10.307,106.760,-5.310
14:43:27:596,72.722,0.025,-0.002,0.038,-10.615,106.900,-4.369
14:43:27:597,72.723,-0.007,0.002,0.048,-11.159,107.227,-3.086
14:43:27:598,72.724,0.010,0.005,0.074,-11.535,107.314,-2.287
14:43:27:598,72.724,-0.084,-0.468,-0.612,-25.193,93.648,45.943
14:43:27:771,72.897,0.113,-0.629,-0.374,-26.053,93.540,48.572
14:43:28:541,73.666,-0.005,-0.608,-0.317,-24.269,98.917,43.315
14:43:28:542,73.667,1.163,-0.894,0.694,3.121,131.570,-19.430
14:43:28:543,73.668,0.244,-0.331,0.185,-0.755,136.444,-13.912
14:43:28:543,73.669,0.203,0.023,0.289,-1.290,138.920,-12.869
14:43:28:56,73.686,0.102,0.084,0.089,-2.221,138.849,-12.374
14:43:28:561,73.687,-0.178,-0.110,-0.097,-3.725,138.190,-11.861
14:43:28:583,73.709,-0.250,0.004,-0.110,-5.056,138.045,-11.019
14:43:28:961,74.087,-0.197,0.126,-0.103,-13.753,134.829,11.271
14:43:28:962,74.088,-0.296,0.265,-0.156,-14.252,135.031,13.147
14:43:28:963,74.089,-0.044,0.368,-0.310,-15.028,133.717,16.756
14:43:28:963,74.089,-0.115,0.373,-0.724,-15.535,133.000,19.594
14:43:29:924,75.050,-0.527,0.051,-0.819,-17.754,128.631,30.004
14:43:29:979,75.105,-0.596,-0.150,-0.407,-18.531,126.992,33.987
14:43:29:98,75.106,-0.348,0.476,-0.106,-20.629,126.058,40.660
14:43:30:219,75.344,-0.291,0.178,-0.230,-23.953,127.178,44.301
14:43:30:219,75.345,-0.339,-0.482,-0.450,-27.994,127.822,47.634
14:43:30:22,75.346,0.818,-0.208,0.309,-5.249,152.946,-25.076
14:43:30:666,75.792,0.177,0.204,-0.266,-4.689,155.310,-23.245
14:43:30:667,75.793,0.068,-0.476,0.036,-4.178,159.212,-22.137
14:43:30:667,75.793,0.768,0.331,0.181,-4.070,163.276,-20.520
14:43:30:668,75.794,0.582,-0.058,0.347,-4.185,164.768,-19.532
14:43:31:314,76.440,-0.047,0.006,0.075,-11.167,168.152,-11.325
14:43:31:349,76.475,-0.507,-0.703,-0.193,-31.831,155.434,46.548
14:43:31:349,76.475,-0.490,-1.010,-0.326,-31.931,154.786,48.401
14:43:31:35,76.476,-0.430,-0.932,-0.221,-31.068,154.974,47.890
14:43:31:351,76.477,-0.258,-0.669,-0.196,-28.842,156.532,44.885
14:43:31:633,76.758,-0.341,-0.561,-0.195,-26.567,157.723,41.823
14:43:31:634,76.759,-0.422,-0.513,-0.283,-22.212,159.170,35.903
14:43:32:453,77.578,-0.419,-0.292,-0.292,-18.013,160.718,28.878
14:43:32:453,77.578,-1.187,0.604,-0.436,0.028,176.470,-21.822
14:43:32:454,77.579,1.186,-0.010,-0.297,0.466,177.964,-20.818
14:43:32:454,77.580,0.848,0.424,0.284,-0.794,-179.242,-17.681
14:43:32:629,77.754,-0.110,-0.170,0.499,-1.719,-178.850,-16.519
14:43:32:63,77.755,-0.403,-0.353,-0.006,-18.119,-177.199,32.263
14:43:32:714,77.840,-0.440,-0.139,-0.012,-14.072,-175.065,24.755
14:43:32:715,77.841,-0.130,0.759,0.323,-5.413,-166.468,2.294
14:43:32:715,77.841,0.215,0.379,0.562,6.834,-142.175,-17.472
14:43:32:716,77.842,-0.370,0.064,0.244,4.532,-141.227,-15.328
14:43:33:003,78.129,0.210,-0.417,-0.192,-0.304,-137.533,-8.303
14:43:33:004,78.129,0.069,-0.037,0.038,-9.920,-134.608,0.279
14:43:33:005,78.130,-0.001,0.030,0.036,-10.418,-133.583,1.634
14:43:33:005,78.131,0.054,0.008,-0.010,-10.696,-133.458,2.514
14:43:33:134,78.260,0.012,0.011,0.029,-11.092,-132.662,3.781
14:43:33:135,78.261,-0.249,-0.117,0.088,-15.526,-122.337,24.746
14:43:33:135,78.261,-0.213,0.018,0.212,-11.430,-120.984,16.702
14:43:33:136,78.262,-0.153,0.397,0.318,-8.107,-119.508,7.912
14:43:34:073,79.199,0.010,0.682,0.224,-6.343,-117.931,1.537
14:43:34:074,79.200,0.745,1.513,-0.074,-4.034,-114.532,-8.206
14:43:34:253,79.379,0.244,0.193,-0.131,-2.091,-97.957,-11.069
14:43:34:36,79.486,0.032,-0.198,-0.553,-3.672,-97.609,-8.822
14:43:35:435,80.561,-0.094,0.210,0.538,-24.203,-107.753,42.828
14:43:35:732,80.858,-0.091,-0.203,0.479,-28.050,-107.616,46.808
14:43:35:732,80.858,0.104,-0.548,0.372,-29.479,-108.774,49.440
14:43:35:732,80.858,0.019,-1.067,0.473,-29.169,-108.789,50.258
14:43:36:412,81.537,0.034,-0.489,0.376,-20.468,-101.060,36.635
14:43:36:412,81.537,0.024,-0.382,0.469,-17.981,-99.374,31.985
14:43:36:494,81.620,0.047,0.036,0.277,-12.059,-95.684,18.717
14:43:36:494,81.620,0.085,0.329,0.262,-9.428,-93.932,9.883
14:43:36:495,81.621,0.183,0.795,-0.221,-7.394,-92.376,0.235
14:43:36:495,81.621,0.415,1.213,-0.566,-6.426,-91.797,-6.413
14:43:36:521,81.647,-0.166,-0.007,-0.955,-4.178,-75.959,-13.109
14:43:36:521,81.647,-0.341,0.248,-0.485,-5.017,-74.505,-11.625
14:43:36:522,81.648,0.074,-0.149,0.035,-6.310,-74.903,-10.846
14:43:36:523,81.649,0.108,-0.019,0.028,-7.237,-75.131,-10.504
14:43:36:879,82.005,0.128,-0.078,0.121,-8.777,-74.276,-9.591
14:43:37:198,82.324,0.062,-0.042,-0.034,-9.102,-73.150,-8.545
14:43:37:199,82.325,0.007,0.056,-0.072,-9.784,-73.134,-6.985
14:43:37:273,82.399,0.096,-0.006,0.169,-10.267,-73.739,-5.951
14:43:37:309,82.435,0.343,0.936,-0.319,-3.702,-105.940,-9.179
14:43:37:309,82.435,0.801,0.592,-0.836,-0.388,-102.737,-16.689
14:43:37:31,82.436,0.126,-0.067,-0.131,-5.006,-90.987,-7.775
14:43:37:311,82.437,0.043,0.051,0.116,-8.083,-91.075,-3.975
14:43:37:854,82.980,0.014,0.335,-0.182,-4.894,-116.323,2.153
14:43:37:854,82.980,0.266,-0.028,-1.081,4.610,-104.682,-18.300
14:43:38:172,83.298,0.239,0.597,0.080,2.604,-105.146,-16.557
14:43:38:173,83.299,0.110,0.345,0.072,-0.376,-104.816,-13.238
14:43:38:173,83.299,-0.078,0.276,0.081,-15.160,-105.029,9.583
14:43:38:28,83.406,-0.214,0.403,0.105,-15.837,-106.057,12.649
14:43:38:281,83.406,-0.387,0.258,0.381,-17.416,-107.794,18.940
14:43:38:281,83.407,-0.484,0.238,0.502,-18.232,-108.943,22.044
14:43:38:357,83.483,-0.270,-0.036,0.583,-21.067,-113.121,30.950
14:43:38:358,83.484,0.026,0.339,0.412,-23.364,-115.894,37.002
14:43:38:359,83.485,-0.263,0.448,0.502,-27.003,-117.561,42.917
14:43:38:384,83.510,-0.273,-0.719,0.454,-30.702,-119.237,48.716
14:43:38:384,83.510,1.358,0.493,-1.282,1.872,-90.091,-13.200
14:43:38:436,83.562,0.209,0.011,0.401,-4.234,-76.624,-10.494
14:43:38:437,83.563,0.025,-0.080,-0.288,-4.510,-74.093,-9.559
14:43:38:438,83.564,-0.044,0.145,-0.357,-4.990,-73.030,-8.756
14:43:38:438,83.564,0.167,-0.106,0.171,-5.878,-73.983,-7.553
14:43:38:463,83.589,0.079,-0.007,0.167,-6.385,-74.731,-6.496
14:43:38:464,83.590,0.047,0.303,0.779,-15.106,-72.616,24.333
14:43:38:465,83.590,0.396,0.209,0.885,-16.684,-73.738,29.771
14:43:38:466,83.591,0.391,-0.021,0.152,-12.359,-55.082,24.140
14:43:38:542,83.668,0.560,0.087,0.100,-9.991,-52.072,19.165
14:43:38:543,83.669,0.478,0.591,-0.427,-4.231,-43.164,3.175
14:43:38:543,83.669,0.387,0.887,-0.692,-2.582,-40.796,-2.683
14:43:38:544,83.670,-0.473,0.620,-1.447,-0.198,-36.084,-10.806
14:43:38:568,83.694,-0.629,-0.246,-1.527,1.776,-32.787,-15.093
14:43:38:568,83.694,-1.217,-0.851,-2.090,4.800,-28.218,-18.823
14:43:38:568,83.694,-0.735,-0.426,-1.317,5.244,-26.122,-19.259
14:43:38:665,83.791,0.223,0.570,0.608,3.762,-25.778,-17.817
14:43:38:69,83.816,-1.145,-0.765,-0.288,2.781,-25.396,-16.862
14:43:38:751,83.877,-0.379,0.673,-0.055,1.605,-25.858,-15.560
14:43:38:752,83.878,0.584,-0.132,-0.812,-0.819,-28.035,-14.368
14:43:38:753,83.879,-0.135,0.624,0.068,-2.404,-28.008,-13.709
14:43:38:754,83.880,0.123,-0.336,-0.054,-2.927,-26.307,-12.385
14:43:38:833,83.959,0.038,-0.066,0.000,-3.742,-25.372,-11.803
14:43:38:833,83.959,0.065,0.060,-0.083,-4.573,-24.942,-11.431
14:43:38:833,83.959,0.320,-0.069,0.032,-5.934,-25.117,-10.696
14:43:38:834,83.959,-0.013,0.035,-0.075,-6.509,-24.695,-10.013
14:43:38:859,83.985,-0.154,0.047,-0.052,-7.038,-23.762,-8.921
14:43:38:859,83.985,0.136,-0.022,0.003,-7.582,-23.596,-7.761
14:43:38:859,83.985,0.259,-0.081,0.012,-7.964,-23.677,-6.992
14:43:38:859,83.985,0.108,-0.016,-0.014,-8.451,-23.216,-5.800
14:43:38:959,84.085,-0.068,-0.032,0.010,-8.625,-22.512,-4.974
14:43:38:96,84.085,-0.211,0.168,-0.014,-9.189,-21.596,-3.364
14:43:38:961,84.086,0.150,-0.075,-0.007,-9.846,-21.452,-2.014
14:43:39:005,84.131,0.084,-0.008,-0.016,-10.267,-21.332,-1.127
14:43:39:085,84.211,-0.007,0.019,-0.004,-10.792,-20.494,0.257
14:43:39:119,84.245,0.067,-0.007,-0.008,-11.135,-20.403,1.184
14:43:39:12,84.246,0.032,0.014,0.001,-11.673,-19.715,2.558
14:43:39:121,84.247,-0.007,0.001,-0.019,-12.006,-19.644,3.475
14:43:39:122,84.248,0.086,0.014,0.008,-12.472,-19.426,4.869
14:43:39:145,84.271,0.055,-0.002,0.019,-12.920,-19.647,6.329
14:43:39:146,84.272,0.045,0.021,0.039,-13.240,-19.160,7.354
14:43:39:147,84.273,0.096,0.023,0.029,-13.804,-19.301,8.990
14:43:39:148,84.273,0.190,0.123,-0.043,-14.171,-18.804,10.160
14:43:39:724,84.850,0.129,0.243,0.064,-14.685,-18.904,12.213
14:43:39:724,84.850,0.101,0.209,0.227,-15.133,-19.001,14.825
14:43:39:725,84.851,0.228,0.185,0.228,-15.462,-19.305,16.804
14:43:39:726,84.852,0.358,0.235,0.172,-16.209,-18.934,20.082
14:43:40:09,85.216,0.453,0.194,0.236,-16.831,-19.115,22.611
14:43:40:091,85.217,0.590,0.148,0.306,-18.019,-19.739,26.955
14:43:40:091,85.217,0.697,0.100,0.379,-18.915,-20.794,30.089
14:43:40:092,85.218,0.461,-0.011,0.234,-19.743,-23.288,35.038
14:43:40:87,85.995,0.532,0.180,0.074,-20.153,-26.884,40.649
14:43:41:368,86.494,0.510,0.154,0.158,-21.701,-28.374,43.986
14:43:41:845,86.971,0.513,-0.340,0.370,-23.300,-29.397,47.253
14:43:41:846,86.972,0.374,-0.809,0.100,-22.782,-30.710,49.035
14:43:41:866,86.992,0.593,-1.118,0.044,-22.657,-30.849,50.388
14:43:41:946,87.072,0.370,-0.650,0.085,-23.194,-29.222,48.538
14:43:42:714,87.840,0.246,-0.475,0.009,-23.600,-26.985,46.097
14:43:42:714,87.840,0.325,-0.506,0.094,-22.315,-24.390,41.091
14:43:42:715,87.841,0.408,-0.453,0.146,-20.549,-23.244,37.253
14:43:43:285,88.411,0.271,-0.077,0.205,-17.992,-21.589,30.839
14:43:43:314,88.440,0.156,0.097,0.142,-15.027,-20.082,23.768
14:43:43:315,88.441,0.239,0.052,0.107,-13.011,-19.842,18.972
14:43:43:975,89.101,0.205,0.422,0.146,-10.973,-19.417,11.535
14:43:43:976,89.102,0.068,0.481,0.043,-10.029,-18.468,6.491
14:43:43:977,89.102,-0.670,0.685,-0.340,-7.373,-14.310,-6.444
14:43:43:978,89.103,-0.738,0.348,-0.408,-4.775,-10.715,-13.444
14:43:44:046,89.171,-1.083,0.071,-0.675,-1.952,-7.761,-19.109
14:43:44:15,89.276,-1.776,-1.011,-0.872,-0.501,-7.137,-21.933
14:43:44:95,90.076,0.006,0.015,-0.050,-9.595,-0.869,-9.051
14:43:44:95,90.076,-0.001,-0.007,-0.081,-9.902,-0.694,-8.306
14:43:44:95,90.076,0.000,0.010,-0.041,-10.374,-1.006,-6.982
14:43:45:045,90.171,0.396,-0.359,0.186,-16.683,-17.821,33.780
14:43:45:046,90.172,0.033,0.060,-0.063,-8.660,16.480,-10.176
14:43:45:366,90.492,0.064,0.026,-0.011,-15.139,11.286,5.356
14:43:45:367,90.493,0.119,0.040,0.036,-15.695,10.899,6.917
14:43:45:368,90.494,0.177,0.120,-0.084,-17.963,10.173,12.340
14:43:45:411,90.536,-0.189,-0.275,0.045,-8.249,44.219,-4.841
14:43:45:472,90.598,-0.027,0.096,-0.062,-8.908,43.811,-4.444
14:43:45:473,90.598,0.003,-0.037,0.033,-10.084,43.217,-3.302
14:43:45:473,90.599,0.592,-0.110,-0.395,-18.228,40.282,34.953
14:43:45:653,90.779,0.112,-0.560,-0.368,-28.442,40.165,50.726
14:43:45:654,90.780,-0.028,-0.088,-0.089,-6.141,85.736,-11.646
14:43:45:655,90.780,0.013,-0.009,-0.041,-7.528,87.037,-11.017
14:43:45:753,90.879,-0.070,0.029,-0.047,-8.631,87.912,-10.343
14:43:45:936,91.062,-0.053,-0.085,0.011,-9.301,88.755,-9.772
14:43:47:59,92.716,0.009,-0.041,0.012,-11.869,89.616,-4.861
14:43:47:694,92.819,0.007,0.007,-0.008,-13.918,89.190,0.297
14:43:47:879,93.005,0.072,0.071,-0.206,-17.288,88.410,17.799
14:43:47:989,93.115,-0.030,0.404,-0.083,-15.271,90.597,12.057
14:43:47:99,93.116,-0.092,0.495,0.072,-12.057,92.741,3.215
14:43:47:991,93.117,-0.251,0.907,0.433,-9.364,92.935,-5.881
14:43:50:091,95.217,-0.320,1.066,1.205,-8.198,92.853,-11.767
14:43:50:092,95.218,-0.129,0.056,2.278,-6.198,92.335,-19.066
14:43:50:093,95.219,0.019,0.078,0.006,-10.607,104.164,-11.313
14:43:50:094,95.220,-0.073,-0.045,-0.133,-11.315,104.405,-10.332
14:43:50:221,95.347,-0.026,0.012,0.107,-11.533,105.069,-9.789
14:43:50:221,95.347,-0.025,-0.018,0.018,-11.940,105.254,-8.554
14:43:50:222,95.348,-0.004,-0.040,-0.066,-12.424,104.430,-7.073
14:43:50:766,95.892,0.020,0.002,-0.056,-12.777,103.830,-6.053
14:43:50:95,96.076,-0.027,-0.029,-0.029,-13.190,103.791,-4.550
14:43:51:087,96.213,0.006,-0.024,0.032,-13.432,103.776,-3.555
14:43:51:088,96.214,0.038,-0.004,0.039,-13.930,103.655,-2.025
14:43:51:089,96.215,0.025,0.003,0.019,-15.466,102.547,1.869
14:43:51:163,96.288,0.077,0.108,-0.026,-17.519,101.184,7.564
14:43:51:269,96.395,0.109,0.337,-0.472,-20.252,99.349,17.645
14:43:51:27,96.396,0.109,-0.713,-0.435,-26.154,75.412,46.642
14:43:51:271,96.397,-0.017,0.606,0.094,-8.513,66.767,1.609
14:43:52:106,97.232,-0.777,-0.987,1.999,0.561,79.697,-21.157
14:43:52:139,97.265,-0.048,-0.047,0.315,-4.452,86.493,-13.780
14:43:52:14,97.266,-0.117,0.013,-0.102,-5.458,87.576,-12.492
14:43:52:141,97.267,0.016,-0.114,0.153,-6.524,87.962,-11.381
14:43:52:315,97.441,-0.240,-0.116,-0.507,-23.889,105.155,44.897
14:43:52:629,97.755,-0.315,-0.546,-0.572,-25.571,105.964,46.788
14:43:53:237,98.363,-0.067,-0.716,-0.401,-27.265,108.493,48.762
14:43:53:237,98.363,-0.433,-0.744,-0.206,-25.910,113.752,45.914
14:43:53:318,98.444,-0.441,-0.506,-0.112,-24.495,116.697,43.391
14:43:53:319,98.445,-0.507,-0.159,-0.079,-14.466,127.087,29.094
14:43:53:32,98.446,0.012,-0.035,0.064,-9.263,164.658,-11.246
14:43:53:689,98.815,0.001,0.015,-0.004,-11.879,162.981,-4.870
14:43:53:689,98.815,-0.056,-0.005,-0.007,-12.208,162.769,-4.236
14:43:53:689,98.815,-0.056,-0.040,0.034,-12.662,162.787,-3.238
14:43:53:69,98.816,-0.028,0.026,0.015,-13.811,162.258,-0.136
14:43:53:976,99.102,0.000,0.004,0.005,-14.065,162.223,0.701
14:43:53:977,99.103,-0.009,0.013,-0.011,-14.672,161.558,3.076
14:43:53:977,99.103,0.037,0.009,-0.039,-15.072,161.126,4.654
14:43:53:978,99.104,-0.057,0.049,0.014,-15.373,161.030,5.763
14:43:54:079,99.204,-0.064,0.198,-0.118,-15.945,160.342,8.952
14:43:54:08,99.205,-0.386,-0.163,-0.096,-5.450,162.286,-22.703
14:43:54:08,99.206,0.601,0.416,0.120,-4.275,169.575,-21.119
14:43:54:365,99.491,0.946,0.153,-0.040,-3.633,174.042,-19.534
14:43:54:366,99.492,0.238,-0.088,0.279,-4.598,175.971,-17.847
14:43:54:545,99.671,-0.016,0.016,0.143,-6.365,176.449,-16.461
14:43:54:65,99.776,0.036,0.046,0.016,-8.537,177.677,-13.534
14:43:54:758,99.883,0.042,0.031,0.063,-9.354,177.763,-12.528
14:43:55:046,100.172,-0.033,0.038,-0.054,-17.128,179.211,4.358
14:43:55:156,100.282,-0.299,-0.401,-0.384,-15.974,152.369,35.652
14:43:55:156,100.282,-0.196,-0.107,-0.303,-13.648,152.793,31.218
14:43:55:157,100.283,-0.256,0.284,-0.146,-7.860,157.725,10.975
14:43:55:177,100.303,-0.047,0.564,0.062,-6.062,161.879,2.616
14:43:55:336,100.462,1.154,0.886,1.120,-1.996,170.055,-11.259
14:43:55:336,100.462,0.078,0.020,0.056,-5.710,-173.227,-7.028
14:43:55:446,100.572,-0.027,-0.021,0.085,-6.636,-173.198,-6.501
14:43:55:447,100.572,0.034,0.014,0.038,-7.332,-173.328,-5.932
14:43:55:448,100.573,-0.051,0.009,0.016,-7.770,-173.634,-5.493
14:43:55:449,100.574,0.029,0.020,0.010,-11.604,-173.619,1.452
14:43:55:473,100.599,0.007,0.006,0.026,-11.949,-173.698,2.153
14:43:55:474,100.600,-0.002,0.003,0.036,-12.432,-173.925,3.145
14:43:55:551,100.677,-0.062,0.007,0.001,-13.455,-174.622,5.621
14:43:55:552,100.678,-0.071,0.030,0.047,-14.835,-174.901,9.240
14:43:55:553,100.679,-0.638,0.110,-0.117,-18.457,-178.261,25.997
14:43:55:554,100.680,-0.697,0.051,-0.052,-18.943,-179.435,28.862
14:43:55:628,100.754,-0.315,-0.430,0.438,-21.387,-165.036,37.743
14:43:55:628,100.754,-0.245,0.215,0.556,-7.856,-153.129,15.910
14:43:55:629,100.755,1.752,0.347,-0.942,0.204,-135.270,-12.695
14:43:55:651,100.777,0.064,0.023,0.002,-4.883,-118.326,-5.322
14:43:55:652,100.778,0.053,-0.005,0.108,-6.094,-118.223,-5.021
14:43:55:946,101.071,0.044,0.050,0.023,-6.704,-117.999,-4.753
14:43:55:947,101.072,0.017,0.032,0.009,-7.304,-117.595,-4.189
14:43:55:948,101.073,0.038,-0.038,0.012,-7.747,-117.160,-3.635
14:43:56:024,101.150,-0.017,-0.004,-0.001,-9.312,-117.171,-1.413
14:43:56:025,101.151,-0.018,-0.010,0.042,-10.560,-116.008,1.103
14:43:56:025,101.151,-0.005,0.016,0.008,-10.865,-116.048,1.911
14:43:56:026,101.152,0.039,-0.007,0.033,-11.332,-115.129,3.147
14:43:56:05,101.176,0.031,0.005,0.016,-11.605,-115.112,3.926
14:43:56:05,101.176,-0.011,0.016,0.039,-11.955,-114.414,5.103
14:43:56:051,101.177,-0.031,0.010,0.049,-12.330,-114.688,6.404
14:43:56:052,101.178,-0.036,0.040,0.042,-12.587,-113.972,7.314
14:43:56:124,101.250,-0.089,0.095,-0.031,-13.013,-114.234,9.137
14:43:56:125,101.251,-0.047,0.143,0.109,-13.357,-113.646,10.563
14:43:56:202,101.328,-0.114,0.243,0.193,-13.797,-113.823,12.995
14:43:56:203,101.329,-0.173,0.237,0.266,-14.128,-113.194,15.020
14:43:56:228,101.354,-0.204,0.263,0.430,-14.704,-113.453,18.590
14:43:56:228,101.354,-0.344,0.295,0.505,-15.684,-113.422,22.939
14:43:56:438,101.563,-0.464,0.238,0.634,-16.576,-114.161,26.173
14:43:56:439,101.564,-0.468,0.098,0.468,-17.954,-115.539,31.290
14:43:56:602,101.728,-0.057,0.113,0.554,-18.248,-117.376,34.867
14:43:56:603,101.729,-0.208,0.076,0.746,-18.576,-120.298,40.745
14:43:56:603,101.729,0.012,-0.933,0.377,-21.934,-122.479,48.549
14:43:56:604,101.730,-0.028,-0.661,0.349,-22.226,-121.049,46.015
14:43:56:706,101.832,-0.060,-0.498,0.263,-21.214,-119.259,41.371
14:43:56:706,101.832,-0.164,-0.446,0.373,-19.534,-118.804,37.555
14:43:56:707,101.833,-0.330,-0.202,0.307,-16.810,-118.557,31.335
14:43:56:889,102.015,-0.182,0.034,0.092,-12.699,-117.909,19.644
14:43:56:889,102.015,-0.150,0.282,0.197,-11.509,-117.635,14.855
14:43:56:89,102.016,-0.041,0.426,0.073,-10.505,-116.304,7.321
14:43:56:998,102.123,0.128,0.559,-0.063,-9.326,-114.068,-0.641
14:43:56:998,102.123,0.266,0.694,-0.435,-8.340,-112.333,-6.009
14:43:56:998,102.124,0.542,0.331,-0.930,-6.359,-109.608,-13.517
14:43:56:998,102.124,0.821,0.174,-0.965,-4.935,-108.154,-17.750
14:43:57:015,102.141,1.028,-0.759,-1.722,-3.710,-107.328,-22.646
14:43:57:31,102.435,0.924,-0.324,-0.793,-4.342,-109.062,-24.800
14:43:57:311,102.436,0.790,0.388,-0.709,-5.144,-108.466,-24.080
14:43:57:311,102.437,-0.311,0.617,0.876,-4.443,-105.140,-21.897
14:43:57:573,102.699,0.365,0.016,-0.245,-4.199,-96.736,-17.980
14:43:57:574,102.700,-0.020,0.191,-0.398,-5.058,-95.587,-16.972
14:43:57:574,102.700,0.051,0.034,-0.118,-8.989,-93.281,-11.114
14:43:57:575,102.701,0.053,-0.013,-0.014,-9.467,-93.183,-9.980
14:43:57:6,102.726,0.060,0.002,0.061,-9.810,-93.471,-9.167
14:43:57:601,102.727,0.029,-0.034,0.046,-10.161,-93.983,-7.851
14:43:57:602,102.728,0.010,-0.015,0.004,-10.340,-94.240,-6.905
14:43:57:603,102.729,0.009,0.000,-0.012,-10.593,-94.481,-5.597
14:43:58:274,103.400,0.046,-0.055,0.082,-10.829,-94.843,-4.324
14:43:58:544,103.669,0.023,0.002,-0.048,-11.050,-95.059,-3.491
14:43:58:545,103.670,0.022,0.001,0.018,-11.844,-96.144,0.403
14:43:58:546,103.671,0.013,0.002,0.059,-12.103,-96.584,1.881
14:43:58:546,103.672,0.036,0.066,0.056,-12.924,-97.671,6.557
14:43:58:57,103.696,0.036,0.147,0.054,-13.089,-97.900,7.989
14:43:58:571,103.697,-0.071,0.235,0.090,-13.220,-98.666,10.349
14:43:58:571,103.697,-0.159,0.217,0.150,-13.250,-99.416,12.974
14:43:58:572,103.698,-0.096,0.215,0.291,-13.283,-99.769,14.928
14:43:58:589,103.715,-0.065,0.219,0.391,-13.431,-100.052,18.318
14:43:58:646,103.772,-0.061,-0.518,0.343,-16.050,-115.938,43.027
14:43:58:647,103.773,-0.225,-0.613,0.633,-16.147,-117.614,44.061
14:43:58:648,103.774,-0.118,-0.801,0.390,-15.928,-119.458,43.669
14:43:58:774,103.900,-0.232,-0.704,0.428,-15.644,-119.888,40.964
14:43:58:832,103.958,-0.082,0.400,0.024,-10.374,-114.477,4.563
14:43:58:833,103.959,0.029,0.560,-0.176,-9.650,-111.349,-3.314
14:43:58:834,103.960,0.054,0.590,-0.627,-8.780,-108.975,-8.552
14:43:58:835,103.961,0.295,0.394,-0.776,-6.527,-106.809,-15.548
14:43:59:542,104.668,0.779,0.125,-1.110,-4.926,-105.703,-19.460
14:43:59:543,104.668,1.068,-0.679,-1.689,-3.163,-105.288,-23.836
14:43:59:543,104.668,0.735,-0.520,-0.879,-4.195,-106.494,-24.663
14:43:59:544,104.669,0.648,-0.059,-0.905,-4.676,-105.700,-23.396
14:43:59:615,104.741,-0.052,0.118,0.050,-17.118,-105.785,5.586
14:43:59:616,104.742,-0.570,0.283,0.542,-23.122,-111.599,23.406
14:43:59:646,104.772,-0.581,0.148,0.867,-24.166,-114.884,28.390
14:43:59:647,104.773,-0.459,0.001,0.650,-24.744,-117.992,32.180
14:43:59:648,104.774,-0.167,0.194,0.267,-25.936,-122.457,38.347
14:43:59:649,104.775,-0.365,0.307,0.497,-28.725,-125.304,44.330
14:43:59:83,104.956,-0.508,-0.086,0.625,-30.031,-127.293,47.179
14:43:59:831,104.957,-0.173,-0.644,0.354,-30.768,-129.082,50.508
14:43:59:831,104.957,0.028,-0.655,0.069,-30.893,-129.073,51.591
14:43:59:832,104.958,-0.235,-0.782,0.329,-29.488,-128.874,50.598
14:44:00:011,105.137,-0.109,-0.738,0.292,-26.530,-127.522,47.120
14:44:00:011,105.137,-0.128,-0.682,0.262,-23.893,-126.487,43.690
14:44:00:796,105.922,-0.208,-0.527,0.299,-19.957,-124.781,37.452
14:44:00:797,105.923,-0.209,-0.339,0.362,-17.548,-123.544,32.729
14:44:00:982,106.108,-0.229,-0.079,0.334,-14.368,-121.488,24.970
14:44:00:983,106.109,-0.134,0.061,0.299,-11.596,-118.801,16.709
14:44:00:984,106.110,-0.034,0.386,0.239,-10.066,-116.611,10.941
14:44:01:168,106.294,0.193,0.624,0.000,-7.913,-113.308,1.812
14:44:01:169,106.295,0.035,0.018,-0.005,-12.579,-93.794,-0.959
14:44:01:17,106.296,0.033,0.019,-0.024,-13.111,-94.271,0.138
14:44:01:171,106.297,0.029,0.005,-0.001,-13.618,-94.541,1.122
14:44:01:269,106.395,0.031,-0.002,0.040,-13.932,-94.801,1.771
14:44:01:27,106.396,0.025,0.019,0.030,-14.479,-95.187,2.684
14:44:01:297,106.423,0.013,0.090,-0.013,-14.966,-95.473,3.656
14:44:01:297,106.423,-0.042,0.040,0.036,-15.272,-95.834,4.356
14:44:01:298,106.424,-0.017,-0.003,0.123,-15.746,-96.300,5.575
14:44:01:344,106.470,-0.054,0.042,0.134,-16.147,-96.643,6.618
14:44:01:379,106.505,-0.059,0.094,0.112,-16.909,-96.698,8.663
14:44:01:379,106.505,-0.081,0.208,0.258,-18.577,-96.750,13.332
14:44:01:38,106.506,-0.120,0.232,0.304,-19.864,-97.319,17.032
14:44:01:381,106.507,-0.241,0.290,0.409,-20.869,-98.320,19.837
14:44:01:458,106.584,-0.350,0.194,0.786,-22.477,-100.782,24.542
14:44:01:459,106.584,-0.297,-0.545,0.397,-26.046,-117.906,45.359
14:44:01:46,106.585,0.043,-0.089,0.247,-8.817,-95.267,-10.788
14:44:01:746,106.872,0.033,-0.073,0.071,-9.137,-96.110,-9.503
14:44:01:747,106.873,0.024,-0.016,0.016,-11.419,-96.966,-3.104
14:44:01:748,106.874,0.054,0.001,0.050,-11.768,-97.037,-2.263
14:44:01:749,106.875,0.014,-0.008,0.052,-13.292,-97.586,1.493
14:44:02:427,107.553,-0.032,0.064,0.027,-15.327,-98.160,6.364
14:44:02:427,107.553,0.036,0.153,0.103,-15.856,-98.148,7.764
14:44:02:427,107.553,-0.029,0.251,0.119,-16.624,-98.431,10.192
14:44:02:953,108.079,-0.129,0.197,0.106,-17.083,-98.865,12.082
14:44:02:953,108.079,-0.182,0.236,0.246,-17.737,-99.605,15.214
14:44:02:953,108.079,-0.297,0.210,0.346,-18.512,-100.779,18.895
14:44:03:138,108.263,-0.402,0.190,0.568,-19.096,-102.058,21.749
14:44:03:138,108.264,-0.203,0.080,0.828,-20.329,-104.347,26.615
14:44:03:139,108.265,-0.206,-0.086,0.521,-21.444,-106.195,30.095
14:44:03:14,108.265,0.074,0.484,0.265,-24.223,-107.893,35.415
14:44:03:216,108.342,-0.240,0.414,0.471,-26.073,-109.268,39.070
14:44:03:217,108.343,-0.177,-0.243,0.667,-28.387,-111.211,43.932
14:44:03:218,108.344,0.033,-0.667,0.113,-29.620,-111.632,47.204
14:44:03:243,108.369,-0.010,-0.876,0.403,-29.039,-110.377,48.053
14:44:03:244,108.370,-0.013,-0.645,0.359,-27.878,-108.893,46.457
14:44:03:244,108.370,0.029,-0.557,0.363,-24.996,-105.913,42.561
14:44:03:245,108.371,0.053,-0.465,0.421,-21.198,-102.703,37.468
14:44:03:322,108.447,0.211,0.368,0.332,-7.815,-89.615,10.303
14:44:03:323,108.448,0.327,0.646,0.171,-5.412,-85.330,2.314
14:44:03:323,108.449,0.723,0.895,-0.389,-2.743,-80.463,-5.787
14:44:03:344,108.470,0.027,0.038,-0.028,-10.652,-63.563,3.263
14:44:03:344,108.470,0.018,0.011,-0.016,-10.869,-63.826,3.966
14:44:03:4,108.526,0.056,0.023,0.038,-11.411,-64.621,6.221
14:44:03:401,108.527,0.516,-0.906,0.273,-25.459,-61.802,49.020
14:44:03:401,108.527,0.444,-0.732,0.190,-24.207,-58.973,46.196
14:44:03:402,108.528,0.381,-0.209,0.267,-18.437,-50.663,33.912
14:44:03:427,108.553,0.350,0.147,0.196,-10.006,-44.620,15.665
14:44:03:427,108.553,0.218,0.406,0.018,-8.014,-41.901,7.730
14:44:03:428,108.554,0.287,0.703,-0.075,-6.708,-40.016,2.153
14:44:03:429,108.555,-0.237,1.116,-0.742,-4.752,-37.057,-6.640
14:44:03:497,108.623,-1.017,0.412,-1.242,-3.285,-34.673,-11.904
14:44:03:531,108.657,-0.694,-0.343,-1.658,0.232,-31.446,-17.612
14:44:03:532,108.658,-1.455,-0.999,-1.716,2.177,-28.605,-20.340
14:44:03:533,108.659,-0.687,-0.578,-1.284,1.744,-28.508,-20.031
14:44:03:534,108.660,0.994,1.066,0.378,0.009,-26.149,-17.293
14:44:03:557,108.683,-0.370,0.622,-0.697,0.385,-24.584,-15.924
14:44:03:557,108.683,-0.345,0.297,-0.169,-1.478,-22.335,-12.793
14:44:03:557,108.683,-0.264,-0.267,-0.295,-3.049,-20.869,-9.980
14:44:03:612,108.738,0.118,-0.183,-0.127,-4.032,-20.373,-8.378
14:44:03:612,108.738,-0.151,0.033,-0.131,-5.509,-19.514,-6.975
14:44:03:613,108.739,-0.062,0.054,-0.047,-6.078,-19.235,-6.231
14:44:03:614,108.740,-0.113,-0.033,-0.033,-7.155,-19.159,-5.274
14:44:03:689,108.815,0.068,0.022,-0.021,-8.225,-19.562,-4.473
14:44:03:689,108.815,0.151,0.018,-0.041,-8.807,-19.844,-3.927
14:44:03:69,108.816,0.059,-0.056,-0.017,-9.390,-19.804,-3.071
14:44:03:691,108.816,-0.005,0.036,-0.028,-9.681,-19.689,-2.516
14:44:03:709,108.835,0.028,0.013,-0.007,-10.157,-20.033,-1.613
14:44:03:709,108.835,0.058,-0.088,0.017,-10.476,-20.518,-0.955
14:44:03:761,108.887,0.044,-0.041,0.005,-10.933,-20.926,0.023
14:44:03:762,108.888,0.060,-0.005,0.000,-11.385,-21.147,1.125
14:44:03:815,108.940,0.019,0.001,-0.002,-11.679,-21.229,1.890
14:44:03:815,108.940,0.037,0.007,-0.004,-12.144,-21.418,3.120
14:44:04:471,109.597,0.042,-0.013,-0.017,-12.451,-21.304,3.994
14:44:04:472,109.598,0.047,-0.003,-0.006,-12.881,-21.535,5.289
14:44:04:662,109.788,-0.031,0.047,-0.010,-13.278,-21.278,6.530
14:44:04:662,109.788,-0.033,0.045,0.006,-13.520,-21.389,7.274
14:44:04:662,109.788,0.019,0.047,0.008,-13.812,-20.920,8.256
14:44:04:662,109.788,0.019,0.031,0.010,-13.955,-21.109,8.869
14:44:04:687,109.813,0.093,0.022,0.030,-14.149,-21.244,9.793
14:44:04:688,109.814,0.121,0.013,0.060,-14.276,-21.521,10.555
14:44:04:689,109.814,0.065,0.023,0.079,-14.561,-21.788,11.984
14:44:04:69,109.815,0.191,0.071,0.013,-14.965,-21.872,13.858
14:44:04:759,109.885,0.246,0.161,0.036,-15.235,-21.897,15.319
14:44:04:76,109.886,0.177,0.182,0.228,-15.601,-21.651,17.967
14:44:04:791,109.917,0.312,0.214,0.247,-15.903,-21.845,20.074
14:44:04:792,109.918,0.365,0.235,0.340,-16.537,-22.000,23.608
14:44:04:793,109.919,0.620,0.149,0.436,-17.255,-23.196,27.712
14:44:04:794,109.920,0.827,-0.033,0.357,-17.758,-24.222,30.737
14:44:04:897,110.023,0.538,-0.022,-0.012,-18.643,-26.516,35.652
14:44:04:898,110.024,0.499,0.335,0.089,-19.832,-27.503,39.427
14:44:04:899,110.025,0.578,0.180,0.146,-23.286,-27.796,44.361
14:44:04:899,110.025,0.428,-0.295,0.259,-25.053,-27.426,46.532
14:44:05:077,110.203,0.461,-0.654,0.168,-25.746,-27.951,49.134
14:44:05:078,110.204,0.570,-0.885,0.000,-26.392,-26.919,49.998
14:44:05:079,110.205,0.443,-0.407,0.103,-21.703,-17.175,35.830
14:44:05:18,110.306,0.373,-0.010,0.158,-18.519,-14.742,28.965
14:44:05:181,110.307,-0.979,0.186,-0.549,-2.857,-0.879,-17.240
14:44:05:657,110.783,-1.758,-0.577,-0.778,-0.933,0.420,-20.615
14:44:05:658,110.784,-1.453,-0.716,-0.532,-0.320,-0.304,-23.023
14:44:05:659,110.785,-0.871,-0.164,-0.576,-1.415,-0.861,-22.529
14:44:05:66,110.786,-0.512,0.076,-0.274,-2.196,0.454,-19.409
14:44:07:409,112.535,0.908,0.188,0.401,-3.683,-0.220,-17.294
14:44:07:645,112.771,-0.189,-0.180,-0.051,-4.424,-0.230,-16.055
14:44:07:678,112.804,-0.364,0.228,-0.089,-5.311,2.133,-13.422
14:44:07:679,112.805,-0.072,0.008,-0.184,-5.873,3.468,-11.924
14:44:07:68,112.806,-0.548,0.036,0.186,-6.821,5.710,-9.788
14:44:07:681,112.807,-0.186,0.025,-0.120,-7.645,7.154,-8.359
14:44:08:222,113.348,-0.078,-0.072,-0.040,-8.354,7.382,-7.468
14:44:08:257,113.383,-0.081,0.003,-0.007,-9.535,6.885,-6.399
14:44:08:258,113.384,0.027,0.027,-0.026,-10.220,6.150,-5.758
14:44:08:259,113.385,0.057,0.028,-0.041,-10.999,5.674,-4.942
14:44:08:259,113.385,0.031,-0.013,-0.022,-11.388,5.610,-4.392
14:44:08:28,113.405,-0.022,0.004,-0.044,-11.802,5.777,-3.636
14:44:08:281,113.406,-0.004,0.010,-0.027,-12.210,5.214,-2.728
14:44:08:281,113.407,0.106,0.016,-0.026,-12.480,4.611,-2.058
14:44:08:358,113.484,0.053,-0.010,-0.019,-12.835,4.008,-1.083
14:44:08:358,113.484,0.058,-0.014,-0.017,-13.058,3.861,-0.352
14:44:08:781,113.907,0.018,0.009,-0.005,-13.449,3.536,0.936
14:44:08:782,113.907,0.016,-0.013,-0.012,-13.894,3.153,2.246
14:44:08:783,113.908,0.223,0.283,-0.089,-23.173,-11.066,39.477
14:44:08:783,113.909,0.756,0.068,0.081,-24.964,-13.902,44.926
14:44:08:965,114.091,0.488,-0.071,0.166,-25.967,-15.145,47.277
14:44:08:966,114.091,0.249,-0.620,0.046,-25.581,-17.737,49.757
14:44:08:967,114.092,-2.741,-1.006,0.630,3.224,43.744,-17.165
14:44:08:967,114.093,-0.056,0.018,0.063,-4.688,50.030,-6.586
14:44:09:511,114.637,-0.102,0.021,0.061,-5.261,50.616,-6.075
14:44:09:512,114.638,0.073,-0.052,-0.292,-6.378,51.527,-5.528
14:44:09:648,114.773,-0.036,-0.098,-0.152,-7.006,52.360,-5.158
14:44:09:648,114.774,-0.078,0.136,0.245,-7.678,54.116,-4.457
14:44:09:651,114.777,0.233,0.201,-0.137,-16.282,54.298,16.804
14:44:09:717,114.843,0.450,0.200,-0.494,-17.665,53.635,23.990
14:44:10:33,115.456,0.643,0.236,-0.630,-18.320,53.244,26.954
14:44:10:33,115.456,0.709,0.068,-0.878,-19.300,51.532,31.947
14:44:10:331,115.456,0.079,0.133,-0.471,-19.255,48.518,37.448
14:44:10:611,115.737,0.275,0.231,-0.822,-19.644,46.571,41.782
14:44:12:134,117.260,0.580,-0.005,-0.403,-22.678,46.666,46.879
14:44:12:667,117.793,0.364,-0.317,-0.411,-23.599,46.297,49.042
14:44:12:668,117.794,0.254,-0.410,-0.482,-25.150,46.634,51.510
14:44:12:669,117.795,-0.725,1.100,0.386,-6.029,78.828,-8.160
14:44:12:67,117.796,-1.029,0.446,1.847,-3.093,81.821,-15.581
14:44:12:823,117.949,-1.414,-0.666,1.997,-0.490,83.610,-20.012
14:44:12:824,117.950,-1.399,-1.117,1.946,0.102,84.099,-21.048
14:44:12:825,117.951,-0.078,0.033,0.182,-5.501,88.755,-12.429
14:44:12:851,117.977,0.037,-0.030,0.322,-6.905,91.103,-9.979
14:44:12:851,117.977,0.009,0.103,0.075,-7.675,90.897,-9.327
14:44:12:852,117.978,-0.022,0.166,-0.188,-18.857,89.241,11.841
14:44:12:853,117.979,0.079,0.178,-0.175,-19.305,88.887,13.642
14:44:12:925,118.051,0.252,0.103,-0.824,-22.583,85.090,27.364
14:44:12:925,118.051,0.128,-0.036,-0.995,-23.262,82.843,30.736
14:44:12:946,118.072,-0.004,0.197,-0.315,-24.476,79.445,36.261
14:44:12:999,118.125,0.235,0.268,-0.662,-25.857,77.584,40.565
14:44:13:108,118.234,-0.223,-0.696,-0.204,-29.526,71.487,50.431
14:44:13:4,118.526,-0.050,-0.050,0.102,-7.785,99.595,-10.652
14:44:13:4,118.526,-0.047,-0.009,-0.007,-10.572,99.387,-8.515
14:44:13:4,118.526,-0.002,0.008,-0.006,-16.067,96.537,0.473
14:44:13:896,119.022,-0.026,0.154,-0.252,-19.442,87.834,12.651
14:44:13:896,119.022,0.329,-0.040,-0.244,-15.977,65.862,27.107
14:44:14:102,119.228,0.262,-0.043,-0.229,-14.466,67.408,21.919
14:44:14:181,119.307,0.221,0.178,-0.267,-12.744,70.702,13.652
14:44:14:215,119.341,0.067,0.550,-0.103,-11.579,73.508,7.815
14:44:14:216,119.342,-1.058,0.311,1.890,-4.232,84.071,-15.368
14:44:14:217,119.343,-1.290,-0.609,1.753,-0.930,87.186,-19.720
14:44:14:217,119.343,-1.004,-1.031,2.175,-0.420,88.062,-20.703
14:44:14:373,119.499,-0.050,0.552,-0.454,-1.798,89.515,-18.258
14:44:14:374,119.500,0.018,0.999,-0.884,-2.375,91.043,-16.889
14:44:14:375,119.501,-0.596,0.742,0.527,-3.443,93.708,-13.584
14:44:14:375,119.501,0.098,0.258,0.306,-4.533,94.861,-11.575
14:44:14:495,119.621,-0.164,-0.201,0.342,-5.840,96.583,-8.696
14:44:14:896,120.022,-0.032,0.070,0.203,-7.428,96.993,-6.931
14:44:14:896,120.022,0.069,0.010,0.120,-8.126,96.887,-6.287
14:44:14:897,120.023,0.013,0.078,-0.017,-9.382,96.470,-5.353
14:44:17:017,122.143,-0.082,-0.096,-0.094,-10.027,96.454,-4.880
14:44:17:313,122.439,-0.025,0.070,-0.007,-10.841,96.761,-3.936
14:44:17:313,122.439,-0.013,-0.029,-0.061,-11.434,96.802,-2.992
14:44:17:314,122.440,0.020,0.028,-0.021,-15.426,95.189,5.869
14:44:17:315,122.441,0.036,0.025,-0.046,-15.814,94.600,6.766
14:44:17:389,122.515,0.036,0.010,-0.116,-16.180,94.179,8.347
14:44:17:39,122.516,-0.146,-0.765,-0.491,-25.990,83.060,49.202
14:44:17:391,122.516,-0.009,-0.600,-0.343,-24.749,85.287,46.478
14:44:17:417,122.543,0.505,-0.138,1.905,0.760,126.063,-15.725
14:44:17:418,122.544,-0.005,-0.884,2.411,3.271,130.840,-17.985
14:44:17:419,122.545,0.448,-0.787,1.943,3.175,131.996,-17.847
14:44:17:42,122.546,-0.580,1.897,-1.793,0.927,133.771,-15.144
14:44:17:462,122.587,0.739,0.214,0.769,0.699,134.705,-13.558
14:44:17:568,122.694,-0.006,-0.226,0.187,-1.395,136.073,-10.575
14:44:17:603,122.729,0.193,0.315,0.276,-4.585,137.724,-8.152
14:44:17:603,122.729,0.115,-0.091,0.119,-5.339,138.783,-7.285
14:44:17:603,122.729,-0.011,-0.091,-0.037,-6.177,138.552,-6.784
14:44:17:604,122.730,-0.061,0.038,0.039,-7.562,138.409,-6.098
14:44:17:68,122.806,-0.013,-0.006,-0.019,-11.004,137.823,-1.409
14:44:17:68,122.806,0.075,-0.004,-0.135,-14.554,134.675,10.260
14:44:17:68,122.806,-0.154,0.077,-0.055,-14.939,134.892,11.617
14:44:17:706,122.832,-0.084,0.204,-0.392,-16.056,132.835,18.970
14:44:17:707,122.833,0.074,0.009,-0.005,-7.152,-175.535,-9.770
14:44:17:708,122.833,-0.045,-0.052,0.012,-11.162,-175.245,-6.197
14:44:17:709,122.834,-0.019,-0.036,-0.008,-11.637,-175.552,-5.071
14:44:17:809,122.935,-0.007,0.003,0.013,-12.222,-175.622,-3.858
14:44:17:81,122.936,0.021,-0.043,0.019,-12.578,-175.560,-3.098
14:44:17:811,122.937,0.017,0.009,0.017,-13.094,-175.404,-1.953
14:44:18:199,123.325,0.025,0.002,-0.003,-13.446,-175.440,-1.204
14:44:18:2,123.325,0.026,-0.008,-0.001,-13.946,-175.181,-0.090
14:44:18:256,123.382,0.019,-0.002,-0.004,-14.276,-175.204,0.640
14:44:18:256,123.382,0.005,-0.010,0.014,-14.791,-175.050,1.778
14:44:18:257,123.383,-0.051,0.020,0.009,-15.333,-175.196,3.001
14:44:18:279,123.405,-0.057,0.040,0.031,-15.701,-175.423,3.979
14:44:18:28,123.406,0.018,0.053,-0.064,-16.302,-175.811,5.654
14:44:18:363,123.489,-0.094,0.125,-0.018,-16.740,-176.150,6.888
14:44:18:363,123.489,-0.138,0.208,-0.007,-17.365,-176.507,8.987
14:44:18:364,123.490,-0.144,0.222,-0.192,-17.790,-176.875,10.664
14:44:18:652,123.778,-0.387,0.297,-0.137,-19.531,-178.155,17.226
14:44:18:652,123.778,-0.500,0.267,-0.136,-20.372,-178.474,19.938
14:44:18:653,123.779,-0.883,0.272,-0.125,-21.879,179.971,24.610
14:44:18:653,123.779,-0.971,0.048,-0.135,-22.946,178.049,28.106
14:44:19:352,124.478,-0.260,0.083,-0.180,-24.046,173.890,33.634
14:44:19:755,124.880,-0.671,0.250,-0.102,-24.898,169.161,40.088
14:44:19:756,124.881,-0.543,0.022,-0.120,-26.415,167.353,43.569
14:44:19:756,124.882,-0.391,-0.364,-0.239,-27.557,164.599,46.986
14:44:19:757,124.883,-0.582,-0.888,-0.259,-27.061,163.103,48.637
14:44:19:91,125.036,-0.426,-1.016,-0.046,-25.582,162.097,49.200
14:44:19:91,125.036,-0.349,-0.711,-0.106,-23.998,162.732,47.092
14:44:19:911,125.037,0.806,0.943,0.845,-4.805,-172.978,-7.497
14:44:20:034,125.160,1.462,0.924,0.898,-2.499,-167.979,-12.712
14:44:20:696,125.822,2.055,-0.476,0.500,1.900,-161.340,-17.716
14:44:20:697,125.823,2.322,-1.118,0.492,4.621,-156.642,-19.798
14:44:20:698,125.824,1.659,-0.641,0.427,4.084,-156.035,-19.568
14:44:21:956,127.082,-0.489,0.549,0.280,1.650,-154.505,-17.351
14:44:21:956,127.082,0.651,0.587,-0.056,1.721,-152.988,-15.410
14:44:22:143,127.269,0.278,-0.022,-0.067,-0.380,-150.616,-12.493
14:44:22:143,127.269,0.327,0.069,-0.332,-1.912,-149.281,-10.383
14:44:22:144,127.270,0.072,0.062,-0.013,-2.865,-149.225,-9.847
14:44:22:145,127.271,0.050,0.034,0.072,-4.057,-149.102,-9.807
14:44:22:186,127.312,0.035,-0.045,0.025,-8.397,-147.372,-6.342
14:44:22:24,127.366,0.016,-0.009,0.008,-8.847,-147.284,-5.481
14:44:22:455,127.581,-0.009,-0.046,0.018,-9.445,-147.027,-4.303
14:44:22:456,127.582,0.075,0.023,-0.032,-10.143,-146.602,-3.018
14:44:22:457,127.583,-0.081,-0.114,0.352,-14.080,-124.834,21.358
14:44:22:564,127.690,0.197,0.078,-0.311,-0.503,-98.082,-13.328
14:44:22:565,127.691,0.078,0.065,-0.292,-2.465,-97.987,-11.261
14:44:22:565,127.691,0.099,-0.045,-0.043,-3.813,-97.245,-9.755
14:44:22:566,127.692,0.073,-0.092,-0.154,-4.278,-96.531,-9.318
14:44:22:825,127.951,0.087,0.022,-0.014,-6.804,-96.181,-8.238
14:44:22:826,127.952,0.067,-0.030,0.086,-7.542,-96.631,-7.821
14:44:22:826,127.952,0.040,-0.029,0.018,-8.540,-96.918,-7.039
14:44:22:849,127.975,0.078,-0.976,0.403,-25.981,-104.032,47.916
14:44:22:85,127.975,-0.003,-0.828,0.382,-24.617,-103.130,45.128
14:44:22:851,127.976,-0.211,-0.460,0.376,-17.913,-101.038,32.537
14:44:22:958,128.084,-0.068,0.463,0.165,-24.931,-109.057,37.087
14:44:22:958,128.084,-0.290,0.038,0.621,-27.533,-112.235,42.757
14:44:22:959,128.085,-0.254,-0.571,0.122,-19.087,-122.442,41.080
14:44:22:96,128.086,-0.364,-0.479,0.293,-15.412,-123.111,34.841
14:44:23:002,128.128,-0.420,-0.262,0.308,-12.780,-123.300,27.651
14:44:23:031,128.156,-0.359,-0.020,0.147,-11.607,-122.792,22.408
14:44:23:031,128.157,-0.285,0.077,0.193,-10.211,-121.210,14.131
14:44:23:114,128.240,-0.239,0.418,0.096,-9.447,-119.547,8.178
14:44:23:115,128.241,-0.511,0.843,1.190,1.274,-100.867,-20.545
14:44:23:115,128.241,-0.404,-0.267,0.502,0.436,-100.155,-19.089
14:44:23:116,128.242,-0.247,0.105,-0.635,-2.792,-94.880,-12.857
14:44:23:138,128.264,0.103,0.054,-0.265,-3.417,-93.769,-11.803
14:44:23:139,128.265,0.116,-0.051,-0.022,-4.400,-92.788,-11.040
14:44:23:139,128.265,0.134,-0.166,-0.016,-5.149,-92.459,-10.780
14:44:23:22,128.346,0.103,0.063,-0.031,-6.364,-92.316,-10.403
14:44:23:221,128.346,0.076,-0.031,0.032,-9.934,-91.503,-5.281
14:44:23:221,128.347,0.035,0.006,-0.029,-10.478,-91.493,-4.016
14:44:23:222,128.348,0.053,-0.022,-0.027,-10.893,-91.582,-3.130
14:44:23:447,128.573,0.055,-0.013,0.005,-11.500,-90.915,-1.844
14:44:23:505,128.631,0.042,0.010,-0.011,-11.907,-91.074,-0.999
14:44:23:506,128.632,0.032,0.008,-0.019,-12.452,-90.370,0.258
14:44:23:507,128.633,0.052,0.007,-0.032,-12.966,-90.511,1.444
14:44:23:528,128.654,0.037,0.003,0.000,-13.312,-89.914,2.229
14:44:23:639,128.765,0.029,-0.008,0.040,-13.880,-90.238,3.476
14:44:23:64,128.766,-0.012,0.027,0.040,-14.269,-89.750,4.455
14:44:23:641,128.767,0.056,0.112,0.073,-14.922,-89.835,6.174
14:44:23:642,128.768,0.034,0.234,0.134,-15.518,-89.430,8.247
14:44:24:008,129.134,-0.089,0.208,0.087,-15.936,-89.834,9.935
14:44:24:008,129.134,-0.086,0.159,0.225,-16.685,-90.042,12.905
14:44:24:008,129.134,-0.080,0.263,0.294,-17.369,-90.400,15.143
14:44:24:009,129.135,-0.096,0.213,0.327,-18.689,-90.715,18.926
14:44:24:086,129.211,-0.140,0.212,0.559,-20.237,-92.329,23.100
14:44:24:086,129.212,-0.102,0.116,0.727,-21.294,-93.951,26.054
14:44:24:087,129.213,-0.151,0.050,0.389,-22.448,-98.148,30.800
14:44:24:088,129.214,0.144,0.296,0.285,-22.864,-101.686,34.289
14:44:24:111,129.237,-0.191,0.197,0.409,-23.983,-106.464,39.353
14:44:24:112,129.238,-0.002,-0.200,0.405,-24.482,-109.221,41.819
14:44:24:113,129.239,0.025,-0.651,0.187,-23.451,-113.796,44.543
14:44:24:114,129.240,-0.269,-0.986,0.405,-21.025,-117.226,45.313
14:44:24:216,129.342,-0.199,-0.939,0.319,-19.285,-118.802,44.171
14:44:24:217,129.343,-0.259,-0.499,0.218,-15.931,-120.709,37.852
14:44:24:218,129.343,-0.412,-0.409,0.262,-13.830,-121.757,32.485
14:44:24:219,129.344,-0.399,-0.126,0.047,-12.842,-122.149,28.510
14:44:24:291,129.417,-0.334,0.009,0.091,-11.811,-122.070,22.006
14:44:24:291,129.417,-0.305,0.379,0.029,-10.757,-119.399,9.834
14:44:24:314,129.440,-0.214,0.515,-0.165,-9.738,-116.278,1.709
14:44:24:402,129.527,-0.063,0.871,-0.269,-8.530,-114.261,-3.889
14:44:24:402,129.527,0.266,0.849,-0.592,-5.831,-110.687,-11.914
14:44:24:402,129.528,0.960,0.395,-1.071,-2.229,-106.482,-18.436
14:44:24:403,129.528,0.087,0.041,-0.085,-6.654,-98.935,-10.065
14:44:24:505,129.631,0.109,-0.036,0.064,-7.590,-99.626,-9.657
14:44:24:506,129.632,0.074,0.026,-0.043,-8.294,-100.078,-9.261
14:44:24:506,129.632,0.063,0.052,0.096,-8.740,-101.475,-8.922
14:44:24:603,129.729,0.067,-0.039,0.007,-9.442,-102.764,-8.190
14:44:24:69,129.816,0.064,-0.008,-0.099,-9.676,-102.675,-7.797
14:44:24:69,129.816,0.050,-0.022,0.069,-10.051,-103.778,-7.295
14:44:24:691,129.817,0.042,-0.045,0.049,-10.323,-104.100,-6.947
14:44:24:692,129.818,0.028,-0.021,0.029,-10.687,-104.867,-6.275
14:44:24:76,129.886,0.021,-0.006,0.047,-11.002,-104.976,-5.737
14:44:24:869,129.995,0.062,0.003,0.012,-11.466,-105.432,-4.722
14:44:24:869,129.995,0.041,0.008,-0.024,-11.767,-105.548,-3.956
14:44:25:163,130.289,0.046,0.002,0.000,-12.189,-106.220,-2.755
14:44:25:163,130.289,0.041,0.008,-0.017,-12.609,-106.484,-1.552
14:44:25:164,130.290,0.055,0.024,-0.008,-12.915,-106.590,-0.727
14:44:25:165,130.291,0.047,-0.011,-0.011,-13.357,-107.157,0.527
14:44:25:346,130.472,0.027,0.035,-0.015,-13.652,-107.363,1.382
14:44:25:346,130.472,0.002,0.026,-0.001,-14.120,-107.859,2.718
14:44:25:347,130.473,-0.012,0.056,-0.024,-14.610,-108.178,4.083
14:44:25:368,130.494,-0.028,0.048,0.028,-15.565,-108.833,6.642
14:44:25:368,130.494,0.002,0.105,0.089,-15.972,-108.975,7.836
14:44:25:45,130.576,-0.023,0.192,0.136,-16.568,-109.150,10.003
14:44:25:451,130.576,-0.144,0.180,0.092,-17.101,-109.731,12.641
14:44:25:452,130.577,-0.198,0.135,0.125,-17.446,-110.150,14.660
14:44:25:453,130.578,-0.242,0.252,0.247,-18.078,-111.055,18.088
14:44:25:658,130.784,-0.389,0.293,0.402,-18.798,-112.814,22.140
14:44:25:658,130.784,-0.485,0.199,0.819,-19.394,-114.756,25.256
14:44:25:659,130.785,-0.070,0.134,0.682,-21.044,-117.752,30.524
14:44:25:739,130.865,-0.185,0.647,0.494,-23.122,-119.615,34.642
14:44:25:74,130.866,-0.350,0.236,0.708,-26.308,-121.531,40.329
14:44:25:741,130.867,-0.030,-0.360,0.375,-28.413,-122.549,44.418
14:44:25:766,130.892,-0.155,-0.730,0.326,-30.781,-122.369,48.263
14:44:25:767,130.892,0.678,1.367,-0.603,-3.663,-96.282,-7.988
14:44:25:767,130.892,1.464,0.401,-1.125,1.105,-91.289,-15.171
14:44:25:768,130.893,1.354,-0.349,-1.607,4.392,-87.407,-18.386
14:44:25:873,130.999,0.797,-1.382,-2.235,7.285,-83.958,-20.611
14:44:25:873,130.999,0.477,-0.290,-0.649,1.621,-82.320,-13.276
14:44:25:873,130.999,-0.045,0.211,-0.532,-0.411,-81.500,-11.341
14:44:25:874,131.000,0.042,-0.013,-0.120,-1.651,-81.378,-10.071
14:44:25:948,131.074,0.110,-0.168,-0.087,-2.435,-80.487,-9.232
14:44:25:948,131.074,0.063,-0.035,-0.014,-3.442,-79.832,-8.825
14:44:25:949,131.074,0.133,0.072,-0.010,-4.161,-79.734,-8.484
14:44:26:028,131.154,0.082,-0.063,-0.052,-4.962,-79.761,-7.925
14:44:26:029,131.155,0.048,0.058,-0.029,-5.440,-79.984,-7.517
14:44:26:03,131.156,0.058,-0.018,0.039,-6.055,-80.413,-6.916
14:44:26:03,131.156,0.067,-0.013,-0.023,-6.533,-80.448,-6.265
14:44:26:126,131.252,0.046,-0.010,0.005,-7.638,-80.839,-4.753
14:44:26:262,131.387,0.056,-0.011,0.019,-8.216,-81.101,-4.084
14:44:26:263,131.388,0.052,-0.003,0.000,-9.102,-81.085,-2.701
14:44:26:263,131.389,0.036,-0.010,-0.005,-9.539,-80.933,-1.654
14:44:26:414,131.540,0.061,0.005,-0.010,-9.824,-80.877,-0.941
14:44:26:632,131.757,0.044,0.010,-0.037,-10.210,-80.692,0.117
14:44:26:632,131.758,0.049,0.007,-0.027,-10.448,-80.654,0.840
14:44:26:633,131.759,0.042,-0.004,-0.020,-10.779,-80.605,1.916
14:44:26:634,131.760,0.028,0.016,0.006,-11.150,-80.715,3.021
14:44:26:68,131.806,-0.009,0.029,0.015,-11.398,-80.511,3.811
14:44:26:681,131.807,0.030,0.032,0.005,-11.806,-80.601,5.145
14:44:26:71,131.836,0.116,0.047,0.048,-12.079,-80.295,6.085
14:44:26:711,131.837,0.048,0.127,0.035,-12.376,-80.422,7.705
14:44:26:712,131.838,-0.051,0.153,0.111,-12.567,-80.550,9.702
14:44:26:738,131.864,-0.066,0.191,0.245,-12.907,-81.022,13.930
14:44:26:738,131.864,-0.069,0.193,0.306,-13.137,-81.134,16.008
14:44:26:739,131.865,-0.098,0.172,0.500,-13.661,-81.638,19.663
14:44:26:739,131.865,0.030,0.150,0.672,-14.199,-82.250,22.459
14:44:26:808,131.934,0.200,-0.032,0.571,-15.322,-83.431,26.994
14:44:26:843,131.969,0.422,0.072,0.391,-17.112,-84.568,31.874
14:44:26:843,131.969,0.203,0.308,0.153,-18.427,-85.652,35.334
14:44:26:844,131.970,0.078,0.137,0.283,-21.795,-85.472,40.305
14:44:26:844,131.970,0.087,-0.615,0.689,-22.739,-86.200,42.881
14:44:26:969,132.095,0.237,-0.676,0.185,-23.239,-87.009,45.283
14:44:26:969,132.095,0.217,-0.802,0.401,-22.666,-85.126,45.266
14:44:27:,132.126,0.283,0.066,0.163,-9.120,-72.447,19.884
14:44:27:001,132.126,0.246,0.578,-0.330,-2.918,-61.808,-2.527
14:44:27:001,132.127,0.041,0.458,-0.913,-0.732,-56.972,-9.151
14:44:27:002,132.128,0.247,0.279,-1.006,0.870,-54.365,-13.108
14:44:27:104,132.230,-0.182,-0.255,-1.285,2.947,-52.096,-18.231
14:44:27:104,132.230,-0.137,-0.592,-1.584,3.975,-51.055,-20.593
14:44:27:131,132.257,0.654,0.775,1.002,2.929,-45.995,-18.298
14:44:27:131,132.257,-0.382,0.531,-0.567,2.628,-43.211,-16.022
14:44:27:132,132.257,-0.158,0.069,-0.413,1.685,-41.091,-13.888
14:44:27:133,132.258,0.093,-0.047,-0.192,0.614,-38.905,-11.735
14:44:27:209,132.335,-0.301,0.035,-0.537,-0.317,-37.606,-10.360
14:44:27:209,132.335,0.094,-0.041,-0.157,-1.504,-36.728,-9.246
14:44:27:21,132.336,0.019,0.025,-0.142,-2.904,-36.945,-8.512
14:44:27:211,132.337,0.055,-0.068,-0.049,-3.721,-37.288,-8.222
14:44:27:237,132.363,0.024,0.041,-0.055,-4.761,-37.855,-7.900
14:44:27:237,132.363,0.135,0.020,0.005,-5.401,-38.202,-7.705
14:44:27:237,132.363,0.100,-0.040,-0.042,-6.129,-38.050,-7.491
14:44:27:238,132.364,-0.006,0.028,-0.116,-6.605,-37.497,-7.260
14:44:27:257,132.383,0.042,-0.028,-0.047,-6.902,-37.696,-7.039
14:44:27:258,132.384,0.148,-0.012,0.058,-7.366,-38.433,-6.605
14:44:27:283,132.409,0.047,-0.043,0.026,-7.678,-38.582,-6.213
14:44:27:284,132.410,0.074,-0.034,0.009,-8.024,-38.433,-5.216
14:44:27:305,132.431,0.016,-0.020,-0.041,-8.496,-38.199,-4.008
14:44:27:393,132.519,0.085,-0.018,-0.013,-8.832,-38.174,-3.144
14:44:27:393,132.519,0.043,0.008,-0.032,-9.348,-38.147,-1.874
14:44:27:394,132.520,0.027,0.002,-0.048,-9.640,-38.039,-0.993
14:44:27:395,132.521,0.030,-0.001,-0.041,-10.022,-37.876,0.252
14:44:27:413,132.539,0.050,0.007,-0.019,-10.371,-37.853,1.471
14:44:27:413,132.539,0.039,0.007,-0.023,-10.666,-37.800,2.231
14:44:27:52,132.646,0.029,-0.001,-0.023,-11.025,-37.758,3.473
14:44:27:52,132.646,0.033,-0.004,-0.024,-11.228,-37.762,4.332
14:44:27:601,132.727,0.008,0.045,0.012,-11.509,-37.795,5.619
14:44:27:601,132.727,-0.004,0.020,0.086,-11.705,-37.522,6.541
14:44:27:602,132.728,-0.041,0.066,0.031,-12.083,-37.517,8.041
14:44:27:702,132.828,0.166,0.075,-0.019,-12.503,-37.335,9.754
14:44:27:996,133.122,0.181,0.146,0.054,-12.732,-37.281,11.039
14:44:27:997,133.123,0.141,0.158,0.134,-12.953,-37.593,13.419
14:44:27:998,133.123,0.152,0.197,0.200,-13.152,-37.845,15.314
14:44:27:999,133.124,0.234,0.198,0.232,-13.554,-37.932,18.573
14:44:28:073,133.199,0.319,0.192,0.367,-14.200,-38.452,22.344
14:44:28:073,133.199,0.407,0.167,0.437,-14.830,-38.933,25.192
14:44:28:074,133.200,0.544,0.080,0.516,-15.737,-40.350,29.770
14:44:28:207,133.333,0.236,0.274,0.305,-16.008,-41.310,32.774
14:44:28:208,133.334,0.692,-0.006,0.175,-15.766,-44.572,38.169
14:44:28:208,133.334,0.412,0.357,0.319,-18.126,-44.695,42.762
14:44:28:209,133.335,0.157,-0.128,0.262,-18.685,-45.307,44.795
14:44:28:286,133.412,0.377,-0.685,0.237,-18.807,-46.258,46.903
14:44:28:286,133.412,0.547,-0.818,0.345,-19.382,-45.794,47.129
14:44:28:287,133.413,0.455,-0.788,0.178,-19.953,-43.773,45.121
14:44:28:288,133.414,0.218,-0.526,0.174,-20.190,-41.873,42.688
14:44:28:39,133.516,0.210,-0.464,0.150,-18.975,-39.538,38.027
14:44:28:39,133.516,0.286,-0.367,0.339,-16.665,-38.260,32.644
14:44:28:391,133.517,0.163,-0.161,0.340,-14.953,-37.319,28.562
14:44:28:933,134.059,0.276,0.067,0.280,-10.398,-35.060,17.061
14:44:29:175,134.301,0.209,0.293,0.195,-8.360,-32.769,9.412
14:44:29:176,134.302,0.231,0.524,0.002,-6.103,-29.465,1.138
14:44:29:177,134.302,0.192,0.950,-0.205,-4.354,-26.572,-4.660
14:44:29:62,134.746,-1.240,0.925,-1.097,-1.100,-20.931,-12.824
14:44:29:62,134.746,-1.064,0.210,-1.147,1.826,-18.049,-16.922
14:44:30:429,135.555,-1.770,-1.024,-1.373,5.293,-14.620,-21.185
14:44:30:597,135.722,-0.859,-0.274,-1.248,5.306,-13.355,-21.049
14:44:30:597,135.722,-0.386,-0.252,-1.036,4.168,-12.818,-19.190
14:44:30:598,135.723,0.416,0.263,0.305,2.970,-11.246,-16.826
14:44:30:599,135.724,-0.822,-0.434,-0.090,2.140,-10.811,-14.859
14:44:30:728,135.853,-0.130,0.290,-0.408,-0.019,-9.416,-11.434
14:44:30:728,135.853,-0.400,-0.040,0.044,-1.081,-8.487,-9.811
14:44:30:728,135.854,-0.335,0.093,-0.147,-2.846,-7.537,-7.399
14:44:30:729,135.855,-0.080,-0.037,-0.095,-3.836,-6.503,-6.431
14:44:30:876,136.002,-0.114,0.028,-0.068,-4.511,-6.054,-5.847
14:44:31:566,136.692,-0.059,-0.014,-0.011,-5.486,-5.877,-5.118
14:44:31:567,136.693,0.065,-0.016,-0.089,-6.056,-6.002,-4.724
14:44:31:568,136.694,0.025,0.031,-0.053,-6.848,-6.037,-4.057
14:44:31:569,136.695,0.056,-0.010,-0.050,-7.418,-5.832,-3.373
14:44:31:586,136.712,-0.010,-0.021,-0.029,-7.738,-5.625,-2.864
14:44:31:691,136.817,-0.060,-0.006,-0.070,-8.182,-5.410,-2.124
14:44:32:271,137.397,0.331,0.234,0.190,-14.767,-7.257,18.300
14:44:32:272,137.397,0.327,0.165,-0.218,-18.752,-16.223,38.027
14:44:32:352,137.478,0.483,0.233,0.058,-20.004,-17.656,41.332
14:44:32:352,137.478,0.472,-1.013,-0.026,-19.220,-22.869,46.579
14:44:32:352,137.478,-1.670,-1.598,-0.700,1.478,-7.358,-24.058
14:44:32:556,137.682,-0.602,-0.176,-0.690,-0.965,-8.184,-23.603
14:44:32:637,137.763,0.264,0.186,0.192,-17.396,-5.133,16.301
14:44:32:638,137.764,0.559,0.205,0.299,-18.593,-7.372,22.597
14:44:32:746,137.872,0.947,0.075,0.241,-19.158,-8.978,25.658
14:44:32:746,137.872,0.748,-0.080,0.032,-20.676,-11.583,30.705
14:44:32:747,137.873,0.414,0.421,-0.158,-23.480,-13.100,36.393
14:44:32:827,137.953,0.710,-0.347,0.228,-28.612,-15.796,44.779
14:44:32:828,137.953,0.185,-0.502,0.013,-29.586,-16.587,47.110
14:44:32:828,137.954,0.470,-0.767,0.190,-30.291,-16.488,49.338
14:44:32:829,137.955,0.473,-0.920,-0.040,-28.892,-15.563,48.581
14:44:33:825,138.950,0.412,0.131,-0.230,-9.353,3.703,15.102
14:44:33:825,138.951,0.048,0.013,-0.061,-9.331,29.083,-1.201
14:44:33:826,138.952,0.062,-0.044,-0.075,-9.725,28.935,-0.864
14:44:33:928,139.054,-0.012,0.045,-0.021,-10.540,28.766,1.110
14:44:33:928,139.054,0.017,0.010,-0.029,-11.304,28.885,3.847
14:44:33:928,139.054,0.073,0.029,-0.076,-12.224,29.386,8.138
14:44:34:761,139.887,0.247,-0.363,-0.413,-19.320,41.015,35.577
14:44:35:084,140.210,0.165,-0.176,-0.338,-16.222,45.021,29.126
14:44:35:085,140.211,0.178,0.148,-0.425,-11.233,51.423,16.799
14:44:35:086,140.212,0.081,0.382,-0.362,-9.517,54.252,11.263
14:44:35:086,140.212,-1.131,1.235,0.205,-4.200,61.707,-6.581
14:44:36:449,141.575,0.180,0.066,0.479,-2.620,74.408,-11.544
14:44:36:45,141.576,0.098,0.081,0.440,-3.250,76.840,-10.068
14:44:36:45,141.576,-0.032,0.060,-0.106,-6.915,76.915,-7.771
14:44:36:451,141.577,-0.023,0.009,-0.093,-7.624,77.256,-7.243
14:44:36:704,141.830,-0.058,-0.066,-0.040,-8.353,78.104,-6.292
14:44:37:018,142.144,-0.076,0.041,0.006,-8.823,78.516,-5.562
14:44:37:31,142.436,-0.023,-0.018,-0.132,-9.539,78.043,-4.163
14:44:37:311,142.437,0.018,-0.004,-0.042,-10.085,77.577,-2.588
14:44:38:435,143.561,0.006,0.003,-0.032,-10.430,77.553,-1.592
14:44:38:568,143.694,-0.013,-0.020,-0.030,-10.974,77.604,-0.089
14:44:38:939,144.065,-1.505,-0.839,2.134,-0.839,83.468,-20.586
14:44:38:939,144.065,-1.359,-0.981,1.781,-0.033,83.061,-22.669
14:44:39:047,144.173,0.109,0.529,-0.124,-1.693,82.531,-21.533
14:44:39:048,144.174,-0.089,-0.221,-0.038,-2.661,84.296,-19.307
14:44:39:049,144.175,-0.471,0.490,0.302,-2.333,86.238,-17.766
14:44:39:05,144.176,-0.063,0.045,0.262,-3.710,89.392,-15.259
14:44:39:119,144.245,-0.116,-0.302,-0.123,-6.120,93.669,-11.482
14:44:39:438,144.564,0.278,-0.476,-0.416,-13.663,62.813,36.591
14:44:39:438,144.564,-0.360,0.392,1.033,-7.686,68.805,-13.601
14:44:39:591,144.716,-0.729,0.171,1.036,-7.110,69.517,-17.507
14:44:39:697,144.823,-1.190,-0.972,1.230,-6.866,69.804,-21.615
14:44:40:221,145.347,-0.634,0.034,0.525,-7.213,69.726,-22.441
14:44:40:877,146.003,-0.634,-0.487,0.862,1.139,78.606,-19.435
14:44:41:166,146.292,0.336,0.999,-1.236,-0.101,80.252,-17.751
14:44:41:638,146.764,0.288,-0.128,1.441,-0.130,83.328,-15.742
14:44:42:092,147.218,-0.407,0.336,0.351,-1.546,84.310,-14.140
14:44:42:093,147.219,0.013,0.072,0.016,-10.568,89.008,-0.979
14:44:42:094,147.220,0.170,0.290,-0.376,-18.594,81.530,21.046
14:44:42:095,147.221,0.128,-0.519,-0.547,-26.922,64.772,51.325
14:44:43:533,148.659,0.287,-0.464,-0.238,-27.271,64.128,53.085
14:44:43:533,148.659,-0.024,-0.216,-0.720,-24.422,95.764,48.180
14:44:43:636,148.762,-0.140,-0.706,-0.336,-24.270,104.544,45.474
14:44:43:637,148.763,-1.123,1.822,-2.125,1.392,135.155,-15.773
14:44:43:976,149.102,0.372,0.464,1.606,0.475,136.201,-14.734
14:44:44:29,149.416,0.041,0.101,0.081,-3.726,142.578,-7.287
14:44:44:797,149.923,-0.208,0.125,0.053,-5.202,143.507,-5.652
14:44:44:798,149.923,-0.133,-0.145,0.017,-5.961,144.158,-4.702
14:44:44:798,149.924,0.303,0.095,0.066,-6.793,145.704,-3.357
14:44:44:799,149.925,-0.074,-0.014,-0.049,-9.442,146.982,0.825
14:44:45:008,150.134,-0.076,0.016,-0.058,-13.630,146.646,12.418
14:44:45:008,150.134,-0.152,0.083,-0.169,-14.169,145.311,14.508
14:44:45:008,150.134,-0.407,-0.396,-0.500,-25.612,136.639,50.687
14:44:45:009,150.135,-0.339,-0.906,0.061,-32.255,143.958,52.165
14:44:45:051,150.177,-0.005,-0.028,-0.013,-9.747,171.110,-10.440
14:44:45:087,150.213,-0.388,-0.733,-0.079,-33.524,159.773,52.796
14:44:45:087,150.213,2.404,0.448,0.398,-7.896,172.250,-16.138
14:44:45:087,150.213,0.035,0.028,-0.032,-14.103,-168.949,-1.434
14:44:45:088,150.214,-0.860,-0.071,-0.187,-22.697,-179.902,31.062
14:44:45:734,150.860,-0.607,0.101,0.465,-24.050,178.546,35.384
14:44:45:847,150.972,-0.545,0.679,-0.294,-28.714,177.908,41.775
14:44:45:847,150.973,-0.731,-0.149,0.008,-31.818,178.163,45.115
14:44:45:848,150.974,-0.112,-0.682,0.374,-26.648,-123.572,42.573
14:44:45:849,150.974,-0.128,-0.591,0.406,-24.795,-121.400,38.795
14:44:45:873,150.999,-0.118,-0.070,0.324,-15.317,-114.165,19.403
14:44:45:873,150.999,-0.081,0.158,0.278,-13.198,-112.537,13.741
14:44:45:874,151.000,-0.010,-0.004,-0.037,-9.482,-89.693,-10.982
14:44:45:875,151.001,-0.016,0.024,0.050,-15.993,-91.069,5.311
14:44:45:944,151.070,0.011,-0.863,0.374,-28.221,-106.774,47.327
14:44:46:137,151.263,-0.041,-0.694,0.291,-26.591,-106.022,44.475
14:44:46:137,151.263,-0.109,-0.556,0.286,-23.718,-104.589,38.641
14:44:46:138,151.264,-0.151,-0.454,0.391,-21.476,-103.907,33.994
14:44:46:139,151.265,-0.018,0.908,-0.416,-10.346,-100.212,-4.251
14:44:46:163,151.289,0.263,1.137,-1.059,-8.513,-98.391,-13.758
14:44:46:163,151.289,0.810,0.232,-1.769,-5.294,-95.359,-21.773
14:44:46:163,151.289,1.224,-0.633,-2.525,-2.529,-92.497,-24.888
14:44:46:164,151.290,1.069,-1.088,-1.613,-0.757,-90.337,-25.564
14:44:46:24,151.366,0.615,-0.219,-0.742,-1.819,-88.943,-23.390
14:44:46:241,151.367,0.020,-0.681,-0.449,-2.737,-88.008,-21.998
14:44:46:242,151.368,0.663,0.496,-0.110,-4.213,-87.134,-19.334
14:44:46:243,151.369,0.274,0.155,-0.496,-5.155,-86.190,-17.995
14:44:46:526,151.652,-0.213,0.307,0.624,-22.490,-89.748,22.362
14:44:46:527,151.653,-0.227,0.231,1.027,-23.761,-92.881,27.753
14:44:46:528,151.654,-0.241,-0.091,1.148,-24.180,-96.590,31.857
14:44:46:635,151.760,0.214,0.327,0.360,-25.024,-101.704,38.771
14:44:46:635,151.761,-0.303,0.111,0.756,-28.168,-104.498,45.216
14:44:46:636,151.761,-0.101,-0.428,0.637,-29.997,-106.001,47.766
14:44:46:637,151.763,0.030,-0.428,-0.087,-30.838,-108.787,50.788
14:44:46:706,151.831,-0.015,-1.047,0.582,-30.111,-110.721,51.811
14:44:46:814,151.940,0.005,-0.991,0.366,-28.112,-111.212,49.947
14:44:46:815,151.941,-0.060,-0.777,0.270,-26.889,-111.117,47.417
14:44:46:842,151.968,-0.262,-0.406,0.364,-19.079,-109.451,28.935
14:44:46:843,151.969,-0.319,-0.077,0.254,-16.382,-108.985,19.832
14:44:46:843,151.969,-0.351,0.088,0.236,-14.845,-108.670,13.351
14:44:47:025,152.151,-0.298,0.677,-0.094,-12.982,-107.743,3.026
14:44:47:026,152.152,0.003,1.082,-0.602,-11.503,-106.991,-7.662
14:44:47:026,152.152,0.319,1.325,-1.594,-10.828,-106.579,-14.302
14:44:47:102,152.228,0.736,0.285,-1.946,-8.754,-105.840,-22.484
14:44:47:102,152.228,1.990,-1.668,-2.764,-6.406,-102.998,-25.567
14:44:47:13,152.256,0.919,-0.962,-1.045,-4.887,-100.534,-25.592
14:44:47:131,152.257,0.354,0.677,0.638,-5.997,-96.620,-23.573
14:44:47:132,152.258,-0.209,0.004,-1.396,-4.651,-93.897,-21.886
14:44:47:526,152.652,0.255,0.211,-0.175,-5.980,-92.208,-19.388
14:44:47:527,152.653,0.024,-0.005,-0.061,-9.593,-91.024,-13.875
14:44:47:528,152.654,0.053,0.028,-0.028,-10.195,-90.450,-13.022
14:44:47:529,152.655,0.039,0.034,-0.022,-11.435,-90.470,-10.189
14:44:47:918,153.044,-0.016,0.038,0.041,-12.035,-90.963,-8.373
14:44:47:919,153.045,0.033,-0.033,0.003,-12.457,-90.891,-6.594
14:44:47:92,153.046,0.023,0.032,-0.042,-12.787,-90.800,-5.363
14:44:48:283,153.409,0.003,-0.010,-0.057,-13.356,-90.988,-3.474
14:44:48:284,153.410,0.012,0.028,-0.065,-14.747,-91.735,0.539
14:44:48:363,153.488,-0.003,0.024,0.048,-15.261,-92.256,2.092
14:44:48:363,153.489,-0.091,0.016,0.056,-15.818,-92.757,3.847
14:44:48:601,153.727,-0.071,0.111,0.092,-16.247,-92.852,5.198
14:44:48:602,153.728,-0.181,0.190,0.090,-17.142,-92.918,7.734
14:44:48:602,153.728,-0.079,0.297,0.244,-17.856,-92.829,9.802
14:44:48:76,153.886,-0.299,0.415,0.882,-21.643,-94.829,21.463
14:44:48:761,153.887,-0.517,0.309,1.056,-23.263,-98.696,27.368
14:44:48:761,153.887,0.161,0.590,0.416,-23.301,-108.335,38.839
14:44:48:762,153.888,-0.113,-0.235,0.544,-24.372,-110.157,42.849
14:44:48:889,154.015,-0.066,-0.553,0.499,-25.748,-112.530,46.410
14:44:48:89,154.016,-0.351,-0.618,0.273,-26.367,-112.978,47.973
14:44:48:891,154.017,-0.087,-0.822,0.283,-26.187,-112.852,47.647
14:44:49:015,154.141,-0.102,-0.826,0.389,-24.323,-112.168,45.127
14:44:49:05,154.176,1.030,-1.046,-2.674,2.880,-82.204,-20.332
14:44:49:051,154.177,0.770,-0.727,-1.340,2.382,-81.609,-19.216
14:44:49:052,154.178,0.034,-0.936,0.149,0.444,-81.947,-17.992
14:44:49:053,154.178,0.549,0.656,-0.323,-0.591,-80.549,-15.877
14:44:49:146,154.271,0.036,-0.002,-0.018,-11.695,-75.822,0.839
14:44:49:18,154.306,0.039,0.015,-0.004,-12.364,-76.235,2.047
14:44:49:181,154.307,-0.041,0.058,-0.041,-13.347,-77.602,4.153
14:44:49:182,154.308,-0.124,-0.011,0.837,-19.849,-88.434,29.952
14:44:49:183,154.309,0.196,0.164,0.168,-19.770,-93.311,35.632
14:44:49:57,154.696,-0.084,0.078,0.468,-22.773,-97.511,43.944
14:44:49:57,154.696,0.010,-0.694,0.220,-22.525,-100.203,46.600
14:44:49:863,154.989,0.028,0.102,0.391,-11.184,-91.313,17.898
14:44:49:864,154.990,0.094,0.299,0.350,-9.200,-87.345,9.818
14:44:49:864,154.990,0.848,0.820,-1.492,-2.513,-75.013,-13.630
14:44:49:865,154.991,0.422,-0.874,-2.176,2.400,-68.853,-22.138
14:44:49:943,155.069,0.095,-1.065,-1.984,2.989,-66.905,-22.869
14:44:49:943,155.069,0.143,0.168,-0.320,1.893,-64.714,-20.292
14:44:49:943,155.069,-0.123,1.294,1.773,0.739,-60.497,-16.905
14:44:49:944,155.070,-0.291,0.176,-0.161,-0.553,-53.964,-11.561
14:44:50:02,155.146,-0.082,-0.181,-0.336,-1.344,-52.759,-10.293
14:44:50:021,155.147,0.023,-0.030,-0.066,-4.761,-50.729,-6.825
14:44:50:022,155.148,0.059,0.011,-0.035,-6.985,-51.782,-5.733
14:44:50:023,155.149,0.066,0.042,-0.020,-7.752,-51.647,-4.831
14:44:50:047,155.172,0.068,-0.014,-0.011,-8.173,-51.623,-4.263
14:44:50:047,155.173,0.023,0.039,-0.093,-8.672,-51.534,-3.373
14:44:50:048,155.174,0.048,0.010,0.002,-9.262,-52.173,-2.307
14:44:50:153,155.278,0.015,0.019,-0.024,-10.154,-53.030,-0.505
14:44:50:153,155.279,0.010,0.011,-0.037,-10.482,-53.286,0.247
14:44:50:154,155.280,-0.012,0.015,-0.006,-10.971,-53.800,1.400
14:44:50:155,155.281,0.015,0.022,-0.007,-11.443,-54.273,2.587
14:44:50:223,155.349,0.202,0.303,1.064,-16.963,-59.048,25.136
14:44:50:309,155.435,0.343,-0.061,1.107,-16.851,-63.153,30.320
14:44:50:31,155.436,0.473,-0.464,0.210,-18.137,-47.875,33.279
14:44:50:311,155.437,0.416,-0.319,0.170,-15.269,-45.625,28.322
14:44:50:311,155.437,0.431,-0.021,0.144,-11.140,-42.918,20.123
14:44:50:44,155.566,0.458,0.318,0.117,-8.773,-41.436,14.262
14:44:50:441,155.567,0.200,0.670,-0.119,-6.024,-39.041,4.550
14:44:50:441,155.567,0.054,1.284,-0.728,-4.020,-36.530,-5.602
14:44:50:442,155.568,-1.403,1.295,-1.510,-2.941,-34.279,-12.003
14:44:51:282,156.408,-1.349,-0.154,-2.023,0.363,-30.527,-18.889
14:44:51:282,156.408,-1.774,-1.326,-2.103,3.005,-26.593,-20.899
14:44:51:282,156.408,-0.597,-0.111,-0.573,4.413,-22.287,-20.345
14:44:51:283,156.409,0.443,-0.054,-0.056,2.062,-20.051,-17.360
14:44:51:386,156.512,-0.362,-0.050,-0.101,-0.261,-16.523,-11.748
14:44:51:386,156.512,-0.311,-0.215,-0.388,-1.549,-15.671,-9.914
14:44:51:387,156.513,-0.078,0.003,-0.064,-3.195,-14.796,-7.956
14:44:51:488,156.614,-0.156,0.047,-0.095,-3.890,-14.259,-7.345
14:44:51:489,156.615,0.090,0.057,-0.074,-5.333,-14.295,-6.373
14:44:51:49,156.616,0.035,-0.067,-0.092,-6.561,-14.153,-5.276
14:44:51:595,156.721,0.032,0.055,-0.084,-7.426,-13.968,-3.923
14:44:51:596,156.722,0.073,0.016,-0.018,-7.880,-14.120,-3.015
14:44:51:597,156.723,0.037,0.045,-0.038,-8.443,-14.164,-1.561
14:44:51:598,156.724,-0.007,-0.030,-0.050,-8.832,-13.993,-0.584
14:44:51:699,156.825,-0.016,0.005,-0.050,-9.402,-13.797,0.756
14:44:51:699,156.825,0.006,0.016,-0.021,-9.905,-13.965,2.064
14:44:51:7,156.826,-0.002,-0.006,-0.018,-10.281,-14.078,2.914
14:44:51:778,156.904,0.029,-0.002,-0.020,-10.877,-14.233,4.195
14:44:51:778,156.904,0.010,0.056,-0.039,-11.270,-14.301,5.104
14:44:51:778,156.904,-0.028,0.075,-0.026,-11.812,-14.438,6.498
14:44:51:886,157.012,0.002,0.082,0.001,-12.310,-14.761,7.836
14:44:51:886,157.012,-2.627,-1.675,-1.553,-0.407,-7.240,-24.951
14:44:51:886,157.012,-1.225,-0.364,-1.079,0.228,-5.309,-24.772
14:44:51:887,157.013,1.306,1.308,0.142,-0.710,-1.978,-21.626
14:44:51:988,157.114,-0.401,-0.856,0.231,-0.243,-0.165,-20.374
14:44:51:988,157.114,-0.868,0.498,-0.228,-1.290,3.942,-16.681
14:44:51:989,157.115,-0.182,0.015,-0.154,-2.043,5.678,-14.733
14:44:52:218,157.344,-0.561,-0.239,0.013,-3.369,7.593,-12.170
14:44:52:251,157.377,-0.134,0.033,-0.153,-4.347,8.300,-11.202
14:44:52:252,157.378,-0.103,0.045,-0.013,-5.701,8.631,-10.099
14:44:52:253,157.379,0.037,-0.037,-0.202,-6.974,8.285,-8.980
14:44:52:254,157.380,0.015,0.044,-0.018,-8.704,8.208,-6.506
14:44:52:352,157.478,0.010,-0.007,-0.076,-9.095,8.584,-5.443
14:44:52:353,157.479,0.026,-0.007,-0.080,-9.579,8.607,-4.377
14:44:52:378,157.504,0.013,-0.004,-0.032,-9.934,8.342,-3.550
14:44:52:379,157.505,0.012,0.010,-0.008,-10.504,8.146,-2.342
14:44:52:481,157.607,0.031,-0.003,-0.062,-10.883,8.086,-1.521
14:44:52:952,158.078,-0.014,-0.006,-0.057,-11.495,7.566,-0.178
14:44:53:747,158.873,-0.014,-0.002,-0.051,-11.927,7.403,0.739
14:44:53:747,158.873,0.005,0.027,-0.035,-12.547,6.879,2.151
14:44:53:747,158.873,-0.035,0.085,0.015,-13.158,6.550,3.582
14:44:54:711,159.837,0.004,0.062,0.005,-13.557,6.184,4.491
14:44:55:006,160.132,0.063,0.044,0.005,-14.165,5.829,5.973
14:44:55:006,160.132,0.092,0.053,-0.035,-14.585,5.321,7.119
14:44:55:007,160.133,0.073,0.044,0.036,-15.337,4.965,9.161
14:44:55:162,160.288,0.170,0.087,-0.074,-16.172,4.498,11.635
14:44:55:163,160.289,0.213,0.166,-0.092,-16.732,4.188,13.534
14:44:55:262,160.388,0.260,0.240,0.068,-17.541,3.198,16.839
14:44:55:297,160.423,0.929,0.135,0.236,-19.115,-2.177,27.782
14:44:55:298,160.424,0.563,-0.571,0.121,-27.869,-10.587,50.385
14:44:55:298,160.424,0.436,-0.991,-0.089,-26.722,-8.995,49.725
14:44:55:299,160.425,0.374,-0.787,-0.113,-25.696,-7.231,48.054
14:44:55:449,160.575,0.384,-0.678,-0.169,-23.148,-4.149,43.857
14:44:55:45,160.576,0.494,-0.521,-0.171,-21.084,-1.978,40.164
14:44:55:557,160.683,0.406,-0.403,-0.175,-17.767,1.683,33.784
14:44:55:558,160.684,0.341,-0.208,-0.149,-15.454,4.124,29.053
14:44:55:559,160.685,0.297,-0.090,-0.214,-11.978,7.434,21.446
14:44:55:583,160.709,0.317,0.074,-0.257,-8.995,10.715,13.169
14:44:55:584,160.709,-2.572,-0.843,-0.278,2.636,26.294,-19.671
14:44:55:585,160.710,0.011,-0.009,-0.029,-10.808,35.744,3.628
14:44:55:76,160.886,0.104,0.492,-0.266,-8.106,47.695,9.360
14:44:56:27,161.395,-0.499,1.060,-0.216,-5.603,50.465,-0.285
14:44:56:27,161.395,-2.389,-0.591,0.978,0.662,58.455,-17.020
14:44:56:27,161.396,0.043,-0.784,-0.288,-27.276,59.704,50.193
14:44:56:419,161.544,-0.634,1.306,0.445,-6.351,72.124,-6.682
14:44:58:468,163.594,-1.528,-1.157,2.200,0.712,80.641,-20.458
14:44:58:469,163.595,-0.096,-0.923,1.033,-0.925,84.123,-17.120
14:44:59:727,164.853,-0.803,0.839,0.187,-1.713,85.582,-14.986
14:44:59:728,164.854,-0.105,0.025,-0.246,-8.031,87.745,-6.678
14:45:01:387,166.513,-0.087,0.051,0.042,-8.836,87.612,-5.420
14:45:01:388,166.513,-0.037,0.017,-0.079,-9.304,87.355,-4.671
14:45:01:389,166.514,-0.068,-0.003,-0.116,-9.809,86.983,-3.510
14:45:01:39,166.515,0.006,0.056,0.023,-10.117,86.777,-2.643
14:45:01:406,166.532,-0.033,-0.021,-0.075,-11.206,85.997,0.133
14:45:01:588,166.714,-0.035,0.016,-0.044,-11.557,85.894,1.209
14:45:02:271,167.397,0.009,0.047,-0.044,-12.975,84.975,5.647
14:45:02:35,167.476,-0.004,0.034,-0.036,-13.472,84.670,7.202
14:45:02:938,168.063,0.006,0.010,-0.032,-13.786,84.451,8.240
14:45:02:938,168.064,-0.024,0.004,-0.116,-14.258,84.035,9.873
14:45:02:939,168.064,-0.007,0.009,-0.145,-14.564,83.530,11.078
14:45:02:94,168.066,0.090,0.014,-0.103,-15.111,83.039,13.250
14:45:03:038,168.164,0.182,-0.112,-0.555,-19.494,75.158,36.199
14:45:03:039,168.165,-0.204,0.823,0.523,-7.574,74.953,-5.830
14:45:03:04,168.166,-0.733,0.947,1.005,-6.671,75.878,-11.448
14:45:03:618,168.744,-0.843,0.103,1.951,-4.811,79.042,-18.759
14:45:03:619,168.745,-1.454,-0.944,1.717,-3.181,79.902,-23.001
14:45:03:62,168.746,-0.101,0.160,-0.019,-7.293,94.651,-12.492
14:45:03:846,168.972,0.208,0.399,-0.607,-27.632,73.408,44.658
14:45:03:877,169.002,-0.601,0.379,-0.674,-20.291,104.349,42.288
14:45:03:878,169.003,-0.310,0.049,-0.785,-25.311,105.338,47.932
14:45:04:588,169.714,1.012,1.422,0.689,-6.766,162.639,-10.634
14:45:04:588,169.714,1.427,-0.011,1.196,-3.295,165.532,-18.653
14:45:04:615,169.741,2.603,-0.972,1.885,-0.825,168.568,-21.770
14:45:04:616,169.742,-0.783,1.065,0.080,-1.507,171.531,-19.545
14:45:04:617,169.743,-0.098,-0.142,0.052,-10.100,176.169,-6.821
14:45:04:618,169.744,-0.465,-0.763,-0.286,-35.627,160.473,52.954
14:45:04:797,169.923,-0.369,-0.961,-0.035,-34.152,161.049,52.150
14:45:04:797,169.923,-0.030,-0.034,0.061,-10.768,-161.106,-0.531
14:45:04:798,169.924,0.025,-0.007,-0.010,-11.033,-161.178,0.373
14:45:04:9,170.026,-0.024,0.048,-0.025,-11.508,-161.733,1.792
14:45:04:9,170.026,-0.014,-0.010,-0.008,-11.781,-161.958,2.593
14:45:04:975,170.101,0.041,0.049,-0.033,-12.197,-161.995,3.598
14:45:05:089,170.214,-0.036,-0.029,0.004,-12.455,-162.134,4.507
14:45:05:089,170.215,-0.060,0.029,-0.009,-12.933,-162.932,6.675
14:45:05:09,170.215,-0.053,-0.756,0.190,-27.984,-157.881,46.805
