Time,Second,AccelerationX,AccelerationY,AccelerationZ,EulerAnglesX,EulerAnglesY,EulerAnglesZ
14:42:14:317,0.000,0.011,-0.025,0.001,-2.749,-20.518,13.573
14:42:14:371,0.054,0.009,-0.013,0.001,-2.755,-20.491,13.671
14:42:14:371,0.055,0.000,-0.013,0.004,-2.774,-20.335,13.752
14:42:14:394,0.077,-0.009,-0.016,-0.001,-2.802,-19.872,13.856
14:42:14:479,0.162,-0.029,-0.012,0.008,-2.817,-19.537,13.935
14:42:14:48,0.163,-0.025,-0.007,0.004,-2.813,-19.028,14.090
14:42:14:481,0.164,-0.014,-0.013,0.008,-2.777,-18.644,14.233
14:42:14:5,0.183,-0.009,-0.018,0.007,-2.725,-18.463,14.313
14:42:14:527,0.210,-0.003,-0.023,0.011,-2.670,-18.297,14.438
14:42:14:61,0.293,0.002,-0.012,0.001,-2.658,-18.201,14.514
14:42:14:611,0.294,0.002,-0.016,0.006,-2.656,-18.042,14.594
14:42:14:612,0.295,0.005,-0.021,0.009,-2.655,-17.858,14.627
14:42:14:631,0.314,-0.007,-0.021,0.015,-2.657,-17.754,14.636
14:42:14:687,0.370,-0.019,-0.012,0.010,-2.679,-17.458,14.660
14:42:14:687,0.370,-0.025,-0.015,0.010,-2.690,-17.268,14.681
14:42:14:71,0.393,-0.025,-0.010,0.000,-2.686,-17.022,14.702
14:42:14:737,0.421,-0.024,-0.003,0.004,-2.669,-16.909,14.717
14:42:14:762,0.445,-0.018,0.001,0.003,-2.665,-16.782,14.742
14:42:14:791,0.474,-0.018,-0.011,0.009,-2.635,-16.638,14.732
14:42:14:816,0.499,-0.013,-0.014,0.011,-2.607,-16.558,14.715
14:42:14:841,0.524,-0.009,-0.015,0.009,-2.571,-16.448,14.687
14:42:14:896,0.579,-0.015,-0.001,0.007,-2.560,-16.339,14.667
14:42:14:897,0.580,-0.015,0.003,0.004,-2.522,-16.191,14.640
14:42:14:921,0.604,0.006,-0.004,0.012,-2.440,-16.304,14.592
14:42:14:946,0.629,0.026,-0.005,0.019,-2.366,-16.466,14.552
14:42:14:972,0.655,0.041,-0.011,0.022,-2.236,-16.690,14.505
14:42:15:001,0.684,0.069,-0.008,0.021,-2.151,-16.759,14.451
14:42:15:002,0.685,0.062,-0.013,0.031,-2.042,-16.604,14.298
14:42:15:025,0.708,0.028,-0.030,0.021,-2.001,-16.034,14.108
14:42:15:05,0.734,0.021,-0.026,0.024,-2.025,-15.470,13.958
14:42:15:106,0.790,-0.033,-0.017,0.009,-2.110,-14.357,13.806
14:42:15:107,0.790,-0.065,-0.007,0.008,-2.171,-13.569,13.730
14:42:15:158,0.842,-0.078,0.001,0.007,-2.226,-12.585,13.659
14:42:15:159,0.842,-0.069,0.004,0.015,-2.182,-11.971,13.625
14:42:15:211,0.894,-0.038,-0.008,0.008,-2.055,-11.718,13.740
14:42:15:212,0.895,-0.013,-0.014,0.028,-1.941,-11.468,13.730
14:42:15:235,0.918,0.011,-0.014,0.024,-1.869,-11.270,13.726
14:42:15:262,0.945,-0.005,-0.006,0.030,-1.746,-10.877,13.725
14:42:15:288,0.971,-0.024,-0.030,-0.001,-1.618,-10.561,13.750
14:42:15:313,0.997,-0.014,-0.028,0.004,-1.499,-10.197,13.770
14:42:15:341,1.024,-0.005,-0.021,0.016,-1.443,-9.743,13.802
14:42:15:366,1.049,-0.009,0.000,0.025,-1.410,-9.376,13.834
14:42:15:393,1.076,-0.023,-0.004,0.005,-1.356,-8.649,13.910
14:42:15:419,1.102,-0.030,0.000,0.020,-1.318,-8.150,13.981
14:42:15:445,1.128,-0.030,-0.006,0.007,-1.215,-7.488,14.107
14:42:15:471,1.154,-0.024,-0.005,-0.001,-1.104,-6.993,14.273
14:42:15:498,1.181,-0.028,-0.012,-0.012,-1.037,-6.645,14.429
14:42:15:523,1.206,-0.026,-0.024,-0.017,-0.953,-6.232,14.672
14:42:15:549,1.232,-0.036,-0.026,-0.021,-0.929,-5.988,14.830
14:42:15:575,1.259,-0.029,-0.020,-0.024,-0.921,-5.744,15.060
14:42:15:603,1.286,-0.021,-0.018,-0.032,-0.958,-5.616,15.266
14:42:15:687,1.370,-0.017,-0.009,-0.025,-1.016,-5.536,15.353
14:42:15:688,1.371,-0.014,-0.007,-0.021,-1.152,-5.466,15.467
14:42:15:688,1.371,-0.009,0.003,-0.008,-1.254,-5.493,15.508
14:42:15:707,1.390,-0.033,-0.010,-0.004,-1.436,-5.288,15.598
14:42:15:733,1.416,-0.036,-0.009,-0.007,-1.552,-5.292,15.681
14:42:15:76,1.443,-0.032,-0.019,0.004,-1.680,-5.231,15.812
14:42:15:786,1.470,-0.019,-0.003,-0.002,-1.765,-5.317,15.917
14:42:15:813,1.496,-0.020,0.001,0.001,-1.819,-5.373,15.985
14:42:15:838,1.521,-0.026,-0.001,-0.012,-1.887,-5.509,16.128
14:42:15:864,1.547,-0.018,-0.004,-0.006,-1.942,-5.644,16.235
14:42:15:949,1.632,-0.014,-0.010,-0.013,-2.004,-5.911,16.386
14:42:15:95,1.633,-0.001,-0.002,-0.001,-2.075,-6.220,16.530
14:42:15:95,1.633,0.007,-0.002,-0.006,-2.124,-6.440,16.621
14:42:15:969,1.653,0.005,-0.010,0.006,-2.179,-6.749,16.732
14:42:15:996,1.679,0.012,-0.013,0.002,-2.215,-6.942,16.794
14:42:16:053,1.736,0.012,-0.004,0.013,-2.274,-7.175,16.869
14:42:16:053,1.736,0.014,-0.005,0.014,-2.309,-7.320,16.922
14:42:16:074,1.758,0.011,-0.008,0.017,-2.356,-7.453,17.006
14:42:16:101,1.784,0.012,-0.017,0.010,-2.378,-7.582,17.069
14:42:16:127,1.810,0.018,-0.012,0.026,-2.382,-7.647,17.076
14:42:16:153,1.836,0.012,0.006,0.031,-2.416,-7.587,17.085
14:42:16:18,1.863,-0.003,-0.003,0.028,-2.431,-7.455,17.096
14:42:16:206,1.889,-0.023,-0.006,0.030,-2.419,-7.137,17.086
14:42:16:232,1.915,-0.023,-0.001,0.033,-2.376,-6.867,17.095
14:42:16:258,1.941,-0.026,0.010,0.016,-2.340,-6.763,17.083
14:42:16:345,2.028,-0.018,0.001,0.015,-2.249,-6.806,17.055
14:42:16:345,2.028,-0.008,-0.005,0.016,-2.169,-6.933,17.012
14:42:16:345,2.028,0.003,-0.006,0.011,-2.043,-7.259,16.928
14:42:16:393,2.076,0.015,-0.012,0.007,-1.903,-7.620,16.813
14:42:16:393,2.076,0.013,-0.018,0.003,-1.820,-7.960,16.719
14:42:16:416,2.100,-0.003,-0.010,-0.003,-1.749,-8.045,16.555
14:42:16:442,2.125,-0.015,-0.014,-0.012,-1.736,-8.056,16.452
14:42:16:468,2.151,-0.030,-0.014,-0.010,-1.745,-7.889,16.346
14:42:16:582,2.265,-0.039,-0.018,-0.023,-1.785,-7.789,16.349
14:42:16:583,2.266,-0.041,-0.025,-0.014,-1.858,-7.746,16.484
14:42:16:583,2.266,-0.031,-0.014,-0.013,-1.920,-7.910,16.664
14:42:16:584,2.267,-0.032,-0.012,-0.006,-1.958,-8.127,16.789
14:42:16:599,2.282,-0.025,-0.019,-0.008,-1.994,-8.598,17.027
14:42:16:625,2.309,-0.018,-0.024,-0.002,-1.983,-9.021,17.204
14:42:16:653,2.336,-0.009,-0.003,-0.003,-1.952,-9.749,17.459
14:42:16:679,2.362,-0.003,0.000,0.010,-1.877,-10.535,17.668
14:42:16:705,2.388,0.013,0.007,0.003,-1.802,-11.066,17.775
14:42:16:731,2.414,0.015,0.008,0.004,-1.668,-11.800,17.884
14:42:16:757,2.440,0.027,-0.006,0.002,-1.571,-12.257,17.957
14:42:16:783,2.466,0.020,-0.006,-0.004,-1.416,-12.879,18.046
14:42:16:809,2.492,0.035,-0.013,-0.013,-1.295,-13.412,18.115
14:42:16:836,2.519,0.034,-0.019,-0.014,-1.270,-13.646,18.158
14:42:16:862,2.545,0.015,-0.017,-0.020,-1.323,-13.830,18.204
14:42:16:917,2.600,0.019,-0.006,-0.015,-1.415,-13.844,18.203
14:42:16:918,2.601,0.008,0.003,-0.028,-1.577,-13.844,18.197
14:42:16:941,2.624,0.006,0.004,-0.024,-1.730,-13.905,18.191
14:42:16:967,2.650,0.007,0.006,-0.025,-1.812,-13.994,18.210
14:42:16:993,2.677,0.009,-0.007,0.001,-1.880,-14.188,18.200
14:42:17:02,2.703,0.019,-0.006,0.004,-1.921,-14.321,18.160
14:42:17:075,2.758,0.015,0.002,-0.001,-1.985,-14.461,18.025
14:42:17:075,2.758,0.007,-0.012,-0.002,-2.051,-14.449,17.910
14:42:17:098,2.781,-0.009,-0.024,-0.006,-2.178,-14.279,17.705
14:42:17:152,2.835,-0.043,-0.022,-0.005,-2.358,-14.021,17.461
14:42:17:212,2.896,-0.058,-0.026,-0.003,-2.472,-13.911,17.232
14:42:17:213,2.896,-0.063,-0.019,0.001,-2.602,-13.942,16.815
14:42:17:213,2.897,-0.065,0.005,-0.012,-2.640,-14.036,16.676
14:42:17:214,2.897,-0.063,0.003,-0.004,-2.673,-14.179,16.455
14:42:17:257,2.940,-0.065,0.007,-0.016,-2.689,-14.243,16.198
14:42:17:285,2.968,-0.078,0.003,-0.004,-2.699,-14.222,16.078
14:42:17:285,2.968,-0.076,-0.001,-0.013,-2.685,-14.186,16.036
14:42:17:308,2.991,-0.086,0.004,-0.014,-2.689,-14.201,16.094
14:42:17:334,3.017,-0.079,0.008,-0.018,-2.665,-14.346,16.251
14:42:17:362,3.045,-0.072,0.011,-0.006,-2.608,-14.657,16.453
14:42:17:417,3.100,-0.056,0.009,-0.008,-2.528,-14.928,16.567
14:42:17:417,3.100,-0.051,0.007,0.006,-2.379,-15.332,16.688
14:42:17:439,3.123,-0.034,-0.007,0.008,-2.256,-15.589,16.742
14:42:17:466,3.149,-0.042,-0.015,0.013,-2.053,-15.879,16.803
14:42:17:521,3.204,-0.033,-0.016,0.010,-1.905,-16.002,16.847
14:42:17:522,3.205,-0.033,-0.023,0.012,-1.664,-16.048,16.889
14:42:17:546,3.229,-0.033,-0.011,0.004,-1.445,-15.895,16.912
14:42:17:57,3.254,-0.039,0.019,0.003,-1.301,-15.689,16.941
14:42:17:677,3.360,-0.028,0.036,-0.012,-1.062,-15.337,16.894
14:42:17:729,3.412,-0.029,0.031,-0.013,-0.862,-15.073,16.847
14:42:17:764,3.447,-0.029,0.046,-0.033,-0.544,-14.563,16.797
14:42:17:764,3.447,-0.023,0.131,-0.042,-0.237,-13.956,16.688
14:42:17:765,3.448,-0.016,0.143,-0.052,-0.012,-13.504,16.559
14:42:17:766,3.449,-0.029,0.108,-0.069,0.340,-12.716,16.380
14:42:17:813,3.496,-0.056,-0.007,-0.062,0.561,-12.089,16.332
14:42:17:814,3.497,-0.066,-0.060,-0.052,0.818,-11.105,16.458
14:42:17:814,3.497,-0.084,-0.107,-0.047,0.964,-10.331,16.806
14:42:17:833,3.516,-0.080,-0.095,-0.058,1.007,-10.054,17.140
14:42:17:859,3.543,-0.053,-0.053,-0.062,1.093,-10.106,17.707
14:42:17:886,3.569,0.015,0.023,-0.070,1.164,-10.442,18.078
14:42:17:912,3.595,0.013,0.009,-0.063,1.322,-11.120,18.640
14:42:17:94,3.623,0.020,-0.021,-0.017,1.447,-11.630,19.086
14:42:17:965,3.648,0.003,0.007,0.100,1.662,-12.717,20.015
14:42:17:991,3.675,0.420,0.222,0.555,2.429,-15.934,21.142
14:42:18:017,3.700,0.527,0.075,0.591,3.544,-19.227,21.649
14:42:18:044,3.727,0.345,-0.058,0.312,5.475,-22.795,21.814
14:42:18:099,3.782,0.215,-0.158,0.111,6.371,-23.340,21.959
14:42:18:1,3.783,0.166,-0.197,0.015,6.715,-22.147,22.281
14:42:18:122,3.805,0.158,-0.116,-0.028,6.088,-18.740,22.457
14:42:18:178,3.861,0.085,-0.069,-0.109,5.527,-16.282,22.685
14:42:18:178,3.861,0.063,-0.147,-0.127,5.071,-13.450,22.901
14:42:18:201,3.884,0.079,-0.145,-0.090,4.933,-12.252,22.887
14:42:18:256,3.939,0.069,-0.071,0.017,4.531,-10.699,22.637
14:42:18:257,3.940,0.082,-0.013,0.245,4.035,-9.478,22.426
14:42:18:279,3.963,0.065,-0.018,0.280,2.950,-6.891,22.476
14:42:18:364,4.047,-0.005,-0.073,0.125,1.695,-3.187,22.733
14:42:18:365,4.048,-0.085,-0.054,0.046,0.860,-0.663,22.732
14:42:18:365,4.048,-0.077,-0.072,0.009,0.029,2.316,22.173
14:42:18:384,4.067,-0.037,-0.067,0.028,-0.278,3.687,21.632
14:42:18:413,4.096,-0.065,0.005,0.093,-0.854,5.702,21.124
14:42:18:438,4.121,-0.080,0.054,0.121,-1.616,7.823,20.940
14:42:18:463,4.146,-0.079,0.105,0.144,-2.175,9.265,21.024
14:42:18:489,4.173,-0.069,0.109,0.196,-2.878,10.895,21.398
14:42:18:516,4.199,-0.039,0.239,0.265,-3.185,11.829,21.444
14:42:18:543,4.226,-0.078,0.249,0.263,-3.749,12.989,21.174
14:42:18:568,4.252,-0.119,0.116,0.135,-3.923,14.324,20.873
14:42:18:595,4.278,-0.094,0.100,0.104,-3.711,14.585,20.750
14:42:18:622,4.305,-0.026,0.107,0.090,-2.976,13.956,20.818
14:42:18:647,4.330,0.001,0.066,0.003,-2.346,12.728,20.976
14:42:18:673,4.356,-0.009,-0.019,-0.036,-1.110,11.209,21.366
14:42:18:73,4.413,0.026,-0.116,-0.067,-0.171,10.050,21.705
14:42:18:73,4.413,0.036,-0.181,-0.070,1.189,8.679,22.357
14:42:18:782,4.465,0.077,-0.152,-0.102,2.334,7.359,23.189
14:42:18:782,4.465,0.092,-0.104,-0.095,2.884,6.667,23.671
14:42:18:805,4.488,0.098,0.022,-0.113,3.408,5.677,24.227
14:42:18:861,4.544,0.135,0.105,-0.145,3.634,5.202,24.450
14:42:18:861,4.544,0.155,0.080,-0.182,3.817,4.619,24.630
14:42:18:883,4.566,0.117,-0.053,-0.166,3.908,4.310,24.912
14:42:18:909,4.593,0.111,-0.132,-0.156,3.890,4.229,25.210
14:42:18:936,4.619,0.135,-0.208,-0.095,3.672,3.993,25.904
14:42:18:964,4.647,0.069,-0.106,-0.092,3.332,3.920,26.534
14:42:18:988,4.672,0.112,-0.192,-0.063,3.236,3.338,27.011
14:42:19:015,4.698,0.126,-0.133,-0.055,2.939,2.557,27.224
14:42:19:041,4.724,0.117,-0.120,-0.042,2.730,1.911,27.064
14:42:19:097,4.781,0.117,-0.107,-0.034,2.477,1.014,26.338
14:42:19:098,4.781,0.109,-0.084,-0.022,2.232,0.173,25.347
14:42:19:119,4.802,0.077,-0.061,-0.016,1.938,-0.196,23.810
14:42:19:146,4.829,0.070,-0.008,0.011,1.628,-0.230,21.958
14:42:19:172,4.855,0.078,0.084,0.008,1.387,0.202,20.647
14:42:19:227,4.910,0.058,0.186,-0.014,0.930,1.379,18.740
14:42:19:228,4.911,-0.031,0.222,-0.047,0.716,2.542,17.621
14:42:19:251,4.934,-0.035,0.150,-0.023,0.774,3.940,16.293
14:42:19:277,4.961,-0.055,0.294,-0.003,0.767,5.449,15.107
14:42:19:303,4.986,-0.068,0.365,-0.021,0.787,6.373,14.431
14:42:19:388,5.071,-0.067,0.283,-0.041,0.876,7.740,13.615
14:42:19:389,5.072,-0.145,0.006,0.054,0.911,8.681,13.273
14:42:19:389,5.072,-0.135,-0.083,0.106,0.855,9.925,13.115
14:42:19:409,5.092,0.158,-0.269,-0.008,0.608,10.312,13.213
14:42:19:464,5.147,0.372,-0.357,-0.065,0.350,9.945,12.973
14:42:19:464,5.147,0.265,-0.238,0.062,0.033,7.376,11.488
14:42:19:487,5.170,0.163,-0.082,0.021,-0.007,4.276,10.120
14:42:19:514,5.197,0.141,-0.010,-0.058,-0.553,-0.457,7.715
14:42:19:539,5.222,0.035,0.105,0.049,-1.376,-3.010,5.539
14:42:19:596,5.279,-0.075,0.028,0.185,-2.752,-5.956,2.470
14:42:19:596,5.279,-0.208,-0.111,0.135,-3.861,-8.390,0.219
14:42:19:618,5.301,-0.130,-0.116,0.135,-4.552,-9.893,-0.878
14:42:19:644,5.328,-0.216,-0.157,0.155,-5.506,-12.027,-1.966
14:42:19:703,5.386,-0.335,-0.162,0.177,-6.056,-12.928,-2.408
14:42:19:704,5.387,-0.369,-0.182,0.193,-6.583,-13.443,-2.665
14:42:19:704,5.387,-0.387,-0.150,0.185,-6.790,-13.146,-2.456
14:42:19:723,5.406,-0.374,-0.111,0.158,-6.808,-12.750,-2.037
14:42:19:749,5.432,-0.376,-0.089,0.142,-6.675,-12.294,-0.940
14:42:19:775,5.459,-0.314,-0.054,0.169,-6.533,-12.382,0.244
14:42:19:832,5.515,-0.153,0.088,0.148,-6.160,-13.357,2.810
14:42:19:833,5.516,-0.071,0.101,0.063,-5.694,-14.650,4.899
14:42:19:884,5.567,0.529,0.130,0.010,-4.475,-20.714,7.351
14:42:19:884,5.567,0.501,0.178,0.266,-2.930,-29.310,9.090
14:42:19:907,5.590,0.284,0.504,0.409,-2.347,-32.602,9.910
14:42:19:933,5.616,0.233,0.286,0.203,-1.490,-32.150,12.006
14:42:19:963,5.646,0.237,-0.431,0.137,-0.775,-30.824,12.796
14:42:19:986,5.669,0.105,-0.117,0.023,-0.579,-26.513,11.650
14:42:20:04,5.723,0.069,0.085,-0.006,-1.106,-20.821,11.285
14:42:20:068,5.751,0.025,-0.147,-0.049,-1.041,-16.878,11.513
14:42:20:068,5.751,-0.004,-0.092,-0.112,-0.827,-11.774,12.048
14:42:20:092,5.775,0.010,-0.095,-0.126,-0.486,-9.561,12.506
14:42:20:118,5.801,-0.026,0.065,-0.148,0.126,-7.401,13.346
14:42:20:144,5.827,-0.028,0.153,-0.156,0.727,-5.376,14.158
14:42:20:198,5.882,0.089,0.128,-0.095,1.094,-3.888,14.625
14:42:20:199,5.883,0.029,0.030,-0.077,1.533,-1.584,15.909
14:42:20:222,5.905,0.058,-0.116,-0.054,1.755,0.194,17.006
14:42:20:248,5.931,0.049,-0.160,-0.017,1.820,2.672,18.647
14:42:20:333,6.016,0.079,-0.094,-0.061,1.677,3.965,19.850
14:42:20:333,6.017,0.036,-0.136,-0.082,1.541,5.296,21.362
14:42:20:353,6.036,0.303,-0.189,-0.088,1.822,5.206,23.414
14:42:20:38,6.063,0.133,-0.086,-0.043,1.724,4.936,24.357
14:42:20:521,6.205,0.241,-0.192,0.030,1.937,4.363,24.339
14:42:20:522,6.206,0.188,-0.137,0.038,1.610,4.511,23.976
14:42:20:523,6.206,0.189,0.027,-0.002,0.536,6.308,23.036
14:42:20:524,6.207,0.195,0.131,-0.024,-0.396,8.161,21.986
14:42:20:54,6.224,0.107,0.232,-0.106,-1.754,11.989,20.061
14:42:20:541,6.224,0.067,0.224,-0.132,-2.496,14.959,18.772
14:42:20:59,6.273,0.032,0.387,-0.048,-3.508,21.304,15.970
14:42:20:616,6.299,0.008,0.178,0.085,-3.662,23.648,14.127
14:42:20:643,6.326,-0.138,-0.154,0.264,-3.674,24.843,12.491
14:42:20:669,6.352,-0.087,-0.319,0.199,-3.645,24.728,11.752
14:42:20:695,6.378,0.063,-0.250,0.124,-3.628,23.144,11.099
14:42:20:721,6.405,0.169,-0.021,0.097,-3.714,21.929,10.905
14:42:20:747,6.430,0.383,0.020,0.050,-3.769,20.367,11.183
14:42:20:803,6.486,0.344,0.046,-0.022,-3.633,21.062,12.017
14:42:20:803,6.486,0.185,0.009,0.005,-3.424,23.636,12.763
14:42:20:826,6.509,0.091,-0.058,0.074,-3.111,28.162,13.793
14:42:20:852,6.535,0.005,-0.095,0.095,-2.899,30.950,14.316
14:42:20:878,6.561,-0.008,-0.119,0.086,-2.631,34.168,14.908
14:42:20:933,6.616,0.043,-0.169,0.054,-2.446,36.677,15.113
14:42:20:934,6.617,0.043,-0.218,0.073,-2.455,38.106,15.001
14:42:21:044,6.728,0.006,-0.180,0.095,-2.699,40.904,14.458
14:42:21:045,6.728,-0.018,-0.163,0.127,-2.940,42.737,13.841
14:42:21:046,6.729,-0.062,-0.066,0.169,-3.477,45.508,12.685
14:42:21:046,6.730,0.006,-0.130,0.204,-3.932,47.570,11.697
14:42:21:062,6.745,-0.008,-0.060,0.254,-4.339,48.556,10.885
14:42:21:089,6.772,0.013,0.081,0.333,-4.989,49.299,9.587
14:42:21:114,6.798,-0.028,0.153,0.351,-5.375,49.167,8.704
14:42:21:17,6.853,-0.046,0.018,0.277,-5.676,47.891,7.746
14:42:21:17,6.854,0.056,0.123,0.248,-5.900,46.512,7.116
14:42:21:193,6.876,0.150,0.322,0.314,-6.581,45.141,6.150
14:42:21:278,6.961,0.153,0.220,0.269,-6.733,45.547,6.135
14:42:21:278,6.961,-0.038,0.046,0.310,-6.328,46.656,6.618
14:42:21:279,6.962,-0.037,-0.252,0.236,-5.342,46.475,7.964
14:42:21:298,6.981,0.072,-0.248,0.138,-4.670,45.182,8.804
14:42:21:325,7.008,0.024,-0.061,0.106,-3.702,42.437,9.679
14:42:21:438,7.121,0.082,0.069,0.007,-2.428,39.261,10.607
14:42:21:439,7.122,0.119,0.087,-0.034,-1.444,37.807,11.318
14:42:21:44,7.123,0.095,0.112,-0.048,-0.197,37.716,12.590
14:42:21:485,7.168,-0.001,0.070,-0.091,0.868,41.670,15.374
14:42:21:486,7.169,-0.061,-0.106,-0.051,0.996,43.993,16.737
14:42:21:51,7.193,-0.067,-0.153,-0.026,0.914,47.312,18.911
14:42:21:588,7.271,-0.037,-0.155,-0.025,0.780,49.343,21.023
14:42:21:641,7.325,-0.005,-0.012,-0.112,0.773,49.816,22.258
14:42:21:674,7.357,0.000,-0.092,-0.077,0.908,49.849,23.741
14:42:21:675,7.358,0.053,-0.190,-0.136,1.519,49.083,24.766
14:42:21:676,7.359,0.098,-0.142,-0.144,1.844,48.551,25.191
14:42:21:722,7.405,0.106,-0.173,-0.201,2.432,48.082,25.536
14:42:21:722,7.405,0.079,-0.003,-0.272,2.040,49.141,25.365
14:42:21:745,7.428,0.092,0.149,-0.294,1.336,50.488,25.008
14:42:21:8,7.483,0.063,0.114,-0.252,0.081,53.267,24.055
14:42:21:8,7.483,0.055,0.162,-0.208,-1.349,56.844,22.434
14:42:21:852,7.536,0.021,0.312,-0.177,-2.612,59.646,20.914
14:42:21:853,7.536,0.014,0.355,0.008,-4.252,64.094,18.127
14:42:21:876,7.559,-0.023,0.066,0.144,-4.961,66.604,16.390
14:42:21:902,7.585,-0.015,-0.103,0.236,-5.304,68.911,13.525
14:42:21:932,7.615,-0.066,-0.219,0.304,-5.446,69.255,10.798
14:42:21:932,7.615,-0.022,-0.190,0.259,-5.436,68.204,9.237
14:42:21:955,7.638,0.042,-0.045,0.178,-5.685,65.153,7.031
14:42:21:983,7.666,0.036,0.065,0.219,-5.981,62.914,5.761
14:42:22:036,7.719,0.066,0.070,0.176,-6.498,60.224,4.316
14:42:22:037,7.720,0.187,-0.006,0.145,-6.896,59.320,3.694
14:42:22:088,7.771,0.211,-0.027,0.184,-7.562,60.410,3.125
14:42:22:089,7.772,0.300,-0.058,0.254,-8.013,64.162,3.240
14:42:22:141,7.825,0.300,-0.113,0.252,-8.021,67.479,3.858
14:42:22:142,7.825,0.177,-0.127,0.181,-7.742,71.894,4.772
14:42:22:165,7.848,0.060,-0.134,0.234,-7.388,73.750,5.057
14:42:22:22,7.903,0.017,-0.065,0.290,-6.748,75.076,5.135
14:42:22:221,7.904,0.014,-0.058,0.292,-6.239,74.140,4.977
14:42:22:244,7.927,0.072,-0.108,0.202,-5.988,72.502,4.740
14:42:22:299,7.982,0.202,-0.097,0.085,-5.702,69.625,4.166
14:42:22:299,7.982,0.178,-0.105,0.127,-5.606,68.231,3.877
14:42:22:323,8.006,0.117,-0.131,0.203,-5.353,67.620,3.648
14:42:22:348,8.032,0.029,-0.050,0.245,-5.304,68.291,3.661
14:42:22:374,8.058,0.024,0.005,0.268,-5.428,69.100,3.777
14:42:22:401,8.084,0.023,0.061,0.229,-5.691,70.453,4.301
14:42:22:427,8.110,0.064,0.210,0.212,-5.893,70.728,4.760
14:42:22:453,8.136,0.259,0.402,0.121,-6.407,71.029,5.668
14:42:22:539,8.222,0.442,0.352,-0.027,-6.585,71.546,6.519
14:42:22:54,8.223,0.073,-0.082,0.150,-6.028,73.013,7.662
14:42:22:54,8.223,0.041,-0.155,0.156,-5.213,72.833,8.033
14:42:22:559,8.242,0.061,-0.128,0.053,-4.768,71.118,8.088
14:42:22:585,8.268,0.063,-0.089,-0.017,-4.008,68.460,8.178
14:42:22:641,8.324,0.016,-0.058,-0.034,-3.530,67.609,8.461
14:42:22:641,8.325,-0.036,-0.029,-0.010,-3.017,68.450,9.275
14:42:22:663,8.346,-0.141,0.011,0.022,-2.756,70.877,10.465
14:42:22:69,8.373,-0.171,0.027,0.081,-2.690,72.568,11.345
14:42:22:717,8.400,-0.190,0.139,0.141,-2.751,74.459,12.657
14:42:22:771,8.454,-0.189,0.108,0.069,-2.778,74.903,13.459
14:42:22:772,8.455,-0.123,-0.045,-0.019,-2.646,74.477,14.825
14:42:22:795,8.478,-0.051,-0.087,-0.040,-2.418,73.231,16.412
14:42:22:821,8.504,-0.028,-0.112,-0.045,-2.161,72.052,17.495
14:42:22:848,8.531,-0.014,-0.142,-0.108,-1.621,70.201,18.942
14:42:22:873,8.556,0.039,-0.149,-0.161,-1.236,68.870,20.002
14:42:22:9,8.583,0.048,-0.219,-0.133,-0.569,67.305,20.925
14:42:22:926,8.609,0.057,-0.111,-0.135,-0.413,66.740,21.503
14:42:22:952,8.635,0.091,-0.103,-0.148,-0.529,66.732,21.937
14:42:22:978,8.661,0.126,-0.079,-0.126,-1.006,67.416,21.669
14:42:23:005,8.688,0.124,-0.032,-0.088,-1.516,68.858,21.174
14:42:23:031,8.714,0.138,0.118,-0.027,-2.364,70.859,19.877
14:42:23:057,8.740,0.105,0.205,-0.008,-2.844,72.588,18.472
14:42:23:112,8.795,0.061,0.215,-0.016,-3.209,74.698,15.947
14:42:23:113,8.796,0.020,0.224,0.073,-3.223,77.216,13.352
14:42:23:136,8.819,0.015,0.329,0.134,-3.178,78.533,11.737
14:42:23:162,8.845,-0.017,0.203,0.137,-2.671,79.942,9.668
14:42:23:188,8.872,0.001,0.054,0.165,-2.210,80.372,8.444
14:42:23:215,8.898,0.057,-0.165,0.250,-1.615,80.845,6.860
14:42:23:241,8.924,0.077,-0.196,0.234,-1.194,81.035,5.726
14:42:23:267,8.950,0.031,-0.131,0.194,-0.952,80.989,5.234
14:42:23:293,8.976,-0.009,-0.068,0.167,-0.599,81.526,4.935
14:42:23:349,9.032,-0.069,0.024,0.156,-0.386,82.163,5.091
14:42:23:35,9.033,-0.073,0.083,0.141,-0.109,83.880,5.799
14:42:23:402,9.085,-0.058,0.013,0.124,0.037,85.181,6.513
14:42:23:402,9.085,-0.038,-0.074,0.124,0.159,87.649,7.855
14:42:23:424,9.107,-0.024,-0.189,0.166,-0.001,89.749,9.306
14:42:23:48,9.163,-0.010,-0.217,0.177,-0.296,91.296,10.232
14:42:23:481,9.164,0.168,-0.199,0.119,-1.010,92.017,11.373
14:42:23:503,9.187,0.534,0.032,-0.269,-1.751,92.276,12.113
14:42:23:53,9.213,0.398,-0.125,-0.178,-2.213,93.190,12.884
14:42:23:556,9.239,0.200,-0.217,0.026,-2.283,94.229,12.195
14:42:23:582,9.265,0.116,-0.253,0.214,-2.228,94.360,11.019
14:42:23:608,9.291,0.112,0.023,0.236,-2.297,93.489,8.548
14:42:23:635,9.319,0.065,-0.038,0.206,-2.408,91.814,6.984
14:42:23:661,9.344,0.009,-0.093,0.256,-2.637,88.761,4.946
14:42:23:687,9.370,0.029,-0.056,0.300,-3.213,85.396,3.085
14:42:23:713,9.396,0.048,-0.021,0.323,-3.731,83.140,2.125
14:42:23:74,9.423,0.070,0.066,0.329,-4.596,80.024,1.228
14:42:23:766,9.449,0.241,0.149,0.173,-5.164,78.261,1.077
14:42:23:851,9.534,0.553,0.407,0.060,-6.284,77.233,1.412
14:42:23:851,9.534,0.265,0.271,0.150,-6.684,78.868,2.341
14:42:23:852,9.535,0.020,-0.058,0.308,-6.037,81.583,4.056
14:42:23:871,9.555,0.004,0.002,0.337,-5.685,81.036,4.949
14:42:23:897,9.580,0.010,-0.046,0.179,-5.402,78.922,5.583
14:42:23:954,9.637,0.001,-0.172,0.086,-4.741,75.085,6.698
14:42:23:954,9.637,0.045,-0.228,0.087,-4.334,73.192,7.605
14:42:24:005,9.688,0.015,-0.230,0.004,-3.780,71.767,9.069
14:42:24:006,9.689,-0.087,-0.093,0.025,-3.281,71.482,10.488
14:42:24:028,9.711,-0.138,-0.002,0.063,-2.999,71.673,11.442
14:42:24:056,9.739,-0.166,0.277,0.089,-2.648,71.951,12.665
14:42:24:082,9.765,-0.216,0.289,-0.046,-2.313,71.720,13.327
14:42:24:107,9.790,-0.255,0.220,-0.035,-1.726,71.246,14.401
14:42:24:133,9.816,-0.128,-0.028,-0.135,-1.026,70.952,15.650
14:42:24:159,9.843,-0.074,-0.057,-0.114,-0.821,71.023,16.766
14:42:24:185,9.868,-0.085,-0.101,-0.087,-0.787,71.559,18.744
14:42:24:213,9.896,-0.080,-0.108,-0.088,-0.892,71.906,20.124
14:42:24:241,9.924,-0.069,-0.090,-0.075,-1.156,72.160,22.057
14:42:24:242,9.925,-0.035,-0.100,-0.113,-1.379,71.845,23.681
14:42:24:319,10.003,-0.011,-0.126,-0.134,-1.522,71.255,24.285
14:42:24:32,10.004,0.047,-0.139,-0.139,-1.421,70.093,25.035
14:42:24:347,10.030,0.104,-0.100,-0.156,-1.289,69.179,25.189
14:42:24:347,10.030,0.123,-0.018,-0.174,-1.083,67.879,24.905
14:42:24:37,10.053,0.105,0.102,-0.226,-1.016,67.280,24.368
14:42:24:425,10.108,0.073,0.108,-0.227,-0.993,67.054,23.115
14:42:24:426,10.109,0.086,0.169,-0.229,-1.174,67.959,21.551
14:42:24:448,10.132,0.088,0.279,-0.211,-1.513,69.175,20.324
14:42:24:475,10.158,0.064,0.310,-0.129,-2.038,71.718,18.266
14:42:24:501,10.184,0.084,-0.154,0.054,-2.161,73.749,16.798
14:42:24:527,10.210,0.152,-0.195,0.150,-2.239,77.216,14.691
14:42:24:553,10.236,0.201,0.071,0.167,-2.622,80.919,12.638
14:42:24:579,10.263,0.162,0.075,0.154,-2.633,83.065,11.574
14:42:24:606,10.289,0.037,-0.022,-0.023,-2.177,85.916,10.623
14:42:24:691,10.374,0.010,0.083,0.209,-1.732,88.205,10.428
14:42:24:691,10.374,-0.038,-0.037,0.127,-0.764,91.604,10.521
14:42:24:692,10.375,-0.021,-0.098,0.039,0.039,93.299,10.799
14:42:24:711,10.394,-0.012,-0.127,0.081,1.021,96.479,11.294
14:42:24:737,10.420,-0.026,-0.150,0.108,1.721,99.858,11.867
14:42:24:763,10.447,-0.067,-0.196,0.107,2.110,101.982,12.252
14:42:24:79,10.473,-0.077,-0.238,0.112,2.529,104.844,12.581
14:42:24:816,10.499,-0.057,-0.215,0.137,2.626,106.464,12.583
14:42:24:843,10.526,-0.022,-0.181,0.148,2.443,108.805,12.120
14:42:24:868,10.551,0.018,-0.076,0.126,2.011,109.997,11.101
14:42:24:924,10.607,0.057,-0.038,0.124,1.614,110.426,10.059
14:42:24:924,10.607,0.110,-0.042,0.142,0.882,110.668,8.144
14:42:24:977,10.660,0.169,-0.053,0.165,0.330,110.857,6.736
14:42:24:977,10.660,0.225,0.005,0.181,-0.573,110.852,4.588
14:42:25:,10.683,0.234,0.084,0.173,-1.204,110.852,3.218
14:42:25:055,10.738,0.242,0.082,0.182,-2.066,111.062,1.438
14:42:25:056,10.739,0.246,0.150,0.192,-2.818,111.855,0.098
14:42:25:078,10.761,0.276,0.232,0.211,-3.216,112.643,-0.578
14:42:25:105,10.788,0.286,0.092,0.216,-3.323,114.267,-1.082
14:42:25:13,10.814,0.282,-0.202,0.223,-3.079,115.499,-1.060
14:42:25:158,10.841,0.323,-0.202,0.225,-2.685,117.377,-0.522
14:42:25:183,10.866,0.293,-0.038,0.182,-2.338,118.592,0.522
14:42:25:209,10.892,0.242,0.101,0.180,-2.024,119.108,1.386
14:42:25:236,10.919,0.103,0.167,0.152,-1.314,119.554,3.177
14:42:25:32,11.003,0.044,0.133,0.107,-0.703,119.951,4.682
14:42:25:321,11.004,0.061,0.169,0.130,0.174,119.953,7.164
14:42:25:321,11.005,0.044,0.122,-0.027,1.201,118.834,9.823
14:42:25:341,11.024,0.031,0.090,-0.045,1.938,118.015,11.366
14:42:25:367,11.050,-0.049,-0.098,-0.022,3.014,117.932,13.544
14:42:25:423,11.106,-0.036,-0.143,-0.031,3.461,118.556,15.028
14:42:25:423,11.106,-0.045,-0.135,-0.035,3.825,120.016,17.181
14:42:25:473,11.156,-0.064,-0.173,-0.064,4.130,121.795,19.059
14:42:25:53,11.213,-0.052,-0.075,0.004,4.274,122.411,20.076
14:42:25:531,11.214,-0.098,-0.165,-0.071,4.918,123.114,20.867
14:42:25:532,11.215,-0.119,-0.122,-0.068,5.339,123.442,21.222
14:42:25:551,11.234,-0.122,-0.066,-0.107,5.863,124.245,21.385
14:42:25:577,11.260,-0.139,-0.011,-0.153,6.166,124.837,21.205
14:42:25:603,11.286,-0.145,0.052,-0.137,6.407,126.418,20.586
14:42:25:659,11.342,-0.151,0.064,-0.089,6.398,128.742,19.668
14:42:25:66,11.343,-0.188,0.151,-0.082,6.254,131.104,18.891
14:42:25:682,11.365,-0.201,0.357,-0.013,5.679,134.955,17.440
14:42:25:737,11.420,-0.121,0.302,0.002,5.368,138.117,16.303
14:42:25:738,11.421,0.101,0.079,0.077,5.220,142.636,14.380
14:42:25:788,11.471,0.183,-0.124,0.104,5.499,146.547,12.529
14:42:25:816,11.499,0.149,-0.280,0.088,5.926,147.886,11.270
14:42:25:816,11.500,0.120,-0.038,0.093,6.297,149.092,9.235
14:42:25:839,11.522,0.098,-0.011,0.111,6.495,149.356,7.877
14:42:25:895,11.578,0.068,-0.042,0.109,6.949,149.399,6.097
14:42:25:895,11.578,0.067,-0.026,0.113,7.287,150.032,4.781
14:42:25:918,11.601,0.085,-0.019,0.099,7.455,151.109,4.243
14:42:25:944,11.628,0.153,-0.106,0.104,7.689,153.408,3.841
14:42:25:971,11.654,0.205,-0.162,0.120,7.837,155.109,3.716
14:42:26:024,11.707,0.209,-0.168,0.113,7.963,157.460,3.570
14:42:26:053,11.736,0.215,-0.155,0.082,7.956,159.424,3.318
14:42:26:053,11.736,0.244,-0.133,0.029,7.866,160.461,3.093
14:42:26:076,11.759,0.265,-0.114,-0.041,7.606,161.854,2.702
14:42:26:161,11.844,0.280,-0.093,-0.072,7.362,162.614,2.428
14:42:26:161,11.844,0.296,-0.083,-0.083,7.010,163.502,2.048
14:42:26:162,11.845,0.298,-0.083,-0.066,6.762,163.998,1.844
14:42:26:21,11.893,0.271,-0.097,-0.046,6.690,164.586,2.178
14:42:26:211,11.894,0.244,-0.023,-0.043,6.344,165.057,2.154
14:42:26:263,11.946,0.242,0.054,-0.009,6.098,165.403,2.160
14:42:26:263,11.946,0.245,0.091,0.027,5.838,166.282,2.261
14:42:26:287,11.970,0.237,0.091,0.016,5.772,166.885,2.417
14:42:26:401,12.084,0.208,0.181,-0.097,5.568,167.965,2.722
14:42:26:401,12.084,0.265,0.327,-0.109,5.239,169.723,3.151
14:42:26:402,12.085,0.303,0.245,-0.076,5.181,171.101,3.809
14:42:26:402,12.085,0.231,-0.018,0.033,5.574,172.428,5.149
14:42:26:531,12.214,0.160,-0.098,0.083,5.928,172.622,6.093
14:42:26:532,12.215,0.194,-0.152,0.129,6.444,172.534,7.431
14:42:26:533,12.216,0.097,-0.029,0.120,6.882,171.681,8.869
14:42:26:534,12.217,0.025,-0.007,0.126,7.279,170.787,9.828
14:42:26:554,12.237,-0.035,0.043,0.135,7.925,169.655,11.285
14:42:26:554,12.238,0.001,0.061,0.180,8.285,169.422,12.237
14:42:26:555,12.239,0.033,-0.032,0.177,8.685,169.585,13.617
14:42:26:574,12.257,0.007,-0.102,0.153,8.874,169.802,14.423
14:42:26:63,12.314,0.008,-0.137,0.144,8.980,169.962,15.486
14:42:26:631,12.314,-0.046,-0.146,0.157,8.933,169.820,16.430
14:42:26:683,12.366,0.143,-0.157,0.184,8.779,169.593,17.265
14:42:26:683,12.366,-0.073,-0.152,0.160,8.878,168.112,17.300
14:42:26:706,12.389,-0.080,-0.136,0.171,8.968,166.749,17.285
14:42:26:79,12.473,-0.086,-0.135,0.149,9.073,164.781,17.022
14:42:26:791,12.474,-0.096,-0.102,0.120,9.044,162.745,16.549
14:42:26:792,12.475,-0.090,-0.066,0.073,8.919,161.999,16.141
14:42:26:811,12.494,-0.088,0.006,0.082,8.588,161.651,15.496
14:42:26:866,12.550,-0.091,0.092,0.102,8.306,161.905,15.021
14:42:26:867,12.551,-0.127,0.179,0.149,7.871,162.986,14.168
14:42:26:89,12.573,-0.130,0.219,0.190,7.591,164.091,13.467
14:42:26:917,12.600,-0.142,0.247,0.205,7.195,166.107,12.322
14:42:26:942,12.625,-0.101,0.246,0.165,6.805,168.431,10.983
14:42:26:997,12.681,0.001,0.119,0.092,6.575,169.897,9.966
14:42:26:998,12.681,0.041,-0.002,0.041,6.348,171.666,8.218
14:42:27:021,12.704,0.060,-0.237,-0.027,6.273,172.551,6.966
14:42:27:105,12.788,0.053,-0.173,-0.046,6.038,173.478,5.111
14:42:27:106,12.789,0.029,-0.052,0.002,5.736,174.037,3.414
14:42:27:107,12.790,-0.026,-0.007,0.057,5.624,174.493,2.501
14:42:27:126,12.809,-0.009,0.057,0.114,5.548,175.802,1.512
14:42:27:152,12.835,0.040,0.056,0.100,5.610,177.147,1.107
14:42:27:178,12.862,0.127,-0.073,0.062,5.901,179.525,0.753
14:42:27:234,12.917,0.207,-0.157,0.046,6.114,-178.898,0.585
14:42:27:234,12.918,0.237,-0.169,0.038,6.337,-176.808,0.345
14:42:27:257,12.940,0.226,-0.100,0.025,6.386,-175.283,0.066
14:42:27:285,12.968,0.243,-0.109,0.006,6.348,-174.338,-0.077
14:42:27:31,12.994,0.261,-0.126,-0.018,6.196,-172.955,-0.210
14:42:27:365,13.048,0.305,-0.109,-0.037,5.995,-172.133,-0.284
14:42:27:365,13.049,0.312,-0.093,-0.069,5.579,-171.369,-0.444
14:42:27:388,13.071,0.314,-0.088,-0.106,5.070,-170.982,-0.668
14:42:27:415,13.098,0.320,-0.081,-0.138,4.697,-171.095,-0.840
14:42:27:441,13.124,0.314,-0.055,-0.181,4.082,-171.350,-1.074
14:42:27:468,13.151,0.310,0.003,-0.213,3.651,-171.785,-1.148
14:42:27:493,13.177,0.308,0.062,-0.218,2.988,-172.701,-1.090
14:42:27:519,13.202,0.273,0.125,-0.130,2.471,-174.586,-0.715
14:42:27:546,13.229,0.218,0.154,-0.100,2.262,-175.764,-0.305
14:42:27:601,13.284,0.183,0.274,-0.074,2.138,-177.315,0.525
14:42:27:602,13.285,0.152,0.247,-0.074,2.339,-177.811,1.274
14:42:27:625,13.309,0.139,0.013,-0.050,3.080,-178.225,2.643
14:42:27:651,13.334,0.110,-0.127,-0.022,3.983,-178.174,4.183
14:42:27:677,13.360,0.148,-0.181,-0.018,4.528,-177.909,5.344
14:42:27:703,13.386,0.136,-0.028,0.018,5.194,-177.800,7.177
14:42:27:731,13.414,0.053,-0.013,0.073,5.642,-177.775,8.361
14:42:27:756,13.439,0.089,0.062,0.125,6.301,-177.961,10.055
14:42:27:783,13.466,0.088,0.158,0.212,6.718,-177.780,11.098
14:42:27:838,13.521,0.062,0.119,0.238,7.355,-177.623,12.578
14:42:27:838,13.521,0.053,-0.032,0.231,8.047,-177.362,14.163
14:42:27:861,13.544,0.035,-0.111,0.205,8.494,-177.559,15.261
14:42:27:888,13.571,-0.083,-0.242,0.166,9.042,-178.185,16.999
14:42:27:974,13.657,0.060,-0.075,0.221,9.437,-178.944,18.152
14:42:27:974,13.657,-0.091,-0.133,0.239,10.350,178.895,19.388
14:42:27:974,13.657,-0.125,-0.120,0.229,11.226,176.183,20.318
14:42:27:993,13.677,-0.114,-0.134,0.225,11.720,174.636,20.797
14:42:28:019,13.702,-0.149,-0.184,0.207,12.373,172.412,21.268
14:42:28:074,13.757,-0.155,-0.179,0.193,12.700,171.304,21.394
14:42:28:075,13.758,-0.160,-0.140,0.187,12.906,170.212,21.393
14:42:28:126,13.809,-0.170,-0.068,0.184,12.855,169.871,21.170
14:42:28:127,13.810,-0.192,0.013,0.185,12.706,169.917,20.863
14:42:28:15,13.833,-0.210,0.132,0.201,12.263,170.596,20.171
14:42:28:205,13.888,-0.192,0.126,0.242,11.918,171.369,19.633
14:42:28:206,13.889,-0.187,0.138,0.206,11.424,173.052,18.773
14:42:28:228,13.911,-0.173,0.259,0.216,10.939,174.550,18.127
14:42:28:255,13.938,-0.131,0.221,0.194,10.178,177.285,17.045
14:42:28:281,13.964,-0.037,-0.011,0.088,9.506,-179.363,15.925
14:42:28:336,14.019,0.050,-0.056,0.026,8.994,-176.782,15.153
14:42:28:337,14.020,0.128,-0.146,-0.046,8.340,-173.113,13.923
14:42:28:361,14.044,0.122,-0.092,-0.097,7.980,-171.257,13.019
14:42:28:387,14.070,0.155,-0.031,-0.117,7.582,-169.382,11.460
14:42:28:439,14.122,0.145,0.063,-0.050,7.389,-168.658,9.786
14:42:28:468,14.151,0.138,0.109,0.032,7.374,-168.531,8.693
14:42:28:468,14.151,0.132,0.023,0.035,7.519,-168.691,7.263
14:42:28:491,14.174,0.154,-0.106,0.031,7.716,-168.613,6.516
14:42:28:517,14.200,0.192,-0.175,0.021,7.984,-168.440,5.589
14:42:28:602,14.285,0.263,-0.175,0.002,8.034,-167.832,4.773
14:42:28:603,14.286,0.279,-0.165,-0.019,7.958,-167.726,4.204
14:42:28:603,14.287,0.290,-0.139,-0.033,7.728,-167.884,3.165
14:42:28:622,14.305,0.285,-0.148,-0.040,7.451,-168.411,2.924
14:42:28:648,14.331,0.257,-0.116,-0.049,6.897,-169.238,3.258
14:42:28:675,14.358,0.297,-0.057,-0.087,6.241,-170.452,1.933
14:42:28:701,14.384,0.313,-0.041,-0.092,5.765,-171.229,1.129
14:42:28:727,14.410,0.315,-0.051,-0.097,5.051,-172.426,0.191
14:42:28:753,14.436,0.286,-0.009,-0.113,4.685,-173.139,0.403
14:42:28:81,14.493,0.239,0.068,-0.082,4.135,-174.336,0.870
14:42:28:81,14.493,0.239,0.153,-0.037,3.771,-175.101,1.173
14:42:28:835,14.518,0.220,0.228,-0.039,3.391,-175.854,2.140
14:42:28:836,14.519,0.187,0.309,-0.070,3.220,-176.313,3.659
14:42:28:917,14.600,0.141,0.301,-0.086,3.339,-176.718,5.151
14:42:28:917,14.601,-0.072,0.248,-0.073,4.004,-178.816,7.659
14:42:28:918,14.602,-0.150,-0.071,-0.006,4.840,179.112,8.949
14:42:28:937,14.620,-0.099,-0.098,0.018,6.209,176.705,10.047
14:42:28:963,14.646,-0.062,-0.038,0.082,7.353,176.165,11.288
14:42:28:989,14.673,-0.041,-0.004,0.095,7.900,177.444,12.522
14:42:29:017,14.700,-0.066,-0.025,0.172,8.480,-179.341,14.965
14:42:29:068,14.751,-0.067,-0.019,0.220,8.712,-177.053,16.777
14:42:29:183,14.866,0.019,0.021,0.315,8.967,-174.071,19.355
14:42:29:184,14.867,0.067,-0.070,0.313,9.216,-172.759,20.849
14:42:29:184,14.867,-0.001,-0.152,0.298,9.752,-172.072,22.604
14:42:29:185,14.868,-0.052,-0.158,0.275,10.529,-172.937,23.719
14:42:29:204,14.887,-0.095,-0.191,0.252,11.178,-174.163,24.220
14:42:29:204,14.887,-0.116,-0.199,0.259,12.182,-176.310,24.651
14:42:29:255,14.938,-0.133,-0.202,0.294,12.763,-177.738,24.763
14:42:29:256,14.939,-0.127,-0.213,0.275,12.095,-179.647,24.331
14:42:29:28,14.963,-0.126,-0.220,0.265,10.523,178.912,23.613
14:42:29:304,14.987,-0.144,-0.177,0.248,9.346,178.253,23.072
14:42:29:331,15.014,-0.148,-0.053,0.233,9.074,177.862,22.921
14:42:29:357,15.040,-0.156,-0.002,0.217,8.762,177.771,22.673
14:42:29:383,15.066,-0.154,0.044,0.193,8.139,177.940,22.055
14:42:29:409,15.093,-0.147,0.158,0.175,7.595,178.073,21.509
14:42:29:436,15.119,-0.149,0.221,0.183,6.666,178.527,20.446
14:42:29:462,15.145,-0.130,0.238,0.166,5.780,178.925,19.100
14:42:29:488,15.171,-0.080,0.207,0.113,5.192,179.205,18.053
14:42:29:515,15.198,-0.040,0.134,0.075,4.272,179.654,16.301
14:42:29:541,15.224,0.009,0.064,0.000,3.650,-179.911,15.094
14:42:29:568,15.251,0.092,0.039,-0.091,2.614,-179.075,13.231
14:42:29:593,15.277,0.093,-0.107,-0.225,1.749,-178.471,11.466
14:42:29:62,15.303,0.070,-0.103,-0.248,1.229,-178.207,10.418
14:42:29:675,15.358,0.033,-0.052,-0.262,0.592,-178.008,8.916
14:42:29:676,15.359,0.062,0.015,-0.173,0.388,-178.102,7.934
14:42:29:698,15.381,0.079,0.038,-0.131,0.404,-178.339,6.584
14:42:29:724,15.408,0.060,-0.013,-0.042,0.799,-177.999,5.288
14:42:29:78,15.463,0.093,-0.030,-0.022,1.231,-177.249,4.486
14:42:29:78,15.464,0.140,-0.042,0.021,2.076,-175.357,3.540
14:42:29:803,15.486,0.180,-0.111,0.044,2.759,-173.620,3.130
14:42:29:83,15.513,0.230,-0.136,0.032,3.727,-170.470,2.874
14:42:29:856,15.539,0.262,-0.067,-0.007,4.440,-167.037,2.887
14:42:29:911,15.594,0.283,-0.094,-0.009,4.811,-164.776,2.987
14:42:29:912,15.595,0.331,-0.134,-0.047,5.148,-161.819,3.095
14:42:29:965,15.649,0.342,-0.122,-0.054,5.177,-160.463,3.014
14:42:29:966,15.649,0.329,-0.153,-0.066,4.942,-159.577,2.571
14:42:30:043,15.726,0.314,-0.161,-0.088,4.650,-159.790,2.108
14:42:30:043,15.727,0.325,-0.113,-0.117,3.984,-160.781,1.346
14:42:30:149,15.832,0.319,-0.019,-0.124,3.106,-162.434,0.620
14:42:30:149,15.833,0.302,0.028,-0.134,2.428,-163.751,0.237
14:42:30:179,15.862,0.303,0.086,-0.147,1.362,-165.756,-0.069
14:42:30:18,15.863,0.303,0.207,-0.171,0.616,-167.121,-0.056
14:42:30:181,15.864,0.282,0.377,-0.201,-0.432,-169.243,0.210
14:42:30:182,15.865,0.225,0.179,-0.173,-0.884,-171.537,0.993
14:42:30:256,15.939,0.186,0.053,-0.138,-0.827,-172.987,1.809
14:42:30:256,15.939,0.149,-0.071,-0.108,-0.491,-174.982,3.390
14:42:30:257,15.940,0.095,-0.078,-0.124,-0.134,-176.163,4.648
14:42:30:276,15.959,0.048,0.034,-0.047,0.574,-178.455,6.367
14:42:30:302,15.985,0.010,0.062,0.062,1.687,178.692,7.632
14:42:30:328,16.011,0.041,0.084,0.137,2.538,177.518,8.532
14:42:30:384,16.067,0.003,0.058,0.156,3.689,177.155,9.895
14:42:30:385,16.068,0.019,-0.020,0.192,4.263,177.921,11.039
14:42:30:407,16.090,-0.024,-0.100,0.179,4.889,179.805,12.916
14:42:30:433,16.116,0.101,-0.139,0.204,5.223,-179.051,14.520
14:42:30:459,16.143,0.035,-0.159,0.200,5.840,-178.583,16.411
14:42:30:515,16.198,-0.006,-0.183,0.219,6.617,-179.632,18.042
14:42:30:516,16.199,-0.020,-0.177,0.223,7.157,179.137,18.908
14:42:30:538,16.222,-0.080,-0.153,0.229,8.025,176.969,19.866
14:42:30:594,16.278,-0.106,-0.139,0.229,8.579,175.640,20.379
14:42:30:595,16.278,-0.160,-0.110,0.245,9.303,174.010,20.878
14:42:30:617,16.300,-0.149,-0.111,0.226,9.770,172.616,21.220
14:42:30:671,16.354,-0.168,-0.013,0.184,9.989,172.303,21.586
14:42:30:696,16.379,-0.238,0.105,0.181,9.959,172.430,21.576
14:42:30:859,16.542,-0.315,0.101,0.171,9.828,172.747,21.287
14:42:30:86,16.543,-0.269,0.008,0.160,9.555,173.467,20.667
14:42:30:861,16.544,-0.243,0.159,0.219,9.125,174.289,20.105
14:42:30:889,16.572,-0.348,0.214,0.258,8.394,175.459,18.829
14:42:30:889,16.572,-0.365,-0.031,0.183,7.867,176.276,17.613
14:42:30:89,16.573,-0.158,-0.016,0.089,6.971,177.447,15.080
14:42:30:891,16.574,-0.139,0.090,0.015,6.269,177.721,12.955
14:42:30:906,16.589,-0.046,0.003,-0.106,5.263,177.235,9.291
14:42:30:932,16.615,0.022,0.009,-0.200,4.238,175.235,5.287
14:42:30:989,16.672,-0.008,0.031,-0.221,3.490,173.472,2.888
14:42:30:989,16.672,-0.108,0.054,-0.158,2.310,171.730,-0.122
14:42:31:011,16.694,-0.055,0.132,-0.072,1.641,171.832,-1.711
14:42:31:04,16.723,0.090,0.076,-0.006,1.303,174.135,-3.395
14:42:31:041,16.724,0.226,-0.136,0.031,1.739,177.453,-4.403
14:42:31:091,16.774,0.334,-0.191,0.030,2.199,179.828,-4.754
14:42:31:177,16.860,0.460,-0.208,0.010,2.847,-177.320,-4.839
14:42:31:178,16.861,0.387,-0.156,-0.024,3.121,-176.111,-4.661
14:42:31:178,16.861,0.332,-0.116,-0.064,3.271,-175.115,-4.321
14:42:31:179,16.862,0.331,-0.147,-0.081,3.290,-174.600,-4.080
14:42:31:195,16.878,0.376,-0.177,-0.106,3.158,-173.799,-3.824
14:42:31:248,16.931,0.393,-0.143,-0.087,2.857,-172.987,-3.775
14:42:31:277,16.960,0.390,-0.136,-0.096,2.589,-172.320,-3.801
14:42:31:277,16.961,0.385,-0.129,-0.097,2.159,-171.267,-3.806
14:42:31:388,17.072,0.369,-0.128,-0.073,1.907,-170.546,-2.959
14:42:31:388,17.072,0.400,-0.082,-0.092,1.236,-169.679,-2.431
14:42:31:388,17.072,0.424,0.151,-0.194,0.232,-169.803,-1.412
14:42:31:389,17.073,0.373,0.321,-0.251,-0.579,-171.024,-0.311
14:42:31:405,17.088,0.277,0.451,-0.359,-1.743,-174.939,1.909
14:42:31:431,17.114,-0.366,0.701,-0.267,-2.148,-179.078,4.386
14:42:31:486,17.169,-0.402,-0.038,-0.123,-0.500,172.092,7.103
14:42:31:487,17.170,-0.304,-0.153,-0.001,1.386,162.883,7.273
14:42:31:568,17.251,-0.200,-0.055,-0.074,2.283,157.577,6.810
14:42:31:569,17.252,-0.323,-0.271,-0.292,3.749,151.952,5.498
14:42:31:569,17.252,-0.304,-0.245,-0.319,4.500,151.554,4.908
14:42:31:616,17.299,-0.244,0.007,-0.152,5.361,156.594,5.130
14:42:31:644,17.327,-0.028,0.105,0.184,6.039,162.669,6.028
14:42:31:644,17.328,0.048,0.129,0.322,6.960,172.633,8.272
14:42:31:755,17.438,0.208,0.117,0.390,7.649,-177.551,11.473
14:42:31:755,17.438,0.253,0.034,0.357,7.919,-171.836,13.871
14:42:31:756,17.439,0.198,0.011,0.229,8.041,-165.591,17.566
14:42:31:757,17.440,0.094,-0.029,0.180,8.123,-163.253,20.014
14:42:31:83,17.514,-0.064,-0.106,0.171,8.697,-162.365,23.437
14:42:31:831,17.514,-0.107,-0.124,0.161,9.471,-163.129,26.452
14:42:31:832,17.515,-0.122,-0.140,0.156,10.194,-164.079,28.224
14:42:31:851,17.534,-0.204,-0.196,0.136,11.581,-166.181,30.317
14:42:31:879,17.562,-0.240,-0.256,0.117,12.600,-167.655,31.341
14:42:31:904,17.587,-0.244,-0.285,0.101,13.981,-169.685,32.227
14:42:31:93,17.613,-0.258,-0.324,0.094,14.688,-170.981,32.352
14:42:31:956,17.639,-0.279,-0.288,0.073,14.517,-171.233,32.021
14:42:31:985,17.668,-0.265,-0.117,0.138,13.207,-170.473,30.842
14:42:32:008,17.692,-0.227,-0.036,0.177,12.009,-169.437,29.594
14:42:32:093,17.776,-0.235,0.103,0.187,10.110,-167.700,26.738
14:42:32:094,17.777,-0.210,0.402,0.069,8.723,-166.391,24.233
14:42:32:095,17.778,-0.166,0.556,0.053,6.867,-164.249,19.659
14:42:32:114,17.797,-0.032,0.465,0.005,5.688,-162.535,14.644
14:42:32:14,17.823,0.049,0.352,-0.051,5.260,-161.139,11.431
14:42:32:166,17.849,0.178,0.013,-0.131,5.143,-158.521,7.371
14:42:32:221,17.904,0.206,-0.209,-0.098,5.305,-156.727,5.478
14:42:32:222,17.905,0.181,-0.089,-0.056,5.597,-154.044,3.726
14:42:32:245,17.928,0.184,0.029,0.010,5.945,-151.838,3.207
14:42:32:329,18.012,0.166,0.060,0.024,6.318,-149.861,3.660
14:42:32:33,18.013,0.141,0.050,0.032,7.007,-146.923,5.397
14:42:32:331,18.014,0.108,0.023,0.026,7.491,-144.484,7.049
14:42:32:349,18.032,0.118,-0.098,-0.002,8.142,-140.355,9.942
14:42:32:376,18.059,0.132,-0.244,-0.020,8.485,-137.354,11.903
14:42:32:403,18.086,0.147,-0.287,-0.017,8.765,-132.869,14.620
14:42:32:429,18.112,0.126,-0.312,-0.034,8.647,-128.517,16.732
14:42:32:454,18.138,0.055,-0.248,-0.069,8.409,-126.166,17.608
14:42:32:481,18.164,0.022,-0.216,-0.058,8.014,-123.197,18.009
14:42:32:536,18.219,-0.051,-0.135,-0.119,7.654,-121.963,17.688
14:42:32:537,18.220,-0.122,-0.063,-0.216,6.923,-120.399,16.424
14:42:32:618,18.301,-0.168,-0.017,-0.236,6.250,-120.489,14.421
14:42:32:619,18.302,-0.149,-0.036,-0.206,5.887,-120.847,12.914
14:42:32:62,18.303,-0.045,0.074,-0.081,5.302,-122.325,10.664
14:42:32:638,18.321,0.028,0.215,-0.010,4.766,-123.140,9.215
14:42:32:665,18.348,0.067,0.182,-0.038,4.000,-123.356,7.218
14:42:32:69,18.374,0.099,0.237,-0.109,3.433,-122.183,5.686
14:42:32:746,18.429,0.056,0.249,-0.180,3.112,-120.884,4.959
14:42:32:747,18.430,0.028,0.212,-0.247,2.803,-117.712,4.331
14:42:32:771,18.455,0.019,0.040,-0.306,2.745,-115.527,4.297
14:42:32:825,18.508,0.034,-0.074,-0.335,2.682,-111.923,4.753
14:42:32:826,18.509,0.052,-0.136,-0.327,2.582,-110.012,5.284
14:42:32:963,18.646,0.094,-0.198,-0.295,2.477,-107.712,6.326
14:42:32:963,18.646,0.122,-0.081,-0.259,2.413,-107.203,7.666
14:42:32:964,18.647,0.122,0.026,-0.191,2.402,-107.846,8.670
14:42:33:12,18.803,0.107,0.231,0.068,2.862,-111.306,11.511
14:42:33:121,18.804,0.085,0.167,0.091,3.493,-112.748,13.550
14:42:33:147,18.830,-0.019,-0.127,0.075,4.404,-112.851,20.278
14:42:33:147,18.830,-0.018,-0.155,0.098,4.639,-112.760,22.062
14:42:33:147,18.830,0.042,-0.088,0.113,5.014,-113.356,24.509
14:42:33:148,18.831,-0.014,-0.204,0.213,6.015,-114.528,26.405
14:42:33:225,18.908,0.009,-0.189,0.199,6.630,-115.351,27.466
14:42:33:225,18.908,-0.055,-0.243,0.235,7.481,-116.187,28.562
14:42:33:226,18.909,-0.058,-0.218,0.209,7.827,-116.559,28.940
14:42:33:227,18.910,-0.059,-0.201,0.222,7.950,-116.282,28.961
14:42:33:384,19.067,-0.051,-0.094,0.251,7.790,-115.939,28.550
14:42:33:384,19.067,-0.008,0.034,0.273,7.088,-114.501,27.241
14:42:33:384,19.067,0.031,0.105,0.258,6.215,-112.907,25.100
14:42:33:385,19.068,0.024,0.182,0.233,5.570,-111.486,23.340
14:42:33:405,19.088,0.033,0.317,0.190,4.605,-109.340,20.316
14:42:33:406,19.089,0.060,0.415,0.116,4.012,-107.382,18.106
14:42:33:407,19.090,0.043,0.352,-0.032,3.290,-104.813,14.680
14:42:33:426,19.109,-0.012,0.014,-0.164,3.118,-102.467,11.481
14:42:33:452,19.136,-0.026,-0.116,-0.220,3.197,-101.085,9.732
14:42:33:478,19.161,-0.033,-0.276,-0.191,3.436,-99.335,7.815
14:42:33:506,19.190,-0.006,-0.138,-0.180,3.541,-98.185,6.944
14:42:33:56,19.243,0.055,-0.031,-0.163,3.741,-96.399,6.355
14:42:33:56,19.244,0.103,0.057,-0.166,3.936,-95.154,6.464
14:42:33:583,19.266,0.111,0.130,-0.113,4.265,-93.173,7.271
14:42:33:61,19.293,0.059,0.039,-0.073,4.615,-90.842,8.721
14:42:33:636,19.319,0.036,-0.092,-0.077,4.817,-89.084,9.912
14:42:33:662,19.345,0.010,-0.170,-0.109,4.963,-85.518,11.733
14:42:33:689,19.372,-0.002,-0.222,-0.140,4.934,-83.750,12.814
14:42:33:795,19.478,-0.015,-0.215,-0.143,4.760,-80.921,14.052
14:42:33:83,19.513,-0.016,-0.207,-0.114,4.525,-79.670,14.629
14:42:33:831,19.514,-0.070,-0.178,-0.034,4.291,-78.918,14.871
14:42:33:831,19.514,-0.146,-0.115,-0.024,3.692,-78.566,14.348
14:42:33:831,19.514,-0.240,-0.062,-0.055,3.246,-77.711,13.646
14:42:33:846,19.529,-0.247,-0.038,-0.052,2.554,-77.132,12.143
14:42:33:872,19.555,-0.237,-0.026,-0.138,1.948,-75.644,10.708
14:42:33:899,19.582,-0.156,0.090,-0.179,1.600,-75.379,9.812
14:42:33:926,19.609,-0.056,0.204,-0.229,1.208,-75.182,8.295
14:42:33:951,19.634,-0.082,0.333,-0.219,1.004,-75.827,7.230
14:42:33:977,19.660,-0.132,0.379,-0.198,0.656,-76.822,5.754
14:42:34:003,19.687,-0.190,0.198,-0.125,0.562,-77.691,5.047
14:42:34:03,19.713,-0.195,0.122,-0.168,0.549,-77.985,4.634
14:42:34:114,19.797,-0.185,0.001,-0.230,0.679,-77.659,5.120
14:42:34:115,19.798,-0.119,-0.022,-0.244,0.813,-77.279,5.875
14:42:34:115,19.799,-0.015,-0.101,-0.205,1.188,-77.918,7.509
14:42:34:134,19.818,0.041,-0.144,-0.177,1.585,-78.424,8.731
14:42:34:161,19.844,0.055,-0.062,-0.167,2.265,-79.948,10.484
14:42:34:188,19.871,0.084,0.005,-0.064,3.100,-81.947,12.179
14:42:34:213,19.896,0.086,0.073,-0.014,3.740,-83.479,13.209
14:42:34:269,19.952,0.119,0.140,0.016,4.693,-85.461,14.532
14:42:34:269,19.952,0.127,0.033,-0.006,5.381,-86.462,15.358
14:42:34:322,20.005,0.150,-0.061,0.018,6.378,-87.633,16.545
14:42:34:323,20.006,0.141,-0.182,0.089,7.177,-88.440,17.830
14:42:34:345,20.028,0.187,-0.100,0.002,7.511,-88.835,18.876
14:42:34:401,20.084,0.175,-0.175,0.077,8.284,-89.755,20.087
14:42:34:401,20.084,0.211,-0.150,0.088,8.783,-90.488,20.924
14:42:34:424,20.107,0.190,-0.143,0.106,8.558,-91.593,21.649
14:42:34:451,20.134,0.170,-0.139,0.125,8.090,-92.195,21.924
14:42:34:476,20.159,0.153,-0.122,0.154,7.820,-93.028,22.269
14:42:34:556,20.240,0.136,-0.088,0.170,8.111,-93.365,22.849
14:42:34:643,20.326,0.120,-0.015,0.184,8.122,-93.223,23.095
14:42:34:643,20.326,0.126,0.114,0.220,7.981,-92.888,23.120
14:42:34:644,20.327,0.134,0.149,0.230,7.869,-92.487,22.918
14:42:34:645,20.328,0.152,0.132,0.226,7.605,-91.474,22.429
14:42:34:663,20.346,0.108,0.202,0.228,7.104,-89.835,21.829
14:42:34:663,20.346,0.070,0.245,0.229,6.684,-88.489,21.315
14:42:34:686,20.369,0.018,0.195,0.166,6.087,-86.168,20.354
14:42:34:713,20.396,-0.079,-0.043,0.031,5.772,-84.473,19.549
14:42:34:906,20.589,-0.151,-0.258,-0.024,5.573,-81.857,18.253
14:42:34:906,20.589,-0.224,-0.137,-0.021,5.267,-79.513,17.014
14:42:34:907,20.590,-0.239,-0.029,-0.003,5.029,-78.369,16.090
14:42:34:908,20.591,-0.133,0.099,0.052,4.966,-77.484,14.709
14:42:34:93,20.614,0.013,0.058,0.053,5.127,-77.062,13.856
14:42:34:931,20.615,0.034,0.000,0.030,5.605,-75.787,12.917
14:42:34:932,20.616,0.028,-0.138,-0.001,6.019,-74.411,12.526
14:42:34:933,20.616,0.040,-0.202,-0.047,6.677,-71.677,12.272
14:42:34:948,20.631,0.048,-0.215,-0.117,7.132,-68.123,12.255
14:42:35:004,20.687,0.017,-0.190,-0.163,7.322,-65.701,12.195
14:42:35:004,20.687,-0.013,-0.159,-0.213,7.484,-61.979,11.816
14:42:35:027,20.710,-0.033,-0.145,-0.211,7.512,-60.157,11.306
14:42:35:053,20.737,-0.049,-0.113,-0.207,7.453,-58.065,10.158
14:42:35:08,20.763,-0.069,-0.065,-0.204,7.225,-56.742,8.544
14:42:35:107,20.790,-0.087,-0.070,-0.221,7.005,-56.274,7.265
14:42:35:132,20.815,-0.133,-0.066,-0.232,6.481,-55.872,5.768
14:42:35:159,20.842,-0.138,-0.026,-0.248,6.021,-55.748,4.974
14:42:35:184,20.868,-0.159,0.033,-0.258,5.214,-55.802,3.235
14:42:35:212,20.895,-0.184,0.103,-0.270,4.567,-55.871,2.255
14:42:35:237,20.920,-0.195,0.111,-0.256,3.571,-56.117,1.209
14:42:35:263,20.946,-0.209,0.191,-0.247,2.561,-56.301,0.733
14:42:35:29,20.973,-0.236,0.216,-0.233,1.904,-56.541,0.657
14:42:35:316,20.999,-0.279,0.214,-0.227,1.056,-56.729,0.831
14:42:35:374,21.058,-0.288,0.063,-0.208,0.683,-57.157,1.141
14:42:35:375,21.058,-0.275,-0.070,-0.161,0.293,-57.352,1.991
14:42:35:376,21.059,-0.311,-0.108,-0.120,-0.070,-57.778,3.283
14:42:35:424,21.107,-0.292,-0.072,-0.123,-0.227,-58.530,4.445
14:42:35:424,21.108,-0.204,0.039,-0.067,-0.277,-60.817,6.621
14:42:35:474,21.157,-0.085,0.194,-0.034,-0.112,-62.902,8.220
14:42:35:502,21.185,0.018,0.188,0.006,0.692,-66.447,10.445
14:42:35:503,21.186,0.067,0.103,0.126,1.917,-69.504,12.382
14:42:35:555,21.239,0.061,0.108,0.102,2.665,-70.244,13.564
14:42:35:556,21.239,0.087,-0.026,0.109,3.589,-69.399,15.750
14:42:35:608,21.291,0.040,-0.064,0.031,3.897,-67.693,17.467
14:42:35:608,21.292,0.050,-0.102,0.045,4.062,-64.897,20.300
14:42:35:631,21.314,0.094,-0.148,0.011,4.175,-63.606,22.084
14:42:35:657,21.340,0.137,0.035,-0.006,4.317,-62.185,24.580
14:42:35:683,21.367,0.161,-0.168,0.064,5.148,-62.613,26.654
14:42:35:71,21.393,0.171,-0.162,0.109,5.792,-63.207,27.724
14:42:35:738,21.421,0.182,-0.208,0.190,6.876,-64.956,28.945
14:42:35:762,21.445,0.174,-0.183,0.183,7.556,-65.733,29.380
14:42:35:789,21.472,0.174,-0.173,0.220,8.257,-66.942,29.509
14:42:35:844,21.527,0.165,-0.046,0.230,8.316,-67.078,29.218
14:42:35:845,21.528,0.180,0.010,0.238,8.001,-67.286,28.107
14:42:35:897,21.580,0.188,0.080,0.178,7.408,-66.772,26.288
14:42:35:897,21.580,0.222,0.179,0.175,6.965,-66.015,24.709
14:42:35:947,21.630,0.208,0.271,0.150,6.157,-64.830,21.823
14:42:35:975,21.658,0.143,0.328,0.072,5.434,-63.152,18.529
14:42:35:975,21.659,0.040,0.208,0.017,5.137,-61.978,16.191
14:42:35:998,21.681,-0.052,-0.055,-0.059,4.967,-60.106,12.778
14:42:36:054,21.737,-0.087,-0.126,-0.068,4.919,-58.857,10.761
14:42:36:055,21.738,-0.140,-0.037,-0.092,4.798,-56.712,8.248
14:42:36:078,21.761,-0.155,0.013,-0.093,4.738,-55.487,6.927
14:42:36:103,21.787,-0.138,0.024,-0.118,4.820,-53.471,5.571
14:42:36:13,21.813,-0.081,0.016,-0.122,5.063,-51.357,5.070
14:42:36:156,21.839,-0.067,0.011,-0.122,5.312,-49.854,5.196
14:42:36:183,21.866,-0.087,-0.079,-0.122,5.817,-47.494,5.861
14:42:36:237,21.921,-0.079,-0.183,-0.149,6.205,-45.822,6.463
14:42:36:238,21.922,-0.074,-0.200,-0.171,6.726,-43.265,7.426
14:42:36:261,21.944,-0.079,-0.194,-0.167,7.081,-40.735,8.261
14:42:36:287,21.970,-0.102,-0.185,-0.155,7.213,-39.211,8.626
14:42:36:315,21.998,-0.134,-0.146,-0.134,7.116,-37.236,9.131
14:42:36:341,22.024,-0.157,-0.133,-0.112,7.019,-36.322,8.904
14:42:36:366,22.049,-0.158,-0.133,-0.074,6.727,-35.486,8.169
14:42:36:392,22.075,-0.180,-0.114,-0.068,6.427,-35.372,7.488
14:42:36:418,22.102,-0.198,-0.097,-0.058,5.831,-35.263,6.322
14:42:36:446,22.129,-0.213,-0.063,-0.065,5.097,-35.676,5.148
14:42:36:501,22.184,-0.226,0.029,-0.062,4.525,-35.716,4.418
14:42:36:501,22.184,-0.201,0.090,-0.091,3.663,-35.768,3.511
14:42:36:523,22.206,-0.158,0.127,-0.126,3.138,-35.509,3.151
14:42:36:55,22.233,-0.180,0.307,-0.124,2.320,-34.987,2.937
14:42:36:576,22.259,-0.234,0.324,-0.066,1.684,-34.300,3.206
14:42:36:603,22.286,-0.234,0.199,-0.042,1.471,-33.659,3.635
14:42:36:629,22.312,-0.269,-0.055,-0.003,1.339,-32.623,4.634
14:42:36:655,22.338,-0.290,-0.108,0.025,1.250,-31.989,5.465
14:42:36:71,22.393,-0.255,-0.026,0.015,1.040,-31.673,6.845
14:42:36:711,22.394,-0.163,0.046,-0.037,0.981,-32.510,8.365
14:42:36:733,22.417,-0.058,0.095,-0.029,1.141,-33.707,9.468
14:42:36:76,22.443,0.007,0.144,-0.022,1.667,-36.006,11.126
14:42:36:786,22.469,0.066,0.126,0.018,2.183,-37.676,12.200
14:42:36:841,22.524,0.095,0.004,0.063,3.142,-39.585,13.777
14:42:36:842,22.525,0.073,-0.040,0.049,3.700,-40.139,14.863
14:42:36:866,22.549,0.062,-0.108,0.011,4.254,-39.636,16.723
14:42:36:891,22.574,0.043,-0.153,-0.030,4.667,-38.468,18.747
14:42:36:947,22.630,0.084,-0.178,-0.011,4.939,-38.028,20.046
14:42:36:947,22.630,0.102,-0.059,-0.066,5.397,-37.400,21.526
14:42:36:969,22.653,0.181,-0.162,-0.023,5.952,-37.689,22.287
14:42:36:997,22.680,0.191,-0.181,-0.022,6.785,-38.214,23.184
14:42:37:023,22.706,0.193,-0.169,0.005,7.383,-38.536,23.690
14:42:37:048,22.732,0.205,-0.127,0.016,7.635,-38.559,23.774
14:42:37:075,22.758,0.195,-0.063,0.002,7.765,-38.247,23.504
14:42:37:101,22.784,0.204,0.035,-0.022,7.712,-37.758,22.968
14:42:37:127,22.810,0.233,0.093,-0.020,7.540,-37.176,21.644
14:42:37:183,22.866,0.252,0.096,-0.058,7.278,-35.976,19.961
14:42:37:183,22.866,0.262,0.125,-0.074,6.980,-35.118,18.740
14:42:37:206,22.889,0.270,0.306,-0.076,6.276,-33.201,16.629
14:42:37:232,22.915,0.158,0.269,-0.094,5.804,-31.905,15.077
14:42:37:258,22.941,0.002,0.072,-0.104,5.150,-29.691,12.575
14:42:37:316,22.999,-0.131,-0.061,-0.072,4.772,-28.505,10.955
14:42:37:316,22.999,-0.176,-0.198,0.003,4.233,-26.936,8.790
14:42:37:366,23.049,-0.233,-0.094,0.030,3.560,-26.361,6.868
14:42:37:367,23.050,-0.182,-0.042,0.019,3.147,-26.396,5.937
14:42:37:391,23.074,-0.094,0.021,0.010,2.616,-26.354,5.195
14:42:37:416,23.100,-0.065,0.006,0.050,2.299,-25.888,5.093
14:42:37:442,23.125,-0.084,-0.029,0.096,1.972,-23.890,5.398
14:42:37:468,23.152,-0.046,-0.053,0.260,1.760,-19.932,6.234
14:42:37:495,23.178,-0.089,-0.029,0.206,1.655,-15.697,7.279
14:42:37:55,23.233,-0.193,-0.114,0.037,1.777,-9.105,9.061
14:42:37:551,23.234,-0.301,-0.145,-0.030,1.961,-5.616,9.843
14:42:37:573,23.256,-0.264,-0.145,-0.008,2.360,-2.950,10.201
14:42:37:6,23.283,-0.229,-0.146,0.016,2.631,-2.109,10.059
14:42:37:629,23.312,-0.164,-0.141,0.048,2.941,-1.724,9.469
14:42:37:629,23.312,-0.130,-0.095,0.108,2.997,-1.601,8.472
14:42:37:681,23.364,-0.175,-0.084,0.123,2.890,-1.315,7.773
14:42:37:682,23.365,-0.209,-0.089,0.108,2.626,-0.896,6.748
14:42:37:705,23.388,-0.264,0.004,0.058,2.355,-0.684,6.006
14:42:37:786,23.470,-0.273,0.046,0.042,1.884,-0.779,4.878
14:42:37:787,23.470,-0.245,0.129,-0.003,1.377,-1.376,3.827
14:42:37:813,23.496,-0.230,0.274,0.021,0.984,-1.871,3.191
14:42:37:813,23.496,-0.225,0.384,0.093,0.403,-2.355,2.480
14:42:37:865,23.548,-0.238,0.172,0.131,0.204,-2.295,2.332
14:42:37:866,23.549,-0.261,-0.126,0.104,0.349,-1.689,2.903
14:42:37:918,23.601,-0.221,-0.243,0.122,0.573,-1.540,4.164
14:42:37:918,23.601,-0.227,0.022,0.086,0.553,-2.029,5.122
14:42:37:941,23.624,-0.093,0.104,0.007,0.800,-3.848,6.713
14:42:37:967,23.650,-0.060,0.142,-0.024,1.183,-5.541,7.840
14:42:37:994,23.677,-0.013,0.105,-0.062,2.088,-7.718,9.395
14:42:38:021,23.704,0.065,-0.014,-0.002,2.801,-8.841,10.392
14:42:38:076,23.759,0.049,-0.042,-0.005,3.774,-9.621,11.883
14:42:38:076,23.759,-0.005,-0.102,0.006,4.389,-9.017,13.395
14:42:38:098,23.782,-0.056,-0.134,-0.017,4.708,-8.195,14.501
14:42:38:153,23.837,0.066,-0.161,-0.048,5.145,-7.299,16.159
14:42:38:154,23.838,-0.027,-0.137,-0.108,5.404,-7.038,17.322
14:42:38:177,23.860,0.041,-0.118,-0.092,5.976,-7.010,18.495
14:42:38:204,23.887,0.104,-0.122,-0.078,6.678,-7.610,19.486
14:42:38:229,23.912,0.118,-0.125,-0.066,7.127,-8.021,19.950
14:42:38:285,23.968,0.146,-0.110,-0.079,7.683,-8.481,20.349
14:42:38:286,23.969,0.151,-0.011,-0.075,7.873,-8.583,20.391
14:42:38:308,23.991,0.174,0.102,-0.058,7.910,-8.420,20.052
14:42:38:334,24.018,0.196,0.162,-0.032,7.836,-8.212,19.574
14:42:38:361,24.044,0.148,0.066,-0.037,7.652,-7.261,18.660
14:42:38:416,24.099,0.128,0.063,-0.058,7.377,-5.688,17.679
14:42:38:417,24.100,0.153,0.238,-0.066,7.027,-4.429,16.882
14:42:38:44,24.123,0.093,0.243,-0.047,6.521,-2.462,15.363
14:42:38:466,24.149,0.020,-0.103,0.026,6.440,-1.300,14.169
14:42:38:521,24.205,-0.016,-0.120,0.060,6.518,-0.002,12.322
14:42:38:522,24.206,-0.009,-0.001,0.060,6.443,1.142,10.648
14:42:38:545,24.228,0.032,-0.022,0.043,6.501,1.340,9.685
14:42:38:571,24.254,0.027,-0.066,-0.012,6.711,2.355,8.596
14:42:38:597,24.281,-0.032,-0.067,-0.073,6.888,3.285,8.157
14:42:38:624,24.307,-0.040,-0.087,-0.076,7.191,5.096,7.858
14:42:38:679,24.362,-0.086,-0.116,-0.079,7.540,7.272,7.884
14:42:38:679,24.362,-0.133,-0.143,-0.073,7.731,8.844,7.980
14:42:38:703,24.386,-0.185,-0.162,-0.079,7.901,11.131,8.144
14:42:38:728,24.411,-0.199,-0.152,-0.064,7.909,12.448,8.185
14:42:38:755,24.438,-0.194,-0.109,-0.034,7.741,13.826,7.976
14:42:38:783,24.466,-0.170,-0.106,0.010,7.527,14.297,7.637
14:42:38:808,24.491,-0.183,-0.129,0.021,7.050,14.582,6.864
14:42:38:833,24.517,-0.210,-0.155,0.056,6.386,14.228,5.970
14:42:38:889,24.572,-0.218,-0.142,0.095,5.849,14.201,5.362
14:42:38:889,24.573,-0.220,-0.112,0.114,4.942,13.755,4.484
14:42:38:913,24.596,-0.217,0.033,0.129,4.252,13.479,3.953
14:42:38:939,24.622,-0.204,0.135,0.178,3.120,12.780,3.302
14:42:38:965,24.648,-0.204,0.246,0.191,2.041,12.172,3.005
14:42:39:018,24.702,-0.158,0.290,0.220,1.395,11.446,3.001
14:42:39:046,24.729,-0.087,0.436,0.280,0.516,11.342,3.377
14:42:39:047,24.730,-0.079,0.467,0.264,0.262,11.315,4.066
14:42:39:071,24.754,-0.164,0.101,0.133,0.736,11.109,5.160
14:42:39:096,24.779,-0.089,-0.137,0.057,1.592,9.731,6.138
14:42:39:122,24.805,-0.073,-0.187,0.010,2.234,8.837,6.692
14:42:39:148,24.832,-0.131,-0.052,-0.033,3.104,7.648,7.769
14:42:39:176,24.859,-0.026,0.004,-0.086,3.733,7.067,8.736
14:42:39:201,24.884,-0.032,0.051,-0.118,4.709,6.508,10.182
14:42:39:257,24.940,-0.045,0.030,-0.164,5.354,6.383,11.232
14:42:39:257,24.940,-0.079,-0.013,-0.174,6.311,6.580,12.942
14:42:39:28,24.963,-0.036,-0.035,-0.200,7.127,6.763,14.582
14:42:39:307,24.990,-0.016,-0.096,-0.246,7.626,6.643,15.632
14:42:39:332,25.016,-0.014,-0.126,-0.252,8.324,6.589,17.122
14:42:39:358,25.041,0.010,-0.128,-0.257,8.989,6.126,18.459
14:42:39:385,25.068,0.033,-0.143,-0.259,9.411,5.816,19.269
14:42:39:411,25.094,0.064,-0.132,-0.264,8.889,5.058,20.124
14:42:39:437,25.120,0.062,-0.170,-0.244,9.232,4.857,20.771
14:42:39:493,25.176,0.081,-0.138,-0.232,9.586,4.559,21.594
14:42:39:494,25.177,0.092,-0.108,-0.204,9.803,4.134,22.029
14:42:39:516,25.199,0.118,-0.067,-0.211,9.870,3.922,22.070
14:42:39:542,25.225,0.130,0.045,-0.225,9.801,3.535,21.746
14:42:39:569,25.252,0.131,0.065,-0.235,9.649,3.492,21.307
14:42:39:596,25.279,0.119,0.024,-0.212,9.297,3.523,20.450
14:42:39:621,25.304,0.089,0.139,-0.144,8.554,3.787,19.563
14:42:39:647,25.331,0.057,0.163,-0.116,7.823,4.044,18.204
14:42:39:674,25.357,0.025,0.064,-0.089,7.230,4.210,16.489
14:42:39:699,25.383,-0.026,-0.008,-0.033,6.819,4.157,15.177
14:42:39:727,25.410,-0.084,-0.167,0.024,6.279,4.230,13.163
14:42:39:753,25.436,-0.086,-0.175,0.042,5.909,3.885,11.931
14:42:39:778,25.461,-0.099,0.029,0.034,5.168,3.859,10.120
14:42:39:805,25.488,-0.154,0.096,0.060,4.483,3.689,8.429
14:42:39:86,25.543,-0.158,0.110,0.043,4.114,3.476,7.475
14:42:39:861,25.544,-0.130,0.133,0.061,3.617,3.145,6.427
14:42:39:883,25.567,-0.131,0.005,0.123,3.371,3.068,6.035
14:42:39:91,25.593,-0.148,-0.069,0.134,3.170,3.031,5.801
14:42:39:936,25.619,-0.196,-0.174,0.121,3.061,3.051,5.758
14:42:39:991,25.674,-0.197,-0.184,0.118,3.003,3.016,5.735
14:42:39:992,25.675,-0.198,-0.137,0.102,2.896,2.943,5.669
14:42:40:017,25.701,-0.213,-0.106,0.076,2.855,2.698,5.581
14:42:40:018,25.702,-0.195,-0.098,0.068,2.885,1.897,5.381
14:42:40:101,25.784,-0.173,-0.082,0.039,2.912,0.962,5.190
14:42:40:101,25.784,-0.163,-0.083,0.033,2.938,-0.074,4.945
14:42:40:101,25.784,-0.164,-0.063,0.025,2.915,-0.721,4.846
14:42:40:149,25.832,-0.178,-0.064,0.027,2.925,-0.849,5.215
14:42:40:149,25.833,-0.181,0.010,0.000,2.857,-0.863,5.773
14:42:40:172,25.855,-0.191,0.093,-0.005,2.722,-0.858,6.011
14:42:40:228,25.911,-0.158,0.144,-0.017,2.520,-1.098,6.527
14:42:40:229,25.912,-0.113,0.185,-0.011,2.354,-1.530,7.296
14:42:40:252,25.935,-0.019,0.137,0.033,2.216,-1.721,7.951
14:42:40:277,25.960,-0.028,0.268,0.117,1.668,-1.215,9.029
14:42:40:356,26.039,-0.118,0.149,0.107,1.357,-0.374,9.934
14:42:40:497,26.180,-0.117,0.075,0.052,1.405,0.349,11.379
14:42:40:498,26.181,-0.044,-0.094,0.001,1.817,-0.062,12.600
14:42:40:499,26.182,-0.106,-0.113,-0.016,2.139,-0.597,13.143
14:42:40:5,26.183,-0.051,-0.127,-0.021,2.705,-1.942,13.804
14:42:40:517,26.201,-0.018,-0.118,-0.013,3.195,-3.334,14.061
14:42:40:518,26.202,0.028,-0.082,-0.019,3.944,-5.335,14.304
14:42:40:546,26.229,0.006,0.038,-0.056,4.324,-6.458,14.406
14:42:40:546,26.229,0.005,0.078,-0.113,4.909,-7.667,14.513
14:42:40:547,26.230,0.024,0.069,-0.141,5.509,-8.702,14.609
14:42:40:596,26.279,0.013,0.010,-0.163,5.918,-9.105,14.753
14:42:40:597,26.280,0.030,-0.071,-0.151,6.484,-9.450,15.283
14:42:40:619,26.302,0.028,-0.116,-0.130,6.792,-9.493,15.769
14:42:40:698,26.382,0.013,-0.151,-0.134,7.192,-9.609,16.647
14:42:40:838,26.521,0.038,-0.170,-0.120,7.767,-10.460,18.064
14:42:40:839,26.522,0.082,-0.184,-0.108,8.050,-11.157,18.694
14:42:40:84,26.523,0.093,-0.179,-0.101,8.161,-11.723,18.999
14:42:40:84,26.523,0.088,-0.172,-0.089,7.914,-11.732,19.086
14:42:40:861,26.544,0.088,-0.047,-0.119,7.789,-11.419,19.052
14:42:40:861,26.544,0.096,0.059,-0.128,7.467,-10.552,18.637
14:42:40:862,26.545,0.128,0.148,-0.170,7.049,-9.348,17.665
14:42:40:91,26.593,0.099,0.105,-0.194,6.734,-8.224,16.843
14:42:40:911,26.594,0.039,0.158,-0.175,6.134,-5.960,15.603
14:42:40:934,26.617,0.027,0.291,-0.141,5.513,-4.347,14.691
14:42:40:96,26.643,-0.041,0.293,-0.109,4.670,-2.198,13.215
14:42:40:986,26.669,-0.131,0.069,-0.004,3.966,-0.598,11.750
14:42:41:012,26.696,-0.184,-0.064,0.053,3.621,0.119,10.866
14:42:41:067,26.751,-0.211,-0.247,0.117,3.246,0.393,9.793
14:42:41:068,26.752,-0.169,-0.059,0.104,2.974,0.180,9.112
14:42:41:091,26.774,-0.142,0.051,0.047,2.628,-0.541,8.289
14:42:41:117,26.800,-0.088,0.141,-0.011,2.464,-0.893,7.974
14:42:41:202,26.886,-0.030,0.166,-0.021,2.484,-0.892,8.114
14:42:41:202,26.886,-0.007,0.033,0.049,2.688,0.309,8.925
14:42:41:203,26.887,-0.038,-0.057,0.080,2.841,1.613,9.820
14:42:41:223,26.906,-0.077,-0.185,0.101,2.977,3.795,11.334
14:42:41:278,26.961,-0.102,-0.213,0.120,2.963,5.177,12.317
14:42:41:278,26.961,-0.101,-0.184,0.119,2.880,6.752,13.510
14:42:41:33,27.013,-0.022,-0.140,0.127,2.867,7.417,14.152
14:42:41:331,27.014,0.027,-0.096,0.104,2.885,7.656,14.228
14:42:41:354,27.037,0.017,-0.104,0.091,2.943,7.890,13.821
14:42:41:38,27.063,-0.056,-0.114,0.087,2.969,8.177,13.210
14:42:41:435,27.118,-0.082,-0.073,0.085,2.883,8.528,11.999
14:42:41:436,27.119,-0.113,-0.069,0.080,2.793,8.883,10.792
14:42:41:46,27.143,-0.093,-0.074,0.074,2.736,8.875,10.070
14:42:41:486,27.169,-0.125,0.100,0.052,2.623,9.000,9.151
14:42:41:511,27.194,-0.163,0.104,0.020,2.489,8.738,8.481
14:42:41:538,27.221,-0.161,0.090,0.019,2.369,9.027,7.680
14:42:41:563,27.247,-0.155,0.189,0.044,2.165,9.395,7.179
14:42:41:59,27.273,-0.140,0.143,0.061,2.100,9.887,7.100
14:42:41:617,27.300,-0.146,0.171,0.036,2.039,10.841,7.531
14:42:41:642,27.325,-0.175,0.127,0.042,2.010,11.783,8.137
14:42:41:669,27.352,-0.180,-0.018,0.034,2.030,13.073,9.046
14:42:41:695,27.378,-0.179,-0.066,0.048,2.095,13.602,9.801
14:42:41:722,27.405,-0.179,-0.051,0.041,2.244,13.494,10.957
14:42:41:747,27.431,-0.083,0.010,0.019,2.600,11.941,12.077
14:42:41:803,27.486,-0.046,0.069,-0.026,3.030,10.278,12.782
14:42:41:803,27.487,-0.004,0.123,-0.063,3.842,6.970,13.597
14:42:41:826,27.509,0.072,0.098,-0.094,4.565,4.546,13.894
14:42:41:853,27.536,0.109,0.045,-0.104,5.681,1.331,14.259
14:42:41:878,27.562,0.104,-0.070,-0.096,6.584,-0.500,14.767
14:42:41:905,27.588,0.059,-0.113,-0.075,7.031,-0.823,15.411
14:42:41:96,27.643,0.156,-0.196,-0.101,7.548,-0.233,16.828
14:42:41:961,27.644,0.056,-0.003,-0.142,7.665,0.618,18.149
14:42:42:042,27.725,0.058,-0.138,-0.162,7.992,1.972,19.693
14:42:42:043,27.726,0.060,-0.158,-0.169,8.320,2.708,20.999
14:42:42:044,27.727,0.069,-0.186,-0.162,8.515,2.960,21.604
14:42:42:062,27.746,0.093,-0.230,-0.091,8.847,3.098,22.039
14:42:42:088,27.771,0.019,-0.052,-0.070,8.971,3.134,22.084
14:42:42:115,27.798,-0.064,0.044,-0.166,8.752,4.110,22.147
14:42:42:17,27.853,-0.201,0.470,-0.101,8.037,6.529,22.808
14:42:42:171,27.854,-0.356,0.702,-0.084,7.790,8.687,24.236
14:42:42:193,27.877,-0.396,0.762,-0.031,7.873,12.648,28.337
14:42:42:22,27.903,-0.336,0.657,0.114,7.902,15.590,31.841
14:42:42:246,27.929,-0.151,0.605,0.159,8.063,19.189,37.557
14:42:42:275,27.958,-0.087,0.330,0.273,8.489,21.098,41.521
14:42:42:276,27.959,-0.109,0.174,0.308,9.667,23.306,47.756
14:42:42:299,27.983,-0.137,0.074,0.192,12.020,24.933,54.337
14:42:42:325,28.008,-0.180,0.200,0.187,14.328,25.869,59.146
14:42:42:351,28.034,0.049,0.298,0.016,20.155,26.785,67.000
14:42:42:405,28.088,0.251,0.272,-0.176,27.044,27.208,72.348
14:42:42:432,28.116,0.347,0.279,-0.364,47.570,27.752,80.239
14:42:42:433,28.117,0.427,-0.110,-0.442,80.895,28.326,87.911
14:42:42:486,28.169,0.288,-0.283,-0.438,101.233,28.770,92.798
14:42:42:486,28.169,0.154,-0.471,-0.350,122.597,29.014,99.749
14:42:42:508,28.191,0.179,-0.546,-0.268,131.026,28.819,103.965
14:42:42:537,28.220,0.148,-0.597,-0.129,137.826,28.103,109.496
14:42:42:561,28.245,0.091,-0.718,0.033,138.923,27.678,114.040
14:42:42:587,28.270,0.043,-0.635,0.094,137.977,27.813,116.505
14:42:42:613,28.297,-0.081,-0.608,0.274,136.549,28.160,119.701
14:42:42:642,28.325,-0.085,-0.482,0.309,135.825,28.187,121.178
14:42:42:667,28.350,-0.032,-0.446,0.276,134.640,28.025,122.541
14:42:42:694,28.377,0.180,-0.172,0.317,133.385,28.214,123.090
14:42:42:72,28.403,0.173,-0.027,0.429,130.704,29.871,124.080
14:42:42:745,28.428,0.085,0.083,0.404,127.966,32.881,125.532
14:42:42:772,28.455,0.049,0.159,0.250,126.937,34.389,126.197
14:42:42:797,28.480,0.024,0.171,0.065,126.713,35.060,126.169
14:42:42:823,28.506,0.093,0.162,-0.006,127.055,34.824,125.697
14:42:42:85,28.533,0.082,0.141,-0.014,127.557,34.403,124.880
14:42:42:877,28.560,0.024,0.080,-0.057,127.784,34.292,124.256
14:42:42:903,28.586,0.013,0.045,-0.045,127.682,34.377,123.977
14:42:42:928,28.612,-0.017,-0.005,-0.033,127.255,34.445,123.605
14:42:42:955,28.638,-0.042,-0.152,0.049,127.034,34.247,123.312
14:42:42:981,28.664,-0.032,-0.061,-0.046,127.359,33.329,122.679
14:42:43:007,28.690,0.024,0.050,-0.127,127.726,32.331,122.269
14:42:43:034,28.717,0.037,0.090,-0.144,127.788,31.766,121.912
14:42:43:06,28.743,0.020,0.053,-0.141,126.985,31.519,121.824
14:42:43:086,28.769,0.032,0.021,-0.103,126.094,31.966,121.749
14:42:43:112,28.796,0.114,-0.023,-0.065,125.030,32.251,121.276
14:42:43:139,28.822,0.112,-0.060,-0.074,124.851,32.143,120.674
14:42:43:165,28.848,0.005,-0.097,-0.038,125.358,31.334,119.600
14:42:43:191,28.874,-0.007,-0.126,-0.022,126.563,30.242,118.575
14:42:43:217,28.900,0.012,-0.059,0.000,127.159,29.854,117.937
14:42:43:245,28.928,0.011,-0.083,0.056,127.555,29.253,117.203
14:42:43:27,28.953,-0.056,-0.060,0.008,127.581,29.293,116.789
14:42:43:296,28.979,-0.080,-0.059,0.048,127.476,29.167,116.232
14:42:43:322,29.005,-0.050,0.013,-0.042,127.669,29.425,115.783
14:42:43:349,29.032,-0.083,0.019,-0.049,127.765,29.451,115.660
14:42:43:376,29.059,-0.098,0.038,-0.025,127.689,30.133,115.656
14:42:43:401,29.084,-0.068,0.097,-0.024,127.444,30.429,115.640
14:42:43:427,29.110,0.048,0.136,-0.045,126.938,31.186,115.535
14:42:43:454,29.137,0.034,0.154,-0.019,126.693,31.595,115.392
14:42:43:48,29.163,0.076,0.130,-0.050,126.138,32.439,115.052
14:42:43:506,29.189,0.058,0.099,0.049,125.133,33.175,114.447
14:42:43:533,29.216,0.064,0.117,-0.008,124.600,33.683,113.813
14:42:43:558,29.242,0.117,0.033,-0.005,123.929,34.121,112.664
14:42:43:585,29.268,0.181,-0.054,-0.009,123.702,34.571,111.813
14:42:43:611,29.294,0.213,-0.124,-0.058,123.707,35.143,110.710
14:42:43:637,29.320,0.226,-0.042,-0.182,123.532,36.707,109.920
14:42:43:663,29.347,0.206,-0.037,-0.186,123.025,38.147,109.558
14:42:43:69,29.373,0.190,0.020,-0.237,121.980,40.548,109.075
14:42:43:718,29.401,0.095,0.170,-0.260,121.592,42.108,108.747
14:42:43:744,29.427,0.089,0.102,-0.212,121.666,44.240,108.256
14:42:43:769,29.452,0.040,-0.015,-0.124,122.354,45.472,108.003
14:42:43:795,29.478,0.047,0.032,-0.025,124.028,47.074,107.707
14:42:43:821,29.504,0.036,0.001,0.115,125.640,48.589,107.606
14:42:43:848,29.531,0.042,-0.072,0.129,126.583,49.628,107.579
14:42:43:874,29.557,0.035,-0.100,0.101,128.087,51.045,107.615
14:42:43:901,29.584,0.059,-0.106,0.118,128.813,51.927,107.639
14:42:43:926,29.610,0.077,-0.161,0.145,130.120,52.954,107.626
14:42:43:952,29.635,0.063,-0.192,0.097,133.027,53.505,107.466
14:42:43:978,29.662,0.056,-0.103,0.047,135.952,53.710,107.306
14:42:44:005,29.688,0.086,-0.039,0.088,140.320,53.935,107.141
14:42:44:031,29.714,0.134,0.017,0.047,143.348,54.110,107.101
14:42:44:057,29.740,0.165,0.069,0.017,148.907,54.457,107.200
14:42:44:084,29.767,0.111,0.046,0.002,154.754,54.981,107.414
14:42:44:111,29.794,0.044,0.049,0.007,158.752,55.443,107.631
14:42:44:136,29.819,-0.014,0.144,-0.001,164.460,56.195,107.933
14:42:44:162,29.846,-0.014,0.185,0.000,167.226,56.781,108.002
14:42:44:188,29.871,-0.040,0.126,0.043,168.584,57.666,107.829
14:42:44:217,29.900,-0.066,-0.003,0.083,167.003,58.558,107.486
14:42:44:243,29.926,-0.079,-0.127,0.078,165.160,59.053,107.182
14:42:44:268,29.951,-0.050,-0.256,0.070,162.929,59.539,106.629
14:42:44:294,29.977,-0.060,-0.215,0.034,160.620,59.708,105.918
14:42:44:32,30.003,-0.058,-0.104,-0.021,158.549,59.790,104.684
14:42:44:346,30.029,-0.047,-0.147,0.012,155.211,59.544,102.934
14:42:44:373,30.056,-0.019,-0.345,0.047,150.966,59.302,101.118
14:42:44:399,30.082,0.069,-0.330,-0.076,141.852,58.990,97.588
14:42:44:425,30.108,0.060,-0.467,-0.078,130.898,58.808,94.871
14:42:44:451,30.134,0.182,-0.444,-0.130,89.084,58.782,89.926
14:42:44:477,30.161,0.199,-0.454,-0.125,47.796,58.893,86.156
14:42:44:503,30.186,0.173,-0.454,-0.163,27.218,59.053,79.826
14:42:44:531,30.214,0.130,-0.383,-0.326,23.404,58.667,72.669
14:42:44:561,30.244,0.185,-0.343,-0.406,21.894,57.929,67.364
14:42:44:561,30.244,0.270,-0.092,-0.456,19.594,56.609,58.426
14:42:44:641,30.324,0.197,0.288,-0.553,17.494,55.649,52.058
14:42:44:641,30.324,0.233,0.206,-0.747,15.887,53.850,42.913
14:42:44:642,30.325,0.119,0.639,-0.886,14.131,53.303,36.331
14:42:44:719,30.403,-0.125,1.005,-0.707,10.275,55.344,26.712
14:42:44:72,30.403,-0.339,0.792,-0.341,7.698,60.717,18.448
14:42:44:721,30.404,-0.285,0.739,-0.112,6.952,65.243,13.793
14:42:44:74,30.423,-0.301,0.714,0.095,6.298,73.534,8.661
14:42:44:768,30.451,-0.272,0.408,0.131,6.460,79.650,6.704
14:42:44:792,30.476,-0.284,0.357,0.205,7.107,88.264,5.497
14:42:44:818,30.501,-0.220,0.002,0.361,7.809,95.630,5.398
14:42:44:845,30.528,-0.166,-0.211,0.421,8.324,99.221,5.563
14:42:44:871,30.554,-0.171,-0.226,0.482,8.882,102.601,5.711
14:42:44:897,30.580,-0.190,-0.254,0.468,9.172,103.578,5.719
14:42:44:953,30.636,-0.228,-0.248,0.403,9.541,103.873,5.613
14:42:44:954,30.637,-0.245,-0.140,0.319,9.633,103.786,5.550
14:42:45:006,30.689,-0.239,-0.129,0.271,9.631,103.885,5.583
14:42:45:006,30.689,-0.178,-0.202,0.184,9.504,104.749,5.846
14:42:45:028,30.712,-0.125,-0.231,0.224,9.241,106.052,6.176
14:42:45:084,30.767,-0.085,-0.210,0.267,8.507,108.887,6.812
14:42:45:085,30.768,-0.032,-0.191,0.277,7.454,111.891,7.349
14:42:45:108,30.791,-0.037,-0.197,0.269,6.593,113.692,7.581
14:42:45:134,30.817,0.036,-0.148,0.243,4.555,115.928,8.584
14:42:45:16,30.843,0.224,-0.095,0.224,3.323,116.791,8.397
14:42:45:186,30.869,0.421,0.054,0.186,1.142,116.963,7.772
14:42:45:243,30.926,0.781,-0.137,-0.207,-0.236,116.023,7.217
14:42:45:243,30.926,0.904,0.240,-0.134,-3.092,113.812,5.908
14:42:45:265,30.948,0.572,0.228,0.023,-4.983,112.837,5.890
14:42:45:291,30.974,0.360,0.162,0.177,-5.540,112.305,6.151
14:42:45:317,31.000,0.198,0.297,0.322,-5.822,111.063,6.190
14:42:45:371,31.054,0.116,0.309,0.442,-5.590,109.165,5.978
14:42:45:399,31.083,0.046,0.207,0.346,-4.601,104.761,5.672
14:42:45:4,31.083,0.103,0.251,0.138,-3.371,98.628,5.660
14:42:45:422,31.105,0.147,0.111,-0.073,-2.159,94.526,5.997
14:42:45:477,31.161,0.142,-0.073,-0.175,-0.027,89.692,6.749
14:42:45:478,31.162,0.092,-0.078,-0.140,1.409,87.872,7.312
14:42:45:501,31.184,0.010,-0.031,-0.045,3.197,87.660,8.829
14:42:45:527,31.211,-0.126,0.069,0.095,4.310,90.282,11.457
14:42:45:554,31.237,-0.216,0.084,0.076,4.710,92.611,13.440
14:42:45:581,31.264,-0.296,0.061,0.092,4.886,95.970,16.540
14:42:45:606,31.289,-0.347,0.074,0.089,4.726,97.582,18.529
14:42:45:632,31.315,-0.290,-0.109,0.077,5.075,98.593,20.891
14:42:45:658,31.342,-0.251,-0.189,-0.023,5.537,97.894,22.209
14:42:45:687,31.370,-0.221,-0.197,-0.044,6.580,95.399,23.791
14:42:45:712,31.395,-0.177,-0.237,-0.124,7.938,91.925,24.952
14:42:45:825,31.508,-0.195,-0.180,-0.092,8.820,89.739,25.591
14:42:45:826,31.509,-0.173,-0.161,-0.211,10.121,86.484,26.167
14:42:45:827,31.510,-0.187,-0.060,-0.185,10.799,84.746,26.394
14:42:45:827,31.510,-0.136,-0.145,-0.297,11.634,82.871,26.653
14:42:45:843,31.526,-0.137,-0.005,-0.281,11.755,82.201,26.841
14:42:45:869,31.552,-0.134,0.040,-0.316,11.701,82.372,27.004
14:42:45:924,31.607,-0.169,0.074,-0.404,11.322,83.341,27.028
14:42:45:925,31.608,-0.209,0.053,-0.300,10.833,84.817,27.065
14:42:45:947,31.630,-0.160,0.090,-0.330,9.879,87.761,27.061
14:42:45:974,31.657,-0.178,0.170,-0.289,8.968,89.993,26.786
14:42:46:,31.683,-0.117,0.152,-0.200,7.437,93.628,25.962
14:42:46:055,31.738,0.061,0.069,-0.037,5.830,97.334,24.292
14:42:46:056,31.739,0.204,-0.008,0.078,4.961,99.020,22.685
14:42:46:079,31.762,0.265,-0.035,0.121,4.158,100.604,20.006
14:42:46:105,31.788,0.143,-0.047,0.064,3.930,99.955,18.266
14:42:46:131,31.814,-0.020,-0.030,-0.022,3.778,97.922,16.165
14:42:46:157,31.841,-0.129,0.010,-0.136,3.614,94.824,14.522
14:42:46:184,31.867,-0.122,-0.032,-0.184,3.566,92.739,13.685
14:42:46:21,31.893,-0.033,-0.073,-0.196,3.558,90.356,12.560
14:42:46:236,31.919,0.007,-0.121,-0.048,3.484,89.860,11.850
14:42:46:292,31.975,0.042,-0.140,0.041,3.259,90.850,10.832
14:42:46:293,31.976,0.051,-0.180,0.081,3.020,93.017,9.822
14:42:46:315,31.998,0.065,-0.166,0.070,2.799,95.188,9.142
14:42:46:341,32.024,0.066,-0.072,0.120,2.312,98.836,8.078
14:42:46:368,32.051,0.094,-0.052,0.189,1.939,101.992,7.317
14:42:46:423,32.106,0.195,0.007,0.273,1.367,105.760,6.101
14:42:46:424,32.107,0.327,0.034,0.294,0.867,108.916,4.842
14:42:46:446,32.129,0.322,-0.031,0.300,0.657,109.984,4.100
14:42:46:474,32.157,0.303,-0.037,0.310,0.365,110.209,3.240
14:42:46:528,32.211,0.200,0.022,0.353,0.081,109.298,2.783
14:42:46:528,32.212,0.145,0.076,0.314,-0.306,106.588,2.434
14:42:46:551,32.234,0.160,0.272,0.232,-0.754,102.923,2.405
14:42:46:577,32.261,0.195,0.359,0.143,-0.924,100.571,2.641
14:42:46:604,32.287,0.199,0.123,0.092,-0.520,97.965,3.841
14:42:46:661,32.344,0.166,0.020,-0.023,0.126,96.787,5.296
14:42:46:661,32.344,0.109,-0.021,-0.153,1.389,95.097,8.021
14:42:46:682,32.365,0.034,-0.061,-0.025,2.846,94.135,10.775
14:42:46:708,32.392,0.006,0.021,-0.032,3.764,94.048,12.575
14:42:46:735,32.418,-0.067,0.074,-0.046,5.207,94.771,15.555
14:42:46:762,32.445,-0.116,0.115,-0.101,6.173,95.633,17.470
14:42:46:789,32.472,-0.202,0.091,-0.170,7.620,97.279,20.258
14:42:46:843,32.526,-0.220,0.041,-0.162,8.803,99.330,22.951
14:42:46:843,32.527,-0.245,0.052,-0.006,9.370,100.816,24.646
14:42:46:866,32.549,-0.125,-0.179,-0.199,10.397,102.231,26.825
14:42:46:892,32.576,-0.137,-0.261,-0.206,11.409,102.650,28.126
14:42:46:919,32.602,-0.134,-0.149,-0.144,11.931,103.791,29.666
14:42:46:977,32.660,-0.096,-0.219,-0.183,12.259,104.223,30.392
14:42:46:978,32.661,-0.103,-0.195,-0.204,12.707,104.471,31.204
14:42:46:978,32.661,-0.119,-0.267,-0.259,13.285,104.323,31.698
14:42:46:997,32.680,-0.131,-0.234,-0.287,13.374,104.344,31.683
14:42:47:023,32.707,-0.119,-0.252,-0.237,12.958,105.148,31.353
14:42:47:05,32.733,-0.130,-0.194,-0.205,12.083,106.085,30.294
14:42:47:105,32.788,-0.176,-0.030,-0.222,10.757,108.193,29.017
14:42:47:106,32.789,-0.207,0.097,-0.198,9.222,111.278,26.929
14:42:47:158,32.841,-0.220,0.144,-0.153,8.272,113.104,25.140
14:42:47:158,32.841,-0.210,0.266,-0.081,6.874,116.383,21.935
14:42:47:21,32.894,-0.185,0.525,-0.051,5.905,118.480,19.506
14:42:47:211,32.894,-0.062,0.465,0.044,4.764,121.934,15.520
14:42:47:263,32.946,0.076,0.041,0.120,4.484,124.071,12.993
14:42:47:263,32.947,0.136,-0.090,0.173,4.368,127.702,9.787
14:42:47:317,33.000,0.128,-0.175,0.157,4.405,130.211,7.422
14:42:47:317,33.000,0.104,-0.026,0.182,4.404,131.953,6.228
14:42:47:338,33.022,0.032,0.029,0.180,4.557,133.854,5.271
14:42:47:423,33.106,0.010,0.099,0.187,4.685,135.533,5.187
14:42:47:424,33.107,0.007,0.112,0.164,4.893,138.238,5.833
14:42:47:425,33.108,0.039,-0.039,0.141,5.140,141.760,7.188
14:42:47:444,33.127,0.069,-0.108,0.119,5.221,144.368,8.269
14:42:47:528,33.212,0.121,-0.185,0.128,5.177,148.667,9.883
14:42:47:529,33.212,0.133,-0.211,0.113,5.031,151.084,10.817
14:42:47:53,33.213,0.146,-0.209,0.095,4.674,154.520,11.761
14:42:47:549,33.232,0.142,-0.159,0.020,4.137,157.265,12.024
14:42:47:575,33.258,0.161,-0.136,-0.047,3.667,158.311,11.822
14:42:47:631,33.314,0.182,-0.125,-0.199,2.705,159.627,11.003
14:42:47:631,33.314,0.296,0.007,-0.330,1.888,160.595,10.130
14:42:47:654,33.337,0.313,0.029,-0.324,0.786,162.434,8.751
14:42:47:681,33.364,0.304,-0.088,-0.121,0.378,163.405,8.089
14:42:47:764,33.448,0.294,-0.074,-0.024,0.070,164.190,7.004
14:42:47:765,33.449,0.281,0.094,0.081,-0.221,163.211,5.619
14:42:47:766,33.449,0.256,0.236,0.064,-0.392,161.953,4.672
14:42:47:873,33.556,0.172,0.308,-0.026,-0.361,160.026,3.513
14:42:47:874,33.557,0.167,0.159,-0.071,-0.087,159.506,3.117
14:42:47:875,33.558,0.178,0.006,-0.049,0.466,160.332,3.311
14:42:47:876,33.559,0.191,-0.054,-0.080,0.910,162.264,4.506
14:42:47:891,33.574,0.160,-0.098,-0.044,1.176,163.649,5.658
14:42:47:917,33.600,0.196,0.028,0.045,1.415,165.996,7.749
14:42:47:942,33.626,0.174,0.105,0.085,1.502,167.074,9.304
14:42:47:999,33.682,0.076,0.165,0.104,1.730,167.899,11.675
14:42:47:999,33.682,0.006,0.154,0.115,1.977,167.698,13.133
14:42:48:052,33.735,-0.010,0.111,0.110,2.559,166.957,15.174
14:42:48:052,33.735,-0.055,-0.024,0.079,3.322,165.814,17.055
14:42:48:074,33.757,-0.214,-0.230,-0.012,3.837,164.966,18.204
14:42:48:13,33.814,0.026,-0.161,0.073,4.359,163.937,19.992
14:42:48:13,33.814,-0.077,-0.231,0.034,4.832,162.991,20.795
14:42:48:152,33.835,-0.100,-0.199,0.039,5.511,161.310,21.881
14:42:48:179,33.862,-0.127,-0.201,0.039,6.142,159.537,22.478
14:42:48:234,33.917,-0.146,-0.182,0.043,6.485,158.547,22.616
14:42:48:235,33.918,-0.160,-0.156,0.062,6.845,157.523,22.442
14:42:48:257,33.941,-0.153,-0.139,0.059,6.901,157.280,22.103
14:42:48:284,33.967,-0.140,-0.051,0.059,6.793,157.455,21.330
14:42:48:31,33.993,-0.181,0.114,0.063,6.636,157.800,20.644
14:42:48:366,34.049,-0.201,0.222,0.102,6.258,158.707,19.371
14:42:48:366,34.049,-0.165,0.226,0.154,5.889,160.023,17.957
14:42:48:388,34.072,-0.197,0.191,0.139,5.668,161.019,17.047
14:42:48:469,34.152,-0.173,0.236,0.091,5.080,162.651,15.628
14:42:48:499,34.183,-0.047,0.184,0.042,4.657,163.602,14.556
14:42:48:5,34.183,0.033,0.096,0.010,4.081,164.611,12.619
14:42:48:501,34.184,0.055,-0.228,-0.034,3.780,165.055,10.515
14:42:48:52,34.203,0.070,-0.319,-0.047,3.614,165.508,9.214
14:42:48:547,34.230,0.095,-0.128,-0.072,3.166,166.156,7.430
14:42:48:601,34.284,0.056,-0.002,-0.069,2.815,166.569,6.452
14:42:48:602,34.285,0.018,0.095,-0.021,2.370,167.286,5.511
14:42:48:625,34.308,0.002,0.113,-0.017,2.083,168.349,5.270
14:42:48:68,34.363,0.055,-0.090,-0.062,2.075,169.204,5.434
14:42:48:681,34.364,0.090,-0.138,-0.073,2.180,170.713,5.899
14:42:48:704,34.387,0.174,-0.160,-0.061,2.204,171.845,6.193
14:42:48:73,34.413,0.191,-0.138,-0.041,2.195,173.444,6.572
14:42:48:756,34.439,0.169,-0.137,-0.033,2.127,174.788,6.829
14:42:48:784,34.467,0.160,-0.138,-0.039,2.055,175.461,6.923
14:42:48:838,34.521,0.147,-0.112,-0.073,2.157,176.107,7.771
14:42:48:839,34.522,0.168,-0.087,-0.094,1.861,176.303,7.617
14:42:48:861,34.544,0.184,-0.099,-0.109,1.340,176.675,7.232
14:42:48:887,34.571,0.162,-0.061,-0.129,0.937,176.959,6.919
14:42:48:914,34.597,0.193,-0.073,-0.143,0.496,177.265,6.503
14:42:48:94,34.624,0.230,-0.018,-0.135,-0.145,177.618,5.958
14:42:48:966,34.649,0.257,0.119,-0.149,-0.604,177.648,5.648
14:42:48:993,34.676,0.251,0.237,-0.123,-1.177,177.032,5.340
14:42:49:018,34.701,0.245,0.345,-0.142,-1.486,176.109,5.253
14:42:49:076,34.760,0.121,0.403,-0.215,-1.627,174.355,5.338
14:42:49:076,34.760,0.059,0.169,-0.097,-1.016,172.970,5.896
14:42:49:098,34.781,0.076,0.053,-0.022,-0.348,171.919,6.255
14:42:49:123,34.807,0.019,0.061,-0.080,0.691,170.245,6.885
14:42:49:15,34.833,-0.029,-0.089,-0.068,1.536,169.874,7.607
14:42:49:209,34.892,0.053,-0.093,-0.004,2.695,171.060,9.540
14:42:49:209,34.892,-0.030,-0.065,0.093,3.659,173.187,12.232
14:42:49:21,34.893,-0.027,-0.027,0.180,4.167,174.849,14.089
14:42:49:284,34.967,0.048,0.049,0.268,4.700,177.291,16.808
14:42:49:285,34.968,0.042,0.050,0.287,5.044,178.462,18.375
14:42:49:311,34.994,-0.038,-0.070,0.282,5.664,179.276,20.267
14:42:49:311,34.995,0.115,0.018,0.299,6.138,179.138,22.055
14:42:49:364,35.047,-0.055,-0.226,0.221,6.995,177.752,22.670
14:42:49:364,35.047,-0.153,-0.308,0.152,8.237,175.095,23.390
14:42:49:444,35.128,-0.126,-0.175,0.168,8.564,173.913,23.734
14:42:49:445,35.128,-0.110,-0.147,0.166,8.617,172.184,24.136
14:42:49:446,35.129,-0.137,-0.185,0.161,8.625,171.266,24.327
14:42:49:465,35.148,-0.156,-0.167,0.159,8.482,169.808,24.470
14:42:49:491,35.174,-0.169,-0.149,0.110,7.669,168.816,24.192
14:42:49:517,35.200,-0.154,-0.064,0.059,7.253,168.025,23.977
14:42:49:544,35.227,-0.183,0.073,0.061,6.685,167.468,23.394
14:42:49:57,35.253,-0.232,0.159,0.083,6.355,167.016,22.802
14:42:49:596,35.279,-0.222,0.181,0.078,5.769,166.911,21.697
14:42:49:622,35.306,-0.178,0.209,0.049,5.110,167.219,20.400
14:42:49:649,35.332,-0.177,0.267,-0.005,4.617,167.550,19.356
14:42:49:676,35.359,-0.097,0.265,-0.072,3.784,168.382,17.474
14:42:49:729,35.412,0.004,0.143,-0.160,3.247,169.272,16.090
14:42:49:757,35.440,0.134,0.009,-0.186,2.683,171.043,13.996
14:42:49:757,35.441,0.192,-0.070,-0.077,2.467,172.487,12.402
14:42:49:838,35.521,0.034,-0.112,-0.029,2.572,172.825,11.552
14:42:49:839,35.522,0.252,0.009,-0.038,2.986,173.555,10.815
14:42:49:84,35.523,0.179,-0.016,0.023,3.487,173.840,10.667
14:42:49:859,35.542,0.011,-0.031,0.003,4.372,173.774,10.887
14:42:49:885,35.568,-0.048,0.000,0.025,4.826,174.327,11.332
14:42:49:94,35.623,-0.057,-0.075,0.028,5.326,175.798,12.416
14:42:49:941,35.624,0.033,-0.184,0.075,5.596,177.988,13.740
14:42:49:964,35.647,0.076,-0.197,0.080,5.596,179.411,14.478
14:42:50:019,35.702,0.099,-0.214,0.064,5.424,-178.920,15.153
14:42:50:02,35.703,0.112,-0.208,0.035,5.228,-178.291,15.221
14:42:50:043,35.726,0.100,-0.190,-0.003,4.848,-178.064,14.647
14:42:50:069,35.752,0.110,-0.139,-0.061,4.337,-178.645,13.398
14:42:50:095,35.778,0.116,-0.098,-0.099,3.970,-179.224,12.324
14:42:50:121,35.804,0.082,-0.079,-0.178,3.355,179.829,10.614
14:42:50:147,35.830,0.129,0.018,-0.217,2.843,179.552,9.598
14:42:50:175,35.858,0.188,0.067,-0.190,2.059,179.853,8.466
14:42:50:2,35.883,0.231,0.158,-0.061,1.659,179.965,7.882
14:42:50:226,35.909,0.241,0.176,-0.006,1.322,179.074,7.078
14:42:50:252,35.936,0.175,0.360,0.006,1.033,177.035,6.393
14:42:50:306,35.989,0.092,0.319,-0.046,1.000,175.467,6.144
14:42:50:334,36.017,0.127,0.185,-0.062,1.103,174.162,6.210
14:42:50:335,36.018,0.193,-0.044,-0.029,1.300,173.944,6.626
14:42:50:358,36.041,0.138,-0.188,-0.041,1.859,173.558,7.707
14:42:50:413,36.096,0.192,-0.058,-0.011,2.210,172.877,8.810
14:42:50:414,36.097,0.198,-0.008,0.000,2.448,172.230,9.590
14:42:50:436,36.119,0.120,0.065,0.066,3.078,170.475,10.702
14:42:50:463,36.146,0.090,0.107,0.106,3.655,169.099,11.367
14:42:50:488,36.172,-0.006,0.145,0.157,4.728,166.880,12.331
14:42:50:515,36.198,-0.038,0.072,0.135,5.555,165.708,13.036
14:42:50:543,36.226,-0.093,-0.040,0.111,6.917,164.380,14.340
14:42:50:568,36.251,0.041,0.061,0.200,8.260,163.656,16.241
14:42:50:594,36.277,-0.153,-0.186,0.118,9.433,162.939,17.556
14:42:50:62,36.303,-0.116,-0.152,0.168,10.773,162.449,19.900
14:42:50:646,36.329,-0.197,-0.125,0.178,11.487,162.684,21.535
14:42:50:672,36.356,-0.207,-0.129,0.182,12.464,163.093,24.017
14:42:50:699,36.382,-0.253,-0.145,0.156,13.310,163.625,26.365
14:42:50:751,36.434,-0.302,-0.086,0.129,13.604,164.995,28.833
14:42:50:778,36.461,-0.325,-0.068,0.131,13.715,165.821,29.431
14:42:50:805,36.488,-0.355,-0.076,0.156,13.628,167.339,29.602
14:42:50:83,36.513,-0.381,0.012,0.223,12.852,169.811,29.016
14:42:50:856,36.539,-0.348,0.163,0.273,11.943,171.973,28.285
14:42:50:882,36.565,-0.302,0.089,0.251,10.627,175.574,26.503
14:42:50:909,36.592,-0.129,0.009,0.184,9.647,178.139,24.939
14:42:50:936,36.620,0.021,-0.100,0.051,8.059,-177.959,22.096
14:42:50:962,36.645,0.123,-0.071,-0.132,6.630,-174.975,18.873
14:42:50:987,36.671,0.163,0.031,-0.177,5.877,-173.788,16.549
14:42:51:013,36.696,0.168,0.153,-0.178,5.213,-174.294,13.071
14:42:51:04,36.723,0.132,0.147,-0.047,4.924,-175.691,10.967
14:42:51:125,36.808,0.125,0.124,-0.001,4.552,-178.341,8.318
14:42:51:126,36.809,0.067,0.046,-0.002,4.310,179.565,6.560
14:42:51:127,36.810,0.049,-0.077,-0.042,4.314,179.047,5.893
14:42:51:146,36.829,0.092,-0.131,-0.021,4.388,179.939,5.515
14:42:51:173,36.856,0.144,-0.141,-0.010,4.450,-178.712,5.539
14:42:51:226,36.910,0.230,-0.106,-0.023,4.506,-176.277,5.749
14:42:51:227,36.910,0.265,-0.091,-0.057,4.524,-174.780,5.842
14:42:51:309,36.992,0.300,-0.062,-0.092,4.504,-172.831,5.730
14:42:51:309,36.992,0.297,-0.099,-0.144,4.433,-172.114,5.293
14:42:51:31,36.993,0.269,-0.141,-0.150,4.339,-172.235,4.888
14:42:51:443,37.126,0.230,-0.156,-0.141,4.105,-172.643,4.309
14:42:51:444,37.127,0.244,-0.117,-0.099,3.890,-173.000,4.025
14:42:51:445,37.128,0.261,-0.074,-0.070,3.568,-173.098,3.882
14:42:51:445,37.128,0.268,0.041,-0.015,3.197,-173.279,4.140
14:42:51:493,37.176,0.243,0.225,0.027,2.909,-173.213,4.610
14:42:51:493,37.177,0.184,0.328,0.042,2.549,-173.199,5.750
14:42:51:493,37.177,0.165,0.263,0.024,2.462,-173.125,6.807
14:42:51:515,37.198,0.142,0.101,0.015,2.417,-172.981,8.753
14:42:51:516,37.199,0.132,-0.035,-0.031,2.342,-172.854,11.040
14:42:51:568,37.251,0.122,-0.053,-0.031,2.282,-172.969,12.696
14:42:51:568,37.251,0.063,0.066,0.006,2.194,-173.546,15.180
14:42:51:649,37.332,0.026,0.097,0.077,2.292,-174.501,16.774
14:42:51:65,37.333,-0.040,0.130,0.123,2.685,-176.746,19.009
14:42:51:651,37.334,-0.105,0.164,0.153,3.295,-178.635,20.144
14:42:51:7,37.383,-0.150,0.090,0.133,4.571,178.000,21.487
14:42:51:7,37.383,-0.134,0.116,0.173,5.890,174.713,22.599
14:42:51:751,37.434,-0.185,-0.050,0.110,7.181,172.265,23.473
14:42:51:752,37.435,-0.226,-0.163,0.048,8.912,168.877,24.638
14:42:51:776,37.459,-0.181,-0.183,0.064,9.789,167.475,25.573
14:42:51:801,37.485,-0.204,-0.207,0.037,11.005,166.138,27.125
14:42:51:827,37.510,-0.233,-0.241,0.017,12.201,165.237,28.777
14:42:51:883,37.566,-0.210,-0.219,-0.027,12.904,164.928,29.703
14:42:51:884,37.567,-0.169,-0.215,-0.049,14.003,164.527,30.487
14:42:51:907,37.590,-0.169,-0.151,-0.019,14.816,164.136,30.508
14:42:51:932,37.615,-0.274,-0.098,-0.003,15.989,163.363,29.641
14:42:51:959,37.642,-0.286,0.033,0.043,16.565,163.209,27.756
14:42:51:985,37.668,-0.348,0.115,0.075,16.702,163.514,26.158
14:42:52:011,37.694,-0.344,0.158,0.124,16.678,165.048,23.598
14:42:52:091,37.774,-0.363,0.191,0.234,16.565,166.974,22.156
14:42:52:12,37.803,-0.332,0.247,0.283,16.047,171.478,20.759
14:42:52:121,37.804,-0.294,0.239,0.303,15.573,175.410,20.374
14:42:52:204,37.887,-0.219,0.173,0.255,14.729,-177.536,20.526
14:42:52:204,37.887,-0.044,-0.107,0.139,13.833,-169.504,21.250
14:42:52:205,37.888,0.084,-0.271,0.091,13.201,-163.964,21.862
14:42:52:206,37.889,0.151,-0.208,0.104,12.075,-156.231,22.583
14:42:52:221,37.904,0.184,-0.072,0.111,11.348,-151.918,22.673
14:42:52:249,37.933,0.222,-0.020,0.126,10.761,-147.297,22.165
14:42:52:275,37.958,0.165,0.055,0.171,10.771,-145.126,20.912
14:42:52:3,37.983,0.128,0.070,0.164,10.919,-144.744,19.773
14:42:52:326,38.009,0.056,-0.082,0.076,11.240,-144.855,17.943
14:42:52:352,38.036,0.088,-0.176,0.035,11.357,-145.019,16.708
14:42:52:379,38.062,0.140,-0.174,0.000,11.202,-144.649,14.885
14:42:52:406,38.089,0.209,-0.148,-0.047,10.736,-143.899,12.970
14:42:52:431,38.114,0.229,-0.127,-0.042,10.387,-143.329,11.614
14:42:52:458,38.141,0.229,-0.094,-0.073,9.792,-142.743,9.520
14:42:52:483,38.167,0.231,-0.055,-0.147,9.342,-142.405,8.131
14:42:52:51,38.193,0.225,-0.086,-0.204,8.618,-142.074,6.141
14:42:52:537,38.220,0.238,-0.103,-0.265,8.101,-141.886,4.945
14:42:52:562,38.245,0.242,-0.061,-0.327,7.181,-141.848,3.388
14:42:52:618,38.301,0.264,0.037,-0.349,6.105,-142.193,2.155
14:42:52:618,38.301,0.263,0.087,-0.355,5.329,-142.844,1.542
14:42:52:641,38.324,0.252,0.136,-0.308,4.187,-144.262,1.081
14:42:52:668,38.352,0.207,0.155,-0.248,3.499,-145.414,1.173
14:42:52:723,38.407,0.169,0.253,-0.200,2.613,-147.003,1.978
14:42:52:724,38.407,0.110,0.233,-0.198,2.038,-147.950,3.468
14:42:52:776,38.459,0.119,0.126,-0.169,1.893,-148.129,4.778
14:42:52:776,38.459,0.116,0.050,-0.148,1.799,-147.837,7.051
14:42:52:886,38.569,0.136,-0.011,-0.132,1.747,-147.468,8.731
14:42:52:887,38.570,0.134,-0.057,-0.152,1.696,-147.139,11.374
14:42:52:888,38.571,0.026,0.062,-0.101,1.716,-147.571,13.183
14:42:52:889,38.572,-0.032,0.112,-0.022,2.084,-149.486,15.925
14:42:52:933,38.616,-0.147,0.167,0.102,2.890,-152.032,18.614
14:42:52:933,38.616,-0.273,-0.009,0.130,3.429,-153.395,20.318
14:42:53:015,38.698,-0.161,0.330,0.167,4.061,-154.190,22.938
14:42:53:016,38.699,-0.202,-0.086,0.142,4.935,-154.500,24.663
14:42:53:017,38.700,-0.156,-0.054,0.127,5.810,-154.516,27.185
14:42:53:035,38.718,-0.207,-0.180,0.140,6.894,-154.791,29.637
14:42:53:09,38.774,-0.189,-0.225,0.118,7.635,-155.069,30.928
14:42:53:091,38.775,-0.238,-0.291,0.118,8.869,-155.706,32.370
14:42:53:143,38.826,-0.212,-0.236,0.147,9.664,-156.043,32.928
14:42:53:144,38.827,-0.197,-0.259,0.152,10.372,-156.270,33.302
14:42:53:166,38.849,-0.178,-0.238,0.146,10.098,-156.369,31.577
14:42:53:221,38.905,-0.185,-0.238,0.148,9.795,-156.149,30.165
14:42:53:222,38.905,-0.172,-0.174,0.160,9.617,-155.252,28.978
14:42:53:245,38.928,-0.158,-0.013,0.218,9.241,-154.209,27.856
14:42:53:301,38.984,-0.137,0.077,0.241,8.549,-152.283,25.740
14:42:53:301,38.984,-0.094,0.137,0.272,8.118,-150.712,24.105
14:42:53:383,39.066,-0.044,0.214,0.266,7.348,-147.779,21.418
14:42:53:383,39.066,0.020,0.310,0.216,6.506,-144.146,18.628
14:42:53:384,39.067,0.059,0.354,0.174,6.040,-141.563,16.724
14:42:53:46,39.144,0.139,0.430,0.091,5.574,-137.724,13.813
14:42:53:461,39.145,0.168,0.277,-0.014,5.585,-135.366,11.864
14:42:53:462,39.145,0.170,-0.154,-0.133,6.032,-132.197,9.245
14:42:53:481,39.164,0.146,-0.233,-0.183,6.449,-129.198,7.250
14:42:53:508,39.191,0.149,-0.095,-0.205,6.623,-127.372,6.175
14:42:53:592,39.275,0.159,-0.013,-0.190,6.933,-124.807,5.120
14:42:53:593,39.276,0.202,0.045,-0.097,7.187,-123.252,4.860
14:42:53:594,39.277,0.198,0.085,-0.088,7.559,-120.779,5.064
14:42:53:612,39.295,0.162,-0.001,-0.103,8.019,-118.289,5.827
14:42:53:64,39.323,0.131,-0.105,-0.135,8.338,-116.559,6.446
14:42:53:695,39.378,0.137,-0.180,-0.169,8.734,-114.142,7.271
14:42:53:695,39.378,0.134,-0.200,-0.178,8.941,-112.543,7.674
14:42:53:717,39.401,0.081,-0.234,-0.175,9.163,-110.882,7.825
14:42:53:744,39.427,0.047,-0.232,-0.170,9.217,-109.789,7.558
14:42:53:831,39.514,0.062,-0.199,-0.205,9.113,-108.268,6.663
14:42:53:832,39.515,0.023,-0.130,-0.279,8.815,-106.792,5.141
14:42:53:832,39.516,0.014,-0.082,-0.336,8.535,-106.034,3.841
14:42:53:833,39.517,0.013,-0.071,-0.371,8.088,-105.401,1.676
14:42:53:849,39.532,0.023,-0.042,-0.385,7.716,-105.531,0.241
14:42:53:904,39.588,0.059,0.025,-0.356,6.980,-106.100,-1.616
14:42:53:905,39.588,0.113,0.127,-0.335,6.165,-106.783,-2.821
14:42:53:957,39.641,0.136,0.166,-0.342,5.682,-107.005,-3.161
14:42:53:957,39.641,0.131,0.281,-0.332,5.029,-107.292,-3.018
14:42:53:98,39.663,0.095,0.127,-0.304,4.796,-107.023,-2.489
14:42:54:008,39.691,0.056,0.081,-0.292,4.617,-106.402,-1.100
14:42:54:061,39.744,0.011,-0.005,-0.292,4.531,-105.678,0.158
14:42:54:062,39.745,-0.040,-0.007,-0.306,4.347,-104.467,2.433
14:42:54:085,39.768,-0.060,0.026,-0.296,4.111,-103.791,5.091
14:42:54:111,39.794,-0.017,0.032,-0.240,4.041,-104.237,7.056
14:42:54:138,39.821,0.062,0.042,-0.134,4.289,-106.599,10.119
14:42:54:193,39.876,0.037,0.021,0.006,4.826,-109.247,12.152
14:42:54:194,39.877,0.068,0.166,0.180,5.982,-113.848,14.872
14:42:54:332,40.016,0.023,0.084,0.238,7.467,-117.751,16.960
14:42:54:332,40.016,-0.003,0.008,0.239,8.391,-119.476,18.152
14:42:54:332,40.016,-0.051,-0.194,0.241,9.397,-120.485,19.792
14:42:54:333,40.017,-0.077,-0.340,0.173,9.723,-120.601,20.900
14:42:54:35,40.033,-0.014,-0.260,0.113,10.241,-120.014,22.210
14:42:54:351,40.034,0.048,-0.190,0.098,10.131,-119.387,23.150
14:42:54:458,40.142,0.047,-0.170,0.129,10.117,-118.844,23.399
14:42:54:459,40.143,0.040,-0.148,0.186,10.181,-119.310,23.346
14:42:54:46,40.143,0.032,-0.154,0.181,10.203,-119.340,23.068
14:42:54:585,40.268,-0.011,-0.158,0.157,10.084,-119.652,22.426
14:42:54:638,40.322,-0.033,-0.043,0.180,9.871,-119.366,21.933
14:42:54:673,40.356,-0.011,0.033,0.199,9.392,-118.697,20.998
14:42:54:673,40.356,0.050,0.172,0.212,8.726,-117.182,19.768
14:42:54:674,40.357,0.076,0.198,0.178,8.279,-115.797,18.772
14:42:54:675,40.358,0.074,0.220,0.150,7.710,-113.366,17.061
14:42:54:698,40.381,0.091,0.319,0.109,7.338,-111.540,15.800
14:42:54:698,40.382,0.085,0.318,0.039,6.937,-108.585,13.709
14:42:54:699,40.382,0.017,0.129,-0.070,6.822,-105.435,11.610
14:42:54:7,40.383,-0.024,-0.167,-0.148,6.971,-103.234,10.371
14:42:54:716,40.399,-0.030,-0.255,-0.220,7.215,-99.823,8.972
14:42:54:741,40.424,0.013,-0.073,-0.144,7.294,-97.828,8.313
14:42:54:797,40.480,0.044,-0.034,-0.118,7.419,-95.344,7.793
14:42:54:798,40.481,0.101,0.056,-0.078,7.642,-93.150,7.951
14:42:54:82,40.503,0.098,0.075,-0.068,7.834,-91.645,8.368
14:42:54:877,40.560,0.067,-0.050,-0.072,8.250,-89.126,9.388
14:42:54:877,40.560,0.045,-0.113,-0.091,8.521,-87.277,10.168
14:42:54:899,40.582,0.030,-0.179,-0.112,8.785,-84.397,11.282
14:42:54:983,40.666,0.002,-0.198,-0.111,8.838,-82.495,11.902
14:42:54:984,40.667,-0.040,-0.197,-0.130,8.670,-79.972,12.328
14:42:54:985,40.668,-0.089,-0.175,-0.139,8.332,-78.080,12.060
14:42:55:033,40.716,-0.102,-0.168,-0.148,8.043,-77.221,11.500
14:42:55:033,40.716,-0.126,-0.165,-0.158,7.564,-75.815,10.150
14:42:55:143,40.827,-0.107,-0.153,-0.151,7.548,-75.657,9.758
14:42:55:144,40.828,-0.120,-0.116,-0.159,7.192,-74.745,8.434
14:42:55:145,40.828,-0.153,0.121,-0.223,6.258,-74.972,6.069
14:42:55:146,40.829,-0.117,0.270,-0.270,5.658,-74.491,4.526
14:42:55:161,40.844,-0.055,0.293,-0.275,4.970,-74.980,2.624
14:42:55:189,40.872,-0.053,0.366,-0.265,4.556,-74.671,1.709
14:42:55:214,40.897,-0.089,0.233,-0.230,4.243,-74.674,1.037
14:42:55:24,40.923,-0.152,0.065,-0.249,4.202,-73.825,1.100
14:42:55:266,40.949,-0.178,0.034,-0.243,4.178,-73.152,1.834
14:42:55:294,40.977,-0.132,-0.106,-0.284,4.281,-72.360,3.324
14:42:55:348,41.031,-0.036,-0.142,-0.263,4.444,-72.555,4.486
14:42:55:348,41.031,0.006,-0.062,-0.272,4.690,-73.146,6.294
14:42:55:4,41.084,0.060,-0.001,-0.194,5.002,-74.633,7.536
14:42:55:403,41.086,0.103,0.112,-0.108,5.651,-77.375,9.306
14:42:55:424,41.107,0.175,0.243,0.004,6.503,-80.021,10.941
14:42:55:45,41.133,0.166,0.119,0.032,7.158,-80.798,12.144
14:42:55:476,41.159,0.133,-0.025,-0.002,7.999,-81.219,14.326
14:42:55:53,41.213,0.130,-0.068,0.032,8.412,-80.875,16.005
14:42:55:643,41.326,0.140,-0.317,0.053,8.898,-80.302,18.803
14:42:55:644,41.327,0.182,-0.224,0.078,9.665,-80.499,21.446
14:42:55:644,41.328,0.188,-0.247,0.025,10.322,-81.268,23.001
14:42:55:645,41.329,0.230,-0.210,0.082,11.425,-82.529,24.934
14:42:55:662,41.345,0.212,-0.233,0.124,12.172,-83.602,25.927
14:42:55:687,41.370,0.200,-0.246,0.211,13.241,-85.066,26.922
14:42:55:775,41.458,0.219,-0.108,0.183,13.690,-85.676,27.300
14:42:55:776,41.459,0.233,-0.056,0.280,14.072,-86.087,27.344
14:42:55:776,41.459,0.277,0.102,0.267,13.743,-85.631,26.709
14:42:55:777,41.460,0.325,0.145,0.297,13.297,-84.889,25.930
14:42:55:793,41.476,0.336,0.118,0.243,12.548,-82.956,24.497
14:42:55:848,41.531,0.329,0.242,0.214,11.803,-81.248,23.411
14:42:55:848,41.531,0.295,0.240,0.172,10.670,-78.338,21.542
14:42:55:931,41.614,0.170,0.145,0.062,9.614,-75.270,19.485
14:42:55:932,41.615,0.085,0.073,-0.009,9.034,-73.324,17.940
14:42:55:933,41.616,-0.027,-0.196,-0.100,8.525,-70.819,15.505
14:42:56:004,41.688,-0.033,-0.024,-0.102,7.813,-67.487,11.881
14:42:56:005,41.688,-0.020,0.012,-0.109,7.557,-66.076,9.999
14:42:56:06,41.743,0.004,0.102,-0.134,7.417,-65.299,8.912
14:42:56:061,41.744,-0.015,0.097,-0.135,7.308,-64.184,7.525
14:42:56:061,41.744,-0.059,-0.042,-0.137,7.404,-63.458,6.831
14:42:56:08,41.763,-0.070,-0.169,-0.171,7.675,-62.173,6.079
14:42:56:106,41.789,-0.065,-0.243,-0.213,7.845,-61.195,5.687
14:42:56:162,41.845,-0.066,-0.221,-0.218,7.992,-59.695,5.259
14:42:56:163,41.846,-0.072,-0.144,-0.221,7.974,-58.324,4.929
14:42:56:186,41.869,-0.083,-0.111,-0.233,7.898,-57.645,4.718
14:42:56:211,41.894,-0.101,-0.089,-0.235,7.687,-56.698,4.383
14:42:56:238,41.921,-0.135,-0.100,-0.226,7.464,-56.339,4.124
14:42:56:293,41.976,-0.178,-0.114,-0.209,7.007,-55.993,3.655
14:42:56:294,41.977,-0.230,-0.075,-0.218,6.365,-56.292,3.086
14:42:56:316,42.000,-0.265,-0.050,-0.207,5.863,-56.675,2.675
14:42:56:372,42.056,-0.272,0.064,-0.227,5.016,-58.224,2.049
14:42:56:372,42.056,-0.244,0.126,-0.232,4.436,-59.420,1.712
14:42:56:395,42.078,-0.129,0.204,-0.214,3.710,-61.800,1.497
14:42:56:421,42.104,-0.098,0.344,-0.179,3.302,-63.098,1.601
14:42:56:448,42.132,-0.083,0.284,-0.141,3.023,-64.468,2.290
14:42:56:474,42.157,-0.093,0.113,-0.120,3.292,-64.839,3.741
14:42:56:5,42.183,-0.104,-0.058,-0.098,3.631,-64.700,5.137
14:42:56:526,42.209,-0.063,-0.110,-0.060,4.233,-64.726,7.840
14:42:56:553,42.236,-0.021,-0.063,-0.105,4.642,-65.229,9.782
14:42:56:578,42.261,0.036,-0.004,-0.044,5.277,-67.382,12.491
14:42:56:663,42.346,0.136,0.113,0.019,6.146,-69.456,14.714
14:42:56:664,42.347,0.174,0.102,0.055,6.772,-71.062,15.944
14:42:56:665,42.348,0.178,0.082,0.047,7.543,-71.870,17.623
14:42:56:683,42.367,0.179,0.099,-0.012,8.006,-72.249,18.757
14:42:56:798,42.481,0.182,-0.037,-0.014,8.810,-72.212,20.215
14:42:56:798,42.481,0.216,-0.148,0.062,9.885,-73.223,21.600
14:42:56:799,42.482,0.208,-0.185,0.035,10.545,-73.935,22.409
14:42:56:8,42.483,0.223,-0.215,0.036,11.551,-75.443,23.682
14:42:56:815,42.498,0.256,-0.213,0.060,12.216,-76.260,24.527
14:42:56:87,42.554,0.257,-0.259,0.168,13.286,-77.752,25.857
14:42:56:871,42.554,0.250,-0.161,0.143,13.753,-78.350,26.658
14:42:56:894,42.577,0.261,-0.118,0.191,14.160,-79.170,27.792
14:42:56:92,42.603,0.305,-0.061,0.243,14.310,-79.021,28.616
14:42:57:004,42.688,0.320,-0.022,0.263,14.211,-78.732,28.942
14:42:57:005,42.688,0.373,0.061,0.307,13.478,-77.076,28.784
14:42:57:006,42.689,0.381,0.076,0.223,12.594,-75.365,28.429
14:42:57:054,42.737,0.346,0.124,0.205,11.093,-72.060,27.514
14:42:57:054,42.738,0.346,0.249,0.214,9.493,-68.473,25.890
14:42:57:108,42.791,0.317,0.287,0.165,8.384,-65.813,24.477
14:42:57:109,42.792,0.035,0.070,0.044,6.944,-61.725,21.920
14:42:57:13,42.814,-0.186,0.004,0.086,6.311,-59.205,20.056
14:42:57:156,42.839,-0.262,-0.074,0.210,6.055,-56.005,17.298
14:42:57:182,42.866,-0.204,0.028,0.232,6.028,-52.946,14.988
14:42:57:209,42.892,-0.083,0.053,0.201,6.243,-50.899,13.984
14:42:57:236,42.919,0.162,-0.005,0.156,6.915,-46.932,13.185
14:42:57:261,42.944,0.143,-0.029,-0.013,7.456,-43.223,13.167
14:42:57:288,42.971,0.110,-0.017,-0.063,8.423,-36.721,13.884
14:42:57:313,42.997,0.070,-0.014,-0.189,9.158,-32.127,14.750
14:42:57:34,43.023,0.058,-0.050,-0.327,10.330,-25.380,16.495
14:42:57:366,43.049,-0.077,-0.072,-0.330,11.281,-19.230,18.343
14:42:57:393,43.076,-0.110,-0.017,-0.228,11.779,-15.988,19.236
14:42:57:419,43.102,-0.018,-0.095,-0.172,12.741,-12.609,19.896
14:42:57:445,43.128,0.041,-0.151,-0.201,13.359,-11.191,19.836
14:42:57:471,43.154,0.009,-0.187,-0.218,13.914,-9.142,19.114
14:42:57:497,43.181,0.012,-0.253,-0.242,14.191,-7.799,17.722
14:42:57:525,43.208,-0.011,-0.278,-0.345,14.210,-6.399,16.546
14:42:57:55,43.234,-0.105,-0.170,-0.409,13.754,-3.889,14.426
14:42:57:576,43.259,-0.200,0.068,-0.398,13.223,-2.296,12.654
14:42:57:603,43.286,-0.250,0.164,-0.411,12.359,-0.431,9.626
14:42:57:629,43.312,-0.343,0.278,-0.402,11.290,1.072,6.599
14:42:57:656,43.339,-0.400,0.250,-0.312,10.461,1.849,4.836
14:42:57:712,43.395,-0.399,-0.015,-0.182,9.120,2.701,2.985
14:42:57:712,43.395,-0.391,-0.169,-0.072,8.068,3.183,2.416
14:42:57:734,43.417,-0.409,-0.178,0.010,6.132,3.586,2.388
14:42:57:76,43.443,-0.506,-0.080,0.207,4.675,3.150,2.787
14:42:57:787,43.470,-0.605,0.007,0.386,2.400,0.273,3.849
14:42:57:813,43.496,-0.844,0.402,0.601,0.239,-8.019,5.628
14:42:57:839,43.522,-0.206,0.707,0.046,-0.645,-17.806,7.382
14:42:57:865,43.548,0.385,0.187,-0.387,0.808,-34.916,10.567
14:42:57:891,43.574,0.546,0.072,-0.049,2.993,-45.890,11.899
14:42:57:946,43.629,0.505,0.133,0.164,6.359,-57.427,12.575
14:42:57:947,43.630,0.272,-0.286,0.465,10.046,-64.129,13.931
14:42:57:97,43.653,0.208,-0.194,0.434,11.770,-65.368,15.000
14:42:57:996,43.679,0.072,-0.219,0.221,13.792,-63.802,16.979
14:42:58:024,43.707,0.148,-0.190,0.129,14.676,-61.249,19.177
14:42:58:11,43.793,0.195,-0.163,-0.015,15.200,-55.535,22.826
14:42:58:11,43.794,0.286,-0.146,-0.168,14.936,-50.955,25.238
14:42:58:111,43.795,0.346,-0.161,-0.141,14.086,-44.463,28.332
14:42:58:112,43.796,0.370,-0.212,-0.107,13.532,-39.402,30.384
14:42:58:127,43.811,0.406,-0.205,-0.056,13.375,-36.767,31.266
14:42:58:21,43.893,0.436,0.051,-0.059,12.884,-33.432,31.841
14:42:58:211,43.894,0.454,0.046,-0.026,12.509,-31.380,31.902
14:42:58:236,43.919,0.398,-0.012,-0.040,11.765,-28.183,31.557
14:42:58:236,43.919,0.399,0.149,-0.035,10.437,-24.637,30.708
14:42:58:317,44.000,0.409,0.218,-0.029,9.317,-22.239,29.688
14:42:58:318,44.001,0.233,0.139,-0.021,7.727,-18.782,27.448
14:42:58:319,44.002,-0.035,-0.138,0.064,7.021,-16.661,25.571
14:42:58:366,44.050,-0.092,-0.156,0.113,6.261,-14.118,22.512
14:42:58:367,44.050,-0.075,0.021,0.133,5.654,-12.548,19.592
14:42:58:419,44.103,0.032,0.086,0.099,5.497,-12.249,17.919
14:42:58:42,44.103,0.194,0.075,0.002,5.553,-12.371,15.961
14:42:58:472,44.155,0.167,0.070,-0.081,5.615,-11.912,15.070
14:42:58:472,44.155,0.074,-0.010,-0.094,5.718,-9.813,14.457
14:42:58:495,44.178,0.015,-0.152,-0.103,5.842,-7.677,14.378
14:42:58:55,44.233,-0.038,-0.154,-0.112,5.869,-3.567,14.511
14:42:58:551,44.234,-0.137,-0.131,-0.099,5.672,0.971,14.537
14:42:58:575,44.258,-0.189,-0.078,-0.061,5.530,3.720,14.306
14:42:58:601,44.284,-0.206,-0.073,-0.024,5.390,6.911,13.318
14:42:58:626,44.309,-0.202,-0.064,0.006,5.317,8.393,12.213
14:42:58:682,44.366,-0.194,-0.072,0.028,5.169,9.802,9.929
14:42:58:682,44.366,-0.301,-0.039,0.115,4.821,10.751,7.117
14:42:58:705,44.388,-0.359,-0.051,0.158,4.505,11.096,5.120
14:42:58:732,44.416,-0.419,0.001,0.219,3.918,10.896,2.153
14:42:58:758,44.441,-0.460,0.074,0.199,3.380,10.317,0.346
14:42:58:813,44.496,-0.489,0.108,0.171,2.373,8.506,-1.857
14:42:58:814,44.497,-0.456,0.235,0.094,1.308,6.289,-2.942
14:42:58:865,44.549,-0.389,0.280,0.085,0.685,4.603,-2.907
14:42:58:866,44.549,-0.252,0.227,0.117,0.241,2.481,-1.693
14:42:58:89,44.573,-0.216,0.137,0.175,0.329,1.676,0.046
14:42:58:915,44.598,-0.161,0.059,0.178,0.794,0.977,3.457
14:42:58:941,44.624,-0.147,0.043,0.121,1.337,0.780,6.221
14:42:58:968,44.651,-0.054,0.043,-0.027,2.526,-0.379,10.777
14:42:58:994,44.677,0.012,0.113,-0.101,4.011,-2.475,15.294
14:42:59:022,44.705,0.099,0.110,-0.134,5.329,-4.374,17.730
14:42:59:047,44.730,0.211,0.062,-0.096,7.295,-6.834,20.567
14:42:59:073,44.756,0.379,-0.118,-0.047,8.383,-7.807,22.195
14:42:59:099,44.782,0.059,0.204,-0.160,9.689,-8.464,24.485
14:42:59:125,44.808,0.309,-0.269,-0.076,11.855,-10.003,26.115
14:42:59:153,44.836,0.304,-0.318,-0.114,12.979,-10.345,27.088
14:42:59:178,44.862,0.179,-0.252,-0.150,13.649,-9.960,28.542
14:42:59:204,44.887,0.165,-0.249,-0.157,14.004,-9.743,29.304
14:42:59:23,44.913,0.234,-0.298,-0.134,14.725,-9.981,30.494
14:42:59:286,44.969,0.238,-0.278,-0.154,15.093,-10.137,31.161
14:42:59:286,44.969,0.255,-0.256,-0.139,15.472,-10.267,31.871
14:42:59:309,44.992,0.319,-0.173,-0.105,15.553,-10.363,31.968
14:42:59:365,45.048,0.340,-0.101,-0.076,15.330,-10.203,31.643
14:42:59:365,45.048,0.379,0.070,-0.140,14.311,-9.314,30.616
14:42:59:387,45.070,0.335,0.067,-0.200,13.644,-8.182,29.559
14:42:59:415,45.099,0.358,0.153,-0.244,12.394,-6.232,27.452
14:42:59:441,45.124,0.299,0.315,-0.251,10.893,-3.616,24.792
14:42:59:468,45.151,0.286,0.395,-0.223,9.937,-1.493,22.758
14:42:59:522,45.205,0.098,0.089,-0.103,8.818,2.425,19.753
14:42:59:523,45.206,-0.051,-0.168,-0.002,8.184,5.659,18.014
14:42:59:546,45.230,-0.154,-0.201,0.154,7.156,10.992,16.033
14:42:59:571,45.254,-0.141,-0.033,0.199,6.311,15.320,14.421
14:42:59:597,45.281,-0.106,0.004,0.139,6.033,17.167,13.569
14:42:59:653,45.336,-0.098,0.070,-0.023,5.820,19.175,12.661
14:42:59:654,45.337,-0.099,0.084,-0.071,5.745,20.373,12.365
14:42:59:677,45.360,-0.119,0.018,-0.051,5.779,22.504,12.380
14:42:59:702,45.385,-0.104,-0.071,-0.015,5.877,24.006,12.617
14:42:59:729,45.412,-0.116,-0.123,0.020,5.992,26.544,13.071
14:42:59:784,45.468,-0.162,-0.150,0.086,6.012,28.979,13.382
14:42:59:785,45.468,-0.169,-0.159,0.109,6.005,30.339,13.359
14:42:59:807,45.490,-0.161,-0.132,0.130,5.943,31.613,12.908
14:42:59:834,45.517,-0.150,-0.070,0.128,5.833,32.263,12.357
14:42:59:889,45.572,-0.150,-0.059,0.134,5.594,32.522,11.232
14:42:59:89,45.573,-0.177,-0.056,0.148,5.306,32.602,9.894
14:42:59:912,45.596,-0.190,-0.055,0.155,5.088,32.037,8.981
14:42:59:941,45.624,-0.222,-0.011,0.154,4.758,31.669,8.558
14:42:59:967,45.650,-0.259,0.107,0.137,4.432,30.858,7.758
14:43:00:021,45.704,-0.252,0.184,0.113,3.924,29.890,6.863
14:43:00:022,45.705,-0.226,0.297,0.088,3.399,28.583,6.497
14:43:00:044,45.727,-0.183,0.328,0.077,3.100,27.761,6.565
14:43:00:072,45.755,-0.151,0.225,0.097,2.823,26.498,7.241
14:43:00:096,45.780,-0.143,0.158,0.142,2.687,26.208,8.045
14:43:00:123,45.806,-0.117,0.032,0.180,2.520,25.459,9.753
14:43:00:149,45.832,-0.157,-0.024,0.119,2.568,24.290,11.820
14:43:00:175,45.858,-0.141,-0.004,0.032,2.838,22.894,13.394
14:43:00:203,45.886,-0.027,-0.016,-0.070,3.774,19.709,15.935
14:43:00:228,45.912,0.080,0.035,-0.183,4.671,17.389,17.571
14:43:00:254,45.937,0.127,0.030,-0.176,6.102,14.055,19.803
14:43:00:28,45.963,0.177,0.012,-0.191,6.892,12.647,21.178
14:43:00:306,45.989,0.147,0.077,-0.135,7.943,10.990,23.237
14:43:00:334,46.017,0.181,-0.086,-0.138,9.093,10.078,25.228
14:43:00:359,46.043,0.191,-0.126,-0.153,9.846,9.340,26.558
14:43:00:385,46.068,0.155,-0.211,-0.166,10.887,8.603,28.530
14:43:00:411,46.094,0.200,-0.274,-0.157,11.605,8.022,29.755
14:43:00:44,46.123,0.143,-0.210,-0.179,12.511,7.372,31.418
14:43:00:441,46.124,0.216,-0.270,-0.195,13.740,6.354,32.757
14:43:00:493,46.176,0.237,-0.254,-0.199,14.455,5.835,33.378
14:43:00:494,46.177,0.263,-0.221,-0.182,15.223,5.198,33.860
14:43:00:575,46.258,0.313,-0.125,-0.206,15.471,5.151,33.841
14:43:00:575,46.258,0.363,-0.011,-0.250,15.327,4.958,33.248
14:43:00:576,46.259,0.353,0.065,-0.299,14.461,6.102,32.052
14:43:00:625,46.308,0.292,0.062,-0.304,13.716,6.944,31.014
14:43:00:626,46.309,0.272,0.112,-0.291,12.503,9.022,29.186
14:43:00:648,46.331,0.224,0.142,-0.236,11.532,10.580,27.796
14:43:00:674,46.357,0.165,0.157,-0.192,10.049,13.312,25.500
14:43:00:7,46.383,0.019,-0.035,-0.090,9.127,15.192,23.833
14:43:00:728,46.411,-0.050,-0.115,-0.025,7.971,18.059,21.346
14:43:00:754,46.437,-0.075,0.016,0.060,6.857,20.362,18.933
14:43:00:806,46.489,-0.043,0.105,0.108,5.645,21.615,15.191
14:43:00:86,46.543,-0.046,0.142,0.116,5.286,21.602,13.903
14:43:00:861,46.544,-0.051,0.084,0.083,4.879,20.976,12.276
14:43:00:884,46.567,-0.068,-0.103,0.099,4.772,20.924,11.175
14:43:00:91,46.593,-0.122,-0.139,0.108,4.739,21.478,10.623
14:43:00:936,46.619,-0.172,-0.145,0.146,4.703,22.554,10.003
14:43:00:994,46.677,-0.214,-0.142,0.153,4.768,23.231,9.622
14:43:00:994,46.677,-0.230,-0.121,0.154,4.942,23.363,8.889
14:43:01:015,46.698,-0.242,-0.053,0.149,5.148,22.639,7.928
14:43:01:041,46.725,-0.203,-0.042,0.137,5.288,21.439,7.222
14:43:01:126,46.809,-0.205,-0.083,0.117,5.458,19.943,6.234
14:43:01:127,46.810,-0.213,-0.123,0.104,5.503,18.747,5.676
14:43:01:128,46.811,-0.244,-0.131,0.077,5.445,17.673,5.089
14:43:01:146,46.829,-0.267,-0.084,0.067,5.309,16.919,4.899
14:43:01:173,46.856,-0.287,0.078,0.018,4.980,16.106,4.918
14:43:01:228,46.911,-0.261,0.320,-0.013,4.522,15.137,5.400
14:43:01:229,46.912,-0.226,0.422,-0.040,4.203,14.553,6.010
14:43:01:253,46.936,-0.158,0.388,-0.038,3.898,13.730,7.415
14:43:01:278,46.962,-0.135,0.246,-0.022,3.783,13.297,8.646
14:43:01:305,46.988,-0.134,0.210,-0.018,3.602,12.598,10.768
14:43:01:359,47.042,-0.115,0.091,0.011,3.550,11.411,13.099
14:43:01:36,47.043,-0.124,-0.027,0.002,3.709,10.038,14.733
14:43:01:383,47.066,-0.055,-0.105,-0.073,4.381,6.713,17.264
14:43:01:409,47.092,0.081,-0.173,-0.115,5.180,3.664,18.844
14:43:01:462,47.145,0.075,-0.001,-0.171,6.583,-1.257,21.110
14:43:01:549,47.232,0.200,0.013,-0.179,7.862,-4.451,22.045
14:43:01:549,47.232,0.220,0.092,-0.191,9.687,-8.975,23.272
14:43:01:55,47.233,0.281,0.058,-0.238,11.718,-13.164,24.202
14:43:01:551,47.234,0.384,-0.096,-0.147,13.119,-15.595,24.564
14:43:01:595,47.279,0.287,-0.185,-0.160,14.464,-17.527,25.338
14:43:01:596,47.279,0.244,-0.223,-0.166,15.040,-18.009,26.074
14:43:01:619,47.302,0.237,-0.298,-0.153,15.646,-18.412,27.532
14:43:01:645,47.328,0.223,-0.272,-0.159,15.970,-18.285,29.063
14:43:01:671,47.354,0.210,-0.275,-0.178,16.162,-18.273,29.873
14:43:01:698,47.381,0.217,-0.259,-0.176,16.516,-18.702,30.625
14:43:01:725,47.408,0.277,-0.246,-0.103,16.730,-19.149,30.750
14:43:01:75,47.433,0.279,-0.193,-0.097,16.625,-19.586,30.450
14:43:01:806,47.489,0.352,-0.064,-0.094,15.953,-19.446,29.632
14:43:01:806,47.489,0.368,0.009,-0.111,15.245,-18.968,28.785
14:43:01:831,47.514,0.358,0.126,-0.214,14.001,-17.568,27.237
14:43:01:856,47.539,0.360,0.178,-0.217,13.175,-16.483,25.984
14:43:01:882,47.565,0.335,0.316,-0.209,11.751,-14.328,23.748
14:43:01:907,47.591,0.298,0.415,-0.196,10.693,-12.700,22.050
14:43:01:934,47.617,0.127,0.268,-0.069,9.285,-10.014,19.354
14:43:01:962,47.645,-0.068,0.028,0.087,8.179,-7.210,16.643
14:43:01:987,47.670,-0.164,-0.088,0.156,7.618,-5.466,14.910
14:43:02:013,47.696,-0.239,-0.042,0.246,6.947,-3.637,12.534
14:43:02:069,47.752,-0.159,0.099,0.159,6.579,-3.174,11.115
14:43:02:07,47.753,-0.107,0.075,0.086,6.447,-3.623,9.520
14:43:02:092,47.776,0.024,0.047,-0.022,6.603,-3.834,8.975
14:43:02:118,47.801,0.066,0.029,-0.030,7.044,-3.490,8.956
14:43:02:144,47.827,0.007,-0.061,-0.030,7.745,-1.379,9.942
14:43:02:17,47.853,-0.038,-0.137,-0.047,8.245,0.714,10.998
14:43:02:197,47.880,-0.110,-0.163,-0.024,8.911,4.379,12.824
14:43:02:223,47.906,-0.158,-0.196,0.013,9.380,8.000,14.480
14:43:02:279,47.962,-0.165,-0.189,0.034,9.565,10.012,15.308
14:43:02:279,47.962,-0.132,-0.153,0.041,9.683,12.095,15.929
14:43:02:331,48.014,-0.102,-0.131,0.044,9.698,12.837,15.890
14:43:02:331,48.015,-0.052,-0.138,0.022,9.640,13.228,15.329
14:43:02:354,48.037,-0.074,-0.160,0.008,9.490,13.225,14.717
14:43:02:38,48.063,-0.095,-0.153,-0.010,9.100,13.025,13.614
14:43:02:437,48.120,-0.124,-0.135,-0.005,8.491,12.559,12.415
14:43:02:437,48.120,-0.135,0.034,-0.035,7.969,12.447,11.587
14:43:02:458,48.142,-0.141,0.151,-0.033,7.061,12.119,10.327
14:43:02:485,48.168,-0.144,0.187,-0.042,6.472,11.851,9.573
14:43:02:512,48.196,-0.122,0.275,-0.033,5.632,11.389,8.739
14:43:02:568,48.251,-0.106,0.289,0.008,4.833,11.313,8.349
14:43:02:568,48.251,-0.111,0.167,0.044,4.438,11.464,8.385
14:43:02:59,48.274,-0.145,-0.009,0.059,3.957,12.233,8.917
14:43:02:616,48.299,-0.169,-0.009,0.117,3.551,12.950,9.535
14:43:02:643,48.327,-0.166,-0.047,0.138,3.006,13.583,10.820
14:43:02:757,48.440,-0.131,0.000,0.088,2.698,12.962,12.329
14:43:02:757,48.440,-0.117,0.052,0.037,2.706,11.762,13.378
14:43:02:757,48.441,0.010,0.172,-0.036,3.132,8.934,15.101
14:43:02:758,48.442,0.119,0.184,-0.057,3.670,6.641,16.295
14:43:02:803,48.486,0.178,0.136,-0.046,4.986,3.037,17.908
14:43:02:804,48.487,0.250,-0.013,-0.033,6.429,0.304,19.352
14:43:02:858,48.541,0.243,-0.059,-0.035,7.178,-0.307,20.510
14:43:02:859,48.542,0.097,-0.110,-0.087,7.897,0.403,22.833
14:43:02:86,48.543,0.289,-0.205,-0.046,8.775,0.733,24.671
14:43:02:879,48.562,0.184,-0.239,-0.041,9.532,1.517,27.276
14:43:02:932,48.615,0.155,-0.168,-0.085,9.864,2.398,28.713
14:43:02:99,48.673,0.222,-0.200,-0.080,10.576,2.999,30.375
14:43:02:99,48.673,0.222,-0.242,-0.080,11.266,3.547,31.285
14:43:02:991,48.674,0.210,-0.237,-0.065,11.550,4.030,31.445
14:43:03:037,48.720,0.265,-0.141,-0.083,11.577,5.048,31.002
14:43:03:067,48.750,0.290,-0.028,-0.109,11.226,6.030,30.286
14:43:03:067,48.750,0.318,0.159,-0.236,10.574,7.998,28.599
14:43:03:089,48.772,0.264,0.168,-0.265,9.784,10.586,26.528
14:43:03:173,48.856,0.214,0.233,-0.284,9.086,12.712,25.053
14:43:03:174,48.857,0.206,0.476,-0.291,7.766,16.389,22.634
14:43:03:175,48.858,0.012,0.151,-0.140,7.089,19.087,20.987
14:43:03:223,48.906,-0.068,-0.078,-0.035,6.612,23.095,18.694
14:43:03:224,48.907,-0.144,-0.287,0.107,6.365,25.512,17.380
14:43:03:246,48.929,-0.138,-0.175,0.114,6.120,28.287,15.779
14:43:03:331,49.014,-0.079,-0.037,-0.023,6.160,29.777,14.554
14:43:03:331,49.015,-0.072,0.048,-0.095,6.210,30.553,14.137
14:43:03:332,49.016,-0.059,0.186,-0.162,6.198,31.892,14.127
14:43:03:351,49.034,-0.039,0.197,-0.166,6.193,33.013,14.504
14:43:03:407,49.090,-0.030,0.001,-0.116,6.242,35.083,15.406
14:43:03:407,49.090,-0.056,-0.155,-0.010,6.116,37.621,16.267
14:43:03:459,49.143,-0.092,-0.236,0.052,5.921,39.263,16.659
14:43:03:46,49.143,-0.109,-0.255,0.094,5.520,41.364,16.786
14:43:03:483,49.166,-0.080,-0.252,0.104,5.223,42.245,16.494
14:43:03:509,49.192,-0.019,-0.210,0.099,4.736,42.859,15.470
14:43:03:537,49.220,-0.003,-0.122,0.140,4.122,42.965,13.900
14:43:03:562,49.245,0.002,-0.055,0.176,3.655,42.851,12.617
14:43:03:648,49.331,-0.002,-0.046,0.239,2.951,42.533,10.558
14:43:03:648,49.331,-0.005,-0.015,0.258,2.475,42.200,9.193
14:43:03:648,49.331,-0.004,0.032,0.264,1.733,41.544,7.314
14:43:03:666,49.349,-0.040,0.142,0.211,1.254,41.010,6.270
14:43:03:693,49.376,-0.052,0.140,0.173,0.769,40.590,5.207
14:43:03:719,49.402,-0.061,0.181,0.104,0.506,41.041,4.879
14:43:03:773,49.457,-0.094,0.250,0.122,0.400,41.998,5.089
14:43:03:801,49.484,-0.063,0.241,0.133,0.358,43.973,5.950
14:43:03:801,49.484,-0.066,0.086,0.152,0.476,45.696,6.825
14:43:03:824,49.507,-0.102,-0.185,0.173,0.680,48.560,8.558
14:43:03:85,49.533,-0.094,-0.171,0.204,0.588,51.281,10.550
14:43:03:905,49.588,-0.081,-0.076,0.179,0.390,52.549,11.923
14:43:03:906,49.589,-0.057,0.116,0.094,0.140,53.446,13.933
14:43:03:929,49.612,-0.048,0.208,-0.054,0.109,53.284,15.243
14:43:03:983,49.666,-0.012,0.190,-0.106,0.285,52.542,17.233
14:43:04:039,49.722,0.057,0.170,-0.110,0.587,51.579,19.277
14:43:04:04,49.723,0.115,0.049,-0.094,0.909,50.899,20.726
14:43:04:041,49.724,0.153,-0.081,-0.110,1.554,49.795,23.052
14:43:04:062,49.745,0.130,-0.074,-0.098,2.043,49.039,24.564
14:43:04:087,49.770,0.187,-0.205,-0.218,3.223,47.259,26.953
14:43:04:142,49.825,0.226,-0.164,-0.210,4.388,45.704,28.427
14:43:04:142,49.825,0.193,-0.198,-0.190,5.841,44.068,30.065
14:43:04:223,49.906,0.209,-0.208,-0.217,6.618,43.679,31.287
14:43:04:224,49.907,0.236,-0.267,-0.242,6.967,43.729,31.861
14:43:04:225,49.908,0.245,-0.288,-0.206,6.790,44.745,32.160
14:43:04:271,49.954,0.206,-0.159,-0.172,6.078,46.134,31.994
14:43:04:328,50.012,0.187,-0.024,-0.228,4.410,48.943,31.203
14:43:04:329,50.012,0.128,0.030,-0.202,2.826,52.220,29.431
14:43:04:33,50.013,0.076,0.088,-0.215,2.033,54.281,27.715
14:43:04:378,50.061,0.004,0.224,-0.165,1.204,57.410,24.636
14:43:04:378,50.062,0.004,0.355,-0.139,0.871,59.282,22.346
14:43:04:401,50.084,0.012,0.460,-0.111,0.837,61.422,18.592
14:43:04:428,50.111,-0.029,0.308,0.009,0.995,63.279,14.705
14:43:04:455,50.138,-0.050,0.073,0.125,1.256,64.724,12.394
14:43:04:48,50.163,-0.034,-0.242,0.242,1.728,66.821,9.575
14:43:04:506,50.190,-0.007,-0.227,0.240,2.002,68.154,8.158
14:43:04:533,50.216,-0.056,-0.095,0.174,2.298,69.589,6.808
14:43:04:559,50.242,-0.116,0.004,0.113,2.598,71.364,6.533
14:43:04:586,50.269,-0.152,0.076,0.099,2.775,72.731,6.946
14:43:04:612,50.295,-0.119,0.079,0.063,2.970,75.074,8.318
14:43:04:637,50.321,-0.085,-0.021,0.055,3.085,76.807,9.578
14:43:04:664,50.347,-0.057,-0.120,0.079,3.153,79.689,11.666
14:43:04:691,50.375,-0.065,-0.162,0.112,3.077,81.620,12.976
14:43:04:747,50.430,-0.046,-0.188,0.126,2.745,84.441,14.608
14:43:04:747,50.430,0.012,-0.231,0.119,2.246,86.540,15.557
14:43:04:769,50.452,0.063,-0.233,0.108,1.785,87.873,15.739
14:43:04:795,50.478,0.276,-0.225,0.076,0.907,88.844,15.394
14:43:04:822,50.506,0.657,0.056,-0.082,0.025,89.335,14.895
14:43:04:877,50.561,0.460,-0.036,0.053,-1.175,90.556,14.009
14:43:04:878,50.561,0.200,-0.088,0.174,-1.602,92.293,12.411
14:43:04:9,50.583,0.090,-0.012,0.301,-1.680,92.615,11.316
14:43:04:988,50.671,0.027,0.040,0.261,-1.458,91.016,9.725
14:43:04:988,50.671,0.040,0.106,0.122,-1.189,88.919,8.577
14:43:04:989,50.672,0.079,0.216,0.076,-0.944,86.066,7.126
14:43:04:989,50.673,0.127,0.331,0.060,-0.852,85.160,6.264
14:43:05:032,50.715,0.120,0.304,0.085,-0.757,85.697,6.113
14:43:05:058,50.742,0.095,0.108,0.165,-0.572,87.740,6.482
14:43:05:116,50.799,0.046,-0.063,0.235,-0.528,89.549,7.145
14:43:05:116,50.800,0.043,-0.126,0.243,-0.516,91.850,8.604
14:43:05:117,50.801,0.011,-0.148,0.252,-0.486,92.758,10.404
14:43:05:136,50.819,-0.010,-0.079,0.210,-0.363,92.204,11.688
14:43:05:163,50.846,-0.071,0.023,0.099,0.130,90.302,13.583
14:43:05:189,50.872,-0.091,0.098,0.038,0.606,88.487,14.812
14:43:05:216,50.899,-0.126,0.189,-0.074,1.551,85.787,16.541
14:43:05:268,50.951,-0.121,0.179,-0.118,2.304,84.157,17.654
14:43:05:297,50.980,-0.104,0.082,-0.157,3.432,82.444,19.325
14:43:05:298,50.981,-0.055,0.052,-0.208,4.632,80.805,21.238
14:43:05:32,51.003,-0.020,-0.137,-0.259,5.427,79.929,22.483
14:43:05:349,51.032,-0.037,-0.026,-0.170,5.753,80.673,24.486
14:43:05:374,51.057,-0.048,-0.175,-0.151,5.893,81.299,25.896
14:43:05:4,51.083,-0.058,-0.251,-0.183,6.227,82.485,28.044
14:43:05:425,51.109,-0.092,-0.255,-0.167,6.442,83.087,29.981
14:43:05:453,51.136,-0.082,-0.273,-0.173,6.694,83.366,30.971
14:43:05:478,51.161,-0.034,-0.297,-0.249,7.085,83.078,31.680
14:43:05:504,51.187,-0.039,-0.169,-0.211,7.019,83.574,31.593
14:43:05:531,51.214,-0.073,-0.035,-0.236,6.931,83.641,30.522
14:43:05:557,51.240,-0.150,0.046,-0.316,6.677,84.046,28.395
14:43:05:611,51.295,-0.203,0.107,-0.283,6.246,84.745,26.513
14:43:05:612,51.296,-0.214,0.244,-0.222,5.310,86.540,23.224
14:43:05:635,51.318,-0.198,0.385,-0.154,4.627,87.884,20.822
14:43:05:664,51.347,-0.158,0.331,-0.042,3.786,89.897,17.009
14:43:05:689,51.373,-0.068,0.151,0.122,3.359,91.042,14.509
14:43:05:715,51.398,0.024,-0.052,0.196,2.917,92.217,11.075
14:43:05:74,51.424,0.125,-0.260,0.278,2.529,92.332,8.407
14:43:05:766,51.449,0.159,-0.197,0.284,2.166,91.856,6.958
14:43:05:793,51.476,0.150,-0.053,0.207,1.506,90.255,5.439
14:43:05:848,51.531,0.088,0.085,0.144,1.043,89.089,4.996
14:43:05:849,51.532,0.082,0.141,0.133,0.386,87.814,5.123
14:43:05:871,51.555,0.086,0.084,0.087,0.073,87.551,6.002
14:43:05:898,51.581,0.104,-0.057,0.097,0.080,87.887,6.880
14:43:05:923,51.607,0.202,-0.166,0.038,0.027,89.527,8.289
14:43:05:952,51.635,0.277,-0.067,0.070,-0.098,91.115,9.329
14:43:05:976,51.659,0.179,-0.167,-0.036,0.283,92.989,10.957
14:43:06:004,51.687,0.082,-0.205,-0.014,0.817,93.249,11.653
14:43:06:031,51.714,0.030,-0.200,0.054,1.591,93.295,12.124
14:43:06:084,51.767,0.028,-0.168,0.039,1.983,93.040,11.890
14:43:06:085,51.768,0.022,-0.168,0.038,2.042,93.156,11.433
14:43:06:108,51.792,0.060,-0.152,0.063,1.939,93.807,10.694
14:43:06:135,51.818,0.074,-0.131,0.109,1.655,94.319,10.033
14:43:06:161,51.844,0.075,-0.010,0.182,1.016,95.302,8.900
14:43:06:186,51.870,0.070,0.160,0.238,0.256,95.743,7.518
14:43:06:213,51.896,0.036,0.328,0.232,-0.233,95.580,6.529
14:43:06:238,51.922,0.002,0.390,0.243,-0.978,94.996,5.217
14:43:06:265,51.948,0.029,0.323,0.244,-1.339,94.583,4.606
14:43:06:293,51.976,0.129,0.192,0.177,-1.730,93.595,4.316
14:43:06:318,52.001,0.218,-0.060,0.207,-1.882,92.716,5.092
14:43:06:344,52.027,0.172,-0.086,0.106,-1.780,91.562,6.360
14:43:06:37,52.053,0.098,-0.093,0.038,-1.458,89.161,8.694
14:43:06:397,52.080,0.031,-0.069,-0.021,-0.943,87.283,10.261
14:43:06:423,52.107,0.001,-0.012,-0.003,0.101,84.859,12.566
14:43:06:449,52.132,-0.074,0.144,-0.099,0.797,84.002,14.036
14:43:06:475,52.158,-0.065,0.190,-0.150,1.875,83.653,16.022
14:43:06:501,52.184,-0.076,0.068,-0.138,2.851,84.416,18.223
