Time,Second,AccelerationX,AccelerationY,AccelerationZ,EulerAnglesX,EulerAnglesY,EulerAnglesZ
13:16:07:172,0.000,-0.016,0.002,0.015,5.095,0.052,-18.857
13:16:07:173,0.001,-0.010,0.002,0.011,5.125,0.093,-18.800
13:16:07:199,0.028,-0.006,0.001,0.015,5.139,0.109,-18.768
13:16:07:199,0.028,-0.006,0.000,0.004,5.159,0.136,-18.746
13:16:07:285,0.113,-0.008,-0.002,0.016,5.173,0.152,-18.742
13:16:07:285,0.113,-0.012,0.001,0.002,5.199,0.194,-18.731
13:16:07:285,0.114,-0.021,-0.001,0.014,5.230,0.265,-18.704
13:16:07:285,0.114,-0.017,0.003,0.008,5.260,0.305,-18.661
13:16:07:31,0.138,-0.015,0.001,0.010,5.285,0.361,-18.588
13:16:07:31,0.138,-0.011,-0.002,-0.004,5.300,0.403,-18.544
13:16:07:31,0.138,-0.012,-0.003,-0.007,5.316,0.472,-18.461
13:16:07:31,0.139,-0.016,-0.001,-0.007,5.320,0.539,-18.379
13:16:07:409,0.237,-0.013,0.001,-0.008,5.304,0.573,-18.320
13:16:07:409,0.238,-0.005,0.007,-0.007,5.286,0.551,-18.235
13:16:07:438,0.266,-0.006,-0.001,0.000,5.269,0.517,-18.184
13:16:07:438,0.266,0.004,0.004,-0.007,5.243,0.446,-18.121
13:16:07:438,0.266,-0.001,0.002,0.001,5.214,0.379,-18.057
13:16:07:564,0.392,-0.011,0.000,0.005,5.201,0.347,-18.022
13:16:07:619,0.448,-0.017,0.007,0.011,5.204,0.338,-17.962
13:16:07:62,0.448,-0.025,0.025,0.021,5.227,0.340,-17.849
13:16:07:757,0.585,-0.028,0.003,0.030,5.278,0.348,-17.742
13:16:07:757,0.585,-0.020,-0.007,0.038,5.377,0.329,-17.603
13:16:07:757,0.585,-0.008,-0.001,0.017,5.430,0.289,-17.536
13:16:07:757,0.586,-0.015,-0.003,0.022,5.509,0.267,-17.443
13:16:07:854,0.682,-0.019,0.001,0.021,5.580,0.264,-17.365
13:16:07:855,0.683,-0.018,0.005,0.031,5.699,0.259,-17.258
13:16:07:886,0.714,-0.015,-0.003,0.021,5.794,0.224,-17.183
13:16:07:887,0.715,-0.011,-0.007,0.020,5.844,0.185,-17.170
13:16:07:888,0.716,-0.005,-0.001,0.003,5.915,0.143,-17.165
13:16:07:889,0.717,-0.006,0.000,0.008,5.954,0.134,-17.164
13:16:07:983,0.812,0.000,-0.002,0.007,5.991,0.086,-17.168
13:16:08:013,0.842,0.001,0.002,0.013,6.025,0.040,-17.212
13:16:08:013,0.842,-0.001,-0.002,0.005,6.048,0.023,-17.253
13:16:08:038,0.866,-0.005,-0.005,0.012,6.079,0.012,-17.322
13:16:08:038,0.867,-0.005,-0.005,-0.001,6.108,0.012,-17.366
13:16:08:141,0.969,-0.005,0.003,-0.003,6.133,0.002,-17.414
13:16:08:176,1.004,-0.005,-0.002,-0.016,6.149,-0.005,-17.439
13:16:08:176,1.005,-0.004,-0.006,-0.009,6.141,-0.012,-17.461
13:16:08:177,1.006,0.008,-0.008,-0.018,6.124,-0.025,-17.496
13:16:08:178,1.006,0.005,0.004,-0.016,6.109,-0.024,-17.510
13:16:08:307,1.136,0.004,0.004,-0.016,6.094,-0.004,-17.504
13:16:08:307,1.136,0.006,0.004,0.000,6.102,0.027,-17.500
13:16:08:308,1.136,-0.005,0.004,-0.004,6.105,0.066,-17.501
13:16:08:308,1.137,-0.003,0.014,-0.017,6.106,0.098,-17.481
13:16:08:379,1.208,0.000,-0.007,-0.003,6.103,0.147,-17.446
13:16:08:38,1.209,0.004,0.001,-0.005,6.090,0.226,-17.389
13:16:08:535,1.364,0.009,-0.003,0.008,6.067,0.293,-17.323
13:16:08:59,1.418,0.011,-0.007,0.014,6.070,0.334,-17.289
13:16:08:59,1.418,0.013,-0.001,0.002,6.086,0.365,-17.256
13:16:08:669,1.497,0.023,0.023,-0.015,6.097,0.361,-17.232
13:16:08:669,1.497,0.019,0.015,-0.004,6.128,0.372,-17.205
13:16:08:799,1.627,0.026,-0.001,-0.004,6.173,0.417,-17.169
13:16:08:8,1.628,0.017,-0.001,0.011,6.217,0.461,-17.154
13:16:08:832,1.660,0.019,-0.025,0.026,6.338,0.623,-17.101
13:16:08:832,1.660,-0.027,-0.074,0.037,6.431,0.741,-17.035
13:16:08:833,1.661,0.014,-0.108,0.026,6.542,0.651,-16.967
13:16:08:859,1.688,-0.028,0.083,0.053,6.635,0.578,-16.771
13:16:08:859,1.688,-0.068,0.154,0.111,6.654,0.408,-16.464
13:16:08:859,1.688,-0.007,0.071,0.143,6.566,-0.068,-16.274
13:16:08:86,1.689,0.038,0.018,0.146,6.332,-1.286,-16.108
13:16:08:956,1.785,0.091,-0.067,0.110,6.149,-2.109,-16.076
13:16:08:984,1.812,0.097,-0.091,0.104,5.997,-3.265,-16.085
13:16:08:985,1.813,0.074,-0.113,0.063,6.037,-4.228,-16.092
13:16:09:015,1.843,0.056,-0.079,0.041,6.094,-4.941,-16.021
13:16:09:016,1.844,0.085,-0.044,0.036,6.033,-6.437,-15.771
13:16:09:017,1.845,0.106,-0.029,0.059,5.873,-7.578,-15.569
13:16:09:018,1.846,0.111,-0.018,0.097,5.565,-8.913,-15.231
13:16:09:14,1.968,0.096,-0.025,0.128,5.278,-9.914,-14.880
13:16:09:141,1.969,0.119,-0.047,0.133,5.093,-10.701,-14.680
13:16:09:251,2.080,0.154,-0.053,0.145,4.764,-12.154,-14.427
13:16:09:252,2.080,0.156,-0.005,0.138,4.539,-12.965,-14.262
13:16:09:253,2.081,0.153,0.010,0.149,4.174,-14.023,-14.064
13:16:09:253,2.082,0.140,0.047,0.194,3.815,-14.860,-13.970
13:16:09:278,2.106,0.118,0.114,0.184,3.583,-15.357,-13.959
13:16:09:278,2.106,0.107,0.173,0.193,3.286,-16.071,-14.002
13:16:09:279,2.107,0.042,0.313,0.168,3.112,-16.170,-14.064
13:16:09:28,2.108,0.052,0.208,0.105,3.047,-16.296,-14.234
13:16:09:358,2.187,0.072,-0.050,0.101,3.034,-15.715,-14.724
13:16:09:359,2.187,0.018,-0.100,0.118,3.003,-15.107,-15.283
13:16:09:359,2.187,-0.003,-0.136,0.066,3.094,-13.958,-16.163
13:16:09:36,2.188,-0.001,-0.162,0.010,3.380,-12.951,-16.729
13:16:09:385,2.213,0.004,-0.040,-0.085,3.959,-11.293,-17.590
13:16:09:385,2.213,-0.016,0.062,-0.129,4.363,-10.623,-18.025
13:16:09:385,2.213,-0.055,0.075,-0.172,4.993,-9.745,-18.360
13:16:09:385,2.214,-0.050,0.121,-0.159,5.542,-9.263,-18.407
13:16:09:41,2.238,-0.025,0.006,-0.132,5.777,-9.016,-18.427
13:16:09:41,2.239,-0.055,-0.056,-0.115,5.923,-8.468,-18.657
13:16:09:41,2.239,-0.020,-0.049,-0.135,5.901,-8.281,-19.079
13:16:09:411,2.240,0.008,-0.078,-0.126,5.813,-7.858,-19.403
13:16:09:508,2.336,-0.051,-0.121,-0.106,5.584,-7.515,-19.863
13:16:09:509,2.337,-0.076,-0.105,-0.088,5.332,-7.305,-20.185
13:16:09:532,2.361,-0.073,-0.078,-0.066,4.801,-7.534,-20.621
13:16:09:692,2.520,-0.041,-0.047,-0.044,4.410,-7.830,-20.819
13:16:09:692,2.521,-0.027,-0.065,-0.008,3.769,-8.240,-20.892
13:16:09:829,2.657,0.005,-0.082,0.074,3.180,-8.460,-20.757
13:16:09:83,2.658,0.069,-0.043,0.116,2.797,-8.765,-20.568
13:16:09:831,2.659,0.074,-0.002,0.132,2.342,-9.237,-20.060
13:16:09:831,2.659,0.119,0.077,0.142,2.145,-9.728,-19.555
13:16:09:954,2.783,0.150,0.130,0.109,2.157,-10.568,-18.565
13:16:09:955,2.783,0.150,0.158,0.076,2.562,-10.851,-17.387
13:16:09:987,2.815,0.179,0.222,0.073,3.002,-10.742,-16.570
13:16:09:987,2.816,0.145,0.361,0.072,3.883,-10.183,-15.322
13:16:09:988,2.817,0.092,0.438,0.039,4.528,-9.797,-14.532
13:16:09:989,2.818,0.074,0.396,-0.007,5.521,-9.170,-13.782
13:16:10:086,2.914,0.007,0.010,0.018,6.245,-8.591,-13.899
13:16:10:086,2.914,0.019,-0.239,0.064,6.473,-8.622,-14.574
13:16:10:216,3.045,0.054,-0.262,0.016,6.649,-8.846,-16.310
13:16:10:249,3.078,-0.016,-0.214,-0.025,6.816,-9.036,-17.825
13:16:10:25,3.078,-0.140,-0.129,-0.048,7.205,-9.166,-20.071
13:16:10:25,3.079,-0.295,-0.102,-0.119,7.682,-9.999,-21.933
13:16:10:251,3.080,-0.304,-0.108,-0.202,7.870,-11.583,-22.910
13:16:10:355,3.183,-0.281,-0.152,-0.155,7.514,-15.064,-23.808
13:16:10:355,3.183,-0.147,-0.147,0.011,6.900,-17.345,-23.913
13:16:10:356,3.184,-0.101,-0.198,0.089,5.802,-19.637,-23.446
13:16:10:356,3.184,-0.155,-0.210,0.042,5.297,-20.042,-22.422
13:16:10:38,3.209,-0.088,-0.187,0.011,5.147,-19.782,-21.461
13:16:10:381,3.210,-0.090,-0.130,0.006,5.002,-19.091,-19.765
13:16:10:382,3.210,-0.048,-0.065,0.087,4.869,-18.638,-18.373
13:16:10:383,3.211,0.080,-0.007,0.120,4.380,-19.984,-16.109
13:16:10:452,3.280,0.139,-0.015,0.095,4.122,-21.094,-13.834
13:16:10:505,3.334,0.209,-0.027,0.106,4.128,-20.946,-12.267
13:16:10:506,3.335,0.207,0.036,0.089,4.267,-19.204,-9.958
13:16:10:531,3.360,0.179,0.156,0.090,4.298,-17.879,-8.463
13:16:10:532,3.361,0.201,0.258,0.095,4.188,-16.105,-6.296
13:16:10:645,3.474,0.276,0.265,0.185,3.901,-15.911,-4.415
13:16:10:645,3.474,0.296,0.264,0.214,3.658,-15.749,-3.513
13:16:10:645,3.474,0.320,0.271,0.237,3.238,-16.119,-2.921
13:16:10:646,3.474,0.295,0.081,0.203,2.987,-16.140,-3.020
13:16:10:671,3.499,0.280,-0.086,0.175,2.724,-15.607,-3.926
13:16:10:671,3.499,0.228,-0.150,0.122,2.631,-14.908,-4.954
13:16:10:671,3.499,0.168,-0.024,0.058,2.682,-13.615,-6.903
13:16:10:671,3.500,0.182,0.078,-0.013,3.049,-12.719,-8.945
13:16:10:748,3.576,0.175,0.123,-0.014,3.404,-12.290,-10.203
13:16:10:749,3.577,0.149,0.172,-0.046,4.112,-11.308,-11.781
13:16:10:75,3.578,0.110,0.125,-0.049,4.710,-10.380,-12.700
13:16:10:75,3.579,0.056,-0.011,-0.127,5.857,-8.173,-14.168
13:16:10:774,3.602,-0.057,-0.089,-0.143,7.026,-5.731,-16.002
13:16:10:774,3.603,-0.066,-0.122,-0.158,7.804,-4.258,-17.455
13:16:10:775,3.604,-0.114,-0.098,-0.177,8.854,-2.808,-19.921
13:16:10:776,3.605,-0.142,-0.084,-0.214,9.351,-2.485,-21.737
13:16:10:8,3.629,-0.185,-0.126,-0.190,9.898,-2.335,-24.452
13:16:10:801,3.630,-0.234,-0.152,-0.167,10.094,-2.699,-27.057
13:16:10:802,3.630,-0.228,-0.150,-0.184,10.031,-3.360,-28.717
13:16:10:803,3.631,-0.182,-0.138,-0.189,9.169,-4.651,-30.447
13:16:10:882,3.710,-0.215,-0.118,-0.157,8.758,-5.386,-31.614
13:16:10:882,3.711,-0.333,-0.029,-0.107,8.173,-6.068,-32.672
13:16:10:882,3.711,-0.312,0.066,-0.137,7.503,-6.816,-32.857
13:16:10:883,3.711,-0.265,0.104,-0.114,6.764,-7.543,-32.471
13:16:10:899,3.727,-0.263,0.230,-0.037,5.665,-8.437,-30.989
13:16:10:9,3.728,-0.142,0.246,0.044,5.137,-8.714,-29.318
13:16:11:03,3.859,-0.067,0.199,0.076,4.912,-8.228,-26.132
13:16:11:031,3.860,0.026,-0.027,0.185,5.186,-6.166,-22.890
13:16:11:055,3.884,0.026,-0.040,0.198,5.507,-4.055,-21.001
13:16:11:088,3.917,-0.013,-0.009,0.104,6.285,-0.004,-18.764
13:16:11:089,3.918,-0.061,0.019,0.083,6.756,3.180,-17.843
13:16:11:09,3.918,-0.192,0.008,0.136,7.043,6.475,-17.315
13:16:11:091,3.919,-0.092,-0.079,0.180,6.743,7.766,-17.540
13:16:11:164,3.992,-0.015,-0.130,0.148,6.342,6.479,-17.911
13:16:11:166,3.995,0.135,-0.188,0.083,5.418,2.693,-18.581
13:16:11:167,3.995,0.108,-0.235,0.009,5.002,0.643,-18.831
13:16:11:184,4.013,0.096,-0.238,-0.045,4.985,-0.785,-18.365
13:16:11:211,4.039,0.063,-0.124,-0.023,5.174,-0.837,-17.479
13:16:11:352,4.181,0.089,-0.064,-0.018,5.504,-0.499,-15.461
13:16:11:353,4.181,0.132,-0.062,-0.006,5.787,0.063,-12.811
13:16:11:354,4.182,0.179,-0.068,0.033,5.883,0.667,-10.903
13:16:11:354,4.183,0.182,-0.019,0.044,5.912,1.731,-8.321
13:16:11:451,4.279,0.223,0.133,0.023,5.837,2.238,-6.984
13:16:11:477,4.305,0.315,0.210,0.118,4.908,2.500,-4.674
13:16:11:477,4.306,0.300,0.208,0.127,4.513,2.573,-4.500
13:16:11:615,4.443,0.328,0.267,0.117,4.009,2.487,-4.823
13:16:11:616,4.444,0.312,0.265,0.084,3.778,2.468,-5.361
13:16:11:616,4.444,0.231,0.078,0.044,3.689,2.795,-6.521
13:16:11:617,4.445,0.201,0.004,0.035,3.873,3.736,-8.036
13:16:11:64,4.468,0.157,0.070,-0.022,4.095,4.807,-9.270
13:16:11:64,4.468,0.063,0.075,-0.046,4.716,7.090,-11.096
13:16:11:641,4.469,0.032,0.120,-0.137,5.415,9.060,-12.086
13:16:11:642,4.470,0.076,0.112,-0.189,6.658,11.658,-12.994
13:16:11:716,4.544,0.020,-0.058,-0.230,8.077,14.420,-13.623
13:16:11:716,4.545,-0.013,-0.106,-0.232,9.088,16.314,-14.025
13:16:11:717,4.545,-0.163,-0.129,-0.208,10.724,19.049,-14.985
13:16:11:765,4.594,-0.229,-0.133,-0.238,11.779,20.476,-15.900
13:16:11:766,4.594,-0.179,-0.111,-0.228,13.006,21.496,-17.915
13:16:11:899,4.727,-0.247,-0.118,-0.225,13.296,21.648,-20.171
13:16:11:899,4.727,-0.280,-0.123,-0.239,13.648,21.180,-22.001
13:16:11:93,4.759,-0.245,-0.136,-0.246,13.658,19.918,-24.847
13:16:11:93,4.759,-0.262,-0.151,-0.184,13.440,19.152,-26.670
13:16:11:93,4.759,-0.290,-0.078,-0.166,12.982,18.104,-29.066
13:16:11:931,4.759,-0.270,0.031,-0.129,12.626,17.673,-30.240
13:16:12:061,4.889,-0.266,0.041,-0.078,12.144,17.856,-31.155
13:16:12:062,4.890,-0.277,0.056,0.019,11.637,18.821,-31.261
13:16:12:062,4.891,-0.277,0.245,0.045,11.121,19.545,-30.917
13:16:12:063,4.892,-0.245,0.335,0.049,10.361,20.959,-29.678
13:16:12:136,4.964,-0.117,0.119,0.042,10.018,23.386,-27.652
13:16:12:136,4.965,-0.012,-0.155,0.062,9.957,25.557,-26.128
13:16:12:137,4.966,-0.031,-0.139,0.069,9.886,29.031,-24.028
13:16:12:161,4.989,-0.033,0.004,0.078,9.893,31.501,-22.739
13:16:12:161,4.989,0.006,0.051,0.088,9.888,35.136,-21.071
13:16:12:182,5.010,-0.032,-0.078,0.125,9.805,37.294,-20.236
13:16:12:298,5.127,-0.023,-0.136,0.122,9.435,39.676,-19.453
13:16:12:299,5.127,0.063,-0.126,0.093,8.730,40.404,-19.212
13:16:12:299,5.127,0.125,-0.096,0.041,8.353,40.036,-19.199
13:16:12:299,5.128,0.131,-0.090,-0.009,7.944,38.580,-19.134
13:16:12:315,5.143,0.053,-0.089,-0.117,7.857,38.231,-18.832
13:16:12:422,5.251,0.007,-0.098,-0.101,8.093,39.882,-17.745
13:16:12:422,5.251,0.012,-0.134,-0.098,8.424,42.239,-16.049
13:16:12:585,5.413,0.031,-0.161,-0.102,8.632,44.720,-14.748
13:16:12:586,5.414,0.034,-0.110,-0.110,8.872,47.193,-12.711
13:16:12:587,5.415,0.055,-0.057,-0.122,8.975,49.415,-11.387
13:16:12:588,5.416,0.063,0.022,-0.141,9.060,51.451,-9.751
13:16:12:655,5.484,0.015,0.237,-0.156,9.083,53.521,-8.637
13:16:12:686,5.514,0.005,0.328,-0.157,9.062,54.164,-8.183
13:16:12:686,5.514,0.005,0.239,-0.151,8.868,55.117,-8.056
13:16:12:716,5.545,0.040,0.217,-0.132,8.550,55.068,-8.417
13:16:12:717,5.546,0.075,0.139,-0.144,7.925,55.434,-9.454
13:16:12:718,5.546,0.047,0.119,-0.174,7.410,55.935,-10.829
13:16:12:718,5.547,-0.002,0.033,-0.194,7.246,56.547,-11.762
13:16:12:742,5.570,-0.041,-0.016,-0.177,7.291,58.210,-13.010
13:16:12:743,5.571,-0.079,0.021,-0.155,7.429,59.532,-13.726
13:16:12:744,5.572,-0.092,0.093,-0.163,7.858,62.187,-14.423
13:16:12:745,5.573,-0.175,0.171,-0.156,8.702,65.184,-14.596
13:16:12:762,5.590,-0.198,0.085,-0.174,9.450,67.394,-14.472
13:16:12:84,5.668,-0.218,-0.114,-0.097,10.592,70.893,-14.444
13:16:12:9,5.728,-0.215,-0.170,-0.014,11.276,73.103,-14.781
13:16:12:901,5.729,-0.223,-0.149,0.026,12.209,75.565,-15.929
13:16:12:901,5.730,-0.263,-0.142,-0.012,12.938,76.867,-17.749
13:16:12:902,5.731,-0.255,-0.145,0.005,13.255,77.336,-19.263
13:16:12:974,5.803,-0.247,-0.176,0.124,13.548,77.513,-21.747
13:16:12:974,5.803,-0.309,-0.148,0.122,13.612,77.000,-23.456
13:16:13:,5.828,-0.295,-0.125,0.065,13.241,75.447,-25.996
13:16:13:,5.828,-0.249,-0.030,0.145,12.562,73.998,-28.171
13:16:13:022,5.850,-0.251,0.090,0.222,12.180,73.074,-29.171
13:16:13:075,5.904,-0.249,0.159,0.271,11.720,72.687,-29.939
13:16:13:105,5.934,-0.180,0.155,0.297,11.366,72.607,-30.055
13:16:13:105,5.934,-0.153,0.208,0.324,10.470,72.565,-29.641
13:16:13:127,5.955,-0.104,0.327,0.237,9.723,72.347,-28.929
13:16:13:153,5.982,-0.068,0.290,0.179,8.829,72.225,-27.130
13:16:13:268,6.097,0.110,-0.101,0.011,8.298,73.087,-24.800
13:16:13:268,6.097,0.180,-0.136,-0.006,8.135,74.422,-23.354
13:16:13:269,6.097,0.087,-0.098,-0.012,8.464,77.972,-21.457
13:16:13:269,6.098,0.032,-0.086,0.069,9.062,81.483,-20.422
13:16:13:285,6.113,-0.005,-0.071,0.240,10.004,86.872,-19.456
13:16:13:393,6.221,0.001,-0.132,0.310,10.401,90.078,-19.197
13:16:13:394,6.222,-0.040,-0.177,0.261,10.220,90.305,-19.312
13:16:13:419,6.248,-0.042,-0.204,0.090,9.558,88.521,-19.497
13:16:13:42,6.248,-0.028,-0.189,0.006,9.145,87.269,-19.367
13:16:13:448,6.276,-0.010,-0.180,-0.033,8.635,84.996,-18.706
13:16:13:448,6.276,0.000,-0.088,-0.006,8.207,83.841,-17.717
13:16:13:527,6.355,-0.007,-0.036,-0.009,8.005,83.322,-16.867
13:16:13:527,6.355,0.004,-0.066,-0.073,7.660,82.878,-15.272
13:16:13:528,6.357,0.043,-0.068,-0.014,7.371,82.920,-14.116
13:16:13:548,6.376,0.018,0.001,-0.071,6.987,82.847,-12.519
13:16:13:573,6.402,0.036,0.124,-0.138,6.527,82.212,-11.306
13:16:13:687,6.515,0.058,0.198,-0.121,6.142,81.714,-10.679
13:16:13:688,6.516,0.119,0.262,-0.159,5.526,80.851,-9.856
13:16:13:688,6.517,0.102,0.177,-0.141,5.170,80.310,-9.425
13:16:13:689,6.518,0.111,0.155,-0.201,4.651,79.273,-9.029
13:16:13:707,6.536,0.140,0.097,-0.215,4.181,78.436,-8.998
13:16:13:815,6.644,0.123,0.035,-0.205,3.996,78.201,-9.221
13:16:13:815,6.644,0.066,0.044,-0.197,4.018,78.474,-9.888
13:16:13:84,6.669,-0.012,0.128,-0.157,4.292,79.167,-10.395
13:16:13:84,6.669,-0.033,0.165,-0.112,4.976,80.748,-11.135
13:16:13:865,6.694,-0.068,0.176,-0.088,5.782,82.473,-11.923
13:16:13:866,6.694,-0.100,0.178,-0.073,6.372,83.696,-12.479
13:16:13:916,6.745,-0.128,-0.010,-0.037,7.344,85.609,-13.405
13:16:13:944,6.772,-0.137,-0.093,-0.018,8.024,86.875,-14.211
13:16:13:945,6.773,-0.146,-0.180,0.041,8.933,88.394,-15.920
13:16:13:97,6.798,-0.133,-0.192,0.079,9.652,89.058,-18.252
13:16:13:993,6.822,-0.169,-0.190,0.090,10.032,89.000,-20.068
13:16:14:08,6.908,-0.190,-0.144,0.120,10.423,88.395,-23.009
13:16:14:08,6.908,-0.214,-0.122,0.183,10.629,87.929,-24.932
13:16:14:081,6.909,-0.194,-0.128,0.209,10.787,87.173,-27.627
13:16:14:213,7.042,-0.201,-0.122,0.238,10.780,86.585,-29.196
13:16:14:214,7.042,-0.177,-0.078,0.220,9.546,85.628,-30.023
13:16:14:214,7.043,-0.106,0.006,0.285,8.913,84.712,-30.999
13:16:14:215,7.044,-0.069,0.038,0.327,8.517,84.406,-31.153
13:16:14:234,7.062,-0.026,0.058,0.294,7.712,83.917,-30.759
13:16:14:234,7.062,0.003,0.137,0.278,6.962,83.400,-30.072
13:16:14:256,7.084,0.110,0.271,0.163,5.759,82.659,-28.374
13:16:14:338,7.166,0.218,0.350,0.076,5.077,81.845,-26.135
13:16:14:339,7.167,0.212,0.091,-0.079,4.906,82.118,-24.473
13:16:14:364,7.192,0.146,-0.036,-0.053,6.071,84.864,-21.801
13:16:14:365,7.193,0.052,-0.063,0.027,7.152,87.784,-20.357
13:16:14:387,7.216,0.008,-0.066,0.115,8.699,92.496,-18.795
13:16:14:414,7.242,0.009,-0.030,0.208,9.855,96.133,-18.112
13:16:14:469,7.298,0.005,-0.085,0.343,10.283,97.079,-18.241
13:16:14:47,7.299,-0.040,-0.245,0.208,10.136,95.460,-19.089
13:16:14:494,7.323,-0.129,-0.311,0.097,9.412,91.666,-20.128
13:16:14:519,7.348,-0.122,-0.286,0.042,8.756,88.681,-20.589
13:16:14:548,7.377,-0.094,-0.219,-0.033,7.824,84.446,-20.601
13:16:14:66,7.488,-0.057,-0.180,-0.033,7.359,82.538,-20.141
13:16:14:66,7.488,-0.065,-0.128,-0.035,6.998,80.163,-18.792
13:16:14:66,7.488,-0.040,-0.113,-0.084,6.824,79.427,-17.468
13:16:14:661,7.489,0.006,-0.066,-0.099,6.472,78.696,-14.915
13:16:14:676,7.504,0.041,0.018,-0.076,6.128,78.594,-11.887
13:16:14:758,7.586,-0.029,0.090,-0.103,5.972,78.235,-9.893
13:16:14:759,7.587,0.042,0.284,-0.227,5.531,77.041,-7.026
13:16:14:81,7.639,0.191,0.388,-0.292,5.108,76.185,-5.233
13:16:14:811,7.640,0.266,0.326,-0.296,4.451,74.996,-3.062
13:16:14:839,7.668,0.286,0.244,-0.331,3.839,74.452,-1.842
13:16:14:84,7.668,0.269,0.185,-0.362,3.528,74.448,-1.583
13:16:14:841,7.669,0.158,0.020,-0.271,3.273,75.070,-2.090
13:16:14:886,7.715,0.087,0.020,-0.213,3.259,75.509,-2.972
13:16:14:915,7.744,0.058,0.136,-0.231,3.451,75.774,-4.808
13:16:14:916,7.744,0.024,0.171,-0.194,3.859,76.120,-6.902
13:16:14:967,7.796,-0.006,0.170,-0.161,4.226,76.487,-8.296
13:16:14:968,7.796,-0.058,0.085,-0.150,4.927,77.625,-10.301
13:16:15:049,7.878,-0.063,-0.070,-0.057,5.464,78.821,-11.655
13:16:15:05,7.878,-0.127,-0.139,-0.019,6.562,81.250,-13.676
13:16:15:051,7.879,-0.163,-0.184,0.010,7.758,83.188,-15.929
13:16:15:099,7.927,-0.164,-0.173,0.044,8.475,83.913,-17.549
13:16:15:099,7.928,-0.197,-0.109,0.114,9.526,84.613,-20.027
13:16:15:122,7.951,-0.248,-0.096,0.181,10.224,85.159,-21.641
13:16:15:175,8.003,-0.248,-0.109,0.175,11.013,84.831,-24.070
13:16:15:205,8.033,-0.235,-0.138,0.198,11.358,84.117,-26.529
13:16:15:205,8.033,-0.205,-0.140,0.232,11.351,83.469,-28.162
13:16:15:227,8.055,-0.215,-0.143,0.248,11.168,82.462,-30.370
13:16:15:31,8.138,-0.219,-0.118,0.230,10.907,81.830,-31.615
13:16:15:31,8.138,-0.164,-0.079,0.280,10.402,81.185,-32.971
13:16:15:335,8.163,-0.142,-0.029,0.355,10.042,80.886,-33.442
13:16:15:336,8.164,-0.136,-0.019,0.315,9.224,80.022,-33.494
13:16:15:358,8.187,-0.088,0.022,0.242,7.908,78.605,-32.712
13:16:15:384,8.213,-0.078,0.252,0.304,6.925,77.585,-31.691
13:16:15:465,8.293,-0.034,0.396,0.272,5.676,76.398,-29.214
13:16:15:496,8.324,0.148,0.330,0.016,5.189,76.566,-25.492
13:16:15:496,8.325,0.223,0.212,-0.030,5.390,78.060,-22.710
13:16:15:497,8.326,0.185,0.147,-0.053,6.487,82.321,-18.821
13:16:15:516,8.345,0.103,0.025,-0.010,7.517,86.320,-16.801
13:16:15:816,8.645,0.084,-0.157,0.154,8.659,92.662,-14.973
13:16:15:816,8.645,0.070,-0.275,0.316,9.035,95.796,-14.681
13:16:15:817,8.646,0.106,-0.277,0.242,9.093,97.187,-15.362
13:16:15:818,8.646,-0.008,-0.237,0.096,8.651,94.615,-16.802
13:16:15:888,8.716,-0.056,-0.187,-0.035,8.218,91.418,-17.705
13:16:15:888,8.717,-0.098,-0.112,-0.074,7.405,86.022,-18.476
13:16:15:919,8.748,-0.074,-0.098,-0.106,6.975,83.115,-18.446
13:16:15:92,8.748,-0.053,-0.108,-0.130,6.813,80.520,-17.331
13:16:15:921,8.749,-0.004,-0.095,-0.125,6.987,79.520,-15.304
13:16:15:921,8.750,0.035,-0.091,-0.118,7.143,79.877,-13.378
13:16:15:945,8.774,0.048,-0.074,-0.120,7.330,80.974,-10.224
13:16:15:946,8.774,-0.011,-0.026,-0.222,7.473,81.687,-8.213
13:16:15:947,8.775,0.008,0.078,-0.236,7.392,82.553,-5.778
13:16:15:949,8.778,0.068,0.300,-0.234,7.060,83.059,-3.898
13:16:16:045,8.873,0.082,0.321,-0.277,6.819,83.153,-2.955
13:16:16:045,8.874,0.096,0.243,-0.342,6.393,83.090,-2.121
13:16:16:181,9.010,0.122,0.229,-0.361,6.114,83.189,-1.981
13:16:16:182,9.011,0.081,0.199,-0.355,5.839,83.789,-2.438
13:16:16:183,9.012,0.029,0.086,-0.298,5.804,84.839,-3.577
13:16:16:184,9.012,-0.020,0.072,-0.236,5.902,85.761,-4.679
13:16:16:209,9.038,-0.052,0.110,-0.194,6.201,87.460,-6.638
13:16:16:209,9.038,-0.143,0.148,-0.163,6.592,88.918,-7.958
13:16:16:21,9.038,-0.192,0.198,-0.126,7.449,91.320,-9.814
13:16:16:21,9.039,-0.218,0.114,-0.083,8.560,94.052,-11.454
13:16:16:307,9.135,-0.199,-0.058,-0.008,9.429,96.114,-12.514
13:16:16:308,9.136,-0.223,-0.191,0.057,10.914,99.199,-14.260
13:16:16:334,9.162,-0.237,-0.199,0.115,11.898,100.866,-15.658
13:16:16:334,9.162,-0.253,-0.164,0.143,13.276,102.535,-18.130
13:16:16:361,9.189,-0.286,-0.114,0.257,14.199,103.318,-19.898
13:16:16:362,9.190,-0.306,-0.135,0.291,15.365,103.685,-22.692
13:16:16:445,9.273,-0.313,-0.134,0.296,15.960,103.139,-25.677
13:16:16:445,9.274,-0.265,-0.125,0.335,16.099,102.636,-27.604
13:16:16:446,9.275,-0.249,-0.111,0.357,16.031,101.875,-30.210
13:16:16:447,9.276,-0.211,-0.037,0.354,15.780,101.572,-32.246
13:16:16:464,9.293,-0.168,0.027,0.393,15.696,101.867,-33.152
13:16:16:49,9.318,-0.082,0.060,0.443,15.560,102.962,-33.815
13:16:16:49,9.319,-0.042,0.150,0.447,15.231,103.740,-33.811
13:16:16:573,9.401,-0.012,0.268,0.387,14.408,104.967,-33.051
13:16:16:573,9.401,-0.009,0.103,0.272,13.913,106.850,-31.419
13:16:16:574,9.402,0.021,-0.128,0.153,13.680,108.553,-30.088
13:16:16:593,9.421,0.073,-0.203,0.047,13.335,111.764,-28.141
13:16:16:619,9.447,0.146,-0.033,0.110,13.370,114.248,-26.877
13:16:16:703,9.531,0.148,-0.024,0.173,13.838,118.285,-25.099
13:16:16:704,9.532,0.101,-0.099,0.224,14.005,120.261,-24.165
13:16:16:704,9.532,0.140,-0.170,0.197,13.464,121.855,-23.318
13:16:16:724,9.552,0.120,-0.196,0.088,12.210,121.378,-22.826
13:16:16:75,9.578,0.045,-0.143,0.044,11.505,120.848,-22.350
13:16:16:776,9.605,-0.004,-0.092,0.008,11.068,120.753,-21.152
13:16:17:024,9.852,-0.015,-0.059,-0.050,10.942,120.837,-19.520
13:16:17:024,9.853,-0.093,-0.028,-0.024,10.987,121.196,-18.152
13:16:17:025,9.853,-0.083,-0.018,0.020,11.198,122.032,-15.701
13:16:17:025,9.854,-0.121,-0.065,0.009,11.420,122.935,-13.767
13:16:17:049,9.878,-0.208,-0.079,-0.063,11.712,124.231,-10.746
13:16:17:049,9.878,-0.195,0.027,-0.099,11.930,125.830,-7.853
13:16:17:049,9.878,-0.215,0.119,-0.091,12.041,126.639,-6.115
13:16:17:05,9.878,-0.258,0.219,-0.099,12.085,127.930,-3.975
13:16:17:127,9.956,-0.289,0.226,-0.141,12.016,128.252,-2.901
13:16:17:127,9.956,-0.263,0.160,-0.141,11.702,129.031,-2.012
13:16:17:128,9.957,-0.260,0.139,-0.143,11.396,129.093,-1.985
13:16:17:129,9.957,-0.286,0.159,-0.158,10.852,129.155,-2.660
13:16:17:149,9.977,-0.311,0.102,-0.152,10.371,129.504,-3.841
13:16:17:15,9.978,-0.333,-0.002,-0.118,10.158,130.375,-4.718
13:16:17:151,9.979,-0.290,0.003,-0.062,10.031,132.561,-5.957
13:16:17:17,9.998,-0.272,0.031,-0.012,10.085,134.949,-6.666
13:16:17:25,10.078,-0.270,0.075,0.024,10.456,138.608,-7.548
13:16:17:28,10.108,-0.271,0.090,0.112,11.203,142.839,-8.285
13:16:17:28,10.108,-0.191,0.074,0.173,11.801,145.574,-8.857
13:16:17:305,10.134,-0.121,-0.047,0.231,12.904,150.308,-9.960
13:16:17:305,10.134,-0.070,-0.096,0.270,13.683,152.568,-11.055
13:16:17:414,10.243,-0.075,-0.102,0.307,14.731,154.628,-13.374
13:16:17:415,10.244,-0.060,-0.136,0.312,15.683,155.873,-16.113
13:16:17:416,10.245,-0.029,-0.147,0.344,16.336,156.593,-17.996
13:16:17:417,10.245,0.013,-0.186,0.375,17.207,157.070,-20.978
13:16:17:434,10.262,0.014,-0.179,0.378,17.614,157.018,-23.054
13:16:17:546,10.375,0.064,-0.150,0.364,17.990,156.848,-26.106
13:16:17:547,10.375,0.185,-0.039,0.458,18.320,156.639,-28.807
13:16:17:547,10.376,0.161,0.058,0.504,18.342,156.322,-30.307
13:16:17:548,10.377,0.251,0.068,0.481,18.002,156.097,-31.930
13:16:17:563,10.392,0.338,0.106,0.401,17.400,156.070,-32.587
13:16:17:59,10.418,0.304,0.219,0.303,15.949,156.033,-32.811
13:16:17:705,10.533,0.238,0.266,0.253,14.489,156.812,-31.794
13:16:17:705,10.533,0.143,0.168,0.143,13.796,158.123,-30.314
13:16:17:705,10.533,0.021,-0.210,-0.039,13.111,162.168,-27.476
13:16:17:706,10.534,0.007,-0.218,-0.090,12.692,164.832,-25.591
13:16:17:721,10.549,0.039,-0.150,-0.077,12.497,170.006,-22.813
13:16:17:747,10.576,0.110,-0.085,-0.029,13.053,176.451,-20.108
13:16:17:966,10.795,0.264,-0.068,0.001,13.519,-179.594,-18.687
13:16:17:967,10.796,0.377,-0.018,0.018,13.499,-176.831,-17.428
13:16:17:968,10.796,0.190,-0.094,0.013,12.989,-177.510,-17.018
13:16:17:969,10.797,0.069,-0.048,-0.043,11.860,179.256,-16.489
13:16:17:993,10.821,-0.215,-0.062,-0.083,10.999,174.968,-15.662
13:16:17:994,10.822,-0.125,-0.085,-0.064,10.561,172.499,-15.153
13:16:17:995,10.823,-0.126,-0.130,0.031,10.539,171.491,-13.783
13:16:17:995,10.823,-0.145,-0.140,0.046,10.750,171.518,-12.385
13:16:18:014,10.842,-0.184,-0.140,0.079,11.114,172.872,-9.850
13:16:18:014,10.842,-0.226,-0.094,0.075,11.364,174.613,-7.148
13:16:18:123,10.952,-0.213,-0.057,0.083,11.444,175.273,-5.360
13:16:18:124,10.953,-0.255,0.087,0.082,11.481,176.617,-2.822
13:16:18:125,10.954,-0.371,0.279,0.111,11.513,176.814,-1.296
13:16:18:126,10.954,-0.404,0.336,0.101,11.516,177.221,0.609
13:16:18:252,11.080,-0.383,0.266,0.061,11.418,177.245,1.524
13:16:18:252,11.080,-0.348,0.178,0.023,11.063,177.538,2.027
13:16:18:31,11.138,-0.384,0.054,0.038,10.653,177.027,1.461
13:16:18:31,11.139,-0.406,0.055,0.055,10.405,177.205,0.642
13:16:18:31,11.139,-0.369,0.044,0.145,10.174,177.736,-0.983
13:16:18:311,11.139,-0.310,0.065,0.162,10.133,178.644,-2.243
13:16:18:355,11.184,-0.223,0.096,0.167,10.181,-179.461,-4.225
13:16:18:356,11.184,-0.177,0.142,0.170,10.457,-176.721,-6.121
13:16:18:381,11.209,-0.121,0.110,0.219,10.838,-174.871,-7.309
13:16:18:409,11.237,-0.036,0.012,0.235,11.647,-172.215,-9.093
13:16:18:409,11.238,0.029,-0.108,0.231,12.332,-170.386,-10.297
13:16:18:544,11.372,0.087,-0.117,0.218,13.359,-168.066,-12.493
13:16:18:544,11.373,0.118,-0.142,0.210,14.351,-166.574,-15.195
13:16:18:545,11.374,0.170,-0.144,0.226,15.026,-165.958,-17.186
13:16:18:546,11.375,0.207,-0.145,0.255,15.973,-165.549,-20.355
13:16:18:563,11.392,0.265,-0.170,0.247,16.526,-165.447,-22.514
13:16:18:564,11.393,0.284,-0.163,0.239,16.881,-165.597,-25.471
13:16:18:643,11.471,0.307,-0.124,0.244,16.061,-166.006,-27.472
13:16:18:644,11.472,0.327,-0.090,0.225,16.181,-166.479,-29.095
13:16:18:67,11.498,0.387,-0.010,0.179,16.191,-166.950,-30.908
13:16:18:67,11.498,0.464,-0.007,0.120,16.117,-167.105,-31.666
13:16:18:692,11.521,0.373,0.000,0.118,15.490,-167.630,-32.197
13:16:18:72,11.549,0.344,0.135,0.077,14.146,-168.358,-31.806
13:16:18:802,11.630,0.360,0.266,0.071,13.204,-168.539,-30.833
13:16:18:802,11.630,0.166,0.162,0.007,11.989,-168.093,-28.249
13:16:18:827,11.655,-0.009,-0.101,-0.076,11.353,-167.165,-26.016
13:16:18:828,11.656,-0.073,-0.111,-0.133,10.585,-164.849,-22.629
13:16:18:85,11.678,-0.035,-0.009,-0.147,10.408,-162.629,-20.482
13:16:18:934,11.763,0.045,0.014,-0.066,10.928,-158.468,-17.808
13:16:18:935,11.764,0.134,0.013,-0.090,11.371,-155.110,-15.928
13:16:18:936,11.764,0.106,-0.037,-0.179,11.172,-154.404,-15.306
13:16:18:955,11.784,0.023,-0.101,-0.079,10.410,-155.980,-15.055
13:16:19:07,11.898,-0.117,-0.082,-0.029,9.879,-157.686,-14.999
13:16:19:07,11.898,-0.156,-0.099,0.030,9.507,-160.257,-14.740
13:16:19:07,11.898,-0.162,-0.152,0.095,9.607,-161.984,-13.877
13:16:19:07,11.899,-0.180,-0.150,0.158,9.837,-162.290,-12.755
13:16:19:115,11.943,-0.171,-0.132,0.122,10.251,-161.589,-10.238
13:16:19:116,11.944,-0.174,-0.081,0.136,10.523,-160.677,-8.139
13:16:19:222,12.050,-0.211,-0.077,0.176,10.984,-159.096,-4.614
13:16:19:222,12.051,-0.272,-0.014,0.235,11.387,-157.487,-1.061
13:16:19:36,12.188,-0.283,0.049,0.237,11.565,-156.345,1.139
13:16:19:36,12.189,-0.345,0.203,0.256,11.650,-154.791,3.918
13:16:19:36,12.189,-0.350,0.143,0.278,11.651,-153.892,5.305
13:16:19:362,12.190,-0.337,0.087,0.261,11.506,-152.974,6.405
13:16:19:386,12.214,-0.343,0.086,0.264,11.166,-152.801,6.139
13:16:19:386,12.214,-0.358,0.144,0.304,10.893,-152.962,5.295
13:16:19:386,12.214,-0.303,0.121,0.334,10.451,-153.003,3.375
13:16:19:386,12.214,-0.243,0.070,0.341,10.199,-152.637,1.871
13:16:19:406,12.234,-0.177,0.045,0.340,9.884,-151.403,-0.491
13:16:19:406,12.234,-0.125,0.096,0.323,9.644,-149.154,-2.713
13:16:19:514,12.342,-0.077,0.154,0.315,9.611,-147.127,-4.040
13:16:19:514,12.342,-0.030,0.170,0.300,9.863,-143.440,-5.761
13:16:19:514,12.343,0.090,-0.051,0.262,10.243,-140.453,-6.750
13:16:19:535,12.364,0.183,-0.105,0.186,11.166,-135.831,-8.380
13:16:19:536,12.364,0.227,-0.101,0.162,12.284,-132.154,-10.424
13:16:19:645,12.474,0.227,-0.102,0.127,13.007,-130.494,-12.092
13:16:19:645,12.474,0.313,-0.090,0.097,14.175,-128.716,-14.890
13:16:19:646,12.474,0.352,-0.117,0.119,14.881,-128.311,-17.004
13:16:19:666,12.495,0.362,-0.130,0.101,15.580,-128.579,-20.465
13:16:19:667,12.496,0.386,-0.113,0.035,15.954,-129.014,-23.889
13:16:19:691,12.519,0.432,-0.107,0.002,16.131,-129.267,-26.015
13:16:19:803,12.632,0.468,-0.061,0.023,16.197,-129.791,-28.868
13:16:19:804,12.633,0.432,-0.045,-0.084,16.027,-129.987,-30.387
13:16:19:805,12.634,0.416,-0.102,-0.135,15.493,-129.908,-31.955
13:16:19:806,12.634,0.302,-0.049,-0.157,14.198,-129.979,-32.807
13:16:19:821,12.649,0.252,0.160,-0.194,12.929,-129.883,-32.807
13:16:19:903,12.731,0.223,0.362,-0.238,11.050,-129.050,-31.608
13:16:19:903,12.732,0.071,0.110,-0.129,10.250,-127.628,-29.904
13:16:19:927,12.755,-0.118,-0.133,-0.048,9.496,-124.272,-26.537
13:16:19:958,12.786,-0.189,-0.131,-0.133,9.171,-121.249,-24.189
13:16:19:958,12.786,-0.159,-0.103,-0.116,9.522,-115.830,-20.973
13:16:20:035,12.863,0.006,-0.056,-0.129,10.138,-110.806,-18.062
13:16:20:036,12.864,0.001,-0.041,-0.177,10.129,-108.703,-16.468
13:16:20:381,13.210,-0.050,-0.048,-0.175,9.530,-107.902,-14.792
13:16:20:382,13.211,-0.064,-0.070,-0.055,8.942,-108.916,-14.172
13:16:20:383,13.211,0.010,-0.081,-0.012,8.295,-111.429,-13.446
13:16:20:384,13.212,-0.080,-0.053,0.169,8.042,-114.023,-12.499
13:16:20:482,13.310,-0.087,-0.105,0.220,7.932,-115.674,-11.780
13:16:20:482,13.310,-0.076,-0.117,0.166,8.023,-116.461,-10.070
13:16:20:505,13.333,-0.023,-0.110,0.184,8.210,-116.408,-8.610
13:16:20:62,13.448,-0.050,-0.114,0.295,8.594,-115.885,-5.907
13:16:20:62,13.449,-0.087,-0.058,0.306,8.832,-114.843,-2.941
13:16:20:62,13.449,-0.088,0.014,0.298,8.928,-113.964,-0.927
13:16:20:621,13.450,-0.127,0.145,0.356,8.991,-112.654,1.842
13:16:20:67,13.499,-0.109,0.184,0.359,8.996,-112.028,3.290
13:16:20:671,13.500,-0.146,0.126,0.408,8.875,-111.828,4.716
13:16:20:672,13.500,-0.213,0.152,0.452,8.604,-111.879,5.125
13:16:20:673,13.502,-0.166,0.209,0.466,8.431,-111.561,4.844
13:16:20:767,13.596,-0.090,0.158,0.450,8.237,-110.340,3.663
13:16:20:797,13.626,0.021,0.041,0.304,8.143,-109.115,2.405
13:16:20:797,13.626,0.089,0.076,0.242,8.130,-107.414,-0.090
13:16:20:907,13.735,0.118,0.076,0.260,8.218,-106.309,-2.938
13:16:20:907,13.735,0.156,0.115,0.229,8.326,-105.593,-4.826
13:16:20:908,13.736,0.174,0.162,0.238,8.559,-104.389,-7.413
13:16:20:909,13.737,0.186,-0.008,0.134,8.804,-103.057,-8.980
13:16:20:935,13.764,0.196,-0.070,0.060,9.399,-100.359,-11.250
13:16:20:935,13.764,0.245,-0.147,-0.052,10.222,-97.613,-13.662
13:16:20:935,13.764,0.244,-0.144,-0.044,10.762,-96.146,-15.435
13:16:20:935,13.764,0.236,-0.161,-0.112,11.393,-94.758,-18.396
13:16:21:013,13.841,0.238,-0.171,-0.185,11.774,-94.306,-20.431
13:16:21:013,13.842,0.300,-0.179,-0.147,12.042,-94.748,-23.496
13:16:21:014,13.843,0.252,-0.143,-0.125,11.807,-95.672,-26.325
13:16:21:015,13.844,0.214,-0.119,-0.286,11.681,-96.003,-27.889
13:16:21:038,13.866,0.206,-0.009,-0.242,11.363,-96.562,-29.874
13:16:21:038,13.867,0.204,0.046,-0.348,11.167,-96.559,-30.759
13:16:21:039,13.868,0.145,0.048,-0.363,10.492,-96.413,-31.386
13:16:21:04,13.868,0.040,0.113,-0.341,9.675,-96.439,-31.272
13:16:21:222,14.051,-0.001,0.201,-0.271,8.241,-96.628,-30.160
13:16:21:223,14.052,0.026,0.345,-0.238,7.493,-96.023,-27.692
13:16:21:224,14.052,-0.009,0.203,-0.094,7.325,-95.044,-25.411
13:16:21:224,14.053,-0.189,-0.164,0.051,7.056,-92.667,-21.796
13:16:21:322,14.150,-0.252,-0.130,0.110,6.855,-90.539,-19.603
13:16:21:323,14.151,-0.155,-0.041,0.092,7.246,-86.036,-16.696
13:16:21:355,14.183,0.016,-0.020,-0.072,8.119,-80.621,-14.444
13:16:21:356,14.184,0.026,-0.017,-0.123,8.530,-77.458,-13.482
13:16:21:356,14.185,-0.086,-0.067,-0.252,8.538,-75.273,-13.035
13:16:21:357,14.185,-0.017,-0.101,-0.159,8.161,-76.135,-13.215
13:16:21:475,14.304,-0.016,-0.084,-0.076,7.313,-80.211,-13.547
13:16:21:558,14.386,-0.002,-0.124,0.187,6.544,-84.948,-13.540
13:16:21:559,14.387,0.010,-0.169,0.178,6.090,-88.495,-13.319
13:16:21:581,14.410,-0.004,-0.159,0.131,5.807,-91.217,-12.400
13:16:21:61,14.439,0.038,-0.127,0.149,5.861,-92.784,-11.301
13:16:21:611,14.439,0.016,-0.137,0.205,5.968,-93.110,-9.089
13:16:21:642,14.470,-0.023,-0.043,0.193,5.976,-93.365,-6.793
13:16:21:642,14.471,-0.031,0.042,0.182,6.004,-92.927,-5.037
13:16:21:643,14.472,0.007,0.200,0.248,6.059,-93.377,-2.598
13:16:21:715,14.544,-0.104,0.272,0.347,5.704,-94.844,0.530
13:16:21:851,14.680,-0.116,0.189,0.297,5.490,-95.382,1.254
13:16:21:852,14.681,-0.103,0.148,0.345,5.199,-97.298,1.635
13:16:21:853,14.681,-0.121,0.039,0.398,4.900,-98.744,1.333
13:16:21:984,14.813,-0.062,-0.019,0.365,4.709,-99.245,-0.305
13:16:21:985,14.813,0.026,0.059,0.247,4.903,-97.885,-1.641
13:16:21:986,14.814,0.078,0.092,0.246,5.168,-96.957,-2.584
13:16:21:987,14.815,0.092,0.085,0.198,5.564,-95.644,-4.131
13:16:22:012,14.841,0.080,0.096,0.184,5.792,-94.803,-5.256
13:16:22:012,14.841,0.074,0.056,0.068,6.077,-93.252,-7.236
13:16:22:012,14.841,0.122,-0.075,0.056,6.698,-91.352,-9.248
13:16:22:012,14.841,0.163,-0.118,0.037,7.063,-90.382,-10.973
13:16:22:027,14.856,0.115,-0.120,-0.091,7.384,-89.661,-14.075
13:16:22:164,14.993,0.146,-0.101,-0.118,7.628,-89.324,-16.195
13:16:22:164,14.993,0.161,-0.106,-0.136,7.902,-89.399,-19.520
13:16:22:19,15.018,0.159,-0.129,-0.173,7.920,-89.751,-21.762
13:16:22:19,15.019,0.129,-0.138,-0.231,7.683,-90.372,-24.796
13:16:22:29,15.118,0.129,-0.164,-0.224,7.236,-91.263,-27.158
13:16:22:324,15.152,0.135,-0.139,-0.182,6.895,-92.182,-28.610
13:16:22:325,15.153,0.085,-0.063,-0.218,6.255,-93.253,-30.020
13:16:22:325,15.154,0.022,0.000,-0.314,5.895,-93.734,-30.336
13:16:22:326,15.155,0.002,0.052,-0.302,5.270,-94.039,-29.947
13:16:22:406,15.234,-0.020,0.306,-0.277,4.444,-94.634,-28.362
13:16:22:406,15.234,-0.104,0.411,-0.188,4.008,-94.873,-26.623
13:16:22:406,15.234,-0.114,0.387,-0.099,3.792,-94.880,-23.379
13:16:22:406,15.234,-0.166,0.104,0.034,3.872,-93.824,-21.160
13:16:22:456,15.284,-0.166,-0.139,0.039,4.496,-90.531,-18.359
13:16:22:456,15.285,-0.067,-0.112,0.018,5.694,-85.671,-16.339
13:16:22:457,15.285,-0.043,-0.041,-0.111,6.529,-82.046,-15.452
13:16:22:458,15.286,-0.111,-0.011,-0.268,7.361,-78.189,-14.753
13:16:22:551,15.380,-0.071,-0.113,-0.219,7.473,-77.765,-14.720
13:16:22:578,15.406,-0.011,-0.143,-0.135,6.892,-81.141,-15.122
13:16:22:605,15.433,0.066,-0.173,-0.024,6.083,-86.310,-15.419
13:16:22:688,15.516,0.048,-0.165,0.077,5.699,-89.986,-15.278
13:16:22:689,15.517,0.030,-0.132,0.160,5.476,-93.715,-14.461
13:16:22:715,15.543,0.014,-0.106,0.149,5.567,-95.618,-13.529
13:16:22:715,15.544,0.034,-0.102,0.163,5.905,-96.790,-11.582
13:16:22:716,15.545,0.009,-0.120,0.223,6.178,-97.550,-8.985
13:16:22:822,15.651,-0.014,-0.095,0.197,6.275,-97.416,-7.069
13:16:22:823,15.652,0.002,-0.007,0.270,6.499,-97.005,-3.841
13:16:22:824,15.653,0.027,0.113,0.354,6.671,-96.696,-1.760
13:16:22:825,15.653,-0.010,0.234,0.377,6.745,-96.484,1.004
13:16:22:877,15.705,-0.110,0.218,0.382,6.529,-96.199,3.105
13:16:22:877,15.706,-0.116,0.181,0.367,6.314,-96.314,3.973
13:16:22:877,15.706,-0.137,0.122,0.426,5.902,-97.079,4.371
13:16:22:877,15.706,-0.108,0.024,0.418,5.571,-97.792,4.065
13:16:22:98,15.809,-0.108,0.005,0.390,5.079,-98.686,2.911
13:16:22:981,15.810,-0.085,0.001,0.401,4.803,-99.167,1.757
13:16:22:982,15.810,-0.066,0.049,0.369,4.485,-99.393,-0.302
13:16:22:983,15.811,0.006,0.160,0.286,4.378,-98.204,-2.410
13:16:23:007,15.836,0.045,0.155,0.308,4.556,-96.775,-3.605
13:16:23:008,15.836,0.070,0.120,0.256,5.124,-93.839,-5.026
13:16:23:009,15.837,0.075,0.085,0.214,5.659,-91.393,-5.855
13:16:23:009,15.838,0.078,-0.012,0.054,6.632,-87.523,-7.200
13:16:23:112,15.940,0.121,-0.130,0.006,7.906,-83.860,-8.852
13:16:23:113,15.941,0.233,-0.175,-0.077,8.744,-82.240,-10.428
13:16:23:113,15.942,0.178,-0.187,-0.173,9.571,-81.753,-13.574
13:16:23:114,15.943,0.146,-0.111,-0.132,9.856,-82.252,-15.934
13:16:23:132,15.961,0.194,-0.065,-0.172,10.235,-83.174,-19.546
13:16:23:133,15.962,0.212,-0.085,-0.175,10.380,-84.459,-23.151
13:16:23:161,15.989,0.172,-0.092,-0.207,10.323,-85.183,-25.481
13:16:23:161,15.989,0.099,-0.034,-0.326,10.282,-85.730,-28.662
13:16:23:239,16.067,0.108,0.071,-0.408,10.362,-86.066,-31.246
13:16:23:239,16.067,0.104,0.062,-0.410,10.292,-86.342,-32.479
13:16:23:269,16.098,0.038,0.050,-0.378,9.644,-86.922,-33.473
13:16:23:271,16.099,-0.022,0.215,-0.386,8.820,-87.422,-33.486
13:16:23:271,16.100,-0.063,0.290,-0.326,7.419,-88.040,-32.283
13:16:23:272,16.100,-0.089,0.062,-0.153,6.799,-87.970,-30.668
13:16:23:292,16.120,-0.123,-0.149,-0.034,6.364,-86.840,-27.686
13:16:23:293,16.121,-0.202,-0.259,0.003,6.132,-84.669,-24.824
13:16:23:293,16.121,-0.130,-0.133,-0.063,6.430,-82.819,-23.019
13:16:23:391,16.220,-0.019,-0.018,-0.127,7.351,-79.213,-20.495
13:16:23:427,16.256,-0.008,0.018,-0.200,7.947,-77.137,-19.076
13:16:23:427,16.256,-0.074,-0.038,-0.180,8.100,-76.085,-17.484
13:16:23:427,16.256,-0.058,-0.095,-0.066,7.464,-77.837,-16.276
13:16:23:428,16.257,-0.079,-0.068,0.042,6.817,-79.797,-15.558
13:16:23:527,16.355,-0.055,-0.068,0.163,6.087,-83.058,-14.464
13:16:23:527,16.355,0.006,-0.069,0.209,5.829,-84.757,-13.680
13:16:23:584,16.412,0.030,-0.073,0.188,5.714,-85.872,-12.115
13:16:23:584,16.413,0.026,-0.038,0.168,5.851,-85.521,-9.950
13:16:23:585,16.413,0.042,-0.078,0.222,5.985,-85.148,-8.244
13:16:23:586,16.414,0.018,-0.123,0.296,6.211,-84.468,-5.326
13:16:23:659,16.488,0.015,-0.018,0.332,6.369,-83.630,-3.277
13:16:23:66,16.488,0.024,0.106,0.367,6.611,-82.262,-0.392
13:16:23:684,16.513,0.060,0.222,0.402,6.808,-81.098,2.011
13:16:23:685,16.513,0.064,0.197,0.422,6.879,-80.418,3.225
13:16:23:706,16.534,0.060,0.151,0.420,6.875,-79.598,4.297
13:16:23:791,16.619,0.062,0.149,0.439,6.805,-79.142,4.415
13:16:23:791,16.619,0.116,0.208,0.416,6.688,-78.548,3.652
13:16:23:792,16.620,0.145,0.021,0.357,6.603,-77.536,1.990
13:16:23:814,16.642,0.168,0.009,0.277,6.576,-76.535,0.522
13:16:23:815,16.643,0.195,0.073,0.172,6.632,-74.485,-2.041
13:16:23:946,16.775,0.225,0.100,0.161,6.767,-73.081,-3.793
13:16:23:947,16.775,0.263,0.159,0.127,7.123,-70.593,-6.234
13:16:24:078,16.907,0.286,0.111,0.064,7.779,-67.766,-8.256
13:16:24:078,16.907,0.259,-0.021,-0.002,8.334,-65.676,-9.431
13:16:24:104,16.932,0.217,-0.095,-0.078,9.289,-62.277,-11.161
13:16:24:105,16.933,0.202,-0.088,-0.208,9.988,-59.996,-12.429
13:16:24:259,17.088,0.213,-0.092,-0.249,11.153,-56.993,-14.567
13:16:24:346,17.174,0.225,-0.085,-0.293,12.221,-54.854,-17.036
13:16:24:346,17.174,0.200,-0.099,-0.310,12.760,-54.074,-18.846
13:16:24:347,17.175,0.131,-0.091,-0.347,13.182,-53.201,-21.565
13:16:24:348,17.176,0.110,-0.109,-0.406,13.456,-52.775,-23.403
13:16:24:398,17.226,0.132,-0.121,-0.389,13.534,-52.642,-26.064
13:16:24:399,17.227,0.032,-0.090,-0.394,13.294,-52.713,-27.784
13:16:24:399,17.228,-0.015,-0.070,-0.412,12.657,-52.887,-30.122
13:16:24:4,17.229,-0.087,-0.027,-0.411,11.711,-52.992,-32.026
13:16:24:498,17.326,-0.155,0.035,-0.370,10.882,-52.811,-33.024
13:16:24:498,17.327,-0.207,0.134,-0.323,9.243,-52.408,-33.443
13:16:24:524,17.352,-0.180,0.231,-0.222,8.168,-51.838,-33.013
13:16:24:525,17.353,-0.175,0.161,-0.146,6.987,-50.545,-31.211
13:16:24:557,17.385,-0.127,-0.090,0.055,6.270,-48.021,-28.593
13:16:24:557,17.385,-0.175,-0.186,0.152,6.038,-45.831,-26.724
13:16:24:558,17.386,-0.137,-0.112,0.145,6.144,-41.983,-24.071
13:16:24:558,17.386,-0.126,0.055,0.086,6.446,-39.076,-22.462
13:16:24:629,17.457,-0.294,0.143,0.014,7.077,-34.538,-20.523
13:16:24:63,17.458,-0.335,0.057,-0.067,7.301,-32.232,-19.389
13:16:24:655,17.484,-0.222,-0.058,0.002,6.955,-32.654,-19.028
13:16:24:656,17.484,-0.088,-0.110,0.060,6.235,-34.452,-18.690
13:16:24:683,17.512,0.002,-0.097,0.127,5.948,-35.684,-18.384
13:16:24:683,17.512,0.065,-0.117,0.168,6.048,-37.249,-17.537
13:16:24:818,17.646,0.037,-0.087,0.018,6.548,-37.874,-16.236
13:16:24:819,17.647,0.102,-0.067,0.004,7.009,-38.340,-15.020
13:16:24:819,17.648,0.118,-0.082,-0.022,7.642,-38.221,-12.734
13:16:24:82,17.649,0.142,-0.048,-0.013,7.985,-38.168,-10.980
13:16:24:924,17.753,0.186,-0.038,0.037,8.371,-37.695,-8.159
13:16:24:924,17.753,0.226,-0.046,0.083,8.614,-37.202,-5.413
13:16:24:924,17.753,0.233,-0.003,0.101,8.685,-36.676,-3.799
13:16:24:925,17.754,0.286,0.156,0.133,8.642,-36.164,-1.764
13:16:24:949,17.778,0.299,0.228,0.148,8.539,-35.668,-0.680
13:16:24:949,17.778,0.287,0.190,0.125,8.276,-35.185,0.414
13:16:24:949,17.778,0.271,0.117,0.156,7.989,-35.250,0.702
13:16:25:049,17.877,0.279,0.108,0.184,7.390,-35.901,0.437
13:16:25:05,17.878,0.308,0.147,0.234,6.710,-36.429,-0.413
13:16:25:077,17.906,0.275,-0.022,0.193,6.310,-36.213,-1.196
13:16:25:077,17.906,0.259,-0.108,0.163,5.849,-35.213,-2.637
13:16:25:103,17.931,0.249,-0.104,0.089,5.563,-33.510,-4.243
13:16:25:103,17.932,0.241,-0.005,0.067,5.515,-31.893,-5.274
13:16:25:186,18.014,0.226,0.106,0.010,5.730,-28.977,-6.675
13:16:25:186,18.015,0.202,0.167,-0.037,6.065,-26.747,-7.520
13:16:25:187,18.015,0.137,0.216,-0.129,6.845,-23.282,-8.724
13:16:25:237,18.065,0.054,-0.062,-0.180,8.418,-18.199,-11.141
13:16:25:238,18.066,-0.050,-0.120,-0.172,9.050,-16.413,-13.453
13:16:25:239,18.067,-0.054,-0.106,-0.196,9.412,-15.596,-15.239
13:16:25:24,18.068,-0.048,-0.078,-0.215,9.770,-15.166,-18.285
13:16:25:312,18.141,-0.089,-0.079,-0.249,9.913,-15.068,-20.452
13:16:25:313,18.141,-0.135,-0.099,-0.244,10.053,-14.881,-23.681
13:16:25:336,18.165,-0.167,-0.124,-0.232,9.780,-14.808,-26.391
13:16:25:337,18.165,-0.197,-0.137,-0.230,9.749,-14.833,-28.228
13:16:25:36,18.188,-0.237,-0.124,-0.198,9.523,-14.868,-30.585
13:16:25:445,18.274,-0.297,-0.031,-0.177,9.270,-14.864,-31.792
13:16:25:445,18.274,-0.305,0.005,-0.152,8.719,-14.775,-32.826
13:16:25:446,18.274,-0.307,0.043,-0.107,7.916,-14.523,-32.814
13:16:25:465,18.294,-0.315,0.100,-0.057,7.253,-14.252,-32.174
13:16:25:491,18.320,-0.244,0.227,0.006,6.428,-13.583,-30.181
13:16:25:661,18.489,-0.250,0.268,-0.013,6.218,-12.827,-28.293
13:16:25:661,18.489,-0.122,0.030,0.068,6.088,-11.275,-24.953
13:16:25:661,18.490,-0.064,-0.186,0.187,5.934,-9.305,-21.846
13:16:25:662,18.490,-0.037,-0.228,0.164,6.006,-7.957,-20.123
13:16:25:763,18.591,-0.014,-0.050,0.069,6.343,-6.093,-17.970
13:16:25:763,18.592,-0.067,0.039,0.050,6.624,-4.924,-16.826
13:16:25:764,18.592,-0.187,0.078,0.057,6.792,-4.400,-15.688
13:16:25:765,18.593,-0.057,0.037,0.000,6.477,-6.466,-15.268
13:16:25:786,18.614,-0.017,-0.005,-0.002,6.045,-8.623,-15.244
13:16:25:786,18.615,0.059,-0.050,0.024,5.373,-11.656,-15.256
13:16:25:787,18.616,0.084,-0.073,0.039,5.038,-13.055,-15.166
13:16:25:893,18.722,0.139,-0.085,0.028,4.804,-14.582,-14.736
13:16:25:894,18.723,0.167,-0.113,0.018,4.806,-15.080,-13.794
13:16:25:895,18.724,0.123,-0.119,0.036,4.822,-14.999,-12.872
13:16:25:912,18.741,0.189,-0.061,0.055,4.862,-14.691,-9.726
13:16:26:02,18.848,0.205,-0.061,0.088,4.865,-14.417,-7.537
13:16:26:021,18.849,0.211,0.002,0.137,4.814,-13.883,-5.445
13:16:26:047,18.875,0.253,0.067,0.147,4.798,-13.158,-4.191
13:16:26:047,18.875,0.296,0.214,0.145,4.775,-12.348,-2.648
13:16:26:076,18.904,0.272,0.228,0.147,4.737,-11.706,-1.913
13:16:26:076,18.904,0.243,0.171,0.139,4.609,-11.097,-1.384
13:16:26:077,18.905,0.280,0.121,0.117,4.482,-10.981,-1.463
13:16:26:179,19.007,0.302,0.122,0.098,4.284,-11.224,-2.151
13:16:26:179,19.007,0.273,0.098,0.062,4.187,-10.934,-3.366
13:16:26:288,19.116,0.245,-0.013,0.034,4.233,-10.483,-4.385
13:16:26:288,19.117,0.183,-0.021,-0.030,4.413,-9.395,-6.229
13:16:26:289,19.118,0.156,0.023,-0.067,4.610,-8.502,-7.568
13:16:26:332,19.160,0.078,0.144,-0.140,5.780,-4.701,-10.856
13:16:26:44,19.269,0.062,0.158,-0.160,6.401,-2.831,-11.613
13:16:26:441,19.269,-0.014,0.001,-0.156,7.415,0.286,-12.818
13:16:26:498,19.327,-0.063,-0.084,-0.212,8.054,2.179,-13.819
13:16:26:499,19.327,-0.144,-0.120,-0.189,8.752,4.216,-15.723
13:16:26:5,19.328,-0.125,-0.119,-0.179,9.257,5.634,-17.960
13:16:26:501,19.329,-0.172,-0.118,-0.178,9.502,6.021,-19.654
13:16:26:543,19.371,-0.197,-0.118,-0.214,9.432,6.587,-22.159
13:16:26:578,19.407,-0.199,-0.126,-0.193,9.430,6.741,-23.988
13:16:26:578,19.407,-0.250,-0.136,-0.141,9.322,7.159,-26.575
13:16:26:579,19.407,-0.263,-0.132,-0.130,9.146,7.490,-28.781
13:16:26:58,19.408,-0.251,-0.149,-0.114,8.938,7.828,-29.944
13:16:26:595,19.424,-0.237,-0.144,-0.037,8.574,8.510,-31.078
13:16:26:624,19.453,-0.310,-0.079,0.026,8.294,9.090,-31.398
13:16:26:624,19.453,-0.296,-0.018,0.042,7.593,9.570,-31.204
13:16:26:733,19.562,-0.261,0.121,0.060,6.584,9.704,-30.134
13:16:26:734,19.563,-0.230,0.217,0.074,5.958,9.615,-28.880
13:16:26:735,19.563,-0.202,0.352,0.082,5.400,9.931,-26.235
13:16:26:735,19.564,0.059,0.323,0.192,5.091,10.182,-24.133
13:16:26:752,19.581,0.162,0.020,0.258,4.859,11.090,-21.040
13:16:26:835,19.664,0.072,-0.261,0.090,5.687,13.203,-18.228
13:16:26:836,19.665,0.062,-0.255,0.000,6.476,15.040,-16.640
13:16:26:837,19.665,0.007,-0.070,-0.023,7.560,17.764,-14.913
13:16:26:856,19.684,-0.062,0.008,0.020,8.136,19.117,-14.164
13:16:26:882,19.710,-0.052,0.126,0.029,8.583,19.530,-13.565
13:16:26:993,19.822,-0.003,0.084,0.029,8.538,18.626,-13.591
13:16:26:993,19.822,0.017,-0.012,-0.031,8.264,16.279,-14.019
13:16:27:049,19.878,0.063,-0.093,-0.083,7.949,13.632,-14.566
13:16:27:05,19.879,0.102,-0.148,-0.116,7.779,12.653,-14.831
13:16:27:051,19.880,0.097,-0.126,-0.100,7.663,12.394,-14.767
13:16:27:051,19.880,0.069,-0.117,-0.087,7.691,12.888,-14.341
13:16:27:125,19.954,0.076,-0.116,-0.098,7.658,13.818,-13.431
13:16:27:125,19.954,0.109,-0.098,-0.088,7.533,14.540,-12.066
13:16:27:148,19.976,0.139,-0.070,-0.071,7.409,15.122,-10.997
13:16:27:149,19.977,0.144,-0.068,-0.053,7.384,16.417,-8.902
13:16:27:173,20.001,0.164,-0.062,-0.049,7.298,17.241,-7.639
13:16:27:285,20.113,0.222,0.026,-0.063,7.073,18.539,-6.030
13:16:27:285,20.113,0.246,0.216,-0.062,6.850,20.135,-4.809
13:16:27:286,20.114,0.207,0.219,-0.074,6.735,21.215,-4.255
13:16:27:287,20.115,0.217,0.167,-0.067,6.482,22.327,-3.932
13:16:27:445,20.273,0.233,0.184,-0.054,6.229,22.631,-4.089
13:16:27:445,20.273,0.220,0.197,-0.083,5.946,22.794,-5.517
13:16:27:445,20.274,0.175,0.113,-0.119,5.762,23.467,-6.672
13:16:27:446,20.274,0.146,0.019,-0.128,5.781,24.363,-7.574
13:16:27:465,20.294,0.087,-0.107,-0.114,5.941,26.193,-9.152
13:16:27:466,20.295,0.012,-0.026,-0.155,6.113,27.627,-10.301
13:16:27:468,20.296,0.013,0.033,-0.195,6.615,29.969,-11.782
13:16:27:513,20.341,-0.050,0.145,-0.246,7.506,32.715,-12.692
13:16:27:542,20.371,-0.117,0.226,-0.214,8.257,34.778,-12.995
13:16:27:542,20.371,-0.173,0.136,-0.206,9.523,38.144,-13.206
13:16:27:594,20.422,-0.232,-0.026,-0.225,10.356,40.368,-13.361
13:16:27:594,20.423,-0.218,-0.139,-0.130,11.235,43.104,-14.179
13:16:27:645,20.473,-0.215,-0.149,-0.107,11.919,45.488,-15.636
13:16:27:673,20.501,-0.272,-0.161,-0.116,12.371,46.860,-16.936
13:16:27:673,20.502,-0.301,-0.135,-0.131,12.950,48.307,-19.333
13:16:27:696,20.524,-0.339,-0.114,-0.053,13.198,48.992,-21.127
13:16:27:722,20.551,-0.360,-0.113,-0.004,13.467,49.794,-23.904
13:16:27:808,20.637,-0.346,-0.130,0.009,13.460,50.120,-26.677
13:16:27:808,20.637,-0.330,-0.106,0.072,12.860,50.330,-28.096
13:16:27:808,20.637,-0.369,-0.015,0.146,12.499,50.618,-30.405
13:16:27:828,20.657,-0.391,0.087,0.204,12.169,50.781,-31.592
13:16:27:854,20.683,-0.349,0.115,0.230,11.389,51.051,-32.639
13:16:27:962,20.791,-0.289,0.143,0.272,10.173,51.783,-32.725
13:16:27:963,20.791,-0.224,0.202,0.264,9.222,52.105,-32.136
13:16:27:989,20.817,-0.122,0.253,0.200,8.096,53.254,-30.186
13:16:27:99,20.818,0.080,-0.085,0.106,7.686,54.364,-28.330
13:16:28:014,20.842,0.152,-0.209,0.113,7.328,56.927,-25.432
13:16:28:015,20.843,0.156,-0.202,0.101,7.260,59.947,-23.048
13:16:28:095,20.924,0.106,-0.194,0.060,7.516,62.380,-21.715
13:16:28:096,20.925,-0.016,-0.096,0.105,8.183,65.849,-20.208
13:16:28:097,20.926,-0.060,0.062,0.273,8.530,68.052,-19.619
13:16:28:145,20.973,-0.055,0.085,0.234,8.490,68.794,-19.283
13:16:28:146,20.974,0.002,0.061,0.119,7.716,66.897,-19.384
13:16:28:257,21.085,0.055,0.007,0.028,7.122,64.894,-19.479
13:16:28:257,21.085,0.059,-0.098,-0.047,6.447,62.026,-19.378
13:16:28:258,21.086,0.033,-0.145,-0.062,6.273,60.898,-18.961
13:16:28:259,21.087,-0.012,-0.143,-0.048,6.477,60.569,-17.724
13:16:28:274,21.102,-0.023,-0.142,-0.095,6.774,60.971,-16.578
13:16:28:39,21.219,-0.025,-0.131,-0.096,7.220,61.905,-14.455
13:16:28:39,21.219,-0.019,-0.085,-0.067,7.543,62.968,-12.050
13:16:28:39,21.219,0.018,-0.049,-0.162,7.704,63.562,-10.373
13:16:28:39,21.219,0.052,-0.023,-0.195,7.760,64.221,-8.018
13:16:28:407,21.235,0.090,0.165,-0.248,7.744,64.788,-6.599
13:16:28:434,21.262,0.062,0.284,-0.213,7.749,65.950,-4.758
13:16:28:435,21.263,0.029,0.266,-0.241,7.698,66.742,-3.443
13:16:28:516,21.345,0.069,0.225,-0.245,7.499,66.888,-2.984
13:16:28:516,21.345,0.143,0.199,-0.234,7.013,66.707,-3.097
13:16:28:567,21.395,0.146,0.193,-0.236,6.696,66.488,-3.664
13:16:28:567,21.395,0.098,0.059,-0.244,6.348,66.644,-5.070
13:16:28:617,21.446,0.032,-0.038,-0.179,6.196,67.486,-7.013
13:16:28:648,21.476,-0.005,0.006,-0.162,6.224,68.281,-8.536
13:16:28:648,21.476,-0.036,0.086,-0.119,6.487,69.680,-10.894
13:16:28:648,21.477,-0.089,0.104,-0.080,6.848,71.100,-12.376
13:16:28:668,21.496,-0.105,0.131,-0.015,7.695,73.425,-14.286
13:16:28:695,21.523,-0.176,0.098,0.019,9.025,76.313,-15.824
13:16:28:778,21.607,-0.206,-0.044,0.030,9.977,78.151,-16.948
13:16:28:779,21.607,-0.217,-0.116,0.130,11.066,79.978,-19.080
13:16:28:78,21.608,-0.237,-0.147,0.188,11.677,80.483,-20.604
13:16:28:799,21.628,-0.227,-0.165,0.158,12.330,80.781,-23.088
13:16:28:825,21.653,-0.231,-0.190,0.189,12.666,80.337,-25.859
13:16:28:88,21.708,-0.238,-0.171,0.219,12.717,79.910,-27.834
13:16:28:907,21.735,-0.254,-0.185,0.207,11.994,79.277,-30.160
13:16:28:907,21.735,-0.239,-0.194,0.263,11.854,78.962,-32.035
13:16:28:931,21.759,-0.213,-0.158,0.295,10.493,78.921,-33.298
13:16:28:956,21.784,-0.165,-0.054,0.411,9.951,78.974,-35.260
13:16:28:983,21.811,-0.193,-0.013,0.409,9.485,78.903,-35.990
13:16:29:066,21.895,-0.154,-0.033,0.351,8.229,78.468,-36.109
13:16:29:068,21.896,-0.080,0.047,0.319,7.021,77.978,-35.471
13:16:29:068,21.896,-0.044,0.206,0.363,5.173,77.319,-33.309
13:16:29:088,21.916,0.108,0.367,0.207,3.881,77.269,-29.666
13:16:29:113,21.942,0.262,0.292,0.034,3.465,77.819,-26.762
13:16:29:199,22.027,0.299,-0.015,-0.052,3.546,79.840,-22.654
13:16:29:199,22.028,0.143,-0.157,-0.089,4.448,82.519,-20.122
13:16:29:2,22.028,0.036,-0.097,-0.080,6.205,88.148,-16.939
13:16:29:221,22.049,0.094,0.017,0.115,7.249,92.056,-15.343
13:16:29:247,22.075,0.201,0.063,0.205,8.315,95.719,-13.789
13:16:29:329,22.158,0.066,0.070,0.147,8.690,94.433,-13.556
13:16:29:33,22.159,-0.022,-0.033,0.058,8.540,91.560,-14.093
13:16:29:331,22.159,-0.092,-0.073,-0.001,8.063,85.844,-15.279
13:16:29:35,22.178,-0.121,-0.136,-0.064,7.661,82.349,-16.100
13:16:29:376,22.204,-0.103,-0.147,-0.118,7.172,77.233,-16.825
13:16:29:402,22.230,-0.076,-0.186,-0.173,7.060,74.818,-16.590
13:16:29:509,22.338,-0.065,-0.200,-0.184,7.152,73.306,-15.898
13:16:29:542,22.371,-0.046,-0.192,-0.124,7.316,73.047,-14.185
13:16:29:543,22.371,-0.023,-0.115,-0.132,7.350,72.459,-12.626
13:16:29:544,22.372,-0.029,-0.079,-0.142,7.380,72.373,-9.797
13:16:29:545,22.373,-0.027,-0.002,-0.229,7.350,71.866,-6.651
13:16:29:621,22.449,0.019,0.154,-0.261,7.217,71.753,-4.571
13:16:29:621,22.449,0.063,0.351,-0.262,6.903,71.609,-1.755
13:16:29:621,22.449,0.135,0.339,-0.323,6.599,71.486,-0.241
13:16:29:639,22.467,0.256,0.234,-0.319,5.878,70.832,1.073
13:16:29:666,22.495,0.278,0.217,-0.252,5.050,69.982,1.084
13:16:29:75,22.578,0.251,0.189,-0.284,4.621,69.452,0.500
13:16:29:75,22.579,0.200,-0.010,-0.290,4.164,68.646,-1.031
13:16:29:75,22.579,0.172,-0.053,-0.250,3.962,68.638,-2.396
13:16:29:77,22.599,0.160,-0.014,-0.200,3.852,69.461,-4.840
13:16:29:799,22.627,0.120,0.052,-0.128,4.135,71.320,-7.500
13:16:29:879,22.707,0.078,0.132,-0.032,4.647,72.966,-9.124
13:16:29:88,22.708,0.006,0.112,-0.016,6.040,76.026,-10.737
13:16:29:904,22.732,-0.046,0.103,-0.009,7.136,77.843,-11.553
13:16:29:904,22.733,-0.178,-0.066,0.059,8.829,80.341,-12.939
13:16:29:927,22.756,-0.229,-0.129,0.139,10.025,81.182,-14.868
13:16:29:953,22.782,-0.222,-0.152,0.119,10.500,80.587,-16.501
13:16:30:068,22.896,-0.206,-0.131,0.063,10.787,78.940,-19.242
13:16:30:069,22.897,-0.198,-0.127,0.090,10.877,78.022,-21.182
13:16:30:07,22.898,-0.222,-0.118,0.156,10.997,77.052,-24.284
13:16:30:07,22.898,-0.245,-0.139,0.185,11.051,76.246,-27.463
13:16:30:085,22.913,-0.219,-0.171,0.193,10.992,75.869,-29.499
13:16:30:2,23.028,-0.166,-0.149,0.287,10.741,75.597,-32.292
13:16:30:2,23.028,-0.161,-0.074,0.329,10.437,75.523,-33.807
13:16:30:2,23.028,-0.166,-0.016,0.356,9.652,75.157,-35.220
13:16:30:201,23.029,-0.157,0.020,0.334,8.836,74.847,-35.509
13:16:30:216,23.045,-0.111,0.172,0.361,7.311,74.414,-34.735
13:16:30:298,23.127,-0.097,0.384,0.374,6.240,74.458,-32.144
13:16:30:299,23.127,-0.016,0.419,0.283,5.877,74.642,-29.463
13:16:30:351,23.179,0.178,0.138,-0.054,5.620,75.337,-24.752
13:16:30:352,23.180,0.309,-0.005,-0.015,5.617,76.440,-21.750
13:16:30:379,23.207,0.227,-0.076,0.008,6.639,80.336,-17.819
13:16:30:379,23.207,0.061,-0.111,-0.064,8.022,85.510,-15.197
13:16:30:594,23.422,0.018,-0.135,0.220,8.746,88.802,-14.390
13:16:30:594,23.422,0.193,-0.089,0.255,9.311,90.566,-14.467
13:16:30:594,23.423,0.055,-0.136,0.113,9.326,88.812,-15.411
13:16:30:595,23.423,-0.002,-0.078,0.119,8.639,83.789,-17.592
13:16:30:619,23.447,-0.104,-0.112,0.053,7.781,78.222,-19.211
13:16:30:62,23.449,-0.139,-0.144,-0.037,7.395,75.027,-19.526
13:16:30:621,23.449,-0.089,-0.197,-0.164,7.208,71.481,-18.834
13:16:30:622,23.450,-0.029,-0.213,-0.124,7.529,70.100,-16.961
13:16:30:848,23.677,-0.004,-0.216,-0.093,7.867,70.161,-15.199
13:16:30:877,23.705,0.023,-0.139,-0.095,8.281,70.784,-12.056
13:16:30:877,23.706,0.020,-0.018,-0.154,8.439,71.314,-9.740
13:16:31:014,23.843,0.009,0.073,-0.175,8.504,72.184,-6.229
13:16:31:015,23.843,-0.019,0.332,-0.282,8.508,72.619,-4.013
13:16:31:015,23.843,0.009,0.343,-0.325,8.383,73.012,-1.100
13:16:31:015,23.844,0.198,0.236,-0.340,7.872,73.136,1.025
13:16:31:04,23.868,0.292,0.249,-0.363,7.376,72.925,1.847
13:16:31:041,23.869,0.302,0.190,-0.413,6.712,72.444,2.143
13:16:31:041,23.870,0.216,0.061,-0.369,6.373,72.387,1.768
13:16:31:042,23.871,0.173,-0.001,-0.361,6.115,72.705,0.406
13:16:31:065,23.894,0.081,0.093,-0.270,6.037,73.454,-1.904
13:16:31:066,23.894,0.057,0.152,-0.173,6.035,74.118,-3.870
13:16:31:067,23.895,0.038,0.162,-0.151,6.204,75.355,-7.107
13:16:31:067,23.896,0.028,0.165,-0.134,6.455,76.344,-9.299
13:16:31:171,24.000,-0.066,0.055,-0.099,7.263,78.465,-12.411
13:16:31:171,24.000,-0.145,-0.036,-0.028,8.655,80.888,-15.180
13:16:31:172,24.000,-0.191,-0.082,0.012,9.783,82.344,-16.883
13:16:31:173,24.001,-0.179,-0.081,0.097,11.415,83.880,-19.516
13:16:31:197,24.025,-0.237,-0.107,0.212,12.444,84.407,-21.339
13:16:31:197,24.026,-0.237,-0.130,0.230,13.760,84.509,-24.257
13:16:31:198,24.027,-0.261,-0.141,0.235,14.575,83.786,-27.529
13:16:31:199,24.027,-0.259,-0.138,0.245,14.853,83.126,-29.836
13:16:31:27,24.098,-0.257,-0.187,0.282,15.317,82.749,-33.166
13:16:31:271,24.099,-0.258,-0.188,0.326,15.711,82.794,-35.230
13:16:31:319,24.147,-0.270,-0.173,0.389,15.610,83.271,-37.161
13:16:31:355,24.184,-0.257,-0.123,0.431,15.671,83.364,-38.565
13:16:31:355,24.184,-0.220,-0.139,0.430,15.057,83.258,-39.856
13:16:31:355,24.184,-0.161,-0.060,0.394,13.402,82.650,-40.014
13:16:31:356,24.184,-0.140,0.076,0.466,11.945,82.206,-39.353
13:16:31:43,24.258,-0.105,0.184,0.389,9.944,81.814,-36.973
13:16:31:43,24.259,-0.021,0.068,0.222,8.612,81.929,-32.987
13:16:31:564,24.393,0.070,-0.029,0.088,7.981,82.434,-29.803
13:16:31:565,24.393,0.272,-0.047,-0.016,7.122,83.717,-25.073
13:16:31:565,24.394,0.218,0.075,-0.016,6.858,85.241,-22.199
13:16:31:566,24.395,0.110,0.081,-0.013,7.573,89.246,-18.350
13:16:31:587,24.416,-0.022,0.032,0.211,8.275,93.405,-15.526
13:16:31:587,24.416,0.262,0.074,0.003,8.361,94.324,-14.183
13:16:31:608,24.436,0.048,-0.019,-0.160,7.928,90.105,-12.872
13:16:31:695,24.523,-0.064,-0.036,-0.210,7.977,88.596,-12.034
13:16:31:695,24.523,-0.072,-0.046,-0.257,8.233,88.819,-11.132
13:16:31:695,24.523,-0.097,-0.064,-0.222,8.706,90.237,-9.456
13:16:31:713,24.541,-0.109,-0.099,-0.198,9.279,92.295,-7.469
13:16:31:741,24.569,-0.102,-0.123,-0.189,9.598,93.550,-6.056
13:16:31:848,24.677,-0.101,-0.123,-0.234,9.901,95.181,-4.013
13:16:31:848,24.677,-0.101,-0.102,-0.291,10.048,96.086,-2.802
13:16:31:874,24.703,-0.101,-0.008,-0.312,10.159,97.414,-1.397
13:16:31:875,24.703,-0.120,0.104,-0.328,10.154,98.856,-0.539
13:16:31:9,24.728,-0.137,0.159,-0.302,10.118,99.840,-0.314
13:16:31:9,24.729,-0.163,0.146,-0.210,10.024,101.055,-0.629
13:16:31:98,24.808,-0.152,0.169,-0.199,9.866,101.420,-1.362
13:16:31:98,24.808,-0.162,0.231,-0.235,9.457,101.173,-3.084
13:16:32:004,24.832,-0.174,0.221,-0.216,9.040,101.105,-5.194
13:16:32:005,24.833,-0.169,0.102,-0.183,8.844,101.530,-6.695
13:16:32:028,24.856,-0.180,-0.048,-0.108,8.726,103.176,-8.983
13:16:32:107,24.936,-0.191,0.015,-0.039,8.769,104.906,-10.457
13:16:32:138,24.966,-0.202,0.071,0.018,9.141,108.093,-12.376
13:16:32:139,24.967,-0.270,0.138,0.029,9.954,111.535,-13.645
13:16:32:14,24.968,-0.233,0.068,0.072,10.690,114.275,-14.137
13:16:32:159,24.987,-0.199,0.008,0.146,12.001,118.388,-14.558
13:16:32:268,25.096,-0.204,-0.140,0.202,12.907,121.223,-14.913
13:16:32:269,25.097,-0.161,-0.107,0.261,14.298,124.784,-15.715
13:16:32:294,25.122,-0.134,-0.097,0.311,15.532,127.483,-17.192
13:16:32:295,25.123,-0.164,-0.078,0.305,16.239,128.458,-18.534
13:16:32:319,25.147,-0.157,-0.127,0.361,17.241,129.614,-20.891
13:16:32:32,25.148,-0.131,-0.154,0.389,17.863,130.074,-22.631
13:16:32:399,25.227,-0.103,-0.129,0.411,17.878,130.351,-25.091
13:16:32:4,25.228,-0.050,-0.084,0.412,17.470,130.323,-27.381
13:16:32:451,25.280,-0.036,-0.026,0.455,17.503,130.112,-29.037
13:16:32:452,25.280,0.011,0.039,0.465,17.256,129.544,-30.926
13:16:32:535,25.363,0.036,0.036,0.477,16.921,129.058,-31.793
13:16:32:536,25.364,0.066,0.125,0.469,15.726,127.885,-32.112
13:16:32:537,25.365,0.139,0.232,0.366,14.399,127.069,-31.580
13:16:32:552,25.381,0.102,0.055,-0.104,10.401,126.595,-26.976
13:16:32:579,25.407,0.095,-0.167,-0.212,9.799,128.001,-24.941
13:16:32:721,25.550,0.044,-0.264,-0.260,9.626,131.560,-22.074
13:16:32:721,25.550,0.004,-0.167,-0.172,9.880,135.111,-20.334
13:16:32:721,25.550,0.037,-0.098,-0.091,10.469,141.264,-18.075
13:16:32:722,25.550,0.199,0.039,0.080,11.012,146.764,-16.405
13:16:32:873,25.702,0.251,0.041,0.097,10.913,148.350,-15.700
13:16:32:873,25.702,0.035,0.043,-0.136,10.231,148.083,-15.020
13:16:32:955,25.784,-0.112,-0.001,-0.188,9.841,146.339,-14.667
13:16:32:956,25.784,-0.126,-0.088,-0.124,9.620,144.622,-13.988
13:16:32:957,25.785,-0.164,-0.133,-0.079,9.732,144.466,-12.842
13:16:32:958,25.786,-0.172,-0.133,-0.054,9.885,145.348,-11.865
13:16:32:981,25.810,-0.162,-0.104,-0.025,10.153,146.932,-10.182
13:16:32:982,25.811,-0.182,-0.101,0.019,10.336,148.558,-8.980
13:16:32:983,25.812,-0.195,-0.112,0.002,10.468,149.581,-7.116
13:16:32:984,25.812,-0.235,-0.065,-0.037,10.488,150.853,-5.299
13:16:33:005,25.834,-0.243,0.006,-0.044,10.482,151.282,-4.233
13:16:33:005,25.834,-0.293,0.083,-0.043,10.407,152.301,-2.968
13:16:33:006,25.834,-0.305,0.158,-0.073,10.233,152.649,-2.314
13:16:33:083,25.912,-0.303,0.223,-0.073,9.848,154.147,-1.646
13:16:33:084,25.912,-0.254,0.226,-0.060,9.317,155.597,-1.640
13:16:33:085,25.913,-0.267,0.219,-0.077,8.865,155.699,-2.051
13:16:33:103,25.932,-0.277,0.189,-0.122,8.147,156.464,-3.137
13:16:33:131,25.960,-0.284,0.055,-0.119,7.791,157.026,-4.064
13:16:33:239,26.068,-0.239,0.004,-0.060,7.614,159.472,-5.674
13:16:33:24,26.068,-0.160,0.026,0.043,7.824,162.068,-7.546
13:16:33:265,26.094,-0.104,0.084,0.070,8.087,163.815,-8.891
13:16:33:266,26.094,-0.088,0.126,0.093,8.651,166.284,-10.875
13:16:33:368,26.196,-0.050,0.152,0.131,9.196,167.940,-12.057
13:16:33:396,26.225,-0.051,0.051,0.207,10.327,170.424,-13.585
13:16:33:397,26.225,-0.006,-0.087,0.219,11.534,172.579,-15.218
13:16:33:424,26.252,0.067,-0.173,0.208,12.281,173.936,-16.412
13:16:33:424,26.253,0.099,-0.180,0.191,13.263,175.554,-18.466
13:16:33:508,26.337,0.124,-0.137,0.227,13.825,176.232,-20.021
13:16:33:508,26.337,0.144,-0.133,0.245,14.557,176.835,-22.563
13:16:33:508,26.337,0.191,-0.134,0.231,14.917,177.105,-24.296
13:16:33:509,26.337,0.237,-0.157,0.197,15.395,177.612,-26.830
13:16:33:529,26.357,0.269,-0.159,0.181,15.716,177.874,-29.337
13:16:33:529,26.357,0.300,-0.091,0.204,15.765,177.880,-30.902
13:16:33:635,26.463,0.343,-0.033,0.205,15.573,177.835,-32.734
13:16:33:635,26.463,0.386,0.049,0.194,15.267,177.829,-33.403
13:16:33:655,26.484,0.332,0.030,0.142,14.492,177.747,-33.431
13:16:33:687,26.515,0.360,0.141,0.142,13.519,177.528,-32.293
13:16:33:687,26.516,0.342,0.192,0.141,12.857,177.317,-30.808
13:16:33:688,26.517,0.206,0.215,0.111,11.853,176.992,-27.595
13:16:33:788,26.617,0.079,0.141,0.030,11.220,176.885,-25.082
13:16:33:819,26.647,-0.091,-0.117,-0.203,10.312,177.323,-21.455
13:16:33:819,26.647,-0.141,0.005,-0.271,10.016,179.095,-18.350
13:16:33:845,26.673,0.060,-0.040,-0.121,10.430,-178.725,-16.737
13:16:33:845,26.673,0.068,-0.024,-0.032,10.874,-176.225,-15.272
13:16:33:953,26.782,0.165,-0.057,-0.107,10.699,-175.973,-15.127
13:16:33:954,26.782,-0.015,-0.021,-0.160,9.999,-178.373,-15.749
13:16:33:955,26.783,-0.112,-0.031,-0.068,9.248,177.796,-16.805
13:16:33:955,26.784,-0.137,-0.029,-0.044,8.905,175.409,-17.430
13:16:33:973,26.801,-0.107,-0.059,0.047,8.714,173.449,-17.863
13:16:33:973,26.802,-0.130,-0.121,0.075,8.807,172.787,-17.630
13:16:34:111,26.940,-0.153,-0.188,0.044,9.102,173.157,-16.393
13:16:34:111,26.940,-0.112,-0.195,0.030,9.395,174.063,-14.305
13:16:34:112,26.940,-0.138,-0.170,0.030,9.553,174.687,-12.526
13:16:34:113,26.941,-0.184,-0.081,0.021,9.702,175.492,-9.516
13:16:34:188,27.017,-0.229,0.031,-0.019,9.723,176.102,-7.463
13:16:34:189,27.017,-0.246,0.104,0.005,9.750,176.972,-4.594
13:16:34:19,27.018,-0.310,0.160,0.015,9.734,177.770,-2.171
13:16:34:19,27.019,-0.345,0.195,-0.009,9.645,178.327,-0.852
13:16:34:207,27.035,-0.365,0.243,-0.027,9.385,179.155,0.448
13:16:34:232,27.061,-0.376,0.271,0.011,9.165,179.311,0.816
13:16:34:258,27.087,-0.393,0.230,0.037,8.862,179.654,0.672
13:16:34:34,27.168,-0.359,-0.018,0.070,8.680,-179.529,-0.114
13:16:34:398,27.227,-0.309,-0.035,0.098,8.630,-178.342,-0.896
13:16:34:399,27.228,-0.248,0.027,0.165,8.732,-175.972,-2.321
13:16:34:4,27.228,-0.228,0.032,0.194,8.916,-174.219,-3.373
13:16:34:401,27.229,-0.181,0.088,0.197,9.325,-171.888,-4.988
13:16:34:609,27.438,-0.111,0.151,0.207,9.754,-169.936,-6.044
13:16:34:61,27.439,-0.058,0.042,0.246,10.656,-166.853,-7.676
13:16:34:611,27.439,0.071,-0.044,0.254,11.706,-163.807,-9.640
13:16:34:612,27.440,0.100,-0.099,0.227,12.370,-162.103,-11.329
13:16:34:635,27.464,0.185,-0.083,0.177,13.272,-160.419,-14.359
13:16:34:636,27.464,0.202,-0.077,0.211,13.886,-159.669,-16.584
13:16:34:637,27.465,0.232,-0.087,0.218,14.670,-159.386,-20.147
13:16:34:638,27.466,0.262,-0.114,0.216,15.300,-159.259,-23.717
13:16:34:762,27.591,0.274,-0.127,0.189,15.735,-159.121,-25.899
13:16:34:762,27.591,0.360,-0.121,0.155,16.219,-158.367,-28.545
13:16:34:788,27.616,0.396,-0.107,0.140,16.643,-158.419,-30.220
13:16:34:788,27.617,0.411,-0.080,0.121,16.929,-158.040,-32.245
13:16:34:819,27.648,0.417,-0.081,0.043,16.723,-157.710,-33.491
13:16:34:82,27.648,0.388,-0.025,0.013,16.252,-157.405,-33.850
13:16:34:821,27.649,0.459,0.223,-0.024,15.278,-156.841,-33.403
13:16:34:823,27.652,0.360,0.280,0.010,14.540,-156.331,-32.303
13:16:34:95,27.779,0.209,0.099,-0.008,13.391,-155.330,-29.581
13:16:34:951,27.779,0.042,-0.201,-0.102,12.207,-153.921,-26.571
13:16:34:952,27.780,-0.021,-0.199,-0.139,11.413,-152.690,-24.605
13:16:34:953,27.781,-0.076,0.020,-0.096,10.894,-149.791,-21.688
13:16:35:056,27.884,-0.012,0.041,-0.016,11.010,-147.196,-19.952
13:16:35:056,27.885,0.054,-0.026,-0.127,11.301,-143.197,-17.992
13:16:35:057,27.886,0.109,-0.140,-0.185,11.012,-141.503,-17.072
13:16:35:058,27.886,0.005,-0.058,-0.077,10.345,-142.294,-16.846
13:16:35:075,27.903,-0.324,0.072,0.030,9.195,-144.729,-16.693
13:16:35:076,27.904,-0.315,0.017,0.045,8.768,-146.288,-16.667
13:16:35:309,28.138,-0.072,-0.050,0.055,8.750,-147.016,-16.351
13:16:35:347,28.175,-0.038,-0.069,0.125,9.306,-146.179,-15.305
13:16:35:347,28.175,-0.053,-0.106,0.154,9.700,-145.313,-14.364
13:16:35:347,28.175,-0.033,-0.151,0.088,10.134,-143.875,-12.861
13:16:35:348,28.176,-0.013,-0.093,0.083,10.349,-142.989,-11.824
13:16:35:367,28.195,-0.069,-0.032,0.146,10.564,-141.758,-10.232
13:16:35:367,28.195,-0.191,0.117,0.161,10.585,-141.121,-8.688
13:16:35:476,28.304,-0.197,0.167,0.156,10.635,-140.608,-7.745
13:16:35:477,28.305,-0.243,0.153,0.279,10.864,-140.169,-6.651
13:16:35:477,28.305,-0.286,0.161,0.326,10.972,-139.810,-6.336
13:16:35:478,28.306,-0.243,0.176,0.300,11.027,-139.335,-6.643
13:16:35:502,28.330,-0.265,0.236,0.389,11.027,-138.871,-7.312
13:16:35:503,28.331,-0.257,0.156,0.527,11.110,-138.399,-8.902
13:16:35:503,28.332,-0.104,0.027,0.470,11.181,-137.083,-11.332
13:16:35:504,28.333,-0.048,0.046,0.449,11.266,-135.726,-13.164
13:16:35:572,28.401,0.040,0.134,0.480,11.580,-132.675,-16.026
13:16:35:609,28.437,0.173,0.221,0.450,11.998,-130.565,-18.040
13:16:35:609,28.438,0.283,0.258,0.324,13.045,-126.437,-21.063
13:16:35:61,28.438,0.359,0.135,0.227,14.561,-121.955,-24.199
13:16:35:61,28.438,0.400,0.068,0.177,15.601,-119.187,-26.617
13:16:35:627,28.455,0.465,0.064,0.094,17.216,-115.245,-30.799
13:16:35:627,28.455,0.488,-0.021,0.034,18.497,-112.566,-33.832
13:16:35:785,28.614,0.439,-0.004,0.065,20.662,-108.506,-38.460
13:16:35:786,28.614,0.399,0.030,-0.110,23.149,-104.196,-43.232
13:16:35:871,28.699,0.396,-0.007,-0.187,25.118,-101.306,-46.401
13:16:35:872,28.700,0.374,-0.132,-0.244,28.420,-97.413,-51.061
13:16:35:872,28.700,0.318,-0.168,-0.207,30.773,-95.065,-53.945
13:16:35:872,28.700,0.242,-0.157,-0.230,34.815,-91.212,-57.536
13:16:35:897,28.725,0.155,-0.167,-0.335,39.552,-87.000,-60.214
13:16:35:897,28.725,0.093,-0.258,-0.341,42.574,-84.217,-61.499
13:16:35:897,28.725,0.018,-0.155,-0.250,45.908,-80.413,-62.710
13:16:35:897,28.726,0.008,-0.050,-0.285,47.347,-78.004,-63.153
13:16:36:053,28.881,0.021,0.012,-0.325,48.591,-74.447,-63.092
13:16:36:053,28.882,-0.015,-0.057,-0.275,48.459,-71.195,-62.080
13:16:36:054,28.883,-0.037,-0.153,-0.205,47.579,-69.370,-61.172
13:16:36:055,28.884,-0.048,-0.274,-0.171,45.532,-67.164,-60.026
13:16:36:071,28.900,-0.027,-0.284,-0.207,44.222,-65.827,-59.380
13:16:36:131,28.959,-0.014,-0.223,-0.232,42.654,-63.863,-58.286
13:16:36:131,28.960,0.004,-0.029,-0.163,40.323,-62.735,-57.292
13:16:36:132,28.961,0.033,0.075,-0.103,38.568,-62.484,-56.719
13:16:36:133,28.962,0.048,0.024,-0.050,36.736,-62.220,-55.968
13:16:36:15,28.978,0.045,0.029,0.058,36.064,-61.811,-55.501
13:16:36:176,29.004,-0.014,0.099,0.156,34.880,-60.990,-54.969
13:16:36:201,29.029,0.014,0.140,0.245,34.154,-60.360,-54.713
13:16:36:284,29.112,0.069,0.193,0.286,33.936,-59.468,-54.621
13:16:36:284,29.113,0.017,0.217,0.304,35.179,-58.029,-55.044
13:16:36:309,29.138,-0.063,0.236,0.290,36.801,-56.642,-55.550
13:16:36:31,29.138,-0.029,0.248,0.285,40.305,-54.468,-56.748
13:16:36:332,29.160,0.060,0.416,0.355,43.227,-53.052,-57.830
13:16:36:417,29.245,0.083,0.493,0.270,49.218,-50.302,-59.742
13:16:36:417,29.246,0.023,0.219,0.115,57.562,-46.217,-61.462
13:16:36:418,29.247,0.018,0.206,0.044,62.765,-43.817,-62.690
13:16:36:437,29.266,-0.010,0.176,0.008,69.041,-41.609,-65.165
13:16:36:464,29.292,0.052,0.199,-0.021,72.562,-40.762,-67.146
13:16:36:543,29.371,0.127,0.125,-0.121,77.274,-40.605,-70.878
13:16:36:57,29.398,0.162,0.035,-0.182,81.326,-41.433,-75.120
13:16:36:598,29.426,0.179,-0.002,-0.230,83.719,-42.316,-78.186
13:16:36:599,29.427,0.097,-0.193,-0.150,86.801,-43.820,-82.963
13:16:36:706,29.534,0.105,-0.207,-0.137,88.567,-45.167,-86.491
13:16:36:706,29.534,0.123,-0.192,-0.191,90.835,-47.787,-92.383
13:16:36:753,29.581,0.117,-0.325,-0.130,92.636,-51.097,-98.782
13:16:36:867,29.695,0.130,-0.253,-0.109,93.506,-53.323,-102.819
13:16:36:868,29.696,0.089,-0.177,-0.151,94.488,-56.995,-108.959
13:16:36:868,29.697,0.029,-0.231,-0.114,95.079,-59.960,-113.434
13:16:36:869,29.698,0.000,-0.273,-0.032,95.798,-63.370,-118.953
13:16:36:888,29.716,0.021,-0.143,-0.034,96.155,-64.846,-122.470
13:16:36:889,29.717,-0.027,-0.129,-0.022,96.221,-66.058,-124.978
13:16:36:963,29.791,-0.048,-0.200,0.065,96.277,-69.181,-129.876
13:16:36:998,29.827,-0.016,-0.126,0.096,96.274,-71.087,-132.794
13:16:36:998,29.827,-0.003,-0.034,0.007,96.202,-73.739,-136.735
13:16:36:999,29.828,-0.012,-0.056,-0.010,96.281,-81.047,-145.168
13:16:37:,29.829,-0.025,-0.084,0.093,96.406,-87.432,-152.172
13:16:37:098,29.926,-0.027,0.033,0.053,96.589,-93.768,-159.228
13:16:37:098,29.927,-0.021,0.117,-0.033,96.782,-97.318,-163.236
13:16:37:132,29.960,-0.014,0.081,0.071,97.250,-104.461,-171.010
13:16:37:132,29.960,0.027,0.078,0.119,97.790,-109.042,-176.047
13:16:37:132,29.960,0.081,0.125,0.021,98.081,-110.375,-177.535
13:16:37:133,29.961,0.009,0.131,-0.101,98.419,-112.732,-179.624
13:16:37:179,30.007,-0.056,0.076,-0.080,98.619,-112.917,-179.653
13:16:37:179,30.007,-0.100,-0.016,-0.025,98.841,-109.822,-176.141
13:16:37:18,30.008,-0.062,-0.020,-0.075,98.835,-108.764,-175.070
13:16:37:258,30.086,-0.071,-0.058,-0.145,98.694,-112.946,-179.089
13:16:37:258,30.087,-0.080,-0.131,-0.107,98.696,-117.864,176.307
13:16:37:281,30.110,-0.073,-0.140,-0.037,98.798,-118.126,176.338
13:16:37:282,30.110,-0.022,-0.019,-0.090,98.978,-115.714,179.384
13:16:37:307,30.135,-0.020,0.011,-0.123,99.120,-114.312,-178.869
13:16:37:307,30.135,-0.025,-0.052,-0.034,99.400,-113.967,-178.168
13:16:37:386,30.214,-0.024,-0.138,0.052,99.741,-112.703,-176.743
13:16:37:387,30.215,-0.011,-0.125,0.041,99.998,-110.533,-174.450
13:16:37:55,30.378,0.010,-0.048,-0.021,100.428,-108.608,-172.527
13:16:37:55,30.378,-0.034,-0.071,0.031,100.784,-109.263,-173.144
13:16:37:551,30.379,-0.082,-0.098,0.097,101.367,-110.012,-173.855
13:16:37:551,30.380,-0.120,-0.014,0.069,101.984,-109.095,-172.663
13:16:37:575,30.403,-0.091,0.003,0.028,102.474,-108.044,-171.655
13:16:37:575,30.404,-0.085,-0.001,0.074,103.275,-107.632,-171.334
13:16:37:577,30.405,-0.050,0.075,0.096,103.798,-107.726,-171.520
13:16:37:577,30.405,-0.021,0.121,0.052,104.547,-108.312,-172.198
13:16:37:674,30.502,-0.013,0.115,0.054,105.227,-109.081,-173.029
13:16:37:709,30.537,-0.009,0.123,0.062,105.605,-109.139,-173.177
13:16:37:709,30.537,0.013,0.109,0.016,106.014,-108.677,-173.035
13:16:37:709,30.537,0.060,0.054,-0.019,106.209,-108.320,-172.986
13:16:37:709,30.538,0.063,0.058,-0.042,106.407,-107.369,-172.290
13:16:37:813,30.642,0.102,0.032,-0.082,106.478,-105.818,-171.011
13:16:37:813,30.642,0.058,-0.001,-0.021,106.456,-105.628,-171.174
13:16:37:813,30.642,0.095,-0.082,-0.012,106.472,-106.008,-172.226
13:16:37:813,30.642,0.111,-0.078,-0.012,106.493,-105.680,-172.344
13:16:37:936,30.764,0.148,-0.041,-0.090,106.511,-104.214,-171.392
13:16:38:101,30.929,0.091,-0.045,-0.089,106.524,-103.378,-170.803
13:16:38:102,30.930,0.019,-0.093,-0.059,106.565,-102.300,-170.013
13:16:38:102,30.931,0.015,-0.116,0.002,106.604,-100.204,-168.343
13:16:38:103,30.932,0.009,-0.094,-0.014,106.579,-98.438,-166.923
13:16:38:153,30.981,-0.002,-0.100,-0.021,106.425,-96.797,-165.809
13:16:38:154,30.982,-0.013,-0.162,0.042,106.185,-96.173,-165.584
13:16:38:154,30.983,-0.012,-0.147,0.051,105.977,-95.381,-164.980
13:16:38:155,30.984,-0.009,-0.049,-0.021,105.629,-94.155,-164.044
13:16:38:258,31.086,-0.016,-0.050,0.022,105.392,-93.985,-164.064
13:16:38:258,31.087,-0.016,-0.047,0.096,104.986,-93.645,-163.967
13:16:38:259,31.088,0.000,0.068,0.106,104.660,-93.067,-163.508
13:16:38:261,31.090,0.018,0.096,0.096,104.162,-92.560,-163.196
13:16:38:285,31.113,-0.016,0.097,0.095,103.603,-93.320,-163.972
13:16:38:285,31.113,-0.032,0.113,0.054,103.168,-93.671,-164.308
13:16:38:286,31.114,-0.026,0.136,-0.042,102.451,-94.601,-165.027
13:16:38:287,31.115,-0.026,0.149,-0.043,101.961,-95.250,-165.271
13:16:38:362,31.190,-0.065,0.132,-0.073,101.208,-92.948,-161.835
13:16:38:363,31.191,-0.138,0.122,-0.090,100.453,-85.565,-153.124
13:16:38:363,31.192,-0.092,-0.017,-0.053,99.966,-81.404,-148.166
13:16:38:412,31.240,-0.047,-0.109,-0.092,99.297,-78.838,-144.738
13:16:38:412,31.241,-0.017,-0.081,-0.155,98.907,-78.931,-144.076
13:16:38:413,31.242,-0.006,-0.084,-0.124,98.504,-79.075,-143.095
13:16:38:488,31.317,0.010,-0.132,-0.061,98.298,-78.418,-141.386
13:16:38:518,31.347,0.035,-0.093,-0.004,98.161,-77.133,-139.528
13:16:38:519,31.347,0.035,-0.010,0.048,97.871,-74.494,-136.260
13:16:38:519,31.347,0.047,-0.020,0.049,97.726,-73.315,-134.839
13:16:38:539,31.367,0.028,-0.129,0.096,97.703,-73.467,-134.718
13:16:38:651,31.480,0.011,-0.137,0.091,97.937,-74.081,-135.178
13:16:38:651,31.480,0.014,-0.135,0.056,98.239,-74.469,-135.519
13:16:38:651,31.480,-0.008,-0.065,0.037,98.839,-75.720,-136.700
13:16:38:699,31.527,-0.014,-0.047,0.067,99.290,-76.751,-137.747
13:16:38:7,31.528,-0.045,0.009,0.091,99.963,-77.987,-139.183
13:16:38:782,31.610,-0.033,0.040,0.119,100.627,-79.411,-141.061
13:16:38:785,31.613,0.044,0.082,0.111,101.055,-80.461,-142.527
13:16:38:785,31.613,0.034,0.148,0.063,101.646,-81.697,-144.410
13:16:38:785,31.613,0.015,0.168,0.045,102.031,-82.305,-145.500
13:16:38:801,31.629,-0.012,0.159,0.061,102.675,-83.083,-147.185
13:16:38:826,31.655,0.044,0.164,0.045,103.332,-83.414,-148.608
13:16:38:911,31.739,0.079,0.151,0.016,103.760,-83.314,-149.180
13:16:38:911,31.740,0.090,0.102,-0.058,104.434,-82.253,-148.892
13:16:38:912,31.740,0.136,0.032,0.020,104.773,-81.149,-148.323
13:16:38:931,31.759,0.192,-0.005,-0.033,105.107,-80.424,-148.656
13:16:38:957,31.786,0.163,-0.061,-0.021,105.339,-80.690,-150.144
13:16:39:042,31.870,0.157,-0.085,-0.038,105.453,-80.053,-150.346
13:16:39:042,31.871,0.126,-0.087,-0.076,105.553,-78.213,-149.692
13:16:39:043,31.872,0.112,-0.107,-0.085,105.546,-76.942,-149.120
13:16:39:063,31.891,0.089,-0.119,-0.044,105.430,-74.791,-147.934
13:16:39:089,31.917,0.020,-0.114,-0.015,105.313,-73.088,-146.907
13:16:39:116,31.945,0.011,-0.118,-0.005,105.177,-70.492,-145.366
13:16:39:172,32.000,0.046,-0.147,0.022,105.088,-68.426,-144.347
13:16:39:172,32.001,0.060,-0.119,0.007,104.994,-67.273,-143.833
13:16:39:193,32.022,0.082,-0.086,0.007,104.716,-65.383,-142.914
13:16:39:22,32.048,0.086,-0.081,0.043,104.449,-64.238,-142.477
13:16:39:334,32.162,0.132,-0.076,0.074,103.979,-63.116,-142.449
13:16:39:335,32.163,0.129,0.017,0.057,103.372,-61.914,-142.475
13:16:39:336,32.164,0.037,0.174,0.019,102.882,-61.135,-142.533
13:16:39:337,32.165,0.007,0.162,0.040,102.236,-61.173,-143.752
13:16:39:353,32.182,0.062,0.162,0.113,101.775,-61.674,-145.342
13:16:39:466,32.295,0.108,0.228,0.055,101.454,-60.878,-145.067
13:16:39:466,32.295,0.003,0.229,-0.070,100.885,-57.729,-142.296
13:16:39:467,32.295,-0.064,0.128,-0.086,100.463,-54.769,-139.215
13:16:39:468,32.296,-0.074,0.009,-0.032,99.654,-48.327,-132.947
13:16:39:482,32.311,0.007,-0.064,-0.157,98.939,-44.280,-129.126
13:16:39:512,32.341,-0.054,-0.137,-0.181,97.677,-39.872,-125.768
13:16:39:512,32.341,-0.096,-0.170,-0.105,96.389,-36.337,-123.049
13:16:39:619,32.447,-0.091,-0.206,-0.022,95.701,-33.241,-120.485
13:16:39:619,32.447,-0.015,-0.189,-0.004,94.988,-28.204,-116.067
13:16:39:64,32.469,0.048,-0.120,0.014,94.691,-25.087,-113.404
13:16:39:749,32.578,0.106,-0.095,0.015,94.397,-21.908,-110.723
13:16:39:75,32.578,0.093,-0.099,0.028,94.263,-20.162,-109.616
13:16:39:782,32.610,0.086,-0.126,0.077,94.278,-19.626,-109.368
13:16:39:782,32.610,0.089,-0.120,0.029,94.512,-19.121,-109.600
13:16:39:782,32.611,0.075,-0.001,0.011,94.749,-19.076,-109.926
13:16:39:783,32.611,0.068,0.043,0.045,95.185,-19.139,-110.825
13:16:39:8,32.628,0.059,0.041,0.085,95.792,-20.391,-112.803
13:16:39:801,32.629,0.079,0.010,0.135,96.273,-21.330,-114.602
13:16:39:884,32.712,0.082,0.046,0.072,97.055,-23.050,-117.302
13:16:39:884,32.712,0.087,0.097,0.066,97.600,-23.941,-119.118
13:16:39:884,32.712,0.057,0.140,0.048,98.442,-25.485,-121.855
13:16:39:904,32.732,0.089,0.114,0.047,99.353,-27.027,-124.535
13:16:39:929,32.758,0.132,0.106,0.003,99.976,-27.736,-126.094
13:16:40:013,32.841,0.114,0.113,-0.089,100.954,-28.425,-127.566
13:16:40:014,32.842,0.120,0.015,-0.159,101.626,-28.079,-127.828
13:16:40:014,32.843,0.174,-0.015,-0.176,102.651,-27.107,-127.457
13:16:40:062,32.891,0.280,-0.034,-0.238,103.630,-25.165,-126.900
13:16:40:063,32.892,0.263,0.016,-0.316,104.115,-23.970,-126.430
13:16:40:086,32.914,0.163,0.022,-0.322,104.487,-21.153,-125.342
13:16:40:227,33.056,0.083,-0.046,-0.196,104.509,-19.277,-124.365
13:16:40:228,33.056,-0.045,-0.053,-0.113,104.300,-15.579,-122.525
13:16:40:229,33.057,-0.076,-0.105,-0.088,104.150,-13.458,-121.552
13:16:40:229,33.058,-0.109,-0.076,-0.084,104.008,-10.457,-120.637
13:16:40:305,33.133,-0.057,-0.047,-0.025,103.939,-8.126,-120.132
13:16:40:306,33.134,0.002,-0.081,0.000,103.898,-6.721,-120.106
13:16:40:306,33.134,0.016,-0.103,-0.002,103.809,-5.203,-120.345
13:16:40:307,33.135,0.045,-0.088,0.011,103.739,-4.101,-120.474
13:16:40:323,33.152,0.059,-0.044,0.026,103.552,-2.889,-120.496
13:16:40:349,33.177,0.057,-0.044,0.056,103.296,-1.662,-120.841
13:16:40:462,33.291,0.043,-0.091,0.086,103.110,-1.426,-121.203
13:16:40:463,33.291,0.040,-0.109,0.133,102.767,-0.437,-120.996
13:16:40:464,33.292,0.080,-0.180,0.129,102.493,0.398,-120.015
13:16:40:464,33.293,0.058,-0.321,0.075,101.901,3.028,-117.249
13:16:40:481,33.309,-0.085,-0.483,0.068,100.584,6.900,-111.899
13:16:40:595,33.423,-0.185,-0.520,0.091,99.132,10.017,-107.112
13:16:40:595,33.423,-0.397,-0.518,0.072,95.444,14.669,-98.209
13:16:40:596,33.424,-0.414,-0.518,0.057,91.901,16.773,-92.431
13:16:40:597,33.425,-0.413,-0.416,-0.008,84.312,18.259,-84.231
13:16:40:611,33.439,-0.509,-0.261,-0.045,73.590,18.397,-75.930
13:16:40:638,33.466,-0.608,-0.170,-0.078,65.023,17.997,-70.144
13:16:40:692,33.521,-0.613,-0.088,-0.089,51.137,16.503,-60.920
13:16:40:719,33.547,-0.671,0.161,-0.192,42.153,14.505,-54.472
13:16:40:72,33.548,-0.592,0.278,-0.400,30.457,9.544,-45.087
13:16:40:773,33.601,-0.387,0.447,-0.382,20.895,3.058,-35.833
13:16:40:773,33.601,-0.235,0.677,-0.243,16.313,-1.393,-29.498
13:16:40:882,33.710,0.157,0.840,-0.089,12.107,-7.890,-20.398
13:16:40:883,33.711,0.509,0.601,-0.064,10.690,-11.937,-15.137
13:16:40:883,33.712,0.619,0.391,0.094,10.391,-16.170,-8.751
13:16:40:884,33.713,0.413,0.036,-0.048,10.677,-18.037,-3.890
13:16:40:9,33.728,0.483,0.087,-0.072,10.787,-18.760,-1.341
13:16:40:983,33.811,0.570,0.058,-0.043,10.868,-19.531,1.544
13:16:40:983,33.812,0.560,0.029,-0.041,10.851,-20.254,2.867
13:16:41:037,33.865,0.566,0.104,0.019,10.640,-22.627,4.077
13:16:41:037,33.865,0.585,0.128,0.117,10.334,-25.964,4.584
13:16:41:06,33.889,0.640,0.117,0.181,10.089,-28.134,4.666
13:16:41:061,33.889,0.596,0.094,0.177,9.597,-30.574,4.479
13:16:41:14,33.968,0.589,0.024,0.245,9.183,-31.617,4.165
13:16:41:141,33.969,0.516,-0.075,0.234,8.459,-31.971,3.239
13:16:41:165,33.993,0.353,-0.024,0.111,7.635,-31.425,1.458
13:16:41:166,33.994,0.340,0.005,0.156,7.063,-31.130,-0.107
13:16:41:19,34.018,0.350,0.085,0.201,6.258,-30.233,-2.723
13:16:41:273,34.101,0.350,0.137,0.152,5.858,-28.932,-4.490
13:16:41:274,34.102,0.337,0.113,0.089,5.610,-25.391,-7.053
13:16:41:274,34.103,0.110,0.104,-0.037,5.973,-19.748,-9.771
13:16:41:294,34.122,-0.024,0.057,-0.100,6.686,-15.936,-11.656
13:16:41:32,34.149,0.012,-0.027,-0.290,8.359,-11.825,-14.544
13:16:41:4,34.229,-0.019,-0.105,-0.282,9.405,-10.439,-16.623
13:16:41:43,34.258,-0.054,-0.130,-0.240,10.769,-9.337,-19.876
13:16:41:43,34.258,-0.133,-0.065,-0.287,12.058,-8.673,-23.075
13:16:41:587,34.415,-0.154,-0.056,-0.311,12.888,-8.476,-25.146
13:16:41:588,34.416,-0.166,-0.082,-0.315,13.990,-8.166,-28.153
13:16:41:697,34.525,-0.255,-0.010,-0.279,14.609,-7.830,-30.059
13:16:41:698,34.526,-0.310,0.059,-0.269,15.361,-7.222,-32.568
13:16:41:699,34.527,-0.346,0.030,-0.261,15.945,-6.341,-34.569
13:16:41:699,34.528,-0.353,-0.040,-0.226,16.216,-5.586,-35.595
13:16:41:749,34.578,-0.389,0.040,-0.194,16.261,-4.368,-36.533
13:16:41:75,34.578,-0.391,0.117,-0.178,16.116,-3.421,-36.599
13:16:41:751,34.580,-0.231,-0.234,0.008,15.086,-0.039,-34.805
13:16:41:829,34.658,-0.216,-0.247,0.049,14.418,1.027,-34.094
13:16:41:829,34.658,-0.234,-0.151,0.069,13.351,2.667,-32.916
13:16:41:83,34.659,-0.254,-0.073,0.057,12.864,4.040,-31.874
13:16:41:831,34.659,-0.262,-0.040,0.064,12.498,6.278,-29.981
13:16:41:855,34.683,-0.425,-0.132,0.068,12.351,7.981,-28.757
13:16:41:855,34.683,-0.303,-0.229,0.032,11.576,7.693,-27.196
13:16:41:855,34.683,-0.158,-0.192,0.036,10.064,5.895,-25.395
13:16:41:856,34.684,-0.088,-0.076,0.103,9.175,4.423,-23.838
13:16:41:872,34.700,-0.087,-0.049,0.048,8.277,2.023,-21.219
13:16:41:984,34.813,0.125,0.018,0.016,7.718,0.009,-19.321
13:16:41:985,34.814,0.207,0.084,0.139,7.003,-3.242,-16.471
13:16:41:986,34.815,0.225,0.031,0.167,6.745,-5.777,-13.562
13:16:42:033,34.861,0.320,0.048,0.073,7.465,-5.268,-7.862
13:16:42:033,34.862,0.385,0.182,-0.006,7.849,-3.890,-5.515
13:16:42:111,34.940,0.357,0.156,-0.044,8.294,-1.414,-2.338
13:16:42:112,34.940,0.339,0.191,-0.036,8.463,-0.001,0.095
13:16:42:137,34.965,0.431,0.210,-0.012,8.519,0.151,1.238
13:16:42:137,34.966,0.444,0.241,-0.047,8.598,-0.018,2.170
13:16:42:16,34.989,0.482,0.177,-0.047,8.650,-0.380,2.204
13:16:42:274,35.102,0.438,0.057,-0.038,8.656,-0.782,1.429
13:16:42:274,35.103,0.329,-0.103,-0.129,8.724,-0.593,-0.208
13:16:42:275,35.104,0.314,-0.053,-0.186,8.775,-0.285,-1.630
13:16:42:276,35.104,0.307,-0.021,-0.245,8.858,0.668,-3.929
13:16:42:292,35.121,0.249,0.032,-0.252,8.975,1.875,-5.396
13:16:42:405,35.233,0.225,0.065,-0.260,9.297,4.473,-7.362
13:16:42:405,35.234,0.138,0.076,-0.317,9.932,7.970,-9.078
13:16:42:406,35.235,0.068,0.026,-0.309,10.474,10.686,-10.173
13:16:42:407,35.236,-0.076,-0.047,-0.285,11.440,14.894,-11.986
13:16:42:537,35.366,-0.195,-0.083,-0.291,12.118,17.274,-13.486
13:16:42:538,35.367,-0.193,-0.071,-0.271,12.916,19.579,-16.385
13:16:42:539,35.367,-0.247,-0.044,-0.263,13.460,20.851,-19.952
13:16:42:54,35.368,-0.309,-0.050,-0.235,13.765,21.431,-22.511
13:16:42:557,35.385,-0.308,-0.094,-0.208,14.031,21.994,-26.341
13:16:42:557,35.386,-0.264,-0.109,-0.168,14.112,22.366,-28.699
13:16:42:582,35.410,-0.298,-0.142,-0.082,14.348,23.214,-31.801
13:16:42:664,35.492,-0.332,-0.080,-0.058,14.511,23.734,-33.553
13:16:42:665,35.493,-0.401,0.063,-0.023,14.643,24.646,-35.432
13:16:42:666,35.494,-0.400,0.004,0.049,14.727,26.008,-36.223
13:16:42:714,35.543,-0.366,0.068,0.099,14.472,26.849,-36.215
13:16:42:715,35.543,-0.383,0.237,0.092,13.563,27.850,-35.367
13:16:42:957,35.786,-0.341,0.266,0.057,13.028,28.818,-34.104
13:16:42:958,35.786,-0.172,-0.010,0.057,12.582,31.018,-31.360
13:16:42:958,35.787,0.037,-0.265,0.076,12.267,33.717,-28.517
13:16:42:959,35.787,0.011,-0.250,0.101,12.173,35.956,-26.818
13:16:42:984,35.812,-0.063,-0.036,0.039,12.242,39.720,-24.467
13:16:42:984,35.813,-0.217,-0.059,0.048,12.477,42.454,-23.181
13:16:42:986,35.814,-0.270,-0.100,0.120,12.620,45.751,-21.898
13:16:42:986,35.815,-0.197,-0.158,0.224,11.980,46.702,-21.349
13:16:43:008,35.836,-0.183,-0.131,0.200,11.205,45.807,-21.099
13:16:43:008,35.837,-0.112,-0.062,0.048,9.820,42.702,-20.225
13:16:43:008,35.837,0.170,0.031,-0.154,9.069,40.489,-19.045
13:16:43:026,35.854,0.216,0.009,-0.071,8.400,37.879,-16.828
13:16:43:11,35.938,0.058,0.012,-0.042,8.569,37.113,-14.200
13:16:43:11,35.938,0.102,-0.006,-0.129,8.900,37.322,-12.075
13:16:43:136,35.965,0.172,-0.016,-0.193,9.374,38.553,-8.627
13:16:43:136,35.965,0.142,-0.012,-0.207,9.657,40.269,-6.312
13:16:43:217,36.046,0.061,0.006,-0.219,10.046,42.635,-3.237
13:16:43:217,36.046,0.087,0.055,-0.318,10.302,44.337,-0.924
13:16:43:217,36.046,0.145,0.132,-0.325,10.368,44.506,0.203
13:16:43:237,36.066,0.200,0.175,-0.361,10.368,44.387,1.216
13:16:43:263,36.091,0.251,0.164,-0.356,10.258,43.848,1.394
13:16:43:377,36.206,0.210,0.156,-0.315,9.923,43.493,0.985
13:16:43:378,36.206,0.213,0.121,-0.329,9.499,43.384,-0.122
13:16:43:378,36.206,0.181,0.075,-0.355,9.244,43.391,-1.160
13:16:43:378,36.207,0.090,-0.037,-0.351,8.970,44.452,-3.031
13:16:43:393,36.222,0.024,-0.037,-0.337,8.866,45.578,-4.377
13:16:43:475,36.303,-0.047,0.008,-0.302,8.836,48.097,-6.333
13:16:43:503,36.331,-0.051,0.071,-0.303,8.979,50.875,-7.972
13:16:43:503,36.332,-0.049,0.101,-0.290,9.156,53.327,-8.876
13:16:43:528,36.356,-0.121,0.114,-0.227,9.599,57.256,-10.132
13:16:43:528,36.357,-0.196,-0.005,-0.165,10.051,60.141,-11.000
13:16:43:552,36.381,-0.247,-0.095,-0.112,10.838,63.981,-12.653
13:16:43:638,36.466,-0.267,-0.139,-0.039,11.573,66.765,-14.962
13:16:43:638,36.466,-0.286,-0.127,-0.027,11.979,68.049,-16.876
13:16:43:638,36.466,-0.342,-0.109,0.031,12.517,69.300,-20.101
13:16:43:658,36.486,-0.366,-0.099,0.049,12.793,69.700,-22.383
13:16:43:686,36.514,-0.344,-0.097,0.089,12.962,69.902,-25.866
13:16:43:736,36.565,-0.311,0.013,0.185,12.939,70.013,-28.087
13:16:43:766,36.594,-0.346,0.050,0.280,12.924,70.414,-31.092
13:16:43:766,36.594,-0.420,0.075,0.326,12.917,70.766,-33.537
13:16:43:818,36.646,-0.358,0.016,0.319,12.605,70.847,-34.780
13:16:43:819,36.647,-0.282,0.057,0.374,11.354,70.831,-35.919
13:16:43:929,36.757,-0.156,0.135,0.326,10.078,70.831,-36.049
13:16:43:93,36.758,-0.043,0.127,0.234,8.013,71.278,-35.135
13:16:43:931,36.759,0.085,-0.063,0.092,6.668,73.276,-33.080
13:16:43:931,36.760,0.128,-0.157,0.062,6.353,75.781,-31.378
13:16:43:945,36.773,0.133,-0.077,0.064,6.561,81.077,-28.872
13:16:43:971,36.800,0.094,-0.060,0.072,7.318,85.674,-27.360
13:16:44:055,36.883,0.077,0.003,0.325,9.070,93.324,-25.518
13:16:44:055,36.883,0.079,-0.183,0.648,10.856,99.263,-24.422
13:16:44:082,36.910,0.092,-0.261,0.644,11.139,100.029,-24.315
13:16:44:083,36.911,0.090,-0.218,0.301,9.550,95.684,-24.431
13:16:44:084,36.912,0.073,-0.157,0.131,8.112,91.457,-24.237
13:16:44:102,36.931,0.090,-0.038,-0.102,6.308,84.767,-23.192
13:16:44:216,37.044,0.172,-0.004,-0.104,5.338,78.983,-21.816
13:16:44:217,37.045,0.105,-0.055,-0.014,5.549,76.577,-20.676
13:16:44:218,37.046,-0.021,-0.035,-0.014,6.507,74.776,-18.166
13:16:44:218,37.047,-0.088,0.032,-0.017,7.164,74.399,-15.984
13:16:44:313,37.141,-0.132,0.074,-0.079,8.027,74.252,-12.235
13:16:44:35,37.179,-0.146,0.251,-0.255,8.693,74.053,-8.286
13:16:44:35,37.179,-0.113,0.330,-0.298,8.979,73.974,-5.735
13:16:44:351,37.179,-0.042,0.298,-0.339,9.234,73.720,-2.243
13:16:44:351,37.179,0.021,0.221,-0.431,9.348,73.149,-0.258
13:16:44:365,37.194,0.095,0.169,-0.467,9.325,71.948,1.996
13:16:44:48,37.309,0.131,-0.006,-0.427,9.138,70.783,3.171
13:16:44:481,37.309,0.122,-0.101,-0.432,9.013,70.058,3.298
13:16:44:482,37.310,0.049,-0.085,-0.423,8.776,69.238,2.604
13:16:44:482,37.311,-0.023,-0.026,-0.424,8.589,69.021,1.703
13:16:44:526,37.354,-0.013,0.025,-0.433,8.282,69.065,-0.138
13:16:44:526,37.355,0.006,0.072,-0.372,7.932,69.646,-2.322
13:16:44:605,37.433,0.006,0.060,-0.326,7.732,70.525,-3.800
13:16:44:606,37.434,-0.043,0.060,-0.221,7.579,72.712,-5.968
13:16:44:659,37.487,-0.113,0.017,-0.159,7.650,74.635,-7.520
13:16:44:659,37.487,-0.134,-0.023,-0.083,7.952,77.278,-10.277
13:16:44:741,37.569,-0.163,-0.063,-0.041,8.272,78.891,-12.361
13:16:44:743,37.572,-0.178,-0.083,0.054,8.740,80.569,-16.072
13:16:44:743,37.572,-0.200,-0.085,0.153,9.419,81.810,-20.198
13:16:44:743,37.572,-0.242,-0.094,0.171,9.822,82.103,-23.038
13:16:44:76,37.588,-0.221,-0.113,0.192,10.128,81.917,-27.164
13:16:44:785,37.613,-0.158,-0.088,0.268,10.148,81.703,-29.711
13:16:44:868,37.696,-0.157,-0.064,0.323,10.253,81.363,-32.979
13:16:44:869,37.697,-0.217,-0.017,0.325,10.431,80.903,-35.375
13:16:44:894,37.723,-0.211,-0.028,0.349,10.503,80.763,-36.358
13:16:44:894,37.723,-0.106,-0.068,0.414,10.032,80.527,-36.933
13:16:44:916,37.745,-0.032,0.176,0.447,9.109,80.006,-36.627
13:16:44:945,37.773,-0.010,0.354,0.388,7.410,78.993,-34.861
13:16:44:997,37.825,0.084,0.353,0.225,6.230,78.320,-31.681
13:16:45:024,37.852,0.166,0.049,0.017,6.162,78.589,-29.230
13:16:45:025,37.853,0.166,-0.244,-0.053,6.826,80.381,-25.860
13:16:45:048,37.876,0.100,-0.226,-0.012,7.593,82.513,-23.942
13:16:45:074,37.902,0.005,-0.129,0.057,9.086,86.711,-21.556
13:16:45:159,37.987,-0.050,0.013,0.276,10.350,90.447,-19.898
13:16:45:16,37.988,-0.095,-0.009,0.380,10.746,91.183,-19.393
13:16:45:16,37.989,-0.090,-0.120,0.209,10.169,88.449,-19.496
13:16:45:179,38.007,-0.074,-0.152,0.136,9.280,84.850,-19.750
13:16:45:205,38.033,-0.051,-0.146,0.042,7.752,79.298,-19.702
13:16:45:286,38.115,-0.004,-0.139,-0.154,6.836,74.565,-18.486
13:16:45:317,38.146,0.035,-0.122,-0.236,6.755,72.779,-17.025
13:16:45:318,38.146,-0.007,-0.087,-0.190,7.289,71.577,-14.034
13:16:45:318,38.146,0.001,-0.060,-0.166,7.781,72.054,-11.628
13:16:45:336,38.165,-0.015,0.030,-0.196,8.427,72.427,-7.746
13:16:45:417,38.245,0.053,0.113,-0.264,8.654,72.604,-5.139
13:16:45:445,38.274,0.113,0.143,-0.334,8.780,72.681,-1.401
13:16:45:446,38.275,0.088,0.202,-0.387,8.911,72.483,1.628
13:16:45:47,38.299,0.111,0.200,-0.460,8.947,72.249,3.125
13:16:45:471,38.299,0.148,0.164,-0.463,8.808,71.770,4.496
13:16:45:494,38.322,0.155,0.104,-0.446,8.535,71.014,4.741
13:16:45:607,38.435,0.140,-0.004,-0.456,8.364,70.422,4.388
13:16:45:608,38.436,0.078,-0.032,-0.431,8.147,69.665,3.200
13:16:45:609,38.437,0.039,0.004,-0.431,8.034,69.292,2.018
13:16:45:61,38.438,-0.001,0.079,-0.409,7.830,69.237,-0.168
13:16:45:625,38.453,-0.030,0.157,-0.324,7.656,69.784,-1.803
13:16:45:704,38.532,-0.039,0.208,-0.303,7.473,71.660,-4.267
13:16:45:737,38.566,-0.116,0.179,-0.210,7.563,74.777,-6.659
13:16:45:737,38.566,-0.139,0.129,-0.165,7.794,77.133,-8.283
13:16:45:738,38.566,-0.162,0.002,-0.045,8.416,80.551,-10.919
13:16:45:756,38.585,-0.201,-0.081,0.041,8.917,82.480,-12.949
13:16:45:871,38.699,-0.200,-0.116,0.095,9.579,84.237,-16.503
13:16:45:872,38.700,-0.183,-0.138,0.130,10.085,84.697,-20.552
13:16:45:872,38.700,-0.181,-0.109,0.134,10.292,84.544,-23.423
13:16:45:873,38.701,-0.211,-0.085,0.169,10.580,84.271,-27.689
13:16:46:004,38.833,-0.215,-0.124,0.240,10.826,84.244,-30.346
13:16:46:004,38.833,-0.221,-0.133,0.262,11.355,84.538,-33.890
13:16:46:005,38.833,-0.168,-0.158,0.315,11.945,85.226,-36.749
13:16:46:005,38.833,-0.118,-0.145,0.367,12.294,85.909,-38.135
13:16:46:021,38.850,-0.109,-0.049,0.382,12.370,86.762,-39.352
13:16:46:022,38.851,-0.077,-0.083,0.428,12.238,87.398,-39.574
13:16:46:045,38.874,-0.064,-0.051,0.390,11.223,87.705,-39.082
13:16:46:129,38.957,-0.065,0.128,0.383,9.525,87.343,-37.397
13:16:46:13,38.958,-0.085,0.296,0.444,8.392,87.062,-35.557
13:16:46:131,38.959,0.001,0.222,0.242,7.255,87.136,-31.802
13:16:46:15,38.978,0.182,0.003,-0.072,7.021,87.922,-28.998
13:16:46:317,39.146,0.231,0.074,-0.068,7.155,90.390,-24.984
13:16:46:317,39.146,0.334,0.101,-0.199,8.052,94.675,-21.258
13:16:46:318,39.147,0.306,0.037,-0.142,8.876,97.661,-19.432
13:16:46:319,39.147,0.200,-0.048,-0.040,9.571,99.590,-18.179
13:16:46:388,39.216,0.139,-0.061,-0.007,9.660,98.897,-18.194
13:16:46:423,39.252,0.057,0.030,-0.522,9.668,95.295,-19.630
13:16:46:423,39.252,0.022,0.044,-0.598,9.854,92.673,-22.080
13:16:46:424,39.253,0.042,0.000,-0.378,10.606,92.974,-23.843
13:16:46:425,39.253,-0.014,-0.045,-0.222,12.451,94.319,-26.437
13:16:46:443,39.272,-0.140,-0.129,-0.147,13.786,95.416,-28.107
13:16:46:444,39.272,-0.115,-0.175,-0.168,15.528,96.701,-30.464
13:16:46:468,39.297,-0.074,-0.143,-0.201,16.913,97.773,-32.669
13:16:46:469,39.297,-0.156,-0.090,-0.228,17.748,98.166,-34.134
13:16:46:551,39.379,-0.266,0.015,-0.196,19.065,99.585,-36.144
13:16:46:552,39.380,-0.277,0.153,-0.165,20.032,100.636,-37.327
13:16:46:552,39.380,-0.301,0.257,-0.231,21.225,102.429,-39.074
13:16:46:572,39.400,-0.275,0.430,-0.283,21.766,103.331,-40.350
13:16:46:6,39.428,-0.273,0.506,-0.241,22.924,105.860,-42.226
13:16:46:679,39.507,-0.325,0.470,-0.083,25.054,109.045,-44.437
13:16:46:679,39.508,-0.385,0.294,0.037,26.972,111.216,-46.218
13:16:46:704,39.532,-0.394,0.098,0.008,30.159,114.337,-49.316
13:16:46:705,39.533,-0.319,0.079,0.055,32.485,116.581,-51.486
13:16:46:727,39.556,-0.347,0.080,0.121,36.491,119.918,-54.823
13:16:46:812,39.640,-0.365,0.018,0.206,41.123,123.396,-58.158
13:16:46:812,39.641,-0.344,-0.015,0.265,44.280,125.887,-60.254
13:16:46:813,39.642,-0.295,0.016,0.328,48.979,129.802,-63.052
13:16:46:833,39.661,-0.234,-0.113,0.281,52.363,132.483,-64.807
13:16:46:859,39.687,-0.189,-0.152,0.278,57.758,136.702,-67.433
13:16:46:885,39.713,-0.144,-0.157,0.268,62.916,141.227,-69.880
13:16:46:994,39.822,-0.065,-0.218,0.238,66.214,144.146,-71.518
13:16:46:995,39.823,-0.068,-0.279,0.208,70.935,148.077,-74.116
13:16:47:105,39.933,-0.046,-0.254,0.186,73.611,150.631,-75.690
13:16:47:105,39.933,-0.033,-0.029,0.130,76.881,154.510,-77.719
13:16:47:106,39.934,-0.065,0.042,0.119,80.053,158.150,-79.771
13:16:47:107,39.935,-0.051,-0.057,0.168,82.239,160.387,-81.291
13:16:47:156,39.985,0.058,-0.066,0.212,84.841,163.740,-83.248
13:16:47:157,39.986,0.147,0.103,0.145,85.828,166.257,-83.917
13:16:47:158,39.986,0.163,0.040,0.054,86.708,170.429,-84.215
13:16:47:159,39.987,0.112,0.012,0.088,87.284,173.974,-84.365
13:16:47:261,40.090,0.090,-0.012,0.110,87.460,176.178,-84.264
13:16:47:262,40.090,0.126,0.025,0.139,87.252,-179.930,-83.164
13:16:47:263,40.091,0.147,-0.125,0.038,86.989,-176.363,-81.986
13:16:47:264,40.092,0.120,-0.178,0.102,86.816,-171.737,-80.538
13:16:47:395,40.223,0.146,-0.139,0.109,86.944,-168.034,-79.844
13:16:47:395,40.223,0.114,-0.138,0.103,87.240,-166.933,-80.266
13:16:47:396,40.224,-0.003,-0.199,-0.011,88.008,-166.336,-82.197
13:16:47:396,40.224,-0.034,-0.143,-0.017,88.578,-166.989,-84.088
13:16:47:411,40.239,-0.020,-0.047,0.060,89.417,-167.929,-87.400
13:16:47:437,40.265,-0.092,-0.159,-0.025,90.283,-169.447,-91.410
13:16:47:521,40.350,-0.108,-0.197,-0.054,90.835,-171.174,-94.484
13:16:47:522,40.350,-0.063,-0.065,0.024,91.563,-173.454,-99.007
13:16:47:522,40.351,-0.004,-0.035,0.047,92.061,-175.443,-102.298
13:16:47:544,40.372,-0.032,-0.077,-0.005,92.909,179.999,-109.073
13:16:47:545,40.373,-0.079,-0.066,-0.097,93.508,175.723,-114.667
13:16:47:568,40.397,-0.044,0.045,-0.050,94.411,169.236,-123.218
13:16:47:682,40.510,-0.052,0.017,0.003,95.490,161.098,-133.252
13:16:47:682,40.510,-0.106,-0.003,-0.017,96.335,154.134,-141.626
13:16:47:683,40.511,-0.086,0.117,0.067,97.673,144.007,-153.273
13:16:47:684,40.512,0.024,0.146,0.112,98.565,138.436,-159.881
13:16:47:7,40.528,-0.006,0.085,0.045,99.930,129.813,-170.201
13:16:47:812,40.641,-0.145,0.053,0.082,101.376,127.133,-174.965
13:16:47:813,40.642,-0.192,0.082,0.198,102.263,129.056,-174.315
13:16:47:814,40.643,-0.079,0.114,0.240,103.321,132.979,-172.600
13:16:47:815,40.643,-0.119,-0.013,0.156,103.860,134.145,-172.841
13:16:47:832,40.660,-0.155,-0.162,0.119,104.473,135.849,-174.139
13:16:47:856,40.685,-0.081,-0.143,0.235,104.935,139.014,-173.597
13:16:47:939,40.767,0.013,-0.058,0.286,105.198,142.698,-172.274
13:16:47:94,40.768,0.014,-0.078,0.227,105.616,147.029,-170.457
13:16:47:965,40.793,-0.024,-0.152,0.114,106.050,151.951,-168.594
13:16:47:965,40.793,0.014,-0.106,0.076,106.286,155.113,-166.958
13:16:47:987,40.816,0.076,-0.060,0.028,106.643,160.005,-164.291
13:16:48:069,40.897,0.014,-0.090,0.029,106.955,162.699,-163.048
13:16:48:099,40.927,-0.056,-0.111,0.042,107.354,165.901,-161.866
13:16:48:099,40.927,-0.012,-0.011,0.031,107.526,167.852,-161.148
13:16:48:1,40.928,-0.034,-0.008,0.042,107.641,170.060,-160.708
13:16:48:119,40.948,-0.110,0.002,0.072,107.636,170.731,-161.695
13:16:48:203,41.032,-0.116,0.109,0.038,107.477,170.808,-162.685
13:16:48:204,41.032,-0.016,0.170,0.047,107.055,170.308,-164.667
13:16:48:205,41.033,-0.027,0.124,0.018,106.799,168.957,-166.874
13:16:48:224,41.052,-0.050,0.103,-0.020,106.410,167.127,-170.361
13:16:48:25,41.078,0.054,0.125,-0.001,105.972,166.432,-171.841
13:16:48:335,41.163,0.080,0.137,-0.006,105.614,167.387,-171.882
13:16:48:335,41.163,0.085,0.013,-0.017,104.951,168.875,-170.874
13:16:48:359,41.188,0.090,-0.009,-0.061,104.414,171.588,-169.085
13:16:48:36,41.188,0.111,-0.011,-0.056,103.385,174.998,-166.195
13:16:48:381,41.210,0.154,-0.127,-0.080,102.401,175.434,-167.009
13:16:48:408,41.236,0.102,-0.214,-0.089,101.984,173.134,-169.417
13:16:48:491,41.320,0.094,-0.147,-0.052,101.765,172.511,-170.207
13:16:48:491,41.320,0.090,-0.056,0.014,101.837,173.737,-168.577
13:16:48:517,41.345,0.044,-0.060,0.033,102.050,176.616,-165.513
13:16:48:517,41.346,0.005,-0.120,0.042,102.196,178.107,-163.671
13:16:48:542,41.370,-0.005,-0.125,0.046,102.272,179.234,-162.805
13:16:48:542,41.371,0.007,-0.073,0.055,102.408,-178.942,-160.979
13:16:48:654,41.482,0.001,-0.083,0.001,102.554,-177.655,-159.987
13:16:48:654,41.483,-0.025,-0.097,-0.024,102.913,-177.071,-159.545
13:16:48:654,41.483,-0.030,-0.076,-0.027,103.445,-176.337,-159.081
13:16:48:655,41.483,-0.025,-0.010,-0.037,103.814,-175.822,-158.748
13:16:48:67,41.499,-0.073,0.001,-0.069,104.317,-175.831,-159.335
13:16:48:784,41.612,-0.122,-0.029,-0.066,104.673,-176.528,-160.364
13:16:48:784,41.613,-0.132,0.009,0.015,105.261,-177.579,-161.992
13:16:48:785,41.614,-0.062,0.115,0.036,105.808,-177.938,-163.015
13:16:48:786,41.615,-0.008,0.140,0.005,106.158,-178.185,-163.477
13:16:48:802,41.631,-0.058,0.131,-0.024,106.695,-178.425,-164.017
13:16:48:827,41.656,-0.007,0.154,0.003,107.024,-178.031,-163.878
13:16:48:91,41.738,0.021,0.127,0.045,107.490,-176.470,-162.738
13:16:48:911,41.739,0.056,0.026,0.105,108.023,-174.380,-160.968
13:16:48:935,41.763,0.047,0.000,0.098,108.427,-172.645,-159.344
13:16:48:936,41.764,-0.004,0.018,0.178,108.906,-170.168,-157.252
13:16:48:96,41.788,0.024,-0.009,0.234,109.005,-169.017,-156.609
13:16:49:043,41.871,0.079,-0.068,0.194,108.897,-167.165,-155.539
13:16:49:044,41.872,0.063,-0.098,0.144,108.773,-165.879,-154.548
13:16:49:045,41.873,0.079,-0.128,0.121,108.607,-163.343,-152.607
13:16:49:094,41.923,0.008,-0.176,0.079,108.424,-159.735,-149.456
13:16:49:094,41.923,-0.036,-0.186,0.059,108.331,-156.390,-146.413
13:16:49:173,42.001,0.063,-0.090,0.041,108.298,-151.239,-141.622
13:16:49:174,42.002,0.061,-0.078,0.039,108.289,-148.786,-139.483
13:16:49:227,42.055,0.024,-0.107,0.071,108.233,-146.780,-137.894
13:16:49:228,42.056,-0.030,-0.116,0.065,108.055,-144.619,-136.279
13:16:49:228,42.057,-0.082,-0.094,0.056,107.881,-142.754,-134.582
13:16:49:302,42.130,-0.027,-0.050,0.051,107.568,-139.234,-131.778
13:16:49:332,42.160,-0.045,-0.004,0.056,107.256,-137.646,-130.482
13:16:49:333,42.161,-0.101,0.003,0.058,106.637,-135.784,-129.378
13:16:49:358,42.186,-0.070,-0.004,0.053,105.936,-134.594,-128.449
13:16:49:358,42.186,-0.072,0.016,0.040,105.358,-133.629,-127.431
13:16:49:379,42.207,-0.043,0.028,0.042,104.248,-131.628,-124.683
13:16:49:519,42.347,0.040,0.008,0.024,103.286,-129.455,-121.935
13:16:49:52,42.348,0.075,-0.196,-0.054,101.319,-125.471,-116.085
13:16:49:521,42.349,0.091,-0.380,-0.159,98.908,-120.437,-108.347
13:16:49:522,42.350,0.095,-0.434,-0.158,97.126,-117.181,-103.147
13:16:49:625,42.454,0.096,-0.432,-0.175,93.868,-113.249,-95.993
13:16:49:625,42.454,0.339,-0.116,-0.184,91.173,-111.539,-91.645
13:16:49:626,42.454,0.310,-0.127,-0.209,86.725,-110.310,-85.806
13:16:49:627,42.455,0.227,-0.346,-0.148,81.498,-109.507,-79.648
13:16:49:647,42.475,0.117,-0.494,-0.232,77.222,-109.281,-75.159
13:16:49:647,42.475,0.081,-0.430,-0.415,69.322,-110.713,-68.764
13:16:49:939,42.767,0.239,-0.358,-0.306,62.914,-113.508,-65.021
13:16:49:94,42.768,0.520,-0.167,-0.194,50.932,-119.512,-59.120
13:16:49:941,42.769,0.703,0.101,-0.090,37.077,-126.864,-51.770
13:16:49:942,42.770,0.544,0.506,0.154,27.879,-132.693,-46.062
13:16:50:009,42.837,0.127,0.977,0.204,17.206,-141.668,-37.129
13:16:50:044,42.873,-0.325,0.732,-0.012,12.728,-146.961,-31.444
13:16:50:045,42.874,-0.429,0.655,-0.051,9.565,-152.808,-23.647
13:16:50:046,42.875,-0.347,0.420,0.382,9.393,-154.700,-18.866
13:16:50:047,42.875,-0.450,0.143,0.667,10.489,-153.392,-12.288
13:16:50:177,43.005,-0.155,0.176,0.552,11.086,-148.574,-6.725
13:16:50:177,43.005,-0.145,0.224,0.415,10.844,-146.116,-3.940
13:16:50:177,43.006,-0.354,0.151,0.350,10.013,-145.154,-0.914
13:16:50:179,43.007,-0.506,0.068,0.344,9.166,-145.990,1.235
13:16:50:194,43.022,-0.582,0.030,0.372,8.729,-146.828,2.273
13:16:50:275,43.103,-0.618,0.051,0.476,8.236,-147.438,3.328
13:16:50:276,43.104,-0.520,-0.009,0.476,7.945,-146.854,3.716
13:16:50:3,43.129,-0.494,-0.050,0.469,7.516,-144.748,3.793
13:16:50:336,43.164,-0.467,0.010,0.330,7.117,-141.995,2.971
13:16:50:336,43.164,-0.402,0.039,0.346,6.988,-140.021,1.966
13:16:50:336,43.164,-0.305,0.007,0.347,7.059,-136.413,-0.069
13:16:50:336,43.164,-0.155,-0.010,0.219,7.326,-133.486,-1.733
13:16:50:438,43.266,0.067,-0.063,0.160,8.290,-128.956,-4.512
13:16:50:438,43.267,0.131,-0.103,0.309,9.710,-126.136,-7.653
13:16:50:439,43.268,0.167,-0.065,0.245,10.620,-125.766,-10.052
13:16:50:456,43.284,0.242,-0.004,0.195,12.515,-127.468,-16.525
13:16:50:491,43.319,0.318,0.019,0.178,13.365,-128.988,-20.602
13:16:50:492,43.320,0.334,0.009,0.078,13.791,-129.753,-23.367
13:16:50:492,43.321,0.378,0.037,-0.008,14.265,-130.561,-27.577
13:16:50:493,43.322,0.408,0.076,-0.049,14.514,-131.111,-31.717
13:16:50:598,43.426,0.415,0.117,-0.125,14.561,-131.138,-34.257
13:16:50:598,43.426,0.402,0.028,-0.211,14.707,-130.330,-37.410
13:16:50:598,43.426,0.360,-0.017,-0.233,14.692,-129.600,-38.982
13:16:50:598,43.426,0.332,0.005,-0.251,14.301,-128.374,-40.320
13:16:50:748,43.576,0.244,-0.053,-0.225,13.522,-126.985,-40.136
13:16:50:748,43.577,0.140,-0.154,-0.183,12.891,-125.877,-39.188
13:16:50:781,43.609,0.010,-0.256,-0.193,12.117,-123.627,-36.933
13:16:50:781,43.609,0.034,-0.087,-0.191,11.755,-121.818,-35.067
13:16:50:781,43.609,0.078,-0.020,-0.193,11.750,-118.489,-31.944
13:16:50:782,43.610,0.167,0.088,-0.236,12.073,-114.797,-28.743
13:16:50:859,43.687,0.127,0.000,-0.291,12.206,-112.713,-26.824
13:16:50:859,43.688,0.141,-0.233,-0.253,11.966,-111.483,-24.742
13:16:50:86,43.689,0.067,-0.219,-0.111,11.299,-112.287,-23.743
13:16:50:861,43.690,-0.011,-0.114,-0.023,9.948,-114.339,-22.287
13:16:50:884,43.712,-0.029,-0.002,0.010,8.736,-116.330,-20.499
13:16:50:885,43.713,-0.017,0.040,0.032,8.154,-117.552,-19.102
13:16:50:885,43.714,-0.043,0.019,0.149,7.562,-119.479,-16.660
13:16:50:886,43.715,-0.116,-0.046,0.222,7.293,-120.395,-14.717
13:16:50:902,43.731,-0.197,-0.012,0.233,7.005,-120.822,-11.480
13:16:51:01,43.839,-0.176,0.039,0.264,7.078,-120.448,-8.075
13:16:51:01,43.839,-0.100,0.069,0.347,7.278,-119.877,-5.777
13:16:51:041,43.869,-0.150,0.168,0.402,7.486,-119.015,-2.614
13:16:51:041,43.869,-0.223,0.201,0.367,7.527,-118.730,-0.842
13:16:51:041,43.869,-0.242,0.119,0.411,7.592,-118.990,1.071
13:16:51:174,44.002,-0.231,0.087,0.431,7.574,-119.491,1.689
13:16:51:174,44.003,-0.217,0.109,0.459,7.419,-120.199,1.597
13:16:51:175,44.004,-0.148,0.030,0.413,7.180,-120.559,0.411
13:16:51:176,44.004,-0.088,-0.001,0.414,7.024,-120.677,-0.868
13:16:51:333,44.161,-0.066,0.052,0.394,6.722,-120.049,-3.271
13:16:51:333,44.161,-0.011,0.107,0.349,6.450,-118.760,-5.803
13:16:51:333,44.162,0.012,0.155,0.317,6.344,-117.183,-7.373
13:16:51:334,44.162,0.062,0.135,0.256,6.470,-113.922,-9.468
13:16:51:428,44.256,0.119,0.039,0.161,6.747,-111.378,-10.773
13:16:51:463,44.291,0.208,-0.065,0.084,7.354,-107.723,-12.799
13:16:51:463,44.291,0.237,-0.119,0.020,7.799,-105.674,-14.398
13:16:51:463,44.292,0.236,-0.146,0.015,8.412,-103.754,-17.248
13:16:51:464,44.292,0.251,-0.118,-0.025,8.924,-102.801,-20.615
13:16:51:567,44.395,0.259,-0.109,-0.093,9.170,-102.488,-23.027
13:16:51:568,44.396,0.269,-0.074,-0.159,9.468,-102.365,-26.687
13:16:51:568,44.396,0.288,-0.112,-0.178,9.578,-102.576,-29.094
13:16:51:569,44.397,0.263,-0.104,-0.179,9.432,-103.194,-32.508
13:16:51:698,44.526,0.202,-0.003,-0.323,9.084,-103.564,-35.464
13:16:51:699,44.527,0.212,0.047,-0.356,8.867,-103.606,-37.010
13:16:51:699,44.528,0.178,0.015,-0.367,8.494,-103.419,-38.480
13:16:51:7,44.529,0.094,0.074,-0.398,8.050,-103.169,-38.833
13:16:51:719,44.547,0.022,0.213,-0.412,6.999,-102.626,-38.311
13:16:51:72,44.548,0.008,0.237,-0.342,6.087,-101.659,-36.383
13:16:51:83,44.658,-0.039,0.147,-0.189,5.773,-100.633,-34.397
13:16:51:831,44.659,-0.152,-0.161,-0.039,5.762,-98.168,-30.972
13:16:51:832,44.660,-0.109,-0.117,-0.038,6.549,-91.906,-25.875
13:16:51:882,44.710,-0.014,-0.037,-0.144,7.607,-87.246,-23.483
13:16:51:883,44.711,-0.016,-0.003,-0.351,8.206,-84.668,-22.271
13:16:51:884,44.712,-0.021,-0.045,-0.373,8.375,-83.622,-21.092
13:16:51:884,44.713,0.029,-0.132,-0.151,7.893,-85.362,-20.709
13:16:52:014,44.843,0.000,-0.145,-0.050,6.712,-90.130,-20.347
13:16:52:015,44.844,-0.009,-0.127,0.079,5.606,-95.050,-19.619
13:16:52:016,44.844,-0.048,-0.099,0.148,5.144,-98.338,-18.797
13:16:52:017,44.845,-0.005,-0.049,0.086,4.978,-101.153,-17.111
13:16:52:303,45.131,0.036,-0.037,0.169,5.188,-102.258,-15.576
13:16:52:303,45.131,0.015,-0.041,0.216,5.617,-103.218,-12.686
13:16:52:304,45.132,-0.037,-0.013,0.223,5.988,-103.461,-9.418
13:16:52:305,45.133,-0.055,-0.006,0.300,6.214,-103.662,-7.222
13:16:52:408,45.236,-0.043,0.120,0.361,6.479,-103.872,-4.079
13:16:52:408,45.236,-0.097,0.239,0.440,6.574,-103.921,-2.116
13:16:52:408,45.237,-0.063,0.203,0.436,6.679,-103.901,0.384
13:16:52:409,45.237,-0.129,0.129,0.469,6.643,-105.276,1.948
13:16:52:433,45.262,-0.155,0.068,0.465,6.498,-106.175,2.320
13:16:52:434,45.262,-0.160,0.031,0.420,6.144,-108.311,1.885
13:16:52:435,45.263,-0.121,-0.016,0.399,5.875,-109.161,0.993
13:16:52:435,45.264,-0.116,-0.040,0.417,5.486,-110.536,-1.049
13:16:52:477,45.306,-0.095,0.040,0.377,5.180,-110.824,-2.774
13:16:52:515,45.343,-0.077,0.090,0.322,4.686,-110.286,-5.616
13:16:52:515,45.343,-0.033,0.197,0.225,4.368,-108.171,-8.417
13:16:52:515,45.343,0.043,0.188,0.171,4.413,-106.211,-10.213
13:16:52:516,45.344,0.091,0.124,0.097,4.793,-103.116,-12.842
13:16:52:539,45.367,0.100,0.024,0.031,5.179,-101.248,-14.567
13:16:52:539,45.368,0.163,-0.094,-0.063,5.897,-98.875,-17.301
13:16:52:558,45.386,0.158,-0.130,-0.119,6.974,-97.275,-25.875
13:16:52:559,45.387,0.170,-0.132,-0.168,7.125,-97.253,-28.086
13:16:52:67,45.499,0.174,-0.167,-0.176,7.157,-97.329,-31.043
13:16:52:67,45.499,0.158,-0.196,-0.227,7.247,-97.427,-33.773
13:16:52:67,45.499,0.117,-0.151,-0.237,7.168,-97.483,-35.307
13:16:52:671,45.500,0.099,-0.012,-0.323,6.999,-97.492,-37.021
13:16:52:687,45.515,0.107,0.084,-0.399,6.911,-97.457,-37.628
13:16:52:712,45.541,0.064,0.078,-0.366,6.586,-97.213,-37.572
13:16:52:739,45.567,0.015,0.163,-0.351,5.816,-97.170,-36.374
13:16:52:767,45.595,0.003,0.230,-0.332,5.241,-97.062,-34.919
13:16:52:82,45.649,-0.029,0.239,-0.225,4.595,-97.107,-31.865
13:16:52:821,45.650,-0.089,0.069,-0.082,4.503,-96.433,-29.423
13:16:52:844,45.673,-0.169,-0.170,-0.020,4.839,-94.902,-25.786
13:16:52:93,45.758,-0.145,-0.077,-0.039,5.336,-93.121,-22.698
13:16:52:93,45.758,-0.095,-0.041,-0.037,5.705,-91.616,-21.061
13:16:52:93,45.759,-0.075,-0.010,-0.149,6.003,-90.414,-19.432
13:16:52:981,45.809,-0.115,-0.025,-0.235,5.874,-90.258,-18.954
13:16:52:982,45.810,-0.063,-0.069,-0.214,5.329,-92.142,-18.976
13:16:52:983,45.811,0.024,-0.146,-0.096,4.402,-96.103,-19.368
13:16:53:088,45.916,-0.079,-0.141,0.040,3.714,-99.380,-19.524
13:16:53:088,45.916,-0.050,-0.165,0.042,3.035,-103.573,-19.320
13:16:53:088,45.916,-0.045,-0.140,0.053,3.040,-105.875,-18.552
13:16:53:189,46.018,0.013,-0.095,0.102,3.515,-107.949,-16.643
13:16:53:247,46.076,-0.028,-0.030,0.199,4.253,-109.189,-13.641
13:16:53:248,46.077,-0.065,-0.013,0.237,4.750,-109.234,-11.246
13:16:53:249,46.077,-0.094,0.064,0.262,5.374,-108.786,-7.491
13:16:53:25,46.078,-0.079,0.210,0.334,5.678,-108.265,-5.104
13:16:53:268,46.096,-0.119,0.225,0.420,5.906,-107.803,-1.963
13:16:53:268,46.097,-0.127,0.204,0.412,5.926,-107.429,-0.346
13:16:53:353,46.181,-0.117,0.130,0.392,5.834,-107.722,1.148
13:16:53:353,46.181,-0.168,0.120,0.458,5.634,-108.915,1.492
13:16:53:353,46.181,-0.185,0.106,0.470,5.459,-109.874,1.131
13:16:53:353,46.181,-0.126,-0.018,0.422,5.185,-110.656,-0.147
13:16:53:369,46.197,-0.039,0.021,0.404,4.995,-110.986,-1.398
13:16:53:48,46.309,-0.022,0.067,0.378,4.665,-110.715,-3.665
13:16:53:481,46.310,0.018,0.070,0.306,4.408,-109.509,-6.138
13:16:53:482,46.310,0.018,0.106,0.287,4.331,-108.074,-7.748
13:16:53:503,46.331,0.091,0.084,0.204,4.502,-104.922,-10.109
13:16:53:504,46.332,0.097,0.047,0.127,4.773,-102.547,-11.711
13:16:53:667,46.495,0.144,-0.043,0.012,5.376,-99.080,-14.239
13:16:53:668,46.496,0.136,-0.073,-0.003,5.979,-96.647,-17.243
13:16:53:668,46.496,0.229,-0.094,-0.135,6.362,-95.657,-19.474
13:16:53:69,46.518,0.186,-0.107,-0.186,6.696,-95.319,-25.546
13:16:53:691,46.519,0.204,-0.100,-0.213,6.729,-95.406,-29.185
13:16:53:692,46.520,0.236,-0.114,-0.259,6.723,-95.574,-32.556
13:16:53:767,46.595,0.213,-0.105,-0.254,6.575,-95.767,-34.577
13:16:53:767,46.595,0.136,-0.081,-0.308,6.319,-95.688,-37.115
13:16:53:792,46.620,0.103,-0.020,-0.404,6.288,-95.340,-38.370
13:16:53:793,46.621,0.076,-0.012,-0.401,6.170,-94.664,-39.399
13:16:53:817,46.645,0.017,0.020,-0.385,5.690,-93.916,-39.332
13:16:53:929,46.758,-0.004,0.135,-0.404,5.138,-93.457,-38.604
13:16:53:929,46.758,-0.026,0.217,-0.325,4.390,-92.682,-36.363
13:16:53:93,46.759,-0.030,0.183,-0.198,4.149,-91.866,-34.177
13:16:53:931,46.759,-0.104,-0.080,-0.041,4.437,-89.800,-30.339
13:16:53:946,46.775,-0.156,-0.131,-0.011,5.117,-86.939,-26.662
13:16:54:081,46.909,-0.161,-0.055,0.012,5.684,-85.013,-24.470
13:16:54:082,46.910,-0.043,-0.015,-0.156,6.744,-82.049,-21.806
13:16:54:168,46.996,-0.020,-0.006,-0.181,7.151,-81.478,-20.615
13:16:54:168,46.996,-0.069,-0.038,-0.162,6.943,-82.735,-19.817
13:16:54:169,46.997,-0.063,-0.067,-0.076,6.048,-86.331,-19.852
13:16:54:17,46.998,-0.090,-0.017,0.021,5.314,-89.203,-20.025
13:16:54:342,47.171,-0.038,-0.088,0.042,4.806,-92.762,-19.846
13:16:54:579,47.407,0.009,-0.094,0.128,4.864,-94.331,-19.190
13:16:54:64,47.469,0.032,-0.096,0.147,5.389,-95.408,-17.432
13:16:54:641,47.469,0.015,-0.076,0.139,5.906,-95.510,-15.860
13:16:54:641,47.470,0.058,-0.088,0.163,6.818,-95.229,-13.021
13:16:54:641,47.470,0.063,-0.044,0.226,7.570,-94.614,-9.942
13:16:54:664,47.493,0.064,-0.001,0.271,7.943,-93.988,-7.888
13:16:54:665,47.493,0.044,0.080,0.347,8.365,-93.032,-5.051
13:16:54:666,47.494,0.087,0.110,0.367,8.567,-92.341,-3.442
13:16:54:666,47.495,0.079,0.115,0.413,8.698,-91.674,-1.561
13:16:54:745,47.573,0.083,0.078,0.404,8.623,-91.256,-0.521
13:16:54:745,47.573,0.064,0.121,0.384,8.201,-91.468,-1.585
13:16:54:745,47.574,0.060,0.168,0.421,7.680,-91.890,-2.739
13:16:54:745,47.574,0.068,0.181,0.415,7.368,-91.905,-3.545
13:16:54:77,47.598,0.121,0.056,0.331,6.938,-90.958,-5.249
13:16:54:771,47.599,0.162,0.065,0.262,6.583,-89.142,-7.424
13:16:54:771,47.599,0.174,0.091,0.212,6.427,-87.480,-8.970
13:16:54:772,47.600,0.194,0.169,0.174,6.440,-84.344,-11.175
13:16:54:9,47.729,0.242,0.134,0.067,6.711,-81.702,-12.513
13:16:54:901,47.730,0.249,0.085,-0.029,7.434,-77.394,-14.411
13:16:54:902,47.731,0.247,-0.066,-0.098,8.393,-73.248,-16.353
13:16:54:903,47.732,0.238,-0.119,-0.164,9.047,-70.945,-17.814
13:16:54:927,47.755,0.233,-0.127,-0.162,9.931,-68.362,-20.350
13:16:54:927,47.756,0.227,-0.076,-0.260,10.508,-67.055,-22.217
13:16:54:928,47.757,0.224,-0.053,-0.330,11.350,-65.435,-25.153
13:16:54:929,47.757,0.209,-0.093,-0.355,12.015,-64.443,-28.151
13:16:55:006,47.834,0.174,-0.122,-0.365,12.327,-63.898,-30.153
13:16:55:007,47.835,0.115,-0.144,-0.396,12.634,-63.266,-33.110
13:16:55:008,47.836,0.082,-0.133,-0.401,12.731,-62.846,-35.051
13:16:55:008,47.837,0.005,-0.029,-0.488,12.807,-62.500,-37.796
13:16:55:032,47.860,-0.025,0.015,-0.538,12.839,-61.957,-39.363
13:16:55:033,47.861,-0.050,-0.010,-0.506,12.558,-61.336,-41.076
13:16:55:033,47.862,-0.152,0.093,-0.496,11.635,-60.898,-41.791
13:16:55:051,47.880,-0.138,0.061,-0.257,9.629,-59.355,-39.813
13:16:55:052,47.881,-0.133,-0.189,-0.093,9.096,-58.094,-38.007
13:16:55:157,47.986,-0.122,-0.270,0.002,8.589,-56.024,-34.850
13:16:55:158,47.986,-0.107,-0.096,0.090,8.355,-52.392,-31.476
13:16:55:187,48.015,-0.096,-0.017,0.079,8.712,-49.034,-29.240
13:16:55:188,48.016,-0.213,0.082,-0.106,9.793,-43.292,-26.266
13:16:55:188,48.017,-0.220,-0.024,-0.275,10.377,-40.555,-24.733
13:16:55:21,48.038,-0.174,-0.028,-0.131,9.949,-39.620,-23.381
13:16:55:21,48.038,-0.139,-0.108,0.040,8.570,-41.998,-22.618
13:16:55:291,48.120,-0.067,0.000,0.195,7.585,-43.827,-22.157
13:16:55:292,48.120,0.054,-0.039,0.222,6.864,-46.730,-21.369
13:16:55:292,48.121,0.058,-0.057,0.082,6.768,-47.615,-20.694
13:16:55:453,48.282,0.069,-0.073,0.039,7.135,-48.348,-19.151
13:16:55:453,48.282,0.098,-0.043,0.047,7.684,-47.717,-17.068
13:16:55:454,48.282,0.133,-0.072,0.045,8.088,-47.451,-15.491
13:16:55:454,48.283,0.182,-0.085,0.064,8.648,-46.530,-13.034
13:16:55:613,48.441,0.225,-0.009,0.098,8.982,-46.236,-11.464
13:16:55:613,48.441,0.250,0.075,0.103,9.399,-45.329,-9.340
13:16:55:613,48.441,0.260,0.250,0.045,9.698,-44.875,-7.594
13:16:55:613,48.442,0.291,0.217,0.052,9.810,-44.774,-6.757
13:16:55:628,48.457,0.301,0.179,0.096,9.700,-45.600,-6.147
13:16:55:741,48.570,0.269,0.136,0.147,9.440,-46.085,-6.226
13:16:55:742,48.570,0.285,0.138,0.131,8.942,-46.890,-6.992
13:16:55:742,48.571,0.303,0.062,0.104,8.496,-46.741,-8.333
13:16:55:743,48.572,0.297,0.023,0.017,8.278,-45.988,-9.458
13:16:55:767,48.595,0.279,0.044,-0.044,8.049,-44.385,-11.297
13:16:55:768,48.596,0.232,0.067,-0.046,7.946,-43.032,-12.491
13:16:55:768,48.597,0.211,0.096,-0.056,7.923,-40.330,-14.059
13:16:55:768,48.597,0.211,0.096,-0.056,7.923,-40.330,-14.059
13:16:55:872,48.700,0.140,0.075,-0.174,8.620,-34.440,-16.100
13:16:55:873,48.701,0.083,-0.060,-0.242,9.287,-30.900,-17.537
13:16:55:874,48.702,-0.006,-0.080,-0.244,9.675,-28.909,-18.820
13:16:55:874,48.703,-0.025,-0.103,-0.289,10.244,-26.555,-21.269
13:16:55:891,48.720,-0.028,-0.103,-0.299,10.603,-25.426,-24.278
13:16:55:892,48.721,-0.060,-0.104,-0.295,10.705,-25.007,-26.460
13:16:56:005,48.833,-0.137,-0.118,-0.272,10.750,-24.384,-29.768
13:16:56:005,48.833,-0.188,-0.115,-0.265,10.824,-23.873,-31.907
13:16:56:005,48.833,-0.215,-0.116,-0.260,11.001,-23.144,-34.988
13:16:56:005,48.834,-0.230,-0.089,-0.237,11.116,-22.721,-36.866
13:16:56:02,48.849,-0.321,-0.078,-0.255,11.079,-22.154,-39.168
13:16:56:126,48.954,-0.398,-0.015,-0.230,10.721,-21.705,-40.563
13:16:56:266,49.094,-0.385,0.051,-0.196,10.086,-21.672,-40.889
13:16:56:266,49.095,-0.377,0.127,-0.156,8.599,-21.934,-40.375
13:16:56:267,49.095,-0.345,0.202,-0.147,7.687,-22.000,-39.259
13:16:56:268,49.096,-0.208,0.149,-0.094,7.006,-21.576,-36.384
13:16:56:285,49.113,-0.073,-0.112,0.048,6.973,-20.339,-32.518
13:16:56:398,49.227,-0.015,-0.158,0.146,7.263,-18.864,-29.797
13:16:56:398,49.227,-0.086,-0.052,0.093,8.132,-15.930,-26.027
13:16:56:399,49.227,-0.081,-0.033,-0.010,9.048,-13.792,-23.775
13:16:56:399,49.227,-0.137,0.039,-0.129,10.047,-11.676,-21.095
13:16:56:424,49.252,-0.147,-0.006,-0.049,10.129,-12.015,-19.620
13:16:56:424,49.252,-0.097,-0.059,-0.010,9.708,-13.638,-19.353
13:16:56:425,49.253,-0.058,-0.072,-0.008,8.803,-17.075,-19.635
13:16:56:426,49.254,0.000,-0.098,0.000,8.218,-19.491,-19.938
13:16:56:546,49.375,0.110,-0.093,0.010,7.709,-22.324,-19.770
13:16:56:61,49.438,0.121,-0.107,0.003,7.806,-23.772,-18.703
13:16:56:61,49.438,0.101,-0.095,-0.023,8.111,-24.259,-17.646
13:16:56:61,49.438,0.154,-0.070,0.011,8.653,-24.680,-15.603
13:16:56:61,49.438,0.154,-0.007,0.046,9.025,-24.584,-14.007
13:16:56:677,49.505,0.158,-0.004,0.053,9.490,-23.968,-11.455
13:16:56:712,49.541,0.220,0.035,0.035,9.865,-23.156,-9.056
13:16:56:713,49.542,0.277,0.095,0.017,10.034,-22.898,-7.686
13:16:56:714,49.542,0.348,0.200,0.047,10.147,-22.241,-6.067
13:16:56:715,49.543,0.341,0.144,0.075,10.152,-22.055,-5.287
13:16:56:736,49.564,0.339,0.164,0.087,10.058,-21.706,-4.622
13:16:56:736,49.564,0.378,0.198,0.034,9.916,-21.772,-4.637
13:16:56:736,49.564,0.412,0.180,-0.002,9.815,-21.738,-5.026
13:16:56:809,49.637,0.326,-0.046,-0.076,9.739,-21.551,-6.155
13:16:56:869,49.697,0.275,-0.063,-0.106,9.681,-21.234,-7.285
13:16:56:869,49.698,0.254,0.056,-0.143,9.448,-20.473,-9.432
13:16:56:87,49.699,0.288,0.221,-0.204,9.237,-19.181,-11.750
13:16:56:943,49.771,0.152,0.094,-0.276,9.760,-14.116,-14.799
13:16:56:944,49.772,0.062,0.034,-0.235,10.138,-11.550,-15.847
13:16:56:967,49.795,-0.009,0.008,-0.301,10.710,-7.770,-17.615
13:16:56:994,49.823,-0.041,-0.110,-0.288,11.174,-4.649,-19.897
13:16:56:995,49.823,0.004,-0.141,-0.263,11.314,-3.264,-21.797
13:16:57:133,49.962,0.013,-0.063,-0.309,11.211,-1.816,-25.240
13:16:57:133,49.962,-0.053,0.036,-0.341,11.117,-0.565,-27.945
13:16:57:134,49.962,-0.169,-0.036,-0.253,11.950,3.068,-32.041
13:16:57:135,49.963,-0.085,0.018,-0.221,13.588,7.072,-36.065
13:16:57:202,50.031,-0.020,0.165,-0.263,14.546,9.272,-38.962
13:16:57:23,50.058,-0.230,0.197,-0.115,15.428,12.150,-43.963
13:16:57:289,50.118,-0.292,0.181,-0.091,16.149,14.122,-47.186
13:16:57:29,50.118,-0.201,0.202,-0.217,17.787,17.202,-51.619
13:16:57:291,50.119,-0.257,0.313,-0.134,20.181,21.089,-55.855
13:16:57:292,50.120,-0.287,0.324,-0.089,23.393,24.266,-58.239
13:16:57:359,50.187,-0.316,0.272,-0.165,29.721,28.961,-60.923
13:16:57:395,50.223,-0.259,0.109,-0.123,33.818,31.897,-62.315
13:16:57:395,50.223,-0.118,-0.024,-0.022,38.991,36.221,-64.036
13:16:57:396,50.224,-0.040,-0.010,-0.091,44.496,40.836,-65.689
13:16:57:396,50.225,-0.148,0.108,-0.140,49.119,44.132,-66.973
13:16:57:411,50.240,-0.267,-0.077,-0.069,57.083,49.278,-68.887
13:16:57:499,50.328,-0.178,-0.077,-0.093,61.980,52.446,-70.074
13:16:57:5,50.328,-0.184,-0.058,-0.089,68.244,56.466,-72.156
13:16:57:5,50.329,-0.182,-0.076,-0.162,71.831,58.691,-73.836
13:16:57:501,50.330,-0.140,-0.128,-0.126,76.458,61.931,-76.410
13:16:57:516,50.345,-0.045,-0.229,-0.068,80.072,65.701,-78.362
13:16:57:542,50.371,-0.105,-0.147,-0.093,82.076,68.317,-79.454
13:16:57:571,50.399,-0.114,-0.239,-0.008,84.393,72.583,-80.594
13:16:57:648,50.476,-0.001,-0.321,0.060,85.557,75.582,-81.029
13:16:57:68,50.508,-0.010,-0.221,0.062,86.754,79.693,-81.423
13:16:57:68,50.509,0.062,-0.153,0.107,87.862,82.511,-82.561
13:16:57:681,50.509,0.093,-0.201,0.096,88.702,82.726,-84.586
13:16:57:7,50.529,0.070,-0.149,0.021,90.086,79.793,-90.453
13:16:57:815,50.643,-0.027,-0.036,0.018,90.997,75.915,-96.152
13:16:57:815,50.644,0.034,-0.058,0.000,92.272,65.809,-108.892
13:16:57:815,50.644,0.042,-0.060,-0.081,93.477,50.718,-126.289
13:16:57:816,50.644,-0.039,0.029,-0.067,94.181,42.126,-136.330
13:16:57:831,50.659,-0.061,0.011,-0.060,95.151,31.211,-149.432
13:16:57:918,50.746,0.009,-0.059,-0.106,95.755,25.609,-156.450
13:16:57:918,50.746,-0.118,0.020,-0.196,96.568,23.878,-160.059
13:16:57:918,50.746,-0.223,0.036,-0.158,97.296,23.990,-161.819
13:16:57:938,50.767,-0.134,-0.032,-0.168,97.724,22.629,-164.628
13:16:57:963,50.791,-0.024,-0.118,-0.200,98.279,23.402,-166.248
13:16:58:105,50.934,-0.249,-0.016,-0.186,98.601,27.196,-164.068
13:16:58:105,50.934,-0.278,0.011,-0.166,99.043,32.290,-161.279
13:16:58:106,50.934,-0.162,-0.072,-0.135,99.442,34.976,-160.758
13:16:58:106,50.934,-0.060,-0.103,-0.110,99.636,37.174,-159.879
13:16:58:123,50.951,-0.084,-0.064,-0.034,99.865,42.443,-156.714
13:16:58:123,50.952,-0.128,-0.060,-0.069,100.036,45.338,-155.070
13:16:58:173,51.001,-0.056,-0.096,-0.116,100.282,47.695,-154.645
13:16:58:202,51.030,-0.027,-0.115,-0.130,100.457,49.731,-154.268
