Time,Second,AccelerationX,AccelerationY,AccelerationZ,EulerAnglesX,EulerAnglesY,EulerAnglesZ
13:38:23:715,0.000,0.013,0.001,0.002,-20.809,-9.776,-3.289
13:38:23:741,0.026,0.009,0.000,0.003,-20.815,-9.847,-3.267
13:38:23:767,0.053,0.013,0.002,0.000,-20.828,-9.916,-3.221
13:38:23:796,0.081,0.017,0.000,-0.001,-20.818,-9.949,-3.177
13:38:23:849,0.134,0.015,0.003,-0.004,-20.803,-9.993,-3.099
13:38:23:85,0.135,0.008,-0.003,0.005,-20.763,-10.023,-3.001
13:38:23:872,0.157,0.005,0.001,-0.004,-20.741,-10.023,-2.928
13:38:23:898,0.183,0.007,0.000,0.003,-20.701,-10.016,-2.837
13:38:23:925,0.210,0.004,-0.004,-0.003,-20.670,-10.018,-2.772
13:38:23:951,0.236,0.003,-0.004,-0.004,-20.619,-10.025,-2.700
13:38:23:979,0.264,0.003,-0.001,0.007,-20.581,-10.056,-2.647
13:38:24:004,0.289,0.013,0.000,0.005,-20.541,-10.091,-2.598
13:38:24:03,0.315,0.004,0.000,0.001,-20.497,-10.064,-2.564
13:38:24:056,0.341,0.013,-0.001,0.004,-20.468,-10.039,-2.544
13:38:24:083,0.368,0.014,-0.002,0.003,-20.425,-9.984,-2.516
13:38:24:109,0.394,0.009,-0.003,-0.005,-20.392,-9.948,-2.495
13:38:24:134,0.420,-0.007,0.001,-0.005,-20.356,-9.902,-2.447
13:38:24:161,0.446,0.009,-0.002,0.001,-20.329,-9.900,-2.411
13:38:24:187,0.472,0.016,0.004,-0.006,-20.310,-9.883,-2.394
13:38:24:214,0.499,0.037,0.014,-0.020,-20.323,-9.933,-2.373
13:38:24:24,0.525,0.014,-0.002,-0.011,-20.334,-10.026,-2.334
13:38:24:266,0.551,0.010,-0.003,-0.003,-20.339,-10.179,-2.258
13:38:24:292,0.578,0.000,0.000,0.000,-20.340,-10.307,-2.178
13:38:24:318,0.604,0.007,0.001,-0.012,-20.340,-10.372,-2.133
13:38:24:345,0.630,0.008,0.000,0.003,-20.344,-10.478,-2.065
13:38:24:374,0.659,0.014,-0.002,-0.005,-20.328,-10.550,-2.016
13:38:24:399,0.684,0.012,-0.004,0.007,-20.297,-10.624,-1.931
13:38:24:425,0.710,0.004,0.004,0.004,-20.271,-10.632,-1.878
13:38:24:451,0.736,-0.004,-0.002,-0.001,-20.258,-10.621,-1.801
13:38:24:505,0.790,0.000,-0.001,-0.001,-20.259,-10.626,-1.751
13:38:24:506,0.791,0.000,-0.001,-0.001,-20.253,-10.623,-1.731
13:38:24:529,0.814,0.011,0.004,-0.001,-20.237,-10.671,-1.686
13:38:24:555,0.841,0.012,0.003,-0.002,-20.223,-10.702,-1.652
13:38:24:582,0.867,0.006,0.001,-0.004,-20.196,-10.750,-1.585
13:38:24:608,0.893,0.004,-0.006,0.007,-20.176,-10.788,-1.540
13:38:24:634,0.919,0.008,-0.004,0.002,-20.139,-10.828,-1.470
13:38:24:66,0.946,0.009,-0.001,0.006,-20.107,-10.832,-1.397
13:38:24:686,0.971,-0.003,0.001,-0.004,-20.088,-10.833,-1.343
13:38:24:713,0.999,0.001,0.001,-0.002,-20.060,-10.825,-1.286
13:38:24:739,1.025,0.005,-0.002,0.000,-20.039,-10.816,-1.250
13:38:24:766,1.051,0.006,-0.006,0.006,-20.009,-10.812,-1.197
13:38:24:793,1.078,0.007,0.004,0.002,-20.004,-10.730,-1.153
13:38:24:821,1.106,-0.018,0.001,0.001,-20.002,-10.669,-1.130
13:38:24:845,1.131,-0.005,-0.003,0.001,-20.001,-10.604,-1.119
13:38:24:87,1.156,0.017,0.003,-0.004,-20.001,-10.571,-1.113
13:38:24:896,1.181,0.022,-0.003,0.021,-19.994,-10.545,-1.098
13:38:24:922,1.207,0.004,0.000,-0.017,-20.008,-10.447,-1.050
13:38:24:949,1.234,0.011,0.001,0.000,-20.015,-10.393,-0.990
13:38:24:975,1.260,0.020,0.005,-0.001,-20.019,-10.332,-0.875
13:38:25:001,1.286,0.019,0.001,0.003,-20.036,-10.263,-0.806
13:38:25:027,1.312,-0.015,0.000,0.002,-20.082,-10.169,-0.717
13:38:25:053,1.339,-0.005,-0.002,-0.011,-20.118,-10.094,-0.670
13:38:25:079,1.365,0.060,0.008,0.013,-20.201,-10.060,-0.589
13:38:25:108,1.393,0.048,0.036,0.014,-20.259,-10.277,-0.433
13:38:25:134,1.419,-0.013,0.018,0.001,-20.287,-10.522,-0.291
13:38:25:162,1.447,0.003,-0.009,0.004,-20.323,-10.957,-0.096
13:38:25:185,1.470,-0.006,0.005,0.002,-20.341,-11.153,0.009
13:38:25:211,1.496,0.006,-0.010,0.019,-20.377,-11.432,0.159
13:38:25:238,1.524,0.014,-0.007,0.000,-20.407,-11.637,0.337
13:38:25:264,1.549,-0.008,-0.002,-0.009,-20.411,-11.725,0.463
13:38:25:289,1.575,-0.004,-0.003,0.000,-20.413,-11.859,0.643
13:38:25:316,1.601,0.014,0.000,0.003,-20.412,-11.912,0.753
13:38:25:342,1.627,-0.005,0.003,-0.002,-20.428,-11.978,0.880
13:38:25:369,1.654,-0.005,-0.007,-0.006,-20.461,-12.061,0.952
13:38:25:395,1.680,-0.004,-0.009,-0.013,-20.485,-12.104,0.976
13:38:25:421,1.706,0.000,-0.012,-0.002,-20.518,-12.165,0.999
13:38:25:447,1.733,0.007,-0.004,0.008,-20.518,-12.211,1.007
13:38:25:474,1.759,0.004,0.009,-0.002,-20.517,-12.252,1.048
13:38:25:501,1.787,0.000,-0.004,0.002,-20.520,-12.258,1.054
13:38:25:526,1.811,-0.001,-0.008,-0.010,-20.518,-12.225,1.032
13:38:25:552,1.837,0.000,-0.008,-0.007,-20.525,-12.158,0.988
13:38:25:607,1.892,-0.007,-0.015,0.003,-20.514,-12.093,0.965
13:38:25:608,1.893,-0.008,-0.024,-0.006,-20.476,-11.881,0.890
13:38:25:632,1.917,0.019,-0.020,-0.004,-20.458,-11.674,0.823
13:38:25:657,1.943,0.036,-0.002,0.030,-20.491,-11.144,0.679
13:38:25:683,1.969,0.037,0.007,0.010,-20.630,-10.410,0.591
13:38:25:711,1.996,0.064,0.005,0.014,-20.709,-9.855,0.553
13:38:25:737,2.022,0.029,0.024,-0.020,-20.751,-9.090,0.795
13:38:25:762,2.047,-0.017,0.012,-0.021,-20.718,-8.695,1.036
13:38:25:788,2.073,-0.030,0.000,0.003,-20.662,-8.350,1.437
13:38:25:815,2.100,-0.022,-0.002,0.020,-20.679,-8.195,1.663
13:38:25:844,2.129,0.029,0.006,0.008,-20.795,-7.893,1.909
13:38:25:844,2.130,0.038,-0.007,-0.008,-20.911,-7.566,2.180
13:38:25:896,2.181,-0.046,0.014,0.006,-20.955,-7.408,2.393
13:38:25:897,2.182,-0.042,0.009,0.004,-21.051,-7.445,2.815
13:38:25:92,2.205,0.004,0.008,-0.019,-21.140,-7.591,3.133
13:38:25:946,2.231,0.000,0.007,0.004,-21.266,-7.815,3.596
13:38:25:972,2.257,0.030,0.016,0.014,-21.347,-8.036,4.042
13:38:25:998,2.283,0.028,0.010,-0.027,-21.406,-8.184,4.411
13:38:26:025,2.310,0.015,0.023,0.007,-21.405,-8.810,5.138
13:38:26:051,2.336,0.000,0.000,0.021,-21.370,-9.389,5.726
13:38:26:107,2.392,0.088,0.018,0.003,-21.310,-10.363,6.719
13:38:26:107,2.392,0.001,0.020,-0.023,-21.212,-11.291,7.850
13:38:26:159,2.444,0.019,0.024,0.005,-21.090,-12.077,8.700
13:38:26:16,2.445,0.055,0.038,-0.007,-20.839,-13.648,10.116
13:38:26:182,2.468,-0.036,0.069,0.015,-20.658,-14.557,11.081
13:38:26:238,2.523,-0.023,0.096,0.028,-20.268,-16.361,12.649
13:38:26:239,2.524,0.030,0.095,0.043,-19.667,-17.931,14.251
13:38:26:29,2.575,0.080,0.056,0.017,-19.132,-19.070,15.292
13:38:26:291,2.576,0.176,0.070,-0.061,-18.342,-20.435,16.767
13:38:26:314,2.599,0.112,0.104,-0.015,-17.862,-21.467,17.690
13:38:26:34,2.625,0.078,0.209,0.108,-17.124,-22.709,19.065
13:38:26:366,2.652,0.313,0.131,0.162,-16.528,-23.630,20.014
13:38:26:393,2.678,0.315,0.179,0.042,-15.683,-24.537,21.450
13:38:26:498,2.783,0.443,0.204,0.089,-14.735,-25.398,23.008
13:38:26:53,2.815,0.537,0.169,0.234,-13.843,-26.179,24.266
13:38:26:531,2.816,0.816,-0.045,0.291,-11.809,-27.919,26.738
13:38:26:532,2.817,1.020,-0.192,0.232,-10.235,-28.915,28.786
13:38:26:582,2.867,0.531,0.248,-0.062,-8.277,-30.238,32.644
13:38:26:583,2.868,1.307,0.227,0.228,-6.235,-32.129,37.482
13:38:26:583,2.869,1.103,0.136,0.085,-4.942,-33.199,41.131
13:38:26:662,2.947,1.006,-0.422,0.048,-2.271,-34.202,45.189
13:38:26:662,2.947,0.611,-0.287,-0.119,0.348,-34.797,46.678
13:38:26:662,2.947,0.951,-0.843,0.161,2.679,-35.992,48.039
13:38:26:682,2.967,0.499,-1.071,0.196,3.238,-36.426,47.724
13:38:26:736,3.021,0.450,-0.837,0.083,1.902,-36.322,45.428
13:38:26:737,3.022,0.462,-0.567,0.016,-1.422,-35.258,41.478
13:38:26:76,3.046,0.454,-0.542,0.113,-3.834,-34.305,37.831
13:38:26:787,3.072,0.347,-0.258,0.164,-6.834,-33.011,30.836
13:38:26:814,3.100,0.386,-0.159,0.183,-8.615,-32.044,25.502
13:38:26:839,3.124,0.323,0.117,0.215,-11.229,-29.877,16.692
13:38:26:925,3.210,0.147,0.555,0.149,-13.735,-26.062,6.707
13:38:26:925,3.211,-0.039,0.786,0.017,-15.095,-22.318,-0.612
13:38:26:926,3.211,-1.162,1.291,-0.366,-16.122,-15.107,-12.045
13:38:26:943,3.229,-2.289,0.048,-1.179,-15.872,-10.336,-19.088
13:38:26:97,3.256,-2.341,-0.497,-0.872,-14.873,-5.554,-26.303
13:38:26:998,3.283,-2.085,-0.710,-0.382,-14.755,-2.236,-28.662
13:38:27:022,3.307,-2.077,-0.657,-0.285,-14.311,-0.628,-26.920
13:38:27:048,3.333,-0.280,-0.030,0.914,-13.173,1.781,-22.149
13:38:27:075,3.360,0.131,1.071,0.733,-13.106,2.922,-17.941
13:38:27:131,3.416,-0.160,-0.442,-0.447,-12.847,7.101,-11.545
13:38:27:131,3.417,-0.682,-0.068,-0.392,-12.902,8.481,-7.698
13:38:27:153,3.439,-0.267,0.175,0.407,-13.427,7.687,-4.240
13:38:27:182,3.467,0.068,0.119,0.131,-14.418,4.654,-1.920
13:38:27:208,3.493,-0.035,0.066,-0.258,-15.374,3.877,-0.498
13:38:27:261,3.546,0.004,0.060,-0.057,-16.197,2.645,1.026
13:38:27:262,3.547,0.071,0.064,0.083,-16.609,1.037,1.996
13:38:27:286,3.571,0.096,0.223,-0.028,-17.139,-1.146,3.228
13:38:27:311,3.597,0.105,0.019,-0.007,-17.324,-3.924,4.747
13:38:27:337,3.622,0.146,-0.108,-0.035,-17.242,-5.689,6.013
13:38:27:363,3.648,-0.027,-0.039,-0.007,-17.021,-7.781,8.117
13:38:27:419,3.704,0.181,0.001,0.042,-16.828,-8.855,9.534
13:38:27:42,3.705,0.117,0.088,0.148,-16.529,-10.396,11.658
13:38:27:471,3.757,0.217,0.091,0.080,-16.342,-11.119,13.197
13:38:27:472,3.757,0.328,0.156,-0.004,-16.064,-12.017,15.788
13:38:27:494,3.780,0.198,0.302,0.056,-15.843,-12.624,18.656
13:38:27:521,3.806,0.478,0.335,0.180,-15.401,-13.388,20.658
13:38:27:547,3.832,0.696,0.302,0.245,-13.860,-15.530,23.957
13:38:27:603,3.888,1.200,0.038,0.331,-11.958,-17.813,26.373
13:38:27:604,3.889,1.467,-0.121,-0.131,-7.978,-21.714,30.555
13:38:27:655,3.941,1.541,0.484,-0.043,-5.266,-24.312,36.382
13:38:27:656,3.941,1.504,0.255,-0.096,-4.797,-24.509,41.137
13:38:27:707,3.993,1.045,-0.176,-0.173,-3.220,-23.674,46.820
13:38:27:708,3.994,0.993,-0.480,-0.344,-0.462,-23.276,49.106
13:38:27:759,4.044,0.870,-1.271,-0.229,0.977,-23.842,50.165
13:38:27:789,4.074,0.422,-1.446,0.014,2.262,-24.088,49.027
13:38:27:789,4.074,0.349,-0.928,-0.057,2.289,-23.740,44.936
13:38:27:81,4.095,0.405,-0.629,-0.013,0.100,-22.369,38.903
13:38:27:836,4.121,0.465,-0.709,-0.106,-1.152,-21.384,33.746
13:38:27:862,4.148,0.462,-0.281,-0.177,-3.778,-19.167,24.818
13:38:27:889,4.174,0.528,0.136,-0.113,-5.879,-16.821,18.212
13:38:27:915,4.200,0.223,0.597,-0.218,-8.924,-11.233,7.427
13:38:27:974,4.259,-0.549,1.349,-0.572,-10.856,-3.440,-4.387
13:38:27:974,4.259,-1.582,1.581,-0.439,-11.116,2.634,-12.137
13:38:27:975,4.260,-2.266,0.375,-1.037,-9.494,10.412,-22.273
13:38:28:02,4.306,-2.829,-0.510,0.014,-9.115,13.880,-27.252
13:38:28:051,4.337,-2.305,-1.108,0.159,-9.841,16.801,-30.764
13:38:28:052,4.337,-1.730,-0.532,-0.064,-10.734,16.619,-29.888
13:38:28:101,4.387,2.613,2.195,1.290,-10.682,18.123,-24.453
13:38:28:102,4.387,-0.873,0.198,0.179,-9.136,21.501,-19.005
13:38:28:153,4.438,-0.766,0.308,-0.708,-9.414,24.071,-14.607
13:38:28:18,4.465,-1.049,-0.494,-0.168,-10.524,29.959,-8.130
13:38:28:181,4.466,-0.205,0.077,0.136,-10.648,31.793,-5.237
13:38:28:204,4.489,0.135,0.226,0.701,-10.595,29.368,-2.523
13:38:28:23,4.516,0.279,0.183,-0.013,-11.915,26.565,-0.327
13:38:28:256,4.542,-0.505,0.042,-0.236,-12.779,26.225,0.781
13:38:28:282,4.568,0.140,0.033,-0.138,-13.245,23.759,2.122
13:38:28:338,4.623,-0.053,0.025,-0.014,-13.408,22.621,2.751
13:38:28:338,4.623,-0.157,0.091,-0.153,-13.614,21.619,3.390
13:38:28:361,4.646,0.000,0.083,0.073,-13.548,18.958,4.066
13:38:28:389,4.674,0.322,-0.029,0.007,-13.298,16.562,4.637
13:38:28:474,4.760,0.311,-0.030,0.022,-12.792,13.832,6.016
13:38:28:475,4.760,0.108,0.096,-0.082,-12.439,13.054,7.361
13:38:28:475,4.760,0.067,0.145,-0.093,-11.843,12.543,9.796
13:38:28:492,4.778,0.340,0.279,-0.035,-11.292,11.867,11.594
13:38:28:519,4.804,0.454,0.194,0.013,-10.256,12.508,14.545
13:38:28:545,4.830,0.533,0.373,-0.091,-9.115,11.840,17.962
13:38:28:573,4.858,0.698,0.354,-0.169,-8.046,12.838,20.374
13:38:28:598,4.884,1.136,0.063,-0.666,-5.651,11.739,24.128
13:38:28:624,4.910,1.059,0.054,-1.248,-3.733,12.688,26.987
13:38:28:651,4.936,0.755,0.538,-0.889,-1.243,12.174,32.358
13:38:28:708,4.993,1.553,-0.093,-1.219,0.223,12.838,39.055
13:38:28:708,4.993,0.594,-0.504,-0.997,1.865,14.238,42.648
13:38:28:728,5.013,0.192,-0.268,-0.558,5.037,16.899,45.859
13:38:28:755,5.040,0.445,-1.196,-0.986,4.952,18.451,46.653
13:38:28:811,5.096,0.200,-1.224,-0.578,4.406,23.283,45.760
13:38:28:811,5.097,-0.049,-0.830,-0.636,3.667,25.933,43.670
13:38:28:833,5.119,-0.008,-0.637,-0.732,2.260,30.428,38.599
13:38:28:86,5.145,-0.120,-0.610,-1.063,1.037,35.577,31.444
13:38:28:888,5.173,-0.264,-0.428,-1.089,-0.061,39.517,25.688
13:38:28:913,5.198,-0.655,0.233,-1.139,-2.155,47.012,16.347
13:38:28:938,5.223,-1.371,1.106,-0.714,-3.535,53.035,9.600
13:38:28:965,5.250,-1.841,1.341,0.041,-4.791,61.964,-1.284
13:38:28:991,5.277,-2.291,0.664,1.038,-5.125,69.228,-12.309
13:38:29:018,5.303,-1.563,0.459,2.357,-6.497,71.883,-19.274
13:38:29:044,5.330,-1.424,-0.744,1.972,-9.726,72.400,-26.960
13:38:29:07,5.355,-0.487,-0.758,2.214,-11.676,72.344,-29.116
13:38:29:097,5.382,0.446,0.041,1.590,-12.947,74.420,-26.762
13:38:29:122,5.407,3.032,1.305,-1.899,-11.540,79.558,-20.847
13:38:29:148,5.434,-0.916,-0.101,1.815,-9.603,85.105,-17.402
13:38:29:175,5.460,-0.481,0.779,0.549,-10.263,92.266,-10.291
13:38:29:23,5.515,-0.833,-0.753,1.634,-10.848,96.147,-6.275
13:38:29:23,5.516,0.454,0.033,-0.110,-10.728,95.826,-1.763
13:38:29:254,5.539,-0.046,0.139,-0.420,-10.967,92.884,-0.114
13:38:29:28,5.565,-0.160,0.032,0.045,-12.017,91.556,2.166
13:38:29:306,5.591,-0.121,0.046,0.139,-12.928,92.154,3.716
13:38:29:363,5.648,0.266,0.067,-0.143,-13.185,90.548,4.412
13:38:29:363,5.648,-0.048,0.152,0.085,-13.989,88.898,5.348
13:38:29:414,5.699,-0.208,0.071,-0.254,-14.531,87.880,5.987
13:38:29:414,5.700,0.004,0.059,-0.108,-15.061,85.545,7.191
13:38:29:438,5.723,0.038,-0.020,-0.105,-15.241,83.427,8.789
13:38:29:463,5.749,-0.002,0.026,-0.142,-15.278,82.302,9.993
13:38:29:491,5.776,0.068,0.070,-0.182,-15.231,80.969,12.158
13:38:29:516,5.801,0.067,0.169,-0.309,-15.148,80.076,13.905
13:38:29:571,5.856,0.087,0.365,-0.423,-14.883,78.574,17.298
13:38:29:572,5.857,-0.001,0.330,-0.609,-14.549,77.600,19.914
13:38:29:595,5.880,-0.074,0.409,-0.661,-13.694,76.073,24.123
13:38:29:621,5.906,0.032,0.108,-1.081,-11.494,73.257,28.457
13:38:29:647,5.933,-0.098,-0.081,-1.393,-9.359,70.903,31.496
13:38:29:674,5.959,-0.237,0.356,-1.080,-5.716,66.920,36.941
13:38:29:7,5.985,0.062,0.508,-1.964,-3.627,64.725,41.397
13:38:29:728,6.013,0.004,-0.331,-1.347,0.761,63.121,46.562
13:38:29:783,6.068,-0.173,-0.136,-0.486,5.740,61.888,48.960
13:38:29:783,6.069,-0.107,-1.250,-1.092,6.593,61.240,49.415
13:38:29:864,6.149,0.207,-1.327,-0.495,5.352,60.566,47.670
13:38:29:865,6.150,0.056,-0.971,-0.421,3.072,60.684,45.032
13:38:29:865,6.150,0.018,-0.637,-0.468,-1.583,61.518,39.405
13:38:29:885,6.170,0.205,-0.440,-0.536,-5.791,62.824,31.699
13:38:29:91,6.195,0.226,-0.338,-0.416,-8.019,63.982,25.431
13:38:29:936,6.221,0.209,-0.017,-0.497,-11.048,66.879,14.708
13:38:29:962,6.248,0.099,1.034,0.132,-13.086,70.096,6.714
13:38:29:99,6.276,-0.180,1.336,0.880,-15.317,76.535,-6.211
13:38:30:016,6.301,-0.602,1.177,2.078,-16.051,83.511,-18.245
13:38:30:073,6.358,-0.609,0.004,2.722,-15.782,87.615,-24.485
13:38:30:073,6.358,-0.458,-0.817,2.752,-15.724,91.608,-29.378
13:38:30:153,6.438,-0.118,-0.702,2.249,-15.829,93.112,-29.422
13:38:30:153,6.438,0.188,0.640,-0.130,-15.486,94.024,-24.895
13:38:30:153,6.439,0.708,-0.514,1.627,-14.574,95.237,-21.972
13:38:30:174,6.459,-0.387,0.416,0.733,-14.288,96.976,-15.940
13:38:30:199,6.484,-0.430,-0.453,0.479,-14.683,99.849,-9.836
13:38:30:225,6.510,-0.232,-0.419,1.216,-15.204,100.261,-7.033
13:38:30:251,6.536,0.158,0.073,0.256,-16.084,97.747,-4.712
13:38:30:277,6.563,0.200,0.126,-0.084,-17.054,95.756,-3.366
13:38:30:306,6.592,-0.030,0.115,0.165,-18.498,93.715,-1.572
13:38:30:307,6.592,-0.269,0.115,-0.025,-19.065,90.343,0.075
13:38:30:361,6.646,0.072,0.114,-0.196,-19.025,87.672,1.192
13:38:30:361,6.646,0.014,0.068,-0.055,-18.752,85.467,2.762
13:38:30:412,6.697,-0.180,-0.034,-0.143,-18.494,84.233,3.944
13:38:30:412,6.697,-0.211,-0.063,-0.141,-18.235,82.473,5.968
13:38:30:464,6.749,-0.243,-0.047,-0.220,-18.194,81.563,7.503
13:38:30:464,6.750,-0.193,0.077,-0.231,-18.350,80.379,10.220
13:38:30:49,6.775,0.013,0.277,-0.108,-18.589,78.930,13.375
13:38:30:513,6.799,0.319,0.217,-0.340,-18.611,77.812,15.714
13:38:30:54,6.825,0.458,0.462,-0.416,-18.389,76.039,19.604
13:38:30:595,6.880,0.406,0.345,-0.775,-17.845,74.623,22.512
13:38:30:596,6.881,0.101,0.277,-1.201,-15.981,71.787,27.616
13:38:30:618,6.903,-0.139,-0.099,-1.852,-12.690,67.972,33.259
13:38:30:645,6.930,-0.019,-0.033,-1.993,-10.419,65.418,37.507
13:38:30:7,6.985,0.167,0.562,-2.303,-8.001,62.962,44.775
13:38:30:701,6.986,0.215,-0.870,-1.749,-5.464,63.079,48.573
13:38:30:724,7.009,-0.798,0.336,0.645,0.380,63.376,50.976
13:38:30:75,7.035,-0.106,-1.560,-1.154,1.266,62.544,50.123
13:38:30:806,7.091,0.151,-1.449,-0.645,0.739,62.466,47.974
13:38:30:806,7.091,-0.146,-0.923,-0.573,-2.226,63.551,42.250
13:38:30:828,7.114,-0.094,-0.458,-0.531,-4.456,64.532,37.220
13:38:30:856,7.142,0.046,-0.160,-0.437,-6.856,65.681,27.758
13:38:30:883,7.168,0.067,0.037,-0.454,-8.281,66.524,20.717
13:38:30:908,7.193,0.112,0.455,-0.357,-11.034,70.071,9.752
13:38:30:933,7.218,-0.231,1.094,0.380,-13.491,76.880,-2.014
13:38:30:989,7.274,-0.339,0.960,0.907,-14.048,82.329,-9.778
13:38:30:99,7.275,-0.310,0.644,2.513,-13.084,90.545,-20.467
13:38:31:013,7.299,-0.566,-0.115,2.391,-11.732,93.959,-26.002
13:38:31:039,7.324,-0.118,-0.716,2.276,-10.874,97.359,-31.074
13:38:31:094,7.379,0.123,-1.026,2.259,-9.513,100.652,-31.029
13:38:31:095,7.380,0.273,-0.715,1.990,-8.332,102.789,-28.149
13:38:31:117,7.402,-0.384,1.542,-2.147,-7.471,105.490,-22.266
13:38:31:145,7.430,-0.159,0.838,2.151,-6.929,106.171,-19.466
13:38:31:17,7.455,-0.177,1.528,1.689,-8.367,108.335,-11.898
13:38:31:225,7.510,-0.550,-1.093,0.739,-8.773,110.573,-7.123
13:38:31:226,7.511,-0.050,0.877,0.936,-9.437,111.159,-2.455
13:38:31:248,7.534,0.354,0.180,0.055,-9.290,108.530,-0.395
13:38:31:275,7.560,0.266,-0.002,0.184,-9.921,106.903,1.006
13:38:31:333,7.618,-0.300,0.166,0.343,-11.290,105.189,2.542
13:38:31:333,7.618,-0.195,0.175,-0.033,-11.698,102.955,3.453
13:38:31:353,7.638,-0.027,0.119,-0.131,-11.972,99.886,4.487
13:38:31:38,7.665,-0.036,0.197,0.060,-12.139,97.440,5.380
13:38:31:406,7.691,-0.057,0.115,-0.111,-11.935,95.261,6.058
13:38:31:433,7.719,-0.096,-0.125,-0.389,-11.340,92.703,7.451
13:38:31:461,7.746,0.052,0.061,-0.163,-11.056,91.975,8.800
13:38:31:514,7.799,0.164,0.165,-0.174,-10.603,91.388,11.355
13:38:31:514,7.799,0.022,0.201,-0.363,-9.899,90.678,14.479
13:38:31:537,7.822,-0.123,0.290,-0.555,-9.293,90.391,16.898
13:38:31:592,7.878,0.110,0.160,-0.854,-7.798,88.731,21.114
13:38:31:593,7.879,-0.384,0.101,-1.247,-6.405,87.862,24.378
13:38:31:617,7.903,-0.922,0.155,-1.602,-3.813,86.710,29.865
13:38:31:673,7.958,-0.540,0.994,-1.421,-2.140,85.652,34.069
13:38:31:674,7.959,-0.516,-0.186,-1.491,-0.201,84.888,41.159
13:38:31:695,7.980,-0.567,-0.520,-0.819,4.304,84.166,45.636
13:38:31:722,8.007,-0.715,-0.419,-0.707,7.162,83.492,46.858
13:38:31:776,8.062,-0.116,-1.389,-0.729,8.139,83.050,46.638
13:38:31:777,8.062,-0.113,-1.492,-0.662,7.253,83.438,44.879
13:38:31:879,8.164,-0.280,-0.835,-0.401,3.830,85.448,40.424
13:38:31:94,8.226,-0.362,-0.651,-0.361,1.322,87.463,36.313
13:38:31:941,8.227,-0.456,-0.542,-0.387,-1.661,91.059,28.269
13:38:31:942,8.227,-0.599,-0.102,-0.391,-4.059,95.484,18.296
13:38:31:943,8.228,-0.661,0.689,-0.051,-5.560,99.337,10.875
13:38:31:96,8.245,-0.785,1.303,0.829,-7.703,107.108,-0.939
13:38:31:961,8.246,-0.551,1.017,2.156,-8.592,113.097,-8.637
13:38:31:984,8.269,0.755,0.622,2.509,-9.094,121.048,-19.077
13:38:32:04,8.325,0.586,-0.625,2.673,-9.688,124.918,-25.996
13:38:32:04,8.325,1.250,-0.738,1.825,-10.366,127.119,-27.585
13:38:32:091,8.376,1.734,-0.504,1.412,-9.922,131.769,-24.701
13:38:32:092,8.377,1.157,0.898,-1.798,-8.946,135.876,-20.139
13:38:32:115,8.401,0.969,0.854,1.548,-8.604,138.997,-13.964
13:38:32:141,8.426,-1.215,-0.486,-0.051,-9.268,142.771,-6.741
13:38:32:167,8.452,0.708,-0.627,1.434,-9.444,144.855,-3.317
13:38:32:193,8.479,-0.068,0.332,-0.136,-10.427,144.080,-0.795
13:38:32:22,8.505,-0.136,0.147,0.018,-10.589,142.432,0.467
13:38:32:246,8.531,-0.012,0.039,0.124,-10.877,141.845,2.343
13:38:32:274,8.559,-0.074,0.101,-0.012,-10.677,140.519,3.600
13:38:32:299,8.585,-0.097,0.060,-0.215,-10.609,138.837,4.399
13:38:32:325,8.610,-0.179,0.067,0.159,-10.577,137.739,5.499
13:38:32:353,8.638,-0.085,0.104,-0.044,-10.541,136.843,6.311
13:38:32:406,8.691,-0.141,-0.001,-0.106,-10.275,135.162,7.874
13:38:32:407,8.692,-0.100,0.053,-0.176,-9.846,133.993,9.718
13:38:32:491,8.777,-0.181,0.019,-0.222,-9.490,133.576,11.161
13:38:32:492,8.778,-0.277,0.101,-0.179,-8.936,133.529,13.783
13:38:32:493,8.778,-0.469,0.379,-0.252,-8.512,133.534,15.886
13:38:32:494,8.779,-0.356,0.445,-0.514,-7.550,132.990,19.391
13:38:32:536,8.821,-0.711,0.158,-0.614,-6.458,132.471,21.945
13:38:32:561,8.847,-1.232,0.087,-0.389,-4.268,133.112,26.290
13:38:32:588,8.873,-1.762,-0.153,-0.370,-1.132,131.886,31.196
13:38:32:615,8.900,-1.267,0.687,-0.437,0.638,131.044,35.403
13:38:32:673,8.959,-1.388,-0.163,-0.687,3.229,131.071,42.010
13:38:32:673,8.959,-0.739,-0.739,-0.167,6.429,131.174,45.134
13:38:32:674,8.959,-1.016,-0.675,-0.098,9.528,132.477,47.056
13:38:32:721,9.007,-0.635,-1.396,-0.250,8.647,133.642,46.705
13:38:32:722,9.007,-0.529,-1.219,-0.222,7.154,135.698,44.909
13:38:32:748,9.033,-0.566,-0.702,0.154,3.558,138.874,40.421
13:38:32:832,9.117,-0.607,-0.599,0.226,1.108,141.525,36.247
13:38:32:832,9.117,-0.589,-0.504,0.306,-1.851,145.856,28.139
13:38:32:832,9.117,-0.645,-0.158,0.331,-3.483,148.972,21.703
13:38:32:879,9.164,-0.485,0.328,0.484,-6.068,154.990,11.189
13:38:32:88,9.165,0.305,1.227,1.103,-8.386,162.810,-0.363
13:38:32:902,9.188,1.042,1.372,1.412,-9.429,168.265,-8.045
13:38:32:928,9.214,2.200,0.740,0.908,-10.066,175.312,-18.721
13:38:32:957,9.242,2.658,-0.389,0.743,-10.588,178.021,-24.148
13:38:32:982,9.267,2.466,-0.947,0.142,-12.630,-179.969,-28.470
13:38:33:008,9.293,1.765,-0.277,-0.223,-14.025,-179.052,-27.037
13:38:33:121,9.406,-0.985,1.334,-1.436,-13.493,-177.154,-23.297
13:38:33:121,9.407,1.732,0.046,-0.059,-11.487,-172.783,-18.282
13:38:33:122,9.408,-0.376,0.344,1.010,-11.682,-170.793,-14.109
13:38:33:123,9.408,0.885,-0.730,0.416,-12.115,-165.887,-8.213
13:38:33:141,9.426,0.643,0.367,-0.377,-12.579,-163.768,-5.143
13:38:33:194,9.479,0.067,0.096,-0.100,-12.368,-165.594,-2.170
13:38:33:195,9.480,-0.365,-0.012,-0.068,-12.971,-167.874,-0.102
13:38:33:217,9.502,0.135,0.020,0.196,-13.707,-167.310,1.056
13:38:33:243,9.529,0.308,0.104,0.211,-14.507,-167.574,2.420
13:38:33:27,9.555,-0.151,0.050,-0.053,-14.727,-169.748,3.499
13:38:33:296,9.581,-0.188,0.064,-0.013,-15.066,-172.834,5.243
13:38:33:322,9.607,-0.015,0.064,0.370,-15.339,-174.583,6.975
13:38:33:378,9.663,-0.216,0.042,0.095,-15.270,-176.385,8.190
13:38:33:379,9.664,-0.307,0.103,-0.123,-15.149,-178.672,10.154
13:38:33:404,9.689,-0.217,0.111,-0.121,-15.107,-179.571,11.615
13:38:33:427,9.712,-0.237,0.210,-0.092,-14.927,179.471,14.230
13:38:33:454,9.739,-0.555,0.307,0.010,-14.552,178.113,17.425
13:38:33:481,9.767,-0.557,0.275,-0.133,-14.155,178.016,19.958
13:38:33:507,9.792,-0.745,0.396,0.116,-13.086,176.647,24.216
13:38:33:533,9.818,-0.905,0.323,0.136,-11.691,175.433,27.196
13:38:33:585,9.870,-1.077,0.479,0.305,-5.215,169.447,35.121
13:38:33:613,9.898,-1.933,0.800,0.385,-2.083,166.644,41.590
13:38:33:638,9.923,-1.349,-0.595,0.144,2.112,166.286,47.201
13:38:33:664,9.949,0.211,0.001,0.258,6.015,166.538,49.293
13:38:33:69,9.975,-0.902,-1.421,0.367,8.524,167.332,49.792
13:38:33:716,10.002,-0.433,-1.331,0.099,7.986,167.769,49.186
13:38:33:742,10.028,-0.379,-1.009,0.132,5.676,169.788,45.879
13:38:33:768,10.054,-0.371,-0.780,0.361,2.054,172.602,40.317
13:38:33:797,10.082,-0.389,-0.518,0.361,-0.223,174.727,35.348
13:38:33:85,10.135,-0.443,-0.325,0.355,-3.059,178.039,26.229
13:38:33:851,10.136,-0.474,0.036,0.420,-4.765,-179.377,19.291
13:38:33:903,10.189,-0.063,0.891,0.488,-7.416,-173.673,8.045
13:38:33:903,10.189,0.903,1.503,0.630,-8.843,-168.861,0.048
13:38:33:926,10.211,1.354,1.115,0.455,-9.886,-161.166,-11.603
13:38:33:954,10.239,2.442,0.505,-0.284,-9.596,-152.780,-21.352
13:38:33:98,10.265,2.614,-0.497,-0.722,-9.194,-148.569,-25.920
13:38:34:007,10.292,2.355,-1.118,-1.249,-9.472,-145.259,-28.618
13:38:34:032,10.317,1.229,0.058,-0.555,-9.781,-144.450,-26.872
13:38:34:058,10.343,-2.248,2.075,0.179,-9.653,-141.657,-21.098
13:38:34:084,10.369,1.051,0.217,-0.735,-8.888,-139.252,-15.316
13:38:34:168,10.453,-0.049,0.089,0.498,-9.609,-138.114,-10.617
13:38:34:169,10.455,1.272,-0.736,-0.513,-10.549,-133.382,-4.664
13:38:34:169,10.455,0.413,0.339,-0.067,-11.460,-131.498,-2.102
13:38:34:218,10.503,-0.276,0.126,-0.187,-11.793,-133.541,-0.016
13:38:34:219,10.504,-0.068,0.069,-0.096,-12.340,-135.810,1.964
13:38:34:299,10.584,0.082,0.087,0.167,-12.815,-136.576,3.045
13:38:34:3,10.585,-0.034,-0.006,0.177,-12.962,-138.460,4.662
13:38:34:301,10.586,-0.098,0.034,0.032,-12.925,-139.936,5.516
13:38:34:35,10.636,0.081,0.129,-0.110,-13.016,-141.598,6.695
13:38:34:35,10.636,-0.171,0.029,0.136,-12.836,-144.104,7.980
13:38:34:372,10.657,-0.290,-0.025,0.184,-12.551,-145.770,8.979
13:38:34:398,10.684,-0.221,0.136,0.121,-12.134,-147.162,10.793
13:38:34:425,10.710,-0.244,0.202,0.194,-11.811,-147.580,12.337
13:38:34:453,10.738,-0.316,0.300,0.376,-11.165,-148.113,15.165
13:38:34:479,10.764,-0.646,0.414,0.282,-10.259,-148.854,18.520
13:38:34:504,10.789,-0.881,0.342,0.480,-9.204,-149.734,21.046
13:38:34:53,10.815,-0.910,-0.059,0.924,-7.178,-150.645,25.409
13:38:34:556,10.842,-0.669,-0.193,1.317,-5.558,-150.915,28.661
13:38:34:641,10.926,-0.486,0.057,1.314,-2.866,-151.883,34.215
13:38:34:641,10.926,-1.339,0.373,1.656,-1.237,-152.977,38.800
13:38:34:642,10.927,-1.006,-0.661,1.135,2.564,-153.180,45.060
13:38:34:69,10.975,0.135,0.050,0.285,8.259,-152.837,48.471
13:38:34:691,10.976,-0.788,-1.603,1.164,8.869,-152.148,48.960
13:38:34:742,11.028,-0.201,-1.209,0.604,6.954,-149.022,47.756
13:38:34:743,11.029,-0.159,-1.085,0.696,5.103,-146.845,45.345
13:38:34:828,11.113,0.128,-0.468,0.679,1.512,-142.734,39.728
13:38:34:828,11.114,0.164,-0.430,0.682,-1.254,-138.499,31.576
13:38:34:829,11.115,0.077,-0.361,0.817,-2.707,-135.745,25.033
13:38:34:83,11.115,0.393,0.322,0.838,-5.230,-130.191,14.393
13:38:34:872,11.157,1.189,1.392,0.177,-7.250,-124.767,6.881
13:38:34:897,11.182,1.550,1.454,-0.622,-9.391,-115.165,-4.718
13:38:34:957,11.243,1.776,0.849,-1.795,-9.879,-106.534,-15.743
13:38:34:957,11.243,1.162,0.267,-2.685,-10.568,-102.941,-21.909
13:38:34:958,11.243,1.087,-1.064,-2.606,-12.293,-100.987,-27.898
13:38:34:977,11.263,0.500,-0.726,-2.257,-13.420,-100.031,-28.558
13:38:35:059,11.344,-0.746,0.038,-1.673,-14.101,-98.350,-24.648
13:38:35:059,11.344,-0.425,-0.167,-1.060,-13.504,-96.175,-20.695
13:38:35:11,11.395,0.902,0.772,-1.605,-12.213,-91.966,-14.980
13:38:35:111,11.396,0.542,0.068,0.095,-13.318,-86.509,-7.669
13:38:35:136,11.421,0.524,-0.601,-1.608,-13.493,-84.004,-3.933
13:38:35:192,11.478,-0.447,0.038,-0.007,-13.485,-85.183,-0.813
13:38:35:192,11.478,-0.005,0.067,0.224,-13.553,-87.586,0.665
13:38:35:193,11.479,-0.114,0.008,-0.047,-14.537,-88.323,2.516
13:38:35:241,11.526,0.221,0.115,-0.186,-15.672,-89.154,3.847
13:38:35:242,11.527,-0.102,0.100,0.283,-16.061,-91.495,5.026
13:38:35:266,11.551,0.012,0.146,-0.003,-16.443,-94.036,6.770
13:38:35:291,11.576,0.093,0.102,0.175,-16.600,-95.377,7.845
13:38:35:318,11.603,-0.091,0.049,0.302,-16.478,-98.356,9.620
13:38:35:402,11.687,-0.160,-0.046,0.349,-16.295,-100.037,10.865
13:38:35:402,11.688,-0.014,0.069,0.368,-16.055,-101.438,13.237
13:38:35:403,11.688,-0.027,0.267,0.356,-16.062,-101.881,16.454
13:38:35:423,11.708,-0.165,0.497,0.457,-16.040,-102.283,18.954
13:38:35:479,11.764,-0.275,0.208,0.782,-15.452,-103.771,23.009
13:38:35:479,11.764,-0.062,0.104,1.075,-14.612,-104.925,26.051
13:38:35:531,11.816,0.195,0.130,1.382,-12.651,-106.832,31.265
13:38:35:531,11.817,0.151,0.543,1.273,-9.213,-110.181,37.025
13:38:35:553,11.839,-0.250,0.474,2.159,-6.926,-112.320,41.663
13:38:35:581,11.867,-0.176,-0.425,1.297,-3.409,-113.189,47.736
13:38:35:607,11.892,0.246,-0.097,0.832,0.032,-113.195,50.213
13:38:35:662,11.947,0.254,-1.549,1.207,2.098,-113.276,51.270
13:38:35:662,11.947,-0.007,-1.327,0.583,1.087,-113.336,49.740
13:38:35:685,11.970,0.044,-1.038,0.591,-0.704,-112.692,47.000
13:38:35:714,12.000,0.085,-0.424,0.391,-4.301,-110.998,41.016
13:38:35:737,12.023,0.040,-0.544,0.550,-6.285,-109.706,35.689
13:38:35:763,12.049,-0.039,-0.402,0.696,-8.666,-107.643,26.100
13:38:35:79,12.075,0.104,0.386,0.530,-10.350,-105.446,18.944
13:38:35:875,12.160,0.177,1.177,-0.043,-13.177,-100.149,7.045
13:38:35:876,12.161,0.528,1.518,-0.929,-15.315,-92.851,-5.850
13:38:35:876,12.161,0.205,1.190,-2.028,-15.966,-87.046,-14.181
13:38:35:924,12.209,0.323,-0.189,-2.890,-15.606,-79.925,-24.426
13:38:35:924,12.210,-0.363,-1.158,-3.030,-15.718,-77.084,-28.856
13:38:35:948,12.234,-0.106,-0.883,-2.431,-16.280,-75.048,-30.266
13:38:36:003,12.288,0.086,1.082,0.983,-16.631,-75.387,-25.541
13:38:36:004,12.289,-3.012,0.248,2.375,-16.797,-75.026,-22.110
13:38:36:028,12.313,0.343,0.246,-0.899,-15.578,-73.256,-17.445
13:38:36:053,12.338,-0.399,0.313,-0.271,-15.784,-70.709,-13.563
13:38:36:078,12.364,0.726,-0.614,-0.811,-16.654,-66.198,-8.291
13:38:36:105,12.390,0.184,0.090,-0.024,-16.667,-65.793,-5.668
13:38:36:131,12.417,-0.401,0.002,-0.027,-16.616,-68.847,-3.139
13:38:36:158,12.443,-0.102,0.070,-0.065,-17.954,-70.698,-1.334
13:38:36:213,12.498,0.124,0.102,-0.137,-18.942,-71.277,-0.322
13:38:36:214,12.499,0.115,0.093,0.064,-19.954,-73.911,1.481
13:38:36:238,12.523,-0.042,-0.012,0.189,-20.371,-76.004,2.792
13:38:36:263,12.548,0.034,0.090,-0.050,-20.783,-77.713,4.405
13:38:36:288,12.574,0.008,0.046,0.184,-20.892,-80.549,6.441
13:38:36:344,12.629,0.104,-0.033,0.240,-20.927,-82.379,7.995
13:38:36:345,12.630,0.067,0.050,0.415,-20.997,-84.456,10.784
13:38:36:368,12.653,-0.119,0.177,0.159,-21.109,-85.234,12.901
13:38:36:394,12.679,0.012,0.364,0.444,-21.141,-86.394,16.624
13:38:36:449,12.734,-0.296,0.378,0.516,-21.020,-87.585,19.356
13:38:36:45,12.735,-0.140,0.332,0.685,-20.224,-89.705,23.806
13:38:36:473,12.758,0.271,0.260,1.023,-18.164,-92.735,28.720
13:38:36:499,12.784,0.570,-0.081,1.524,-15.950,-95.391,32.210
13:38:36:524,12.810,0.315,0.012,1.414,-12.699,-99.681,38.286
13:38:36:551,12.836,0.132,0.730,1.773,-10.909,-102.122,42.990
13:38:36:577,12.862,-0.056,-0.479,1.450,-6.735,-103.440,48.550
13:38:36:603,12.888,0.269,-0.044,-0.296,-1.308,-104.142,51.071
13:38:36:63,12.915,0.360,-1.306,0.868,-0.122,-104.787,51.177
13:38:36:658,12.943,-0.073,-1.584,0.632,-0.848,-105.282,49.421
13:38:36:713,12.998,-0.030,-0.961,0.332,-2.623,-104.921,46.570
13:38:36:713,12.998,0.038,-0.684,0.402,-5.845,-103.706,40.549
13:38:36:735,13.020,-0.034,-0.520,0.454,-8.384,-102.341,32.363
13:38:36:761,13.046,-0.042,-0.284,0.447,-9.793,-101.311,25.894
13:38:36:789,13.074,-0.089,0.143,0.616,-12.121,-98.537,14.947
13:38:36:814,13.099,-0.124,0.989,0.109,-13.864,-95.122,6.900
13:38:36:842,13.128,0.041,1.400,-0.803,-15.544,-88.056,-5.916
13:38:36:868,13.153,0.094,1.169,-2.288,-15.354,-79.759,-17.845
13:38:36:893,13.179,0.412,0.371,-2.744,-14.366,-74.756,-24.098
13:38:36:948,13.233,-0.865,-1.028,-3.066,-13.774,-69.381,-29.175
13:38:36:948,13.233,-0.667,-1.109,-2.526,-13.922,-68.656,-29.121
13:38:36:973,13.258,0.229,-0.054,-1.006,-14.117,-68.428,-24.456
13:38:36:998,13.284,-0.903,-0.186,-1.191,-13.839,-67.354,-21.363
13:38:37:023,13.309,-0.262,0.496,-1.444,-13.450,-65.547,-15.453
13:38:37:05,13.336,0.447,0.051,0.372,-13.905,-61.545,-9.091
13:38:37:076,13.361,-0.284,-0.288,-1.296,-14.011,-59.311,-5.867
13:38:37:102,13.387,0.015,-0.024,-0.116,-13.155,-60.002,-2.973
13:38:37:129,13.414,-0.131,0.030,0.038,-12.953,-61.495,-1.452
13:38:37:218,13.504,-0.155,0.015,0.102,-13.387,-62.768,0.453
13:38:37:218,13.504,0.168,0.022,-0.163,-13.913,-63.567,2.047
13:38:37:219,13.504,0.046,0.036,0.032,-14.114,-64.954,2.997
13:38:37:219,13.504,-0.043,0.038,0.102,-14.587,-66.622,4.387
13:38:37:26,13.545,0.085,0.057,-0.042,-14.979,-67.483,5.377
13:38:37:313,13.598,0.090,0.100,0.056,-15.461,-69.519,7.119
13:38:37:344,13.629,-0.071,0.154,0.196,-15.683,-71.842,9.134
13:38:37:345,13.630,-0.121,0.185,0.337,-15.706,-73.201,10.634
13:38:37:346,13.631,-0.061,0.125,0.269,-15.530,-74.435,13.094
13:38:37:424,13.709,0.218,0.333,0.396,-15.313,-75.065,15.062
13:38:37:424,13.709,-0.016,0.323,0.504,-14.774,-77.101,18.687
13:38:37:425,13.710,0.071,0.392,0.783,-14.074,-78.234,21.487
13:38:37:473,13.759,0.213,0.341,0.851,-12.323,-80.440,26.021
13:38:37:474,13.759,0.845,-0.188,1.439,-8.919,-83.621,30.766
13:38:37:497,13.782,0.923,-0.144,1.334,-6.465,-85.811,34.376
13:38:37:523,13.808,0.546,0.819,1.423,-3.778,-87.829,40.880
13:38:37:549,13.834,0.356,-0.338,1.363,-1.870,-87.447,44.617
13:38:37:634,13.920,0.229,-0.309,-0.225,1.911,-85.997,47.803
13:38:37:634,13.920,0.821,-1.140,0.506,2.539,-85.518,48.372
13:38:37:634,13.920,0.417,-1.499,0.611,1.722,-84.660,47.440
13:38:37:712,13.997,0.393,-0.928,0.239,-0.200,-82.520,43.458
13:38:37:713,13.998,0.459,-0.759,0.209,-1.636,-80.797,39.472
13:38:37:713,13.998,0.501,-0.602,0.284,-3.480,-78.057,31.640
13:38:37:733,14.018,0.559,-0.334,0.327,-4.739,-76.045,25.288
13:38:37:758,14.044,0.593,-0.069,0.271,-6.972,-72.027,14.482
13:38:37:785,14.070,0.476,0.989,-0.246,-9.664,-65.837,2.552
13:38:37:811,14.096,0.211,1.645,-1.309,-11.109,-60.725,-5.815
13:38:37:867,14.152,-0.881,1.003,-1.920,-11.986,-52.957,-17.708
13:38:37:867,14.152,-1.002,0.107,-2.583,-11.993,-48.931,-24.213
13:38:37:89,14.175,-1.922,-1.131,-2.247,-12.680,-45.035,-30.283
13:38:37:918,14.203,-1.572,-0.832,-1.804,-13.038,-42.699,-29.791
13:38:37:943,14.228,-1.216,0.184,-0.154,-12.506,-40.667,-26.238
13:38:37:968,14.254,-1.669,0.161,0.135,-11.037,-36.200,-20.825
13:38:38:025,14.310,-1.052,0.125,-0.533,-10.111,-33.244,-16.990
13:38:38:025,14.310,0.590,0.211,-0.248,-10.788,-30.164,-11.011
13:38:38:05,14.335,-0.948,-0.047,-0.848,-11.446,-26.783,-6.367
13:38:38:074,14.359,-0.401,0.166,-0.338,-11.977,-26.992,-4.293
13:38:38:1,14.385,0.215,0.096,0.300,-12.440,-29.508,-2.124
13:38:38:213,14.498,0.118,0.071,0.073,-12.649,-29.835,-0.697
13:38:38:214,14.499,-0.089,0.062,-0.327,-12.569,-29.767,1.212
13:38:38:215,14.500,0.128,-0.010,0.166,-12.295,-30.893,2.398
13:38:38:216,14.501,0.069,0.036,0.120,-12.046,-32.435,4.065
13:38:38:289,14.574,0.046,0.058,-0.129,-11.899,-33.438,5.775
13:38:38:29,14.575,0.032,0.180,0.088,-11.737,-34.601,6.988
13:38:38:291,14.576,0.163,0.168,0.296,-11.350,-36.227,8.879
13:38:38:31,14.595,0.254,0.142,0.092,-11.074,-36.599,10.245
13:38:38:336,14.621,0.302,0.202,0.104,-10.589,-36.499,12.548
13:38:38:363,14.648,0.463,0.397,0.311,-9.982,-36.632,15.434
13:38:38:391,14.676,0.491,0.407,0.530,-9.376,-36.928,17.670
13:38:38:444,14.729,1.037,0.126,0.501,-7.768,-37.727,21.609
13:38:38:445,14.730,1.206,-0.008,0.276,-6.406,-37.953,24.663
13:38:38:6,14.885,1.377,-0.093,-0.154,-3.565,-38.956,29.610
13:38:38:629,14.914,1.290,0.340,0.021,-1.501,-40.178,33.534
13:38:38:63,14.915,2.135,-0.019,0.534,1.531,-40.601,40.253
13:38:38:713,14.998,0.498,-0.389,-0.125,6.088,-40.208,45.248
13:38:38:714,14.999,0.786,-0.305,0.037,7.221,-39.506,46.946
13:38:38:715,15.000,0.718,-1.005,0.096,5.255,-37.579,47.286
13:38:38:716,15.001,0.528,-1.100,-0.116,3.993,-36.245,45.828
13:38:38:739,15.024,0.570,-0.869,-0.123,1.058,-33.996,41.675
13:38:38:739,15.024,0.568,-0.655,-0.102,-2.361,-31.039,35.267
13:38:38:74,15.025,0.604,-0.445,-0.140,-4.322,-28.679,29.704
13:38:38:741,15.026,0.550,-0.163,-0.196,-6.597,-24.646,19.557
13:38:38:756,15.041,0.602,0.277,-0.389,-7.951,-21.153,11.874
13:38:38:782,15.067,-0.418,1.388,-1.013,-10.142,-13.948,-0.733
13:38:38:81,15.095,-1.619,1.579,-1.418,-11.335,-8.735,-9.285
13:38:38:835,15.120,-2.861,0.638,-0.524,-12.836,-2.189,-21.138
13:38:38:861,15.146,-2.375,-0.449,-0.766,-14.911,0.296,-29.342
13:38:38:887,15.173,-2.648,-1.356,-0.350,-16.084,1.578,-31.852
13:38:38:943,15.228,-1.872,-0.252,0.640,-15.915,5.384,-29.595
13:38:38:944,15.229,2.089,1.287,3.078,-14.761,8.452,-25.501
13:38:38:968,15.253,-2.419,-0.096,-0.568,-12.393,13.085,-19.901
13:38:38:995,15.280,-0.111,0.395,-0.539,-12.661,17.861,-12.441
13:38:39:134,15.419,-0.517,-0.613,-0.248,-12.797,21.774,-8.263
13:38:39:134,15.419,-0.552,-0.024,0.283,-11.490,22.719,-4.117
13:38:39:134,15.419,0.399,0.053,0.182,-11.061,20.238,-2.372
13:38:39:135,15.420,-0.109,0.010,0.055,-11.863,18.751,-0.170
13:38:39:154,15.439,-0.381,0.068,-0.284,-12.892,19.043,1.529
13:38:39:154,15.439,0.141,0.036,0.002,-13.387,17.453,2.520
13:38:39:232,15.518,0.135,0.053,0.018,-14.331,15.236,4.051
13:38:39:29,15.576,-0.118,0.160,-0.142,-15.042,14.294,4.996
13:38:39:291,15.576,0.096,0.185,-0.070,-15.925,11.769,6.791
13:38:39:292,15.577,0.078,0.131,0.103,-16.244,9.935,8.100
13:38:39:292,15.578,0.238,0.045,0.048,-16.349,7.492,10.215
13:38:39:309,15.594,0.228,0.141,0.047,-16.305,5.951,12.739
13:38:39:335,15.620,0.367,0.245,-0.096,-16.153,4.991,14.841
13:38:39:36,15.645,0.561,0.285,0.185,-15.628,3.174,18.746
13:38:39:386,15.671,0.781,0.462,-0.023,-14.994,1.921,21.793
13:38:39:415,15.700,1.057,0.430,-0.156,-13.136,-0.449,26.890
13:38:39:441,15.727,2.014,-0.265,-0.796,-8.993,-4.957,32.326
13:38:39:442,15.728,1.970,0.147,-0.505,-6.365,-7.802,36.552
13:38:39:495,15.780,1.826,0.046,-0.422,-3.690,-8.972,43.713
13:38:39:496,15.781,1.393,-0.609,-0.136,-1.688,-8.399,46.929
13:38:39:547,15.832,-0.006,0.145,-0.500,2.125,-7.886,48.696
13:38:39:548,15.833,0.854,-1.386,-0.322,2.973,-7.889,48.521
13:38:39:628,15.913,0.625,-1.457,0.003,2.217,-7.548,46.027
13:38:39:629,15.914,0.421,-0.840,-0.173,-0.654,-5.564,40.763
13:38:39:629,15.915,0.354,-0.506,-0.215,-2.377,-3.918,36.015
13:38:39:649,15.934,0.422,-0.357,-0.236,-4.399,-1.225,27.194
13:38:39:674,15.960,0.498,-0.139,-0.290,-5.582,0.835,20.372
13:38:39:731,16.016,0.318,0.511,-0.379,-7.547,5.588,9.212
13:38:39:731,16.016,-0.853,1.384,-0.382,-9.380,12.888,-2.820
13:38:39:754,16.039,-1.457,1.411,-0.251,-9.803,18.415,-10.732
13:38:39:811,16.097,-2.361,0.628,-0.083,-8.640,27.248,-21.013
13:38:39:811,16.097,-2.897,-0.830,1.211,-7.609,32.301,-25.822
13:38:39:832,16.117,-2.507,-1.238,1.181,-7.461,35.757,-29.427
13:38:39:858,16.144,-1.966,-0.463,0.813,-7.901,36.727,-26.752
13:38:39:885,16.170,1.604,1.959,-0.595,-8.031,38.793,-22.368
13:38:39:914,16.199,-1.561,0.345,0.703,-8.073,39.910,-16.679
13:38:39:94,16.225,-0.472,-0.010,0.027,-8.866,40.957,-12.270
13:38:39:965,16.250,-0.632,-0.419,-0.127,-9.917,44.616,-7.153
13:38:39:992,16.277,-0.630,0.190,0.439,-10.640,45.618,-5.092
13:38:40:019,16.304,0.004,0.164,0.093,-11.040,44.129,-3.052
13:38:40:044,16.329,0.207,0.090,0.077,-11.171,42.743,-1.256
13:38:40:071,16.356,-0.219,0.068,0.126,-11.286,42.411,-0.246
13:38:40:098,16.383,0.038,-0.031,-0.146,-11.386,40.637,1.001
13:38:40:121,16.406,0.009,0.037,-0.076,-11.407,39.422,1.692
13:38:40:176,16.461,-0.040,0.068,-0.007,-11.363,38.038,2.837
13:38:40:177,16.462,0.091,0.075,-0.015,-11.135,36.311,4.189
13:38:40:2,16.485,0.052,0.122,0.064,-10.865,35.209,5.138
13:38:40:226,16.511,0.226,0.081,-0.200,-10.229,33.651,6.718
13:38:40:282,16.567,0.222,0.072,-0.199,-9.747,33.103,7.988
13:38:40:282,16.567,0.224,0.172,-0.238,-9.026,33.084,10.385
13:38:40:334,16.619,0.436,0.414,-0.228,-8.473,33.146,12.359
13:38:40:335,16.620,0.707,0.372,-0.245,-7.413,33.004,15.731
13:38:40:358,16.643,0.737,0.204,-0.743,-5.727,34.058,19.646
13:38:40:384,16.669,0.617,0.028,-1.185,-4.267,34.275,22.724
13:38:40:41,16.695,0.419,0.071,-1.420,-1.827,34.461,28.183
13:38:40:465,16.750,0.645,0.931,-1.137,-0.442,34.377,32.539
13:38:40:466,16.751,1.076,-0.264,-1.609,1.587,35.305,39.587
13:38:40:547,16.832,-0.291,-0.353,-0.291,4.966,37.334,44.725
13:38:40:548,16.833,0.141,-0.420,-1.166,5.393,40.255,46.295
13:38:40:548,16.833,0.140,-1.321,-0.761,3.801,43.426,46.845
13:38:40:597,16.882,-0.257,-0.965,-0.656,3.095,46.578,45.390
13:38:40:597,16.883,-0.350,-0.667,-0.569,1.314,50.634,41.201
13:38:40:62,16.905,-0.298,-0.575,-0.592,-0.322,54.799,34.598
13:38:40:647,16.932,-0.366,-0.551,-0.652,-1.142,57.481,28.943
13:38:40:673,16.958,-0.456,-0.240,-0.865,-3.038,62.442,19.159
13:38:40:699,16.984,-0.721,0.474,-0.571,-4.726,67.084,12.050
13:38:40:725,17.010,-1.203,1.250,0.473,-7.007,75.128,0.391
13:38:40:753,17.038,-1.438,1.323,1.314,-7.986,79.826,-7.582
13:38:40:778,17.064,-0.617,0.764,2.404,-9.036,85.402,-18.791
13:38:40:803,17.089,-0.770,-0.300,2.607,-10.364,88.702,-26.862
13:38:40:83,17.115,-0.199,-1.101,2.791,-11.338,90.350,-29.446
13:38:40:856,17.141,0.430,-0.282,1.990,-12.254,92.229,-28.049
13:38:40:883,17.168,1.928,2.197,-2.549,-12.028,93.333,-24.399
13:38:40:91,17.195,0.219,0.161,1.012,-10.658,96.250,-19.457
13:38:40:965,17.250,-0.964,0.478,0.387,-10.882,100.586,-13.024
13:38:40:965,17.250,-0.404,-0.565,0.756,-11.409,104.549,-9.227
13:38:40:987,17.272,0.262,0.429,0.596,-11.832,106.569,-5.306
13:38:41:014,17.299,0.187,0.091,0.227,-11.629,104.796,-3.662
13:38:41:04,17.325,0.033,0.002,-0.312,-12.494,102.139,-1.731
13:38:41:096,17.381,-0.107,0.023,0.212,-13.395,102.334,-0.646
13:38:41:096,17.381,-0.290,0.042,0.300,-14.511,102.047,0.736
13:38:41:119,17.404,0.025,0.049,-0.287,-15.019,98.556,2.229
13:38:41:145,17.430,-0.105,0.051,-0.146,-15.304,96.486,3.287
13:38:41:171,17.457,-0.337,0.105,0.056,-15.781,94.822,4.949
13:38:41:227,17.512,-0.043,0.006,-0.141,-15.816,93.066,6.217
13:38:41:227,17.512,0.172,0.231,-0.012,-15.759,90.780,8.302
13:38:41:251,17.536,0.139,0.196,-0.206,-15.560,88.944,10.654
13:38:41:277,17.562,0.125,0.163,-0.249,-15.438,88.035,12.386
13:38:41:302,17.588,0.009,0.382,-0.516,-15.217,86.928,15.586
13:38:41:329,17.614,0.135,0.329,-0.659,-14.934,86.009,18.227
13:38:41:358,17.643,-0.075,0.389,-0.784,-13.981,84.538,22.883
13:38:41:381,17.666,-0.440,0.124,-1.244,-11.734,82.182,27.974
13:38:41:438,17.723,-0.650,-0.294,-1.687,-9.408,79.931,31.539
13:38:41:438,17.723,-0.246,0.690,-1.046,-6.209,76.601,37.715
13:38:41:489,17.774,-0.332,0.408,-1.870,-4.660,75.114,42.585
13:38:41:515,17.800,-0.078,-0.414,-1.343,-0.976,74.366,48.043
13:38:41:516,17.801,-0.262,-0.356,-0.677,2.682,74.123,49.716
13:38:41:568,17.853,-0.313,-1.540,-0.884,4.845,73.037,50.220
13:38:41:569,17.854,0.127,-1.350,-0.532,3.621,72.393,48.303
13:38:41:591,17.876,-0.045,-0.800,-0.401,1.138,72.784,45.672
13:38:41:617,17.902,-0.072,-0.547,-0.387,-3.357,74.166,39.999
13:38:41:643,17.928,0.049,-0.505,-0.491,-5.793,75.124,34.994
13:38:41:67,17.955,0.115,-0.336,-0.635,-8.588,76.566,25.730
13:38:41:697,17.982,0.140,0.230,-0.635,-11.312,79.217,14.790
13:38:41:722,18.008,0.202,1.051,-0.096,-13.140,82.335,6.648
13:38:41:778,18.063,-0.230,1.469,1.069,-15.056,88.358,-6.320
13:38:41:779,18.064,-0.250,1.409,2.109,-15.657,92.790,-14.693
13:38:41:804,18.089,-0.031,-0.182,3.036,-15.591,98.464,-24.698
13:38:41:805,18.090,0.569,-1.013,2.882,-15.386,102.289,-29.165
13:38:41:857,18.142,0.373,-0.789,2.437,-15.105,103.725,-28.519
13:38:41:858,18.143,0.788,1.453,-1.478,-14.123,105.597,-23.452
13:38:41:906,18.192,0.168,0.874,1.163,-13.598,105.914,-19.711
13:38:41:937,18.222,0.209,-0.315,-0.005,-13.530,109.210,-12.369
13:38:41:938,18.223,-0.027,-0.013,0.670,-13.214,110.725,-8.449
13:38:41:989,18.274,0.042,-0.001,0.078,-12.440,110.360,-4.621
13:38:41:989,18.274,0.136,0.063,-0.067,-12.606,107.618,-2.188
13:38:42:069,18.355,-0.050,0.030,-0.023,-13.361,106.519,-0.877
13:38:42:07,18.355,-0.159,0.056,0.058,-14.233,105.765,0.770
13:38:42:071,18.356,0.042,0.050,-0.068,-14.643,104.736,1.774
13:38:42:092,18.377,0.032,0.055,-0.086,-15.434,102.324,3.329
13:38:42:118,18.403,-0.140,0.112,0.095,-16.259,100.471,4.914
13:38:42:143,18.428,-0.125,0.058,-0.126,-16.632,98.777,6.202
13:38:42:169,18.454,0.080,0.095,-0.198,-16.798,96.109,8.168
13:38:42:195,18.481,0.030,0.026,-0.229,-16.729,94.695,9.625
13:38:42:25,18.535,-0.008,0.145,-0.156,-16.531,93.356,12.010
13:38:42:251,18.536,-0.039,0.205,-0.244,-16.332,92.559,13.788
13:38:42:274,18.559,-0.072,0.263,-0.462,-15.927,91.201,16.958
13:38:42:301,18.586,0.087,0.328,-0.629,-15.322,89.719,20.802
13:38:42:326,18.611,-0.218,0.391,-0.806,-14.531,88.658,23.738
13:38:42:352,18.637,-0.385,0.266,-1.157,-12.331,86.296,28.585
13:38:42:379,18.664,-0.721,-0.077,-1.644,-9.978,83.964,32.013
13:38:42:405,18.690,-0.446,0.354,-1.249,-6.239,80.166,37.910
13:38:42:431,18.716,-0.321,0.226,-1.920,-3.218,77.530,44.935
13:38:42:457,18.743,-0.320,-0.347,-1.299,-0.012,76.668,48.349
13:38:42:484,18.769,-0.292,-0.539,-0.701,5.962,75.045,50.471
13:38:42:51,18.795,-0.052,-1.342,-0.716,7.806,73.916,50.753
13:38:42:536,18.821,0.219,-1.285,-0.433,7.305,72.368,49.082
13:38:42:562,18.847,-0.043,-0.580,-0.268,2.794,72.437,45.192
13:38:42:589,18.874,-0.039,-0.649,-0.301,-0.737,72.939,41.695
13:38:42:617,18.902,0.151,-0.425,-0.416,-5.042,73.720,34.653
13:38:42:642,18.928,0.137,-0.389,-0.495,-7.269,74.298,29.101
13:38:42:668,18.953,0.160,-0.151,-0.437,-10.301,75.999,19.914
13:38:42:695,18.980,0.299,0.478,-0.144,-12.487,78.416,13.171
13:38:42:778,19.064,0.228,0.761,0.180,-15.231,84.125,1.871
13:38:42:779,19.064,-0.010,1.459,1.585,-16.109,92.621,-10.169
13:38:42:78,19.065,-0.172,0.493,2.413,-15.182,98.595,-17.341
13:38:42:799,19.085,-0.482,-0.343,2.618,-12.700,105.113,-25.042
13:38:42:827,19.112,0.750,-0.695,2.642,-11.963,108.747,-27.458
13:38:42:961,19.246,0.445,-0.115,1.099,-11.450,111.329,-26.648
13:38:42:961,19.247,1.653,0.259,0.148,-11.584,111.480,-22.574
13:38:42:986,19.272,0.181,0.734,0.449,-11.767,111.606,-18.860
13:38:42:987,19.272,-0.409,-0.761,1.009,-11.790,115.061,-12.324
13:38:43:016,19.301,0.063,-0.407,1.151,-12.075,117.268,-8.782
13:38:43:016,19.301,0.050,0.066,0.198,-12.352,117.398,-5.248
13:38:43:016,19.301,0.262,0.053,-0.014,-12.272,115.541,-3.554
13:38:43:034,19.320,0.082,0.022,0.058,-13.197,113.808,-1.665
13:38:43:063,19.348,-0.184,0.043,0.111,-14.237,112.905,-0.287
13:38:43:177,19.463,-0.156,0.023,0.188,-14.674,111.710,0.574
13:38:43:178,19.463,-0.039,0.004,-0.188,-15.142,109.108,1.876
13:38:43:178,19.463,-0.079,0.010,0.072,-15.424,108.136,2.718
13:38:43:178,19.463,-0.070,0.026,-0.032,-15.740,106.892,4.087
13:38:43:195,19.480,-0.071,0.045,-0.069,-15.956,105.116,5.677
13:38:43:218,19.504,-0.050,0.031,-0.120,-15.973,103.964,6.943
13:38:43:245,19.530,-0.075,0.083,-0.189,-15.886,102.472,9.008
13:38:43:3,19.585,-0.027,0.164,-0.220,-15.780,101.617,10.649
13:38:43:301,19.586,0.037,0.323,-0.284,-15.527,100.227,13.639
13:38:43:323,19.608,0.127,0.210,-0.453,-15.024,98.564,17.307
13:38:43:379,19.664,-0.019,0.431,-0.406,-14.494,97.666,20.204
13:38:43:38,19.665,0.144,0.728,-0.808,-12.476,94.537,24.718
13:38:43:404,19.689,-0.668,-0.117,-1.611,-9.535,90.863,27.663
13:38:43:43,19.715,-0.876,-0.431,-1.970,-5.250,86.256,32.693
13:38:43:455,19.740,-0.646,0.872,-1.089,-3.453,84.792,39.271
13:38:43:511,19.796,-0.422,0.266,-1.551,-1.756,85.279,43.300
13:38:43:511,19.797,-0.387,-0.610,-0.171,1.217,87.427,46.992
13:38:43:566,19.851,-0.598,-1.162,-0.401,2.629,87.883,47.482
13:38:43:566,19.851,-0.634,-1.245,-0.519,2.684,89.999,46.633
13:38:43:586,19.872,-0.321,-1.200,-0.250,2.260,92.444,42.891
13:38:43:613,19.898,-0.441,-0.926,-0.209,1.513,94.404,38.979
13:38:43:665,19.950,-0.521,-0.512,-0.272,-0.450,99.043,25.263
13:38:43:691,19.976,-0.641,-0.213,-0.237,-2.624,102.997,15.126
13:38:43:744,20.030,-0.723,0.343,-0.054,-4.493,107.140,7.949
13:38:43:772,20.058,-0.463,1.183,0.970,-7.034,115.526,-3.282
13:38:43:773,20.059,0.031,1.305,1.628,-7.987,124.588,-14.496
13:38:43:796,20.081,0.329,0.566,2.417,-7.379,129.793,-21.196
13:38:43:824,20.109,1.444,-0.628,2.493,-7.078,134.954,-28.566
13:38:43:849,20.134,1.997,-1.186,1.927,-7.838,136.628,-30.734
13:38:43:877,20.162,0.503,-0.246,1.345,-8.948,136.851,-28.649
13:38:43:902,20.188,-0.585,1.449,-1.942,-8.510,139.395,-23.291
13:38:43:927,20.213,1.175,0.102,0.193,-7.249,142.581,-20.100
13:38:43:953,20.239,0.832,0.351,0.577,-7.267,146.230,-14.580
13:38:43:98,20.265,-0.079,0.281,0.693,-7.936,148.301,-10.913
13:38:44:008,20.293,0.532,-0.497,0.908,-8.671,150.871,-6.385
13:38:44:062,20.347,-0.027,0.130,0.105,-9.066,150.443,-3.445
13:38:44:063,20.348,0.049,0.163,-0.205,-9.206,150.181,-1.960
13:38:44:085,20.370,0.158,0.015,-0.011,-9.243,150.795,0.144
13:38:44:111,20.396,-0.008,-0.009,0.233,-9.224,150.962,1.321
13:38:44:137,20.423,0.084,0.058,0.076,-9.122,149.865,2.728
13:38:44:163,20.449,-0.059,0.023,-0.081,-9.088,148.941,3.567
13:38:44:193,20.478,-0.102,0.045,0.038,-9.109,148.138,4.949
13:38:44:194,20.479,-0.088,0.099,-0.016,-9.082,147.192,6.491
13:38:44:274,20.559,-0.145,0.106,-0.010,-9.025,146.566,7.664
13:38:44:275,20.561,-0.136,0.178,-0.135,-8.708,145.529,9.488
13:38:44:276,20.562,-0.157,0.212,-0.095,-8.358,145.231,10.824
13:38:44:295,20.580,-0.296,0.222,-0.083,-7.607,144.697,13.025
13:38:44:35,20.635,-0.506,0.265,-0.198,-6.496,144.228,15.786
13:38:44:351,20.636,-0.567,0.342,-0.352,-5.567,143.748,18.001
13:38:44:403,20.688,-0.828,0.189,-0.400,-3.612,143.213,21.746
13:38:44:404,20.689,-1.093,0.037,-0.330,-1.984,143.096,24.563
13:38:44:428,20.713,-1.631,-0.165,0.025,0.977,142.805,29.226
13:38:44:483,20.768,-1.257,0.458,-0.222,3.043,142.072,32.965
13:38:44:483,20.768,-1.782,-0.017,-0.328,5.710,142.332,39.805
13:38:44:505,20.790,-1.065,-0.564,-0.497,8.491,143.257,44.618
13:38:44:533,20.819,-0.436,-0.066,0.200,9.523,144.071,46.459
13:38:44:56,20.845,-0.814,-1.110,-0.048,8.848,145.609,47.329
13:38:44:671,20.956,-0.541,-1.377,-0.029,7.988,146.370,46.209
13:38:44:672,20.957,-0.485,-0.802,0.081,5.158,148.091,42.713
13:38:44:673,20.958,-0.429,-0.542,0.248,1.611,150.683,37.357
13:38:44:673,20.959,-0.416,-0.469,0.083,-0.298,152.440,32.684
13:38:44:717,21.003,-0.516,-0.375,0.136,-2.611,155.361,23.987
13:38:44:718,21.004,-0.620,-0.192,0.174,-4.236,158.041,17.432
13:38:44:743,21.028,-0.268,0.645,0.446,-6.901,163.898,6.675
13:38:44:768,21.053,0.957,1.359,0.913,-9.025,171.029,-4.973
13:38:44:794,21.079,1.318,1.142,1.120,-9.843,175.731,-12.524
13:38:44:82,21.105,2.604,0.314,0.434,-10.792,-178.379,-22.350
13:38:44:848,21.133,2.429,-0.578,0.380,-11.748,-176.658,-26.888
13:38:44:874,21.159,2.575,-1.061,-0.079,-13.323,-175.013,-29.504
13:38:44:899,21.185,1.627,-0.191,-0.823,-13.893,-174.116,-27.891
13:38:44:956,21.241,-1.490,0.815,-2.152,-12.538,-171.088,-22.925
13:38:44:956,21.242,1.012,0.311,-0.150,-11.292,-167.047,-17.706
13:38:45:036,21.321,0.486,0.446,0.335,-11.484,-164.002,-13.299
13:38:45:037,21.322,1.201,-1.096,0.631,-11.497,-159.113,-8.049
13:38:45:037,21.322,0.458,0.517,-0.141,-11.884,-158.268,-5.403
13:38:45:087,21.372,-0.090,0.086,-0.452,-11.535,-161.214,-2.716
13:38:45:087,21.372,0.066,-0.033,0.090,-12.330,-162.291,-0.636
13:38:45:109,21.394,0.134,-0.020,0.126,-12.871,-161.878,0.598
13:38:45:135,21.420,0.048,0.031,0.201,-13.244,-163.285,2.196
13:38:45:164,21.449,-0.188,0.008,-0.075,-13.418,-165.155,3.240
13:38:45:215,21.500,-0.004,0.030,-0.027,-13.805,-166.073,4.715
13:38:45:241,21.527,-0.032,0.057,0.147,-14.163,-166.946,6.203
13:38:45:269,21.554,-0.162,0.087,0.057,-14.372,-168.141,7.325
13:38:45:27,21.555,-0.053,0.048,0.085,-14.598,-169.708,9.246
13:38:45:293,21.578,-0.108,0.162,-0.029,-14.676,-170.744,10.596
13:38:45:318,21.604,-0.282,0.209,-0.046,-14.627,-172.227,12.831
13:38:45:374,21.659,-0.323,0.176,0.076,-14.501,-173.210,14.633
13:38:45:376,21.661,-0.488,0.316,0.119,-14.046,-174.343,17.913
13:38:45:4,21.685,-0.755,0.241,0.051,-13.446,-175.511,22.042
13:38:45:511,21.796,-0.681,0.393,0.271,-12.929,-176.022,25.199
13:38:45:514,21.799,-1.079,0.216,0.518,-11.163,-177.844,30.115
13:38:45:529,21.814,-1.449,-0.259,0.242,-0.369,173.266,44.865
13:38:45:555,21.840,-1.267,-0.443,0.264,3.148,172.545,47.668
13:38:45:581,21.866,-0.524,-0.257,0.304,7.128,172.136,49.459
13:38:45:609,21.895,-0.664,-1.310,0.047,7.367,172.280,49.753
13:38:45:635,21.920,-0.487,-1.198,0.023,4.504,173.212,47.924
13:38:45:66,21.945,-0.356,-0.764,0.147,1.849,174.369,45.310
13:38:45:686,21.972,-0.354,-0.567,0.228,-1.858,176.715,39.517
13:38:45:742,22.027,-0.334,-0.389,0.227,-4.334,179.145,31.421
13:38:45:742,22.027,-0.474,-0.293,0.208,-5.702,-179.061,24.997
13:38:45:792,22.077,-0.504,0.128,0.220,-7.952,-174.944,14.210
13:38:45:82,22.105,0.060,1.065,0.289,-9.504,-170.613,6.352
13:38:45:821,22.106,1.063,1.647,0.285,-10.888,-161.624,-5.780
13:38:45:873,22.158,2.244,1.159,-0.308,-10.591,-154.701,-13.367
13:38:45:873,22.159,2.867,-0.085,-0.166,-8.535,-146.127,-22.208
13:38:45:897,22.183,2.380,-0.965,-1.585,-8.150,-141.341,-26.552
13:38:45:922,22.208,1.934,-0.813,-0.762,-8.511,-140.957,-26.369
13:38:45:949,22.234,-0.188,0.701,1.021,-8.977,-139.739,-21.595
13:38:45:975,22.260,1.826,0.138,-1.049,-8.987,-138.223,-18.533
13:38:46:001,22.286,1.017,0.489,-0.020,-9.497,-137.854,-12.820
13:38:46:027,22.313,0.182,-0.353,0.241,-10.554,-134.942,-6.903
13:38:46:053,22.339,0.797,-0.506,-0.164,-11.158,-132.415,-3.805
13:38:46:081,22.367,0.168,0.178,-0.100,-11.682,-132.127,-0.992
13:38:46:135,22.420,-0.113,0.034,-0.017,-11.728,-133.178,0.440
13:38:46:136,22.421,-0.119,0.047,-0.131,-11.758,-133.938,2.391
13:38:46:159,22.444,0.167,0.041,-0.019,-12.179,-134.634,3.989
13:38:46:211,22.496,0.000,0.014,0.122,-12.376,-136.025,4.904
13:38:46:24,22.526,-0.105,0.005,0.122,-12.583,-137.829,6.124
13:38:46:241,22.526,0.033,0.078,0.056,-12.732,-138.625,6.926
13:38:46:354,22.639,-0.091,0.062,0.076,-12.934,-140.253,8.349
13:38:46:354,22.639,-0.178,0.116,0.094,-12.864,-142.023,9.951
13:38:46:354,22.639,-0.232,0.066,0.153,-12.659,-143.020,11.200
13:38:46:354,22.639,-0.156,0.135,0.094,-12.256,-143.770,13.415
13:38:46:372,22.657,-0.275,0.184,0.173,-11.919,-144.135,15.114
13:38:46:372,22.657,-0.320,0.309,0.379,-11.189,-144.648,18.095
13:38:46:453,22.738,-0.559,0.226,0.302,-10.648,-145.078,20.399
13:38:46:454,22.739,-0.539,0.266,0.457,-9.538,-145.399,24.271
13:38:46:454,22.740,-0.661,0.141,0.856,-7.443,-146.493,28.395
13:38:46:503,22.788,-0.837,-0.211,1.321,-5.236,-147.859,31.323
13:38:46:504,22.789,-0.751,0.130,1.018,-2.122,-150.003,36.627
13:38:46:526,22.811,-0.742,0.102,1.595,-0.159,-151.072,40.883
13:38:46:553,22.838,-0.976,-0.175,1.209,3.332,-150.342,46.679
13:38:46:666,22.951,0.170,-0.152,0.236,6.948,-148.080,49.792
13:38:46:667,22.952,-0.235,-1.194,0.918,6.711,-146.313,50.340
13:38:46:668,22.953,-0.105,-1.230,0.613,4.464,-142.740,49.409
13:38:46:668,22.953,0.017,-1.065,0.499,2.982,-140.460,47.259
13:38:46:773,23.058,0.169,-0.653,0.563,0.611,-136.704,41.983
13:38:46:773,23.059,0.291,-0.618,0.619,-0.669,-134.123,37.208
13:38:46:773,23.059,0.300,-0.450,0.702,-2.655,-130.197,28.549
13:38:46:775,23.060,0.378,-0.059,0.792,-5.280,-124.990,18.615
13:38:46:788,23.074,0.512,0.422,0.564,-7.262,-120.322,11.504
13:38:46:815,23.100,1.228,1.263,-0.279,-9.658,-112.082,-0.047
13:38:46:843,23.128,1.286,0.903,-1.307,-10.689,-107.197,-7.788
13:38:46:868,23.153,0.764,0.562,-1.963,-11.763,-102.106,-18.542
13:38:46:894,23.179,0.841,-0.416,-2.394,-13.476,-99.514,-25.946
13:38:46:978,23.264,0.377,-1.069,-2.753,-14.461,-97.683,-27.874
13:38:46:979,23.264,-0.258,-0.275,-1.934,-15.160,-96.045,-25.652
13:38:46:98,23.265,-2.401,2.272,2.557,-14.802,-94.353,-22.152
13:38:46:998,23.284,0.234,0.158,-1.730,-13.522,-91.398,-17.611
13:38:47:025,23.310,0.439,0.706,-0.222,-14.221,-87.523,-11.459
13:38:47:053,23.338,0.853,-0.870,-0.929,-14.294,-84.414,-8.091
13:38:47:107,23.392,-0.112,0.371,-0.359,-14.691,-84.127,-4.269
13:38:47:107,23.392,-0.338,0.080,0.214,-14.629,-86.705,-2.413
13:38:47:13,23.415,0.082,0.035,0.025,-15.457,-88.158,-0.425
13:38:47:156,23.442,0.101,0.024,-0.112,-16.015,-87.799,0.607
13:38:47:183,23.468,0.082,0.026,-0.131,-16.456,-88.688,2.029
13:38:47:268,23.553,-0.170,0.018,0.263,-16.939,-91.535,3.452
13:38:47:268,23.553,-0.022,0.046,0.088,-17.360,-92.525,4.364
13:38:47:268,23.554,0.139,0.034,0.079,-17.778,-94.038,5.903
13:38:47:318,23.603,-0.082,0.026,0.148,-17.883,-95.612,7.142
13:38:47:318,23.604,-0.102,0.090,0.124,-17.901,-97.407,9.218
13:38:47:457,23.743,-0.151,0.127,0.169,-17.782,-98.865,11.534
13:38:47:457,23.743,-0.156,0.171,0.252,-17.647,-99.738,13.195
13:38:47:458,23.743,-0.029,0.159,0.381,-17.415,-100.813,16.078
13:38:47:458,23.743,-0.091,0.264,0.362,-17.231,-101.444,18.344
13:38:47:474,23.759,-0.161,0.303,0.612,-16.757,-102.543,22.375
13:38:47:475,23.760,-0.097,0.473,0.655,-16.199,-103.181,25.430
13:38:47:586,23.871,0.048,0.287,1.259,-14.084,-105.465,30.216
13:38:47:586,23.871,0.179,-0.184,1.805,-10.166,-109.253,35.424
13:38:47:587,23.872,-0.047,0.344,1.359,-7.857,-111.369,39.557
13:38:47:588,23.873,-0.249,0.139,1.613,-5.414,-112.476,46.319
13:38:47:602,23.887,-0.061,-0.792,0.493,-3.554,-112.241,49.765
13:38:47:659,23.944,0.272,-0.062,0.460,-0.703,-111.851,51.914
13:38:47:659,23.945,0.007,-1.425,0.687,0.057,-111.789,51.737
13:38:47:681,23.967,-0.080,-1.219,0.461,-0.714,-111.580,50.025
13:38:47:766,24.051,0.085,-0.831,0.453,-3.272,-110.494,45.536
13:38:47:767,24.052,0.071,-0.600,0.367,-5.012,-109.582,41.412
13:38:47:767,24.052,-0.057,-0.632,0.541,-7.189,-108.312,33.490
13:38:47:815,24.100,-0.102,-0.253,0.632,-9.651,-106.208,23.904
13:38:47:816,24.101,-0.076,0.309,0.575,-11.542,-103.655,16.721
13:38:47:868,24.153,0.024,1.003,-0.013,-14.008,-98.024,4.663
13:38:47:868,24.154,0.374,1.454,-0.809,-14.980,-93.576,-3.866
13:38:47:891,24.177,0.230,0.975,-2.320,-15.458,-86.928,-16.052
13:38:47:917,24.203,0.417,0.015,-2.624,-15.483,-83.898,-22.663
13:38:47:946,24.231,-0.265,-0.979,-3.012,-16.342,-81.492,-28.449
13:38:48:028,24.314,0.316,-0.153,-1.685,-17.087,-81.252,-27.881
13:38:48:029,24.314,0.477,0.479,0.225,-17.081,-81.360,-24.580
13:38:48:03,24.315,-0.269,0.036,-1.406,-16.135,-79.376,-20.235
13:38:48:079,24.365,-0.174,0.097,-1.147,-15.351,-76.871,-16.974
13:38:48:079,24.365,0.458,0.416,-0.487,-15.731,-72.856,-11.740
13:38:48:101,24.387,-0.356,-0.065,-1.379,-16.160,-70.164,-8.807
13:38:48:186,24.471,0.070,0.146,-0.101,-16.136,-70.121,-5.428
13:38:48:187,24.472,-0.232,0.033,0.291,-16.430,-73.465,-2.935
13:38:48:188,24.473,-0.026,0.053,0.015,-17.003,-74.217,-1.705
13:38:48:236,24.522,0.085,0.029,-0.086,-17.897,-74.442,-0.112
13:38:48:236,24.522,-0.083,0.068,0.077,-18.340,-75.639,0.900
13:38:48:289,24.575,-0.010,0.012,0.122,-19.067,-78.429,2.567
13:38:48:29,24.575,0.098,0.061,-0.027,-19.650,-80.264,4.091
13:38:48:314,24.599,0.086,0.033,0.164,-19.820,-81.965,5.252
13:38:48:367,24.652,0.017,0.004,0.119,-19.803,-84.394,7.235
13:38:48:367,24.652,-0.026,0.047,0.184,-19.740,-85.701,8.703
13:38:48:419,24.704,-0.130,0.196,0.181,-19.604,-87.179,11.152
13:38:48:42,24.705,-0.118,0.176,0.364,-19.336,-88.690,14.002
13:38:48:442,24.728,-0.034,0.211,0.402,-19.067,-89.761,16.193
13:38:48:468,24.754,-0.104,0.245,0.562,-18.666,-91.123,20.045
13:38:48:495,24.780,-0.027,0.291,0.595,-18.338,-91.793,23.002
13:38:48:521,24.806,0.118,0.488,0.838,-17.126,-93.340,27.807
13:38:48:606,24.891,0.555,-0.177,1.688,-15.315,-95.418,31.113
13:38:48:606,24.892,0.445,-0.178,1.712,-11.505,-99.545,36.471
13:38:48:607,24.892,0.279,0.668,1.318,-8.684,-102.584,43.018
13:38:48:629,24.914,-0.126,-0.369,1.034,-6.617,-103.483,47.130
13:38:48:63,24.915,0.151,-0.567,0.661,-2.216,-103.934,50.871
13:38:48:652,24.938,0.317,-1.020,0.554,1.123,-104.767,51.514
13:38:48:708,24.993,0.047,-1.409,0.616,2.472,-105.899,51.044
13:38:48:709,24.994,-0.152,-1.228,0.480,0.657,-106.343,48.250
13:38:48:79,25.075,-0.018,-0.869,0.518,-1.964,-105.820,45.161
13:38:48:79,25.076,-0.051,-0.560,0.517,-5.761,-104.456,38.793
13:38:48:791,25.076,-0.082,-0.469,0.493,-7.617,-103.420,33.339
13:38:48:81,25.095,-0.067,-0.203,0.685,-9.952,-101.401,23.569
13:38:48:836,25.121,-0.080,0.632,0.517,-12.385,-97.524,12.161
13:38:48:863,25.148,-0.044,1.120,0.009,-13.929,-93.583,3.780
13:38:48:918,25.203,0.139,1.828,-1.541,-15.096,-85.741,-9.144
13:38:48:919,25.204,0.056,1.036,-2.530,-14.710,-80.196,-16.908
13:38:48:971,25.256,0.171,-0.701,-3.004,-13.442,-73.710,-25.143
13:38:49:028,25.313,-0.945,-0.912,-2.819,-13.280,-70.325,-27.379
13:38:49:028,25.313,-0.018,-0.385,-1.916,-13.689,-69.877,-25.860
13:38:49:028,25.313,-1.401,1.005,2.381,-13.635,-69.155,-21.082
13:38:49:048,25.333,-0.069,0.462,-0.544,-13.129,-68.834,-17.930
13:38:49:074,25.359,-0.376,0.497,-1.021,-13.829,-66.378,-11.937
13:38:49:1,25.385,0.137,-0.780,-1.312,-14.257,-63.321,-8.515
13:38:49:156,25.441,0.170,0.272,-0.019,-14.717,-61.448,-4.677
13:38:49:156,25.442,-0.368,0.077,0.058,-14.477,-63.832,-2.234
13:38:49:177,25.463,-0.173,0.004,-0.065,-14.730,-64.736,-1.025
13:38:49:203,25.489,-0.044,0.001,-0.094,-15.393,-64.941,0.457
13:38:49:23,25.515,0.093,0.049,-0.132,-15.998,-65.691,1.291
13:38:49:285,25.570,0.040,0.041,0.218,-16.770,-68.276,2.600
13:38:49:286,25.571,0.021,0.060,-0.028,-17.238,-69.592,3.417
13:38:49:338,25.624,0.110,0.041,0.021,-17.755,-71.428,4.734
13:38:49:339,25.624,0.031,0.017,0.185,-17.874,-73.824,6.335
13:38:49:422,25.707,0.011,0.039,0.163,-17.829,-75.237,7.581
13:38:49:422,25.707,0.004,0.103,0.211,-17.652,-76.993,9.755
13:38:49:422,25.707,-0.041,0.160,0.191,-17.479,-77.886,11.345
13:38:49:442,25.727,-0.036,0.164,0.277,-17.154,-79.065,14.023
13:38:49:467,25.752,-0.027,0.282,0.357,-16.617,-80.288,17.262
13:38:49:493,25.778,-0.046,0.330,0.624,-16.103,-81.246,19.781
13:38:49:519,25.804,0.090,0.472,0.648,-15.068,-82.427,24.065
13:38:49:545,25.830,0.469,0.290,1.106,-13.719,-84.136,27.087
13:38:49:572,25.857,0.852,-0.172,1.593,-10.260,-87.314,31.897
13:38:49:598,25.883,0.453,0.241,1.230,-7.214,-90.092,37.692
13:38:49:624,25.909,0.757,0.334,1.487,-5.832,-91.039,42.208
13:38:49:679,25.964,0.471,-0.726,1.432,-3.148,-90.718,47.690
13:38:49:68,25.965,0.258,-0.381,-0.457,-0.547,-89.733,49.680
13:38:49:702,25.988,0.483,-1.237,0.567,1.629,-90.151,50.185
13:38:49:728,26.014,0.430,-1.318,0.491,1.360,-89.567,49.598
13:38:49:755,26.040,0.168,-1.040,0.392,-0.188,-88.097,46.548
13:38:49:81,26.095,0.339,-0.637,0.356,-2.660,-85.657,41.189
13:38:49:811,26.096,0.361,-0.597,0.411,-4.038,-83.883,36.404
13:38:49:834,26.119,0.320,-0.245,0.316,-5.651,-81.180,27.719
13:38:49:86,26.145,0.486,0.099,0.447,-6.791,-78.955,21.080
13:38:49:887,26.172,0.429,0.545,0.199,-8.883,-73.849,10.048
13:38:49:913,26.198,0.265,1.403,-0.842,-10.831,-66.440,-1.920
13:38:49:939,26.224,-0.216,1.360,-1.821,-11.419,-60.731,-9.770
13:38:49:967,26.252,-0.593,0.417,-2.380,-10.862,-52.892,-19.994
13:38:50:021,26.306,-1.222,-0.429,-2.385,-10.761,-49.355,-24.791
13:38:50:022,26.307,-1.271,-0.748,-1.767,-11.392,-46.099,-27.793
13:38:50:044,26.329,-1.096,-0.378,-1.298,-11.780,-44.976,-26.591
13:38:50:099,26.385,-0.048,1.450,2.917,-11.688,-42.257,-21.628
13:38:50:1,26.385,-0.565,0.713,-1.129,-11.361,-40.579,-16.898
13:38:50:122,26.408,-0.063,0.575,0.114,-12.236,-39.536,-12.704
13:38:50:15,26.435,-0.602,-0.607,-1.013,-12.695,-35.637,-7.831
13:38:50:176,26.461,-0.272,0.227,-0.176,-13.506,-34.146,-5.449
13:38:50:201,26.486,-0.109,0.163,0.221,-13.947,-35.632,-3.090
13:38:50:227,26.512,-0.039,0.070,0.119,-14.383,-36.741,-1.233
13:38:50:283,26.568,-0.056,0.044,-0.040,-14.613,-36.686,-0.123
13:38:50:283,26.569,0.019,0.007,-0.047,-14.755,-37.595,1.416
13:38:50:306,26.592,0.036,-0.032,0.115,-14.776,-38.874,2.320
13:38:50:333,26.618,-0.011,0.038,-0.059,-14.836,-39.804,3.514
13:38:50:36,26.645,0.030,0.047,0.080,-14.934,-40.921,4.798
13:38:50:388,26.673,0.069,0.037,0.057,-14.981,-41.855,5.809
13:38:50:413,26.698,0.093,0.103,0.062,-14.906,-43.166,7.499
13:38:50:439,26.724,0.065,0.114,0.113,-14.782,-44.009,8.738
13:38:50:464,26.749,0.023,0.226,0.316,-14.380,-45.169,10.741
13:38:50:49,26.775,0.179,0.151,0.281,-14.012,-45.793,12.262
13:38:50:545,26.830,0.270,0.344,0.275,-13.238,-46.352,15.121
13:38:50:546,26.831,0.337,0.289,0.551,-12.131,-46.978,18.855
13:38:50:571,26.856,0.503,0.348,0.468,-11.263,-47.121,21.553
13:38:50:598,26.883,0.994,0.139,0.516,-8.964,-48.225,25.849
13:38:50:654,26.940,1.597,-0.110,0.434,-6.960,-49.203,29.082
13:38:50:655,26.940,1.115,0.194,0.382,-4.877,-50.186,35.075
13:38:50:655,26.940,1.827,0.048,0.642,-3.440,-49.763,41.655
13:38:50:732,27.017,0.938,-0.262,0.548,-2.092,-48.972,44.838
13:38:50:733,27.018,0.277,-0.052,-0.418,-0.121,-47.387,47.188
13:38:50:734,27.019,0.925,-1.247,-0.126,-0.088,-46.367,47.627
13:38:50:841,27.127,0.441,-1.090,0.052,-1.229,-44.925,45.942
13:38:50:841,27.127,0.497,-0.953,0.016,-2.466,-43.486,43.473
13:38:50:841,27.127,0.489,-0.642,-0.151,-4.775,-40.506,37.948
13:38:50:842,27.128,0.605,-0.488,-0.045,-6.849,-37.129,30.354
13:38:50:887,27.173,0.539,-0.300,-0.141,-8.061,-34.622,24.210
13:38:50:887,27.173,0.572,0.131,-0.172,-10.002,-29.868,13.675
13:38:50:91,27.195,-0.039,1.014,-0.474,-11.409,-25.764,5.981
13:38:50:965,27.250,-0.722,1.218,-0.852,-13.019,-18.752,-6.094
13:38:50:966,27.251,-1.839,0.851,-0.887,-13.892,-11.713,-17.439
13:38:51:02,27.306,-2.394,0.333,-0.814,-14.213,-8.238,-23.611
13:38:51:021,27.306,-2.202,-0.574,-0.799,-15.334,-5.583,-29.357
13:38:51:042,27.327,-1.935,-0.593,-0.106,-16.008,-4.152,-30.215
13:38:51:097,27.383,-2.036,-0.437,0.211,-15.963,-2.250,-26.956
13:38:51:097,27.383,-0.105,-0.083,1.622,-15.029,0.292,-23.799
13:38:51:121,27.406,-1.033,0.634,-0.086,-14.138,2.877,-18.991
13:38:51:148,27.433,0.250,0.517,-0.166,-14.431,6.652,-13.322
13:38:51:202,27.488,-0.979,-0.882,-0.627,-14.262,8.850,-10.416
13:38:51:203,27.488,-0.193,0.192,0.068,-14.475,8.710,-7.187
13:38:51:225,27.510,-0.103,0.064,0.247,-14.560,6.769,-5.578
13:38:51:254,27.539,0.005,0.000,0.000,-15.168,6.172,-3.613
13:38:51:309,27.594,-0.203,0.025,-0.161,-15.559,6.373,-1.934
13:38:51:309,27.594,-0.113,0.032,-0.087,-15.759,5.200,-0.876
13:38:51:36,27.645,0.136,0.015,0.199,-16.249,2.935,0.743
13:38:51:361,27.646,-0.130,0.028,-0.124,-16.557,2.443,1.778
13:38:51:382,27.667,0.017,0.064,-0.073,-16.924,1.107,3.466
13:38:51:437,27.723,0.070,0.069,0.045,-17.203,-0.628,5.405
13:38:51:438,27.724,0.035,0.093,0.060,-17.336,-1.601,6.797
13:38:51:463,27.748,0.118,0.163,0.070,-17.399,-3.072,8.952
13:38:51:491,27.776,0.169,0.177,0.143,-17.345,-3.919,10.513
13:38:51:543,27.828,0.360,0.171,0.023,-17.058,-5.071,13.309
13:38:51:543,27.828,0.405,0.318,0.046,-16.746,-5.760,15.606
13:38:51:567,27.852,0.599,0.348,0.123,-15.989,-6.926,19.801
13:38:51:62,27.906,0.651,0.452,0.060,-14.590,-8.301,24.547
13:38:51:649,27.934,1.222,0.209,-0.246,-12.704,-10.364,27.846
13:38:51:649,27.934,1.922,-0.187,-0.341,-8.981,-14.359,33.330
13:38:51:703,27.988,1.223,0.868,-0.139,-7.079,-16.192,37.730
13:38:51:703,27.988,1.463,0.170,0.051,-5.240,-16.202,44.495
13:38:51:724,28.009,0.287,-0.870,-0.005,-2.834,-14.956,48.351
13:38:51:75,28.035,0.258,-0.032,-0.356,-1.619,-14.583,48.914
13:38:51:864,28.149,0.683,-1.454,-0.181,-1.159,-13.892,48.131
13:38:51:865,28.150,0.316,-1.003,-0.035,-1.714,-13.314,46.014
13:38:51:865,28.150,0.411,-0.891,-0.045,-3.605,-11.739,40.777
13:38:51:866,28.151,0.319,-0.600,-0.062,-4.897,-10.500,36.139
13:38:51:911,28.196,0.506,-0.574,-0.045,-6.732,-8.545,27.497
13:38:51:911,28.196,0.621,-0.140,-0.039,-8.857,-5.480,17.169
13:38:51:935,28.220,0.375,0.505,-0.088,-10.320,-2.095,9.391
13:38:51:961,28.246,-0.460,1.172,-0.127,-11.956,4.639,-3.203
13:38:51:986,28.272,-1.464,1.555,-0.404,-12.241,9.798,-11.551
13:38:52:013,28.298,-2.573,0.408,-0.163,-11.254,17.740,-22.333
13:38:52:039,28.324,-3.034,-0.570,0.608,-10.707,21.745,-27.282
13:38:52:065,28.350,-2.657,-1.190,0.760,-11.154,23.843,-30.502
13:38:52:093,28.378,-1.538,-0.357,0.076,-12.021,23.246,-27.675
13:38:52:12,28.405,2.905,1.753,1.530,-12.347,24.135,-24.371
13:38:52:144,28.429,-0.925,0.319,0.514,-11.823,25.053,-19.730
13:38:52:171,28.457,-0.225,0.381,0.047,-12.602,26.633,-14.334
13:38:52:197,28.482,-0.174,-0.452,-0.281,-12.956,28.859,-11.411
13:38:52:222,28.508,-0.460,0.149,0.243,-13.698,30.558,-8.144
13:38:52:305,28.590,-0.220,0.200,-0.057,-13.903,29.441,-6.541
13:38:52:305,28.590,0.161,0.002,0.025,-14.323,27.782,-4.614
13:38:52:33,28.615,-0.070,0.017,0.029,-14.539,27.666,-3.460
13:38:52:331,28.616,-0.187,0.010,-0.065,-14.879,27.086,-1.907
13:38:52:354,28.639,0.043,0.030,-0.020,-15.173,24.962,-0.571
13:38:52:38,28.665,0.047,-0.008,-0.022,-15.411,23.799,0.285
13:38:52:408,28.693,0.009,0.031,-0.154,-15.673,22.514,1.574
13:38:52:434,28.719,0.060,0.026,-0.007,-15.775,21.524,2.535
13:38:52:46,28.745,0.076,0.085,0.087,-15.825,20.101,4.206
13:38:52:486,28.771,0.104,0.105,0.010,-15.775,18.714,6.218
13:38:52:511,28.796,0.199,0.168,0.068,-15.590,17.783,7.762
13:38:52:538,28.823,0.291,0.190,-0.063,-15.124,16.530,10.477
13:38:52:564,28.849,0.227,0.303,-0.114,-14.702,15.997,12.664
13:38:52:619,28.904,0.483,0.239,0.010,-13.761,14.802,16.520
13:38:52:62,28.905,0.584,0.460,-0.189,-12.962,14.077,19.479
13:38:52:644,28.929,0.929,0.532,-0.450,-11.134,12.518,24.252
13:38:52:67,28.955,1.485,-0.153,-0.977,-8.192,9.982,29.466
13:38:52:724,29.009,1.246,0.441,-0.613,-6.583,8.670,33.470
13:38:52:725,29.010,0.941,0.368,-1.052,-4.414,8.243,40.085
13:38:52:778,29.064,0.775,-0.490,-0.328,-3.090,9.385,43.779
13:38:52:778,29.064,-0.154,-0.731,-0.271,-0.909,11.935,46.846
13:38:52:8,29.085,0.276,-1.187,-0.706,-0.199,14.029,47.088
13:38:52:856,29.141,0.278,-1.296,-0.447,-0.507,15.343,45.889
13:38:52:857,29.142,0.191,-0.950,-0.412,-1.216,17.652,41.952
13:38:52:879,29.164,0.039,-0.661,-0.486,-2.028,19.648,38.084
13:38:52:905,29.190,0.153,-0.640,-0.608,-3.186,22.775,30.546
13:38:52:934,29.220,0.057,-0.287,-0.719,-4.623,26.386,21.247
13:38:52:935,29.220,0.015,-0.062,-0.796,-5.870,29.637,14.320
13:38:52:987,29.272,-0.574,0.855,-0.464,-7.975,35.837,3.030
13:38:52:987,29.272,-1.176,1.081,-0.183,-9.075,40.600,-4.920
13:38:53:011,29.296,-1.835,1.073,0.754,-10.059,48.343,-16.362
13:38:53:036,29.321,-2.260,0.106,1.371,-10.153,52.898,-22.854
13:38:53:092,29.377,-2.049,-0.800,1.822,-10.607,57.209,-29.129
13:38:53:093,29.378,-1.207,-0.723,1.891,-11.408,59.933,-29.458
13:38:53:144,29.429,0.077,0.210,0.745,-11.505,61.301,-26.629
13:38:53:145,29.430,3.148,1.057,-0.189,-10.703,64.809,-22.124
13:38:53:169,29.454,-0.676,0.424,1.269,-9.756,67.696,-19.100
13:38:53:223,29.508,-0.157,0.479,-0.135,-10.407,70.456,-13.762
13:38:53:223,29.508,-0.800,-0.814,0.418,-10.762,73.010,-9.568
13:38:53:248,29.533,-0.209,0.147,0.237,-11.322,73.449,-7.551
13:38:53:274,29.559,0.216,0.132,-0.107,-11.729,71.733,-5.592
13:38:53:299,29.584,-0.025,-0.039,-0.013,-12.011,71.538,-4.556
13:38:53:354,29.639,-0.241,0.062,0.189,-12.506,71.833,-3.311
13:38:53:355,29.640,0.065,0.049,0.036,-12.716,70.866,-2.661
13:38:53:436,29.721,0.152,0.021,-0.095,-13.024,68.341,-1.733
13:38:53:436,29.721,-0.097,0.025,-0.079,-13.223,66.681,-0.696
13:38:53:437,29.722,-0.072,0.039,-0.073,-13.211,65.515,0.099
13:38:53:458,29.744,-0.013,0.003,-0.219,-13.079,64.030,1.554
13:38:53:485,29.770,-0.019,0.004,-0.247,-12.979,63.465,2.740
13:38:53:511,29.796,-0.016,0.129,0.024,-12.775,63.104,4.904
13:38:53:564,29.849,0.149,0.193,-0.105,-12.185,62.099,7.331
13:38:53:565,29.850,0.060,0.116,-0.342,-11.624,61.303,9.083
13:38:53:588,29.873,-0.084,0.214,-0.450,-10.759,60.909,12.066
13:38:53:618,29.903,0.247,0.160,-0.409,-10.164,60.748,14.383
13:38:53:64,29.925,0.178,0.371,-0.510,-9.069,60.660,18.531
13:38:53:692,29.978,0.290,0.034,-1.458,-5.795,59.056,26.304
13:38:53:718,30.004,0.144,0.283,-1.217,-3.452,57.858,32.001
13:38:53:747,30.032,-0.127,0.701,-0.892,-1.941,57.298,36.405
13:38:53:773,30.058,0.148,-0.237,-0.686,0.006,58.492,42.723
13:38:53:798,30.083,0.089,-0.756,-1.164,0.855,60.857,45.451
13:38:53:824,30.109,-0.203,-1.023,-0.596,1.147,63.148,47.048
13:38:53:85,30.136,-0.269,-1.231,-0.461,0.099,65.689,46.162
13:38:53:876,30.162,-0.272,-0.961,-0.337,-0.901,67.442,44.172
13:38:53:904,30.190,-0.381,-0.723,-0.309,-2.636,70.318,39.390
13:38:53:93,30.215,-0.190,-0.686,-0.411,-3.751,72.114,35.064
13:38:53:955,30.240,-0.271,-0.497,-0.565,-5.477,74.694,26.979
13:38:53:981,30.266,-0.285,0.002,-0.524,-7.737,78.467,17.297
13:38:54:007,30.292,-0.247,0.567,-0.161,-9.311,81.730,10.202
13:38:54:034,30.319,-0.346,0.964,0.373,-11.156,87.104,-1.234
13:38:54:062,30.348,-0.717,1.474,1.392,-11.931,91.242,-8.956
13:38:54:088,30.373,-0.188,0.319,2.374,-12.349,97.144,-19.433
13:38:54:114,30.399,-0.192,-0.203,2.320,-12.874,99.035,-24.749
13:38:54:139,30.424,0.197,-0.889,2.332,-14.694,99.752,-29.070
13:38:54:165,30.450,0.566,-0.424,1.841,-15.523,100.875,-27.941
13:38:54:191,30.476,-0.048,0.830,-0.590,-14.916,102.628,-24.596
13:38:54:218,30.503,-0.354,0.018,2.502,-12.929,107.592,-20.480
13:38:54:244,30.530,0.564,0.646,1.212,-12.920,109.682,-16.917
13:38:54:27,30.555,-0.319,-0.497,0.003,-13.037,112.698,-11.607
13:38:54:296,30.581,0.191,0.233,0.533,-13.019,114.431,-7.782
13:38:54:323,30.608,0.269,-0.032,0.131,-12.939,112.728,-5.992
13:38:54:349,30.634,-0.067,0.037,-0.133,-13.855,110.740,-4.045
13:38:54:375,30.660,-0.230,-0.007,0.177,-14.592,110.856,-2.896
13:38:54:403,30.688,-0.180,0.019,0.177,-15.300,109.739,-1.393
13:38:54:455,30.740,0.174,0.066,-0.222,-15.770,107.749,-0.380
13:38:54:484,30.769,-0.101,0.021,0.087,-16.580,106.196,1.143
13:38:54:484,30.769,-0.176,0.045,0.002,-17.176,104.586,2.814
13:38:54:506,30.791,-0.102,0.021,-0.195,-17.428,103.035,4.144
13:38:54:533,30.818,-0.029,0.069,-0.028,-17.634,101.198,6.338
13:38:54:559,30.844,-0.033,0.116,-0.164,-17.710,99.978,7.950
13:38:54:585,30.870,-0.039,0.156,-0.257,-17.700,98.224,10.627
13:38:54:611,30.897,-0.057,0.243,-0.264,-17.622,96.723,13.813
13:38:54:637,30.923,0.037,0.287,-0.387,-17.467,95.697,16.283
13:38:54:663,30.949,0.019,0.302,-0.629,-17.080,93.963,20.594
13:38:54:69,30.975,-0.244,0.543,-0.699,-16.698,93.033,23.881
13:38:54:717,31.002,-0.371,0.505,-0.896,-15.190,90.631,29.105
13:38:54:743,31.028,-0.707,-0.143,-1.721,-11.580,85.742,34.675
13:38:54:769,31.054,-0.298,0.857,-1.166,-9.024,82.479,38.879
13:38:54:795,31.080,-0.338,0.016,-1.626,-5.086,79.313,45.329
13:38:54:821,31.106,-0.206,-0.609,-1.014,-2.082,78.445,48.385
13:38:54:849,31.135,-0.511,-0.003,0.241,2.306,77.301,50.171
13:38:54:874,31.159,-0.174,-1.646,-0.800,3.794,75.872,49.596
13:38:54:96,31.245,0.154,-1.316,-0.454,2.701,75.048,47.699
13:38:54:961,31.246,0.121,-0.831,-0.492,-1.049,74.722,43.110
13:38:54:961,31.246,0.084,-0.583,-0.431,-3.884,74.925,39.114
13:38:54:98,31.265,0.229,-0.439,-0.514,-7.286,75.067,31.303
13:38:55:034,31.319,0.303,-0.167,-0.692,-10.067,75.623,21.738
13:38:55:035,31.320,0.335,0.214,-0.597,-12.104,77.099,14.484
13:38:55:058,31.343,0.296,1.028,0.138,-14.921,81.563,2.268
13:38:55:083,31.369,-0.358,1.872,1.470,-16.179,85.715,-6.348
13:38:55:11,31.395,-0.247,0.965,2.576,-16.677,92.452,-18.586
13:38:55:136,31.421,-0.136,-0.668,2.962,-16.488,97.040,-27.183
13:38:55:164,31.449,0.223,-0.822,2.639,-16.835,98.681,-29.486
13:38:55:189,31.474,-0.138,-0.643,1.938,-16.788,99.443,-27.451
13:38:55:215,31.501,2.166,1.556,-2.463,-16.212,101.000,-23.924
13:38:55:241,31.526,-0.432,0.485,1.922,-14.957,102.960,-18.888
13:38:55:267,31.553,-0.383,-0.061,-0.004,-14.755,105.072,-14.445
13:38:55:297,31.582,0.196,-0.109,1.128,-14.181,106.933,-9.120
13:38:55:297,31.582,-0.022,-0.012,0.004,-13.328,106.094,-5.760
13:38:55:351,31.636,0.239,0.058,-0.119,-13.220,104.263,-3.974
13:38:55:351,31.637,-0.015,0.001,0.063,-13.726,103.184,-1.866
13:38:55:457,31.742,-0.155,0.015,0.107,-14.151,102.827,-0.668
13:38:55:458,31.743,-0.070,0.046,0.035,-14.611,101.222,0.840
13:38:55:459,31.744,0.012,0.031,-0.045,-15.090,98.904,2.325
13:38:55:483,31.768,-0.103,0.026,-0.013,-15.432,97.834,3.269
13:38:55:483,31.768,-0.130,0.023,-0.028,-15.907,96.074,4.801
13:38:55:504,31.789,-0.019,0.017,-0.069,-16.121,94.743,5.903
13:38:55:53,31.815,0.005,0.045,-0.136,-16.178,93.042,7.570
13:38:55:585,31.871,0.110,0.113,-0.157,-16.075,92.151,8.834
13:38:55:586,31.871,0.064,0.170,-0.214,-15.871,91.185,11.167
13:38:55:667,31.952,-0.041,0.311,-0.309,-15.505,90.179,14.252
13:38:55:668,31.953,0.011,0.267,-0.434,-15.096,89.208,16.758
13:38:55:669,31.954,-0.209,0.348,-0.577,-14.290,87.981,21.194
13:38:55:688,31.973,-0.125,0.485,-0.695,-13.618,87.073,24.524
13:38:55:714,31.999,-0.281,0.358,-1.339,-11.629,84.355,29.715
13:38:55:741,32.027,-0.675,-0.310,-1.862,-7.613,79.835,35.285
13:38:55:766,32.052,-0.378,0.854,-1.126,-4.793,76.882,39.444
13:38:55:822,32.107,-0.127,-0.215,-0.962,-0.545,74.863,45.487
13:38:55:823,32.108,0.015,-0.419,-0.275,1.873,74.491,48.335
13:38:55:845,32.130,-0.233,-1.075,-0.454,4.929,73.777,49.690
13:38:55:873,32.158,0.166,-1.210,-0.395,5.220,73.130,48.780
13:38:55:898,32.183,0.147,-1.048,-0.384,3.658,73.196,46.796
13:38:55:925,32.210,-0.022,-0.667,-0.255,-0.226,74.397,42.383
13:38:55:95,32.235,0.101,-0.663,-0.337,-2.578,75.140,38.196
13:38:55:976,32.262,0.131,-0.515,-0.466,-5.521,76.190,30.232
13:38:56:003,32.288,0.242,-0.210,-0.504,-7.379,77.209,24.098
13:38:56:031,32.316,0.245,0.096,-0.485,-10.003,79.862,13.855
13:38:56:056,32.341,0.174,0.818,0.243,-12.119,84.617,2.240
13:38:56:107,32.393,-0.029,1.093,2.402,-12.133,97.528,-17.057
13:38:56:134,32.419,-0.942,-0.346,2.622,-10.336,102.499,-22.719
13:38:56:162,32.447,0.574,-0.959,3.004,-8.861,107.248,-27.391
13:38:56:188,32.473,0.684,-0.469,1.955,-9.036,109.058,-26.346
13:38:56:213,32.498,-0.043,2.053,-2.736,-9.051,109.513,-23.484
13:38:56:269,32.554,0.149,0.723,0.255,-9.116,109.711,-19.303
13:38:56:269,32.554,-0.035,0.103,0.046,-9.401,111.689,-15.153
13:38:56:321,32.606,-0.430,-0.828,1.072,-9.779,116.542,-9.523
13:38:56:321,32.607,0.150,0.430,0.370,-10.620,118.421,-6.755
13:38:56:344,32.629,0.092,0.056,0.203,-10.120,117.579,-4.022
13:38:56:37,32.655,0.028,-0.017,-0.034,-10.141,115.953,-1.966
13:38:56:396,32.681,-0.052,-0.004,0.153,-10.436,116.051,-0.866
13:38:56:422,32.707,-0.054,-0.011,0.168,-11.172,115.637,0.425
13:38:56:451,32.736,-0.029,0.050,0.010,-11.674,114.229,1.141
13:38:56:475,32.760,-0.029,0.014,-0.220,-12.385,112.162,2.128
13:38:56:501,32.787,-0.087,0.009,0.131,-13.034,111.553,3.051
13:38:56:586,32.871,-0.065,0.017,-0.036,-13.336,110.677,3.762
13:38:56:587,32.872,-0.074,0.016,-0.178,-13.627,108.908,5.045
13:38:56:587,32.872,-0.111,0.090,-0.026,-13.739,108.005,6.137
13:38:56:609,32.894,-0.041,0.122,-0.057,-13.758,106.738,8.133
13:38:56:632,32.917,-0.173,0.128,-0.182,-13.633,105.667,9.683
13:38:56:66,32.946,0.023,0.346,-0.256,-13.223,104.053,12.347
13:38:56:685,32.970,-0.029,0.275,-0.431,-12.429,102.355,15.538
13:38:56:77,33.055,-0.067,0.391,-0.430,-11.736,101.015,18.089
13:38:56:77,33.055,-0.100,0.592,-0.651,-10.214,99.299,22.377
13:38:56:771,33.056,-0.721,0.093,-1.415,-8.416,97.270,25.248
13:38:56:82,33.105,-1.019,-0.154,-1.760,-4.614,93.434,29.771
13:38:56:82,33.105,-0.360,0.641,-0.730,-1.868,91.273,35.497
13:38:56:873,33.159,-0.814,0.363,-0.927,-0.371,90.771,39.808
13:38:56:873,33.159,-0.738,-0.720,-1.206,2.339,91.653,45.005
13:38:56:895,33.180,-0.675,-0.450,-0.244,4.598,92.853,46.817
13:38:56:922,33.207,-0.707,-1.159,-0.335,5.831,94.144,47.513
13:38:56:977,33.262,-0.260,-1.167,-0.348,4.615,96.164,46.193
13:38:56:977,33.262,-0.339,-0.968,-0.201,3.366,97.735,43.910
13:38:57:028,33.314,-0.475,-0.654,-0.075,1.454,101.093,38.554
13:38:57:055,33.341,-0.626,-0.770,-0.290,0.494,103.339,33.813
13:38:57:056,33.341,-0.713,-0.427,-0.226,-1.390,107.074,25.312
13:38:57:108,33.393,-0.794,0.012,-0.146,-2.906,110.281,18.870
13:38:57:109,33.394,-0.702,0.689,0.215,-5.250,116.316,8.279
13:38:57:132,33.417,-0.415,1.337,1.315,-7.137,123.315,-3.137
13:38:57:158,33.443,0.112,1.296,1.703,-8.130,128.187,-10.618
13:38:57:184,33.469,0.990,0.588,2.025,-8.834,134.624,-20.590
13:38:57:21,33.495,1.799,-0.747,2.108,-9.001,137.615,-25.436
13:38:57:238,33.524,1.962,-0.674,1.388,-9.654,141.629,-28.450
13:38:57:263,33.549,1.101,0.240,0.066,-9.642,144.337,-25.483
13:38:57:319,33.604,-0.822,2.021,-2.310,-9.008,146.835,-22.062
13:38:57:319,33.604,1.180,0.744,0.967,-8.828,148.598,-17.155
13:38:57:341,33.626,-0.556,-0.823,0.264,-9.287,150.394,-12.961
13:38:57:368,33.653,0.464,-0.859,1.014,-9.196,153.674,-8.069
13:38:57:394,33.679,0.414,0.313,0.177,-10.246,153.707,-4.428
13:38:57:508,33.793,-0.184,0.173,-0.342,-10.525,152.031,-2.852
13:38:57:509,33.794,-0.237,-0.091,0.069,-11.081,151.658,-0.839
13:38:57:51,33.795,-0.022,0.007,0.270,-11.344,152.559,0.375
13:38:57:51,33.795,0.059,0.072,-0.024,-11.330,152.315,1.862
13:38:57:526,33.811,-0.092,0.028,-0.195,-11.375,150.202,3.090
13:38:57:612,33.898,-0.092,0.036,0.100,-11.580,149.490,3.881
13:38:57:613,33.899,-0.198,0.002,-0.013,-11.685,148.158,5.190
13:38:57:739,34.024,-0.313,0.051,-0.144,-11.047,144.652,9.183
13:38:57:74,34.025,-0.195,0.105,-0.107,-10.514,143.744,11.308
13:38:57:772,34.057,-0.286,0.201,-0.159,-9.855,143.257,13.902
13:38:57:772,34.057,-0.383,0.332,-0.282,-9.227,142.815,15.929
13:38:57:772,34.057,-0.524,0.337,-0.451,-7.812,142.056,19.679
13:38:57:773,34.058,-0.989,0.354,-0.372,-6.524,141.716,22.553
13:38:57:818,34.104,-1.632,0.027,-0.241,-3.975,141.022,27.402
13:38:57:819,34.104,-1.867,-0.177,-0.179,-1.542,140.579,33.231
13:38:57:87,34.155,-0.939,0.649,-0.045,-0.414,140.524,37.893
13:38:57:87,34.155,-0.752,-0.236,-0.366,1.037,141.897,44.640
13:38:57:953,34.238,-1.214,-0.558,-0.387,2.636,143.053,47.491
13:38:57:953,34.238,-0.658,-0.573,0.158,4.537,145.493,49.369
13:38:57:953,34.238,-0.552,-1.388,-0.020,4.380,146.866,49.507
13:38:57:971,34.257,-0.358,-1.102,0.082,2.937,149.682,47.429
13:38:58:026,34.312,-0.500,-0.937,0.151,0.291,152.805,43.028
13:38:58:027,34.313,-0.386,-0.742,0.342,-1.318,155.111,38.907
13:38:58:051,34.336,-0.407,-0.571,0.193,-3.287,158.317,31.008
13:38:58:076,34.361,-0.618,-0.291,0.204,-4.473,160.567,24.686
13:38:58:132,34.417,-0.594,0.147,0.311,-6.408,164.954,13.877
13:38:58:133,34.418,0.144,1.029,0.574,-8.268,170.673,1.986
13:38:58:156,34.441,0.988,1.434,0.901,-9.210,175.035,-6.024
13:38:58:182,34.467,2.099,0.858,0.520,-9.950,-178.634,-17.084
13:38:58:208,34.493,2.555,0.297,0.615,-10.281,-175.883,-22.822
13:38:58:264,34.549,2.761,-1.029,0.023,-11.340,-173.556,-27.639
13:38:58:264,34.549,2.129,-0.460,-0.329,-12.274,-172.471,-26.358
13:38:58:316,34.601,-1.271,1.219,-0.615,-12.097,-171.508,-22.823
13:38:58:316,34.602,2.031,0.085,0.301,-10.848,-168.607,-18.444
13:38:58:339,34.624,0.968,0.471,-0.050,-11.200,-166.736,-14.394
13:38:58:367,34.652,0.018,-0.835,0.642,-11.461,-162.330,-8.697
13:38:58:422,34.707,0.415,0.220,0.016,-11.837,-160.861,-5.761
13:38:58:422,34.707,0.157,0.180,-0.158,-11.806,-162.921,-2.578
13:38:58:444,34.729,-0.167,0.087,-0.037,-12.014,-164.268,-0.354
13:38:58:53,34.815,0.067,-0.002,-0.013,-12.246,-163.724,1.008
13:38:58:531,34.816,0.180,0.041,0.083,-12.383,-164.137,2.658
13:38:58:531,34.816,-0.212,0.032,-0.069,-12.534,-165.620,3.665
13:38:58:549,34.834,-0.092,0.022,0.059,-12.909,-167.068,5.160
13:38:58:577,34.862,-0.008,0.032,0.150,-13.159,-168.175,6.634
13:38:58:63,34.916,-0.107,0.028,0.030,-13.303,-169.167,7.708
13:38:58:631,34.917,-0.101,0.046,0.118,-13.379,-170.441,9.413
13:38:58:714,34.999,-0.092,0.124,-0.028,-13.357,-171.323,10.608
13:38:58:714,34.999,-0.248,0.133,-0.030,-13.334,-172.743,12.618
13:38:58:714,34.999,-0.284,0.130,0.012,-13.271,-173.510,14.183
13:38:58:764,35.049,-0.368,0.233,0.104,-12.913,-174.368,17.077
13:38:58:764,35.049,-0.553,0.236,0.075,-12.256,-175.315,20.817
13:38:58:785,35.070,-0.646,0.351,0.195,-11.678,-175.883,23.768
13:38:58:811,35.097,-0.919,0.485,0.263,-10.155,-177.145,28.450
13:38:58:839,35.125,-1.558,0.023,0.740,-8.141,-178.909,31.636
13:38:58:893,35.178,-1.569,-0.218,0.791,-3.850,177.400,36.767
13:38:58:893,35.179,-1.346,0.289,0.850,0.200,174.908,43.067
13:38:58:917,35.202,-1.160,-0.084,0.315,2.740,174.796,46.786
13:38:58:943,35.228,-0.247,-0.577,0.052,6.077,175.039,49.824
13:38:58:969,35.254,-0.462,-1.072,0.420,7.146,175.652,50.386
13:38:58:997,35.282,-0.547,-1.337,0.030,6.114,176.119,49.488
13:38:59:023,35.308,-0.321,-1.138,0.118,4.161,176.786,47.381
13:38:59:136,35.421,-0.368,-0.794,0.228,0.426,178.342,42.452
13:38:59:136,35.421,-0.305,-0.529,0.191,-2.691,179.982,35.355
13:38:59:137,35.422,-0.429,-0.371,0.132,-4.304,-179.019,29.575
13:38:59:138,35.423,-0.622,-0.117,0.168,-6.570,-176.936,19.561
13:38:59:181,35.466,-0.385,0.515,0.111,-8.275,-174.371,12.220
13:38:59:182,35.467,0.299,1.190,0.129,-10.668,-167.752,0.331
13:38:59:206,35.492,1.734,1.546,-0.039,-11.554,-158.449,-11.421
13:38:59:288,35.573,2.131,0.698,-0.332,-10.658,-152.192,-18.141
13:38:59:289,35.574,2.819,-0.628,-0.771,-9.284,-145.123,-24.933
13:38:59:343,35.628,2.071,-0.869,-1.030,-9.493,-142.652,-26.743
13:38:59:343,35.628,1.755,-0.248,-0.577,-10.109,-141.786,-24.656
13:38:59:344,35.629,-3.636,1.771,-0.329,-10.068,-139.237,-19.894
13:38:59:363,35.649,2.131,-0.019,-1.188,-9.691,-137.862,-16.784
13:38:59:389,35.674,0.884,0.369,-0.363,-10.769,-136.642,-11.316
13:38:59:415,35.700,0.270,-0.553,0.218,-11.513,-134.610,-8.139
13:38:59:471,35.756,0.715,-0.023,-0.569,-12.520,-132.779,-4.681
13:38:59:471,35.756,0.170,0.282,-0.111,-12.834,-133.775,-3.161
13:38:59:552,35.837,-0.213,-0.031,0.129,-13.365,-135.706,-1.483
13:38:59:553,35.838,-0.041,0.048,0.152,-14.041,-135.942,-0.099
13:38:59:554,35.839,0.199,0.058,0.052,-14.312,-136.314,0.748
13:38:59:602,35.887,-0.147,0.026,0.024,-14.508,-138.203,1.886
13:38:59:602,35.888,-0.108,0.016,0.064,-14.655,-139.392,2.662
13:38:59:626,35.911,0.085,0.032,0.150,-14.794,-140.740,3.926
13:38:59:652,35.937,-0.083,-0.001,0.124,-14.689,-142.699,5.376
13:38:59:679,35.964,-0.149,0.061,0.042,-14.525,-143.996,6.505
13:38:59:704,35.989,-0.203,0.085,0.035,-14.162,-145.623,8.443
13:38:59:73,36.015,-0.291,0.184,0.008,-13.825,-146.438,9.938
13:38:59:756,36.042,-0.334,0.202,0.233,-12.999,-147.762,12.602
13:38:59:782,36.068,-0.374,0.255,0.437,-12.216,-148.738,14.776
13:38:59:813,36.098,-0.583,0.223,0.265,-10.896,-150.042,18.721
13:38:59:813,36.098,-0.639,0.359,0.429,-9.351,-150.654,23.385
13:38:59:893,36.178,-0.811,0.218,1.041,-7.823,-151.183,26.672
13:38:59:894,36.179,-1.042,-0.248,1.591,-5.076,-152.251,32.161
13:38:59:895,36.180,-0.724,0.663,0.752,-3.817,-152.703,36.443
13:38:59:944,36.230,-1.110,0.135,1.435,-1.868,-152.748,43.320
13:38:59:945,36.230,-1.061,-0.515,1.084,0.749,-150.699,48.272
13:39:00:025,36.310,0.281,-0.206,0.378,3.254,-149.111,49.514
13:39:00:025,36.310,-0.283,-1.369,0.936,3.272,-147.077,49.859
13:39:00:026,36.311,-0.193,-1.311,0.534,2.090,-145.101,48.866
13:39:00:103,36.388,-0.092,-0.970,0.576,0.075,-141.806,45.230
13:39:00:104,36.389,0.129,-0.531,0.548,-1.892,-137.710,39.342
13:39:00:105,36.390,0.174,-0.658,0.710,-2.808,-134.828,34.254
13:39:00:154,36.439,0.261,-0.427,0.933,-4.313,-130.082,25.053
13:39:00:154,36.439,0.337,-0.040,0.932,-5.666,-126.007,18.048
13:39:00:206,36.491,0.837,0.912,0.334,-7.653,-119.154,6.423
13:39:00:206,36.491,1.458,1.435,-0.384,-8.659,-114.693,-1.772
13:39:00:229,36.514,1.879,0.964,-1.236,-9.923,-108.918,-13.657
13:39:00:257,36.542,1.311,0.260,-2.287,-11.768,-105.356,-22.815
13:39:00:283,36.568,1.089,-0.969,-2.612,-13.110,-104.388,-26.264
13:39:00:308,36.593,0.276,-0.542,-2.245,-14.470,-102.396,-25.866
13:39:00:334,36.619,-0.657,0.967,1.094,-14.391,-100.879,-22.701
13:39:00:36,36.645,0.091,-0.362,-2.000,-12.835,-96.082,-17.980
13:39:00:386,36.672,0.785,1.106,-2.066,-13.154,-91.557,-11.715
13:39:00:471,36.756,0.410,-0.152,0.756,-13.498,-87.555,-7.658
13:39:00:472,36.757,0.100,0.365,-0.858,-13.681,-85.350,-2.972
13:39:00:472,36.757,0.052,0.162,-0.050,-13.447,-86.839,-1.065
13:39:00:491,36.777,-0.141,0.099,0.160,-13.684,-89.258,1.212
13:39:00:574,36.859,0.014,-0.020,-0.141,-14.010,-89.253,2.613
13:39:00:574,36.860,0.099,0.039,-0.175,-14.511,-89.406,4.034
13:39:00:6,36.885,-0.110,-0.003,0.141,-14.876,-91.545,5.305
13:39:00:6,36.885,-0.087,0.029,0.108,-15.245,-92.771,6.108
13:39:00:623,36.908,0.112,0.080,0.032,-15.835,-94.159,7.404
13:39:00:679,36.964,0.011,0.019,0.155,-16.114,-95.488,8.467
13:39:00:679,36.964,-0.017,0.029,0.217,-16.191,-97.512,10.256
13:39:00:701,36.987,-0.035,0.093,0.241,-16.101,-98.915,12.336
13:39:00:728,37.013,-0.084,0.123,0.176,-16.040,-99.513,13.922
13:39:00:782,37.067,-0.060,0.265,0.313,-15.849,-100.356,16.688
13:39:00:812,37.097,-0.218,0.228,0.515,-15.616,-101.066,18.831
13:39:00:812,37.097,-0.127,0.352,0.638,-15.166,-101.980,22.687
13:39:00:862,37.147,-0.023,0.487,0.868,-14.255,-102.723,27.201
13:39:00:917,37.202,0.076,0.297,1.195,-12.770,-104.159,30.349
13:39:00:918,37.203,0.323,-0.149,1.787,-9.234,-107.365,35.490
13:39:00:918,37.204,0.223,0.099,1.494,-6.861,-109.427,39.527
13:39:00:967,37.252,0.038,0.076,2.016,-3.970,-110.923,46.444
13:39:00:967,37.252,0.082,-0.566,1.284,-1.543,-110.936,49.795
13:39:01:019,37.304,0.515,0.069,0.086,2.324,-111.121,51.971
13:39:01:02,37.305,-0.003,-1.515,0.805,3.241,-111.428,51.998
13:39:01:101,37.386,-0.069,-1.259,0.420,2.235,-111.510,50.356
13:39:01:101,37.387,-0.033,-0.865,0.454,-1.269,-110.861,45.904
13:39:01:102,37.388,0.031,-0.604,0.386,-3.916,-110.031,41.857
13:39:01:121,37.406,-0.115,-0.492,0.476,-7.125,-108.862,33.892
13:39:01:148,37.433,-0.135,-0.326,0.577,-9.781,-107.378,24.136
13:39:01:176,37.461,-0.189,0.206,0.636,-11.651,-105.492,16.751
13:39:01:201,37.487,-0.114,1.125,-0.150,-14.341,-100.637,4.367
13:39:01:228,37.513,0.263,1.540,-0.817,-15.601,-96.343,-4.314
13:39:01:281,37.567,0.381,0.873,-2.455,-16.183,-89.369,-16.523
13:39:01:282,37.567,0.422,-0.280,-2.796,-16.088,-85.548,-22.823
13:39:01:306,37.591,-0.160,-0.752,-2.845,-16.702,-81.824,-27.681
13:39:01:332,37.617,0.062,-0.501,-1.992,-17.400,-81.217,-26.620
13:39:01:358,37.643,-0.158,0.610,0.553,-17.366,-80.786,-23.165
13:39:01:413,37.698,0.508,0.089,-2.141,-15.762,-77.539,-18.916
13:39:01:413,37.699,0.272,0.504,-0.890,-15.713,-75.176,-15.217
13:39:01:551,37.836,-0.056,-0.194,-0.186,-16.476,-71.206,-9.680
13:39:01:552,37.837,-0.108,0.257,-0.415,-16.706,-70.411,-5.849
13:39:01:553,37.838,-0.204,0.017,-0.135,-16.625,-72.539,-4.022
13:39:01:554,37.839,-0.054,0.024,0.228,-17.541,-74.869,-1.978
13:39:01:682,37.967,0.032,0.009,-0.110,-18.276,-74.892,-0.980
13:39:01:683,37.968,0.118,0.090,-0.205,-19.184,-75.675,0.211
13:39:01:684,37.969,-0.053,0.050,0.202,-19.633,-77.627,1.129
13:39:01:684,37.969,-0.032,0.025,0.089,-20.346,-80.079,2.393
13:39:01:727,38.013,0.156,0.005,0.089,-20.762,-81.766,3.652
13:39:01:813,38.098,0.068,-0.042,0.237,-20.830,-83.382,4.689
13:39:01:814,38.099,0.001,-0.025,0.168,-20.899,-85.173,6.557
13:39:01:815,38.100,-0.061,0.069,0.113,-20.952,-85.965,8.052
13:39:01:816,38.101,-0.129,0.193,0.249,-20.860,-87.434,10.649
13:39:01:837,38.122,-0.011,0.163,0.377,-20.598,-89.011,13.724
13:39:01:837,38.122,0.058,0.273,0.349,-20.394,-89.959,16.121
13:39:01:838,38.123,-0.058,0.239,0.594,-19.912,-91.681,20.331
13:39:01:885,38.170,-0.059,0.410,0.590,-19.513,-92.700,23.521
13:39:01:886,38.171,0.002,0.479,0.813,-18.260,-94.861,28.633
13:39:01:91,38.196,0.382,-0.204,1.695,-15.311,-98.774,34.118
13:39:01:995,38.280,0.292,0.123,1.645,-13.361,-101.373,38.215
13:39:01:995,38.280,0.197,0.753,1.334,-10.815,-104.389,44.979
13:39:01:996,38.281,-0.122,-0.338,1.029,-8.335,-105.073,48.787
13:39:02:019,38.304,0.339,-0.079,-0.504,-3.946,-104.854,52.130
13:39:02:019,38.304,0.262,-0.610,0.476,-1.010,-105.856,52.260
13:39:02:095,38.380,-0.043,-1.488,0.526,-0.046,-106.801,51.361
13:39:02:126,38.412,-0.090,-1.120,0.448,-2.194,-106.990,47.901
13:39:02:126,38.412,0.009,-0.925,0.438,-4.634,-106.396,44.356
13:39:02:127,38.412,-0.145,-0.593,0.502,-8.041,-105.185,37.295
13:39:02:147,38.432,-0.145,-0.375,0.536,-9.617,-104.430,31.393
13:39:02:201,38.486,-0.161,-0.112,0.674,-11.898,-102.465,21.102
13:39:02:201,38.486,-0.283,0.816,0.206,-14.306,-98.337,9.115
13:39:02:253,38.538,-0.146,1.204,-0.234,-15.574,-94.409,0.451
13:39:02:254,38.539,0.129,1.767,-1.941,-16.282,-86.537,-12.226
13:39:02:277,38.563,0.417,0.172,-2.803,-15.660,-81.245,-19.333
13:39:02:304,38.589,-0.021,-0.829,-2.978,-14.741,-75.628,-25.845
13:39:02:329,38.615,-0.279,-0.711,-2.305,-14.620,-73.370,-26.745
13:39:02:356,38.641,0.218,1.150,1.164,-14.720,-73.605,-23.178
13:39:02:382,38.667,-0.481,-0.265,-1.620,-14.306,-73.269,-18.876
13:39:02:466,38.751,-0.028,0.419,-1.213,-14.684,-72.368,-14.935
13:39:02:466,38.752,0.345,-0.730,-0.672,-14.990,-69.222,-9.294
13:39:02:467,38.753,-0.265,-0.019,-0.814,-15.480,-67.867,-6.508
13:39:02:486,38.772,-0.043,0.096,-0.176,-15.614,-68.628,-3.723
13:39:02:54,38.825,-0.015,-0.002,0.079,-16.203,-70.819,-1.672
13:39:02:596,38.881,0.031,0.051,0.016,-16.641,-71.344,-0.630
13:39:02:596,38.881,0.068,0.034,-0.074,-17.128,-71.974,0.707
13:39:02:621,38.906,0.034,0.040,0.102,-17.321,-73.318,1.599
13:39:02:621,38.906,0.007,-0.003,0.149,-17.562,-75.579,2.933
13:39:02:7,38.986,0.106,0.016,0.031,-17.726,-76.468,3.735
13:39:02:759,39.044,-0.015,0.053,0.052,-17.804,-77.978,5.022
13:39:02:76,39.045,-0.066,0.035,0.137,-17.749,-79.851,6.610
13:39:02:761,39.046,-0.059,0.029,0.163,-17.662,-80.952,7.843
13:39:02:762,39.047,-0.048,0.079,0.159,-16.951,-81.918,8.771
13:39:02:804,39.089,-0.026,0.185,0.272,-16.698,-82.660,10.429
13:39:02:805,39.090,0.011,0.292,0.264,-16.264,-83.681,13.393
13:39:02:829,39.115,-0.108,0.256,0.394,-15.535,-85.975,16.959
13:39:02:855,39.141,0.080,0.385,0.588,-14.815,-86.895,19.674
13:39:02:881,39.166,0.191,0.472,0.832,-13.356,-88.875,24.160
13:39:02:907,39.192,0.615,0.106,1.465,-11.763,-90.252,27.321
13:39:02:934,39.219,0.775,-0.108,1.761,-8.771,-92.831,32.657
13:39:02:959,39.244,0.408,0.780,0.954,-6.591,-94.620,39.143
13:39:03:014,39.300,0.636,-0.016,1.721,-5.081,-94.724,43.575
13:39:03:015,39.300,0.343,-0.717,1.039,-2.950,-93.340,48.098
13:39:03:037,39.323,0.475,-0.776,0.374,-0.838,-93.315,49.235
13:39:03:066,39.351,0.630,-1.399,0.641,-0.558,-92.050,49.332
13:39:03:119,39.404,0.124,-1.105,0.356,-1.475,-91.145,48.047
13:39:03:12,39.405,0.197,-0.866,0.459,-3.327,-89.219,43.981
13:39:03:142,39.427,0.383,-0.602,0.251,-5.179,-86.418,37.632
13:39:03:169,39.454,0.256,-0.552,0.512,-6.212,-84.564,32.281
13:39:03:195,39.481,0.329,-0.257,0.404,-7.520,-81.594,22.694
13:39:03:224,39.509,0.444,0.246,0.348,-8.702,-78.833,15.410
13:39:03:249,39.534,0.357,0.973,-0.238,-10.673,-73.513,3.372
13:39:03:303,39.588,0.128,1.564,-1.225,-12.329,-66.127,-9.054
13:39:03:304,39.589,-1.054,1.045,-2.289,-12.577,-60.645,-16.755
13:39:03:326,39.611,-0.463,-0.490,-2.761,-11.933,-55.596,-25.702
13:39:03:352,39.638,-1.832,-0.963,-2.339,-12.388,-53.491,-28.980
13:39:03:379,39.664,-1.047,-0.777,-2.017,-12.989,-52.403,-28.338
13:39:03:407,39.693,-1.271,0.113,1.266,-13.081,-52.033,-24.847
13:39:03:433,39.719,-0.867,0.369,-1.791,-12.400,-50.427,-20.534
13:39:03:459,39.744,0.219,0.531,0.137,-13.132,-48.827,-14.424
13:39:03:484,39.769,0.592,-0.890,-0.413,-13.099,-46.232,-10.888
13:39:03:51,39.795,-0.151,0.257,-0.242,-13.669,-44.014,-6.857
13:39:03:536,39.822,-0.273,0.120,-0.036,-13.586,-45.057,-4.961
13:39:03:564,39.850,-0.107,0.007,0.052,-13.406,-46.196,-2.640
13:39:03:591,39.877,-0.115,-0.013,-0.003,-13.378,-46.348,-0.707
13:39:03:615,39.900,-0.004,0.012,-0.153,-13.482,-47.063,0.429
13:39:03:644,39.929,0.064,0.011,0.092,-13.605,-48.889,1.855
13:39:03:668,39.953,-0.020,0.048,-0.034,-13.680,-49.528,2.639
13:39:03:694,39.979,0.036,0.029,0.000,-13.884,-50.390,3.803
13:39:03:776,40.062,0.032,0.088,0.110,-14.163,-52.564,6.185
13:39:03:777,40.062,0.026,0.147,0.185,-14.049,-53.791,7.987
13:39:03:829,40.114,0.188,0.184,0.180,-13.835,-54.434,9.454
13:39:03:829,40.114,0.219,0.268,0.139,-13.284,-55.113,12.131
13:39:03:851,40.136,0.168,0.242,0.372,-12.798,-55.603,14.220
13:39:03:879,40.164,0.281,0.244,0.468,-11.855,-56.457,17.913
13:39:03:905,40.191,0.566,0.389,0.529,-10.718,-56.857,22.283
13:39:03:93,40.216,0.811,0.467,0.805,-9.665,-57.348,25.382
13:39:03:987,40.272,1.310,0.052,1.013,-6.853,-59.243,30.223
13:39:03:987,40.273,0.985,0.224,0.639,-4.596,-60.696,33.808
13:39:04:037,40.322,1.349,-0.024,0.947,-1.540,-61.660,40.006
13:39:04:065,40.350,0.977,-0.493,0.647,0.230,-60.913,43.726
13:39:04:065,40.350,0.403,0.084,-0.162,2.250,-59.578,46.941
13:39:04:117,40.402,0.666,-1.331,0.418,2.922,-58.049,47.794
13:39:04:117,40.403,0.446,-1.072,0.132,2.268,-56.751,46.891
13:39:04:172,40.457,0.506,-0.827,0.051,-0.044,-53.879,43.558
13:39:04:173,40.458,0.513,-0.647,-0.170,-1.739,-51.406,40.167
13:39:04:174,40.459,0.527,-0.550,-0.111,-3.666,-47.732,33.201
13:39:04:193,40.478,0.643,-0.305,-0.110,-5.287,-44.139,24.408
13:39:04:219,40.504,0.736,-0.090,-0.107,-6.514,-41.324,17.727
13:39:04:275,40.560,0.377,0.740,-0.444,-8.676,-35.787,6.795
13:39:04:275,40.560,-0.493,1.548,-1.252,-10.064,-31.361,-1.003
13:39:04:327,40.613,-1.264,1.079,-1.151,-11.602,-24.386,-12.560
13:39:04:327,40.613,-1.856,0.241,-1.618,-11.951,-18.285,-22.185
13:39:04:38,40.665,-2.412,-0.764,-1.232,-12.167,-15.561,-26.498
13:39:04:38,40.665,-2.008,-0.463,-0.441,-13.161,-12.541,-28.467
13:39:04:403,40.688,0.246,0.781,0.963,-13.617,-11.573,-26.774
13:39:04:517,40.803,-1.877,-0.464,-0.204,-12.367,-8.109,-22.182
13:39:04:518,40.803,-1.216,0.734,-0.009,-11.643,-4.182,-17.156
13:39:04:519,40.804,0.519,0.265,-0.379,-11.946,-1.140,-13.125
13:39:04:519,40.805,-1.369,-0.041,0.088,-12.136,3.050,-8.440
13:39:04:534,40.819,-0.136,0.273,-0.163,-12.516,2.478,-6.220
13:39:04:56,40.845,0.266,0.120,0.282,-12.806,-0.377,-3.797
13:39:04:615,40.900,-0.201,-0.050,-0.133,-13.175,0.070,-2.388
13:39:04:616,40.901,-0.257,0.020,-0.213,-13.642,0.206,-0.671
13:39:04:668,40.953,0.175,0.065,0.163,-14.090,-2.290,0.915
13:39:04:669,40.954,0.119,0.014,0.085,-14.449,-3.169,1.940
13:39:04:692,40.977,-0.034,0.028,-0.122,-14.864,-4.107,3.417
13:39:04:808,41.093,0.053,0.059,0.034,-15.095,-5.263,4.496
13:39:04:808,41.093,0.061,0.066,-0.011,-15.362,-6.730,6.280
13:39:04:808,41.093,0.145,0.077,-0.023,-15.468,-7.778,7.577
13:39:04:808,41.093,0.144,0.134,0.017,-15.510,-9.194,9.671
13:39:04:824,41.109,0.144,0.167,0.113,-15.287,-10.513,12.080
13:39:04:849,41.134,0.345,0.228,0.063,-15.021,-11.355,13.953
13:39:04:93,41.215,0.384,0.257,0.173,-14.551,-12.294,17.272
13:39:04:99,41.275,0.597,0.301,0.083,-14.136,-12.792,19.891
13:39:04:991,41.276,0.615,0.442,0.005,-13.213,-13.550,24.232
13:39:04:991,41.276,1.401,0.042,-0.217,-10.906,-15.898,28.840
13:39:04:991,41.276,1.776,-0.106,-0.228,-8.820,-18.051,32.211
13:39:05:007,41.292,0.874,0.793,0.000,-6.109,-20.811,38.257
13:39:05:092,41.378,1.519,0.223,-0.250,-4.037,-21.809,42.493
13:39:05:092,41.378,1.236,-0.663,0.056,-0.507,-22.185,46.830
13:39:05:092,41.378,0.225,-0.136,-0.335,2.601,-22.434,48.257
13:39:05:113,41.398,0.638,-1.159,-0.362,3.314,-22.745,48.179
13:39:05:167,41.452,0.510,-1.275,0.247,2.153,-23.111,45.922
13:39:05:167,41.452,0.439,-0.820,0.083,0.020,-22.600,43.102
13:39:05:191,41.476,0.457,-0.630,-0.065,-3.592,-20.987,37.366
13:39:05:216,41.502,0.491,-0.512,0.061,-5.797,-19.639,32.395
13:39:05:242,41.528,0.418,-0.229,0.048,-8.400,-17.199,23.319
13:39:05:27,41.556,0.456,0.103,0.032,-10.688,-13.662,12.690
13:39:05:296,41.581,0.129,0.653,0.051,-12.106,-10.208,4.780
13:39:05:352,41.637,-0.830,1.424,-0.320,-13.479,-3.202,-7.649
13:39:05:353,41.638,-1.946,1.193,-0.347,-13.351,2.551,-15.529
13:39:05:374,41.659,-2.767,0.170,-0.494,-11.606,10.852,-24.644
13:39:05:4,41.685,-3.027,-1.109,0.363,-10.693,15.749,-29.092
13:39:05:426,41.712,-2.573,-1.145,0.329,-10.925,16.462,-28.940
13:39:05:454,41.740,0.140,0.488,-0.533,-11.673,16.147,-24.649
13:39:05:481,41.766,3.141,1.734,1.840,-11.282,17.103,-22.004
13:39:05:507,41.792,-1.023,0.532,-0.226,-11.159,19.198,-16.490
13:39:05:533,41.818,0.296,-0.128,-0.330,-11.711,21.600,-12.381
13:39:05:559,41.844,-0.996,-0.638,-0.210,-12.083,25.095,-7.638
13:39:05:584,41.869,-0.119,0.044,-0.123,-11.650,24.798,-4.621
13:39:05:611,41.897,0.030,0.028,0.172,-11.504,23.393,-3.099
13:39:05:636,41.922,-0.026,0.010,0.063,-11.814,22.710,-1.170
13:39:05:721,42.006,-0.092,0.021,-0.022,-12.162,22.513,-0.096
13:39:05:722,42.007,-0.054,0.030,-0.102,-12.573,21.102,1.258
13:39:05:723,42.008,0.114,0.010,0.057,-12.911,19.611,2.480
13:39:05:741,42.026,-0.053,0.019,-0.028,-13.195,19.215,3.232
13:39:05:768,42.053,0.039,0.049,-0.064,-13.699,18.069,4.436
13:39:05:794,42.080,0.061,0.044,-0.028,-14.006,17.101,5.387
13:39:05:849,42.134,0.126,0.104,0.047,-14.264,15.589,7.106
13:39:05:85,42.135,0.189,0.158,-0.003,-14.293,14.156,9.241
13:39:05:873,42.158,0.265,0.109,-0.119,-14.217,13.275,10.947
13:39:05:899,42.184,0.247,0.305,-0.155,-13.936,12.219,13.967
13:39:05:953,42.239,0.500,0.223,0.069,-13.617,11.299,16.319
13:39:05:98,42.266,0.516,0.333,0.004,-12.922,10.169,20.451
13:39:05:981,42.267,0.687,0.539,-0.099,-11.574,8.468,24.902
13:39:06:006,42.292,1.132,0.328,-0.497,-9.631,6.288,27.856
13:39:06:03,42.315,1.698,-0.310,-0.964,-6.165,2.808,32.809
13:39:06:086,42.371,0.957,0.992,-0.584,-4.434,1.161,36.818
13:39:06:086,42.371,1.598,0.055,-0.925,-1.663,0.648,43.032
13:39:06:109,42.394,0.685,-0.761,-0.523,1.798,2.032,46.871
13:39:06:135,42.420,0.269,-0.300,-0.571,3.735,2.450,47.521
13:39:06:161,42.447,0.727,-1.384,-0.585,3.863,3.893,47.292
13:39:06:217,42.502,0.421,-1.186,-0.173,3.158,5.283,45.648
13:39:06:217,42.502,0.191,-0.773,-0.397,0.966,8.708,41.113
13:39:06:24,42.525,0.049,-0.674,-0.514,-0.376,11.239,36.824
13:39:06:266,42.552,0.185,-0.528,-0.571,-2.191,15.014,28.807
13:39:06:322,42.608,0.174,-0.150,-0.613,-4.280,19.527,19.229
13:39:06:323,42.608,0.058,0.171,-0.643,-5.781,23.419,12.198
13:39:06:345,42.630,-0.602,0.992,-0.370,-7.789,30.805,0.930
13:39:06:401,42.686,-1.576,1.372,0.162,-8.564,36.474,-6.597
13:39:06:401,42.686,-1.832,0.854,0.786,-8.141,45.300,-16.842
13:39:06:426,42.711,-2.418,-0.296,1.521,-6.971,52.561,-23.970
13:39:06:451,42.737,-2.005,-0.846,2.170,-7.096,55.188,-26.492
13:39:06:479,42.764,-1.414,-0.451,1.161,-8.143,55.785,-25.957
13:39:06:48,42.765,-0.166,0.398,-0.406,-8.604,56.170,-22.866
13:39:06:533,42.818,0.568,-0.120,1.511,-8.538,57.578,-18.841
13:39:06:533,42.819,-0.948,0.557,0.770,-8.997,58.158,-15.448
13:39:06:584,42.869,-0.177,-0.340,-0.409,-9.821,61.684,-10.147
13:39:06:585,42.870,-0.741,-0.225,0.778,-10.653,64.580,-6.238
13:39:06:637,42.922,-0.221,0.183,0.202,-11.047,63.905,-4.562
13:39:06:637,42.923,0.094,0.048,-0.088,-11.538,62.249,-2.802
13:39:06:66,42.945,0.018,0.031,0.015,-11.855,62.284,-1.844
13:39:06:716,43.001,-0.298,0.047,0.087,-12.206,62.433,-0.631
13:39:06:717,43.002,0.095,0.038,-0.019,-12.439,60.682,0.256
13:39:06:74,43.025,0.126,0.011,-0.017,-12.620,59.688,0.820
13:39:06:766,43.051,-0.124,-0.015,-0.028,-12.776,58.507,1.689
13:39:06:792,43.077,0.002,0.020,-0.093,-12.766,57.433,2.301
13:39:06:818,43.103,0.060,0.053,-0.108,-12.585,55.697,3.463
13:39:06:844,43.129,0.056,0.074,-0.146,-12.302,54.287,4.944
13:39:06:874,43.159,0.042,0.078,-0.133,-12.013,53.604,6.113
13:39:06:897,43.182,0.080,0.210,-0.033,-11.406,52.711,8.113
13:39:06:923,43.208,0.164,0.240,-0.237,-10.801,51.928,9.653
13:39:06:949,43.234,0.219,0.291,-0.422,-9.609,50.807,12.363
13:39:06:977,43.262,0.352,0.205,-0.483,-8.718,50.377,14.550
13:39:07:004,43.289,0.310,0.280,-0.641,-7.221,50.392,18.540
13:39:07:086,43.371,0.250,0.235,-0.943,-5.291,51.385,23.100
13:39:07:086,43.372,0.133,-0.051,-1.634,-3.837,51.577,26.488
13:39:07:088,43.373,0.008,0.121,-1.050,-2.116,51.761,32.423
13:39:07:107,43.392,0.067,0.335,-1.306,-1.094,51.677,37.048
13:39:07:162,43.447,0.221,-0.347,-0.722,0.899,52.473,43.273
13:39:07:162,43.447,-0.439,-0.241,-0.234,3.319,53.709,46.637
13:39:07:185,43.470,-0.020,-0.683,-0.721,3.987,55.470,47.770
13:39:07:211,43.497,-0.004,-1.228,-0.597,3.172,57.322,47.413
13:39:07:266,43.552,-0.153,-0.963,-0.489,1.734,59.577,45.790
13:39:07:267,43.553,-0.279,-0.761,-0.519,-1.172,62.843,41.654
13:39:07:292,43.577,-0.363,-0.590,-0.384,-2.846,65.211,37.708
13:39:07:317,43.602,-0.329,-0.433,-0.530,-4.718,68.561,30.070
13:39:07:372,43.657,-0.313,-0.219,-0.564,-6.533,72.317,20.554
13:39:07:372,43.657,-0.415,0.353,-0.429,-7.996,75.511,13.574
13:39:07:395,43.680,-0.577,1.031,0.456,-10.254,81.061,2.164
13:39:07:422,43.707,-0.841,1.252,1.160,-11.503,84.775,-5.712
13:39:07:447,43.733,-0.212,0.813,2.287,-13.271,90.067,-16.866
13:39:07:476,43.761,-0.451,-0.211,2.329,-14.930,92.569,-25.160
13:39:07:501,43.786,-0.169,-0.790,2.328,-16.123,93.322,-28.021
13:39:07:554,43.839,0.620,-0.542,2.240,-16.828,95.066,-27.168
13:39:07:583,43.868,2.402,0.007,-0.572,-16.389,96.462,-23.701
13:39:07:583,43.868,-1.162,0.637,2.032,-14.896,99.212,-19.422
13:39:07:605,43.890,-0.048,0.356,-0.225,-14.732,101.700,-15.297
13:39:07:631,43.917,-0.641,-0.925,0.929,-14.244,106.344,-10.004
13:39:07:658,43.943,0.026,0.062,0.039,-13.913,106.411,-6.184
13:39:07:686,43.971,0.298,-0.039,-0.040,-13.772,103.902,-4.216
13:39:07:711,43.996,-0.049,0.057,-0.163,-14.395,102.277,-2.113
13:39:07:738,44.023,-0.116,-0.007,0.140,-14.796,102.686,-0.944
13:39:07:766,44.051,-0.149,0.004,0.095,-15.052,102.253,0.492
13:39:07:789,44.074,0.161,-0.009,-0.101,-15.367,100.241,1.726
13:39:07:817,44.102,0.085,0.053,-0.066,-15.845,99.394,2.460
13:39:07:842,44.128,-0.195,0.043,0.045,-16.669,98.371,3.649
13:39:07:867,44.153,-0.061,0.023,-0.163,-17.099,97.039,4.669
13:39:07:894,44.179,0.007,0.025,-0.153,-17.467,95.104,6.381
13:39:07:92,44.206,-0.083,0.077,-0.093,-17.549,93.669,8.369
13:39:07:976,44.261,-0.010,0.111,-0.046,-17.514,92.531,9.907
13:39:07:976,44.261,-0.036,0.157,-0.366,-17.257,90.575,12.590
13:39:08:057,44.342,-0.053,0.219,-0.349,-16.994,89.514,14.653
13:39:08:058,44.343,0.071,0.203,-0.425,-16.524,88.058,18.288
13:39:08:058,44.344,-0.070,0.399,-0.487,-16.098,87.217,21.107
13:39:08:077,44.363,-0.097,0.495,-0.760,-15.197,85.730,25.850
13:39:08:133,44.418,-0.187,0.377,-1.206,-13.182,82.999,30.849
13:39:08:134,44.419,-0.573,-0.102,-1.749,-10.738,80.247,34.370
13:39:08:156,44.441,-0.076,0.456,-1.185,-7.185,76.481,40.417
13:39:08:183,44.468,0.085,-0.096,-1.527,-4.798,74.980,44.719
13:39:08:21,44.496,-0.217,-0.691,-1.088,-0.971,74.159,49.285
13:39:08:238,44.523,-0.260,-0.155,-0.191,2.909,73.092,50.674
13:39:08:263,44.548,-0.254,-1.657,-0.755,4.116,72.511,50.585
13:39:08:288,44.574,0.066,-1.163,-0.409,2.056,72.090,48.368
13:39:08:343,44.628,0.005,-0.835,-0.392,-0.662,72.485,45.684
13:39:08:344,44.629,-0.093,-0.624,-0.327,-4.635,73.612,40.064
13:39:08:366,44.651,0.112,-0.437,-0.548,-7.460,74.413,32.200
13:39:08:393,44.678,0.156,-0.291,-0.516,-8.949,74.991,25.957
13:39:08:419,44.705,0.198,0.274,-0.571,-11.385,77.119,15.377
13:39:08:445,44.730,0.234,0.676,-0.256,-13.079,79.773,7.542
13:39:08:471,44.757,-0.120,1.326,0.700,-15.043,85.208,-4.915
13:39:08:498,44.783,-0.044,1.112,2.173,-15.898,91.604,-17.004
13:39:08:524,44.809,-0.116,0.211,2.754,-15.849,95.398,-23.522
13:39:08:55,44.835,0.021,-0.781,2.522,-15.927,99.028,-29.053
13:39:08:578,44.864,0.166,-0.738,2.138,-15.669,100.898,-29.404
13:39:08:604,44.889,-0.204,0.282,0.036,-15.219,101.933,-25.259
13:39:08:629,44.914,-0.523,0.214,2.492,-14.508,103.062,-22.634
13:39:08:655,44.940,-0.052,0.226,0.732,-14.247,104.404,-17.107
13:39:08:682,44.967,-0.335,-0.416,0.038,-14.192,107.869,-11.465
13:39:08:707,44.992,0.387,0.100,1.330,-14.349,109.803,-8.640
13:39:08:734,45.019,0.135,0.068,0.179,-13.949,109.092,-5.680
13:39:08:76,45.046,0.085,-0.012,-0.015,-13.991,107.443,-4.158
13:39:08:815,45.101,-0.062,0.007,-0.040,-14.703,106.551,-2.497
13:39:08:847,45.132,-0.175,0.009,0.211,-15.442,106.910,-1.228
13:39:08:847,45.132,-0.027,0.009,0.184,-15.855,106.149,-0.447
13:39:08:848,45.133,0.016,0.019,-0.209,-16.527,103.423,1.021
13:39:08:894,45.179,-0.084,0.023,0.033,-16.950,102.330,1.979
13:39:08:895,45.180,-0.159,0.051,0.007,-17.419,101.075,3.489
13:39:08:918,45.203,-0.161,0.006,-0.317,-17.512,99.543,4.712
13:39:08:973,45.258,-0.068,0.003,-0.163,-17.465,97.479,6.759
13:39:08:973,45.259,-0.030,0.153,0.007,-17.371,96.226,9.089
13:39:08:997,45.282,-0.047,0.199,-0.060,-17.272,95.034,10.880
13:39:09:025,45.310,0.123,0.294,-0.382,-16.955,92.719,13.984
13:39:09:05,45.335,0.104,0.242,-0.569,-16.550,91.251,16.417
13:39:09:076,45.361,-0.094,0.402,-0.634,-15.855,89.635,20.862
13:39:09:102,45.387,-0.253,0.452,-0.847,-14.908,88.244,26.241
13:39:09:128,45.413,-0.334,0.490,-1.197,-13.698,86.585,30.029
13:39:09:154,45.439,-0.705,-0.071,-1.980,-10.216,82.415,35.909
13:39:09:18,45.465,-0.243,0.452,-1.431,-7.668,79.717,40.251
13:39:09:207,45.492,-0.137,0.036,-1.515,-3.663,77.369,46.831
13:39:09:234,45.519,-0.099,-0.200,-0.126,-0.676,76.555,50.063
13:39:09:288,45.573,-0.079,-0.652,-0.398,3.896,74.874,51.887
13:39:09:289,45.574,0.228,-1.405,-0.491,5.764,73.181,51.162
13:39:09:313,45.598,0.120,-1.142,-0.359,4.311,72.689,49.423
13:39:09:367,45.652,0.071,-0.718,-0.270,-0.196,72.958,45.373
13:39:09:367,45.653,0.202,-0.780,-0.361,-2.888,73.107,41.389
13:39:09:392,45.677,0.228,-0.611,-0.371,-6.341,73.473,33.807
13:39:09:417,45.702,0.343,-0.374,-0.541,-9.568,74.950,24.816
13:39:09:472,45.757,0.318,0.000,-0.519,-11.543,77.051,17.980
13:39:09:472,45.757,0.297,0.614,0.033,-13.762,82.067,6.396
13:39:09:524,45.810,-0.172,1.154,0.647,-14.398,86.828,-2.011
13:39:09:525,45.810,-0.313,1.267,2.516,-13.857,95.449,-13.917
13:39:09:548,45.834,-0.603,-0.217,2.688,-12.011,102.214,-22.858
13:39:09:632,45.917,0.066,-0.607,2.796,-11.870,104.636,-25.876
13:39:09:633,45.918,0.608,-0.542,1.936,-12.200,106.445,-25.470
13:39:09:634,45.919,1.301,1.392,-2.510,-12.075,107.297,-22.475
13:39:09:653,45.938,-0.020,0.519,1.187,-11.527,108.498,-18.490
13:39:09:679,45.964,-0.185,0.127,0.349,-11.811,110.336,-14.314
13:39:09:708,45.993,-0.421,-0.792,1.136,-12.279,113.891,-8.777
13:39:09:733,46.018,0.014,0.308,0.260,-13.101,114.042,-4.963
13:39:09:759,46.044,0.147,0.090,0.089,-13.060,112.129,-3.177
13:39:09:813,46.098,-0.081,0.032,-0.003,-13.726,110.385,-1.183
13:39:09:814,46.099,-0.090,0.020,0.052,-14.232,110.307,-0.093
13:39:09:836,46.121,-0.192,0.071,0.190,-14.618,109.117,1.335
13:39:09:863,46.148,-0.001,0.012,-0.222,-14.750,106.462,2.720
13:39:09:947,46.232,-0.027,0.039,0.062,-14.881,105.556,3.588
13:39:09:948,46.233,-0.117,0.022,-0.051,-15.016,104.084,4.871
13:39:09:949,46.234,-0.023,0.003,-0.104,-15.007,102.685,5.792
13:39:09:968,46.253,-0.052,0.019,-0.140,-14.858,101.072,7.331
13:39:09:994,46.279,0.040,0.098,-0.141,-14.687,100.246,8.528
13:39:10:02,46.305,0.126,0.173,-0.151,-14.294,99.186,10.593
13:39:10:075,46.361,-0.039,0.180,-0.352,-13.746,98.155,13.066
13:39:10:076,46.361,-0.173,0.270,-0.321,-13.301,97.597,15.063
13:39:10:1,46.385,-0.002,0.242,-0.542,-12.418,95.900,18.659
13:39:10:126,46.411,-0.089,0.497,-0.671,-11.611,95.168,21.482
13:39:10:153,46.438,-0.287,0.510,-0.912,-9.635,93.498,26.039
13:39:10:207,46.492,-0.951,-0.120,-1.771,-6.034,90.656,30.809
13:39:10:208,46.493,-0.506,0.326,-1.316,-3.856,89.139,34.516
13:39:10:29,46.576,-0.955,0.205,-1.180,-1.450,88.397,41.089
13:39:10:291,46.576,-0.179,-0.665,-0.887,0.087,89.004,44.954
13:39:10:291,46.576,-0.506,-0.008,0.158,3.103,90.718,48.424
13:39:10:309,46.595,-0.647,-1.248,-0.475,4.543,91.807,49.103
13:39:10:337,46.623,-0.332,-1.409,-0.466,4.089,92.704,48.417
13:39:10:391,46.676,-0.273,-0.850,-0.316,2.327,94.665,45.229
13:39:10:391,46.676,-0.445,-0.796,-0.271,0.844,96.542,41.833
13:39:10:415,46.700,-0.512,-0.621,-0.243,-1.006,99.584,34.887
13:39:10:44,46.725,-0.593,-0.357,-0.307,-2.234,101.691,29.259
13:39:10:466,46.752,-0.679,-0.136,-0.330,-4.164,105.706,19.412
13:39:10:493,46.778,-0.604,0.744,0.211,-6.439,111.439,8.507
13:39:10:519,46.804,-0.515,1.524,1.117,-7.883,116.327,0.834
13:39:10:545,46.830,0.282,1.418,1.732,-9.203,124.893,-10.485
13:39:10:572,46.857,0.534,0.316,2.689,-8.965,130.877,-17.059
13:39:10:598,46.883,1.603,-0.607,2.635,-8.110,138.007,-23.608
13:39:10:624,46.909,1.707,-0.554,1.523,-8.731,141.508,-25.005
13:39:10:65,46.935,0.509,0.483,-0.428,-9.189,142.077,-22.692
13:39:10:735,47.020,1.772,-0.398,0.512,-8.623,144.724,-17.863
13:39:10:735,47.021,0.957,0.633,1.008,-9.014,145.940,-14.224
13:39:10:736,47.021,-0.039,-1.030,0.782,-9.845,149.736,-8.452
13:39:10:756,47.041,0.427,0.094,0.443,-10.826,152.405,-4.391
13:39:10:782,47.067,0.391,0.296,0.031,-11.176,151.724,-2.628
13:39:10:808,47.093,-0.127,0.003,-0.078,-11.641,149.962,-0.715
13:39:10:836,47.121,-0.023,0.054,0.042,-11.997,149.886,0.468
13:39:10:862,47.147,0.122,0.117,0.184,-12.238,149.754,2.152
13:39:10:916,47.201,-0.055,0.002,-0.153,-12.215,148.393,3.143
13:39:10:917,47.202,-0.018,0.037,-0.004,-12.324,146.944,4.553
13:39:10:94,47.225,-0.114,0.033,0.033,-12.418,145.845,5.925
13:39:10:965,47.251,-0.047,0.037,0.014,-12.444,144.885,6.875
13:39:10:992,47.277,-0.112,0.052,-0.145,-12.316,143.520,8.377
13:39:11:018,47.303,-0.059,0.103,-0.098,-12.157,142.870,9.474
13:39:11:044,47.329,-0.082,0.118,-0.088,-11.870,142.397,11.311
13:39:11:07,47.356,-0.198,0.165,-0.194,-11.457,141.979,13.319
13:39:11:1,47.385,-0.277,0.181,-0.184,-11.078,141.754,14.868
13:39:11:1,47.385,-0.442,0.250,-0.324,-10.331,141.921,17.732
13:39:11:177,47.462,-0.600,0.304,-0.303,-9.714,141.743,20.094
13:39:11:204,47.489,-0.802,0.372,-0.248,-8.502,142.032,24.218
13:39:11:205,47.490,-1.286,0.058,-0.304,-6.321,141.252,28.658
13:39:11:231,47.516,-1.756,-0.115,-0.283,-4.302,140.338,31.921
13:39:11:231,47.516,-0.971,0.775,-0.168,-1.774,139.152,37.888
13:39:11:254,47.539,-1.164,-0.220,-0.519,-0.403,139.129,42.471
13:39:11:308,47.594,-1.101,-0.720,-0.417,2.272,140.113,47.763
13:39:11:365,47.650,-0.677,-0.777,0.084,4.237,141.625,49.388
13:39:11:366,47.651,-0.904,-1.473,0.014,4.831,143.022,50.103
13:39:11:366,47.651,-0.459,-1.097,-0.034,3.458,144.910,48.191
13:39:11:385,47.670,-0.524,-0.789,0.009,1.455,146.487,45.640
13:39:11:411,47.696,-0.488,-0.562,0.269,-1.795,149.708,40.118
13:39:11:496,47.781,-0.543,-0.458,0.117,-3.640,152.009,35.295
13:39:11:496,47.782,-0.536,-0.313,0.231,-5.814,155.711,26.250
13:39:11:497,47.783,-0.555,0.269,0.342,-7.185,158.742,19.454
13:39:11:547,47.832,-0.032,0.968,0.505,-9.503,164.700,8.102
13:39:11:547,47.832,0.815,1.303,0.861,-11.190,171.280,-3.849
13:39:11:598,47.883,1.940,1.096,0.609,-11.895,175.884,-11.658
13:39:11:599,47.884,2.538,0.131,0.705,-12.313,-178.336,-20.769
13:39:11:624,47.909,2.619,-0.698,0.233,-12.875,-176.270,-24.619
13:39:11:647,47.933,2.056,-0.454,-0.062,-14.186,-175.231,-24.864
13:39:11:674,47.959,-0.970,0.892,-0.557,-14.337,-173.984,-20.457
13:39:11:76,48.045,-1.530,0.573,-1.843,-13.385,-172.021,-17.940
13:39:11:76,48.045,0.627,0.555,0.063,-13.244,-169.124,-13.177
13:39:11:76,48.045,0.743,0.530,0.153,-13.828,-166.492,-9.636
13:39:11:78,48.065,0.913,-0.650,0.564,-14.267,-163.338,-5.614
13:39:11:806,48.091,0.075,0.225,-0.130,-14.693,-164.485,-2.716
13:39:11:832,48.118,-0.079,0.080,-0.188,-14.836,-166.271,-1.305
13:39:11:857,48.143,-0.209,-0.036,-0.004,-15.468,-166.581,0.417
13:39:11:913,48.198,0.253,0.025,0.092,-15.881,-165.889,1.348
13:39:11:939,48.224,0.169,0.045,0.052,-16.285,-166.957,2.638
13:39:11:967,48.252,-0.298,0.024,-0.058,-16.633,-169.810,3.964
13:39:11:967,48.252,-0.218,0.022,-0.018,-16.959,-170.787,4.836
13:39:11:989,48.274,0.036,0.018,0.195,-17.259,-171.846,6.262
13:39:12:094,48.379,-0.319,0.004,0.100,-17.222,-173.286,7.338
13:39:12:182,48.467,-0.138,0.012,-0.023,-17.157,-174.716,9.048
13:39:12:183,48.468,-0.091,0.083,-0.029,-17.103,-175.170,10.285
13:39:12:184,48.469,-0.203,0.081,-0.057,-16.922,-176.506,12.387
13:39:12:184,48.469,-0.379,0.172,-0.099,-16.605,-177.776,14.959
13:39:12:234,48.519,-0.378,0.276,-0.030,-16.224,-178.636,16.976
13:39:12:234,48.520,-0.558,0.224,-0.030,-15.502,-179.466,20.644
13:39:12:235,48.521,-0.572,0.337,0.056,-14.881,179.952,23.510
13:39:12:236,48.521,-0.911,0.415,0.073,-13.414,178.754,28.165
13:39:12:251,48.537,-1.367,0.161,0.298,-10.381,176.236,32.964
13:39:12:277,48.563,-1.736,-0.312,0.646,-7.545,174.140,36.371
13:39:12:333,48.618,-1.117,0.406,0.220,-4.490,172.385,42.641
13:39:12:334,48.619,-1.778,-0.407,0.452,-2.822,172.389,46.913
13:39:12:358,48.643,-1.046,-1.073,0.034,-1.154,173.866,51.209
13:39:12:384,48.669,0.144,-0.107,0.386,0.911,174.801,52.437
13:39:12:438,48.723,-0.400,-1.141,0.752,0.690,176.077,52.828
13:39:12:439,48.724,-0.574,-1.402,0.157,-1.699,177.141,51.011
13:39:12:492,48.777,-0.324,-1.004,0.195,-3.745,178.282,48.258
13:39:12:492,48.777,-0.420,-0.842,0.280,-6.397,-179.442,42.103
13:39:12:514,48.799,-0.198,-0.589,0.412,-7.725,-177.658,36.814
13:39:12:54,48.825,-0.623,-0.377,0.232,-9.412,-174.979,27.226
13:39:12:567,48.852,-0.439,0.358,0.291,-10.858,-171.253,15.840
13:39:12:593,48.878,-0.128,0.777,0.272,-11.880,-168.061,7.538
13:39:12:619,48.904,0.883,1.538,0.247,-13.413,-161.621,-5.223
13:39:12:646,48.932,2.066,0.983,-0.467,-13.981,-156.333,-13.138
13:39:12:73,49.015,2.420,0.183,-0.471,-13.965,-149.916,-22.272
13:39:12:73,49.015,2.675,-1.043,-1.479,-14.336,-147.315,-25.596
13:39:12:731,49.016,1.669,-0.266,-0.768,-15.072,-146.001,-25.076
13:39:12:779,49.065,-1.751,1.468,0.618,-15.152,-144.589,-20.048
13:39:12:78,49.065,1.652,0.387,-0.836,-14.143,-142.898,-17.273
13:39:12:862,49.147,0.988,0.688,-0.723,-14.850,-140.921,-11.315
13:39:12:863,49.148,0.174,-0.747,0.647,-15.238,-136.918,-6.110
13:39:12:864,49.149,0.723,0.226,-0.877,-15.760,-135.326,-3.492
13:39:12:881,49.166,-0.121,0.077,-0.415,-15.422,-136.961,-0.611
13:39:12:908,49.193,-0.322,0.041,-0.162,-15.398,-137.875,0.820
13:39:12:934,49.219,-0.041,-0.022,-0.121,-15.771,-137.949,2.707
13:39:12:962,49.247,0.063,0.046,0.030,-16.060,-138.531,3.763
13:39:13:018,49.304,-0.141,0.034,0.136,-16.317,-140.762,5.273
13:39:13:018,49.304,-0.086,0.011,0.022,-16.488,-142.062,6.550
13:39:13:039,49.324,-0.006,0.055,0.026,-16.608,-142.811,7.382
13:39:13:066,49.351,-0.096,0.033,0.060,-16.818,-144.508,8.843
13:39:13:092,49.377,-0.159,0.049,0.101,-16.854,-145.706,9.930
13:39:13:146,49.432,-0.219,0.092,0.044,-16.707,-147.374,11.757
13:39:13:147,49.433,-0.352,0.125,0.007,-16.322,-148.631,13.895
13:39:13:172,49.457,-0.321,0.171,0.096,-16.008,-149.213,15.589
13:39:13:226,49.511,-0.297,0.227,0.247,-15.392,-149.928,18.658
13:39:13:226,49.511,-0.487,0.205,0.194,-14.830,-150.550,21.113
13:39:13:249,49.534,-0.644,0.285,0.342,-13.728,-151.331,25.422
13:39:13:275,49.560,-0.738,0.402,0.464,-12.735,-151.912,28.558
13:39:13:301,49.587,-1.060,-0.014,1.228,-9.968,-153.685,33.437
13:39:13:328,49.613,-1.042,0.059,1.126,-6.568,-155.822,39.028
13:39:13:356,49.642,-0.730,0.748,0.940,-4.522,-156.664,43.367
13:39:13:357,49.643,-0.684,-0.458,0.717,-1.941,-155.530,49.275
13:39:13:495,49.781,0.131,0.000,0.540,-0.482,-154.227,51.581
13:39:13:495,49.781,-0.162,-1.123,0.656,0.451,-152.233,52.651
13:39:13:496,49.781,-0.181,-1.206,0.494,-0.855,-149.841,51.328
13:39:13:497,49.782,-0.126,-1.025,0.434,-2.391,-147.742,48.998
13:39:13:516,49.802,0.075,-0.712,0.492,-4.833,-143.817,43.658
13:39:13:516,49.802,0.082,-0.661,0.551,-6.011,-141.135,38.841
13:39:13:567,49.852,0.121,-0.525,0.712,-7.768,-136.960,30.078
13:39:13:568,49.853,0.141,0.031,0.816,-10.033,-131.414,19.780
13:39:13:621,49.906,0.383,0.730,0.479,-11.515,-126.738,12.151
13:39:13:621,49.906,1.012,1.225,-0.238,-13.153,-119.182,-0.022
13:39:13:643,49.928,1.312,1.365,-0.675,-13.843,-114.392,-8.046
13:39:13:669,49.954,1.210,0.656,-2.366,-14.808,-108.233,-18.842
13:39:13:697,49.982,1.361,-0.025,-2.151,-15.555,-105.839,-23.989
13:39:13:723,50.008,0.661,-0.925,-2.407,-17.254,-103.975,-27.407
13:39:13:748,50.033,0.065,-0.340,-1.835,-17.886,-102.538,-24.987
13:39:13:8,50.085,0.432,0.118,-1.491,-16.218,-97.106,-17.768
13:39:13:828,50.113,-0.141,0.601,0.375,-16.586,-95.148,-14.081
13:39:13:854,50.139,0.480,-0.796,0.121,-16.856,-90.694,-9.171
13:39:13:91,50.196,0.025,0.231,-0.367,-17.380,-89.256,-5.484
13:39:13:91,50.196,-0.199,0.158,-0.294,-17.474,-91.362,-3.603
13:39:13:932,50.217,-0.046,0.016,0.162,-18.356,-93.162,-1.598
13:39:13:958,50.243,0.067,0.013,-0.019,-18.909,-92.999,-0.517
13:39:13:984,50.269,0.230,0.085,-0.126,-19.338,-93.946,0.947
13:39:14:011,50.297,-0.284,-0.023,0.116,-19.597,-95.693,1.970
13:39:14:037,50.323,-0.043,0.047,-0.016,-20.032,-97.108,3.365
13:39:14:064,50.349,0.059,0.033,0.060,-20.447,-98.520,4.875
13:39:14:089,50.375,-0.042,-0.002,0.130,-20.619,-99.777,6.035
13:39:14:116,50.401,-0.131,0.032,0.065,-20.715,-101.283,7.958
13:39:14:142,50.427,-0.207,0.133,0.049,-20.700,-102.109,9.419
13:39:14:168,50.453,-0.264,0.199,0.141,-20.540,-103.496,11.800
13:39:14:311,50.596,-0.187,0.162,0.254,-20.322,-104.857,14.575
13:39:14:311,50.596,-0.111,0.207,0.403,-20.051,-105.606,16.735
13:39:14:311,50.596,-0.367,0.234,0.485,-19.500,-106.669,20.568
13:39:14:311,50.596,-0.223,0.437,0.652,-18.956,-107.232,23.565
13:39:14:415,50.700,-0.129,0.480,0.877,-17.489,-108.582,28.449
13:39:14:417,50.702,0.123,-0.042,1.884,-15.528,-110.526,31.949
13:39:14:417,50.702,-0.002,-0.091,1.927,-12.390,-113.608,37.839
13:39:14:417,50.703,0.217,0.292,1.431,-10.524,-114.871,44.756
13:39:14:52,50.805,-0.287,-0.493,0.843,-9.345,-114.570,48.534
13:39:14:521,50.806,0.041,-0.484,0.149,-6.648,-113.721,51.576
13:39:14:521,50.806,0.153,-0.557,0.412,-5.028,-113.885,51.905
13:39:14:521,50.806,-0.066,-1.468,0.542,-4.120,-113.984,50.713
13:39:14:538,50.823,-0.095,-0.959,0.316,-5.891,-113.733,46.980
13:39:14:539,50.824,-0.030,-0.816,0.451,-7.666,-113.099,43.251
13:39:14:562,50.847,-0.009,-0.626,0.371,-10.012,-111.966,36.185
13:39:14:589,50.874,-0.182,-0.439,0.446,-11.494,-111.170,30.482
13:39:14:615,50.900,-0.188,-0.093,0.575,-13.902,-108.947,20.554
