Time,Second,AccelerationX,AccelerationY,AccelerationZ,EulerAnglesX,EulerAnglesY,EulerAnglesZ
13:33:21:281,0.000,-0.041,0.012,-0.016,1.446,-12.729,-26.638
13:33:21:281,0.000,-0.040,0.014,-0.008,1.453,-12.694,-26.574
13:33:21:281,0.000,-0.043,-0.005,0.006,1.442,-12.729,-26.512
13:33:21:282,0.001,-0.025,-0.012,0.002,1.441,-12.814,-26.480
13:33:21:306,0.025,-0.014,-0.001,0.008,1.445,-12.965,-26.415
13:33:21:306,0.025,0.002,0.000,-0.007,1.459,-13.052,-26.342
13:33:21:307,0.026,0.009,-0.001,0.000,1.501,-13.141,-26.193
13:33:21:308,0.027,0.023,0.014,-0.009,1.518,-13.244,-26.051
13:33:21:436,0.154,0.029,0.023,0.006,1.520,-13.325,-25.988
13:33:21:436,0.154,0.025,-0.003,0.006,1.529,-13.360,-25.931
13:33:21:436,0.154,0.018,-0.018,0.015,1.543,-13.308,-25.900
13:33:21:463,0.182,0.007,-0.029,0.008,1.570,-13.193,-25.818
13:33:21:464,0.182,0.015,-0.009,0.009,1.577,-13.175,-25.779
13:33:21:465,0.183,0.022,-0.008,0.006,1.619,-13.231,-25.729
13:33:21:465,0.184,0.010,-0.017,0.008,1.673,-13.276,-25.674
13:33:21:559,0.278,0.010,-0.021,-0.002,1.705,-13.343,-25.649
13:33:21:597,0.316,-0.003,-0.033,0.013,1.745,-13.487,-25.652
13:33:21:597,0.316,-0.019,-0.014,0.012,1.779,-13.657,-25.655
13:33:21:597,0.316,-0.044,0.003,0.013,1.779,-13.847,-25.658
13:33:21:598,0.316,-0.049,0.060,0.033,1.659,-14.558,-25.766
13:33:21:674,0.393,-0.033,0.076,0.043,1.483,-15.188,-25.990
13:33:21:674,0.393,0.035,0.083,0.089,1.056,-17.090,-26.556
13:33:21:675,0.394,0.041,0.118,0.104,0.719,-18.498,-27.063
13:33:21:676,0.395,0.042,0.161,0.103,0.195,-20.456,-28.078
13:33:21:699,0.418,0.030,0.199,0.097,-0.369,-22.147,-29.429
13:33:21:7,0.419,0.051,0.151,0.115,-0.748,-23.110,-30.467
13:33:21:7,0.419,0.070,0.164,0.129,-1.267,-24.300,-32.040
13:33:21:701,0.420,0.140,0.211,0.095,-1.503,-25.024,-33.135
13:33:21:726,0.445,0.190,0.136,0.059,-1.760,-26.081,-34.984
13:33:21:727,0.445,0.218,0.105,0.131,-2.208,-26.865,-37.044
13:33:21:728,0.446,0.214,0.060,0.224,-2.478,-27.176,-38.552
13:33:21:729,0.447,0.305,-0.132,0.157,-2.372,-27.666,-41.092
13:33:21:804,0.522,0.377,-0.235,0.151,-2.207,-28.023,-42.966
13:33:21:805,0.523,0.369,-0.277,0.168,-2.341,-28.438,-45.984
13:33:21:805,0.524,0.398,-0.351,0.230,-2.856,-28.180,-49.163
13:33:21:806,0.525,0.454,-0.401,0.240,-2.927,-27.481,-51.255
13:33:21:823,0.541,0.592,-0.299,0.098,-2.360,-25.373,-54.200
13:33:21:99,0.709,0.576,-0.227,0.034,-2.058,-23.336,-56.119
13:33:21:991,0.709,0.565,0.075,-0.131,-1.574,-18.989,-59.104
13:33:21:991,0.709,0.488,0.435,-0.272,-1.310,-13.833,-62.315
13:33:21:992,0.710,0.338,0.772,-0.437,0.003,-9.533,-64.455
13:33:22:016,0.734,0.035,0.911,-0.405,2.873,-3.364,-68.335
13:33:22:016,0.734,-0.342,0.807,-0.474,6.638,0.228,-71.209
13:33:22:016,0.734,-0.632,0.306,-0.439,15.414,4.275,-75.874
13:33:22:016,0.735,-0.558,-0.160,-0.221,22.584,6.456,-80.551
13:33:22:119,0.838,-0.498,-0.300,-0.099,23.764,7.756,-83.386
13:33:22:12,0.839,-0.486,-0.544,-0.010,20.391,9.455,-86.542
13:33:22:121,0.839,-0.415,-0.620,0.050,3.730,10.507,-87.770
13:33:22:122,0.840,-0.371,-0.721,0.167,-48.154,11.739,-88.630
13:33:22:144,0.862,-0.297,-0.856,0.262,-65.884,12.631,-88.761
13:33:22:144,0.863,-0.279,-0.980,0.212,-65.493,12.945,-88.487
13:33:22:144,0.863,-0.333,-0.926,0.089,-57.694,12.861,-87.356
13:33:22:251,0.970,-0.257,-0.465,0.099,-53.329,12.261,-86.066
13:33:22:251,0.970,-0.443,0.373,0.252,-49.374,10.234,-83.568
13:33:22:251,0.970,-0.641,1.114,-0.220,-39.891,6.762,-80.262
13:33:22:252,0.971,-0.474,1.428,-0.301,-34.043,3.298,-77.358
13:33:22:267,0.986,0.240,1.667,0.375,-37.345,-3.519,-73.685
13:33:22:382,1.100,0.433,0.492,0.075,-40.336,-7.206,-72.975
13:33:22:383,1.101,0.535,0.173,-0.059,-41.600,-11.198,-72.445
13:33:22:383,1.102,0.831,-0.342,-0.022,-40.860,-13.450,-71.886
13:33:22:384,1.103,0.788,-0.306,0.169,-40.252,-14.392,-71.313
13:33:22:401,1.119,0.660,-0.352,0.278,-39.301,-14.984,-70.961
13:33:22:514,1.232,0.514,-0.498,0.296,-38.922,-14.814,-71.258
13:33:22:514,1.233,0.360,-0.761,0.167,-38.916,-13.757,-72.403
13:33:22:515,1.234,0.312,-0.906,0.124,-39.966,-11.684,-74.054
13:33:22:516,1.235,0.364,-0.789,0.066,-40.999,-9.674,-75.296
13:33:22:563,1.281,0.658,-0.278,-0.081,-42.742,-5.800,-77.284
13:33:22:563,1.282,1.087,0.915,-0.199,-42.886,-2.703,-78.547
13:33:22:563,1.282,0.642,1.458,-0.446,-38.967,2.726,-80.425
13:33:22:61,1.329,-0.297,1.893,-0.740,-13.755,9.679,-82.438
13:33:22:986,1.705,-0.177,1.437,-1.128,20.260,13.540,-83.995
13:33:22:986,1.705,-1.053,0.202,-0.133,58.429,18.166,-87.028
13:33:22:987,1.706,-0.703,-0.079,-0.032,77.018,20.739,-89.125
13:33:22:988,1.707,-0.561,-0.692,0.317,125.006,24.303,-91.250
13:33:23:116,1.835,-0.438,-0.992,0.353,157.092,26.245,-91.633
13:33:23:117,1.836,-0.469,-1.171,0.226,-117.551,27.658,-90.878
13:33:23:118,1.837,-0.335,-0.968,0.160,-79.986,27.281,-89.073
13:33:23:119,1.837,-0.173,-0.744,0.160,-73.429,26.343,-87.779
13:33:23:221,1.940,-0.134,-0.724,0.109,-67.668,24.476,-86.221
13:33:23:222,1.941,-0.175,-0.355,-0.006,-63.925,22.973,-85.412
13:33:23:223,1.942,-0.178,0.114,-0.010,-58.295,20.185,-84.609
13:33:23:224,1.943,-0.334,1.366,-0.134,-48.686,16.452,-83.907
13:33:23:248,1.967,-0.432,1.509,-0.367,-43.837,13.300,-83.132
13:33:23:249,1.967,-0.030,1.143,0.062,-51.398,8.265,-82.792
13:33:23:25,1.968,0.193,0.376,0.219,-56.880,5.710,-83.394
13:33:23:25,1.969,0.215,0.105,0.139,-62.782,2.518,-84.368
13:33:23:379,2.098,0.335,-0.194,0.077,-64.756,-0.240,-84.632
13:33:23:38,2.099,0.386,-0.271,0.094,-64.500,-1.831,-84.422
13:33:23:381,2.100,0.416,-0.621,0.044,-62.568,-3.215,-83.859
13:33:23:381,2.100,0.419,-0.760,0.047,-60.722,-3.542,-83.452
13:33:23:397,2.116,0.392,-0.801,0.053,-59.058,-2.774,-83.175
13:33:23:511,2.229,0.399,-0.801,0.001,-58.914,-0.046,-83.671
13:33:23:512,2.230,0.530,-0.391,-0.143,-59.524,2.743,-84.354
13:33:23:512,2.230,0.678,0.004,-0.307,-61.519,7.817,-85.635
13:33:23:513,2.231,0.716,1.286,-0.559,-57.934,11.763,-86.109
13:33:23:538,2.257,-0.008,1.668,-0.608,-36.323,18.138,-86.441
13:33:23:538,2.257,-0.522,1.469,-0.488,15.465,23.921,-86.975
13:33:23:538,2.257,-0.517,0.679,-0.367,54.463,26.991,-87.665
13:33:23:539,2.258,-0.511,-0.015,-0.109,78.945,30.376,-89.234
13:33:23:608,2.327,-0.405,-0.191,-0.003,89.430,32.292,-89.968
13:33:23:643,2.361,-0.379,-0.476,0.198,95.314,34.771,-90.243
13:33:23:643,2.361,-0.374,-0.975,0.218,92.837,36.223,-90.119
13:33:23:643,2.362,-0.328,-1.072,0.224,87.016,36.522,-89.907
13:33:23:644,2.363,-0.272,-1.169,0.228,36.323,36.575,-89.444
13:33:23:668,2.386,-0.212,-0.907,0.162,-30.004,35.800,-89.141
13:33:23:669,2.387,-0.246,-0.535,0.133,-49.295,34.170,-88.786
13:33:23:669,2.388,-0.297,0.212,0.096,-51.248,31.644,-88.608
13:33:23:67,2.389,-0.490,1.370,0.075,-44.158,29.254,-88.319
13:33:23:8,2.518,-0.543,1.452,-0.154,-16.234,25.021,-87.076
13:33:23:8,2.518,-0.243,0.857,0.023,-28.837,21.784,-86.801
13:33:23:801,2.519,0.050,0.357,-0.092,-55.533,17.319,-87.710
13:33:23:802,2.520,0.467,0.058,-0.239,-70.323,14.684,-88.361
13:33:23:878,2.597,0.462,0.038,-0.164,-79.435,11.170,-88.815
13:33:23:878,2.597,0.527,-0.204,-0.109,-80.696,8.382,-88.818
13:33:23:879,2.598,0.437,-0.516,-0.067,-80.856,7.062,-88.817
13:33:23:88,2.599,0.477,-0.713,-0.022,-80.984,5.958,-88.797
13:33:23:904,2.622,0.347,-0.769,0.040,-81.605,6.002,-88.837
13:33:23:904,2.623,0.319,-0.769,0.043,-82.770,7.506,-89.003
13:33:23:905,2.624,0.288,-0.516,-0.100,-83.086,10.642,-89.174
13:33:23:906,2.625,0.391,-0.343,-0.351,-82.447,13.465,-89.259
13:33:23:922,2.640,0.520,1.083,-0.724,-68.639,18.554,-88.553
13:33:23:947,2.666,-0.237,1.381,-0.597,-38.668,22.524,-87.528
13:33:24:033,2.752,-0.196,1.371,-0.665,9.623,28.710,-86.502
13:33:24:033,2.752,-0.376,0.712,-0.583,45.016,34.552,-86.754
13:33:24:033,2.752,-0.296,0.210,-0.372,57.873,38.245,-87.202
13:33:24:052,2.771,-0.361,0.048,-0.138,63.065,43.176,-87.618
13:33:24:166,2.885,-0.361,-0.328,0.085,64.465,46.282,-87.678
13:33:24:167,2.885,-0.381,-0.648,0.234,64.297,50.307,-87.483
13:33:24:167,2.886,-0.351,-0.860,0.256,58.476,52.776,-87.142
13:33:24:184,2.902,-0.097,-0.970,0.287,30.522,54.057,-86.650
13:33:24:21,2.929,-0.150,-0.613,0.166,21.036,53.976,-86.523
13:33:24:324,3.042,-0.226,-0.326,0.107,22.006,53.520,-86.506
13:33:24:324,3.043,-0.433,0.641,0.044,15.608,52.155,-86.559
13:33:24:325,3.044,-0.564,1.395,0.077,10.032,50.845,-86.018
13:33:24:326,3.045,-0.321,1.193,0.075,3.879,48.658,-85.026
13:33:24:343,3.061,-0.084,0.538,0.051,-1.248,47.052,-84.853
13:33:24:368,3.086,-0.024,0.352,-0.105,-7.389,44.833,-85.253
13:33:24:452,3.171,-0.071,0.162,-0.196,-18.727,42.897,-85.614
13:33:24:452,3.171,0.282,-0.057,-0.417,-26.255,41.743,-85.711
13:33:24:453,3.172,0.318,-0.236,-0.294,-32.033,40.565,-85.846
13:33:24:473,3.191,0.286,-0.470,-0.252,-28.596,40.262,-85.988
13:33:24:612,3.331,0.270,-0.645,-0.224,-26.644,40.538,-86.113
13:33:24:613,3.332,0.243,-0.754,-0.204,-26.541,41.782,-86.359
13:33:24:614,3.333,0.219,-0.534,-0.259,-26.342,43.336,-86.392
13:33:24:615,3.334,0.170,-0.479,-0.290,-23.500,46.824,-86.325
13:33:24:632,3.351,-0.035,-0.259,-0.581,-9.109,51.737,-86.182
13:33:24:633,3.352,-0.047,0.224,-0.743,1.079,55.632,-85.764
13:33:24:744,3.463,-0.537,1.098,-0.568,18.013,62.114,-84.410
13:33:24:744,3.463,-0.546,1.172,-0.532,25.283,66.648,-83.634
13:33:24:745,3.463,-0.535,0.951,-0.411,31.309,72.912,-83.440
13:33:24:746,3.464,-0.445,0.386,-0.147,40.165,78.770,-84.009
13:33:24:869,3.588,-0.372,0.086,-0.085,45.174,82.370,-84.506
13:33:24:87,3.589,-0.308,-0.200,0.181,47.889,87.154,-85.076
13:33:24:902,3.620,-0.254,-0.426,0.330,48.677,90.023,-85.254
13:33:24:902,3.621,-0.189,-0.648,0.400,48.116,93.314,-85.453
13:33:24:903,3.622,-0.110,-0.874,0.411,45.344,95.191,-85.634
13:33:24:919,3.637,0.011,-0.722,0.300,32.111,95.836,-85.672
13:33:24:946,3.665,0.011,-0.321,0.245,25.872,95.583,-85.733
13:33:25:004,3.722,-0.035,-0.008,0.239,19.767,94.598,-85.978
13:33:25:004,3.723,-0.181,0.695,0.351,6.320,92.642,-85.976
13:33:25:005,3.723,-0.179,1.097,0.249,-9.155,90.672,-85.557
13:33:25:024,3.742,-0.009,0.949,0.123,-24.801,87.331,-85.033
13:33:25:051,3.769,-0.072,0.597,-0.078,-28.723,85.322,-85.066
13:33:25:133,3.852,-0.056,0.245,-0.293,-33.289,82.948,-85.475
13:33:25:133,3.852,-0.018,0.077,-0.338,-35.525,81.673,-85.703
13:33:25:16,3.879,0.029,-0.124,-0.337,-39.137,80.015,-85.984
13:33:25:16,3.879,0.065,-0.299,-0.311,-42.399,78.635,-86.174
13:33:25:267,3.986,0.025,-0.398,-0.295,-44.614,77.980,-86.263
13:33:25:267,3.986,0.015,-0.576,-0.277,-49.000,77.753,-86.447
13:33:25:268,3.987,0.053,-0.595,-0.253,-51.868,78.353,-86.615
13:33:25:289,4.007,0.039,-0.571,-0.283,-54.564,80.499,-86.913
13:33:25:29,4.008,-0.100,-0.451,-0.350,-52.840,84.085,-87.324
13:33:25:314,4.033,-0.257,-0.142,-0.471,-47.015,87.128,-87.567
13:33:25:339,4.058,-0.419,0.662,-0.477,-22.920,92.227,-87.382
13:33:25:394,4.113,-0.590,1.090,-0.217,2.385,95.689,-86.687
13:33:25:42,4.139,-0.622,1.057,-0.057,20.274,100.702,-85.719
13:33:25:421,4.139,-0.531,0.693,0.087,27.218,105.447,-85.347
13:33:25:445,4.163,-0.440,0.384,0.214,31.685,108.594,-85.308
13:33:25:559,4.278,-0.201,-0.044,0.270,31.295,112.927,-85.320
13:33:25:56,4.278,0.068,-0.304,0.248,23.566,115.418,-85.224
13:33:25:56,4.279,0.174,-0.444,0.297,8.115,118.339,-84.900
13:33:25:56,4.279,0.136,-0.654,0.273,-6.520,119.743,-84.508
13:33:25:575,4.294,0.156,-0.679,0.246,-14.258,119.965,-84.381
13:33:25:601,4.320,0.200,-0.813,0.216,-18.114,119.789,-84.574
13:33:25:656,4.375,0.141,-0.710,0.270,-15.895,119.313,-84.968
13:33:25:683,4.402,0.026,-0.318,0.300,-9.431,117.775,-85.812
13:33:25:683,4.402,-0.031,0.412,0.447,-4.158,114.936,-86.761
13:33:25:706,4.425,-0.133,0.838,0.493,-7.662,112.219,-86.877
13:33:25:788,4.506,0.152,1.118,0.125,-31.905,107.385,-86.307
13:33:25:817,4.535,0.143,0.879,0.063,-38.394,104.400,-86.015
13:33:25:817,4.536,-0.164,0.570,-0.183,-43.704,100.804,-86.270
13:33:25:818,4.537,-0.199,0.239,-0.486,-47.542,98.888,-86.562
13:33:25:837,4.556,-0.195,-0.054,-0.463,-51.717,96.420,-86.811
13:33:25:863,4.582,-0.032,-0.176,-0.474,-57.211,94.400,-87.079
13:33:25:89,4.609,0.018,-0.500,-0.323,-59.067,93.438,-87.188
13:33:25:974,4.693,0.057,-0.698,-0.299,-61.589,92.620,-87.305
13:33:25:976,4.694,0.047,-0.842,-0.241,-64.463,92.569,-87.415
13:33:25:976,4.695,0.003,-0.813,-0.280,-68.569,93.567,-87.628
13:33:25:995,4.714,-0.035,-0.535,-0.302,-70.439,96.058,-87.874
13:33:26:021,4.740,-0.128,-0.392,-0.312,-70.466,98.490,-88.151
13:33:26:076,4.795,-0.400,0.478,-0.447,-63.697,102.799,-88.379
13:33:26:077,4.796,-0.648,1.365,0.025,-41.015,105.696,-87.950
13:33:26:102,4.821,-0.675,1.308,0.261,-3.866,109.623,-86.868
13:33:26:128,4.846,-0.486,0.881,0.219,5.378,113.196,-86.697
13:33:26:153,4.871,-0.118,0.379,0.259,13.288,115.698,-87.294
13:33:26:237,4.956,0.180,-0.191,0.192,33.408,119.534,-88.245
13:33:26:237,4.956,0.299,-0.410,0.250,42.396,121.683,-88.551
13:33:26:238,4.957,0.229,-0.687,0.350,43.169,123.819,-88.459
13:33:26:257,4.976,0.110,-0.823,0.331,26.538,124.712,-88.169
13:33:26:283,5.002,0.061,-0.863,0.298,4.267,124.543,-87.869
13:33:26:312,5.030,0.044,-0.762,0.235,-20.856,123.586,-87.443
13:33:26:367,5.086,0.051,-0.609,0.251,-30.064,122.568,-87.318
13:33:26:367,5.086,-0.018,-0.409,0.315,-42.379,120.192,-87.281
13:33:26:388,5.107,0.000,0.824,0.438,-57.903,116.097,-87.070
13:33:26:444,5.163,0.095,1.436,0.417,-64.020,112.708,-86.703
13:33:26:444,5.163,0.254,1.293,0.102,-68.118,107.659,-86.297
13:33:26:526,5.244,0.026,0.730,0.063,-68.076,104.885,-86.256
13:33:26:526,5.245,-0.233,0.299,-0.145,-68.955,101.379,-86.546
13:33:26:527,5.246,-0.144,-0.019,-0.277,-69.299,98.195,-86.687
13:33:26:546,5.265,-0.079,-0.121,-0.364,-69.834,96.065,-86.709
13:33:26:572,5.291,-0.009,-0.302,-0.368,-70.458,93.066,-86.726
13:33:26:713,5.431,-0.020,-0.689,-0.403,-70.472,91.554,-86.716
13:33:26:714,5.432,0.027,-0.829,-0.313,-70.874,90.388,-86.838
13:33:26:714,5.433,0.015,-0.875,-0.314,-72.990,90.795,-87.279
13:33:26:715,5.434,-0.015,-0.692,-0.347,-74.871,92.129,-87.711
13:33:26:819,5.538,-0.176,-0.504,-0.340,-77.161,95.596,-88.413
13:33:26:819,5.538,-0.360,-0.018,-0.395,-76.034,98.474,-88.530
13:33:26:819,5.538,-0.464,1.437,-0.042,-61.951,102.630,-87.521
13:33:26:82,5.539,-0.483,1.432,0.426,-44.408,106.060,-86.077
13:33:26:867,5.585,-0.364,1.154,0.189,-43.049,107.851,-85.747
13:33:26:868,5.586,0.016,0.430,0.157,-38.481,110.951,-85.969
13:33:26:868,5.587,0.133,-0.169,0.147,-32.219,113.029,-86.173
13:33:26:947,5.665,0.105,-0.341,0.204,-20.984,115.725,-86.120
13:33:26:948,5.666,0.018,-0.721,0.339,-16.499,117.619,-85.819
13:33:26:948,5.667,-0.008,-0.819,0.321,-19.075,118.305,-85.604
13:33:26:967,5.686,0.025,-0.931,0.304,-24.601,118.536,-85.374
13:33:26:993,5.712,0.051,-0.934,0.272,-27.461,118.071,-85.279
13:33:27:077,5.795,0.005,-0.675,0.287,-32.082,116.320,-85.131
13:33:27:077,5.796,-0.069,-0.216,0.338,-39.468,113.265,-84.970
13:33:27:078,5.797,0.094,0.741,0.403,-46.093,110.352,-84.743
13:33:27:098,5.816,0.284,1.465,0.365,-52.622,105.211,-84.037
13:33:27:124,5.843,0.218,1.251,0.185,-54.115,101.515,-83.526
13:33:27:238,5.957,-0.059,0.789,0.146,-50.945,96.749,-83.106
13:33:27:239,5.957,-0.240,0.454,-0.053,-48.300,94.053,-83.233
13:33:27:24,5.958,-0.309,0.036,-0.253,-45.144,90.312,-83.460
13:33:27:241,5.959,-0.119,-0.093,-0.396,-46.194,86.654,-83.275
13:33:27:259,5.977,-0.003,-0.340,-0.441,-48.232,84.517,-83.189
13:33:27:259,5.978,0.030,-0.548,-0.404,-50.149,82.498,-83.297
13:33:27:281,6.000,0.125,-0.868,-0.493,-51.484,81.893,-83.611
13:33:27:365,6.084,0.131,-0.957,-0.437,-53.712,82.533,-84.425
13:33:27:366,6.085,0.047,-0.898,-0.475,-54.551,85.074,-85.315
13:33:27:367,6.086,0.012,-0.787,-0.465,-55.704,87.671,-85.947
13:33:27:386,6.105,-0.184,-0.121,-0.661,-54.245,92.171,-86.380
13:33:27:412,6.131,-0.406,1.031,-0.811,-44.639,95.345,-85.807
13:33:27:492,6.211,-0.775,1.560,0.080,-21.765,100.531,-84.238
13:33:27:626,6.344,-0.469,1.655,0.039,0.982,106.060,-83.674
13:33:27:658,6.377,-0.578,0.746,0.346,28.251,109.517,-83.993
13:33:27:659,6.377,-0.235,0.080,0.454,50.140,114.024,-85.190
13:33:27:66,6.378,-0.014,-0.156,0.387,52.463,116.325,-86.039
13:33:27:66,6.379,0.117,-0.355,0.443,49.882,119.361,-86.901
13:33:27:675,6.394,0.311,-0.672,0.414,47.449,120.991,-87.588
13:33:27:842,6.560,0.326,-1.154,0.381,50.685,121.143,-88.035
13:33:27:843,6.561,0.332,-1.349,0.409,53.325,119.919,-88.693
13:33:27:844,6.562,0.215,-1.245,0.418,45.977,118.367,-89.113
13:33:27:886,6.605,0.060,-0.410,0.551,-74.087,110.843,-89.301
13:33:27:947,6.666,0.210,0.522,0.765,-60.368,106.936,-87.996
13:33:27:947,6.666,-0.174,1.171,1.095,-21.517,99.975,-84.338
13:33:27:948,6.667,-0.259,1.677,0.689,-10.302,94.885,-81.166
13:33:27:949,6.668,-0.451,1.448,-0.014,-6.542,88.744,-78.048
13:33:27:973,6.692,-0.106,0.423,-0.886,-25.731,80.795,-76.343
13:33:27:974,6.693,0.057,-0.062,-0.984,-28.780,76.868,-74.602
13:33:27:975,6.694,0.006,-0.425,-0.884,-25.771,75.587,-73.649
13:33:28:051,6.770,0.061,-0.681,-0.827,-20.738,74.940,-72.778
13:33:28:052,6.770,0.199,-0.988,-0.718,-18.197,75.584,-72.801
13:33:28:052,6.771,0.274,-1.033,-0.637,-17.289,76.820,-73.160
13:33:28:053,6.772,0.230,-0.958,-0.591,-16.173,79.821,-73.947
13:33:28:069,6.787,0.060,-0.673,-0.568,-15.481,82.526,-74.598
13:33:28:184,6.903,-0.180,-0.324,-0.545,-12.801,87.857,-75.616
13:33:28:184,6.903,-0.684,1.111,-0.998,-4.526,94.374,-76.088
13:33:28:184,6.903,-1.121,1.701,-0.290,4.589,98.954,-76.145
13:33:28:185,6.904,-1.319,1.835,0.285,15.455,105.121,-76.870
13:33:28:2,6.919,-1.100,0.977,0.563,26.284,109.224,-77.882
13:33:28:226,6.945,-0.835,-0.039,0.693,45.887,115.514,-80.085
13:33:28:253,6.971,0.019,0.080,0.670,51.450,118.780,-81.932
13:33:28:34,7.059,0.027,-0.195,0.616,53.664,123.244,-84.396
13:33:28:34,7.059,0.279,-0.884,0.718,58.635,127.606,-86.180
13:33:28:341,7.060,0.353,-1.088,0.667,58.991,130.016,-86.871
13:33:28:359,7.078,0.451,-1.199,0.503,53.031,132.929,-86.921
13:33:28:469,7.188,0.477,-1.177,0.373,45.527,134.401,-86.487
13:33:28:47,7.188,0.465,-1.034,0.217,22.807,135.097,-85.361
13:33:28:471,7.189,0.425,-0.644,0.262,-10.740,133.580,-83.246
13:33:28:493,7.212,0.209,0.857,0.185,-24.016,131.128,-80.995
13:33:28:493,7.212,0.104,1.486,0.416,-23.669,126.864,-77.451
13:33:28:515,7.234,0.045,1.555,0.451,-14.129,124.301,-74.185
13:33:28:602,7.320,-0.412,1.242,-0.110,-0.131,121.720,-71.271
13:33:28:602,7.321,-0.272,-0.239,0.256,2.344,119.744,-71.719
13:33:28:602,7.321,-0.600,0.104,-0.199,-3.207,117.240,-72.037
13:33:28:62,7.339,-0.579,-0.067,-0.708,-11.936,113.956,-71.870
13:33:28:646,7.365,-0.463,-0.441,-0.572,-12.180,113.046,-71.607
13:33:28:726,7.445,-0.433,-0.620,-0.453,-7.576,113.302,-71.338
13:33:28:757,7.476,-0.388,-1.014,-0.392,-4.157,114.674,-71.182
13:33:28:757,7.476,-0.306,-0.980,-0.383,-4.215,116.095,-71.120
13:33:28:758,7.477,-0.302,-0.843,-0.419,-6.950,119.186,-71.293
13:33:28:778,7.496,-0.373,-0.774,-0.444,-8.443,122.128,-71.480
13:33:28:804,7.522,-0.635,-0.299,-0.368,-8.084,127.803,-71.720
13:33:28:889,7.608,-1.372,1.031,-0.315,-6.058,134.325,-71.970
13:33:28:889,7.608,-1.486,1.843,0.154,-4.633,138.858,-71.795
13:33:28:89,7.609,-0.686,2.172,0.889,0.670,147.168,-71.883
13:33:28:909,7.628,-0.310,0.700,0.941,8.717,152.595,-72.865
13:33:28:934,7.653,0.052,0.183,0.928,22.741,159.841,-75.575
13:33:29:019,7.738,0.325,0.048,0.581,19.497,164.268,-78.952
13:33:29:02,7.739,0.445,-0.454,0.506,15.689,167.084,-80.816
13:33:29:021,7.739,0.692,-0.846,0.525,17.559,171.080,-82.675
13:33:29:069,7.788,0.661,-1.073,0.311,16.543,173.156,-83.399
13:33:29:07,7.789,0.690,-1.233,0.107,9.518,175.488,-83.679
13:33:29:182,7.900,0.594,-1.220,-0.050,-3.114,176.659,-83.249
13:33:29:182,7.900,0.524,-1.164,-0.139,-13.478,176.609,-82.670
13:33:29:182,7.901,0.425,-0.799,-0.166,-23.820,175.229,-81.028
13:33:29:182,7.901,0.333,-0.337,-0.068,-25.553,173.425,-79.166
13:33:29:197,7.916,0.474,1.182,0.228,-22.472,169.673,-75.370
13:33:29:224,7.943,0.137,1.867,0.217,-13.829,165.654,-70.353
13:33:29:278,7.997,-0.405,1.973,-0.198,-12.029,162.456,-67.734
13:33:29:336,8.054,-0.491,0.660,0.120,-11.504,159.179,-67.652
13:33:29:336,8.054,-0.670,0.108,0.041,-12.384,157.205,-68.348
13:33:29:336,8.054,-0.728,-0.172,-0.118,-16.083,154.160,-68.997
13:33:29:356,8.075,-0.724,-0.382,-0.198,-17.203,152.360,-69.380
13:33:29:439,8.158,-0.645,-0.594,-0.203,-15.966,152.014,-69.617
13:33:29:44,8.159,-0.592,-0.862,-0.212,-13.974,152.452,-70.213
13:33:29:441,8.160,-0.555,-0.995,-0.213,-13.411,154.616,-70.821
13:33:29:49,8.208,-0.497,-1.036,-0.182,-13.688,157.386,-71.774
13:33:29:49,8.208,-0.578,-0.770,-0.045,-14.393,161.843,-72.694
13:33:29:627,8.346,-0.649,-0.529,0.041,-14.662,165.672,-73.327
13:33:29:628,8.347,-1.031,0.632,0.260,-12.594,172.176,-73.983
13:33:29:628,8.347,-0.597,1.697,0.853,-7.907,176.678,-74.117
13:33:29:629,8.348,-0.095,1.951,1.090,1.053,-176.375,-74.485
13:33:29:758,8.476,0.278,1.346,1.092,7.466,-171.665,-75.117
13:33:29:759,8.477,0.630,0.354,0.485,18.821,-165.824,-77.640
13:33:29:759,8.478,0.528,-0.080,0.070,10.421,-161.451,-81.056
13:33:29:76,8.479,0.539,-0.262,-0.100,0.944,-158.563,-83.066
13:33:29:783,8.502,0.610,-0.839,-0.271,-9.304,-154.527,-85.235
13:33:29:784,8.503,0.551,-1.034,-0.270,-12.067,-152.469,-86.057
13:33:29:785,8.504,0.531,-1.056,-0.350,-19.336,-150.475,-86.415
13:33:29:786,8.505,0.460,-1.145,-0.389,-26.105,-149.711,-85.922
13:33:29:915,8.634,0.505,-1.187,-0.346,-28.332,-149.921,-85.234
13:33:29:916,8.635,0.452,-0.981,-0.191,-31.090,-151.467,-83.436
13:33:29:917,8.635,0.348,-0.329,-0.094,-32.602,-153.441,-81.717
13:33:29:918,8.636,0.334,1.962,0.096,-29.344,-157.776,-78.356
13:33:29:986,8.705,0.421,1.543,0.196,-14.293,-162.448,-74.051
13:33:30:022,8.741,-0.084,1.810,0.209,-9.816,-166.156,-71.229
13:33:30:022,8.741,-0.447,0.647,0.281,-11.445,-171.119,-70.626
13:33:30:023,8.742,-0.586,-0.069,0.292,-15.169,-173.698,-71.539
13:33:30:023,8.742,-0.605,-0.020,0.241,-22.552,-177.595,-72.285
13:33:30:039,8.758,-0.688,-0.424,0.050,-26.841,179.412,-72.651
13:33:30:178,8.897,-0.632,-0.619,-0.019,-26.718,178.270,-72.852
13:33:30:178,8.897,-0.526,-0.885,-0.081,-24.842,177.360,-73.202
13:33:30:179,8.898,-0.532,-0.924,-0.161,-24.115,177.222,-73.560
13:33:30:18,8.899,-0.448,-0.928,-0.131,-23.568,178.231,-74.339
13:33:30:199,8.918,-0.499,-0.776,0.015,-23.590,-179.129,-75.341
13:33:30:199,8.918,-0.589,-0.316,0.207,-23.298,-176.566,-75.938
13:33:30:335,9.054,-0.809,1.385,0.528,-19.565,-171.936,-76.087
13:33:30:336,9.055,-0.073,1.792,0.962,-13.142,-168.285,-75.688
13:33:30:337,9.055,0.371,1.589,0.781,2.180,-161.857,-75.703
13:33:30:338,9.056,0.528,0.444,0.780,19.711,-156.863,-77.359
13:33:30:433,9.152,0.432,0.121,0.581,23.022,-154.468,-79.187
13:33:30:573,9.292,0.381,0.061,0.059,10.805,-151.685,-81.906
13:33:30:574,9.293,0.450,-0.325,-0.092,-0.574,-149.448,-83.331
13:33:30:574,9.293,0.503,-0.596,-0.158,-14.318,-146.276,-84.779
13:33:30:574,9.293,0.458,-0.947,-0.250,-21.615,-144.006,-85.363
13:33:30:599,9.318,0.391,-1.076,-0.317,-29.637,-141.509,-85.571
13:33:30:6,9.319,0.230,-1.168,-0.372,-34.035,-139.646,-85.208
13:33:30:6,9.319,0.173,-1.130,-0.406,-36.545,-139.358,-84.651
13:33:30:6,9.319,0.183,-0.696,-0.358,-39.056,-140.259,-83.217
13:33:30:703,9.422,0.198,-0.340,-0.291,-39.761,-141.859,-81.772
13:33:30:704,9.423,0.275,1.338,-0.233,-37.387,-145.958,-78.752
13:33:30:755,9.474,-0.293,0.758,0.101,-20.795,-156.693,-73.163
13:33:30:756,9.475,-0.259,0.222,0.338,-20.668,-158.696,-73.637
13:33:30:756,9.475,-0.319,-0.040,0.449,-22.148,-161.607,-73.720
13:33:30:757,9.476,-0.495,-0.261,0.378,-23.171,-163.771,-73.539
13:33:31:019,9.737,-0.523,-0.424,0.255,-22.384,-164.436,-73.425
13:33:31:019,9.737,-0.411,-0.720,0.156,-20.264,-164.398,-73.440
13:33:31:019,9.738,-0.386,-0.862,0.119,-19.501,-163.867,-73.605
13:33:31:021,9.739,-0.345,-0.992,0.020,-19.828,-162.288,-74.020
13:33:31:176,9.894,-0.413,-0.853,0.059,-21.477,-159.775,-74.506
13:33:31:176,9.895,-0.434,-0.704,0.156,-22.400,-157.504,-74.841
13:33:31:177,9.896,-0.594,0.072,0.483,-21.840,-153.196,-75.166
13:33:31:178,9.896,-0.252,1.380,0.729,-19.226,-150.001,-75.013
13:33:31:308,10.027,0.191,1.702,0.720,-13.094,-144.306,-74.434
13:33:31:308,10.027,0.367,1.688,0.743,-5.575,-138.987,-75.032
13:33:31:308,10.027,0.575,0.505,0.505,3.611,-135.338,-76.357
13:33:31:309,10.028,0.578,0.152,0.273,7.098,-131.042,-79.029
13:33:31:438,10.156,0.380,0.132,-0.146,-2.591,-128.759,-80.785
13:33:31:438,10.157,0.341,-0.337,-0.237,-11.878,-124.776,-82.827
13:33:31:439,10.158,0.371,-0.654,-0.358,-22.886,-121.281,-84.308
13:33:31:44,10.159,0.303,-0.793,-0.368,-32.963,-119.372,-84.913
13:33:31:671,10.390,0.159,-0.958,-0.355,-44.261,-117.090,-85.123
13:33:31:672,10.391,0.058,-1.017,-0.370,-48.768,-116.133,-84.918
13:33:31:672,10.391,-0.014,-0.893,-0.386,-52.793,-115.931,-84.101
13:33:31:703,10.421,-0.017,-0.642,-0.314,-53.248,-116.626,-83.219
13:33:31:703,10.421,0.084,0.030,-0.169,-50.474,-118.499,-81.505
13:33:31:703,10.422,0.217,1.123,-0.349,-42.680,-120.984,-79.469
13:33:31:704,10.422,0.109,1.295,-0.170,-33.916,-123.025,-77.569
13:33:31:834,10.553,-0.106,1.384,-0.079,-25.232,-126.300,-75.007
13:33:31:835,10.554,0.104,0.494,-0.151,-24.425,-128.105,-74.757
13:33:31:835,10.554,-0.134,0.319,0.221,-26.393,-129.832,-75.430
13:33:31:835,10.554,-0.161,0.076,0.371,-28.689,-132.121,-75.739
13:33:31:859,10.578,-0.125,-0.084,0.415,-29.598,-132.601,-75.866
13:33:31:86,10.579,-0.239,-0.407,0.438,-29.174,-133.752,-75.871
13:33:31:86,10.579,-0.243,-0.558,0.341,-28.583,-133.303,-75.740
13:33:31:86,10.579,-0.294,-0.765,0.321,-28.208,-133.106,-75.500
13:33:31:963,10.681,-0.287,-0.820,0.317,-28.584,-130.964,-75.404
13:33:31:964,10.682,-0.268,-0.763,0.347,-28.979,-129.171,-75.497
13:33:31:964,10.683,-0.206,-0.544,0.464,-29.020,-124.200,-75.931
13:33:31:965,10.684,-0.110,-0.243,0.616,-28.125,-120.795,-76.397
13:33:31:989,10.708,-0.015,0.679,0.838,-25.545,-115.250,-76.988
13:33:31:99,10.709,0.558,1.429,0.726,-17.310,-109.559,-77.077
13:33:31:991,10.710,0.743,1.583,0.280,-7.432,-105.366,-77.310
13:33:31:991,10.710,0.592,1.122,-0.204,6.447,-99.586,-78.817
13:33:32:069,10.787,0.516,0.158,-0.273,14.454,-96.081,-80.473
13:33:32:07,10.789,0.338,-0.001,-0.358,11.038,-91.924,-82.992
13:33:32:071,10.789,0.076,-0.129,-0.411,-15.710,-88.580,-84.908
13:33:32:071,10.790,0.041,-0.465,-0.471,-29.677,-86.489,-85.722
13:33:32:094,10.813,0.041,-0.823,-0.461,-43.123,-84.100,-86.324
13:33:32:095,10.814,-0.018,-0.934,-0.423,-49.875,-83.015,-86.327
13:33:32:096,10.814,-0.144,-0.955,-0.349,-56.402,-82.143,-85.781
13:33:32:097,10.815,-0.185,-0.869,-0.266,-57.718,-82.223,-84.638
13:33:32:139,10.857,-0.161,-0.723,-0.264,-56.316,-82.786,-83.576
13:33:32:22,10.939,-0.090,-0.351,-0.150,-50.412,-83.445,-81.684
13:33:32:252,10.970,0.032,0.819,-0.294,-45.201,-84.824,-80.328
13:33:32:253,10.972,0.183,1.426,-0.559,-32.523,-87.212,-77.680
13:33:32:254,10.972,0.016,1.529,-0.107,-25.165,-91.084,-74.709
13:33:32:254,10.973,-0.039,0.911,0.119,-26.147,-93.648,-74.167
13:33:32:281,10.999,-0.135,0.407,0.330,-31.559,-96.945,-74.767
13:33:32:281,10.999,-0.146,0.122,0.386,-34.859,-98.891,-75.178
13:33:32:281,11.000,-0.042,-0.216,0.427,-36.911,-101.343,-75.576
13:33:32:281,11.000,-0.062,-0.338,0.486,-36.960,-102.202,-75.767
13:33:32:361,11.080,-0.022,-0.498,0.356,-35.957,-103.728,-75.819
13:33:32:362,11.081,-0.020,-0.663,0.404,-35.292,-104.026,-75.722
13:33:32:362,11.081,-0.108,-0.705,0.335,-35.831,-103.990,-75.731
13:33:32:362,11.081,-0.138,-0.703,0.344,-36.633,-102.272,-76.007
13:33:32:376,11.095,-0.107,-0.573,0.434,-36.752,-100.527,-76.324
13:33:32:377,11.096,0.063,-0.261,0.545,-36.755,-96.287,-77.149
13:33:32:4,11.119,0.213,0.514,0.752,-36.229,-91.719,-78.131
13:33:32:484,11.203,0.496,1.235,0.619,-33.116,-88.126,-78.567
13:33:32:485,11.204,0.516,1.541,0.075,-18.784,-81.867,-78.925
13:33:32:486,11.205,0.377,1.437,-0.358,-8.131,-78.113,-79.739
13:33:32:505,11.223,0.464,0.372,-0.405,11.572,-73.092,-81.829
13:33:32:531,11.250,0.344,0.033,-0.427,21.400,-69.109,-84.476
13:33:32:645,11.363,0.028,-0.055,-0.463,4.459,-66.888,-86.143
13:33:32:646,11.364,-0.188,-0.435,-0.477,-43.548,-63.450,-88.001
13:33:32:646,11.365,-0.292,-0.753,-0.443,-67.197,-61.721,-88.788
13:33:32:647,11.366,-0.274,-1.000,-0.373,-80.896,-59.715,-89.340
13:33:32:664,11.383,-0.291,-1.128,-0.314,-82.010,-58.814,-89.234
13:33:32:689,11.408,-0.260,-1.109,-0.281,-79.688,-58.752,-88.819
13:33:32:773,11.492,-0.254,-0.785,-0.257,-73.754,-59.731,-87.590
13:33:32:774,11.493,-0.208,-0.534,-0.332,-69.395,-61.043,-86.514
13:33:32:774,11.493,-0.132,0.385,-0.268,-60.873,-64.007,-84.484
13:33:32:794,11.512,-0.002,1.257,-0.714,-48.320,-68.006,-81.840
13:33:32:907,11.626,-0.047,1.620,-0.371,-42.219,-71.593,-79.313
13:33:32:908,11.627,-0.284,1.491,0.018,-42.824,-77.401,-76.742
13:33:32:909,11.628,-0.175,0.975,0.227,-45.304,-80.455,-76.812
13:33:32:91,11.628,0.036,0.309,0.213,-48.590,-84.703,-77.475
13:33:32:954,11.673,0.225,-0.083,0.365,-49.417,-88.552,-77.782
13:33:32:954,11.673,0.194,-0.335,0.464,-49.818,-90.929,-77.888
13:33:33:037,11.756,0.078,-0.490,0.482,-49.067,-93.648,-77.734
13:33:33:038,11.756,0.029,-0.761,0.451,-47.609,-94.837,-77.562
13:33:33:038,11.756,-0.032,-0.887,0.479,-45.601,-95.629,-77.480
13:33:33:056,11.775,-0.052,-0.857,0.523,-45.146,-95.061,-77.801
13:33:33:082,11.801,-0.066,-0.732,0.495,-45.658,-93.927,-78.262
13:33:33:249,11.968,0.020,-0.472,0.549,-46.892,-90.865,-79.323
13:33:33:25,11.968,0.268,0.583,0.741,-47.544,-88.306,-80.162
13:33:33:251,11.969,0.350,1.182,0.537,-45.760,-83.860,-80.986
13:33:33:252,11.970,0.392,1.813,-0.177,-40.348,-80.462,-81.103
13:33:33:328,12.047,0.364,1.732,-0.365,-33.644,-75.832,-81.784
13:33:33:329,12.048,0.289,0.508,-0.526,-23.708,-71.658,-83.936
13:33:33:329,12.048,0.108,0.004,-0.489,-25.131,-69.199,-85.775
13:33:33:479,12.198,-0.287,-0.477,-0.382,-81.848,-63.563,-89.380
13:33:33:503,12.222,-0.277,-0.753,-0.375,-93.448,-60.975,-90.295
13:33:33:611,12.329,-0.183,-0.929,-0.344,-92.718,-59.921,-90.279
13:33:33:669,12.388,-0.169,-0.983,-0.359,-88.437,-59.665,-89.817
13:33:33:67,12.389,-0.208,-1.045,-0.394,-80.457,-60.031,-88.667
13:33:33:671,12.390,-0.242,-0.807,-0.354,-75.683,-60.799,-87.744
13:33:33:671,12.390,-0.177,-0.684,-0.298,-68.476,-62.672,-86.134
13:33:33:745,12.464,-0.176,0.679,-0.288,-59.218,-65.753,-83.931
13:33:33:746,12.464,-0.147,1.492,-0.651,-51.160,-68.677,-81.916
13:33:33:746,12.465,-0.123,1.608,-0.332,-40.221,-74.141,-77.964
13:33:33:776,12.495,-0.158,1.548,0.011,-37.896,-77.979,-75.992
13:33:33:777,12.495,-0.052,0.512,0.113,-38.892,-81.935,-76.019
13:33:33:777,12.495,0.106,0.190,0.333,-41.355,-85.814,-76.532
13:33:33:777,12.495,0.171,-0.070,0.297,-42.327,-88.461,-76.474
13:33:33:932,12.650,0.161,-0.424,0.322,-42.749,-91.911,-76.324
13:33:33:932,12.651,0.041,-0.748,0.455,-41.970,-93.493,-76.183
13:33:33:933,12.652,-0.040,-0.820,0.459,-40.367,-94.857,-75.959
13:33:33:935,12.653,-0.116,-0.914,0.517,-39.391,-94.878,-76.141
13:33:34:064,12.783,-0.102,-0.912,0.573,-39.077,-94.108,-76.608
13:33:34:065,12.784,-0.017,-0.723,0.641,-39.362,-91.997,-77.645
13:33:34:066,12.784,0.200,-0.244,0.609,-39.849,-90.012,-78.463
13:33:34:067,12.785,0.381,0.807,0.809,-40.388,-86.543,-79.643
13:33:34:221,12.939,0.551,1.544,0.216,-34.574,-82.111,-79.999
13:33:34:222,12.940,0.533,1.813,-0.292,-28.026,-78.648,-80.243
13:33:34:222,12.941,0.391,1.012,-0.465,-17.352,-73.410,-81.714
13:33:34:223,12.942,0.260,0.468,-0.536,-11.070,-70.361,-83.543
13:33:34:326,13.045,0.023,0.067,-0.508,-29.950,-66.672,-86.359
13:33:34:326,13.045,-0.196,-0.379,-0.473,-58.166,-64.270,-87.986
13:33:34:327,13.046,-0.282,-0.603,-0.507,-85.060,-60.854,-89.689
13:33:34:328,13.047,-0.249,-0.931,-0.426,-97.443,-58.623,-90.511
13:33:34:354,13.073,-0.250,-1.049,-0.340,-96.805,-57.861,-90.551
13:33:34:354,13.073,-0.261,-1.096,-0.319,-90.082,-57.890,-90.009
13:33:34:354,13.073,-0.277,-1.013,-0.289,-84.610,-58.227,-89.336
13:33:34:355,13.073,-0.265,-0.754,-0.291,-76.526,-59.714,-87.988
13:33:34:432,13.151,-0.127,-0.331,-0.323,-68.194,-62.035,-86.416
13:33:34:432,13.151,-0.068,0.626,-0.329,-60.671,-64.467,-84.950
13:33:34:432,13.151,0.048,1.543,-0.621,-45.024,-69.119,-81.302
13:33:34:433,13.152,-0.333,1.690,-0.026,-40.667,-72.966,-78.649
13:33:34:457,13.176,-0.186,1.212,0.083,-39.035,-77.404,-77.206
13:33:34:457,13.176,0.045,0.394,0.397,-40.710,-80.346,-77.948
13:33:34:458,13.177,0.148,0.015,0.274,-41.978,-82.273,-78.188
13:33:34:459,13.178,0.155,-0.213,0.355,-43.744,-85.080,-78.223
13:33:34:615,13.333,0.093,-0.449,0.443,-44.098,-86.601,-78.158
13:33:34:616,13.334,0.043,-0.571,0.414,-42.884,-88.127,-77.998
13:33:34:616,13.335,0.034,-0.713,0.355,-41.731,-88.730,-78.026
13:33:34:617,13.336,0.000,-0.768,0.437,-41.653,-88.488,-78.230
13:33:34:636,13.354,-0.008,-0.690,0.436,-42.311,-86.961,-78.828
13:33:34:637,13.355,0.022,-0.455,0.465,-43.384,-85.282,-79.462
13:33:34:719,13.438,0.145,-0.282,0.481,-44.697,-81.907,-80.670
13:33:34:72,13.439,0.451,0.808,0.570,-43.956,-77.959,-81.523
13:33:34:721,13.439,0.469,1.364,0.350,-40.515,-74.922,-81.759
13:33:34:722,13.440,0.424,1.421,-0.239,-31.653,-70.082,-82.376
13:33:34:74,13.458,0.398,1.030,-0.364,-24.203,-67.001,-83.391
13:33:34:741,13.459,0.221,0.240,-0.481,-14.864,-62.575,-85.561
13:33:34:768,13.487,0.092,0.104,-0.455,-24.947,-59.895,-86.952
13:33:34:768,13.487,-0.137,-0.137,-0.378,-64.363,-56.008,-88.667
13:33:34:85,13.569,-0.219,-0.485,-0.431,-87.252,-52.585,-89.846
13:33:34:851,13.570,-0.199,-0.721,-0.462,-95.023,-50.890,-90.303
13:33:34:851,13.570,-0.162,-0.910,-0.393,-96.336,-49.936,-90.453
13:33:34:852,13.571,-0.253,-1.000,-0.286,-93.548,-49.565,-90.306
13:33:34:897,13.615,-0.281,-1.020,-0.221,-88.813,-50.066,-89.862
13:33:34:898,13.616,-0.332,-0.871,-0.169,-82.950,-51.429,-88.965
13:33:35:007,13.726,-0.260,-0.508,-0.200,-77.798,-53.210,-87.957
13:33:35:008,13.727,-0.264,0.529,-0.245,-68.910,-56.638,-85.680
13:33:35:009,13.728,-0.197,1.262,-0.410,-60.953,-59.696,-83.622
13:33:35:009,13.728,-0.215,1.374,-0.231,-45.674,-63.753,-80.185
13:33:35:139,13.858,0.014,0.978,0.063,-37.142,-67.128,-78.606
13:33:35:14,13.858,0.052,0.615,0.046,-35.967,-68.632,-78.592
13:33:35:141,13.859,0.119,0.129,0.204,-38.424,-71.246,-78.645
13:33:35:141,13.860,0.187,-0.156,0.312,-40.251,-72.955,-78.516
13:33:35:188,13.907,0.231,-0.315,0.363,-41.217,-75.065,-78.255
13:33:35:189,13.908,0.112,-0.554,0.470,-40.034,-76.071,-77.806
13:33:35:189,13.908,0.079,-0.683,0.468,-38.769,-76.130,-77.535
13:33:35:268,13.986,0.107,-0.756,0.542,-37.418,-75.177,-77.549
13:33:35:268,13.986,0.172,-0.669,0.532,-37.122,-73.783,-77.879
13:33:35:269,13.987,0.230,-0.535,0.483,-36.348,-70.507,-78.700
13:33:35:288,14.006,0.421,-0.177,0.397,-34.404,-66.114,-79.696
13:33:35:314,14.033,0.633,0.502,0.348,-32.579,-62.809,-80.264
13:33:35:393,14.112,0.604,1.185,-0.051,-28.232,-57.488,-80.787
13:33:35:425,14.144,0.545,1.341,-0.288,-20.684,-53.561,-81.090
13:33:35:425,14.144,0.619,0.904,-0.524,4.199,-47.226,-82.101
13:33:35:428,14.146,0.106,0.466,-0.608,22.468,-41.617,-83.918
13:33:35:446,14.164,0.035,0.215,-0.496,31.349,-38.198,-85.111
13:33:35:691,14.409,-0.121,-0.115,-0.438,45.225,-33.388,-86.608
13:33:35:691,14.410,-0.271,-0.339,-0.423,52.589,-30.576,-87.422
13:33:35:692,14.411,-0.369,-0.585,-0.412,61.278,-27.250,-88.193
13:33:35:693,14.411,-0.406,-0.808,-0.361,60.603,-24.929,-88.399
13:33:35:717,14.436,-0.402,-0.885,-0.249,49.135,-24.169,-88.207
13:33:35:718,14.436,-0.403,-0.969,-0.131,16.187,-23.408,-87.495
13:33:35:718,14.437,-0.422,-1.026,-0.144,-6.043,-23.371,-86.789
13:33:35:719,14.438,-0.326,-0.687,-0.080,-32.908,-24.360,-85.433
13:33:35:74,14.459,-0.230,0.403,-0.115,-40.719,-26.523,-83.442
13:33:35:741,14.459,-0.191,1.176,-0.210,-38.406,-28.576,-81.672
13:33:35:741,14.460,-0.187,1.401,-0.327,-28.537,-31.663,-78.550
13:33:35:817,14.536,0.001,1.251,0.144,-26.509,-34.068,-76.915
13:33:35:818,14.537,0.080,0.787,0.173,-25.934,-36.451,-76.599
13:33:35:983,14.702,0.189,0.149,0.132,-26.708,-37.781,-76.998
13:33:35:983,14.702,0.289,-0.087,0.067,-29.505,-39.919,-77.443
13:33:35:983,14.702,0.381,-0.384,0.120,-31.821,-41.754,-77.642
13:33:35:984,14.703,0.377,-0.457,0.176,-32.102,-42.555,-77.519
13:33:35:998,14.717,0.319,-0.627,0.288,-30.940,-42.974,-77.073
13:33:36:111,14.830,0.380,-0.731,0.331,-29.649,-42.632,-76.762
13:33:36:111,14.830,0.424,-0.733,0.299,-27.734,-40.955,-76.578
13:33:36:112,14.831,0.500,-0.606,0.198,-25.926,-37.668,-76.790
13:33:36:113,14.831,0.519,-0.492,0.133,-24.399,-34.665,-77.106
13:33:36:242,14.961,0.722,0.068,-0.061,-21.310,-29.398,-77.601
13:33:36:243,14.962,0.797,1.127,-0.222,-18.809,-25.817,-77.726
13:33:36:244,14.963,0.403,1.629,-0.661,-11.436,-20.370,-77.833
13:33:36:245,14.963,0.092,1.268,-0.786,-1.096,-16.280,-78.181
13:33:36:4,15.119,-0.010,0.525,-0.866,19.977,-10.766,-79.790
13:33:36:401,15.119,-0.326,0.159,-0.451,29.031,-6.091,-82.456
13:33:36:402,15.120,-0.446,-0.160,-0.288,31.408,-3.177,-84.133
13:33:36:402,15.121,-0.508,-0.421,-0.182,33.683,0.845,-86.138
13:33:36:554,15.273,-0.500,-0.642,-0.150,29.959,3.960,-87.302
13:33:36:554,15.273,-0.516,-0.747,-0.087,22.009,5.551,-87.604
13:33:36:555,15.274,-0.519,-0.962,0.004,5.161,7.288,-87.344
13:33:36:583,15.302,-0.456,-1.059,0.031,-8.917,7.368,-86.853
13:33:36:584,15.302,-0.330,-0.988,0.108,-30.032,7.480,-85.865
13:33:36:585,15.303,-0.304,-0.729,0.194,-37.302,6.252,-84.417
13:33:36:585,15.304,-0.287,0.116,0.130,-38.363,4.932,-83.004
13:33:36:714,15.433,-0.569,0.982,-0.230,-33.032,1.971,-80.636
13:33:36:715,15.434,-0.277,1.500,-0.162,-28.155,-0.442,-78.830
13:33:36:716,15.435,-0.051,1.378,0.019,-21.657,-4.101,-76.405
13:33:36:716,15.435,0.115,0.653,-0.018,-17.980,-6.449,-76.228
13:33:36:821,15.540,0.303,0.380,-0.072,-17.976,-7.934,-76.764
13:33:36:821,15.540,0.268,0.073,-0.176,-20.639,-10.473,-77.344
13:33:36:822,15.540,0.348,-0.243,-0.124,-22.779,-12.074,-77.629
13:33:36:822,15.541,0.348,-0.369,-0.065,-24.294,-13.828,-77.881
13:33:36:846,15.564,0.353,-0.610,0.058,-24.466,-14.569,-77.896
13:33:36:846,15.565,0.390,-0.789,0.102,-24.458,-14.988,-77.845
13:33:36:847,15.566,0.432,-0.805,0.158,-25.400,-14.433,-77.817
13:33:36:848,15.567,0.421,-0.716,0.164,-25.821,-13.343,-77.883
13:33:36:926,15.645,0.430,-0.628,0.029,-25.093,-10.569,-78.232
13:33:36:926,15.645,0.493,-0.454,-0.096,-23.450,-8.081,-78.506
13:33:36:926,15.645,0.730,0.534,-0.458,-21.358,-3.726,-78.702
13:33:36:926,15.645,0.170,1.438,-0.613,-23.054,0.977,-78.826
13:33:36:953,15.671,-0.068,1.590,-0.613,-21.729,4.472,-78.926
13:33:36:953,15.671,-0.224,1.172,-0.591,-6.783,10.230,-79.895
13:33:36:953,15.672,-0.593,0.422,-0.212,8.993,13.807,-81.359
13:33:36:953,15.672,-0.448,0.058,-0.207,17.742,17.969,-83.903
13:33:36:97,15.689,-0.513,-0.240,-0.032,28.549,21.741,-86.077
13:33:36:971,15.690,-0.542,-0.465,0.111,36.129,23.993,-87.270
13:33:36:994,15.712,-0.490,-0.771,0.185,45.993,26.610,-88.437
13:33:37:05,15.768,-0.473,-0.890,0.208,45.554,27.725,-88.716
13:33:37:076,15.794,-0.415,-0.996,0.188,13.812,28.415,-88.533
13:33:37:076,15.795,-0.345,-1.043,0.151,-32.544,28.084,-87.801
13:33:37:128,15.846,-0.338,-0.990,0.193,-46.872,27.320,-87.066
13:33:37:129,15.847,-0.230,-0.585,0.210,-53.274,25.509,-85.706
13:33:37:204,15.923,-0.317,0.475,0.088,-51.756,23.896,-84.599
13:33:37:371,16.090,-0.428,1.262,-0.001,-41.947,20.358,-82.302
13:33:37:372,16.091,-0.408,1.540,-0.134,-23.450,16.026,-78.670
13:33:37:372,16.091,-0.142,1.423,0.094,-19.853,12.459,-76.487
13:33:37:373,16.092,0.137,0.967,-0.030,-19.595,8.433,-75.660
13:33:37:397,16.115,0.395,0.236,-0.146,-22.340,6.373,-76.216
13:33:37:398,16.116,0.287,-0.015,-0.208,-28.724,2.823,-76.734
13:33:37:399,16.117,0.520,-0.247,-0.177,-33.751,-0.573,-76.694
13:33:37:399,16.118,0.507,-0.290,-0.109,-34.512,-2.203,-76.485
13:33:37:5,16.219,0.424,-0.545,0.013,-32.606,-3.386,-76.141
13:33:37:5,16.219,0.400,-0.679,0.054,-30.670,-3.418,-76.067
13:33:37:501,16.219,0.353,-0.819,0.119,-28.609,-2.459,-76.333
13:33:37:553,16.272,0.353,-0.820,0.116,-27.781,-1.158,-76.723
13:33:37:554,16.273,0.467,-0.567,-0.044,-26.469,1.671,-77.460
13:33:37:555,16.274,0.554,-0.138,-0.256,-24.364,5.395,-78.268
13:33:37:687,16.406,0.109,1.328,-0.606,-15.406,12.690,-78.494
13:33:37:687,16.406,-0.216,1.344,-0.682,-9.291,15.795,-78.725
13:33:37:687,16.406,-0.368,1.102,-0.556,10.554,21.330,-79.471
13:33:37:688,16.406,-0.444,0.272,-0.351,35.937,26.592,-80.897
13:33:37:817,16.536,-0.639,0.184,-0.223,43.303,28.947,-82.538
13:33:37:817,16.536,-0.480,-0.224,-0.078,50.388,32.072,-84.681
13:33:37:818,16.537,-0.522,-0.607,0.147,54.494,33.992,-85.900
13:33:37:819,16.537,-0.471,-0.714,0.224,57.912,36.282,-87.313
13:33:37:923,16.642,-0.362,-0.869,0.269,55.620,37.559,-88.072
13:33:37:923,16.642,-0.306,-0.973,0.261,50.584,37.960,-88.197
13:33:37:923,16.642,-0.280,-1.022,0.196,30.280,37.774,-87.963
13:33:37:924,16.643,-0.184,-0.855,0.212,0.855,37.141,-87.536
13:33:37:939,16.658,-0.155,-0.590,0.170,-27.776,35.521,-86.572
13:33:37:971,16.689,-0.244,0.657,0.061,-35.474,32.965,-85.134
13:33:37:972,16.690,-0.430,1.250,0.015,-33.560,30.729,-83.857
13:33:38:105,16.824,-0.065,1.039,-0.104,-11.951,24.948,-79.137
13:33:38:106,16.825,0.088,0.635,-0.164,-7.359,22.214,-78.464
13:33:38:107,16.826,0.271,0.175,-0.185,-9.765,19.939,-79.087
13:33:38:107,16.826,0.244,-0.034,-0.214,-14.218,18.268,-79.296
13:33:38:184,16.902,0.319,-0.202,-0.310,-20.273,15.796,-79.356
13:33:38:184,16.903,0.432,-0.339,-0.295,-21.855,14.509,-79.223
13:33:38:185,16.904,0.403,-0.478,-0.174,-20.621,13.530,-78.797
13:33:38:186,16.905,0.479,-0.624,-0.118,-18.344,13.839,-78.581
13:33:38:201,16.920,0.515,-0.647,-0.118,-16.921,14.654,-78.611
13:33:38:23,16.948,0.492,-0.588,-0.157,-14.625,17.454,-79.119
13:33:38:315,17.034,0.411,-0.450,-0.300,-12.293,20.155,-79.691
13:33:38:315,17.034,0.435,-0.272,-0.500,-6.368,25.053,-80.607
13:33:38:316,17.035,0.107,0.817,-0.822,4.448,30.698,-80.670
13:33:38:317,17.036,-0.485,1.232,-0.665,13.426,34.670,-80.260
13:33:38:362,17.080,-0.603,1.262,-0.622,25.799,40.268,-80.089
13:33:38:362,17.081,-0.705,0.866,-0.529,35.459,43.933,-80.502
13:33:38:441,17.160,-0.590,0.180,-0.279,47.204,49.088,-82.003
13:33:38:441,17.160,-0.443,-0.012,-0.063,51.245,52.342,-83.090
13:33:38:466,17.185,-0.356,-0.171,0.051,54.008,56.824,-84.450
13:33:38:467,17.186,-0.317,-0.383,0.209,55.126,60.600,-85.412
13:33:38:521,17.239,-0.380,-0.805,0.315,55.572,62.558,-85.864
13:33:38:521,17.240,-0.376,-0.916,0.314,50.248,64.381,-86.140
13:33:38:624,17.343,-0.282,-0.973,0.314,39.272,65.009,-86.035
13:33:38:625,17.344,-0.200,-0.933,0.308,10.810,65.465,-85.532
13:33:38:653,17.372,-0.014,-0.817,0.345,-12.221,65.467,-84.638
13:33:38:654,17.373,0.036,-0.485,0.348,-19.694,65.032,-83.795
13:33:38:655,17.374,-0.040,0.371,0.272,-23.995,63.154,-82.117
13:33:38:734,17.452,-0.511,1.112,0.277,-19.785,61.244,-80.618
13:33:38:734,17.452,-0.489,1.218,0.103,-12.241,57.791,-77.432
13:33:38:734,17.453,-0.197,0.893,-0.049,-5.754,55.319,-75.478
13:33:38:754,17.472,-0.150,0.852,-0.121,-1.731,54.619,-75.360
13:33:38:779,17.498,0.184,0.112,-0.471,-0.414,53.307,-75.893
13:33:38:921,17.640,0.007,-0.018,-0.313,-4.408,51.752,-75.947
13:33:38:922,17.640,0.148,-0.148,-0.437,-10.331,49.315,-75.865
13:33:38:922,17.640,0.165,-0.309,-0.478,-10.458,47.628,-75.618
13:33:38:922,17.640,0.179,-0.485,-0.453,-8.800,47.107,-75.463
13:33:38:939,17.658,0.241,-0.625,-0.418,-6.771,47.168,-75.318
13:33:38:94,17.658,0.254,-0.670,-0.360,-6.120,47.884,-75.304
13:33:38:992,17.711,0.227,-0.637,-0.327,-5.792,50.210,-75.419
13:33:38:992,17.711,0.202,-0.520,-0.428,-5.287,54.002,-75.638
13:33:39:045,17.764,0.136,-0.199,-0.558,-4.236,57.235,-75.723
13:33:39:045,17.764,-0.064,0.708,-0.730,-2.281,62.590,-75.748
13:33:39:068,17.786,-0.272,0.975,-0.756,0.803,66.359,-75.760
13:33:39:152,17.871,-0.936,1.048,-0.600,10.307,72.461,-75.625
13:33:39:153,17.871,-0.907,0.926,-0.150,23.907,79.568,-75.684
13:33:39:153,17.872,-0.949,0.338,-0.146,30.715,83.545,-76.476
13:33:39:174,17.892,-0.447,-0.099,0.374,34.575,88.602,-78.438
13:33:39:2,17.919,-0.301,-0.279,0.306,34.569,91.469,-79.639
13:33:39:284,18.002,-0.176,-0.268,0.368,26.405,94.674,-81.328
13:33:39:284,18.003,-0.083,-0.486,0.410,15.488,97.287,-82.475
13:33:39:285,18.003,-0.038,-0.755,0.441,9.456,98.680,-82.974
13:33:39:304,18.022,0.014,-0.931,0.421,-0.485,100.108,-83.397
13:33:39:33,18.049,0.088,-0.951,0.366,-7.876,100.609,-83.425
13:33:39:356,18.075,0.176,-0.857,0.350,-17.418,100.649,-83.015
13:33:39:412,18.131,0.182,-0.512,0.260,-22.298,100.095,-82.470
13:33:39:413,18.132,0.100,0.010,0.200,-24.855,98.160,-81.088
13:33:39:466,18.184,-0.248,0.843,0.496,-17.266,95.365,-78.916
13:33:39:466,18.185,-0.240,1.311,0.232,-10.439,93.297,-76.917
13:33:39:487,18.206,-0.062,1.317,0.063,-4.389,90.370,-74.466
13:33:39:574,18.292,-0.082,0.936,-0.191,-3.099,88.922,-73.986
13:33:39:574,18.293,-0.128,0.299,0.012,-4.947,86.938,-74.267
13:33:39:574,18.293,-0.069,-0.006,-0.342,-9.585,84.696,-74.800
13:33:39:623,18.342,-0.071,-0.146,-0.352,-12.012,83.376,-75.152
13:33:39:623,18.342,-0.032,-0.343,-0.347,-13.629,81.778,-75.465
13:33:39:705,18.424,-0.005,-0.603,-0.324,-13.604,80.942,-75.477
13:33:39:705,18.424,0.013,-0.643,-0.302,-13.632,80.089,-75.317
13:33:39:705,18.424,0.048,-0.712,-0.397,-14.418,80.019,-75.192
13:33:39:723,18.442,0.050,-0.678,-0.403,-14.778,80.696,-75.205
13:33:39:838,18.557,0.027,-0.630,-0.412,-13.851,83.029,-75.358
13:33:39:838,18.557,-0.116,-0.184,-0.532,-12.454,85.327,-75.523
13:33:39:839,18.557,-0.415,0.679,-0.802,-10.795,89.298,-75.711
13:33:39:84,18.558,-0.618,0.977,-0.410,-8.415,93.817,-75.580
13:33:39:855,18.573,-0.643,1.301,-0.234,-6.606,96.900,-75.452
13:33:39:881,18.600,-0.624,0.986,0.057,2.438,102.155,-76.018
13:33:39:907,18.626,-0.479,0.216,0.125,11.739,105.933,-76.977
13:33:39:963,18.682,-0.156,0.144,0.320,19.585,110.282,-79.262
13:33:39:964,18.682,-0.146,-0.267,0.336,21.834,113.971,-81.667
13:33:39:986,18.705,0.023,-0.338,0.442,19.871,115.620,-83.100
13:33:40:013,18.731,0.124,-0.686,0.428,14.162,118.038,-84.977
13:33:40:04,18.758,0.161,-0.903,0.463,6.549,119.044,-85.901
13:33:40:066,18.785,0.169,-1.007,0.435,-12.931,119.641,-86.775
13:33:40:091,18.810,0.185,-1.070,0.377,-35.971,119.167,-86.850
13:33:40:118,18.837,0.239,-0.832,0.287,-46.688,118.190,-86.361
13:33:40:144,18.862,0.218,-0.309,0.288,-51.846,115.753,-84.843
13:33:40:17,18.889,0.153,0.230,0.302,-50.217,113.442,-83.242
13:33:40:256,18.975,0.087,1.275,0.625,-40.694,109.387,-80.048
13:33:40:256,18.975,0.186,1.327,0.202,-27.830,104.921,-76.465
13:33:40:257,18.976,0.024,1.160,0.157,-20.457,102.277,-74.746
13:33:40:277,18.996,-0.179,0.584,0.193,-15.153,99.672,-74.394
13:33:40:302,19.021,-0.290,0.111,-0.253,-14.493,97.753,-74.385
13:33:40:36,19.078,-0.235,0.009,-0.334,-18.981,94.076,-73.784
13:33:40:36,19.078,-0.134,-0.196,-0.419,-22.774,90.395,-72.892
13:33:40:411,19.129,-0.144,-0.424,-0.485,-22.597,88.622,-72.308
13:33:40:411,19.129,-0.127,-0.622,-0.446,-21.147,86.982,-71.640
13:33:40:432,19.151,-0.025,-0.751,-0.479,-20.937,86.451,-71.409
13:33:40:459,19.178,0.092,-0.839,-0.474,-20.760,86.687,-71.491
13:33:40:546,19.265,0.113,-0.803,-0.426,-19.809,88.069,-72.046
13:33:40:546,19.265,0.098,-0.658,-0.478,-18.896,89.408,-72.587
13:33:40:546,19.265,-0.161,0.015,-0.662,-18.054,91.767,-73.579
13:33:40:566,19.285,-0.490,1.354,-0.686,-18.075,93.481,-74.039
13:33:40:591,19.310,-0.675,1.499,-0.394,-18.748,96.782,-74.512
13:33:40:679,19.398,-0.625,1.603,0.000,-14.748,101.335,-75.496
13:33:40:679,19.398,-0.470,0.832,0.191,-5.235,105.010,-76.794
13:33:40:68,19.399,-0.369,0.087,0.453,13.555,110.143,-79.341
13:33:40:68,19.399,-0.074,0.151,0.480,14.753,112.127,-81.395
13:33:40:696,19.414,-0.063,-0.505,0.408,11.379,115.199,-84.009
13:33:40:722,19.441,0.086,-0.583,0.535,4.268,116.846,-85.394
13:33:40:806,19.525,0.110,-0.805,0.447,-17.956,118.603,-87.044
13:33:40:806,19.525,0.195,-1.072,0.380,-34.107,119.842,-88.035
13:33:40:807,19.526,0.251,-1.152,0.334,-42.432,120.338,-88.362
13:33:40:829,19.548,0.342,-1.049,0.297,-54.874,120.234,-88.327
13:33:40:854,19.573,0.333,-0.783,0.311,-57.292,119.489,-87.859
13:33:40:88,19.598,0.211,-0.325,0.348,-54.465,117.229,-86.485
13:33:40:963,19.682,0.145,1.082,0.655,-48.012,113.176,-84.190
13:33:40:964,19.683,-0.083,1.250,0.615,-40.400,109.745,-82.175
13:33:40:965,19.683,0.195,1.525,0.352,-27.960,104.057,-78.356
13:33:41:012,19.731,-0.202,1.123,0.146,-18.904,101.283,-76.956
13:33:41:126,19.845,-0.422,0.150,-0.074,-9.505,98.414,-76.822
13:33:41:127,19.845,-0.395,0.007,-0.366,-13.544,94.305,-76.363
13:33:41:127,19.845,-0.252,-0.044,-0.558,-19.926,90.997,-75.678
13:33:41:127,19.846,-0.120,-0.215,-0.612,-23.579,86.720,-74.470
13:33:41:145,19.863,-0.083,-0.395,-0.593,-22.355,84.742,-73.728
13:33:41:145,19.864,0.013,-0.637,-0.578,-19.826,82.852,-72.940
13:33:41:256,19.974,0.204,-0.779,-0.593,-18.495,82.313,-72.807
13:33:41:256,19.975,0.247,-0.804,-0.554,-18.100,82.773,-73.138
13:33:41:257,19.975,0.144,-0.780,-0.599,-17.301,84.554,-74.055
13:33:41:257,19.976,-0.157,-0.396,-0.666,-16.725,86.349,-74.808
13:33:41:273,19.992,-0.390,0.477,-0.869,-15.924,89.814,-75.940
13:33:41:386,20.105,-0.600,1.287,-0.369,-14.690,93.732,-76.532
13:33:41:387,20.106,-0.682,1.501,-0.118,-11.785,96.775,-76.681
13:33:41:387,20.106,-0.631,1.408,0.348,-0.990,101.792,-77.377
13:33:41:388,20.107,-0.410,0.305,0.577,11.162,105.120,-78.611
13:33:41:519,20.237,-0.269,-0.024,0.557,23.316,109.098,-81.150
13:33:41:519,20.237,-0.050,-0.216,0.483,18.377,111.886,-83.410
13:33:41:519,20.238,0.091,-0.403,0.517,8.178,113.539,-84.574
13:33:41:521,20.240,0.117,-0.784,0.494,-10.926,115.457,-85.617
13:33:41:539,20.258,0.129,-0.976,0.424,-24.931,116.210,-85.845
13:33:41:539,20.258,0.217,-1.086,0.314,-39.584,116.769,-85.577
13:33:41:561,20.280,0.316,-1.050,0.240,-44.093,116.740,-85.103
13:33:41:695,20.413,0.361,-0.946,0.261,-45.936,115.812,-83.973
13:33:41:806,20.525,0.261,-0.642,0.276,-42.611,113.546,-82.227
13:33:41:807,20.526,0.022,0.252,0.304,-37.857,111.222,-80.625
13:33:41:808,20.527,-0.125,1.242,0.633,-27.318,106.724,-77.693
13:33:41:809,20.528,-0.108,1.720,0.385,-16.211,103.591,-75.050
13:33:41:833,20.552,0.088,1.593,0.040,-6.594,98.972,-70.863
13:33:41:834,20.553,-0.213,0.905,-0.345,-6.621,95.039,-70.028
13:33:41:835,20.553,-0.215,0.382,-0.440,-10.484,92.651,-70.663
13:33:41:836,20.554,-0.238,0.097,-0.526,-18.169,88.514,-71.346
13:33:41:853,20.571,-0.160,-0.240,-0.603,-21.834,86.101,-71.639
13:33:41:854,20.572,-0.046,-0.511,-0.564,-23.111,83.784,-72.021
13:33:41:905,20.624,0.152,-0.796,-0.478,-21.579,82.711,-72.272
13:33:41:906,20.624,0.183,-0.926,-0.489,-20.159,82.509,-72.499
13:33:41:929,20.647,0.132,-0.969,-0.499,-19.794,82.981,-73.343
13:33:41:985,20.704,0.077,-0.896,-0.364,-20.483,84.092,-74.151
13:33:41:985,20.704,-0.024,-0.782,-0.421,-19.991,87.084,-75.392
13:33:42:066,20.785,-0.387,0.056,-0.722,-18.715,90.987,-76.511
13:33:42:067,20.785,-0.407,1.233,-0.755,-18.999,93.694,-76.972
13:33:42:067,20.786,-0.628,1.687,-0.010,-15.082,98.169,-77.058
13:33:42:088,20.807,-0.545,1.604,0.220,-8.565,101.667,-77.318
13:33:42:115,20.833,-0.948,0.393,-0.058,14.633,107.616,-78.717
13:33:42:198,20.916,-0.190,0.462,0.498,20.184,111.020,-81.779
13:33:42:199,20.917,-0.129,0.018,0.362,21.177,113.030,-83.633
13:33:42:199,20.918,0.105,-0.273,0.427,15.748,115.704,-85.783
13:33:42:218,20.936,0.181,-0.452,0.429,12.848,117.004,-86.599
13:33:42:244,20.963,0.169,-0.732,0.424,6.323,117.639,-87.135
13:33:42:412,21.131,0.195,-0.915,0.369,-2.364,117.524,-87.090
13:33:42:412,21.131,0.200,-0.943,0.368,-16.500,116.616,-86.518
13:33:42:412,21.131,0.184,-1.053,0.431,-23.627,115.211,-85.682
13:33:42:413,21.132,0.081,-1.141,0.397,-26.440,113.997,-84.965
13:33:42:516,21.234,0.074,-0.826,0.263,-31.318,111.427,-83.410
13:33:42:516,21.235,0.046,0.127,0.202,-29.592,107.707,-80.934
13:33:42:517,21.236,-0.095,2.188,0.233,-21.595,104.278,-78.587
13:33:42:518,21.236,-0.423,1.280,0.557,-4.868,99.506,-74.603
13:33:42:538,21.257,-0.343,1.365,0.047,-3.235,95.999,-72.713
13:33:42:539,21.257,-0.067,0.822,-0.029,-10.414,91.675,-72.765
13:33:42:54,21.258,-0.094,0.340,-0.539,-17.344,88.716,-73.067
13:33:42:617,21.336,-0.059,0.123,-0.567,-24.460,84.531,-72.924
13:33:42:618,21.336,-0.055,-0.185,-0.656,-25.647,81.971,-72.838
13:33:42:619,21.337,0.023,-0.483,-0.571,-24.225,81.272,-72.816
13:33:42:638,21.356,0.110,-0.738,-0.479,-21.536,81.283,-72.791
13:33:42:664,21.382,0.181,-0.932,-0.407,-20.037,81.880,-72.882
13:33:42:751,21.470,0.146,-0.897,-0.406,-18.696,83.647,-73.355
13:33:42:752,21.471,0.021,-0.784,-0.441,-17.303,86.598,-74.147
13:33:42:753,21.472,-0.080,-0.623,-0.529,-15.777,89.187,-74.679
13:33:42:753,21.472,-0.403,0.204,-0.735,-13.737,93.724,-75.421
13:33:42:798,21.517,-0.699,1.276,-0.489,-11.520,97.054,-75.769
13:33:42:799,21.517,-0.767,1.443,-0.154,-0.394,102.611,-76.074
13:33:42:821,21.540,-0.965,1.355,0.195,18.541,108.558,-76.616
13:33:42:875,21.594,-0.909,0.869,0.437,30.211,111.996,-77.505
13:33:42:929,21.648,-0.310,0.190,0.521,35.971,116.011,-79.882
13:33:42:93,21.649,-0.126,0.021,0.383,34.328,118.461,-81.443
13:33:42:957,21.676,0.038,-0.402,0.412,31.758,122.199,-83.267
13:33:42:957,21.676,0.087,-0.657,0.464,28.480,125.348,-84.360
13:33:43:038,21.757,0.140,-0.918,0.455,23.464,127.101,-84.620
13:33:43:039,21.757,0.213,-1.106,0.376,12.004,129.034,-84.236
13:33:43:039,21.757,0.240,-1.058,0.267,3.127,129.813,-83.544
13:33:43:086,21.805,0.268,-0.985,0.243,-7.745,130.072,-82.055
13:33:43:087,21.806,0.247,-0.545,0.128,-14.666,129.056,-79.916
13:33:43:164,21.882,0.148,0.031,0.078,-16.169,127.559,-78.086
13:33:43:194,21.913,0.036,1.048,0.566,-12.761,125.130,-75.155
13:33:43:195,21.914,-0.133,1.646,0.214,-10.771,123.274,-72.831
13:33:43:196,21.915,-0.086,1.626,-0.226,-11.100,120.378,-70.980
13:33:43:215,21.934,-0.135,0.811,-0.299,-10.764,119.371,-71.147
13:33:43:299,22.018,-0.270,0.254,-0.275,-10.217,117.841,-71.748
13:33:43:3,22.019,-0.401,-0.118,-0.350,-10.749,116.010,-72.192
13:33:43:301,22.020,-0.384,-0.292,-0.381,-10.418,115.215,-72.393
13:33:43:32,22.039,-0.303,-0.450,-0.423,-9.009,114.676,-72.535
13:33:43:376,22.095,-0.222,-0.640,-0.423,-7.977,114.774,-72.567
13:33:43:376,22.095,-0.217,-0.715,-0.423,-6.852,115.643,-72.788
13:33:43:458,22.177,-0.254,-0.804,-0.373,-6.418,117.731,-73.243
13:33:43:459,22.178,-0.392,-0.746,-0.405,-6.323,119.833,-73.635
13:33:43:46,22.178,-0.470,-0.596,-0.299,-5.516,124.257,-74.345
13:33:43:479,22.197,-0.702,-0.130,-0.191,-3.809,127.944,-74.905
13:33:43:504,22.223,-0.982,0.817,-0.087,1.170,134.091,-75.412
13:33:43:531,22.250,-0.763,1.249,0.678,10.551,141.120,-75.241
13:33:43:587,22.306,-0.473,1.384,0.613,16.181,145.844,-75.230
13:33:43:587,22.306,-0.260,0.763,0.684,24.787,152.163,-76.438
13:33:43:715,22.434,-0.148,0.451,0.514,27.176,155.960,-77.738
13:33:43:751,22.469,0.067,0.159,0.363,22.332,160.558,-79.607
13:33:43:751,22.469,0.187,-0.082,0.264,12.850,164.365,-80.948
13:33:43:751,22.470,0.255,-0.278,0.258,9.217,166.660,-81.481
13:33:43:751,22.470,0.360,-0.696,0.236,5.548,169.273,-81.774
13:33:43:771,22.490,0.372,-0.862,0.134,0.480,170.346,-81.687
13:33:43:772,22.491,0.367,-0.924,0.042,-9.384,171.163,-81.196
13:33:43:793,22.512,0.326,-0.994,-0.054,-16.759,171.302,-80.548
13:33:43:876,22.594,0.352,-0.911,-0.088,-20.028,170.931,-80.004
13:33:43:876,22.595,0.234,-0.520,-0.068,-21.113,169.732,-78.801
13:33:43:931,22.649,0.089,0.047,-0.037,-19.878,168.433,-77.553
13:33:43:931,22.649,0.229,1.224,0.320,-11.975,166.285,-74.854
13:33:43:931,22.650,0.012,1.553,0.132,-4.734,163.861,-71.566
13:33:44:003,22.722,-0.123,1.341,-0.008,-3.273,162.126,-70.223
13:33:44:035,22.753,-0.331,0.563,-0.128,-5.404,160.020,-70.279
13:33:44:035,22.754,-0.373,0.103,-0.139,-9.159,158.487,-70.756
13:33:44:036,22.755,-0.401,-0.035,-0.150,-14.907,156.277,-71.155
13:33:44:142,22.861,-0.510,-0.319,-0.176,-17.487,154.866,-71.275
13:33:44:143,22.862,-0.425,-0.489,-0.197,-17.777,154.969,-71.187
13:33:44:144,22.863,-0.321,-0.715,-0.232,-18.108,154.907,-70.850
13:33:44:145,22.864,-0.364,-0.776,-0.260,-19.149,155.513,-70.626
13:33:44:162,22.881,-0.386,-0.721,-0.260,-21.087,156.910,-70.552
13:33:44:187,22.906,-0.414,-0.696,-0.171,-22.030,160.902,-70.998
13:33:44:3,23.018,-0.445,-0.568,-0.062,-21.808,163.914,-71.503
13:33:44:3,23.019,-0.778,0.195,0.190,-21.280,169.059,-72.140
13:33:44:301,23.020,-0.754,0.874,0.254,-20.993,172.442,-72.022
13:33:44:302,23.021,-0.318,1.642,0.566,-17.490,177.713,-71.546
13:33:44:348,23.067,0.146,1.395,0.620,-12.828,-178.762,-71.859
13:33:44:348,23.067,0.252,0.620,0.525,-2.579,-173.387,-73.536
13:33:44:459,23.178,0.319,0.134,0.343,2.779,-169.057,-76.103
13:33:44:459,23.178,0.380,-0.120,0.182,1.228,-166.823,-77.753
13:33:44:46,23.178,0.488,-0.435,-0.010,-4.249,-163.898,-79.700
13:33:44:46,23.178,0.493,-0.755,-0.036,-9.580,-162.493,-80.666
13:33:44:616,23.335,0.449,-0.857,-0.048,-18.628,-161.231,-81.550
13:33:44:617,23.336,0.444,-1.077,-0.118,-25.016,-160.496,-81.673
13:33:44:618,23.336,0.415,-1.114,-0.143,-28.000,-160.336,-81.316
13:33:44:619,23.337,0.307,-0.949,-0.194,-32.750,-161.003,-80.147
13:33:44:687,23.406,0.190,-0.625,-0.239,-34.592,-162.140,-78.912
13:33:44:72,23.439,0.171,-0.211,-0.227,-32.989,-164.752,-76.399
13:33:44:721,23.440,0.388,1.207,0.023,-25.329,-168.032,-73.221
13:33:44:722,23.441,0.569,1.252,0.250,-17.823,-170.100,-70.747
13:33:44:723,23.442,-0.133,1.514,-0.114,-12.835,-174.065,-66.929
13:33:44:77,23.488,-0.406,0.999,-0.155,-13.511,-176.710,-65.975
13:33:44:77,23.489,-0.138,0.449,-0.059,-16.231,179.896,-65.950
13:33:44:771,23.490,-0.507,0.032,0.094,-18.881,175.827,-65.723
13:33:44:848,23.567,-0.557,-0.090,0.076,-20.118,173.457,-65.585
13:33:44:849,23.567,-0.592,-0.358,0.007,-19.896,170.854,-65.408
13:33:44:85,23.568,-0.518,-0.542,-0.080,-18.906,170.136,-65.236
13:33:44:869,23.587,-0.521,-0.655,-0.115,-17.247,169.436,-65.116
13:33:44:895,23.614,-0.555,-0.881,-0.073,-16.131,170.325,-65.550
13:33:44:98,23.698,-0.561,-0.901,-0.063,-16.132,171.475,-66.134
13:33:44:981,23.699,-0.599,-0.795,0.065,-16.450,174.887,-67.272
13:33:44:981,23.700,-0.573,-0.504,0.181,-16.963,177.725,-68.199
13:33:45:005,23.723,-0.885,0.445,0.445,-17.731,-176.932,-69.432
13:33:45:005,23.723,-0.403,1.710,0.574,-16.626,-171.319,-70.106
13:33:45:113,23.832,0.074,1.667,0.555,-12.258,-166.930,-70.667
13:33:45:114,23.833,0.374,1.149,0.536,-1.879,-161.062,-72.259
13:33:45:115,23.834,0.520,0.279,0.224,5.245,-157.630,-74.017
13:33:45:131,23.850,0.439,-0.284,-0.236,4.422,-151.052,-79.008
13:33:45:271,23.990,0.461,-0.610,-0.267,-5.624,-148.088,-81.254
13:33:45:272,23.991,0.439,-0.845,-0.190,-14.723,-146.014,-82.496
13:33:45:273,23.992,0.435,-0.962,-0.193,-19.457,-145.103,-82.828
13:33:45:274,23.993,0.392,-1.092,-0.252,-24.216,-144.305,-82.810
13:33:45:291,24.010,0.333,-1.081,-0.296,-26.792,-144.267,-82.497
13:33:45:292,24.011,0.311,-0.939,-0.265,-30.477,-145.155,-81.431
13:33:45:402,24.121,0.212,-0.157,-0.211,-32.387,-147.357,-79.417
13:33:45:403,24.122,0.181,0.689,-0.129,-31.208,-149.678,-77.463
13:33:45:404,24.122,0.551,1.295,-0.043,-22.658,-153.442,-74.099
13:33:45:405,24.123,0.136,1.321,-0.040,-16.668,-156.287,-71.406
13:33:45:421,24.140,-0.175,1.127,0.028,-12.368,-160.294,-68.584
13:33:45:446,24.165,-0.350,0.500,0.086,-14.825,-163.791,-67.920
13:33:45:528,24.247,-0.468,0.174,0.200,-18.160,-166.353,-67.690
13:33:45:529,24.248,-0.609,-0.084,0.223,-22.500,-169.970,-67.067
13:33:45:58,24.298,-0.661,-0.293,0.135,-23.740,-171.725,-66.646
13:33:45:66,24.379,-0.616,-0.540,-0.010,-23.365,-173.022,-66.221
13:33:45:661,24.380,-0.563,-0.880,-0.043,-21.951,-172.996,-66.259
13:33:45:691,24.410,-0.536,-0.971,-0.024,-21.295,-172.392,-66.567
13:33:45:691,24.410,-0.631,-0.849,0.108,-21.035,-170.508,-67.227
13:33:45:691,24.410,-0.615,-0.613,0.138,-21.144,-168.498,-67.787
13:33:45:741,24.460,-0.560,-0.206,0.342,-20.455,-164.161,-68.906
13:33:45:741,24.460,-0.599,0.889,0.643,-18.661,-158.854,-69.890
13:33:45:742,24.461,-0.234,1.506,0.725,-15.993,-154.920,-70.424
13:33:45:82,24.539,0.235,1.599,0.838,-8.586,-148.772,-71.411
13:33:45:821,24.540,0.558,0.850,0.564,-2.083,-144.943,-72.553
13:33:45:822,24.541,0.477,0.293,0.251,4.376,-139.965,-75.257
13:33:46:086,24.805,0.488,0.025,0.035,6.009,-135.603,-78.298
13:33:46:087,24.805,0.409,-0.192,-0.128,3.474,-133.099,-80.056
13:33:46:088,24.806,0.457,-0.609,-0.251,-3.096,-129.877,-82.095
13:33:46:088,24.807,0.459,-0.810,-0.269,-8.880,-128.183,-83.017
13:33:46:112,24.831,0.397,-1.073,-0.314,-17.968,-126.139,-83.655
13:33:46:113,24.831,0.300,-1.144,-0.392,-24.541,-124.558,-83.511
13:33:46:113,24.832,0.227,-1.111,-0.423,-28.594,-123.949,-83.123
13:33:46:114,24.833,0.103,-0.838,-0.438,-32.559,-123.970,-82.029
13:33:46:138,24.857,0.123,0.158,-0.325,-33.359,-124.853,-80.796
13:33:46:138,24.857,0.396,1.014,-0.324,-28.647,-127.689,-77.987
13:33:46:139,24.858,0.686,1.073,-0.204,-20.135,-129.383,-75.730
13:33:46:14,24.859,0.200,1.277,-0.237,-13.740,-132.451,-71.438
13:33:46:24,24.959,-0.291,0.941,0.012,-14.215,-134.782,-69.653
13:33:46:241,24.960,-0.216,0.504,-0.061,-16.730,-136.826,-69.389
13:33:46:242,24.961,-0.283,0.129,0.442,-20.600,-139.930,-68.692
13:33:46:292,25.011,-0.404,-0.028,0.530,-22.597,-141.863,-68.130
13:33:46:293,25.012,-0.513,-0.144,0.468,-23.313,-143.513,-67.488
13:33:46:294,25.012,-0.513,-0.439,0.224,-22.104,-143.900,-67.337
13:33:46:371,25.090,-0.535,-0.639,0.177,-21.014,-143.739,-67.559
13:33:46:371,25.090,-0.535,-0.753,0.246,-19.704,-142.717,-68.321
13:33:46:372,25.091,-0.561,-0.775,0.382,-19.147,-141.327,-69.008
13:33:46:42,25.139,-0.531,-0.566,0.505,-18.224,-137.981,-70.206
13:33:46:421,25.140,-0.303,-0.131,0.759,-16.372,-133.206,-71.692
13:33:46:526,25.244,-0.207,0.374,0.977,-14.582,-129.491,-72.598
13:33:46:526,25.245,0.290,1.138,0.852,-7.696,-122.754,-73.634
13:33:46:554,25.273,0.493,1.330,0.709,-0.571,-117.747,-74.543
13:33:46:555,25.274,0.714,1.289,0.592,13.004,-110.276,-76.557
13:33:46:556,25.275,0.689,1.002,0.251,28.705,-103.284,-79.749
13:33:46:63,25.348,0.589,0.646,0.146,43.244,-98.778,-82.247
13:33:46:656,25.375,0.602,0.462,-0.075,70.209,-91.883,-85.982
13:33:46:685,25.403,0.530,0.249,-0.252,83.845,-87.344,-88.411
13:33:46:685,25.404,0.365,-0.106,-0.432,95.247,-80.885,-91.927
13:33:46:794,25.513,0.323,-0.277,-0.483,99.117,-76.890,-94.118
13:33:46:795,25.514,0.215,-0.435,-0.504,101.989,-71.439,-97.192
13:33:46:796,25.515,0.134,-0.543,-0.531,102.829,-66.698,-100.051
13:33:46:797,25.516,-0.044,-0.553,-0.506,102.636,-63.968,-101.854
13:33:46:814,25.533,-0.211,-0.495,-0.475,101.548,-60.830,-104.482
13:33:46:817,25.535,-0.057,-0.177,-0.649,100.443,-60.477,-107.833
13:33:46:839,25.558,-0.001,-0.271,-0.668,100.183,-62.625,-111.169
13:33:46:923,25.642,-0.041,-0.339,-0.430,100.355,-66.941,-116.884
13:33:46:923,25.642,-0.135,-0.128,-0.208,100.008,-68.862,-119.534
13:33:46:923,25.642,-0.221,0.164,-0.200,98.606,-68.530,-119.992
13:33:46:943,25.662,-0.139,0.184,-0.186,97.680,-66.712,-118.494
13:33:47:083,25.802,-0.074,-0.021,0.011,96.793,-64.190,-116.300
13:33:47:084,25.803,-0.058,-0.206,0.101,96.410,-62.963,-115.294
13:33:47:085,25.804,-0.052,-0.216,0.099,96.446,-62.705,-115.174
13:33:47:086,25.804,-0.005,-0.256,0.091,97.032,-63.249,-116.023
13:33:47:268,25.987,0.066,-0.321,0.164,97.630,-63.980,-117.212
13:33:47:268,25.987,0.062,-0.340,0.218,98.563,-65.449,-119.808
13:33:47:269,25.987,0.034,-0.342,0.209,99.492,-67.268,-123.208
13:33:47:269,25.987,0.072,-0.290,0.189,100.024,-68.682,-125.953
13:33:47:373,26.091,0.208,-0.141,0.291,100.590,-71.509,-130.988
13:33:47:373,26.092,0.106,0.079,0.100,101.017,-73.794,-134.399
13:33:47:374,26.092,0.203,0.219,0.130,101.760,-74.731,-137.020
13:33:47:374,26.093,0.182,0.317,0.001,102.085,-73.591,-137.426
13:33:47:398,26.117,0.105,0.448,-0.160,102.068,-72.273,-136.961
13:33:47:399,26.118,0.002,0.329,-0.142,102.079,-68.903,-134.938
13:33:47:4,26.118,-0.023,0.234,-0.087,102.034,-65.852,-132.821
13:33:47:401,26.119,0.010,-0.003,-0.086,101.983,-60.894,-129.286
13:33:47:477,26.196,0.011,-0.118,-0.146,102.166,-56.731,-126.065
13:33:47:478,26.197,-0.016,-0.154,-0.138,102.393,-54.653,-124.653
13:33:47:479,26.198,-0.109,-0.249,-0.093,102.744,-53.514,-123.866
13:33:47:48,26.199,-0.128,-0.322,-0.107,103.012,-53.337,-124.054
13:33:47:601,26.319,-0.155,-0.281,-0.120,103.356,-54.005,-125.004
13:33:47:689,26.408,-0.193,-0.179,-0.191,103.564,-56.058,-127.279
13:33:47:691,26.410,-0.117,-0.141,-0.155,103.665,-58.620,-129.842
13:33:47:691,26.410,-0.158,0.157,-0.286,103.906,-62.798,-133.263
13:33:47:691,26.410,-0.125,0.309,-0.307,104.222,-64.687,-134.372
13:33:47:735,26.453,-0.188,0.296,-0.258,104.439,-66.151,-134.883
13:33:47:736,26.454,-0.141,0.305,-0.202,104.223,-66.265,-133.766
13:33:47:821,26.540,-0.105,0.310,-0.170,104.037,-65.264,-131.927
13:33:47:822,26.540,-0.060,0.022,-0.092,103.818,-63.899,-128.916
13:33:47:822,26.540,-0.094,-0.059,-0.034,103.719,-62.727,-126.908
13:33:47:822,26.541,-0.134,-0.098,0.070,103.679,-61.498,-124.278
13:33:47:92,26.639,-0.063,-0.238,0.146,103.970,-61.148,-122.477
13:33:47:921,26.640,0.066,-0.381,0.194,104.349,-60.903,-121.768
13:33:47:922,26.641,0.108,-0.437,0.180,105.215,-61.440,-121.462
13:33:48:055,26.774,0.091,-0.399,0.216,105.909,-61.787,-121.871
13:33:48:055,26.774,0.132,-0.249,0.307,106.876,-63.258,-123.505
13:33:48:056,26.775,0.356,0.068,0.305,107.387,-64.142,-125.205
13:33:48:056,26.775,0.259,0.203,0.198,107.892,-66.038,-127.986
13:33:48:183,26.901,0.380,0.643,-0.090,108.776,-65.962,-130.120
13:33:48:239,26.958,0.211,0.772,-0.331,108.417,-64.104,-129.707
13:33:48:239,26.958,0.005,0.658,-0.334,107.966,-62.954,-129.159
13:33:48:24,26.959,-0.176,0.264,-0.259,107.240,-59.525,-127.788
13:33:48:241,26.960,-0.201,-0.023,-0.231,106.498,-55.271,-125.511
13:33:48:345,27.063,-0.178,-0.252,-0.223,106.164,-52.177,-123.667
13:33:48:345,27.063,-0.161,-0.458,-0.152,105.904,-48.698,-121.430
13:33:48:345,27.064,-0.199,-0.536,-0.017,105.807,-47.160,-120.523
13:33:48:345,27.064,-0.198,-0.569,0.022,105.705,-46.463,-120.015
13:33:48:448,27.167,-0.187,-0.477,-0.092,105.651,-46.845,-120.452
13:33:48:449,27.168,-0.199,-0.297,-0.116,105.551,-48.348,-121.424
13:33:48:449,27.168,-0.052,-0.083,-0.078,105.156,-51.745,-124.522
13:33:48:476,27.194,-0.280,0.268,-0.390,105.029,-59.151,-129.587
13:33:48:476,27.195,-0.087,0.542,-0.457,105.527,-60.454,-129.539
13:33:48:476,27.195,-0.138,0.448,-0.319,105.565,-61.686,-129.684
13:33:48:477,27.195,-0.107,0.307,-0.108,105.731,-63.041,-128.976
13:33:48:498,27.217,-0.095,0.154,-0.028,105.992,-63.422,-128.064
13:33:48:499,27.218,-0.082,-0.060,0.004,106.638,-64.202,-126.664
13:33:48:5,27.219,-0.016,-0.195,0.170,107.503,-65.457,-125.794
13:33:48:607,27.326,0.052,-0.271,0.251,108.064,-66.042,-125.366
13:33:48:608,27.327,0.108,-0.302,0.241,108.873,-66.597,-124.818
13:33:48:608,27.327,0.031,-0.298,0.183,109.513,-67.091,-124.958
13:33:48:608,27.327,0.033,-0.375,0.222,110.729,-68.758,-126.666
13:33:48:655,27.374,0.163,-0.329,0.269,111.912,-70.991,-129.720
13:33:48:656,27.374,0.266,-0.059,0.222,112.471,-72.413,-132.165
13:33:48:656,27.375,0.264,0.200,-0.011,112.886,-74.845,-136.256
13:33:48:761,27.479,0.083,0.145,0.051,113.181,-76.309,-138.715
13:33:48:761,27.480,0.350,0.389,-0.069,113.668,-75.959,-140.030
13:33:48:762,27.481,0.264,0.532,-0.313,113.544,-74.446,-139.643
13:33:48:783,27.502,0.048,0.439,-0.282,112.823,-72.104,-138.817
13:33:48:784,27.503,-0.085,-0.005,-0.181,112.243,-68.941,-137.423
13:33:48:865,27.583,-0.056,-0.325,-0.183,112.081,-66.212,-135.810
13:33:48:865,27.584,0.001,-0.309,-0.226,112.133,-61.248,-132.036
13:33:48:866,27.585,-0.112,-0.321,-0.195,112.127,-57.890,-129.346
13:33:49:,27.719,-0.197,-0.434,-0.151,112.158,-54.038,-126.311
13:33:49:,27.719,-0.165,-0.577,-0.117,112.864,-52.233,-124.955
13:33:49:001,27.720,-0.122,-0.510,-0.044,113.644,-51.981,-124.684
13:33:49:002,27.721,-0.184,0.039,0.059,114.457,-52.073,-125.019
13:33:49:019,27.738,-0.040,0.165,0.102,114.323,-52.723,-126.052
13:33:49:02,27.739,-0.128,0.209,-0.153,113.324,-54.827,-128.422
13:33:49:043,27.761,-0.285,0.386,-0.479,112.728,-57.368,-129.364
13:33:49:157,27.876,-0.134,0.671,-0.438,112.722,-57.661,-128.832
13:33:49:157,27.876,-0.172,0.648,-0.447,112.047,-58.459,-128.214
13:33:49:158,27.877,-0.130,0.460,-0.287,111.519,-59.314,-128.077
13:33:49:158,27.877,-0.096,0.216,-0.137,111.431,-60.352,-127.825
13:33:49:174,27.893,-0.007,-0.009,0.018,111.865,-60.957,-127.191
13:33:49:2,27.919,0.017,-0.174,0.103,112.238,-60.985,-126.471
13:33:49:288,28.007,-0.092,-0.270,0.216,112.681,-60.716,-125.326
13:33:49:289,28.007,-0.014,-0.414,0.230,113.064,-60.778,-124.938
13:33:49:29,28.008,0.055,-0.447,0.186,113.864,-61.766,-125.242
13:33:49:29,28.009,0.097,-0.457,0.226,114.398,-63.267,-126.601
13:33:49:331,28.050,0.114,-0.405,0.258,114.510,-64.541,-128.023
13:33:49:42,28.138,0.118,-0.221,0.226,114.663,-66.618,-131.025
13:33:49:421,28.139,0.379,-0.010,0.111,114.929,-68.238,-133.689
13:33:49:421,28.139,0.317,0.074,-0.105,115.407,-70.735,-137.489
13:33:49:421,28.140,0.390,0.234,0.059,115.812,-71.509,-139.226
13:33:49:465,28.184,0.324,0.562,-0.260,116.085,-70.284,-139.983
13:33:49:466,28.185,0.146,0.567,-0.330,115.518,-67.964,-139.642
13:33:49:548,28.267,-0.052,0.395,-0.248,114.927,-65.638,-138.783
13:33:49:548,28.267,-0.166,0.126,-0.212,113.733,-61.106,-136.809
13:33:49:548,28.267,-0.143,-0.189,-0.209,112.801,-57.764,-135.217
13:33:49:598,28.316,-0.143,-0.332,-0.188,111.588,-52.492,-132.237
13:33:49:598,28.316,-0.188,-0.453,-0.120,110.684,-47.501,-129.006
13:33:49:621,28.339,-0.234,-0.469,-0.032,110.247,-44.771,-127.161
13:33:49:734,28.453,-0.217,-0.513,-0.005,109.828,-42.195,-125.433
13:33:49:734,28.453,-0.224,-0.514,-0.024,109.674,-41.691,-125.089
13:33:49:735,28.454,-0.291,-0.328,-0.056,109.530,-42.165,-125.571
13:33:49:751,28.470,-0.074,0.241,-0.274,108.841,-45.802,-128.505
13:33:49:893,28.612,-0.199,0.461,-0.377,108.364,-48.390,-129.206
13:33:49:893,28.612,-0.114,0.531,-0.320,108.365,-49.068,-128.816
13:33:49:894,28.612,-0.110,0.452,-0.251,107.984,-49.846,-127.944
13:33:49:894,28.613,-0.017,0.415,-0.090,107.281,-49.805,-126.303
13:33:49:998,28.717,0.009,0.273,-0.001,107.014,-49.139,-124.835
13:33:49:998,28.717,0.064,0.043,0.088,106.667,-48.034,-122.448
13:33:49:999,28.717,-0.010,-0.025,0.193,106.393,-47.005,-120.809
13:33:49:999,28.718,-0.013,-0.129,0.185,106.193,-46.384,-119.289
13:33:50:018,28.737,0.024,-0.331,0.099,106.339,-46.646,-118.860
13:33:50:019,28.737,0.075,-0.394,0.072,106.633,-47.382,-119.253
13:33:50:149,28.868,0.077,-0.418,0.064,107.122,-48.432,-120.444
13:33:50:15,28.869,0.100,-0.420,0.095,107.413,-49.162,-121.712
13:33:50:26,28.979,0.179,-0.285,0.120,107.876,-50.247,-124.192
13:33:50:261,28.979,0.442,-0.082,0.085,108.337,-51.752,-127.572
13:33:50:261,28.979,0.338,-0.017,-0.050,108.568,-52.635,-129.284
13:33:50:262,28.980,0.440,0.206,0.068,109.071,-51.769,-129.916
13:33:50:391,29.109,0.386,0.492,-0.198,108.982,-49.862,-129.195
13:33:50:391,29.110,0.290,0.520,-0.318,108.063,-46.200,-127.192
13:33:50:392,29.111,0.070,0.344,-0.220,106.923,-41.333,-124.300
13:33:50:393,29.111,-0.114,0.017,-0.133,106.155,-37.780,-122.134
13:33:50:417,29.136,-0.170,-0.231,-0.165,105.166,-32.142,-118.437
13:33:50:418,29.136,-0.269,-0.479,-0.258,104.814,-29.041,-115.901
13:33:50:419,29.138,-0.300,-0.650,-0.267,104.813,-25.325,-112.530
13:33:50:42,29.138,-0.289,-0.770,-0.274,105.383,-23.170,-109.699
13:33:50:548,29.267,-0.279,-0.806,-0.294,105.924,-22.380,-107.994
13:33:50:549,29.267,-0.278,-0.813,-0.281,106.651,-22.137,-105.593
13:33:50:55,29.268,-0.275,-0.781,-0.243,106.860,-22.393,-103.966
13:33:50:681,29.400,-0.461,0.030,-0.320,104.498,-24.432,-98.738
13:33:50:681,29.400,-0.350,0.578,-0.427,97.882,-27.084,-93.980
13:33:50:681,29.400,-0.181,0.848,-0.597,86.330,-30.994,-88.524
13:33:50:682,29.401,0.119,1.635,-0.601,75.379,-34.165,-84.960
13:33:50:73,29.449,0.341,1.418,-0.085,58.202,-38.925,-81.113
13:33:50:73,29.449,0.412,0.757,0.151,47.510,-42.222,-79.697
13:33:50:73,29.449,0.674,0.198,0.335,31.857,-47.493,-78.153
13:33:50:81,29.529,0.777,-0.178,0.654,19.135,-52.217,-76.505
13:33:50:811,29.530,0.699,-0.274,0.803,12.783,-54.631,-75.450
13:33:50:812,29.531,0.460,-0.418,0.840,7.497,-56.569,-74.189
13:33:50:813,29.531,0.236,-0.603,0.803,6.143,-56.536,-73.761
13:33:50:996,29.715,0.189,-0.654,0.727,5.426,-54.539,-73.808
13:33:50:996,29.715,0.250,-0.650,0.550,7.161,-50.449,-74.486
13:33:50:997,29.715,0.445,-0.485,0.409,10.188,-46.737,-75.183
13:33:50:997,29.715,0.728,-0.237,0.196,18.697,-39.952,-76.427
13:33:51:095,29.814,1.118,0.835,-0.059,25.763,-34.923,-77.165
13:33:51:095,29.814,1.009,1.548,-0.633,38.904,-26.596,-77.523
13:33:51:149,29.868,0.902,1.577,-1.028,50.943,-18.083,-77.736
13:33:51:15,29.868,0.193,1.099,-1.482,58.784,-13.779,-78.763
13:33:51:231,29.950,-0.344,0.248,-0.942,68.608,-8.244,-81.882
13:33:51:231,29.950,-0.176,-0.037,-0.554,74.248,-5.374,-84.391
13:33:51:232,29.951,-0.581,-0.298,-0.458,83.078,-2.341,-87.968
13:33:51:233,29.952,-0.569,-0.627,-0.348,91.861,-0.173,-90.469
13:33:51:256,29.975,-0.567,-0.916,-0.271,96.127,1.086,-91.490
13:33:51:257,29.976,-0.595,-1.035,-0.105,99.360,2.633,-92.128
13:33:51:258,29.977,-0.528,-1.090,0.084,99.828,3.316,-92.064
13:33:51:259,29.978,-0.450,-1.101,0.188,98.426,3.588,-91.502
13:33:51:522,30.241,-0.383,-1.008,0.263,95.304,3.257,-90.817
13:33:51:522,30.241,-0.423,-0.747,0.182,82.141,1.917,-89.046
13:33:51:522,30.241,-0.385,0.292,-0.075,52.748,-0.605,-85.734
13:33:51:523,30.241,-0.572,1.196,-0.566,37.258,-2.731,-82.754
13:33:51:542,30.261,-0.547,1.294,-0.540,23.594,-6.004,-77.808
13:33:51:543,30.261,0.115,1.848,-0.253,18.423,-8.279,-74.810
13:33:51:704,30.423,0.336,1.229,-0.093,13.150,-11.249,-73.066
13:33:51:704,30.423,0.371,0.257,-0.059,6.003,-14.580,-72.859
13:33:51:705,30.423,0.494,0.055,0.028,0.747,-16.985,-72.797
13:33:51:706,30.424,0.529,-0.391,0.056,-3.385,-19.807,-72.730
13:33:51:782,30.500,0.580,-0.523,0.129,-4.547,-21.239,-72.568
13:33:51:783,30.501,0.515,-0.637,0.261,-5.435,-22.654,-72.128
13:33:51:783,30.502,0.525,-0.686,0.388,-5.507,-23.071,-71.882
13:33:51:785,30.503,0.546,-0.747,0.382,-4.904,-22.527,-72.072
13:33:51:808,30.527,0.552,-0.626,0.268,-2.668,-20.250,-72.834
13:33:51:809,30.528,0.571,-0.402,0.024,0.100,-17.765,-73.623
13:33:51:81,30.529,0.729,-0.021,-0.111,6.375,-13.052,-74.927
13:33:51:81,30.529,0.830,1.353,-0.531,16.384,-7.608,-75.823
13:33:52:071,30.789,0.220,1.493,-0.791,25.530,-3.537,-76.122
13:33:52:072,30.790,-0.046,1.788,-0.954,40.492,2.648,-76.505
13:33:52:072,30.791,-0.654,0.339,-0.885,51.109,5.861,-77.833
13:33:52:073,30.792,-0.476,-0.123,-0.475,62.243,10.971,-80.826
13:33:52:125,30.844,-0.558,-0.478,-0.069,69.270,15.438,-83.804
13:33:52:126,30.844,-0.589,-0.609,0.037,72.518,17.650,-85.608
13:33:52:126,30.844,-0.438,-0.774,0.020,76.055,19.890,-87.411
13:33:52:126,30.844,-0.417,-0.889,0.015,77.623,20.838,-87.987
13:33:52:255,30.974,-0.461,-1.089,0.086,77.503,21.702,-88.161
13:33:52:255,30.974,-0.394,-1.035,0.201,75.014,21.751,-87.979
13:33:52:256,30.975,-0.392,-0.987,0.232,65.841,21.032,-87.233
13:33:52:256,30.975,-0.368,-0.547,0.291,48.765,19.245,-85.832
13:33:52:325,31.044,-0.439,0.775,-0.007,36.462,17.280,-84.458
13:33:52:361,31.080,-0.653,1.068,-0.360,31.080,13.686,-81.768
13:33:52:362,31.080,-0.642,1.241,-0.267,27.696,9.951,-77.944
13:33:52:363,31.081,-0.213,1.367,-0.203,25.679,7.893,-75.983
13:33:52:363,31.082,0.155,0.563,-0.070,19.054,5.272,-75.416
13:33:52:386,31.105,0.193,0.266,-0.052,10.904,3.162,-75.723
13:33:52:387,31.106,0.359,-0.047,-0.129,-2.124,-0.734,-75.803
13:33:52:387,31.106,0.501,-0.385,-0.115,-7.582,-3.133,-75.615
13:33:52:388,31.107,0.528,-0.483,-0.031,-10.966,-5.906,-75.103
13:33:52:492,31.211,0.551,-0.621,0.179,-11.197,-7.694,-74.516
13:33:52:492,31.211,0.559,-0.728,0.245,-10.137,-8.257,-74.354
13:33:52:493,31.211,0.561,-0.722,0.216,-7.018,-7.819,-74.581
13:33:52:493,31.212,0.494,-0.656,0.064,-4.300,-6.636,-75.014
13:33:52:518,31.237,0.562,-0.421,-0.080,0.012,-3.695,-75.916
13:33:52:518,31.237,0.874,0.656,-0.340,4.960,0.259,-76.896
13:33:52:518,31.237,0.664,1.075,-0.431,11.242,3.408,-77.399
13:33:52:519,31.238,0.135,1.274,-0.788,24.671,8.517,-77.894
13:33:52:543,31.262,-0.104,1.377,-0.937,33.118,11.951,-78.180
13:33:52:544,31.262,-0.514,0.538,-0.785,46.862,16.516,-79.545
13:33:52:544,31.263,-0.521,-0.011,-0.371,56.328,21.319,-81.930
13:33:52:545,31.264,-0.540,-0.179,-0.044,60.385,24.147,-83.584
13:33:52:621,31.340,-0.524,-0.382,0.093,64.608,28.145,-85.402
13:33:52:622,31.341,-0.489,-0.648,0.124,67.003,30.343,-86.152
13:33:52:622,31.341,-0.452,-0.880,0.069,68.364,32.658,-86.616
13:33:52:623,31.342,-0.416,-1.000,0.137,65.909,33.955,-86.486
13:33:52:64,31.358,-0.348,-1.016,0.180,61.127,34.271,-86.120
13:33:52:668,31.386,-0.244,-0.949,0.247,48.313,34.020,-85.147
13:33:52:749,31.468,-0.192,-0.476,0.271,35.637,33.307,-84.155
13:33:52:751,31.470,-0.162,0.128,0.174,18.057,31.294,-82.051
13:33:52:751,31.470,-0.582,1.039,0.034,15.630,28.442,-79.506
13:33:52:77,31.489,-0.660,1.277,-0.166,19.469,26.449,-77.440
13:33:52:796,31.515,-0.317,1.360,-0.210,24.409,23.487,-74.571
13:33:52:881,31.599,0.033,0.762,-0.154,25.014,21.760,-74.072
13:33:52:881,31.600,0.205,0.191,-0.179,19.079,18.582,-74.759
13:33:52:882,31.601,0.412,-0.066,-0.280,8.678,14.963,-75.494
13:33:52:901,31.620,0.518,-0.206,-0.301,2.763,12.804,-75.593
13:33:52:929,31.648,0.623,-0.321,-0.171,-0.387,10.768,-75.408
13:33:53:007,31.725,0.553,-0.461,-0.037,1.007,10.221,-75.271
13:33:53:038,31.757,0.527,-0.689,-0.009,5.563,10.331,-75.443
13:33:53:039,31.757,0.507,-0.843,-0.074,10.073,11.431,-76.184
13:33:53:04,31.758,0.499,-0.795,-0.115,12.290,12.856,-76.767
13:33:53:089,31.807,0.530,-0.486,-0.222,15.641,16.172,-77.632
13:33:53:089,31.808,0.582,0.174,-0.568,19.460,19.180,-78.205
13:33:53:139,31.858,0.556,0.710,-0.759,27.250,24.503,-78.736
13:33:53:225,31.943,-0.001,1.310,-0.989,32.982,28.666,-78.551
13:33:53:226,31.944,-0.375,1.565,-0.899,40.554,35.863,-78.183
13:33:53:227,31.945,-0.720,0.804,-0.664,48.799,43.168,-78.467
13:33:53:228,31.946,-0.698,0.455,-0.442,53.313,47.744,-79.314
13:33:53:269,31.988,-0.565,-0.049,-0.191,57.867,53.616,-81.070
13:33:53:298,32.017,-0.534,-0.103,-0.113,59.112,56.897,-82.126
13:33:53:3,32.019,-0.438,-0.392,0.097,60.828,61.099,-83.372
13:33:53:321,32.040,-0.465,-0.757,0.284,63.586,64.274,-84.256
13:33:53:462,32.180,-0.413,-0.960,0.336,64.572,65.731,-84.713
13:33:53:463,32.181,-0.284,-1.045,0.361,63.484,67.289,-85.076
13:33:53:463,32.182,-0.108,-1.009,0.376,60.729,68.050,-85.103
13:33:53:464,32.183,-0.006,-0.926,0.391,53.561,68.835,-84.849
13:33:53:482,32.201,0.042,-0.676,0.372,42.554,68.887,-84.026
13:33:53:483,32.202,-0.090,-0.082,0.281,33.634,68.240,-82.870
13:33:53:505,32.224,-0.640,1.098,0.209,22.419,66.091,-79.740
13:33:53:645,32.364,-0.702,1.278,0.199,19.622,64.516,-77.028
13:33:53:646,32.365,-0.194,1.470,-0.011,17.004,62.025,-73.097
13:33:53:647,32.366,0.010,0.722,-0.198,17.894,60.317,-71.688
13:33:53:648,32.366,0.067,0.358,-0.289,16.292,58.828,-71.656
13:33:53:751,32.469,0.089,-0.030,-0.448,10.866,55.854,-71.805
13:33:53:751,32.470,0.196,-0.216,-0.490,6.348,53.755,-71.791
13:33:53:752,32.471,0.277,-0.304,-0.494,2.098,51.860,-71.516
13:33:53:753,32.472,0.407,-0.447,-0.348,1.184,50.419,-71.019
13:33:53:771,32.489,0.413,-0.600,-0.308,1.844,50.782,-70.735
13:33:53:771,32.490,0.352,-0.759,-0.349,3.330,50.846,-70.680
13:33:53:884,32.603,0.297,-0.770,-0.393,4.333,52.134,-70.844
13:33:53:884,32.603,0.265,-0.631,-0.469,5.871,54.135,-71.172
13:33:53:884,32.603,0.128,-0.134,-0.736,8.227,57.412,-71.595
13:33:53:884,32.603,0.029,0.361,-0.968,10.197,60.199,-71.837
13:33:53:901,32.620,-0.397,1.314,-0.901,14.279,65.171,-71.897
13:33:53:902,32.621,-0.650,1.300,-0.678,18.440,69.020,-72.033
13:33:54:014,32.732,-0.820,1.068,-0.578,27.459,75.128,-72.873
13:33:54:014,32.733,-0.711,0.487,0.080,33.006,78.682,-74.152
13:33:54:016,32.734,-0.457,0.078,0.138,37.412,83.319,-76.774
13:33:54:016,32.735,-0.322,-0.100,0.292,41.138,87.496,-79.272
13:33:54:033,32.752,-0.288,-0.458,0.423,43.441,89.902,-80.668
13:33:54:058,32.777,-0.262,-0.738,0.507,46.145,92.596,-82.213
13:33:54:141,32.859,-0.157,-0.976,0.464,45.929,93.679,-82.908
13:33:54:142,32.860,-0.069,-1.019,0.472,41.156,94.765,-83.396
13:33:54:142,32.861,0.124,-1.006,0.484,32.079,95.484,-83.167
13:33:54:161,32.880,0.210,-0.931,0.462,23.906,95.573,-82.681
13:33:54:187,32.906,0.160,-0.681,0.416,11.602,94.877,-81.317
13:33:54:273,32.992,-0.001,0.516,0.158,4.017,93.605,-79.735
13:33:54:273,32.992,-0.278,1.120,0.467,3.873,91.274,-76.641
13:33:54:273,32.992,-0.387,1.319,0.302,10.403,89.384,-72.577
13:33:54:293,33.012,-0.209,1.341,-0.003,12.911,88.214,-70.551
13:33:54:406,33.124,-0.057,0.738,-0.330,11.385,86.407,-69.773
13:33:54:407,33.125,-0.057,0.331,-0.333,7.844,84.716,-69.891
13:33:54:407,33.126,-0.059,0.090,-0.438,0.924,81.325,-70.086
13:33:54:408,33.127,0.034,-0.193,-0.559,-3.761,78.016,-70.091
13:33:54:426,33.145,0.106,-0.313,-0.527,-4.851,76.314,-70.073
13:33:54:45,33.169,0.178,-0.566,-0.477,-4.323,74.616,-70.066
13:33:54:48,33.199,0.190,-0.829,-0.438,-3.611,73.978,-70.170
13:33:54:533,33.251,0.223,-0.819,-0.475,-3.496,73.793,-70.568
13:33:54:533,33.251,0.190,-0.754,-0.482,-3.325,75.118,-71.270
13:33:54:557,33.276,0.129,-0.675,-0.468,-2.626,76.867,-71.918
13:33:54:581,33.300,-0.115,-0.201,-0.648,-0.373,80.506,-72.981
13:33:54:668,33.386,-0.227,0.399,-0.834,1.913,83.467,-73.489
13:33:54:668,33.387,-0.492,1.426,-0.574,9.081,88.568,-73.699
13:33:54:668,33.387,-0.688,1.271,-0.277,17.341,92.582,-73.854
13:33:54:716,33.434,-0.758,1.146,0.080,30.418,97.183,-75.137
13:33:54:716,33.435,-0.508,0.360,0.363,40.064,101.357,-77.642
13:33:54:739,33.458,-0.252,-0.041,0.222,43.549,103.782,-79.520
13:33:54:765,33.484,-0.099,-0.130,0.417,45.533,106.775,-82.031
13:33:54:791,33.510,0.019,-0.361,0.423,45.029,109.181,-83.824
13:33:54:818,33.536,0.024,-0.691,0.463,45.497,110.417,-84.642
13:33:54:844,33.563,0.030,-0.915,0.493,44.107,111.650,-85.291
13:33:54:872,33.590,0.121,-1.002,0.450,38.390,112.093,-85.384
13:33:54:955,33.674,0.238,-1.040,0.361,22.738,112.301,-84.961
13:33:54:955,33.674,0.228,-0.888,0.327,9.211,111.976,-84.215
13:33:54:956,33.675,0.163,-0.618,0.304,-8.695,110.332,-82.179
13:33:54:975,33.694,0.050,0.668,0.217,-14.960,107.265,-79.152
13:33:55:001,33.720,-0.108,1.135,0.565,-10.135,105.115,-77.084
13:33:55:028,33.746,-0.075,1.464,0.356,-1.248,101.549,-73.399
13:33:55:083,33.801,0.027,1.458,-0.208,0.693,98.741,-71.524
13:33:55:084,33.802,-0.010,0.961,-0.278,-1.369,94.726,-71.084
13:33:55:107,33.825,-0.123,0.286,-0.359,-6.527,90.530,-71.652
13:33:55:133,33.851,-0.117,-0.018,-0.618,-10.107,87.473,-71.924
13:33:55:159,33.878,-0.050,-0.225,-0.650,-12.695,83.585,-72.131
13:33:55:244,33.962,0.031,-0.443,-0.577,-12.111,81.668,-72.178
13:33:55:244,33.963,0.099,-0.680,-0.479,-9.889,79.587,-72.288
13:33:55:245,33.963,0.161,-0.857,-0.483,-8.967,78.312,-72.723
13:33:55:295,34.014,0.175,-0.906,-0.457,-8.854,78.201,-73.221
13:33:55:295,34.014,0.151,-0.913,-0.495,-8.576,79.433,-74.103
13:33:55:404,34.122,0.083,-0.683,-0.547,-8.026,81.106,-74.677
13:33:55:405,34.123,-0.109,-0.215,-0.549,-7.174,84.609,-75.656
13:33:55:405,34.124,-0.250,1.052,-1.013,-2.827,89.129,-76.047
13:33:55:406,34.125,-0.569,1.494,-0.472,5.361,92.911,-76.070
13:33:55:423,34.142,-0.382,0.972,0.231,21.059,99.047,-77.069
13:33:55:449,34.167,-0.784,0.779,0.186,31.483,102.497,-78.398
13:33:55:532,34.251,-0.428,0.244,0.410,46.168,107.534,-81.299
13:33:55:533,34.252,-0.009,0.004,0.333,55.502,111.772,-84.395
13:33:55:534,34.253,0.068,-0.086,0.393,61.299,114.210,-86.042
13:33:55:584,34.302,0.167,-0.415,0.414,70.450,117.241,-87.866
13:33:55:584,34.302,0.153,-0.658,0.442,75.827,118.823,-88.577
13:33:55:692,34.411,0.165,-0.900,0.443,77.246,120.204,-88.964
13:33:55:693,34.412,0.266,-0.950,0.317,71.024,120.539,-88.806
13:33:55:694,34.413,0.291,-0.902,0.274,37.509,120.155,-87.952
13:33:55:695,34.414,0.299,-0.866,0.346,-1.965,118.791,-86.449
13:33:55:711,34.430,0.138,-0.690,0.295,-13.659,117.320,-85.130
13:33:55:795,34.513,0.068,0.089,0.280,-17.033,114.198,-82.365
13:33:55:795,34.514,-0.119,1.134,0.490,-5.865,110.398,-78.574
13:33:55:796,34.515,-0.235,1.334,0.496,3.368,107.726,-75.806
13:33:55:844,34.563,-0.174,1.341,0.064,8.527,103.163,-72.644
13:33:55:845,34.563,-0.270,0.765,-0.303,6.778,99.914,-71.786
13:33:55:956,34.674,-0.189,0.437,-0.349,-0.072,94.960,-71.448
13:33:55:957,34.675,-0.190,0.053,-0.562,-5.928,91.537,-71.309
13:33:55:957,34.676,-0.081,-0.066,-0.663,-11.693,87.052,-70.709
13:33:55:958,34.677,0.065,-0.329,-0.622,-12.163,83.979,-70.096
13:33:55:974,34.693,0.137,-0.610,-0.551,-11.235,82.584,-69.793
13:33:55:999,34.717,0.170,-0.904,-0.524,-10.532,81.110,-69.630
13:33:56:114,34.833,0.186,-0.941,-0.517,-10.901,80.634,-69.669
13:33:56:114,34.833,0.152,-0.872,-0.514,-11.730,81.195,-69.897
13:33:56:115,34.834,0.060,-0.563,-0.616,-11.739,83.520,-70.206
13:33:56:115,34.834,-0.081,-0.191,-0.733,-11.316,85.903,-70.424
13:33:56:133,34.852,-0.330,0.750,-0.800,-10.237,90.382,-70.705
13:33:56:134,34.852,-0.554,1.420,-0.411,-8.417,93.876,-70.826
13:33:56:215,34.933,-0.674,1.663,-0.207,-0.801,99.927,-71.131
13:33:56:215,34.934,-0.934,0.914,-0.139,12.918,106.169,-72.519
13:33:56:216,34.935,-0.559,0.537,0.381,17.696,109.049,-74.319
13:33:56:264,34.983,-0.351,0.106,0.429,20.778,112.309,-77.444
13:33:56:265,34.984,-0.030,-0.174,0.467,19.854,114.323,-79.503
13:33:56:377,35.096,0.123,-0.517,0.509,18.286,117.158,-82.114
13:33:56:377,35.096,0.112,-0.834,0.565,19.541,119.141,-83.818
13:33:56:377,35.096,0.112,-0.878,0.530,16.150,119.794,-84.449
13:33:56:378,35.096,0.209,-1.033,0.481,6.647,120.228,-84.663
13:33:56:393,35.111,0.347,-0.986,0.403,-1.721,120.111,-84.355
13:33:56:419,35.138,0.371,-0.953,0.411,-12.660,119.086,-83.292
13:33:56:504,35.222,0.256,-0.690,0.415,-17.723,116.798,-81.177
13:33:56:504,35.223,0.211,-0.085,0.345,-19.261,114.283,-78.829
13:33:56:505,35.223,0.046,0.991,0.545,-11.808,110.006,-74.572
13:33:56:524,35.243,-0.027,1.235,0.353,-3.276,107.404,-71.459
13:33:56:551,35.270,-0.199,1.350,-0.116,6.632,103.524,-67.201
13:33:56:636,35.355,-0.223,0.959,-0.348,10.769,99.775,-65.305
13:33:56:637,35.356,-0.264,0.604,-0.402,10.688,96.747,-64.505
13:33:56:637,35.356,-0.197,0.289,-0.561,8.636,91.649,-63.659
13:33:56:656,35.375,-0.102,0.049,-0.607,7.710,88.604,-63.368
13:33:56:682,35.401,-0.022,-0.395,-0.678,7.561,85.126,-63.164
13:33:56:708,35.426,0.098,-0.579,-0.546,7.336,82.677,-63.205
13:33:56:764,35.482,0.137,-0.680,-0.509,7.107,81.566,-63.438
13:33:56:764,35.482,0.200,-0.907,-0.506,6.820,80.666,-64.297
13:33:56:786,35.505,0.202,-0.975,-0.656,6.595,80.588,-65.183
13:33:56:814,35.533,0.177,-0.899,-0.693,6.993,81.632,-66.730
13:33:56:981,35.699,-0.083,-0.685,-0.715,8.415,83.246,-67.808
13:33:56:981,35.700,-0.318,0.420,-1.150,11.449,86.800,-69.061
13:33:56:981,35.700,-0.702,1.371,-0.549,16.261,91.483,-69.656
13:33:56:982,35.701,-0.712,1.635,-0.110,19.922,95.191,-69.983
13:33:57:058,35.777,-0.994,1.375,-0.149,27.434,99.977,-71.542
13:33:57:059,35.777,-0.475,0.541,0.475,33.503,103.178,-73.416
13:33:57:06,35.778,-0.348,0.206,0.512,39.604,107.846,-76.888
13:33:57:06,35.779,-0.052,-0.153,0.614,43.596,112.093,-80.089
13:33:57:078,35.796,0.104,-0.391,0.611,45.361,114.624,-81.738
13:33:57:079,35.797,0.146,-0.769,0.595,47.826,117.747,-83.359
13:33:57:103,35.822,0.161,-1.040,0.558,48.884,119.126,-83.881
13:33:57:128,35.847,0.245,-1.092,0.482,45.156,120.514,-83.957
13:33:57:184,35.902,0.301,-1.084,0.384,34.480,120.850,-83.462
13:33:57:184,35.902,0.327,-1.015,0.344,24.249,120.601,-82.885
13:33:57:206,35.925,0.278,-0.682,0.296,8.707,119.283,-81.304
13:33:57:234,35.953,0.008,0.977,0.150,0.854,117.676,-79.473
13:33:57:342,36.060,0.067,1.143,0.453,2.072,114.709,-75.895
13:33:57:343,36.061,-0.047,1.221,0.448,11.234,112.473,-71.459
13:33:57:371,36.090,-0.196,1.458,0.143,14.442,110.737,-68.636
13:33:57:372,36.090,-0.309,0.923,-0.284,15.007,108.468,-66.859
13:33:57:372,36.091,-0.274,0.435,-0.322,11.950,106.361,-66.768
13:33:57:391,36.110,-0.343,0.133,-0.629,4.749,102.424,-66.852
13:33:57:475,36.194,-0.246,-0.079,-0.634,0.562,99.581,-66.775
13:33:57:476,36.195,-0.107,-0.374,-0.627,-2.001,96.533,-66.667
13:33:57:476,36.195,0.083,-0.705,-0.545,-1.353,94.937,-66.730
13:33:57:496,36.214,0.115,-0.862,-0.531,-0.452,94.387,-66.997
13:33:57:521,36.240,0.075,-0.964,-0.541,1.080,94.676,-67.694
13:33:57:606,36.325,-0.031,-0.861,-0.599,2.427,96.154,-68.424
13:33:57:607,36.326,-0.097,-0.726,-0.582,3.358,98.064,-68.861
13:33:57:607,36.326,-0.423,-0.202,-0.608,6.092,102.039,-69.346
13:33:57:627,36.346,-0.684,0.607,-0.754,8.226,105.214,-69.490
13:33:57:652,36.371,-0.850,1.016,-0.328,12.085,110.614,-69.217
13:33:57:795,36.513,-0.901,1.299,-0.194,14.612,114.492,-69.070
13:33:57:795,36.514,-0.929,1.426,0.317,20.880,121.008,-68.946
13:33:57:796,36.514,-0.450,0.534,0.380,29.894,128.514,-69.980
13:33:57:797,36.515,-0.337,0.290,0.343,33.575,132.776,-71.233
13:33:57:872,36.590,-0.190,-0.028,0.348,36.341,138.131,-73.353
13:33:57:872,36.591,0.063,-0.238,0.468,37.571,141.296,-74.650
13:33:57:873,36.592,0.163,-0.456,0.484,39.444,145.413,-76.335
13:33:57:874,36.593,0.287,-0.824,0.569,40.630,148.328,-77.852
13:33:57:918,36.637,0.358,-1.044,0.532,40.702,149.663,-78.776
13:33:57:918,36.637,0.388,-1.127,0.476,39.506,150.997,-79.890
13:33:58:03,36.749,0.455,-1.007,0.404,37.004,151.427,-80.340
13:33:58:03,36.749,0.509,-0.750,0.361,28.094,151.348,-80.142
13:33:58:031,36.750,0.582,-0.156,0.275,11.473,149.752,-77.938
13:33:58:032,36.750,0.385,0.821,0.184,6.149,147.957,-75.014
13:33:58:046,36.765,0.106,1.036,0.393,5.691,145.358,-70.120
13:33:58:161,36.879,-0.279,1.406,-0.254,6.963,141.904,-62.543
13:33:58:161,36.880,-0.443,0.360,-0.382,2.552,138.748,-61.786
13:33:58:162,36.880,-0.209,0.045,-0.166,-2.036,135.674,-61.870
13:33:58:163,36.881,-0.631,0.000,-0.839,-5.527,132.037,-61.560
13:33:58:207,36.926,-0.453,-0.612,-0.491,-3.963,131.403,-61.603
13:33:58:208,36.926,-0.415,-0.853,-0.411,-0.479,131.692,-61.979
13:33:58:288,37.007,-0.442,-0.970,-0.420,1.148,132.584,-62.534
13:33:58:289,37.008,-0.460,-0.998,-0.462,1.248,133.765,-62.951
13:33:58:29,37.009,-0.586,-0.817,-0.415,0.995,136.883,-63.668
13:33:58:309,37.028,-0.686,-0.641,-0.396,1.034,139.990,-64.153
13:33:58:364,37.083,-0.982,0.073,-0.246,3.275,146.226,-65.095
13:33:58:365,37.083,-1.070,0.794,0.149,9.360,153.826,-66.071
13:33:58:448,37.167,-0.855,0.958,0.502,14.942,159.299,-66.566
13:33:58:448,37.167,-0.685,1.273,0.584,22.435,166.788,-67.517
13:33:58:448,37.167,-0.325,1.176,0.795,28.184,171.227,-68.619
13:33:58:467,37.185,-0.090,0.914,0.780,37.530,177.279,-71.269
13:33:58:495,37.213,0.055,0.433,0.540,44.360,-178.977,-73.388
13:33:58:602,37.321,0.179,0.274,0.421,55.278,-173.357,-76.601
13:33:58:602,37.321,0.271,0.127,0.330,65.934,-167.894,-79.621
13:33:58:632,37.351,0.324,-0.119,0.263,72.467,-164.495,-81.720
13:33:58:632,37.351,0.335,-0.303,0.161,80.886,-159.657,-85.009
13:33:58:632,37.351,0.365,-0.371,0.148,85.425,-156.543,-87.205
13:33:58:736,37.455,0.410,-0.443,0.025,90.453,-151.857,-90.336
13:33:58:737,37.456,0.375,-0.364,-0.081,93.130,-147.216,-92.930
13:33:58:738,37.456,0.420,-0.254,-0.115,93.833,-144.404,-94.273
13:33:58:762,37.481,0.557,-0.023,-0.115,93.992,-141.779,-95.886
13:33:58:762,37.481,0.577,-0.112,0.002,94.313,-141.703,-97.471
13:33:58:922,37.641,0.396,-0.259,-0.074,95.042,-142.727,-100.497
13:33:58:923,37.641,0.257,-0.198,-0.148,94.839,-142.557,-101.893
13:33:58:923,37.642,0.126,-0.083,-0.218,94.359,-141.532,-101.757
13:33:58:924,37.643,0.049,-0.045,-0.130,93.976,-140.465,-101.594
13:33:58:965,37.684,-0.076,-0.154,-0.049,93.977,-140.387,-101.908
13:33:58:994,37.713,-0.081,-0.254,-0.064,94.114,-140.819,-102.614
13:33:59:026,37.745,-0.115,-0.290,-0.056,94.494,-141.601,-103.536
13:33:59:027,37.746,-0.106,-0.273,-0.041,94.886,-142.137,-104.266
13:33:59:028,37.747,-0.083,-0.306,0.041,95.691,-143.268,-106.039
13:33:59:028,37.747,-0.192,-0.364,0.068,96.325,-144.204,-107.667
13:33:59:131,37.850,-0.268,-0.314,0.105,97.181,-145.335,-110.170
13:33:59:132,37.851,-0.171,-0.150,0.057,97.910,-144.970,-113.218
13:33:59:133,37.851,-0.199,-0.145,0.146,98.526,-146.532,-116.156
13:33:59:134,37.852,-0.223,0.021,0.172,99.586,-147.557,-120.228
13:33:59:15,37.868,-0.221,0.274,0.231,100.215,-147.756,-121.569
13:33:59:177,37.896,-0.070,0.379,0.222,100.674,-145.665,-122.181
13:33:59:255,37.974,0.106,0.411,0.103,100.654,-143.667,-121.527
13:33:59:315,38.033,0.076,0.385,0.033,100.526,-140.684,-120.460
13:33:59:316,38.034,-0.005,0.248,-0.021,100.145,-136.738,-118.264
13:33:59:316,38.035,0.034,0.031,-0.033,99.898,-133.174,-116.765
13:33:59:317,38.036,0.069,-0.059,-0.042,99.763,-129.600,-114.880
13:33:59:333,38.052,0.124,-0.238,-0.068,99.957,-126.425,-113.948
13:33:59:417,38.136,0.062,-0.307,-0.110,100.174,-125.506,-113.860
13:33:59:418,38.137,0.026,-0.352,-0.131,100.599,-124.384,-114.378
13:33:59:419,38.137,0.029,-0.375,-0.148,100.975,-124.576,-115.184
13:33:59:438,38.156,0.025,-0.261,-0.158,101.530,-124.984,-116.972
13:33:59:464,38.183,0.008,-0.129,-0.175,101.764,-126.366,-118.697
13:33:59:548,38.267,0.006,0.088,-0.176,101.851,-129.252,-121.909
13:33:59:549,38.268,0.205,0.305,-0.170,102.105,-132.370,-124.320
13:33:59:55,38.269,0.215,0.350,-0.169,102.264,-133.960,-125.102
13:33:59:569,38.288,0.139,0.288,-0.216,102.094,-135.897,-125.730
13:33:59:595,38.314,0.163,0.343,-0.066,101.847,-136.206,-125.159
13:33:59:68,38.399,0.020,0.231,-0.046,101.619,-135.721,-123.537
13:33:59:681,38.399,-0.087,0.078,0.016,101.583,-135.254,-122.077
13:33:59:682,38.400,-0.154,-0.059,0.047,101.550,-134.785,-121.160
13:33:59:7,38.419,-0.159,-0.066,0.046,101.332,-133.614,-119.468
13:33:59:727,38.446,-0.155,-0.077,0.047,101.091,-132.563,-118.447
13:33:59:78,38.499,-0.173,-0.291,0.072,100.789,-131.635,-117.842
13:33:59:839,38.557,-0.189,-0.396,0.102,100.626,-131.230,-118.204
13:33:59:839,38.557,-0.196,-0.374,0.154,100.566,-131.061,-118.820
13:33:59:839,38.558,-0.171,-0.241,0.220,100.597,-131.420,-120.814
13:33:59:859,38.577,-0.138,-0.188,0.305,100.823,-132.483,-123.283
13:33:59:884,38.603,-0.158,-0.169,0.245,101.575,-135.007,-127.821
13:33:59:998,38.717,-0.150,0.102,0.398,102.558,-135.580,-130.527
13:33:59:998,38.717,0.051,0.371,0.357,103.021,-134.812,-131.055
13:33:59:998,38.717,0.181,0.494,0.208,103.236,-132.760,-130.886
13:34:00:018,38.737,0.105,0.433,0.092,103.124,-130.620,-129.966
13:34:00:019,38.737,0.077,0.335,0.008,102.476,-125.802,-127.379
13:34:00:099,38.818,0.086,0.063,-0.064,101.468,-120.083,-123.720
13:34:00:1,38.819,0.084,-0.057,-0.096,100.812,-115.824,-121.119
13:34:00:101,38.820,0.016,-0.116,-0.181,99.961,-110.378,-117.869
13:34:00:12,38.839,0.015,-0.201,-0.186,99.544,-107.936,-116.619
13:34:00:146,38.865,0.018,-0.399,-0.208,99.212,-106.153,-116.030
13:34:00:314,39.033,0.069,-0.376,-0.255,99.222,-106.062,-116.315
13:34:00:315,39.033,0.050,-0.337,-0.265,99.507,-107.419,-117.920
13:34:00:316,39.034,-0.014,-0.347,-0.171,99.829,-110.413,-121.071
13:34:00:419,39.137,0.077,0.258,-0.163,100.784,-116.560,-125.846
13:34:00:419,39.138,0.127,0.371,-0.121,101.216,-117.379,-126.087
13:34:00:42,39.138,0.100,0.326,-0.147,101.068,-117.852,-125.557
13:34:00:42,39.139,0.045,0.339,-0.078,100.304,-116.335,-123.163
13:34:00:441,39.160,0.051,0.278,-0.018,99.889,-114.679,-120.850
13:34:00:442,39.161,-0.010,0.027,0.042,99.489,-112.413,-117.607
13:34:00:443,39.162,-0.146,-0.025,0.094,99.339,-111.078,-115.694
13:34:00:541,39.259,-0.167,-0.082,0.133,99.126,-109.082,-113.223
13:34:00:577,39.296,-0.089,-0.214,0.235,98.867,-107.164,-111.135
13:34:00:577,39.296,-0.074,-0.296,0.259,98.699,-105.918,-109.999
13:34:00:578,39.296,-0.149,-0.287,0.255,98.636,-104.411,-109.027
13:34:00:578,39.296,-0.154,-0.359,0.238,98.728,-103.565,-108.966
13:34:00:681,39.400,-0.092,-0.356,0.276,99.187,-102.582,-109.682
13:34:00:682,39.401,-0.095,-0.197,0.357,100.086,-101.995,-111.402
13:34:00:682,39.401,-0.042,-0.156,0.374,101.035,-101.968,-113.284
13:34:00:683,39.402,0.001,-0.134,0.336,103.002,-102.387,-116.325
13:34:00:837,39.556,0.177,0.072,0.414,104.559,-101.965,-117.684
13:34:00:837,39.556,0.344,0.328,0.245,106.738,-99.693,-117.832
13:34:00:837,39.556,0.412,0.547,-0.088,108.441,-96.841,-116.719
13:34:00:989,39.708,0.359,0.376,-0.237,109.463,-95.075,-115.829
13:34:00:99,39.709,0.204,0.114,-0.322,111.223,-92.114,-114.330
13:34:01:127,39.845,0.127,-0.100,-0.375,112.519,-89.952,-113.096
13:34:01:128,39.846,0.051,-0.318,-0.439,114.559,-87.040,-111.031
13:34:01:128,39.847,-0.002,-0.579,-0.411,116.824,-85.011,-108.970
13:34:01:129,39.848,-0.025,-0.680,-0.389,118.477,-84.126,-107.589
13:34:01:259,39.978,-0.077,-0.786,-0.341,121.125,-83.354,-105.410
13:34:01:26,39.979,-0.150,-0.770,-0.333,122.800,-83.169,-103.794
13:34:01:26,39.979,-0.162,-0.708,-0.344,124.141,-83.368,-100.987
13:34:01:26,39.979,-0.150,-0.130,-0.481,121.081,-84.285,-97.437
13:34:01:285,40.003,-0.001,0.574,-0.610,112.079,-85.566,-94.344
13:34:01:285,40.004,0.135,0.478,-0.686,81.985,-88.009,-88.596
13:34:01:286,40.005,0.306,1.001,-0.645,54.778,-90.255,-84.393
13:34:01:287,40.005,0.168,1.749,-0.099,21.970,-94.125,-78.631
13:34:01:393,40.112,0.011,1.060,0.295,10.353,-97.328,-75.298
13:34:01:393,40.112,0.124,0.502,0.078,6.051,-99.616,-73.902
13:34:01:393,40.112,0.111,0.095,0.628,0.531,-104.003,-72.060
13:34:01:394,40.113,-0.038,-0.312,0.705,-1.606,-106.849,-70.926
13:34:01:494,40.213,-0.141,-0.442,0.717,-3.716,-110.568,-69.464
13:34:01:495,40.214,-0.366,-0.632,0.654,-5.013,-112.601,-68.724
13:34:01:496,40.214,-0.424,-0.732,0.627,-6.063,-114.548,-68.210
13:34:01:497,40.215,-0.410,-0.889,0.654,-5.923,-114.648,-68.383
13:34:01:522,40.241,-0.378,-0.773,0.624,-5.995,-113.731,-68.799
13:34:01:523,40.241,-0.218,-0.376,0.656,-5.432,-110.836,-69.818
13:34:01:523,40.241,-0.145,0.484,1.052,-3.778,-108.001,-70.703
13:34:01:523,40.242,0.204,0.947,0.784,3.467,-102.441,-71.930
13:34:01:548,40.266,0.376,1.490,0.224,14.559,-96.036,-72.893
13:34:01:548,40.266,0.628,1.778,0.526,21.653,-92.415,-73.589
13:34:01:548,40.267,0.859,1.091,-0.409,37.448,-87.752,-75.953
13:34:01:549,40.268,0.568,0.313,-0.533,48.018,-84.461,-78.233
13:34:01:626,40.345,0.387,-0.029,-0.622,59.051,-80.440,-81.671
13:34:01:626,40.345,0.094,-0.339,-0.786,67.660,-76.622,-84.688
13:34:01:626,40.345,0.010,-0.624,-0.721,72.700,-74.387,-86.332
13:34:01:627,40.346,-0.035,-0.772,-0.581,77.003,-72.040,-87.933
13:34:01:643,40.362,-0.052,-0.926,-0.432,77.778,-70.983,-88.477
13:34:01:836,40.555,-0.126,-1.033,-0.407,74.103,-69.616,-88.540
13:34:01:837,40.556,-0.182,-1.084,-0.354,62.603,-68.769,-87.971
13:34:01:838,40.557,-0.197,-1.036,-0.340,47.768,-68.816,-87.311
13:34:01:838,40.557,-0.232,-0.641,-0.287,13.112,-69.927,-85.701
13:34:01:88,40.599,-0.210,0.083,-0.240,-1.733,-71.362,-84.019
13:34:01:915,40.633,-0.034,1.020,-0.570,2.960,-74.083,-80.814
13:34:01:915,40.634,-0.013,1.228,-0.511,15.236,-76.934,-76.529
13:34:01:916,40.635,-0.113,1.098,-0.214,17.069,-79.104,-74.105
13:34:01:917,40.635,0.000,0.775,0.026,12.698,-82.522,-72.527
13:34:01:933,40.652,0.088,0.304,0.104,6.389,-85.241,-72.268
13:34:01:961,40.679,0.159,0.066,0.484,-4.298,-90.020,-71.943
13:34:01:961,40.680,0.065,-0.102,0.498,-10.464,-94.642,-71.112
13:34:02:096,40.815,-0.036,-0.255,0.543,-12.134,-97.043,-70.489
13:34:02:096,40.815,-0.210,-0.477,0.519,-11.934,-99.246,-69.758
13:34:02:097,40.816,-0.201,-0.731,0.532,-10.839,-99.948,-69.601
13:34:02:256,40.974,-0.172,-0.805,0.578,-9.203,-99.987,-70.019
13:34:02:257,40.975,-0.088,-0.710,0.611,-8.489,-99.277,-70.552
13:34:02:258,40.976,-0.051,-0.527,0.608,-7.407,-96.997,-71.528
13:34:02:259,40.977,0.119,0.066,0.741,-5.888,-93.481,-72.749
13:34:02:307,41.025,0.267,0.843,0.715,-3.764,-90.603,-73.650
13:34:02:308,41.027,0.493,1.277,0.201,4.318,-85.861,-74.812
13:34:02:309,41.027,0.492,1.469,-0.194,13.834,-82.581,-75.144
13:34:02:485,41.203,0.859,0.893,-0.338,30.413,-78.350,-76.639
13:34:02:52,41.238,0.390,0.211,-0.575,42.134,-73.678,-79.250
13:34:02:52,41.239,0.192,0.098,-0.520,46.112,-70.641,-81.156
13:34:02:52,41.239,-0.100,-0.206,-0.504,49.011,-66.533,-83.889
13:34:02:52,41.239,-0.160,-0.481,-0.464,50.018,-64.133,-85.319
13:34:02:624,41.342,-0.163,-0.716,-0.442,51.819,-61.156,-86.697
13:34:02:624,41.343,-0.200,-0.940,-0.369,48.960,-59.111,-87.121
13:34:02:625,41.344,-0.267,-1.043,-0.343,42.335,-58.350,-86.967
13:34:02:626,41.344,-0.303,-0.996,-0.344,22.717,-58.351,-86.339
13:34:02:65,41.368,-0.329,-0.951,-0.390,6.165,-59.194,-85.691
13:34:02:65,41.369,-0.217,-0.667,-0.425,-15.912,-61.906,-84.055
13:34:02:651,41.370,-0.075,0.289,-0.336,-22.397,-66.245,-81.304
13:34:02:652,41.370,0.078,1.152,-0.722,-15.034,-69.221,-79.064
13:34:02:771,41.490,0.034,1.470,-0.541,-4.567,-73.597,-74.885
13:34:02:808,41.527,-0.072,1.306,0.037,-2.600,-76.391,-72.686
13:34:02:809,41.527,-0.088,0.858,0.113,-5.344,-79.932,-71.840
13:34:02:809,41.527,0.126,0.137,0.234,-10.844,-83.923,-71.807
13:34:02:809,41.528,0.243,-0.005,0.405,-14.772,-87.009,-71.528
13:34:02:938,41.657,0.180,-0.179,0.586,-18.550,-90.978,-70.956
13:34:02:939,41.658,-0.090,-0.356,0.593,-18.918,-92.766,-70.625
13:34:02:94,41.659,-0.148,-0.600,0.503,-16.790,-94.419,-70.467
13:34:02:941,41.660,-0.147,-0.825,0.495,-14.294,-95.734,-70.927
13:34:03:07,41.788,-0.144,-0.962,0.507,-13.376,-95.628,-71.570
13:34:03:07,41.789,-0.090,-0.879,0.503,-13.296,-94.931,-72.838
13:34:03:071,41.790,-0.044,-0.761,0.486,-12.545,-93.191,-73.758
13:34:03:072,41.790,0.225,-0.033,0.664,-9.356,-89.878,-75.053
13:34:03:142,41.861,0.382,1.529,0.520,-5.265,-87.062,-75.580
13:34:03:143,41.862,0.563,1.473,-0.035,7.745,-81.917,-75.595
13:34:03:302,42.021,0.707,1.570,-0.079,25.314,-77.326,-76.379
13:34:03:302,42.021,0.550,0.621,-0.475,39.450,-74.230,-77.938
13:34:03:358,42.077,0.379,0.349,-0.573,51.931,-70.122,-81.155
13:34:03:359,42.078,0.091,0.000,-0.553,58.156,-67.458,-83.291
13:34:03:359,42.078,-0.078,-0.308,-0.460,68.327,-63.706,-86.306
13:34:03:36,42.079,-0.175,-0.806,-0.464,78.943,-60.623,-88.546
13:34:03:491,42.210,-0.205,-0.886,-0.414,85.933,-59.160,-89.564
13:34:03:491,42.210,-0.276,-1.106,-0.322,92.879,-57.458,-90.254
13:34:03:492,42.211,-0.332,-1.140,-0.298,93.627,-57.051,-90.295
13:34:03:492,42.211,-0.338,-1.036,-0.282,88.833,-56.916,-89.931
13:34:03:572,42.291,-0.285,-0.831,-0.384,50.890,-58.390,-88.825
13:34:03:572,42.291,-0.207,-0.221,-0.478,-8.883,-60.218,-87.483
13:34:03:572,42.291,-0.181,0.827,-0.815,-28.976,-64.589,-84.637
13:34:03:573,42.292,0.021,1.056,-0.992,-21.660,-67.914,-82.062
13:34:03:594,42.313,-0.262,1.402,-0.425,-14.828,-72.569,-77.967
13:34:03:595,42.314,-0.036,0.921,-0.070,-13.012,-76.284,-75.906
13:34:03:596,42.315,0.090,0.677,0.260,-15.542,-79.230,-75.477
13:34:03:597,42.315,0.188,0.266,0.190,-20.218,-83.183,-74.390
13:34:03:624,42.342,0.225,-0.068,0.379,-21.650,-86.115,-73.530
13:34:03:624,42.343,0.160,-0.239,0.421,-21.181,-89.716,-72.432
13:34:03:624,42.343,0.005,-0.342,0.549,-19.249,-92.687,-71.523
13:34:03:624,42.343,-0.065,-0.400,0.534,-17.902,-93.890,-71.197
13:34:03:778,42.497,-0.057,-0.624,0.490,-16.028,-95.055,-71.422
13:34:03:779,42.498,-0.050,-0.834,0.462,-15.317,-95.071,-71.992
13:34:03:78,42.499,-0.040,-0.862,0.443,-15.996,-94.355,-73.214
13:34:03:781,42.499,-0.068,-0.721,0.465,-17.302,-93.238,-74.163
13:34:03:852,42.570,0.084,-0.167,0.681,-17.727,-90.513,-75.700
13:34:03:853,42.571,0.145,1.082,0.601,-13.785,-86.766,-76.967
13:34:03:909,42.628,0.469,1.144,0.144,-7.930,-84.005,-77.549
13:34:03:91,42.629,0.452,1.491,-0.161,2.995,-79.793,-78.566
13:34:03:911,42.630,0.585,0.918,-0.391,22.889,-75.629,-80.748
13:34:03:911,42.630,0.679,0.420,-0.182,38.614,-72.673,-82.592
13:34:04:115,42.834,0.049,0.152,-0.600,49.416,-68.992,-85.771
13:34:04:115,42.834,-0.088,-0.157,-0.530,59.268,-66.365,-87.668
13:34:04:146,42.865,-0.216,-0.511,-0.599,89.004,-62.532,-89.949
13:34:04:147,42.865,-0.149,-0.802,-0.494,110.642,-60.491,-90.948
13:34:04:148,42.866,-0.166,-0.970,-0.414,126.631,-58.280,-91.597
13:34:04:148,42.867,-0.298,-1.124,-0.329,135.227,-57.026,-91.586
13:34:04:173,42.892,-0.328,-1.059,-0.271,151.358,-56.900,-91.257
13:34:04:174,42.892,-0.347,-0.774,-0.308,-96.337,-57.954,-90.123
13:34:04:174,42.893,-0.185,-0.418,-0.311,-64.068,-59.467,-88.955
13:34:04:198,42.917,-0.076,1.121,-0.571,-13.691,-67.660,-83.462
13:34:04:199,42.918,-0.008,1.279,-0.451,1.907,-70.792,-80.902
13:34:04:2,42.918,0.052,1.314,-0.050,-1.091,-75.942,-78.155
13:34:04:303,43.022,0.000,0.475,0.344,-21.284,-83.325,-77.092
13:34:04:304,43.023,0.038,0.119,0.389,-24.500,-86.400,-76.563
13:34:04:304,43.023,0.064,-0.188,0.455,-23.958,-87.949,-76.224
13:34:04:306,43.024,0.015,-0.334,0.439,-23.326,-89.862,-75.671
13:34:04:4,43.118,-0.023,-0.422,0.464,-23.001,-90.790,-75.254
13:34:04:462,43.181,-0.066,-0.558,0.469,-22.147,-91.279,-74.885
13:34:04:462,43.181,-0.045,-0.773,0.470,-20.196,-90.320,-75.199
13:34:04:462,43.181,-0.012,-0.818,0.498,-19.013,-88.973,-75.779
13:34:04:463,43.182,0.023,-0.716,0.439,-18.048,-86.043,-76.877
13:34:04:532,43.250,0.273,-0.337,0.561,-16.608,-83.593,-77.588
13:34:04:751,43.470,0.465,0.361,0.727,-13.276,-79.299,-78.234
13:34:04:751,43.470,0.613,1.457,0.179,-4.713,-74.191,-78.267
13:34:04:752,43.470,0.714,1.865,-0.087,6.159,-70.318,-78.410
13:34:04:752,43.470,0.511,1.050,-0.597,26.463,-64.824,-79.800
13:34:04:881,43.600,0.275,0.516,-0.652,38.070,-61.807,-81.529
13:34:04:882,43.600,-0.052,0.083,-0.522,48.581,-58.010,-84.436
13:34:04:883,43.601,-0.196,-0.366,-0.537,59.420,-54.361,-86.752
13:34:04:883,43.602,-0.241,-0.597,-0.535,67.288,-52.058,-87.711
13:34:04:961,43.679,-0.322,-0.905,-0.399,73.506,-49.278,-88.384
13:34:04:961,43.680,-0.406,-1.023,-0.255,72.818,-48.016,-88.395
13:34:04:962,43.681,-0.368,-1.018,-0.217,64.362,-47.132,-87.871
13:34:04:963,43.682,-0.326,-0.938,-0.188,53.467,-47.266,-87.209
13:34:04:986,43.705,-0.271,-0.796,-0.207,35.744,-48.816,-85.833
13:34:04:986,43.705,-0.183,-0.602,-0.230,24.411,-51.001,-84.125
13:34:04:987,43.706,-0.080,0.039,-0.397,19.149,-53.150,-82.662
13:34:04:989,43.708,-0.152,1.029,-0.749,16.050,-57.135,-79.569
13:34:05:012,43.731,0.186,1.214,-0.381,16.723,-60.152,-77.248
13:34:05:012,43.731,0.213,1.061,-0.268,14.913,-64.594,-75.320
13:34:05:013,43.732,0.138,0.781,0.229,8.170,-68.608,-74.776
13:34:05:014,43.733,0.129,0.509,0.237,6.077,-70.677,-74.394
13:34:05:091,43.810,0.107,0.048,0.254,6.493,-73.201,-73.895
13:34:05:092,43.810,0.122,-0.091,0.336,6.030,-74.990,-73.679
13:34:05:093,43.811,0.154,-0.396,0.409,4.666,-77.506,-73.396
13:34:05:094,43.812,0.070,-0.513,0.458,3.724,-79.270,-73.141
13:34:05:116,43.835,0.039,-0.583,0.532,3.850,-79.655,-73.050
13:34:05:117,43.836,0.048,-0.657,0.568,4.536,-78.921,-73.294
13:34:05:118,43.836,0.144,-0.661,0.526,5.517,-77.501,-73.657
13:34:05:119,43.837,0.217,-0.472,0.541,8.462,-74.006,-74.314
13:34:05:163,43.881,0.494,-0.096,0.463,14.272,-69.261,-75.254
13:34:05:164,43.882,0.678,0.233,0.444,19.286,-65.666,-75.823
13:34:05:245,43.963,0.897,1.068,-0.045,26.767,-59.889,-75.943
13:34:05:246,43.964,0.916,1.313,-0.371,31.531,-56.141,-76.351
13:34:05:246,43.965,0.745,0.958,-0.378,39.135,-50.976,-78.425
13:34:05:265,43.984,0.311,0.544,-0.570,49.386,-46.228,-81.292
13:34:05:292,44.010,0.057,0.212,-0.676,57.405,-43.165,-83.198
13:34:05:378,44.097,-0.166,-0.161,-0.660,68.003,-38.667,-85.654
13:34:05:378,44.097,-0.397,-0.444,-0.577,73.765,-35.684,-86.870
13:34:05:378,44.097,-0.481,-0.695,-0.456,79.243,-31.685,-87.964
13:34:05:426,44.145,-0.512,-0.974,-0.191,79.215,-28.700,-88.123
13:34:05:427,44.146,-0.477,-1.001,-0.195,75.077,-27.365,-87.597
13:34:05:529,44.248,-0.457,-0.869,-0.129,62.315,-26.047,-86.103
13:34:05:562,44.281,-0.354,-0.729,-0.034,51.119,-26.152,-84.830
13:34:05:563,44.282,-0.328,-0.536,-0.043,34.375,-26.521,-82.599
13:34:05:564,44.283,-0.215,0.113,-0.235,27.489,-27.945,-80.993
13:34:05:565,44.284,-0.082,0.851,-0.421,23.480,-29.837,-78.193
13:34:05:722,44.441,0.058,1.268,-0.440,21.931,-32.079,-75.215
13:34:05:722,44.441,0.194,1.386,-0.172,18.100,-34.194,-73.723
13:34:05:723,44.441,0.015,0.625,-0.067,13.142,-37.104,-73.112
13:34:05:723,44.441,0.236,0.179,0.109,13.118,-38.467,-73.094
13:34:05:853,44.572,0.268,-0.009,0.140,12.363,-40.432,-73.431
13:34:05:853,44.572,0.338,-0.197,0.234,8.947,-42.628,-73.807
13:34:05:853,44.572,0.346,-0.230,0.279,6.398,-43.949,-73.923
13:34:05:855,44.573,0.315,-0.353,0.322,4.772,-45.009,-74.050
13:34:05:928,44.647,0.325,-0.634,0.331,5.368,-45.057,-74.185
13:34:05:929,44.648,0.388,-0.742,0.343,6.888,-43.811,-74.583
13:34:05:93,44.649,0.429,-0.683,0.316,7.494,-41.229,-75.019
13:34:05:956,44.675,0.477,-0.511,0.248,8.052,-38.602,-75.348
13:34:05:957,44.676,0.642,-0.077,0.054,9.871,-33.587,-75.872
13:34:05:958,44.677,0.750,0.444,-0.070,12.053,-29.716,-76.008
13:34:05:974,44.693,0.358,1.214,-0.761,29.522,-16.661,-76.200
13:34:06:141,44.860,0.243,1.042,-0.909,36.684,-12.392,-76.958
13:34:06:141,44.860,-0.163,0.405,-0.827,46.244,-6.530,-78.746
13:34:06:142,44.861,-0.339,0.040,-0.563,50.153,-3.333,-80.140
13:34:06:143,44.862,-0.411,-0.049,-0.409,53.541,0.707,-82.116
13:34:06:187,44.905,-0.490,-0.448,-0.224,56.608,4.186,-83.728
13:34:06:272,44.991,-0.527,-0.705,-0.180,58.512,6.017,-84.487
13:34:06:272,44.991,-0.530,-0.909,-0.086,59.491,8.231,-85.117
13:34:06:273,44.992,-0.513,-1.017,0.037,58.318,9.299,-85.240
13:34:06:274,44.993,-0.469,-1.022,0.162,52.508,10.341,-85.016
13:34:06:377,45.096,-0.452,-0.825,0.199,39.746,10.138,-84.205
13:34:06:378,45.096,-0.418,-0.673,0.164,29.142,9.396,-83.271
13:34:06:379,45.097,-0.346,0.211,-0.010,17.068,7.091,-81.161
13:34:06:379,45.098,-0.396,0.976,-0.206,16.947,5.407,-79.144
13:34:06:4,45.118,-0.452,1.281,-0.399,21.919,2.889,-75.373
13:34:06:401,45.119,-0.175,1.138,-0.202,21.794,1.123,-73.550
13:34:06:401,45.120,0.158,0.701,-0.085,17.428,-1.568,-72.781
13:34:06:695,45.413,0.248,0.408,-0.060,11.767,-4.525,-72.699
13:34:06:695,45.413,0.421,0.091,-0.080,8.206,-6.566,-72.616
13:34:06:695,45.413,0.491,-0.137,-0.065,5.117,-9.847,-72.452
13:34:06:695,45.414,0.485,-0.306,0.020,3.300,-12.259,-72.268
13:34:06:772,45.490,0.486,-0.401,0.152,1.991,-13.944,-72.194
13:34:06:772,45.490,0.495,-0.616,0.238,1.215,-15.034,-72.402
13:34:06:772,45.491,0.490,-0.695,0.226,1.457,-15.263,-72.809
13:34:06:773,45.492,0.497,-0.757,0.174,2.209,-14.156,-73.713
13:34:06:798,45.516,0.489,-0.598,0.091,3.507,-12.607,-74.364
13:34:06:798,45.516,0.530,-0.442,-0.056,7.655,-9.152,-75.302
13:34:06:798,45.517,0.747,0.660,-0.369,12.029,-4.881,-75.892
13:34:06:799,45.518,0.154,1.443,-0.608,16.366,-1.621,-75.925
13:34:06:823,45.542,0.033,1.443,-0.823,27.085,3.428,-76.187
13:34:06:824,45.543,-0.168,1.091,-0.846,38.387,7.684,-77.835
13:34:06:824,45.543,-0.402,0.393,-0.644,46.128,10.270,-79.497
13:34:06:824,45.543,-0.504,-0.057,-0.278,53.857,13.768,-82.114
13:34:06:898,45.617,-0.498,-0.161,-0.102,57.506,15.976,-83.629
13:34:06:899,45.618,-0.504,-0.425,0.067,62.154,19.108,-85.292
13:34:06:9,45.619,-0.468,-0.731,0.126,64.387,20.835,-85.976
13:34:06:946,45.664,-0.412,-0.844,0.137,65.700,22.814,-86.404
13:34:07:031,45.750,-0.347,-1.001,0.170,64.071,24.080,-86.312
13:34:07:031,45.750,-0.307,-1.015,0.213,60.875,24.465,-86.038
13:34:07:032,45.751,-0.305,-0.854,0.196,51.540,24.269,-85.181
13:34:07:056,45.775,-0.235,-0.582,0.170,42.995,23.640,-84.273
13:34:07:057,45.775,-0.244,0.125,0.063,30.173,21.750,-82.238
13:34:07:058,45.776,-0.621,0.708,-0.084,26.709,19.307,-79.201
13:34:07:106,45.824,-0.573,1.052,-0.144,26.934,17.604,-76.611
13:34:07:107,45.825,-0.259,1.275,-0.184,28.229,14.857,-73.181
13:34:07:187,45.906,0.015,0.710,-0.212,28.964,13.241,-72.248
13:34:07:188,45.907,0.113,0.447,-0.188,26.398,10.383,-71.978
13:34:07:189,45.908,0.220,0.096,-0.152,20.849,6.959,-72.102
13:34:07:208,45.927,0.115,-0.131,-0.072,16.896,4.599,-72.235
13:34:07:234,45.953,0.423,-0.265,-0.081,11.620,1.112,-72.313
13:34:07:32,46.039,0.535,-0.289,0.022,9.028,-0.864,-72.221
13:34:07:32,46.039,0.559,-0.384,0.102,7.493,-2.953,-72.129
13:34:07:321,46.039,0.537,-0.611,0.086,9.243,-3.609,-72.353
13:34:07:34,46.058,0.564,-0.739,0.013,10.559,-3.290,-72.695
13:34:07:365,46.084,0.576,-0.659,-0.037,11.425,-1.605,-73.315
13:34:07:479,46.198,0.543,-0.351,-0.158,12.261,0.399,-73.789
13:34:07:479,46.198,0.591,-0.031,-0.350,14.283,4.447,-74.555
13:34:07:48,46.199,0.431,0.942,-0.603,18.403,9.454,-74.992
13:34:07:496,46.215,-0.121,1.221,-0.750,31.906,18.608,-75.495
13:34:07:582,46.301,-0.456,0.674,-0.672,38.914,21.837,-76.498
13:34:07:582,46.301,-0.549,0.197,-0.344,48.302,26.382,-78.877
13:34:07:582,46.301,-0.549,-0.077,-0.089,54.565,30.548,-81.393
13:34:07:604,46.322,-0.476,-0.305,0.120,57.549,33.165,-82.837
13:34:07:629,46.348,-0.474,-0.600,0.237,60.913,36.541,-84.458
13:34:07:654,46.373,-0.433,-0.773,0.221,62.345,38.249,-85.135
13:34:07:795,46.513,-0.350,-0.926,0.239,62.591,40.077,-85.639
13:34:07:795,46.514,-0.272,-1.059,0.336,61.128,41.223,-85.677
13:34:07:796,46.514,-0.268,-1.038,0.346,57.870,41.378,-85.504
13:34:07:797,46.515,-0.279,-0.807,0.344,47.410,40.506,-84.794
13:34:07:904,46.622,-0.333,-0.023,0.230,35.919,39.143,-83.890
13:34:07:904,46.622,-0.362,0.917,0.009,19.762,35.812,-81.570
13:34:07:904,46.622,-0.656,1.052,-0.058,20.846,33.515,-79.436
13:34:07:904,46.623,-0.425,1.173,0.108,23.483,30.279,-75.465
13:34:07:92,46.639,-0.067,1.017,-0.092,26.140,27.719,-72.847
13:34:07:92,46.639,0.020,0.609,-0.188,25.368,26.187,-72.194
13:34:08:031,46.750,0.131,0.215,-0.278,20.673,23.196,-71.721
13:34:08:032,46.751,0.213,0.093,-0.314,16.344,20.822,-71.508
13:34:08:032,46.751,0.401,-0.161,-0.353,11.082,17.584,-71.067
13:34:08:033,46.752,0.558,-0.262,-0.214,8.332,15.317,-70.376
13:34:08:074,46.793,0.603,-0.608,-0.052,9.032,14.231,-69.920
13:34:08:13,46.849,0.582,-0.769,-0.115,10.332,14.805,-70.136
13:34:08:131,46.849,0.570,-0.712,-0.170,11.751,16.806,-70.588
13:34:08:211,46.930,0.501,-0.513,-0.217,13.075,20.207,-71.030
13:34:08:212,46.931,0.403,-0.355,-0.382,15.130,23.227,-71.381
13:34:08:213,46.932,0.509,0.745,-0.834,17.835,28.209,-71.734
13:34:08:291,47.010,-0.027,1.027,-0.832,20.249,31.951,-71.474
13:34:08:291,47.010,-0.260,1.062,-0.901,23.675,37.623,-71.091
13:34:08:292,47.010,-0.464,0.738,-0.635,29.614,43.562,-71.688
13:34:08:313,47.031,-0.549,0.572,-0.544,34.331,47.474,-72.825
13:34:08:364,47.082,-0.575,0.243,-0.208,38.661,52.378,-75.008
13:34:08:452,47.170,-0.541,-0.013,-0.057,40.495,55.290,-76.457
13:34:08:452,47.171,-0.553,-0.218,0.116,43.179,59.379,-78.437
13:34:08:453,47.171,-0.539,-0.506,0.329,45.625,62.831,-80.001
13:34:08:453,47.171,-0.522,-0.736,0.425,46.190,64.522,-80.783
13:34:08:468,47.186,-0.310,-0.906,0.453,43.573,66.152,-81.594
13:34:08:494,47.213,-0.125,-0.960,0.496,39.234,66.815,-81.741
13:34:08:549,47.268,-0.063,-0.955,0.456,30.179,67.170,-81.181
13:34:08:55,47.269,-0.079,-0.811,0.409,18.965,66.499,-79.738
13:34:08:573,47.292,-0.081,-0.486,0.431,10.348,65.310,-78.139
13:34:08:601,47.320,-0.116,1.133,0.095,3.143,62.580,-74.505
13:34:08:626,47.345,-0.548,1.087,0.083,6.044,61.126,-71.770
13:34:08:68,47.399,-0.139,1.331,0.035,10.818,59.299,-67.242
13:34:08:681,47.400,0.159,1.159,-0.343,12.810,58.007,-64.834
13:34:08:704,47.422,0.129,0.509,-0.429,11.224,55.570,-63.744
13:34:08:73,47.449,0.255,0.007,-0.676,8.053,53.049,-63.730
13:34:08:756,47.475,0.303,-0.184,-0.522,5.166,51.198,-63.775
13:34:08:842,47.560,0.328,-0.329,-0.477,2.679,49.177,-63.740
13:34:08:842,47.561,0.316,-0.562,-0.423,2.736,48.533,-63.597
13:34:08:843,47.561,0.301,-0.664,-0.385,4.010,48.563,-63.395
13:34:08:862,47.581,0.301,-0.760,-0.395,4.988,49.511,-63.496
13:34:08:888,47.606,0.274,-0.788,-0.445,5.365,50.701,-63.706
13:34:09:002,47.720,0.219,-0.610,-0.593,5.376,53.461,-64.136
13:34:09:003,47.721,0.122,-0.240,-0.839,5.157,55.944,-64.563
13:34:09:003,47.721,-0.014,0.439,-0.963,4.700,60.435,-65.350
13:34:09:004,47.722,-0.370,0.942,-0.798,6.383,66.105,-66.199
13:34:09:019,47.738,-0.501,1.191,-0.645,9.153,70.135,-66.854
13:34:09:047,47.765,-0.778,1.094,-0.499,16.456,76.174,-68.245
13:34:09:1,47.819,-0.933,0.788,-0.122,22.010,80.012,-69.691
13:34:09:102,47.821,-0.591,0.333,0.313,27.671,85.108,-72.606
13:34:09:124,47.843,-0.310,-0.051,0.483,30.869,89.439,-75.780
13:34:09:179,47.898,-0.237,-0.240,0.548,32.192,92.033,-77.680
13:34:09:18,47.899,-0.125,-0.657,0.585,32.220,95.354,-79.941
13:34:09:231,47.949,-0.028,-0.850,0.470,29.745,97.048,-80.912
13:34:09:261,47.979,0.037,-0.919,0.449,23.548,99.053,-81.475
13:34:09:262,47.980,0.162,-0.972,0.417,16.449,100.515,-81.324
13:34:09:262,47.981,0.260,-0.907,0.372,10.772,101.015,-80.993
13:34:09:282,48.000,0.263,-0.795,0.419,3.920,100.956,-80.090
13:34:09:394,48.113,0.182,-0.513,0.429,-0.007,100.167,-79.020
13:34:09:394,48.113,-0.150,0.740,0.383,-4.768,97.444,-76.333
13:34:09:394,48.113,-0.438,1.377,0.459,1.930,94.857,-72.348
13:34:09:416,48.135,-0.140,1.365,0.408,6.500,93.452,-69.344
13:34:09:416,48.135,-0.058,1.075,-0.079,10.795,91.337,-66.153
13:34:09:467,48.186,-0.113,0.431,-0.269,10.920,89.877,-65.398
13:34:09:493,48.211,-0.157,0.157,-0.300,7.426,86.614,-65.156
13:34:09:55,48.269,-0.168,-0.115,-0.529,2.238,82.538,-64.996
13:34:09:551,48.270,-0.064,-0.238,-0.608,-0.546,80.096,-64.750
13:34:09:551,48.270,0.127,-0.361,-0.571,-2.327,77.562,-64.411
13:34:09:602,48.321,0.221,-0.648,-0.530,-2.123,76.597,-64.330
13:34:09:602,48.321,0.216,-0.811,-0.507,-0.768,76.039,-64.638
13:34:09:65,48.369,0.148,-0.891,-0.500,0.059,76.251,-65.062
13:34:09:679,48.397,0.120,-0.828,-0.537,0.599,77.585,-65.753
13:34:09:679,48.397,0.013,-0.321,-0.598,0.527,80.187,-66.312
13:34:09:702,48.420,-0.078,0.190,-0.789,1.007,82.612,-66.610
13:34:09:729,48.448,-0.376,0.898,-0.715,3.618,87.111,-67.057
13:34:09:783,48.502,-0.570,1.186,-0.336,6.195,90.280,-67.166
13:34:09:784,48.503,-0.746,1.408,-0.149,11.285,95.491,-67.231
13:34:09:837,48.556,-0.777,0.903,0.275,19.484,100.357,-68.827
13:34:09:837,48.556,-0.480,0.341,0.381,23.619,103.149,-70.856
13:34:09:859,48.577,-0.177,-0.109,0.506,24.157,106.096,-74.587
13:34:09:885,48.604,0.043,-0.372,0.580,21.984,107.884,-76.881
13:34:09:94,48.659,0.182,-0.626,0.561,17.596,110.336,-79.628
13:34:09:941,48.660,0.115,-0.994,0.539,14.171,112.063,-81.256
13:34:09:964,48.683,0.115,-0.982,0.497,8.501,112.588,-81.769
13:34:09:992,48.710,0.171,-1.007,0.439,-1.196,112.859,-81.785
13:34:10:018,48.737,0.287,-0.954,0.334,-7.516,112.596,-81.370
13:34:10:101,48.820,0.324,-0.905,0.364,-13.585,111.324,-79.873
13:34:10:101,48.820,0.225,-0.321,0.271,-17.081,108.398,-76.733
13:34:10:102,48.821,-0.007,0.809,0.101,-15.021,105.822,-73.750
13:34:10:121,48.840,-0.141,1.332,0.411,-6.752,102.846,-68.852
13:34:10:148,48.867,0.128,1.526,0.213,-3.133,100.776,-65.256
13:34:10:235,48.953,-0.032,1.352,-0.280,1.610,98.074,-61.608
13:34:10:235,48.954,-0.118,0.473,-0.321,1.582,95.021,-61.129
13:34:10:235,48.954,-0.176,0.152,-0.377,0.584,92.658,-61.134
13:34:10:253,48.971,-0.179,-0.100,-0.514,-2.332,88.342,-61.044
13:34:10:279,48.998,-0.082,-0.322,-0.591,-3.734,85.737,-60.853
13:34:10:305,49.024,-0.007,-0.419,-0.629,-3.796,83.024,-60.456
13:34:10:36,49.079,0.095,-0.647,-0.571,-2.680,81.767,-60.272
13:34:10:361,49.080,0.130,-0.854,-0.560,-1.848,81.695,-60.422
13:34:10:386,49.105,0.179,-0.895,-0.614,-1.294,82.554,-61.003
13:34:10:412,49.131,0.190,-0.818,-0.648,-1.197,83.768,-61.610
13:34:10:495,49.214,0.030,-0.423,-0.785,-0.734,86.466,-62.855
13:34:10:495,49.214,-0.168,0.016,-0.987,0.237,88.810,-63.893
13:34:10:496,49.215,-0.516,1.017,-0.932,4.065,93.364,-65.573
13:34:10:515,49.234,-0.758,1.337,-0.538,11.847,99.074,-67.648
13:34:10:541,49.260,-0.685,1.458,-0.155,18.396,103.007,-69.605
13:34:10:568,49.286,-0.625,1.206,0.072,32.322,108.248,-73.664
13:34:10:652,49.371,-0.317,0.563,0.198,43.318,111.361,-76.967
13:34:10:653,49.371,-0.205,0.443,0.351,61.907,115.768,-82.057
13:34:10:653,49.372,-0.062,0.094,0.429,80.437,120.461,-86.867
13:34:10:675,49.394,0.002,-0.032,0.421,89.315,123.606,-89.738
13:34:10:701,49.420,0.132,-0.281,0.494,97.385,128.152,-93.659
13:34:10:785,49.503,0.159,-0.570,0.386,100.467,130.901,-96.083
13:34:10:785,49.503,0.156,-0.621,0.354,103.028,134.483,-99.317
13:34:10:785,49.503,0.234,-0.495,0.383,103.471,137.607,-101.849
13:34:10:804,49.523,0.315,-0.493,0.335,102.910,139.241,-103.273
13:34:10:83,49.549,0.307,-0.299,0.330,101.705,140.228,-105.355
13:34:10:944,49.663,0.222,-0.350,0.377,101.183,139.583,-106.955
13:34:10:945,49.663,0.056,-0.285,0.378,100.856,137.334,-109.281
13:34:10:946,49.664,0.197,-0.120,0.168,100.312,135.689,-110.145
13:34:10:946,49.665,0.186,0.090,0.206,99.712,135.398,-109.699
13:34:10:963,49.681,0.000,0.178,0.117,98.711,135.374,-108.445
13:34:10:989,49.707,-0.101,0.067,-0.121,98.070,135.417,-107.542
13:34:11:041,49.760,-0.057,-0.006,-0.175,97.241,135.723,-105.961
13:34:11:072,49.791,-0.027,-0.049,-0.145,96.735,136.148,-104.760
13:34:11:073,49.791,0.013,-0.122,-0.138,96.033,136.898,-103.111
