Time,Second,AccelerationX,AccelerationY,AccelerationZ,EulerAnglesX,EulerAnglesY,EulerAnglesZ
13:42:22:951,0.000,-0.026,-0.002,-0.022,5.323,11.779,-17.963
13:42:22:952,0.001,-0.027,0.000,-0.008,5.350,11.858,-17.988
13:42:22:952,0.001,-0.020,-0.002,-0.012,5.371,11.902,-18.029
13:42:22:999,0.049,-0.021,-0.007,-0.011,5.384,11.896,-18.074
13:42:23:217,0.266,-0.026,-0.023,-0.014,5.394,11.890,-18.077
13:42:23:217,0.267,-0.035,-0.011,-0.019,5.399,11.872,-18.048
13:42:23:218,0.268,-0.017,-0.006,-0.015,5.340,11.777,-18.001
13:42:23:348,0.397,-0.019,-0.003,-0.016,5.208,11.675,-17.808
13:42:23:349,0.398,-0.014,0.001,-0.018,5.151,11.705,-17.677
13:42:23:35,0.399,-0.008,-0.001,-0.013,5.042,11.792,-17.432
13:42:23:351,0.400,-0.009,-0.003,-0.018,4.953,11.870,-17.239
13:42:23:48,0.529,-0.009,0.003,-0.009,4.811,11.972,-16.930
13:42:23:48,0.529,-0.006,0.015,-0.010,4.692,12.029,-16.615
13:42:23:481,0.530,-0.002,0.000,-0.008,4.616,12.043,-16.410
13:42:23:481,0.531,0.023,-0.002,-0.017,4.471,11.982,-16.086
13:42:23:558,0.607,0.043,0.009,-0.010,4.378,11.974,-15.871
13:42:23:559,0.608,0.030,0.005,-0.019,4.334,12.113,-15.456
13:42:23:56,0.609,0.039,-0.015,-0.022,4.307,12.239,-15.140
13:42:23:56,0.610,0.065,-0.010,-0.034,4.263,12.353,-15.010
13:42:23:587,0.636,0.094,0.008,-0.007,4.371,12.988,-14.623
13:42:23:587,0.636,0.013,0.007,-0.017,4.537,13.741,-14.364
13:42:23:588,0.637,0.016,0.013,-0.046,4.794,14.757,-14.003
13:42:23:589,0.638,0.023,0.040,-0.072,4.970,15.400,-13.714
13:42:23:61,0.659,-0.018,0.031,-0.066,5.163,15.744,-13.593
13:42:23:61,0.660,-0.049,0.039,-0.085,5.463,15.855,-13.501
13:42:23:611,0.661,-0.045,0.078,-0.085,5.554,15.394,-13.433
13:42:23:628,0.678,0.019,-0.102,-0.069,5.365,11.606,-13.218
13:42:23:681,0.731,0.053,-0.109,-0.055,5.115,9.780,-13.308
13:42:23:873,0.923,0.109,-0.050,-0.037,4.656,6.934,-13.517
13:42:23:874,0.923,0.126,0.036,-0.034,4.402,5.345,-13.605
13:42:23:875,0.924,0.086,0.070,-0.030,4.209,3.310,-13.520
13:42:23:875,0.925,0.011,0.050,0.007,4.175,1.938,-13.343
13:42:24:083,1.133,-0.021,0.016,0.047,4.136,0.776,-13.282
13:42:24:084,1.133,-0.049,0.027,0.102,4.028,-0.800,-13.228
13:42:24:085,1.134,-0.084,0.048,0.137,4.016,-1.780,-13.171
13:42:24:086,1.135,-0.113,0.012,0.142,4.201,-2.932,-12.980
13:42:24:137,1.187,-0.081,-0.023,0.118,4.442,-3.987,-12.785
13:42:24:138,1.187,-0.046,-0.064,0.102,4.597,-4.578,-12.708
13:42:24:139,1.188,-0.019,-0.093,0.075,4.891,-5.214,-12.630
13:42:24:188,1.238,-0.038,0.057,0.048,5.503,-5.591,-12.287
13:42:24:189,1.239,0.000,0.097,0.032,5.696,-6.132,-12.038
13:42:24:19,1.240,0.032,0.093,0.027,5.693,-6.710,-11.960
13:42:24:191,1.241,0.032,0.016,0.067,5.624,-7.293,-11.969
13:42:24:215,1.264,-0.016,-0.093,0.093,5.619,-7.290,-12.014
13:42:24:215,1.264,-0.018,-0.111,0.120,5.555,-7.053,-12.155
13:42:24:216,1.265,-0.002,-0.096,0.131,5.489,-6.743,-12.205
13:42:24:217,1.266,-0.003,-0.055,0.149,5.394,-6.031,-12.147
13:42:24:32,1.369,-0.018,0.029,0.142,5.340,-5.158,-11.961
13:42:24:32,1.370,-0.034,0.068,0.144,5.325,-4.681,-11.796
13:42:24:321,1.370,-0.003,0.068,0.064,5.344,-4.202,-11.662
13:42:24:322,1.371,0.096,0.058,0.039,5.263,-4.103,-11.773
13:42:24:343,1.392,0.108,-0.002,0.025,5.238,-3.441,-12.177
13:42:24:343,1.392,0.035,-0.082,0.046,5.455,-1.833,-12.679
13:42:24:344,1.393,-0.050,-0.136,0.032,5.720,-0.488,-12.934
13:42:24:363,1.412,-0.059,-0.100,0.000,6.097,1.244,-13.126
13:42:24:389,1.439,0.083,0.069,-0.044,6.226,1.915,-13.266
13:42:24:474,1.523,-0.012,0.077,-0.072,6.516,2.913,-13.408
13:42:24:475,1.524,-0.016,0.062,-0.077,6.732,3.336,-13.617
13:42:24:475,1.524,0.010,0.043,-0.076,6.802,3.335,-13.906
13:42:24:523,1.573,0.002,0.008,-0.047,6.892,3.257,-14.562
13:42:24:524,1.573,0.005,0.004,-0.049,6.915,3.227,-15.122
13:42:24:605,1.654,-0.003,0.010,-0.048,6.890,3.266,-16.016
13:42:24:605,1.654,-0.021,0.004,-0.063,6.705,3.533,-16.849
13:42:24:606,1.655,-0.045,-0.013,-0.049,6.584,3.834,-17.292
13:42:24:654,1.704,-0.060,-0.020,-0.051,6.520,4.321,-17.908
13:42:24:655,1.705,-0.053,-0.015,-0.040,6.417,4.540,-18.204
13:42:24:758,1.807,-0.050,-0.015,-0.035,6.202,4.849,-18.406
13:42:24:866,1.915,-0.058,-0.009,-0.019,6.059,5.152,-18.412
13:42:24:867,1.916,-0.064,0.015,-0.021,5.981,5.333,-18.335
13:42:24:924,1.973,-0.069,0.004,-0.006,5.966,5.709,-18.305
13:42:24:924,1.973,-0.058,0.000,0.009,5.901,5.819,-18.084
13:42:24:925,1.974,-0.046,-0.006,0.013,5.829,5.853,-17.819
13:42:24:926,1.975,-0.028,0.004,0.009,5.743,5.744,-17.682
13:42:24:976,2.026,-0.023,0.009,0.011,5.685,5.640,-17.633
13:42:24:977,2.026,-0.004,0.004,0.009,5.612,5.415,-17.557
13:42:24:978,2.027,0.013,0.006,0.018,5.554,5.352,-17.496
13:42:24:979,2.028,0.026,0.006,0.012,5.493,5.060,-17.364
13:42:24:993,2.043,0.040,0.009,0.017,5.470,4.758,-17.238
13:42:25:051,2.100,0.044,-0.003,0.007,5.472,4.565,-17.180
13:42:25:052,2.101,0.046,0.002,0.000,5.481,4.288,-17.121
13:42:25:052,2.102,0.048,0.009,0.004,5.497,4.117,-17.106
13:42:25:13,2.179,0.044,0.013,0.002,5.551,3.906,-17.100
13:42:25:13,2.179,0.041,0.007,-0.003,5.562,3.793,-17.091
13:42:25:18,2.229,0.035,0.009,0.002,5.564,3.782,-17.132
13:42:25:317,2.366,0.030,0.017,0.007,5.573,3.893,-17.159
13:42:25:318,2.367,0.021,-0.005,0.007,5.594,3.976,-17.168
13:42:25:334,2.384,0.002,0.001,0.024,5.784,4.405,-17.194
13:42:25:413,2.463,0.001,0.002,0.014,5.847,4.549,-17.180
13:42:25:447,2.497,0.009,0.004,0.023,5.887,4.605,-17.171
13:42:25:448,2.497,0.008,-0.001,0.015,5.952,4.724,-17.162
13:42:25:449,2.498,0.006,0.003,0.018,6.031,4.882,-17.160
13:42:25:449,2.499,0.006,0.008,0.008,6.085,5.003,-17.163
13:42:25:465,2.515,0.007,-0.004,0.019,6.170,5.288,-17.183
13:42:25:55,2.599,0.001,-0.005,0.009,6.227,5.433,-17.189
13:42:25:55,2.600,0.002,-0.003,0.009,6.297,5.618,-17.193
13:42:25:551,2.601,-0.004,0.000,-0.002,6.364,5.835,-17.186
13:42:25:57,2.619,-0.008,0.007,0.001,6.404,5.779,-17.169
13:42:25:684,2.733,-0.011,0.011,0.006,6.452,5.927,-17.157
13:42:25:684,2.734,-0.009,0.003,0.011,6.489,6.039,-17.162
13:42:25:685,2.734,-0.012,-0.008,0.007,6.536,6.170,-17.196
13:42:25:686,2.735,-0.015,0.002,0.012,6.579,6.287,-17.227
13:42:25:73,2.780,-0.013,0.010,0.014,6.612,6.365,-17.219
13:42:25:731,2.781,-0.011,-0.002,0.017,6.656,6.447,-17.172
13:42:25:814,2.863,-0.003,0.004,0.020,6.662,6.457,-17.129
13:42:25:814,2.863,-0.004,-0.002,0.017,6.695,6.479,-17.096
13:42:25:814,2.863,-0.002,0.004,0.008,6.713,6.498,-17.071
13:42:25:862,2.911,0.009,0.004,0.005,6.714,6.462,-17.057
13:42:25:862,2.912,0.014,0.012,-0.003,6.719,6.412,-17.006
13:42:25:885,2.934,0.020,0.011,-0.001,6.723,6.359,-16.975
13:42:25:941,2.990,0.019,0.005,-0.005,6.733,6.302,-16.948
13:42:25:942,2.991,0.013,0.004,-0.002,6.750,6.280,-16.946
13:42:26:022,3.071,0.008,0.000,0.003,6.786,6.284,-16.959
13:42:26:023,3.072,0.003,-0.001,0.001,6.792,6.300,-16.931
13:42:26:024,3.073,-0.002,-0.004,0.010,6.802,6.331,-16.909
13:42:26:071,3.121,-0.008,0.002,0.007,6.838,6.388,-16.848
13:42:26:072,3.122,-0.008,0.013,0.014,6.849,6.409,-16.794
13:42:26:125,3.175,-0.011,0.008,0.004,6.872,6.417,-16.717
13:42:26:126,3.175,-0.016,-0.003,0.012,6.921,6.423,-16.635
13:42:26:148,3.197,-0.023,-0.006,0.003,6.958,6.419,-16.597
13:42:26:175,3.225,-0.017,0.005,0.015,6.996,6.379,-16.544
13:42:26:2,3.250,-0.014,-0.001,0.014,7.020,6.342,-16.494
13:42:26:253,3.302,-0.007,-0.001,0.015,7.047,6.239,-16.399
13:42:26:285,3.334,0.001,0.001,0.011,7.047,6.107,-16.320
13:42:26:285,3.335,0.002,-0.003,0.016,7.068,6.049,-16.292
13:42:26:286,3.335,0.001,-0.002,0.009,7.082,5.983,-16.246
13:42:26:305,3.354,0.013,-0.001,0.019,7.097,5.929,-16.213
13:42:26:419,3.468,0.010,-0.004,0.013,7.112,5.858,-16.151
13:42:26:419,3.469,0.017,0.001,0.010,7.124,5.765,-16.110
13:42:26:42,3.470,0.016,0.007,0.002,7.135,5.723,-16.099
13:42:26:421,3.471,0.015,-0.004,-0.001,7.145,5.727,-16.071
13:42:26:438,3.487,0.014,-0.008,0.004,7.140,5.749,-16.061
13:42:26:522,3.571,0.007,-0.008,0.010,7.152,5.836,-16.051
13:42:26:522,3.571,0.006,-0.004,0.007,7.154,5.958,-16.026
13:42:26:523,3.572,0.007,0.002,0.010,7.145,6.022,-15.995
13:42:26:6,3.649,0.011,0.003,0.009,7.117,6.114,-15.930
13:42:26:6,3.650,0.010,0.006,-0.003,7.108,6.183,-15.894
13:42:26:601,3.651,0.009,0.010,0.005,7.092,6.314,-15.836
13:42:26:651,3.700,0.006,0.001,-0.001,7.080,6.455,-15.788
13:42:26:651,3.700,0.008,0.003,0.010,7.064,6.544,-15.752
13:42:26:731,3.781,0.010,-0.001,0.000,7.047,6.687,-15.684
13:42:26:732,3.781,0.017,0.003,0.007,7.023,6.779,-15.619
13:42:26:732,3.782,0.011,0.010,0.004,6.989,6.939,-15.497
13:42:26:782,3.831,0.016,0.002,0.008,6.982,7.070,-15.417
13:42:26:782,3.831,0.013,0.007,0.008,6.965,7.254,-15.307
13:42:26:863,3.913,0.008,-0.001,0.016,6.977,7.461,-15.195
13:42:26:864,3.913,0.020,0.004,0.009,6.977,7.576,-15.109
13:42:26:864,3.913,0.026,0.008,0.010,6.945,7.685,-15.010
13:42:26:912,3.961,0.008,0.013,0.002,6.943,7.769,-14.935
13:42:26:913,3.962,0.008,0.004,0.010,6.950,7.899,-14.832
13:42:27:049,4.098,0.008,-0.006,0.011,6.963,7.956,-14.750
13:42:27:05,4.099,0.003,0.002,0.014,6.972,7.972,-14.680
13:42:27:051,4.100,-0.008,0.008,0.000,6.956,7.953,-14.535
13:42:27:127,4.177,-0.035,-0.003,0.007,6.919,7.745,-14.213
13:42:27:128,4.177,-0.060,0.005,0.031,6.946,7.569,-13.971
13:42:27:129,4.178,-0.078,-0.002,0.022,6.922,7.275,-13.816
13:42:27:145,4.195,-0.055,-0.005,0.027,6.834,5.712,-13.285
13:42:27:172,4.221,-0.061,0.016,0.021,6.873,4.309,-12.785
13:42:27:227,4.276,-0.054,0.034,0.011,6.847,2.855,-12.483
13:42:27:227,4.277,-0.048,0.026,0.014,6.812,1.690,-12.322
13:42:27:252,4.301,-0.039,-0.014,0.017,6.763,-0.092,-12.017
13:42:27:305,4.355,-0.009,-0.022,0.015,6.666,-1.356,-11.861
13:42:27:306,4.356,0.009,-0.022,0.015,6.588,-2.824,-11.426
13:42:27:358,4.407,-0.049,-0.044,-0.018,6.583,-3.889,-10.759
13:42:27:359,4.408,-0.049,-0.052,-0.039,6.441,-4.487,-10.260
13:42:27:381,4.431,0.022,-0.004,-0.028,6.010,-5.810,-9.595
13:42:27:437,4.487,0.063,0.004,-0.008,5.678,-6.803,-9.243
13:42:27:437,4.487,0.056,-0.006,-0.008,4.997,-8.783,-8.741
13:42:27:492,4.542,0.131,-0.008,0.014,4.282,-10.842,-8.161
13:42:27:513,4.562,0.052,-0.031,0.038,3.468,-12.661,-6.953
13:42:27:569,4.618,0.085,-0.065,0.051,3.089,-13.433,-6.570
13:42:27:569,4.618,0.121,-0.037,0.062,2.351,-14.654,-5.968
13:42:27:62,4.670,0.106,-0.042,0.037,1.720,-15.172,-5.272
13:42:27:621,4.671,0.097,-0.049,0.045,1.322,-15.262,-4.800
13:42:27:645,4.694,0.078,-0.050,0.077,0.678,-15.411,-4.159
13:42:27:758,4.807,0.093,-0.046,0.094,0.171,-15.689,-3.792
13:42:27:759,4.808,0.094,-0.038,0.104,-0.228,-16.240,-3.935
13:42:27:759,4.808,0.098,-0.059,0.134,-0.962,-17.111,-3.851
13:42:27:76,4.809,0.100,-0.033,0.128,-1.434,-17.733,-3.869
13:42:27:805,4.854,0.134,-0.003,0.164,-2.056,-18.950,-4.129
13:42:27:805,4.855,0.190,-0.012,0.229,-2.667,-19.759,-3.959
13:42:27:828,4.877,0.125,-0.031,0.212,-3.466,-20.792,-3.780
13:42:27:855,4.905,0.126,0.017,0.254,-3.932,-21.398,-3.731
13:42:27:91,4.959,0.092,0.105,0.251,-4.483,-22.579,-3.624
13:42:27:911,4.960,0.163,0.143,0.268,-4.903,-23.593,-3.514
13:42:27:992,5.041,0.159,0.168,0.254,-5.051,-24.209,-3.495
13:42:27:992,5.042,0.098,0.207,0.202,-5.049,-24.616,-3.622
13:42:27:993,5.042,0.107,0.185,0.157,-4.990,-25.036,-3.836
13:42:28:07,5.119,0.094,0.149,0.159,-4.858,-25.660,-4.342
13:42:28:07,5.120,0.050,0.022,0.138,-4.606,-26.084,-5.209
13:42:28:071,5.121,0.081,-0.060,0.131,-4.439,-26.125,-5.975
13:42:28:149,5.198,0.062,-0.082,0.152,-4.248,-25.413,-7.067
13:42:28:149,5.198,0.012,-0.072,0.104,-3.832,-23.325,-7.440
13:42:28:15,5.199,-0.057,-0.047,-0.026,-2.463,-17.691,-7.523
13:42:28:362,5.411,-0.131,-0.058,-0.096,-0.970,-12.061,-7.556
13:42:28:362,5.412,-0.072,-0.044,-0.098,-0.339,-9.654,-7.717
13:42:28:363,5.413,0.196,0.096,-0.020,0.311,-6.892,-7.989
13:42:28:364,5.414,0.127,0.125,-0.068,1.104,-4.279,-8.096
13:42:28:389,5.438,0.089,0.151,-0.115,2.711,0.200,-8.117
13:42:28:389,5.439,-0.075,0.107,-0.094,4.498,3.620,-8.087
13:42:28:39,5.440,0.010,-0.007,-0.129,5.488,4.065,-8.464
13:42:28:408,5.457,0.142,-0.028,-0.096,7.053,1.658,-10.834
13:42:28:409,5.458,0.101,-0.011,-0.118,8.025,0.623,-12.763
13:42:28:461,5.510,0.099,0.009,-0.142,8.844,-0.308,-14.883
13:42:28:487,5.537,0.078,-0.010,-0.155,9.275,-0.840,-16.344
13:42:28:487,5.537,0.040,-0.042,-0.153,9.791,-1.367,-18.441
13:42:28:511,5.560,0.014,-0.061,-0.156,10.096,-1.369,-19.701
13:42:28:565,5.615,0.000,-0.077,-0.162,10.652,-0.831,-21.322
13:42:28:566,5.616,-0.036,-0.103,-0.157,11.259,0.182,-22.566
13:42:28:592,5.641,-0.064,-0.091,-0.153,11.657,0.989,-23.193
13:42:28:593,5.642,-0.115,-0.053,-0.145,12.212,2.275,-23.840
13:42:28:673,5.723,-0.182,0.032,-0.148,12.567,3.116,-24.098
13:42:28:674,5.723,-0.228,0.071,-0.144,13.106,4.206,-24.272
13:42:28:675,5.724,-0.278,0.092,-0.164,13.506,4.797,-24.215
13:42:28:694,5.743,-0.325,0.170,-0.178,13.517,4.705,-24.035
13:42:28:721,5.770,-0.278,0.194,-0.168,13.050,3.564,-23.475
13:42:28:746,5.796,-0.218,0.191,-0.129,12.426,2.388,-22.871
13:42:28:802,5.852,-0.119,0.040,-0.042,11.258,0.130,-21.729
13:42:28:803,5.852,-0.012,-0.208,0.041,10.203,-1.918,-20.801
13:42:28:854,5.903,0.015,-0.294,0.045,9.667,-2.834,-20.549
13:42:28:855,5.904,-0.058,-0.216,-0.004,9.227,-3.825,-20.618
13:42:28:878,5.928,-0.154,-0.037,-0.099,9.193,-4.068,-20.834
13:42:28:933,5.983,-0.185,0.040,-0.138,9.336,-4.877,-21.229
13:42:28:934,5.983,-0.175,0.076,-0.166,9.224,-6.805,-21.272
13:42:29:036,6.085,-0.105,-0.026,-0.121,8.816,-8.821,-21.095
13:42:29:072,6.121,-0.023,-0.160,0.002,7.699,-12.653,-20.748
13:42:29:072,6.121,0.015,-0.209,0.049,6.748,-15.531,-20.647
13:42:29:072,6.122,0.066,-0.177,0.068,5.088,-19.746,-20.498
13:42:29:072,6.122,0.161,-0.038,0.160,3.918,-22.552,-20.394
13:42:29:088,6.137,0.247,0.041,0.207,2.389,-25.869,-19.967
13:42:29:114,6.164,0.107,-0.094,0.152,1.923,-27.051,-18.951
13:42:29:17,6.219,0.053,-0.064,0.069,1.905,-26.820,-17.792
13:42:29:17,6.220,0.103,-0.029,0.096,2.016,-25.869,-15.701
13:42:29:194,6.243,0.087,-0.010,0.106,2.082,-24.920,-14.241
13:42:29:248,6.297,0.125,-0.046,0.109,1.855,-23.703,-12.080
13:42:29:248,6.298,0.155,-0.055,0.153,1.577,-22.005,-10.521
13:42:29:273,6.322,0.106,-0.009,0.181,1.282,-20.447,-9.370
13:42:29:299,6.348,0.085,0.083,0.204,0.712,-17.965,-7.943
13:42:29:324,6.374,0.146,0.173,0.219,0.221,-16.596,-7.179
13:42:29:38,6.430,0.172,0.262,0.235,-0.579,-14.957,-6.194
13:42:29:38,6.430,0.177,0.473,0.203,-1.238,-13.763,-5.321
13:42:29:432,6.482,0.173,0.533,0.186,-1.517,-12.797,-4.780
13:42:29:432,6.482,0.186,0.294,0.184,-1.608,-11.570,-4.104
13:42:29:456,6.505,0.173,-0.043,0.142,-1.448,-10.784,-3.988
13:42:29:483,6.532,0.164,-0.291,0.087,-1.228,-9.588,-4.670
13:42:29:508,6.557,0.166,-0.250,0.067,-1.138,-8.141,-6.203
13:42:29:535,6.584,0.151,-0.200,0.030,-1.004,-6.921,-7.586
13:42:29:56,6.610,0.144,-0.096,-0.102,-0.616,-4.749,-9.857
13:42:29:613,6.662,0.302,0.167,-0.243,0.028,-2.104,-10.991
13:42:29:642,6.691,-0.026,0.300,-0.386,2.264,5.421,-11.574
13:42:29:642,6.692,-0.446,0.080,-0.132,5.286,13.806,-10.960
13:42:29:694,6.744,-0.232,0.072,-0.100,6.557,16.808,-10.663
13:42:29:695,6.744,-0.096,-0.021,-0.142,7.883,17.269,-11.100
13:42:29:747,6.797,-0.050,-0.049,-0.179,8.641,16.619,-11.827
13:42:29:748,6.797,-0.010,-0.020,-0.220,9.671,15.062,-13.592
13:42:29:799,6.849,-0.067,-0.009,-0.203,10.786,13.886,-15.634
13:42:29:8,6.849,-0.075,-0.010,-0.218,11.460,13.178,-17.014
13:42:29:877,6.926,-0.058,-0.020,-0.224,11.441,12.150,-18.886
13:42:29:93,6.979,-0.071,-0.036,-0.221,11.932,11.622,-20.074
13:42:30:007,7.056,-0.085,-0.051,-0.217,12.646,11.298,-21.551
13:42:30:042,7.091,-0.107,-0.068,-0.205,13.362,11.561,-22.597
13:42:30:043,7.092,-0.121,-0.077,-0.187,12.942,12.180,-22.799
13:42:30:044,7.093,-0.147,-0.097,-0.162,13.138,13.225,-23.130
13:42:30:044,7.094,-0.166,-0.111,-0.143,13.473,14.043,-23.342
13:42:30:087,7.136,-0.173,-0.111,-0.131,13.828,15.169,-23.587
13:42:30:148,7.197,-0.162,-0.069,-0.109,13.547,16.133,-23.443
13:42:30:148,7.197,-0.160,-0.030,-0.085,13.037,16.975,-23.197
13:42:30:149,7.198,-0.161,0.013,-0.081,12.612,17.737,-22.912
13:42:30:167,7.216,-0.287,0.364,-0.111,11.531,18.234,-21.316
13:42:30:167,7.217,-0.299,0.394,-0.094,11.009,18.041,-20.216
13:42:30:191,7.240,-0.119,0.058,0.003,9.991,17.110,-18.405
13:42:30:246,7.296,0.065,-0.282,0.085,8.681,15.268,-17.028
13:42:30:247,7.296,0.123,-0.326,0.086,7.726,14.215,-16.499
13:42:30:269,7.318,0.091,-0.132,0.038,6.534,13.461,-15.935
13:42:30:295,7.345,0.001,0.029,-0.033,6.002,13.960,-15.580
13:42:30:351,7.401,-0.056,0.094,-0.066,5.967,14.450,-15.338
13:42:30:352,7.401,-0.106,0.132,-0.076,5.942,14.423,-14.689
13:42:30:403,7.452,-0.005,0.037,0.018,5.736,13.413,-14.068
13:42:30:404,7.453,0.205,-0.038,0.069,5.122,10.712,-13.184
13:42:30:426,7.476,0.173,-0.122,0.087,4.633,8.827,-12.623
13:42:30:453,7.502,0.218,-0.121,0.043,3.725,6.517,-11.730
13:42:30:479,7.528,0.322,-0.048,0.025,2.875,5.559,-10.661
13:42:30:505,7.555,0.194,-0.028,0.016,2.691,6.501,-9.930
13:42:30:56,7.610,0.202,-0.026,0.011,2.550,8.979,-8.840
13:42:30:561,7.611,0.193,-0.028,0.029,2.390,10.819,-8.156
13:42:30:611,7.661,0.183,-0.034,0.033,2.136,13.721,-7.210
13:42:30:64,7.690,0.171,-0.058,0.041,1.823,16.302,-6.500
13:42:30:64,7.690,0.172,-0.096,0.036,1.591,17.770,-6.196
13:42:30:663,7.712,0.198,-0.129,0.030,1.230,19.466,-6.029
13:42:30:747,7.796,0.232,-0.132,0.033,0.987,20.423,-6.050
13:42:30:748,7.797,0.223,-0.039,0.009,0.709,21.972,-6.154
13:42:30:749,7.798,0.204,0.054,-0.027,0.507,23.490,-6.207
13:42:30:797,7.846,0.214,0.055,-0.051,0.297,24.264,-6.172
13:42:30:798,7.847,0.243,0.117,-0.151,0.033,25.443,-6.030
13:42:30:935,7.984,0.268,0.173,-0.149,-0.058,26.511,-5.876
13:42:30:935,7.985,0.191,0.217,-0.123,0.184,28.787,-5.511
13:42:30:936,7.986,0.175,0.249,-0.080,0.622,31.380,-4.934
13:42:30:937,7.986,0.197,0.144,-0.102,0.925,32.945,-4.508
13:42:30:986,8.036,0.214,-0.027,-0.183,1.381,35.126,-4.131
13:42:30:987,8.037,0.131,-0.116,-0.282,1.771,36.859,-4.226
13:42:30:988,8.037,0.067,-0.102,-0.273,2.431,40.087,-4.846
13:42:30:989,8.038,0.014,-0.069,-0.256,3.128,43.630,-5.918
13:42:31:005,8.054,-0.020,0.064,-0.272,3.672,45.961,-6.863
13:42:31:059,8.109,-0.163,0.283,-0.291,4.739,49.439,-8.390
13:42:31:06,8.110,-0.200,0.285,-0.275,5.596,51.475,-9.364
13:42:31:141,8.190,-0.217,0.116,-0.202,7.023,54.046,-10.766
13:42:31:142,8.191,-0.237,0.005,-0.161,8.449,55.985,-12.477
13:42:31:142,8.192,-0.249,-0.042,-0.174,9.294,56.751,-13.959
13:42:31:19,8.240,-0.239,-0.068,-0.177,10.193,57.134,-16.626
13:42:31:191,8.241,-0.232,-0.014,-0.192,10.478,57.033,-18.580
13:42:31:243,8.292,-0.256,0.000,-0.171,10.777,57.095,-21.506
13:42:31:244,8.293,-0.288,-0.004,-0.117,11.234,57.825,-24.150
13:42:31:266,8.316,-0.287,-0.039,-0.078,11.315,58.620,-25.637
13:42:31:293,8.342,-0.286,-0.098,-0.018,11.933,60.060,-27.777
13:42:31:319,8.368,-0.301,-0.127,0.022,12.359,61.337,-29.059
13:42:31:374,8.424,-0.272,-0.140,0.047,13.023,63.065,-30.807
13:42:31:375,8.424,-0.258,-0.164,0.082,13.668,64.836,-32.211
13:42:31:398,8.447,-0.252,-0.145,0.096,14.083,66.027,-32.865
13:42:31:452,8.501,-0.241,-0.118,0.148,14.776,67.848,-33.402
13:42:31:584,8.633,-0.239,-0.115,0.173,15.168,68.954,-33.419
13:42:31:643,8.692,-0.271,-0.040,0.196,15.368,70.174,-32.872
13:42:31:644,8.693,-0.317,0.149,0.243,15.152,70.666,-31.968
13:42:31:645,8.694,-0.355,0.334,0.283,14.495,70.973,-29.553
13:42:31:669,8.718,-0.026,-0.028,0.110,12.582,69.848,-23.927
13:42:31:67,8.719,0.063,-0.218,0.055,11.366,68.779,-21.206
13:42:31:671,8.720,0.055,-0.159,0.030,10.752,68.506,-19.866
13:42:31:671,8.721,0.003,-0.051,0.034,10.231,68.990,-18.253
13:42:31:717,8.767,-0.103,0.083,0.061,10.101,69.793,-17.177
13:42:31:717,8.767,-0.139,0.156,0.086,9.913,70.022,-16.605
13:42:31:768,8.817,-0.135,0.159,0.093,9.338,69.098,-15.750
13:42:31:769,8.818,-0.069,0.006,0.033,8.753,67.767,-15.234
13:42:31:821,8.870,0.054,-0.070,-0.063,7.559,65.108,-14.607
13:42:31:822,8.871,0.153,-0.079,-0.071,6.286,62.211,-14.110
13:42:31:873,8.922,0.182,-0.042,-0.084,5.537,60.678,-13.798
13:42:31:874,8.923,0.119,-0.027,-0.127,4.332,58.308,-13.424
13:42:31:896,8.946,0.158,-0.093,-0.154,3.586,57.042,-13.144
13:42:32:01,9.060,0.156,-0.093,-0.169,2.779,56.315,-12.577
13:42:32:011,9.061,0.084,-0.053,-0.121,2.599,57.563,-11.775
13:42:32:012,9.061,0.044,-0.063,-0.074,2.603,58.936,-11.183
13:42:32:012,9.062,0.055,-0.118,-0.061,2.356,60.615,-10.329
13:42:32:029,9.078,0.099,-0.115,-0.081,1.970,61.376,-9.810
13:42:32:083,9.133,0.118,-0.090,-0.093,1.255,62.012,-9.090
13:42:32:084,9.134,0.135,-0.037,-0.121,0.536,62.509,-8.424
13:42:32:106,9.156,0.168,-0.025,-0.132,0.087,62.788,-7.971
13:42:32:221,9.270,0.199,0.017,-0.143,-0.570,63.234,-7.289
13:42:32:222,9.271,0.225,0.049,-0.140,-0.974,63.620,-6.853
13:42:32:222,9.271,0.207,0.095,-0.124,-1.488,64.580,-6.274
13:42:32:223,9.272,0.218,0.178,-0.116,-1.785,65.116,-5.961
13:42:32:238,9.288,0.219,0.205,-0.133,-2.145,65.886,-5.599
13:42:32:351,9.400,0.203,0.180,-0.142,-2.259,66.855,-5.356
13:42:32:351,9.400,0.173,0.143,-0.155,-2.220,67.360,-5.265
13:42:32:352,9.401,0.179,0.133,-0.161,-1.995,68.283,-5.296
13:42:32:372,9.421,0.181,0.041,-0.173,-1.732,68.823,-5.443
13:42:32:372,9.422,0.115,-0.075,-0.149,-1.092,70.240,-5.979
13:42:32:483,9.532,0.042,-0.144,-0.127,-0.353,71.262,-6.984
13:42:32:483,9.533,0.053,-0.142,-0.163,0.079,72.101,-7.868
13:42:32:484,9.533,0.008,-0.034,-0.215,0.743,73.819,-9.161
13:42:32:485,9.534,-0.098,0.117,-0.196,1.997,77.946,-10.005
13:42:32:558,9.608,-0.143,0.188,-0.061,3.253,81.503,-10.345
13:42:32:559,9.608,-0.183,0.304,-0.032,4.979,85.433,-10.898
13:42:32:56,9.609,-0.208,0.147,-0.064,6.041,86.930,-11.297
13:42:32:609,9.658,-0.231,0.050,-0.023,7.703,88.357,-12.285
13:42:32:61,9.659,-0.188,-0.081,0.003,9.126,88.861,-13.929
13:42:32:689,9.739,-0.184,-0.098,-0.018,9.859,88.855,-15.316
13:42:32:69,9.740,-0.202,-0.063,-0.037,10.723,88.690,-17.635
13:42:32:691,9.740,-0.246,-0.035,-0.030,11.306,88.828,-19.129
13:42:32:71,9.760,-0.251,-0.067,0.021,12.351,89.592,-21.164
13:42:32:738,9.787,-0.230,-0.098,0.076,13.478,90.905,-22.873
13:42:32:764,9.813,-0.177,-0.172,0.155,14.118,91.826,-23.938
13:42:32:789,9.838,-0.220,-0.102,0.132,14.766,93.330,-25.258
13:42:32:815,9.865,-0.252,-0.035,0.087,15.276,94.312,-25.923
13:42:32:873,9.922,-0.120,-0.077,0.192,16.134,95.722,-26.775
13:42:32:873,9.922,-0.128,-0.141,0.273,16.569,96.761,-27.382
13:42:32:952,10.002,-0.203,-0.082,0.266,16.371,96.996,-27.642
13:42:32:953,10.003,-0.222,0.056,0.162,16.181,97.564,-27.590
13:42:32:954,10.003,-0.103,0.154,0.307,16.419,98.423,-27.137
13:42:33:06,10.109,-0.044,0.248,0.473,16.729,99.648,-25.707
13:42:33:061,10.110,-0.177,0.330,0.452,16.371,99.403,-23.642
13:42:33:061,10.111,-0.121,0.167,0.428,15.374,97.765,-22.509
13:42:33:062,10.112,-0.030,-0.080,-0.020,13.601,94.353,-20.614
13:42:33:079,10.128,0.084,-0.277,-0.031,12.514,91.912,-20.027
13:42:33:191,10.241,0.043,-0.327,-0.105,11.109,88.861,-19.813
13:42:33:192,10.241,-0.040,-0.073,-0.075,10.478,87.845,-19.122
13:42:33:193,10.242,-0.082,-0.010,0.038,10.674,88.226,-18.488
13:42:33:194,10.243,-0.168,0.043,0.203,11.192,88.844,-17.316
13:42:33:209,10.259,-0.216,-0.016,0.161,11.064,88.229,-16.498
13:42:33:264,10.314,-0.128,-0.080,0.123,10.031,84.692,-15.614
13:42:33:265,10.315,0.095,0.051,-0.563,7.889,78.197,-15.546
13:42:33:318,10.367,0.172,-0.076,-0.279,6.798,74.851,-15.570
13:42:33:318,10.368,0.050,-0.128,-0.118,5.828,72.219,-14.832
13:42:33:372,10.422,0.101,-0.059,-0.297,5.171,70.928,-14.122
13:42:33:373,10.422,0.110,-0.034,-0.270,4.776,71.372,-12.475
13:42:33:394,10.444,0.062,-0.016,-0.143,4.684,76.121,-9.143
13:42:33:419,10.469,0.082,-0.040,-0.154,4.107,78.778,-7.516
13:42:33:445,10.495,0.111,-0.071,-0.159,3.563,80.184,-6.656
13:42:33:499,10.549,0.159,-0.070,-0.162,2.574,81.994,-5.797
13:42:33:524,10.574,0.198,0.003,-0.213,1.892,83.079,-5.459
13:42:33:582,10.632,0.203,0.061,-0.258,0.923,84.553,-5.113
13:42:33:583,10.632,0.226,0.108,-0.282,0.095,85.984,-4.853
13:42:33:584,10.633,0.210,0.220,-0.290,-0.314,86.983,-4.672
13:42:33:661,10.710,0.179,0.228,-0.278,-0.595,88.623,-4.421
13:42:33:662,10.711,0.145,0.185,-0.263,-0.396,90.447,-4.247
13:42:33:663,10.712,0.118,0.186,-0.263,-0.081,91.598,-4.177
13:42:33:681,10.731,0.071,0.111,-0.269,0.634,93.342,-4.152
13:42:33:708,10.757,0.019,0.020,-0.236,1.271,94.447,-4.255
13:42:33:734,10.783,-0.069,-0.116,-0.146,2.305,95.915,-4.892
13:42:33:762,10.812,-0.113,-0.083,-0.130,2.915,96.480,-5.689
13:42:33:787,10.837,-0.126,-0.032,-0.119,3.667,97.864,-7.262
13:42:33:813,10.862,-0.168,0.103,-0.173,4.438,100.085,-8.846
13:42:33:897,10.947,-0.212,0.215,-0.014,5.403,102.962,-9.527
13:42:33:898,10.947,-0.225,0.242,0.061,7.258,107.591,-10.341
13:42:33:899,10.948,-0.263,0.122,0.050,8.425,109.719,-10.788
13:42:33:918,10.967,-0.264,0.014,0.076,10.086,111.811,-11.557
13:42:33:973,11.022,-0.245,-0.088,0.114,11.768,113.190,-12.681
13:42:33:974,11.023,-0.237,-0.120,0.139,12.804,113.679,-13.695
13:42:34:023,11.072,-0.261,-0.108,0.116,14.108,113.887,-15.509
13:42:34:052,11.102,-0.294,-0.070,0.141,14.867,113.534,-16.824
13:42:34:053,11.102,-0.288,-0.070,0.155,15.883,113.525,-18.710
13:42:34:075,11.125,-0.287,-0.078,0.173,16.730,113.716,-20.331
13:42:34:159,11.209,-0.238,-0.085,0.168,15.951,114.093,-21.017
13:42:34:16,11.210,-0.206,-0.107,0.177,15.950,114.944,-22.015
13:42:34:161,11.210,-0.170,-0.128,0.181,16.275,115.703,-22.643
13:42:34:18,11.230,-0.154,-0.151,0.195,16.693,117.051,-23.480
13:42:34:208,11.257,-0.132,-0.109,0.208,17.056,118.535,-24.195
13:42:34:233,11.282,-0.122,-0.087,0.232,17.266,119.579,-24.540
13:42:34:288,11.337,-0.073,-0.054,0.250,17.428,121.087,-24.802
13:42:34:288,11.338,-0.059,0.037,0.280,17.361,121.958,-24.802
13:42:34:311,11.361,-0.041,0.147,0.316,16.849,122.878,-24.431
13:42:34:364,11.414,-0.017,0.320,0.345,15.845,123.239,-23.406
13:42:34:422,11.472,0.015,0.323,0.287,14.882,123.020,-22.325
13:42:34:423,11.472,0.046,0.142,0.111,13.206,122.062,-20.341
13:42:34:424,11.473,0.082,-0.079,-0.021,12.119,121.153,-19.028
13:42:34:472,11.521,0.081,-0.301,-0.053,10.792,120.163,-17.497
13:42:34:472,11.522,0.053,-0.268,-0.049,10.039,119.781,-16.795
13:42:34:495,11.545,0.019,-0.107,-0.001,9.178,119.810,-15.891
13:42:34:551,11.601,0.009,0.105,0.093,8.824,120.335,-15.075
13:42:34:551,11.601,0.042,0.154,0.257,8.747,120.459,-14.569
13:42:34:603,11.652,0.046,0.106,0.215,8.463,119.383,-13.608
13:42:34:604,11.653,0.035,-0.009,-0.087,7.604,115.545,-12.919
13:42:34:627,11.676,0.025,-0.052,-0.209,6.738,112.138,-12.826
13:42:34:654,11.703,0.061,-0.101,-0.195,5.484,107.922,-12.537
13:42:34:679,11.728,0.002,-0.054,-0.155,4.785,106.095,-12.182
13:42:34:766,11.815,-0.060,-0.033,-0.242,3.978,105.263,-11.255
13:42:34:766,11.815,-0.069,-0.022,-0.180,3.718,106.046,-10.490
13:42:34:766,11.816,-0.059,-0.012,-0.105,3.584,108.644,-9.134
13:42:34:813,11.863,-0.047,-0.033,-0.084,3.296,111.670,-7.788
13:42:34:814,11.863,-0.027,-0.052,-0.098,2.966,113.131,-6.974
13:42:34:864,11.913,-0.004,-0.087,-0.115,2.343,114.867,-5.954
13:42:34:894,11.943,0.010,-0.109,-0.127,1.864,115.478,-5.429
13:42:34:894,11.943,-0.003,-0.108,-0.175,1.037,115.992,-4.819
13:42:34:915,11.965,0.015,-0.092,-0.233,0.144,116.027,-4.348
13:42:34:942,11.991,0.023,-0.072,-0.268,-0.453,116.028,-4.065
13:42:34:997,12.046,0.028,-0.029,-0.306,-1.310,116.428,-3.648
13:42:34:997,12.047,0.016,0.002,-0.307,-1.800,116.898,-3.360
13:42:35:02,12.069,0.006,0.083,-0.299,-2.389,118.144,-2.948
13:42:35:136,12.186,-0.007,0.266,-0.277,-2.818,119.538,-2.554
13:42:35:137,12.186,-0.022,0.312,-0.269,-2.979,120.510,-2.295
13:42:35:137,12.187,-0.058,0.360,-0.268,-3.000,121.836,-1.879
13:42:35:138,12.187,-0.084,0.267,-0.314,-2.906,122.585,-1.575
13:42:35:154,12.203,-0.098,0.131,-0.300,-2.608,123.770,-1.195
13:42:35:178,12.227,-0.121,-0.134,-0.210,-2.163,125.357,-1.307
13:42:35:262,12.312,-0.139,-0.226,-0.140,-1.541,129.254,-3.325
13:42:35:263,12.313,-0.223,-0.180,-0.093,-1.281,130.739,-4.564
13:42:35:283,12.333,-0.302,-0.024,-0.067,-0.920,133.375,-6.389
13:42:35:338,12.388,-0.294,0.161,0.079,-0.186,136.836,-7.868
13:42:35:339,12.388,-0.179,0.174,0.115,0.732,139.850,-8.638
13:42:35:361,12.411,-0.178,0.178,0.055,2.129,143.433,-9.801
13:42:35:389,12.438,-0.271,0.215,0.173,2.901,144.641,-10.500
13:42:35:444,12.493,-0.265,0.137,0.165,4.063,146.102,-11.685
13:42:35:444,12.493,-0.137,-0.072,0.176,5.323,147.808,-13.238
13:42:35:467,12.516,-0.094,-0.108,0.170,6.007,148.891,-14.538
13:42:35:522,12.571,-0.130,-0.069,0.163,6.830,150.277,-16.672
13:42:35:522,12.572,-0.119,-0.014,0.198,7.372,151.257,-18.051
13:42:35:546,12.596,-0.097,0.012,0.249,8.305,152.929,-19.864
13:42:35:604,12.653,-0.053,-0.032,0.255,9.365,154.752,-21.259
13:42:35:604,12.654,-0.024,-0.085,0.255,10.010,155.947,-21.988
13:42:35:605,12.654,0.000,-0.108,0.228,10.825,157.666,-22.819
13:42:35:682,12.731,0.014,-0.099,0.232,11.325,158.856,-23.204
13:42:35:682,12.732,0.042,-0.091,0.230,12.081,160.743,-23.524
13:42:35:735,12.784,0.082,-0.062,0.238,12.799,162.706,-23.637
13:42:35:735,12.784,0.111,-0.032,0.235,13.236,163.992,-23.607
13:42:35:736,12.785,0.162,0.026,0.244,13.752,165.620,-23.398
13:42:35:755,12.804,0.191,0.056,0.228,13.878,166.355,-23.150
13:42:35:81,12.860,0.203,0.104,0.228,13.695,166.761,-22.667
13:42:35:811,12.861,0.190,0.192,0.229,13.167,166.373,-21.856
13:42:35:865,12.914,0.168,0.222,0.220,12.646,165.707,-21.039
13:42:35:865,12.914,0.118,0.118,0.128,11.666,164.193,-19.525
13:42:35:945,12.995,0.047,-0.129,0.006,10.991,162.984,-18.494
13:42:35:946,12.996,0.001,-0.267,-0.044,10.030,161.169,-17.167
13:42:35:947,12.996,-0.020,-0.142,-0.038,9.149,159.865,-16.047
13:42:35:966,13.015,-0.006,-0.023,-0.002,8.761,159.123,-15.338
13:42:35:992,13.041,0.049,0.076,0.099,8.536,158.675,-14.314
13:42:36:018,13.067,0.039,0.025,0.127,8.389,157.810,-13.601
13:42:36:044,13.093,0.027,-0.023,0.085,7.881,155.858,-12.511
13:42:36:071,13.121,-0.103,-0.085,-0.108,7.344,153.761,-11.916
13:42:36:096,13.146,-0.081,-0.130,-0.120,6.473,150.785,-11.214
13:42:36:123,13.172,-0.102,-0.088,-0.081,5.487,148.011,-10.360
13:42:36:178,13.227,-0.214,-0.015,-0.156,4.869,146.966,-9.711
13:42:36:179,13.228,-0.153,0.027,-0.113,4.310,146.788,-8.497
13:42:36:231,13.280,-0.142,0.034,-0.123,4.016,147.510,-7.585
13:42:36:231,13.281,-0.109,-0.018,-0.143,3.563,148.906,-6.278
13:42:36:254,13.303,-0.051,-0.048,-0.132,3.062,150.373,-5.244
13:42:36:31,13.360,-0.045,-0.052,-0.121,2.670,151.132,-4.772
13:42:36:311,13.360,-0.052,-0.097,-0.127,2.028,151.710,-4.402
13:42:36:333,13.383,-0.075,-0.125,-0.138,1.591,151.823,-4.314
13:42:36:359,13.409,-0.081,-0.100,-0.147,0.976,151.743,-4.301
13:42:36:414,13.464,-0.099,-0.027,-0.150,0.438,151.555,-4.281
13:42:36:415,13.465,-0.100,0.004,-0.162,0.137,151.447,-4.203
13:42:36:438,13.487,-0.096,0.015,-0.164,-0.278,151.388,-3.989
13:42:36:465,13.514,-0.102,0.030,-0.185,-0.567,151.407,-3.801
13:42:36:49,13.540,-0.115,0.087,-0.215,-1.015,151.734,-3.496
13:42:36:517,13.566,-0.114,0.182,-0.197,-1.388,152.483,-3.254
13:42:36:572,13.621,-0.117,0.232,-0.198,-1.599,153.073,-3.133
13:42:36:573,13.622,-0.120,0.184,-0.190,-1.765,153.959,-3.042
13:42:36:596,13.646,-0.155,0.080,-0.195,-1.798,154.477,-3.076
13:42:36:652,13.701,-0.182,0.051,-0.202,-1.800,155.273,-3.286
13:42:36:652,13.701,-0.240,0.019,-0.194,-1.690,156.529,-3.681
13:42:36:703,13.753,-0.235,-0.008,-0.166,-1.527,157.742,-4.035
13:42:36:704,13.753,-0.207,-0.059,-0.112,-1.160,159.994,-4.704
13:42:36:756,13.805,-0.183,-0.124,-0.041,-0.851,161.619,-5.317
13:42:36:757,13.806,-0.184,-0.098,-0.023,-0.349,164.249,-6.493
13:42:36:808,13.857,-0.214,0.002,0.009,0.301,167.285,-7.750
13:42:36:809,13.858,-0.245,0.059,0.050,1.025,170.247,-8.386
13:42:36:832,13.881,-0.098,0.227,0.249,2.785,176.716,-8.731
13:42:36:858,13.908,0.119,0.239,0.240,4.481,-178.284,-8.443
13:42:36:884,13.934,0.209,0.109,0.147,6.697,-173.671,-8.275
13:42:36:938,13.987,0.067,0.016,0.147,8.125,-173.760,-9.034
13:42:36:967,14.017,0.010,-0.050,0.172,8.893,-174.596,-10.080
13:42:36:967,14.017,-0.019,-0.066,0.167,9.860,-176.188,-12.292
13:42:37:018,14.067,0.017,-0.048,0.175,10.393,-177.136,-14.042
13:42:37:019,14.068,0.009,-0.028,0.181,11.015,-178.440,-16.781
13:42:37:071,14.120,0.026,-0.033,0.209,11.364,-179.142,-18.576
13:42:37:071,14.121,0.053,-0.050,0.215,11.888,-179.869,-21.010
13:42:37:094,14.143,0.058,-0.070,0.195,11.947,179.818,-22.840
13:42:37:12,14.170,0.065,-0.089,0.166,12.289,179.886,-23.828
13:42:37:174,14.223,0.115,-0.128,0.128,12.829,-179.670,-24.855
13:42:37:202,14.251,0.124,-0.124,0.126,13.125,-179.308,-25.301
13:42:37:203,14.252,0.105,-0.090,0.140,13.065,-178.750,-25.454
13:42:37:226,14.275,0.130,-0.036,0.120,13.349,-178.065,-25.312
13:42:37:251,14.301,0.186,-0.047,0.123,13.593,-177.495,-24.938
13:42:37:278,14.327,0.193,-0.005,0.122,13.703,-176.893,-24.141
13:42:37:304,14.353,0.207,0.178,0.135,13.478,-176.804,-23.408
13:42:37:331,14.380,0.249,0.354,0.158,12.845,-177.032,-21.800
13:42:37:356,14.406,0.246,0.404,0.139,11.970,-177.742,-19.570
13:42:37:383,14.432,0.103,0.173,0.045,11.338,-178.599,-17.944
13:42:37:409,14.458,0.014,-0.125,-0.037,10.478,179.785,-15.834
13:42:37:435,14.485,-0.031,-0.347,-0.083,9.926,178.400,-14.932
13:42:37:462,14.511,-0.039,-0.308,-0.073,9.078,177.108,-14.314
13:42:37:546,14.595,0.015,-0.112,0.006,8.566,175.792,-14.175
13:42:37:546,14.596,0.069,0.028,0.080,8.492,175.311,-14.281
13:42:37:547,14.597,0.101,0.142,0.158,8.513,173.469,-14.449
13:42:37:566,14.616,0.089,0.161,0.149,8.406,171.771,-14.425
13:42:37:594,14.643,0.019,-0.034,0.077,7.992,167.872,-14.245
13:42:37:677,14.726,-0.073,-0.160,-0.038,7.189,163.137,-14.129
13:42:37:678,14.727,-0.129,-0.173,-0.085,6.368,159.830,-14.180
13:42:37:678,14.728,-0.159,-0.121,-0.176,4.938,154.794,-14.232
13:42:37:725,14.775,-0.236,-0.046,-0.176,4.059,152.426,-14.135
13:42:37:812,14.861,-0.208,-0.020,-0.196,3.169,149.788,-13.688
13:42:37:813,14.862,-0.168,0.001,-0.143,2.730,149.404,-12.712
13:42:37:814,14.863,-0.135,-0.031,-0.154,2.700,149.868,-11.842
13:42:37:814,14.864,-0.110,-0.079,-0.128,2.745,151.459,-10.416
13:42:37:861,14.910,-0.073,-0.094,-0.146,2.635,152.489,-9.472
13:42:37:861,14.910,-0.069,-0.102,-0.179,2.157,153.805,-8.192
13:42:37:914,14.963,-0.097,-0.105,-0.217,1.385,154.508,-7.192
13:42:37:915,14.964,-0.145,-0.072,-0.237,0.787,154.785,-6.665
13:42:37:915,14.965,-0.177,0.013,-0.280,-0.090,155.195,-5.989
13:42:37:96,15.010,-0.167,0.063,-0.299,-0.589,155.672,-5.585
13:42:37:99,15.039,-0.161,0.071,-0.293,-1.151,156.638,-5.083
13:42:37:99,15.039,-0.149,0.112,-0.272,-1.512,157.681,-4.749
13:42:38:042,15.092,-0.143,0.166,-0.276,-1.669,158.300,-4.601
13:42:38:043,15.093,-0.146,0.221,-0.259,-1.769,159.164,-4.491
13:42:38:065,15.115,-0.170,0.231,-0.226,-1.735,159.504,-4.472
13:42:38:092,15.141,-0.191,0.147,-0.225,-1.495,160.075,-4.530
13:42:38:118,15.167,-0.201,0.008,-0.190,-1.042,160.722,-4.773
13:42:38:173,15.222,-0.192,-0.092,-0.169,-0.669,161.318,-5.143
13:42:38:174,15.223,-0.183,-0.113,-0.109,-0.058,162.439,-6.140
13:42:38:197,15.247,-0.173,-0.074,-0.094,0.408,163.447,-7.094
13:42:38:252,15.301,-0.137,0.061,0.015,1.294,165.643,-8.697
13:42:38:252,15.302,-0.076,0.126,0.047,2.191,167.754,-9.733
13:42:38:364,15.413,-0.040,0.285,0.106,3.771,170.941,-11.194
13:42:38:364,15.414,-0.035,0.295,0.142,5.632,173.719,-12.315
13:42:38:365,15.415,0.018,0.129,0.175,6.993,175.249,-12.943
13:42:38:366,15.415,0.082,0.020,0.190,9.083,177.101,-13.974
13:42:38:381,15.430,0.112,-0.121,0.191,10.337,177.756,-14.906
13:42:38:406,15.456,0.070,-0.116,0.192,11.768,177.843,-16.864
13:42:38:434,15.483,0.082,-0.092,0.225,12.880,177.523,-19.222
13:42:38:459,15.509,0.089,-0.088,0.235,13.491,177.294,-20.851
13:42:38:516,15.565,0.086,-0.084,0.236,14.292,177.101,-23.121
13:42:38:516,15.565,0.100,-0.098,0.212,14.805,177.111,-24.433
13:42:38:537,15.587,0.115,-0.161,0.197,15.544,177.240,-26.101
13:42:38:564,15.614,0.134,-0.183,0.188,16.075,177.397,-27.412
13:42:38:59,15.640,0.136,-0.189,0.186,16.330,177.522,-28.042
13:42:38:646,15.695,0.139,-0.188,0.160,16.579,177.724,-28.600
13:42:38:646,15.696,0.149,-0.175,0.158,16.639,177.825,-28.719
13:42:38:669,15.718,0.161,-0.123,0.165,16.114,177.959,-28.183
13:42:38:695,15.745,0.172,-0.069,0.155,15.717,177.857,-27.471
13:42:38:751,15.800,0.174,-0.001,0.132,15.291,177.680,-26.719
13:42:38:751,15.801,0.160,0.105,0.133,14.494,177.301,-25.160
13:42:38:774,15.823,0.227,0.266,0.183,13.984,177.050,-23.835
13:42:38:828,15.877,0.236,0.320,0.207,13.293,176.575,-21.403
13:42:38:885,15.934,0.223,0.348,0.177,12.401,175.404,-18.615
13:42:38:885,15.935,0.154,0.255,0.080,11.589,173.994,-16.756
13:42:38:886,15.935,0.013,-0.021,-0.069,10.229,171.072,-14.399
13:42:38:905,15.954,-0.043,-0.171,-0.125,9.366,168.967,-13.293
13:42:38:932,15.981,-0.057,-0.191,-0.090,8.271,166.275,-12.390
13:42:38:958,16.007,-0.033,-0.041,0.015,7.591,164.544,-12.005
13:42:38:986,16.035,-0.020,0.073,0.112,7.369,163.521,-11.906
13:42:39:013,16.062,0.024,0.096,0.121,7.163,161.580,-11.716
13:42:39:037,16.086,-0.132,0.063,0.008,6.964,159.315,-11.455
13:42:39:063,16.113,-0.183,-0.032,-0.105,6.355,154.317,-11.129
13:42:39:089,16.138,-0.124,-0.160,-0.115,5.695,149.202,-10.800
13:42:39:115,16.165,-0.163,-0.142,-0.153,5.092,145.961,-10.479
13:42:39:17,16.220,-0.241,-0.104,-0.209,4.267,142.335,-9.719
13:42:39:171,16.221,-0.224,-0.060,-0.201,3.944,141.241,-9.025
13:42:39:194,16.244,-0.187,-0.029,-0.185,3.703,141.287,-7.789
13:42:39:221,16.270,-0.155,0.002,-0.177,3.593,142.073,-6.914
13:42:39:246,16.296,-0.120,0.025,-0.167,3.383,143.486,-5.595
13:42:39:273,16.322,-0.102,0.007,-0.174,3.054,145.073,-4.389
13:42:39:299,16.348,-0.098,-0.046,-0.203,2.717,145.611,-3.757
13:42:39:325,16.375,-0.119,-0.072,-0.238,2.049,146.104,-3.131
13:42:39:353,16.402,-0.143,-0.068,-0.273,1.546,146.277,-2.930
13:42:39:378,16.427,-0.141,-0.083,-0.279,0.812,146.862,-2.913
13:42:39:406,16.455,-0.122,-0.091,-0.286,0.444,147.719,-3.640
13:42:39:489,16.539,-0.103,-0.106,-0.270,0.685,148.642,-4.813
13:42:39:489,16.539,-0.095,-0.119,-0.251,0.161,149.643,-5.346
13:42:39:49,16.539,-0.098,-0.084,-0.217,-0.103,150.460,-5.791
13:42:39:539,16.589,-0.098,-0.053,-0.211,-0.399,151.320,-6.485
13:42:39:54,16.589,-0.101,0.021,-0.187,-0.563,152.244,-7.095
13:42:39:59,16.640,-0.102,0.206,-0.195,-0.627,152.601,-7.283
13:42:39:591,16.641,-0.111,0.404,-0.175,-0.576,153.493,-7.178
13:42:39:614,16.663,-0.128,0.422,-0.167,-0.392,153.810,-6.804
13:42:39:64,16.690,-0.166,0.347,-0.166,0.018,154.689,-5.913
13:42:39:667,16.716,-0.156,0.059,-0.131,0.625,155.929,-5.155
13:42:39:722,16.771,-0.138,-0.213,-0.093,1.027,156.735,-5.100
13:42:39:722,16.772,-0.144,-0.259,-0.101,1.467,158.824,-5.944
13:42:39:746,16.795,-0.148,-0.163,-0.050,1.730,160.355,-6.954
13:42:39:83,16.879,-0.167,-0.080,0.006,2.317,163.326,-8.829
13:42:39:83,16.880,-0.117,0.131,0.090,3.275,166.708,-10.678
13:42:39:831,16.881,-0.087,0.259,0.187,4.146,169.028,-11.683
13:42:39:85,16.900,-0.040,0.246,0.246,5.684,172.257,-12.623
13:42:39:877,16.926,0.014,0.091,0.238,6.812,174.200,-13.051
13:42:39:904,16.953,0.047,-0.018,0.221,8.391,176.563,-13.684
13:42:39:987,17.037,0.021,-0.056,0.198,9.667,178.202,-14.585
13:42:39:988,17.037,0.020,-0.057,0.216,10.442,179.131,-15.332
13:42:39:989,17.038,0.033,-0.045,0.239,11.577,-179.544,-16.578
13:42:40:008,17.057,0.073,-0.041,0.237,12.334,-178.690,-17.445
13:42:40:034,17.083,0.097,-0.049,0.222,12.042,-177.460,-18.326
13:42:40:06,17.110,0.111,-0.084,0.204,12.079,-176.588,-19.254
13:42:40:086,17.136,0.114,-0.113,0.191,12.535,-176.276,-20.092
13:42:40:113,17.162,0.106,-0.109,0.178,12.975,-176.053,-21.290
13:42:40:14,17.190,0.103,-0.090,0.173,13.167,-175.941,-21.970
13:42:40:197,17.247,0.096,-0.103,0.136,13.409,-175.719,-22.741
13:42:40:198,17.247,0.103,-0.100,0.118,13.538,-175.464,-23.219
13:42:40:198,17.248,0.114,-0.089,0.110,13.593,-175.285,-23.388
13:42:40:247,17.296,0.118,-0.067,0.099,13.334,-175.074,-23.173
13:42:40:247,17.297,0.106,-0.058,0.072,12.819,-174.932,-22.600
13:42:40:326,17.375,0.092,-0.059,0.060,12.560,-175.112,-22.077
13:42:40:327,17.376,0.125,0.036,0.077,12.166,-175.508,-21.240
13:42:40:35,17.399,0.150,0.123,0.112,11.811,-175.982,-20.471
13:42:40:378,17.427,0.171,0.254,0.138,11.092,-177.202,-18.917
13:42:40:379,17.428,0.119,0.273,0.072,10.360,-178.487,-17.565
13:42:40:46,17.509,0.022,0.156,-0.021,8.988,178.902,-15.346
13:42:40:46,17.510,-0.056,0.050,-0.096,7.565,176.229,-13.258
13:42:40:461,17.511,-0.112,0.028,-0.131,6.770,174.721,-12.120
13:42:40:509,17.559,-0.065,-0.073,-0.104,6.097,173.845,-10.879
13:42:40:51,17.560,-0.028,-0.102,-0.080,5.878,173.674,-10.395
13:42:40:591,17.640,0.037,-0.065,-0.022,5.702,173.167,-10.046
13:42:40:592,17.641,0.064,-0.006,0.023,5.622,172.239,-9.971
13:42:40:593,17.642,0.061,-0.016,0.050,5.577,169.879,-9.858
13:42:40:612,17.661,0.004,-0.024,-0.009,5.603,165.722,-9.857
13:42:40:638,17.687,-0.167,0.041,-0.124,5.474,161.991,-10.047
13:42:40:665,17.714,-0.132,-0.005,-0.155,5.242,156.498,-10.262
13:42:40:691,17.740,-0.107,-0.104,-0.142,5.067,153.308,-10.325
13:42:40:716,17.766,-0.156,-0.105,-0.158,4.640,149.066,-10.172
13:42:40:743,17.792,-0.162,-0.077,-0.156,4.533,147.246,-9.730
13:42:40:772,17.821,-0.133,-0.088,-0.076,4.645,147.155,-9.246
13:42:40:797,17.846,-0.128,-0.062,-0.075,4.752,147.956,-8.355
13:42:40:823,17.873,-0.112,-0.042,-0.098,4.708,148.616,-7.693
13:42:40:848,17.898,-0.104,-0.055,-0.115,4.525,149.715,-6.652
13:42:40:874,17.924,-0.120,-0.066,-0.140,4.183,150.467,-5.635
13:42:40:901,17.950,-0.139,-0.055,-0.185,3.855,150.779,-4.970
13:42:40:927,17.976,-0.158,-0.069,-0.233,3.291,150.986,-3.970
13:42:40:953,18.002,-0.169,-0.096,-0.271,2.893,151.158,-3.337
13:42:40:979,18.029,-0.203,-0.142,-0.288,2.283,151.461,-2.449
13:42:41:005,18.055,-0.234,-0.154,-0.328,1.616,152.045,-1.659
13:42:41:031,18.081,-0.256,-0.126,-0.350,1.151,152.728,-1.167
13:42:41:087,18.136,-0.267,-0.055,-0.364,0.468,154.212,-0.510
13:42:41:087,18.137,-0.277,0.018,-0.327,0.065,155.533,-0.153
13:42:41:11,18.160,-0.298,0.114,-0.313,-0.434,157.785,0.271
13:42:41:166,18.215,-0.313,0.363,-0.274,-0.762,160.256,0.703
13:42:41:166,18.216,-0.309,0.440,-0.225,-0.790,161.905,1.019
13:42:41:303,18.353,-0.268,0.475,-0.160,-0.576,163.943,1.462
13:42:41:304,18.353,-0.243,0.211,-0.115,-0.268,164.946,1.503
13:42:41:305,18.354,-0.198,-0.105,-0.076,0.189,166.108,0.783
13:42:41:305,18.355,-0.200,-0.201,-0.077,0.378,167.257,-1.014
13:42:41:324,18.373,-0.174,-0.213,-0.043,0.467,168.443,-2.725
13:42:41:324,18.374,-0.141,-0.148,0.068,0.703,170.529,-5.859
13:42:41:346,18.396,-0.139,0.027,0.169,0.948,172.009,-8.003
13:42:41:431,18.480,-0.087,0.223,0.137,1.667,174.685,-10.890
13:42:41:432,18.481,-0.044,0.246,0.191,2.806,177.050,-13.244
13:42:41:432,18.482,-0.046,0.241,0.231,3.584,178.228,-14.363
13:42:41:452,18.501,0.017,0.108,0.229,4.905,-179.995,-15.732
13:42:41:531,18.580,0.074,-0.083,0.205,5.840,-178.836,-16.596
13:42:41:583,18.633,0.077,-0.122,0.189,7.004,-177.294,-18.086
13:42:41:617,18.667,0.055,-0.107,0.203,7.952,-175.901,-19.663
13:42:41:618,18.667,0.044,-0.079,0.206,8.489,-175.018,-20.666
13:42:41:619,18.668,0.059,-0.065,0.232,9.269,-173.604,-21.843
13:42:41:665,18.715,0.095,-0.063,0.202,10.595,-170.614,-22.637
13:42:41:666,18.715,0.113,-0.099,0.178,11.076,-169.248,-22.575
13:42:41:688,18.737,0.118,-0.110,0.175,11.683,-167.129,-22.240
13:42:41:744,18.793,0.108,-0.110,0.142,12.166,-164.960,-21.776
13:42:41:744,18.794,0.115,-0.091,0.115,12.423,-163.501,-21.425
13:42:41:793,18.842,0.123,-0.058,0.096,12.688,-161.341,-20.897
13:42:41:822,18.871,0.150,-0.010,0.077,12.802,-159.985,-20.547
13:42:41:822,18.872,0.181,0.024,0.055,12.894,-158.170,-20.029
13:42:41:845,18.895,0.221,0.070,0.051,12.782,-156.984,-19.558
13:42:41:871,18.921,0.277,0.170,0.053,12.538,-156.698,-19.202
13:42:41:956,19.005,0.290,0.308,0.074,11.763,-157.291,-18.409
13:42:41:957,19.006,0.219,0.344,0.063,10.957,-158.336,-17.597
13:42:41:957,19.007,0.012,0.174,-0.025,9.477,-160.533,-15.907
13:42:42:005,19.055,-0.157,-0.194,-0.094,8.139,-162.433,-13.963
13:42:42:006,19.056,-0.201,-0.317,-0.094,7.371,-163.174,-12.803
13:42:42:058,19.107,-0.190,-0.257,-0.075,6.388,-163.128,-11.358
13:42:42:059,19.108,-0.108,-0.090,-0.026,5.947,-162.350,-10.555
13:42:42:082,19.132,-0.083,0.009,-0.007,5.666,-160.578,-9.495
13:42:42:109,19.158,-0.042,0.208,0.007,5.522,-159.750,-8.491
13:42:42:194,19.243,-0.081,0.204,-0.046,5.449,-159.891,-7.722
13:42:42:194,19.244,-0.133,-0.016,-0.063,5.362,-161.161,-6.754
13:42:42:194,19.244,-0.265,-0.115,-0.028,5.058,-162.814,-6.534
13:42:42:213,19.262,-0.331,-0.090,-0.062,4.130,-165.530,-6.724
13:42:42:239,19.288,-0.342,-0.092,-0.036,3.510,-165.957,-6.956
13:42:42:372,19.421,-0.222,-0.102,-0.045,3.401,-164.754,-7.277
13:42:42:406,19.455,-0.153,-0.041,-0.015,3.189,-162.682,-7.801
13:42:42:406,19.456,-0.169,-0.017,-0.022,3.049,-161.377,-8.116
13:42:42:426,19.475,-0.129,-0.035,-0.028,2.775,-157.141,-8.902
13:42:42:427,19.476,-0.158,-0.051,-0.033,2.565,-156.320,-9.143
13:42:42:453,19.502,-0.164,-0.089,-0.028,2.433,-155.720,-9.299
13:42:42:453,19.502,-0.167,-0.107,-0.028,2.250,-154.549,-9.505
13:42:42:504,19.554,-0.173,-0.108,-0.021,2.036,-153.138,-9.654
13:42:42:505,19.554,-0.161,-0.103,-0.015,2.066,-151.921,-9.954
13:42:42:529,19.578,-0.143,-0.071,-0.001,2.316,-150.419,-10.664
13:42:42:554,19.603,-0.155,-0.048,0.011,2.141,-149.333,-10.567
13:42:42:633,19.682,-0.153,0.003,0.030,1.899,-147.762,-10.281
13:42:42:665,19.714,-0.113,0.137,0.034,1.753,-146.376,-9.999
13:42:42:665,19.715,-0.109,0.269,0.044,1.525,-144.792,-9.371
13:42:42:666,19.716,-0.125,0.250,0.068,1.421,-142.854,-8.467
13:42:42:685,19.735,-0.118,0.179,0.090,1.449,-141.957,-7.791
13:42:42:711,19.761,-0.141,0.125,0.115,1.573,-140.342,-6.858
13:42:42:738,19.788,-0.162,0.031,0.147,1.695,-139.399,-6.372
13:42:42:793,19.843,-0.138,-0.040,0.165,1.947,-137.155,-5.937
13:42:42:794,19.843,-0.105,-0.123,0.158,2.221,-134.930,-6.070
13:42:42:846,19.895,-0.092,-0.133,0.153,2.402,-132.670,-6.516
13:42:42:846,19.896,-0.056,-0.010,0.197,2.716,-129.760,-7.578
13:42:42:898,19.947,0.001,0.172,0.220,3.000,-127.215,-8.376
13:42:42:899,19.948,0.022,0.223,0.215,3.722,-123.366,-9.409
13:42:42:922,19.972,0.088,0.210,0.178,4.935,-119.103,-10.107
13:42:42:977,20.026,0.140,0.170,0.122,5.943,-116.282,-10.431
13:42:42:978,20.027,0.187,0.047,0.069,7.575,-112.571,-10.896
13:42:43:028,20.077,0.191,-0.024,0.036,8.644,-110.630,-11.363
13:42:43:056,20.106,0.195,-0.078,0.015,10.092,-108.668,-12.528
13:42:43:057,20.106,0.205,-0.039,0.045,11.255,-107.650,-14.216
13:42:43:108,20.157,0.232,-0.039,0.038,11.955,-107.205,-15.506
13:42:43:109,20.158,0.271,-0.027,0.024,12.912,-106.679,-17.465
13:42:43:133,20.182,0.290,-0.044,-0.014,13.497,-106.336,-18.696
13:42:43:158,20.207,0.267,-0.076,-0.038,12.745,-105.703,-19.812
13:42:43:213,20.262,0.239,-0.151,-0.056,13.387,-105.296,-21.381
13:42:43:214,20.263,0.232,-0.159,-0.063,13.684,-105.118,-22.402
13:42:43:289,20.339,0.262,-0.106,-0.093,14.017,-104.876,-23.860
13:42:43:35,20.399,0.285,-0.035,-0.145,14.260,-104.688,-24.713
13:42:43:351,20.400,0.329,-0.001,-0.236,14.703,-104.518,-25.759
13:42:43:352,20.401,0.396,0.129,-0.334,14.881,-104.112,-26.535
13:42:43:368,20.417,0.267,0.309,-0.296,13.138,-106.525,-26.317
13:42:43:423,20.473,-0.034,0.002,-0.145,11.761,-108.448,-25.427
13:42:43:424,20.473,-0.128,-0.166,-0.082,9.696,-110.787,-23.734
13:42:43:476,20.525,-0.142,-0.398,-0.047,8.250,-112.806,-22.358
13:42:43:476,20.526,-0.047,-0.387,-0.084,7.675,-112.983,-21.695
13:42:43:5,20.550,0.059,-0.256,-0.137,7.347,-113.112,-20.849
13:42:43:527,20.576,0.136,0.030,-0.161,7.322,-112.358,-20.309
13:42:43:552,20.602,0.137,0.272,-0.176,7.163,-112.917,-19.327
13:42:43:608,20.658,0.087,0.303,-0.126,6.842,-113.420,-18.303
13:42:43:608,20.658,0.013,0.134,-0.071,6.071,-115.847,-16.206
13:42:43:63,20.679,-0.135,-0.021,0.007,4.986,-118.821,-14.111
13:42:43:71,20.760,-0.343,-0.017,0.112,4.218,-121.458,-12.967
13:42:43:77,20.819,-0.259,-0.152,0.114,3.568,-123.424,-11.497
13:42:43:771,20.820,-0.182,-0.036,0.092,3.300,-123.796,-10.429
13:42:43:771,20.821,-0.225,0.024,0.230,2.934,-123.293,-8.747
13:42:43:772,20.822,-0.138,-0.026,0.130,2.957,-121.226,-7.182
13:42:43:788,20.837,-0.118,-0.034,0.109,2.853,-120.388,-6.208
13:42:43:872,20.921,-0.182,-0.045,0.112,2.523,-119.275,-4.940
13:42:43:873,20.922,-0.232,-0.053,0.124,2.213,-119.238,-4.231
13:42:43:894,20.943,-0.318,-0.106,0.216,1.040,-119.345,-2.845
13:42:43:919,20.968,-0.342,-0.134,0.233,0.579,-118.807,-2.557
13:42:44:,21.049,-0.376,-0.112,0.268,-0.157,-118.196,-2.262
13:42:44:031,21.080,-0.384,-0.046,0.275,-0.649,-116.874,-2.157
13:42:44:031,21.080,-0.357,0.072,0.256,-1.237,-114.640,-2.151
13:42:44:032,21.081,-0.318,0.220,0.226,-1.596,-111.878,-2.297
13:42:44:05,21.100,-0.304,0.342,0.195,-1.723,-110.169,-2.460
13:42:44:077,21.126,-0.266,0.338,0.191,-1.576,-107.406,-2.847
13:42:44:132,21.182,-0.218,0.312,0.178,-1.283,-106.062,-3.216
13:42:44:133,21.182,-0.171,0.213,0.171,-0.580,-104.069,-4.038
13:42:44:271,21.321,-0.090,-0.005,0.127,0.412,-102.422,-5.389
13:42:44:272,21.321,-0.063,-0.088,0.105,1.097,-101.218,-6.701
13:42:44:272,21.321,-0.023,-0.146,0.121,2.054,-99.806,-9.214
13:42:44:272,21.321,0.075,-0.007,0.044,2.689,-98.352,-11.006
13:42:44:346,21.395,0.107,0.021,-0.030,4.373,-94.828,-13.426
13:42:44:347,21.396,0.177,0.127,-0.113,6.191,-91.856,-15.776
13:42:44:347,21.397,0.226,0.199,-0.089,7.231,-90.603,-17.016
13:42:44:367,21.416,0.282,0.198,-0.049,8.899,-89.008,-18.402
13:42:44:424,21.473,0.263,0.056,-0.097,10.240,-87.836,-19.129
13:42:44:425,21.474,0.252,-0.112,-0.161,12.230,-86.178,-20.045
13:42:44:425,21.474,0.235,-0.145,-0.141,13.352,-85.323,-20.704
13:42:44:444,21.493,0.249,-0.158,-0.155,14.822,-84.211,-21.821
13:42:44:471,21.521,0.266,-0.127,-0.185,16.043,-83.296,-23.076
13:42:44:497,21.546,0.263,-0.139,-0.207,16.730,-82.792,-23.941
13:42:44:584,21.634,0.242,-0.157,-0.212,16.899,-82.044,-24.795
13:42:44:585,21.635,0.223,-0.185,-0.202,17.198,-81.743,-25.577
13:42:44:586,21.636,0.202,-0.195,-0.195,17.345,-81.408,-26.673
13:42:44:63,21.680,0.160,-0.174,-0.198,17.192,-80.754,-28.163
13:42:44:631,21.681,0.162,-0.149,-0.226,17.048,-80.278,-28.709
13:42:44:713,21.763,0.145,-0.100,-0.262,16.866,-80.045,-28.866
13:42:44:713,21.763,0.133,-0.079,-0.265,16.280,-80.020,-28.713
13:42:44:714,21.763,0.128,0.030,-0.265,15.214,-80.529,-28.071
13:42:44:815,21.864,0.133,0.137,-0.279,14.289,-81.104,-27.257
13:42:44:815,21.865,0.158,0.326,-0.301,12.790,-82.243,-25.316
13:42:44:846,21.895,0.093,0.432,-0.252,11.694,-83.237,-23.499
13:42:44:846,21.895,0.010,0.324,-0.137,9.991,-85.017,-20.168
13:42:44:846,21.896,-0.142,-0.045,0.044,8.480,-86.970,-17.006
13:42:44:864,21.913,-0.178,-0.315,0.100,7.673,-88.924,-15.519
13:42:45:005,22.055,-0.153,-0.323,0.072,6.603,-90.008,-14.301
13:42:45:006,22.055,-0.022,-0.108,-0.001,6.057,-90.708,-13.875
13:42:45:007,22.057,0.042,0.094,-0.098,5.566,-91.010,-13.607
13:42:45:192,22.242,-0.158,0.351,0.119,4.788,-96.446,-13.745
13:42:45:192,22.242,-0.196,0.101,0.212,3.854,-102.509,-13.975
13:42:45:193,22.242,-0.148,-0.118,0.127,3.319,-106.230,-13.993
13:42:45:193,22.243,-0.146,-0.243,0.122,2.242,-111.356,-13.933
13:42:45:241,22.290,-0.245,-0.094,0.270,1.205,-114.407,-13.558
13:42:45:242,22.291,-0.199,-0.087,0.250,1.096,-114.174,-13.212
13:42:45:243,22.292,-0.092,-0.044,0.118,1.329,-112.525,-12.714
13:42:45:243,22.293,-0.091,0.062,0.083,1.400,-111.098,-12.357
13:42:45:265,22.314,-0.117,0.052,0.048,1.401,-109.693,-11.798
13:42:45:265,22.314,-0.120,-0.048,0.048,1.185,-108.426,-11.069
13:42:45:315,22.364,-0.158,-0.066,0.077,0.831,-107.877,-10.808
13:42:45:315,22.364,-0.183,-0.086,0.070,0.507,-107.717,-10.704
13:42:45:366,22.415,-0.211,-0.130,0.106,-0.137,-107.155,-10.650
13:42:45:367,22.416,-0.226,-0.118,0.105,-0.577,-107.129,-10.623
13:42:45:447,22.496,-0.224,-0.081,0.096,-1.179,-106.000,-10.574
13:42:45:448,22.497,-0.238,-0.001,0.120,-1.663,-104.974,-10.442
13:42:45:449,22.498,-0.197,0.071,0.159,-1.899,-104.014,-10.304
13:42:45:497,22.546,-0.186,0.160,0.157,-2.111,-102.812,-9.953
13:42:45:498,22.547,-0.152,0.296,0.076,-2.097,-101.414,-9.625
13:42:45:578,22.628,-0.104,0.297,0.070,-1.839,-99.816,-9.068
13:42:45:579,22.628,-0.096,0.265,0.074,-1.440,-98.078,-8.489
13:42:45:58,22.629,-0.088,0.143,0.090,-1.101,-97.514,-8.171
13:42:45:6,22.649,-0.071,-0.075,0.136,-0.612,-96.213,-7.997
13:42:45:626,22.676,-0.050,-0.124,0.178,-0.348,-95.697,-8.177
13:42:45:765,22.815,-0.038,-0.099,0.170,0.080,-93.775,-8.861
13:42:45:767,22.816,0.031,-0.043,0.113,0.672,-91.647,-9.802
13:42:45:767,22.817,0.056,-0.038,0.096,1.268,-89.479,-10.551
13:42:45:815,22.865,0.197,0.093,0.003,3.054,-83.869,-12.035
13:42:45:816,22.865,0.168,0.116,0.012,4.453,-80.725,-12.454
13:42:45:816,22.865,0.176,0.091,0.033,5.975,-78.339,-12.761
13:42:45:835,22.885,0.191,0.035,-0.031,7.077,-76.549,-12.855
13:42:45:888,22.937,0.198,0.005,-0.042,8.634,-74.607,-13.132
13:42:45:946,22.995,0.207,-0.018,-0.055,9.597,-73.751,-13.474
13:42:45:947,22.996,0.212,-0.038,-0.064,10.908,-72.961,-14.249
13:42:45:947,22.997,0.227,-0.056,-0.067,12.015,-72.636,-15.402
13:42:45:968,23.017,0.229,-0.036,-0.072,12.639,-72.547,-16.342
13:42:45:993,23.042,0.246,-0.008,-0.108,13.483,-72.262,-17.838
13:42:46:019,23.068,0.238,-0.026,-0.141,14.021,-71.918,-18.831
13:42:46:074,23.124,0.223,-0.058,-0.173,14.200,-71.257,-20.157
13:42:46:075,23.125,0.190,-0.101,-0.182,14.667,-70.637,-21.659
13:42:46:156,23.206,0.172,-0.128,-0.184,14.854,-70.232,-22.672
13:42:46:157,23.206,0.153,-0.126,-0.183,14.971,-69.622,-24.176
13:42:46:157,23.207,0.124,-0.109,-0.187,14.999,-69.172,-25.113
13:42:46:208,23.257,0.107,-0.077,-0.200,14.612,-68.804,-26.044
13:42:46:208,23.257,0.066,-0.026,-0.237,14.702,-67.879,-26.898
13:42:46:288,23.338,0.061,-0.005,-0.264,14.758,-67.786,-27.262
13:42:46:288,23.338,0.043,0.137,-0.370,14.617,-67.300,-27.391
13:42:46:289,23.339,0.005,0.237,-0.371,14.223,-67.643,-27.125
13:42:46:309,23.358,-0.056,0.246,-0.310,13.080,-68.508,-26.095
13:42:46:334,23.383,-0.139,0.028,-0.142,11.580,-70.389,-24.646
13:42:46:418,23.468,-0.160,-0.163,-0.033,10.653,-71.638,-23.715
13:42:46:419,23.469,-0.142,-0.277,0.008,9.526,-73.546,-22.713
13:42:46:42,23.470,-0.117,-0.238,0.002,8.932,-74.408,-22.184
13:42:46:553,23.603,-0.090,-0.111,-0.052,8.425,-75.228,-21.502
13:42:46:554,23.603,-0.064,0.075,-0.085,8.235,-75.810,-20.722
13:42:46:555,23.604,-0.045,0.171,-0.098,8.122,-76.228,-19.950
13:42:46:556,23.605,-0.060,0.214,-0.090,7.976,-77.117,-18.276
13:42:46:685,23.735,-0.061,0.059,-0.031,7.905,-77.757,-16.996
13:42:46:685,23.735,-0.054,-0.024,-0.012,7.691,-78.970,-15.227
13:42:46:686,23.735,-0.088,-0.070,0.094,7.248,-80.410,-13.921
13:42:46:687,23.736,-0.066,-0.021,0.202,6.852,-81.694,-13.411
13:42:46:708,23.757,-0.049,-0.089,0.119,6.527,-82.486,-12.781
13:42:46:708,23.757,-0.002,-0.008,0.123,6.296,-82.699,-12.386
13:42:46:709,23.758,0.037,0.047,0.161,5.892,-82.640,-11.704
13:42:46:758,23.807,0.012,0.006,0.119,5.751,-82.190,-11.131
13:42:46:758,23.808,0.004,-0.026,0.075,5.583,-81.220,-10.282
13:42:46:78,23.830,-0.015,-0.045,0.129,5.185,-80.693,-9.601
13:42:46:806,23.856,-0.041,-0.070,0.170,4.824,-80.466,-9.242
13:42:46:862,23.911,-0.057,-0.080,0.182,4.226,-79.876,-8.849
13:42:46:862,23.912,-0.071,-0.096,0.193,3.790,-79.454,-8.665
13:42:46:913,23.962,-0.083,-0.097,0.193,3.338,-78.617,-8.830
13:42:46:938,23.988,-0.078,-0.086,0.193,3.361,-77.882,-9.724
13:42:46:999,24.049,-0.065,-0.052,0.185,3.410,-77.281,-10.331
13:42:47:,24.049,-0.074,0.001,0.199,3.066,-76.301,-10.578
13:42:47:,24.050,-0.075,0.057,0.186,2.742,-75.507,-10.515
13:42:47:001,24.051,-0.086,0.095,0.168,2.372,-74.095,-10.440
13:42:47:046,24.095,-0.067,0.156,0.145,2.113,-72.567,-10.443
13:42:47:046,24.096,-0.076,0.217,0.147,1.978,-71.570,-10.493
13:42:47:183,24.233,-0.044,0.184,0.139,1.885,-69.910,-10.598
13:42:47:184,24.233,-0.018,0.200,0.135,1.905,-68.958,-10.682
13:42:47:185,24.234,-0.009,0.265,0.155,1.909,-67.453,-10.762
13:42:47:185,24.235,0.006,0.105,0.191,2.118,-65.404,-10.771
13:42:47:261,24.311,0.043,-0.032,0.168,2.381,-63.853,-10.784
13:42:47:262,24.312,0.082,-0.127,0.148,2.884,-60.666,-10.958
13:42:47:263,24.312,0.140,-0.128,0.091,3.339,-58.004,-11.152
13:42:47:309,24.358,0.010,-0.008,-0.277,6.117,-45.203,-10.829
13:42:47:31,24.359,0.040,0.062,-0.245,7.106,-41.414,-10.543
13:42:47:362,24.411,0.233,0.131,-0.144,8.040,-39.165,-10.395
13:42:47:362,24.412,0.287,0.127,-0.107,8.594,-38.568,-10.383
13:42:47:384,24.433,0.308,0.058,-0.141,9.763,-37.980,-10.521
13:42:47:44,24.490,0.252,-0.030,-0.200,11.210,-36.723,-10.803
13:42:47:441,24.490,0.228,-0.072,-0.188,12.089,-36.021,-11.165
13:42:47:551,24.600,0.206,-0.086,-0.188,13.208,-34.972,-12.079
13:42:47:551,24.601,0.211,-0.069,-0.213,13.863,-34.304,-12.868
13:42:47:552,24.602,0.232,-0.025,-0.244,14.675,-32.775,-14.169
13:42:47:553,24.602,0.211,-0.011,-0.275,15.408,-31.480,-15.419
13:42:47:57,24.619,0.163,-0.042,-0.296,15.936,-30.022,-16.166
13:42:47:623,24.673,0.105,-0.097,-0.303,16.712,-28.327,-17.234
13:42:47:624,24.674,0.067,-0.132,-0.307,17.154,-26.967,-17.969
13:42:47:647,24.696,0.039,-0.124,-0.307,17.649,-25.724,-19.164
13:42:47:673,24.722,0.004,-0.074,-0.333,17.932,-24.406,-20.490
13:42:47:699,24.749,-0.025,-0.043,-0.335,18.026,-24.006,-21.408
13:42:47:755,24.805,-0.084,-0.029,-0.335,18.114,-23.148,-22.693
13:42:47:755,24.805,-0.120,-0.019,-0.299,18.069,-23.085,-23.438
13:42:47:893,24.942,-0.162,0.057,-0.311,17.772,-23.053,-24.291
13:42:47:893,24.942,-0.187,0.155,-0.339,17.503,-23.323,-24.570
13:42:47:894,24.943,-0.188,0.221,-0.361,17.012,-23.914,-24.388
13:42:47:894,24.944,-0.182,0.119,-0.186,16.124,-25.033,-23.325
13:42:47:914,24.963,-0.123,-0.098,-0.030,15.463,-25.924,-22.378
13:42:47:914,24.963,-0.067,-0.286,0.048,14.548,-27.068,-21.104
13:42:48:022,25.072,-0.053,-0.253,0.002,14.053,-27.558,-20.424
13:42:48:023,25.073,-0.069,-0.134,-0.055,13.618,-27.434,-19.526
13:42:48:024,25.073,-0.091,0.064,-0.171,13.516,-27.048,-18.685
13:42:48:025,25.074,-0.092,0.172,-0.198,13.431,-27.028,-18.047
13:42:48:356,25.405,-0.058,0.128,-0.145,13.126,-27.776,-16.877
13:42:48:523,25.572,-0.021,-0.050,-0.086,12.756,-28.645,-16.086
13:42:48:523,25.573,0.048,-0.134,0.046,11.984,-30.524,-15.163
13:42:48:524,25.574,0.104,-0.117,0.109,11.157,-31.873,-14.408
13:42:48:619,25.668,0.144,0.019,0.072,10.043,-31.709,-12.452
13:42:48:76,25.809,0.116,0.007,0.054,9.805,-31.026,-11.555
13:42:48:76,25.809,0.120,0.002,0.055,9.457,-29.826,-10.268
13:42:48:76,25.809,0.089,-0.017,0.066,9.101,-28.780,-9.134
13:42:48:76,25.810,0.075,-0.033,0.080,8.820,-28.253,-8.548
13:42:48:811,25.860,0.095,-0.058,0.117,8.279,-27.874,-7.947
13:42:48:812,25.861,0.141,-0.062,0.150,7.870,-27.681,-7.709
13:42:48:812,25.862,0.142,-0.056,0.162,7.291,-27.331,-7.496
13:42:48:813,25.863,0.153,-0.051,0.162,6.767,-26.668,-7.357
13:42:48:889,25.939,0.146,-0.015,0.165,6.760,-26.179,-7.992
13:42:48:89,25.940,0.148,0.037,0.159,6.355,-25.073,-7.804
13:42:48:892,25.941,0.143,0.040,0.157,6.152,-24.256,-7.683
13:42:48:892,25.942,0.137,0.076,0.105,5.963,-22.971,-7.596
13:42:48:959,26.009,0.142,0.212,0.093,5.846,-21.743,-7.623
13:42:48:994,26.044,0.162,0.243,0.073,5.847,-20.956,-7.676
13:42:48:995,26.044,0.195,0.306,0.040,6.059,-19.656,-7.687
13:42:48:996,26.045,0.156,0.263,0.001,6.352,-18.709,-7.631
13:42:48:997,26.046,0.138,0.114,-0.026,7.035,-17.364,-7.713
13:42:49:015,26.065,0.121,-0.148,-0.069,7.543,-16.629,-8.114
13:42:49:016,26.065,0.130,-0.193,-0.049,8.192,-15.515,-9.422
13:42:49:048,26.097,0.149,-0.102,-0.091,8.815,-13.972,-11.246
13:42:49:048,26.097,0.131,0.005,-0.160,9.350,-12.524,-12.548
13:42:49:049,26.098,0.082,0.242,-0.290,10.442,-9.792,-14.279
13:42:49:049,26.099,-0.045,0.163,-0.343,13.502,-4.496,-16.027
13:42:49:074,26.124,-0.077,0.039,-0.338,15.374,-2.210,-17.090
13:42:49:074,26.124,-0.031,-0.012,-0.302,16.374,-1.358,-18.135
13:42:49:075,26.124,0.016,-0.024,-0.259,17.773,-0.373,-20.051
13:42:49:075,26.125,0.072,0.020,-0.321,18.889,0.514,-21.433
13:42:49:126,26.176,-0.051,0.021,-0.361,21.009,2.471,-23.682
13:42:49:127,26.176,-0.141,0.012,-0.321,23.305,4.572,-26.005
13:42:49:128,26.177,-0.080,0.009,-0.243,24.754,5.680,-27.669
13:42:49:129,26.178,-0.017,0.097,-0.295,26.929,7.187,-30.315
13:42:49:177,26.226,-0.099,0.006,-0.290,28.657,8.421,-32.070
13:42:49:178,26.227,-0.134,-0.036,-0.267,31.660,10.542,-34.535
13:42:49:178,26.228,-0.096,-0.031,-0.220,34.740,12.507,-36.909
13:42:49:204,26.253,-0.112,-0.019,-0.201,36.794,13.709,-38.479
13:42:49:205,26.254,-0.157,-0.065,-0.192,39.843,15.316,-40.763
13:42:49:206,26.255,-0.129,-0.061,-0.165,41.816,16.216,-42.181
13:42:49:222,26.271,-0.146,-0.031,-0.211,47.458,18.378,-45.693
13:42:49:251,26.300,-0.202,-0.001,-0.227,49.088,19.256,-46.433
13:42:49:251,26.301,-0.212,-0.010,-0.211,51.223,20.147,-46.948
13:42:49:274,26.323,-0.222,-0.020,-0.166,52.309,20.932,-47.007
13:42:49:388,26.437,-0.154,-0.023,-0.104,53.264,21.372,-47.151
13:42:49:388,26.438,-0.099,-0.047,-0.089,53.839,22.125,-47.484
13:42:49:389,26.439,-0.100,-0.036,-0.104,54.334,22.560,-47.653
13:42:49:39,26.439,-0.090,-0.049,-0.153,55.798,24.397,-47.850
13:42:49:405,26.455,-0.138,-0.079,-0.161,57.153,25.729,-47.874
13:42:49:432,26.481,-0.191,-0.043,-0.213,59.335,28.291,-47.565
13:42:49:459,26.509,-0.183,0.059,-0.190,61.659,30.362,-46.962
13:42:49:484,26.534,-0.140,0.082,-0.125,63.219,31.970,-46.408
13:42:49:51,26.560,-0.082,0.130,-0.108,65.424,34.077,-45.711
13:42:49:566,26.616,-0.058,0.083,-0.070,66.901,35.684,-45.205
13:42:49:566,26.616,-0.027,0.038,-0.054,69.181,38.789,-43.933
13:42:49:589,26.639,-0.037,0.026,-0.094,70.683,41.300,-42.928
13:42:49:643,26.692,-0.042,-0.014,-0.051,72.910,45.571,-41.075
13:42:49:671,26.720,-0.083,0.023,-0.125,75.019,49.905,-39.099
13:42:49:672,26.721,-0.087,-0.037,-0.105,76.481,52.749,-37.529
13:42:49:694,26.743,-0.054,-0.072,-0.008,78.691,59.132,-33.591
13:42:49:72,26.770,-0.059,-0.067,-0.020,80.038,64.252,-30.004
13:42:49:773,26.823,-0.069,-0.067,-0.090,82.014,74.564,-21.929
13:42:49:831,26.881,-0.045,-0.096,-0.022,83.946,96.195,-2.527
13:42:49:832,26.881,-0.012,-0.086,0.090,85.097,118.058,17.819
13:42:49:833,26.882,-0.035,-0.092,0.032,86.647,150.059,47.614
13:42:49:852,26.901,-0.029,-0.100,0.024,87.593,167.645,63.680
13:42:49:878,26.927,-0.013,-0.137,0.024,88.897,-173.530,80.316
13:42:49:935,26.984,-0.070,-0.076,-0.055,90.025,-161.588,90.179
13:42:49:936,26.985,-0.053,-0.057,-0.034,90.716,-155.783,94.585
13:42:49:956,27.006,-0.021,-0.065,0.001,91.628,-149.455,98.950
13:42:49:983,27.032,-0.039,-0.001,-0.039,92.111,-146.317,100.713
13:42:50:009,27.059,-0.064,0.063,-0.061,92.717,-142.864,102.528
13:42:50:036,27.085,-0.036,0.066,-0.101,93.296,-139.144,104.410
13:42:50:062,27.111,0.000,0.033,-0.066,93.685,-136.593,105.841
13:42:50:09,27.139,-0.051,-0.005,-0.117,94.162,-132.990,107.868
13:42:50:143,27.192,-0.070,-0.029,-0.143,94.405,-131.037,108.885
13:42:50:144,27.193,-0.029,-0.084,-0.109,94.698,-128.633,109.535
13:42:50:167,27.216,-0.098,-0.069,-0.130,94.844,-126.763,109.695
13:42:50:222,27.272,-0.125,-0.077,-0.166,94.955,-125.458,109.904
13:42:50:222,27.272,-0.099,-0.120,-0.197,95.170,-123.334,110.467
13:42:50:304,27.353,-0.113,-0.087,-0.178,95.278,-122.193,110.716
13:42:50:304,27.354,-0.147,-0.051,-0.204,95.333,-121.027,110.756
13:42:50:305,27.354,-0.132,-0.047,-0.196,95.305,-120.263,110.484
13:42:50:324,27.373,-0.108,-0.046,-0.173,95.212,-119.900,110.211
13:42:50:35,27.400,-0.135,-0.040,-0.183,94.959,-119.675,109.576
13:42:50:462,27.512,-0.146,-0.053,-0.143,94.758,-119.930,108.870
13:42:50:463,27.512,-0.081,-0.027,-0.086,94.444,-120.330,107.606
13:42:50:463,27.513,-0.097,-0.043,-0.138,94.188,-120.239,106.928
13:42:50:539,27.589,-0.123,-0.057,-0.150,94.067,-119.997,106.690
13:42:50:539,27.589,-0.050,-0.066,-0.099,93.979,-119.684,106.319
13:42:50:566,27.615,-0.043,-0.042,-0.096,93.899,-119.602,106.014
13:42:50:567,27.616,-0.070,-0.044,-0.106,93.768,-119.478,105.711
13:42:50:568,27.617,-0.098,-0.028,-0.137,93.722,-119.274,105.736
13:42:50:616,27.665,-0.055,-0.013,-0.077,93.682,-119.099,105.718
13:42:50:617,27.666,-0.037,-0.019,-0.077,93.617,-119.062,105.599
13:42:50:64,27.690,-0.041,-0.033,-0.114,93.537,-119.108,105.448
13:42:50:695,27.744,-0.058,-0.011,-0.117,93.358,-119.590,104.860
13:42:50:695,27.744,-0.006,0.003,-0.059,93.198,-120.226,104.123
13:42:50:718,27.767,0.008,0.007,-0.049,92.953,-121.233,103.014
13:42:50:773,27.822,-0.012,-0.018,-0.102,92.760,-121.927,102.364
13:42:50:825,27.874,-0.010,-0.010,-0.097,92.621,-122.552,101.825
13:42:50:985,28.034,0.021,0.016,-0.065,92.392,-123.777,100.718
13:42:50:986,28.035,-0.006,0.037,-0.094,92.257,-124.571,100.111
13:42:51:016,28.065,-0.049,0.024,-0.131,92.086,-125.685,99.394
13:42:51:017,28.066,-0.008,0.064,-0.074,91.924,-127.012,98.493
13:42:51:017,28.067,0.007,0.093,-0.060,91.843,-127.926,98.013
13:42:51:018,28.068,-0.053,0.090,-0.115,91.843,-128.792,98.082
13:42:51:06,28.109,-0.048,0.103,-0.111,91.883,-129.168,98.412
13:42:51:095,28.145,-0.044,0.113,-0.085,91.857,-130.235,98.454
13:42:51:096,28.145,-0.078,0.045,-0.100,91.711,-131.599,98.032
13:42:51:097,28.146,-0.106,-0.005,-0.115,91.497,-133.228,97.024
13:42:51:098,28.147,-0.099,-0.034,-0.083,91.138,-135.822,95.299
13:42:51:115,28.164,-0.105,-0.091,-0.108,90.946,-137.391,94.387
13:42:51:115,28.164,-0.135,-0.116,-0.145,90.811,-138.974,93.781
13:42:51:138,28.187,-0.124,-0.096,-0.153,90.798,-140.263,93.622
13:42:51:193,28.242,-0.117,-0.030,-0.141,90.799,-141.037,93.506
13:42:51:194,28.243,-0.111,0.004,-0.097,90.820,-142.111,93.483
13:42:51:249,28.298,-0.182,-0.004,-0.159,90.857,-142.666,93.649
13:42:51:25,28.299,-0.124,0.010,-0.103,90.914,-143.332,93.890
13:42:51:25,28.299,-0.051,-0.011,-0.062,90.904,-144.060,93.770
13:42:51:296,28.346,-0.045,-0.045,-0.092,90.835,-144.669,93.458
13:42:51:322,28.371,-0.078,-0.042,-0.126,90.695,-145.612,92.853
13:42:51:382,28.431,-0.057,-0.041,-0.065,90.625,-146.039,92.525
13:42:51:382,28.431,-0.064,-0.054,-0.062,90.686,-145.986,92.706
13:42:51:382,28.431,-0.048,-0.046,-0.071,90.892,-145.344,93.489
13:42:51:4,28.450,-0.055,-0.011,-0.051,90.999,-144.910,93.981
13:42:51:427,28.476,-0.033,-0.001,-0.015,91.199,-144.103,94.725
13:42:51:453,28.502,-0.021,-0.017,-0.026,91.329,-143.491,95.226
13:42:51:509,28.558,-0.029,-0.013,-0.050,91.483,-142.628,95.881
13:42:51:509,28.559,-0.007,-0.001,0.002,91.546,-142.125,96.134
13:42:51:561,28.611,0.009,-0.030,0.019,91.613,-141.383,96.322
13:42:51:561,28.611,0.030,-0.026,-0.019,91.703,-140.394,96.660
13:42:51:584,28.634,0.015,-0.027,-0.033,91.791,-139.581,97.016
13:42:51:61,28.660,0.020,-0.034,-0.012,92.000,-138.043,97.773
13:42:51:636,28.686,0.033,0.003,-0.009,92.203,-136.788,98.483
13:42:51:663,28.712,0.032,0.041,0.008,92.494,-134.908,99.493
13:42:51:691,28.740,0.002,0.044,-0.007,92.860,-132.563,100.943
13:42:51:716,28.765,0.010,0.033,-0.045,93.179,-130.583,102.281
13:42:51:742,28.791,0.016,0.070,-0.047,93.719,-127.414,104.444
13:42:51:768,28.818,0.029,0.101,-0.055,94.050,-125.415,105.750
13:42:51:794,28.843,0.016,0.092,-0.091,94.475,-122.500,107.516
13:42:51:821,28.870,-0.032,0.071,-0.121,94.855,-119.525,109.404
13:42:51:847,28.897,-0.060,0.089,-0.117,95.058,-117.722,110.542
13:42:51:873,28.923,-0.090,0.040,-0.122,95.281,-115.326,111.951
13:42:51:899,28.948,-0.101,-0.001,-0.124,95.388,-113.941,112.618
13:42:51:954,29.003,-0.111,-0.047,-0.143,95.477,-112.546,112.924
13:42:51:955,29.004,-0.119,-0.034,-0.152,95.504,-111.603,112.805
13:42:51:978,29.028,-0.119,-0.083,-0.177,95.554,-110.759,112.962
13:42:52:004,29.054,-0.122,-0.086,-0.218,95.628,-109.513,113.303
13:42:52:03,29.080,-0.096,-0.049,-0.192,95.651,-108.903,113.337
13:42:52:057,29.106,-0.089,-0.013,-0.148,95.509,-108.642,112.803
13:42:52:085,29.134,-0.104,0.000,-0.126,95.321,-108.173,112.552
13:42:52:109,29.159,-0.126,-0.006,-0.145,95.221,-107.706,112.574
13:42:52:165,29.214,-0.104,-0.031,-0.110,95.074,-107.361,112.190
13:42:52:165,29.215,-0.059,-0.031,-0.069,94.977,-107.400,111.649
13:42:52:188,29.237,-0.009,-0.052,-0.061,94.796,-107.497,110.843
13:42:52:272,29.321,-0.057,-0.063,-0.129,94.528,-107.953,109.799
13:42:52:273,29.322,-0.066,-0.033,-0.094,94.328,-108.579,108.823
13:42:52:274,29.323,-0.023,-0.011,-0.048,94.117,-109.156,107.825
13:42:52:293,29.342,-0.017,-0.067,-0.060,94.025,-109.251,107.514
13:42:52:319,29.369,-0.033,-0.060,-0.080,93.875,-109.801,106.800
13:42:52:345,29.395,-0.026,-0.004,-0.058,93.746,-110.530,106.053
13:42:52:372,29.421,-0.020,0.005,-0.042,93.613,-111.608,105.165
13:42:52:398,29.447,-0.033,-0.031,-0.081,93.596,-112.254,104.951
13:42:52:425,29.474,-0.056,-0.010,-0.094,93.596,-112.834,104.782
13:42:52:45,29.499,-0.008,0.055,-0.066,93.594,-114.124,104.234
13:42:52:476,29.526,-0.033,0.039,-0.132,93.605,-114.965,104.000
13:42:52:503,29.552,-0.062,0.044,-0.145,93.606,-116.375,103.719
13:42:52:53,29.580,-0.081,0.125,-0.060,93.627,-117.904,103.580
13:42:52:556,29.605,-0.079,0.165,-0.048,93.664,-118.651,103.875
13:42:52:582,29.631,-0.113,0.150,-0.030,93.671,-119.466,104.653
13:42:52:608,29.657,-0.130,0.067,-0.125,93.544,-120.377,104.661
13:42:52:634,29.683,-0.133,-0.014,-0.090,93.150,-123.080,103.182
13:42:52:66,29.710,-0.037,-0.056,-0.067,92.734,-126.060,101.129
13:42:52:687,29.736,-0.071,-0.140,-0.130,92.592,-127.335,100.547
13:42:52:714,29.764,-0.110,-0.169,-0.173,92.599,-128.680,100.507
13:42:52:739,29.789,-0.085,-0.079,-0.106,92.643,-129.550,100.461
13:42:52:766,29.815,-0.081,-0.022,-0.055,92.690,-130.936,100.343
13:42:52:792,29.841,-0.110,-0.008,-0.142,92.698,-131.942,100.439
13:42:52:818,29.868,-0.138,0.000,-0.179,92.627,-132.691,100.290
13:42:52:845,29.895,-0.105,0.003,-0.105,92.434,-134.038,99.473
13:42:52:87,29.920,-0.048,0.019,-0.052,92.287,-134.868,98.823
13:42:52:926,29.975,-0.067,-0.001,-0.090,92.094,-135.713,98.130
13:42:52:927,29.976,-0.103,-0.039,-0.108,91.995,-136.037,97.817
13:42:52:95,29.999,-0.084,-0.059,-0.061,91.985,-136.018,97.720
13:42:52:975,30.025,-0.028,0.003,0.014,92.019,-135.803,97.724
13:42:53:002,30.051,-0.041,-0.011,-0.044,92.099,-135.365,98.041
13:42:53:057,30.106,-0.064,-0.033,-0.050,92.271,-134.428,98.802
13:42:53:058,30.107,-0.036,-0.040,0.011,92.384,-133.804,99.241
13:42:53:081,30.131,-0.023,-0.031,0.039,92.493,-133.006,99.648
13:42:53:107,30.156,-0.003,-0.030,0.042,92.574,-132.169,100.067
13:42:53:191,30.240,-0.015,-0.066,-0.021,92.634,-131.502,100.451
13:42:53:192,30.241,-0.015,-0.040,0.009,92.699,-130.596,100.807
13:42:53:193,30.242,0.035,-0.027,0.052,92.782,-129.586,101.070
13:42:53:27,30.319,0.063,-0.033,0.028,92.884,-128.555,101.532
13:42:53:27,30.320,0.047,-0.059,-0.010,93.097,-126.677,102.581
13:42:53:271,30.321,0.032,-0.052,-0.005,93.240,-125.304,103.257
13:42:53:29,30.340,0.018,-0.096,0.052,93.481,-123.113,104.308
13:42:53:317,30.366,-0.014,-0.185,0.103,93.669,-121.333,105.274
13:42:53:343,30.392,-0.029,-0.251,0.138,93.955,-118.106,107.342
13:42:53:371,30.420,-0.065,-0.314,0.171,94.194,-114.107,110.717
13:42:53:396,30.445,-0.069,-0.329,-0.104,94.206,-110.851,113.932
13:42:53:423,30.472,-0.118,-0.304,-0.119,93.956,-103.779,121.911
13:42:53:448,30.498,-0.107,-0.323,0.019,93.631,-92.849,133.845
13:42:53:474,30.523,-0.083,-0.307,-0.142,92.837,-27.542,-158.788
13:42:53:504,30.553,-0.268,-0.118,-0.308,91.508,24.389,-104.175
13:42:53:504,30.553,-0.294,-0.072,-0.266,90.476,33.212,-93.258
13:42:53:527,30.576,-0.129,-0.009,-0.250,88.580,40.235,-82.902
13:42:53:581,30.630,-0.095,0.144,-0.349,86.885,43.530,-77.000
13:42:53:634,30.684,-0.179,0.284,-0.344,84.149,47.532,-69.106
13:42:53:635,30.684,-0.135,0.073,-0.095,81.394,51.003,-61.905
13:42:53:661,30.711,-0.136,-0.031,-0.037,79.368,52.564,-58.090
13:42:53:662,30.711,-0.146,0.196,-0.240,75.850,53.737,-53.352
13:42:53:71,30.760,-0.108,0.138,-0.141,73.591,54.691,-50.358
13:42:53:739,30.789,-0.062,-0.024,-0.031,70.512,55.977,-46.498
13:42:53:74,30.790,-0.097,-0.094,-0.041,67.319,56.530,-43.375
13:42:53:764,30.813,-0.155,-0.032,-0.157,65.014,56.654,-41.273
13:42:53:789,30.838,-0.188,-0.068,-0.099,61.361,56.812,-38.233
13:42:53:844,30.894,-0.163,-0.125,-0.040,58.633,55.886,-36.834
13:42:53:845,30.895,-0.152,0.025,-0.223,53.941,53.514,-35.517
13:42:53:897,30.946,-0.120,0.174,-0.250,49.691,51.876,-33.202
13:42:53:897,30.947,-0.101,0.032,-0.014,47.230,51.059,-31.671
13:42:53:92,30.970,-0.130,-0.028,-0.052,42.725,47.218,-31.348
13:42:53:977,31.026,-0.098,-0.006,-0.183,39.092,43.526,-31.907
13:42:53:978,31.027,-0.071,-0.019,-0.199,33.024,37.761,-32.530
13:42:53:999,31.049,0.006,0.010,-0.206,26.620,32.237,-31.967
13:42:54:055,31.104,0.043,0.085,-0.227,22.560,28.836,-30.832
13:42:54:055,31.105,0.046,0.196,-0.209,17.572,24.435,-28.067
13:42:54:132,31.181,0.007,0.227,-0.206,15.318,22.160,-25.733
13:42:54:163,31.212,-0.076,0.318,-0.228,13.335,19.273,-21.726
13:42:54:163,31.213,-0.185,0.537,-0.280,12.438,17.327,-18.796
13:42:54:164,31.214,-0.101,0.599,-0.269,11.217,13.486,-14.154
13:42:54:183,31.232,0.097,0.240,-0.146,10.369,8.350,-10.129
13:42:54:297,31.346,0.193,-0.055,-0.062,9.978,4.584,-8.456
13:42:54:298,31.347,0.287,-0.169,-0.042,9.349,-0.338,-7.373
13:42:54:298,31.347,0.214,-0.123,-0.136,8.978,-2.912,-7.318
13:42:54:299,31.348,0.166,-0.028,-0.204,8.500,-4.806,-7.827
13:42:54:314,31.364,0.103,0.016,-0.200,8.145,-6.291,-8.730
13:42:54:369,31.419,0.084,-0.003,-0.207,7.907,-7.607,-9.378
13:42:54:37,31.420,0.193,-0.041,-0.158,7.367,-10.590,-10.186
13:42:54:424,31.473,0.254,-0.081,-0.091,6.862,-12.931,-10.516
13:42:54:424,31.473,0.273,-0.095,-0.052,6.053,-16.225,-10.661
13:42:54:446,31.495,0.219,-0.125,0.014,5.334,-18.189,-10.561
13:42:54:472,31.521,0.173,-0.130,0.034,4.886,-18.806,-10.384
13:42:54:498,31.548,0.188,-0.103,0.074,4.099,-19.117,-10.070
13:42:54:553,31.603,0.203,-0.037,0.078,3.477,-18.970,-9.781
13:42:54:554,31.603,0.189,-0.010,0.094,2.543,-18.224,-9.244
13:42:54:576,31.626,0.164,-0.020,0.084,1.756,-17.027,-8.767
13:42:54:605,31.654,0.139,-0.015,0.111,1.246,-16.188,-8.527
13:42:54:63,31.680,0.131,-0.038,0.163,0.411,-15.134,-8.205
13:42:54:684,31.734,0.123,-0.083,0.178,-0.083,-14.385,-7.959
13:42:54:685,31.735,0.106,-0.142,0.147,-0.599,-12.869,-7.661
13:42:54:709,31.759,0.062,-0.019,0.166,-0.932,-11.179,-7.262
13:42:54:765,31.814,0.189,0.030,0.129,-1.027,-10.367,-6.974
13:42:54:765,31.815,0.329,0.100,0.035,-0.970,-9.188,-6.633
13:42:54:787,31.836,0.235,0.312,-0.074,-0.811,-8.063,-6.302
13:42:54:813,31.862,0.208,0.409,-0.141,-0.255,-6.039,-5.743
13:42:54:897,31.947,0.204,0.533,-0.215,0.642,-3.837,-5.120
13:42:54:898,31.948,0.192,0.300,-0.238,1.426,-2.142,-4.676
13:42:54:899,31.948,0.089,-0.114,-0.250,2.651,0.820,-4.352
13:42:54:948,31.998,0.045,-0.252,-0.232,3.249,2.934,-4.593
13:42:54:949,31.998,0.067,-0.290,-0.217,3.662,6.152,-5.632
13:42:54:97,32.020,0.146,-0.168,-0.324,3.754,8.371,-6.562
13:42:55:026,32.075,0.062,-0.065,-0.413,3.909,12.195,-8.040
13:42:55:027,32.076,-0.014,0.079,-0.457,4.341,16.394,-9.384
13:42:55:05,32.099,0.031,0.051,-0.466,4.699,18.903,-10.132
13:42:55:075,32.125,-0.069,0.023,-0.469,5.521,22.667,-11.006
13:42:55:161,32.211,-0.149,-0.021,-0.449,6.166,25.110,-11.472
13:42:55:161,32.211,-0.112,-0.089,-0.369,6.966,28.128,-12.277
13:42:55:162,32.211,-0.062,-0.124,-0.317,7.397,30.266,-13.308
13:42:55:182,32.231,-0.069,-0.081,-0.344,7.558,31.472,-14.115
13:42:55:208,32.257,-0.151,0.014,-0.370,7.785,33.548,-15.279
13:42:55:32,32.370,-0.153,-0.031,-0.298,8.063,35.784,-16.244
13:42:55:321,32.370,-0.143,-0.046,-0.247,8.232,37.435,-16.817
13:42:55:322,32.371,-0.110,-0.037,-0.225,8.434,39.945,-17.659
13:42:55:322,32.372,-0.107,-0.035,-0.213,8.665,41.751,-18.188
13:42:55:338,32.387,-0.143,-0.036,-0.197,9.265,44.656,-18.843
13:42:55:394,32.443,-0.191,-0.017,-0.100,10.603,49.666,-19.496
13:42:55:418,32.467,-0.215,0.015,-0.057,11.334,52.102,-19.730
13:42:55:444,32.493,-0.224,0.027,-0.022,11.759,53.400,-19.856
13:42:55:469,32.519,-0.225,0.058,-0.001,12.288,54.715,-19.950
13:42:55:525,32.575,-0.261,0.164,0.018,12.518,55.216,-19.898
13:42:55:525,32.575,-0.267,0.246,0.035,12.593,55.194,-19.415
13:42:55:548,32.597,-0.232,0.210,0.028,12.410,54.299,-18.386
13:42:55:574,32.623,-0.159,0.103,0.018,12.162,52.892,-17.420
13:42:55:6,32.650,-0.026,-0.153,0.007,11.782,50.883,-15.899
13:42:55:656,32.705,0.025,-0.282,-0.013,11.588,48.990,-15.035
13:42:55:656,32.706,0.006,-0.282,-0.048,11.448,47.572,-14.018
13:42:55:68,32.729,-0.108,-0.096,-0.088,11.560,46.404,-13.056
13:42:55:766,32.815,-0.188,-0.004,-0.099,11.766,46.084,-12.421
13:42:55:766,32.815,-0.171,0.038,-0.125,12.043,45.047,-11.470
13:42:55:766,32.815,-0.089,0.012,-0.153,12.078,43.975,-10.791
13:42:55:787,32.836,-0.040,-0.046,-0.161,11.896,41.975,-9.655
13:42:55:787,32.837,0.123,-0.050,-0.187,11.461,39.949,-8.544
13:42:55:927,32.976,0.137,-0.095,-0.155,11.098,38.491,-7.926
13:42:55:927,32.976,0.133,-0.068,-0.181,10.606,37.661,-6.841
13:42:55:927,32.977,0.181,0.007,-0.243,10.191,37.366,-5.921
13:42:55:928,32.977,0.171,-0.004,-0.221,9.661,38.341,-4.380
13:42:55:974,33.023,0.113,-0.054,-0.169,9.238,40.139,-2.826
13:42:55:975,33.024,0.129,-0.064,-0.149,8.858,41.167,-1.941
13:42:55:975,33.024,0.156,-0.074,-0.149,8.104,42.129,-0.938
13:42:56:052,33.101,0.201,-0.093,-0.150,7.570,42.476,-0.896
13:42:56:053,33.102,0.249,-0.137,-0.161,6.717,42.940,-0.428
13:42:56:054,33.103,0.291,-0.133,-0.154,5.824,43.604,-0.118
13:42:56:1,33.150,0.301,-0.083,-0.169,5.233,44.186,0.061
13:42:56:186,33.236,0.306,0.036,-0.193,4.456,45.216,0.308
13:42:56:187,33.236,0.248,0.129,-0.218,4.057,46.122,0.429
13:42:56:188,33.237,0.247,0.210,-0.222,3.634,47.346,0.495
13:42:56:318,33.368,0.169,0.342,-0.262,3.506,49.337,0.171
13:42:56:319,33.369,0.133,0.336,-0.275,3.816,50.420,-0.277
13:42:56:32,33.369,0.091,0.117,-0.262,4.161,51.141,-0.738
13:42:56:321,33.370,0.035,-0.164,-0.225,4.683,52.382,-1.912
13:42:56:367,33.417,0.019,-0.220,-0.226,4.912,53.390,-3.042
13:42:56:368,33.418,-0.023,-0.150,-0.247,5.056,55.360,-4.974
13:42:56:388,33.437,-0.265,0.046,-0.191,5.720,60.833,-8.019
13:42:56:443,33.493,-0.305,0.100,-0.195,6.624,64.855,-9.133
13:42:56:444,33.494,-0.225,0.114,-0.293,7.148,66.804,-9.747
13:42:56:496,33.545,-0.234,0.032,-0.228,8.168,69.759,-10.456
13:42:56:496,33.546,-0.267,-0.092,-0.145,9.235,72.598,-11.105
13:42:56:519,33.569,-0.297,-0.087,-0.149,9.838,74.207,-11.702
13:42:56:576,33.626,-0.278,-0.099,-0.113,10.662,76.445,-12.680
13:42:56:576,33.626,-0.270,-0.101,-0.097,11.177,77.769,-13.409
13:42:56:628,33.677,-0.256,-0.090,-0.097,11.827,79.455,-14.512
13:42:56:628,33.678,-0.266,-0.075,-0.089,12.405,80.947,-15.486
13:42:56:651,33.700,-0.261,-0.070,-0.068,12.807,81.949,-16.003
13:42:56:677,33.726,-0.238,-0.066,-0.019,11.945,83.404,-16.676
13:42:56:869,33.918,-0.225,-0.075,0.007,12.313,84.281,-17.033
13:42:56:87,33.919,-0.211,-0.077,0.025,12.714,85.345,-17.534
13:42:56:87,33.920,-0.177,-0.043,0.032,12.957,86.194,-17.984
13:42:56:898,33.947,-0.182,-0.021,0.069,13.076,86.731,-18.209
13:42:56:898,33.947,-0.174,-0.015,0.098,13.163,88.121,-18.431
13:42:56:898,33.948,-0.171,0.051,0.110,13.084,88.382,-18.509
13:42:56:898,33.948,-0.171,0.168,0.125,12.771,89.056,-18.285
13:42:56:945,33.994,-0.205,0.285,0.155,12.235,88.745,-17.370
13:42:56:945,33.995,-0.183,0.324,0.136,11.710,88.415,-16.301
13:42:56:946,33.996,-0.044,0.157,0.038,10.725,86.914,-14.209
13:42:56:965,34.015,0.030,-0.007,-0.006,10.134,86.151,-12.800
13:42:56:991,34.041,0.114,-0.308,-0.047,9.421,84.520,-11.243
13:42:57:077,34.126,0.106,-0.292,-0.077,8.887,83.703,-10.346
13:42:57:077,34.127,0.058,-0.176,-0.068,8.678,83.049,-9.890
13:42:57:078,34.128,-0.035,0.053,-0.038,8.604,81.996,-9.270
13:42:57:097,34.147,-0.103,0.205,-0.032,8.614,80.860,-8.771
13:42:57:123,34.172,-0.082,0.124,-0.066,8.567,78.563,-7.829
13:42:57:149,34.199,-0.021,-0.062,-0.144,8.434,75.380,-6.938
13:42:57:204,34.254,0.049,-0.159,-0.208,8.221,73.618,-6.438
13:42:57:205,34.255,0.086,-0.132,-0.259,7.714,71.067,-5.853
13:42:57:281,34.330,0.081,-0.082,-0.293,7.404,70.257,-5.434
13:42:57:369,34.418,0.045,-0.066,-0.227,7.151,70.160,-4.719
13:42:57:369,34.419,0.018,-0.057,-0.191,6.892,70.501,-3.959
13:42:57:37,34.419,0.044,-0.065,-0.187,6.641,70.414,-3.441
13:42:57:371,34.420,0.076,-0.079,-0.212,6.164,70.101,-2.754
13:42:57:389,34.439,0.118,-0.104,-0.230,5.794,69.494,-2.350
13:42:57:389,34.439,0.151,-0.125,-0.250,5.145,68.859,-1.828
13:42:57:5,34.549,0.185,-0.124,-0.246,4.638,68.502,-1.524
13:42:57:5,34.549,0.216,-0.060,-0.266,3.816,68.525,-1.084
13:42:57:5,34.550,0.249,0.048,-0.283,2.968,68.837,-0.622
13:42:57:501,34.551,0.228,0.102,-0.283,2.478,69.305,-0.320
13:42:57:546,34.595,0.200,0.194,-0.273,1.880,70.475,0.095
13:42:57:547,34.596,0.186,0.321,-0.283,1.530,71.062,0.343
13:42:57:658,34.707,0.170,0.312,-0.295,1.197,71.887,0.661
13:42:57:659,34.708,0.152,0.286,-0.301,1.101,72.664,0.851
13:42:57:659,34.709,0.142,0.120,-0.297,1.167,73.266,0.815
13:42:57:675,34.725,0.064,-0.230,-0.225,1.604,75.221,-0.404
13:42:57:73,34.779,0.033,-0.212,-0.273,1.728,76.584,-1.963
13:42:57:73,34.780,-0.039,-0.103,-0.279,1.842,78.711,-3.640
13:42:57:811,34.861,-0.084,-0.004,-0.211,2.258,80.932,-4.638
13:42:57:812,34.862,-0.247,0.166,-0.218,3.125,84.277,-6.205
13:42:57:861,34.910,-0.291,0.163,-0.164,4.914,89.815,-7.812
13:42:57:861,34.911,-0.248,-0.050,-0.017,6.374,93.489,-8.735
13:42:57:884,34.934,-0.211,-0.099,0.011,7.208,95.419,-9.575
13:42:57:911,34.960,-0.216,-0.073,-0.029,8.124,97.607,-11.185
13:42:57:936,34.986,-0.275,-0.030,-0.022,8.664,98.760,-12.368
13:42:57:963,35.013,-0.276,-0.017,0.009,9.511,100.417,-14.132
13:42:57:992,35.041,-0.272,-0.025,0.046,10.396,101.819,-15.677
13:42:57:993,35.042,-0.236,-0.039,0.049,10.476,102.741,-16.571
13:42:58:016,35.066,-0.211,-0.081,0.076,11.218,103.834,-17.696
13:42:58:042,35.091,-0.192,-0.106,0.087,11.623,104.488,-18.346
13:42:58:098,35.147,-0.139,-0.104,0.073,12.012,105.073,-19.217
13:42:58:098,35.147,-0.096,-0.063,0.082,12.294,105.531,-20.038
13:42:58:208,35.257,-0.109,-0.057,0.106,12.537,106.090,-20.539
13:42:58:208,35.258,-0.085,-0.042,0.116,12.843,106.816,-21.096
13:42:58:226,35.275,-0.027,0.027,0.060,12.556,107.667,-20.821
13:42:58:252,35.301,-0.032,0.149,0.095,12.402,107.713,-20.212
13:42:58:307,35.357,-0.073,0.307,0.191,12.178,107.701,-18.813
13:42:58:335,35.384,-0.083,0.355,0.220,11.976,107.230,-17.604
13:42:58:335,35.384,-0.032,0.201,0.121,11.470,105.865,-15.536
13:42:58:357,35.406,0.048,-0.152,-0.050,11.031,104.310,-14.198
13:42:58:383,35.432,0.068,-0.312,-0.088,10.347,101.833,-12.704
13:42:58:409,35.459,0.042,-0.292,-0.137,9.598,99.134,-11.909
13:42:58:435,35.485,-0.042,-0.092,-0.136,9.232,98.232,-11.442
13:42:58:462,35.511,-0.081,-0.018,-0.111,9.151,97.387,-10.736
13:42:58:488,35.537,-0.148,0.142,-0.049,9.258,97.236,-10.152
13:42:58:514,35.563,-0.141,0.144,-0.030,9.325,96.399,-8.900
13:42:58:54,35.590,-0.061,0.019,-0.143,9.167,94.214,-7.487
13:42:58:568,35.618,0.019,-0.096,-0.264,8.856,91.983,-6.684
13:42:58:594,35.644,0.086,-0.189,-0.288,8.239,89.080,-5.665
13:42:58:619,35.669,0.074,-0.143,-0.357,7.737,87.344,-4.926
13:42:58:645,35.695,0.044,-0.066,-0.416,7.029,86.778,-3.745
13:42:58:701,35.750,0.016,-0.045,-0.352,6.593,87.997,-2.438
13:42:58:702,35.751,0.019,-0.038,-0.341,6.297,89.239,-1.574
13:42:58:753,35.803,0.049,-0.055,-0.307,5.787,91.092,-0.423
13:42:58:754,35.803,0.074,-0.090,-0.276,5.446,92.094,0.162
13:42:58:777,35.826,0.073,-0.106,-0.281,4.928,93.063,0.663
13:42:58:803,35.852,0.084,-0.098,-0.309,4.555,93.320,0.197
13:42:58:943,35.993,0.073,-0.108,-0.333,4.183,93.480,0.074
13:42:58:944,35.994,0.099,-0.068,-0.371,3.594,93.807,-0.266
13:42:58:945,35.995,0.104,-0.011,-0.395,3.173,94.244,-0.522
13:42:58:946,35.995,0.099,0.026,-0.402,2.588,95.449,-0.815
13:42:58:963,36.012,0.041,0.086,-0.370,2.132,97.213,-0.992
13:42:58:964,36.013,0.033,0.174,-0.366,1.876,98.558,-1.039
13:42:59:013,36.063,-0.019,0.251,-0.336,1.651,100.773,-0.988
13:42:59:042,36.091,-0.053,0.279,-0.286,1.655,102.335,-0.903
13:42:59:043,36.092,-0.069,0.267,-0.274,1.753,104.480,-0.787
13:42:59:096,36.145,-0.082,0.009,-0.239,2.017,106.423,-0.958
13:42:59:096,36.145,-0.117,-0.156,-0.193,2.202,107.713,-1.416
13:42:59:205,36.254,-0.141,-0.206,-0.169,2.361,109.829,-2.705
13:42:59:206,36.255,-0.174,-0.120,-0.123,2.389,111.661,-3.787
13:42:59:206,36.256,-0.211,-0.018,-0.044,2.603,115.132,-5.609
13:42:59:207,36.257,-0.333,0.192,0.081,3.078,119.100,-7.308
13:42:59:224,36.274,-0.327,0.303,0.162,3.410,121.613,-8.227
13:42:59:278,36.328,-0.284,0.154,0.123,4.071,124.984,-9.085
13:42:59:279,36.329,-0.165,-0.088,0.173,4.648,127.115,-9.574
13:42:59:302,36.351,-0.133,-0.169,0.157,5.435,129.805,-10.411
13:42:59:328,36.377,-0.194,-0.194,0.077,5.812,131.544,-11.498
13:42:59:354,36.403,-0.234,-0.129,0.036,5.951,132.463,-12.222
13:42:59:41,36.460,-0.252,-0.068,0.054,6.250,134.054,-13.046
13:42:59:41,36.460,-0.228,-0.029,0.076,6.576,135.380,-13.347
13:42:59:433,36.483,-0.175,0.006,0.096,7.129,137.533,-13.471
13:42:59:459,36.508,-0.126,-0.009,0.105,7.494,138.976,-13.444
13:42:59:485,36.535,-0.089,-0.021,0.131,7.979,141.000,-13.478
13:42:59:54,36.590,-0.031,-0.008,0.138,8.241,143.178,-13.803
13:42:59:541,36.591,-0.007,-0.012,0.159,8.325,143.970,-14.173
13:42:59:564,36.614,0.018,0.009,0.165,8.297,144.997,-14.785
13:42:59:59,36.639,0.065,0.054,0.193,8.140,145.266,-15.088
13:42:59:616,36.666,0.094,0.025,0.208,7.944,145.789,-15.333
13:42:59:672,36.721,0.099,0.017,0.181,7.682,145.576,-15.226
13:42:59:672,36.722,0.083,0.176,0.168,7.389,145.509,-14.777
13:42:59:724,36.773,0.058,0.248,0.167,6.926,144.547,-13.485
13:42:59:751,36.800,0.064,0.210,0.151,6.741,143.968,-12.258
13:42:59:752,36.801,0.032,0.033,0.029,6.404,142.576,-10.105
13:42:59:889,36.939,0.018,-0.253,-0.099,6.029,141.301,-7.995
13:42:59:89,36.940,0.000,-0.304,-0.111,5.745,140.505,-6.757
13:42:59:891,36.940,-0.046,-0.099,-0.113,5.231,140.130,-5.139
13:42:59:892,36.941,-0.071,0.114,-0.123,4.927,140.002,-4.188
13:42:59:936,36.986,-0.088,0.109,-0.138,4.745,140.100,-2.810
13:42:59:937,36.986,-0.030,0.030,-0.132,4.647,139.921,-1.446
13:42:59:961,37.010,-0.142,-0.038,-0.222,4.477,139.637,-0.576
13:42:59:962,37.011,-0.136,-0.138,-0.371,4.116,138.759,0.603
13:42:59:984,37.034,-0.125,-0.165,-0.353,3.905,138.877,1.263
13:43:00:01,37.060,-0.182,-0.118,-0.436,3.499,139.417,2.056
13:43:00:038,37.088,-0.239,-0.097,-0.496,3.054,140.941,2.706
13:43:00:151,37.200,-0.255,-0.072,-0.505,2.847,142.395,3.097
13:43:00:152,37.201,-0.255,-0.063,-0.481,2.759,145.680,3.517
13:43:00:152,37.202,-0.246,-0.083,-0.506,2.826,147.752,3.570
13:43:00:153,37.203,-0.389,-0.084,-0.564,3.123,150.806,3.130
13:43:00:168,37.217,-0.362,-0.028,-0.536,3.440,152.979,2.383
13:43:00:249,37.298,-0.377,-0.013,-0.503,4.283,157.106,0.701
13:43:00:279,37.329,-0.648,0.150,-0.469,5.623,161.019,-1.929
13:43:00:28,37.330,-0.660,0.400,-0.303,6.870,163.919,-4.123
13:43:00:281,37.331,-0.612,0.496,-0.143,9.577,169.255,-7.844
13:43:00:326,37.375,-0.545,0.640,0.033,13.346,174.770,-12.011
13:43:00:353,37.402,-0.357,0.750,0.159,16.585,178.540,-15.078
13:43:00:383,37.432,-0.226,0.673,0.378,22.499,-176.004,-19.832
13:43:00:384,37.433,-0.217,0.687,0.514,27.171,-172.432,-22.952
13:43:00:437,37.486,0.081,0.588,0.556,35.516,-165.921,-26.805
13:43:00:438,37.487,0.417,0.113,0.328,41.749,-161.279,-28.932
13:43:00:438,37.488,0.339,-0.013,0.424,50.715,-156.042,-32.616
13:43:00:487,37.536,0.398,-0.037,0.501,59.257,-150.499,-35.736
13:43:00:487,37.536,0.513,-0.243,0.143,64.597,-146.007,-36.822
13:43:00:51,37.559,0.367,-0.286,0.148,71.310,-141.209,-39.196
13:43:00:535,37.585,0.263,-0.159,0.352,74.955,-139.164,-41.175
13:43:00:562,37.611,0.285,-0.248,0.218,79.625,-135.562,-43.018
13:43:00:646,37.695,0.146,-0.330,0.027,83.386,-132.602,-44.702
13:43:00:647,37.696,0.144,-0.276,0.041,85.367,-131.999,-46.799
13:43:00:648,37.697,0.187,-0.264,0.045,87.921,-133.327,-51.928
13:43:00:668,37.717,0.129,-0.332,-0.046,89.370,-140.283,-61.392
13:43:00:72,37.769,0.097,-0.319,-0.060,91.105,65.975,141.375
13:43:00:746,37.796,0.054,-0.284,-0.033,92.404,58.428,130.755
13:43:00:776,37.825,0.060,-0.214,-0.039,93.057,57.197,127.697
13:43:00:777,37.826,0.054,-0.190,-0.041,93.781,56.752,124.683
13:43:00:798,37.847,0.020,-0.178,-0.073,94.148,56.939,123.313
13:43:00:826,37.875,-0.007,-0.173,-0.070,94.503,57.025,121.377
13:43:00:88,37.929,-0.008,-0.118,-0.122,94.623,56.039,118.639
13:43:00:88,37.929,-0.009,-0.120,-0.124,94.615,55.255,116.849
13:43:00:903,37.952,-0.029,-0.106,-0.105,94.485,54.081,114.413
13:43:00:93,37.980,-0.023,-0.074,-0.124,94.266,52.609,112.211
13:43:00:955,38.005,-0.030,-0.018,-0.165,93.798,49.176,107.883
13:43:00:981,38.031,-0.016,0.027,-0.127,93.539,47.545,105.725
13:43:01:008,38.057,-0.019,0.019,-0.093,93.436,46.952,104.917
13:43:01:122,38.171,-0.027,0.026,-0.121,93.202,45.140,102.986
13:43:01:122,38.172,-0.028,0.067,-0.137,93.096,44.029,102.035
13:43:01:123,38.173,-0.003,0.094,-0.114,92.970,42.665,101.176
13:43:01:124,38.174,0.005,0.095,-0.141,92.851,40.955,100.718
13:43:01:139,38.188,0.009,0.097,-0.195,92.594,39.564,99.813
13:43:01:165,38.215,0.045,0.010,-0.075,92.275,37.353,98.765
13:43:01:223,38.272,0.045,-0.091,-0.031,92.073,36.253,97.958
13:43:01:223,38.272,0.057,-0.116,-0.044,91.774,33.790,96.546
13:43:01:245,38.294,0.042,-0.149,-0.054,91.603,32.610,95.722
13:43:01:299,38.349,0.036,-0.161,-0.042,91.548,30.715,95.368
13:43:01:3,38.350,0.061,-0.113,-0.034,91.645,29.984,95.689
13:43:01:323,38.372,0.045,-0.049,-0.104,91.786,29.159,96.198
13:43:01:35,38.399,0.056,-0.029,-0.100,91.974,28.905,97.075
13:43:01:375,38.425,0.049,-0.009,-0.111,92.001,28.136,97.367
13:43:01:402,38.451,0.043,0.002,-0.128,91.938,27.528,97.289
13:43:01:428,38.478,-0.021,-0.039,-0.074,91.782,26.245,96.700
13:43:01:454,38.504,-0.030,-0.041,-0.057,91.811,26.243,96.843
13:43:01:48,38.530,0.020,-0.026,-0.128,91.971,26.174,97.431
13:43:01:508,38.558,0.035,-0.020,-0.138,92.223,27.045,98.418
13:43:01:562,38.611,0.007,-0.048,-0.111,92.769,28.821,100.692
13:43:01:563,38.612,0.009,-0.028,-0.142,93.385,31.187,103.209
13:43:01:585,38.635,-0.016,-0.027,-0.160,93.768,32.895,104.722
13:43:01:612,38.661,-0.050,-0.028,-0.190,94.268,35.346,106.678
13:43:01:697,38.746,-0.057,-0.067,-0.143,94.570,37.067,107.913
13:43:01:697,38.746,-0.050,-0.040,-0.124,95.025,39.385,109.468
13:43:01:698,38.747,-0.044,-0.006,-0.159,95.537,41.734,110.719
13:43:01:747,38.797,-0.050,0.005,-0.161,95.956,43.528,111.944
13:43:01:747,38.797,-0.033,0.038,-0.100,96.677,47.113,114.458
13:43:01:858,38.907,-0.027,0.089,-0.127,97.223,49.549,116.261
13:43:01:858,38.908,-0.019,0.133,-0.137,98.103,54.029,119.792
13:43:01:858,38.908,-0.029,0.154,-0.050,98.878,59.026,123.830
13:43:01:859,38.909,-0.028,0.153,-0.084,99.303,61.876,126.018
13:43:01:932,38.982,-0.049,0.076,-0.034,99.599,65.268,128.131
13:43:01:933,38.983,-0.020,-0.023,0.015,99.604,66.806,128.584
13:43:01:954,39.003,0.023,-0.103,0.070,99.598,69.064,128.059
13:43:02:009,39.058,0.022,-0.132,0.072,99.772,70.546,128.115
13:43:02:009,39.058,-0.002,-0.089,0.043,99.926,71.944,128.241
13:43:02:061,39.110,0.011,-0.046,0.038,99.921,72.897,128.457
13:43:02:062,39.111,0.062,-0.032,0.064,99.800,74.603,129.253
13:43:02:085,39.134,0.023,-0.040,-0.030,99.566,75.721,129.477
13:43:02:111,39.160,0.009,-0.038,-0.070,99.317,76.125,129.186
13:43:02:137,39.186,-0.003,-0.090,-0.061,98.818,76.222,128.222
13:43:02:193,39.242,0.003,-0.083,-0.032,98.430,75.892,127.222
13:43:02:194,39.243,-0.007,-0.076,-0.072,97.757,74.605,125.045
13:43:02:215,39.265,-0.029,-0.101,-0.087,97.082,73.377,123.147
13:43:02:242,39.291,-0.005,-0.103,-0.086,96.578,72.353,121.779
13:43:02:33,39.379,-0.007,-0.075,-0.149,95.738,69.443,118.698
13:43:02:33,39.379,0.007,-0.131,-0.153,95.151,67.240,116.442
13:43:02:33,39.380,-0.001,-0.200,-0.142,94.232,63.355,112.759
13:43:02:331,39.381,0.012,-0.258,-0.132,93.508,59.696,109.433
13:43:02:408,39.457,0.048,-0.240,-0.167,92.038,51.131,101.877
13:43:02:408,39.458,0.096,-0.243,-0.229,90.274,39.703,91.733
13:43:02:408,39.458,0.180,-0.308,-0.195,89.058,30.016,83.349
13:43:02:454,39.504,0.199,-0.366,-0.208,87.314,10.296,66.000
13:43:02:455,39.505,0.213,-0.408,-0.262,86.120,-12.128,45.849
13:43:02:507,39.556,0.388,-0.281,-0.136,83.778,-71.545,-8.971
13:43:02:508,39.557,0.493,-0.085,0.062,80.454,-103.591,-35.390
13:43:02:558,39.607,0.456,-0.081,0.095,77.896,-111.376,-39.248
13:43:02:586,39.635,0.424,-0.227,-0.079,73.352,-118.420,-39.881
13:43:02:586,39.636,0.482,-0.027,0.194,69.646,-123.096,-39.746
13:43:02:639,39.688,0.436,0.130,0.373,63.422,-129.217,-38.112
13:43:02:639,39.688,0.356,-0.039,0.140,57.145,-133.224,-34.121
13:43:02:662,39.711,0.354,-0.087,0.020,52.464,-136.575,-31.538
13:43:02:688,39.738,0.226,0.481,0.502,44.424,-144.044,-28.385
13:43:02:715,39.764,0.255,0.252,0.171,39.680,-148.593,-25.726
13:43:02:772,39.821,0.384,0.047,0.140,33.236,-155.695,-21.958
13:43:02:772,39.821,0.232,0.126,0.379,25.129,-167.488,-20.417
13:43:02:793,39.842,-0.134,0.267,0.484,18.972,-177.411,-19.655
13:43:02:848,39.897,-0.482,0.393,0.197,10.784,167.482,-16.870
13:43:02:849,39.898,-0.529,0.476,-0.047,7.085,158.540,-13.575
13:43:02:9,39.949,-0.614,0.518,-0.295,4.794,148.577,-7.441
13:43:02:929,39.978,-0.507,0.147,-0.221,5.507,143.603,-1.152
13:43:02:929,39.979,-0.413,0.058,-0.221,6.172,141.990,2.433
13:43:02:95,40.000,-0.286,0.115,-0.458,6.371,139.258,6.674
13:43:02:977,40.026,-0.433,-0.051,-0.450,6.398,137.108,8.538
13:43:03:003,40.052,-0.439,-0.134,-0.534,6.345,133.522,10.090
13:43:03:03,40.079,-0.453,-0.196,-0.549,6.050,130.402,11.072
13:43:03:055,40.105,-0.465,-0.244,-0.659,5.763,128.712,11.485
13:43:03:082,40.131,-0.394,-0.206,-0.639,5.087,127.350,11.968
13:43:03:109,40.158,-0.379,-0.150,-0.603,4.569,126.926,12.326
13:43:03:164,40.213,-0.519,0.101,-0.727,3.712,126.187,12.929
13:43:03:164,40.214,-0.601,0.274,-0.700,3.073,126.134,13.276
13:43:03:187,40.236,-0.534,0.284,-0.601,2.000,127.445,13.438
13:43:03:213,40.263,-0.330,0.017,-0.374,0.788,129.687,12.449
13:43:03:239,40.289,-0.249,-0.133,-0.290,-0.082,131.070,10.949
13:43:03:293,40.343,-0.267,-0.249,-0.316,-1.682,132.722,7.703
13:43:03:321,40.370,-0.300,-0.101,-0.346,-2.975,134.081,5.062
13:43:03:321,40.371,-0.307,0.053,-0.254,-4.712,137.533,0.393
13:43:03:344,40.393,-0.506,0.255,-0.347,-5.603,142.738,-4.765
13:43:03:429,40.478,-0.456,0.538,-0.021,-5.466,148.573,-8.152
13:43:03:43,40.479,0.416,0.283,0.545,-2.848,161.876,-11.479
13:43:03:43,40.480,0.507,0.055,0.467,-0.234,169.945,-12.687
13:43:03:449,40.499,0.184,0.029,0.266,2.697,177.166,-14.242
13:43:03:505,40.554,-0.035,0.112,0.247,5.228,-179.435,-16.681
13:43:03:506,40.555,0.155,0.005,0.184,7.077,-177.422,-18.335
13:43:03:528,40.577,0.246,-0.139,0.061,9.723,-175.804,-20.496
13:43:03:554,40.604,0.142,-0.096,0.025,10.646,-176.462,-22.274
13:43:03:58,40.630,0.079,-0.058,0.062,10.902,-179.087,-25.196
13:43:03:608,40.658,0.020,-0.054,0.090,10.658,178.358,-27.983
13:43:03:633,40.683,0.068,-0.121,0.125,10.758,177.393,-29.549
13:43:03:69,40.739,0.112,-0.179,0.130,11.424,177.130,-31.375
13:43:03:69,40.740,0.151,-0.157,0.132,12.086,177.582,-32.231
13:43:03:712,40.761,0.214,-0.119,0.123,13.370,179.049,-32.916
13:43:03:767,40.816,0.284,-0.090,0.128,14.772,-178.978,-32.872
13:43:03:767,40.817,0.300,-0.079,0.125,15.498,-177.664,-32.446
13:43:03:819,40.869,0.331,-0.017,0.139,16.044,-176.018,-31.245
13:43:03:82,40.870,0.382,0.108,0.153,15.934,-175.289,-30.036
13:43:03:844,40.894,0.372,0.197,0.182,15.116,-174.908,-27.552
13:43:03:869,40.918,0.312,0.236,0.119,13.558,-175.637,-24.296
13:43:03:895,40.945,0.168,0.083,0.001,12.209,-176.798,-21.881
13:43:03:922,40.971,0.023,-0.133,-0.084,10.256,-179.246,-18.512
13:43:03:948,40.997,-0.028,-0.268,-0.079,9.145,178.969,-16.755
13:43:03:974,41.024,-0.016,-0.101,-0.036,7.735,176.657,-14.714
13:43:04:002,41.051,-0.005,0.099,0.051,7.081,175.641,-13.410
13:43:04:027,41.077,-0.023,0.159,0.086,6.578,174.532,-11.470
13:43:04:082,41.131,-0.014,0.155,0.131,6.147,172.782,-9.460
13:43:04:083,41.132,-0.239,0.076,-0.042,5.768,170.706,-8.096
13:43:04:106,41.155,-0.297,-0.015,-0.121,4.946,165.351,-6.486
13:43:04:161,41.211,-0.265,-0.127,-0.163,4.366,161.706,-5.777
13:43:04:162,41.211,-0.306,-0.091,-0.194,3.404,156.278,-4.851
13:43:04:184,41.234,-0.393,-0.051,-0.258,2.269,151.558,-3.897
13:43:04:211,41.260,-0.356,-0.035,-0.222,1.970,150.434,-3.160
13:43:04:266,41.315,-0.228,-0.034,-0.132,1.845,151.261,-2.216
13:43:04:267,41.316,-0.169,-0.056,-0.129,1.660,152.029,-1.668
13:43:04:289,41.339,-0.111,-0.072,-0.146,1.118,153.316,-0.959
13:43:04:375,41.424,-0.149,-0.056,-0.202,0.301,153.231,-0.511
13:43:04:376,41.425,-0.171,-0.067,-0.216,-0.314,152.538,-0.350
13:43:04:377,41.426,-0.189,-0.103,-0.260,-1.266,151.665,-0.247
13:43:04:395,41.444,-0.186,-0.136,-0.289,-1.919,151.029,-0.243
13:43:04:421,41.470,-0.180,-0.135,-0.315,-2.941,150.578,-0.302
13:43:04:473,41.523,-0.171,-0.086,-0.365,-4.651,150.725,-0.392
13:43:04:499,41.549,-0.171,-0.098,-0.388,-5.618,151.249,-0.347
13:43:04:526,41.575,-0.166,-0.095,-0.377,-5.314,152.002,-1.452
13:43:04:551,41.601,-0.193,0.046,-0.382,-5.678,153.078,-1.848
13:43:04:579,41.629,-0.211,0.320,-0.393,-6.255,154.695,-1.489
13:43:04:607,41.656,-0.201,0.431,-0.362,-6.330,155.678,-1.121
13:43:04:608,41.657,-0.184,0.390,-0.262,-5.949,157.122,-0.504
13:43:04:715,41.764,-0.168,0.089,-0.153,-5.404,157.635,-0.267
13:43:04:716,41.765,-0.135,-0.003,-0.124,-4.496,158.270,-0.558
13:43:04:717,41.766,-0.128,-0.156,-0.092,-3.731,158.572,-1.889
13:43:04:739,41.788,-0.133,-0.248,-0.075,-3.306,158.889,-3.324
13:43:04:739,41.789,-0.152,-0.220,-0.065,-2.901,159.624,-5.990
13:43:04:818,41.868,-0.193,0.070,-0.007,-2.673,160.826,-7.772
13:43:04:819,41.869,-0.161,0.259,0.019,-1.629,164.327,-10.203
13:43:04:843,41.892,-0.064,0.334,0.034,0.376,168.512,-12.077
13:43:04:844,41.893,-0.055,0.374,0.149,1.937,170.911,-12.929
13:43:04:867,41.916,0.036,0.242,0.242,4.653,174.067,-13.930
13:43:04:923,41.972,0.127,0.125,0.253,6.520,175.714,-14.666
13:43:04:923,41.973,0.155,-0.033,0.191,8.888,176.936,-16.147
13:43:05:028,42.077,0.104,-0.051,0.160,10.107,177.053,-17.435
13:43:05:028,42.077,0.097,-0.049,0.193,11.599,176.910,-19.673
13:43:05:056,42.106,0.082,-0.056,0.198,12.762,176.656,-22.128
13:43:05:056,42.106,0.061,-0.060,0.184,13.413,176.602,-23.715
13:43:05:108,42.158,0.072,-0.079,0.168,14.447,177.071,-25.821
13:43:05:109,42.159,0.091,-0.108,0.160,15.207,177.743,-26.984
13:43:05:11,42.159,0.104,-0.132,0.139,16.413,179.192,-28.303
13:43:05:243,42.293,0.135,-0.168,0.139,17.574,-179.015,-29.061
13:43:05:244,42.294,0.142,-0.195,0.128,18.240,-177.662,-29.316
13:43:05:245,42.295,0.141,-0.233,0.107,18.911,-175.928,-29.413
13:43:05:245,42.295,0.137,-0.228,0.092,19.116,-174.799,-29.315
13:43:05:263,42.313,0.142,-0.200,0.088,18.812,-173.194,-28.586
13:43:05:264,42.314,0.172,-0.141,0.086,18.521,-171.548,-27.814
13:43:05:317,42.366,0.201,-0.087,0.093,18.156,-170.713,-27.105
13:43:05:317,42.367,0.230,-0.023,0.096,17.331,-169.811,-25.723
13:43:05:369,42.418,0.281,0.159,0.139,16.551,-169.585,-24.569
13:43:05:392,42.441,0.257,0.348,0.112,13.097,-171.378,-19.490
13:43:05:447,42.496,0.144,0.277,0.037,11.579,-173.133,-17.396
13:43:05:447,42.497,-0.044,0.038,-0.107,9.361,-176.384,-14.384
13:43:05:471,42.521,-0.159,-0.214,-0.153,8.151,-178.428,-12.670
13:43:05:496,42.546,-0.163,-0.259,-0.143,6.875,179.383,-10.725
13:43:05:523,42.572,-0.141,-0.105,-0.055,6.053,178.411,-9.171
13:43:05:578,42.628,0.121,-0.002,-0.025,5.882,178.026,-8.295
13:43:05:579,42.628,-0.314,0.282,0.000,5.441,174.970,-7.484
13:43:05:631,42.680,-0.486,0.369,-0.072,4.966,171.868,-7.209
13:43:05:632,42.681,-0.096,-0.055,-0.040,5.018,168.443,-5.864
13:43:05:654,42.704,-0.173,-0.143,-0.085,4.805,165.711,-5.115
13:43:05:681,42.730,-0.390,-0.189,-0.270,4.150,162.089,-3.988
13:43:05:707,42.756,-0.343,-0.142,-0.263,3.580,161.216,-2.621
13:43:05:733,42.783,-0.399,-0.082,-0.235,3.145,161.735,-1.760
13:43:05:759,42.809,-0.397,-0.051,-0.228,2.429,163.835,-0.518
13:43:05:871,42.921,-0.373,-0.004,-0.216,1.706,166.868,0.583
13:43:05:872,42.921,-0.357,-0.002,-0.205,1.265,169.091,1.186
13:43:05:872,42.922,-0.320,-0.012,-0.190,0.672,172.168,1.813
13:43:05:893,42.943,-0.301,-0.048,-0.198,0.331,173.971,2.021
13:43:05:894,42.943,-0.279,-0.109,-0.188,-0.104,176.297,1.945
13:43:05:917,42.966,-0.266,-0.138,-0.180,-0.337,177.660,1.607
13:43:05:943,42.992,-0.292,-0.138,-0.156,-0.611,179.508,0.714
13:43:06:11,43.159,-0.314,-0.047,-0.149,-0.804,-178.658,-0.413
13:43:06:11,43.159,-0.310,0.004,-0.135,-0.851,-177.388,-1.155
13:43:06:113,43.163,-0.288,0.047,-0.097,-0.724,-175.434,-2.141
13:43:06:113,43.163,-0.282,0.143,-0.051,-0.518,-174.253,-2.676
13:43:06:133,43.182,-0.277,0.210,-0.035,-0.121,-172.600,-3.202
13:43:06:133,43.183,-0.206,0.283,0.034,0.498,-170.937,-3.450
13:43:06:134,43.184,-0.198,0.289,0.062,0.963,-169.969,-3.538
13:43:06:21,43.260,-0.211,0.155,0.085,1.751,-168.584,-3.775
13:43:06:211,43.260,-0.202,-0.033,0.111,2.298,-167.441,-4.140
13:43:06:235,43.284,-0.176,-0.097,0.131,3.198,-165.057,-5.147
13:43:06:236,43.285,-0.136,-0.083,0.167,4.106,-161.868,-6.634
13:43:06:258,43.307,-0.109,-0.038,0.189,4.774,-159.415,-7.761
13:43:06:286,43.335,-0.069,0.096,0.248,5.940,-155.371,-9.452
13:43:06:34,43.389,-0.032,0.189,0.266,6.882,-152.456,-10.406
13:43:06:341,43.390,0.078,0.250,0.302,8.664,-147.792,-11.380
13:43:06:363,43.412,0.182,0.114,0.262,10.758,-143.234,-11.920
13:43:06:419,43.468,0.219,-0.022,0.216,12.124,-140.764,-12.258
13:43:06:42,43.469,0.236,-0.082,0.189,13.948,-137.869,-13.086
13:43:06:473,43.522,0.233,-0.118,0.192,14.965,-136.644,-13.962
13:43:06:473,43.523,0.239,-0.099,0.212,16.214,-135.188,-15.664
13:43:06:552,43.602,0.286,-0.095,0.221,17.227,-134.237,-17.563
13:43:06:553,43.602,0.296,-0.096,0.207,17.761,-133.417,-18.792
13:43:06:554,43.603,0.269,-0.107,0.169,18.342,-132.468,-20.481
13:43:06:602,43.651,0.271,-0.116,0.143,18.640,-131.206,-21.495
13:43:06:603,43.652,0.291,-0.154,0.095,19.027,-129.676,-22.860
13:43:06:626,43.676,0.293,-0.159,0.045,19.227,-127.586,-24.098
13:43:06:652,43.702,0.284,-0.140,0.018,19.245,-126.421,-24.873
13:43:06:678,43.727,0.286,-0.103,-0.044,19.232,-124.285,-25.959
13:43:06:704,43.754,0.326,-0.043,-0.110,19.223,-123.075,-26.623
13:43:06:731,43.780,0.337,0.001,-0.157,18.988,-121.003,-27.421
13:43:06:757,43.806,0.342,0.100,-0.226,18.276,-120.098,-27.833
13:43:06:783,43.833,0.345,0.210,-0.287,17.416,-119.559,-27.797
13:43:06:842,43.891,0.289,0.251,-0.292,15.577,-120.260,-27.153
13:43:06:842,43.892,0.158,0.176,-0.242,13.992,-121.324,-26.264
13:43:06:843,43.893,-0.004,0.033,-0.211,11.328,-123.612,-24.414
13:43:06:888,43.938,-0.152,-0.194,-0.152,9.031,-126.044,-22.333
13:43:06:947,43.997,-0.177,-0.287,-0.131,7.979,-127.437,-21.126
13:43:06:947,43.997,-0.086,-0.322,-0.082,7.046,-129.054,-19.611
13:43:06:948,43.997,-0.004,-0.204,-0.084,6.711,-129.884,-18.704
13:43:06:994,44.043,0.049,0.015,-0.070,6.423,-130.953,-17.218
13:43:07:052,44.101,0.109,0.305,-0.074,6.241,-132.142,-16.112
13:43:07:052,44.101,0.126,0.310,-0.075,5.734,-134.941,-13.991
13:43:07:053,44.102,-0.181,0.203,0.060,4.814,-140.272,-11.943
13:43:07:072,44.121,-0.338,-0.116,0.108,4.195,-144.352,-11.001
13:43:07:098,44.148,-0.204,-0.299,0.010,3.606,-148.366,-9.604
13:43:07:183,44.232,-0.371,-0.056,0.113,2.784,-150.802,-8.103
13:43:07:183,44.232,-0.383,-0.062,0.156,2.564,-150.754,-7.092
13:43:07:204,44.253,-0.248,-0.061,0.159,2.386,-147.344,-4.460
13:43:07:258,44.308,-0.282,-0.046,0.131,1.900,-145.454,-2.867
13:43:07:259,44.309,-0.310,-0.062,0.091,1.484,-143.831,-1.861
13:43:07:282,44.331,-0.326,-0.092,0.088,0.786,-142.457,-0.589
13:43:07:339,44.388,-0.347,-0.140,0.094,0.024,-141.075,0.237
13:43:07:339,44.388,-0.413,-0.108,0.107,-0.557,-140.502,0.519
13:43:07:389,44.439,-0.462,0.004,0.119,-1.526,-139.028,0.592
13:43:07:39,44.440,-0.471,0.118,0.102,-2.115,-137.903,0.421
13:43:07:442,44.491,-0.429,0.230,0.105,-2.801,-135.433,-0.101
13:43:07:442,44.492,-0.366,0.375,0.071,-3.239,-132.962,-0.872
13:43:07:495,44.544,-0.346,0.386,0.065,-3.375,-130.832,-1.523
13:43:07:496,44.545,-0.352,0.372,0.077,-3.313,-128.447,-2.592
13:43:07:518,44.568,-0.339,0.229,0.104,-3.116,-126.578,-3.353
13:43:07:544,44.594,-0.267,0.088,0.110,-2.445,-123.889,-4.685
13:43:07:571,44.621,-0.137,-0.207,0.143,-1.427,-120.332,-6.538
13:43:07:597,44.646,-0.090,-0.253,0.234,-0.657,-117.830,-8.007
13:43:07:653,44.702,0.030,0.029,0.180,1.233,-110.708,-9.717
13:43:07:708,44.758,0.203,-0.063,-0.413,3.636,-103.912,-10.255
13:43:07:708,44.758,0.226,0.145,-0.280,6.617,-97.717,-11.083
13:43:07:709,44.758,0.253,0.297,0.018,7.845,-97.574,-12.121
13:43:07:786,44.836,0.293,0.220,0.047,8.517,-98.830,-12.891
13:43:07:787,44.836,0.257,0.063,0.184,9.615,-101.151,-14.342
13:43:07:788,44.837,0.233,-0.121,0.101,10.575,-102.058,-15.442
13:43:07:807,44.856,0.232,-0.158,0.080,12.128,-102.435,-16.924
13:43:07:921,44.970,0.272,-0.149,0.073,13.523,-102.165,-18.377
13:43:07:921,44.971,0.321,-0.139,0.029,14.472,-101.561,-19.250
13:43:07:924,44.973,0.383,-0.126,-0.015,15.802,-100.266,-20.394
13:43:07:924,44.973,0.383,-0.126,-0.037,16.505,-99.351,-21.039
13:43:07:938,44.987,0.360,-0.158,-0.056,17.300,-97.962,-21.858
13:43:08:053,45.102,0.330,-0.172,-0.077,17.831,-96.482,-22.518
13:43:08:053,45.102,0.310,-0.167,-0.100,18.026,-95.477,-22.901
13:43:08:054,45.103,0.294,-0.132,-0.153,18.125,-94.002,-23.481
13:43:08:054,45.104,0.270,-0.074,-0.202,18.085,-93.102,-23.864
13:43:08:184,45.233,0.260,-0.024,-0.239,17.863,-91.977,-24.355
13:43:08:184,45.233,0.247,0.025,-0.302,17.382,-91.202,-24.684
13:43:08:185,45.234,0.236,0.049,-0.335,16.929,-90.991,-24.788
13:43:08:186,45.235,0.269,0.203,-0.394,15.858,-91.316,-24.590
13:43:08:232,45.282,0.261,0.343,-0.376,14.763,-92.056,-24.065
13:43:08:233,45.283,0.136,0.299,-0.274,12.587,-93.993,-22.634
13:43:08:234,45.283,-0.034,0.043,-0.136,10.980,-95.619,-21.336
13:43:08:282,45.332,-0.142,-0.247,-0.034,8.790,-97.992,-19.253
13:43:08:283,45.332,-0.177,-0.410,0.019,6.941,-99.739,-17.581
13:43:08:42,45.470,-0.147,-0.340,-0.028,5.979,-100.280,-16.711
13:43:08:421,45.470,-0.032,-0.106,-0.118,4.982,-99.746,-15.533
13:43:08:421,45.471,0.051,0.108,-0.272,4.562,-99.774,-14.877
13:43:08:422,45.472,-0.143,0.338,-0.027,3.741,-102.089,-14.095
13:43:08:439,45.489,-0.417,0.369,0.376,1.823,-109.331,-14.074
13:43:08:44,45.490,-0.330,-0.027,0.182,1.109,-113.605,-13.733
13:43:08:553,45.602,-0.160,-0.366,0.045,1.042,-117.543,-13.052
13:43:08:553,45.602,-0.292,-0.107,0.172,0.592,-119.737,-12.521
13:43:08:553,45.602,-0.249,-0.039,0.220,0.161,-120.772,-11.336
13:43:08:556,45.605,-0.069,-0.054,0.175,0.974,-118.088,-10.053
13:43:08:658,45.707,-0.050,-0.017,0.170,1.504,-115.086,-9.188
13:43:08:658,45.707,-0.065,0.017,0.102,1.932,-111.511,-7.872
13:43:08:658,45.707,-0.094,-0.007,0.068,1.929,-109.389,-7.037
13:43:08:658,45.708,-0.138,-0.092,0.065,1.724,-107.910,-5.987
13:43:08:76,45.810,-0.172,-0.132,0.118,1.271,-107.381,-5.300
13:43:08:761,45.811,-0.214,-0.096,0.183,0.849,-107.447,-4.975
13:43:08:762,45.811,-0.266,-0.011,0.244,0.127,-107.132,-4.621
13:43:08:763,45.812,-0.286,0.056,0.288,-0.307,-106.737,-4.406
13:43:08:779,45.829,-0.249,0.080,0.279,-0.742,-105.119,-4.119
13:43:08:805,45.854,-0.225,0.157,0.255,-0.940,-103.108,-3.921
13:43:08:888,45.937,-0.209,0.215,0.233,-0.933,-101.582,-3.872
13:43:08:888,45.937,-0.156,0.263,0.205,-0.715,-99.496,-3.938
13:43:09:077,46.126,-0.127,0.233,0.214,-0.475,-98.177,-4.084
13:43:09:077,46.126,-0.109,0.108,0.228,0.107,-96.559,-4.561
13:43:09:077,46.127,-0.038,-0.112,0.208,0.837,-94.842,-5.575
13:43:09:078,46.128,-0.014,-0.141,0.192,1.324,-93.523,-6.622
13:43:09:208,46.257,0.067,-0.055,0.165,2.068,-91.139,-8.567
13:43:09:209,46.258,0.111,0.062,0.132,2.676,-89.094,-9.952
13:43:09:21,46.259,0.144,0.225,0.092,3.945,-85.423,-11.937
13:43:09:21,46.259,0.182,0.275,0.010,5.919,-81.189,-13.609
13:43:09:26,46.309,0.280,0.237,-0.130,7.574,-78.368,-14.551
13:43:09:261,46.310,0.293,0.089,-0.283,10.065,-74.844,-15.881
13:43:09:261,46.311,0.259,-0.061,-0.293,11.568,-73.209,-16.946
13:43:09:262,46.312,0.196,-0.152,-0.264,13.445,-71.769,-19.027
13:43:09:286,46.335,0.213,-0.151,-0.243,14.410,-71.348,-20.684
13:43:09:286,46.336,0.235,-0.121,-0.268,15.499,-71.206,-23.373
13:43:09:287,46.337,0.263,-0.089,-0.297,16.334,-71.271,-25.966
13:43:09:288,46.338,0.242,-0.118,-0.289,16.843,-71.262,-27.468
13:43:09:306,46.355,0.219,-0.167,-0.282,17.471,-71.117,-29.299
13:43:09:306,46.356,0.156,-0.192,-0.267,17.766,-70.928,-30.272
13:43:09:388,46.437,0.131,-0.207,-0.289,18.084,-70.403,-31.436
13:43:09:388,46.438,0.106,-0.201,-0.320,18.351,-69.603,-32.222
13:43:09:389,46.439,0.082,-0.161,-0.358,18.478,-68.992,-32.501
13:43:09:438,46.488,0.039,-0.093,-0.420,18.454,-68.123,-32.492
13:43:09:438,46.488,0.002,-0.083,-0.444,18.207,-67.695,-32.230
13:43:09:461,46.510,-0.005,-0.038,-0.423,17.255,-67.593,-31.425
13:43:09:516,46.565,0.016,0.162,-0.416,15.629,-68.018,-29.852
13:43:09:516,46.566,0.017,0.253,-0.392,14.406,-68.460,-28.303
13:43:09:568,46.618,-0.008,0.305,-0.319,12.606,-69.273,-25.230
13:43:09:569,46.619,-0.071,0.115,-0.128,11.482,-69.928,-22.871
13:43:09:592,46.642,-0.107,-0.135,0.025,10.037,-70.995,-19.425
13:43:09:648,46.698,-0.099,-0.377,0.096,8.910,-72.786,-16.694
13:43:09:649,46.698,-0.090,-0.306,0.123,8.151,-73.063,-15.189
13:43:09:697,46.747,-0.074,0.066,0.137,7.279,-73.700,-13.025
13:43:09:726,46.776,-0.081,0.282,0.182,6.914,-73.346,-11.701
13:43:09:727,46.776,-0.131,0.574,0.346,6.538,-73.341,-9.473
13:43:09:969,47.019,-0.191,0.166,0.405,6.348,-74.285,-7.449
13:43:09:97,47.020,-0.195,-0.008,0.489,6.348,-74.336,-6.223
13:43:09:971,47.020,-0.211,-0.164,0.365,6.734,-73.200,-5.150
13:43:09:972,47.021,-0.116,-0.179,0.249,7.122,-71.592,-4.725
13:43:09:995,47.044,-0.057,-0.133,0.261,7.527,-70.015,-4.426
13:43:09:996,47.045,0.023,-0.048,0.274,7.862,-69.128,-4.350
13:43:09:996,47.046,0.033,-0.063,0.289,8.125,-69.519,-4.435
13:43:09:997,47.047,0.041,-0.112,0.273,8.633,-69.566,-4.813
13:43:10:041,47.090,0.047,-0.135,0.249,9.011,-70.000,-5.226
13:43:10:099,47.149,0.065,-0.221,0.225,9.477,-69.993,-6.107
13:43:10:1,47.149,0.093,-0.202,0.252,9.621,-70.410,-6.871
13:43:10:101,47.150,0.121,-0.117,0.259,9.645,-70.078,-8.067
13:43:10:102,47.152,0.171,0.072,0.260,9.661,-69.122,-9.042
13:43:10:179,47.228,0.224,0.225,0.203,9.760,-68.011,-9.460
13:43:10:18,47.229,0.254,0.304,0.137,10.037,-66.212,-9.756
13:43:10:18,47.230,0.276,0.380,0.070,10.206,-65.134,-9.858
13:43:10:181,47.231,0.278,0.410,0.122,10.423,-63.840,-10.180
13:43:10:224,47.274,0.264,0.481,0.233,10.736,-62.083,-10.846
13:43:10:225,47.275,0.329,0.354,0.299,11.241,-60.132,-11.618
13:43:10:248,47.297,0.334,0.139,0.188,12.450,-55.842,-13.863
13:43:10:303,47.353,0.322,0.352,0.110,13.563,-52.074,-16.215
13:43:10:304,47.354,0.316,0.364,-0.108,16.771,-45.026,-20.506
13:43:10:407,47.456,0.424,0.397,-0.408,22.049,-37.673,-25.582
13:43:10:495,47.544,0.443,0.578,-0.576,26.322,-32.816,-28.959
13:43:10:495,47.544,0.061,0.639,-0.802,34.891,-24.273,-32.695
13:43:10:495,47.545,-0.169,0.417,-0.786,41.517,-18.648,-34.421
13:43:10:496,47.545,0.038,0.164,-0.744,50.703,-12.612,-37.262
13:43:10:572,47.621,0.097,0.068,-0.858,59.036,-7.652,-40.036
13:43:10:573,47.622,-0.201,-0.248,-0.575,64.604,-2.701,-40.376
13:43:10:574,47.623,-0.282,-0.415,-0.299,71.931,5.117,-39.780
13:43:10:575,47.624,-0.116,-0.404,-0.424,75.907,8.218,-40.878
13:43:10:593,47.642,-0.084,-0.410,-0.408,80.796,12.579,-42.296
13:43:10:593,47.643,-0.136,-0.325,-0.217,84.736,23.708,-36.453
13:43:10:645,47.694,-0.124,-0.306,-0.220,86.967,41.123,-22.205
13:43:10:645,47.695,-0.052,-0.339,-0.153,89.817,152.529,84.759
13:43:10:697,47.746,-0.060,-0.304,-0.113,91.330,179.204,108.698
13:43:10:698,47.747,-0.091,-0.285,-0.085,93.146,-170.929,114.782
13:43:10:808,47.857,-0.020,-0.247,-0.045,94.490,-166.882,115.362
13:43:10:809,47.858,-0.008,-0.207,-0.107,95.084,-165.419,114.687
13:43:10:809,47.859,-0.032,-0.145,-0.084,95.583,-164.502,112.511
13:43:10:81,47.860,0.010,-0.117,0.037,95.723,-164.097,110.903
13:43:10:826,47.875,0.016,-0.126,-0.051,95.771,-163.348,109.038
13:43:10:884,47.933,-0.017,-0.057,-0.092,95.624,-163.332,106.865
13:43:10:884,47.933,-0.050,0.024,-0.052,95.400,-163.765,105.143
13:43:11:016,48.065,-0.092,0.065,-0.023,95.126,-163.791,103.610
13:43:11:018,48.067,-0.067,0.026,-0.063,95.087,-163.246,103.424
13:43:11:018,48.067,-0.087,0.027,-0.065,95.150,-162.321,103.490
13:43:11:041,48.091,-0.073,-0.045,-0.037,95.144,-161.895,103.150
13:43:11:042,48.091,-0.031,-0.108,-0.054,95.068,-161.875,102.688
13:43:11:043,48.092,-0.036,-0.163,-0.096,94.883,-162.119,101.765
13:43:11:15,48.200,-0.006,-0.160,-0.066,94.861,-162.238,101.334
13:43:11:15,48.200,-0.011,-0.121,-0.071,94.962,-162.160,101.240
13:43:11:151,48.201,-0.032,-0.075,-0.090,95.054,-162.029,101.408
13:43:11:152,48.201,-0.046,-0.027,-0.054,95.175,-161.658,101.677
13:43:11:197,48.246,-0.083,-0.015,-0.038,95.211,-161.120,101.826
13:43:11:197,48.246,-0.053,-0.049,-0.028,95.179,-160.737,101.799
13:43:11:219,48.268,0.014,-0.089,-0.051,95.049,-160.146,101.505
13:43:11:273,48.322,-0.022,-0.030,-0.040,94.922,-159.923,101.168
13:43:11:328,48.377,-0.017,-0.021,-0.040,94.853,-159.204,100.964
13:43:11:329,48.378,-0.006,-0.071,-0.059,95.052,-157.749,101.522
13:43:11:356,48.406,-0.010,-0.049,-0.036,95.294,-156.462,102.118
13:43:11:357,48.406,-0.035,-0.011,0.012,95.652,-154.750,102.906
13:43:11:358,48.407,-0.041,-0.018,0.023,95.875,-153.324,103.438
13:43:11:404,48.453,-0.024,-0.046,-0.029,96.204,-151.345,104.342
13:43:11:461,48.510,-0.013,-0.051,-0.006,96.504,-149.201,105.066
13:43:11:462,48.511,0.002,-0.055,0.008,96.675,-147.941,105.378
13:43:11:462,48.512,0.015,-0.011,0.009,96.928,-145.960,105.818
13:43:11:54,48.589,-0.002,0.001,-0.057,97.155,-144.540,106.304
13:43:11:541,48.590,-0.010,0.007,-0.059,97.518,-142.078,107.170
13:43:11:541,48.591,-0.028,0.094,0.001,97.894,-139.771,107.954
13:43:11:587,48.636,-0.014,0.136,-0.043,98.238,-137.774,108.754
13:43:11:674,48.723,0.026,0.135,-0.135,98.777,-134.708,110.321
13:43:11:675,48.724,0.044,0.124,-0.099,99.072,-132.584,111.266
13:43:11:675,48.725,0.028,0.135,-0.104,99.190,-130.318,111.942
13:43:11:676,48.726,0.010,0.009,-0.121,99.027,-128.337,111.943
13:43:11:721,48.770,-0.015,-0.067,-0.156,98.786,-127.432,111.541
13:43:11:722,48.771,-0.047,-0.116,-0.172,98.390,-126.194,110.554
13:43:11:772,48.821,-0.054,-0.103,-0.153,98.182,-125.578,109.894
13:43:11:8,48.849,-0.065,-0.160,-0.226,98.106,-123.935,109.777
13:43:11:8,48.850,-0.087,-0.091,-0.232,98.198,-121.838,110.391
13:43:11:823,48.872,-0.096,-0.019,-0.189,98.283,-120.646,110.909
13:43:11:849,48.899,-0.090,0.003,-0.166,98.298,-118.824,111.680
13:43:11:934,48.983,-0.073,-0.023,-0.099,98.209,-117.755,112.068
13:43:11:934,48.984,-0.103,-0.029,-0.088,97.894,-116.542,112.102
13:43:11:935,48.985,-0.106,-0.060,-0.119,97.408,-116.200,111.276
13:43:11:954,49.004,-0.068,-0.033,-0.074,97.011,-116.105,110.235
13:43:12:039,49.088,-0.048,-0.025,-0.053,96.463,-116.409,108.845
13:43:12:04,49.089,-0.071,-0.042,-0.077,96.106,-116.528,108.120
13:43:12:04,49.090,-0.074,-0.033,-0.073,95.585,-117.075,106.831
13:43:12:059,49.109,-0.008,0.033,0.011,95.251,-117.695,105.754
13:43:12:087,49.136,-0.006,0.021,-0.005,94.799,-118.503,104.420
13:43:12:112,49.161,-0.063,-0.002,-0.056,94.396,-118.969,103.351
13:43:12:167,49.217,-0.035,0.050,-0.026,94.110,-119.813,102.359
13:43:12:168,49.217,0.005,0.082,-0.014,93.693,-121.240,100.784
13:43:12:191,49.240,-0.010,0.029,-0.059,93.467,-122.015,100.028
13:43:12:331,49.381,-0.050,0.042,-0.093,93.178,-123.070,99.163
13:43:12:332,49.381,-0.025,0.124,-0.063,92.877,-124.439,98.087
13:43:12:333,49.383,-0.028,0.145,-0.044,92.700,-125.409,97.457
13:43:12:334,49.383,-0.097,0.128,-0.023,92.522,-126.709,96.966
13:43:12:38,49.429,-0.101,0.148,-0.007,92.432,-127.480,96.791
13:43:12:381,49.431,-0.093,0.132,-0.022,92.253,-128.775,96.363
13:43:12:382,49.431,-0.095,-0.022,-0.095,91.956,-130.428,95.541
13:43:12:429,49.479,-0.145,-0.079,-0.103,91.657,-131.823,94.646
13:43:12:43,49.480,-0.106,-0.094,-0.050,91.217,-133.934,93.263
13:43:12:482,49.532,-0.099,-0.125,-0.044,91.173,-134.779,93.061
13:43:12:483,49.532,-0.116,-0.146,-0.078,91.442,-135.424,93.750
13:43:12:507,49.556,-0.107,-0.058,-0.049,91.857,-135.946,94.859
13:43:12:673,49.722,-0.063,-0.026,0.017,92.119,-135.960,95.545
13:43:12:673,49.722,-0.017,-0.052,-0.055,92.303,-136.173,96.074
13:43:12:674,49.723,-0.010,-0.067,-0.056,92.274,-136.484,96.041
13:43:12:674,49.724,-0.023,-0.049,-0.036,92.098,-137.253,95.595
13:43:12:696,49.745,-0.023,-0.068,-0.038,92.084,-137.406,95.605
13:43:12:696,49.745,-0.042,-0.083,-0.033,92.235,-137.069,96.079
13:43:12:696,49.746,-0.056,-0.022,0.035,92.672,-136.052,97.280
13:43:12:773,49.823,-0.035,0.001,0.021,93.037,-135.164,98.273
13:43:12:774,49.824,-0.010,-0.031,0.004,93.621,-133.454,99.942
13:43:12:909,49.958,0.010,-0.015,0.043,94.122,-131.805,101.330
13:43:12:91,49.959,0.042,0.000,0.044,94.343,-130.897,101.864
13:43:12:91,49.959,0.023,-0.014,-0.012,94.629,-129.471,102.596
13:43:12:911,49.960,-0.005,0.013,-0.038,94.816,-128.491,103.095
13:43:12:933,49.982,-0.007,0.065,-0.014,95.114,-127.074,103.703
13:43:12:933,49.983,0.018,0.096,-0.019,95.478,-125.211,104.559
13:43:12:933,49.983,0.035,0.125,-0.023,95.776,-123.724,105.423
13:43:12:952,50.001,-0.012,0.161,-0.113,96.059,-121.480,106.645
13:43:13:007,50.056,-0.052,0.122,-0.117,96.180,-120.171,107.263
13:43:13:008,50.057,-0.034,0.067,-0.157,96.147,-118.739,107.329
13:43:13:031,50.080,-0.006,0.016,-0.106,95.804,-118.448,106.186
13:43:13:144,50.194,-0.038,-0.051,-0.126,95.592,-117.972,105.540
13:43:13:145,50.194,-0.105,-0.172,-0.219,95.406,-116.896,105.034
13:43:13:146,50.195,-0.101,-0.167,-0.209,95.375,-116.103,104.851
13:43:13:162,50.211,-0.079,-0.072,-0.184,95.550,-113.298,105.576
13:43:13:188,50.237,-0.090,-0.080,-0.177,95.589,-112.341,106.084
13:43:13:214,50.264,-0.085,-0.014,-0.067,95.545,-111.338,106.486
13:43:13:24,50.290,-0.073,-0.030,-0.061,95.431,-110.834,106.498
13:43:13:267,50.316,-0.050,-0.043,-0.075,95.150,-110.461,106.046
13:43:13:294,50.343,-0.053,-0.034,-0.042,94.774,-110.636,105.130
13:43:13:32,50.370,-0.081,-0.030,-0.064,94.535,-110.530,104.801
13:43:13:375,50.424,-0.069,-0.051,-0.072,94.172,-110.861,103.883
13:43:13:375,50.425,-0.040,-0.024,-0.041,93.943,-111.254,103.180
13:43:13:398,50.448,-0.018,-0.009,-0.006,93.575,-112.094,101.995
13:43:13:453,50.503,-0.036,-0.051,-0.003,93.329,-112.734,101.225
13:43:13:454,50.504,-0.030,-0.049,-0.011,93.011,-113.873,100.136
13:43:13:478,50.527,-0.029,0.002,0.026,92.791,-115.158,99.277
13:43:13:617,50.667,-0.059,-0.003,0.020,92.756,-115.826,99.131
13:43:13:618,50.668,-0.061,0.000,-0.004,92.817,-116.833,99.328
13:43:13:619,50.669,-0.057,0.051,0.011,92.854,-117.631,99.414
13:43:13:62,50.669,-0.057,0.057,0.012,92.872,-119.096,99.459
13:43:13:64,50.689,-0.070,0.124,-0.009,92.804,-120.946,99.428
13:43:13:64,50.690,-0.109,0.208,-0.084,92.609,-122.763,99.006
13:43:13:641,50.691,-0.140,0.203,-0.091,92.114,-126.056,97.686
13:43:13:66,50.710,-0.178,0.108,-0.079,91.666,-128.926,96.287
13:43:13:716,50.765,-0.176,0.060,-0.035,90.906,-133.421,93.510
13:43:13:717,50.766,-0.107,-0.079,-0.113,90.291,-137.553,91.105
13:43:13:792,50.842,-0.093,-0.148,-0.167,90.061,-139.410,90.226
13:43:13:845,50.894,-0.089,-0.121,-0.154,89.897,-141.844,89.630
13:43:13:879,50.928,-0.054,-0.049,-0.075,89.916,-143.066,89.698
13:43:13:88,50.930,-0.078,-0.034,-0.105,89.976,-144.740,89.911
13:43:13:88,50.930,-0.002,0.027,-0.070,89.866,-146.733,89.509
13:43:13:881,50.931,-0.006,0.000,-0.055,89.675,-148.084,88.823
13:43:13:928,50.977,-0.028,-0.028,-0.086,89.341,-150.100,87.644
13:43:13:928,50.977,-0.050,-0.044,-0.014,89.193,-150.920,87.159
13:43:13:98,51.030,-0.063,-0.042,0.054,89.269,-151.060,87.481
13:43:13:98,51.030,-0.041,-0.063,0.026,89.772,-149.744,89.211
13:43:14:031,51.080,-0.025,-0.059,0.003,90.250,-148.337,90.866
13:43:14:032,51.081,-0.004,-0.018,0.041,90.959,-146.039,93.322
13:43:14:113,51.162,0.021,-0.013,0.054,91.420,-144.451,94.924
13:43:14:113,51.162,0.058,-0.028,0.030,92.035,-142.069,97.084
13:43:14:114,51.163,0.045,-0.004,0.059,92.440,-140.339,98.431
13:43:14:162,51.211,0.027,-0.007,0.051,92.658,-139.204,99.021
13:43:14:163,51.212,0.030,-0.020,-0.001,93.022,-137.218,99.956
13:43:14:186,51.235,0.035,-0.007,0.011,93.272,-135.727,100.594
13:43:14:241,51.290,0.054,0.025,0.044,93.686,-133.219,101.683
13:43:14:242,51.291,0.075,0.035,0.016,94.226,-129.880,103.545
13:43:14:264,51.314,0.044,0.016,-0.072,94.664,-127.129,105.463
13:43:14:29,51.340,0.100,0.037,-0.171,95.239,-123.016,108.441
13:43:14:317,51.366,0.021,-0.060,-0.081,95.372,-121.030,109.931
13:43:14:372,51.421,0.024,-0.124,-0.095,94.890,-119.474,110.497
13:43:14:373,51.422,0.085,-0.290,-0.042,93.873,-119.089,109.659
13:43:14:425,51.474,0.130,-0.409,-0.054,93.049,-118.579,109.491
13:43:14:425,51.474,0.136,-0.668,-0.065,91.573,-114.757,112.850
13:43:14:448,51.498,-0.084,-0.672,-0.134,90.390,7.343,-124.693
13:43:14:475,51.524,-0.311,-0.461,-0.273,88.249,52.882,-77.862
