Time,Second,AccelerationX,AccelerationY,AccelerationZ,EulerAnglesX,EulerAnglesY,EulerAnglesZ
13:42:22:917,0.000,-0.011,-0.019,0.004,20.708,-15.209,27.418
13:42:23:001,0.084,-0.026,-0.013,0.010,20.598,-15.107,27.411
13:42:23:002,0.085,-0.031,0.003,0.024,20.531,-15.093,27.379
13:42:23:003,0.086,-0.035,0.006,0.029,20.470,-15.140,27.317
13:42:23:022,0.105,-0.041,-0.002,0.022,20.445,-15.197,27.307
13:42:23:104,0.188,-0.036,0.001,0.023,20.449,-15.237,27.335
13:42:23:105,0.189,-0.032,0.006,0.024,20.489,-15.318,27.408
13:42:23:13,0.213,-0.020,0.008,0.021,20.541,-15.393,27.458
13:42:23:13,0.213,-0.013,0.003,0.025,20.654,-15.459,27.543
13:42:23:182,0.265,-0.001,-0.018,0.030,20.807,-15.392,27.684
13:42:23:183,0.266,0.000,-0.020,0.032,20.900,-15.228,27.832
13:42:23:206,0.289,-0.003,-0.006,0.020,20.970,-14.835,28.098
13:42:23:231,0.315,0.000,0.001,0.023,20.955,-14.546,28.263
13:42:23:287,0.370,-0.008,0.007,0.011,20.846,-14.072,28.468
13:42:23:288,0.371,-0.008,0.007,0.016,20.716,-13.757,28.585
13:42:23:34,0.423,-0.016,-0.011,-0.008,20.352,-13.275,28.741
13:42:23:341,0.424,-0.047,-0.021,-0.006,19.857,-13.044,28.809
13:42:23:363,0.446,-0.018,-0.046,0.004,19.580,-13.237,28.781
13:42:23:418,0.502,0.016,-0.061,0.022,19.182,-13.820,28.665
13:42:23:419,0.502,0.049,-0.065,0.063,18.892,-14.303,28.509
13:42:23:443,0.526,0.081,-0.074,0.093,18.441,-15.185,28.054
13:42:23:528,0.611,0.093,-0.098,0.124,17.940,-15.928,27.379
13:42:23:528,0.611,0.109,-0.113,0.144,17.506,-16.152,26.846
13:42:23:529,0.612,0.040,-0.046,0.084,16.653,-15.777,26.090
13:42:23:546,0.630,0.050,0.029,0.134,16.077,-15.257,25.595
13:42:23:573,0.656,0.069,0.112,0.120,15.291,-14.373,24.895
13:42:23:656,0.739,-0.166,0.153,0.053,14.476,-13.126,24.333
13:42:23:657,0.740,-0.087,-0.030,0.025,14.064,-12.608,23.894
13:42:23:711,0.794,-0.090,-0.088,0.013,13.335,-12.322,23.150
13:42:23:711,0.794,-0.008,-0.019,-0.001,13.072,-12.403,22.687
13:42:23:712,0.795,0.014,0.027,-0.033,12.753,-12.874,22.052
13:42:23:76,0.843,0.019,-0.013,-0.038,12.432,-13.056,21.729
13:42:23:761,0.844,0.016,-0.052,-0.053,11.756,-13.208,21.420
13:42:23:84,0.923,-0.074,-0.056,-0.131,10.854,-12.922,21.318
13:42:23:841,0.924,-0.137,-0.027,-0.148,10.265,-12.790,21.283
13:42:23:863,0.947,-0.060,-0.026,-0.116,9.659,-13.441,21.152
13:42:23:891,0.974,-0.027,0.006,-0.069,9.353,-14.451,20.990
13:42:23:892,0.975,-0.019,0.006,-0.053,8.903,-15.708,20.779
13:42:23:943,1.026,-0.047,-0.047,-0.069,8.505,-16.860,20.734
13:42:23:944,1.027,0.012,-0.078,-0.030,8.329,-17.788,20.773
13:42:23:967,1.050,0.045,-0.057,-0.047,8.141,-19.255,20.874
13:42:23:993,1.076,0.052,0.031,-0.071,8.022,-20.210,20.921
13:42:24:02,1.103,0.076,0.088,-0.121,7.889,-21.558,20.984
13:42:24:075,1.158,0.073,0.087,-0.127,7.797,-22.687,21.057
13:42:24:075,1.158,0.058,0.066,-0.132,7.748,-23.194,21.135
13:42:24:098,1.181,0.021,-0.017,-0.119,7.732,-23.648,21.314
13:42:24:157,1.240,0.009,-0.051,-0.098,7.761,-23.848,21.497
13:42:24:157,1.240,0.019,-0.066,-0.068,7.899,-24.114,21.862
13:42:24:158,1.241,0.036,-0.064,-0.038,8.115,-24.447,22.255
13:42:24:177,1.260,0.050,-0.033,-0.029,8.275,-24.551,22.491
13:42:24:232,1.316,0.034,0.049,-0.059,8.532,-24.329,22.779
13:42:24:233,1.317,0.016,0.096,-0.071,8.723,-24.066,22.909
13:42:24:285,1.368,0.022,0.121,-0.013,9.125,-23.791,22.967
13:42:24:286,1.369,0.011,0.090,0.021,9.485,-23.649,22.938
13:42:24:366,1.450,0.006,-0.005,0.066,10.079,-23.353,22.914
13:42:24:367,1.450,-0.008,-0.105,0.075,10.643,-22.704,23.097
13:42:24:368,1.451,-0.012,-0.117,0.049,10.987,-22.189,23.346
13:42:24:416,1.499,-0.012,-0.085,0.019,11.444,-21.541,23.798
13:42:24:416,1.500,0.017,-0.040,-0.021,11.740,-21.210,24.081
13:42:24:528,1.611,0.033,-0.021,-0.019,12.142,-20.791,24.348
13:42:24:528,1.611,0.040,-0.004,-0.016,12.505,-20.557,24.378
13:42:24:528,1.611,0.012,-0.009,-0.035,12.706,-20.310,24.314
13:42:24:529,1.612,-0.004,0.000,-0.032,12.905,-19.890,24.213
13:42:24:573,1.657,-0.011,-0.016,-0.010,12.975,-19.605,24.183
13:42:24:629,1.712,-0.008,-0.019,0.043,13.070,-19.333,24.191
13:42:24:629,1.713,0.015,-0.022,0.064,13.169,-19.290,24.182
13:42:24:63,1.714,0.003,-0.024,0.050,13.319,-19.188,24.145
13:42:24:649,1.732,-0.013,-0.009,-0.005,13.443,-18.988,24.122
13:42:24:705,1.788,-0.016,-0.009,-0.012,13.522,-18.895,24.130
13:42:24:705,1.788,-0.005,-0.019,-0.023,13.624,-18.842,24.182
13:42:24:729,1.812,-0.009,-0.015,-0.007,13.673,-18.846,24.231
13:42:24:783,1.866,-0.007,-0.028,0.014,13.756,-18.925,24.270
13:42:24:784,1.867,-0.001,-0.029,0.015,13.843,-19.023,24.317
13:42:24:835,1.918,0.000,-0.030,0.007,13.884,-19.078,24.359
13:42:24:863,1.946,0.001,-0.018,0.015,13.952,-19.331,24.426
13:42:24:863,1.946,0.009,-0.007,0.005,14.001,-19.417,24.450
13:42:24:915,1.998,0.006,-0.006,0.004,14.063,-19.522,24.500
13:42:24:916,1.999,0.017,-0.010,-0.001,14.117,-19.690,24.556
13:42:24:939,2.022,0.019,-0.012,0.006,14.144,-19.869,24.587
13:42:24:993,2.076,0.019,-0.011,0.003,14.174,-20.058,24.627
13:42:24:994,2.077,0.018,-0.010,0.003,14.182,-20.179,24.639
13:42:25:017,2.100,0.022,-0.018,0.004,14.162,-20.349,24.652
13:42:25:043,2.126,0.017,-0.021,0.011,14.141,-20.476,24.657
13:42:25:071,2.154,0.021,-0.011,0.011,14.112,-20.689,24.633
13:42:25:126,2.209,0.009,-0.008,0.013,14.096,-20.838,24.585
13:42:25:126,2.209,0.016,-0.010,0.000,14.071,-20.890,24.563
13:42:25:206,2.290,0.005,-0.011,-0.010,14.011,-20.957,24.583
13:42:25:207,2.290,0.014,-0.009,-0.006,13.981,-20.991,24.605
13:42:25:208,2.291,0.020,-0.008,0.002,13.917,-21.079,24.636
13:42:25:257,2.341,0.015,-0.014,0.005,13.853,-21.035,24.651
13:42:25:257,2.341,0.018,-0.021,0.010,13.828,-20.966,24.663
13:42:25:279,2.362,0.009,-0.011,0.006,13.749,-20.808,24.697
13:42:25:334,2.418,0.000,-0.002,-0.003,13.696,-20.691,24.717
13:42:25:335,2.419,0.001,-0.001,0.002,13.645,-20.543,24.742
13:42:25:416,2.499,-0.004,-0.007,-0.010,13.612,-20.330,24.775
13:42:25:417,2.500,-0.005,-0.013,0.000,13.605,-20.202,24.827
13:42:25:418,2.501,0.002,-0.016,-0.006,13.607,-19.973,24.916
13:42:25:495,2.578,0.003,-0.007,-0.008,13.602,-19.801,24.979
13:42:25:496,2.579,-0.005,-0.006,-0.019,13.597,-19.512,25.057
13:42:25:497,2.580,-0.009,-0.010,-0.010,13.593,-19.355,25.100
13:42:25:515,2.599,-0.012,-0.014,-0.006,13.601,-19.129,25.154
13:42:25:543,2.626,-0.019,-0.012,-0.005,13.590,-18.898,25.219
13:42:25:596,2.679,-0.015,-0.013,-0.015,13.589,-18.774,25.260
13:42:25:622,2.705,-0.011,-0.008,-0.004,13.584,-18.653,25.305
13:42:25:647,2.731,-0.006,-0.007,-0.008,13.591,-18.600,25.319
13:42:25:678,2.761,-0.005,-0.010,-0.005,13.592,-18.507,25.343
13:42:25:678,2.761,0.002,-0.019,-0.007,13.602,-18.395,25.379
13:42:25:699,2.783,-0.003,-0.017,-0.004,13.591,-18.302,25.420
13:42:25:726,2.809,0.000,-0.024,-0.002,13.565,-18.157,25.481
13:42:25:753,2.836,-0.004,-0.015,0.002,13.534,-18.033,25.507
13:42:25:778,2.862,-0.011,-0.004,-0.008,13.469,-17.847,25.550
13:42:25:833,2.917,-0.009,-0.007,0.006,13.437,-17.744,25.575
13:42:25:834,2.917,-0.014,-0.017,0.011,13.385,-17.632,25.594
13:42:25:857,2.940,-0.013,-0.007,0.014,13.336,-17.521,25.627
13:42:25:885,2.968,-0.009,-0.004,0.003,13.300,-17.481,25.645
13:42:25:91,2.993,-0.001,-0.022,0.002,13.266,-17.488,25.675
13:42:25:965,3.048,0.000,-0.016,0.000,13.238,-17.504,25.689
13:42:25:965,3.049,-0.012,-0.009,0.000,13.176,-17.514,25.695
13:42:26:017,3.100,-0.011,-0.016,-0.003,13.123,-17.522,25.697
13:42:26:018,3.101,-0.006,-0.014,-0.004,13.087,-17.546,25.697
13:42:26:041,3.124,0.000,-0.013,-0.011,13.018,-17.582,25.708
13:42:26:067,3.150,0.000,-0.006,-0.010,12.976,-17.617,25.722
13:42:26:094,3.177,-0.001,-0.007,-0.003,12.903,-17.677,25.736
13:42:26:12,3.203,-0.005,-0.021,-0.013,12.828,-17.729,25.731
13:42:26:175,3.258,-0.005,-0.018,-0.007,12.773,-17.762,25.746
13:42:26:176,3.259,0.001,-0.011,-0.018,12.689,-17.835,25.790
13:42:26:228,3.311,-0.003,-0.010,-0.005,12.632,-17.904,25.796
13:42:26:229,3.312,0.002,-0.012,-0.018,12.555,-18.017,25.807
13:42:26:251,3.334,-0.001,-0.003,-0.013,12.499,-18.061,25.823
13:42:26:277,3.360,0.001,-0.009,-0.017,12.415,-18.141,25.849
13:42:26:303,3.386,0.008,-0.012,0.000,12.357,-18.240,25.875
13:42:26:357,3.440,0.013,-0.009,-0.012,12.320,-18.297,25.888
13:42:26:383,3.467,0.005,-0.014,0.003,12.269,-18.331,25.915
13:42:26:414,3.497,0.012,-0.011,0.001,12.232,-18.367,25.929
13:42:26:415,3.498,0.015,-0.003,0.004,12.187,-18.405,25.947
13:42:26:415,3.498,0.016,-0.005,-0.007,12.147,-18.395,25.948
13:42:26:435,3.518,0.007,-0.005,0.003,12.133,-18.368,25.949
13:42:26:461,3.544,0.004,-0.008,-0.001,12.096,-18.286,25.958
13:42:26:487,3.570,0.008,-0.010,0.004,12.084,-18.224,25.969
13:42:26:513,3.596,0.011,-0.012,-0.006,12.047,-18.111,25.983
13:42:26:598,3.682,0.013,-0.018,0.006,12.025,-18.036,25.993
13:42:26:599,3.682,0.012,-0.017,0.002,11.973,-17.890,26.001
13:42:26:599,3.683,0.000,-0.008,0.008,11.888,-17.706,25.988
13:42:26:618,3.701,-0.003,-0.017,0.006,11.829,-17.591,25.971
13:42:26:646,3.729,-0.005,-0.017,0.008,11.736,-17.417,25.961
13:42:26:671,3.754,-0.010,-0.019,0.010,11.675,-17.300,25.951
13:42:26:697,3.780,-0.006,-0.012,0.008,11.571,-17.094,25.946
13:42:26:751,3.834,-0.020,-0.005,0.000,11.451,-16.852,25.942
13:42:26:807,3.890,-0.023,-0.006,-0.001,11.386,-16.729,25.939
13:42:26:808,3.891,-0.013,-0.021,0.009,11.292,-16.640,25.933
13:42:26:809,3.892,-0.014,-0.024,0.005,11.214,-16.572,25.932
13:42:26:828,3.911,-0.015,-0.023,0.017,11.102,-16.454,25.958
13:42:26:885,3.968,-0.012,-0.015,0.012,10.994,-16.327,25.975
13:42:26:885,3.969,-0.013,-0.010,0.006,10.916,-16.229,25.978
13:42:26:907,3.990,-0.012,-0.009,-0.003,10.793,-16.099,25.984
13:42:26:963,4.046,-0.013,-0.011,0.011,10.701,-16.031,26.008
13:42:26:963,4.046,-0.017,-0.021,0.011,10.561,-15.912,26.039
13:42:26:986,4.069,-0.025,-0.025,0.018,10.466,-15.825,26.069
13:42:27:012,4.095,-0.024,-0.021,0.007,10.321,-15.728,26.091
13:42:27:038,4.121,-0.023,-0.018,0.009,10.163,-15.716,26.087
13:42:27:066,4.150,-0.023,-0.019,0.001,10.044,-15.742,26.066
13:42:27:092,4.175,-0.041,-0.019,0.016,9.875,-15.847,26.049
13:42:27:117,4.200,-0.045,-0.031,-0.001,9.790,-15.964,26.057
13:42:27:201,4.285,-0.045,-0.029,-0.001,9.633,-16.236,26.096
13:42:27:202,4.286,-0.061,-0.023,-0.002,9.464,-16.624,26.142
13:42:27:203,4.286,-0.063,0.002,-0.011,9.362,-16.952,26.201
13:42:27:222,4.305,-0.067,0.015,-0.016,9.163,-17.652,26.022
13:42:27:252,4.335,-0.064,0.016,-0.003,9.064,-18.232,25.897
13:42:27:275,4.358,-0.056,0.002,0.009,9.077,-19.119,25.960
13:42:27:359,4.442,-0.069,0.002,0.011,9.129,-19.711,25.992
13:42:27:36,4.443,-0.064,-0.002,0.010,9.306,-20.559,26.119
13:42:27:361,4.444,-0.070,0.009,0.018,9.597,-21.338,26.249
13:42:27:409,4.492,-0.049,0.036,0.034,10.204,-22.370,26.447
13:42:27:432,4.515,-0.065,0.035,0.017,10.441,-22.558,26.561
13:42:27:458,4.541,-0.082,0.038,0.000,10.745,-22.626,26.820
13:42:27:485,4.568,-0.095,0.024,-0.009,10.982,-22.747,26.993
13:42:27:57,4.653,-0.091,-0.006,-0.009,11.193,-22.934,27.137
13:42:27:57,4.653,-0.083,-0.020,-0.004,11.547,-23.309,27.415
13:42:27:571,4.654,-0.094,-0.009,-0.001,11.784,-23.549,27.639
13:42:27:589,4.673,-0.112,0.003,-0.001,12.326,-23.886,28.277
13:42:27:616,4.699,-0.086,-0.014,-0.018,12.803,-24.456,28.561
13:42:27:642,4.725,-0.071,-0.023,-0.016,13.265,-24.868,29.019
13:42:27:697,4.780,-0.049,-0.028,-0.022,13.942,-25.581,29.548
13:42:27:698,4.781,-0.049,0.000,-0.009,14.428,-26.085,29.852
13:42:27:81,4.893,-0.030,0.002,-0.021,15.183,-26.789,30.277
13:42:27:81,4.893,-0.007,0.004,-0.015,15.678,-27.224,30.500
13:42:27:81,4.893,0.018,0.004,-0.022,16.453,-27.863,30.717
13:42:27:81,4.893,0.020,0.010,-0.024,17.135,-28.396,30.900
13:42:27:884,4.967,0.040,0.014,-0.038,17.513,-28.719,30.978
13:42:27:885,4.968,0.064,0.048,-0.037,18.048,-29.122,31.060
13:42:27:886,4.969,0.127,0.128,-0.034,18.396,-29.366,31.059
13:42:27:904,4.988,0.144,0.130,-0.019,18.844,-29.726,30.897
13:42:27:93,5.013,0.149,0.113,-0.018,19.083,-29.928,30.597
13:42:27:986,5.069,0.124,0.088,-0.005,19.097,-29.928,30.322
13:42:27:987,5.070,0.114,0.062,0.004,18.964,-29.908,29.825
13:42:28:01,5.093,0.101,0.003,0.008,18.802,-29.940,29.438
13:42:28:036,5.119,0.078,-0.096,-0.006,18.550,-29.982,28.822
13:42:28:062,5.145,0.096,-0.123,0.012,18.430,-30.167,28.155
13:42:28:088,5.171,0.165,-0.146,0.019,18.433,-30.272,27.743
13:42:28:144,5.227,0.237,-0.153,0.041,18.439,-29.955,27.278
13:42:28:144,5.227,0.230,-0.145,0.025,18.431,-29.182,27.149
13:42:28:167,5.250,0.226,-0.134,0.000,18.398,-27.291,27.138
13:42:28:193,5.276,0.214,-0.096,-0.023,18.122,-25.912,26.741
13:42:28:219,5.303,0.214,-0.059,-0.031,18.154,-23.676,26.740
13:42:28:247,5.330,0.190,0.004,-0.026,18.101,-21.510,26.642
13:42:28:301,5.384,0.177,-0.016,-0.001,17.980,-20.174,26.523
13:42:28:302,5.385,0.100,-0.083,0.011,17.672,-18.402,26.235
13:42:28:325,5.408,0.070,-0.151,0.018,17.370,-17.518,25.965
13:42:28:352,5.435,0.069,-0.164,0.018,16.901,-16.330,25.444
13:42:28:377,5.460,0.047,-0.128,0.008,16.413,-15.510,24.887
13:42:28:404,5.487,0.003,-0.059,0.022,16.059,-14.787,24.547
13:42:28:492,5.576,-0.024,-0.022,0.051,15.596,-13.555,24.148
13:42:28:493,5.577,-0.053,-0.048,0.038,15.310,-12.484,23.951
13:42:28:494,5.578,-0.122,-0.014,0.038,14.547,-10.363,23.887
13:42:28:495,5.578,-0.232,-0.065,-0.014,13.894,-8.347,24.003
13:42:28:535,5.618,-0.236,-0.082,0.003,13.012,-6.463,23.988
13:42:28:561,5.644,-0.200,-0.102,0.068,12.437,-5.822,23.824
13:42:28:591,5.674,-0.175,-0.125,0.091,11.982,-5.213,23.800
13:42:28:591,5.674,-0.206,-0.060,0.133,11.136,-3.947,23.898
13:42:28:642,5.725,-0.204,0.009,0.134,10.499,-2.849,24.058
13:42:28:643,5.726,-0.256,0.093,0.139,9.490,-1.243,24.348
13:42:28:665,5.749,-0.215,0.212,0.137,8.611,0.201,24.633
13:42:28:722,5.805,-0.268,0.304,0.107,8.254,0.346,24.716
13:42:28:722,5.805,-0.096,0.353,0.134,8.177,-0.102,24.661
13:42:28:803,5.887,0.083,0.335,0.228,8.226,-0.667,24.598
13:42:28:804,5.887,-0.101,0.247,0.141,8.126,-0.069,24.710
13:42:28:805,5.888,-0.209,-0.011,0.101,8.359,-0.725,25.071
13:42:28:853,5.936,-0.164,-0.153,0.094,8.910,-2.206,25.373
13:42:28:853,5.937,0.052,-0.167,0.040,10.352,-6.285,25.780
13:42:28:905,5.988,-0.034,-0.038,-0.055,11.449,-9.493,25.981
13:42:28:906,5.989,0.117,0.125,-0.031,12.948,-14.087,26.252
13:42:28:928,6.012,0.001,0.227,-0.122,13.833,-16.379,26.428
13:42:28:984,6.067,0.053,0.168,-0.143,15.177,-19.210,26.791
13:42:28:984,6.068,0.067,0.010,-0.133,16.668,-21.426,27.335
13:42:29:036,6.119,0.069,-0.073,-0.114,17.642,-22.499,27.888
13:42:29:037,6.120,0.093,-0.109,-0.115,18.968,-23.371,29.112
13:42:29:061,6.144,0.114,-0.103,-0.153,19.749,-23.509,30.155
13:42:29:086,6.169,0.140,-0.104,-0.158,20.864,-23.584,31.898
13:42:29:141,6.224,0.173,-0.115,-0.156,21.441,-23.665,33.468
13:42:29:142,6.225,0.178,-0.128,-0.130,21.098,-23.841,34.137
13:42:29:165,6.248,0.179,-0.139,-0.106,20.493,-24.110,34.852
13:42:29:221,6.304,0.167,-0.142,-0.081,20.024,-24.280,35.138
13:42:29:221,6.304,0.152,-0.160,-0.058,20.054,-24.279,35.812
13:42:29:301,6.385,0.160,-0.145,-0.035,20.358,-23.889,36.462
13:42:29:302,6.385,0.179,-0.119,-0.030,20.521,-23.872,36.746
13:42:29:303,6.386,0.232,-0.025,0.003,20.709,-23.347,36.904
13:42:29:381,6.464,0.301,0.057,0.027,20.758,-23.146,36.881
13:42:29:381,6.464,0.362,0.242,0.037,20.572,-22.086,36.569
13:42:29:381,6.464,0.434,0.382,0.032,20.217,-21.464,36.038
13:42:29:402,6.485,0.419,0.496,0.026,19.231,-20.086,34.570
13:42:29:427,6.511,0.159,0.281,0.072,17.816,-18.416,32.348
13:42:29:453,6.536,0.018,0.101,0.112,16.862,-17.022,30.747
13:42:29:48,6.563,-0.153,-0.235,0.145,15.647,-15.711,28.686
13:42:29:535,6.618,-0.136,-0.295,0.141,15.061,-15.337,27.664
13:42:29:536,6.619,-0.081,-0.269,0.107,14.601,-15.503,26.658
13:42:29:558,6.642,0.039,-0.195,0.090,14.641,-15.546,26.077
13:42:29:613,6.697,0.115,-0.060,0.070,14.800,-15.335,25.762
13:42:29:614,6.697,0.164,0.091,0.023,15.053,-13.827,25.211
13:42:29:637,6.720,0.085,0.055,-0.024,15.163,-11.914,24.815
13:42:29:663,6.746,-0.009,-0.057,-0.026,15.129,-7.725,24.331
13:42:29:747,6.830,-0.149,-0.099,0.004,14.865,-4.473,24.194
13:42:29:748,6.831,-0.170,-0.106,0.042,14.335,0.371,24.276
13:42:29:772,6.856,-0.155,-0.133,0.054,13.947,3.645,24.509
13:42:29:773,6.856,-0.127,-0.144,0.046,13.861,4.789,24.634
13:42:29:901,6.984,-0.021,-0.136,0.025,13.837,5.455,24.700
13:42:29:961,7.044,-0.017,-0.113,0.008,13.776,5.787,24.676
13:42:29:962,7.045,-0.007,-0.108,0.020,13.587,6.392,24.544
13:42:29:963,7.046,-0.044,-0.103,0.047,13.216,7.347,24.397
13:42:29:963,7.047,-0.065,-0.103,0.067,12.841,8.045,24.258
13:42:29:984,7.067,-0.094,-0.098,0.101,12.139,8.976,23.999
13:42:29:985,7.068,-0.091,-0.087,0.132,11.616,9.557,23.798
13:42:29:986,7.069,-0.122,-0.060,0.154,10.771,10.415,23.483
13:42:30:006,7.089,-0.082,-0.030,0.217,9.937,11.103,23.091
13:42:30:145,7.228,-0.102,0.002,0.240,9.359,11.679,22.829
13:42:30:147,7.230,-0.150,0.043,0.257,8.419,12.829,22.493
13:42:30:147,7.230,-0.169,0.105,0.262,7.783,13.721,22.362
13:42:30:148,7.231,-0.190,0.181,0.263,6.870,15.114,22.292
13:42:30:216,7.299,-0.099,0.341,0.249,6.425,15.610,22.251
13:42:30:252,7.335,-0.020,0.366,0.280,6.112,15.546,22.068
13:42:30:252,7.335,-0.129,0.159,0.219,6.041,15.667,21.885
13:42:30:252,7.335,-0.203,-0.060,0.182,6.097,15.853,21.938
13:42:30:253,7.336,-0.107,-0.175,0.198,6.424,15.212,22.367
13:42:30:267,7.350,-0.037,-0.098,0.178,6.816,14.008,22.886
13:42:30:323,7.406,-0.031,0.036,0.105,7.872,11.261,23.870
13:42:30:324,7.407,0.123,0.060,0.060,8.930,8.810,24.523
13:42:30:345,7.429,0.295,0.086,-0.006,10.477,5.565,25.307
13:42:30:372,7.455,0.021,0.242,-0.033,11.675,4.980,26.324
13:42:30:4,7.483,0.115,0.046,-0.049,12.465,5.282,27.207
13:42:30:454,7.537,0.044,-0.021,-0.033,13.431,7.423,28.916
13:42:30:455,7.538,0.052,-0.044,-0.006,13.905,9.151,30.284
13:42:30:506,7.589,0.061,-0.064,-0.008,14.578,11.544,32.603
13:42:30:507,7.590,0.103,-0.067,-0.072,15.269,13.606,35.018
13:42:30:529,7.613,0.118,-0.074,-0.087,15.776,14.771,36.531
13:42:30:556,7.639,0.164,-0.105,-0.091,16.591,16.160,38.499
13:42:30:582,7.665,0.172,-0.151,-0.102,17.060,16.992,39.590
13:42:30:638,7.721,0.176,-0.175,-0.092,17.545,18.186,40.863
13:42:30:638,7.721,0.156,-0.203,-0.086,17.715,19.292,41.635
13:42:30:661,7.744,0.138,-0.216,-0.067,17.719,19.905,41.842
13:42:30:687,7.770,0.139,-0.216,-0.083,17.643,20.497,41.603
13:42:30:713,7.796,0.148,-0.154,-0.083,17.540,20.741,41.056
13:42:30:769,7.852,0.184,-0.041,-0.096,17.284,20.843,39.592
13:42:30:77,7.853,0.212,0.073,-0.099,16.964,20.775,37.406
13:42:30:795,7.878,0.232,0.168,-0.133,16.597,20.809,35.585
13:42:30:796,7.879,0.173,0.288,-0.118,15.710,21.413,32.421
13:42:30:847,7.930,0.097,0.422,-0.053,14.997,22.103,30.050
13:42:30:848,7.931,0.041,0.479,0.000,13.955,23.302,26.249
13:42:30:902,7.985,-0.032,0.226,0.102,13.351,24.162,23.820
13:42:30:902,7.985,-0.075,0.040,0.153,12.543,25.826,20.950
13:42:30:923,8.006,-0.125,-0.204,0.196,11.902,27.727,19.338
13:42:30:949,8.032,-0.085,-0.190,0.133,11.641,28.745,18.952
13:42:31:005,8.088,-0.028,-0.147,0.027,11.554,30.544,19.107
13:42:31:006,8.089,-0.003,-0.096,-0.002,11.653,32.191,19.425
13:42:31:114,8.198,0.013,0.026,-0.047,11.946,35.586,19.866
13:42:31:114,8.198,-0.005,-0.018,-0.042,12.346,40.054,20.042
13:42:31:115,8.199,-0.030,-0.060,-0.045,12.566,43.588,20.022
13:42:31:136,8.219,-0.064,-0.186,-0.038,12.723,49.494,19.972
13:42:31:137,8.220,-0.086,-0.258,0.050,12.643,53.570,19.956
13:42:31:161,8.244,-0.080,-0.235,0.120,12.310,59.001,19.792
13:42:31:186,8.269,-0.072,-0.156,0.164,11.987,62.565,19.167
13:42:31:213,8.296,-0.049,-0.116,0.138,11.880,63.757,18.447
13:42:31:238,8.321,-0.050,-0.072,0.175,11.706,64.453,17.061
13:42:31:265,8.348,-0.006,-0.062,0.185,11.519,64.568,16.015
13:42:31:292,8.375,0.017,-0.072,0.214,11.095,64.766,14.447
13:42:31:318,8.401,0.048,-0.080,0.269,10.717,64.973,13.457
13:42:31:344,8.427,0.059,-0.090,0.302,10.066,65.765,12.150
13:42:31:37,8.453,0.061,-0.098,0.342,9.344,66.807,11.113
13:42:31:425,8.508,0.066,-0.076,0.396,8.834,67.688,10.553
13:42:31:426,8.509,0.099,-0.020,0.460,8.062,68.737,9.823
13:42:31:448,8.531,0.135,0.041,0.492,7.568,69.160,9.416
13:42:31:503,8.587,0.143,0.193,0.428,6.923,69.218,9.011
13:42:31:504,8.587,0.127,0.342,0.455,6.599,69.283,8.897
13:42:31:528,8.611,0.083,0.410,0.437,6.318,69.358,8.954
13:42:31:582,8.665,0.076,0.285,0.344,6.314,69.253,9.268
13:42:31:583,8.666,0.047,0.009,0.237,6.454,69.267,9.762
13:42:31:665,8.748,0.032,-0.182,0.242,6.712,70.076,11.103
13:42:31:665,8.749,-0.018,-0.147,0.234,6.799,70.837,12.404
13:42:31:666,8.750,-0.012,-0.083,0.213,6.951,71.329,14.749
13:42:31:685,8.768,-0.065,0.008,-0.077,7.597,68.918,16.778
13:42:31:741,8.824,0.020,0.124,-0.228,8.407,66.123,17.941
13:42:31:741,8.824,-0.007,0.144,-0.134,9.594,64.230,19.843
13:42:31:763,8.846,-0.137,0.109,0.075,10.121,64.382,21.224
13:42:31:789,8.873,-0.114,0.031,-0.008,11.103,63.661,23.217
13:42:31:816,8.899,-0.101,-0.024,-0.045,12.426,62.644,25.352
13:42:31:842,8.925,-0.079,-0.026,-0.082,13.493,61.656,26.739
13:42:31:869,8.952,-0.066,-0.043,-0.128,15.206,60.412,28.815
13:42:31:895,8.978,-0.050,-0.092,-0.158,16.352,59.857,30.236
13:42:31:922,9.005,-0.033,-0.111,-0.155,17.916,59.532,32.364
13:42:31:947,9.030,-0.034,-0.092,-0.140,19.204,59.659,34.343
13:42:31:973,9.057,-0.031,-0.092,-0.153,19.952,60.040,35.451
13:42:31:999,9.082,-0.038,-0.110,-0.161,20.939,60.128,36.714
13:42:32:026,9.109,-0.018,-0.156,-0.140,21.492,60.243,37.312
13:42:32:052,9.135,-0.006,-0.156,-0.136,22.167,60.255,37.919
13:42:32:079,9.162,-0.003,-0.140,-0.138,22.441,60.302,38.193
13:42:32:105,9.189,0.002,-0.110,-0.126,22.404,60.300,38.141
13:42:32:132,9.215,-0.006,-0.084,-0.123,21.969,60.256,37.597
13:42:32:186,9.269,0.001,-0.054,-0.122,21.851,60.297,37.336
13:42:32:187,9.270,0.002,0.010,-0.131,21.494,60.340,36.579
13:42:32:212,9.295,0.009,0.112,-0.166,21.136,60.341,35.797
13:42:32:236,9.319,0.001,0.195,-0.163,20.371,60.416,34.169
13:42:32:264,9.347,0.006,0.228,-0.115,19.382,60.521,32.007
13:42:32:289,9.372,0.006,0.181,-0.049,18.619,60.621,30.326
13:42:32:314,9.398,0.021,0.175,0.012,17.405,60.891,27.686
13:42:32:341,9.424,0.034,0.048,0.081,16.587,61.088,25.962
13:42:32:367,9.450,0.036,-0.098,0.117,15.450,61.546,23.789
13:42:32:394,9.477,0.049,-0.209,0.097,14.746,61.950,22.613
13:42:32:45,9.533,0.054,-0.190,0.092,13.905,62.714,21.310
13:42:32:45,9.533,0.054,-0.104,0.015,13.449,63.628,20.290
13:42:32:472,9.555,0.039,-0.033,0.000,13.346,64.572,19.681
13:42:32:498,9.582,0.010,0.131,-0.020,13.416,66.688,18.850
13:42:32:524,9.607,-0.010,0.150,0.004,13.646,69.887,18.196
13:42:32:551,9.634,-0.032,0.031,0.042,13.764,72.638,18.006
13:42:32:579,9.662,-0.006,-0.137,0.113,13.821,77.417,18.125
13:42:32:633,9.717,0.002,-0.236,0.147,13.704,80.307,18.339
13:42:32:634,9.717,-0.017,-0.230,0.169,13.382,83.963,18.632
13:42:32:656,9.739,-0.030,-0.176,0.205,13.186,85.575,18.621
13:42:32:682,9.766,-0.018,-0.122,0.185,13.021,86.936,18.157
13:42:32:708,9.791,0.011,-0.091,0.190,12.936,87.173,17.339
13:42:32:735,9.818,0.015,-0.099,0.180,12.809,87.413,16.766
13:42:32:761,9.844,0.021,-0.129,0.243,12.439,87.791,16.087
13:42:32:787,9.870,0.060,-0.111,0.302,12.091,88.143,15.740
13:42:32:813,9.897,0.077,-0.098,0.287,11.455,88.424,15.373
13:42:32:84,9.923,0.072,-0.080,0.290,10.959,89.056,15.697
13:42:32:865,9.949,0.111,-0.029,0.298,10.464,89.229,15.613
13:42:32:892,9.975,0.154,0.055,0.304,9.710,89.703,15.500
13:42:32:918,10.001,0.148,0.079,0.298,9.206,89.637,15.466
13:42:32:944,10.027,0.152,0.177,0.248,8.553,89.668,15.566
13:42:32:971,10.054,0.200,0.338,0.292,7.985,90.183,15.791
13:42:33:025,10.108,0.212,0.402,0.257,7.675,90.526,15.969
13:42:33:055,10.139,0.302,0.321,0.286,7.268,91.007,16.277
13:42:33:056,10.139,0.237,-0.111,0.251,7.082,90.974,16.670
13:42:33:057,10.140,0.243,-0.223,0.223,7.121,90.104,17.508
13:42:33:105,10.188,0.092,-0.155,0.029,7.662,87.572,17.827
13:42:33:105,10.189,0.002,-0.013,-0.058,9.207,80.270,17.590
13:42:33:128,10.211,0.042,0.181,-0.090,10.595,72.270,16.938
13:42:33:184,10.267,-0.008,0.271,-0.038,11.459,68.551,16.730
13:42:33:184,10.268,-0.005,0.209,-0.059,12.915,65.479,16.961
13:42:33:207,10.290,-0.074,0.136,-0.014,13.947,65.571,17.849
13:42:33:262,10.345,-0.164,0.005,0.068,15.650,67.186,20.021
13:42:33:263,10.346,-0.129,-0.053,-0.009,17.475,69.172,22.806
13:42:33:315,10.398,-0.137,-0.062,-0.039,18.648,70.828,24.964
13:42:33:315,10.398,-0.156,-0.077,-0.065,20.163,73.757,28.393
13:42:33:339,10.422,-0.172,-0.094,-0.086,21.019,75.556,30.623
13:42:33:364,10.448,-0.169,-0.108,-0.094,22.160,78.309,33.626
13:42:33:391,10.474,-0.157,-0.151,-0.127,22.880,79.609,35.330
13:42:33:417,10.500,-0.158,-0.210,-0.135,23.920,81.512,37.411
13:42:33:444,10.527,-0.133,-0.229,-0.141,24.785,82.710,38.954
13:42:33:471,10.554,-0.118,-0.213,-0.154,25.255,83.630,39.717
13:42:33:497,10.580,-0.102,-0.129,-0.205,25.868,84.385,40.482
13:42:33:523,10.606,-0.120,-0.057,-0.278,26.232,84.756,40.707
13:42:33:548,10.631,-0.121,-0.049,-0.308,26.594,85.238,40.603
13:42:33:575,10.658,-0.152,0.044,-0.358,26.336,86.173,40.072
13:42:33:601,10.684,-0.132,0.091,-0.331,25.674,87.017,39.413
13:42:33:627,10.710,-0.120,0.142,-0.266,24.122,88.448,37.846
13:42:33:653,10.736,-0.092,0.212,-0.197,22.840,89.251,36.309
13:42:33:679,10.763,0.026,0.149,-0.051,20.944,89.960,33.298
13:42:33:706,10.789,0.111,0.018,0.061,19.431,90.215,29.917
13:42:33:732,10.815,0.125,-0.109,0.096,18.675,89.761,27.839
13:42:33:758,10.841,0.119,-0.193,0.067,17.856,88.850,25.338
13:42:33:785,10.868,0.070,-0.066,-0.031,17.502,88.311,24.106
13:42:33:811,10.894,0.041,0.008,-0.067,17.217,88.244,22.858
13:42:33:837,10.920,-0.028,0.127,-0.074,17.131,89.062,22.320
13:42:33:863,10.947,-0.043,0.137,-0.056,17.110,91.690,21.775
13:42:33:89,10.973,-0.069,0.024,-0.016,17.076,95.822,21.597
13:42:33:916,11.000,-0.053,-0.058,0.081,16.958,99.472,21.774
13:42:33:942,11.025,-0.012,-0.185,0.138,16.690,105.104,22.335
13:42:33:968,11.051,-0.009,-0.201,0.124,16.401,108.643,22.685
13:42:34:024,11.107,0.029,-0.169,0.216,15.868,112.887,23.075
13:42:34:024,11.107,0.027,-0.138,0.179,15.483,115.951,22.935
13:42:34:076,11.159,0.046,-0.107,0.159,15.306,116.817,22.516
13:42:34:077,11.160,0.079,-0.093,0.126,15.066,117.512,21.546
13:42:34:129,11.212,0.101,-0.099,0.128,14.871,117.712,20.785
13:42:34:129,11.212,0.122,-0.095,0.139,14.433,118.248,19.661
13:42:34:152,11.235,0.178,-0.087,0.148,13.798,119.077,18.676
13:42:34:208,11.291,0.211,-0.103,0.147,13.309,119.750,18.151
13:42:34:208,11.291,0.227,-0.096,0.141,12.528,120.798,17.617
13:42:34:231,11.314,0.291,0.011,0.166,11.989,121.537,17.382
13:42:34:258,11.341,0.283,0.065,0.141,11.249,122.471,17.168
13:42:34:283,11.367,0.255,0.168,0.115,10.847,122.761,17.084
13:42:34:339,11.422,0.260,0.278,0.117,10.344,123.086,17.035
13:42:34:34,11.423,0.244,0.444,0.102,9.930,123.176,16.915
13:42:34:363,11.447,0.244,0.489,0.103,9.794,123.117,16.744
13:42:34:39,11.473,0.230,0.246,0.114,9.804,123.024,16.669
13:42:34:414,11.498,0.227,-0.010,0.148,9.858,123.072,16.949
13:42:34:441,11.524,0.232,-0.196,0.169,10.007,122.447,17.815
13:42:34:468,11.551,0.119,-0.184,0.057,10.594,119.485,18.690
13:42:34:551,11.635,-0.023,-0.068,-0.116,11.510,115.589,18.919
13:42:34:552,11.635,-0.032,0.006,-0.365,13.099,110.424,19.224
13:42:34:553,11.636,-0.028,0.128,-0.031,13.905,109.729,19.783
13:42:34:572,11.655,-0.049,0.192,-0.021,14.611,110.696,20.966
13:42:34:627,11.710,-0.078,0.122,0.210,14.988,112.618,22.129
13:42:34:628,11.711,-0.087,0.056,0.215,15.733,115.398,24.188
13:42:34:651,11.734,-0.109,-0.025,0.162,17.012,116.646,26.415
13:42:34:677,11.760,-0.125,-0.048,0.053,18.089,116.811,27.898
13:42:34:732,11.816,-0.159,-0.059,-0.012,19.733,116.908,30.197
13:42:34:733,11.816,-0.187,-0.076,-0.036,20.724,117.297,31.756
13:42:34:785,11.868,-0.206,-0.106,-0.028,21.978,118.017,33.970
13:42:34:785,11.869,-0.177,-0.133,-0.027,22.980,119.124,35.871
13:42:34:808,11.891,-0.170,-0.165,-0.037,23.574,119.670,36.922
13:42:34:835,11.918,-0.166,-0.193,-0.046,24.320,120.672,38.155
13:42:34:95,12.033,-0.148,-0.193,-0.064,24.695,121.138,38.742
13:42:34:95,12.033,-0.140,-0.184,-0.053,24.662,121.810,39.044
13:42:34:951,12.034,-0.124,-0.143,-0.046,24.097,122.365,38.763
13:42:34:952,12.035,-0.123,-0.120,-0.050,24.057,122.811,38.718
13:42:34:966,12.049,-0.120,-0.097,-0.067,23.920,123.259,38.341
13:42:34:992,12.075,-0.131,-0.026,-0.057,23.739,123.613,37.897
13:42:35:018,12.101,-0.154,0.078,-0.081,23.354,124.099,36.952
13:42:35:045,12.129,-0.190,0.219,-0.084,22.981,124.417,36.081
13:42:35:071,12.154,-0.204,0.288,-0.086,22.264,124.852,34.296
13:42:35:097,12.180,-0.189,0.396,-0.034,21.294,125.424,31.880
13:42:35:18,12.263,-0.118,0.385,-0.006,20.560,125.721,29.927
13:42:35:181,12.264,0.047,0.140,0.047,19.497,125.985,26.848
13:42:35:208,12.291,0.111,-0.076,0.050,18.842,126.136,25.031
13:42:35:209,12.292,0.069,-0.237,0.026,17.930,126.625,22.986
13:42:35:21,12.293,0.035,-0.329,-0.025,17.087,127.512,21.643
13:42:35:257,12.341,0.034,-0.249,-0.009,16.601,128.431,20.996
13:42:35:258,12.341,-0.003,-0.141,-0.004,16.158,130.127,20.091
13:42:35:369,12.452,-0.094,0.026,0.022,16.110,131.627,19.473
13:42:35:369,12.452,-0.129,0.103,0.039,16.289,134.616,18.543
13:42:35:37,12.453,-0.055,0.090,0.132,16.438,137.241,18.035
13:42:35:371,12.454,0.006,0.050,0.142,16.548,141.821,17.505
13:42:35:386,12.469,0.126,-0.086,0.120,16.420,146.267,17.213
13:42:35:579,12.662,0.160,-0.145,0.085,16.258,148.743,17.068
13:42:35:58,12.663,0.151,-0.185,0.076,15.908,151.199,16.741
13:42:35:58,12.664,0.131,-0.180,0.069,15.674,152.275,16.436
13:42:35:581,12.665,0.150,-0.088,0.060,15.314,153.487,15.813
13:42:35:604,12.687,0.156,-0.037,0.033,14.960,154.579,15.072
13:42:35:605,12.688,0.187,-0.046,0.040,14.739,155.498,14.599
13:42:35:606,12.689,0.238,-0.077,0.031,14.358,157.178,14.020
13:42:35:606,12.689,0.280,-0.076,0.014,14.054,158.389,13.719
13:42:35:622,12.705,0.288,-0.071,-0.017,13.516,160.172,13.448
13:42:35:651,12.734,0.297,-0.070,-0.040,12.912,161.657,13.318
13:42:35:677,12.760,0.289,-0.054,-0.058,13.019,162.678,14.276
13:42:35:702,12.785,0.293,-0.012,-0.076,12.862,163.931,15.229
13:42:35:786,12.869,0.300,0.028,-0.087,12.353,164.390,15.263
13:42:35:786,12.869,0.297,0.044,-0.102,11.606,164.740,15.344
13:42:35:787,12.870,0.295,0.149,-0.085,11.138,164.725,15.449
13:42:35:806,12.889,0.285,0.245,-0.087,10.521,164.480,15.611
13:42:35:832,12.915,0.293,0.355,-0.083,10.097,163.764,15.707
13:42:35:86,12.943,0.294,0.288,-0.082,9.990,162.973,15.747
13:42:35:884,12.968,0.243,0.059,-0.049,10.134,161.379,16.049
13:42:35:911,12.994,0.230,-0.032,-0.022,10.431,160.305,16.564
13:42:35:996,13.079,0.134,0.007,0.130,11.197,157.871,17.625
13:42:35:996,13.079,-0.173,0.079,0.097,12.746,152.753,18.331
13:42:35:997,13.080,-0.305,0.036,-0.099,14.186,147.984,18.309
13:42:36:016,13.099,-0.177,0.118,-0.094,15.918,144.379,18.751
13:42:36:042,13.125,-0.062,0.135,0.077,16.733,144.961,19.839
13:42:36:068,13.151,-0.004,0.059,0.205,17.670,147.765,22.357
13:42:36:095,13.178,-0.023,0.005,0.225,18.685,150.846,25.425
13:42:36:122,13.205,-0.063,-0.043,0.186,19.594,152.252,27.524
13:42:36:147,13.230,-0.156,-0.060,0.151,21.297,153.431,30.481
13:42:36:173,13.256,-0.196,-0.053,0.143,22.530,153.754,32.277
13:42:36:2,13.283,-0.242,-0.073,0.136,24.326,154.454,34.735
13:42:36:283,13.367,-0.225,-0.104,0.104,24.305,154.663,35.481
13:42:36:283,13.367,-0.225,-0.157,0.111,25.710,155.390,37.345
13:42:36:305,13.388,-0.195,-0.189,0.110,26.712,156.188,38.792
13:42:36:334,13.417,-0.161,-0.202,0.106,27.210,156.622,39.524
13:42:36:334,13.418,-0.126,-0.218,0.058,27.842,156.977,40.314
13:42:36:359,13.442,-0.133,-0.194,0.044,28.217,157.050,40.666
13:42:36:384,13.467,-0.145,-0.148,0.052,28.563,156.960,40.871
13:42:36:41,13.493,-0.121,-0.117,0.021,28.593,156.922,40.682
13:42:36:436,13.519,-0.099,-0.108,0.017,28.453,156.743,40.355
13:42:36:462,13.545,-0.104,-0.075,0.026,28.014,156.718,39.617
13:42:36:489,13.572,-0.120,0.017,0.045,27.577,156.501,38.927
13:42:36:544,13.627,-0.147,0.101,0.055,26.793,156.308,37.480
13:42:36:544,13.627,-0.193,0.234,0.061,26.211,155.835,36.153
13:42:36:567,13.650,-0.178,0.217,0.047,25.260,155.220,33.703
13:42:36:593,13.677,-0.096,0.167,0.050,24.130,154.798,31.065
13:42:36:62,13.703,-0.060,0.106,0.027,23.292,154.766,29.409
13:42:36:675,13.758,0.001,0.050,0.036,21.949,155.113,27.244
13:42:36:675,13.759,0.008,0.007,0.033,21.113,155.578,26.044
13:42:36:699,13.782,0.036,-0.078,0.036,19.985,156.314,24.548
13:42:36:724,13.808,0.042,-0.132,-0.002,19.112,157.135,23.346
13:42:36:751,13.834,0.031,-0.125,0.016,18.686,157.866,22.702
13:42:36:805,13.888,-0.031,-0.090,0.029,18.262,159.022,21.953
13:42:36:833,13.916,-0.064,0.016,0.061,18.078,160.322,21.609
13:42:36:834,13.917,-0.076,0.056,0.077,17.852,162.828,21.249
13:42:36:856,13.939,-0.061,0.060,0.111,17.558,165.900,20.976
13:42:36:882,13.965,0.002,-0.003,0.101,17.275,168.055,20.840
13:42:36:908,13.992,0.084,-0.092,0.043,16.704,171.264,20.621
13:42:36:934,14.017,0.156,-0.092,0.015,16.310,172.989,20.428
13:42:36:963,14.046,0.122,-0.138,0.001,15.804,174.615,19.953
13:42:36:987,14.071,0.079,-0.151,-0.025,15.486,174.920,19.580
13:42:37:043,14.127,0.122,-0.084,-0.036,14.928,176.169,19.120
13:42:37:043,14.127,0.191,-0.025,-0.036,14.403,177.322,18.654
13:42:37:066,14.149,0.209,-0.032,-0.028,14.149,177.959,18.268
13:42:37:092,14.175,0.210,-0.066,-0.056,13.824,178.182,17.595
13:42:37:176,14.259,0.191,-0.092,-0.098,13.611,178.223,17.162
13:42:37:177,14.260,0.180,-0.118,-0.107,13.191,178.129,16.667
13:42:37:178,14.261,0.213,-0.126,-0.105,12.674,178.716,16.423
13:42:37:197,14.280,0.245,-0.081,-0.111,12.310,179.119,16.335
13:42:37:282,14.366,0.269,0.016,-0.127,11.809,179.540,16.204
13:42:37:282,14.366,0.239,0.055,-0.124,11.530,179.282,16.112
13:42:37:283,14.366,0.228,0.109,-0.108,11.177,179.048,16.026
13:42:37:303,14.386,0.236,0.259,-0.088,10.966,178.882,16.031
13:42:37:392,14.475,0.243,0.334,-0.089,10.682,178.614,16.091
13:42:37:392,14.475,0.286,0.440,-0.073,10.485,177.675,16.087
13:42:37:393,14.476,0.283,0.314,-0.075,10.455,176.899,16.043
13:42:37:394,14.477,0.260,0.078,-0.026,10.563,175.272,16.279
13:42:37:436,14.519,0.275,-0.160,-0.002,10.710,174.288,16.780
13:42:37:46,14.543,-0.145,-0.069,-0.010,12.300,164.661,18.203
13:42:37:515,14.598,-0.236,-0.064,-0.099,13.368,159.536,18.200
13:42:37:516,14.599,0.012,0.205,0.002,14.722,154.304,18.596
13:42:37:569,14.652,-0.015,0.236,0.100,15.503,152.779,19.137
13:42:37:569,14.652,0.014,0.194,0.188,16.795,151.968,20.452
13:42:37:591,14.674,0.016,0.042,0.229,18.345,152.816,22.332
13:42:37:617,14.700,-0.043,-0.046,0.181,19.556,153.218,23.770
13:42:37:643,14.726,-0.106,-0.092,0.185,21.402,154.138,26.205
13:42:37:671,14.755,-0.128,-0.100,0.206,22.509,155.053,28.051
13:42:37:725,14.808,-0.159,-0.094,0.228,23.947,156.629,30.947
13:42:37:726,14.809,-0.177,-0.092,0.225,24.789,157.490,32.784
13:42:37:749,14.832,-0.179,-0.115,0.211,25.943,158.544,35.178
13:42:37:775,14.858,-0.200,-0.162,0.197,27.013,159.045,36.983
13:42:37:801,14.884,-0.210,-0.182,0.192,27.646,159.170,37.854
13:42:37:827,14.910,-0.205,-0.202,0.155,28.396,159.167,38.719
13:42:37:853,14.936,-0.198,-0.199,0.130,28.765,159.066,39.042
13:42:37:879,14.963,-0.182,-0.191,0.099,29.155,158.842,39.255
13:42:37:906,14.989,-0.207,-0.160,0.089,29.390,158.536,39.174
13:42:37:932,15.015,-0.228,-0.127,0.080,29.399,158.340,38.945
13:42:37:958,15.041,-0.238,-0.086,0.056,29.118,158.121,38.337
13:42:38:014,15.098,-0.244,-0.010,0.063,28.681,158.089,37.728
13:42:38:014,15.098,-0.258,0.107,0.064,27.639,158.195,36.434
13:42:38:037,15.120,-0.279,0.231,0.094,26.727,158.261,35.213
13:42:38:064,15.148,-0.235,0.283,0.090,25.088,158.300,32.756
13:42:38:089,15.172,-0.106,0.259,0.055,23.313,158.244,29.667
13:42:38:117,15.200,0.030,0.126,-0.018,22.165,158.069,27.493
13:42:38:142,15.225,0.115,-0.065,-0.045,20.614,157.776,24.611
13:42:38:168,15.251,0.144,-0.162,-0.046,19.690,157.701,23.166
13:42:38:221,15.304,0.150,-0.174,-0.021,18.572,157.749,21.755
13:42:38:279,15.362,0.110,-0.093,-0.014,17.888,157.759,20.875
13:42:38:28,15.363,0.025,-0.018,-0.004,17.673,157.976,20.490
13:42:38:281,15.364,-0.050,0.088,0.012,17.583,159.152,20.159
13:42:38:301,15.384,-0.031,0.095,0.045,17.579,160.749,20.113
13:42:38:326,15.410,0.022,0.044,0.041,17.499,164.313,20.393
13:42:38:382,15.466,0.086,-0.090,0.023,17.229,168.681,21.093
13:42:38:383,15.466,0.117,-0.127,0.015,16.931,171.625,21.727
13:42:38:434,15.517,0.127,-0.169,0.038,16.411,175.293,22.628
13:42:38:434,15.517,0.115,-0.122,0.038,16.057,176.954,23.035
13:42:38:457,15.540,0.086,-0.105,0.027,15.685,178.157,23.182
13:42:38:483,15.566,0.048,-0.050,-0.018,15.408,178.722,23.128
13:42:38:511,15.594,0.105,-0.057,-0.007,14.864,-179.998,23.122
13:42:38:537,15.620,0.137,-0.072,-0.040,14.305,-178.679,23.120
13:42:38:562,15.645,0.134,-0.074,-0.050,13.973,-177.997,23.085
13:42:38:646,15.730,0.131,-0.092,-0.054,13.609,-177.284,23.236
13:42:38:647,15.731,0.128,-0.079,-0.063,13.527,-177.001,23.608
13:42:38:648,15.731,0.118,-0.061,-0.081,13.482,-177.059,23.979
13:42:38:668,15.752,0.098,0.019,-0.114,12.975,-177.469,23.517
13:42:38:694,15.777,0.159,0.067,-0.083,12.600,-177.585,23.288
13:42:38:72,15.803,0.164,0.097,-0.055,12.106,-178.116,22.947
13:42:38:746,15.829,0.178,0.071,-0.019,11.873,-178.716,22.701
13:42:38:772,15.855,0.130,0.154,0.002,11.613,179.640,22.285
13:42:38:798,15.881,0.091,0.224,0.006,11.291,177.410,21.691
13:42:38:853,15.937,0.133,0.356,-0.036,10.988,175.774,21.137
13:42:38:854,15.938,0.237,0.248,0.004,10.608,172.974,20.114
13:42:38:879,15.962,0.248,0.110,0.017,10.539,170.750,19.480
13:42:38:904,15.987,0.200,-0.106,0.043,10.693,167.128,18.970
13:42:38:93,16.013,0.121,-0.166,0.011,10.947,164.478,18.918
13:42:39:014,16.097,0.088,-0.092,0.081,11.651,159.709,18.880
13:42:39:015,16.098,-0.090,0.107,0.053,12.944,153.492,18.669
13:42:39:016,16.099,-0.142,0.152,0.023,13.898,150.214,18.701
13:42:39:064,16.147,-0.023,0.126,0.159,15.135,148.224,19.431
13:42:39:065,16.148,-0.020,0.067,0.206,15.955,148.081,20.310
13:42:39:087,16.170,-0.017,0.008,0.248,17.432,148.396,22.045
13:42:39:114,16.197,-0.109,-0.034,0.248,19.200,148.437,24.000
13:42:39:14,16.223,-0.138,-0.048,0.235,20.431,148.526,25.386
13:42:39:165,16.249,-0.172,-0.070,0.225,22.257,148.798,27.602
13:42:39:192,16.275,-0.183,-0.080,0.213,22.806,149.143,29.042
13:42:39:247,16.330,-0.202,-0.081,0.202,22.524,149.581,30.915
13:42:39:248,16.331,-0.215,-0.073,0.168,22.044,149.927,32.441
13:42:39:272,16.355,-0.211,-0.095,0.134,21.633,150.065,33.242
13:42:39:298,16.381,-0.211,-0.135,0.107,21.984,150.451,34.719
13:42:39:323,16.406,-0.211,-0.170,0.091,22.432,150.781,35.797
13:42:39:35,16.433,-0.199,-0.172,0.070,22.824,151.364,37.302
13:42:39:406,16.489,-0.174,-0.174,0.034,22.931,151.828,38.555
13:42:39:406,16.489,-0.168,-0.173,0.015,22.902,151.981,39.175
13:42:39:428,16.512,-0.156,-0.175,-0.015,22.771,151.936,39.717
13:42:39:485,16.568,-0.146,-0.169,-0.048,22.624,151.776,39.801
13:42:39:485,16.568,-0.140,-0.171,-0.069,22.292,151.386,39.488
13:42:39:507,16.590,-0.158,-0.115,-0.067,21.918,151.141,39.009
13:42:39:533,16.616,-0.169,-0.010,-0.087,21.064,150.916,37.832
13:42:39:586,16.669,-0.199,0.127,-0.081,19.985,150.717,36.004
13:42:39:646,16.729,-0.247,0.268,-0.083,19.189,150.556,34.350
13:42:39:646,16.729,-0.272,0.495,-0.083,17.821,150.465,31.203
13:42:39:646,16.729,-0.190,0.528,-0.076,16.778,150.489,28.734
13:42:39:667,16.750,0.036,0.207,-0.077,15.183,150.859,24.957
13:42:39:692,16.776,0.239,-0.100,-0.063,13.632,151.906,21.700
13:42:39:717,16.800,0.255,-0.170,-0.046,12.733,152.465,19.999
13:42:39:776,16.859,0.217,-0.217,-0.030,11.697,153.020,18.154
13:42:39:777,16.860,0.159,-0.085,-0.028,11.285,153.237,17.328
13:42:39:777,16.860,0.102,-0.001,-0.053,11.066,153.753,16.417
13:42:39:797,16.880,0.097,0.144,-0.065,11.385,155.417,15.723
13:42:39:902,16.986,0.058,0.110,-0.028,11.797,157.468,15.408
13:42:39:935,17.018,0.168,0.023,0.063,12.330,162.305,15.325
13:42:39:936,17.019,0.210,-0.102,0.078,12.618,166.117,15.526
13:42:39:936,17.019,0.224,-0.167,0.088,12.838,171.194,16.074
13:42:39:953,17.037,0.236,-0.164,0.081,12.898,173.925,16.544
13:42:40:013,17.096,0.167,-0.153,0.061,12.967,176.398,17.241
13:42:40:013,17.096,0.087,-0.144,0.010,13.041,177.587,17.826
13:42:40:013,17.097,0.073,-0.149,-0.006,13.028,178.207,18.150
13:42:40:033,17.116,0.037,-0.129,-0.044,12.842,179.258,18.566
13:42:40:06,17.143,0.088,-0.091,-0.046,12.590,-179.612,18.814
13:42:40:085,17.168,0.136,-0.075,-0.056,12.063,-177.659,19.121
13:42:40:111,17.194,0.169,-0.060,-0.082,11.462,-175.765,19.296
13:42:40:137,17.220,0.175,-0.043,-0.116,11.042,-175.031,19.266
13:42:40:164,17.247,0.152,-0.041,-0.154,10.431,-174.567,19.052
13:42:40:191,17.274,0.153,-0.038,-0.177,10.016,-174.522,18.846
13:42:40:216,17.299,0.173,-0.017,-0.197,9.380,-174.536,18.514
13:42:40:242,17.325,0.226,0.014,-0.189,8.965,-174.809,18.238
13:42:40:268,17.352,0.217,0.009,-0.200,8.359,-175.718,17.738
13:42:40:295,17.378,0.287,0.001,-0.155,7.732,-176.915,17.307
13:42:40:321,17.404,0.273,0.123,-0.152,7.360,-178.167,16.994
13:42:40:404,17.487,0.214,0.228,-0.164,6.937,179.297,16.480
13:42:40:404,17.487,0.160,0.321,-0.210,6.785,177.529,16.141
13:42:40:488,17.571,0.295,0.231,-0.026,6.764,175.479,15.854
13:42:40:488,17.571,0.222,0.080,0.030,7.112,172.989,15.912
13:42:40:489,17.572,0.185,0.028,0.040,7.470,171.032,16.168
13:42:40:489,17.572,0.134,-0.082,0.030,8.089,167.900,16.988
13:42:40:505,17.588,0.068,-0.148,0.017,8.508,165.966,17.799
13:42:40:531,17.614,0.097,-0.147,0.050,9.059,163.352,19.428
13:42:40:675,17.758,0.119,-0.005,0.115,9.484,161.924,21.345
13:42:40:675,17.758,0.132,0.076,0.125,9.945,160.705,22.531
13:42:40:675,17.758,0.062,0.107,0.142,11.155,158.041,23.922
13:42:40:675,17.758,-0.005,0.135,0.151,12.260,155.754,24.561
13:42:40:691,17.774,-0.081,0.095,0.132,14.238,152.657,25.173
13:42:40:692,17.775,-0.109,0.064,0.121,15.617,150.781,25.537
13:42:40:744,17.827,-0.154,-0.008,0.116,17.520,149.335,26.398
13:42:40:745,17.828,-0.157,-0.047,0.130,19.017,149.349,27.903
13:42:40:767,17.850,-0.148,-0.047,0.148,19.767,149.999,29.226
13:42:40:793,17.877,-0.148,-0.045,0.149,20.652,151.169,31.405
13:42:40:848,17.932,-0.153,-0.067,0.133,21.211,151.814,32.858
13:42:40:849,17.933,-0.172,-0.088,0.101,22.117,152.428,34.888
13:42:40:872,17.955,-0.208,-0.128,0.067,23.000,152.831,36.697
13:42:40:9,17.983,-0.217,-0.143,0.043,23.448,153.268,37.778
13:42:40:925,18.008,-0.191,-0.172,0.011,23.774,153.975,39.170
13:42:40:951,18.034,-0.144,-0.206,0.010,23.758,154.591,39.933
13:42:41:035,18.119,-0.116,-0.224,-0.006,23.531,155.228,40.716
13:42:41:036,18.119,-0.117,-0.204,-0.014,23.240,155.482,41.023
13:42:41:037,18.120,-0.121,-0.173,-0.039,23.061,155.436,40.919
13:42:41:197,18.280,-0.144,-0.098,-0.064,22.830,155.096,40.261
13:42:41:197,18.280,-0.155,-0.054,-0.077,22.665,154.839,39.520
13:42:41:198,18.281,-0.230,0.052,-0.049,22.210,154.940,38.040
13:42:41:199,18.282,-0.279,0.251,-0.047,21.633,155.155,36.731
13:42:41:248,18.331,-0.323,0.404,-0.006,20.400,155.918,34.268
13:42:41:249,18.332,-0.238,0.528,0.026,18.743,157.155,31.232
13:42:41:25,18.333,-0.081,0.358,-0.011,17.595,158.074,29.033
13:42:41:251,18.334,0.125,0.021,-0.059,16.007,159.780,26.023
13:42:41:325,18.408,0.186,-0.174,-0.064,15.111,160.703,24.420
13:42:41:325,18.408,0.177,-0.228,-0.062,14.062,161.859,22.677
13:42:41:326,18.409,0.104,-0.221,-0.024,13.400,162.846,21.612
13:42:41:404,18.487,0.075,-0.162,-0.017,13.167,163.609,21.151
13:42:41:404,18.487,0.003,0.001,-0.015,13.112,165.113,20.522
13:42:41:405,18.488,-0.021,0.103,0.017,13.168,166.581,20.057
13:42:41:423,18.507,0.021,0.090,0.063,13.280,169.657,19.312
13:42:41:45,18.533,0.111,-0.033,0.051,13.289,173.741,18.670
13:42:41:477,18.560,0.154,-0.127,0.030,13.223,176.634,18.413
13:42:41:532,18.615,0.196,-0.141,-0.005,13.039,-179.333,18.288
13:42:41:533,18.616,0.144,-0.153,-0.010,12.941,-177.262,18.330
13:42:41:582,18.665,0.100,-0.119,-0.018,12.830,-174.949,18.469
13:42:41:609,18.692,0.038,-0.119,-0.033,12.744,-172.987,18.620
13:42:41:636,18.720,0.007,-0.087,-0.049,12.615,-171.575,18.701
13:42:41:637,18.720,0.099,-0.084,-0.084,12.250,-168.671,18.887
13:42:41:66,18.743,0.174,-0.101,-0.101,11.943,-166.521,18.975
13:42:41:716,18.799,0.182,-0.117,-0.121,11.508,-163.804,19.002
13:42:41:716,18.799,0.185,-0.107,-0.131,11.231,-162.374,18.952
13:42:41:738,18.821,0.170,-0.088,-0.163,10.994,-160.841,19.215
13:42:41:764,18.847,0.143,-0.091,-0.170,10.730,-160.078,19.370
13:42:41:791,18.874,0.131,-0.081,-0.182,10.338,-159.785,19.216
13:42:41:817,18.900,0.162,-0.013,-0.206,10.133,-159.108,19.793
13:42:41:844,18.927,0.165,0.029,-0.223,9.596,-158.821,19.723
13:42:41:87,18.953,0.133,0.158,-0.214,8.830,-158.536,19.680
13:42:42:011,19.094,0.148,0.436,-0.229,8.206,-158.328,19.618
13:42:42:012,19.095,0.084,0.523,-0.229,7.968,-158.672,19.436
13:42:42:013,19.096,-0.088,0.346,-0.199,7.954,-159.200,19.094
13:42:42:013,19.096,0.152,-0.050,-0.137,8.051,-158.815,19.178
13:42:42:059,19.143,0.163,-0.161,-0.159,8.292,-157.986,19.873
13:42:42:06,19.144,0.000,-0.181,-0.096,8.914,-158.997,20.976
13:42:42:061,19.144,-0.090,-0.134,-0.053,9.670,-160.427,21.845
13:42:42:112,19.195,-0.060,0.040,-0.037,10.755,-161.956,23.583
13:42:42:113,19.196,0.022,0.149,0.026,11.146,-161.400,25.083
13:42:42:114,19.197,0.047,0.214,0.092,11.652,-160.059,27.268
13:42:42:133,19.216,0.031,0.186,0.124,12.412,-159.384,28.507
13:42:42:188,19.271,-0.052,0.042,0.164,13.946,-159.127,30.159
13:42:42:188,19.272,-0.069,-0.043,0.144,15.406,-158.591,31.771
13:42:42:269,19.352,-0.061,-0.076,0.141,16.179,-157.989,32.908
13:42:42:27,19.353,-0.056,-0.093,0.147,17.135,-156.985,34.697
13:42:42:271,19.354,-0.078,-0.115,0.161,17.734,-156.449,35.884
13:42:42:343,19.426,-0.097,-0.115,0.160,18.625,-155.785,37.512
13:42:42:374,19.458,-0.110,-0.136,0.156,18.735,-155.447,38.106
13:42:42:375,19.459,-0.104,-0.132,0.141,18.514,-154.958,38.017
13:42:42:376,19.459,-0.105,-0.130,0.108,18.109,-154.642,37.529
13:42:42:395,19.478,-0.081,-0.135,0.086,18.227,-154.200,37.557
13:42:42:421,19.504,-0.077,-0.136,0.071,18.230,-153.558,37.283
13:42:42:448,19.531,-0.064,-0.134,0.053,18.141,-153.088,36.938
13:42:42:503,19.587,-0.062,-0.116,0.031,17.712,-152.443,35.860
13:42:42:503,19.587,-0.052,-0.084,0.025,17.368,-151.550,34.919
13:42:42:526,19.609,-0.049,-0.038,0.023,17.132,-151.107,34.131
13:42:42:552,19.635,-0.041,0.016,0.044,16.789,-150.518,32.652
13:42:42:58,19.663,-0.034,0.054,0.040,16.565,-150.156,31.439
13:42:42:605,19.688,-0.035,0.187,0.084,16.215,-149.634,29.301
13:42:42:631,19.715,-0.035,0.393,0.110,15.794,-149.064,26.743
13:42:42:657,19.740,-0.010,0.395,0.096,15.469,-148.603,24.870
13:42:42:713,19.796,0.064,0.326,-0.020,14.862,-147.466,22.019
13:42:42:713,19.797,0.112,0.143,-0.144,14.425,-146.697,20.247
13:42:42:736,19.819,0.123,0.016,-0.190,13.832,-145.473,18.029
13:42:42:764,19.847,0.125,-0.180,-0.171,13.415,-144.336,16.565
13:42:42:788,19.871,0.116,-0.225,-0.138,13.271,-143.148,16.015
13:42:42:815,19.898,0.100,-0.228,-0.083,13.255,-141.389,15.737
13:42:42:841,19.924,0.085,-0.189,-0.035,13.370,-139.756,15.790
13:42:42:867,19.950,0.119,-0.043,0.005,13.680,-136.660,15.955
13:42:42:896,19.979,0.157,0.033,0.055,13.998,-134.014,16.046
13:42:42:949,20.032,0.167,0.013,0.069,14.580,-129.724,16.178
13:42:42:949,20.032,0.176,-0.061,0.013,15.042,-124.723,16.483
13:42:42:972,20.055,0.164,-0.115,-0.026,15.154,-121.373,16.852
13:42:43:135,20.218,0.138,-0.203,-0.096,14.972,-116.638,17.531
13:42:43:135,20.218,0.121,-0.236,-0.135,14.701,-114.377,17.891
13:42:43:191,20.275,0.083,-0.228,-0.128,14.236,-112.132,18.080
13:42:43:193,20.276,0.009,-0.176,-0.120,13.742,-111.211,17.809
13:42:43:272,20.355,-0.009,-0.025,-0.333,11.932,-105.287,17.165
13:42:43:272,20.355,-0.018,-0.079,-0.391,11.111,-102.187,16.936
13:42:43:272,20.356,-0.092,-0.158,-0.362,10.501,-100.456,16.416
13:42:43:273,20.356,-0.165,-0.150,-0.343,10.104,-100.455,16.022
13:42:43:288,20.371,-0.242,-0.005,-0.331,9.421,-100.607,15.610
13:42:43:346,20.429,-0.160,0.110,-0.440,8.916,-100.379,15.650
13:42:43:346,20.429,-0.051,0.313,-0.505,8.296,-99.690,15.975
13:42:43:347,20.430,-0.001,0.544,-0.508,8.185,-100.216,16.092
13:42:43:366,20.449,-0.022,0.659,-0.351,8.637,-102.842,15.875
13:42:43:393,20.476,-0.073,0.362,-0.158,9.576,-107.020,15.428
13:42:43:418,20.502,0.072,0.007,-0.221,10.202,-109.155,15.357
13:42:43:552,20.636,0.098,-0.276,-0.268,11.224,-112.446,15.771
13:42:43:588,20.671,-0.052,-0.300,-0.041,11.976,-115.726,16.258
13:42:43:603,20.686,0.191,0.288,0.050,16.734,-126.320,23.350
13:42:43:716,20.800,0.157,0.242,0.149,18.397,-128.614,23.936
13:42:43:717,20.801,0.092,0.014,0.250,21.121,-131.387,24.428
13:42:43:718,20.801,0.085,-0.073,0.254,22.788,-132.113,24.898
13:42:43:795,20.878,0.215,-0.198,0.208,25.827,-127.611,29.175
13:42:43:796,20.879,0.254,-0.192,0.192,26.138,-125.109,31.258
13:42:43:797,20.880,0.265,-0.170,0.185,26.292,-121.925,34.237
13:42:43:798,20.881,0.223,-0.178,0.194,26.393,-120.768,35.872
13:42:43:812,20.895,0.187,-0.195,0.201,26.741,-120.234,37.631
13:42:43:865,20.948,0.122,-0.221,0.214,27.195,-121.044,38.568
13:42:43:894,20.977,0.087,-0.237,0.219,27.431,-121.763,38.809
13:42:43:894,20.977,0.051,-0.232,0.199,27.553,-123.062,38.693
13:42:43:946,21.029,0.018,-0.217,0.184,27.464,-123.807,38.356
13:42:43:947,21.030,0.006,-0.144,0.185,27.029,-124.735,37.533
13:42:44:,21.083,-0.005,-0.042,0.216,26.260,-125.003,36.338
13:42:44:,21.083,-0.008,0.017,0.224,25.583,-125.166,35.322
13:42:44:051,21.134,-0.010,0.155,0.268,24.351,-124.964,33.456
13:42:44:052,21.135,-0.011,0.267,0.266,23.341,-124.670,31.948
13:42:44:077,21.160,0.003,0.361,0.226,21.560,-123.573,29.257
13:42:44:102,21.185,0.018,0.397,0.075,20.229,-122.735,27.220
13:42:44:127,21.210,0.006,0.313,-0.047,18.203,-121.038,23.934
13:42:44:154,21.237,-0.030,0.072,-0.246,16.499,-119.439,20.985
13:42:44:18,21.263,-0.037,-0.098,-0.232,15.588,-118.849,19.477
13:42:44:206,21.289,-0.007,-0.202,-0.191,14.581,-117.674,18.068
13:42:44:262,21.345,-0.013,-0.191,-0.159,14.151,-116.949,17.645
13:42:44:262,21.345,-0.021,-0.092,-0.095,13.838,-115.222,17.517
13:42:44:318,21.401,0.028,0.063,-0.028,13.905,-112.499,17.629
13:42:44:318,21.401,0.058,0.103,-0.009,14.105,-109.811,17.732
13:42:44:318,21.402,0.132,0.075,-0.022,14.474,-104.955,17.962
13:42:44:337,21.420,0.140,-0.015,-0.080,14.642,-101.096,18.223
13:42:44:392,21.475,0.110,-0.115,-0.138,14.675,-95.232,18.849
13:42:44:393,21.476,0.085,-0.186,-0.207,14.414,-89.950,19.556
13:42:44:473,21.556,0.072,-0.180,-0.230,14.183,-87.571,19.910
13:42:44:474,21.557,0.038,-0.138,-0.205,13.913,-85.239,20.034
13:42:44:498,21.581,0.013,-0.092,-0.158,13.777,-84.886,19.851
13:42:44:498,21.581,-0.009,-0.086,-0.151,13.587,-84.493,19.310
13:42:44:522,21.605,-0.031,-0.105,-0.164,13.404,-84.613,18.878
13:42:44:547,21.630,-0.052,-0.111,-0.195,12.976,-84.309,18.282
13:42:44:632,21.716,-0.105,-0.137,-0.232,12.359,-84.163,17.775
13:42:44:633,21.716,-0.131,-0.139,-0.246,11.901,-83.956,17.495
13:42:44:633,21.716,-0.205,-0.088,-0.193,11.263,-84.322,17.087
13:42:44:71,21.793,-0.273,0.041,-0.129,10.876,-84.615,16.879
13:42:44:711,21.794,-0.238,0.090,-0.228,10.337,-84.341,16.928
13:42:44:712,21.795,-0.152,0.161,-0.260,9.909,-83.403,17.344
13:42:44:731,21.814,-0.082,0.296,-0.408,9.739,-83.124,17.693
13:42:44:757,21.841,-0.072,0.427,-0.281,9.845,-84.513,17.960
13:42:44:785,21.868,-0.183,0.495,-0.088,10.126,-86.384,17.882
13:42:44:81,21.893,-0.075,0.365,-0.079,10.505,-88.180,17.717
13:42:44:866,21.949,0.015,-0.044,-0.326,10.816,-88.491,17.884
13:42:44:866,21.949,0.006,-0.177,-0.209,11.547,-91.118,18.149
13:42:44:888,21.971,-0.026,-0.241,-0.054,12.588,-95.404,18.675
13:42:44:916,21.999,0.014,-0.176,-0.013,13.342,-98.325,19.318
13:42:44:942,22.025,0.027,-0.015,0.066,14.369,-101.521,20.651
13:42:44:967,22.050,0.194,0.185,-0.060,14.911,-102.681,21.687
13:42:44:993,22.077,0.216,0.179,-0.033,15.959,-104.271,23.062
13:42:45:02,22.103,0.232,0.059,-0.015,17.586,-106.141,24.041
13:42:45:046,22.129,0.230,-0.022,0.055,18.925,-107.510,24.552
13:42:45:129,22.212,0.208,-0.110,0.096,20.969,-108.915,25.468
13:42:45:129,22.212,0.199,-0.137,0.110,22.222,-109.176,26.378
13:42:45:154,22.237,0.232,-0.143,0.118,23.812,-108.591,28.266
13:42:45:154,22.238,0.272,-0.117,0.144,25.068,-107.384,30.529
13:42:45:177,22.260,0.291,-0.100,0.167,25.786,-106.548,32.054
13:42:45:204,22.287,0.260,-0.086,0.195,26.729,-105.542,34.133
13:42:45:23,22.313,0.230,-0.118,0.213,27.253,-105.035,35.322
13:42:45:256,22.339,0.203,-0.140,0.206,26.344,-105.123,36.218
13:42:45:282,22.365,0.170,-0.152,0.200,26.463,-104.665,37.013
13:42:45:31,22.393,0.131,-0.163,0.161,26.359,-104.426,37.923
13:42:45:335,22.418,0.093,-0.170,0.142,26.088,-104.144,38.444
13:42:45:361,22.444,0.075,-0.164,0.144,25.881,-104.487,38.571
13:42:45:416,22.499,0.049,-0.132,0.167,25.528,-104.696,38.416
13:42:45:417,22.500,0.035,-0.109,0.187,25.232,-105.074,38.065
13:42:45:469,22.552,0.028,-0.086,0.194,24.593,-105.229,37.222
13:42:45:47,22.553,0.065,0.091,0.257,23.557,-105.186,35.950
13:42:45:493,22.576,0.065,0.217,0.264,22.651,-104.903,34.747
13:42:45:548,22.631,0.083,0.317,0.242,21.034,-104.515,32.272
13:42:45:548,22.631,0.059,0.412,0.162,19.850,-104.198,30.171
13:42:45:571,22.654,-0.045,0.200,-0.033,18.164,-104.013,26.605
13:42:45:597,22.681,-0.084,0.053,-0.120,17.156,-103.929,24.368
13:42:45:682,22.765,-0.109,-0.150,-0.132,15.811,-103.605,21.743
13:42:45:683,22.766,-0.053,-0.150,-0.126,14.654,-102.898,20.118
13:42:45:683,22.766,-0.026,-0.106,-0.124,14.091,-102.249,19.467
13:42:45:702,22.785,-0.028,-0.045,-0.079,13.623,-101.091,18.854
13:42:45:728,22.811,0.006,0.034,-0.011,13.581,-99.882,18.558
13:42:45:755,22.838,0.020,0.082,0.033,13.829,-97.175,18.212
13:42:45:781,22.864,0.073,0.075,-0.009,14.258,-92.748,18.181
13:42:45:836,22.920,0.082,-0.015,-0.064,14.480,-88.806,18.436
13:42:45:837,22.920,0.082,-0.065,-0.165,14.474,-82.231,19.173
13:42:45:861,22.944,0.046,-0.090,-0.225,14.292,-78.045,19.760
13:42:45:887,22.970,0.030,-0.111,-0.226,14.010,-73.456,20.445
13:42:45:912,22.996,0.019,-0.143,-0.149,13.902,-71.146,20.705
13:42:45:938,23.021,0.047,-0.136,-0.095,13.887,-70.610,20.637
13:42:45:965,23.048,0.012,-0.099,-0.059,13.835,-70.270,20.346
13:42:45:991,23.074,-0.039,-0.039,-0.001,13.705,-69.980,20.102
13:42:46:019,23.102,-0.084,-0.023,-0.050,13.247,-68.387,19.964
13:42:46:043,23.127,-0.119,-0.036,-0.158,12.559,-65.705,20.064
13:42:46:07,23.153,-0.153,-0.073,-0.164,12.179,-64.299,20.046
13:42:46:096,23.179,-0.180,-0.106,-0.075,11.860,-63.534,19.697
13:42:46:123,23.206,-0.208,-0.106,-0.044,11.737,-63.768,19.277
13:42:46:148,23.232,-0.217,-0.077,0.009,11.533,-64.510,18.522
13:42:46:204,23.287,-0.209,-0.006,-0.136,11.154,-64.689,17.994
13:42:46:205,23.288,-0.223,0.029,-0.203,10.893,-64.708,17.831
13:42:46:228,23.311,-0.185,0.111,-0.207,10.585,-65.120,17.876
13:42:46:254,23.337,-0.165,0.224,-0.228,10.472,-65.615,18.035
13:42:46:279,23.363,-0.090,0.337,-0.161,10.502,-67.470,18.252
13:42:46:306,23.389,-0.121,0.346,-0.037,10.633,-68.533,18.370
13:42:46:334,23.417,-0.066,0.123,-0.081,10.891,-69.590,18.688
13:42:46:359,23.442,-0.090,-0.061,-0.229,11.312,-70.399,19.312
13:42:46:472,23.556,-0.075,-0.225,-0.079,11.717,-71.749,19.814
13:42:46:474,23.557,-0.081,-0.212,-0.014,12.366,-74.082,20.891
13:42:46:474,23.558,-0.044,-0.132,-0.117,12.799,-75.258,21.848
13:42:46:475,23.558,0.001,-0.011,-0.048,13.557,-77.112,23.365
13:42:46:49,23.573,0.070,0.193,-0.081,14.703,-79.158,24.729
13:42:46:516,23.599,0.092,0.236,-0.029,15.751,-80.917,25.392
13:42:46:542,23.626,0.153,0.207,0.008,17.646,-83.366,26.098
13:42:46:628,23.711,0.181,0.115,0.066,18.988,-84.606,26.529
13:42:46:628,23.711,0.197,0.019,0.097,20.892,-85.291,27.489
13:42:46:629,23.712,0.180,-0.065,0.098,22.383,-84.327,29.148
13:42:46:65,23.733,0.203,-0.100,0.062,23.103,-83.012,30.649
13:42:46:651,23.734,0.229,-0.111,0.033,23.832,-80.620,33.205
13:42:46:732,23.815,0.240,-0.112,0.054,24.193,-79.186,34.910
13:42:46:733,23.816,0.226,-0.125,0.067,24.758,-77.605,37.166
13:42:46:733,23.817,0.213,-0.165,0.095,25.403,-76.782,38.848
13:42:46:81,23.894,0.211,-0.182,0.111,25.765,-76.420,39.627
13:42:46:811,23.894,0.189,-0.215,0.117,26.032,-75.929,40.314
13:42:46:812,23.895,0.147,-0.217,0.085,25.999,-75.302,40.477
13:42:46:86,23.943,0.129,-0.203,0.078,25.696,-74.913,40.325
13:42:46:861,23.944,0.130,-0.167,0.076,25.386,-74.654,39.963
13:42:46:884,23.967,0.105,-0.136,0.077,24.815,-74.535,39.082
13:42:46:91,23.993,0.088,-0.109,0.073,24.111,-74.451,37.813
13:42:46:936,24.020,0.091,-0.061,0.071,23.567,-74.475,36.766
13:42:46:962,24.045,0.114,0.014,0.061,22.646,-74.379,34.864
13:42:46:989,24.072,0.111,0.058,0.057,21.983,-74.407,33.381
13:42:47:015,24.098,0.117,0.153,0.038,20.943,-74.423,30.872
13:42:47:041,24.124,0.113,0.327,0.016,19.886,-74.226,28.037
13:42:47:069,24.152,0.099,0.344,-0.006,19.219,-74.178,26.047
13:42:47:095,24.178,0.063,0.378,-0.052,18.227,-73.760,23.144
13:42:47:119,24.203,-0.034,0.283,-0.088,17.592,-73.211,21.395
13:42:47:146,24.229,-0.106,0.077,-0.102,16.760,-71.855,19.296
13:42:47:172,24.256,-0.111,-0.106,-0.115,16.127,-69.790,18.170
13:42:47:198,24.281,-0.092,-0.205,-0.098,15.847,-67.825,17.979
13:42:47:225,24.308,-0.036,-0.230,-0.074,15.612,-64.612,18.389
13:42:47:251,24.334,-0.001,-0.195,-0.057,15.583,-61.869,18.954
13:42:47:277,24.360,0.062,-0.084,-0.055,15.709,-57.581,19.922
13:42:47:303,24.387,0.089,-0.005,-0.060,15.901,-54.320,20.515
13:42:47:33,24.413,0.168,0.053,-0.064,16.280,-49.312,21.290
13:42:47:357,24.441,0.129,0.024,-0.092,16.522,-43.840,21.993
13:42:47:382,24.465,0.075,-0.059,-0.088,16.500,-40.237,22.474
13:42:47:409,24.492,0.000,-0.137,-0.070,16.156,-35.252,23.126
13:42:47:438,24.521,-0.064,-0.196,-0.063,15.840,-32.579,23.423
13:42:47:461,24.544,-0.056,-0.171,-0.019,15.419,-29.891,23.491
13:42:47:513,24.596,-0.064,-0.052,0.013,14.946,-27.546,22.681
13:42:47:539,24.623,-0.113,-0.025,0.014,14.492,-25.762,22.030
13:42:47:566,24.649,-0.188,-0.014,-0.078,13.964,-23.759,21.796
13:42:47:622,24.705,-0.289,-0.035,-0.092,13.010,-20.346,21.549
13:42:47:622,24.705,-0.304,-0.073,-0.055,12.501,-18.607,21.285
13:42:47:646,24.729,-0.291,-0.102,-0.002,11.981,-17.448,20.684
13:42:47:672,24.756,-0.284,-0.077,0.056,11.541,-17.455,19.990
13:42:47:698,24.781,-0.270,-0.038,0.128,11.191,-17.585,19.596
13:42:47:725,24.808,-0.347,0.034,0.076,10.498,-17.337,19.362
13:42:47:75,24.833,-0.337,0.034,0.067,9.997,-16.923,19.501
13:42:47:776,24.859,-0.321,0.177,0.015,9.292,-16.437,20.061
13:42:47:802,24.885,-0.256,0.297,0.063,8.913,-16.809,20.653
13:42:47:828,24.911,-0.168,0.390,0.145,8.914,-17.955,20.895
13:42:47:855,24.938,0.053,0.325,0.326,9.196,-19.758,20.984
13:42:47:881,24.964,-0.286,-0.019,-0.118,9.418,-19.871,21.201
13:42:47:908,24.991,-0.225,-0.130,-0.106,10.212,-20.888,21.694
13:42:47:934,25.017,-0.041,-0.225,-0.061,11.766,-24.733,22.202
13:42:47:96,25.043,0.139,-0.149,0.104,12.903,-28.103,22.690
13:42:47:986,25.069,0.012,0.074,-0.093,14.240,-31.079,24.001
13:42:48:041,25.124,0.124,0.203,-0.072,15.067,-32.485,24.988
13:42:48:042,25.125,0.093,0.205,-0.136,16.543,-33.872,26.313
13:42:48:066,25.149,0.163,0.015,-0.110,17.659,-34.494,27.125
13:42:48:123,25.206,0.174,-0.054,-0.096,19.327,-34.581,28.517
13:42:48:123,25.206,0.172,-0.105,-0.092,20.700,-33.538,30.387
13:42:48:143,25.227,0.184,-0.108,-0.113,21.404,-32.398,31.878
13:42:48:17,25.253,0.195,-0.086,-0.132,22.169,-30.537,34.200
13:42:48:225,25.308,0.185,-0.109,-0.125,22.572,-29.433,35.663
13:42:48:226,25.309,0.176,-0.133,-0.104,23.159,-28.376,37.529
13:42:48:249,25.332,0.196,-0.155,-0.077,23.710,-27.836,38.928
13:42:48:275,25.359,0.194,-0.174,-0.062,24.005,-27.685,39.593
13:42:48:301,25.384,0.173,-0.181,-0.035,24.251,-27.560,40.166
13:42:48:327,25.410,0.163,-0.167,-0.026,24.305,-27.669,40.270
13:42:48:354,25.437,0.156,-0.149,-0.003,24.235,-27.819,40.034
13:42:48:381,25.464,0.138,-0.125,0.015,23.989,-28.035,39.411
13:42:48:406,25.490,0.124,-0.095,0.023,23.710,-28.120,38.819
13:42:48:433,25.516,0.132,-0.021,0.015,23.168,-28.303,37.703
13:42:48:458,25.542,0.135,0.014,0.018,22.763,-28.299,36.792
13:42:48:515,25.598,0.155,0.086,0.003,22.103,-28.296,35.168
13:42:48:515,25.598,0.202,0.237,0.002,21.595,-28.178,33.889
13:42:48:537,25.621,0.208,0.319,-0.005,20.728,-27.923,31.686
13:42:48:563,25.646,0.134,0.383,-0.013,19.666,-27.369,29.267
13:42:48:619,25.702,0.017,0.298,0.002,18.883,-26.730,27.629
13:42:48:62,25.703,-0.107,0.073,0.034,17.773,-26.062,25.442
13:42:48:643,25.726,-0.137,-0.206,0.020,17.146,-25.303,24.414
13:42:48:668,25.751,-0.127,-0.278,0.013,16.417,-24.261,23.638
13:42:48:694,25.778,-0.079,-0.250,0.008,15.974,-23.156,23.584
13:42:48:721,25.804,-0.037,-0.175,0.016,15.885,-22.381,23.723
13:42:48:776,25.859,0.054,-0.015,-0.024,16.023,-20.931,23.865
13:42:48:777,25.860,0.123,0.078,-0.050,16.251,-19.666,23.808
13:42:48:8,25.883,0.097,0.049,-0.099,16.551,-16.687,23.643
13:42:48:826,25.910,0.004,-0.044,-0.096,16.569,-12.500,23.658
13:42:48:852,25.935,-0.069,-0.112,-0.090,16.337,-9.483,23.818
13:42:48:878,25.962,-0.140,-0.143,-0.084,15.775,-5.515,24.148
13:42:48:905,25.988,-0.134,-0.127,-0.089,15.420,-3.832,24.310
13:42:48:934,26.017,-0.096,-0.117,-0.062,15.087,-3.001,24.323
13:42:48:934,26.018,-0.023,-0.097,-0.005,14.895,-3.173,24.067
13:42:48:986,26.069,0.042,-0.084,0.033,14.707,-3.533,23.874
13:42:48:987,26.070,-0.066,-0.024,0.044,14.111,-2.545,23.769
13:42:49:039,26.122,-0.145,-0.061,0.045,13.611,-1.583,23.778
13:42:49:04,26.123,-0.155,-0.087,0.068,12.873,-0.114,23.787
13:42:49:064,26.147,-0.168,-0.083,0.095,12.440,0.373,23.721
13:42:49:089,26.172,-0.115,-0.072,0.123,11.904,0.445,23.479
13:42:49:115,26.198,-0.072,-0.003,0.174,11.458,-0.079,23.125
13:42:49:141,26.224,-0.110,0.035,0.177,11.172,-0.408,22.910
13:42:49:167,26.250,-0.139,0.093,0.140,10.734,-0.947,22.704
13:42:49:193,26.276,-0.172,0.120,0.114,10.456,-1.075,22.768
13:42:49:219,26.303,-0.153,0.209,0.015,10.133,-1.767,23.058
13:42:49:246,26.329,-0.033,0.217,0.067,10.098,-3.120,23.338
13:42:49:273,26.356,0.014,0.275,0.104,10.117,-3.956,23.459
13:42:49:298,26.382,-0.002,0.223,0.028,10.145,-4.986,23.564
13:42:49:325,26.408,-0.164,0.057,-0.079,10.246,-5.242,23.661
13:42:49:351,26.434,-0.052,-0.070,-0.016,10.732,-6.665,23.876
13:42:49:377,26.460,-0.051,-0.146,0.000,11.124,-7.881,24.158
13:42:49:404,26.487,-0.041,-0.148,-0.036,11.698,-9.752,24.992
13:42:49:429,26.513,-0.036,-0.024,-0.074,12.231,-11.417,26.076
13:42:49:456,26.539,-0.004,0.047,-0.087,12.688,-12.340,26.865
13:42:49:482,26.565,0.064,0.129,-0.113,13.680,-13.884,27.834
13:42:49:509,26.592,0.119,0.133,-0.132,14.528,-14.876,28.309
13:42:49:564,26.647,0.142,0.079,-0.152,15.975,-16.019,28.843
13:42:49:564,26.648,0.125,-0.030,-0.140,17.311,-16.541,29.495
13:42:49:588,26.671,0.085,-0.080,-0.156,18.013,-16.394,30.140
13:42:49:613,26.697,0.078,-0.101,-0.164,18.829,-15.969,31.421
13:42:49:64,26.723,0.094,-0.096,-0.180,19.303,-15.822,32.372
13:42:49:666,26.749,0.114,-0.094,-0.165,19.627,-16.154,33.566
13:42:49:693,26.777,0.147,-0.090,-0.132,19.151,-17.163,34.099
13:42:49:72,26.803,0.169,-0.099,-0.118,19.739,-17.903,34.576
13:42:49:745,26.828,0.176,-0.105,-0.099,20.484,-18.924,35.008
13:42:49:797,26.880,0.153,-0.122,-0.074,21.188,-20.091,35.082
13:42:49:823,26.907,0.131,-0.114,-0.068,21.282,-20.332,34.954
13:42:49:85,26.933,0.112,-0.095,-0.046,21.293,-20.547,34.663
13:42:49:876,26.959,0.113,-0.075,-0.040,21.253,-20.779,34.223
13:42:49:931,27.014,0.116,-0.045,-0.030,21.207,-20.878,33.847
13:42:49:955,27.038,0.115,0.006,-0.026,20.958,-20.794,32.597
13:42:49:982,27.065,0.139,0.141,-0.054,20.598,-20.301,31.573
13:42:50:007,27.090,0.136,0.177,-0.044,20.054,-19.540,30.121
13:42:50:033,27.117,0.120,0.222,-0.065,19.590,-18.901,28.977
13:42:50:06,27.143,0.066,0.263,-0.049,18.787,-17.859,27.081
13:42:50:086,27.169,-0.034,0.085,-0.029,18.200,-17.046,25.881
13:42:50:112,27.195,-0.090,-0.006,-0.021,17.310,-15.608,24.491
13:42:50:139,27.222,-0.151,-0.112,-0.010,16.532,-14.363,23.655
13:42:50:165,27.248,-0.145,-0.106,0.001,16.147,-13.825,23.335
13:42:50:192,27.275,-0.083,-0.095,0.001,15.859,-13.304,23.072
13:42:50:217,27.300,-0.044,-0.091,0.010,15.816,-12.922,22.996
13:42:50:244,27.327,-0.012,-0.070,-0.018,15.828,-11.708,23.006
13:42:50:27,27.353,-0.013,-0.048,-0.035,15.814,-10.567,23.082
13:42:50:296,27.379,-0.024,-0.041,-0.045,15.704,-8.198,23.313
13:42:50:324,27.407,-0.051,-0.040,-0.048,15.500,-5.701,23.665
13:42:50:349,27.432,-0.065,-0.025,-0.045,15.335,-4.218,23.956
13:42:50:375,27.458,-0.056,-0.017,-0.024,15.099,-2.628,24.420
13:42:50:401,27.484,-0.021,-0.051,-0.001,14.942,-1.937,24.758
13:42:50:427,27.510,-0.021,-0.060,0.024,14.691,-1.234,25.220
13:42:50:454,27.537,-0.015,-0.072,0.041,14.385,-0.660,25.628
13:42:50:48,27.563,-0.006,-0.055,0.046,14.153,-0.459,25.845
13:42:50:506,27.589,-0.003,-0.014,0.077,13.917,-0.076,26.026
13:42:50:532,27.616,0.023,-0.019,0.121,13.712,0.091,26.054
13:42:50:559,27.642,-0.039,0.005,0.128,13.282,0.842,26.151
13:42:50:585,27.668,-0.056,-0.014,0.119,12.841,1.677,26.313
13:42:50:611,27.694,-0.080,-0.018,0.122,12.626,2.029,26.396
13:42:50:637,27.720,-0.059,-0.043,0.115,12.473,1.658,26.405
13:42:50:663,27.746,-0.038,-0.053,0.115,12.702,1.330,26.443
13:42:50:719,27.802,-0.039,-0.069,0.089,12.698,0.524,26.237
13:42:50:719,27.803,-0.045,-0.054,0.069,12.679,0.020,26.029
13:42:50:742,27.825,-0.042,-0.042,0.052,12.649,-0.996,25.643
13:42:50:798,27.881,-0.051,-0.013,0.048,12.560,-1.958,25.208
13:42:50:798,27.881,-0.067,-0.024,0.029,12.450,-2.339,24.933
13:42:50:851,27.934,-0.074,-0.051,0.038,12.414,-2.854,24.794
13:42:50:851,27.934,-0.096,-0.074,0.032,12.241,-3.164,24.628
13:42:50:874,27.957,-0.106,-0.078,0.038,11.872,-3.910,24.469
13:42:50:9,27.983,-0.116,-0.002,0.031,11.388,-4.620,24.297
13:42:50:926,28.009,-0.105,0.070,0.032,11.041,-5.302,24.079
13:42:50:954,28.037,-0.092,0.137,0.026,10.567,-6.676,23.517
13:42:50:979,28.062,-0.089,0.176,0.033,10.311,-7.806,23.026
13:42:51:005,28.088,-0.079,0.154,0.022,10.037,-9.363,22.288
13:42:51:06,28.143,-0.097,0.096,0.026,9.850,-10.729,21.876
13:42:51:061,28.144,-0.105,0.019,0.022,9.736,-11.411,21.923
13:42:51:171,28.254,-0.113,-0.046,0.031,9.642,-12.589,22.551
13:42:51:172,28.255,-0.059,-0.048,0.037,9.663,-13.290,23.271
13:42:51:172,28.255,-0.049,0.003,0.012,9.866,-14.524,24.621
13:42:51:173,28.256,0.064,0.069,-0.002,10.380,-15.581,26.105
13:42:51:218,28.301,0.096,0.084,-0.017,10.867,-16.245,27.076
13:42:51:218,28.301,0.139,0.066,-0.041,11.725,-16.609,28.452
13:42:51:244,28.327,0.146,0.033,-0.083,12.292,-16.563,29.300
13:42:51:245,28.328,0.145,0.021,-0.097,13.093,-16.244,30.493
13:42:51:296,28.379,0.140,-0.034,-0.114,13.857,-15.875,31.580
13:42:51:297,28.380,0.138,-0.096,-0.106,14.353,-15.748,32.288
13:42:51:352,28.435,0.126,-0.142,-0.112,15.016,-15.623,33.322
13:42:51:352,28.435,0.124,-0.131,-0.105,15.395,-15.598,33.951
13:42:51:401,28.485,0.170,-0.084,-0.110,15.930,-15.793,34.638
13:42:51:402,28.485,0.183,-0.089,-0.105,16.279,-15.986,34.900
13:42:51:512,28.595,0.181,-0.092,-0.108,16.658,-16.206,35.007
13:42:51:513,28.596,0.127,-0.077,-0.087,16.034,-16.244,34.314
13:42:51:514,28.597,0.105,-0.059,-0.094,15.997,-16.179,34.039
13:42:51:514,28.597,0.097,-0.047,-0.079,15.897,-16.163,33.437
13:42:51:532,28.615,0.074,-0.062,-0.061,15.579,-16.272,32.846
13:42:51:557,28.640,0.049,-0.060,-0.036,15.040,-16.441,31.907
13:42:51:583,28.666,0.028,-0.041,-0.034,14.772,-16.475,31.116
13:42:51:609,28.692,0.009,-0.018,-0.023,14.584,-16.709,30.537
13:42:51:665,28.748,0.006,0.033,-0.018,14.355,-16.739,29.548
13:42:51:666,28.749,0.010,0.046,-0.011,14.261,-16.691,28.808
13:42:51:716,28.799,0.009,0.071,-0.012,14.127,-16.467,27.637
13:42:51:717,28.800,-0.022,0.148,-0.013,13.897,-15.866,26.403
13:42:51:74,28.823,-0.045,0.222,-0.017,13.698,-15.217,25.505
13:42:51:767,28.850,-0.055,0.179,-0.006,13.431,-14.259,24.062
13:42:51:82,28.903,-0.099,0.164,-0.012,13.229,-13.482,23.146
13:42:51:845,28.928,-0.165,0.137,0.001,12.851,-12.160,21.962
13:42:51:933,29.016,-0.204,0.033,0.025,12.589,-11.401,21.309
13:42:51:933,29.016,-0.198,-0.068,0.037,12.277,-10.623,20.585
13:42:51:934,29.017,-0.188,-0.149,0.048,12.082,-10.074,20.292
13:42:51:935,29.018,-0.182,-0.165,0.053,12.042,-9.704,20.344
13:42:51:95,29.033,-0.123,-0.145,0.038,12.157,-9.067,20.752
13:42:51:976,29.059,-0.056,-0.074,0.003,12.348,-8.509,21.196
13:42:52:061,29.144,-0.022,-0.020,-0.003,12.743,-7.101,22.066
13:42:52:061,29.144,0.030,0.022,-0.039,13.143,-5.018,23.131
13:42:52:062,29.145,0.013,0.021,-0.034,13.318,-3.292,23.950
13:42:52:081,29.164,0.001,-0.001,-0.002,13.334,-0.415,25.309
13:42:52:136,29.219,-0.006,-0.032,0.028,13.256,1.203,26.252
13:42:52:137,29.220,0.007,-0.103,0.027,13.164,3.166,27.629
13:42:52:16,29.243,0.021,-0.125,0.060,13.092,4.186,28.462
13:42:52:186,29.269,0.030,-0.122,0.067,12.964,5.419,29.486
13:42:52:212,29.296,0.031,-0.098,0.102,12.817,6.346,30.143
13:42:52:238,29.321,0.030,-0.088,0.107,12.692,6.900,30.361
13:42:52:266,29.349,0.011,-0.085,0.125,12.479,7.549,30.375
13:42:52:291,29.375,-0.018,-0.080,0.117,12.321,7.828,30.173
13:42:52:318,29.401,-0.029,-0.090,0.118,12.061,7.868,29.598
13:42:52:344,29.427,-0.059,-0.113,0.109,12.022,7.601,28.901
13:42:52:37,29.453,-0.078,-0.125,0.120,11.813,7.194,28.273
13:42:52:396,29.479,-0.094,-0.111,0.122,11.500,6.265,27.210
13:42:52:422,29.505,-0.084,-0.065,0.128,11.533,5.393,26.623
13:42:52:45,29.533,-0.107,-0.014,0.094,11.203,3.897,25.259
13:42:52:475,29.558,-0.117,0.055,0.077,10.926,2.680,24.264
13:42:52:502,29.585,-0.123,0.103,0.069,10.507,0.926,22.730
13:42:52:556,29.639,-0.156,0.220,0.065,10.060,-0.965,21.251
13:42:52:557,29.640,-0.182,0.362,0.050,9.770,-2.270,20.275
13:42:52:582,29.665,-0.202,0.362,0.047,9.457,-4.538,18.858
13:42:52:607,29.690,-0.206,0.155,0.014,9.316,-5.960,18.121
13:42:52:634,29.717,-0.227,-0.024,0.005,9.102,-7.660,17.681
13:42:52:659,29.742,-0.233,-0.137,0.017,8.878,-8.939,18.248
13:42:52:685,29.768,-0.251,-0.149,0.008,8.738,-9.940,19.124
13:42:52:711,29.794,-0.186,-0.074,-0.018,8.745,-11.688,20.852
13:42:52:737,29.820,-0.064,0.066,-0.060,9.011,-13.197,22.086
13:42:52:792,29.876,0.012,0.103,-0.065,9.865,-15.547,23.799
13:42:52:793,29.876,0.088,0.103,-0.083,11.100,-17.350,25.248
13:42:52:845,29.929,0.113,0.088,-0.098,11.986,-17.984,26.139
13:42:52:846,29.929,0.128,0.055,-0.146,13.214,-18.050,27.545
13:42:52:869,29.952,0.108,0.006,-0.169,13.932,-17.701,28.589
13:42:52:895,29.978,0.104,-0.039,-0.178,14.861,-16.898,30.305
13:42:52:923,30.006,0.102,-0.076,-0.156,15.710,-16.422,32.100
13:42:52:947,30.031,0.117,-0.089,-0.155,16.287,-16.404,33.256
13:42:53:002,30.085,0.153,-0.081,-0.131,17.191,-16.736,34.803
13:42:53:058,30.141,0.172,-0.084,-0.113,16.938,-17.254,35.202
13:42:53:059,30.142,0.182,-0.087,-0.082,16.591,-18.088,35.434
13:42:53:06,30.143,0.200,-0.108,-0.070,17.266,-18.619,36.183
13:42:53:107,30.190,0.194,-0.113,-0.060,17.164,-18.547,36.200
13:42:53:108,30.191,0.160,-0.123,-0.045,16.272,-18.674,35.597
13:42:53:218,30.301,0.133,-0.130,-0.031,16.142,-18.267,35.666
13:42:53:219,30.302,0.119,-0.128,-0.027,15.774,-17.879,35.540
13:42:53:22,30.303,0.098,-0.109,-0.001,15.461,-17.223,35.289
13:42:53:221,30.304,0.079,-0.097,0.015,14.938,-16.841,34.633
13:42:53:236,30.319,0.064,-0.050,0.034,14.418,-16.452,33.610
13:42:53:264,30.347,0.059,-0.007,0.035,14.126,-16.278,32.720
13:42:53:289,30.372,0.073,0.034,0.044,13.760,-15.771,31.122
13:42:53:315,30.398,0.074,0.084,0.032,13.524,-15.350,29.946
13:42:53:341,30.425,0.056,0.205,0.028,13.070,-13.976,28.011
13:42:53:367,30.450,0.047,0.374,0.011,12.609,-12.517,25.651
13:42:53:393,30.477,0.030,0.483,-0.013,12.335,-11.294,23.784
13:42:53:42,30.503,-0.023,0.422,-0.020,11.961,-9.421,20.741
13:42:53:446,30.529,-0.190,-0.079,0.017,11.682,-7.568,18.964
13:42:53:472,30.555,-0.319,-0.244,0.076,11.181,-4.177,17.133
13:42:53:501,30.584,-0.383,-0.218,0.070,10.714,-1.295,16.149
13:42:53:502,30.585,-0.353,-0.148,0.044,10.611,-0.398,15.763
13:42:53:525,30.608,-0.183,-0.054,0.022,10.895,-0.117,15.352
13:42:53:551,30.634,-0.130,0.012,0.008,11.312,-0.203,15.154
13:42:53:606,30.689,-0.066,0.015,-0.029,12.017,1.052,15.031
13:42:53:607,30.690,-0.167,-0.112,-0.043,12.397,2.807,15.157
13:42:53:659,30.742,-0.217,-0.154,-0.051,12.635,6.754,15.643
13:42:53:659,30.742,-0.311,-0.188,-0.002,12.502,10.636,16.317
13:42:53:711,30.795,-0.302,-0.190,0.020,12.292,12.334,16.720
13:42:53:712,30.795,-0.265,-0.170,0.041,11.920,13.387,17.169
13:42:53:764,30.847,-0.183,-0.111,0.052,11.649,13.249,17.352
13:42:53:765,30.848,-0.140,-0.056,0.073,11.244,12.532,17.544
13:42:53:787,30.871,-0.012,-0.029,0.143,10.794,11.788,17.726
13:42:53:814,30.897,0.053,-0.033,0.191,10.428,11.816,17.929
13:42:53:839,30.923,0.051,-0.033,0.237,9.744,13.254,18.394
13:42:53:867,30.950,-0.018,-0.024,0.251,9.274,14.796,18.759
13:42:53:892,30.975,-0.028,-0.031,0.249,8.870,16.259,18.988
13:42:53:918,31.002,-0.071,-0.065,0.198,8.787,16.328,18.772
13:42:54:059,31.142,-0.126,-0.081,0.163,8.716,15.986,18.496
13:42:54:059,31.143,-0.174,-0.106,0.140,8.570,14.919,17.922
13:42:54:06,31.144,-0.217,-0.084,0.137,8.489,13.760,17.437
13:42:54:061,31.145,-0.223,-0.053,0.131,8.372,11.668,16.636
13:42:54:109,31.192,-0.253,-0.033,0.134,8.269,10.145,16.122
13:42:54:109,31.193,-0.245,0.005,0.113,8.083,7.897,15.561
13:42:54:109,31.193,-0.245,0.227,0.086,7.887,5.921,15.246
13:42:54:129,31.213,-0.237,0.319,0.085,7.806,4.752,15.106
13:42:54:184,31.267,-0.228,0.335,0.080,7.841,3.241,14.994
13:42:54:184,31.268,-0.212,0.088,0.049,7.964,2.602,15.122
13:42:54:207,31.290,-0.203,-0.013,0.054,8.194,2.018,15.859
13:42:54:234,31.317,-0.213,-0.124,0.087,8.386,1.613,17.311
13:42:54:26,31.343,-0.198,-0.119,0.089,8.593,1.038,18.606
13:42:54:287,31.370,-0.191,-0.079,0.011,9.336,-0.794,20.580
13:42:54:372,31.455,0.095,-0.054,-0.033,10.008,-3.402,21.651
13:42:54:372,31.456,-0.094,0.185,0.030,11.096,-5.663,23.186
13:42:54:372,31.456,0.129,0.114,0.025,11.925,-6.759,24.147
13:42:54:391,31.474,0.020,0.132,-0.050,13.193,-7.002,25.527
13:42:54:419,31.502,0.069,0.064,-0.073,14.481,-6.507,26.817
13:42:54:475,31.559,0.044,0.005,-0.065,15.289,-6.006,27.721
13:42:54:476,31.559,0.076,-0.024,-0.038,16.402,-5.095,29.190
13:42:54:497,31.580,0.092,-0.062,-0.074,17.064,-4.334,30.297
13:42:54:522,31.605,0.089,-0.071,-0.076,17.928,-2.769,32.067
13:42:54:548,31.632,0.114,-0.087,-0.078,18.746,-1.509,33.817
13:42:54:575,31.658,0.126,-0.107,-0.065,19.293,-0.819,34.911
13:42:54:601,31.684,0.150,-0.142,-0.059,20.065,0.009,36.351
13:42:54:627,31.711,0.162,-0.165,-0.053,20.508,0.524,37.153
13:42:54:653,31.736,0.147,-0.200,-0.044,20.999,1.326,38.038
13:42:54:68,31.763,0.135,-0.170,-0.041,21.332,1.942,38.375
13:42:54:706,31.789,0.148,-0.129,-0.051,21.514,2.257,38.182
13:42:54:761,31.845,0.185,-0.090,-0.049,21.766,2.533,37.262
13:42:54:762,31.846,0.226,-0.047,-0.094,21.864,2.772,36.361
13:42:54:785,31.868,0.233,0.052,-0.120,21.613,3.658,34.690
13:42:54:811,31.894,0.270,0.257,-0.219,21.136,4.592,33.304
13:42:54:837,31.921,0.217,0.488,-0.241,19.999,6.251,30.446
13:42:54:864,31.947,0.067,0.302,-0.101,18.787,7.915,26.892
13:42:54:949,32.032,-0.068,0.035,0.017,18.020,9.101,24.614
13:42:54:949,32.032,-0.142,-0.229,0.120,17.057,10.767,21.867
13:42:55:026,32.109,-0.092,-0.208,0.038,16.571,11.337,20.555
13:42:55:026,32.109,-0.069,-0.148,0.002,16.169,12.432,19.343
13:42:55:053,32.136,-0.001,-0.012,-0.048,16.124,14.120,18.717
13:42:55:053,32.137,0.026,0.034,-0.058,16.251,15.896,18.469
13:42:55:054,32.138,-0.010,0.052,-0.095,16.462,19.775,18.249
13:42:55:103,32.186,-0.100,-0.039,-0.051,16.501,23.100,18.191
13:42:55:103,32.186,-0.157,-0.121,-0.001,16.365,28.604,18.126
13:42:55:241,32.324,-0.208,-0.166,0.080,16.045,33.748,17.911
13:42:55:241,32.324,-0.227,-0.174,0.108,15.823,36.420,17.600
13:42:55:242,32.325,-0.179,-0.115,0.120,15.551,38.977,16.816
13:42:55:243,32.326,-0.147,-0.086,0.128,15.382,39.945,16.139
13:42:55:26,32.344,-0.113,-0.077,0.130,15.100,41.122,15.039
13:42:55:261,32.345,-0.126,-0.085,0.168,14.855,42.033,14.355
13:42:55:312,32.396,-0.126,-0.089,0.196,14.494,43.986,13.893
13:42:55:313,32.397,-0.136,-0.084,0.256,13.886,46.023,13.126
13:42:55:367,32.450,-0.126,-0.085,0.281,13.424,47.286,12.681
13:42:55:367,32.450,-0.118,-0.086,0.310,12.640,49.057,12.112
13:42:55:388,32.472,-0.084,-0.053,0.358,11.982,50.581,12.229
13:42:55:415,32.498,-0.069,-0.001,0.382,11.319,51.219,11.954
13:42:55:441,32.524,-0.042,0.034,0.404,10.306,51.703,11.596
13:42:55:467,32.551,-0.007,0.101,0.395,9.669,51.748,11.414
13:42:55:495,32.578,-0.013,0.263,0.417,8.830,51.554,11.248
13:42:55:549,32.632,0.013,0.385,0.392,8.210,51.141,11.153
13:42:55:549,32.632,-0.007,0.391,0.405,7.977,50.750,11.131
13:42:55:705,32.788,0.009,0.170,0.363,7.916,50.324,11.335
13:42:55:819,32.902,-0.008,-0.068,0.331,8.019,49.661,11.758
13:42:55:819,32.902,0.043,-0.113,0.292,8.403,48.624,12.810
13:42:55:819,32.902,-0.045,-0.068,0.165,8.854,47.208,13.675
13:42:55:82,32.903,0.145,-0.001,-0.033,9.999,43.043,14.780
13:42:55:87,32.953,0.295,0.061,-0.112,11.618,39.048,15.660
13:42:55:871,32.954,0.032,0.163,0.066,12.656,39.071,16.789
13:42:55:872,32.955,-0.170,0.148,0.002,13.919,41.495,19.164
13:42:55:873,32.956,-0.177,0.107,-0.034,14.796,43.343,20.925
13:42:55:888,32.971,-0.207,0.007,-0.058,16.390,45.609,23.688
13:42:55:944,33.027,-0.126,-0.048,-0.135,18.199,46.927,26.384
13:42:55:945,33.028,-0.110,-0.047,-0.168,19.373,47.643,28.132
13:42:55:976,33.059,-0.086,-0.061,-0.194,21.038,48.583,30.619
13:42:55:977,33.060,-0.073,-0.097,-0.235,21.620,49.063,31.957
13:42:55:978,33.061,-0.065,-0.123,-0.239,22.956,49.953,34.010
13:42:55:978,33.061,-0.054,-0.160,-0.234,24.008,50.931,35.733
13:42:55:995,33.079,-0.048,-0.177,-0.220,24.535,51.684,36.670
13:42:55:996,33.079,-0.037,-0.206,-0.211,25.117,52.608,37.751
13:42:56:018,33.101,-0.025,-0.210,-0.200,25.359,53.296,38.263
13:42:56:074,33.157,-0.018,-0.189,-0.199,25.547,54.112,38.735
13:42:56:074,33.158,0.001,-0.113,-0.220,25.089,54.697,38.387
13:42:56:155,33.238,0.010,-0.079,-0.233,24.975,55.089,38.077
13:42:56:156,33.239,0.024,-0.036,-0.261,24.617,55.649,37.172
13:42:56:157,33.240,0.002,0.115,-0.291,24.159,56.115,36.290
13:42:56:177,33.260,-0.005,0.167,-0.275,23.023,56.916,34.345
13:42:56:204,33.287,-0.037,0.365,-0.221,21.504,57.513,31.379
13:42:56:288,33.371,-0.006,0.348,-0.096,20.477,57.510,28.862
13:42:56:289,33.372,0.028,0.127,0.096,19.127,57.069,25.072
13:42:56:29,33.373,0.051,-0.137,0.180,18.345,56.717,22.936
13:42:56:365,33.449,0.042,-0.164,0.174,17.405,56.417,20.663
13:42:56:366,33.450,0.045,-0.151,0.040,17.001,56.438,19.780
13:42:56:367,33.450,0.032,-0.090,0.005,16.754,57.350,19.275
13:42:56:386,33.469,0.023,0.013,-0.082,16.847,59.658,19.392
13:42:56:413,33.496,-0.007,0.069,-0.086,16.978,62.132,19.642
13:42:56:438,33.522,-0.075,0.043,-0.063,17.105,66.931,20.123
13:42:56:494,33.577,-0.087,-0.046,0.010,17.077,70.625,20.475
13:42:56:494,33.578,-0.097,-0.106,0.076,16.860,76.272,20.997
13:42:56:517,33.600,-0.066,-0.185,0.144,16.590,80.940,21.280
13:42:56:545,33.628,-0.075,-0.167,0.173,16.403,83.152,21.236
13:42:56:598,33.682,-0.045,-0.123,0.142,16.241,85.137,20.729
13:42:56:599,33.683,-0.039,-0.098,0.132,16.166,85.857,20.162
13:42:56:622,33.705,-0.015,-0.062,0.134,15.984,86.728,19.113
13:42:56:649,33.732,0.014,-0.061,0.176,15.643,87.583,17.988
13:42:56:675,33.758,0.038,-0.070,0.206,15.323,88.191,17.249
13:42:56:701,33.784,0.062,-0.097,0.256,14.705,89.042,16.206
13:42:56:728,33.811,0.092,-0.090,0.296,14.224,89.862,15.564
13:42:56:754,33.837,0.106,-0.063,0.313,13.483,90.058,14.681
13:42:56:78,33.863,0.122,-0.011,0.308,12.987,89.916,14.175
13:42:56:806,33.889,0.133,0.052,0.304,12.297,89.307,13.582
13:42:56:862,33.945,0.139,0.126,0.289,11.701,88.578,13.242
13:42:56:862,33.946,0.132,0.249,0.283,11.384,88.144,13.181
13:42:56:885,33.968,0.128,0.386,0.295,11.061,87.640,13.259
13:42:56:911,33.994,0.121,0.390,0.309,10.966,87.265,13.393
13:42:56:937,34.021,0.099,0.230,0.276,11.072,86.666,13.824
13:42:56:964,34.048,0.083,-0.067,0.273,11.370,86.281,14.871
13:42:56:991,34.074,0.085,-0.138,0.283,11.627,86.098,15.968
13:42:57:017,34.100,0.062,-0.102,0.174,12.215,84.759,17.859
13:42:57:042,34.126,-0.001,0.061,0.084,12.901,83.242,19.180
13:42:57:069,34.152,-0.051,0.196,0.059,14.099,80.820,21.169
13:42:57:095,34.178,-0.123,0.236,-0.010,15.065,79.520,22.485
13:42:57:121,34.204,-0.119,0.166,-0.059,16.822,77.495,24.236
13:42:57:148,34.231,-0.142,0.004,-0.095,18.723,76.169,25.945
13:42:57:173,34.257,-0.148,-0.052,-0.105,19.951,75.638,27.169
13:42:57:2,34.283,-0.182,-0.105,-0.103,21.707,75.309,29.206
13:42:57:226,34.309,-0.196,-0.117,-0.126,22.830,75.225,30.636
13:42:57:253,34.337,-0.212,-0.131,-0.176,24.456,75.239,32.767
13:42:57:28,34.363,-0.186,-0.146,-0.197,24.696,74.914,34.105
13:42:57:332,34.415,-0.175,-0.166,-0.188,24.330,74.658,34.611
13:42:57:36,34.443,-0.163,-0.188,-0.189,25.306,75.048,35.981
13:42:57:362,34.445,-0.151,-0.230,-0.179,25.774,75.105,36.649
13:42:57:384,34.467,-0.134,-0.234,-0.170,26.233,75.252,37.295
13:42:57:41,34.493,-0.117,-0.183,-0.181,26.445,75.329,37.549
13:42:57:436,34.519,-0.104,-0.132,-0.193,26.485,75.594,37.467
13:42:57:491,34.575,-0.092,-0.084,-0.236,26.443,75.502,36.952
13:42:57:492,34.575,-0.089,-0.076,-0.251,26.296,75.631,36.430
13:42:57:547,34.630,-0.105,0.199,-0.283,24.485,77.254,33.935
13:42:57:567,34.651,-0.111,0.257,-0.259,23.471,77.991,32.554
13:42:57:621,34.704,-0.088,0.352,-0.176,21.796,79.167,29.833
13:42:57:65,34.733,0.037,0.150,0.004,20.708,79.660,27.721
13:42:57:65,34.733,0.103,-0.043,0.107,19.225,80.439,24.689
13:42:57:732,34.815,0.128,-0.144,0.145,17.991,80.999,22.371
13:42:57:732,34.815,0.090,-0.173,0.107,17.346,81.562,21.350
13:42:57:732,34.815,0.055,-0.114,0.052,16.733,82.077,20.471
13:42:57:751,34.834,0.058,-0.065,0.014,16.541,82.685,20.196
13:42:57:778,34.861,0.022,0.064,-0.030,16.494,84.009,19.951
13:42:57:803,34.886,-0.028,0.072,-0.017,16.516,85.508,19.780
13:42:57:83,34.913,-0.034,-0.006,0.015,16.503,88.390,19.512
13:42:57:856,34.939,-0.018,-0.106,0.122,16.293,92.375,19.279
13:42:57:912,34.995,0.025,-0.142,0.170,16.097,94.835,19.173
13:42:57:912,34.995,0.023,-0.164,0.182,15.798,98.118,18.986
13:42:57:935,35.018,0.012,-0.133,0.185,15.603,99.464,18.795
13:42:57:961,35.044,0.014,-0.090,0.123,15.368,100.970,18.367
13:42:57:987,35.070,0.046,-0.055,0.115,15.119,102.140,17.866
13:42:58:014,35.097,0.043,-0.067,0.119,14.902,102.750,17.533
13:42:58:04,35.123,0.083,-0.089,0.157,14.559,104.153,17.431
13:42:58:067,35.151,0.108,-0.083,0.185,14.191,104.901,17.183
13:42:58:123,35.206,0.129,-0.073,0.191,13.568,105.824,16.836
13:42:58:123,35.206,0.143,-0.051,0.178,12.890,106.234,16.484
13:42:58:145,35.228,0.160,-0.027,0.167,12.622,106.436,16.654
13:42:58:171,35.254,0.181,-0.008,0.175,11.885,106.408,16.325
13:42:58:197,35.281,0.201,0.006,0.179,11.383,106.272,16.134
13:42:58:224,35.307,0.184,0.005,0.165,10.917,106.032,16.296
13:42:58:25,35.333,0.174,0.010,0.145,10.974,105.963,16.999
13:42:58:279,35.362,0.161,0.137,0.173,10.556,105.640,17.425
13:42:58:279,35.362,0.161,0.324,0.209,10.020,104.829,17.423
13:42:58:331,35.414,0.173,0.413,0.219,9.801,103.768,17.210
13:42:58:332,35.415,0.153,0.241,0.174,9.810,101.865,16.826
13:42:58:355,35.438,0.107,-0.063,0.150,9.981,100.741,16.855
13:42:58:41,35.493,0.113,-0.137,0.166,10.396,99.808,17.655
13:42:58:411,35.494,0.043,-0.120,0.190,11.128,98.095,18.967
13:42:58:463,35.546,-0.016,-0.004,-0.088,12.114,95.308,19.646
13:42:58:463,35.546,0.043,0.033,-0.146,13.931,92.100,20.883
13:42:58:486,35.569,0.017,0.227,-0.027,14.883,91.928,22.057
13:42:58:512,35.596,-0.105,0.241,0.038,16.016,93.293,24.276
13:42:58:539,35.622,-0.199,0.169,0.064,17.458,94.764,26.615
13:42:58:565,35.648,-0.201,0.077,0.006,18.728,95.317,28.178
13:42:58:591,35.674,-0.198,-0.059,-0.113,20.713,96.186,30.639
13:42:58:617,35.700,-0.203,-0.064,-0.126,21.894,96.987,32.461
13:42:58:645,35.728,-0.236,-0.079,-0.149,23.436,98.410,35.363
13:42:58:67,35.753,-0.244,-0.099,-0.153,23.907,99.307,37.008
13:42:58:726,35.809,-0.241,-0.158,-0.162,25.091,100.672,39.678
13:42:58:726,35.809,-0.208,-0.212,-0.182,26.142,101.881,41.944
13:42:58:749,35.832,-0.195,-0.262,-0.170,26.717,102.461,43.188
13:42:58:775,35.858,-0.168,-0.286,-0.171,27.261,103.470,44.552
13:42:58:802,35.886,-0.152,-0.293,-0.168,27.405,103.891,45.089
13:42:58:828,35.911,-0.135,-0.283,-0.170,27.321,104.555,45.277
13:42:58:854,35.938,-0.151,-0.201,-0.190,26.894,104.902,44.650
13:42:58:88,35.963,-0.159,-0.147,-0.198,26.445,105.088,43.754
13:42:58:937,36.020,-0.186,-0.040,-0.220,25.557,105.339,41.715
13:42:58:937,36.020,-0.221,0.020,-0.247,24.864,105.569,39.988
13:42:58:959,36.042,-0.260,0.182,-0.244,23.509,106.140,36.936
13:42:59:014,36.097,-0.253,0.299,-0.223,22.404,106.746,34.630
13:42:59:015,36.098,-0.223,0.441,-0.114,20.519,107.978,30.829
13:42:59:066,36.149,-0.029,0.349,0.017,18.769,109.066,26.741
13:42:59:067,36.150,0.069,0.189,0.092,17.806,109.539,24.174
13:42:59:09,36.173,0.134,-0.116,0.144,16.655,110.009,21.158
13:42:59:116,36.200,0.106,-0.172,0.115,16.065,110.367,19.804
13:42:59:2,36.284,0.090,-0.130,0.115,15.506,111.106,18.702
13:42:59:201,36.285,0.020,0.003,0.078,15.385,112.424,18.395
13:42:59:202,36.285,-0.009,0.078,0.063,15.536,113.811,18.429
13:42:59:25,36.333,-0.097,0.118,0.037,15.968,116.914,18.723
13:42:59:251,36.334,-0.109,-0.039,0.089,16.225,119.883,19.108
13:42:59:273,36.357,-0.033,-0.134,0.132,16.288,125.501,19.977
13:42:59:329,36.412,0.009,-0.213,0.146,15.999,131.475,20.995
13:42:59:329,36.413,0.032,-0.241,0.160,15.683,135.039,21.608
13:42:59:382,36.465,0.043,-0.223,0.160,15.205,139.259,22.194
13:42:59:383,36.466,0.050,-0.197,0.128,14.957,141.169,22.280
13:42:59:405,36.488,0.044,-0.141,0.065,14.643,143.319,22.013
13:42:59:49,36.573,0.067,-0.104,0.043,14.405,144.283,21.661
13:42:59:49,36.573,0.075,-0.100,0.031,13.930,145.705,21.038
13:42:59:491,36.574,0.143,-0.055,0.022,13.229,147.415,20.469
13:42:59:51,36.593,0.203,-0.045,0.024,12.651,148.686,20.154
13:42:59:536,36.619,0.241,-0.054,0.003,11.700,150.292,19.705
13:42:59:564,36.647,0.279,-0.043,-0.026,11.041,151.058,19.401
13:42:59:617,36.701,0.338,0.013,-0.035,9.979,151.796,18.958
13:42:59:618,36.702,0.305,0.085,-0.069,8.911,151.941,18.589
13:42:59:641,36.724,0.290,0.128,-0.087,8.271,151.835,18.409
13:42:59:726,36.809,0.304,0.271,-0.082,7.449,151.921,18.283
13:42:59:727,36.810,0.317,0.311,-0.091,7.019,152.033,18.261
13:42:59:727,36.810,0.318,0.338,-0.089,6.634,152.268,18.315
13:42:59:777,36.860,0.272,0.118,-0.119,6.663,152.488,18.649
13:42:59:777,36.860,0.312,-0.027,0.015,6.859,152.635,19.155
13:42:59:829,36.912,0.170,-0.049,0.002,7.542,151.546,20.200
13:42:59:829,36.912,-0.109,0.103,-0.201,8.479,149.328,20.805
13:42:59:852,36.935,-0.093,0.159,-0.150,10.366,145.730,21.780
13:42:59:906,36.989,-0.087,0.230,-0.074,11.572,144.917,22.725
13:42:59:907,36.990,-0.046,0.251,0.069,13.107,145.477,24.770
13:42:59:931,37.014,-0.078,0.131,0.120,14.600,147.190,27.442
13:42:59:956,37.039,-0.122,0.067,0.090,15.823,147.987,29.358
13:42:59:983,37.066,-0.195,-0.028,0.058,17.888,148.915,32.412
13:43:00:009,37.093,-0.246,-0.050,0.068,19.950,149.944,35.600
13:43:00:035,37.118,-0.285,-0.068,0.062,21.333,150.641,37.698
13:43:00:061,37.144,-0.330,-0.136,0.061,23.371,151.691,40.687
13:43:00:087,37.170,-0.337,-0.203,0.042,24.650,152.416,42.541
13:43:00:114,37.197,-0.321,-0.263,0.040,26.279,153.607,45.052
13:43:00:166,37.249,-0.251,-0.301,0.020,28.020,155.475,48.200
13:43:00:193,37.276,-0.243,-0.282,-0.013,28.726,156.235,49.182
13:43:00:218,37.302,-0.267,-0.241,-0.020,29.159,156.473,49.367
13:43:00:245,37.328,-0.323,-0.167,-0.062,29.713,156.453,48.880
13:43:00:271,37.354,-0.368,-0.157,-0.064,29.927,156.368,48.102
13:43:00:297,37.380,-0.407,-0.077,-0.051,29.670,156.486,46.431
13:43:00:324,37.407,-0.415,0.071,-0.042,28.459,157.054,44.066
13:43:00:35,37.434,-0.421,0.176,-0.018,27.121,157.623,41.877
13:43:00:376,37.459,-0.354,0.289,0.029,24.967,158.504,38.073
13:43:00:402,37.486,-0.234,0.227,0.012,23.562,159.076,35.271
13:43:00:429,37.512,-0.053,0.064,0.030,21.649,160.048,31.297
13:43:00:487,37.570,0.060,-0.002,0.025,20.574,160.733,28.983
13:43:00:488,37.571,0.084,-0.025,0.038,19.348,161.531,26.110
13:43:00:489,37.572,0.080,-0.017,0.048,18.568,162.242,23.973
13:43:00:561,37.644,0.041,0.056,0.052,18.241,162.877,22.879
13:43:00:612,37.696,0.025,0.076,0.066,17.940,164.360,21.636
13:43:00:647,37.730,0.038,0.068,0.104,17.794,165.954,21.060
13:43:00:648,37.731,0.072,0.034,0.117,17.514,169.262,20.582
13:43:00:649,37.732,0.150,-0.057,0.132,17.082,173.280,20.517
13:43:00:65,37.733,0.210,-0.135,0.110,16.716,175.883,20.634
13:43:00:665,37.748,0.251,-0.161,0.058,16.140,179.190,20.911
13:43:00:691,37.774,0.229,-0.140,0.048,15.793,-179.262,21.096
13:43:00:806,37.889,0.188,-0.108,0.018,15.319,-177.742,21.299
13:43:00:807,37.890,0.163,-0.066,-0.015,14.835,-176.811,21.433
13:43:00:807,37.890,0.152,-0.050,-0.045,14.474,-176.143,21.513
13:43:00:808,37.891,0.145,-0.027,-0.065,13.879,-175.376,21.713
13:43:00:822,37.905,0.146,-0.048,-0.098,13.432,-174.682,21.922
13:43:00:848,37.932,0.155,-0.039,-0.123,12.671,-173.850,22.351
13:43:00:875,37.958,0.152,-0.040,-0.172,11.871,-173.400,22.848
13:43:00:901,37.984,0.147,-0.050,-0.194,11.354,-173.351,23.189
13:43:00:927,38.010,0.125,-0.044,-0.223,10.665,-173.954,23.702
13:43:00:98,38.063,0.113,-0.027,-0.234,10.282,-174.474,24.041
13:43:01:008,38.091,0.095,-0.001,-0.234,10.296,-175.656,24.749
13:43:01:066,38.149,0.039,0.049,-0.219,10.126,-176.527,25.042
13:43:01:066,38.149,0.020,0.075,-0.202,9.991,-177.990,25.483
13:43:01:066,38.149,0.030,0.177,-0.170,9.858,-178.897,25.877
13:43:01:086,38.170,0.040,0.192,-0.163,9.800,-179.597,26.033
13:43:01:112,38.195,0.071,0.288,-0.132,9.839,179.144,25.955
13:43:01:138,38.221,0.046,0.278,-0.111,10.084,177.853,25.692
13:43:01:193,38.276,0.037,0.173,-0.077,10.753,175.576,25.223
13:43:01:194,38.277,0.057,-0.009,-0.061,11.527,173.708,25.161
13:43:01:245,38.328,0.114,-0.117,-0.043,12.033,172.839,25.524
13:43:01:246,38.329,0.121,-0.152,-0.003,12.869,171.465,26.608
13:43:01:298,38.381,0.085,-0.076,0.038,13.575,170.433,27.518
13:43:01:298,38.382,-0.007,0.081,0.080,15.084,168.152,28.749
13:43:01:321,38.404,-0.160,0.163,0.138,16.441,166.477,29.328
13:43:01:347,38.431,-0.205,0.148,0.161,18.791,163.808,29.900
13:43:01:375,38.458,-0.240,0.130,0.210,21.045,162.816,30.387
13:43:01:401,38.484,-0.223,0.063,0.234,22.321,162.862,30.887
13:43:01:426,38.509,-0.173,-0.021,0.242,23.821,163.909,32.153
13:43:01:452,38.535,-0.154,-0.092,0.256,24.573,164.869,33.360
13:43:01:478,38.562,-0.150,-0.101,0.254,25.522,166.174,35.546
13:43:01:505,38.588,-0.204,-0.125,0.244,26.471,166.812,37.827
13:43:01:532,38.615,-0.229,-0.135,0.221,27.158,166.856,39.239
13:43:01:586,38.669,-0.271,-0.170,0.186,28.186,166.600,41.076
13:43:01:587,38.670,-0.282,-0.183,0.152,28.770,166.360,42.084
13:43:01:61,38.694,-0.270,-0.209,0.115,29.409,166.039,43.268
13:43:01:636,38.719,-0.247,-0.227,0.071,29.753,165.821,44.063
13:43:01:663,38.746,-0.254,-0.221,0.059,29.841,165.730,44.360
13:43:01:689,38.772,-0.273,-0.146,0.027,29.798,165.802,44.393
13:43:01:717,38.800,-0.328,-0.112,0.005,29.680,165.769,44.073
13:43:01:742,38.825,-0.370,-0.076,0.022,29.236,165.969,43.214
13:43:01:767,38.851,-0.404,0.059,0.053,28.565,166.537,42.394
13:43:01:825,38.908,-0.376,0.097,0.056,26.925,167.917,40.635
13:43:01:825,38.908,-0.293,0.266,0.082,24.767,169.580,38.087
13:43:01:846,38.929,-0.206,0.239,0.033,23.287,170.597,35.910
13:43:01:873,38.956,-0.034,0.061,-0.035,21.405,171.636,32.359
13:43:01:898,38.982,0.049,-0.045,-0.058,20.428,172.230,30.208
13:43:01:925,39.008,0.084,-0.133,-0.058,19.353,173.035,27.688
13:43:01:951,39.034,0.028,-0.064,-0.027,18.713,173.863,26.055
13:43:02:034,39.117,-0.022,0.036,0.019,18.475,174.741,25.372
13:43:02:034,39.117,-0.044,0.098,0.048,18.232,176.901,24.787
13:43:02:059,39.142,0.017,0.077,0.069,18.026,179.012,24.585
13:43:02:06,39.143,0.083,0.019,0.055,17.503,-177.093,24.471
13:43:02:082,39.166,0.149,-0.060,0.034,16.755,-173.020,24.481
13:43:02:165,39.248,0.205,-0.121,0.001,16.195,-170.596,24.500
13:43:02:166,39.249,0.212,-0.153,-0.041,15.451,-168.055,24.387
13:43:02:19,39.273,0.152,-0.134,-0.048,15.053,-167.134,24.178
13:43:02:191,39.274,0.132,-0.122,-0.069,14.549,-166.506,23.693
13:43:02:302,39.385,0.134,-0.080,-0.073,13.952,-166.146,23.106
13:43:02:302,39.385,0.152,-0.067,-0.089,13.484,-165.817,22.674
13:43:02:303,39.386,0.176,-0.055,-0.120,12.709,-165.444,21.982
13:43:02:32,39.403,0.210,-0.105,-0.179,11.222,-165.867,20.927
13:43:02:345,39.428,0.222,-0.117,-0.218,10.190,-166.854,20.541
13:43:02:371,39.454,0.215,-0.071,-0.231,9.477,-167.675,20.395
13:43:02:397,39.481,0.168,0.046,-0.246,8.499,-169.845,20.336
13:43:02:424,39.507,0.150,0.111,-0.233,7.938,-171.429,20.358
13:43:02:45,39.533,0.108,0.398,-0.231,7.457,-174.195,20.315
13:43:02:476,39.559,0.032,0.524,-0.160,7.362,-176.106,20.218
13:43:02:503,39.586,0.068,0.522,-0.134,7.501,-178.443,20.018
13:43:02:53,39.613,0.033,0.264,-0.090,7.888,179.905,20.008
13:43:02:555,39.638,0.119,-0.006,-0.064,8.173,179.205,20.316
13:43:02:582,39.666,0.117,-0.233,-0.038,8.647,177.596,21.207
13:43:02:608,39.691,0.083,-0.272,-0.008,9.227,175.303,21.926
13:43:02:634,39.717,-0.173,-0.260,-0.017,10.742,169.748,22.740
13:43:02:66,39.743,-0.265,-0.137,-0.111,12.144,164.709,23.364
13:43:02:715,39.799,-0.063,0.165,0.042,12.827,163.022,23.850
13:43:02:742,39.825,-0.083,0.282,0.145,13.950,161.330,24.446
13:43:02:743,39.826,-0.060,0.180,0.232,14.843,160.824,24.835
13:43:02:765,39.848,-0.077,0.056,0.235,16.496,160.514,25.587
13:43:02:792,39.875,-0.121,-0.156,0.148,18.150,160.999,26.796
13:43:02:82,39.903,-0.102,-0.179,0.166,18.970,162.007,27.966
13:43:02:821,39.904,-0.063,-0.133,0.237,19.746,164.097,30.013
13:43:02:87,39.954,-0.049,-0.051,0.286,20.188,165.204,31.255
13:43:02:899,39.982,-0.080,-0.048,0.282,21.032,166.043,32.704
13:43:02:9,39.983,-0.134,-0.083,0.258,21.755,165.961,33.368
13:43:02:924,40.007,-0.174,-0.093,0.212,22.863,165.540,34.095
13:43:02:949,40.032,-0.180,-0.081,0.215,23.707,165.129,34.746
13:43:02:977,40.060,-0.183,-0.084,0.205,24.144,165.048,35.180
13:43:03:002,40.085,-0.188,-0.098,0.180,22.981,164.613,35.072
13:43:03:028,40.111,-0.182,-0.095,0.145,22.244,164.434,34.995
13:43:03:083,40.166,-0.203,-0.043,0.119,22.154,164.316,35.406
13:43:03:083,40.166,-0.253,0.020,0.077,22.399,164.028,36.003
13:43:03:106,40.189,-0.381,0.101,0.091,22.421,164.221,36.305
13:43:03:161,40.244,-0.452,0.207,0.101,21.851,164.793,36.372
13:43:03:162,40.245,-0.370,0.248,0.045,20.980,165.689,36.023
13:43:03:185,40.268,-0.219,0.220,-0.045,19.194,167.052,34.542
13:43:03:211,40.294,-0.064,-0.144,-0.126,17.560,167.799,32.300
13:43:03:237,40.320,0.034,-0.280,-0.133,16.650,168.095,30.745
13:43:03:263,40.347,0.049,-0.354,-0.163,15.588,168.050,28.573
13:43:03:29,40.373,0.034,-0.321,-0.171,15.090,167.705,27.334
13:43:03:318,40.401,-0.083,-0.160,-0.131,14.630,167.194,25.775
13:43:03:343,40.426,-0.168,0.016,-0.091,14.434,166.984,24.853
13:43:03:369,40.452,-0.220,0.149,-0.038,14.119,167.707,23.460
13:43:03:395,40.478,-0.092,0.106,-0.037,13.561,169.361,22.041
13:43:03:421,40.504,0.055,0.012,-0.076,13.120,170.991,21.074
13:43:03:477,40.560,0.125,-0.106,-0.075,12.581,172.949,19.573
13:43:03:477,40.560,0.156,-0.108,-0.046,12.270,173.719,18.583
13:43:03:5,40.583,0.084,-0.132,-0.046,11.970,174.273,17.271
13:43:03:526,40.610,0.068,-0.099,-0.041,11.753,174.887,16.235
13:43:03:553,40.636,0.112,-0.081,-0.048,11.593,175.520,15.674
13:43:03:579,40.662,0.191,-0.078,-0.067,11.316,176.949,14.889
13:43:03:605,40.688,0.243,-0.095,-0.062,11.105,177.725,14.345
13:43:03:631,40.714,0.255,-0.118,-0.078,10.723,178.839,13.528
13:43:03:686,40.770,0.276,-0.157,-0.091,10.429,179.285,13.057
13:43:03:687,40.771,0.296,-0.126,-0.124,9.904,179.926,12.497
13:43:03:739,40.822,0.305,-0.059,-0.133,9.271,-179.933,12.058
13:43:03:74,40.823,0.312,0.014,-0.146,8.819,-179.982,11.840
13:43:03:762,40.846,0.311,0.070,-0.135,8.118,179.730,11.648
13:43:03:789,40.872,0.311,0.114,-0.142,7.637,179.532,11.673
13:43:03:815,40.898,0.380,0.305,-0.152,6.919,178.863,11.876
13:43:03:87,40.954,0.413,0.431,-0.178,6.294,177.905,12.164
13:43:03:871,40.954,0.408,0.411,-0.171,6.037,176.863,12.385
13:43:03:923,41.006,0.278,0.069,-0.128,5.938,174.804,13.124
13:43:03:924,41.007,0.229,-0.137,-0.128,6.014,173.787,14.084
13:43:03:946,41.029,0.236,-0.078,-0.093,6.247,172.435,16.340
13:43:03:973,41.056,0.205,0.046,0.002,6.819,170.813,19.163
13:43:04:028,41.111,0.060,0.252,0.021,7.654,168.490,20.929
13:43:04:029,41.112,-0.322,0.202,-0.090,9.927,163.705,23.320
13:43:04:105,41.188,-0.178,0.233,-0.014,11.426,161.225,24.837
13:43:04:134,41.217,-0.237,0.166,0.049,13.641,159.563,27.268
13:43:04:134,41.218,-0.226,0.078,0.056,15.234,158.891,28.988
13:43:04:157,41.240,-0.226,-0.056,0.086,17.471,159.099,31.927
13:43:04:185,41.269,-0.227,-0.085,0.116,19.467,159.969,35.080
13:43:04:186,41.269,-0.239,-0.093,0.130,20.688,160.674,37.139
13:43:04:238,41.321,-0.265,-0.123,0.141,22.437,161.679,39.977
13:43:04:239,41.322,-0.285,-0.172,0.145,23.583,162.189,41.609
13:43:04:29,41.373,-0.260,-0.192,0.132,25.159,162.775,43.604
13:43:04:291,41.374,-0.258,-0.193,0.116,26.454,163.121,45.040
13:43:04:313,41.397,-0.261,-0.192,0.121,27.144,163.188,45.699
13:43:04:34,41.423,-0.226,-0.210,0.083,27.222,162.916,45.834
13:43:04:366,41.449,-0.136,-0.224,0.033,27.560,162.744,46.030
13:43:04:392,41.476,-0.127,-0.219,0.013,27.890,162.333,46.080
13:43:04:448,41.531,-0.121,-0.208,0.001,28.024,161.700,45.801
13:43:04:448,41.532,-0.130,-0.185,-0.011,28.043,161.210,45.433
13:43:04:471,41.554,-0.154,-0.147,-0.019,27.936,160.443,44.585
13:43:04:527,41.610,-0.175,-0.116,-0.035,27.728,159.989,43.834
13:43:04:527,41.610,-0.214,-0.059,-0.022,27.038,159.644,42.428
13:43:04:55,41.633,-0.287,0.084,-0.014,26.240,159.639,41.259
13:43:04:576,41.659,-0.381,0.272,0.022,24.646,159.795,39.051
13:43:04:602,41.686,-0.361,0.438,0.029,23.300,159.937,37.192
13:43:04:63,41.713,-0.248,0.421,0.000,21.010,160.390,33.912
13:43:04:656,41.739,0.016,0.240,-0.091,18.726,160.226,30.344
13:43:04:712,41.795,0.140,0.002,-0.101,17.377,159.796,28.155
13:43:04:734,41.817,0.129,-0.233,-0.099,14.520,157.300,23.840
13:43:04:76,41.843,0.086,-0.224,-0.111,13.941,156.577,23.152
13:43:04:813,41.896,0.039,-0.119,-0.103,13.399,156.030,22.470
13:43:04:901,41.984,-0.037,0.016,-0.110,13.223,156.119,22.072
13:43:04:901,41.984,-0.092,0.152,-0.041,13.111,157.569,21.427
13:43:04:902,41.985,-0.062,0.109,0.007,13.021,160.428,20.778
13:43:04:903,41.986,-0.002,0.011,0.020,12.868,162.996,20.452
13:43:04:918,42.001,0.124,-0.115,0.010,12.495,167.227,20.252
13:43:04:944,42.027,0.148,-0.152,0.012,12.212,169.700,20.273
13:43:04:97,42.053,0.131,-0.150,0.025,11.898,172.285,20.381
13:43:04:996,42.079,0.041,-0.121,0.039,11.748,173.112,20.418
13:43:05:084,42.167,0.028,-0.089,0.026,11.588,173.699,20.330
13:43:05:085,42.168,-0.017,-0.051,0.022,11.398,174.145,20.063
13:43:05:086,42.169,0.012,-0.038,0.023,11.203,174.649,19.850
13:43:05:13,42.213,0.107,-0.069,-0.015,10.473,176.195,19.328
13:43:05:131,42.214,0.124,-0.108,-0.053,9.862,176.850,19.052
13:43:05:154,42.237,0.125,-0.127,-0.080,9.137,177.322,18.883
13:43:05:18,42.263,0.130,-0.136,-0.118,8.624,177.683,18.809
13:43:05:206,42.289,0.136,-0.105,-0.157,7.867,178.150,18.685
13:43:05:232,42.316,0.112,-0.086,-0.203,7.415,178.408,18.553
13:43:05:374,42.457,0.133,-0.037,-0.208,6.802,178.687,18.312
13:43:05:374,42.457,0.218,0.031,-0.206,6.429,178.959,18.136
13:43:05:374,42.458,0.225,0.121,-0.202,5.907,178.960,17.931
13:43:05:375,42.459,0.257,0.260,-0.192,5.494,178.753,17.895
13:43:05:422,42.505,0.210,0.372,-0.178,5.364,178.261,17.905
13:43:05:423,42.506,0.183,0.402,-0.193,5.428,176.762,17.952
13:43:05:424,42.507,0.139,0.157,-0.148,5.592,175.794,18.044
13:43:05:442,42.526,0.144,-0.004,-0.132,5.927,174.805,18.565
13:43:05:469,42.552,0.150,-0.225,-0.186,6.267,174.049,19.624
13:43:05:496,42.579,0.149,-0.226,-0.182,6.599,173.235,20.573
13:43:05:522,42.605,0.074,-0.097,-0.112,7.631,170.697,22.041
13:43:05:549,42.632,-0.055,0.029,-0.084,8.660,168.330,22.919
13:43:05:574,42.658,-0.127,0.263,-0.079,10.075,165.665,24.164
13:43:05:6,42.683,-0.096,0.314,0.023,11.834,164.311,25.506
13:43:05:626,42.709,-0.100,0.238,0.035,13.262,163.732,26.399
13:43:05:682,42.765,-0.172,0.072,0.044,15.475,164.133,28.098
13:43:05:683,42.766,-0.174,0.005,0.062,16.851,165.021,29.524
13:43:05:793,42.876,-0.176,-0.013,0.083,18.603,167.407,32.185
13:43:05:793,42.876,-0.199,-0.028,0.112,20.083,170.242,35.290
13:43:05:794,42.877,-0.231,-0.070,0.108,21.041,172.177,37.480
13:43:05:795,42.878,-0.266,-0.143,0.106,22.453,174.773,40.791
13:43:05:839,42.922,-0.274,-0.194,0.097,23.298,176.524,42.903
13:43:05:84,42.923,-0.271,-0.214,0.083,24.315,178.675,45.723
13:43:05:892,42.975,-0.268,-0.276,0.069,24.830,-179.815,47.274
13:43:05:892,42.975,-0.259,-0.312,0.054,25.364,-178.248,48.996
13:43:05:915,42.998,-0.253,-0.336,0.050,25.506,-176.794,49.953
13:43:05:972,43.055,-0.258,-0.306,0.040,25.324,-176.017,50.126
13:43:05:972,43.055,-0.286,-0.232,0.062,24.680,-174.924,49.629
13:43:05:994,43.077,-0.298,-0.192,0.071,24.067,-174.369,48.759
13:43:06:049,43.132,-0.322,-0.109,0.106,22.893,-173.527,46.719
13:43:06:05,43.133,-0.376,0.087,0.144,21.292,-172.483,43.840
13:43:06:074,43.157,-0.359,0.136,0.157,20.026,-171.860,41.442
13:43:06:13,43.213,-0.300,0.326,0.161,17.866,-170.715,37.156
13:43:06:13,43.213,-0.176,0.403,0.069,16.419,-169.932,33.844
13:43:06:151,43.234,-0.061,0.246,-0.015,14.627,-168.892,28.646
13:43:06:177,43.261,0.063,0.035,-0.064,13.642,-168.162,25.490
13:43:06:204,43.287,0.112,-0.093,-0.102,12.437,-166.535,21.762
13:43:06:289,43.372,0.145,-0.043,-0.072,11.618,-164.756,19.247
13:43:06:289,43.372,0.121,-0.002,-0.037,11.358,-163.105,18.142
13:43:06:29,43.373,0.107,0.113,0.042,11.348,-160.696,17.136
13:43:06:308,43.392,0.098,0.145,0.068,11.537,-158.426,16.743
13:43:06:393,43.476,0.142,0.100,0.097,11.893,-153.975,16.476
13:43:06:394,43.477,0.203,-0.065,0.035,12.073,-148.189,16.616
13:43:06:395,43.478,0.251,-0.182,-0.017,12.033,-144.005,16.884
13:43:06:414,43.497,0.281,-0.250,-0.079,11.731,-138.074,17.360
13:43:06:44,43.523,0.288,-0.258,-0.114,11.437,-134.834,17.582
13:43:06:466,43.549,0.255,-0.204,-0.136,10.985,-131.136,17.609
13:43:06:492,43.576,0.189,-0.157,-0.130,10.510,-129.281,17.221
13:43:06:548,43.631,0.171,-0.113,-0.143,10.139,-128.351,16.827
13:43:06:548,43.632,0.152,-0.075,-0.174,9.409,-127.321,16.147
13:43:06:627,43.710,0.145,-0.072,-0.242,8.750,-126.383,15.683
13:43:06:628,43.711,0.111,-0.078,-0.274,7.562,-125.497,15.039
13:43:06:683,43.767,-0.150,-0.091,-0.301,6.596,-124.992,14.686
13:43:06:683,43.767,-0.367,-0.125,-0.250,5.040,-123.646,14.123
13:43:06:684,43.767,-0.448,-0.049,-0.315,3.516,-120.047,13.525
13:43:06:704,43.787,-0.216,0.024,-0.630,2.706,-117.240,13.120
13:43:06:729,43.812,-0.187,0.132,-0.647,1.927,-115.341,12.552
13:43:06:755,43.838,-0.159,0.221,-0.629,1.650,-115.188,12.389
13:43:06:781,43.864,0.003,0.410,-0.649,1.607,-116.044,12.550
13:43:06:807,43.891,-0.068,0.463,-0.481,2.085,-119.778,12.994
13:43:06:836,43.919,-0.123,0.309,-0.328,2.665,-122.834,13.370
13:43:06:86,43.944,-0.032,0.031,-0.245,3.737,-126.820,14.099
13:43:06:886,43.969,0.121,-0.204,-0.269,4.550,-129.274,14.698
13:43:06:942,44.025,0.085,-0.226,-0.166,6.140,-134.806,15.707
13:43:06:942,44.025,-0.194,-0.246,0.003,8.125,-141.629,16.665
13:43:06:994,44.077,-0.139,-0.105,-0.045,9.339,-144.477,17.506
13:43:06:996,44.079,0.007,0.146,-0.102,10.958,-146.212,19.008
13:43:07:045,44.128,0.121,0.334,-0.079,12.093,-146.596,20.021
13:43:07:073,44.156,0.203,0.389,0.050,14.274,-147.571,21.209
13:43:07:073,44.157,0.136,0.163,0.165,17.074,-148.549,22.140
13:43:07:098,44.181,0.092,0.051,0.199,19.036,-148.835,22.821
13:43:07:151,44.234,0.045,-0.072,0.234,21.635,-147.673,24.558
13:43:07:152,44.235,0.106,-0.102,0.262,23.035,-145.952,26.376
13:43:07:237,44.320,0.136,-0.106,0.289,24.634,-142.651,29.832
13:43:07:238,44.321,0.161,-0.111,0.318,25.807,-139.588,33.677
13:43:07:239,44.322,0.133,-0.126,0.339,26.540,-138.056,36.196
13:43:07:312,44.395,0.025,-0.256,0.377,28.459,-136.187,41.748
13:43:07:312,44.396,-0.011,-0.314,0.340,29.400,-135.969,44.435
13:43:07:313,44.397,-0.048,-0.349,0.303,29.781,-135.777,45.919
13:43:07:362,44.445,-0.091,-0.330,0.270,29.973,-135.828,47.604
13:43:07:362,44.445,-0.140,-0.257,0.297,29.828,-135.814,48.483
13:43:07:385,44.468,-0.165,-0.221,0.318,29.515,-135.938,48.561
13:43:07:411,44.494,-0.229,-0.166,0.383,28.423,-135.602,47.838
13:43:07:465,44.548,-0.288,-0.022,0.401,27.057,-135.306,46.729
13:43:07:493,44.576,-0.309,0.141,0.382,24.163,-134.134,43.902
13:43:07:494,44.577,-0.296,0.362,0.319,20.629,-132.865,39.597
13:43:07:574,44.658,-0.260,0.350,0.142,18.375,-132.028,36.069
13:43:07:575,44.659,-0.217,0.200,-0.094,15.662,-130.895,30.525
13:43:07:597,44.680,-0.118,-0.128,-0.227,13.054,-129.769,23.000
13:43:07:622,44.705,-0.079,-0.049,-0.164,12.392,-129.351,20.235
13:43:07:647,44.731,-0.084,0.054,-0.146,12.259,-128.743,18.991
13:43:07:674,44.757,-0.031,0.236,-0.089,12.422,-126.861,17.679
13:43:07:7,44.783,0.005,0.307,-0.072,12.747,-124.799,17.063
13:43:07:755,44.838,0.090,0.213,-0.022,13.469,-120.520,16.536
13:43:07:756,44.839,0.137,0.037,-0.051,13.959,-116.790,16.505
13:43:07:779,44.862,0.172,-0.189,-0.153,14.562,-110.165,17.084
13:43:07:834,44.917,0.180,-0.261,-0.201,14.869,-103.348,18.328
13:43:07:835,44.918,0.195,-0.274,-0.232,14.912,-99.273,19.330
13:43:07:886,44.969,0.175,-0.233,-0.232,14.833,-93.732,20.695
13:43:07:913,44.996,0.144,-0.193,-0.211,14.738,-91.410,21.324
13:43:07:913,44.996,0.106,-0.183,-0.195,14.500,-88.491,21.667
13:43:08:024,45.108,0.063,-0.181,-0.175,14.009,-87.098,21.294
13:43:08:025,45.108,0.035,-0.170,-0.191,13.503,-85.816,20.743
13:43:08:026,45.109,-0.015,-0.145,-0.239,12.515,-85.022,19.610
13:43:08:027,45.110,-0.057,-0.097,-0.264,11.737,-84.298,18.706
13:43:08:043,45.126,-0.100,-0.071,-0.288,10.440,-84.404,17.202
13:43:08:068,45.151,-0.177,0.020,-0.327,9.497,-84.568,16.152
13:43:08:094,45.177,-0.249,0.094,-0.363,7.974,-85.940,14.615
13:43:08:12,45.203,-0.281,0.224,-0.389,6.413,-88.250,13.312
13:43:08:175,45.258,-0.384,0.412,-0.355,5.408,-90.383,12.630
13:43:08:176,45.259,-0.738,0.591,-0.074,4.109,-93.488,11.925
13:43:08:199,45.282,-0.809,0.555,-0.034,3.523,-94.132,11.693
13:43:08:225,45.308,-0.364,0.090,-0.446,3.339,-92.743,11.673
13:43:08:251,45.334,-0.082,-0.252,-0.657,3.954,-92.592,12.281
13:43:08:277,45.361,-0.048,-0.285,-0.416,4.919,-96.316,12.931
13:43:08:333,45.416,-0.061,-0.224,0.005,7.027,-104.833,13.910
13:43:08:333,45.417,-0.185,0.068,0.059,8.581,-110.400,14.517
13:43:08:356,45.439,-0.134,0.344,0.000,10.754,-116.741,15.142
13:43:08:411,45.494,-0.057,0.409,-0.061,12.924,-119.438,15.692
13:43:08:412,45.495,0.097,0.291,-0.082,14.524,-119.153,16.368
13:43:08:462,45.545,0.249,0.042,-0.033,17.124,-116.812,18.203
13:43:08:49,45.573,0.263,-0.029,0.008,18.944,-114.585,19.912
13:43:08:491,45.574,0.234,-0.110,0.081,21.518,-111.091,23.224
13:43:08:543,45.626,0.249,-0.105,0.087,22.942,-108.224,25.900
13:43:08:544,45.627,0.297,-0.053,0.097,24.550,-104.042,30.265
13:43:08:567,45.650,0.296,-0.057,0.141,25.838,-100.577,34.500
13:43:08:623,45.706,0.295,-0.114,0.181,26.699,-98.928,37.041
13:43:08:623,45.706,0.257,-0.186,0.220,28.062,-97.355,40.309
13:43:08:645,45.729,0.198,-0.258,0.239,28.979,-96.761,42.153
13:43:08:673,45.756,0.160,-0.286,0.260,30.195,-96.366,44.385
13:43:08:727,45.810,0.125,-0.238,0.317,31.070,-96.149,46.005
13:43:08:727,45.810,0.114,-0.210,0.354,31.411,-96.080,46.687
13:43:08:75,45.833,0.096,-0.220,0.384,31.453,-95.826,47.169
13:43:08:833,45.916,0.084,-0.175,0.413,31.036,-95.605,47.116
13:43:08:833,45.917,0.074,-0.103,0.425,29.575,-94.979,46.310
13:43:08:857,45.940,0.072,0.031,0.415,27.216,-94.320,44.428
13:43:08:912,45.995,0.059,0.132,0.392,25.353,-93.957,42.478
13:43:08:912,45.995,0.015,0.240,0.296,22.595,-93.761,38.575
13:43:08:936,46.019,-0.105,0.145,0.154,21.004,-93.851,35.613
13:43:08:991,46.074,-0.166,-0.057,0.049,19.104,-94.126,31.282
13:43:08:991,46.074,-0.164,-0.125,-0.010,17.599,-94.147,27.581
13:43:09:016,46.100,-0.120,-0.092,-0.015,16.782,-93.996,25.567
13:43:09:016,46.100,-0.060,0.070,0.000,15.872,-93.347,23.110
13:43:09:039,46.122,-0.033,0.190,-0.005,15.477,-92.537,21.712
13:43:09:065,46.148,-0.033,0.248,-0.014,15.138,-90.554,19.753
13:43:09:091,46.174,-0.032,0.156,-0.118,14.977,-87.365,18.021
13:43:09:118,46.201,-0.031,0.048,-0.178,14.942,-84.577,17.083
13:43:09:145,46.228,-0.018,-0.130,-0.245,14.771,-79.829,16.119
13:43:09:172,46.255,-0.044,-0.182,-0.344,14.655,-76.596,15.727
13:43:09:197,46.280,-0.050,-0.176,-0.347,14.504,-72.810,15.280
13:43:09:223,46.306,-0.064,-0.130,-0.363,14.422,-71.006,14.967
13:43:09:249,46.332,-0.073,-0.104,-0.321,14.317,-69.463,14.327
13:43:09:275,46.358,-0.086,-0.131,-0.284,14.100,-68.527,13.575
13:43:09:33,46.413,-0.112,-0.151,-0.283,13.851,-67.878,13.118
13:43:09:331,46.414,-0.158,-0.170,-0.307,13.284,-66.755,12.588
13:43:09:354,46.437,-0.209,-0.148,-0.327,12.810,-66.074,12.341
13:43:09:38,46.463,-0.239,-0.120,-0.319,11.995,-65.424,12.058
13:43:09:407,46.491,-0.278,-0.011,-0.310,11.131,-65.411,11.869
13:43:09:433,46.516,-0.300,0.038,-0.294,10.559,-65.744,11.815
13:43:09:459,46.542,-0.285,0.111,-0.245,9.775,-66.507,11.918
13:43:09:515,46.598,-0.263,0.212,-0.210,9.312,-67.000,12.183
13:43:09:515,46.598,-0.301,0.319,-0.215,8.646,-67.449,12.808
13:43:09:538,46.621,-0.307,0.384,-0.216,8.070,-68.037,13.582
13:43:09:564,46.647,-0.322,0.373,-0.209,7.808,-68.626,14.120
13:43:09:59,46.673,-0.281,0.084,-0.150,7.698,-70.103,15.129
13:43:09:62,46.703,-0.275,-0.077,-0.139,7.772,-70.991,16.114
13:43:09:62,46.703,-0.204,-0.222,-0.202,8.234,-73.225,17.874
13:43:09:643,46.726,-0.010,-0.170,0.136,9.548,-77.943,18.357
13:43:09:7,46.783,-0.108,-0.199,0.655,12.067,-87.266,18.403
13:43:09:7,46.783,-0.106,0.294,0.117,13.951,-90.721,18.856
13:43:09:752,46.835,0.004,0.427,0.053,14.718,-90.830,19.634
13:43:09:752,46.836,0.187,0.327,0.001,15.943,-88.693,21.486
13:43:09:774,46.857,0.235,0.120,-0.112,16.890,-86.247,23.135
13:43:09:829,46.912,0.201,-0.025,-0.021,18.660,-82.932,26.121
13:43:09:83,46.913,0.182,-0.110,0.056,20.631,-80.272,29.480
13:43:09:882,46.965,0.206,-0.122,0.098,21.791,-78.446,31.937
13:43:09:883,46.966,0.266,-0.125,0.108,23.158,-75.479,35.850
13:43:09:934,47.017,0.279,-0.146,0.122,23.853,-73.591,38.386
13:43:09:935,47.018,0.278,-0.209,0.118,24.702,-71.164,41.764
13:43:09:957,47.041,0.234,-0.283,0.120,25.198,-69.887,43.629
13:43:09:985,47.068,0.224,-0.331,0.113,25.901,-68.507,45.754
13:43:10:01,47.093,0.203,-0.326,0.143,26.446,-67.616,47.035
13:43:10:036,47.120,0.229,-0.252,0.182,26.684,-67.234,47.336
13:43:10:063,47.146,0.273,-0.177,0.245,26.805,-66.945,46.862
13:43:10:118,47.201,0.291,-0.149,0.264,26.628,-66.749,45.996
13:43:10:119,47.202,0.311,-0.045,0.283,25.711,-66.113,43.968
13:43:10:141,47.224,0.313,0.092,0.276,23.938,-64.961,41.053
13:43:10:167,47.251,0.312,0.219,0.240,22.371,-63.898,38.591
13:43:10:194,47.277,0.226,0.397,0.143,19.920,-62.250,34.068
13:43:10:22,47.303,0.034,0.188,0.001,18.530,-61.313,30.683
13:43:10:246,47.329,-0.042,0.044,-0.057,16.898,-60.021,25.817
13:43:10:272,47.356,-0.101,-0.126,-0.075,15.640,-58.576,21.896
13:43:10:3,47.383,-0.113,-0.111,-0.096,14.935,-57.511,19.959
13:43:10:326,47.409,-0.089,-0.022,-0.118,14.104,-55.691,18.001
13:43:10:352,47.435,-0.119,0.182,-0.204,13.718,-54.217,17.147
13:43:10:378,47.461,-0.043,0.313,-0.130,13.459,-52.018,16.001
13:43:10:403,47.487,-0.161,0.152,-0.214,13.389,-50.163,15.280
13:43:10:43,47.513,-0.154,0.003,-0.182,13.414,-46.888,14.239
13:43:10:456,47.539,-0.214,-0.154,-0.210,13.385,-43.428,13.557
13:43:10:482,47.565,-0.225,-0.200,-0.220,13.301,-41.172,13.379
13:43:10:51,47.593,-0.272,-0.194,-0.218,13.093,-38.191,13.421
13:43:10:535,47.618,-0.258,-0.125,-0.185,12.944,-36.696,13.535
13:43:10:561,47.644,-0.249,-0.086,-0.144,12.759,-35.193,13.691
13:43:10:587,47.671,-0.224,-0.093,-0.118,12.591,-34.018,13.872
13:43:10:614,47.697,-0.229,-0.090,-0.099,12.448,-33.180,14.070
13:43:10:64,47.723,-0.247,-0.079,-0.083,12.269,-31.622,15.061
13:43:10:667,47.750,-0.244,-0.075,-0.066,12.264,-30.543,16.463
13:43:10:693,47.776,-0.249,-0.069,-0.033,11.704,-29.417,17.321
13:43:10:72,47.804,-0.248,-0.079,0.012,11.489,-28.973,18.379
13:43:10:745,47.828,-0.246,-0.085,0.038,10.851,-28.891,19.384
13:43:10:771,47.855,-0.233,-0.048,0.076,10.266,-29.646,20.396
13:43:10:797,47.880,-0.181,-0.017,0.129,9.997,-30.438,20.984
13:43:10:824,47.907,-0.117,-0.002,0.188,9.878,-32.406,21.621
13:43:10:85,47.933,-0.084,0.016,0.211,9.829,-33.167,22.018
13:43:10:876,47.959,-0.141,0.124,0.118,9.564,-33.605,22.586
13:43:10:903,47.987,-0.124,0.168,0.098,9.259,-33.572,22.793
13:43:10:929,48.012,-0.146,0.234,0.075,9.122,-33.770,22.665
13:43:10:955,48.038,-0.181,0.191,0.030,9.168,-34.438,22.171
13:43:10:981,48.064,-0.188,-0.006,0.008,9.390,-35.275,21.840
13:43:11:008,48.091,-0.195,-0.095,-0.010,9.949,-36.768,21.702
13:43:11:034,48.118,-0.130,-0.063,0.023,10.781,-38.544,22.197
13:43:11:06,48.143,-0.117,0.041,-0.001,11.489,-39.534,22.850
13:43:11:086,48.169,0.045,0.205,0.018,12.900,-40.914,23.962
13:43:11:114,48.197,0.112,0.246,-0.015,14.082,-41.361,24.796
13:43:11:14,48.223,0.205,0.183,-0.038,15.996,-41.021,26.254
13:43:11:165,48.248,0.216,0.163,-0.064,17.192,-40.051,27.436
13:43:11:192,48.275,0.227,0.050,-0.089,18.797,-37.858,29.601
13:43:11:217,48.301,0.213,-0.056,-0.099,20.096,-35.305,32.221
13:43:11:244,48.327,0.221,-0.107,-0.108,20.819,-33.668,34.159
13:43:11:27,48.354,0.225,-0.123,-0.100,21.808,-31.638,37.131
13:43:11:296,48.379,0.267,-0.105,-0.070,22.522,-30.741,38.968
13:43:11:323,48.406,0.301,-0.123,-0.041,23.173,-30.188,40.858
13:43:11:351,48.435,0.318,-0.208,-0.019,24.356,-29.712,42.668
13:43:11:375,48.458,0.284,-0.257,0.006,24.920,-29.333,43.579
13:43:11:431,48.514,0.253,-0.276,0.008,25.283,-28.550,44.465
13:43:11:431,48.514,0.218,-0.251,0.018,25.202,-27.798,44.676
13:43:11:454,48.537,0.213,-0.232,0.023,25.051,-27.400,44.397
13:43:11:48,48.563,0.223,-0.171,0.033,24.742,-27.014,43.295
13:43:11:506,48.589,0.245,-0.122,0.036,24.474,-26.759,42.142
13:43:11:532,48.616,0.257,-0.062,0.031,23.893,-26.270,39.871
13:43:11:56,48.643,0.306,0.104,0.011,23.302,-25.668,38.024
13:43:11:585,48.668,0.278,0.200,-0.024,22.059,-24.310,34.687
13:43:11:611,48.695,0.213,0.359,-0.065,20.613,-22.501,30.668
13:43:11:638,48.721,0.102,0.431,-0.093,19.708,-21.188,27.696
13:43:11:664,48.747,-0.086,0.247,-0.067,18.676,-19.403,23.288
13:43:11:69,48.773,-0.230,-0.031,-0.058,18.183,-18.325,20.751
13:43:11:716,48.799,-0.251,-0.133,-0.032,17.685,-16.730,17.881
13:43:11:744,48.827,-0.238,-0.135,-0.057,17.506,-15.321,16.187
13:43:11:77,48.853,-0.197,-0.054,-0.096,17.571,-14.179,15.642
13:43:11:795,48.878,-0.131,0.060,-0.154,17.918,-11.829,15.492
13:43:11:821,48.904,-0.114,0.092,-0.177,18.223,-9.581,15.736
13:43:11:848,48.931,-0.156,0.014,-0.203,18.590,-5.162,16.579
13:43:11:874,48.957,-0.249,-0.103,-0.166,18.632,-1.642,17.403
13:43:11:903,48.986,-0.303,-0.148,-0.125,18.315,3.515,18.734
13:43:11:928,49.011,-0.323,-0.207,-0.055,17.720,7.277,19.853
13:43:11:956,49.039,-0.304,-0.215,-0.041,17.291,8.742,20.359
13:43:11:956,49.039,-0.239,-0.177,0.004,16.665,9.252,20.744
13:43:12:008,49.091,-0.180,-0.113,0.035,16.265,9.228,20.818
13:43:12:008,49.092,-0.135,-0.069,0.049,15.632,8.630,20.787
13:43:12:031,49.114,-0.134,-0.033,0.072,14.876,8.477,20.718
13:43:12:058,49.141,-0.141,-0.021,0.099,14.279,8.406,20.691
13:43:12:084,49.167,-0.171,-0.014,0.156,13.245,8.604,20.707
13:43:12:11,49.193,-0.174,-0.017,0.186,12.519,8.158,20.734
13:43:12:166,49.249,-0.173,-0.031,0.228,11.448,7.509,20.819
13:43:12:166,49.249,0.032,-0.011,0.386,10.551,5.841,20.866
13:43:12:19,49.273,0.025,0.034,0.401,10.048,5.160,20.865
13:43:12:244,49.327,-0.126,0.077,0.319,9.524,4.155,20.972
13:43:12:245,49.328,-0.186,0.125,0.216,9.380,3.580,20.981
13:43:12:268,49.351,-0.196,0.164,0.160,9.328,2.656,20.969
13:43:12:294,49.377,-0.145,0.184,0.144,9.403,1.551,20.782
13:43:12:32,49.403,-0.209,0.264,0.139,9.635,-0.700,20.164
13:43:12:346,49.429,-0.236,0.165,0.104,10.055,-3.118,19.210
13:43:12:374,49.457,-0.254,0.064,0.071,10.500,-5.151,18.621
13:43:12:399,49.482,-0.236,-0.069,0.036,11.399,-8.041,18.189
13:43:12:425,49.508,-0.223,-0.017,-0.023,12.139,-10.158,18.280
13:43:12:451,49.534,-0.198,0.059,-0.066,13.530,-13.054,18.905
13:43:12:507,49.590,-0.096,0.219,-0.161,15.355,-16.154,19.758
13:43:12:507,49.590,-0.001,0.266,-0.201,16.801,-18.092,20.328
13:43:12:53,49.613,0.080,0.227,-0.241,19.194,-20.460,21.289
13:43:12:557,49.641,0.128,0.117,-0.243,20.798,-21.292,22.181
13:43:12:583,49.666,0.134,-0.027,-0.269,23.007,-21.097,24.256
13:43:12:609,49.692,0.141,-0.080,-0.269,24.272,-20.161,26.183
13:43:12:635,49.718,0.142,-0.123,-0.301,25.871,-18.267,29.650
13:43:12:662,49.745,0.181,-0.131,-0.304,27.271,-16.502,33.336
13:43:12:687,49.771,0.237,-0.165,-0.272,28.225,-15.757,35.638
13:43:12:714,49.797,0.267,-0.190,-0.238,29.341,-15.241,38.534
13:43:12:741,49.824,0.286,-0.236,-0.190,30.214,-15.065,40.253
13:43:12:766,49.849,0.267,-0.265,-0.156,31.147,-14.912,42.369
13:43:12:793,49.876,0.268,-0.248,-0.135,31.690,-14.771,43.931
13:43:12:819,49.902,0.292,-0.183,-0.097,31.869,-14.879,44.457
13:43:12:846,49.930,0.358,-0.129,-0.056,32.051,-15.339,44.499
13:43:12:872,49.955,0.388,-0.134,-0.026,32.039,-15.620,44.159
13:43:12:898,49.981,0.467,-0.085,-0.038,31.333,-15.337,43.309
13:43:12:924,50.007,0.437,0.022,-0.022,29.445,-14.030,41.934
13:43:12:95,50.033,0.387,0.082,-0.016,27.686,-12.755,40.608
13:43:12:978,50.061,0.238,0.125,0.000,24.833,-10.825,37.864
13:43:13:002,50.085,0.066,-0.001,0.083,23.133,-9.708,35.693
13:43:13:03,50.113,-0.015,-0.077,0.104,21.126,-8.297,32.422
13:43:13:055,50.138,-0.048,-0.121,0.093,19.772,-7.184,29.462
13:43:13:081,50.164,-0.011,-0.047,0.043,19.180,-6.574,27.689
13:43:13:107,50.191,0.033,0.085,-0.011,18.636,-5.429,25.280
13:43:13:134,50.217,0.049,0.170,-0.047,18.404,-4.284,23.820
13:43:13:162,50.245,-0.033,0.159,-0.063,18.023,-1.343,21.859
13:43:13:187,50.271,-0.162,0.053,-0.070,17.697,1.210,20.733
13:43:13:213,50.296,-0.238,-0.010,-0.046,17.136,5.398,19.314
13:43:13:239,50.322,-0.338,-0.089,-0.003,16.678,8.874,18.088
13:43:13:265,50.348,-0.358,-0.109,0.014,16.487,10.481,17.314
13:43:13:291,50.374,-0.335,-0.101,0.012,16.340,11.779,16.185
13:43:13:317,50.400,-0.295,-0.073,0.027,16.250,12.286,15.496
13:43:13:346,50.429,-0.296,-0.069,0.035,16.045,12.960,14.654
13:43:13:371,50.455,-0.324,-0.065,0.055,15.682,14.035,14.677
13:43:13:397,50.480,-0.347,-0.076,0.064,15.337,14.723,14.394
13:43:13:422,50.506,-0.350,-0.103,0.109,14.688,15.421,14.095
13:43:13:449,50.532,-0.345,-0.118,0.137,14.149,15.611,13.981
13:43:13:475,50.558,-0.343,-0.119,0.177,13.166,15.306,13.922
13:43:13:503,50.587,-0.350,-0.065,0.217,12.417,14.734,13.922
13:43:13:528,50.611,-0.347,-0.009,0.234,11.227,13.039,13.888
13:43:13:556,50.639,-0.327,0.086,0.239,10.110,10.385,13.857
13:43:13:582,50.665,-0.313,0.192,0.233,9.451,8.113,13.883
13:43:13:607,50.690,-0.297,0.271,0.220,8.690,4.368,14.013
13:43:13:633,50.716,-0.280,0.348,0.203,8.358,1.438,14.174
13:43:13:659,50.742,-0.294,0.339,0.174,8.253,-2.694,14.455
13:43:13:687,50.770,-0.217,0.075,0.076,8.666,-6.971,15.048
13:43:13:711,50.795,-0.188,-0.044,0.051,9.191,-9.351,15.810
13:43:13:738,50.821,-0.200,-0.076,-0.050,10.266,-12.675,17.598
13:43:13:765,50.849,-0.023,0.058,-0.058,11.222,-14.871,18.995
13:43:13:79,50.873,-0.011,0.123,-0.130,13.080,-17.943,21.290
13:43:13:847,50.930,0.083,0.255,-0.215,15.342,-20.765,23.365
13:43:13:847,50.930,0.128,0.262,-0.233,17.216,-22.769,24.480
13:43:13:869,50.952,0.283,0.139,-0.224,20.306,-25.279,25.939
13:43:13:895,50.979,0.333,-0.024,-0.232,22.296,-26.117,27.075
13:43:13:923,51.006,0.280,-0.103,-0.241,24.859,-25.641,29.426
13:43:13:949,51.033,0.290,-0.152,-0.266,26.237,-24.448,31.444
13:43:13:975,51.058,0.274,-0.168,-0.298,27.911,-22.255,34.814
13:43:14:033,51.116,0.294,-0.202,-0.310,29.333,-20.394,38.064
13:43:14:033,51.116,0.308,-0.209,-0.291,30.211,-19.596,39.923
13:43:14:034,51.117,0.320,-0.223,-0.244,31.381,-19.037,42.068
13:43:14:079,51.162,0.330,-0.228,-0.190,31.990,-18.995,43.074
13:43:14:109,51.192,0.324,-0.242,-0.170,32.563,-19.428,44.014
13:43:14:11,51.193,0.304,-0.236,-0.108,32.776,-20.352,44.352
13:43:14:16,51.244,0.305,-0.217,-0.075,32.774,-20.816,44.289
13:43:14:161,51.244,0.304,-0.159,-0.027,32.620,-21.933,43.795
13:43:14:213,51.296,0.374,-0.099,0.010,32.430,-22.410,43.194
13:43:14:214,51.297,0.427,-0.086,0.015,31.925,-22.918,42.007
13:43:14:266,51.349,0.529,0.097,-0.028,30.747,-22.429,40.528
13:43:14:267,51.350,0.532,0.153,-0.034,29.453,-21.548,39.249
13:43:14:289,51.372,0.481,0.332,-0.104,26.839,-19.353,36.678
13:43:14:315,51.398,0.333,0.289,-0.084,24.819,-17.529,34.434
