Time,Second,AccelerationX,AccelerationY,AccelerationZ,EulerAnglesX,EulerAnglesY,EulerAnglesZ
14:01:54:777,0.000,-0.136,0.020,-0.044,-5.690,-4.470,-5.008
14:01:54:803,0.026,0.141,-0.034,0.002,-5.871,-4.335,-5.527
14:01:54:831,0.055,0.068,-0.098,-0.101,-5.896,-4.082,-5.806
14:01:54:857,0.080,0.127,-0.098,-0.028,-5.854,-3.658,-6.160
14:01:54:882,0.106,0.030,-0.118,-0.023,-5.794,-3.488,-6.349
14:01:54:908,0.131,0.088,-0.063,0.001,-5.722,-3.096,-6.600
14:01:54:934,0.158,0.099,-0.035,0.013,-5.638,-2.772,-6.688
14:01:54:961,0.184,0.047,-0.035,0.039,-5.457,-2.199,-6.782
14:01:54:987,0.210,0.055,-0.030,0.046,-5.275,-1.679,-6.801
14:01:55:014,0.237,0.017,0.009,0.067,-5.187,-1.426,-6.750
14:01:55:04,0.263,0.007,0.003,0.051,-5.053,-1.172,-6.553
14:01:55:065,0.289,-0.001,0.007,0.023,-5.009,-1.052,-6.353
14:01:55:092,0.316,-0.002,-0.001,0.012,-4.985,-0.883,-5.997
14:01:55:12,0.343,-0.020,-0.003,-0.045,-4.997,-0.731,-5.638
14:01:55:146,0.370,-0.021,-0.009,-0.046,-5.024,-0.654,-5.404
14:01:55:171,0.394,-0.009,-0.010,-0.021,-5.075,-0.571,-5.079
14:01:55:197,0.421,-0.001,-0.005,0.009,-5.107,-0.538,-4.868
14:01:55:223,0.447,-0.002,-0.006,0.028,-5.184,-0.518,-4.563
14:01:55:249,0.472,0.013,-0.009,0.015,-5.299,-0.566,-4.252
14:01:55:275,0.499,0.009,-0.011,0.003,-5.378,-0.638,-4.027
14:01:55:302,0.525,0.004,-0.018,-0.021,-5.542,-0.745,-3.644
14:01:55:329,0.553,0.013,-0.012,-0.006,-5.660,-0.789,-3.376
14:01:55:355,0.579,-0.004,-0.009,-0.012,-5.846,-0.815,-2.949
14:01:55:382,0.605,-0.005,-0.004,-0.001,-5.985,-0.827,-2.646
14:01:55:409,0.633,-0.008,-0.006,-0.001,-6.202,-0.872,-2.180
14:01:55:435,0.658,-0.007,-0.012,0.003,-6.435,-0.969,-1.709
14:01:55:461,0.684,-0.005,-0.005,0.000,-6.599,-1.041,-1.396
14:01:55:487,0.711,-0.014,-0.012,0.001,-6.851,-1.171,-0.920
14:01:55:513,0.736,-0.008,-0.002,0.016,-7.034,-1.295,-0.600
14:01:55:567,0.791,-0.018,0.011,0.025,-7.295,-1.545,-0.110
14:01:55:568,0.792,-0.012,0.007,0.028,-7.570,-1.913,0.376
14:01:55:591,0.814,-0.018,0.000,0.030,-7.762,-2.216,0.687
14:01:55:617,0.840,-0.011,0.001,0.012,-8.098,-2.720,1.128
14:01:55:643,0.867,-0.019,0.004,0.017,-8.347,-3.050,1.406
14:01:55:67,0.893,-0.006,-0.001,0.000,-8.764,-3.609,1.798
14:01:55:695,0.919,0.023,-0.001,0.004,-9.048,-3.951,2.045
14:01:55:725,0.948,0.012,-0.012,0.009,-9.476,-4.330,2.416
14:01:55:726,0.949,0.016,-0.014,0.012,-9.925,-4.729,2.855
14:01:55:777,1.001,0.006,-0.002,0.009,-10.228,-5.029,3.173
14:01:55:778,1.002,0.017,-0.011,0.013,-10.701,-5.459,3.680
14:01:55:801,1.024,-0.005,-0.007,0.003,-11.013,-5.729,4.041
14:01:55:856,1.079,-0.016,0.000,-0.005,-11.506,-6.175,4.609
14:01:55:857,1.080,-0.001,0.017,-0.026,-12.002,-6.603,5.151
14:01:55:909,1.132,-0.024,0.012,-0.033,-12.304,-6.799,5.479
14:01:55:909,1.132,-0.052,0.028,-0.031,-12.674,-6.990,5.870
14:01:55:932,1.155,-0.017,0.030,-0.033,-12.863,-7.088,6.037
14:01:55:96,1.183,-0.020,0.019,-0.033,-13.111,-7.129,6.196
14:01:55:984,1.208,-0.007,0.006,-0.023,-13.235,-7.085,6.225
14:01:56:011,1.234,0.001,-0.006,0.009,-13.260,-7.026,6.212
14:01:56:038,1.261,0.001,-0.008,-0.001,-13.272,-6.927,6.141
14:01:56:064,1.287,-0.002,-0.009,0.005,-13.274,-6.877,6.100
14:01:56:089,1.313,0.007,-0.005,0.000,-13.278,-6.835,6.040
14:01:56:116,1.339,-0.001,-0.002,-0.001,-13.276,-6.845,6.006
14:01:56:142,1.366,-0.008,0.012,-0.022,-13.276,-6.866,5.963
14:01:56:168,1.391,-0.010,0.014,-0.019,-13.241,-6.842,5.875
14:01:56:195,1.418,-0.012,0.013,-0.021,-13.179,-6.790,5.774
14:01:56:22,1.444,-0.008,-0.007,-0.004,-13.016,-6.665,5.573
14:01:56:247,1.471,0.004,-0.002,0.003,-12.884,-6.560,5.395
14:01:56:273,1.496,-0.001,-0.004,0.004,-12.677,-6.367,5.105
14:01:56:299,1.523,0.009,-0.008,-0.006,-12.471,-6.209,4.841
14:01:56:326,1.549,0.017,-0.015,0.006,-12.325,-6.108,4.692
14:01:56:352,1.575,0.015,-0.014,0.008,-12.119,-5.991,4.504
14:01:56:379,1.603,-0.004,0.001,0.002,-11.999,-5.931,4.424
14:01:56:404,1.627,-0.008,0.005,0.002,-11.825,-5.852,4.296
14:01:56:432,1.655,0.002,-0.008,0.002,-11.714,-5.775,4.191
14:01:56:459,1.682,-0.002,-0.010,-0.015,-11.556,-5.664,4.021
14:01:56:484,1.708,0.005,-0.008,-0.001,-11.403,-5.558,3.848
14:01:56:51,1.733,0.006,-0.006,0.009,-11.305,-5.465,3.720
14:01:56:536,1.759,0.007,-0.004,0.006,-11.152,-5.311,3.552
14:01:56:562,1.785,0.009,-0.002,0.007,-11.069,-5.222,3.457
14:01:56:588,1.812,0.005,-0.009,0.003,-10.949,-5.096,3.348
14:01:56:614,1.837,-0.001,0.002,-0.007,-10.840,-4.973,3.271
14:01:56:641,1.864,-0.001,-0.004,0.005,-10.771,-4.906,3.225
14:01:56:694,1.917,-0.014,-0.002,0.014,-10.670,-4.820,3.158
14:01:56:722,1.945,0.011,0.000,-0.001,-10.616,-4.803,3.109
14:01:56:723,1.946,0.004,-0.009,-0.006,-10.542,-4.728,3.027
14:01:56:746,1.969,0.011,-0.010,-0.006,-10.493,-4.646,2.977
14:01:56:772,1.995,0.000,-0.007,-0.003,-10.416,-4.532,2.921
14:01:56:798,2.021,-0.008,-0.002,-0.003,-10.333,-4.444,2.872
14:01:56:825,2.048,0.003,-0.001,0.005,-10.279,-4.393,2.826
14:01:56:852,2.075,0.004,-0.002,-0.005,-10.202,-4.324,2.759
14:01:56:878,2.101,0.000,-0.008,-0.001,-10.148,-4.283,2.714
14:01:56:903,2.126,0.000,-0.008,-0.008,-10.072,-4.205,2.647
14:01:56:929,2.153,0.000,-0.007,0.006,-9.990,-4.116,2.578
14:01:56:956,2.179,0.000,-0.003,0.004,-9.941,-4.074,2.533
14:01:56:982,2.205,0.000,-0.004,0.009,-9.888,-4.037,2.473
14:01:57:008,2.232,0.000,-0.008,-0.003,-9.851,-4.039,2.444
14:01:57:034,2.258,-0.005,-0.004,0.002,-9.803,-4.018,2.391
14:01:57:06,2.284,0.001,-0.005,0.000,-9.773,-3.998,2.350
14:01:57:087,2.311,0.002,-0.005,0.003,-9.740,-3.967,2.288
14:01:57:114,2.337,0.007,-0.003,0.000,-9.711,-3.932,2.242
14:01:57:139,2.363,0.005,-0.009,0.003,-9.688,-3.904,2.221
14:01:57:166,2.389,0.000,-0.004,-0.001,-9.670,-3.858,2.210
14:01:57:193,2.416,0.001,-0.006,0.001,-9.656,-3.827,2.206
14:01:57:22,2.443,-0.002,-0.001,0.000,-9.631,-3.806,2.201
14:01:57:245,2.468,0.000,-0.003,0.004,-9.602,-3.805,2.197
14:01:57:271,2.495,0.000,-0.006,-0.002,-9.592,-3.804,2.196
14:01:57:297,2.521,-0.005,-0.007,0.000,-9.567,-3.799,2.197
14:01:57:323,2.547,0.009,-0.007,0.001,-9.557,-3.798,2.196
14:01:57:349,2.573,0.005,-0.009,-0.001,-9.557,-3.798,2.196
14:01:57:376,2.599,-0.001,-0.003,-0.003,-9.557,-3.798,2.196
14:01:57:402,2.625,0.000,-0.003,0.005,-9.541,-3.803,2.199
14:01:57:428,2.652,0.000,-0.009,0.003,-9.537,-3.808,2.194
14:01:57:454,2.678,-0.011,0.001,-0.005,-9.536,-3.823,2.200
14:01:57:481,2.704,0.000,-0.008,-0.001,-9.526,-3.842,2.201
14:01:57:507,2.730,-0.002,-0.003,-0.003,-9.506,-3.837,2.203
14:01:57:533,2.757,-0.009,-0.002,0.005,-9.495,-3.842,2.207
14:01:57:561,2.784,0.003,-0.007,-0.005,-9.485,-3.842,2.206
14:01:57:587,2.810,0.001,-0.005,0.001,-9.476,-3.842,2.204
14:01:57:612,2.836,0.000,-0.004,0.000,-9.476,-3.842,2.204
14:01:57:638,2.862,0.001,-0.006,0.005,-9.476,-3.842,2.204
14:01:57:695,2.918,0.003,-0.001,-0.004,-9.477,-3.838,2.229
14:01:57:695,2.919,0.000,-0.002,0.003,-9.479,-3.837,2.264
14:01:57:717,2.940,-0.001,-0.003,-0.003,-9.480,-3.839,2.295
14:01:57:743,2.966,0.006,-0.007,0.004,-9.500,-3.839,2.342
14:01:57:77,2.993,0.003,-0.002,0.004,-9.515,-3.833,2.383
14:01:57:797,3.021,0.001,-0.005,0.006,-9.547,-3.800,2.454
14:01:57:824,3.048,0.003,-0.005,0.001,-9.588,-3.744,2.540
14:01:57:85,3.073,-0.002,-0.004,0.002,-9.613,-3.715,2.595
14:01:57:874,3.098,0.005,0.001,0.000,-9.667,-3.665,2.697
14:01:57:901,3.125,-0.002,-0.011,0.011,-9.705,-3.637,2.765
14:01:57:957,3.181,-0.018,-0.011,0.003,-9.770,-3.613,2.855
14:01:57:958,3.181,-0.007,-0.008,0.004,-9.819,-3.638,2.904
14:01:57:98,3.203,0.010,0.005,0.005,-9.907,-3.706,2.961
14:01:58:006,3.229,0.000,0.000,0.001,-10.010,-3.771,3.024
14:01:58:035,3.258,0.001,-0.005,-0.005,-10.079,-3.802,3.070
14:01:58:036,3.259,-0.009,-0.004,0.008,-10.193,-3.823,3.127
14:01:58:084,3.308,0.006,-0.006,0.000,-10.274,-3.848,3.159
14:01:58:113,3.337,0.001,-0.007,-0.002,-10.399,-3.887,3.199
14:01:58:114,3.338,0.006,-0.006,-0.003,-10.535,-3.946,3.231
14:01:58:166,3.390,-0.002,-0.001,0.006,-10.626,-3.997,3.263
14:01:58:167,3.390,0.005,-0.008,0.008,-10.770,-4.063,3.312
14:01:58:19,3.413,0.005,-0.004,-0.001,-10.870,-4.106,3.354
14:01:58:215,3.439,-0.004,-0.007,0.001,-11.038,-4.169,3.412
14:01:58:242,3.465,0.004,-0.007,-0.002,-11.143,-4.211,3.445
14:01:58:268,3.491,0.000,-0.006,-0.003,-11.318,-4.274,3.494
14:01:58:294,3.518,-0.001,0.002,-0.016,-11.486,-4.362,3.550
14:01:58:32,3.544,0.000,-0.003,-0.002,-11.596,-4.432,3.592
14:01:58:347,3.571,0.004,-0.008,0.002,-11.758,-4.505,3.651
14:01:58:374,3.597,-0.006,-0.005,-0.006,-11.874,-4.539,3.685
14:01:58:399,3.623,-0.001,0.001,-0.008,-12.047,-4.620,3.751
14:01:58:426,3.649,-0.005,-0.003,0.003,-12.223,-4.715,3.815
14:01:58:452,3.675,0.001,-0.004,-0.011,-12.337,-4.806,3.861
14:01:58:478,3.702,0.002,-0.008,0.005,-12.503,-4.932,3.928
14:01:58:507,3.730,-0.002,-0.003,-0.005,-12.622,-5.024,3.974
14:01:58:532,3.755,0.013,-0.005,-0.008,-12.798,-5.199,4.074
14:01:58:558,3.781,-0.010,-0.013,0.008,-12.917,-5.311,4.159
14:01:58:584,3.807,-0.003,-0.006,0.008,-13.091,-5.496,4.285
14:01:58:61,3.833,0.000,-0.005,0.003,-13.266,-5.717,4.422
14:01:58:666,3.889,0.002,-0.008,0.007,-13.387,-5.866,4.518
14:01:58:666,3.889,0.006,0.002,-0.004,-13.579,-6.104,4.645
14:01:58:688,3.911,0.002,-0.001,-0.003,-13.701,-6.238,4.735
14:01:58:715,3.938,0.004,-0.002,-0.010,-13.878,-6.415,4.865
14:01:58:74,3.964,-0.002,-0.003,-0.008,-14.055,-6.556,5.010
14:01:58:767,3.990,-0.007,0.002,-0.009,-14.162,-6.641,5.112
14:01:58:793,4.016,-0.008,-0.001,-0.003,-14.306,-6.741,5.233
14:01:58:819,4.043,-0.002,0.004,-0.012,-14.397,-6.797,5.304
14:01:58:846,4.069,-0.001,-0.003,-0.001,-14.508,-6.821,5.390
14:01:58:873,4.097,-0.009,-0.008,0.002,-14.605,-6.827,5.466
14:01:58:9,4.123,-0.006,-0.002,-0.003,-14.665,-6.840,5.502
14:01:58:925,4.148,-0.009,0.008,-0.008,-14.725,-6.876,5.551
14:01:58:951,4.174,-0.005,0.001,-0.001,-14.748,-6.876,5.570
14:01:58:977,4.200,-0.008,-0.007,-0.005,-14.793,-6.825,5.585
14:01:59:003,4.227,-0.010,0.004,-0.017,-14.810,-6.801,5.580
14:01:59:029,4.253,0.004,-0.005,-0.001,-14.793,-6.785,5.555
14:01:59:056,4.280,-0.009,0.003,-0.005,-14.789,-6.760,5.511
14:01:59:082,4.305,0.000,-0.006,-0.003,-14.788,-6.745,5.478
14:01:59:109,4.332,-0.010,-0.011,-0.001,-14.788,-6.700,5.407
14:01:59:134,4.358,-0.006,-0.011,0.006,-14.781,-6.681,5.343
14:01:59:161,4.384,0.012,-0.003,-0.009,-14.783,-6.678,5.242
14:01:59:187,4.410,-0.004,-0.002,0.002,-14.788,-6.662,5.165
14:01:59:214,4.438,0.003,-0.008,0.000,-14.819,-6.657,5.074
14:01:59:24,4.463,0.004,-0.006,0.004,-14.857,-6.661,4.975
14:01:59:266,4.489,0.002,-0.004,-0.006,-14.883,-6.665,4.919
14:01:59:292,4.515,-0.007,-0.006,0.001,-14.932,-6.650,4.819
14:01:59:318,4.542,0.000,-0.008,-0.002,-14.960,-6.657,4.749
14:01:59:345,4.568,0.014,-0.003,-0.001,-15.020,-6.664,4.628
14:01:59:371,4.594,-0.012,-0.011,-0.001,-15.090,-6.568,4.485
14:01:59:397,4.621,-0.008,-0.006,0.005,-15.140,-6.491,4.376
14:01:59:425,4.648,0.003,0.001,-0.018,-15.194,-6.435,4.201
14:01:59:451,4.674,-0.012,-0.004,-0.006,-15.215,-6.403,4.074
14:01:59:476,4.699,-0.019,0.010,-0.021,-15.221,-6.395,3.862
14:01:59:502,4.725,0.004,-0.004,-0.001,-15.175,-6.365,3.625
14:01:59:529,4.752,-0.026,-0.001,-0.009,-15.122,-6.283,3.415
14:01:59:554,4.778,-0.003,0.005,0.006,-15.050,-6.193,3.070
14:01:59:581,4.804,-0.009,0.004,-0.012,-15.016,-6.117,2.788
14:01:59:636,4.860,0.005,-0.008,0.009,-14.955,-5.962,2.326
14:01:59:637,4.861,0.014,-0.010,-0.007,-14.926,-5.869,2.008
14:01:59:66,4.883,-0.006,-0.013,0.000,-14.885,-5.721,1.509
14:01:59:686,4.909,-0.005,-0.006,0.025,-14.864,-5.604,0.973
14:01:59:712,4.936,-0.021,-0.003,-0.006,-14.864,-5.525,0.600
14:01:59:739,4.962,-0.018,-0.013,-0.010,-14.853,-5.430,-0.003
14:01:59:765,4.988,-0.010,0.012,-0.019,-14.847,-5.399,-0.436
14:01:59:791,5.014,0.013,0.025,0.013,-14.811,-5.351,-1.157
14:01:59:818,5.041,-0.008,0.018,0.009,-14.747,-5.234,-1.916
14:01:59:843,5.067,-0.027,0.002,-0.005,-14.681,-5.146,-2.450
14:01:59:87,5.093,-0.023,0.008,-0.006,-14.576,-5.042,-3.294
14:01:59:895,5.119,-0.014,0.025,-0.006,-14.461,-5.021,-4.220
14:01:59:922,5.146,0.008,0.030,0.003,-14.352,-5.007,-4.907
14:01:59:949,5.172,-0.059,0.045,0.003,-14.163,-4.879,-6.002
14:01:59:975,5.198,-0.026,0.046,0.001,-14.020,-4.764,-6.746
14:02:00:001,5.224,-0.052,0.062,0.021,-13.769,-4.553,-7.878
14:02:00:027,5.250,-0.049,0.084,0.018,-13.586,-4.380,-8.703
14:02:00:053,5.276,-0.085,0.107,0.016,-13.306,-4.074,-10.130
14:02:00:081,5.305,-0.124,0.093,0.011,-12.970,-3.593,-11.717
14:02:00:107,5.331,-0.108,0.114,0.019,-12.728,-3.308,-12.846
14:02:00:133,5.356,-0.135,0.111,0.060,-12.284,-2.832,-14.550
14:02:00:158,5.382,-0.271,0.064,0.010,-11.924,-2.491,-15.717
14:02:00:185,5.408,-0.221,0.009,-0.119,-11.378,-2.062,-17.629
14:02:00:211,5.434,-0.257,-0.087,-0.127,-10.971,-1.906,-19.033
14:02:00:237,5.460,-0.243,-0.105,-0.119,-10.328,-1.587,-21.550
14:02:00:264,5.487,-0.381,0.056,0.067,-9.723,-1.386,-24.859
14:02:00:29,5.513,-1.086,0.242,-0.173,-9.214,-0.803,-27.644
14:02:00:316,5.539,-1.185,0.313,-0.395,-9.118,0.164,-33.126
14:02:00:342,5.565,-1.198,0.239,-0.396,-9.246,0.499,-37.193
14:02:00:371,5.594,-0.803,0.248,-0.269,-9.331,0.562,-43.296
14:02:00:372,5.595,-0.310,0.323,-0.218,-9.752,0.307,-47.970
14:02:00:424,5.647,-0.835,-0.459,-0.217,-9.489,-0.056,-49.184
14:02:00:424,5.648,-0.795,-0.922,-0.147,-10.382,-0.471,-49.049
14:02:00:476,5.700,-0.459,-0.860,-0.234,-10.967,-1.315,-47.834
14:02:00:477,5.700,-0.434,-0.796,-0.287,-12.264,-2.981,-44.341
14:02:00:5,5.723,-0.281,-0.756,-0.245,-13.401,-5.649,-38.550
14:02:00:555,5.779,-0.267,-0.677,-0.301,-13.779,-7.674,-33.471
14:02:00:556,5.779,-0.189,-0.422,-0.157,-13.760,-10.285,-24.508
14:02:00:579,5.803,-0.054,-0.209,-0.197,-13.791,-11.841,-17.884
14:02:00:605,5.828,0.612,0.401,-0.115,-14.119,-14.553,-7.426
14:02:00:631,5.854,2.001,0.597,0.331,-14.205,-16.416,-1.068
14:02:00:657,5.881,2.261,-0.124,0.437,-14.357,-17.790,5.415
14:02:00:684,5.907,2.396,-0.197,-0.400,-15.094,-16.899,6.936
14:02:00:709,5.933,0.313,1.896,5.093,-14.063,-17.697,-2.474
14:02:00:736,5.959,1.897,0.716,0.240,-15.062,-18.700,-6.342
14:02:00:764,5.987,0.258,0.483,0.100,-15.023,-18.721,-9.058
14:02:00:79,6.014,0.048,0.190,0.287,-15.848,-17.582,-11.834
14:02:00:844,6.067,0.225,0.485,-0.046,-16.567,-16.482,-13.828
14:02:00:844,6.068,-0.228,0.595,0.140,-16.776,-15.524,-14.735
14:02:00:869,6.092,-0.465,0.447,0.100,-16.789,-13.396,-16.077
14:02:00:893,6.117,-0.456,0.230,0.092,-16.494,-11.699,-17.082
14:02:00:948,6.171,-0.186,-0.180,-0.229,-15.283,-7.270,-20.240
14:02:00:973,6.197,-0.132,-0.077,-0.421,-14.779,-5.258,-22.693
14:02:00:999,6.222,-0.552,-0.266,-0.337,-14.844,-3.220,-26.292
14:02:01:026,6.249,-0.591,-0.169,-0.094,-14.906,-1.382,-29.547
14:02:01:051,6.275,-0.994,-0.222,0.117,-14.825,2.046,-35.945
14:02:01:077,6.300,-1.594,0.411,-0.047,-14.426,4.864,-40.976
14:02:01:105,6.328,-1.836,0.373,-0.078,-13.531,8.624,-48.241
14:02:01:13,6.353,-1.011,-0.134,-0.028,-13.692,9.918,-53.071
14:02:01:156,6.379,-1.066,-0.930,0.055,-14.799,10.555,-54.215
14:02:01:182,6.405,-0.392,-0.865,0.186,-17.027,10.662,-53.433
14:02:01:208,6.432,-0.367,-0.777,-0.070,-17.655,10.788,-50.976
14:02:01:235,6.458,-0.591,-0.741,0.141,-18.072,10.934,-44.496
14:02:01:261,6.484,-0.534,-0.465,0.064,-17.821,10.379,-38.530
14:02:01:287,6.510,-0.332,-0.231,0.140,-16.783,9.769,-28.122
14:02:01:313,6.536,-0.207,-0.032,0.160,-15.524,11.729,-16.973
14:02:01:34,6.563,0.142,0.406,0.272,-15.948,13.454,-9.178
14:02:01:396,6.619,1.945,0.653,-0.162,-17.947,14.784,2.044
14:02:01:396,6.619,2.845,0.285,-0.190,-19.605,15.425,7.930
14:02:01:418,6.642,2.343,-0.422,-0.619,-20.953,17.289,11.907
14:02:01:445,6.668,5.005,0.931,2.774,-21.412,17.742,9.031
14:02:01:472,6.695,-2.618,0.419,2.903,-20.652,14.828,4.509
14:02:01:497,6.720,1.119,-1.580,0.145,-20.264,14.628,-2.348
14:02:01:523,6.747,0.179,0.318,0.207,-20.662,15.680,-5.132
14:02:01:55,6.773,0.106,0.314,-0.393,-21.134,17.156,-8.247
14:02:01:576,6.799,0.138,0.327,0.249,-21.385,18.367,-10.373
14:02:01:602,6.825,-0.072,0.510,-0.059,-21.456,19.206,-11.416
14:02:01:628,6.852,-0.109,0.353,0.400,-21.513,20.770,-12.896
14:02:01:656,6.879,-0.126,0.212,0.333,-21.475,22.091,-14.108
14:02:01:681,6.904,-0.340,0.050,0.268,-21.464,24.532,-16.365
14:02:01:737,6.960,-0.498,-0.005,0.113,-21.292,26.115,-18.004
14:02:01:737,6.960,-0.650,-0.203,0.029,-21.225,28.359,-21.142
14:02:01:76,6.983,-0.757,-0.110,0.360,-21.539,30.759,-26.180
14:02:01:817,7.040,-0.814,-0.002,0.599,-22.048,32.913,-30.700
14:02:01:817,7.040,-1.180,0.095,0.905,-22.345,37.755,-39.123
14:02:01:838,7.062,-1.269,0.836,1.052,-22.485,41.084,-45.001
14:02:01:865,7.088,-0.706,0.610,0.232,-23.987,44.363,-52.210
14:02:01:891,7.114,-0.848,-1.182,0.933,-23.506,47.664,-55.018
14:02:01:917,7.141,-0.070,-1.169,0.555,-23.110,49.653,-55.184
14:02:01:944,7.167,-0.217,-1.004,0.483,-22.350,51.973,-52.361
14:02:01:971,7.195,-0.210,-0.800,0.517,-22.261,52.809,-48.084
14:02:01:997,7.220,-0.170,-0.496,0.477,-21.436,52.933,-38.870
14:02:02:023,7.246,0.138,-0.319,0.359,-20.041,53.387,-31.667
14:02:02:048,7.272,0.411,-0.150,0.415,-17.571,56.499,-20.353
14:02:02:075,7.298,0.931,0.424,-0.560,-17.767,58.940,-8.523
14:02:02:1,7.324,1.464,0.657,-1.589,-18.458,59.191,-1.075
14:02:02:127,7.351,1.993,-0.039,-2.202,-19.508,59.082,5.984
14:02:02:153,7.376,1.099,-0.058,-2.055,-19.607,59.088,6.875
14:02:02:179,7.403,4.775,1.827,-0.560,-19.458,57.777,-0.576
14:02:02:235,7.458,-0.536,0.464,-2.894,-19.690,57.508,-5.846
14:02:02:236,7.459,0.283,-0.185,-0.181,-19.621,57.441,-8.642
14:02:02:258,7.482,-0.003,0.073,-0.014,-20.159,59.055,-12.009
14:02:02:285,7.508,-0.030,0.283,-0.023,-20.343,59.739,-13.672
14:02:02:34,7.563,0.165,0.336,0.196,-20.452,61.230,-15.623
14:02:02:34,7.564,0.061,0.545,0.448,-20.458,62.998,-17.192
14:02:02:363,7.586,0.151,0.387,0.637,-20.310,64.514,-18.491
14:02:02:389,7.613,-0.006,0.087,0.617,-19.963,67.085,-21.039
14:02:02:416,7.639,-0.176,0.040,0.567,-19.634,68.761,-22.862
14:02:02:442,7.665,-0.530,0.018,0.626,-19.207,71.085,-26.024
14:02:02:469,7.692,-0.502,-0.144,0.695,-18.855,72.639,-29.167
14:02:02:495,7.718,-0.638,-0.315,1.145,-18.859,75.313,-35.456
14:02:02:521,7.744,-0.390,0.021,1.473,-19.298,79.031,-43.402
14:02:02:547,7.770,-0.485,0.290,1.703,-18.650,81.566,-48.886
14:02:02:573,7.797,-0.405,0.474,1.459,-17.916,83.709,-55.883
14:02:02:6,7.823,-0.535,-1.023,1.301,-16.909,84.916,-58.001
14:02:02:626,7.849,0.101,-1.384,0.810,-17.254,86.680,-58.276
14:02:02:652,7.875,-0.236,-1.058,0.291,-17.614,87.216,-55.092
14:02:02:681,7.905,-0.234,-0.984,0.443,-18.179,87.287,-50.772
14:02:02:682,7.905,-0.078,-0.583,0.444,-18.832,85.968,-41.397
14:02:02:763,7.986,0.065,-0.198,0.209,-18.059,85.265,-33.875
14:02:02:763,7.987,0.274,0.035,0.263,-16.200,86.972,-21.735
14:02:02:764,7.988,0.558,0.446,-0.483,-16.125,88.714,-13.370
14:02:02:784,8.007,0.414,0.879,-1.869,-17.582,89.465,-1.306
14:02:02:839,8.062,0.667,0.163,-3.014,-19.506,89.640,7.246
14:02:02:839,8.062,0.590,-0.592,-2.984,-19.949,89.322,9.537
14:02:02:863,8.086,-0.769,0.053,-1.610,-20.173,88.454,8.269
14:02:02:889,8.112,2.933,1.835,0.123,-21.114,86.543,3.653
14:02:02:944,8.167,-0.146,0.393,-2.192,-20.068,85.759,-3.356
14:02:02:944,8.168,0.308,0.295,-0.002,-20.364,86.644,-7.762
14:02:02:967,8.191,-0.088,0.224,-0.019,-20.529,87.357,-9.780
14:02:02:994,8.217,0.248,0.339,-0.067,-20.731,88.126,-11.918
14:02:03:021,8.244,0.073,0.454,0.194,-20.793,88.862,-12.990
14:02:03:046,8.270,0.182,0.442,0.407,-20.943,90.461,-14.510
14:02:03:102,8.326,0.228,0.172,0.458,-20.842,92.735,-16.525
14:02:03:103,8.326,0.082,0.093,0.409,-20.652,94.485,-18.246
14:02:03:124,8.348,-0.090,0.015,0.682,-20.305,97.137,-21.141
14:02:03:151,8.374,-0.158,-0.048,0.737,-20.245,98.695,-23.544
14:02:03:236,8.459,-0.140,-0.057,0.787,-20.026,101.221,-29.041
14:02:03:236,8.459,0.197,0.048,1.276,-20.371,103.274,-33.830
14:02:03:237,8.460,0.401,0.123,1.296,-20.530,107.393,-42.306
14:02:03:256,8.479,0.374,0.362,1.905,-19.777,111.700,-51.020
14:02:03:284,8.507,0.093,0.541,0.871,-20.433,113.330,-55.744
14:02:03:308,8.532,0.481,-1.487,1.329,-19.028,115.560,-58.325
14:02:03:335,8.558,0.226,-0.997,0.022,-19.291,116.826,-58.404
14:02:03:361,8.584,0.050,-1.099,0.325,-19.758,117.949,-55.779
14:02:03:416,8.640,0.281,-0.779,0.383,-20.730,118.433,-48.973
14:02:03:417,8.640,0.333,-0.640,0.387,-20.251,118.472,-42.681
14:02:03:44,8.663,0.405,-0.257,0.236,-18.332,119.925,-32.154
14:02:03:495,8.718,0.520,-0.078,0.044,-17.057,122.236,-24.599
14:02:03:496,8.719,0.089,0.550,-0.689,-17.397,125.758,-12.745
14:02:03:55,8.773,-0.779,0.879,-2.323,-18.648,127.158,-5.166
14:02:03:55,8.773,-1.115,0.445,-2.926,-20.774,129.251,3.382
14:02:03:571,8.794,-1.465,-0.222,-2.077,-21.643,132.141,5.777
14:02:03:597,8.820,0.124,1.355,-5.480,-21.876,132.632,4.212
14:02:03:623,8.847,-1.744,-0.357,-0.314,-20.881,130.385,-1.701
14:02:03:65,8.873,-1.037,-0.431,-2.014,-20.977,129.678,-6.176
14:02:03:677,8.900,0.074,0.338,-0.133,-20.905,131.392,-10.400
14:02:03:732,8.955,-0.224,0.295,-0.025,-21.158,132.876,-13.282
14:02:03:732,8.955,0.091,0.338,-0.089,-21.205,133.665,-14.505
14:02:03:785,9.008,0.121,0.630,0.227,-21.170,135.095,-15.976
14:02:03:786,9.009,0.791,0.659,0.045,-21.174,136.282,-16.824
14:02:03:807,9.031,0.690,0.309,0.156,-21.024,139.021,-18.799
14:02:03:834,9.058,0.546,-0.097,0.579,-20.798,141.124,-20.682
14:02:03:86,9.083,0.519,-0.015,0.843,-20.230,143.907,-23.756
14:02:03:886,9.110,0.293,-0.016,0.705,-19.944,146.095,-28.339
14:02:03:912,9.135,0.915,-0.330,0.965,-19.904,147.624,-32.569
14:02:03:997,9.220,1.424,-0.316,0.780,-20.482,150.489,-40.206
14:02:03:997,9.220,1.527,0.311,0.748,-20.372,152.490,-45.892
14:02:03:998,9.221,0.641,0.481,0.711,-19.866,154.435,-53.280
14:02:04:017,9.240,1.262,-0.878,0.938,-19.122,157.340,-56.324
14:02:04:073,9.296,0.968,-1.422,0.192,-18.426,158.538,-56.246
14:02:04:073,9.296,0.274,-1.048,0.144,-17.520,160.096,-53.421
14:02:04:096,9.319,0.459,-0.965,0.129,-17.532,160.574,-49.154
14:02:04:152,9.375,0.418,-0.581,0.112,-17.630,159.815,-39.703
14:02:04:152,9.375,0.444,-0.216,0.045,-16.981,159.367,-32.052
14:02:04:175,9.398,0.095,0.095,-0.315,-15.248,160.816,-19.612
14:02:04:202,9.425,-0.612,0.364,-0.943,-15.332,162.985,-7.043
14:02:04:227,9.451,-1.640,0.577,-1.111,-16.109,162.743,0.687
14:02:04:285,9.509,-3.006,0.171,-1.473,-17.355,161.690,8.568
14:02:04:285,9.509,-2.779,-0.566,-0.634,-17.281,160.729,10.277
14:02:04:337,9.560,-3.184,2.317,-2.922,-17.546,161.281,2.845
14:02:04:337,9.560,-3.945,0.624,1.025,-16.867,160.913,-3.892
14:02:04:358,9.582,0.106,-1.717,-0.189,-16.386,160.536,-7.756
14:02:04:385,9.608,-0.362,0.391,0.014,-16.631,161.778,-11.801
14:02:04:411,9.634,-0.219,0.436,-0.095,-16.630,162.642,-13.792
14:02:04:437,9.661,-0.120,0.579,-0.161,-16.615,164.033,-16.192
14:02:04:463,9.686,0.578,0.804,-0.159,-16.491,165.784,-18.003
14:02:04:519,9.742,0.756,0.644,-0.190,-16.158,166.903,-19.257
14:02:04:519,9.743,0.812,0.118,-0.053,-15.194,169.032,-21.620
14:02:04:544,9.767,0.442,-0.026,0.323,-14.258,170.584,-23.438
14:02:04:569,9.793,0.419,0.192,0.634,-13.132,171.934,-26.730
14:02:04:595,9.818,0.998,-0.410,0.374,-12.809,171.915,-29.713
14:02:04:621,9.844,1.247,-0.565,0.129,-12.291,171.845,-35.228
14:02:04:647,9.871,1.390,-0.119,0.118,-12.360,172.513,-41.975
14:02:04:673,9.897,1.426,0.022,0.569,-11.281,173.076,-46.703
14:02:04:702,9.925,2.167,-0.186,0.944,-11.536,174.661,-51.704
14:02:04:728,9.951,0.686,-0.798,0.117,-11.977,174.276,-53.478
14:02:04:753,9.976,0.507,-0.785,0.395,-11.350,173.352,-53.559
14:02:04:779,10.003,0.195,-0.782,0.189,-10.782,172.589,-50.002
14:02:04:805,10.028,0.345,-0.836,0.198,-10.573,171.795,-45.457
14:02:04:831,10.054,0.304,-0.434,0.281,-10.153,170.604,-36.266
14:02:04:857,10.081,0.228,-0.142,0.151,-9.776,170.158,-29.044
14:02:04:884,10.107,0.063,0.020,-0.272,-9.648,170.311,-16.938
14:02:04:91,10.133,-1.573,0.677,-0.298,-11.026,168.641,-4.305
14:02:04:94,10.163,-2.515,0.841,-0.395,-11.992,167.320,3.487
14:02:04:94,10.163,-3.172,-0.272,-0.727,-12.999,166.820,10.912
14:02:04:991,10.215,-1.640,-0.458,-0.481,-13.139,167.359,12.233
14:02:04:992,10.215,-4.024,0.412,-0.021,-13.178,166.779,9.713
14:02:05:044,10.267,1.603,-3.345,1.249,-15.616,165.709,1.974
14:02:05:044,10.268,-2.446,0.235,-0.451,-14.307,166.093,-4.965
14:02:05:069,10.292,0.149,0.630,-0.146,-14.356,166.964,-9.450
14:02:05:094,10.317,-0.203,0.160,0.056,-14.232,167.657,-11.864
14:02:05:178,10.402,-0.230,0.365,-0.141,-14.076,168.313,-14.603
14:02:05:179,10.402,0.125,0.499,-0.061,-13.942,169.187,-15.985
14:02:05:18,10.403,0.679,0.765,-0.176,-13.914,170.666,-17.717
14:02:05:199,10.422,0.682,0.250,-0.094,-13.483,172.500,-19.992
14:02:05:255,10.478,0.757,0.013,0.030,-12.852,174.046,-21.807
14:02:05:255,10.479,0.372,-0.049,0.117,-11.513,176.411,-24.934
14:02:05:306,10.529,0.891,-0.150,0.304,-10.527,177.499,-27.462
14:02:05:307,10.530,1.065,-0.647,0.465,-9.549,177.320,-32.486
14:02:05:331,10.555,1.537,-0.005,0.165,-9.736,177.476,-36.406
14:02:05:443,10.666,1.453,0.356,0.284,-9.558,177.961,-43.486
14:02:05:444,10.667,2.182,0.106,0.639,-8.012,178.069,-50.432
14:02:05:445,10.668,2.104,-0.241,0.665,-8.776,178.438,-53.161
14:02:05:445,10.669,0.585,-0.876,-0.011,-8.201,177.676,-55.280
14:02:05:49,10.713,0.335,-0.797,0.228,-7.282,177.470,-55.023
14:02:05:491,10.714,0.269,-0.809,0.035,-6.919,177.345,-51.421
14:02:05:513,10.737,0.365,-0.687,0.087,-7.562,176.563,-44.468
14:02:05:54,10.763,0.391,-0.576,0.083,-7.875,175.787,-38.524
14:02:05:566,10.789,0.268,-0.341,0.018,-8.307,174.425,-28.314
14:02:05:592,10.816,-0.234,-0.087,-0.123,-8.347,173.738,-20.855
14:02:05:619,10.842,-0.806,0.070,-0.228,-8.885,172.802,-8.888
14:02:05:675,10.899,-2.053,0.819,-0.043,-9.557,171.599,-0.784
14:02:05:675,10.899,-3.124,0.517,-0.308,-11.016,168.995,10.089
14:02:05:697,10.920,-2.485,-0.948,-0.521,-12.026,166.918,16.099
14:02:05:752,10.975,-1.977,-1.069,-0.487,-12.074,166.086,16.814
14:02:05:753,10.977,-0.558,0.372,2.434,-12.526,163.416,14.837
14:02:05:776,10.999,2.891,-3.531,2.686,-17.779,161.824,7.639
14:02:05:802,11.026,-2.629,-2.323,-0.696,-12.514,162.944,-0.983
14:02:05:828,11.052,0.102,0.866,-0.208,-13.514,162.993,-4.639
14:02:05:885,11.108,-0.195,0.041,0.236,-13.656,163.234,-6.723
14:02:05:886,11.109,-0.172,0.199,-0.206,-13.872,163.914,-9.178
14:02:05:966,11.189,-0.060,0.246,-0.189,-14.041,164.715,-10.427
14:02:05:967,11.190,0.238,0.455,-0.053,-14.264,165.762,-12.033
14:02:05:967,11.190,0.296,0.392,-0.020,-14.348,166.538,-13.206
14:02:06:015,11.239,0.203,0.104,-0.053,-14.333,168.331,-15.479
14:02:06:016,11.239,0.381,-0.004,0.136,-14.272,170.622,-18.308
14:02:06:039,11.262,0.549,0.082,0.330,-14.414,172.166,-20.630
14:02:06:065,11.288,0.823,-0.068,0.436,-14.409,174.653,-25.885
14:02:06:091,11.314,1.169,0.493,0.248,-15.042,176.482,-30.500
14:02:06:118,11.341,1.443,0.311,0.235,-15.102,-179.374,-38.288
14:02:06:143,11.367,1.355,0.680,0.380,-13.989,-175.569,-45.613
14:02:06:2,11.423,1.179,-0.361,0.382,-12.561,-172.578,-48.840
14:02:06:2,11.423,0.945,-1.193,-0.246,-10.745,-168.344,-50.040
14:02:06:222,11.446,0.355,-1.206,-0.450,-11.139,-166.768,-49.401
14:02:06:278,11.501,0.540,-0.963,-0.083,-13.717,-164.438,-45.680
14:02:06:278,11.502,0.509,-0.605,-0.198,-16.642,-162.762,-38.652
14:02:06:302,11.525,0.424,-0.474,-0.262,-17.651,-161.435,-32.687
14:02:06:327,11.551,0.420,-0.242,-0.617,-18.664,-158.342,-22.793
14:02:06:382,11.606,-0.025,0.231,-0.778,-19.731,-156.225,-15.637
14:02:06:383,11.607,-0.774,0.509,-0.686,-22.450,-153.432,-4.420
14:02:06:406,11.630,-2.572,0.540,-0.206,-24.465,-151.891,2.402
14:02:06:462,11.686,-3.137,-0.103,0.241,-26.807,-150.013,9.776
14:02:06:462,11.686,-2.693,-0.745,0.819,-27.417,-148.476,11.622
14:02:06:485,11.709,-3.273,1.729,-0.030,-27.907,-148.989,10.035
14:02:06:511,11.734,-0.793,0.161,-0.598,-26.771,-151.360,4.833
14:02:06:537,11.761,0.080,-0.767,-0.005,-26.231,-150.745,0.253
14:02:06:565,11.788,-0.169,0.341,-0.154,-25.993,-148.752,-3.949
14:02:06:619,11.842,-0.334,0.144,0.088,-25.932,-147.419,-6.593
14:02:06:619,11.843,-0.205,0.174,-0.064,-25.898,-146.705,-7.733
14:02:06:643,11.866,-0.024,0.407,0.004,-25.907,-145.412,-8.914
14:02:06:695,11.919,-0.146,0.237,-0.280,-25.903,-144.267,-9.602
14:02:06:783,12.006,0.063,0.269,-0.488,-25.738,-141.798,-11.186
14:02:06:784,12.007,0.191,0.236,-0.411,-25.628,-140.011,-12.650
14:02:06:785,12.008,0.299,0.012,-0.334,-25.284,-137.323,-15.340
14:02:06:801,12.024,0.397,0.094,-0.413,-24.587,-133.634,-22.106
14:02:06:855,12.078,0.611,0.226,-0.576,-24.613,-131.296,-28.901
14:02:06:856,12.079,0.940,0.418,-1.379,-24.986,-128.860,-34.571
14:02:06:878,12.102,1.369,0.396,-1.626,-25.214,-124.584,-43.994
14:02:06:992,12.216,0.330,0.439,-0.696,-25.602,-122.605,-52.079
14:02:06:993,12.217,0.215,-0.151,0.327,-25.087,-121.112,-55.191
14:02:06:994,12.217,0.700,-1.468,-0.828,-23.390,-117.288,-56.334
14:02:06:995,12.218,-0.122,-1.329,-0.418,-21.990,-114.685,-55.107
14:02:07:01,12.233,0.109,-1.177,-0.563,-21.172,-112.925,-50.203
14:02:07:038,12.261,-0.036,-0.766,-0.531,-21.281,-112.791,-41.618
14:02:07:062,12.286,-0.030,-0.282,-0.382,-20.699,-112.764,-34.607
14:02:07:089,12.312,-0.591,-0.100,-0.217,-18.786,-110.032,-23.535
14:02:07:115,12.339,-0.935,0.527,0.705,-18.568,-107.638,-16.027
14:02:07:141,12.364,-1.151,0.788,1.722,-19.913,-107.037,-4.750
14:02:07:167,12.391,-1.668,0.256,2.380,-21.044,-107.168,1.116
14:02:07:194,12.417,-0.760,0.033,2.101,-22.056,-107.587,5.294
14:02:07:252,12.475,-3.916,1.587,-1.041,-21.504,-108.031,-3.062
14:02:07:252,12.476,0.771,1.688,1.631,-21.013,-108.447,-3.830
14:02:07:253,12.477,-0.429,0.486,0.374,-20.814,-108.528,-9.474
14:02:07:301,12.525,-0.103,-0.084,-0.037,-21.204,-107.553,-11.986
14:02:07:302,12.525,-0.037,0.302,0.214,-21.458,-105.843,-15.053
14:02:07:325,12.548,-0.208,0.329,-0.046,-21.576,-104.545,-17.127
14:02:07:351,12.575,-0.148,0.570,-0.406,-21.528,-103.671,-18.058
14:02:07:377,12.601,-0.404,0.520,-0.614,-21.331,-102.184,-19.322
14:02:07:405,12.628,-0.210,0.316,-0.649,-21.018,-100.891,-20.497
14:02:07:459,12.682,0.292,-0.059,-0.697,-20.223,-98.705,-22.795
14:02:07:46,12.683,0.363,0.029,-0.561,-19.679,-97.437,-24.717
14:02:07:541,12.765,0.427,-0.046,-0.617,-19.047,-95.482,-29.041
14:02:07:541,12.765,0.339,-0.229,-1.273,-18.771,-93.540,-35.259
14:02:07:542,12.766,0.009,0.309,-1.393,-18.944,-91.970,-40.223
14:02:07:562,12.785,0.049,0.460,-1.641,-17.820,-90.051,-48.332
14:02:07:588,12.811,0.639,0.010,-0.866,-16.969,-89.681,-52.950
14:02:07:672,12.895,0.309,-0.930,-1.434,-17.301,-88.375,-56.327
14:02:07:672,12.895,-0.001,-1.039,-0.399,-17.868,-87.473,-56.624
14:02:07:673,12.896,0.194,-0.970,-0.215,-17.851,-85.919,-54.632
14:02:07:692,12.916,0.062,-0.956,-0.455,-18.635,-85.432,-48.422
14:02:07:718,12.942,0.085,-0.687,-0.399,-18.835,-85.445,-42.620
14:02:07:744,12.968,-0.067,-0.337,-0.389,-18.478,-84.799,-32.376
14:02:07:771,12.994,-0.438,-0.177,-0.190,-17.844,-81.640,-21.156
14:02:07:799,13.022,-0.758,0.053,0.358,-18.748,-79.567,-13.473
14:02:07:824,13.048,-0.373,0.842,2.035,-21.404,-78.716,-2.321
14:02:07:85,13.073,-0.530,0.177,3.046,-23.143,-78.445,3.052
14:02:07:876,13.099,0.142,-0.128,3.178,-23.970,-78.477,5.694
14:02:07:902,13.126,-3.689,1.482,-1.230,-23.072,-79.008,-2.059
14:02:07:928,13.152,3.479,1.526,2.583,-23.011,-79.230,-7.357
14:02:07:956,13.179,-0.516,0.739,0.305,-22.229,-79.406,-11.934
14:02:07:981,13.205,-0.109,0.365,0.032,-22.416,-78.420,-14.192
14:02:08:007,13.230,0.073,0.283,-0.132,-22.558,-77.685,-16.662
14:02:08:033,13.257,-0.321,0.296,0.064,-22.519,-77.159,-17.976
14:02:08:089,13.312,-0.336,0.542,-0.472,-22.566,-76.006,-19.522
14:02:08:09,13.313,-0.365,0.356,-0.438,-22.426,-74.530,-21.200
14:02:08:112,13.336,-0.320,0.185,-0.394,-22.145,-73.021,-22.700
14:02:08:14,13.364,-0.042,-0.036,-0.539,-21.299,-70.559,-25.238
14:02:08:165,13.388,0.056,0.000,-0.564,-20.773,-69.099,-27.126
14:02:08:191,13.414,0.110,-0.103,-0.644,-19.983,-66.839,-31.348
14:02:08:217,13.440,-0.013,-0.385,-1.013,-19.387,-65.206,-35.227
14:02:08:273,13.496,-0.536,-0.005,-1.239,-18.983,-62.030,-42.471
14:02:08:273,13.496,-0.774,0.169,-1.748,-17.051,-58.619,-51.070
14:02:08:296,13.520,-0.808,0.672,-1.869,-16.009,-57.340,-56.193
14:02:08:322,13.546,-0.758,-0.883,-1.304,-16.032,-56.444,-60.321
14:02:08:349,13.572,-0.571,-1.253,-0.247,-18.491,-55.911,-61.046
14:02:08:405,13.629,-0.093,-0.897,-0.070,-20.423,-55.069,-59.833
14:02:08:405,13.629,-0.333,-0.918,-0.289,-20.529,-53.000,-54.897
14:02:08:428,13.651,-0.553,-0.830,-0.278,-20.176,-51.787,-49.557
14:02:08:453,13.677,-0.615,-0.510,-0.459,-19.171,-49.929,-39.587
14:02:08:48,13.703,-0.531,-0.173,-0.240,-18.665,-48.390,-32.145
14:02:08:506,13.730,-0.481,0.134,0.298,-18.394,-44.488,-20.372
14:02:08:532,13.756,0.437,0.895,1.345,-19.596,-42.087,-12.586
14:02:08:558,13.782,0.991,0.678,2.726,-21.911,-39.725,-2.570
14:02:08:585,13.808,1.174,-0.275,2.564,-23.470,-38.315,2.589
14:02:08:612,13.835,1.735,-0.560,1.517,-23.405,-39.007,3.186
14:02:08:637,13.861,-4.246,0.862,2.448,-25.127,-41.483,-1.739
14:02:08:665,13.888,1.647,0.499,0.792,-23.291,-42.329,-5.461
14:02:08:69,13.913,0.252,-0.528,0.731,-22.666,-41.664,-11.569
14:02:08:716,13.939,0.197,0.223,-0.251,-22.765,-40.046,-15.509
14:02:08:77,13.993,-0.025,0.283,0.171,-22.724,-39.149,-17.470
14:02:08:856,14.079,-0.143,0.395,-0.091,-22.408,-37.665,-19.545
14:02:08:857,14.080,-0.754,0.612,-0.085,-22.249,-36.418,-20.625
14:02:08:857,14.080,-0.783,0.334,0.013,-21.740,-34.274,-22.392
14:02:08:859,14.082,-0.597,-0.011,-0.295,-21.255,-32.466,-24.088
14:02:08:875,14.098,-0.478,-0.130,-0.428,-20.233,-29.948,-26.899
14:02:08:9,14.123,-0.243,-0.001,-0.664,-19.348,-27.949,-30.129
14:02:08:926,14.150,-0.615,-0.273,-0.645,-18.657,-26.678,-33.175
14:02:08:952,14.175,-1.037,-0.292,-0.876,-17.543,-25.059,-39.334
14:02:08:979,14.202,-1.235,0.185,-0.608,-17.449,-23.472,-44.265
14:02:09:005,14.228,-1.586,0.146,-0.857,-15.428,-21.119,-52.330
14:02:09:031,14.254,-1.014,-0.021,-1.323,-13.731,-20.281,-58.931
14:02:09:059,14.282,-1.144,-0.990,-0.540,-13.846,-19.633,-61.092
14:02:09:113,14.336,-0.510,-1.089,0.058,-14.444,-18.829,-61.988
14:02:09:113,14.337,-0.123,-1.015,-0.069,-14.070,-18.132,-60.953
14:02:09:136,14.360,-0.461,-0.996,-0.011,-14.629,-16.883,-56.105
14:02:09:164,14.387,-0.514,-0.647,-0.027,-15.448,-16.320,-47.914
14:02:09:188,14.412,-0.557,-0.513,0.071,-15.050,-15.703,-41.331
14:02:09:215,14.438,-0.579,-0.328,0.278,-13.818,-13.315,-30.581
14:02:09:241,14.464,-0.251,0.148,0.646,-13.802,-11.443,-22.839
14:02:09:267,14.491,1.407,1.022,0.634,-15.358,-10.427,-10.998
14:02:09:294,14.517,2.600,0.858,1.321,-17.107,-10.820,-0.983
14:02:09:349,14.573,2.492,-0.214,1.091,-17.623,-11.126,2.573
14:02:09:35,14.573,3.978,1.941,0.708,-17.608,-12.385,2.739
14:02:09:373,14.596,0.446,-1.357,-0.841,-18.879,-13.643,-4.188
14:02:09:398,14.622,1.989,0.859,0.748,-17.914,-13.440,-9.999
14:02:09:425,14.648,-0.303,0.691,0.201,-17.250,-13.048,-12.939
14:02:09:451,14.674,0.081,0.215,-0.028,-17.365,-11.387,-16.532
14:02:09:477,14.701,-0.007,0.362,0.161,-16.951,-9.839,-18.732
14:02:09:506,14.730,-0.205,0.535,-0.091,-16.610,-8.590,-19.759
14:02:09:509,14.732,-0.820,0.632,0.204,-16.118,-6.709,-21.070
14:02:09:559,14.782,-0.786,0.257,0.294,-15.525,-5.165,-22.317
14:02:09:56,14.783,-0.711,-0.094,-0.062,-14.255,-3.255,-24.549
14:02:09:583,14.806,-0.504,-0.130,-0.286,-12.845,-1.613,-27.314
14:02:09:609,14.832,-0.590,0.148,-0.684,-12.219,-0.847,-29.859
14:02:09:635,14.858,-0.860,-0.565,-0.139,-10.857,-0.485,-35.421
14:02:09:661,14.884,-1.371,-0.418,-0.347,-10.340,0.531,-39.867
14:02:09:688,14.911,-1.933,-0.018,0.031,-8.512,1.768,-47.405
14:02:09:714,14.937,-1.812,0.333,-0.406,-6.522,1.504,-52.487
14:02:09:769,14.992,-1.067,-0.284,-0.522,-5.172,0.352,-57.615
14:02:09:77,14.993,-1.171,-1.201,-0.138,-6.669,0.124,-59.244
14:02:09:792,15.016,-0.423,-0.933,-0.099,-7.449,-0.492,-58.660
14:02:09:819,15.042,-0.267,-0.981,-0.261,-8.219,-0.949,-54.620
14:02:09:846,15.069,-0.413,-0.933,-0.173,-9.037,-1.331,-49.815
14:02:09:871,15.095,-0.428,-0.561,-0.211,-9.718,-2.293,-40.367
14:02:09:897,15.121,-0.305,-0.227,-0.013,-9.438,-2.016,-29.142
14:02:09:924,15.147,-0.312,0.024,0.331,-9.680,-1.047,-21.049
14:02:09:95,15.173,0.826,0.617,0.407,-11.786,-1.862,-8.759
14:02:09:976,15.199,2.288,0.919,0.510,-13.176,-3.372,-1.423
14:02:10:003,15.226,3.139,-0.152,0.615,-14.419,-4.730,5.080
14:02:10:029,15.252,3.514,-0.720,-0.279,-14.297,-4.831,5.839
14:02:10:055,15.278,3.206,2.954,1.580,-15.570,-4.056,-4.765
14:02:10:111,15.334,3.926,-0.157,-0.764,-15.358,-4.075,-10.151
14:02:10:111,15.335,0.699,0.079,0.362,-14.586,-4.330,-13.068
14:02:10:135,15.358,0.097,0.120,-0.133,-14.797,-3.285,-16.783
14:02:10:16,15.384,-0.053,0.378,0.098,-14.761,-2.698,-18.613
14:02:10:187,15.410,-0.212,0.486,0.147,-14.542,-1.374,-20.790
14:02:10:213,15.436,-0.615,0.508,0.062,-14.357,0.074,-22.367
14:02:10:239,15.462,-0.673,0.345,0.074,-13.910,1.050,-23.511
14:02:10:265,15.488,-0.719,0.004,-0.087,-12.632,2.824,-25.477
14:02:10:291,15.515,-0.471,-0.019,-0.220,-11.545,3.977,-26.988
14:02:10:318,15.541,-0.578,-0.037,-0.312,-9.818,5.463,-29.974
14:02:10:344,15.567,-1.050,-0.355,-0.111,-9.175,5.916,-32.440
14:02:10:37,15.593,-1.254,-0.715,-0.068,-7.629,6.382,-37.773
14:02:10:397,15.621,-1.456,-0.154,-0.092,-5.953,7.001,-44.739
14:02:10:423,15.647,-1.706,0.280,-0.267,-3.571,6.922,-49.688
14:02:10:45,15.673,-1.151,-0.089,-0.604,-0.446,5.865,-55.677
14:02:10:475,15.698,-1.549,-0.858,-0.255,-1.300,5.858,-57.476
14:02:10:501,15.725,-0.500,-1.006,-0.043,-2.901,4.883,-58.294
14:02:10:528,15.751,-0.185,-0.937,-0.241,-4.014,4.278,-55.724
14:02:10:554,15.778,-0.347,-0.888,-0.130,-5.569,4.039,-51.852
14:02:10:58,15.803,-0.560,-0.812,-0.173,-7.434,3.452,-43.435
14:02:10:606,15.829,-0.390,-0.200,-0.232,-8.252,3.142,-36.610
14:02:10:632,15.856,-0.385,-0.072,0.035,-9.001,3.966,-25.100
14:02:10:659,15.882,0.344,0.480,0.308,-10.240,4.894,-17.019
14:02:10:685,15.908,1.907,0.983,-0.008,-13.315,4.426,-5.252
14:02:10:712,15.935,2.966,0.374,0.386,-16.000,4.591,3.699
14:02:10:737,15.961,2.424,-0.259,0.257,-16.620,5.693,6.235
14:02:10:765,15.988,4.086,1.990,-0.269,-16.661,6.251,3.564
14:02:10:79,16.014,-3.555,-2.035,2.458,-17.920,3.939,-2.703
14:02:10:817,16.040,-0.012,-1.625,0.423,-16.160,5.210,-10.028
14:02:10:843,16.066,0.077,0.119,-0.016,-16.127,6.454,-14.002
14:02:10:868,16.092,0.068,0.177,-0.181,-15.983,7.221,-16.113
14:02:10:895,16.118,0.085,0.344,0.164,-15.908,8.126,-18.418
14:02:10:921,16.145,-0.426,0.597,0.080,-15.793,8.992,-19.591
14:02:10:977,16.201,-0.506,0.205,0.171,-15.393,11.216,-21.880
14:02:11:,16.224,-0.576,-0.040,-0.002,-14.369,13.149,-23.816
14:02:11:026,16.249,-0.482,-0.090,-0.180,-12.993,15.006,-26.208
14:02:11:052,16.276,-0.429,-0.044,-0.305,-12.009,16.170,-28.262
14:02:11:079,16.302,-0.982,-0.340,-0.134,-10.561,17.866,-32.572
14:02:11:106,16.329,-1.212,0.021,0.056,-9.313,18.889,-36.496
14:02:11:132,16.355,-1.460,0.225,0.184,-7.262,21.397,-43.404
14:02:11:157,16.381,-1.884,0.567,0.147,-3.127,23.490,-50.795
14:02:11:184,16.407,-0.656,-0.076,-0.325,-0.417,23.974,-54.716
14:02:11:21,16.433,-1.001,-1.453,0.604,2.298,25.743,-56.976
14:02:11:236,16.459,-0.376,-1.041,0.482,1.474,25.975,-57.174
14:02:11:263,16.486,-0.192,-0.910,-0.104,-2.490,26.154,-54.274
14:02:11:288,16.512,-0.419,-0.813,0.151,-7.080,26.672,-47.454
14:02:11:315,16.538,-0.524,-0.615,0.200,-8.813,27.062,-41.428
14:02:11:341,16.564,-0.376,-0.191,0.261,-9.970,28.624,-31.132
14:02:11:369,16.592,-0.204,0.006,0.286,-10.340,30.855,-23.690
14:02:11:394,16.617,0.388,0.475,0.283,-12.712,34.189,-12.296
14:02:11:42,16.644,2.040,0.900,-0.595,-16.191,35.985,-2.097
14:02:11:446,16.670,2.853,0.679,-0.535,-18.378,37.507,2.474
14:02:11:472,16.695,2.171,-0.481,-0.622,-19.188,39.381,4.729
14:02:11:498,16.722,0.678,0.236,-1.881,-19.580,38.981,3.880
14:02:11:525,16.749,-1.184,-0.379,2.002,-19.200,36.158,-1.920
14:02:11:553,16.776,1.227,0.118,-1.137,-18.289,36.641,-6.733
14:02:11:578,16.802,0.056,0.851,0.371,-18.064,38.228,-10.820
14:02:11:604,16.827,-0.016,0.088,-0.218,-17.925,39.438,-13.426
14:02:11:63,16.853,0.114,0.235,-0.040,-17.807,40.136,-14.553
14:02:11:656,16.880,-0.086,0.299,0.110,-17.615,41.422,-15.644
14:02:11:741,16.964,-0.150,0.375,0.281,-17.517,42.473,-16.171
14:02:11:742,16.965,-0.255,0.220,0.416,-17.100,44.648,-17.349
14:02:11:742,16.965,-0.331,0.048,0.269,-16.379,46.984,-19.109
14:02:11:763,16.986,-0.469,-0.075,0.196,-15.721,48.478,-20.592
14:02:11:788,17.011,-0.588,-0.086,0.261,-15.046,50.376,-23.592
14:02:11:818,17.041,-0.507,-0.122,0.418,-14.395,51.605,-26.665
14:02:11:818,17.041,-0.716,-0.013,0.597,-13.226,53.924,-32.936
14:02:11:869,17.092,-0.641,0.114,1.009,-12.370,55.764,-37.952
14:02:11:87,17.093,-1.404,0.058,1.529,-9.440,59.249,-46.052
14:02:11:894,17.117,-0.582,0.158,0.514,-6.843,59.890,-52.623
14:02:11:919,17.142,0.021,0.106,-0.451,-5.087,60.165,-55.363
14:02:11:945,17.168,-0.718,-1.335,0.626,-2.514,63.130,-56.187
14:02:11:971,17.195,0.148,-1.314,0.408,-2.278,64.141,-54.901
14:02:12:027,17.250,-0.168,-1.036,0.399,-3.881,65.253,-50.260
14:02:12:028,17.251,-0.174,-0.845,0.386,-6.362,65.787,-42.675
14:02:12:079,17.303,-0.254,-0.446,0.368,-7.419,66.104,-36.469
14:02:12:08,17.303,-0.055,-0.204,0.250,-7.794,67.963,-25.918
14:02:12:102,17.326,0.466,0.246,-0.266,-8.556,69.803,-18.420
14:02:12:129,17.352,0.527,0.611,-1.027,-10.973,70.828,-7.449
14:02:12:155,17.378,1.344,0.722,-2.089,-12.727,70.990,-1.193
14:02:12:182,17.406,1.471,-0.180,-1.985,-14.668,71.839,4.084
14:02:12:208,17.431,0.822,0.890,-3.917,-14.984,72.401,4.199
14:02:12:234,17.457,2.242,1.960,2.657,-15.426,71.503,-0.812
14:02:12:26,17.483,-0.005,0.433,-3.199,-14.423,71.353,-6.209
14:02:12:286,17.510,0.235,0.460,-0.277,-13.784,71.794,-9.371
14:02:12:313,17.536,-0.145,0.143,-0.032,-13.560,73.486,-12.821
14:02:12:339,17.562,0.041,0.195,-0.051,-13.324,74.358,-15.148
14:02:12:365,17.588,0.085,0.299,0.005,-13.216,75.045,-16.149
14:02:12:391,17.615,0.040,0.478,0.337,-13.131,76.485,-17.237
14:02:12:418,17.641,0.081,0.334,0.478,-13.001,77.545,-17.832
14:02:12:444,17.667,-0.042,0.187,0.435,-12.583,79.281,-19.137
14:02:12:499,17.722,-0.320,-0.074,0.416,-11.980,80.520,-20.327
14:02:12:5,17.723,-0.370,-0.082,0.398,-10.801,82.397,-22.551
14:02:12:551,17.775,-0.440,-0.138,0.531,-9.559,84.111,-25.969
14:02:12:552,17.775,-0.316,-0.159,0.632,-8.447,84.975,-29.397
14:02:12:575,17.799,-0.204,0.113,1.139,-7.204,86.923,-35.815
14:02:12:601,17.824,-0.462,0.543,1.735,-5.405,88.714,-40.742
14:02:12:628,17.851,-0.816,0.412,1.483,-1.792,90.020,-47.890
14:02:12:683,17.906,-0.358,-0.357,0.334,0.896,89.853,-52.703
14:02:12:684,17.907,-0.495,-1.147,1.189,2.705,91.745,-53.893
14:02:12:706,17.929,0.110,-1.069,0.241,3.420,93.027,-53.284
14:02:12:761,17.985,-0.041,-1.029,0.321,2.246,93.310,-51.184
14:02:12:762,17.986,-0.205,-0.966,0.440,-1.449,93.168,-45.387
14:02:12:785,18.008,-0.299,-0.474,0.312,-4.900,92.315,-36.896
14:02:12:811,18.035,-0.248,-0.252,0.218,-6.105,92.420,-30.119
14:02:12:837,18.060,0.110,-0.049,0.268,-7.130,95.112,-18.829
14:02:12:864,18.088,0.208,0.585,-0.509,-8.924,96.881,-11.203
14:02:12:891,18.114,0.394,0.850,-2.316,-12.401,97.787,-0.803
14:02:12:916,18.139,0.487,0.034,-2.427,-14.650,98.379,4.223
14:02:12:943,18.166,0.055,-0.317,-2.486,-16.084,99.255,7.194
14:02:12:969,18.192,2.740,1.273,2.631,-15.295,98.485,0.715
14:02:12:995,18.218,-2.774,0.168,-2.556,-14.759,97.127,-1.322
14:02:13:021,18.245,-0.244,-0.361,-0.552,-13.775,97.399,-7.364
14:02:13:049,18.272,-0.081,0.395,-0.111,-13.709,98.607,-9.734
14:02:13:076,18.299,-0.230,0.221,-0.137,-13.467,99.726,-12.307
14:02:13:101,18.324,0.054,0.227,-0.096,-13.241,100.446,-13.760
14:02:13:127,18.350,-0.120,0.338,0.046,-13.143,101.203,-14.524
14:02:13:152,18.376,0.177,0.386,0.218,-12.933,102.449,-15.603
14:02:13:179,18.402,0.079,0.222,0.297,-12.694,103.462,-16.561
14:02:13:205,18.428,-0.056,0.014,0.299,-12.018,105.041,-18.341
14:02:13:261,18.484,-0.130,-0.063,0.400,-11.414,106.127,-19.764
14:02:13:261,18.484,-0.103,-0.075,0.526,-10.455,107.679,-22.562
14:02:13:283,18.507,-0.126,-0.052,0.775,-9.307,109.074,-26.938
14:02:13:31,18.533,-0.192,-0.113,0.962,-8.398,110.152,-31.028
14:02:13:336,18.559,0.308,0.357,1.301,-6.609,112.943,-38.569
14:02:13:362,18.586,0.264,0.518,1.876,-4.500,114.787,-43.947
14:02:13:447,18.671,0.142,0.242,0.725,-2.094,115.532,-50.384
14:02:13:448,18.671,0.287,-1.043,0.974,0.875,118.180,-52.598
14:02:13:448,18.672,0.399,-1.388,0.851,0.875,120.186,-52.140
14:02:13:467,18.691,0.155,-0.982,0.215,-1.276,121.732,-49.012
14:02:13:494,18.717,0.272,-0.979,0.473,-3.962,122.680,-45.052
14:02:13:52,18.743,0.317,-0.571,0.256,-7.349,123.469,-36.840
14:02:13:546,18.770,0.333,-0.243,0.314,-8.464,124.667,-30.298
14:02:13:573,18.796,0.381,-0.023,-0.020,-9.635,128.071,-19.497
14:02:13:598,18.822,-0.202,0.486,-0.740,-12.290,131.233,-8.459
14:02:13:625,18.849,-0.907,0.593,-1.402,-14.505,132.141,-1.717
14:02:13:653,18.876,-0.993,0.232,-2.604,-17.862,133.956,5.639
14:02:13:677,18.901,-1.096,-0.377,-2.102,-19.075,135.451,7.569
14:02:13:705,18.929,-1.984,0.798,-3.792,-19.401,135.649,5.886
14:02:13:759,18.982,0.632,-0.249,0.787,-18.343,134.220,1.226
14:02:13:76,18.983,-0.787,-0.533,-1.418,-17.963,134.036,-2.611
14:02:13:783,19.006,0.042,0.421,0.023,-17.925,136.104,-6.196
14:02:13:809,19.032,-0.135,0.010,0.113,-17.906,137.098,-7.833
14:02:13:835,19.059,-0.060,0.226,-0.060,-17.750,137.910,-9.563
14:02:13:976,19.200,-0.050,0.389,0.073,-17.589,139.207,-10.806
14:02:13:977,19.200,0.185,0.451,-0.062,-17.583,140.377,-11.499
14:02:13:978,19.201,0.493,0.371,-0.017,-17.414,142.558,-12.777
14:02:13:995,19.218,0.324,0.038,0.591,-16.405,146.147,-16.452
14:02:13:996,19.219,0.405,0.058,0.477,-15.980,147.471,-18.611
14:02:14:048,19.271,0.483,-0.042,0.318,-15.336,149.618,-23.580
14:02:14:049,19.272,1.079,0.061,0.736,-14.393,151.923,-30.561
14:02:14:073,19.296,1.315,0.378,0.761,-13.587,153.727,-35.986
14:02:14:097,19.321,1.150,0.624,1.001,-11.105,155.734,-44.178
14:02:14:127,19.350,-0.512,0.174,0.137,-9.949,155.804,-48.209
14:02:14:128,19.351,1.058,-1.215,0.771,-7.625,158.390,-51.016
14:02:14:179,19.402,0.369,-1.353,-0.160,-6.004,161.291,-50.504
14:02:14:18,19.403,0.359,-1.182,0.013,-5.799,162.614,-48.283
14:02:14:203,19.426,0.466,-0.877,0.073,-8.079,163.563,-42.153
14:02:14:229,19.452,0.394,-0.611,0.067,-9.637,163.448,-36.451
14:02:14:286,19.509,0.252,-0.233,-0.199,-10.552,164.083,-26.190
14:02:14:286,19.510,0.000,-0.116,-0.793,-10.813,165.921,-18.677
14:02:14:336,19.560,-0.840,0.268,-0.748,-12.388,167.592,-7.297
14:02:14:337,19.561,-2.557,0.609,-0.996,-14.640,166.512,3.053
14:02:14:36,19.584,-2.621,-0.007,-1.337,-16.005,165.696,7.719
14:02:14:387,19.610,-1.905,-0.528,-0.837,-16.436,164.712,9.775
14:02:14:413,19.637,-2.284,2.528,-1.214,-16.277,163.981,8.681
14:02:14:466,19.689,-0.162,-1.445,0.640,-16.616,162.875,3.146
14:02:14:494,19.717,-0.217,-0.687,-0.387,-15.933,163.787,-2.956
14:02:14:495,19.718,-0.103,0.702,-0.093,-15.873,164.960,-5.485
14:02:14:52,19.743,-0.112,0.108,-0.068,-15.635,166.251,-8.231
14:02:14:545,19.768,-0.216,0.312,-0.035,-15.437,166.931,-9.664
14:02:14:571,19.795,0.094,0.447,-0.011,-15.070,168.595,-11.364
14:02:14:625,19.849,0.406,0.623,-0.206,-14.710,170.387,-12.756
14:02:14:626,19.850,0.619,0.421,-0.196,-14.363,171.496,-13.713
14:02:14:678,19.901,0.505,0.056,0.093,-13.537,173.088,-15.591
14:02:14:679,19.902,0.525,-0.079,0.515,-12.719,174.064,-17.113
14:02:14:701,19.925,0.533,0.007,0.500,-11.574,175.200,-20.149
14:02:14:728,19.951,0.791,0.253,0.217,-10.904,175.767,-23.180
14:02:14:754,19.977,1.439,-0.034,0.311,-9.581,176.808,-29.693
14:02:14:78,20.004,1.432,0.423,0.335,-7.424,178.814,-37.275
14:02:14:806,20.029,1.666,0.685,0.579,-4.999,179.174,-42.534
14:02:14:834,20.057,0.684,-0.428,0.348,-2.189,177.738,-48.402
14:02:14:947,20.170,0.488,-1.136,-0.124,-2.465,177.915,-50.612
14:02:14:948,20.171,0.167,-0.980,0.215,-3.670,176.861,-47.589
14:02:14:948,20.171,0.302,-0.883,0.187,-5.396,175.864,-43.182
14:02:14:964,20.187,0.361,-0.606,0.212,-7.119,174.073,-34.202
14:02:14:99,20.214,0.267,-0.372,0.216,-7.557,173.498,-27.115
14:02:15:046,20.269,0.028,0.004,-0.104,-8.181,174.152,-15.342
14:02:15:046,20.269,-0.643,0.330,-0.400,-9.612,173.910,-7.454
14:02:15:069,20.292,-2.584,0.553,-0.615,-12.053,171.565,3.157
14:02:15:155,20.378,-3.155,-0.056,-0.979,-13.849,170.365,9.127
14:02:15:155,20.378,-2.020,-0.391,-0.502,-14.001,170.618,9.588
14:02:15:156,20.379,0.771,2.570,-1.571,-14.811,170.947,0.195
14:02:15:175,20.398,-2.643,-0.713,-0.522,-15.267,171.698,-2.465
14:02:15:231,20.454,-0.580,-0.846,-0.060,-13.634,172.248,-8.358
14:02:15:231,20.454,0.034,-0.062,-0.085,-13.594,173.116,-11.588
14:02:15:253,20.476,-0.120,0.332,-0.024,-13.529,173.376,-13.263
14:02:15:279,20.502,-0.133,0.361,-0.200,-13.375,174.297,-15.137
14:02:15:334,20.558,0.270,0.586,-0.123,-13.368,175.201,-16.017
14:02:15:335,20.559,0.474,0.388,-0.034,-13.066,176.499,-17.285
14:02:15:358,20.581,0.524,0.098,0.101,-12.518,177.456,-18.283
14:02:15:383,20.607,0.540,0.013,0.220,-11.269,179.155,-20.063
14:02:15:41,20.634,0.416,0.016,0.285,-9.819,-179.490,-22.540
14:02:15:438,20.662,0.550,-0.025,0.166,-8.990,-178.982,-24.829
14:02:15:492,20.715,1.052,-0.260,0.129,-7.771,-178.820,-29.537
14:02:15:492,20.716,1.143,-0.073,0.054,-6.771,-178.692,-33.685
14:02:15:515,20.739,1.386,0.447,0.417,-4.144,-177.983,-40.829
14:02:15:542,20.765,0.793,0.433,0.876,-1.115,-178.876,-47.443
14:02:15:568,20.791,1.611,-0.595,0.451,-0.388,-178.910,-49.628
14:02:15:595,20.818,0.934,-1.038,0.104,0.816,-179.486,-50.912
14:02:15:62,20.843,0.166,-1.070,0.147,1.451,179.666,-50.341
14:02:15:646,20.870,0.382,-0.957,0.182,-0.124,178.384,-46.687
14:02:15:673,20.896,0.344,-0.836,0.376,-2.273,176.963,-42.515
14:02:15:699,20.922,0.287,-0.596,0.486,-5.298,174.009,-33.964
14:02:15:725,20.948,-0.125,-0.035,0.416,-6.758,172.140,-23.171
14:02:15:752,20.975,-0.082,0.075,0.149,-7.463,172.451,-15.091
14:02:15:778,21.001,-1.376,0.645,-0.072,-10.195,171.790,-2.802
14:02:15:804,21.027,-2.755,0.976,-0.430,-12.461,170.967,4.566
14:02:15:859,21.082,-2.797,-0.424,-1.137,-15.633,171.223,11.345
14:02:15:86,21.083,-1.548,-0.863,-0.622,-16.220,171.821,12.441
14:02:15:884,21.107,-0.497,-0.462,0.145,-16.323,171.262,11.174
14:02:15:909,21.133,-1.520,1.779,-2.251,-18.519,169.108,4.822
14:02:15:962,21.186,-1.743,0.022,0.150,-16.375,169.428,0.458
14:02:15:991,21.214,0.048,0.617,-0.226,-16.023,170.899,-4.700
14:02:15:991,21.215,-0.328,-0.029,0.006,-15.797,171.820,-7.875
14:02:16:014,21.237,-0.140,0.189,-0.118,-15.700,172.263,-9.339
14:02:16:04,21.264,-0.010,0.205,-0.090,-15.553,173.304,-10.919
14:02:16:066,21.290,0.010,0.325,0.009,-15.540,174.126,-11.807
14:02:16:093,21.316,0.373,0.476,-0.073,-15.437,175.447,-12.967
14:02:16:12,21.343,0.377,0.370,-0.154,-15.118,177.177,-14.473
14:02:16:146,21.370,0.502,0.143,-0.075,-14.731,178.518,-15.710
14:02:16:172,21.395,0.725,0.088,0.211,-13.965,-179.417,-18.030
14:02:16:198,21.421,0.751,-0.041,0.246,-12.983,-178.216,-20.396
14:02:16:285,21.508,0.446,0.052,0.271,-10.979,-176.540,-25.501
14:02:16:285,21.509,1.096,0.064,0.490,-9.943,-174.764,-29.772
14:02:16:286,21.510,1.208,0.052,0.405,-7.644,-171.038,-37.037
14:02:16:329,21.552,1.072,0.662,0.090,-0.354,-165.147,-49.300
14:02:16:355,21.579,1.353,-1.164,-0.216,3.113,-164.771,-52.833
14:02:16:414,21.637,0.324,-0.942,-0.072,0.855,-166.289,-53.750
14:02:16:414,21.638,0.084,-0.992,0.255,-4.842,-169.622,-53.373
14:02:16:415,21.639,0.114,-0.794,0.088,-9.628,-172.488,-49.120
14:02:16:463,21.686,0.253,-0.889,0.124,-10.651,-173.916,-44.384
14:02:16:464,21.687,0.212,-0.692,0.135,-9.933,-174.373,-35.705
14:02:16:486,21.709,0.268,-0.549,0.205,-9.370,-173.490,-29.107
14:02:16:513,21.736,0.051,0.127,-0.004,-10.166,-171.051,-17.846
14:02:16:54,21.763,-1.251,0.997,0.007,-12.364,-169.868,-9.977
14:02:16:596,21.819,-2.416,1.056,-0.198,-16.948,-170.011,1.168
14:02:16:596,21.819,-3.032,-0.212,-0.190,-20.897,-168.548,8.101
14:02:16:649,21.872,-2.135,-0.457,-0.422,-21.974,-165.997,9.256
14:02:16:649,21.872,-2.830,2.061,-1.491,-21.707,-165.861,6.009
14:02:16:67,21.893,-1.689,-0.919,2.240,-21.448,-168.219,3.534
14:02:16:696,21.920,-0.263,-0.385,0.070,-20.401,-168.282,-2.473
14:02:16:723,21.946,-0.111,0.065,-0.021,-20.278,-166.276,-5.904
14:02:16:75,21.973,-0.117,0.239,0.278,-20.169,-165.825,-7.528
14:02:16:776,21.999,-0.312,0.123,-0.178,-19.978,-165.057,-9.277
14:02:16:829,22.052,0.089,0.372,-0.001,-19.976,-164.179,-10.131
14:02:16:887,22.110,0.114,0.372,-0.322,-19.910,-162.885,-11.274
14:02:16:887,22.110,0.253,0.248,-0.256,-19.819,-161.591,-12.375
14:02:16:888,22.111,0.276,0.061,-0.008,-19.382,-159.325,-14.580
14:02:16:907,22.131,0.526,0.039,0.068,-18.819,-156.740,-17.557
14:02:16:964,22.187,0.662,-0.069,-0.007,-18.406,-154.931,-20.228
14:02:16:964,22.187,0.790,-0.026,-0.200,-17.481,-151.926,-26.055
14:02:16:985,22.209,1.048,0.425,-0.391,-16.972,-149.790,-30.993
14:02:17:011,22.234,1.706,0.594,-0.930,-15.758,-146.093,-39.568
14:02:17:037,22.261,0.924,0.422,-0.157,-13.168,-143.696,-47.691
14:02:17:093,22.316,0.312,0.229,-0.408,-12.249,-143.108,-51.256
14:02:17:093,22.317,1.144,-1.879,-0.983,-10.268,-139.997,-52.498
14:02:17:147,22.370,-0.118,-1.249,-0.492,-10.917,-138.785,-51.800
14:02:17:147,22.370,0.383,-0.984,-0.330,-12.659,-136.980,-47.404
14:02:17:169,22.392,0.150,-0.638,-0.490,-14.003,-135.770,-42.477
14:02:17:195,22.418,0.199,-0.468,-0.575,-14.855,-133.477,-33.096
14:02:17:221,22.444,-0.164,-0.209,-0.554,-15.434,-129.606,-22.615
14:02:17:248,22.471,-0.460,0.018,-0.353,-16.636,-126.945,-15.335
14:02:17:303,22.526,-1.172,0.447,0.817,-19.492,-124.677,-4.598
14:02:17:303,22.527,-2.207,0.591,1.336,-21.481,-123.378,1.385
14:02:17:357,22.581,-2.022,-0.463,1.404,-23.497,-121.691,6.220
14:02:17:357,22.581,-0.804,-0.478,1.478,-23.806,-121.375,6.500
14:02:17:379,22.602,-3.298,1.632,-1.400,-24.387,-122.834,2.840
14:02:17:405,22.629,-0.037,-1.117,2.074,-22.715,-124.338,-1.837
14:02:17:431,22.654,-0.440,0.531,-0.223,-22.321,-123.845,-5.354
14:02:17:457,22.681,0.167,0.173,0.050,-22.031,-121.694,-8.976
14:02:17:542,22.765,-0.252,0.243,0.093,-21.732,-120.628,-11.397
14:02:17:543,22.766,-0.129,0.287,0.041,-21.558,-119.847,-12.451
14:02:17:543,22.767,-0.065,0.427,-0.323,-21.328,-118.173,-13.709
14:02:17:593,22.816,-0.208,0.611,-0.605,-21.271,-116.808,-14.549
14:02:17:593,22.816,-0.098,0.274,-0.626,-20.920,-114.278,-16.502
14:02:17:615,22.838,0.238,-0.004,-0.540,-20.486,-112.668,-18.175
14:02:17:643,22.867,0.438,-0.128,-0.495,-19.646,-110.707,-21.092
14:02:17:669,22.892,0.473,-0.136,-0.433,-18.964,-108.635,-25.265
14:02:17:695,22.918,0.456,0.177,-0.604,-18.388,-107.070,-29.155
14:02:17:721,22.945,0.569,-0.149,-1.279,-17.299,-104.402,-36.313
14:02:17:747,22.970,0.572,0.225,-1.731,-16.142,-102.259,-41.763
14:02:17:772,22.996,0.678,0.335,-1.618,-12.820,-100.067,-49.654
14:02:17:799,23.022,0.267,-0.155,0.211,-9.973,-100.206,-54.614
14:02:17:825,23.048,0.672,-1.171,-1.083,-9.444,-97.882,-55.596
14:02:17:852,23.076,-0.203,-1.218,-0.303,-11.081,-97.197,-54.491
14:02:17:878,23.101,0.249,-1.037,-0.109,-11.956,-95.949,-51.922
14:02:17:904,23.127,0.048,-0.910,-0.474,-13.551,-94.823,-45.286
14:02:17:93,23.154,-0.078,-0.465,-0.515,-14.290,-94.159,-39.373
14:02:17:956,23.179,-0.228,-0.273,-0.458,-15.083,-92.416,-29.171
14:02:17:984,23.207,-0.776,0.122,-0.114,-16.091,-89.496,-17.811
14:02:18:01,23.233,-0.693,0.613,0.957,-17.763,-88.639,-10.202
14:02:18:064,23.288,-1.093,0.693,2.548,-20.578,-89.200,0.175
14:02:18:065,23.288,-1.024,0.058,2.815,-22.029,-89.798,4.646
14:02:18:089,23.312,0.076,-0.213,3.664,-22.075,-90.573,6.084
14:02:18:114,23.337,-1.595,-1.806,-3.990,-22.598,-91.707,-0.289
14:02:18:14,23.364,1.740,0.213,3.818,-21.716,-90.365,-5.254
14:02:18:167,23.390,-0.670,0.539,0.347,-20.586,-89.583,-10.457
14:02:18:193,23.416,-0.130,-0.063,0.016,-20.623,-88.678,-12.852
14:02:18:219,23.442,-0.226,0.284,0.151,-20.528,-87.702,-15.701
14:02:18:245,23.469,-0.058,0.432,-0.037,-20.405,-86.950,-17.034
14:02:18:271,23.495,-0.189,0.549,-0.347,-20.250,-85.676,-18.363
14:02:18:327,23.550,-0.413,0.385,-0.523,-20.004,-84.120,-19.546
14:02:18:328,23.551,-0.286,0.318,-0.781,-19.580,-82.692,-20.743
14:02:18:351,23.574,0.013,-0.117,-0.598,-18.511,-80.746,-22.908
14:02:18:376,23.600,0.243,-0.031,-0.458,-17.575,-79.412,-24.743
14:02:18:403,23.626,0.211,-0.037,-0.656,-16.356,-77.775,-28.222
14:02:18:429,23.652,0.058,-0.292,-1.027,-15.229,-76.573,-33.330
14:02:18:457,23.680,-0.070,-0.039,-1.196,-14.701,-75.392,-37.725
14:02:18:481,23.705,-0.080,0.304,-1.627,-11.999,-73.320,-45.129
14:02:18:508,23.731,0.267,0.495,-0.766,-9.771,-72.760,-50.001
14:02:18:534,23.757,0.004,-0.580,-1.312,-8.212,-72.549,-54.965
14:02:18:56,23.783,-0.288,-1.334,-0.732,-7.614,-71.392,-56.283
14:02:18:589,23.813,0.028,-1.019,-0.115,-7.528,-69.793,-55.950
14:02:18:59,23.813,-0.066,-1.062,-0.439,-9.298,-68.671,-52.278
14:02:18:641,23.865,0.020,-0.921,-0.478,-11.550,-68.131,-47.639
14:02:18:642,23.866,-0.101,-0.435,-0.482,-13.791,-67.138,-38.528
14:02:18:665,23.889,-0.415,-0.282,-0.299,-14.085,-65.240,-31.461
14:02:18:691,23.914,-0.707,0.210,0.101,-15.375,-61.009,-20.416
14:02:18:747,23.970,-0.130,0.720,1.147,-18.632,-58.946,-9.546
14:02:18:748,23.971,0.016,0.915,2.487,-20.823,-58.112,-3.549
14:02:18:771,23.994,0.191,-0.127,2.742,-22.495,-56.999,0.907
14:02:18:85,24.073,0.744,-0.378,2.424,-22.508,-57.011,1.027
14:02:18:881,24.104,-3.982,1.492,-0.669,-22.174,-59.725,-5.383
14:02:18:881,24.105,1.253,0.566,1.869,-21.361,-58.806,-10.418
14:02:18:882,24.106,-0.421,0.722,0.334,-20.427,-58.006,-15.204
14:02:18:901,24.125,0.134,0.074,-0.004,-20.243,-56.747,-18.501
14:02:18:929,24.153,0.023,0.208,0.100,-20.128,-56.255,-20.123
14:02:19:041,24.264,-0.137,0.249,0.026,-19.839,-55.254,-21.784
14:02:19:042,24.265,-0.396,0.399,-0.203,-19.738,-54.484,-22.569
14:02:19:043,24.266,-0.460,0.356,-0.256,-19.360,-53.146,-23.739
14:02:19:044,24.267,-0.360,0.184,-0.366,-18.727,-51.452,-25.381
14:02:19:088,24.312,-0.255,-0.035,-0.573,-18.054,-50.247,-26.725
14:02:19:089,24.312,-0.224,-0.046,-0.638,-16.988,-48.574,-29.340
14:02:19:169,24.393,-0.222,-0.217,-0.491,-16.177,-47.456,-31.839
14:02:19:171,24.394,-0.528,-0.179,-1.010,-15.080,-45.895,-37.224
14:02:19:171,24.394,-0.654,0.020,-0.911,-13.837,-44.442,-44.321
14:02:19:19,24.414,-0.975,0.093,-1.387,-12.051,-42.818,-49.607
14:02:19:216,24.439,-0.854,0.267,-1.540,-9.298,-41.708,-56.789
14:02:19:272,24.495,-0.406,-0.562,-0.727,-7.283,-41.525,-59.736
14:02:19:273,24.496,-0.635,-1.262,-0.888,-3.831,-38.681,-61.220
14:02:19:295,24.518,-0.139,-1.076,0.028,-3.201,-37.573,-60.575
14:02:19:351,24.575,-0.274,-1.100,-0.229,-5.059,-35.783,-56.816
14:02:19:351,24.575,-0.441,-0.816,-0.296,-8.544,-34.444,-49.763
14:02:19:374,24.598,-0.515,-0.607,-0.307,-9.950,-33.783,-43.695
14:02:19:401,24.624,-0.463,-0.173,-0.057,-10.722,-31.949,-33.274
14:02:19:426,24.650,-0.478,0.114,0.118,-10.913,-29.684,-25.766
14:02:19:454,24.678,0.174,0.539,0.596,-12.890,-26.768,-14.566
14:02:19:48,24.703,1.469,0.800,1.834,-15.497,-25.594,-5.127
14:02:19:534,24.758,1.881,0.439,2.029,-16.942,-25.178,-1.280
14:02:19:535,24.758,2.083,-0.256,1.198,-17.332,-24.819,-0.091
14:02:19:558,24.782,0.341,2.351,3.204,-17.787,-24.504,-4.905
14:02:19:613,24.837,3.768,0.443,-0.038,-16.759,-25.391,-10.648
14:02:19:614,24.837,0.313,-1.604,0.330,-15.857,-25.320,-14.621
14:02:19:636,24.859,-0.041,0.224,-0.129,-15.405,-23.945,-18.554
14:02:19:663,24.887,0.060,0.229,0.069,-15.146,-23.261,-21.315
14:02:19:689,24.912,-0.074,0.323,0.069,-14.947,-22.664,-22.503
14:02:19:715,24.938,-0.142,0.531,-0.301,-14.677,-21.354,-23.819
14:02:19:741,24.965,-0.750,0.482,-0.030,-14.460,-20.305,-24.485
14:02:19:768,24.991,-0.687,0.287,-0.153,-13.839,-18.418,-25.888
14:02:19:794,25.017,-0.518,-0.100,-0.254,-12.641,-16.322,-27.875
14:02:19:822,25.046,-0.455,-0.148,-0.321,-11.567,-15.020,-29.477
14:02:19:848,25.071,-0.365,-0.115,-0.639,-9.986,-13.430,-32.599
14:02:19:873,25.097,-0.925,-0.291,-0.640,-9.207,-12.831,-35.530
14:02:19:899,25.122,-1.206,-0.207,-0.639,-7.489,-11.995,-41.415
14:02:19:926,25.149,-1.551,0.254,-0.617,-5.980,-10.859,-46.048
14:02:19:953,25.176,-1.527,0.315,-0.771,-1.191,-10.004,-53.327
14:02:19:978,25.201,-1.127,-0.634,-0.545,2.829,-9.918,-58.454
14:02:20:004,25.227,-1.210,-1.074,-0.517,4.412,-8.579,-59.859
14:02:20:031,25.254,-0.397,-1.018,0.140,4.316,-7.840,-59.684
14:02:20:057,25.280,-0.244,-1.002,-0.083,2.906,-7.522,-57.881
14:02:20:082,25.306,-0.425,-0.860,-0.055,-1.262,-6.989,-52.197
14:02:20:109,25.332,-0.487,-0.536,-0.095,-4.707,-6.873,-43.580
14:02:20:136,25.359,-0.497,-0.385,0.013,-5.654,-6.269,-36.661
14:02:20:161,25.385,-0.398,0.019,0.400,-6.342,-4.004,-25.187
14:02:20:189,25.413,0.977,0.881,0.306,-7.691,-3.187,-17.304
14:02:20:215,25.438,2.083,1.107,0.380,-10.292,-4.408,-6.133
14:02:20:241,25.464,2.904,0.427,0.896,-11.873,-5.539,-0.430
14:02:20:266,25.490,2.767,-0.384,0.628,-12.801,-6.723,2.952
14:02:20:292,25.516,-2.028,2.279,1.171,-12.950,-6.158,-3.576
14:02:20:319,25.543,-0.791,-0.476,-0.604,-13.137,-7.399,-5.542
14:02:20:345,25.568,0.377,-0.864,0.235,-11.933,-7.026,-12.982
14:02:20:373,25.596,-0.063,-0.057,0.081,-11.450,-5.556,-17.137
14:02:20:398,25.621,0.263,0.220,-0.079,-11.249,-5.122,-19.120
14:02:20:453,25.676,0.037,0.324,0.078,-11.049,-4.342,-21.246
14:02:20:454,25.677,-0.418,0.577,-0.008,-10.859,-3.513,-22.266
14:02:20:477,25.700,-0.664,0.490,0.103,-10.596,-2.227,-23.509
14:02:20:503,25.726,-0.626,0.208,-0.035,-9.918,-0.844,-25.055
14:02:20:529,25.753,-0.686,-0.019,-0.116,-9.011,0.293,-26.372
14:02:20:557,25.780,-0.428,-0.087,-0.233,-7.221,1.831,-28.755
14:02:20:582,25.806,-0.525,-0.039,-0.448,-5.891,2.670,-30.714
14:02:20:608,25.831,-1.041,-0.262,-0.457,-4.184,2.852,-35.003
14:02:20:634,25.857,-1.330,-0.449,-0.259,-3.171,2.974,-38.858
14:02:20:66,25.884,-1.771,0.155,-0.109,-0.683,3.806,-45.644
14:02:20:686,25.910,-1.533,0.518,-0.499,4.036,3.124,-52.745
14:02:20:713,25.936,-0.812,-0.212,-0.658,5.888,2.570,-55.855
14:02:20:739,25.962,-1.118,-0.986,-0.150,6.999,3.353,-57.838
14:02:20:767,25.990,-0.254,-1.002,-0.072,7.248,3.117,-57.533
14:02:20:793,26.016,-0.222,-0.975,-0.143,5.729,2.820,-54.362
14:02:20:818,26.042,-0.382,-0.985,-0.080,1.895,2.148,-47.745
14:02:20:845,26.069,-0.354,-0.736,-0.196,-0.459,1.380,-41.885
14:02:20:871,26.094,-0.255,-0.306,-0.187,-2.444,1.128,-31.429
14:02:20:897,26.121,0.017,0.036,0.423,-3.333,1.882,-23.651
14:02:20:924,26.147,0.606,0.372,0.264,-5.837,1.761,-11.825
14:02:20:952,26.175,2.397,1.244,0.132,-7.733,0.228,-4.333
14:02:20:952,26.176,2.898,0.403,0.393,-10.045,-1.999,3.591
14:02:20:976,26.199,2.225,-0.462,0.396,-10.492,-2.802,5.424
14:02:21:028,26.251,-1.916,-1.372,0.041,-11.821,-3.680,-4.753
14:02:21:054,26.277,0.460,-0.852,0.493,-10.785,-3.167,-10.429
14:02:21:109,26.333,-0.192,0.797,0.020,-10.231,-2.237,-14.630
14:02:21:11,26.333,0.262,0.237,-0.165,-9.950,-1.792,-16.853
14:02:21:162,26.385,0.094,0.333,0.049,-9.763,-1.224,-19.178
14:02:21:163,26.386,-0.211,0.471,-0.025,-9.473,0.007,-20.701
14:02:21:185,26.409,-0.557,0.478,0.064,-9.349,0.823,-21.402
14:02:21:213,26.436,-0.520,0.295,0.024,-8.847,1.919,-22.616
14:02:21:238,26.461,-0.609,0.060,-0.173,-8.193,2.867,-23.628
14:02:21:264,26.488,-0.487,-0.070,-0.226,-6.697,4.546,-25.494
14:02:21:29,26.514,-0.484,-0.115,-0.338,-4.757,6.145,-28.075
14:02:21:317,26.540,-0.953,-0.048,-0.324,-3.492,6.783,-30.627
14:02:21:372,26.595,-0.987,-0.556,-0.302,-1.089,7.244,-35.902
14:02:21:373,26.596,-1.400,0.201,-0.243,0.421,8.221,-40.170
14:02:21:395,26.619,-1.704,0.351,-0.440,5.263,9.496,-47.204
14:02:21:421,26.645,-0.548,-0.063,-0.428,9.610,8.821,-53.045
14:02:21:447,26.671,-1.255,-0.868,-0.280,11.041,9.058,-54.998
14:02:21:475,26.699,-0.533,-1.057,0.155,10.347,9.078,-55.675
14:02:21:501,26.724,-0.145,-0.936,-0.137,8.742,8.486,-54.462
14:02:21:527,26.750,-0.383,-0.909,-0.234,4.552,8.024,-49.820
14:02:21:553,26.776,-0.405,-0.678,-0.127,0.142,7.309,-42.238
14:02:21:581,26.804,-0.362,-0.442,-0.174,-1.831,7.168,-35.992
14:02:21:605,26.829,-0.312,-0.196,0.051,-3.833,8.447,-25.377
14:02:21:633,26.856,0.431,0.456,0.131,-5.790,9.141,-17.887
14:02:21:658,26.881,1.685,1.067,-0.072,-9.410,8.157,-6.829
14:02:21:684,26.908,2.666,0.605,0.374,-11.546,7.494,-0.402
14:02:21:71,26.934,2.532,-0.208,0.373,-13.459,7.689,4.800
14:02:21:737,26.960,1.480,-0.467,-0.161,-13.831,8.028,4.669
14:02:21:763,26.986,1.641,2.491,1.760,-14.554,7.336,0.432
14:02:21:79,27.014,1.895,-0.982,-1.580,-13.845,6.223,-5.832
14:02:21:815,27.039,0.552,-0.690,0.155,-13.298,6.773,-9.884
14:02:21:841,27.065,0.008,0.001,0.153,-12.861,8.103,-13.992
14:02:21:869,27.092,0.119,0.241,0.027,-12.659,8.504,-16.662
14:02:21:894,27.117,0.040,0.362,0.086,-12.547,8.835,-17.728
14:02:21:92,27.144,-0.313,0.465,0.150,-12.376,9.692,-18.901
14:02:21:946,27.170,-0.468,0.335,0.086,-12.306,10.341,-19.510
14:02:22:002,27.226,-0.421,0.218,0.069,-11.961,11.707,-20.769
14:02:22:003,27.226,-0.497,-0.049,-0.108,-11.403,12.869,-21.932
14:02:22:027,27.250,-0.564,-0.126,-0.228,-10.231,14.683,-24.074
14:02:22:051,27.275,-0.428,0.006,-0.313,-8.909,16.165,-27.189
14:02:22:078,27.301,-0.773,-0.252,-0.102,-7.809,17.014,-30.227
14:02:22:104,27.328,-1.071,0.099,-0.088,-6.212,18.536,-36.223
14:02:22:13,27.353,-1.570,0.155,0.196,-4.518,20.104,-40.917
14:02:22:156,27.380,-1.557,0.353,-0.128,-0.436,21.820,-48.285
14:02:22:183,27.406,-0.292,-0.048,-0.248,2.849,22.599,-53.786
14:02:22:209,27.432,-1.111,-1.382,0.341,5.756,24.821,-55.286
14:02:22:265,27.489,-0.121,-1.072,0.340,7.316,27.088,-55.202
14:02:22:265,27.489,-0.327,-0.935,0.137,6.062,28.046,-53.513
14:02:22:288,27.511,-0.429,-0.817,0.115,1.337,29.309,-48.244
14:02:22:314,27.538,-0.424,-0.545,0.185,-1.706,29.963,-43.217
14:02:22:34,27.563,-0.458,-0.298,0.248,-4.319,32.110,-33.764
14:02:22:366,27.590,-0.213,0.011,0.375,-5.877,36.186,-23.009
14:02:22:393,27.616,0.232,0.349,0.237,-7.746,38.769,-15.721
14:02:22:419,27.642,1.453,0.815,-0.756,-11.217,41.091,-5.767
14:02:22:448,27.671,2.611,0.517,-0.704,-13.604,42.562,-0.853
14:02:22:473,27.697,2.156,-0.110,-0.764,-15.301,44.668,1.859
14:02:22:499,27.722,2.294,1.080,-0.991,-15.899,44.434,-0.621
14:02:22:524,27.747,-1.307,0.859,2.302,-15.013,42.566,-3.633
14:02:22:551,27.774,0.981,-0.716,-0.228,-13.828,41.759,-9.907
14:02:22:578,27.801,0.058,0.423,0.190,-13.384,43.180,-12.650
14:02:22:603,27.826,-0.162,-0.029,-0.222,-13.011,44.412,-15.601
14:02:22:629,27.852,0.075,0.155,-0.068,-12.831,44.747,-16.956
14:02:22:655,27.879,0.005,0.231,-0.076,-12.430,45.425,-18.106
14:02:22:682,27.905,-0.239,0.316,-0.004,-12.186,46.586,-18.667
14:02:22:708,27.931,-0.251,0.328,0.408,-12.003,47.614,-18.939
14:02:22:736,27.959,-0.306,0.160,0.193,-11.527,49.577,-19.877
14:02:22:761,27.985,-0.490,-0.061,0.090,-10.946,51.135,-20.865
14:02:22:787,28.010,-0.583,-0.159,0.112,-9.758,53.753,-22.951
14:02:22:813,28.036,-0.540,-0.142,0.146,-8.493,56.529,-26.302
14:02:22:839,28.063,-0.701,-0.083,0.386,-7.389,58.526,-29.456
14:02:22:866,28.089,-0.680,0.280,0.692,-5.590,61.536,-35.465
14:02:22:891,28.115,-1.152,0.307,1.380,-3.479,64.037,-40.104
14:02:22:976,28.200,-1.082,0.413,0.970,0.679,67.019,-46.558
14:02:22:977,28.200,-0.281,0.125,-0.229,4.384,68.994,-51.197
14:02:22:978,28.201,-0.328,-1.294,1.238,6.889,71.689,-52.055
14:02:22:997,28.220,0.359,-0.988,0.443,6.573,73.809,-51.152
14:02:23:023,28.246,-0.001,-0.986,0.466,4.505,74.896,-48.863
14:02:23:052,28.275,0.164,-0.733,0.529,0.782,76.480,-43.020
14:02:23:075,28.298,0.219,-0.490,0.586,-1.379,78.243,-34.970
14:02:23:101,28.325,0.300,-0.405,0.464,-2.006,79.886,-28.762
14:02:23:129,28.352,0.430,0.002,-0.047,-3.243,82.675,-18.712
14:02:23:154,28.378,0.295,0.381,-1.118,-4.680,83.688,-12.050
14:02:23:18,28.404,0.556,0.574,-1.855,-6.840,83.534,-3.155
14:02:23:238,28.462,0.730,0.272,-2.505,-8.124,83.111,0.918
14:02:23:239,28.463,-0.007,0.090,-1.551,-8.840,82.975,2.855
14:02:23:26,28.483,-0.684,-0.523,0.436,-8.688,81.653,-2.909
14:02:23:285,28.509,0.706,-0.367,-0.356,-7.806,81.556,-8.642
14:02:23:312,28.535,-0.414,0.395,0.114,-7.525,82.770,-11.059
14:02:23:367,28.590,-0.045,0.142,-0.313,-7.032,83.707,-13.997
14:02:23:368,28.591,-0.039,0.207,-0.179,-6.677,84.233,-15.797
14:02:23:418,28.642,-0.185,0.383,-0.104,-6.431,84.793,-16.422
14:02:23:446,28.669,-0.011,0.617,0.226,-6.152,86.276,-16.974
14:02:23:447,28.670,-0.636,-0.001,1.871,-5.890,87.968,-17.419
14:02:23:469,28.692,-0.058,0.717,-0.091,-5.851,89.893,-18.248
14:02:23:495,28.718,-0.328,-0.165,0.475,-4.932,91.193,-19.449
14:02:23:521,28.745,-0.372,-0.108,0.442,-3.391,92.887,-21.640
14:02:23:548,28.771,-0.511,-0.006,0.512,-1.744,93.884,-24.867
14:02:23:575,28.799,-0.368,-0.233,0.809,-0.634,94.333,-28.054
14:02:23:602,28.825,-0.212,-0.153,1.198,1.249,95.692,-33.800
14:02:23:627,28.850,-0.254,0.004,1.223,3.602,96.753,-38.407
14:02:23:654,28.877,-0.626,0.478,1.435,8.119,97.295,-45.310
14:02:23:68,28.903,-0.221,-0.476,0.980,11.744,96.888,-49.767
14:02:23:706,28.929,-0.034,-1.090,1.043,12.603,97.881,-50.763
14:02:23:762,28.985,0.039,-1.005,0.128,11.915,98.098,-49.897
14:02:23:762,28.985,-0.025,-1.032,0.294,10.069,98.194,-47.489
14:02:23:813,29.037,0.066,-0.875,0.465,5.699,98.101,-41.131
14:02:23:814,29.037,-0.057,-0.377,0.293,3.030,97.772,-35.511
14:02:23:839,29.062,0.075,-0.301,0.287,0.525,98.108,-25.356
14:02:23:864,29.087,0.478,0.036,-0.302,-1.717,98.990,-14.057
14:02:23:89,29.114,-0.232,0.603,-1.384,-3.663,98.044,-6.696
14:02:23:916,29.139,-0.251,0.658,-2.924,-6.333,95.401,2.955
14:02:23:941,29.165,0.095,-0.392,-2.510,-7.655,94.032,6.728
14:02:23:968,29.191,-0.200,-0.487,-2.337,-8.154,94.068,7.358
14:02:23:994,29.217,1.576,-0.545,3.855,-8.302,93.228,0.321
14:02:24:021,29.244,-0.432,-0.554,-3.005,-7.871,93.505,-3.578
14:02:24:046,29.270,0.113,0.440,-0.256,-6.336,93.753,-9.041
14:02:24:073,29.296,0.031,-0.033,0.034,-6.209,94.463,-11.228
14:02:24:099,29.322,-0.052,0.346,-0.231,-5.847,94.689,-13.963
14:02:24:154,29.377,0.051,0.268,-0.212,-5.602,94.983,-15.202
14:02:24:181,29.404,-0.035,0.584,0.272,-5.318,95.831,-16.379
14:02:24:182,29.405,-0.074,0.410,0.367,-4.948,96.711,-17.227
14:02:24:204,29.428,-0.168,0.151,0.309,-4.431,97.483,-17.941
14:02:24:23,29.453,-0.367,-0.104,0.312,-3.101,99.135,-19.366
14:02:24:257,29.480,-0.562,-0.077,0.325,-2.075,100.259,-20.604
14:02:24:285,29.508,-0.543,-0.072,0.596,-0.305,101.863,-23.621
14:02:24:311,29.534,-0.190,-0.272,0.847,1.723,103.477,-27.980
14:02:24:336,29.560,-0.330,-0.013,0.778,3.147,105.027,-31.787
14:02:24:42,29.643,-0.166,0.318,1.493,7.067,108.142,-38.144
14:02:24:421,29.644,-0.466,0.489,1.593,10.018,109.619,-42.207
14:02:24:422,29.645,0.493,-1.207,1.397,13.080,110.725,-45.799
14:02:24:44,29.664,0.145,-0.803,0.544,10.741,110.580,-47.138
14:02:24:467,29.690,-0.109,-0.868,0.410,8.298,110.636,-46.473
14:02:24:493,29.716,0.096,-0.763,0.396,3.294,111.166,-42.261
14:02:24:52,29.744,0.200,-0.643,0.391,0.446,111.817,-37.672
14:02:24:546,29.769,0.312,-0.413,0.475,-2.625,113.545,-29.002
14:02:24:572,29.795,0.271,-0.198,0.299,-4.264,115.190,-22.484
14:02:24:598,29.821,0.128,0.330,0.096,-7.404,118.040,-11.950
14:02:24:653,29.877,-0.396,0.599,-1.121,-11.839,120.399,-1.718
14:02:24:654,29.877,-0.505,0.523,-1.979,-15.021,121.842,3.913
14:02:24:677,29.900,-0.599,-0.220,-2.504,-18.846,125.652,8.541
14:02:24:703,29.926,-0.761,-0.562,-1.735,-20.231,128.106,8.945
14:02:24:729,29.953,2.769,1.457,-3.488,-19.910,127.668,5.896
14:02:24:755,29.978,-0.114,-0.125,0.654,-17.770,125.029,1.194
14:02:24:782,30.005,-0.547,-1.205,-1.174,-16.651,124.737,-2.596
14:02:24:808,30.031,0.054,0.210,-0.024,-16.355,126.678,-5.836
14:02:24:835,30.059,-0.335,0.054,-0.226,-16.197,127.204,-7.309
14:02:24:861,30.084,0.071,0.170,-0.353,-15.881,127.831,-8.656
14:02:24:887,30.110,-0.140,0.419,0.071,-15.835,128.688,-9.415
14:02:24:912,30.136,0.257,0.506,-0.043,-15.935,130.296,-10.413
14:02:24:939,30.163,0.302,0.217,0.076,-15.818,132.787,-11.913
14:02:24:967,30.190,0.186,0.045,0.262,-15.643,134.635,-13.372
14:02:24:993,30.216,0.173,0.018,0.489,-15.115,137.105,-15.991
14:02:25:018,30.242,0.229,0.089,0.484,-14.692,138.502,-18.188
14:02:25:044,30.267,0.303,0.056,0.587,-13.869,140.667,-22.742
14:02:25:07,30.294,0.484,0.084,0.795,-12.640,143.170,-29.125
14:02:25:097,30.320,0.957,0.434,0.954,-11.666,145.430,-34.198
14:02:25:152,30.375,0.793,0.622,0.700,-8.594,148.613,-41.994
14:02:25:153,30.376,0.535,0.401,0.473,-6.412,149.857,-46.326
14:02:25:176,30.399,1.082,-0.940,0.587,-3.438,153.212,-49.764
14:02:25:202,30.425,0.732,-1.203,-0.105,-2.779,157.902,-50.215
14:02:25:228,30.451,0.380,-1.105,-0.036,-4.144,158.892,-48.716
14:02:25:254,30.477,0.463,-0.841,0.085,-7.984,159.762,-43.765
14:02:25:282,30.505,0.384,-0.595,-0.110,-9.955,159.970,-38.694
14:02:25:308,30.531,0.510,-0.386,-0.079,-10.985,161.357,-29.404
14:02:25:364,30.587,0.295,-0.244,-0.456,-11.110,163.299,-22.455
14:02:25:364,30.587,-0.058,0.009,-0.687,-12.331,166.326,-11.397
14:02:25:386,30.609,-1.721,0.496,-0.858,-14.931,166.594,-0.744
14:02:25:441,30.664,-2.639,0.342,-1.513,-16.566,165.873,4.917
14:02:25:441,30.665,-2.140,-0.162,-0.861,-17.721,165.561,8.570
14:02:25:464,30.688,-0.967,1.801,-3.702,-17.862,165.401,6.486
14:02:25:493,30.717,-0.828,0.440,1.020,-16.054,165.293,0.695
14:02:25:494,30.717,-0.545,-0.292,-0.277,-15.355,164.895,-5.162
14:02:25:517,30.740,0.078,0.454,-0.192,-15.305,165.996,-7.716
14:02:25:573,30.796,-0.377,0.106,-0.112,-15.204,167.229,-10.633
14:02:25:573,30.796,-0.288,0.305,-0.149,-15.214,167.967,-12.095
14:02:25:625,30.848,-0.046,0.517,0.023,-15.036,169.328,-13.667
14:02:25:625,30.849,0.491,0.877,-0.258,-14.690,170.909,-14.799
14:02:25:677,30.900,0.647,0.626,-0.247,-14.419,172.004,-15.616
14:02:25:678,30.901,0.594,0.025,0.011,-13.610,173.951,-17.425
14:02:25:702,30.926,0.360,0.016,0.379,-12.689,175.293,-18.873
14:02:25:727,30.950,0.352,0.022,0.551,-11.315,176.880,-21.684
14:02:25:753,30.977,0.925,-0.263,0.380,-10.552,177.530,-24.383
14:02:25:837,31.061,1.269,-0.199,0.369,-9.117,178.141,-29.662
14:02:25:838,31.061,1.076,0.326,0.297,-7.304,179.344,-36.500
14:02:25:839,31.062,1.088,0.565,0.383,-4.825,179.551,-41.302
14:02:25:888,31.111,1.673,-0.314,0.552,-2.122,-179.608,-46.543
14:02:25:888,31.111,1.037,-0.986,-0.189,-1.348,-178.788,-48.441
14:02:25:911,31.135,0.546,-0.888,0.154,-0.871,-178.863,-48.708
14:02:25:937,31.161,0.184,-0.946,0.162,-2.703,-179.350,-45.753
14:02:25:963,31.186,0.449,-0.831,0.132,-4.856,179.876,-41.657
14:02:25:99,31.213,0.291,-0.406,0.250,-7.439,178.455,-32.998
14:02:26:016,31.239,0.265,-0.152,-0.071,-8.451,177.965,-25.985
14:02:26:041,31.265,0.162,0.036,-0.395,-9.650,178.955,-14.172
14:02:26:068,31.291,-1.387,0.794,-0.338,-11.306,178.805,-6.000
14:02:26:095,31.318,-2.962,0.708,-0.595,-14.081,175.956,5.377
14:02:26:149,31.373,-3.203,-0.328,-0.720,-15.351,174.054,10.496
14:02:26:15,31.373,-2.308,-0.539,-0.310,-15.068,173.815,10.292
14:02:26:173,31.396,-1.597,2.966,-0.136,-15.924,172.748,3.245
14:02:26:199,31.422,-3.939,-0.859,0.439,-15.648,172.339,-0.440
14:02:26:311,31.534,-0.052,-1.500,-0.275,-13.829,173.435,-7.682
14:02:26:311,31.535,-0.133,0.047,-0.258,-13.621,174.402,-11.722
14:02:26:312,31.536,-0.257,0.366,-0.015,-13.544,174.654,-13.720
14:02:26:362,31.585,-0.083,0.501,-0.154,-13.431,175.807,-15.883
14:02:26:363,31.586,0.198,0.724,-0.092,-13.371,176.958,-16.895
14:02:26:364,31.587,0.776,0.721,-0.182,-13.172,178.644,-18.196
14:02:26:412,31.636,0.759,0.066,0.074,-12.567,179.913,-19.383
14:02:26:413,31.636,0.758,-0.042,0.208,-10.957,-177.719,-21.676
14:02:26:436,31.659,0.391,0.056,0.376,-9.125,-176.183,-24.637
14:02:26:462,31.686,0.973,-0.138,0.474,-8.311,-175.969,-27.192
14:02:26:488,31.711,1.000,-0.749,0.115,-6.777,-176.315,-32.399
14:02:26:543,31.767,1.007,0.056,0.177,-6.210,-176.119,-36.425
14:02:26:544,31.767,0.972,0.218,0.272,-2.446,-176.120,-43.321
14:02:26:596,31.820,2.023,-0.288,0.552,0.426,-175.053,-47.989
14:02:26:597,31.820,1.206,-0.707,0.020,1.251,-174.753,-49.751
14:02:26:619,31.843,0.627,-0.989,0.152,2.363,-175.503,-50.078
14:02:26:675,31.898,0.427,-0.923,0.278,1.578,-176.023,-48.574
14:02:26:675,31.899,0.333,-0.825,0.214,-1.430,-177.573,-43.429
14:02:26:698,31.921,0.369,-0.544,0.386,-4.598,-179.458,-35.015
14:02:26:725,31.949,0.317,-0.289,0.350,-6.038,179.708,-28.090
14:02:26:809,32.032,0.081,0.090,0.127,-7.595,-179.706,-16.301
14:02:26:809,32.033,-0.622,0.438,-0.308,-9.446,-179.493,-8.047
14:02:26:81,32.034,-2.450,0.786,-0.191,-12.924,178.349,3.642
14:02:26:83,32.053,-3.295,0.208,-0.589,-15.172,176.967,9.431
14:02:26:855,32.079,-2.808,-0.626,-0.421,-16.451,176.170,12.629
14:02:26:882,32.105,-2.686,1.308,-0.417,-16.121,176.106,9.142
14:02:26:908,32.131,0.616,2.643,-1.448,-17.604,174.371,4.234
14:02:26:934,32.158,-1.851,-0.498,-0.368,-15.218,174.370,-3.796
14:02:26:961,32.184,0.295,0.647,-0.286,-14.521,175.287,-7.338
14:02:26:988,32.211,-0.424,-0.028,0.177,-14.211,175.787,-11.139
14:02:27:014,32.237,-0.266,0.304,-0.280,-14.095,175.903,-13.795
14:02:27:039,32.262,-0.135,0.323,-0.171,-14.125,176.627,-15.154
14:02:27:065,32.289,0.387,0.759,-0.094,-14.285,178.079,-16.705
14:02:27:092,32.315,0.537,0.703,-0.078,-14.350,179.343,-17.742
14:02:27:118,32.341,0.554,0.297,-0.006,-13.831,-178.432,-19.674
14:02:27:144,32.368,0.570,-0.014,0.129,-12.915,-176.650,-21.208
14:02:27:171,32.394,0.292,0.017,0.366,-11.144,-174.196,-23.592
14:02:27:196,32.420,0.763,0.097,0.622,-9.111,-172.442,-26.882
14:02:27:223,32.446,0.827,-0.485,0.664,-6.983,-171.737,-30.012
14:02:27:249,32.472,1.240,0.039,0.204,-5.155,-168.383,-35.357
14:02:27:334,32.557,1.023,0.066,0.208,-2.074,-165.321,-39.583
14:02:27:334,32.557,1.870,-0.455,-0.358,5.005,-161.274,-45.711
14:02:27:335,32.558,1.919,-0.571,-0.195,7.192,-161.127,-50.572
14:02:27:383,32.607,0.671,-0.873,-0.108,3.868,-163.491,-52.715
14:02:27:384,32.608,0.295,-0.657,0.289,-3.619,-166.028,-53.142
14:02:27:407,32.630,-0.034,-0.753,-0.097,-7.066,-167.317,-51.465
14:02:27:433,32.656,0.264,-0.793,-0.144,-9.524,-167.956,-45.416
14:02:27:461,32.684,0.352,-0.557,-0.218,-9.699,-167.042,-36.623
14:02:27:486,32.709,0.279,-0.281,-0.106,-10.035,-165.885,-29.784
14:02:27:512,32.736,-0.095,0.254,-0.231,-12.045,-163.587,-18.545
14:02:27:596,32.820,-1.199,0.848,-0.160,-14.644,-162.557,-10.812
14:02:27:597,32.820,-2.528,0.987,0.001,-19.064,-162.407,0.221
14:02:27:598,32.821,-2.900,-0.109,0.172,-21.630,-161.641,5.689
14:02:27:617,32.840,-2.477,-0.691,0.071,-23.804,-158.292,8.985
14:02:27:643,32.866,-1.290,-0.796,-0.526,-24.791,-155.173,7.442
14:02:27:669,32.893,-2.320,1.982,-1.533,-25.076,-155.570,5.718
14:02:27:697,32.920,-0.294,-1.274,0.937,-24.053,-157.133,0.156
14:02:27:722,32.945,-0.965,-0.680,-0.022,-23.183,-157.037,-4.316
14:02:27:748,32.972,-0.106,0.277,-0.274,-22.484,-155.482,-8.782
14:02:27:775,32.998,-0.244,0.211,0.084,-22.115,-154.514,-11.770
14:02:27:804,33.027,-0.210,0.261,-0.149,-21.919,-153.999,-13.059
14:02:27:804,33.028,-0.014,0.417,-0.029,-21.683,-152.762,-14.544
14:02:27:853,33.076,0.076,0.457,-0.487,-21.702,-151.638,-15.302
14:02:27:882,33.106,0.280,0.270,-0.377,-21.597,-149.521,-16.650
14:02:27:883,33.106,0.372,0.210,-0.254,-21.392,-147.902,-17.946
14:02:27:964,33.188,0.611,-0.054,-0.146,-20.562,-145.444,-20.387
14:02:27:965,33.188,0.606,-0.088,-0.124,-19.790,-143.241,-23.900
14:02:27:966,33.189,0.709,0.113,-0.213,-19.310,-141.724,-27.131
14:02:27:984,33.207,1.096,-0.072,-0.424,-18.137,-138.772,-34.314
14:02:28:01,33.234,1.028,0.260,-0.832,-16.830,-136.255,-39.711
14:02:28:066,33.289,1.390,0.658,-1.024,-13.571,-133.231,-47.473
14:02:28:067,33.290,0.401,-0.012,0.003,-11.324,-131.423,-52.713
14:02:28:089,33.312,0.915,-1.232,-1.106,-9.936,-128.623,-54.037
14:02:28:145,33.368,-0.081,-1.052,-0.384,-10.283,-127.249,-53.779
14:02:28:146,33.369,0.191,-1.135,-0.194,-11.639,-126.307,-51.711
14:02:28:168,33.392,0.187,-0.822,-0.262,-14.533,-125.678,-45.608
14:02:28:224,33.447,0.184,-0.612,-0.306,-15.913,-124.680,-36.919
14:02:28:224,33.447,0.131,-0.415,-0.480,-16.297,-123.158,-30.275
14:02:28:335,33.558,-0.388,-0.001,-0.480,-16.981,-119.514,-19.435
14:02:28:336,33.559,-1.090,0.628,0.489,-18.590,-117.560,-12.080
14:02:28:336,33.560,-1.627,0.569,1.283,-21.554,-116.646,-2.142
14:02:28:337,33.561,-2.268,0.148,2.059,-23.408,-116.518,2.446
14:02:28:352,33.575,-1.340,-0.160,2.090,-24.238,-115.562,4.319
14:02:28:378,33.602,-3.805,1.755,-0.061,-23.867,-115.603,-1.332
14:02:28:405,33.628,0.716,0.308,-0.105,-23.057,-115.695,-3.795
14:02:28:432,33.655,-0.368,-0.619,0.380,-21.693,-115.583,-9.872
14:02:28:486,33.709,-0.233,0.030,-0.026,-21.662,-114.587,-12.518
14:02:28:486,33.710,-0.010,0.219,0.273,-21.759,-113.628,-15.336
14:02:28:536,33.760,-0.301,0.270,-0.038,-21.947,-112.509,-17.295
14:02:28:565,33.788,0.040,0.600,-0.191,-22.049,-111.378,-18.350
14:02:28:565,33.789,-0.325,0.565,-0.760,-22.040,-109.468,-19.789
14:02:28:589,33.812,-0.224,0.468,-0.759,-21.887,-107.931,-21.085
14:02:28:614,33.838,0.446,0.005,-0.795,-20.946,-105.428,-23.592
14:02:28:641,33.865,0.451,0.093,-0.494,-20.208,-104.085,-25.577
14:02:28:668,33.891,0.489,0.047,-0.310,-19.148,-102.235,-30.023
14:02:28:693,33.917,0.530,-0.437,-0.981,-18.381,-100.860,-35.794
14:02:28:719,33.943,0.354,0.245,-1.480,-17.801,-99.573,-40.311
14:02:28:746,33.969,0.137,0.138,-1.009,-14.358,-98.963,-47.555
14:02:28:771,33.995,0.663,-0.536,-1.510,-12.302,-98.149,-51.647
14:02:28:798,34.021,0.372,-0.791,-1.071,-10.921,-94.575,-55.216
14:02:28:824,34.047,0.149,-1.063,-0.453,-10.164,-93.468,-55.799
14:02:28:85,34.074,0.244,-0.997,-0.167,-10.266,-91.858,-54.450
14:02:28:878,34.101,0.153,-0.853,-0.282,-12.305,-91.387,-49.200
14:02:28:904,34.128,0.212,-0.656,-0.326,-13.513,-91.247,-43.791
14:02:28:929,34.153,0.059,-0.364,-0.554,-14.403,-90.231,-33.904
14:02:28:955,34.179,-0.189,0.072,-0.296,-14.899,-88.757,-26.602
14:02:28:982,34.205,-0.440,0.441,-0.058,-16.861,-85.769,-15.060
14:02:29:009,34.232,-0.684,0.748,1.688,-20.612,-85.022,-3.919
14:02:29:034,34.258,-1.124,0.466,2.792,-23.145,-85.234,2.076
14:02:29:062,34.285,-0.436,-0.302,2.591,-24.828,-84.252,6.034
14:02:29:087,34.310,-0.089,1.259,4.133,-24.775,-83.709,5.450
14:02:29:113,34.336,-2.132,-1.067,-3.787,-24.686,-84.980,-1.366
14:02:29:139,34.363,-0.580,-2.115,0.122,-22.916,-83.582,-9.446
14:02:29:165,34.389,-0.631,0.411,0.191,-22.230,-82.628,-12.728
14:02:29:192,34.415,0.018,0.253,0.237,-22.168,-81.623,-16.133
14:02:29:218,34.441,-0.303,0.312,0.203,-22.235,-81.057,-17.914
14:02:29:245,34.468,-0.170,0.476,-0.042,-22.107,-79.717,-20.090
14:02:29:271,34.494,-0.311,0.411,-0.364,-21.798,-78.451,-21.568
14:02:29:327,34.550,-0.350,0.315,-0.384,-21.445,-77.507,-22.508
14:02:29:327,34.550,-0.104,0.105,-0.544,-20.565,-75.577,-24.295
14:02:29:349,34.572,0.065,-0.020,-0.573,-19.647,-74.155,-25.746
14:02:29:375,34.599,0.277,0.021,-0.646,-18.141,-72.320,-28.519
14:02:29:402,34.625,0.168,-0.063,-0.815,-17.301,-71.104,-31.185
14:02:29:428,34.651,0.003,-0.304,-1.228,-15.879,-69.447,-36.864
14:02:29:454,34.677,-0.190,0.433,-1.606,-14.244,-67.734,-43.767
14:02:29:481,34.704,-0.195,0.589,-1.489,-11.962,-66.399,-49.114
14:02:29:507,34.730,-0.210,-0.737,-1.455,-8.676,-64.820,-54.965
14:02:29:533,34.756,-0.403,-1.102,-0.568,-7.785,-63.761,-56.412
14:02:29:559,34.783,0.097,-0.987,-0.358,-8.336,-61.869,-56.747
14:02:29:586,34.809,-0.001,-0.984,-0.343,-10.160,-60.343,-54.181
14:02:29:612,34.836,-0.113,-0.801,-0.419,-12.204,-59.484,-50.498
14:02:29:638,34.861,-0.234,-0.539,-0.488,-14.379,-58.097,-42.833
14:02:29:664,34.887,-0.305,-0.381,-0.373,-15.226,-56.839,-36.747
14:02:29:72,34.943,-0.341,-0.022,-0.171,-16.179,-53.467,-26.682
14:02:29:72,34.943,-0.415,0.311,0.826,-18.510,-49.378,-16.338
14:02:29:743,34.967,0.085,0.747,1.998,-20.855,-47.888,-9.966
14:02:29:771,34.994,0.443,0.412,2.791,-24.316,-47.082,-2.655
14:02:29:796,35.019,0.928,-0.234,1.648,-25.221,-46.890,-0.482
14:02:29:822,35.045,-0.405,1.492,5.381,-25.927,-48.422,-0.835
14:02:29:877,35.100,2.975,-0.182,1.017,-25.038,-50.591,-5.086
14:02:29:878,35.101,-0.197,-1.429,0.781,-23.581,-49.854,-11.675
14:02:29:929,35.153,-0.140,0.304,0.212,-23.437,-48.502,-15.327
14:02:29:93,35.153,0.261,0.360,0.156,-23.448,-48.013,-17.073
14:02:29:953,35.177,-0.176,0.335,0.168,-23.140,-47.176,-18.769
14:02:29:979,35.202,-0.176,0.547,-0.135,-22.899,-46.282,-19.683
14:02:30:006,35.229,-0.751,0.638,-0.156,-22.582,-44.836,-20.850
14:02:30:032,35.255,-0.638,0.288,-0.247,-22.055,-42.575,-22.899
14:02:30:058,35.281,-0.585,0.046,-0.462,-21.409,-40.883,-24.813
14:02:30:087,35.310,-0.332,-0.057,-0.788,-20.298,-38.689,-28.248
14:02:30:088,35.311,-0.087,0.072,-0.683,-19.725,-37.430,-31.303
14:02:30:139,35.363,-0.609,-0.439,-1.136,-18.702,-35.560,-37.274
14:02:30:14,35.364,-1.144,-0.289,-1.011,-18.088,-34.109,-42.008
14:02:30:192,35.416,-1.000,0.179,-0.954,-15.131,-31.925,-50.123
14:02:30:193,35.416,-0.815,0.087,-1.134,-11.030,-29.977,-57.010
14:02:30:245,35.468,-1.072,-1.057,-0.926,-9.582,-28.590,-59.134
14:02:30:245,35.468,-0.796,-1.120,-0.101,-10.647,-27.373,-60.050
14:02:30:268,35.491,-0.047,-1.044,-0.165,-11.537,-26.333,-59.206
14:02:30:324,35.547,-0.283,-0.957,-0.099,-13.758,-24.598,-54.369
14:02:30:325,35.548,-0.508,-0.747,-0.040,-15.047,-22.773,-46.142
14:02:30:347,35.570,-0.597,-0.523,0.017,-15.142,-20.990,-39.610
14:02:30:373,35.596,-0.539,-0.238,0.432,-14.813,-17.097,-28.766
14:02:30:428,35.652,-0.182,0.117,0.825,-15.725,-15.033,-21.233
14:02:30:429,35.653,1.411,0.819,1.061,-18.324,-14.737,-10.151
14:02:30:482,35.706,2.174,0.682,1.681,-20.991,-15.668,-1.799
14:02:30:482,35.706,2.238,-0.156,1.383,-21.580,-16.139,0.546
14:02:30:504,35.728,3.527,1.202,1.631,-21.794,-16.408,-0.340
14:02:30:531,35.754,-1.909,1.850,2.327,-22.040,-17.508,-5.233
14:02:30:557,35.780,3.467,0.642,0.254,-20.606,-17.192,-11.764
14:02:30:583,35.806,-0.203,0.641,0.417,-19.795,-16.627,-14.998
14:02:30:609,35.833,0.069,0.094,0.050,-19.650,-15.444,-18.531
14:02:30:636,35.859,0.074,0.503,0.247,-19.514,-14.469,-21.082
14:02:30:662,35.885,-0.105,0.508,0.054,-19.256,-13.364,-22.419
14:02:30:689,35.912,-1.041,0.840,0.185,-18.886,-11.297,-24.103
14:02:30:745,35.968,-0.954,0.340,0.137,-18.380,-9.842,-25.407
14:02:30:745,35.968,-0.966,-0.092,-0.082,-17.017,-7.454,-28.064
14:02:30:767,35.990,-0.662,-0.136,-0.472,-15.205,-5.745,-31.346
14:02:30:793,36.016,-0.481,0.075,-0.734,-14.241,-5.128,-34.120
14:02:30:819,36.043,-0.931,-0.502,-0.720,-13.115,-5.043,-39.278
14:02:30:846,36.069,-1.318,-0.361,-0.470,-12.769,-4.973,-43.458
14:02:30:873,36.097,-1.180,0.184,-0.269,-10.112,-4.304,-50.751
14:02:30:899,36.122,-2.057,-0.318,-0.545,-7.071,-3.657,-55.159
14:02:30:925,36.148,-0.934,-1.065,0.050,-4.437,-2.869,-59.423
14:02:30:95,36.174,-0.618,-0.918,-0.201,-4.214,-2.474,-60.679
14:02:30:977,36.200,-0.258,-1.031,-0.256,-4.205,-1.660,-59.777
14:02:31:004,36.227,-0.328,-0.851,-0.030,-6.337,-0.660,-55.002
14:02:31:029,36.253,-0.543,-0.712,0.021,-8.220,-0.069,-49.771
14:02:31:082,36.305,-0.558,-0.125,0.430,-11.167,2.801,-28.567
14:02:31:108,36.332,-0.063,0.413,0.684,-12.310,4.035,-20.445
14:02:31:136,36.359,1.872,0.974,0.358,-14.949,3.603,-8.428
14:02:31:161,36.385,2.894,1.000,0.674,-16.872,2.515,-1.574
14:02:31:187,36.410,3.058,-0.220,0.441,-18.345,1.862,3.452
14:02:31:214,36.437,4.034,1.220,0.572,-18.177,1.879,3.206
14:02:31:239,36.463,-0.863,2.693,1.011,-18.563,1.047,-5.078
14:02:31:266,36.489,2.085,0.129,0.798,-17.230,1.161,-11.889
14:02:31:292,36.516,0.006,1.050,0.349,-16.616,1.500,-14.888
14:02:31:319,36.542,0.171,0.235,-0.008,-16.645,2.829,-18.531
14:02:31:344,36.568,0.152,0.398,0.204,-16.577,3.529,-20.418
14:02:31:371,36.594,-0.261,0.612,-0.010,-16.240,5.070,-22.518
14:02:31:397,36.620,-0.940,0.714,0.374,-15.817,6.752,-23.994
14:02:31:452,36.675,-1.132,0.426,0.417,-15.181,8.073,-25.252
14:02:31:453,36.676,-1.076,-0.209,0.052,-13.701,9.811,-27.503
14:02:31:477,36.700,-0.653,-0.069,-0.309,-12.352,10.932,-29.369
14:02:31:502,36.726,-0.884,-0.169,-0.293,-10.446,11.880,-32.996
14:02:31:528,36.752,-1.144,-0.842,-0.011,-9.616,11.733,-36.032
14:02:31:555,36.778,-1.696,-0.205,0.080,-8.379,11.401,-41.844
14:02:31:58,36.804,-0.944,0.080,-0.076,-5.939,10.541,-48.712
14:02:31:607,36.830,-1.952,-0.318,-0.099,-3.119,10.376,-53.002
14:02:31:633,36.856,-1.975,-0.539,-0.252,-0.470,11.208,-57.030
14:02:31:662,36.885,-0.801,-1.052,0.183,0.955,10.681,-58.314
14:02:31:713,36.937,-0.238,-0.857,-0.191,-1.623,8.868,-52.698
14:02:31:738,36.961,-0.376,-0.793,-0.238,-3.802,8.086,-47.356
14:02:31:765,36.988,-0.318,-0.399,-0.263,-5.689,7.721,-36.909
14:02:31:791,37.014,-0.352,-0.023,0.076,-6.295,8.790,-28.971
14:02:31:817,37.040,0.374,0.631,0.312,-8.746,9.838,-16.574
14:02:31:875,37.098,2.086,1.149,-0.021,-12.159,7.624,-4.921
14:02:31:875,37.098,2.998,1.019,-0.112,-14.253,5.948,0.777
14:02:31:926,37.149,3.014,-0.544,0.412,-14.994,4.486,3.729
14:02:31:926,37.149,1.685,-0.396,0.203,-14.895,4.440,2.741
14:02:31:948,37.171,2.144,2.750,-1.876,-16.774,3.629,-4.622
14:02:31:975,37.198,2.371,-1.854,-0.841,-15.213,3.339,-11.989
14:02:32:001,37.224,0.464,-0.329,0.346,-14.960,3.813,-15.571
14:02:32:027,37.250,0.137,0.088,-0.065,-15.073,4.836,-19.657
14:02:32:054,37.277,0.063,0.361,0.144,-15.041,5.343,-21.686
14:02:32:08,37.303,-0.158,0.434,0.205,-14.767,6.508,-23.768
14:02:32:105,37.329,-0.773,0.748,0.264,-14.586,7.344,-24.785
14:02:32:161,37.384,-1.160,0.444,0.173,-14.105,8.790,-26.528
14:02:32:161,37.385,-0.773,-0.064,-0.006,-12.924,10.146,-28.876
14:02:32:184,37.407,-0.650,-0.179,-0.244,-11.690,11.384,-30.796
14:02:32:211,37.434,-0.570,0.064,-0.513,-9.674,12.871,-34.160
14:02:32:237,37.460,-1.066,-0.694,-0.287,-8.353,13.550,-37.142
14:02:32:263,37.487,-1.376,-0.719,-0.310,-6.148,14.714,-42.680
14:02:32:29,37.513,-1.213,-0.107,-0.009,-2.957,15.984,-49.406
14:02:32:315,37.539,-1.434,0.134,0.022,1.203,16.264,-54.271
14:02:32:342,37.565,-2.084,-0.518,0.010,5.519,16.749,-59.548
14:02:32:369,37.593,-1.127,-1.172,0.500,4.941,16.603,-61.224
14:02:32:397,37.620,-0.522,-0.849,-0.161,1.283,15.792,-61.196
14:02:32:398,37.621,-0.019,-0.826,-0.121,-1.280,15.797,-59.396
14:02:32:451,37.674,-0.322,-0.789,0.019,-5.186,16.604,-53.246
14:02:32:451,37.674,-0.542,-0.642,0.203,-7.363,18.162,-44.178
14:02:32:502,37.725,-0.510,-0.307,0.323,-8.392,19.717,-37.350
14:02:32:503,37.726,-0.334,0.262,0.363,-10.083,23.095,-26.276
14:02:32:526,37.750,0.419,0.656,0.285,-12.213,25.305,-18.627
14:02:32:553,37.776,1.696,1.030,-0.024,-15.992,27.655,-7.828
14:02:32:634,37.858,2.652,0.354,-0.211,-19.242,30.056,-0.099
14:02:32:635,37.859,2.588,-0.301,-0.263,-19.981,31.604,2.133
14:02:32:688,37.912,1.638,-0.392,-0.262,-20.237,32.273,1.496
14:02:32:689,37.913,2.719,2.085,1.810,-21.298,31.100,-2.581
14:02:32:69,37.914,1.996,-0.749,-2.634,-19.052,29.949,-9.742
14:02:32:709,37.933,0.178,0.940,0.624,-18.321,30.340,-14.053
14:02:32:736,37.959,0.163,0.187,-0.076,-18.043,31.367,-18.256
14:02:32:762,37.985,0.125,0.250,0.157,-17.815,32.183,-20.912
14:02:32:791,38.014,-0.001,0.341,0.061,-17.578,32.795,-22.054
14:02:32:815,38.038,-0.271,0.497,0.092,-17.264,33.926,-23.166
14:02:32:842,38.065,-0.418,0.327,0.371,-17.013,34.805,-23.640
14:02:32:867,38.090,-0.462,0.211,0.184,-16.384,36.678,-24.847
14:02:32:893,38.116,-0.760,-0.074,0.020,-15.066,39.034,-26.654
14:02:32:92,38.143,-0.763,-0.063,-0.120,-14.080,40.660,-28.299
14:02:32:946,38.169,-0.770,-0.215,0.059,-12.474,43.497,-31.953
14:02:32:972,38.195,-0.800,-0.218,0.356,-10.973,45.448,-35.342
14:02:32:999,38.223,-0.829,-0.103,0.623,-8.586,48.444,-41.491
14:02:33:025,38.248,-1.128,0.048,0.969,-5.738,50.801,-46.152
14:02:33:05,38.274,-1.797,0.836,1.502,0.058,53.632,-53.390
14:02:33:077,38.300,-0.483,-1.315,1.016,2.589,54.165,-58.029
14:02:33:103,38.326,-0.471,-0.629,0.590,0.914,54.707,-59.369
14:02:33:129,38.353,-0.150,-1.043,-0.009,0.246,56.855,-58.890
14:02:33:156,38.379,-0.015,-0.900,0.303,-0.729,58.948,-56.494
14:02:33:182,38.405,-0.156,-0.849,0.695,-3.082,62.690,-50.071
14:02:33:209,38.432,-0.058,-0.498,0.770,-5.453,66.416,-41.441
14:02:33:235,38.458,0.026,-0.318,0.583,-6.629,68.980,-35.007
14:02:33:262,38.486,0.420,0.062,0.295,-8.569,73.162,-24.578
14:02:33:288,38.511,0.769,0.608,-0.780,-10.360,75.629,-17.597
14:02:33:313,38.536,1.214,0.829,-1.391,-13.423,77.905,-8.031
14:02:33:339,38.562,1.611,0.251,-2.130,-16.062,79.612,-1.863
14:02:33:395,38.618,1.284,-0.499,-1.542,-16.431,81.041,-0.568
14:02:33:396,38.619,0.961,2.224,-2.256,-16.593,81.636,-1.355
14:02:33:419,38.643,1.323,0.774,3.205,-17.456,79.318,-4.103
14:02:33:445,38.668,0.313,-0.438,-1.378,-14.811,79.502,-10.211
14:02:33:471,38.694,-0.185,0.285,0.026,-14.059,80.633,-13.480
14:02:33:497,38.720,-0.149,0.113,-0.027,-13.474,82.324,-16.558
14:02:33:524,38.747,-0.092,0.389,-0.043,-12.650,83.310,-18.447
14:02:33:58,38.803,-0.053,0.452,-0.093,-12.170,84.120,-19.255
14:02:33:58,38.803,0.067,0.532,0.555,-11.590,86.249,-20.213
14:02:33:602,38.825,-0.513,0.400,1.213,-11.137,87.914,-21.026
14:02:33:657,38.881,-0.107,0.244,0.586,-10.040,89.721,-22.569
14:02:33:658,38.881,-0.386,-0.263,0.737,-8.082,91.179,-24.987
14:02:33:682,38.905,-0.622,-0.029,0.578,-6.885,91.818,-27.160
14:02:33:707,38.931,-0.537,0.041,0.554,-5.125,92.312,-32.002
14:02:33:733,38.957,-0.522,-0.380,1.364,-3.956,92.777,-35.999
14:02:33:759,38.982,-0.237,0.051,1.430,-0.916,93.773,-43.047
14:02:33:785,39.009,-0.435,0.226,1.492,2.556,93.595,-48.257
14:02:33:87,39.094,-0.416,0.451,1.181,7.904,92.955,-54.522
14:02:33:871,39.094,-0.355,-0.806,1.121,9.609,93.941,-57.226
14:02:33:872,39.095,0.246,-1.262,0.507,9.648,94.196,-57.142
14:02:33:891,39.114,-0.158,-1.055,-0.082,8.565,94.570,-54.411
14:02:33:917,39.140,0.003,-1.079,0.279,6.014,95.075,-50.348
14:02:33:943,39.167,0.129,-0.639,0.357,2.233,95.663,-41.816
14:02:33:97,39.193,0.261,-0.353,0.426,0.252,97.435,-31.255
14:02:33:997,39.220,0.389,-0.188,0.317,-0.902,99.144,-23.405
14:02:34:051,39.274,0.119,0.339,-0.686,-3.945,99.304,-11.754
14:02:34:052,39.275,-0.478,1.092,-2.425,-6.113,97.633,-4.425
14:02:34:101,39.324,-0.238,0.481,-3.189,-9.066,95.650,3.433
14:02:34:131,39.355,-0.236,-0.266,-1.795,-9.843,95.943,5.144
14:02:34:131,39.355,1.297,0.353,-2.300,-10.152,97.558,3.185
14:02:34:182,39.406,0.170,-0.137,2.122,-9.966,96.187,-3.437
14:02:34:183,39.406,0.802,-1.211,-1.142,-9.026,95.838,-8.366
14:02:34:206,39.429,-0.147,0.601,-0.033,-8.593,96.854,-12.514
14:02:34:234,39.457,-0.049,0.050,-0.182,-8.420,97.514,-14.599
14:02:34:29,39.513,-0.010,0.354,-0.156,-8.253,98.011,-16.930
14:02:34:29,39.514,-0.041,0.485,0.150,-7.955,98.952,-18.295
14:02:34:311,39.535,-0.002,0.568,0.430,-7.787,99.756,-18.893
14:02:34:367,39.590,-0.037,0.334,0.476,-7.248,101.132,-19.910
14:02:34:367,39.590,-0.259,-0.036,0.704,-6.487,102.416,-20.815
14:02:34:389,39.613,-0.448,-0.029,0.573,-4.967,104.587,-22.758
14:02:34:416,39.639,-0.615,-0.094,0.499,-3.837,106.028,-24.647
14:02:34:442,39.665,-0.342,-0.058,0.837,-1.751,108.551,-28.764
14:02:34:468,39.692,-0.197,-0.289,1.212,1.079,111.443,-34.251
14:02:34:494,39.717,0.038,0.019,1.187,3.845,113.744,-38.551
14:02:34:523,39.746,0.227,0.320,1.712,10.411,116.826,-45.463
14:02:34:55,39.773,0.541,-0.831,1.357,14.600,117.748,-49.289
14:02:34:55,39.774,0.509,-1.015,0.826,14.887,117.035,-52.098
14:02:34:574,39.797,-0.282,-0.803,0.214,10.390,115.591,-52.605
14:02:34:599,39.823,-0.260,-0.846,0.072,7.407,115.532,-50.920
14:02:34:626,39.849,0.127,-0.830,0.401,2.746,116.663,-44.933
14:02:34:679,39.902,0.194,-0.684,0.481,0.389,117.953,-39.451
14:02:34:707,39.931,0.260,-0.342,0.464,-2.756,120.704,-29.943
14:02:34:708,39.931,0.097,-0.044,0.237,-4.901,122.768,-22.890
14:02:34:761,39.985,-0.154,0.520,-0.538,-9.197,125.765,-11.736
14:02:34:761,39.985,-0.611,0.965,-2.238,-13.925,127.755,-1.612
14:02:34:812,40.036,-0.855,0.657,-2.932,-16.941,129.404,3.149
14:02:34:813,40.037,-0.598,-0.183,-2.085,-19.328,132.920,5.470
14:02:34:836,40.059,2.252,1.223,-4.723,-19.719,133.676,4.722
14:02:34:863,40.086,2.326,1.444,1.644,-17.735,131.536,0.556
14:02:34:917,40.141,-0.516,-1.062,-1.318,-16.218,130.648,-5.743
14:02:34:918,40.141,0.048,0.521,0.071,-15.659,131.824,-8.608
14:02:34:942,40.165,-0.463,0.173,0.031,-15.246,133.059,-11.665
14:02:34:967,40.190,-0.077,0.310,-0.218,-15.100,133.384,-12.981
14:02:34:993,40.216,-0.156,0.534,0.045,-14.903,134.298,-14.391
14:02:35:019,40.243,0.420,0.682,0.117,-14.877,135.176,-15.157
14:02:35:046,40.269,0.357,0.424,0.227,-14.698,137.070,-16.380
14:02:35:072,40.296,0.275,0.240,0.593,-14.170,139.946,-18.604
14:02:35:099,40.323,0.332,-0.012,1.012,-13.383,142.071,-20.556
14:02:35:124,40.348,0.108,0.019,0.710,-12.098,144.926,-24.750
14:02:35:151,40.374,0.861,-0.199,1.107,-11.166,146.751,-28.455
14:02:35:177,40.400,0.991,-0.005,0.904,-9.408,149.163,-35.078
14:02:35:203,40.427,0.942,0.324,0.741,-5.554,151.908,-42.879
14:02:35:231,40.454,0.960,0.071,0.953,-1.834,153.768,-47.758
14:02:35:256,40.479,1.165,-1.047,0.123,2.222,156.571,-51.767
14:02:35:282,40.505,0.609,-0.871,0.046,2.235,157.496,-52.778
14:02:35:308,40.531,0.147,-0.926,-0.036,0.626,158.936,-52.169
14:02:35:363,40.587,0.392,-0.744,-0.024,-2.562,160.579,-47.610
14:02:35:364,40.588,0.407,-0.638,-0.145,-4.325,161.831,-42.611
14:02:35:417,40.640,0.731,-0.511,-0.140,-5.680,164.773,-33.219
14:02:35:418,40.641,0.451,-0.247,-0.243,-6.735,166.685,-26.211
14:02:35:44,40.663,-0.169,0.168,-0.481,-9.243,168.894,-14.820
14:02:35:466,40.689,-0.920,0.361,-0.654,-11.217,169.335,-7.509
14:02:35:492,40.715,-2.344,0.518,-1.274,-13.969,168.640,1.527
14:02:35:547,40.770,-2.490,-0.209,-1.137,-15.181,168.525,5.385
14:02:35:548,40.771,-3.849,0.401,-1.197,-15.184,168.358,4.690
14:02:35:6,40.823,3.874,0.333,-0.059,-13.778,167.852,-1.943
14:02:35:6,40.824,-1.987,-0.150,-0.872,-13.409,168.366,-6.998
14:02:35:652,40.876,0.259,0.321,-0.315,-12.078,169.066,-11.612
14:02:35:653,40.877,-0.159,-0.010,-0.033,-11.791,170.277,-14.816
14:02:35:676,40.899,-0.111,0.349,0.122,-11.699,171.049,-16.469
14:02:35:732,40.955,-0.055,0.506,0.161,-11.332,172.585,-18.259
14:02:35:732,40.955,0.471,0.921,-0.071,-11.049,173.680,-19.076
14:02:35:783,41.007,0.827,0.638,-0.127,-10.407,175.518,-20.467
14:02:35:784,41.008,0.767,0.062,0.112,-9.536,176.919,-21.782
14:02:35:865,41.088,0.541,-0.123,0.351,-7.498,178.847,-24.172
14:02:35:866,41.089,0.310,0.036,0.814,-5.457,179.922,-27.251
14:02:35:867,41.090,0.963,-0.032,0.695,-4.295,179.948,-30.142
14:02:35:885,41.109,1.288,-0.400,0.371,-2.481,179.855,-35.426
14:02:35:912,41.135,1.293,0.102,0.319,-0.884,179.948,-39.923
14:02:35:939,41.163,1.590,-0.069,0.543,3.580,-179.770,-46.743
14:02:35:966,41.189,1.539,-0.589,0.383,7.390,-178.840,-51.257
14:02:35:992,41.215,0.956,-0.913,-0.062,8.641,-179.311,-52.805
14:02:36:017,41.241,0.431,-0.873,0.238,7.961,-179.571,-52.700
14:02:36:072,41.296,0.143,-0.842,0.122,5.957,-179.739,-50.577
14:02:36:073,41.296,0.289,-0.736,0.152,1.832,-179.954,-44.020
14:02:36:096,41.319,0.472,-0.471,0.041,-0.382,-179.795,-37.928
14:02:36:123,41.346,0.438,-0.194,-0.111,-2.723,-178.790,-27.216
14:02:36:148,41.372,0.126,0.291,-0.437,-4.968,-176.765,-15.132
14:02:36:174,41.398,-0.603,0.419,-0.540,-7.235,-176.636,-6.982
14:02:36:23,41.453,-2.704,0.659,-0.431,-10.571,-179.166,4.161
14:02:36:231,41.454,-3.541,0.107,-0.457,-12.253,178.701,9.357
14:02:36:254,41.477,-3.542,-0.629,-1.028,-12.206,177.139,11.224
14:02:36:338,41.561,-1.183,2.642,0.661,-12.192,175.166,3.454
14:02:36:339,41.562,-1.808,-0.830,1.656,-12.186,174.951,-0.168
14:02:36:34,41.563,-0.400,-0.186,-0.310,-10.062,175.758,-7.527
14:02:36:358,41.581,-0.223,-0.105,-0.071,-9.954,176.415,-10.502
14:02:36:414,41.637,-0.288,0.341,0.053,-9.627,176.864,-13.874
14:02:36:415,41.638,-0.090,0.468,0.000,-9.522,177.455,-15.483
14:02:36:438,41.661,0.452,0.849,-0.100,-9.330,179.095,-17.056
14:02:36:463,41.687,0.782,0.768,-0.040,-9.083,-179.278,-18.356
14:02:36:519,41.743,0.685,0.292,0.016,-8.455,-178.038,-19.604
14:02:36:519,41.743,0.671,-0.070,0.243,-6.668,-175.776,-22.057
14:02:36:542,41.765,0.477,0.124,0.555,-5.197,-174.659,-24.001
14:02:36:568,41.791,1.001,-0.139,0.553,-3.545,-174.204,-27.934
14:02:36:594,41.818,1.237,-0.300,0.104,-2.099,-174.996,-33.530
14:02:36:621,41.844,1.101,-0.030,0.190,-0.852,-175.559,-38.061
14:02:36:648,41.871,1.910,-0.239,0.193,2.926,-176.113,-45.038
14:02:36:673,41.896,2.032,-0.356,0.626,5.318,-175.796,-48.291
14:02:36:699,41.923,0.828,-0.774,0.094,6.787,-177.380,-51.173
14:02:36:726,41.949,0.333,-0.921,0.400,6.618,-178.712,-50.976
14:02:36:754,41.978,0.151,-0.923,0.281,5.388,-179.528,-48.940
14:02:36:779,42.003,0.271,-0.858,0.324,2.171,179.001,-42.726
14:02:36:807,42.030,0.336,-0.685,0.412,0.110,178.181,-36.901
14:02:36:808,42.031,0.221,-0.162,0.318,-2.339,177.862,-26.601
14:02:36:831,42.054,-0.066,0.408,0.160,-4.004,178.353,-18.820
14:02:36:857,42.080,-1.220,0.606,0.054,-7.638,178.092,-6.625
14:02:36:883,42.106,-3.320,0.869,-0.380,-11.465,176.689,4.093
14:02:36:909,42.132,-3.506,-0.111,-0.678,-13.672,176.772,8.555
14:02:36:937,42.161,-2.170,-0.646,-0.458,-14.921,178.703,9.711
14:02:36:988,42.211,-3.738,0.839,-0.539,-15.110,178.841,7.928
14:02:37:018,42.241,-0.531,-0.701,1.304,-14.741,176.539,0.757
14:02:37:018,42.242,-1.670,-0.852,-0.085,-13.747,176.480,-4.536
14:02:37:041,42.264,-0.050,0.599,-0.159,-13.473,177.220,-8.849
14:02:37:096,42.319,-0.282,0.216,0.236,-13.578,178.265,-12.248
14:02:37:097,42.320,-0.148,0.326,-0.010,-13.635,178.897,-13.880
14:02:37:119,42.343,0.091,0.506,0.090,-13.538,-179.806,-15.671
14:02:37:146,42.369,0.364,0.610,-0.145,-13.530,-178.881,-16.542
14:02:37:172,42.395,0.585,0.441,-0.132,-13.355,-177.111,-18.087
14:02:37:198,42.421,0.941,0.163,0.261,-12.646,-174.932,-20.213
14:02:37:224,42.448,0.912,0.250,0.416,-11.996,-173.411,-22.143
14:02:37:251,42.474,0.702,0.103,0.575,-10.831,-170.834,-26.583
14:02:37:306,42.529,1.259,0.006,0.300,-10.025,-168.462,-30.935
14:02:37:307,42.530,1.440,0.442,0.142,-7.149,-163.929,-38.687
14:02:37:329,42.553,1.155,-0.172,-0.505,-1.399,-161.569,-46.259
14:02:37:356,42.579,1.808,-0.382,-0.347,-0.949,-162.035,-49.906
14:02:37:382,42.605,0.472,-0.912,-0.004,-6.741,-165.376,-52.823
14:02:37:408,42.631,0.047,-0.521,0.393,-9.558,-166.690,-53.074
14:02:37:434,42.658,-0.297,-0.963,0.135,-9.047,-166.642,-50.460
14:02:37:461,42.684,0.237,-1.221,-0.222,-8.118,-165.412,-46.608
14:02:37:487,42.710,0.494,-1.043,-0.300,-7.357,-163.324,-38.446
14:02:37:513,42.736,0.434,-0.502,0.015,-8.515,-161.939,-28.544
14:02:37:539,42.763,0.251,-0.261,0.120,-10.026,-161.210,-20.878
14:02:37:567,42.791,-0.302,0.597,-0.203,-13.679,-159.464,-8.370
14:02:37:594,42.817,-2.080,1.174,0.172,-16.578,-158.723,-0.322
14:02:37:619,42.842,-3.312,0.455,0.666,-20.251,-157.279,8.719
14:02:37:645,42.868,-2.631,-0.513,0.144,-22.652,-153.942,11.634
14:02:37:671,42.894,-1.646,-0.475,0.595,-22.845,-153.288,10.687
14:02:37:697,42.920,1.522,1.181,-2.397,-22.072,-155.554,5.854
14:02:37:725,42.948,-1.205,-1.208,2.021,-20.553,-155.588,0.988
14:02:37:749,42.973,-0.359,0.319,-0.431,-19.620,-154.310,-4.276
14:02:37:777,43.000,-0.280,0.022,0.452,-19.385,-153.316,-6.798
14:02:37:803,43.026,-0.326,0.233,-0.023,-19.267,-152.418,-9.594
14:02:37:828,43.052,-0.074,0.405,-0.018,-19.108,-151.380,-11.283
14:02:37:855,43.078,0.120,0.512,0.087,-19.031,-150.559,-12.202
14:02:37:881,43.104,0.174,0.417,-0.495,-18.908,-148.828,-13.629
14:02:37:936,43.159,0.323,0.249,-0.196,-18.764,-147.259,-14.989
14:02:37:938,43.161,0.544,0.089,-0.158,-18.139,-144.664,-17.613
14:02:37:96,43.183,0.584,0.034,-0.096,-17.161,-142.047,-21.071
14:02:38:015,43.238,0.660,-0.063,-0.132,-16.268,-140.126,-24.300
14:02:38:015,43.239,1.155,-0.035,-0.423,-15.139,-137.403,-30.603
14:02:38:038,43.262,1.021,-0.013,-0.602,-14.115,-135.636,-35.501
14:02:38:064,43.288,1.055,0.249,-0.944,-10.876,-132.643,-43.569
14:02:38:091,43.314,0.302,0.220,0.040,-8.677,-131.433,-48.240
14:02:38:117,43.340,0.765,-0.744,-0.967,-6.978,-130.105,-51.833
14:02:38:143,43.367,0.274,-1.152,-0.757,-8.260,-127.921,-52.612
14:02:38:17,43.393,0.057,-0.890,-0.046,-9.474,-127.418,-51.556
14:02:38:224,43.448,0.103,-0.808,-0.341,-12.093,-126.169,-46.952
14:02:38:251,43.474,0.091,-0.732,-0.480,-13.309,-125.380,-42.010
14:02:38:252,43.475,0.164,-0.498,-0.630,-14.241,-123.548,-32.754
14:02:38:274,43.498,-0.117,-0.202,-0.524,-15.166,-120.899,-22.372
14:02:38:302,43.526,-0.327,0.314,-0.287,-16.472,-118.624,-15.010
14:02:38:358,43.581,-0.911,0.624,0.573,-19.853,-115.576,-4.160
14:02:38:358,43.582,-2.226,0.355,1.693,-22.208,-114.022,1.894
14:02:38:38,43.603,-1.670,-0.247,1.644,-24.697,-111.288,7.017
14:02:38:406,43.629,-4.533,1.310,2.865,-25.267,-109.682,5.439
14:02:38:432,43.656,0.989,-1.940,-3.855,-23.357,-111.182,0.850
14:02:38:458,43.681,-1.555,-1.995,0.661,-22.467,-110.349,-6.264
14:02:38:485,43.709,-0.640,0.484,0.116,-21.352,-109.498,-9.425
14:02:38:511,43.734,-0.132,0.203,0.292,-21.098,-108.651,-12.855
14:02:38:566,43.789,-0.402,0.337,0.205,-21.122,-107.670,-15.397
14:02:38:567,43.790,-0.085,0.473,0.076,-21.099,-106.624,-16.659
14:02:38:592,43.815,-0.113,0.560,-0.374,-20.973,-105.126,-17.953
14:02:38:617,43.840,-0.053,0.388,-0.518,-20.731,-103.941,-18.752
14:02:38:642,43.866,0.059,0.212,-0.595,-20.036,-101.728,-20.338
14:02:38:669,43.892,0.313,0.062,-0.448,-19.245,-100.242,-21.704
14:02:38:694,43.918,0.456,0.105,-0.247,-17.910,-98.145,-24.292
14:02:38:721,43.944,0.469,-0.333,-0.864,-16.539,-96.028,-28.219
14:02:38:747,43.970,0.478,-0.418,-0.962,-15.580,-95.042,-31.616
14:02:38:803,44.026,0.333,0.211,-0.989,-14.081,-93.789,-38.208
14:02:38:804,44.027,0.135,0.258,-1.267,-12.242,-93.341,-43.405
14:02:38:826,44.049,0.656,0.264,-1.184,-8.949,-92.895,-50.112
14:02:38:852,44.075,-0.010,-0.838,-1.070,-8.801,-92.859,-53.151
14:02:38:878,44.102,0.049,-0.948,-0.537,-9.677,-93.113,-53.782
14:02:38:905,44.128,0.127,-0.943,-0.026,-11.118,-92.003,-52.366
14:02:38:931,44.154,0.032,-0.861,-0.299,-12.638,-91.827,-49.202
14:02:38:986,44.209,0.028,-0.697,-0.388,-14.298,-91.119,-41.738
14:02:38:987,44.210,-0.055,-0.523,-0.550,-14.801,-90.163,-35.645
14:02:39:039,44.262,-0.204,-0.075,-0.387,-15.909,-88.037,-25.328
14:02:39:039,44.263,-0.383,0.459,0.063,-18.145,-85.253,-13.981
14:02:39:065,44.288,-0.499,0.723,1.205,-20.578,-83.717,-6.518
14:02:39:066,44.289,-1.080,0.274,2.803,-24.507,-81.992,2.664
14:02:39:117,44.341,-0.799,-0.505,2.014,-26.317,-80.264,5.951
14:02:39:118,44.342,0.346,-0.566,2.009,-26.713,-78.962,6.833
14:02:39:143,44.366,-4.013,-0.226,-3.260,-26.604,-79.734,0.500
14:02:39:168,44.392,2.186,-0.105,2.899,-25.266,-78.272,-5.845
14:02:39:194,44.417,-1.087,0.693,0.490,-24.075,-77.660,-11.026
14:02:39:22,44.443,-0.207,-0.041,0.379,-23.904,-77.173,-13.450
14:02:39:275,44.498,-0.345,0.244,0.299,-23.961,-76.441,-16.065
14:02:39:276,44.499,-0.184,0.336,0.216,-23.975,-75.631,-17.345
14:02:39:327,44.551,-0.105,0.620,-0.089,-24.000,-74.316,-18.736
14:02:39:328,44.552,-0.432,0.541,-0.449,-23.824,-72.537,-20.057
14:02:39:352,44.575,-0.341,0.256,-0.420,-23.490,-70.812,-21.429
14:02:39:377,44.601,-0.061,-0.022,-0.532,-22.410,-68.081,-24.015
14:02:39:403,44.627,0.206,0.115,-0.532,-21.670,-66.655,-25.954
14:02:39:43,44.653,0.188,0.006,-0.790,-20.664,-64.337,-29.973
14:02:39:485,44.708,-0.250,-0.432,-1.194,-19.560,-62.234,-35.782
14:02:39:486,44.709,-0.328,0.168,-1.084,-18.599,-60.510,-40.549
14:02:39:509,44.732,-0.492,0.137,-1.286,-15.252,-58.272,-48.619
14:02:39:534,44.758,-0.383,0.416,-1.164,-12.890,-57.044,-53.194
14:02:39:561,44.784,-0.748,-1.167,-1.092,-12.602,-55.526,-56.733
14:02:39:587,44.810,-0.106,-0.774,-0.324,-15.009,-54.746,-57.536
14:02:39:614,44.837,0.146,-0.826,-0.143,-16.145,-53.774,-56.419
14:02:39:639,44.863,-0.217,-0.825,-0.203,-17.976,-51.746,-51.297
14:02:39:667,44.890,-0.433,-0.708,-0.260,-18.310,-49.881,-46.323
14:02:39:692,44.915,-0.706,-0.597,-0.299,-18.661,-46.169,-37.677
14:02:39:749,44.972,-0.679,-0.221,-0.062,-19.421,-43.643,-31.298
14:02:39:749,44.972,-0.669,0.265,0.327,-21.425,-39.683,-20.799
14:02:39:771,44.994,-0.074,0.513,1.420,-24.227,-35.790,-10.503
14:02:39:797,45.020,0.441,0.578,2.121,-26.214,-34.094,-4.622
14:02:39:824,45.047,1.110,-0.214,2.530,-27.970,-32.045,0.324
14:02:39:852,45.075,2.169,-0.285,0.928,-28.021,-31.571,1.046
14:02:39:877,45.100,-4.008,0.786,2.667,-28.999,-31.826,-5.068
14:02:39:903,45.126,3.412,0.080,0.297,-26.442,-31.684,-10.825
14:02:39:957,45.181,0.546,-0.619,0.202,-25.291,-31.392,-14.463
14:02:39:958,45.181,0.029,0.099,0.051,-24.955,-30.496,-18.346
14:02:39:981,45.204,0.228,0.230,0.147,-24.723,-29.697,-20.411
14:02:40:007,45.230,-0.168,0.282,0.164,-24.183,-28.557,-22.450
14:02:40:033,45.257,-0.424,0.503,0.008,-23.758,-27.736,-23.422
14:02:40:062,45.285,-0.787,0.419,0.042,-23.011,-26.598,-24.412
14:02:40:144,45.367,-0.710,0.249,-0.144,-22.237,-25.025,-25.897
14:02:40:145,45.368,-0.679,0.049,-0.319,-21.432,-23.801,-27.253
14:02:40:145,45.369,-0.404,-0.018,-0.501,-19.894,-22.192,-29.776
14:02:40:223,45.446,-0.577,-0.213,-0.681,-18.884,-21.152,-32.070
14:02:40:224,45.447,-0.744,-0.524,-0.811,-17.360,-19.929,-36.678
14:02:40:224,45.448,-1.246,-0.154,-0.864,-15.987,-18.434,-43.045
14:02:40:244,45.467,-1.071,0.108,-0.497,-13.736,-17.528,-48.091
14:02:40:27,45.494,-1.326,0.383,-0.530,-8.698,-16.523,-55.313
14:02:40:297,45.520,-1.001,-0.416,-0.803,-5.588,-16.309,-58.705
14:02:40:323,45.546,-0.897,-1.050,-0.143,-6.263,-15.772,-61.198
14:02:40:348,45.572,-0.090,-0.814,-0.155,-8.233,-15.791,-61.208
14:02:40:375,45.598,-0.045,-0.845,-0.197,-10.764,-15.270,-58.309
14:02:40:401,45.624,-0.347,-0.888,-0.031,-12.741,-14.152,-51.639
14:02:40:427,45.650,-0.471,-0.621,-0.059,-13.082,-13.055,-45.801
14:02:40:455,45.678,-0.595,-0.422,0.062,-13.309,-10.692,-35.862
14:02:40:48,45.704,-0.398,0.177,0.452,-13.748,-8.704,-28.594
14:02:40:506,45.729,0.210,0.514,0.698,-15.981,-6.124,-17.519
14:02:40:532,45.755,1.905,0.820,1.256,-19.047,-6.318,-7.240
14:02:40:558,45.782,2.495,0.421,1.348,-20.727,-6.895,-2.384
14:02:40:585,45.808,2.178,-0.365,0.527,-21.253,-7.771,0.120
14:02:40:611,45.834,2.190,2.252,2.933,-21.363,-8.978,-1.565
14:02:40:666,45.889,0.624,-0.415,-0.907,-20.871,-10.287,-8.373
14:02:40:667,45.890,0.394,-0.171,0.355,-20.185,-9.755,-13.781
14:02:40:691,45.914,-0.196,0.496,0.348,-19.202,-8.735,-18.334
14:02:40:716,45.940,0.109,0.182,0.144,-18.844,-7.657,-21.714
14:02:40:742,45.965,-0.026,0.375,0.137,-18.744,-7.044,-23.344
14:02:40:768,45.992,-0.372,0.592,-0.071,-18.358,-5.736,-25.130
14:02:40:795,46.018,-0.821,0.478,0.333,-17.903,-4.318,-26.501
14:02:40:821,46.044,-0.828,0.366,0.179,-17.442,-3.228,-27.590
14:02:40:847,46.070,-0.763,-0.069,-0.128,-16.268,-1.517,-29.669
14:02:40:873,46.096,-0.658,0.054,-0.311,-15.132,-0.495,-31.331
14:02:40:9,46.123,-0.654,-0.062,-0.500,-13.265,0.732,-34.600
14:02:40:926,46.149,-1.230,-0.403,-0.583,-12.350,1.008,-37.550
14:02:40:953,46.177,-1.564,-0.441,-0.460,-10.867,1.155,-43.501
14:02:40:98,46.203,-1.524,0.088,-0.231,-8.112,1.352,-50.577
14:02:41:006,46.229,-1.222,0.561,-0.356,-4.625,0.887,-55.168
14:02:41:032,46.255,-1.708,-0.789,-0.522,-1.226,0.987,-59.425
14:02:41:059,46.282,-0.875,-1.101,0.150,-1.141,0.924,-60.165
14:02:41:084,46.307,-0.271,-0.867,-0.208,-2.550,1.122,-58.761
14:02:41:11,46.333,-0.264,-0.971,-0.117,-5.936,1.534,-53.398
14:02:41:164,46.387,-0.494,-0.400,-0.086,-9.865,2.192,-38.235
14:02:41:189,46.412,-0.369,-0.139,0.174,-10.663,2.917,-30.869
14:02:41:245,46.468,-0.125,0.349,0.328,-12.671,4.231,-19.052
14:02:41:245,46.468,1.303,0.890,0.340,-14.664,3.980,-11.216
14:02:41:267,46.491,2.849,0.879,0.757,-17.862,2.111,-1.024
14:02:41:295,46.518,3.126,-0.024,0.669,-19.392,0.464,3.921
14:02:41:323,46.546,2.210,-0.477,0.253,-19.225,-0.260,3.849
14:02:41:323,46.546,2.887,3.047,0.817,-20.633,-0.818,-3.440
14:02:41:373,46.596,2.768,-1.046,-0.873,-19.780,-1.984,-7.189
14:02:41:402,46.626,0.518,-1.222,0.210,-18.227,-1.279,-14.084
14:02:41:402,46.626,0.078,0.152,0.079,-18.067,-0.222,-18.182
14:02:41:425,46.648,0.168,0.315,0.092,-17.951,0.233,-20.207
14:02:41:451,46.674,-0.121,0.460,0.193,-17.599,1.269,-22.353
14:02:41:477,46.700,-0.369,0.595,0.120,-17.305,2.115,-23.448
14:02:41:533,46.756,-0.752,0.483,0.253,-16.804,3.282,-24.952
14:02:41:533,46.756,-0.745,0.059,0.078,-16.221,4.179,-26.212
14:02:41:587,46.810,-0.723,-0.039,-0.032,-14.887,5.819,-28.570
14:02:41:587,46.810,-0.537,-0.095,-0.214,-13.098,7.091,-31.292
14:02:41:609,46.832,-0.822,-0.098,-0.270,-12.166,7.513,-33.647
14:02:41:634,46.858,-1.190,-0.597,-0.286,-10.880,7.574,-38.530
14:02:41:661,46.884,-1.368,0.024,0.119,-10.215,7.733,-42.784
14:02:41:687,46.910,-1.321,-0.003,-0.308,-6.869,7.651,-50.151
14:02:41:714,46.938,-1.184,0.236,-0.391,-1.981,6.968,-56.919
14:02:41:74,46.964,-1.665,-0.695,-0.315,-0.635,7.188,-59.295
14:02:41:767,46.990,-0.742,-1.201,0.284,-0.278,7.240,-60.617
14:02:41:792,47.015,-0.220,-0.919,-0.027,-0.731,7.657,-59.853
14:02:41:818,47.042,-0.197,-0.925,-0.110,-2.685,8.121,-55.388
14:02:41:846,47.070,-0.476,-0.729,0.029,-5.629,8.825,-47.412
14:02:41:874,47.097,-0.480,-0.463,0.037,-7.017,9.464,-40.852
14:02:41:897,47.121,-0.495,-0.217,0.363,-8.576,11.150,-29.836
14:02:41:924,47.148,-0.152,0.272,0.475,-9.988,12.376,-21.974
14:02:41:95,47.174,1.294,0.808,0.087,-13.047,12.496,-10.266
14:02:41:976,47.199,2.680,0.998,0.248,-15.033,11.576,-2.999
14:02:42:002,47.225,2.962,-0.015,0.299,-17.334,10.649,4.076
14:02:42:028,47.252,1.934,-0.485,0.139,-17.354,10.237,4.774
14:02:42:055,47.278,2.264,0.727,-1.163,-17.460,9.056,2.063
14:02:42:081,47.304,-0.869,-1.708,-0.568,-18.331,8.061,-5.645
14:02:42:167,47.391,0.594,-0.897,0.493,-16.865,8.708,-11.046
14:02:42:168,47.391,0.071,0.194,0.035,-16.364,9.550,-15.736
14:02:42:168,47.391,0.230,0.300,0.131,-15.970,10.110,-19.159
14:02:42:186,47.409,0.168,0.212,0.166,-15.725,10.564,-20.729
14:02:42:213,47.436,-0.174,0.401,0.092,-15.255,11.571,-22.114
14:02:42:238,47.462,-0.524,0.527,0.249,-14.904,12.245,-22.615
14:02:42:294,47.517,-0.687,0.396,0.206,-14.273,13.524,-23.584
14:02:42:294,47.518,-0.583,0.129,0.099,-13.605,14.483,-24.618
14:02:42:317,47.541,-0.456,-0.055,-0.058,-12.273,16.044,-26.596
14:02:42:343,47.567,-0.601,-0.166,-0.155,-10.717,17.487,-29.129
14:02:42:37,47.593,-0.691,-0.054,-0.220,-9.675,18.316,-31.436
14:02:42:396,47.619,-1.125,-0.335,-0.044,-8.083,19.298,-36.310
14:02:42:422,47.645,-0.890,-0.009,0.025,-6.717,20.076,-40.393
14:02:42:45,47.674,-1.598,0.140,0.218,-2.272,21.837,-47.261
14:02:42:475,47.698,-1.206,0.140,-0.278,2.681,22.277,-53.728
14:02:42:501,47.724,-1.214,-1.156,0.310,3.855,21.854,-55.925
14:02:42:527,47.750,-0.520,-0.924,0.154,1.065,20.941,-57.329
14:02:42:553,47.777,-0.256,-0.808,-0.266,-1.068,20.526,-56.759
14:02:42:58,47.803,-0.450,-0.959,-0.132,-5.239,20.568,-52.655
14:02:42:606,47.829,-0.455,-0.679,-0.111,-7.752,20.677,-47.998
14:02:42:688,47.911,-0.570,-0.486,0.037,-9.804,21.641,-39.361
14:02:42:689,47.912,-0.432,-0.272,0.075,-11.361,24.064,-29.573
14:02:42:714,47.937,-0.260,0.305,0.064,-13.155,26.107,-22.590
14:02:42:714,47.938,1.396,0.730,-0.327,-17.295,28.282,-12.056
14:02:42:737,47.961,3.064,1.006,-0.166,-20.064,29.851,-5.946
14:02:42:764,47.987,2.760,-0.093,-0.326,-22.964,35.641,-1.629
14:02:42:79,48.013,1.846,0.295,-0.839,-23.697,41.204,-2.918
14:02:42:816,48.040,1.108,1.017,5.051,-24.077,40.740,-4.628
14:02:42:844,48.067,1.798,-0.819,-2.366,-22.010,37.612,-9.044
14:02:42:869,48.092,0.261,-0.305,0.038,-20.984,36.848,-13.592
14:02:42:897,48.120,0.073,0.125,0.280,-20.584,37.920,-17.357
14:02:42:923,48.146,0.102,0.267,0.136,-20.327,38.346,-19.048
14:02:42:948,48.172,0.217,0.219,0.149,-20.048,38.909,-20.389
14:02:42:973,48.197,-0.117,0.425,0.115,-19.929,40.028,-21.229
14:02:43:,48.223,-0.219,0.470,0.456,-19.887,41.049,-21.641
14:02:43:026,48.249,-0.404,0.208,0.409,-19.636,43.167,-22.887
14:02:43:052,48.275,-0.625,0.002,0.311,-18.836,45.806,-25.145
14:02:43:078,48.302,-0.709,-0.025,0.269,-18.128,47.449,-27.077
14:02:43:105,48.328,-0.531,-0.096,0.259,-17.004,49.838,-31.122
14:02:43:131,48.355,-0.967,-0.111,0.609,-16.126,51.518,-34.736
14:02:43:157,48.381,-0.867,-0.146,0.782,-14.729,53.700,-41.554
14:02:43:183,48.407,-1.143,0.024,1.186,-12.859,55.643,-46.779
14:02:43:209,48.433,-1.014,0.183,1.315,-8.561,57.659,-54.590
14:02:43:236,48.459,0.057,0.047,-0.045,-5.114,58.529,-60.091
14:02:43:263,48.486,-0.329,-1.028,1.066,-2.922,60.207,-61.669
14:02:43:318,48.541,0.250,-1.145,0.653,-2.892,62.087,-61.390
14:02:43:318,48.541,-0.030,-0.919,0.102,-4.173,63.129,-59.344
14:02:43:371,48.594,-0.043,-0.813,0.418,-6.264,65.297,-52.991
14:02:43:371,48.594,0.001,-0.728,0.534,-6.281,68.340,-43.974
14:02:43:394,48.617,-0.052,-0.646,0.807,-6.400,70.866,-37.196
14:02:43:42,48.643,0.071,-0.112,0.415,-7.679,74.318,-26.256
14:02:43:447,48.670,0.214,0.582,-0.489,-9.623,75.893,-18.640
14:02:43:472,48.696,0.657,0.718,-1.362,-12.905,77.001,-7.985
14:02:43:499,48.722,1.637,0.684,-2.584,-14.817,77.499,-2.518
14:02:43:525,48.748,1.183,-0.001,-2.080,-16.069,79.457,0.807
14:02:43:551,48.774,1.088,2.755,-0.942,-16.608,79.918,-2.108
14:02:43:577,48.801,0.269,-0.109,3.597,-16.690,78.696,-4.805
14:02:43:604,48.827,0.888,-0.020,-0.698,-14.703,78.483,-11.950
14:02:43:632,48.856,0.166,0.366,0.072,-13.759,79.257,-15.114
14:02:43:633,48.857,-0.027,-0.037,-0.227,-13.238,80.201,-18.679
14:02:43:656,48.879,0.221,0.259,-0.077,-13.050,80.815,-21.063
14:02:43:682,48.905,-0.069,0.341,-0.037,-12.885,81.452,-22.056
14:02:43:709,48.932,0.043,0.563,0.272,-12.564,82.577,-23.078
14:02:43:734,48.958,0.122,0.602,0.596,-12.364,83.527,-23.546
14:02:43:792,49.015,-0.072,0.382,0.709,-11.881,85.311,-24.595
14:02:43:792,49.015,-0.167,-0.047,0.632,-11.127,86.660,-25.657
14:02:43:844,49.067,-0.295,-0.037,0.505,-9.504,88.695,-27.799
14:02:43:844,49.068,-0.421,-0.151,0.623,-7.872,90.023,-30.769
14:02:43:895,49.118,-0.373,-0.324,0.959,-6.901,90.345,-33.628
14:02:43:896,49.119,-0.373,-0.233,1.270,-5.626,90.898,-39.398
14:02:43:918,49.142,-0.287,-0.012,1.291,-4.042,91.637,-44.065
14:02:43:945,49.168,-0.581,0.096,1.719,0.267,92.503,-51.546
14:02:43:971,49.194,-0.570,-0.027,0.264,4.575,92.152,-57.315
14:02:43:998,49.221,-0.338,-0.809,1.241,6.321,92.802,-58.778
14:02:44:024,49.247,0.223,-1.099,0.307,7.112,94.068,-58.509
14:02:44:05,49.274,-0.052,-1.092,0.098,6.104,94.401,-56.496
14:02:44:134,49.358,-0.031,-0.942,0.358,1.929,95.024,-50.447
14:02:44:135,49.358,0.091,-0.564,0.439,-0.882,95.321,-44.737
14:02:44:136,49.359,0.138,-0.240,0.448,-3.298,96.488,-34.641
14:02:44:155,49.378,0.446,-0.016,0.336,-4.507,99.226,-23.431
14:02:44:181,49.404,0.345,0.335,-0.469,-6.157,100.358,-15.855
14:02:44:207,49.431,-0.194,0.852,-2.153,-8.999,100.082,-5.205
14:02:44:235,49.458,0.190,0.583,-3.018,-10.933,99.735,0.537
14:02:44:26,49.484,0.171,-0.368,-2.622,-12.456,100.054,4.552
14:02:44:286,49.510,-0.349,-0.074,-1.052,-12.333,100.434,3.680
14:02:44:342,49.565,0.623,2.778,-2.626,-13.718,99.294,-0.802
14:02:44:342,49.566,-1.596,-1.147,-2.773,-11.341,98.782,-7.502
14:02:44:365,49.588,-0.044,1.004,0.322,-10.740,99.356,-11.111
14:02:44:392,49.616,-0.290,-0.034,-0.048,-10.425,100.578,-14.945
14:02:44:418,49.641,0.084,0.180,-0.251,-9.822,100.800,-17.661
14:02:44:445,49.668,-0.015,0.200,-0.097,-9.394,101.119,-18.791
14:02:44:528,49.751,0.117,0.399,0.151,-8.822,101.839,-19.803
14:02:44:529,49.752,0.151,0.555,0.460,-8.495,102.331,-20.222
14:02:44:53,49.753,0.003,0.387,0.532,-8.058,103.439,-20.972
14:02:44:549,49.772,-0.085,0.016,0.473,-7.452,104.431,-21.767
14:02:44:575,49.799,-0.437,-0.166,0.455,-6.033,105.893,-23.449
14:02:44:601,49.825,-0.515,-0.027,0.557,-4.521,107.366,-25.819
14:02:44:627,49.850,-0.491,-0.084,0.850,-3.339,108.658,-28.207
14:02:44:653,49.877,-0.150,-0.060,1.124,-1.252,110.881,-33.219
14:02:44:738,49.962,0.106,0.201,1.335,0.978,112.928,-37.409
14:02:44:739,49.962,0.127,0.385,1.661,6.709,116.288,-44.271
14:02:44:739,49.963,-0.138,-0.142,0.534,12.264,118.002,-49.939
14:02:44:759,49.982,0.389,-1.042,1.155,14.172,118.431,-51.763
14:02:44:815,50.039,0.000,-0.842,0.319,11.197,118.552,-52.645
14:02:44:815,50.039,-0.269,-0.812,0.171,8.220,118.993,-51.295
14:02:44:837,50.060,0.136,-0.804,0.350,3.202,120.708,-46.094
14:02:44:864,50.088,0.276,-0.667,0.405,0.592,122.428,-41.003
14:02:44:891,50.114,0.368,-0.471,0.462,-2.710,125.604,-32.224
14:02:44:916,50.140,0.275,0.005,0.230,-6.174,129.196,-22.408
14:02:44:942,50.166,0.311,0.319,-0.115,-8.960,131.658,-15.611
14:02:44:969,50.192,-0.317,0.546,-1.398,-13.313,134.181,-6.318
14:02:44:995,50.218,-0.714,0.639,-2.555,-15.966,135.699,-1.607
14:02:45:021,50.244,-0.634,-0.097,-2.349,-18.080,139.009,1.308
14:02:45:047,50.271,-1.263,-0.142,-0.925,-18.555,140.745,0.313
14:02:45:074,50.298,3.393,1.669,-2.640,-18.193,139.084,-2.203
14:02:45:1,50.323,-1.725,-0.282,-0.750,-15.913,137.723,-7.289
14:02:45:126,50.349,-0.043,0.617,0.231,-14.987,138.126,-10.545
14:02:45:152,50.376,-0.206,0.220,0.026,-14.539,139.800,-13.531
14:02:45:18,50.403,0.003,0.256,-0.021,-14.166,140.446,-14.954
14:02:45:263,50.486,-0.050,0.312,-0.060,-13.699,141.359,-16.251
14:02:45:264,50.487,0.057,0.436,0.111,-13.271,142.836,-17.216
