Time,Second,AccelerationX,AccelerationY,AccelerationZ,EulerAnglesX,EulerAnglesY,EulerAnglesZ
15:36:13:565,0.000,0.010,0.006,0.008,3.575,157.161,-6.585
15:36:13:566,0.001,-0.002,0.011,0.009,3.790,157.304,-6.919
15:36:13:567,0.001,0.003,-0.006,-0.005,3.861,157.355,-6.915
15:36:13:591,0.026,0.011,0.006,0.007,4.746,159.321,-6.779
15:36:13:592,0.027,-0.001,0.003,-0.008,4.769,159.445,-6.800
15:36:13:592,0.027,0.010,-0.002,-0.013,4.794,159.587,-6.826
15:36:13:661,0.096,-0.001,0.003,0.004,4.840,159.801,-6.916
15:36:13:768,0.203,0.000,0.001,-0.009,4.880,160.137,-7.262
15:36:13:799,0.234,-0.023,0.003,-0.008,4.878,160.173,-7.332
15:36:13:8,0.235,0.005,0.003,-0.008,5.065,159.840,-7.412
15:36:13:801,0.236,-0.003,0.001,0.006,5.072,159.812,-7.437
15:36:13:881,0.316,-0.009,0.002,-0.001,5.068,159.806,-7.454
15:36:13:881,0.316,-0.003,0.000,0.008,5.064,159.780,-7.451
15:36:13:882,0.317,-0.003,0.002,-0.003,5.059,159.728,-7.422
15:36:13:883,0.318,-0.002,0.004,0.008,5.049,159.676,-7.405
15:36:13:907,0.342,0.002,0.001,-0.007,5.044,159.549,-7.367
15:36:13:908,0.343,0.003,0.002,0.009,5.033,159.418,-7.336
15:36:13:909,0.344,0.010,0.001,-0.001,5.027,159.175,-7.290
15:36:13:91,0.345,0.008,0.002,-0.006,4.945,157.379,-7.599
15:36:14:003,0.438,0.008,0.002,0.003,4.918,157.190,-7.612
15:36:14:11,0.545,-0.029,0.011,-0.001,4.144,158.244,-8.418
15:36:14:111,0.546,-0.040,-0.111,0.054,3.912,158.325,-7.938
15:36:14:216,0.650,0.036,0.026,0.016,3.531,158.197,-7.017
15:36:14:217,0.651,0.049,0.115,-0.055,3.331,157.978,-6.446
15:36:14:317,0.752,-0.008,-0.041,-0.064,3.124,158.193,-6.206
15:36:14:426,0.860,-0.002,-0.024,0.009,2.877,158.337,-6.098
15:36:14:426,0.861,-0.001,-0.010,0.005,2.720,158.440,-5.985
15:36:14:537,0.972,-0.038,0.043,0.014,2.501,158.514,-5.768
15:36:14:537,0.972,0.041,0.031,0.021,2.389,158.423,-5.566
15:36:14:538,0.973,0.030,0.018,0.017,2.261,158.020,-5.233
15:36:14:539,0.974,0.040,-0.012,0.004,2.208,157.445,-4.991
15:36:14:591,1.026,-0.014,0.043,-0.022,2.155,157.178,-4.984
15:36:14:591,1.026,0.001,-0.043,-0.035,2.049,157.324,-5.331
15:36:14:592,1.027,-0.013,-0.009,-0.016,1.955,157.443,-5.479
15:36:14:593,1.028,0.020,-0.046,-0.006,1.849,157.742,-5.622
15:36:14:641,1.076,-0.018,0.016,0.001,1.765,157.992,-5.689
15:36:14:642,1.077,0.007,0.050,-0.020,1.698,158.294,-5.719
15:36:14:643,1.078,-0.008,0.002,-0.021,1.623,158.421,-5.784
15:36:14:643,1.078,-0.007,0.019,0.024,1.540,158.546,-5.798
15:36:14:746,1.181,-0.022,0.032,0.006,1.454,158.629,-5.740
15:36:14:747,1.182,0.008,0.020,0.006,1.388,158.736,-5.817
15:36:14:747,1.182,0.032,0.031,-0.043,1.279,158.879,-5.931
15:36:14:748,1.183,-0.075,-0.004,-0.019,1.087,159.087,-6.167
15:36:14:763,1.198,-0.001,0.017,0.004,0.905,159.207,-6.188
15:36:14:793,1.227,-0.117,-0.031,-0.021,0.408,159.572,-6.112
15:36:14:794,1.228,0.048,-0.030,0.005,0.029,159.913,-5.805
15:36:14:906,1.341,0.094,0.200,0.062,-3.385,162.643,0.575
15:36:14:906,1.341,0.023,0.157,-0.044,-3.236,162.312,2.206
15:36:14:906,1.341,-0.010,0.124,-0.083,-2.964,161.794,3.326
15:36:14:907,1.342,-0.229,0.236,-0.168,-2.075,160.460,6.763
15:36:14:947,1.382,-0.218,0.153,-0.153,-1.153,160.166,9.615
15:36:15:009,1.444,-0.239,0.039,-0.044,-0.205,160.107,12.679
15:36:15:009,1.444,-0.296,-0.005,-0.031,0.622,160.092,15.005
15:36:15:01,1.445,-0.408,0.013,0.030,2.016,159.990,18.816
15:36:15:011,1.446,-0.665,0.020,0.051,3.205,159.830,21.761
15:36:15:035,1.470,-0.679,0.113,0.039,5.349,159.537,27.492
15:36:15:036,1.471,-0.638,0.411,-0.052,7.379,159.560,34.897
15:36:15:036,1.471,-0.473,0.803,-0.047,8.223,159.910,39.900
15:36:15:037,1.472,-0.335,0.708,0.242,9.680,159.255,46.260
15:36:15:083,1.518,-0.620,-1.119,-0.038,10.569,157.839,48.990
15:36:15:084,1.519,-1.403,-1.545,-0.527,12.730,156.067,49.305
15:36:15:114,1.548,-0.613,-1.541,-0.301,9.451,156.348,45.874
15:36:15:114,1.549,-0.489,-1.323,-0.209,7.302,156.124,42.080
15:36:15:115,1.550,-0.681,-0.838,-0.453,4.828,155.148,33.630
15:36:15:141,1.576,-0.594,0.183,-0.666,2.716,153.018,15.342
15:36:15:141,1.576,-0.177,1.095,-0.388,1.985,152.827,7.523
15:36:15:142,1.577,0.881,1.518,0.306,1.281,153.030,-4.110
15:36:15:143,1.578,1.964,0.243,0.939,0.996,153.079,-12.702
15:36:15:219,1.654,2.450,-0.983,0.760,0.533,153.333,-15.698
15:36:15:22,1.655,3.111,-0.213,-0.458,0.727,155.455,-16.153
15:36:15:221,1.656,3.609,2.337,0.065,1.426,158.387,-10.988
15:36:15:222,1.657,-0.004,-0.313,0.107,0.777,159.840,-6.651
15:36:15:243,1.678,0.211,-0.059,-0.003,-0.550,160.378,-3.894
15:36:15:243,1.678,-0.003,0.041,0.073,-1.035,160.364,-2.733
15:36:15:243,1.678,0.015,0.107,0.112,-1.603,160.263,-1.535
15:36:15:292,1.727,-0.120,0.183,0.055,-1.592,159.779,-0.798
15:36:15:292,1.727,-0.046,0.324,0.028,-1.145,158.842,0.539
15:36:15:314,1.749,-0.349,0.389,-0.093,-0.196,157.541,2.307
15:36:15:43,1.865,-0.277,0.258,-0.208,0.559,156.685,3.651
15:36:15:43,1.865,-0.143,-0.054,-0.177,1.820,155.660,5.834
15:36:15:43,1.865,-0.221,-0.051,-0.216,2.639,154.870,7.522
15:36:15:431,1.866,-0.380,-0.043,-0.307,4.103,154.550,10.794
15:36:15:534,1.969,-0.471,0.168,-0.133,5.128,155.006,13.694
15:36:15:535,1.970,-0.675,0.005,-0.033,6.968,155.582,19.249
15:36:15:535,1.970,-0.838,0.110,-0.011,9.361,155.545,26.339
15:36:15:536,1.971,-1.202,1.052,0.066,10.863,155.909,32.198
15:36:15:551,1.986,-0.387,0.568,0.272,12.685,157.057,40.843
15:36:15:718,2.153,-0.598,-0.703,0.546,13.696,156.057,45.532
15:36:15:719,2.154,-2.707,-2.353,-0.846,15.314,154.671,46.614
15:36:15:72,2.155,-0.428,-1.935,-0.293,12.621,156.143,43.770
15:36:15:721,2.156,-0.779,-1.488,-0.270,10.263,157.030,40.171
15:36:15:764,2.199,-0.829,-1.026,-0.253,7.287,158.365,32.135
15:36:15:765,2.200,-0.705,-0.620,-0.184,5.794,159.382,25.177
15:36:16:005,2.440,-0.848,0.314,-0.283,3.894,160.954,13.265
15:36:16:005,2.440,0.144,1.502,-0.063,3.020,162.687,4.878
15:36:16:005,2.440,1.516,1.733,0.290,2.754,164.721,-7.426
15:36:16:085,2.520,2.902,-0.439,0.935,3.206,166.824,-15.891
15:36:16:086,2.521,3.116,-1.231,0.255,3.131,168.723,-18.310
15:36:16:086,2.521,4.271,0.824,-0.708,3.713,172.955,-16.335
15:36:16:087,2.522,1.407,0.104,0.088,3.499,175.710,-9.733
15:36:16:106,2.540,0.881,-0.360,0.223,2.153,176.126,-6.471
15:36:16:185,2.620,0.120,-0.012,-0.109,0.843,176.210,-3.031
15:36:16:186,2.621,0.347,0.355,0.232,0.644,176.510,-1.492
15:36:16:212,2.647,-0.050,0.157,0.021,0.978,175.681,0.199
15:36:16:213,2.648,-0.236,0.426,-0.174,1.450,174.947,1.359
15:36:16:365,2.800,-0.324,0.618,-0.079,2.393,174.541,3.681
15:36:16:434,2.869,-0.302,0.080,-0.056,3.470,174.367,6.502
15:36:16:434,2.869,-0.329,0.052,0.026,4.325,174.323,8.546
15:36:16:434,2.869,-0.449,0.053,0.002,5.788,174.142,12.072
15:36:16:434,2.869,-0.703,-0.026,-0.052,7.147,173.898,14.921
15:36:17:263,3.697,-0.822,0.027,0.150,9.670,174.107,20.640
15:36:17:263,3.697,-0.372,0.421,0.191,11.202,175.219,25.721
15:36:17:346,3.781,-0.877,0.485,0.215,12.891,177.555,34.164
15:36:17:347,3.782,-0.477,0.917,0.291,13.872,179.186,42.545
15:36:17:371,3.806,-0.749,-1.857,-0.133,12.654,-178.624,43.632
15:36:17:372,3.807,-1.017,-1.423,-0.034,10.432,-177.321,38.188
15:36:17:373,3.808,-0.894,-0.845,0.154,8.373,-174.923,28.839
15:36:18:783,5.218,0.266,1.315,0.400,6.458,-169.527,7.983
15:36:18:784,5.219,1.277,1.672,0.086,6.688,-167.749,-0.795
15:36:18:893,5.328,2.804,0.764,-0.346,7.228,-166.246,-11.391
15:36:18:894,5.329,2.581,-0.491,-0.491,7.499,-165.612,-15.441
15:36:18:895,5.330,2.103,-1.661,-1.226,7.152,-163.586,-17.155
15:36:18:896,5.331,1.163,0.751,2.758,7.690,-159.780,-12.139
15:36:18:999,5.434,-1.566,-0.583,0.206,6.599,-158.696,-8.028
15:36:19:001,5.436,0.103,-0.329,0.007,4.121,-158.459,-4.548
15:36:19:178,5.613,-0.113,0.210,-0.010,4.052,-159.132,0.608
15:36:19:179,5.614,-0.241,0.390,-0.048,4.756,-159.741,1.908
15:36:19:315,5.750,-0.700,-0.231,0.032,3.362,-123.591,-7.153
15:36:19:315,5.750,0.022,-0.006,-0.142,1.478,-123.040,-4.763
15:36:19:316,5.751,0.059,0.213,0.028,0.556,-122.554,-0.857
15:36:19:317,5.752,-0.005,0.253,0.060,0.841,-123.229,0.528
15:36:19:392,5.827,-0.228,0.306,0.122,1.415,-124.229,2.133
15:36:19:393,5.828,-0.298,0.513,0.242,1.768,-124.596,3.497
15:36:19:394,5.829,-0.265,0.100,0.186,2.485,-125.036,5.882
15:36:19:395,5.830,-0.136,0.024,0.192,3.106,-125.438,7.637
15:36:19:419,5.853,-0.367,-0.039,0.538,4.434,-126.551,11.039
15:36:19:419,5.854,-0.288,-0.006,0.611,6.120,-126.720,15.984
15:36:19:42,5.855,0.028,0.159,0.012,-0.207,-97.140,0.758
15:36:19:421,5.855,-0.178,0.249,0.127,0.017,-97.886,1.817
15:36:19:524,5.959,-0.122,0.052,0.129,1.934,-99.786,7.642
15:36:19:525,5.960,-0.095,0.072,0.358,3.117,-100.389,10.364
15:36:19:526,5.961,-0.089,0.103,0.452,3.950,-100.965,12.540
15:36:19:526,5.961,-0.143,0.018,0.859,5.655,-101.514,16.761
15:36:19:55,5.985,-0.064,-0.046,0.873,6.659,-101.204,20.601
15:36:19:551,5.986,0.019,0.109,0.802,7.692,-99.789,28.091
15:36:19:551,5.986,0.457,1.042,0.968,7.234,-97.768,36.720
15:36:19:603,6.037,0.210,0.524,0.312,7.334,-96.918,42.111
15:36:19:603,6.038,0.273,-1.166,0.687,9.271,-93.310,32.459
15:36:19:604,6.039,0.388,-0.396,0.537,7.355,-90.018,22.480
15:36:19:605,6.039,-0.308,0.005,-2.624,5.196,-79.557,-10.191
15:36:19:623,6.058,-0.968,-1.080,-2.004,4.931,-75.150,-11.776
15:36:19:623,6.058,-1.439,0.581,-2.922,4.934,-71.897,-9.606
15:36:19:97,6.405,-0.075,-0.871,0.039,4.039,-69.565,-5.316
15:36:19:971,6.406,-0.597,0.411,-0.863,2.571,-69.092,-3.337
15:36:19:971,6.406,-0.080,0.046,0.108,1.510,-69.110,-0.608
15:36:19:972,6.407,0.147,0.290,-0.412,1.162,-68.726,0.877
15:36:20:62,7.055,0.076,0.149,0.084,1.184,-69.293,2.332
15:36:20:621,7.056,0.028,0.262,0.047,1.764,-70.008,3.652
15:36:20:778,7.213,0.016,0.275,0.304,2.513,-70.510,4.788
15:36:20:779,7.213,0.044,0.372,0.424,3.377,-71.168,6.738
15:36:20:811,7.246,0.044,0.038,0.484,5.364,-71.659,11.086
15:36:20:812,7.247,0.231,0.057,0.797,6.984,-71.935,14.840
15:36:20:812,7.247,0.467,-0.086,0.775,8.278,-71.496,18.360
15:36:20:836,7.271,0.583,-0.004,0.468,10.125,-69.668,25.543
15:36:20:837,7.272,0.449,0.319,0.570,11.343,-68.201,31.415
15:36:20:838,7.273,0.829,0.962,0.656,11.778,-65.408,40.317
15:36:20:838,7.273,0.711,0.243,0.387,12.839,-64.871,47.615
15:36:20:862,7.297,0.194,-0.523,0.055,13.069,-65.078,49.531
15:36:20:863,7.298,0.874,-1.478,1.263,13.709,-64.863,48.775
15:36:20:863,7.298,0.179,-1.560,0.468,11.787,-63.662,46.555
15:36:20:864,7.299,0.291,-1.267,0.383,9.010,-61.787,40.915
15:36:20:911,7.346,0.460,-1.042,0.466,6.384,-59.400,31.970
15:36:20:911,7.346,0.343,-0.702,0.343,5.204,-57.702,24.769
15:36:20:942,7.377,0.121,0.443,-0.032,4.207,-55.657,12.884
15:36:20:942,7.377,-0.470,1.595,-0.838,3.761,-54.154,4.590
15:36:20:942,7.377,-1.312,1.213,-1.592,3.524,-51.787,-5.623
15:36:20:943,7.378,-1.487,0.108,-1.902,3.648,-50.206,-9.694
15:36:20:958,7.393,0.632,-1.007,0.351,5.434,-37.854,32.912
15:36:21:074,7.509,0.608,-0.170,0.310,2.711,-36.887,21.472
15:36:21:074,7.509,-2.408,-0.334,-1.423,-0.226,-36.944,-12.510
15:36:21:075,7.510,-2.385,-1.468,-0.696,-0.633,-36.424,-13.396
15:36:21:076,7.511,-1.365,1.290,-1.409,-0.546,-33.090,-10.717
15:36:21:224,7.659,-0.439,-0.597,0.001,-1.468,-29.801,-5.662
15:36:21:224,7.659,-0.912,-0.292,-0.543,-2.694,-29.330,-3.381
15:36:21:441,7.876,0.053,0.045,0.015,-3.608,-29.161,-0.701
15:36:21:441,7.876,-0.148,0.285,-0.155,-3.742,-29.016,0.595
15:36:21:441,7.876,0.016,0.119,0.076,-3.471,-29.676,2.364
15:36:21:442,7.877,0.048,0.207,0.192,-3.116,-30.264,3.480
15:36:21:545,7.980,0.121,0.282,0.205,-2.334,-30.767,5.213
15:36:21:545,7.980,0.329,0.414,0.314,-1.479,-31.077,7.479
15:36:21:546,7.981,0.098,0.089,0.193,-0.701,-31.156,9.250
15:36:21:547,7.982,0.212,0.026,0.239,0.424,-31.670,12.119
15:36:21:591,8.026,0.461,-0.003,0.396,1.310,-31.971,14.408
15:36:21:649,8.084,0.651,0.008,0.282,3.030,-31.952,19.114
15:36:21:649,8.084,0.816,-0.103,0.155,4.781,-31.285,25.581
15:36:21:65,8.085,0.503,0.103,0.266,5.337,-29.964,30.663
15:36:21:696,8.131,0.640,0.992,-0.024,5.992,-28.615,38.912
15:36:21:835,8.270,0.825,0.284,-0.010,6.619,-28.894,43.678
15:36:21:835,8.270,0.971,-0.654,0.245,8.132,-31.141,47.818
15:36:21:835,8.270,0.931,-1.585,0.654,10.369,-33.334,48.041
15:36:21:836,8.271,0.427,-1.794,0.391,10.072,-33.956,46.009
15:36:21:878,8.312,0.732,-1.300,0.354,7.797,-34.721,39.988
15:36:21:93,8.365,0.553,-0.824,0.344,5.958,-34.847,34.331
15:36:22:201,8.636,0.699,-0.455,0.402,2.948,-35.100,23.766
15:36:22:202,8.637,0.120,0.714,0.250,0.658,-35.192,11.573
15:36:22:202,8.637,-1.023,1.566,-0.101,-0.378,-35.769,3.272
15:36:22:227,8.662,-2.388,-0.339,-1.338,-1.927,-37.240,-10.924
15:36:22:228,8.663,-2.209,-1.413,-0.459,-2.365,-36.593,-12.623
15:36:22:229,8.664,-1.387,0.809,-1.795,-2.227,-34.210,-11.295
15:36:22:23,8.665,-0.066,0.646,-0.505,-2.978,-30.411,-5.837
15:36:22:255,8.690,-0.480,-0.681,-0.205,-3.777,-29.520,-2.353
15:36:22:255,8.690,-0.042,-0.048,0.168,-4.491,-29.540,-0.760
15:36:22:255,8.690,-0.057,0.221,-0.076,-4.654,-29.546,0.717
15:36:22:256,8.691,0.051,0.215,0.091,-4.547,-30.029,1.697
15:36:22:352,8.787,0.012,0.199,0.115,-4.047,-30.993,3.288
15:36:22:464,8.899,0.146,0.334,0.212,-3.488,-31.525,4.441
15:36:22:464,8.899,0.239,0.348,0.240,-2.729,-32.160,6.496
15:36:22:465,8.900,0.015,0.068,0.106,-1.671,-32.590,8.664
15:36:22:466,8.901,0.544,-0.096,0.509,0.291,-34.041,13.602
15:36:22:569,9.004,0.615,0.099,0.301,1.201,-33.900,16.505
15:36:22:57,9.005,0.789,-0.018,0.224,2.754,-33.530,22.612
15:36:22:571,9.006,0.994,0.089,0.524,3.891,-32.999,30.593
15:36:22:572,9.007,0.668,0.626,0.156,4.080,-31.926,36.461
15:36:22:62,9.055,0.698,0.731,-0.031,4.003,-31.503,44.249
15:36:22:62,9.055,-2.079,1.425,-0.700,-1.285,-39.521,-6.425
15:36:22:621,9.056,-2.304,-0.363,-1.253,-1.896,-39.998,-11.714
15:36:22:648,9.083,-1.905,-0.948,0.048,-2.415,-39.398,-12.102
15:36:22:649,9.084,0.098,1.647,-1.181,-2.017,-34.693,-8.674
15:36:22:675,9.110,-0.052,0.210,-0.059,-4.119,-31.516,0.587
15:36:22:676,9.111,-0.181,0.228,-0.115,-4.178,-31.609,1.866
15:36:22:676,9.111,0.031,0.154,-0.049,-3.940,-32.279,3.515
15:36:22:677,9.112,-0.052,0.057,0.083,-3.407,-32.715,4.420
15:36:22:883,9.318,0.093,0.274,0.166,-2.638,-33.136,5.786
15:36:22:884,9.319,0.190,0.379,0.271,-1.705,-33.481,7.501
15:36:22:885,9.320,0.081,0.257,0.208,-1.082,-33.772,8.833
15:36:22:886,9.321,0.208,0.061,0.276,-0.402,-34.424,11.025
15:36:22:912,9.347,0.373,0.071,0.278,0.119,-34.850,12.633
15:36:22:912,9.347,0.275,-0.036,0.449,1.343,-34.881,15.802
15:36:22:913,9.348,0.591,0.067,0.233,2.427,-34.852,18.724
15:36:22:913,9.348,0.878,-0.011,0.069,4.590,-34.811,24.735
15:36:23:062,9.497,0.893,0.174,0.323,6.626,-34.224,32.776
15:36:23:063,9.498,0.494,1.844,-0.243,7.048,-32.900,38.658
15:36:23:172,9.607,1.096,0.895,0.060,7.584,-33.296,45.716
15:36:23:173,9.608,1.205,-0.843,0.510,8.062,-34.630,48.299
15:36:23:174,9.609,1.093,-1.730,0.811,8.371,-36.206,50.427
15:36:23:175,9.610,0.275,-2.101,0.414,6.503,-36.980,48.867
15:36:23:277,9.712,0.550,-2.100,0.488,4.073,-36.950,45.903
15:36:23:278,9.713,0.506,-1.452,0.339,0.427,-36.132,38.405
15:36:23:279,9.714,0.551,-0.783,0.372,-1.300,-35.604,31.652
15:36:23:279,9.714,0.476,-0.191,0.439,-1.970,-35.416,19.798
15:36:23:304,9.739,-0.434,1.158,0.151,-1.649,-36.980,6.872
15:36:23:305,9.740,-1.774,1.980,-0.498,-1.826,-37.458,-1.382
15:36:23:306,9.741,-2.694,1.034,-1.132,-1.878,-37.061,-10.392
15:36:23:306,9.741,-2.943,-1.237,-1.540,-1.595,-35.914,-13.282
15:36:23:323,9.757,-1.578,0.867,-0.415,-0.871,-32.761,-12.592
15:36:23:482,9.917,-1.460,1.141,-0.176,-0.839,-29.423,-8.351
15:36:23:483,9.918,-0.583,-0.516,-0.004,-1.601,-27.741,-4.487
15:36:23:855,10.290,0.021,0.131,0.213,-2.843,-27.471,-1.585
15:36:23:856,10.291,-0.383,0.232,-0.231,-2.828,-27.057,-0.231
15:36:23:857,10.292,0.021,0.126,0.139,-2.498,-27.457,1.240
15:36:23:858,10.293,0.016,0.233,0.042,-2.081,-28.022,2.238
15:36:23:962,10.397,0.153,0.336,0.366,-1.230,-28.778,4.074
15:36:23:963,10.398,0.210,0.317,0.249,-0.429,-28.867,6.468
15:36:23:963,10.398,0.113,0.128,0.116,0.319,-28.771,8.240
15:36:23:964,10.399,0.377,0.013,0.148,1.474,-29.170,11.197
15:36:24:168,10.603,0.518,0.119,0.346,2.617,-29.536,13.699
15:36:24:169,10.604,0.790,0.067,0.329,4.705,-29.818,18.538
15:36:24:17,10.605,0.928,-0.067,0.229,6.799,-29.323,25.349
15:36:24:242,10.677,0.761,0.464,0.301,7.756,-28.078,30.997
15:36:24:406,10.841,0.231,1.119,-0.213,8.419,-26.082,39.526
15:36:24:407,10.842,0.552,0.493,-0.264,8.938,-26.145,43.954
15:36:24:408,10.843,1.873,-1.884,0.347,10.361,-27.770,46.621
15:36:24:409,10.844,0.777,-1.448,0.383,10.945,-29.106,45.055
15:36:24:451,10.886,0.481,-1.703,0.288,10.634,-29.674,42.320
15:36:24:486,10.921,0.634,-1.286,0.294,8.403,-30.404,35.492
15:36:24:487,10.922,0.721,-0.932,0.309,6.491,-30.356,29.362
15:36:24:487,10.922,0.496,-0.112,0.219,3.333,-29.202,18.501
15:36:24:488,10.923,-0.274,1.338,0.015,1.674,-28.245,10.471
15:36:24:59,11.025,-1.459,1.668,-0.148,-0.078,-26.613,-1.672
15:36:24:59,11.025,0.090,0.227,0.051,-1.292,-15.360,0.854
15:36:24:591,11.026,0.027,0.199,0.099,-0.885,-16.046,1.887
15:36:24:592,11.027,0.103,0.281,0.157,0.027,-16.667,3.423
15:36:24:687,11.122,0.282,0.494,0.204,0.673,-17.054,4.690
15:36:24:846,11.281,0.281,0.300,0.274,2.047,-17.492,7.060
15:36:25:012,11.447,0.617,0.118,0.364,3.655,-18.084,10.069
15:36:25:012,11.447,0.890,0.240,0.257,4.868,-18.450,12.853
15:36:25:012,11.447,1.149,-0.164,0.118,6.994,-17.848,18.850
15:36:25:013,11.448,1.293,-1.350,-0.151,11.914,-12.676,41.843
15:36:25:054,11.489,0.678,-1.551,-0.065,11.949,-12.299,40.490
15:36:25:143,11.578,0.779,-0.959,-0.215,6.974,-8.645,27.896
15:36:25:143,11.578,0.601,-0.236,-0.331,4.799,-6.151,21.198
15:36:25:144,11.579,-2.498,-0.851,0.713,1.511,6.456,-15.725
15:36:25:145,11.580,-1.591,-0.064,0.920,1.964,12.556,-13.258
15:36:25:167,11.602,-1.067,2.223,0.442,2.209,17.048,-9.926
15:36:25:168,11.603,-0.753,0.353,0.796,0.761,18.459,-6.542
15:36:25:169,11.604,0.034,-0.116,0.093,-0.508,18.436,-4.246
15:36:25:169,11.604,-0.285,0.316,0.107,-0.879,18.978,-1.919
15:36:25:237,11.672,-0.005,0.201,-0.001,-0.905,18.643,-0.152
15:36:25:343,11.777,0.028,0.154,0.009,-0.746,18.109,0.820
15:36:25:609,12.044,0.160,0.322,0.066,0.128,17.631,2.271
15:36:25:61,12.045,0.254,0.472,0.051,0.918,17.435,3.460
15:36:25:664,12.099,0.300,0.266,0.146,2.214,17.117,5.809
15:36:25:665,12.100,0.529,0.115,0.013,3.071,16.906,7.623
15:36:25:666,12.101,0.726,0.105,-0.019,4.516,16.781,10.812
15:36:25:797,12.232,0.610,0.141,-0.414,9.708,21.136,28.399
15:36:25:798,12.233,0.627,-1.337,-0.458,8.628,27.745,39.172
15:36:25:799,12.234,0.202,-0.209,-0.513,4.740,31.675,19.568
15:36:25:8,12.235,-0.191,0.539,-0.070,4.130,32.459,11.318
15:36:25:868,12.303,-1.084,1.455,0.746,3.421,33.090,-1.520
15:36:26:13,12.565,-1.673,1.082,1.428,2.981,33.463,-8.764
15:36:26:191,12.626,-1.392,-1.026,1.699,2.361,35.904,-16.907
15:36:26:192,12.627,-0.591,-0.074,2.388,2.543,39.671,-15.177
15:36:26:193,12.628,-0.591,1.033,0.056,2.441,44.996,-10.278
15:36:26:193,12.628,0.568,-0.234,0.620,1.407,45.842,-8.233
15:36:26:291,12.726,-0.117,-0.085,0.234,-0.321,46.284,-5.406
15:36:26:292,12.727,-0.171,0.272,0.029,-0.584,46.593,-4.097
15:36:26:343,12.778,0.061,0.219,-0.018,-0.717,46.402,-2.374
15:36:26:343,12.778,-0.054,0.202,0.068,-0.361,45.347,-0.933
15:36:26:401,12.836,0.108,0.314,0.028,-0.011,44.908,0.076
15:36:26:402,12.837,0.292,0.061,-0.189,1.051,44.169,2.084
15:36:26:403,12.838,0.613,0.050,-0.356,3.408,42.977,8.371
15:36:26:404,12.839,0.129,-0.065,-0.826,9.698,50.182,44.869
15:36:26:635,13.070,0.950,-1.553,-1.687,11.554,49.674,46.562
15:36:26:636,13.071,0.402,-1.581,-0.543,10.582,50.427,45.242
15:36:26:637,13.072,0.234,-1.373,-0.587,8.322,51.892,40.994
15:36:27:259,13.694,0.026,0.223,-0.296,3.568,55.015,14.287
15:36:27:295,13.730,-0.156,1.034,0.216,3.032,54.841,5.714
15:36:27:296,13.731,-0.789,1.255,1.735,2.117,54.810,-6.446
15:36:27:297,13.732,-1.413,0.366,2.505,1.650,55.167,-12.106
15:36:27:297,13.732,-1.060,-0.086,1.848,1.372,56.304,-16.138
15:36:27:32,13.755,0.005,-0.064,-0.014,-0.697,65.735,-5.269
15:36:27:321,13.756,0.182,-0.003,-0.695,4.588,63.656,15.007
15:36:27:322,13.757,-0.040,-0.014,-0.684,5.826,64.273,19.152
15:36:27:322,13.757,0.188,0.229,-0.474,7.238,66.242,27.067
15:36:27:399,13.834,-0.079,1.000,-0.489,7.615,67.768,32.959
15:36:27:4,13.835,0.012,0.588,-0.626,7.760,68.528,40.639
15:36:27:401,13.836,-0.129,-1.210,-0.427,8.584,66.996,45.269
15:36:27:402,13.837,0.616,-1.562,-2.615,10.168,65.638,45.424
15:36:27:423,13.858,0.302,-1.631,-0.525,10.130,64.540,42.883
15:36:27:423,13.858,0.307,-1.335,-0.650,9.265,64.029,39.250
15:36:27:424,13.859,0.352,-1.053,-0.748,7.091,63.699,31.019
15:36:27:478,13.913,0.299,-0.264,-0.680,4.613,64.008,20.263
15:36:27:478,13.913,0.305,0.496,-0.391,3.323,64.271,12.287
15:36:27:479,13.914,-0.077,1.433,0.605,2.021,64.700,-0.424
15:36:27:525,13.960,-0.006,0.284,0.968,0.780,77.457,-7.809
15:36:27:526,13.961,0.004,0.204,-0.087,-0.752,77.741,-1.081
15:36:27:627,14.062,0.123,-0.329,3.366,5.946,98.923,-15.924
15:36:27:864,14.299,0.794,-1.095,2.903,6.694,102.045,-19.872
15:36:27:977,14.412,1.207,-0.534,2.591,6.160,104.648,-17.978
15:36:27:977,14.412,-0.432,1.931,3.011,6.279,106.466,-13.745
15:36:27:978,14.413,0.444,-0.267,0.771,4.558,107.635,-9.652
15:36:27:979,14.414,0.236,-0.235,-0.017,2.792,107.565,-7.152
15:36:28:186,14.621,-0.228,0.371,0.503,1.743,108.469,-4.829
15:36:28:187,14.622,0.066,0.134,0.058,1.581,108.726,-3.509
15:36:28:188,14.623,-0.042,0.221,-0.063,2.135,107.725,-1.844
15:36:28:188,14.623,0.017,0.589,-0.205,2.927,106.874,0.180
15:36:28:282,14.717,0.087,0.504,-0.288,3.737,106.596,1.830
15:36:28:346,14.781,0.125,0.136,-0.326,5.036,106.339,4.663
15:36:28:346,14.781,-0.003,0.096,-0.384,6.014,106.354,6.723
15:36:28:346,14.781,-0.236,-0.018,-0.516,7.614,106.418,10.269
15:36:28:347,14.782,-0.343,-0.059,-0.583,8.947,106.618,13.255
15:36:28:388,14.823,-0.358,0.132,-0.296,11.212,108.036,19.555
15:36:29:306,15.741,-0.532,0.278,-0.359,13.244,110.886,27.752
15:36:29:911,16.346,-0.964,0.949,-1.083,14.094,112.736,33.687
15:36:29:971,16.406,-0.558,0.799,-0.231,14.820,114.998,42.473
15:36:29:972,16.407,-0.482,-1.228,-0.386,15.436,114.949,47.275
15:36:29:973,16.407,-1.682,-0.954,-1.854,17.901,115.442,49.601
15:36:29:974,16.408,-0.368,-1.747,-0.579,16.126,116.623,46.076
15:36:30:127,16.562,-0.099,-1.485,-0.355,14.729,117.738,43.491
15:36:30:127,16.562,-0.098,1.480,0.540,6.134,127.156,4.265
15:36:30:128,16.563,0.739,1.532,1.490,6.000,128.557,-4.294
15:36:30:235,16.670,1.717,0.622,2.415,5.995,130.217,-14.114
15:36:30:236,16.671,1.886,-0.609,2.031,5.933,131.369,-17.930
15:36:30:237,16.672,2.307,-1.507,1.369,5.199,134.710,-18.968
15:36:30:441,16.876,0.022,0.151,0.249,1.219,144.027,-2.951
15:36:30:441,16.876,-0.035,0.248,0.073,1.014,143.699,-1.553
15:36:30:442,16.877,-0.008,0.286,0.025,1.249,142.977,-0.535
15:36:30:549,16.984,-0.183,0.050,-0.353,3.686,140.747,6.631
15:36:30:549,16.984,-0.429,-0.030,-0.343,5.161,139.536,10.149
15:36:30:55,16.985,-0.593,-0.135,-0.426,6.376,139.046,13.147
15:36:30:551,16.986,-0.543,-0.099,-0.225,8.385,140.072,19.846
15:36:30:571,17.006,-0.355,0.151,-0.047,9.789,142.073,28.147
15:36:30:571,17.006,-1.357,-1.716,-0.671,12.740,140.785,51.258
15:36:30:619,17.054,-0.452,0.308,-0.202,3.901,157.616,13.028
15:36:30:675,17.110,-0.739,0.338,0.032,8.478,166.002,28.164
15:36:30:676,17.111,-1.365,1.096,0.137,9.449,166.345,37.840
15:36:30:759,17.194,-0.424,0.368,-0.025,10.083,166.374,43.802
15:36:30:759,17.194,0.107,-1.189,0.128,10.252,163.996,50.210
15:36:30:76,17.195,-1.776,-1.395,0.275,13.035,173.655,49.861
15:36:30:761,17.196,-0.601,-1.167,-0.164,10.290,173.133,39.316
15:36:30:837,17.272,-0.764,-1.009,-0.253,8.527,173.272,32.969
15:36:30:838,17.273,0.355,1.042,-0.047,4.540,175.152,-0.026
15:36:30:839,17.274,1.654,1.304,0.013,3.982,174.807,-12.335
15:36:31:069,17.504,2.793,-0.651,0.047,3.310,175.252,-23.092
15:36:31:07,17.505,2.057,-0.948,-0.331,2.782,176.137,-22.708
15:36:31:092,17.527,0.249,-0.115,-0.035,0.445,-178.617,-7.103
15:36:31:152,17.587,0.378,0.241,0.056,0.107,-178.215,-5.683
15:36:31:153,17.588,0.005,0.310,0.095,0.835,179.893,-2.167
15:36:31:174,17.609,-0.201,0.116,-0.117,3.373,176.663,3.417
15:36:31:198,17.633,-0.549,-0.029,-0.210,4.167,175.841,5.373
15:36:31:257,17.692,-0.481,0.049,-0.013,5.487,175.844,9.170
15:36:31:258,17.693,-0.462,0.039,0.146,7.118,176.641,14.516
15:36:31:259,17.694,-0.669,-0.032,0.382,8.398,176.804,18.919
15:36:31:285,17.720,-0.710,1.308,0.516,10.754,178.813,33.211
15:36:31:285,17.720,-0.446,0.382,0.310,11.875,179.341,41.373
15:36:31:285,17.720,-0.476,-0.524,0.233,12.939,-173.935,45.607
15:36:31:286,17.721,-1.518,-1.559,0.182,15.267,-175.394,46.238
15:36:31:305,17.740,-0.430,-1.720,-0.057,14.344,-167.786,42.904
15:36:31:305,17.740,-0.597,-1.321,0.191,12.770,-167.649,38.934
15:36:31:391,17.826,-0.749,-0.989,0.264,9.710,-167.183,30.320
15:36:31:391,17.826,-0.563,-0.298,0.265,6.837,-166.088,19.393
15:36:31:391,17.826,-0.399,0.291,0.207,5.384,-165.622,11.232
15:36:31:391,17.826,2.412,0.343,-0.961,3.542,-164.390,-22.519
15:36:31:622,18.057,1.920,-1.120,-1.476,3.768,-162.320,-21.535
15:36:31:623,18.058,-0.912,2.054,1.076,4.331,-157.832,-16.740
15:36:31:623,18.058,-0.354,0.638,0.362,4.754,-156.767,-12.369
15:36:32:199,18.634,0.367,-0.002,0.259,2.139,-156.464,-9.063
15:36:32:2,18.635,0.164,0.158,-0.071,1.919,-156.251,-7.136
15:36:32:201,18.635,0.227,0.208,0.036,1.702,-155.661,-5.137
15:36:32:23,18.665,0.086,0.056,-0.054,2.086,-156.345,-3.757
15:36:32:231,18.666,-0.053,0.126,-0.073,2.539,-157.185,-2.816
15:36:32:232,18.667,-0.092,0.442,0.086,3.381,-158.116,-1.020
15:36:32:233,18.668,-0.119,0.210,0.060,4.014,-158.633,0.337
15:36:32:255,18.690,-0.131,0.050,0.011,5.263,-159.430,2.580
15:36:32:256,18.691,-0.310,0.077,0.035,6.529,-160.203,5.250
15:36:32:257,18.692,-0.523,0.081,0.081,7.514,-160.440,7.372
15:36:32:257,18.692,-0.485,0.141,0.388,9.198,-159.758,11.774
15:36:32:303,18.738,-0.483,0.063,0.674,10.584,-159.090,15.710
15:36:32:304,18.739,-0.470,-0.051,0.698,12.964,-158.406,23.116
15:36:32:387,18.822,-0.470,1.019,0.824,14.756,-156.279,32.210
15:36:32:388,18.823,-0.130,0.468,0.479,15.886,-155.289,37.663
15:36:32:389,18.823,-0.766,-0.435,1.019,16.912,-156.054,43.336
15:36:32:389,18.824,-1.834,-1.862,1.156,18.769,-156.684,44.420
15:36:33:009,19.444,-0.508,-1.544,0.234,18.051,-150.030,42.381
15:36:33:191,19.626,-0.472,-1.432,0.326,15.568,-148.699,37.600
15:36:33:328,19.762,-0.507,-1.120,0.443,13.236,-147.558,32.614
15:36:33:328,19.763,-0.349,-0.388,0.429,9.902,-145.031,22.920
15:36:33:585,20.020,-0.081,0.184,0.216,8.467,-143.612,15.441
15:36:33:855,20.290,-0.320,0.025,0.696,13.342,-129.507,13.841
15:36:33:855,20.290,0.011,0.039,0.851,15.059,-128.542,18.274
15:36:33:856,20.291,-0.133,0.212,1.005,17.584,-126.493,26.600
15:36:33:982,20.417,0.379,0.911,0.472,19.297,-122.255,36.083
15:36:33:983,20.418,0.465,0.499,0.489,20.489,-121.011,41.151
15:36:34:085,20.519,-0.249,-0.887,1.021,21.151,-120.671,44.513
15:36:34:426,20.861,-0.433,-1.420,1.026,22.031,-120.670,44.464
15:36:35:212,21.647,-0.196,-1.604,0.491,20.232,-113.469,41.575
15:36:35:403,21.838,-0.036,-1.215,0.785,17.110,-111.807,35.591
15:36:35:403,21.838,0.122,-0.854,0.910,14.771,-109.976,29.964
15:36:35:403,21.838,0.334,-0.138,0.737,11.836,-106.651,19.629
15:36:35:87,22.305,0.528,0.657,0.687,10.357,-104.675,11.784
15:36:36:374,22.809,0.788,1.421,-0.283,9.136,-101.923,-0.633
15:36:36:374,22.809,1.032,1.229,-2.002,8.764,-100.743,-8.461
15:36:36:975,23.410,-0.118,-0.609,-2.554,6.954,-95.753,-19.940
15:36:36:976,23.411,-0.824,-1.315,-2.524,6.626,-92.829,-18.859
15:36:37:035,23.470,0.738,-1.024,0.729,15.040,-79.807,55.092
15:36:37:036,23.471,-0.183,1.729,-0.914,6.208,-79.399,2.299
15:36:37:036,23.471,-0.554,-0.228,-2.676,5.476,-81.152,-17.226
15:36:37:036,23.471,-0.847,-0.650,-2.549,5.360,-80.176,-19.365
15:36:37:134,23.569,0.083,0.105,0.326,7.316,-71.956,8.224
15:36:37:134,23.569,0.753,-0.317,0.480,17.923,-65.452,45.565
15:36:37:417,23.852,0.987,-2.076,1.520,20.159,-66.841,48.487
15:36:37:452,23.887,0.331,-1.197,0.545,13.379,-65.792,37.753
15:36:37:453,23.888,0.442,-0.684,0.653,10.885,-65.115,31.475
15:36:37:454,23.889,0.341,-0.016,0.514,7.792,-63.709,20.527
15:36:37:455,23.890,-0.811,1.331,-1.154,4.209,-52.708,-6.547
15:36:37:528,23.963,0.726,0.082,0.394,11.168,-53.957,26.067
15:36:37:529,23.963,1.347,0.651,0.025,15.124,-19.373,35.915
15:36:37:561,23.996,1.117,0.288,-0.233,16.858,-15.190,49.548
15:36:37:561,23.996,1.453,-1.739,-0.084,17.900,-14.225,51.821
15:36:37:562,23.997,0.721,-1.231,-0.085,12.056,-9.571,42.998
15:36:37:562,23.997,0.431,0.041,-0.042,2.702,12.141,11.236
15:36:37:683,24.118,-1.854,1.388,1.093,1.510,19.160,-6.037
15:36:37:812,24.247,-2.623,-0.309,1.045,1.178,19.302,-12.339
15:36:37:9,24.335,0.053,0.287,-0.453,0.144,27.662,-5.312
15:36:37:901,24.336,0.562,-1.404,-0.516,9.701,23.505,45.525
15:36:37:902,24.337,0.480,-1.016,-0.343,7.055,23.338,40.899
15:36:37:902,24.337,0.558,-0.582,-0.292,4.071,22.949,31.784
15:36:38:079,24.514,0.803,0.116,-0.231,1.847,21.697,20.856
15:36:38:079,24.514,0.432,0.797,0.123,0.417,21.014,12.852
15:36:38:187,24.622,-0.759,1.588,1.012,-1.346,19.498,1.069
15:36:38:188,24.623,-1.527,1.350,1.400,-2.346,18.924,-5.554
15:36:38:189,24.624,-2.697,0.095,1.277,-3.117,19.615,-11.493
15:36:38:319,24.753,0.271,0.039,-0.042,-1.433,28.470,12.586
15:36:38:32,24.754,0.540,0.025,-0.073,-0.321,27.797,15.090
15:36:38:32,24.755,0.564,0.031,-0.212,0.547,27.766,17.211
15:36:38:321,24.756,0.558,0.036,-0.490,2.053,28.262,21.852
15:36:38:392,24.827,0.589,0.102,-0.592,3.144,28.548,26.213
15:36:38:393,24.828,1.130,0.341,-0.741,4.877,28.890,34.284
15:36:38:424,24.859,0.343,0.788,-0.401,5.098,30.084,42.574
15:36:38:425,24.860,0.472,0.546,-0.721,5.441,28.893,47.393
15:36:38:426,24.861,0.919,-0.794,-0.902,8.553,25.628,50.767
15:36:38:546,24.981,0.844,-0.917,-0.042,4.539,20.780,31.930
15:36:38:686,25.121,-2.854,0.034,1.533,-1.060,23.745,-11.939
15:36:38:687,25.122,-1.792,-0.081,1.226,-1.287,24.931,-12.603
15:36:38:688,25.123,-0.549,-0.809,0.920,-1.276,26.625,-10.844
15:36:38:689,25.124,-0.191,2.727,0.061,-1.526,30.254,-6.895
15:36:38:705,25.139,-0.268,-0.323,0.025,-2.142,30.878,-4.261
15:36:38:789,25.224,0.021,0.172,0.007,-3.450,30.097,1.650
15:36:38:79,25.225,-0.047,0.107,-0.004,-2.947,29.577,3.104
15:36:38:791,25.226,0.410,0.474,-0.038,-0.918,28.118,6.446
15:36:38:836,25.271,0.339,0.239,0.001,0.123,27.406,8.908
15:36:38:891,25.326,0.493,0.074,0.003,1.042,26.472,11.681
15:36:38:892,25.326,0.715,-0.090,-0.051,1.873,26.108,13.896
15:36:38:923,25.358,0.604,-0.040,-0.969,5.017,26.253,22.739
15:36:38:924,25.359,0.325,0.284,-0.899,7.096,26.960,30.781
15:36:38:925,25.360,0.501,2.022,-1.184,8.682,26.594,39.693
15:36:38:941,25.376,0.962,-1.034,-0.591,12.642,23.281,49.037
15:36:38:976,25.411,1.059,-1.827,-0.118,12.756,22.672,50.345
15:36:38:976,25.411,0.419,-2.051,0.214,9.100,23.383,49.350
15:36:38:976,25.411,0.726,-2.068,-0.149,5.816,24.032,46.557
15:36:38:977,25.412,0.618,-1.343,-0.274,0.195,26.780,39.106
15:36:38:997,25.431,0.617,-0.610,-0.247,-2.271,28.847,28.682
15:36:38:998,25.432,-1.987,1.248,1.690,-0.882,26.784,-9.984
15:36:39:08,25.515,-2.212,0.734,1.210,-0.495,28.114,-14.342
15:36:39:081,25.516,-1.655,-0.935,1.361,-0.205,30.315,-13.887
15:36:39:081,25.516,-0.628,1.445,-1.041,-0.123,35.833,-8.902
15:36:39:098,25.533,-0.241,-0.102,0.006,-2.533,36.643,-3.263
15:36:39:183,25.618,-0.144,0.247,0.169,-2.793,36.611,-1.032
15:36:39:183,25.618,-0.002,0.183,0.022,-2.726,36.353,0.030
15:36:39:184,25.619,-0.082,0.141,-0.016,-2.305,35.256,1.622
15:36:39:233,25.668,0.131,0.075,0.065,-1.913,34.493,2.585
15:36:39:233,25.668,0.191,0.263,0.040,-1.200,34.100,4.016
15:36:39:29,25.725,0.230,0.269,-0.124,-0.625,34.039,5.101
15:36:39:291,25.726,0.149,0.054,0.024,0.352,33.756,7.017
15:36:39:292,25.727,0.294,0.116,-0.082,1.287,32.992,9.263
15:36:39:292,25.727,0.360,0.062,-0.142,2.043,32.497,11.016
15:36:39:34,25.775,0.559,0.180,-0.362,3.320,32.514,14.600
15:36:39:341,25.776,0.518,0.129,-0.630,4.435,32.802,17.929
15:36:39:342,25.777,0.709,0.010,-0.864,6.545,32.777,24.601
15:36:39:395,25.830,0.826,0.705,-1.032,8.607,33.896,33.826
15:36:39:396,25.831,0.329,0.699,-0.777,9.189,35.526,40.085
15:36:39:397,25.832,0.045,0.495,-0.456,9.937,35.246,47.493
15:36:39:398,25.833,1.092,-1.561,-1.001,10.642,34.053,49.215
15:36:39:42,25.855,0.913,-1.705,-0.665,10.663,33.456,48.857
15:36:39:42,25.855,0.276,-1.585,-0.118,8.656,34.105,46.186
15:36:39:421,25.856,0.516,-1.209,-0.412,5.558,34.431,39.498
15:36:39:497,25.932,0.522,-0.692,-0.366,2.854,35.493,29.778
15:36:39:497,25.932,0.514,-0.368,-0.354,1.706,36.162,22.306
15:36:39:685,26.119,0.499,0.652,-0.240,0.480,36.857,10.166
15:36:39:685,26.120,0.068,1.328,0.188,0.001,37.489,1.750
15:36:39:686,26.121,-1.137,1.478,1.311,-0.217,38.414,-9.674
15:36:39:687,26.122,-2.317,-0.341,1.796,0.203,40.367,-16.595
15:36:39:894,26.329,-2.363,-0.144,2.177,0.404,42.412,-17.960
15:36:39:895,26.330,-0.734,-0.447,1.881,0.936,46.797,-15.469
15:36:39:896,26.331,-1.577,1.253,2.601,1.030,50.317,-11.939
15:36:39:896,26.331,0.214,0.178,-0.087,0.308,52.185,-8.188
15:36:40:016,26.451,0.278,-0.397,0.005,-1.054,52.074,-4.690
15:36:40:123,26.558,-0.224,0.202,0.200,-1.263,52.525,-3.034
15:36:40:227,26.662,-0.131,0.282,0.081,-1.045,52.294,-0.830
15:36:40:547,26.982,-0.006,0.000,0.044,-0.713,51.613,0.223
15:36:40:655,27.090,0.244,0.395,-0.084,0.524,50.859,2.783
15:36:40:656,27.091,0.202,0.266,-0.068,1.632,50.663,4.818
15:36:40:657,27.092,0.229,0.105,-0.109,2.711,50.459,7.183
15:36:40:658,27.093,0.304,0.049,-0.225,3.460,50.245,8.994
15:36:40:682,27.117,0.553,0.089,-0.410,4.967,50.606,12.463
15:36:40:682,27.117,0.393,0.141,-0.767,6.216,51.317,15.628
15:36:40:683,27.118,0.251,0.004,-0.975,8.448,52.523,22.083
15:36:40:684,27.119,0.344,0.477,-0.941,10.157,53.474,27.719
15:36:40:7,27.135,0.415,0.730,-1.222,12.468,55.779,37.267
15:36:40:866,27.301,0.008,0.422,-0.558,13.139,58.052,45.753
15:36:40:866,27.301,0.469,-0.970,-0.874,12.807,57.639,49.209
15:36:40:867,27.302,0.499,-1.526,-1.742,13.927,58.015,49.153
15:36:40:867,27.302,0.144,-1.497,-0.257,11.816,64.967,47.126
15:36:41:356,27.791,0.146,-1.456,-0.624,8.982,66.575,41.818
15:36:41:443,27.878,0.048,-0.865,-0.598,5.911,68.896,33.170
15:36:41:443,27.878,0.048,-0.670,-0.634,4.392,70.840,25.935
15:36:41:444,27.879,-0.135,0.316,-0.276,3.199,73.309,13.811
15:36:41:444,27.879,-0.257,0.966,0.317,2.817,74.879,5.161
15:36:41:47,27.905,-0.610,0.464,2.490,3.024,80.847,-17.652
15:36:41:471,27.906,0.125,-0.104,0.017,0.788,94.834,-6.775
15:36:41:471,27.906,0.075,0.148,-0.607,5.734,93.303,10.536
15:36:41:472,27.907,-0.129,0.049,-0.631,6.946,93.859,13.452
15:36:41:522,27.957,-0.512,0.764,-1.032,12.886,98.564,33.882
15:36:41:523,27.958,-0.357,0.357,-0.528,14.392,100.795,42.651
15:36:41:523,27.958,-0.325,-0.880,-0.271,14.549,100.628,47.394
15:36:41:524,27.959,-0.497,-1.814,-1.152,16.323,100.958,49.193
15:36:41:546,27.980,-0.233,-1.413,-0.471,13.112,108.088,46.169
15:36:41:547,27.981,-0.195,-1.424,-0.224,11.049,109.460,43.163
15:36:41:548,27.982,-0.466,-0.952,-0.528,7.779,111.168,35.235
15:36:41:65,28.085,-0.387,-0.663,-0.448,6.098,112.708,28.464
15:36:41:651,28.086,-0.456,0.050,-0.375,4.286,114.552,16.976
15:36:41:651,28.086,-0.341,0.525,-0.088,3.475,115.592,8.752
15:36:41:959,28.394,0.313,1.502,1.111,2.539,116.717,-3.897
15:36:42:091,28.526,1.475,0.715,2.564,1.780,117.540,-13.696
15:36:42:283,28.718,1.562,-0.321,2.582,1.277,118.278,-17.396
15:36:42:283,28.718,-0.552,0.759,-0.191,9.214,137.148,40.442
15:36:42:284,28.719,-0.482,-0.366,-0.218,9.467,136.362,44.868
15:36:42:285,28.720,-1.404,-1.595,-0.620,12.418,134.406,47.956
15:36:42:387,28.822,-0.356,-1.634,-0.459,12.427,138.059,46.002
15:36:42:388,28.823,-0.251,-1.499,-0.266,11.597,137.832,43.059
15:36:42:389,28.824,-0.589,-1.236,-0.438,9.077,137.413,35.286
15:36:42:39,28.825,-0.560,-0.768,-0.361,6.977,137.763,28.754
15:36:42:597,29.031,-0.470,0.025,-0.231,4.099,138.548,17.496
15:36:42:597,29.032,-0.096,0.579,-0.108,2.585,138.970,9.261
15:36:42:598,29.032,1.158,1.524,0.532,0.979,139.242,-2.864
15:36:43:044,29.479,2.315,0.740,1.438,0.350,139.574,-11.918
15:36:43:045,29.479,2.275,-0.253,1.727,0.392,140.238,-15.503
15:36:43:046,29.480,1.359,-0.481,0.454,0.161,142.277,-17.216
15:36:43:046,29.481,1.108,0.371,1.461,0.133,144.402,-15.670
15:36:43:28,29.715,0.472,2.878,0.107,0.439,149.290,-10.512
15:36:43:281,29.716,0.512,-0.819,0.196,-0.477,150.123,-7.007
15:36:43:282,29.717,0.153,-0.091,-0.020,-1.359,150.312,-5.058
15:36:43:283,29.718,-0.087,0.252,0.179,-1.859,149.993,-3.552
15:36:44:225,30.660,-0.018,0.158,0.067,-1.911,149.614,-2.484
15:36:44:225,30.660,-0.233,-0.011,-0.329,2.241,145.705,7.779
15:36:44:226,30.661,-0.915,0.969,-0.034,8.875,148.456,35.860
15:36:44:227,30.662,-1.783,-1.752,-0.451,11.093,152.088,48.012
15:36:44:374,30.809,-0.342,-1.767,-0.271,10.745,152.584,45.909
15:36:44:427,30.862,-0.373,-1.194,-0.070,9.160,157.008,40.891
15:36:44:801,31.236,-0.756,-1.081,-0.211,7.798,157.709,35.699
15:36:44:801,31.236,-0.499,-0.125,-0.060,4.954,160.669,18.326
15:36:44:801,31.236,0.291,0.904,0.131,4.027,162.631,6.006
15:36:44:85,31.285,1.749,1.294,0.203,3.474,164.254,-5.953
15:36:44:85,31.285,2.120,0.892,0.251,3.541,165.208,-12.158
15:36:44:883,31.318,0.098,-0.583,-0.011,3.269,175.802,-7.903
15:36:44:883,31.318,0.061,-0.057,-0.145,1.888,175.925,-4.847
15:36:44:884,31.319,0.067,0.111,-0.058,1.912,175.795,-0.947
15:36:44:885,31.320,-1.589,-1.520,0.415,17.926,-177.170,47.334
15:36:44:955,31.390,-0.382,-1.422,-0.006,15.445,-175.070,44.608
15:36:44:955,31.390,-0.389,-1.331,0.104,13.719,-173.679,41.530
15:36:45:215,31.650,-0.497,-0.953,0.255,10.675,-171.376,34.205
15:36:45:93,32.365,1.872,-0.425,-0.482,6.368,-160.935,-14.264
15:36:45:931,32.366,1.459,-0.986,-1.094,6.094,-158.117,-14.892
15:36:46:084,32.519,0.278,0.256,-1.401,5.029,-152.094,-8.357
15:36:46:084,32.519,0.143,0.290,0.025,2.821,-119.273,-1.177
15:36:46:142,32.577,-0.124,0.149,-0.077,3.010,-119.688,-0.230
15:36:46:142,32.577,-0.064,0.481,0.103,3.703,-120.000,1.177
15:36:46:143,32.578,-0.094,0.417,0.157,4.233,-120.313,2.315
15:36:46:143,32.578,-0.046,0.107,0.663,9.157,-121.823,15.354
15:36:46:265,32.699,0.011,-0.002,0.766,11.107,-121.063,21.792
15:36:46:326,32.761,0.997,-1.046,-3.095,3.446,-116.934,-16.696
15:36:46:327,32.761,1.464,0.019,-1.884,3.698,-114.477,-14.566
15:36:46:327,32.762,-0.414,2.973,0.155,3.491,-111.396,-9.672
15:36:46:328,32.763,0.370,0.118,-0.660,2.250,-110.923,-5.791
15:36:46:404,32.839,-0.069,-0.160,-0.190,1.025,-110.785,-2.366
15:36:46:404,32.839,0.313,0.255,-0.302,0.746,-110.742,-0.947
15:36:46:405,32.840,0.081,0.236,0.077,0.574,-111.262,0.507
15:36:46:5,32.935,-0.061,0.401,0.117,1.573,-112.200,3.005
15:36:46:609,33.044,-0.054,0.349,0.118,2.078,-112.444,4.175
15:36:46:609,33.044,-0.073,0.085,0.146,3.086,-112.959,6.259
15:36:46:694,33.129,-0.383,-1.842,1.533,16.992,-116.206,51.354
15:36:46:694,33.129,-0.072,0.097,0.458,4.805,-105.451,11.590
15:36:46:695,33.130,0.051,0.022,0.492,6.239,-104.987,15.886
15:36:46:696,33.131,0.241,0.841,0.448,10.363,-102.840,35.898
15:36:46:739,33.174,0.246,-0.173,1.367,12.187,-104.635,47.880
15:36:46:74,33.175,-0.020,-1.510,1.247,14.012,-106.632,49.513
15:36:46:794,33.229,-0.337,-1.659,0.315,15.533,-106.981,48.581
15:36:46:794,33.229,-0.250,-1.398,0.371,13.926,-107.624,43.843
15:36:46:895,33.329,-0.291,-0.998,0.506,12.018,-108.300,38.700
15:36:46:955,33.390,-0.222,-0.588,0.745,9.133,-108.611,29.247
15:36:46:956,33.391,0.358,1.334,-1.987,3.408,-108.296,-8.884
15:36:46:957,33.391,0.739,0.607,-2.435,3.002,-107.657,-15.408
15:36:47:165,33.600,0.980,0.415,-1.184,3.073,-103.153,-14.146
15:36:47:166,33.601,-0.037,-0.495,-0.274,2.565,-99.899,-9.110
15:36:47:209,33.644,-0.022,0.102,-0.114,0.759,-98.432,-1.955
15:36:47:244,33.679,0.119,0.176,-0.041,0.793,-98.895,-0.249
15:36:47:245,33.679,-0.028,0.302,0.159,2.283,-100.270,3.450
15:36:47:245,33.680,-0.057,0.155,0.091,2.966,-100.739,4.587
15:36:47:246,33.681,0.015,0.057,0.163,4.000,-101.558,6.418
15:36:47:343,33.778,-0.110,-0.079,0.267,4.919,-102.417,8.428
15:36:47:344,33.779,-0.146,-0.022,0.330,5.639,-102.649,10.108
15:36:47:419,33.854,0.106,0.138,0.435,6.952,-102.008,13.749
15:36:48:242,34.677,0.210,0.134,0.585,7.885,-101.616,16.992
15:36:48:242,34.677,0.063,0.167,1.193,9.003,-100.465,23.306
15:36:48:243,34.678,0.378,0.702,0.223,10.192,-99.268,31.644
15:36:48:244,34.679,0.334,0.968,0.296,11.186,-99.472,36.721
15:36:48:366,34.801,0.191,-0.524,1.372,13.353,-102.089,40.815
15:36:48:896,35.331,-0.194,-1.207,0.672,12.931,-107.526,33.391
15:36:48:896,35.331,-0.241,-0.860,0.662,10.875,-108.177,28.091
15:36:48:897,35.332,-0.183,-0.372,0.539,7.815,-109.031,18.672
15:36:49:101,35.536,-0.349,0.304,0.419,5.103,-109.678,7.916
15:36:49:493,35.928,-0.275,1.002,-0.276,3.533,-109.708,0.453
15:36:49:708,36.143,-0.730,-0.397,-2.417,2.722,-99.193,-14.469
15:36:49:709,36.144,0.973,0.849,-0.243,2.428,-95.696,-10.794
15:36:49:975,36.410,0.112,-0.045,-0.447,1.620,-95.056,-7.509
15:36:49:975,36.410,0.045,-0.034,-0.105,1.069,-95.016,-5.661
15:36:49:975,36.410,0.071,0.177,-0.154,0.893,-95.232,-3.695
15:36:49:976,36.411,0.098,0.191,0.017,1.051,-95.982,-2.166
15:36:50:08,36.515,0.064,0.185,-0.097,1.473,-96.551,-1.246
15:36:50:081,36.516,-0.056,0.248,0.061,2.318,-97.355,-0.051
15:36:50:082,36.517,-0.036,0.301,0.078,2.894,-97.718,0.820
15:36:50:083,36.518,-0.058,0.204,0.084,3.762,-98.147,2.489
15:36:50:229,36.664,0.028,0.070,0.083,4.644,-98.643,4.279
15:36:50:727,37.162,0.194,0.181,0.779,9.102,-98.643,15.842
15:36:50:78,37.215,0.240,0.063,0.407,10.683,-75.732,8.194
15:36:50:832,37.267,0.340,0.142,0.357,12.558,-74.360,12.719
15:36:51:124,37.559,0.657,0.118,0.684,14.704,-73.053,18.995
15:36:51:124,37.559,1.094,0.195,1.207,16.154,-71.438,24.359
15:36:51:444,37.879,0.468,-1.124,0.555,15.429,-60.964,34.305
15:36:51:444,37.879,0.143,0.360,-0.023,6.380,-37.843,2.835
15:36:51:445,37.880,0.228,0.274,0.268,7.415,-38.384,4.594
15:36:51:446,37.881,0.340,-0.015,0.371,9.893,-38.784,9.927
15:36:51:497,37.932,1.561,-1.434,0.666,22.832,-31.369,50.165
15:36:51:497,37.932,-0.087,0.165,-0.072,3.186,-14.592,1.372
15:36:51:498,37.933,0.198,0.099,0.109,5.713,-17.121,8.765
15:36:51:498,37.933,0.465,0.012,0.107,6.345,-17.639,10.434
15:36:51:549,37.984,0.174,-1.409,0.220,16.933,-14.227,47.557
15:36:51:55,37.985,0.595,-1.203,0.164,14.944,-14.636,40.173
15:36:51:551,37.986,0.744,-0.878,0.110,13.096,-14.524,33.705
15:36:51:576,38.011,0.714,-0.237,-0.059,10.202,-13.624,22.690
15:36:51:577,38.012,-0.028,0.813,-0.161,8.209,-12.370,10.412
15:36:51:578,38.013,-0.736,1.515,-0.229,7.265,-12.303,2.047
15:36:51:707,38.142,-0.006,0.144,-0.219,2.046,-4.230,-0.035
15:36:51:708,38.143,0.690,-0.883,-0.079,12.702,-4.516,30.779
15:36:51:709,38.144,0.640,-0.187,-0.256,10.799,-3.071,24.092
15:36:51:71,38.145,-2.722,-1.009,0.655,7.254,5.624,-14.468
15:36:51:784,38.219,-0.009,0.075,-0.034,2.938,12.939,1.152
15:36:51:784,38.219,0.132,0.217,-0.046,3.633,11.753,2.507
15:36:51:785,38.220,0.632,0.146,-0.841,18.196,18.506,49.163
15:36:51:918,38.353,1.801,-1.710,-1.166,20.158,18.746,50.258
15:36:51:918,38.353,0.386,-1.535,-0.184,17.088,20.763,47.748
15:36:51:918,38.353,0.341,-1.515,-0.145,14.719,22.242,44.794
15:36:51:919,38.354,0.559,-1.241,-0.431,11.199,24.630,37.375
15:36:52:022,38.457,0.392,-0.562,-0.419,9.209,26.851,31.065
15:36:52:022,38.457,0.485,-0.080,-0.677,7.423,29.673,20.086
15:36:52:023,38.458,-0.209,1.074,-0.316,6.784,32.282,7.505
15:36:52:024,38.459,-1.201,1.543,0.358,6.644,34.079,-0.631
15:36:52:303,38.738,-2.275,0.919,1.208,6.649,37.074,-9.606
15:36:52:571,39.005,-2.065,-0.393,1.644,6.673,39.273,-12.771
15:36:52:571,39.005,-1.313,-0.662,1.709,5.960,43.398,-12.491
15:36:52:889,39.324,-0.524,2.259,-0.102,6.085,48.906,-6.448
15:36:52:889,39.324,0.310,-0.544,0.156,4.691,49.942,-3.907
15:36:52:889,39.324,0.064,-0.096,0.066,2.449,50.467,-0.362
15:36:52:89,39.325,0.016,0.179,-0.037,1.881,51.022,1.270
15:36:52:99,39.425,-0.088,0.225,-0.106,1.531,51.107,3.388
15:36:52:991,39.426,0.042,0.069,-0.025,1.900,50.558,4.411
15:36:52:992,39.427,0.155,0.239,-0.104,2.720,49.913,5.874
15:36:53:327,39.762,0.197,0.329,-0.167,3.880,49.701,7.513
15:36:53:379,39.813,0.325,0.237,-0.192,4.613,49.584,8.775
15:36:53:596,40.031,0.284,0.137,-0.146,5.848,49.546,11.062
15:36:53:597,40.032,0.368,0.016,-0.353,6.664,49.415,12.778
15:36:53:598,40.033,0.505,0.049,-0.576,8.135,49.589,16.083
15:36:53:644,40.079,0.088,-0.015,-0.864,11.751,51.366,25.789
15:36:53:644,40.079,0.296,0.679,-1.027,13.806,53.670,34.073
15:36:53:746,40.181,-0.084,0.925,-0.700,14.504,56.086,40.038
15:36:53:772,40.207,0.075,0.193,-1.068,15.603,57.122,47.464
15:36:54:143,40.578,0.672,-2.026,-1.711,16.217,56.617,50.181
15:36:54:143,40.578,0.614,-1.631,-1.075,16.456,56.359,51.228
15:36:54:246,40.681,-1.217,0.560,2.577,2.466,62.189,-8.635
15:36:54:271,40.706,0.098,-0.064,-0.206,-1.447,72.306,0.264
15:36:54:35,40.785,-0.045,0.169,-0.073,-1.549,72.257,2.014
15:36:54:402,40.837,-0.172,1.030,-0.885,8.924,73.370,37.603
15:36:54:481,40.916,-0.177,0.375,-0.996,10.181,73.825,45.638
15:36:54:509,40.944,0.126,-1.676,-1.598,10.895,72.743,49.047
15:36:54:51,40.945,0.362,-1.687,-1.582,14.287,70.505,51.387
15:36:54:586,41.021,0.129,-1.283,-0.232,13.385,70.216,49.765
15:36:54:645,41.080,0.146,-1.555,-0.614,11.348,70.072,46.298
15:36:54:645,41.080,0.174,0.220,-0.655,3.157,70.252,18.884
15:36:54:646,41.081,0.083,0.140,-0.072,-3.928,80.083,5.343
15:36:54:747,41.182,0.202,0.227,-0.208,-2.943,79.560,6.825
15:36:54:748,41.183,-0.277,0.024,-0.962,4.593,78.480,27.126
15:36:54:881,41.316,-0.015,0.405,-1.234,6.328,78.931,35.623
15:36:54:881,41.316,-0.187,0.879,-0.875,6.961,79.836,42.008
15:36:54:882,41.317,-0.205,0.602,-0.720,7.607,79.491,50.332
15:36:54:937,41.372,-0.209,-1.652,-1.208,8.401,77.497,53.416
15:36:54:938,41.373,0.238,-1.786,-1.533,12.863,74.768,54.164
15:36:54:939,41.374,0.143,-1.463,-0.586,10.045,73.394,46.099
15:36:54:939,41.374,0.212,-0.984,-0.634,6.483,72.821,37.234
15:36:55:042,41.476,0.153,0.253,-0.137,-3.853,79.401,5.734
15:36:55:042,41.476,0.180,0.348,-0.407,-3.104,78.856,7.541
15:36:55:042,41.477,0.212,0.059,-0.689,1.485,76.824,17.628
15:36:55:043,41.478,0.013,-0.103,-0.915,3.320,77.191,23.278
15:36:55:172,41.607,-0.151,-0.317,-1.194,6.365,79.426,49.649
15:36:55:173,41.608,0.078,-1.546,-1.475,8.849,77.781,51.818
15:36:55:174,41.608,0.101,-1.273,-0.682,6.704,75.763,41.104
15:36:55:174,41.609,0.134,-0.737,-0.780,3.839,76.160,30.987
15:36:55:225,41.660,0.063,0.959,-0.041,0.093,77.776,10.145
15:36:55:225,41.660,0.087,1.808,1.584,-0.984,78.385,-2.911
15:36:55:226,41.661,-0.325,0.975,2.788,-1.434,78.326,-9.319
15:36:55:227,41.662,-0.551,0.443,2.915,-1.520,78.416,-14.011
15:36:55:271,41.706,0.066,-0.235,0.198,-2.133,84.898,-5.847
15:36:55:272,41.707,-0.133,-0.108,1.187,-3.288,86.376,-3.088
15:36:55:321,41.756,0.038,0.209,0.038,-4.557,86.419,-0.089
15:36:55:382,41.816,0.122,0.171,-0.092,-4.987,85.426,3.820
15:36:55:382,41.816,0.048,0.308,-0.127,-4.780,84.512,5.232
15:36:55:383,41.817,0.149,0.324,-0.282,-4.126,83.759,6.980
15:36:55:384,41.818,0.079,0.128,-0.198,-3.413,83.505,8.381
15:36:55:531,41.966,0.137,0.158,-0.249,-2.446,82.454,10.555
15:36:55:61,42.045,0.332,-0.058,-0.525,-1.616,81.292,12.386
15:36:56:538,42.973,0.178,0.010,-0.597,0.001,80.176,16.298
15:36:56:538,42.973,-0.024,-0.067,-0.703,1.693,80.157,21.397
15:36:56:538,42.973,-0.084,-0.042,-0.706,2.605,80.497,25.969
15:36:56:539,42.974,0.004,0.684,-1.278,3.684,80.951,33.946
15:36:56:554,42.989,-0.332,1.155,-0.832,3.611,81.495,39.791
15:36:56:772,43.207,-0.179,0.538,-0.700,3.970,80.167,47.286
15:36:56:773,43.208,-0.168,-1.856,-1.648,6.262,77.411,49.640
15:36:56:774,43.209,0.262,-1.675,-1.667,8.835,74.803,49.428
15:36:56:869,43.304,0.179,-1.462,-0.839,6.967,73.474,40.147
15:36:57:396,43.831,0.175,-0.875,-0.783,5.321,72.810,30.311
15:36:57:552,43.987,0.200,-0.141,-0.742,3.858,72.468,22.564
15:36:58:29,44.725,0.188,0.441,-0.772,1.496,72.512,9.924
15:36:58:291,44.726,0.036,1.540,1.034,-0.375,73.108,-2.681
15:36:58:347,44.782,0.112,1.396,2.457,-1.340,73.276,-9.738
15:36:58:347,44.782,-0.108,-0.106,3.170,-1.691,74.980,-16.339
15:36:58:348,44.783,0.118,-1.588,3.059,-1.460,77.207,-17.516
15:36:58:505,44.940,0.371,0.378,0.795,-0.884,81.489,-14.978
15:36:58:506,44.941,0.366,1.414,1.933,-0.568,85.410,-9.024
15:36:58:507,44.942,0.164,-0.366,0.812,-1.814,86.383,-6.966
15:36:58:507,44.942,0.037,0.150,0.050,-2.598,86.442,-0.388
15:36:58:61,45.045,0.055,0.064,0.008,-2.223,85.655,0.628
15:36:58:61,45.045,-0.026,0.056,-0.553,6.093,112.550,9.686
15:36:58:61,45.045,-0.412,0.116,-0.647,8.032,113.358,14.439
15:36:58:629,45.063,-0.712,-0.004,-0.581,9.453,114.267,18.672
15:36:58:716,45.151,-0.900,0.347,-0.833,11.318,116.558,26.754
15:36:58:717,45.152,-0.432,0.657,-0.087,12.056,119.145,32.751
15:36:58:718,45.153,-0.403,-1.312,-0.407,12.170,124.425,39.402
15:36:58:718,45.153,-0.440,-1.003,-0.398,9.016,126.301,32.329
15:36:58:849,45.284,-0.540,-0.586,-0.371,7.025,127.711,26.108
15:36:58:849,45.284,-0.506,-0.052,-0.182,4.751,130.170,15.234
15:36:58:849,45.284,1.937,-0.571,0.719,2.038,142.017,-16.006
15:36:58:85,45.285,-1.040,-1.490,-0.534,12.863,148.160,44.678
15:36:59:39,45.825,0.463,1.276,0.300,2.013,154.105,1.895
15:36:59:497,45.932,-1.199,-1.370,0.020,11.317,170.504,45.327
15:36:59:498,45.933,-0.307,-1.414,-0.104,10.118,170.890,41.185
15:36:59:783,46.218,-0.587,-1.078,-0.214,8.619,170.295,36.654
15:36:59:941,46.376,-0.600,-0.812,-0.211,6.263,170.295,27.757
15:37:00:003,46.438,0.883,1.227,0.078,1.760,173.069,-2.489
15:37:00:003,46.438,2.701,-0.246,0.044,1.161,175.211,-15.844
15:37:00:003,46.438,2.673,-0.249,-0.079,1.375,178.023,-16.964
15:37:00:004,46.439,0.730,-0.211,-0.738,1.597,-179.818,-15.200
15:37:00:02,46.454,0.110,0.373,0.022,1.767,-175.630,-10.479
15:37:00:071,46.506,0.164,-0.110,-0.158,-0.056,-174.380,-5.672
15:37:00:106,46.541,0.164,0.182,0.036,-0.184,-174.425,-4.307
15:37:00:107,46.542,0.046,0.141,0.068,-0.123,-174.990,-2.651
15:37:00:107,46.542,0.048,0.071,-0.031,0.043,-175.801,-1.255
15:37:00:108,46.543,0.007,0.151,-0.035,0.402,-176.230,-0.483
15:37:00:233,46.668,-0.046,0.257,0.004,1.119,-176.808,0.748
15:37:00:233,46.668,-0.160,0.280,-0.075,1.676,-177.323,1.771
15:37:00:256,46.691,-0.068,0.119,-0.097,2.781,-177.965,3.690
15:37:00:444,46.879,-0.527,0.227,-0.036,4.588,-179.177,8.034
15:37:00:444,46.879,-0.757,0.266,0.254,6.162,-179.229,12.448
15:37:00:657,47.092,-1.033,0.267,0.220,7.329,-178.820,16.478
15:37:00:658,47.093,-1.915,0.316,0.584,9.039,-177.554,24.405
15:37:00:659,47.094,-0.157,0.400,-0.052,3.598,-156.785,0.845
15:37:00:66,47.095,-0.187,0.171,-0.110,4.162,-156.995,2.034
15:37:00:678,47.113,-0.327,0.171,0.202,6.779,-157.287,8.824
15:37:00:679,47.114,-0.420,-0.537,0.421,9.270,-145.204,23.838
15:37:00:729,47.164,1.946,0.613,-1.717,5.685,-141.253,-12.645
15:37:00:763,47.198,2.047,-0.542,-1.702,5.983,-140.671,-16.993
15:37:00:764,47.199,0.839,-1.059,-1.678,5.453,-139.936,-16.897
15:37:00:764,47.199,1.156,2.252,-0.316,5.646,-136.494,-11.899
15:37:00:783,47.218,0.373,-0.170,-0.167,3.224,-135.301,-6.148
15:37:00:784,47.219,-0.069,-0.035,0.053,2.259,-135.374,-4.584
15:37:01:73,48.165,0.186,0.138,0.028,2.150,-135.594,-2.531
15:37:01:731,48.166,0.101,0.202,0.047,2.408,-136.494,-0.960
15:37:01:808,48.243,-0.015,0.111,-0.043,3.035,-136.898,-0.193
15:37:01:809,48.244,-0.111,0.369,0.087,4.126,-137.561,1.172
15:37:02:046,48.481,-0.258,0.285,0.065,4.995,-138.140,2.347
15:37:02:047,48.482,-0.219,0.116,0.008,6.367,-138.832,4.535
15:37:02:048,48.483,-0.545,0.126,0.252,8.637,-139.225,8.986
15:37:02:284,48.719,-0.060,0.216,0.672,14.673,-135.092,25.597
15:37:02:284,48.719,-0.283,0.849,1.464,16.320,-133.096,32.064
15:37:02:285,48.720,-0.320,-0.746,0.666,11.105,-125.768,28.622
15:37:02:6,49.035,-0.114,0.104,0.893,9.180,-124.497,20.934
15:37:02:601,49.036,0.124,0.934,0.451,6.899,-122.120,8.172
15:37:02:602,49.037,1.024,1.642,-1.155,5.839,-119.803,-4.681
15:37:02:602,49.037,1.397,0.970,-2.607,5.483,-118.720,-11.553
15:37:02:621,49.056,1.243,-0.408,-2.838,5.316,-116.887,-17.674
15:37:02:707,49.141,0.480,0.037,-1.998,5.237,-114.901,-19.027
15:37:02:707,49.142,0.086,0.774,-0.597,5.497,-111.068,-15.717
15:37:02:832,49.267,0.043,0.057,-0.153,3.298,-104.593,-2.849
15:37:02:833,49.268,0.185,0.176,-0.095,2.950,-104.496,-1.570
15:37:03:013,49.448,0.006,0.203,0.049,3.068,-105.098,0.154
15:37:03:066,49.501,-0.030,0.268,0.066,1.100,-93.093,1.986
15:37:03:1,49.535,-0.018,0.423,0.083,1.678,-93.382,2.844
15:37:03:1,49.535,-0.085,0.211,0.177,3.601,-94.897,6.259
15:37:03:101,49.535,-0.151,0.080,0.336,4.875,-95.979,8.854
15:37:03:101,49.536,-0.105,-1.755,1.594,15.864,-94.799,50.082
15:37:03:12,49.555,-0.187,-1.668,0.506,14.489,-95.108,48.147
15:37:03:121,49.556,0.011,-0.470,0.840,6.168,-95.146,27.218
15:37:03:151,49.586,-0.137,0.133,-2.459,1.109,-93.431,-17.407
15:37:03:151,49.586,-0.944,-0.881,-2.044,0.938,-92.650,-17.465
15:37:03:151,49.586,-0.122,-0.258,-0.118,-0.217,-84.542,-4.769
15:37:03:172,49.607,0.037,-0.019,0.344,2.952,-87.797,9.820
15:37:03:172,49.607,-0.070,0.076,0.576,3.853,-88.025,11.917
15:37:03:197,49.632,0.172,0.059,0.548,5.581,-87.828,16.168
15:37:03:221,49.656,0.337,-0.076,0.690,7.849,-87.459,22.223
15:37:03:308,49.743,0.404,0.126,0.539,9.307,-86.922,27.356
15:37:03:309,49.744,0.608,0.871,1.329,11.316,-85.998,36.349
15:37:03:31,49.745,0.290,0.599,0.506,11.725,-85.132,42.291
15:37:03:678,50.113,0.667,-0.312,0.795,12.915,-86.742,50.264
15:37:03:678,50.113,0.327,-1.393,1.905,16.963,-89.742,52.683
15:37:03:679,50.114,-0.162,-1.827,0.931,15.746,-90.564,50.482
15:37:03:679,50.114,-0.063,-1.493,0.540,13.009,-91.228,45.826
15:37:03:694,50.129,-0.867,-1.353,-2.251,1.207,-93.045,-17.901
15:37:03:808,50.243,0.088,0.953,0.000,1.639,-89.265,-15.615
15:37:03:809,50.244,-0.112,0.654,-1.075,2.112,-84.485,-9.529
15:37:03:809,50.244,-0.036,-0.304,-0.251,0.985,-83.817,-7.051
15:37:03:81,50.245,-0.018,-0.096,-0.076,0.042,-84.262,-3.930
15:37:03:86,50.294,0.058,0.127,-0.082,-0.175,-84.456,-2.064
15:37:03:861,50.295,0.012,0.101,-0.032,0.092,-84.931,-0.939
15:37:03:861,50.296,0.036,0.198,0.077,0.392,-85.884,0.477
15:37:03:862,50.297,-0.016,0.314,0.178,0.747,-86.385,1.379
15:37:04:017,50.452,0.043,0.505,0.342,1.728,-86.980,3.169
15:37:04:018,50.453,-0.105,0.114,0.181,2.547,-87.376,4.695
15:37:04:019,50.454,-0.078,0.113,0.225,3.884,-88.104,7.325
15:37:04:088,50.523,-0.083,0.005,0.484,5.196,-88.757,10.411
15:37:04:125,50.560,-0.114,0.020,0.451,6.321,-88.601,12.965
15:37:04:125,50.560,0.344,-0.031,0.587,8.350,-88.009,17.848
15:37:04:126,50.561,0.517,0.100,0.658,10.033,-87.537,22.178
15:37:04:126,50.561,0.366,0.458,1.084,12.716,-86.690,30.170
15:37:04:22,50.655,0.444,0.737,0.802,14.937,-84.792,39.479
15:37:04:858,51.293,0.023,-0.313,0.485,7.478,-86.157,25.270
15:37:04:859,51.293,0.084,0.147,0.419,5.985,-85.895,17.524
15:37:04:859,51.294,-0.084,1.134,-0.361,4.291,-85.675,4.776
15:37:04:86,51.295,-0.405,1.389,-1.486,3.588,-85.456,-2.835
15:37:04:877,51.312,-0.543,0.818,-2.510,3.047,-85.590,-11.086
15:37:05:034,51.469,-0.938,-0.886,-2.439,2.911,-84.532,-13.349
15:37:05:98,52.415,-1.262,0.362,-3.692,3.207,-81.916,-11.735
15:37:06:267,52.702,0.156,2.249,0.110,2.681,-78.724,-6.605
15:37:07:082,53.517,-0.005,-0.499,-0.565,1.663,-78.160,-4.146
15:37:07:19,53.625,-0.153,-0.120,0.093,0.596,-78.130,-1.283
15:37:07:19,53.625,0.101,0.199,-0.269,0.515,-78.309,0.768
15:37:07:458,53.893,0.012,0.041,0.098,0.784,-78.938,1.670
15:37:07:458,53.893,0.013,0.151,0.069,1.284,-80.189,3.042
15:37:07:458,53.893,-0.012,0.193,0.130,1.797,-80.675,3.810
15:37:07:459,53.894,0.118,0.406,0.190,2.759,-81.431,5.208
15:37:07:477,53.912,-0.052,0.092,0.217,5.191,-83.060,8.411
15:37:07:477,53.912,-0.042,-0.014,0.527,6.816,-84.269,10.973
15:37:07:528,53.963,0.021,0.023,0.724,8.084,-84.320,13.440
15:37:07:557,53.991,0.228,-0.018,0.715,10.254,-83.520,18.512
15:37:07:557,53.992,0.516,0.050,0.768,11.625,-82.493,22.962
15:37:08:158,54.593,0.549,0.071,0.911,13.610,-80.570,31.381
15:37:08:971,55.406,0.733,-2.202,1.477,18.991,-77.135,51.821
15:37:09:134,55.569,0.133,0.083,0.380,6.350,-50.686,10.430
15:37:09:135,55.570,0.245,0.023,0.332,7.534,-50.439,12.877
15:37:09:136,55.571,0.341,0.016,0.432,8.549,-50.172,14.926
15:37:09:288,55.722,0.590,-0.066,0.547,10.758,-49.416,19.629
15:37:09:496,55.931,0.767,0.033,0.304,14.588,-45.877,32.233
15:37:09:61,56.045,0.203,-1.403,0.130,16.514,-38.261,50.145
15:37:09:611,56.046,-2.693,-0.101,-0.216,1.564,-6.389,-11.812
15:37:09:612,56.047,0.191,0.065,0.113,0.416,0.085,8.720
15:37:09:613,56.048,0.351,0.047,0.076,2.335,13.911,9.625
15:37:09:759,56.193,0.584,0.037,0.175,3.067,13.680,11.261
15:37:09:915,56.350,0.552,0.098,-0.090,4.356,14.391,14.789
15:37:09:976,56.411,0.480,-1.387,-0.164,11.590,16.522,44.268
15:37:09:977,56.412,0.581,-1.214,-0.229,9.934,16.979,40.164
15:37:09:978,56.413,0.650,-0.786,-0.314,7.126,18.401,31.562
15:37:09:979,56.414,0.580,-0.100,-0.302,4.897,20.185,20.956
15:37:10:003,56.438,0.306,0.410,-0.221,3.829,21.532,13.124
15:37:10:004,56.439,-0.704,1.475,0.222,2.615,23.832,0.986
15:37:10:004,56.439,-1.955,1.083,0.958,2.273,25.731,-6.204
15:37:10:023,56.458,-1.768,0.506,1.097,2.494,31.861,-15.661
15:37:10:024,56.459,0.362,-1.244,-0.603,7.224,50.764,37.988
15:37:10:261,56.696,0.196,0.654,-0.176,0.428,72.601,9.586
15:37:10:261,56.696,-0.213,0.949,1.844,-1.114,76.322,-8.625
15:37:10:293,56.728,-0.601,-0.165,2.504,-1.042,78.259,-13.170
15:37:10:294,56.729,-0.219,-0.134,0.030,-1.052,87.991,-9.507
15:37:10:295,56.730,0.125,0.294,-0.102,-1.449,88.269,1.613
15:37:10:295,56.730,-0.294,0.451,-1.690,6.423,86.189,22.797
15:37:10:477,56.912,-0.294,0.761,-0.369,7.738,88.116,31.511
15:37:10:477,56.912,-0.160,0.651,-0.499,8.609,89.509,40.730
15:37:10:478,56.913,-0.378,0.211,-0.701,8.776,88.994,45.318
15:37:10:479,56.914,-0.291,-1.998,-1.778,9.961,87.133,48.230
15:37:10:891,57.326,0.117,0.810,-0.002,0.448,83.319,11.690
15:37:10:891,57.326,0.527,-0.431,3.053,-2.161,88.132,-13.780
15:37:10:922,57.357,-0.139,1.215,-1.184,-1.667,91.073,-11.153
15:37:10:922,57.357,0.577,0.001,0.769,-2.179,93.834,-7.681
15:37:10:923,57.358,0.132,0.060,0.189,-3.306,94.910,-4.536
15:37:10:923,57.358,0.079,0.136,0.325,-3.488,94.943,-2.894
15:37:10:94,57.375,0.056,0.167,-0.001,-3.601,94.572,-1.109
15:37:10:974,57.409,0.034,0.227,0.064,-3.463,94.150,-0.028
15:37:10:974,57.409,0.143,0.316,-0.085,-2.664,93.593,1.560
15:37:10:975,57.410,0.124,0.416,-0.221,-1.736,93.144,3.303
15:37:10:976,57.411,0.105,0.154,-0.140,-1.209,92.959,4.664
15:37:10:994,57.429,0.007,0.014,-0.085,-0.227,92.522,6.956
15:37:10:995,57.430,0.029,0.148,-0.484,1.448,91.632,11.778
15:37:11:026,57.461,-0.261,0.210,-0.717,3.046,91.580,16.505
15:37:11:027,57.462,-0.275,0.150,-0.893,4.270,91.448,20.624
15:37:11:028,57.463,-0.229,0.374,-1.250,6.434,91.397,28.867
15:37:11:029,57.464,-0.121,0.923,0.106,7.239,92.444,35.030
15:37:11:052,57.487,-0.461,0.661,-0.494,7.768,92.385,42.864
15:37:11:053,57.488,0.101,-1.595,-0.590,7.148,85.766,41.524
15:37:11:054,57.489,0.159,-1.305,-0.718,5.366,84.235,36.687
15:37:11:055,57.490,0.269,-0.649,-0.815,2.404,82.752,26.986
15:37:11:126,57.561,0.310,0.062,-0.681,0.314,82.190,19.429
15:37:11:126,57.561,0.106,0.421,-0.229,-1.623,87.537,2.438
15:37:11:159,57.594,0.159,0.233,-0.070,-0.450,87.031,4.790
15:37:11:16,57.595,0.145,0.087,-0.243,0.309,86.575,6.636
15:37:11:161,57.596,0.117,0.184,-0.531,1.443,85.785,10.006
15:37:11:161,57.596,-0.132,0.191,-0.840,2.536,85.599,12.999
15:37:11:343,57.777,-0.207,0.146,-0.987,4.500,85.965,19.063
15:37:11:343,57.778,-0.235,0.337,-0.759,6.969,86.373,27.342
15:37:11:343,57.778,-0.281,0.856,-0.907,8.814,86.910,33.985
15:37:11:344,57.778,-0.324,0.677,-0.476,9.902,88.125,42.691
15:37:11:446,57.881,-0.201,-0.524,-0.716,9.351,87.948,46.897
15:37:11:446,57.881,-0.510,-1.323,-2.352,9.196,87.442,47.522
15:37:11:446,57.881,-0.029,-1.169,-0.040,6.234,87.723,45.478
15:37:11:543,57.978,-0.015,-1.399,-0.693,3.361,87.436,39.997
15:37:11:627,58.062,0.246,-0.961,-0.526,1.484,86.692,31.297
15:37:11:628,58.063,0.257,-0.567,-0.350,0.342,86.499,24.696
15:37:11:629,58.064,0.319,-0.314,-0.388,-1.026,86.090,14.102
15:37:11:735,58.170,0.325,0.382,0.250,-1.747,86.033,6.659
15:37:11:736,58.171,0.286,0.876,1.256,-2.678,86.474,-4.380
15:37:11:737,58.172,0.299,0.641,2.394,-3.260,87.769,-13.565
15:37:11:738,58.173,0.084,0.124,2.773,-3.129,88.985,-17.163
15:37:11:761,58.196,0.163,-0.653,2.301,-2.606,90.843,-18.442
15:37:11:762,58.197,0.777,0.062,-0.343,-2.188,92.285,-16.699
15:37:11:763,58.198,0.595,0.484,1.141,-0.877,96.602,-11.137
15:37:11:764,58.199,-0.078,-0.180,0.579,-2.092,97.507,-8.766
15:37:11:786,58.221,0.176,-0.058,0.107,-3.454,98.455,-5.628
15:37:11:786,58.221,0.032,0.159,0.235,-3.344,98.550,-3.077
15:37:11:786,58.221,0.129,-0.015,-0.018,-3.244,97.900,-1.916
15:37:11:834,58.269,0.023,0.207,0.053,-2.896,96.912,-0.315
15:37:11:835,58.270,0.095,0.266,0.010,-2.572,96.500,0.609
15:37:11:867,58.302,0.056,0.337,-0.141,-1.828,95.911,2.259
15:37:11:868,58.303,0.110,0.226,-0.064,-1.042,95.443,4.339
15:37:11:869,58.304,0.089,0.228,-0.091,-0.455,95.100,6.003
15:37:11:87,58.304,0.212,0.129,-0.486,0.442,94.093,8.939
15:37:12:016,58.451,-0.229,0.350,-0.837,1.187,93.684,11.403
15:37:12:313,58.748,-0.269,0.191,-0.881,2.615,93.500,16.909
15:37:12:313,58.748,-0.466,0.272,-1.221,4.369,93.139,24.587
15:37:12:314,58.749,-0.296,0.681,-0.717,5.556,93.252,30.977
15:37:12:315,58.750,-0.056,0.627,0.008,5.665,94.460,40.146
15:37:12:418,58.853,-0.377,-0.392,-0.522,5.681,93.217,44.071
15:37:12:419,58.853,-0.443,-2.211,-2.175,7.728,90.259,46.040
15:37:12:419,58.854,0.123,-1.689,-0.426,7.268,89.603,44.402
15:37:13:022,59.457,0.110,-1.018,-0.804,3.714,87.881,30.514
15:37:13:023,59.458,0.161,-0.465,-0.736,1.966,88.113,23.335
15:37:13:024,59.459,0.201,0.526,-0.442,-0.398,89.466,11.507
15:37:13:026,59.461,0.205,1.560,0.717,-1.347,90.963,3.205
15:37:13:118,59.553,0.517,1.373,1.967,-1.616,93.013,-8.639
15:37:13:176,59.611,0.080,-0.228,2.766,-1.015,94.017,-16.435
15:37:13:177,59.612,0.047,0.259,2.364,-0.320,95.195,-18.971
15:37:13:178,59.613,0.939,-0.642,1.640,-0.018,97.756,-18.004
15:37:13:223,59.658,-1.199,1.114,-0.524,0.355,100.987,-15.157
15:37:13:383,59.818,0.252,0.152,0.254,0.362,104.633,-11.048
15:37:13:384,59.819,0.265,-0.095,0.265,-0.856,105.510,-8.803
15:37:13:433,59.868,0.153,0.181,0.282,-1.486,105.787,-5.943
15:37:13:574,60.009,-0.002,0.223,0.152,-1.419,105.718,-3.788
15:37:13:574,60.009,0.045,0.127,0.145,-1.002,104.803,-2.051
15:37:13:575,60.010,0.133,0.194,-0.070,-0.566,104.204,-1.085
15:37:13:643,60.078,0.174,0.081,-0.195,0.901,103.143,1.774
15:37:13:729,60.163,0.034,0.100,-0.092,1.868,102.810,3.911
15:37:13:729,60.163,-0.089,0.096,-0.298,2.415,102.362,5.570
15:37:13:729,60.164,0.029,0.107,-0.494,3.552,101.602,8.689
15:37:13:834,60.269,-0.451,0.191,-0.950,6.502,101.744,17.324
15:37:13:834,60.269,0.039,0.177,0.177,1.739,125.294,-5.952
15:37:13:853,60.288,-0.025,0.141,0.062,2.074,124.329,-4.420
15:37:13:959,60.394,0.125,0.144,-0.123,2.934,123.480,-3.125
15:37:14:09,60.525,0.045,0.253,-0.075,3.510,123.166,-2.199
15:37:14:168,60.603,-0.080,0.012,-0.160,6.186,121.564,2.699
15:37:14:361,60.796,-0.132,0.084,-0.323,6.901,121.119,4.292
15:37:14:362,60.797,-0.142,0.130,-0.350,8.331,121.323,7.559
15:37:14:362,60.797,-0.523,0.163,-0.410,10.230,121.940,12.284
15:37:14:363,60.798,-0.680,0.741,-0.151,15.825,125.350,31.468
15:37:14:615,61.050,-0.278,-0.968,-0.324,16.343,128.528,43.425
15:37:14:8,61.235,-1.656,-2.099,-1.467,15.246,129.704,42.218
15:37:14:85,61.285,-0.093,0.497,0.058,6.040,137.765,5.589
15:37:15:122,61.557,0.624,1.225,0.774,6.177,140.068,-6.303
15:37:15:123,61.558,1.457,0.892,1.390,6.666,141.730,-13.006
15:37:15:124,61.559,1.872,-0.441,1.764,7.586,144.594,-19.238
15:37:15:436,61.871,1.091,0.301,0.250,6.985,157.677,-10.306
15:37:15:437,61.872,0.086,-0.014,-0.108,5.667,158.210,-7.559
15:37:15:438,61.873,0.223,0.271,0.409,5.498,158.720,-6.068
15:37:15:439,61.874,0.000,0.244,0.225,5.537,158.181,-4.399
15:37:16:197,62.632,0.041,0.198,-0.037,6.418,156.996,-2.867
15:37:16:198,62.633,-0.024,0.331,-0.145,7.108,156.493,-1.726
15:37:16:199,62.634,-0.133,0.412,-0.098,7.987,156.227,0.344
15:37:16:2,62.635,-0.111,0.020,-0.082,8.620,156.222,1.794
15:37:16:223,62.658,-0.739,0.620,0.406,17.853,158.791,28.887
15:37:16:223,62.658,-1.056,-1.384,-0.222,18.739,161.601,40.766
15:37:16:224,62.659,-0.448,-1.337,-0.080,14.890,162.340,36.097
15:37:16:27,62.705,2.405,0.808,0.451,4.280,167.264,-13.538
15:37:16:377,62.812,2.246,0.621,0.642,4.652,170.156,-17.187
15:37:16:377,62.812,1.959,-0.403,-0.518,5.011,173.028,-16.316
15:37:16:619,63.054,0.161,1.515,-0.761,5.875,179.865,-11.388
15:37:16:619,63.054,-0.362,0.108,0.020,7.775,-179.963,9.529
15:37:16:62,63.055,0.027,0.920,0.229,15.456,-178.100,39.366
15:37:16:621,63.056,-0.800,-0.048,0.573,16.176,-179.216,45.306
15:37:16:692,63.127,2.736,-0.462,-0.275,5.812,-175.475,-17.495
15:37:16:692,63.127,2.537,-0.598,-0.628,6.294,-173.410,-17.280
15:37:16:954,63.389,0.414,2.226,0.463,6.273,-168.800,-11.517
15:37:16:954,63.389,0.815,0.327,-0.358,5.742,-167.334,-8.345
15:37:17:108,63.543,-0.207,0.064,0.085,8.344,-170.546,6.985
15:37:17:37,63.805,-0.404,0.125,0.080,9.111,-170.961,8.849
15:37:17:479,63.914,-0.560,0.179,0.163,10.516,-171.015,12.522
15:37:17:479,63.914,-0.878,0.242,0.457,12.340,-170.348,18.026
15:37:17:582,64.017,-0.165,0.091,0.287,11.249,-144.639,9.992
15:37:17:687,64.122,-0.337,0.112,0.345,12.087,-144.683,12.124
15:37:17:818,64.253,-0.514,0.167,0.533,13.897,-144.378,16.357
15:37:18:142,64.577,-0.537,-0.034,0.958,16.174,-143.850,22.428
15:37:18:142,64.577,-0.486,0.042,0.898,17.948,-143.141,27.891
15:37:18:142,64.577,-0.014,0.553,0.658,20.681,-140.551,37.754
15:37:18:142,64.577,-0.156,0.273,0.532,21.585,-138.574,43.631
15:37:18:246,64.681,0.152,-0.063,0.833,21.688,-137.802,50.308
15:37:18:247,64.682,-0.822,-1.991,1.106,22.616,-136.786,50.937
15:37:18:247,64.682,-0.510,-1.467,0.676,20.332,-136.067,48.650
15:37:18:248,64.683,1.242,1.049,-1.684,8.071,-127.447,-5.316
15:37:18:374,64.809,1.427,-0.283,-1.564,8.708,-123.997,-10.663
15:37:18:375,64.810,0.983,-0.782,-1.899,8.621,-121.706,-11.108
15:37:18:376,64.811,0.108,1.977,-0.094,8.792,-116.805,-6.768
15:37:18:529,64.964,0.106,0.561,-0.450,7.651,-114.991,-4.051
15:37:18:53,64.965,0.228,-0.130,-0.158,6.409,-114.763,-2.271
15:37:18:668,65.103,-0.135,0.080,0.493,10.102,-117.392,11.659
15:37:18:668,65.103,-0.180,0.155,0.605,11.150,-117.456,14.198
15:37:18:668,65.103,-0.050,-1.276,0.570,15.220,-109.934,42.869
15:37:18:669,65.104,0.189,0.266,-0.147,2.428,-92.452,2.462
15:37:19:216,65.651,0.065,0.125,0.080,2.414,-92.790,3.629
15:37:19:217,65.652,0.046,0.173,0.110,3.017,-93.684,5.153
15:37:19:218,65.653,0.008,-0.065,0.355,7.377,-96.049,14.110
15:37:19:219,65.654,0.356,0.292,1.425,14.207,-94.529,32.645
15:37:19:445,65.880,-0.126,-1.676,0.429,17.805,-95.812,49.128
15:37:19:523,65.958,-1.045,-0.294,-3.677,2.377,-94.978,-12.820
15:37:19:604,66.039,2.071,0.625,-1.247,2.869,-90.304,-9.098
15:37:19:605,66.040,-0.438,0.110,0.264,2.416,-86.380,-3.637
15:37:19:763,66.198,-0.170,-0.069,0.168,1.585,-85.339,0.583
15:37:19:763,66.198,0.014,0.125,-0.085,1.252,-85.294,2.273
15:37:19:972,66.407,-0.005,0.214,0.084,1.239,-85.539,4.279
15:37:19:973,66.408,-0.015,0.226,0.092,1.553,-85.857,5.436
15:37:20:264,66.699,-0.092,0.216,0.234,2.626,-86.011,6.995
15:37:20:265,66.700,-0.028,0.085,0.164,4.298,-86.080,10.251
15:37:20:266,66.701,0.109,0.024,0.318,5.269,-86.528,12.409
15:37:20:416,66.851,0.341,0.232,0.867,8.452,-87.235,20.449
15:37:20:525,66.960,0.534,0.500,0.956,12.896,-85.276,35.318
15:37:20:525,66.960,0.448,0.611,0.805,14.622,-83.953,41.749
15:37:20:608,67.043,0.047,-1.575,0.254,16.190,-87.230,51.192
15:37:20:609,67.044,0.009,-1.339,0.691,12.751,-89.573,44.364
15:37:20:61,67.045,-0.140,-0.692,0.716,9.409,-91.940,34.377
15:37:20:61,67.045,-0.194,-0.167,0.971,7.336,-93.649,26.504
15:37:20:629,67.064,-0.076,0.071,0.534,5.817,-88.573,17.647
15:37:20:63,67.065,0.259,0.143,0.839,7.531,-88.288,22.366
15:37:21:153,67.588,0.312,0.071,1.091,8.895,-88.076,26.533
15:37:21:154,67.589,0.569,0.322,1.475,11.566,-87.686,34.832
15:37:21:39,67.825,-0.319,0.717,0.536,4.956,-94.942,14.311
15:37:21:39,67.825,-0.114,1.560,-0.965,3.778,-93.878,1.903
15:37:21:466,67.901,0.086,-0.214,-2.369,3.753,-91.272,-10.810
15:37:22:124,68.559,-0.970,-0.495,-1.471,3.420,-88.815,-11.240
15:37:22:125,68.560,0.063,0.124,0.053,1.383,-82.207,4.480
15:37:22:175,68.610,-0.049,0.053,0.283,2.376,-83.058,6.184
15:37:23:096,69.531,0.573,0.117,1.564,11.176,-84.709,28.628
15:37:23:198,69.633,-0.086,1.114,-0.114,4.659,-89.217,9.209
15:37:23:594,70.029,-0.236,1.222,-1.761,3.597,-87.930,-1.323
15:37:23:595,70.030,-0.468,-0.320,-1.910,3.021,-83.129,-9.197
15:37:23:681,70.115,-0.046,0.133,0.064,1.711,-75.988,4.874
15:37:23:681,70.116,-0.017,0.279,0.239,2.697,-76.647,6.372
15:37:23:682,70.117,0.022,0.311,0.397,3.282,-77.074,7.569
15:37:23:683,70.117,-0.015,0.014,0.231,4.219,-77.496,9.620
15:37:23:724,70.159,0.121,0.020,0.207,4.906,-77.635,11.187
15:37:23:933,70.368,0.086,0.038,0.340,6.045,-78.155,13.839
15:37:23:963,70.398,0.107,0.088,0.699,7.621,-78.422,17.453
15:37:23:963,70.398,0.292,0.120,0.712,8.842,-77.935,20.829
15:37:24:076,70.511,0.571,-0.025,1.087,11.017,-77.392,27.407
15:37:24:076,70.511,0.895,0.859,-0.288,3.597,-54.035,-5.406
15:37:24:077,70.512,-0.313,-0.026,-0.480,2.850,-53.784,-2.787
15:37:24:078,70.513,0.082,0.041,0.208,5.897,-55.264,9.707
15:37:24:253,70.688,0.171,0.053,0.379,6.955,-55.267,12.260
15:37:24:254,70.689,0.905,0.063,0.141,15.353,-48.478,45.188
15:37:24:277,70.712,0.363,-0.033,0.128,5.336,-25.075,11.888
15:37:24:277,70.712,-0.295,1.140,-0.259,10.987,-17.294,41.550
15:37:24:38,70.815,0.404,-1.503,0.090,10.657,0.974,45.281
15:37:24:493,70.928,0.693,-1.422,0.084,6.973,-0.083,39.871
15:37:24:494,70.929,-3.151,-0.354,0.371,-2.500,4.305,-14.398
15:37:24:495,70.930,0.160,-0.047,0.038,-0.595,8.682,9.620
15:37:24:496,70.931,0.349,0.038,0.019,0.287,7.946,12.058
15:37:24:512,70.947,0.605,0.203,-0.118,2.383,8.373,18.164
15:37:25:039,71.474,0.962,0.137,-0.446,3.973,8.527,24.054
15:37:25:04,71.475,1.324,0.196,-0.505,5.203,8.652,29.395
15:37:25:222,71.657,0.429,0.759,-0.478,6.267,10.210,38.612
15:37:25:222,71.657,2.056,-1.605,-0.433,10.528,5.633,48.835
15:37:26:403,72.838,0.646,0.540,0.204,-0.083,6.379,14.205
15:37:26:404,72.839,-0.309,1.685,0.265,-1.209,10.692,1.671
15:37:26:513,72.948,-2.840,-1.067,1.181,1.846,22.809,-17.053
15:37:26:513,72.948,-2.247,-0.619,1.078,1.790,25.001,-15.495
15:37:26:514,72.949,-1.946,1.846,1.118,1.660,28.652,-10.356
15:37:26:559,72.994,-0.361,-0.279,0.586,0.105,29.399,-7.390
15:37:26:617,73.052,0.276,-0.191,0.272,-0.986,29.560,-4.955
15:37:26:617,73.052,0.165,0.286,0.055,-0.604,28.817,1.328
15:37:26:666,73.101,0.277,0.351,0.124,0.187,28.084,3.045
15:37:26:691,73.126,0.151,-0.015,0.118,1.148,27.577,4.796
15:37:26:978,73.413,0.117,0.023,0.000,1.741,27.356,6.003
15:37:27:331,73.766,0.248,-0.004,-0.049,2.597,26.850,7.935
15:37:27:331,73.766,0.791,0.174,-0.761,7.233,28.040,21.591
15:37:27:332,73.767,0.793,0.620,-1.090,8.560,30.031,30.040
15:37:27:332,73.767,0.246,0.674,-0.624,8.997,32.347,35.942
15:37:27:434,73.869,0.235,0.123,-0.779,9.262,33.192,42.353
15:37:27:435,73.870,1.663,-1.586,-1.697,9.942,32.760,42.713
15:37:27:436,73.871,0.531,-1.452,-0.433,9.213,33.030,41.109
15:37:27:436,73.871,0.122,0.337,-0.061,1.008,65.569,0.856
15:37:27:582,74.017,0.191,0.148,0.000,1.766,65.113,2.684
15:37:28:028,74.463,0.070,0.125,-0.998,8.555,65.751,19.776
15:37:28:247,74.682,-0.016,0.340,-1.320,10.536,67.515,27.859
15:37:28:247,74.682,0.167,0.033,0.093,-1.478,95.280,-6.362
15:37:28:274,74.709,0.068,0.158,-0.025,-0.910,93.784,2.145
15:37:28:275,74.710,0.072,0.313,-0.138,-0.011,93.449,3.398
15:37:28:343,74.778,0.002,0.197,-0.356,2.574,92.217,9.217
15:37:28:508,74.943,-0.215,0.212,-0.741,4.717,92.556,16.021
15:37:28:509,74.944,-0.314,0.137,-0.868,5.747,93.171,20.051
15:37:28:509,74.944,0.228,-1.137,2.100,-0.589,92.687,-16.946
15:37:28:609,75.044,0.108,0.261,-0.147,-0.692,94.053,1.912
15:37:28:609,75.044,0.148,0.048,-0.089,-0.092,93.636,3.309
15:37:28:667,75.102,0.057,0.032,-0.151,0.695,92.966,5.678
15:37:28:668,75.103,0.064,0.021,-0.297,1.462,92.496,8.319
15:37:28:669,75.104,0.100,0.135,-0.355,2.164,92.583,10.506
15:37:28:67,75.105,-0.147,0.298,-0.638,3.585,92.988,14.910
15:37:28:696,75.131,-0.310,0.236,-0.916,4.654,93.114,18.788
15:37:28:696,75.131,-0.532,0.459,-1.416,6.552,93.226,26.666
15:37:28:696,75.131,0.272,-0.697,-0.854,4.053,86.828,26.802
15:37:28:696,75.131,0.075,0.069,-0.082,0.156,100.186,3.884
15:37:28:799,75.234,-0.185,0.212,-0.521,2.720,98.768,13.447
15:37:28:799,75.234,-0.486,0.123,-0.766,4.223,98.609,18.953
15:37:28:8,75.235,-0.400,0.589,-1.156,6.034,98.298,26.703
15:37:28:801,75.236,-0.313,0.729,-0.457,7.196,98.584,33.111
15:37:28:841,75.276,-0.290,0.690,-0.247,7.876,98.863,41.722
15:37:28:896,75.330,-0.399,-0.747,-0.739,7.916,97.051,45.753
15:37:29:003,75.438,-0.550,-2.210,-1.868,10.444,93.215,47.034
15:37:29:003,75.438,0.160,-1.637,-0.283,8.754,91.241,43.387
15:37:29:214,75.649,0.148,-1.377,-0.837,7.227,89.700,39.251
15:37:29:214,75.649,0.295,-0.569,-0.812,2.319,87.444,24.054
15:37:29:238,75.673,0.446,0.356,-0.678,-0.431,87.472,12.588
15:37:29:239,75.674,0.303,0.127,2.697,-1.777,92.656,-16.341
15:37:29:42,75.855,0.506,-0.881,2.635,-1.043,94.330,-18.719
15:37:29:691,76.126,-0.850,0.918,0.239,-0.071,97.511,-17.742
15:37:29:691,76.126,0.169,-0.651,0.582,-0.083,100.646,-13.241
15:37:29:692,76.127,0.462,-0.167,0.990,-0.446,102.314,-9.987
15:37:29:693,76.128,0.078,0.080,-0.128,-1.337,102.347,-7.055
15:37:29:794,76.229,-0.036,0.173,0.123,-1.455,102.537,-5.527
15:37:29:795,76.230,-0.010,0.212,0.036,-1.091,101.974,-3.775
15:37:29:796,76.230,0.130,0.165,-0.065,-0.603,101.247,-2.755
15:37:30:19,76.625,0.047,0.314,-0.118,0.421,100.281,-1.115
15:37:30:19,76.625,0.084,0.318,-0.111,1.443,99.646,1.007
15:37:30:191,76.626,0.116,0.000,-0.089,2.297,99.391,2.521
15:37:30:192,76.627,-0.051,0.318,0.054,3.384,98.873,5.065
15:37:30:215,76.650,-0.029,0.200,-0.239,4.309,98.526,7.098
15:37:30:217,76.652,-0.011,0.166,-0.447,5.948,98.805,10.953
15:37:30:218,76.653,-0.387,0.106,-0.759,8.137,98.918,16.123
15:37:30:218,76.653,-0.604,0.085,-0.827,9.736,99.232,20.743
15:37:30:286,76.721,-0.564,0.814,-0.243,12.381,100.633,29.721
15:37:30:633,77.068,-0.434,0.407,-0.270,14.107,101.907,35.847
15:37:30:634,77.069,-0.119,-0.711,-0.611,6.570,101.899,27.327
15:37:30:634,77.069,-0.036,-0.026,-0.628,5.047,102.115,20.015
15:37:30:662,77.097,0.057,0.776,-0.708,3.243,102.137,8.096
15:37:30:662,77.097,0.309,1.602,0.563,2.055,104.135,-4.480
15:37:30:663,77.098,0.070,0.171,0.081,1.781,126.114,-3.686
15:37:30:664,77.099,-0.190,0.077,-0.202,6.379,122.926,5.657
15:37:31:317,77.752,-0.135,0.102,-0.353,7.942,123.198,8.957
15:37:31:317,77.752,-0.427,0.143,-0.429,9.915,123.955,13.708
15:37:31:317,77.752,-0.893,0.098,-0.462,11.364,124.620,17.964
15:37:31:391,77.826,-1.239,0.612,-0.624,13.726,126.219,26.456
15:37:31:392,77.827,-0.600,0.590,-0.198,15.401,127.905,32.999
15:37:31:425,77.859,-1.388,-1.919,-1.279,16.801,130.159,45.220
15:37:31:425,77.860,-0.482,0.235,0.132,5.455,160.044,-11.874
15:37:31:426,77.861,0.083,-0.009,-0.005,3.143,160.929,-8.131
15:37:31:494,77.929,0.348,0.226,0.272,2.857,161.533,-6.277
15:37:31:547,77.982,0.156,0.405,0.182,2.784,161.695,-4.059
15:37:31:628,78.063,0.077,0.081,0.049,3.122,161.157,-3.061
15:37:31:628,78.063,-0.040,0.240,-0.107,3.737,160.308,-1.485
15:37:31:706,78.141,-0.202,0.465,-0.189,4.437,159.703,0.594
15:37:31:706,78.141,-0.061,0.176,-0.166,5.044,159.395,2.163
15:37:31:784,78.219,-0.480,-0.277,0.512,15.391,162.280,47.259
15:37:31:81,78.244,-0.946,-1.013,-0.078,16.424,161.642,48.385
15:37:31:942,78.376,-0.940,-1.571,-0.280,14.042,162.223,43.765
15:37:31:943,78.377,-0.086,-1.403,-0.107,12.352,162.557,40.196
15:37:32:018,78.453,-0.858,-1.033,-0.191,9.749,161.996,31.660
15:37:32:291,78.726,-0.617,-0.616,-0.238,8.218,162.237,24.801
15:37:32:291,78.726,-0.523,-0.109,-0.079,6.300,163.030,13.257
15:37:32:291,78.726,-1.366,0.538,0.421,11.766,-179.493,27.059
15:37:32:292,78.727,-0.592,0.784,0.447,13.618,-178.185,36.681
15:37:32:493,78.928,-0.312,-0.236,0.539,14.313,-178.821,47.860
15:37:32:494,78.929,-1.392,-1.970,0.281,16.454,179.085,47.769
15:37:32:709,79.144,-0.863,-1.745,-0.087,14.988,178.773,44.832
15:37:32:71,79.145,-0.299,-1.167,-0.080,12.590,177.785,38.778
15:37:32:711,79.146,-0.628,-0.932,-0.152,10.742,176.857,33.087
15:37:32:737,79.172,-0.561,0.130,-0.160,6.011,176.378,11.537
15:37:32:737,79.172,-0.094,0.949,-0.099,4.767,177.198,3.621
15:37:32:738,79.173,2.623,0.488,0.025,4.065,-178.242,-13.555
15:37:32:739,79.174,2.434,-0.487,-0.211,4.769,-175.078,-18.459
15:37:32:754,79.189,-0.333,1.480,1.462,5.226,-168.833,-14.016
15:37:32:815,79.250,-0.238,0.252,0.024,4.881,-167.041,-9.452
15:37:32:815,79.250,-0.012,0.244,0.182,2.971,-166.923,-4.862
15:37:32:816,79.251,0.046,0.266,0.184,3.022,-166.940,-3.637
15:37:32:817,79.252,-0.105,0.174,-0.059,5.499,-169.353,2.458
15:37:33:149,79.584,-0.040,0.016,0.018,6.123,-169.568,3.855
15:37:33:227,79.662,-0.224,0.074,0.063,7.089,-170.215,6.241
15:37:33:26,79.695,-0.505,0.183,0.369,17.892,-166.649,40.296
15:37:33:261,79.696,-0.639,-0.896,0.172,10.837,-167.830,28.319
15:37:33:265,79.700,-0.455,-0.317,0.090,8.277,-167.316,17.433
15:37:33:307,79.742,0.409,1.205,-0.131,5.250,-164.733,-1.726
15:37:33:308,79.743,-1.760,0.527,-0.154,6.960,-145.210,-14.657
15:37:33:333,79.768,-0.129,0.209,0.772,7.368,-141.259,-10.496
15:37:33:334,79.769,-0.176,0.353,0.083,6.494,-140.948,1.763
15:37:33:412,79.847,-0.166,0.099,0.033,7.317,-141.362,3.728
15:37:33:439,79.874,-0.164,0.086,0.200,7.953,-141.532,5.221
15:37:33:439,79.874,-0.289,0.074,0.290,9.068,-141.868,8.058
15:37:33:577,80.011,-0.272,0.117,0.406,10.796,-141.787,12.072
15:37:33:577,80.012,-0.428,0.086,0.686,12.178,-141.636,15.481
15:37:33:58,80.014,-0.516,0.003,0.960,14.543,-141.098,22.144
15:37:33:58,80.015,-0.413,0.594,0.923,17.164,-139.495,31.224
15:37:34:382,80.817,0.186,0.833,0.347,18.099,-137.058,37.533
15:37:34:967,81.402,-0.012,0.225,0.776,18.785,-135.713,44.188
15:37:34:968,81.403,-0.308,-0.981,0.561,19.276,-135.792,45.779
15:37:34:969,81.404,-0.562,-1.366,0.727,19.108,-135.815,44.207
15:37:34:97,81.405,-0.242,-1.401,0.236,17.786,-135.279,41.741
15:37:35:038,81.473,-0.728,0.308,-1.203,7.612,-118.176,-14.270
15:37:35:068,81.503,1.276,2.167,-3.112,7.633,-114.219,-9.454
15:37:35:069,81.504,-0.343,0.282,-1.022,6.492,-112.282,-5.679
15:37:35:277,81.712,0.056,0.057,-0.250,5.261,-112.330,-3.093
15:37:35:277,81.712,0.104,0.185,-0.047,4.663,-111.683,-0.606
15:37:35:623,82.058,0.146,0.263,0.091,4.753,-111.821,1.415
15:37:35:624,82.058,-0.080,0.125,0.028,5.224,-112.297,2.476
15:37:35:625,82.059,-0.121,0.413,0.161,6.200,-112.684,4.260
15:37:35:625,82.060,-0.195,0.437,0.272,6.770,-112.828,5.659
15:37:35:825,82.260,-0.154,-0.083,0.173,7.717,-113.092,7.842
15:37:36:069,82.504,-0.026,-0.026,0.269,8.561,-113.094,10.311
15:37:36:07,82.505,0.057,0.063,0.309,9.288,-112.985,12.337
15:37:36:071,82.506,-0.243,0.066,0.475,10.983,-112.926,16.037
15:37:36:071,82.506,-0.126,0.065,0.869,12.470,-112.761,19.290
15:37:36:166,82.601,0.065,0.032,1.018,15.097,-112.060,25.941
15:37:36:247,82.682,-0.018,0.779,1.423,18.100,-110.554,35.015
15:37:36:248,82.683,0.152,0.586,1.296,20.031,-109.226,41.745
15:37:36:332,82.767,0.081,-1.604,1.315,21.554,-88.764,51.467
15:37:36:333,82.768,-0.047,0.151,0.171,2.618,-81.496,8.331
15:37:36:334,82.769,0.006,-0.076,0.274,3.251,-81.766,10.284
15:37:36:35,82.785,0.061,-0.022,0.351,4.459,-81.949,14.558
15:37:36:375,82.810,0.217,0.164,0.431,5.782,-81.449,18.392
15:37:36:747,83.182,0.395,0.128,0.661,7.176,-81.394,21.621
15:37:36:748,83.183,0.540,0.322,1.028,16.797,-82.099,42.989
15:37:37:19,83.625,-0.326,-1.508,0.118,17.639,-88.602,50.018
15:37:37:4,83.835,-0.155,-1.265,0.513,11.773,-89.949,43.273
15:37:37:82,84.255,0.132,0.167,-0.068,0.615,-79.521,0.498
15:37:38:031,84.466,0.069,0.194,-0.012,0.724,-80.011,1.565
15:37:38:059,84.494,0.041,0.195,0.082,1.257,-80.947,2.966
15:37:38:06,84.495,0.041,0.413,0.239,1.814,-81.536,4.040
15:37:38:092,84.527,0.398,0.860,0.189,13.772,-81.035,44.170
15:37:38:093,84.528,-0.244,-0.867,0.909,7.351,-89.189,31.266
15:37:38:094,84.529,-0.266,-0.249,0.890,5.384,-89.833,23.638
15:37:38:094,84.529,-0.338,0.678,0.706,3.037,-90.069,11.146
15:37:38:322,84.757,-0.522,1.725,-0.799,2.159,-90.010,2.666
15:37:38:323,84.758,0.121,-0.930,-0.956,2.189,-84.606,-14.826
15:37:39:501,85.936,1.754,1.725,-1.725,2.235,-81.131,-11.813
15:37:39:894,86.329,-0.064,-0.206,-0.259,1.646,-77.132,-3.793
15:37:40:217,86.652,0.003,-0.026,0.161,1.111,-77.336,-1.160
15:37:40:218,86.653,0.063,0.184,-0.051,1.142,-77.570,0.826
15:37:40:218,86.653,-0.129,0.126,0.016,1.350,-78.063,1.967
15:37:40:219,86.654,0.046,0.308,0.094,1.676,-78.797,3.397
15:37:40:238,86.673,0.030,0.247,0.140,2.349,-79.176,4.331
15:37:40:238,86.673,-0.004,0.354,0.353,3.118,-80.029,6.062
15:37:40:322,86.757,0.422,-0.571,0.136,16.680,-80.864,50.531
15:37:40:322,86.757,0.387,-2.645,1.950,18.794,-84.241,50.568
15:37:40:323,86.758,0.136,0.055,0.299,7.006,-70.295,11.305
15:37:40:349,86.784,-0.019,0.282,-0.205,1.399,-46.393,1.431
15:37:40:35,86.785,0.285,0.039,0.184,5.965,-48.623,11.945
15:37:40:351,86.786,0.139,0.117,0.351,6.842,-48.580,13.988
15:37:40:351,86.786,0.433,0.068,0.482,8.650,-48.173,17.860
15:37:40:473,86.908,0.877,0.096,0.542,9.987,-47.953,21.083
15:37:40:474,86.909,1.183,0.330,0.518,12.072,-46.867,28.134
15:37:40:58,87.015,0.790,0.605,0.069,14.424,-44.743,37.304
15:37:40:58,87.015,0.534,0.303,0.181,15.163,-43.148,43.109
15:37:40:689,87.124,0.242,-1.329,0.171,12.880,-42.337,43.084
15:37:40:691,87.126,0.521,-1.103,0.437,10.944,-42.499,37.506
15:37:40:766,87.201,0.103,0.161,0.143,-2.955,9.020,4.256
15:37:40:766,87.201,0.313,0.251,0.121,-1.952,8.064,6.164
15:37:40:767,87.202,0.208,0.023,0.212,-0.767,7.461,8.307
15:37:40:789,87.224,0.131,0.027,0.127,0.003,7.234,9.777
15:37:40:79,87.225,0.228,-0.002,0.015,1.126,6.676,12.158
15:37:41:03,87.465,0.518,0.097,0.101,2.031,6.255,14.024
15:37:41:03,87.465,0.639,0.125,0.074,3.798,6.314,17.847
15:37:41:03,87.465,1.132,0.075,-0.243,5.682,6.631,23.368
15:37:41:189,87.624,1.235,-0.051,-0.423,6.825,7.377,28.432
15:37:41:189,87.624,0.767,0.916,-0.687,8.152,9.689,38.250
15:37:41:189,87.624,1.243,0.368,-0.774,8.170,11.379,44.736
15:37:41:19,87.625,1.242,0.343,-0.886,7.289,11.855,52.655
15:37:41:478,87.913,-0.838,-1.456,-0.072,9.357,11.259,53.929
15:37:41:479,87.914,1.057,-1.315,-0.433,7.071,11.378,49.101
15:37:41:479,87.914,0.521,-1.387,-0.228,5.040,11.869,43.515
15:37:41:479,87.914,0.892,-1.397,-0.214,3.655,12.096,37.182
15:37:41:759,88.194,0.892,-0.738,-0.119,2.018,13.346,25.495
15:37:41:842,88.277,0.781,0.378,-0.169,1.143,14.623,16.851
15:37:41:843,88.278,0.304,1.230,-0.114,0.391,18.220,3.041
15:37:41:843,88.278,-1.761,1.679,0.647,0.772,22.755,-9.779
15:37:41:863,88.298,-2.914,0.312,0.866,1.371,26.080,-15.701
15:37:41:976,88.411,-2.615,-0.481,1.393,2.335,32.209,-19.625
15:37:41:977,88.412,-2.353,-0.529,1.506,2.398,35.947,-18.471
15:37:41:977,88.412,-3.422,1.765,1.699,2.405,41.107,-12.337
15:37:41:978,88.413,-0.685,-0.129,0.663,2.306,41.842,-10.131
15:37:42:073,88.508,0.561,-0.398,-0.238,-0.486,42.164,-6.121
15:37:42:361,88.796,-0.368,0.199,0.321,-1.035,43.492,-3.637
15:37:42:808,89.243,0.296,-0.008,0.070,1.920,39.946,3.585
15:37:42:947,89.381,0.233,-0.005,-0.035,2.885,39.548,5.628
15:37:42:948,89.382,0.402,0.110,-0.248,6.237,40.643,12.878
15:37:42:949,89.383,0.523,0.188,-1.066,9.561,42.443,21.709
15:37:42:949,89.384,0.233,0.763,-1.182,12.030,44.592,30.399
15:37:43:334,89.769,-0.172,0.767,-0.565,13.529,47.434,37.043
15:37:43:394,89.828,-0.094,0.735,-0.896,13.822,50.118,44.831
15:37:43:395,89.829,-0.465,0.827,0.202,0.247,65.555,5.529
15:37:43:395,89.830,-0.565,1.094,1.446,-0.937,69.545,-6.075
15:37:43:396,89.831,-0.789,0.448,2.545,-0.964,73.129,-14.112
15:37:43:596,90.031,-0.642,-0.396,2.065,-0.556,75.392,-17.033
15:37:43:785,90.220,0.228,0.140,-0.024,-0.369,79.372,4.060
15:37:43:786,90.221,0.133,-0.028,-0.295,0.303,78.282,6.712
15:37:43:787,90.221,0.215,0.015,-0.362,0.960,78.055,8.924
15:37:44:146,90.581,0.043,0.210,-0.433,2.239,78.379,13.277
15:37:44:201,90.636,-0.034,0.160,-1.378,5.037,78.501,24.194
15:37:44:202,90.637,-0.207,0.669,-0.803,6.420,80.225,33.999
15:37:44:235,90.670,0.043,0.781,-0.351,6.564,81.554,40.284
15:37:44:235,90.670,-0.181,-0.181,-0.868,5.953,81.240,47.148
15:37:44:236,90.671,-0.090,-2.334,-1.948,7.143,79.896,48.236
15:37:44:237,90.672,0.344,-0.433,-0.643,1.561,76.598,22.817
15:37:44:357,90.792,-0.026,0.299,-0.032,-2.973,97.106,-3.757
15:37:44:383,90.818,0.252,-0.538,-0.865,0.033,81.423,22.373
15:37:44:495,90.930,0.324,0.458,-0.609,-1.888,81.553,14.100
15:37:44:496,90.931,0.432,1.150,0.080,-4.356,82.055,0.409
15:37:44:496,90.931,0.846,1.337,2.360,-6.090,82.910,-12.277
15:37:44:592,91.027,0.447,0.645,3.223,-6.620,83.508,-18.161
15:37:44:672,91.107,0.183,0.112,-0.407,0.062,89.691,9.106
15:37:44:723,91.158,0.034,0.184,-0.574,1.565,89.734,13.288
15:37:44:76,91.195,-0.219,0.164,-0.947,3.306,90.057,19.039
15:37:44:761,91.196,-0.423,0.241,-0.983,4.682,90.079,24.159
15:37:44:761,91.196,-0.345,0.907,-0.844,6.766,90.797,34.072
15:37:44:762,91.197,0.145,0.120,-0.474,-1.631,87.688,16.017
15:37:44:778,91.213,0.485,0.938,2.680,-4.798,90.951,-14.993
15:37:44:779,91.214,0.069,0.402,2.822,-4.584,91.261,-19.451
15:37:44:829,91.264,0.531,0.156,1.008,-3.130,97.698,-13.322
15:37:44:858,91.293,-0.191,0.183,-0.477,-0.803,94.699,11.074
15:37:44:859,91.294,-0.421,0.179,-0.643,0.619,94.684,16.593
15:37:44:916,91.351,-0.444,0.106,-1.044,2.407,93.935,23.917
15:37:44:916,91.351,-0.535,1.085,-0.515,3.741,93.571,30.467
15:37:44:917,91.352,-0.221,1.370,-0.410,4.430,93.842,40.169
15:37:44:918,91.353,-0.281,-0.430,-0.459,4.144,92.359,44.435
15:37:44:938,91.373,-0.240,-1.258,-1.217,4.582,89.495,47.150
15:37:44:938,91.373,0.240,-1.895,-0.368,1.555,88.341,45.744
15:37:44:968,91.403,0.307,-1.596,-0.692,-0.243,87.794,43.115
15:37:44:969,91.404,0.389,0.400,-0.188,-4.685,86.455,7.798
15:37:44:97,91.405,0.403,0.985,0.535,-4.697,85.517,-0.399
15:37:44:971,91.406,0.202,0.198,3.060,-4.785,84.868,-16.033
15:37:44:989,91.424,0.197,-0.164,0.768,-4.229,93.176,-8.461
15:37:44:99,91.425,0.114,0.105,0.172,-4.619,93.375,-6.839
15:37:45:043,91.478,0.157,0.092,-0.029,-2.438,89.836,2.265
15:37:45:23,91.665,0.135,0.078,-0.113,-1.979,89.342,3.733
15:37:45:231,91.666,0.213,0.114,-0.243,-1.167,88.460,6.289
15:37:45:232,91.667,0.128,0.168,-0.513,-0.050,88.006,9.675
15:37:45:336,91.771,-0.262,0.189,-0.990,2.469,88.020,19.127
15:37:45:337,91.772,-0.474,0.942,-1.220,3.672,87.584,24.641
15:37:45:338,91.773,-0.189,0.997,-0.131,4.952,88.413,34.927
15:37:45:338,91.773,-0.363,0.709,-0.374,4.824,88.767,41.061
15:37:45:36,91.795,-0.312,-0.860,-0.457,4.982,86.403,46.391
15:37:45:36,91.795,0.029,-1.575,-1.031,6.462,84.254,45.903
15:37:45:361,91.796,0.105,-1.643,-0.231,5.029,84.483,43.305
15:37:45:546,91.981,0.088,-1.120,-0.609,2.867,84.127,37.066
15:37:45:546,91.981,0.256,-0.857,-0.589,1.443,84.271,31.338
15:37:45:547,91.982,0.206,-0.444,-0.651,-0.657,85.669,20.648
15:37:45:548,91.983,0.193,0.414,-0.698,-1.855,87.395,8.506
15:37:45:651,92.086,0.219,1.237,-0.037,-2.228,89.293,-0.270
15:37:45:653,92.088,0.260,1.450,2.056,-1.605,92.450,-12.628
15:37:45:653,92.088,0.025,0.076,2.979,-0.814,94.237,-18.594
15:37:45:654,92.089,0.369,-1.453,3.777,0.589,97.983,-22.763
15:37:45:856,92.291,0.690,0.493,0.004,1.393,101.957,-20.488
15:37:45:857,92.292,0.847,0.527,3.358,1.833,105.005,-16.636
15:37:45:961,92.396,0.311,0.053,0.441,1.203,106.922,-12.784
15:37:45:961,92.396,0.319,-0.225,-0.143,-0.203,107.008,-10.254
15:37:46:198,92.633,0.124,0.232,0.360,-0.835,108.022,-7.658
15:37:46:198,92.633,0.030,0.183,0.107,-0.798,108.083,-6.362
15:37:46:482,92.917,0.045,0.069,0.129,-0.509,107.381,-4.886
15:37:46:614,93.049,0.091,0.307,-0.033,0.222,106.518,-3.396
15:37:46:83,93.265,0.081,0.408,-0.098,0.715,106.031,-2.184
15:37:46:831,93.266,0.123,0.049,-0.113,1.654,105.295,-0.288
15:37:46:831,93.266,0.122,0.066,-0.072,2.306,104.953,0.989
15:37:46:911,93.346,0.036,0.013,-0.161,3.212,104.343,3.028
15:37:46:912,93.347,0.137,0.016,-0.279,4.305,104.066,5.401
15:37:46:913,93.348,-0.090,0.163,-0.349,5.242,104.264,7.514
15:37:46:914,93.349,-0.323,0.234,-0.514,6.842,104.841,11.798
15:37:46:932,93.367,-0.622,0.276,-0.837,8.113,105.114,15.611
15:37:46:932,93.367,-0.992,0.738,-0.941,10.200,105.701,23.341
15:37:47:278,93.713,-0.257,0.567,-0.046,11.738,107.167,29.935
15:37:47:279,93.714,-0.339,0.494,-0.274,13.005,109.232,39.229
15:37:47:28,93.715,-0.394,-0.634,-0.164,12.112,110.124,45.249
15:37:47:281,93.716,-0.929,-1.679,-1.492,13.099,110.442,45.415
15:37:47:375,93.810,-0.092,-1.379,-0.207,11.187,111.928,42.435
15:37:47:4,93.835,-0.396,-1.305,-0.548,9.595,112.918,39.086
15:37:47:487,93.922,-0.331,-0.979,-0.488,7.098,113.813,31.537
15:37:47:488,93.922,-0.285,-0.484,-0.444,5.015,115.797,21.667
15:37:47:488,93.923,-0.314,-0.053,-0.368,4.210,117.195,14.124
15:37:47:594,94.029,1.478,2.403,0.936,5.963,137.940,-14.627
15:37:47:595,94.030,0.860,0.202,0.279,5.330,138.297,-12.818
15:37:47:595,94.030,-0.702,0.522,0.098,14.749,140.398,24.002
15:37:47:596,94.031,-0.669,-1.223,-0.111,13.336,149.717,38.845
15:37:47:77,94.205,0.822,1.185,0.761,5.543,156.003,-3.765
15:37:47:874,94.309,2.162,0.853,0.985,4.833,157.633,-14.023
15:37:48:245,94.680,2.578,-1.182,-0.045,4.320,164.203,-19.838
15:37:48:246,94.681,0.929,1.636,0.209,5.558,171.452,-15.354
15:37:48:636,95.071,0.367,0.457,-0.480,5.260,174.255,-12.321
15:37:49:107,95.542,0.197,-0.261,-0.006,3.632,176.167,-8.340
15:37:49:134,95.569,0.235,0.161,0.053,3.045,176.594,-6.451
15:37:49:221,95.656,0.120,0.250,0.143,2.826,176.691,-4.322
15:37:49:222,95.657,0.090,0.138,0.123,3.072,175.869,-2.784
15:37:49:223,95.658,-0.778,0.170,0.305,9.279,172.984,14.664
15:37:49:223,95.658,-1.069,0.258,0.219,11.253,173.032,21.444
15:37:49:326,95.761,-0.464,0.586,0.408,12.814,172.994,27.156
15:37:49:327,95.762,-0.404,0.500,0.166,14.858,174.477,36.804
15:37:49:421,95.856,-0.772,-0.899,-0.096,9.024,175.347,31.746
15:37:49:457,95.892,-0.648,-0.499,-0.063,6.893,176.254,21.447
15:37:49:458,95.893,1.237,1.413,0.149,4.557,176.428,-7.534
15:37:49:459,95.894,2.642,0.942,-0.118,4.106,176.876,-17.724
15:37:49:46,95.895,2.963,-0.393,0.213,3.841,178.641,-22.632
15:37:49:658,96.093,2.568,-1.093,-0.539,4.014,-179.707,-22.274
15:37:49:819,96.254,-0.718,1.518,1.041,4.439,-174.706,-16.609
15:37:49:82,96.255,-0.110,0.470,0.026,3.560,-173.738,-1.953
15:37:49:875,96.310,-0.324,0.067,0.041,6.423,-176.450,6.885
15:37:49:875,96.310,-0.828,-1.054,-0.084,11.098,-179.449,29.601
15:37:49:876,96.311,-0.860,-0.500,-0.008,8.833,-178.588,18.518
15:37:50:027,96.462,-0.267,0.062,0.069,9.957,-162.475,4.694
15:37:50:078,96.513,2.275,-0.398,-1.152,9.284,-148.625,-19.467
15:37:50:105,96.540,2.114,-0.764,-1.276,10.310,-143.272,-21.121
15:37:50:166,96.601,3.041,1.227,-2.806,10.724,-134.282,-13.676
15:37:50:167,96.602,-0.097,0.101,-0.312,9.877,-132.453,-10.066
15:37:50:167,96.602,-0.318,-0.295,0.358,8.336,-132.161,-7.226
15:37:50:168,96.603,0.189,0.155,0.019,7.502,-131.316,-4.926
15:37:50:192,96.627,0.203,0.252,0.035,7.391,-131.519,-2.974
15:37:50:193,96.628,0.185,-0.012,0.076,7.723,-132.304,-2.087
15:37:50:193,96.628,-0.022,0.218,0.095,8.384,-133.416,-0.737
15:37:50:194,96.629,-0.166,0.393,0.081,8.853,-133.887,0.308
15:37:50:219,96.654,-0.015,0.034,0.107,10.487,-134.880,4.190
15:37:50:22,96.655,-0.040,0.058,0.241,11.030,-135.212,5.823
15:37:50:22,96.655,-0.292,0.123,0.254,12.249,-135.608,8.979
15:37:50:297,96.732,-0.459,0.177,0.917,15.421,-135.727,17.716
15:37:50:297,96.732,-0.404,-0.851,0.651,14.776,-128.811,26.660
15:37:50:314,96.749,1.579,1.120,-1.345,11.892,-118.451,-10.495
15:37:50:789,97.224,1.340,-0.209,-2.500,11.799,-116.540,-15.058
15:37:50:842,97.277,0.280,-0.464,0.879,11.641,-102.848,-7.720
15:37:51:269,97.704,0.155,0.216,0.135,8.286,-101.546,1.976
15:37:51:269,97.704,-0.006,0.119,0.100,8.992,-102.304,3.113
15:37:51:27,97.705,-0.081,0.251,0.205,10.925,-103.102,6.679
15:37:51:27,97.705,0.000,-0.007,0.246,11.998,-103.192,8.968
15:37:51:396,97.831,0.093,0.093,0.239,13.240,-102.940,11.841
15:37:51:396,97.831,0.060,-0.005,0.482,14.302,-102.951,13.977
15:37:51:582,98.017,0.081,-0.014,0.721,16.337,-102.371,18.375
15:37:51:582,98.017,0.398,-0.062,0.901,17.985,-101.559,22.541
15:37:51:583,98.018,0.409,0.009,1.079,20.848,-100.048,30.633
15:37:51:864,98.299,0.577,0.827,0.805,22.882,-98.412,37.169
15:37:51:899,98.334,0.395,0.428,0.672,25.715,-96.282,46.527
15:37:51:9,98.335,0.349,-0.457,0.924,27.531,-97.296,52.388
15:37:51:9,98.335,-0.234,-2.362,2.103,28.555,-97.840,52.602
15:37:51:901,98.336,0.012,-1.356,0.493,23.961,-97.605,50.003
15:37:52:266,98.701,-0.023,-1.476,0.808,20.216,-97.654,46.052
15:37:52:267,98.702,-0.081,-1.014,0.848,15.062,-98.099,36.859
15:37:52:267,98.702,-0.030,-0.236,0.718,11.265,-98.501,25.442
15:37:52:268,98.703,-0.103,0.046,0.882,9.374,-99.082,16.868
15:37:52:32,98.755,-0.075,1.420,0.137,7.177,-98.988,3.525
15:37:52:32,98.755,0.052,1.743,-1.665,6.425,-98.653,-4.547
15:37:52:321,98.756,0.084,0.324,0.301,5.077,-85.000,5.824
15:37:52:339,98.774,-0.197,-0.124,0.885,8.855,-94.087,21.788
15:37:52:34,98.775,-0.303,0.304,0.945,6.972,-94.783,12.994
15:37:52:419,98.854,-0.235,1.737,-0.480,4.846,-94.299,-0.221
15:37:52:419,98.854,-0.110,1.732,-2.060,4.267,-93.435,-8.053
15:37:52:47,98.905,-0.788,-0.985,-2.579,4.787,-87.380,-16.729
15:37:52:471,98.906,1.703,1.803,0.797,5.226,-83.842,-13.675
15:37:52:519,98.954,0.011,0.225,0.178,4.629,-81.871,4.563
15:37:52:574,99.009,0.165,0.334,0.265,5.237,-82.384,5.707
15:37:52:634,99.069,0.168,-0.003,0.231,7.773,-84.358,10.962
15:37:52:635,99.070,0.353,-0.824,0.885,23.067,-84.703,51.235
15:37:52:635,99.070,0.029,-1.606,0.860,24.185,-86.225,51.431
15:37:52:636,99.071,-0.026,-1.418,0.268,20.487,-87.069,48.334
15:37:52:66,99.095,-0.016,-1.251,0.581,17.467,-88.114,44.179
15:37:52:661,99.096,-0.150,-0.964,0.631,13.084,-89.875,35.294
15:37:52:662,99.097,-0.130,-0.129,0.034,1.638,-75.559,0.264
15:37:52:663,99.098,0.071,0.219,-0.081,1.442,-75.386,1.951
15:37:52:844,99.279,0.103,0.165,-0.005,1.610,-75.665,4.046
15:37:52:845,99.280,0.052,0.185,0.099,2.196,-76.431,5.781
15:37:52:846,99.281,0.025,0.202,0.258,2.734,-76.842,6.900
15:37:52:847,99.282,0.137,0.181,0.127,3.444,-77.237,8.732
15:37:52:891,99.326,0.118,-0.039,0.088,4.088,-77.600,9.917
15:37:52:891,99.326,0.105,0.085,0.188,4.972,-78.443,11.807
15:37:52:949,99.384,0.024,0.001,0.309,5.882,-79.347,13.920
15:37:52:95,99.385,0.027,-0.008,0.444,6.660,-79.740,15.766
15:37:52:95,99.385,0.299,0.194,0.599,8.084,-79.822,19.745
15:37:52:951,99.386,0.443,0.102,1.036,9.291,-79.912,23.365
15:37:53:101,99.536,0.460,0.002,1.214,11.453,-79.928,30.588
15:37:53:101,99.536,0.753,0.740,0.662,13.858,-79.130,40.306
15:37:53:175,99.610,0.408,0.261,0.708,15.217,-78.495,46.642
15:37:53:311,99.746,0.903,0.460,0.949,16.798,-80.195,53.681
15:37:53:312,99.747,0.318,-2.785,1.509,19.230,-82.525,54.804
15:37:53:39,99.825,-0.248,-1.733,0.493,19.511,-84.733,52.965
15:37:53:39,99.825,-0.155,-1.249,0.263,17.517,-85.813,49.937
15:37:53:552,99.987,-0.214,-1.230,0.657,13.862,-87.446,42.096
15:37:53:553,99.988,-0.242,-0.583,0.637,10.382,-88.327,31.902
15:37:53:554,99.989,-0.184,-0.220,0.693,8.651,-88.799,24.114
15:37:53:555,99.990,-0.021,0.768,0.603,6.768,-88.502,11.377
15:37:53:655,100.090,0.023,1.443,-0.248,6.101,-87.385,2.978
15:37:53:656,100.091,0.156,1.294,-1.820,6.054,-85.850,-7.981
15:37:53:656,100.091,0.007,-0.314,-2.706,6.156,-84.272,-14.629
15:37:53:711,100.146,-0.370,-0.423,-2.548,5.831,-82.658,-16.122
15:37:53:712,100.147,-0.644,-0.654,-1.086,5.619,-79.420,-13.409
15:37:53:713,100.148,-2.008,1.674,-3.173,5.334,-76.103,-9.496
15:37:53:713,100.148,-0.676,-0.182,-0.589,5.311,-73.067,-3.571
15:37:53:729,100.163,0.021,-0.385,0.012,3.918,-72.809,-0.687
15:37:53:764,100.199,0.240,0.266,-0.134,3.204,-72.446,1.811
15:37:53:765,100.200,0.164,0.272,-0.076,3.260,-72.720,4.083
15:37:53:765,100.200,0.004,-0.072,0.060,3.864,-73.245,5.203
15:37:53:766,100.201,0.081,0.360,0.133,4.806,-73.741,6.686
15:37:53:86,100.295,0.022,0.452,0.307,5.322,-74.086,7.772
15:37:54:078,100.513,0.040,0.069,0.319,9.004,-76.275,15.536
15:37:54:078,100.513,0.253,0.100,0.653,10.057,-76.496,17.800
15:37:54:078,100.513,0.384,0.090,0.810,11.793,-76.507,22.445
15:37:54:079,100.514,0.332,0.553,0.158,16.265,-73.202,44.772
15:37:54:624,101.059,0.850,0.502,0.660,17.395,-73.149,50.283
15:37:54:625,101.060,0.043,-1.050,0.697,14.673,-80.206,35.304
15:37:54:862,101.297,0.104,-0.287,0.601,11.230,-80.091,24.807
15:37:54:863,101.298,0.169,0.194,0.586,9.369,-79.708,17.270
15:37:54:864,101.299,-0.069,1.506,-0.448,7.192,-77.824,5.600
15:37:55:04,101.475,-0.520,1.316,-1.932,6.493,-74.834,-4.463
15:37:55:149,101.584,-0.569,0.277,-2.627,6.815,-72.146,-8.521
15:37:55:15,101.585,-0.710,-0.177,-1.938,7.060,-67.116,-10.334
15:37:55:382,101.817,0.429,0.663,-1.873,6.961,-64.154,-8.348
15:37:55:645,102.080,0.997,1.039,-0.149,6.683,-59.750,-3.137
15:37:55:88,102.315,0.108,-0.618,-0.310,5.833,-59.070,-1.112
15:37:56:329,102.764,0.054,-0.109,0.109,4.623,-59.241,1.996
15:37:56:33,102.765,0.128,0.223,-0.133,4.626,-59.287,4.138
15:37:56:562,102.997,0.200,0.176,0.053,4.688,-59.690,5.237
15:37:56:719,103.154,0.035,0.189,0.119,5.286,-60.282,6.543
15:37:56:966,103.401,0.186,0.441,0.300,6.062,-60.679,7.499
15:37:56:966,103.401,0.175,0.343,0.441,7.393,-61.292,9.405
15:37:56:966,103.401,0.089,0.096,0.322,8.743,-61.645,11.818
15:37:56:967,103.402,0.725,-0.077,0.562,14.267,-60.126,24.537
15:37:57:064,103.499,1.048,0.168,0.622,16.825,-58.775,31.902
15:37:57:065,103.500,0.988,0.787,0.414,18.788,-57.336,38.030
15:37:57:271,103.706,0.870,0.152,0.715,21.502,-54.945,47.284
15:37:57:692,104.127,0.087,0.121,0.066,2.670,-32.812,6.323
15:37:57:722,104.157,0.197,0.400,0.254,3.804,-33.679,8.108
15:37:57:722,104.157,0.910,0.213,0.135,14.829,-31.726,33.339
15:37:57:744,104.179,1.553,0.806,0.211,16.295,-30.326,39.477
15:37:57:858,104.293,0.810,-1.586,0.308,18.158,-26.998,55.222
15:37:57:858,104.293,-0.654,1.237,-0.320,1.782,-18.061,6.069
15:37:57:858,104.293,-2.256,0.841,-0.677,0.982,-14.681,-3.408
15:37:57:859,104.294,-2.505,0.206,-0.532,0.686,-12.777,-7.257
15:37:57:989,104.424,0.148,0.059,-0.056,0.332,-0.250,12.586
15:37:57:99,104.425,0.272,-1.453,0.068,10.280,0.524,53.185
15:37:58:828,105.263,1.006,-0.005,-0.538,5.498,8.460,29.770
15:37:58:829,105.264,-1.804,1.523,0.558,-1.047,11.985,-8.484
15:37:58:83,105.265,0.440,-0.542,-0.055,-3.060,30.227,-3.275
15:37:58:831,105.266,0.270,0.341,0.102,-1.360,29.573,4.470
15:37:59:035,105.470,0.306,0.040,0.041,-0.500,29.036,6.177
15:37:59:036,105.471,0.219,0.100,-0.072,0.138,28.865,7.591
15:37:59:037,105.472,0.350,0.017,-0.157,1.232,28.633,10.102
15:37:59:056,105.491,0.473,0.042,-0.021,2.176,28.733,12.270
15:37:59:322,105.757,0.534,0.093,-0.220,3.862,29.136,16.461
15:37:59:323,105.758,0.439,-0.402,-0.282,-0.476,41.480,20.624
15:37:59:346,105.781,0.198,0.237,-0.022,-1.960,63.337,0.938
15:37:59:451,105.886,0.251,0.171,-0.019,-1.394,62.682,2.745
15:37:59:687,106.122,0.153,0.027,-0.015,-0.668,62.248,4.674
15:37:59:905,106.340,0.178,0.098,-0.189,-0.166,61.999,6.086
15:37:59:905,106.340,0.338,0.243,-0.431,1.738,61.850,11.070
15:37:59:906,106.341,0.295,0.260,-0.704,3.376,62.097,15.962
15:37:59:908,106.343,0.340,0.065,-1.303,5.071,62.592,22.977
15:38:00:114,106.549,0.424,0.365,-1.695,5.363,64.441,28.855
15:38:00:115,106.550,0.085,-0.807,-1.451,4.913,67.383,41.344
15:38:00:116,106.551,0.255,-1.428,-1.031,4.612,66.964,42.127
15:38:00:117,106.552,0.116,-1.356,-0.797,2.652,68.068,38.834
15:38:00:221,106.656,0.177,-1.193,-0.528,1.386,68.255,34.881
15:38:00:221,106.656,0.029,-1.545,-0.530,5.530,88.639,45.413
15:38:00:222,106.657,0.063,-1.319,-0.664,3.674,87.352,39.573
15:38:00:222,106.657,0.103,-1.131,-0.746,1.955,86.543,33.932
15:38:00:298,106.733,0.170,-0.555,-0.687,-0.442,86.074,23.676
15:38:00:299,106.734,0.158,-0.119,2.748,-5.833,88.382,-20.040
15:38:00:3,106.735,0.902,-0.783,2.473,-5.406,90.285,-20.016
15:38:00:301,106.735,-0.199,2.402,1.147,-5.000,94.917,-14.938
15:38:00:32,106.755,0.255,-0.267,-0.031,-5.080,97.374,-11.138
15:38:00:321,106.756,0.171,-0.002,-0.105,-3.528,93.735,3.535
15:38:00:394,106.829,0.074,-0.017,-0.176,-2.919,92.906,5.831
15:38:00:849,107.284,-0.228,0.202,-0.949,0.895,92.903,20.503
15:38:00:85,107.285,-0.352,-1.768,-1.730,5.064,88.254,44.726
15:38:00:851,107.286,0.191,-0.128,2.587,-6.166,85.842,-16.831
15:38:00:852,107.287,0.223,-0.328,0.016,-6.246,93.838,-6.785
15:38:00:873,107.308,0.030,0.258,0.204,-6.421,93.511,-5.474
15:38:00:874,107.309,0.082,0.189,0.026,-6.263,93.127,-4.310
15:38:00:875,107.310,-0.026,0.168,0.173,-6.057,92.217,-2.521
15:38:00:955,107.390,0.117,0.103,-0.427,-0.246,89.501,11.359
15:38:00:955,107.390,-0.229,0.290,-0.691,1.131,90.087,16.265
15:38:00:956,107.391,-0.298,0.292,-1.433,2.231,90.265,20.700
15:38:00:957,107.392,-0.594,0.400,-1.786,3.815,91.487,29.323
15:38:00:983,107.418,-0.250,0.935,-0.368,4.127,92.934,35.535
15:38:00:983,107.418,-0.604,-0.303,-0.530,4.377,91.768,42.223
15:38:00:984,107.419,-0.355,-1.717,-1.845,5.597,89.060,42.830
15:38:00:985,107.420,0.052,-1.475,-0.653,4.634,88.106,41.051
15:38:01:078,107.513,0.059,-1.325,-0.821,2.665,86.462,35.344
15:38:01:183,107.618,0.179,-1.112,-0.813,1.143,85.631,29.745
15:38:01:217,107.652,0.268,-0.457,-0.688,-1.462,85.148,19.647
15:38:01:218,107.653,0.381,0.239,-0.702,-3.846,85.675,8.057
15:38:01:219,107.654,0.501,0.931,-0.082,-5.158,86.895,-0.158
15:38:01:22,107.655,0.228,-0.077,2.909,-6.296,90.026,-16.809
15:38:01:239,107.674,0.099,0.078,-0.091,-2.723,97.506,3.864
15:38:01:239,107.674,0.161,-0.007,-0.210,-2.160,96.718,6.041
15:38:01:29,107.725,0.241,0.011,-0.267,-1.582,96.413,7.824
15:38:01:291,107.726,0.018,0.188,-0.366,-0.498,96.559,11.289
15:38:01:314,107.749,-0.319,0.255,-0.691,0.379,96.682,14.401
15:38:01:401,107.836,-0.458,0.261,-0.943,2.040,96.607,20.674
15:38:01:402,107.837,-0.443,0.838,-0.863,3.449,96.500,26.330
15:38:01:403,107.838,-0.117,0.892,-0.298,4.871,97.653,35.994
15:38:01:404,107.839,-0.442,0.572,-0.427,5.039,96.672,43.820
15:38:01:584,108.019,-0.187,-0.822,-0.573,5.558,94.741,46.128
15:38:01:585,108.020,-0.024,-1.707,-1.124,6.681,92.059,45.659
15:38:01:586,108.021,0.226,-1.613,-0.250,5.279,91.792,42.899
15:38:01:586,108.021,0.161,-1.175,-0.733,3.217,90.262,36.350
15:38:01:611,108.046,0.268,-0.754,-0.622,1.785,89.561,30.712
15:38:01:612,108.047,0.235,-0.319,-0.690,-0.281,89.271,20.458
15:38:01:613,108.048,0.328,0.518,-0.586,-1.861,89.257,8.727
15:38:01:691,108.126,0.457,1.257,1.868,-3.574,91.601,-10.988
15:38:01:692,108.126,0.243,-0.304,2.893,-3.681,92.810,-16.732
15:38:01:692,108.126,0.518,-0.370,2.831,-3.354,95.698,-21.344
15:38:01:693,108.127,0.976,-0.621,1.687,-2.851,98.701,-19.887
15:38:01:71,108.145,0.293,2.091,2.184,-2.670,101.877,-15.669
15:38:01:71,108.145,0.207,-0.433,0.690,-2.436,103.899,-11.799
15:38:01:734,108.169,0.431,-0.237,0.369,-3.374,103.984,-9.220
15:38:01:844,108.279,0.051,0.374,0.333,-3.904,103.979,-6.715
15:38:01:845,108.280,0.114,0.191,0.097,-3.703,103.625,-4.805
15:38:01:846,108.281,0.022,0.058,0.149,-3.505,103.243,-3.812
15:38:03:019,109.454,0.143,0.196,-0.042,-2.978,102.620,-2.569
15:38:03:108,109.543,0.083,0.282,-0.033,-2.472,102.242,-1.573
15:38:03:108,109.543,0.094,0.128,-0.076,-1.607,101.528,0.222
15:38:03:109,109.544,0.158,0.004,-0.043,-0.645,100.731,2.170
15:38:03:11,109.545,0.093,0.034,-0.135,-0.133,100.178,3.590
15:38:03:128,109.563,0.158,0.059,-0.262,0.802,99.634,6.017
15:38:03:129,109.564,0.054,0.261,-0.499,1.596,99.587,8.082
15:38:03:212,109.647,-0.215,0.291,-0.620,3.005,99.890,12.297
15:38:03:213,109.648,-0.457,0.357,-1.214,4.058,100.137,16.176
15:38:03:214,109.649,-0.764,0.589,-0.775,6.078,100.522,24.114
15:38:03:215,109.650,-0.064,0.799,0.246,7.305,102.685,33.788
15:38:03:239,109.674,-0.364,0.792,-0.278,7.127,103.410,39.179
15:38:03:239,109.674,-0.540,-0.900,-0.849,7.441,102.049,42.826
15:38:03:24,109.675,-0.808,-1.969,-1.813,8.738,100.681,43.060
15:38:03:241,109.676,-0.054,-1.438,-0.080,7.865,100.258,39.819
15:38:03:257,109.692,-0.156,-1.130,-0.584,6.864,99.438,36.060
15:38:03:29,109.725,-0.081,-0.942,-0.658,4.986,98.497,28.198
15:38:03:29,109.725,0.017,-0.250,-0.377,2.995,98.328,18.475
15:38:03:291,109.726,0.032,0.447,-0.414,1.926,97.823,11.472
15:38:03:315,109.750,0.204,0.841,-0.025,0.064,98.139,0.466
15:38:03:316,109.751,0.495,1.081,1.374,-0.870,99.592,-6.815
15:38:03:317,109.752,0.663,0.454,1.967,-1.628,102.509,-15.719
15:38:03:343,109.778,0.054,0.209,0.019,4.009,152.364,-6.809
15:38:03:344,109.779,0.037,0.355,-0.023,4.626,151.796,-5.252
15:38:03:345,109.780,-0.050,0.203,-0.093,5.214,151.229,-3.999
15:38:03:423,109.858,-0.175,0.082,-0.089,6.964,150.397,-0.335
15:38:03:423,109.858,-0.162,0.024,-0.178,8.079,150.120,2.201
15:38:03:424,109.859,-0.247,0.179,-0.190,9.086,150.316,4.379
15:38:03:425,109.860,-0.529,0.250,-0.019,10.915,150.875,8.639
15:38:03:573,110.008,-0.937,0.242,0.033,12.966,151.921,14.445
15:38:03:649,110.084,-1.456,0.481,0.097,14.449,153.010,19.604
15:38:03:685,110.120,-0.070,0.606,0.341,16.610,156.374,29.389
15:38:03:686,110.121,-0.232,0.725,0.337,17.480,158.185,35.304
15:38:03:687,110.122,-0.418,-0.748,0.144,17.541,158.670,41.456
15:38:03:687,110.122,-1.008,-1.251,-0.138,17.425,159.367,41.422
15:38:03:729,110.164,-0.437,-1.296,0.028,14.813,161.229,39.699
15:38:03:835,110.270,-0.770,-1.046,0.029,11.099,162.906,34.627
15:38:03:938,110.373,-0.529,-0.652,-0.031,9.068,163.820,29.310
15:38:05:751,112.186,-0.393,-0.364,-0.025,7.026,165.047,19.641
15:38:05:942,112.377,-0.522,0.302,-0.055,6.343,164.926,12.349
15:38:05:942,112.377,0.160,0.722,0.037,5.331,164.979,0.559
15:38:05:943,112.378,1.588,1.122,0.331,4.589,165.601,-10.958
15:38:05:944,112.379,2.569,0.264,0.487,4.332,166.624,-16.901
15:38:05:963,112.398,2.435,-0.449,0.355,4.595,169.781,-21.992
15:38:05:964,112.399,2.402,-0.614,-0.386,5.117,173.364,-22.128
15:38:06:042,112.477,1.414,2.100,0.421,6.300,-179.643,-17.670
15:38:06:043,112.478,0.019,0.230,0.247,6.005,-176.267,-13.564
15:38:06:459,112.894,0.017,-0.212,0.172,4.549,-175.479,-11.281
15:38:06:704,113.139,0.418,0.133,-0.001,4.129,-174.809,-8.509
15:38:06:705,113.140,0.154,0.064,0.030,4.143,-174.770,-7.006
15:38:06:808,113.243,-0.080,0.249,-0.017,5.056,-176.896,-3.073
15:38:06:809,113.244,-0.069,0.369,0.062,5.725,-177.480,-1.121
15:38:06:81,113.245,-0.005,0.120,0.025,6.368,-177.823,0.329
15:38:06:81,113.245,-0.159,0.090,0.059,7.213,-178.586,2.659
15:38:06:881,113.316,-0.294,0.085,-0.046,7.880,-179.168,4.442
15:38:06:882,113.317,-0.463,0.164,0.104,9.223,-179.352,7.965
15:38:06:983,113.418,-0.639,0.213,0.407,10.875,-179.050,13.018
15:38:07:771,114.206,-0.962,0.155,0.398,12.120,-178.816,17.400
15:38:07:827,114.262,-0.551,-0.582,0.404,12.302,-147.224,20.995
15:38:07:828,114.263,1.380,1.239,-0.790,10.514,-140.037,-9.816
15:38:08:639,115.074,2.155,0.157,-1.442,10.936,-137.119,-15.029
15:38:08:85,115.285,2.064,-0.502,-1.798,12.090,-130.774,-18.381
15:38:09:04,115.475,1.272,0.346,-1.008,11.988,-124.351,-16.526
15:38:09:04,115.475,-0.800,0.149,0.553,11.676,-120.446,-12.914
15:38:09:041,115.476,0.251,1.005,0.812,11.747,-117.038,-7.206
15:38:09:042,115.477,0.306,-0.524,-0.709,10.197,-116.762,-5.503
15:38:09:557,115.992,0.105,0.060,-0.121,8.485,-116.658,-2.495
15:38:09:584,116.019,-0.113,-1.448,0.192,21.806,-106.907,49.693
15:38:09:617,116.052,0.658,1.488,-1.390,9.897,-102.245,-1.161
15:38:09:618,116.053,0.628,0.612,-2.619,9.294,-99.731,-9.940
15:38:09:619,116.054,0.304,-0.460,-2.705,9.266,-95.222,-13.466
15:38:09:619,116.054,-0.348,-0.952,-2.283,9.002,-91.908,-12.147
15:38:10:007,116.441,0.458,2.328,-1.109,8.349,-86.117,-4.779
15:38:10:007,116.442,-0.362,-0.179,-0.644,7.473,-85.414,-3.310
15:38:10:168,116.603,-0.155,-0.109,0.056,5.708,-85.020,0.295
15:38:10:169,116.604,0.135,0.268,-0.167,5.233,-84.575,2.696
15:38:10:799,117.234,0.033,-0.044,0.438,9.368,-85.925,15.038
15:38:10:8,117.235,0.037,0.027,0.166,5.604,-77.497,11.495
15:38:10:8,117.235,0.113,-0.081,0.291,6.159,-77.875,13.043
15:38:10:801,117.236,0.425,0.106,0.568,9.557,-78.085,21.824
15:38:11:632,118.067,0.497,-0.099,0.977,9.874,-81.271,30.300
15:38:11:84,118.275,-0.369,-0.987,0.671,10.685,-91.779,32.239
15:38:12:578,119.013,0.312,1.487,-2.076,4.847,-90.936,-8.265
15:38:13:13,119.565,-0.355,-0.484,-3.277,4.386,-88.966,-15.326
15:38:13:13,119.565,-0.682,-0.649,-2.994,4.474,-86.578,-16.155
15:38:13:262,119.697,1.612,1.347,0.286,4.734,-81.504,-11.936
15:38:13:262,119.697,0.320,-0.189,-0.418,19.839,-79.396,55.516
15:38:13:598,120.033,0.074,-2.642,1.356,21.657,-81.284,54.923
15:38:13:713,120.148,-0.271,-1.922,0.277,17.973,-81.856,50.043
15:38:13:713,120.148,0.015,-1.192,0.518,15.389,-82.554,45.543
15:38:13:714,120.149,-0.044,-0.977,0.781,11.580,-83.854,36.385
15:38:13:715,120.150,-0.075,-0.345,0.663,9.393,-84.058,29.132
15:38:13:791,120.226,0.058,0.066,-0.045,2.274,-67.346,1.966
15:38:13:792,120.227,0.107,-0.026,0.175,5.721,-70.982,9.485
15:38:13:793,120.228,0.070,-0.064,0.338,6.729,-71.123,11.885
15:38:13:892,120.327,0.135,0.134,0.394,7.888,-70.504,15.167
15:38:13:893,120.328,0.236,0.131,0.417,8.938,-70.038,17.955
15:38:13:923,120.358,0.062,0.330,-0.267,1.922,-42.641,-0.074
15:38:13:924,120.359,0.051,0.264,0.092,2.142,-42.650,0.994
15:38:13:924,120.359,0.031,0.112,0.177,2.786,-43.000,2.439
15:38:13:925,120.360,0.149,0.332,0.265,3.560,-43.431,4.277
15:38:14:002,120.437,0.278,-0.006,0.121,2.361,-9.456,12.301
15:38:14:003,120.438,1.074,-1.922,-0.090,10.772,-5.479,51.483
15:38:14:004,120.439,0.579,-0.093,-0.359,7.110,7.053,49.642
15:38:14:004,120.439,0.026,0.110,0.108,-5.016,13.420,2.249
15:38:14:029,120.464,0.031,0.295,0.137,-4.321,12.593,4.048
15:38:14:029,120.464,0.168,-0.026,0.012,-1.344,10.677,10.270
15:38:14:029,120.464,0.325,-0.021,0.049,-0.370,10.018,12.437
15:38:14:029,120.464,-2.064,0.919,0.237,-2.017,16.772,-12.831
15:38:14:133,120.568,-2.463,-0.250,0.725,-1.684,20.848,-18.250
15:38:14:133,120.568,-2.931,-1.469,1.722,-0.854,28.631,-21.141
15:38:14:134,120.569,-2.745,-0.719,1.043,-0.504,32.857,-20.084
15:38:14:135,120.570,-2.230,1.043,2.650,-0.855,37.136,-13.224
15:38:14:205,120.640,-0.390,-0.501,0.510,-0.585,38.162,-10.460
15:38:14:438,120.873,0.205,-0.522,0.079,-2.719,37.992,-7.114
15:38:14:468,120.903,-0.397,0.315,0.251,-3.655,39.196,-4.916
15:38:14:469,120.904,0.072,-0.008,0.174,-3.803,39.573,-3.379
15:38:15:094,121.529,0.078,-0.005,0.136,-3.296,38.875,-1.921
15:38:15:227,121.662,0.131,0.221,0.099,-2.943,38.327,-0.986
15:38:15:445,121.880,0.177,0.291,0.094,-2.382,37.323,0.423
15:38:15:446,121.881,0.212,0.043,0.088,-1.834,36.070,1.945
15:38:15:447,121.882,0.109,0.035,0.080,-1.257,35.477,3.058
15:38:15:448,121.883,0.157,-0.056,-0.018,-0.377,34.607,4.786
15:38:15:55,121.985,0.258,-0.072,0.033,0.269,34.230,6.097
15:38:15:55,121.985,0.310,0.052,-0.006,1.349,34.176,8.500
15:38:15:625,122.060,1.306,0.572,-1.611,4.962,36.736,21.684
15:38:15:626,122.061,0.258,-0.050,-0.341,5.746,38.560,27.269
15:38:15:778,122.213,-0.278,0.845,0.150,5.990,42.352,36.351
15:38:16:128,122.563,0.785,-0.981,-1.173,5.726,43.357,38.647
15:38:16:128,122.563,0.472,-1.316,-0.738,5.233,45.183,38.333
15:38:16:129,122.564,0.358,-1.157,-0.677,3.581,46.933,34.461
15:38:16:13,122.565,0.236,-1.131,-0.435,2.520,48.423,30.403
15:38:16:198,122.633,0.202,-0.808,-0.707,0.781,51.120,21.950
15:38:16:417,122.852,0.020,-0.318,-0.494,-0.253,53.204,15.462
15:38:16:418,122.853,-0.802,1.007,1.813,-1.662,61.151,-12.915
15:38:16:418,122.853,-1.269,-0.257,1.972,-0.470,64.824,-18.098
15:38:16:418,122.853,-0.165,1.943,1.286,0.029,74.525,-13.286
15:38:16:434,122.869,0.298,-0.036,-0.645,-1.899,81.680,9.992
15:38:16:489,122.924,0.063,0.281,2.634,-3.123,92.014,-23.956
15:38:16:49,122.925,0.082,-0.337,-0.224,-3.386,103.094,-11.447
15:38:16:598,123.033,0.091,0.305,0.320,-3.666,104.121,-8.936
15:38:16:599,123.034,0.136,0.193,0.152,-3.513,103.968,-7.624
15:38:16:599,123.034,0.140,-0.076,0.003,-3.403,103.123,-6.319
15:38:16:627,123.062,0.073,0.163,0.010,-3.414,102.630,-5.460
15:38:16:628,123.063,0.034,0.282,-0.002,-3.258,101.821,-3.846
15:38:16:628,123.063,0.044,0.192,-0.122,-2.880,100.790,-1.811
15:38:16:628,123.063,0.102,0.098,0.062,-2.423,100.169,-0.353
15:38:17:099,123.534,0.066,0.002,-0.121,-1.848,98.885,2.024
15:38:17:1,123.535,0.183,-0.064,-0.060,-1.394,98.268,3.698
15:38:17:101,123.536,-0.623,-0.630,-0.781,5.810,93.867,42.694
15:38:17:146,123.581,-0.859,0.808,1.549,-4.225,98.984,-17.090
15:38:17:146,123.581,0.624,-0.630,0.799,-3.737,101.506,-14.732
15:38:17:171,123.606,0.393,-0.483,0.402,-4.633,102.799,-11.428
15:38:17:172,123.607,0.073,0.106,0.115,-4.548,102.615,-6.169
15:38:17:283,123.718,0.087,0.060,-0.107,-1.677,99.048,1.745
15:38:17:284,123.719,0.181,-0.022,-0.215,-0.844,98.059,4.145
15:38:17:284,123.719,-0.017,0.123,-0.297,0.186,97.752,7.142
15:38:17:285,123.720,-0.112,0.235,-0.349,1.025,97.872,9.783
15:38:17:388,123.823,-0.338,0.414,-0.735,2.544,97.761,15.112
15:38:17:389,123.824,-0.589,0.379,-1.439,3.702,97.562,19.597
15:38:17:389,123.824,-0.587,0.650,-0.402,6.114,97.473,36.212
15:38:17:39,123.825,-0.670,-0.470,-1.102,7.019,95.290,38.871
15:38:17:723,124.158,-0.235,-1.194,-0.862,8.414,90.142,38.801
15:38:17:776,124.211,-0.047,-1.286,-0.781,7.825,87.609,36.890
15:38:17:777,124.212,0.128,-1.196,-0.648,5.530,84.602,31.021
15:38:17:878,124.313,0.266,-0.800,-0.680,3.514,82.940,25.713
15:38:17:992,124.427,0.246,-0.433,-0.558,0.326,81.238,16.314
15:38:17:993,124.428,0.389,0.278,-0.565,-2.870,80.686,5.530
15:38:18:121,124.556,0.215,0.302,-0.010,-3.936,93.933,-1.068
15:38:18:121,124.556,0.157,0.164,-0.148,-3.365,93.241,0.211
15:38:18:122,124.557,0.124,0.084,-0.144,-2.626,92.182,2.391
15:38:18:143,124.578,0.204,-0.059,-0.250,-1.696,91.592,4.976
15:38:18:144,124.579,-0.042,0.147,-0.290,-0.995,91.588,7.221
15:38:18:201,124.636,-0.255,0.387,-0.637,0.296,91.755,11.667
15:38:18:202,124.637,-0.306,0.413,-1.026,1.211,91.834,15.333
15:38:18:202,124.637,-0.441,0.458,-1.303,2.842,91.393,22.993
15:38:18:203,124.638,0.069,1.302,0.640,4.423,91.023,32.844
15:38:18:248,124.683,-0.545,0.173,-1.065,5.153,89.890,37.256
15:38:18:249,124.684,-0.217,-1.258,-1.237,6.261,86.904,38.906
15:38:18:281,124.715,-0.052,-1.150,-0.856,5.863,85.598,38.025
15:38:18:281,124.716,-0.010,-1.117,-0.556,3.596,84.249,33.557
15:38:18:282,124.717,0.189,-0.884,-0.706,0.993,83.485,25.873
15:38:18:283,124.717,0.173,-0.022,0.113,-4.728,102.228,-7.266
15:38:18:304,124.739,0.074,0.175,0.134,-5.016,102.264,-5.520
15:38:18:305,124.740,0.141,0.182,0.033,-4.679,100.669,-1.575
15:38:18:305,124.740,0.044,0.045,-0.127,-2.625,98.042,5.756
15:38:18:328,124.763,0.254,-0.013,-0.222,-2.095,97.595,7.419
15:38:18:329,124.764,0.024,0.174,-0.383,-1.176,97.363,10.517
15:38:18:429,124.864,-0.204,0.284,-0.625,-0.155,97.397,15.076
15:38:18:543,124.978,-0.360,0.280,-0.946,0.691,97.210,19.201
15:38:18:543,124.978,-0.362,0.563,-0.863,1.950,97.047,27.470
15:38:18:544,124.979,0.052,0.831,0.334,2.133,97.780,33.838
15:38:18:545,124.980,-0.354,0.771,-0.479,1.885,96.498,41.675
15:38:18:569,125.003,-0.289,-1.953,-1.678,3.942,92.560,44.355
15:38:18:569,125.004,-0.031,-1.380,-1.201,4.929,90.140,43.170
15:38:18:57,125.005,0.300,-1.437,-0.617,4.806,87.703,38.606
15:38:18:57,125.005,0.307,-1.155,-0.714,3.909,86.434,33.783
15:38:18:666,125.101,0.359,-0.837,-0.722,2.100,85.589,24.623
15:38:18:886,125.320,0.310,-0.051,-0.821,-0.062,85.959,13.802
15:38:18:886,125.321,0.332,0.462,-0.772,-1.186,87.095,5.783
15:38:18:886,125.321,0.204,1.429,0.809,-1.889,89.961,-6.299
15:38:18:887,125.322,-0.017,1.255,2.082,-1.709,91.613,-13.291
15:38:19:015,125.450,0.052,0.313,2.867,-0.924,94.235,-20.098
15:38:19:016,125.451,0.598,-0.849,2.647,-0.476,96.163,-21.592
15:38:19:017,125.452,-0.796,0.534,1.195,-0.116,98.618,-19.358
15:38:19:017,125.452,0.477,-0.301,0.268,-0.254,101.836,-14.374
15:38:19:173,125.608,0.429,-0.172,0.402,-1.208,102.812,-12.299
15:38:19:174,125.609,0.046,0.002,0.234,-2.165,103.566,-9.203
15:38:19:175,125.610,0.107,0.113,0.264,-2.429,104.019,-7.572
15:38:19:175,125.610,-0.004,0.194,0.087,-2.446,103.691,-5.750
15:38:19:227,125.662,0.115,0.109,0.023,-2.036,102.827,-4.008
15:38:19:227,125.662,0.087,0.245,0.053,-1.637,102.352,-2.829
15:38:19:227,125.662,0.101,0.188,-0.069,-0.780,101.619,-1.003
15:38:19:228,125.663,0.161,0.086,-0.074,-0.168,101.328,0.211
15:38:19:278,125.713,0.140,0.080,-0.051,0.705,100.968,2.278
15:38:19:279,125.714,-0.015,0.030,-0.158,1.267,100.658,3.711
15:38:19:279,125.714,-0.011,0.058,-0.188,2.263,100.507,6.141
15:38:19:28,125.715,0.123,0.147,-0.333,3.645,100.485,9.369
15:38:19:322,125.757,-0.241,0.254,-0.666,4.751,100.239,12.226
15:38:19:348,125.783,-0.572,0.189,-0.953,6.692,100.255,18.226
15:38:19:374,125.809,-0.789,0.648,-0.723,8.043,100.839,23.640
15:38:19:483,125.918,-0.342,0.699,-0.318,9.694,102.846,33.185
15:38:19:484,125.919,-0.591,0.829,-0.227,9.699,103.390,41.192
15:38:19:776,126.211,-0.454,-0.616,-0.142,9.886,101.869,43.842
15:38:19:777,126.212,-0.079,-1.388,-0.389,8.484,100.031,40.550
15:38:19:777,126.212,-0.156,-1.204,-0.750,5.528,99.391,34.489
15:38:19:778,126.213,0.034,-0.835,-0.587,2.890,99.539,25.806
15:38:19:882,126.317,-0.020,-0.490,-0.679,1.384,99.757,18.853
15:38:19:883,126.318,0.761,1.450,1.461,-1.305,103.979,-13.020
15:38:19:884,126.319,0.573,-0.058,2.586,-0.736,106.253,-19.137
15:38:19:884,126.319,0.736,0.107,2.657,0.989,111.123,-24.131
15:38:19:903,126.338,1.106,-0.652,1.796,2.099,116.508,-23.057
15:38:19:903,126.338,-0.636,0.917,-0.251,2.790,120.664,-20.287
15:38:19:954,126.389,-0.234,0.110,0.059,3.154,124.127,-15.350
15:38:19:957,126.392,0.077,-0.235,-0.008,1.801,125.035,-13.453
15:38:20:065,126.500,0.214,0.023,0.118,0.860,125.593,-10.542
15:38:20:066,126.501,0.120,0.209,0.149,0.883,126.049,-8.347
15:38:20:067,126.502,0.056,0.120,0.129,0.968,125.799,-7.249
15:38:20:068,126.503,0.153,0.100,0.055,1.335,125.138,-5.748
15:38:20:112,126.547,0.043,0.277,-0.015,1.653,124.707,-4.803
15:38:20:113,126.548,0.098,0.234,-0.074,2.236,124.175,-3.255
15:38:20:142,126.577,0.055,0.065,0.029,2.893,123.802,-1.549
15:38:20:142,126.577,-0.013,0.033,0.022,3.353,123.478,-0.383
15:38:20:142,126.577,-0.023,0.037,-0.107,4.097,122.770,1.598
15:38:20:275,126.710,0.062,0.055,-0.261,4.760,122.417,3.198
15:38:20:275,126.710,-1.229,-1.978,-1.482,11.522,127.550,40.653
15:38:20:276,126.711,-0.413,-1.291,-0.403,10.203,127.936,38.602
15:38:20:277,126.712,-0.439,-1.132,-0.484,7.909,128.427,33.689
15:38:20:794,127.229,-0.305,-0.954,-0.453,6.506,128.496,29.060
15:38:20:795,127.230,-0.274,-0.575,-0.569,5.007,128.747,20.000
15:38:20:822,127.257,-0.265,-0.162,-0.549,4.441,128.946,13.082
15:38:20:823,127.258,-0.298,0.570,-0.410,3.823,129.505,1.835
15:38:20:85,127.285,0.796,1.227,0.967,3.851,131.761,-9.743
15:38:20:851,127.286,1.402,0.777,1.647,4.082,132.936,-16.295
15:38:20:851,127.286,1.765,0.176,1.744,4.892,135.667,-22.101
15:38:20:87,127.305,2.136,-0.842,1.972,5.619,138.737,-22.505
15:38:20:901,127.336,-0.232,-0.128,-0.595,5.429,144.429,-16.330
15:38:20:958,127.393,-0.002,-0.437,-0.096,4.513,144.700,-13.541
15:38:20:959,127.394,0.143,0.011,0.179,3.398,145.239,-10.648
15:38:20:96,127.395,0.267,0.149,0.385,3.388,145.799,-8.960
15:38:20:96,127.395,0.031,0.085,0.081,3.663,145.315,-7.225
15:38:20:975,127.410,0.121,0.151,-0.037,4.079,144.574,-6.261
15:38:21:054,127.489,0.077,0.293,-0.014,4.759,143.718,-4.636
15:38:21:588,128.023,-0.089,0.258,-0.121,5.211,143.147,-3.522
15:38:21:589,128.024,0.028,0.142,-0.117,6.030,142.413,-1.661
15:38:21:59,128.025,-0.001,0.033,-0.047,7.117,141.870,0.427
15:38:21:591,128.026,-0.130,0.025,-0.039,7.843,141.618,1.843
15:38:21:686,128.121,-0.142,0.043,-0.120,9.223,141.388,4.439
15:38:21:687,128.122,-0.323,0.093,-0.174,10.338,141.685,6.624
15:38:22:138,128.573,2.710,-0.291,0.364,6.782,170.440,-22.747
15:38:22:139,128.574,2.055,-0.170,-0.868,6.801,173.078,-21.724
15:38:22:14,128.575,2.274,1.131,0.923,7.875,179.810,-16.388
15:38:22:324,128.759,-0.117,-0.169,0.117,5.482,-175.914,-9.523
15:38:22:324,128.759,0.305,0.216,0.108,4.989,-175.014,-6.752
15:38:22:324,128.759,0.103,0.135,0.070,4.966,-174.865,-5.339
15:38:22:325,128.760,0.103,0.155,0.121,4.989,-175.234,-3.937
15:38:22:451,128.886,0.001,0.239,-0.020,5.544,-176.005,-2.487
15:38:22:452,128.887,-0.111,0.242,-0.012,5.925,-176.576,-1.266
15:38:22:452,128.887,-0.040,0.122,0.029,6.453,-177.167,0.870
15:38:22:483,128.918,-0.019,0.018,0.070,6.936,-177.587,2.261
15:38:22:483,128.918,-0.107,-0.016,0.045,7.626,-178.479,4.431
