Time,Second,AccelerationX,AccelerationY,AccelerationZ,EulerAnglesX,EulerAnglesY,EulerAnglesZ
19:37:44:898,0.000,-0.006,-0.005,-0.003,-12.119,76.543,-1.406
19:37:44:899,0.001,-0.012,0.001,-0.004,-12.116,76.511,-1.432
19:37:44:9,0.002,-0.008,-0.004,-0.002,-12.107,76.501,-1.474
19:37:44:977,0.079,-0.003,0.000,-0.004,-12.108,76.486,-1.505
19:37:44:978,0.080,0.002,0.003,-0.007,-12.110,76.486,-1.536
19:37:44:979,0.081,-0.017,-0.005,-0.004,-12.109,76.486,-1.561
19:37:44:998,0.100,-0.002,0.009,-0.003,-12.108,76.483,-1.579
19:37:45:053,0.155,-0.007,0.005,-0.010,-12.108,76.483,-1.579
19:37:45:054,0.156,-0.003,-0.003,0.001,-12.109,76.491,-1.587
19:37:45:106,0.207,-0.012,0.005,-0.004,-12.108,76.513,-1.589
19:37:45:107,0.208,-0.024,-0.005,0.023,-12.108,76.513,-1.589
19:37:45:129,0.230,-0.009,0.016,-0.012,-12.131,76.514,-1.625
19:37:45:211,0.313,0.001,-0.005,-0.010,-12.143,76.516,-1.653
19:37:45:241,0.343,-0.010,-0.004,-0.007,-12.154,76.542,-1.664
19:37:45:241,0.343,-0.002,-0.010,-0.001,-12.181,76.542,-1.661
19:37:45:242,0.344,-0.013,-0.004,0.011,-12.196,76.541,-1.691
19:37:45:289,0.391,-0.011,0.017,0.000,-12.248,76.527,-1.754
19:37:45:29,0.392,-0.013,-0.006,-0.008,-12.282,76.538,-1.793
19:37:45:342,0.444,0.007,0.004,-0.024,-12.363,76.540,-1.843
19:37:45:343,0.445,-0.021,-0.007,0.000,-12.438,76.545,-1.852
19:37:45:366,0.468,-0.011,0.007,0.049,-12.510,76.611,-1.871
19:37:45:421,0.523,-0.024,0.012,0.005,-12.645,76.660,-1.930
19:37:45:422,0.524,-0.015,-0.006,-0.041,-12.706,76.618,-2.003
19:37:45:473,0.575,-0.002,-0.015,-0.020,-12.814,76.705,-2.109
19:37:45:474,0.576,0.003,-0.010,-0.004,-12.880,76.713,-2.155
19:37:45:586,0.688,-0.003,0.003,-0.007,-12.988,76.670,-2.232
19:37:45:586,0.688,0.014,0.007,-0.025,-13.114,76.622,-2.279
19:37:45:587,0.689,0.003,-0.036,-0.027,-13.173,76.617,-2.324
19:37:45:588,0.690,-0.110,-0.010,0.103,-13.314,76.489,-2.408
19:37:45:604,0.706,0.047,0.070,-0.084,-13.481,76.321,-2.489
19:37:45:631,0.732,0.027,-0.038,-0.044,-13.596,76.198,-2.467
19:37:45:632,0.733,-0.003,-0.001,0.020,-13.826,76.136,-2.415
19:37:45:709,0.811,-0.012,-0.010,0.001,-13.970,75.969,-2.383
19:37:45:71,0.812,-0.041,-0.006,0.037,-14.186,75.685,-2.377
19:37:45:735,0.837,-0.020,0.008,0.018,-14.373,75.524,-2.421
19:37:45:736,0.838,0.004,-0.010,0.011,-14.643,75.201,-2.540
19:37:45:817,0.919,-0.008,0.022,-0.032,-14.847,74.840,-2.608
19:37:45:818,0.920,-0.029,-0.005,-0.007,-15.121,74.362,-2.740
19:37:45:819,0.921,-0.040,-0.008,0.029,-15.371,74.109,-2.977
19:37:45:868,0.970,0.045,0.013,-0.022,-15.558,74.005,-3.183
19:37:45:868,0.970,-0.022,0.011,-0.003,-15.855,73.886,-3.484
19:37:45:951,1.053,-0.042,0.004,0.001,-16.037,73.875,-3.681
19:37:45:952,1.054,-0.039,0.013,0.016,-16.263,73.906,-4.039
19:37:45:952,1.054,-0.020,0.021,-0.001,-16.442,74.063,-4.469
19:37:45:969,1.071,-0.024,0.006,0.001,-16.547,74.203,-4.764
19:37:46:025,1.126,-0.010,0.021,-0.019,-16.682,74.449,-5.282
19:37:46:109,1.211,-0.030,0.030,0.002,-16.734,74.675,-5.658
19:37:46:109,1.211,-0.024,-0.010,0.009,-16.785,75.068,-6.234
19:37:46:11,1.212,-0.026,0.003,0.012,-16.769,75.407,-6.881
19:37:46:111,1.213,-0.030,0.018,0.028,-16.778,75.596,-7.348
19:37:46:183,1.285,-0.033,-0.006,0.013,-16.748,75.943,-8.126
19:37:46:184,1.286,-0.016,0.004,0.025,-16.723,76.174,-8.686
19:37:46:209,1.310,-0.009,0.034,0.015,-16.642,76.506,-9.637
19:37:46:209,1.310,-0.029,0.021,0.004,-16.547,76.776,-10.365
19:37:46:26,1.362,-0.027,0.005,0.004,-16.364,77.265,-11.508
19:37:46:261,1.363,-0.013,0.041,0.025,-16.159,77.846,-12.723
19:37:46:313,1.415,-0.052,0.037,0.041,-15.985,78.252,-13.562
19:37:46:314,1.416,0.027,0.116,0.101,-15.692,79.018,-14.967
19:37:46:336,1.438,0.041,0.167,0.148,-15.446,79.568,-16.032
19:37:46:392,1.494,0.014,0.203,0.182,-15.040,80.366,-17.913
19:37:46:392,1.494,0.023,0.230,0.280,-14.534,81.110,-20.152
19:37:46:445,1.547,0.050,0.246,0.363,-14.086,81.737,-21.876
19:37:46:445,1.547,-0.166,0.391,0.706,-13.407,82.716,-25.005
19:37:46:526,1.628,-0.249,0.149,0.821,-12.754,83.249,-27.307
19:37:46:527,1.629,-0.368,-0.048,0.933,-11.481,84.385,-31.014
19:37:46:528,1.630,-0.683,0.106,0.786,-10.445,85.139,-33.907
19:37:46:576,1.677,-0.510,-0.059,0.862,-9.864,85.299,-38.719
19:37:46:577,1.678,-0.245,-0.071,0.275,-10.841,83.890,-43.364
19:37:46:628,1.730,-0.270,-0.105,0.206,-11.136,83.450,-45.643
19:37:46:629,1.731,-0.181,-0.486,0.634,-10.539,83.185,-46.694
19:37:46:652,1.754,-0.136,-0.813,0.663,-9.166,83.716,-46.766
19:37:46:677,1.779,-0.125,-0.721,0.461,-7.443,84.375,-45.592
19:37:46:704,1.806,-0.073,-0.473,0.329,-7.071,84.688,-43.961
19:37:46:759,1.861,-0.052,-0.502,0.408,-7.265,84.846,-40.210
19:37:46:76,1.862,-0.004,-0.467,0.461,-7.771,85.097,-34.846
19:37:46:784,1.886,-0.058,-0.324,0.394,-8.202,85.083,-30.409
19:37:46:838,1.940,-0.049,-0.039,0.264,-9.550,84.511,-22.685
19:37:46:839,1.941,0.041,0.248,0.117,-10.585,84.152,-17.003
19:37:46:861,1.963,0.128,0.438,0.017,-12.199,83.814,-8.109
19:37:46:888,1.990,0.255,0.690,-0.521,-14.310,83.700,1.025
19:37:46:944,2.046,0.273,0.622,-0.773,-15.827,83.956,7.102
19:37:46:944,2.046,0.243,0.592,-1.303,-18.420,84.305,15.580
19:37:46:996,2.098,0.671,-0.081,-1.849,-19.515,83.482,20.432
19:37:46:996,2.098,-0.179,-0.701,-2.385,-19.380,80.894,25.594
19:37:47:02,2.122,0.120,-0.581,-1.212,-18.708,78.497,25.873
19:37:47:045,2.147,0.142,1.016,1.642,-19.195,77.603,23.750
19:37:47:072,2.174,0.083,0.335,-0.539,-18.635,77.541,22.339
19:37:47:098,2.200,0.413,0.732,-0.789,-18.212,75.787,20.723
19:37:47:125,2.226,0.391,0.143,-0.356,-18.812,72.547,18.100
19:37:47:151,2.252,-0.344,-0.304,-0.384,-18.314,70.563,16.937
19:37:47:205,2.307,-0.017,0.044,-0.312,-19.066,70.142,15.043
19:37:47:206,2.308,0.057,0.055,0.021,-20.096,73.236,12.510
19:37:47:229,2.331,-0.020,0.017,0.357,-20.443,75.026,11.037
19:37:47:255,2.357,-0.099,0.052,-0.340,-20.908,74.657,9.460
19:37:47:311,2.413,-0.032,-0.087,0.030,-20.978,75.133,8.135
19:37:47:311,2.413,-0.007,-0.021,0.086,-21.085,76.692,6.068
19:37:47:334,2.436,-0.002,0.017,0.003,-21.110,77.688,3.994
19:37:47:362,2.464,0.005,-0.002,-0.047,-21.035,78.111,2.729
19:37:47:416,2.518,0.037,0.028,-0.025,-21.067,78.954,0.877
19:37:47:417,2.519,-0.034,0.004,0.014,-21.125,79.577,-0.302
19:37:47:468,2.570,-0.020,0.002,0.020,-21.231,80.492,-2.115
19:37:47:469,2.571,-0.009,0.007,0.034,-21.323,81.032,-3.342
19:37:47:493,2.595,-0.005,0.035,-0.014,-21.537,81.886,-5.251
19:37:47:518,2.619,0.012,0.043,0.069,-21.783,82.989,-7.292
19:37:47:543,2.645,-0.001,0.117,0.160,-22.022,83.686,-8.824
19:37:47:597,2.699,0.093,0.168,0.177,-22.364,85.051,-11.573
19:37:47:63,2.732,0.050,0.184,0.185,-22.548,85.980,-13.753
19:37:47:63,2.732,-0.002,0.234,0.207,-22.837,87.551,-17.645
19:37:47:63,2.732,0.204,0.339,0.278,-23.108,89.924,-22.148
19:37:47:678,2.780,0.290,0.404,0.775,-23.229,92.034,-25.536
19:37:47:679,2.781,0.273,0.349,1.271,-23.201,95.720,-31.405
19:37:47:701,2.803,0.206,0.509,1.664,-22.959,98.461,-35.747
19:37:47:758,2.860,-0.472,0.441,0.949,-21.632,102.311,-41.793
19:37:47:758,2.860,0.102,-0.073,1.051,-21.315,105.398,-47.126
19:37:47:81,2.912,-0.159,-0.149,0.402,-20.857,106.580,-49.998
19:37:47:81,2.912,-0.210,-0.452,0.175,-17.056,109.623,-51.269
19:37:47:891,2.993,0.624,-1.388,0.585,-12.591,113.059,-50.227
19:37:47:892,2.994,0.600,-1.273,0.322,-7.754,117.240,-46.473
19:37:47:893,2.995,0.490,-0.828,0.186,-7.336,118.935,-43.017
19:37:47:941,3.043,0.403,-0.508,0.142,-9.860,119.431,-37.170
19:37:47:941,3.043,0.512,-0.234,0.222,-12.461,118.882,-29.432
19:37:47:965,3.067,0.560,-0.015,0.164,-13.596,118.696,-23.035
19:37:48:02,3.122,0.426,0.294,-0.183,-14.709,118.961,-12.978
19:37:48:021,3.123,0.360,0.671,-0.587,-15.115,119.425,-6.173
19:37:48:043,3.144,0.053,0.635,-0.592,-15.811,121.753,3.630
19:37:48:07,3.171,-0.429,0.792,-1.002,-17.680,124.812,12.889
19:37:48:095,3.197,-0.578,0.489,-1.379,-19.493,125.213,19.202
19:37:48:122,3.224,-1.173,-0.222,-1.767,-20.792,125.088,26.699
19:37:48:148,3.250,-1.650,-1.036,-2.021,-20.914,125.289,29.896
19:37:48:203,3.305,-0.793,-0.764,-1.043,-20.808,126.409,29.050
19:37:48:204,3.306,0.734,1.041,0.295,-20.330,126.029,25.757
19:37:48:256,3.358,-1.426,-1.147,-0.308,-19.719,125.527,25.119
19:37:48:256,3.358,0.887,0.462,0.234,-19.716,123.920,24.201
19:37:48:28,3.382,-0.572,0.119,-0.753,-19.544,123.430,22.495
19:37:48:335,3.437,-0.139,0.050,-0.086,-20.209,122.081,20.403
19:37:48:335,3.437,-0.394,-0.010,0.131,-19.884,120.650,18.939
19:37:48:389,3.491,-0.344,0.085,-0.413,-20.415,119.060,17.140
19:37:48:389,3.491,-0.104,-0.100,-0.190,-20.674,120.868,14.940
19:37:48:411,3.512,0.038,0.020,0.072,-21.047,122.878,13.495
19:37:48:439,3.540,-0.017,0.075,0.034,-21.445,124.266,11.712
19:37:48:491,3.593,-0.076,-0.002,0.027,-21.421,124.411,10.870
19:37:48:492,3.594,-0.067,-0.011,-0.022,-21.351,125.249,9.335
19:37:48:515,3.617,0.000,-0.050,0.009,-21.304,126.575,8.009
19:37:48:542,3.644,0.075,0.026,0.045,-21.253,128.771,5.895
19:37:48:568,3.670,0.044,0.028,-0.059,-21.121,130.048,3.948
19:37:48:594,3.696,0.000,-0.007,0.014,-21.007,130.662,2.676
19:37:48:62,3.722,-0.023,-0.010,0.004,-20.867,131.619,0.761
19:37:48:647,3.749,0.007,-0.004,-0.025,-20.804,132.245,-0.513
19:37:48:702,3.804,0.056,0.011,0.025,-20.740,134.171,-2.434
19:37:48:703,3.805,0.074,0.016,0.091,-20.807,134.971,-4.505
19:37:48:726,3.828,0.010,0.029,0.123,-20.834,136.338,-6.008
19:37:48:782,3.883,0.015,0.102,0.100,-20.882,137.017,-8.699
19:37:48:783,3.884,-0.046,0.220,0.135,-20.968,138.550,-10.832
19:37:48:805,3.906,0.067,0.238,0.041,-20.901,140.166,-14.359
19:37:48:83,3.932,0.309,0.339,-0.224,-20.745,142.468,-16.797
19:37:48:857,3.959,0.487,0.377,-0.091,-20.522,144.933,-20.683
19:37:48:883,3.985,0.694,0.402,0.170,-20.322,147.963,-24.977
19:37:48:909,4.011,1.121,0.389,0.468,-19.987,149.782,-28.276
19:37:48:938,4.040,1.387,0.292,0.992,-19.069,153.022,-34.169
19:37:48:964,4.066,0.789,0.377,0.969,-18.327,154.900,-38.290
19:37:48:99,4.091,1.244,-0.222,0.971,-18.620,156.625,-44.229
19:37:49:015,4.116,0.172,-0.212,0.299,-19.189,157.296,-49.102
19:37:49:04,4.142,-0.041,-0.278,0.436,-17.937,157.655,-51.087
19:37:49:125,4.227,0.773,-1.284,0.169,-13.320,160.746,-51.372
19:37:49:125,4.227,0.399,-1.244,0.082,-9.332,163.065,-50.072
19:37:49:126,4.228,0.409,-0.922,-0.002,-5.045,165.721,-46.184
19:37:49:176,4.278,0.231,-0.591,0.015,-4.398,166.550,-42.720
19:37:49:176,4.278,0.339,-0.517,0.095,-5.848,166.362,-36.432
19:37:49:2,4.302,0.396,-0.324,0.198,-7.985,165.526,-28.244
19:37:49:227,4.329,0.283,0.004,0.139,-9.480,164.610,-21.899
19:37:49:25,4.352,0.069,0.526,0.063,-11.765,162.868,-12.020
19:37:49:306,4.408,-0.156,0.831,-0.209,-13.012,161.932,-5.364
19:37:49:307,4.409,-0.589,0.828,-0.385,-14.453,161.691,4.421
19:37:49:329,4.431,-1.146,0.499,-0.518,-16.443,162.002,13.606
19:37:49:355,4.457,-1.387,0.321,-1.079,-17.948,161.267,19.296
19:37:49:44,4.541,-1.922,-0.252,-0.539,-17.977,158.155,25.664
19:37:49:44,4.542,-1.835,-1.067,-1.111,-16.907,155.354,27.525
19:37:49:441,4.543,-0.577,0.116,-0.428,-15.772,153.100,24.456
19:37:49:46,4.562,-0.801,-0.334,0.504,-15.861,152.847,22.753
19:37:49:515,4.617,-0.252,0.159,-2.216,-16.163,153.167,21.857
19:37:49:516,4.618,-0.551,0.209,-0.196,-15.567,151.986,19.067
19:37:49:54,4.642,-0.175,0.414,0.096,-16.629,150.873,17.309
19:37:49:594,4.696,-0.162,-0.168,-0.079,-16.749,147.455,14.826
19:37:49:595,4.697,-0.647,-0.004,-0.105,-16.970,145.851,13.594
19:37:49:618,4.720,-0.320,0.070,-0.284,-17.659,147.979,11.124
19:37:49:644,4.746,0.283,0.041,0.151,-18.085,152.680,8.605
19:37:49:671,4.773,0.382,0.029,0.168,-18.345,153.499,7.309
19:37:49:697,4.799,-0.198,0.004,0.077,-18.439,152.067,6.113
19:37:49:723,4.825,-0.129,-0.025,0.005,-18.395,152.054,5.103
19:37:49:75,4.852,0.107,-0.120,0.078,-18.163,154.113,3.147
19:37:49:776,4.877,0.253,0.008,0.110,-18.176,155.994,1.032
19:37:49:831,4.933,-0.002,0.057,-0.052,-18.081,156.294,-0.273
19:37:49:831,4.933,0.022,0.001,0.010,-17.874,155.853,-2.251
19:37:49:884,4.986,0.053,0.027,0.039,-17.806,156.476,-3.649
19:37:49:885,4.987,0.089,0.035,0.054,-17.735,156.949,-5.793
19:37:49:908,5.010,0.147,-0.017,0.172,-17.628,157.744,-8.137
19:37:49:965,5.067,0.090,0.144,0.058,-17.680,157.494,-9.929
19:37:49:966,5.068,0.094,0.054,0.072,-17.614,158.274,-12.791
19:37:49:966,5.068,0.158,0.080,0.056,-17.523,158.520,-14.909
19:37:50:013,5.115,0.238,0.326,-0.078,-17.414,159.919,-18.560
19:37:50:099,5.201,0.244,0.327,-0.062,-17.186,160.348,-21.242
19:37:50:1,5.202,0.558,0.401,-0.065,-16.651,162.522,-25.614
19:37:50:101,5.203,1.238,0.409,0.235,-15.715,164.862,-30.592
19:37:50:204,5.306,1.074,0.196,1.130,-12.118,168.785,-40.551
19:37:50:204,5.306,1.448,-0.303,0.824,-11.862,169.168,-44.871
19:37:50:205,5.307,0.950,0.151,0.469,-14.750,168.527,-50.644
19:37:50:206,5.308,0.147,-0.283,0.420,-15.311,167.192,-54.581
19:37:50:221,5.323,0.626,-0.801,0.261,-13.119,167.390,-54.908
19:37:50:277,5.379,0.407,-1.262,0.181,-7.783,169.093,-53.336
19:37:50:277,5.379,0.307,-1.003,-0.002,-4.678,170.063,-50.972
19:37:50:3,5.402,0.264,-0.748,0.075,-3.197,170.881,-45.834
19:37:50:327,5.429,0.256,-0.538,0.161,-3.933,170.474,-41.814
19:37:50:353,5.455,0.383,-0.464,0.178,-5.752,169.422,-34.473
19:37:50:379,5.481,0.348,-0.178,0.200,-7.487,168.086,-25.460
19:37:50:435,5.537,0.310,0.120,0.182,-8.767,166.820,-18.903
19:37:50:436,5.538,-0.087,0.776,-0.017,-10.793,164.196,-8.673
19:37:50:458,5.560,-0.501,1.213,-0.289,-11.979,162.526,-1.871
19:37:50:485,5.587,-1.036,0.680,-0.199,-13.476,161.581,8.314
19:37:50:512,5.614,-1.667,0.372,-0.556,-15.683,161.458,17.525
19:37:50:537,5.638,-1.620,0.106,-1.366,-16.916,161.093,22.623
19:37:50:562,5.664,-2.808,-1.000,-0.326,-17.219,159.567,27.648
19:37:50:589,5.691,-0.970,-0.411,-0.283,-17.003,158.425,27.952
19:37:50:615,5.717,1.832,1.295,0.665,-16.858,157.724,24.334
19:37:50:642,5.744,-0.170,0.242,-2.088,-16.860,156.419,23.671
19:37:50:726,5.828,0.280,0.071,-0.602,-15.840,153.622,22.386
19:37:50:727,5.829,-0.940,0.886,0.048,-16.141,151.459,19.426
19:37:50:728,5.830,-0.131,0.046,0.088,-17.186,150.409,17.571
19:37:50:747,5.849,-0.441,-0.198,0.243,-17.495,148.328,15.196
19:37:50:773,5.875,-0.400,0.109,-0.227,-17.829,148.265,13.978
19:37:50:829,5.931,0.073,0.032,-0.054,-18.253,151.465,11.586
19:37:50:829,5.931,0.284,0.050,0.128,-18.876,154.344,9.454
19:37:50:853,5.955,0.051,0.082,0.229,-19.176,154.201,8.495
19:37:50:878,5.980,-0.167,-0.042,-0.020,-19.050,154.439,6.803
19:37:50:93,6.032,0.102,0.046,0.043,-18.888,157.972,3.296
19:37:50:957,6.059,0.026,0.047,0.003,-18.736,158.939,1.306
19:37:50:983,6.085,-0.002,0.019,0.015,-18.581,159.341,0.087
19:37:51:039,6.141,0.067,-0.042,0.114,-18.403,160.319,-1.770
19:37:51:039,6.141,0.096,0.011,0.084,-18.313,161.066,-3.104
19:37:51:062,6.164,0.049,0.034,0.035,-18.186,161.888,-5.288
19:37:51:089,6.190,0.117,0.015,0.076,-18.109,162.614,-6.884
19:37:51:115,6.216,0.097,0.024,0.105,-18.078,163.391,-9.525
19:37:51:141,6.243,0.136,0.143,0.004,-18.077,164.536,-12.577
19:37:51:167,6.269,0.208,0.191,-0.092,-18.088,165.305,-14.857
19:37:51:193,6.295,0.166,0.292,-0.054,-18.005,166.725,-18.612
19:37:51:219,6.321,0.243,0.287,-0.005,-17.804,167.745,-21.265
19:37:51:245,6.347,0.508,0.343,-0.118,-17.266,170.001,-25.368
19:37:51:272,6.374,1.087,0.250,0.039,-16.713,171.399,-28.276
19:37:51:298,6.400,1.532,0.120,0.268,-15.661,173.254,-33.411
19:37:51:324,6.426,1.400,0.350,0.716,-15.446,174.432,-39.582
19:37:51:378,6.480,1.518,-0.111,0.722,-16.205,174.610,-43.858
19:37:51:404,6.506,1.082,0.146,0.375,-17.595,174.428,-49.666
19:37:51:432,6.534,0.396,-0.151,0.553,-17.823,173.822,-52.985
19:37:51:433,6.535,0.454,-0.539,0.384,-14.749,174.473,-54.748
19:37:51:456,6.557,0.401,-1.142,-0.039,-8.532,176.266,-53.610
19:37:51:482,6.583,0.281,-1.152,-0.068,-4.457,177.246,-51.831
19:37:51:507,6.609,0.223,-0.855,-0.030,-1.964,178.017,-47.286
19:37:51:534,6.636,0.352,-0.779,0.042,-2.572,177.719,-43.581
19:37:51:561,6.663,0.399,-0.658,0.133,-5.024,176.501,-36.781
19:37:51:586,6.688,0.366,-0.365,0.140,-7.646,174.299,-28.196
19:37:51:614,6.716,0.291,-0.077,0.161,-9.172,172.399,-21.665
19:37:51:67,6.772,0.000,0.468,0.059,-11.102,169.615,-10.997
19:37:51:67,6.772,-0.606,1.262,-0.207,-12.037,168.331,-3.703
19:37:51:692,6.794,-1.058,0.886,-0.182,-13.033,167.897,6.721
19:37:51:718,6.820,-1.590,0.758,-0.077,-15.146,168.835,16.605
19:37:51:744,6.846,-1.899,0.319,-0.721,-16.789,168.173,22.536
19:37:51:771,6.873,-2.466,-0.980,0.477,-17.405,168.006,28.606
19:37:51:797,6.899,-1.454,-0.758,-0.417,-17.867,168.109,29.880
19:37:51:823,6.924,1.196,0.915,-0.298,-18.009,169.541,26.019
19:37:51:849,6.950,-1.435,-0.656,0.162,-18.079,168.786,25.229
19:37:51:875,6.977,-0.260,0.371,-1.029,-17.239,165.885,24.406
19:37:51:93,7.032,-1.287,0.406,-0.338,-16.452,162.729,21.669
19:37:51:931,7.033,-0.576,0.251,0.103,-17.293,161.083,19.878
19:37:52:012,7.114,-0.351,-0.146,0.309,-17.403,159.478,17.341
19:37:52:013,7.115,-0.445,0.193,-0.035,-18.129,158.869,15.855
19:37:52:014,7.116,-0.189,-0.011,-0.057,-18.359,160.485,13.701
19:37:52:033,7.135,0.139,-0.004,0.016,-18.794,163.251,11.677
19:37:52:148,7.250,0.151,0.103,0.097,-19.176,163.921,10.526
19:37:52:148,7.250,0.006,-0.042,0.147,-19.319,163.921,9.124
19:37:52:149,7.251,-0.027,-0.047,0.032,-19.314,164.598,7.924
19:37:52:15,7.252,0.099,-0.017,-0.044,-19.315,166.873,5.585
19:37:52:165,7.267,0.021,0.049,-0.013,-19.357,168.119,4.034
19:37:52:192,7.293,-0.037,0.033,-0.035,-19.349,169.042,1.934
19:37:52:218,7.319,0.008,-0.001,0.056,-19.292,169.745,-0.073
19:37:52:245,7.347,0.040,-0.017,0.043,-19.225,170.018,-1.447
19:37:52:246,7.348,0.089,0.020,0.037,-19.222,171.048,-3.568
19:37:52:295,7.397,0.115,0.010,0.054,-19.249,171.208,-5.053
19:37:52:326,7.428,0.068,0.033,0.053,-19.436,171.830,-7.327
19:37:52:326,7.428,0.067,0.089,0.035,-19.606,172.113,-10.090
19:37:52:375,7.477,0.157,0.091,0.065,-19.679,172.841,-12.201
19:37:52:403,7.505,0.212,0.298,0.016,-19.785,174.130,-15.831
19:37:52:404,7.506,0.218,0.362,-0.161,-19.768,175.352,-18.551
19:37:52:456,7.558,0.558,0.483,-0.238,-19.638,177.665,-22.948
19:37:52:457,7.559,1.101,0.474,-0.159,-19.345,-179.141,-28.213
19:37:52:508,7.610,1.527,0.441,-0.214,-18.752,-176.622,-32.232
19:37:52:509,7.611,1.146,0.287,0.455,-16.768,-172.422,-38.525
19:37:52:561,7.663,1.034,0.091,0.706,-15.470,-170.263,-42.494
19:37:52:562,7.664,1.026,0.007,0.009,-16.008,-167.921,-47.511
19:37:52:585,7.686,0.075,-0.518,0.310,-15.403,-167.399,-50.184
19:37:52:668,7.770,0.426,-0.916,-0.348,-11.143,-165.063,-51.262
19:37:52:669,7.771,0.284,-1.333,-0.349,-5.370,-160.734,-49.209
19:37:52:67,7.772,0.300,-1.138,-0.469,-2.888,-158.394,-46.647
19:37:52:691,7.793,0.145,-0.602,-0.281,-3.164,-156.322,-41.967
19:37:52:715,7.817,0.235,-0.576,-0.284,-4.844,-156.056,-38.263
19:37:52:742,7.844,0.335,-0.281,-0.286,-7.703,-155.963,-31.179
19:37:52:768,7.870,0.288,-0.106,-0.246,-9.171,-155.865,-25.251
19:37:52:824,7.926,0.075,0.278,-0.461,-11.312,-155.646,-15.821
19:37:52:824,7.926,-0.470,0.730,-0.365,-13.111,-155.307,-6.202
19:37:52:847,7.949,-0.560,0.638,-0.168,-13.921,-154.455,-0.009
19:37:52:874,7.976,-1.099,0.693,0.300,-15.976,-152.481,8.951
19:37:52:9,8.002,-1.598,0.193,0.296,-17.751,-151.417,14.648
19:37:52:926,8.028,-1.978,-0.006,0.282,-19.739,-150.000,21.423
19:37:52:952,8.053,-1.609,-0.808,1.422,-19.606,-150.323,24.837
19:37:52:979,8.080,-0.848,-0.347,0.687,-19.008,-151.527,24.113
19:37:53:004,8.106,1.802,1.119,-0.875,-18.973,-153.421,22.033
19:37:53:031,8.133,-1.145,-1.017,1.359,-19.023,-152.932,21.497
19:37:53:057,8.159,0.458,0.080,-0.612,-18.952,-153.205,19.574
19:37:53:112,8.214,-0.857,1.030,0.196,-19.917,-154.185,16.927
19:37:53:112,8.214,0.058,-0.315,0.092,-19.558,-154.609,15.559
19:37:53:135,8.237,-0.159,0.156,0.395,-20.307,-155.948,13.701
19:37:53:162,8.264,-0.291,0.006,0.273,-20.662,-155.780,12.655
19:37:53:188,8.290,-0.011,0.039,0.015,-21.085,-153.175,10.896
19:37:53:214,8.316,0.049,0.010,-0.031,-21.476,-151.267,9.743
19:37:53:241,8.343,0.086,0.128,0.044,-21.958,-149.536,8.312
19:37:53:267,8.369,0.132,-0.026,0.041,-21.909,-147.857,6.898
19:37:53:293,8.395,0.126,-0.061,0.029,-21.840,-146.450,5.863
19:37:53:379,8.481,0.122,0.015,-0.034,-21.783,-144.406,4.233
19:37:53:379,8.481,0.080,0.027,-0.008,-21.662,-142.867,3.174
19:37:53:379,8.481,0.087,-0.005,0.052,-21.425,-141.351,1.628
19:37:53:398,8.500,0.182,-0.039,0.029,-21.166,-139.383,-0.036
19:37:53:424,8.526,0.090,0.012,-0.004,-21.040,-138.380,-1.257
19:37:53:453,8.555,0.107,0.020,-0.014,-20.901,-136.445,-3.198
19:37:53:478,8.580,0.067,0.063,-0.039,-20.873,-135.443,-4.574
19:37:53:503,8.604,0.049,0.076,-0.112,-20.801,-133.414,-6.830
19:37:53:53,8.631,0.057,0.060,-0.148,-20.724,-132.375,-8.489
19:37:53:555,8.657,0.159,0.093,-0.133,-20.606,-130.690,-11.313
19:37:53:581,8.683,0.110,0.127,-0.166,-20.559,-128.866,-14.642
19:37:53:608,8.710,0.115,0.223,-0.166,-20.605,-127.940,-17.058
19:37:53:664,8.765,0.066,0.244,-0.331,-20.728,-126.018,-21.010
19:37:53:665,8.766,0.240,0.304,-0.693,-20.688,-124.372,-23.878
19:37:53:687,8.788,0.427,0.293,-1.014,-20.492,-121.346,-28.883
19:37:53:712,8.814,0.923,0.150,-1.486,-20.059,-117.950,-34.784
19:37:53:739,8.841,0.950,0.451,-0.949,-20.640,-116.407,-38.957
19:37:53:794,8.896,0.917,0.209,-0.880,-22.116,-114.876,-44.993
19:37:53:795,8.897,0.643,-0.156,-0.735,-21.881,-113.806,-48.630
19:37:53:819,8.921,0.442,-0.133,-0.103,-20.564,-113.192,-52.554
19:37:53:844,8.946,0.359,-0.449,0.000,-17.762,-111.970,-53.129
19:37:53:87,8.972,0.266,-1.205,-0.643,-12.386,-109.926,-51.117
19:37:53:924,9.026,0.048,-1.015,-0.475,-7.712,-108.714,-47.065
19:37:53:952,9.054,0.038,-0.629,-0.303,-6.555,-108.575,-43.501
19:37:53:953,9.055,0.102,-0.535,-0.281,-6.289,-109.533,-36.981
19:37:53:977,9.079,0.212,-0.456,-0.358,-6.342,-110.153,-31.746
19:37:54:032,9.133,0.249,-0.225,-0.321,-6.548,-111.312,-22.426
19:37:54:033,9.134,0.101,0.419,-0.026,-7.414,-112.925,-12.110
19:37:54:113,9.215,-0.068,0.741,0.109,-8.095,-114.029,-5.003
19:37:54:114,9.216,-0.292,1.082,0.880,-9.142,-116.069,5.380
19:37:54:114,9.216,-0.792,0.737,1.746,-9.741,-117.298,12.211
19:37:54:133,9.235,-0.826,-0.012,1.995,-10.241,-118.872,21.247
19:37:54:159,9.261,-0.617,-0.847,2.870,-9.958,-119.666,25.561
19:37:54:185,9.287,-0.771,-0.634,1.491,-9.817,-120.242,28.316
19:37:54:212,9.314,0.563,1.187,-1.428,-9.565,-120.572,24.875
19:37:54:239,9.341,0.687,0.193,0.084,-10.249,-120.179,23.940
19:37:54:264,9.366,0.188,0.302,0.238,-10.663,-118.765,22.431
19:37:54:29,9.392,0.024,0.622,1.532,-11.355,-118.757,20.244
19:37:54:317,9.419,-0.233,-0.376,0.131,-12.852,-119.959,17.447
19:37:54:343,9.445,0.199,-0.070,0.403,-12.582,-121.381,15.422
19:37:54:37,9.472,0.041,0.100,0.370,-13.530,-121.197,14.227
19:37:54:397,9.498,0.063,0.058,-0.047,-14.368,-118.510,12.147
19:37:54:453,9.555,0.241,0.006,-0.272,-14.521,-116.856,10.962
19:37:54:454,9.556,0.158,0.033,0.073,-14.780,-116.855,9.309
19:37:54:455,9.557,0.110,0.016,0.014,-14.756,-116.950,8.013
19:37:54:474,9.576,0.019,-0.079,0.012,-14.624,-116.281,6.074
19:37:54:5,9.602,0.044,0.022,0.029,-14.649,-115.381,3.987
19:37:54:526,9.628,0.027,0.019,0.056,-14.590,-115.006,2.624
19:37:54:553,9.655,0.035,0.023,0.059,-14.480,-114.582,0.729
19:37:54:579,9.681,0.094,-0.017,0.015,-14.396,-114.071,-0.508
19:37:54:635,9.737,0.131,0.012,0.001,-14.322,-113.184,-2.403
19:37:54:635,9.737,0.160,0.013,-0.028,-14.245,-112.365,-4.420
19:37:54:716,9.818,0.094,0.039,-0.032,-14.228,-111.817,-5.863
19:37:54:717,9.819,0.131,0.061,-0.075,-14.222,-110.611,-8.372
19:37:54:718,9.820,0.033,0.159,-0.085,-14.228,-110.100,-10.312
19:37:54:737,9.839,-0.076,0.217,-0.104,-14.243,-108.581,-13.638
19:37:54:763,9.864,0.115,0.295,-0.176,-14.090,-107.528,-17.391
19:37:54:79,9.891,0.026,0.404,-0.340,-13.898,-105.990,-20.130
19:37:54:815,9.917,0.249,0.395,-0.917,-13.297,-103.744,-24.673
19:37:54:841,9.943,0.366,0.278,-1.226,-12.602,-102.141,-28.148
19:37:54:868,9.970,0.710,0.309,-1.558,-11.595,-99.751,-34.196
19:37:54:895,9.997,0.852,0.267,-0.679,-10.835,-98.341,-38.131
19:37:54:921,10.023,0.641,-0.143,-1.329,-10.916,-96.439,-43.660
19:37:54:947,10.049,0.538,-0.239,-0.270,-9.661,-95.488,-48.047
19:37:54:973,10.075,0.442,-0.248,-0.099,-7.682,-94.450,-49.252
19:37:54:999,10.101,-0.282,-1.369,-0.756,-3.388,-91.373,-47.959
19:37:55:055,10.157,0.042,-1.374,-0.504,-0.804,-89.297,-45.654
19:37:55:056,10.158,-0.126,-0.908,-0.439,0.288,-87.071,-40.604
19:37:55:079,10.181,0.064,-0.548,-0.189,-1.580,-86.832,-34.760
19:37:55:106,10.208,0.055,-0.536,-0.365,-3.413,-87.267,-30.088
19:37:55:132,10.234,-0.015,-0.243,-0.400,-6.259,-88.256,-21.692
19:37:55:157,10.259,0.011,0.264,-0.130,-8.063,-89.161,-15.355
19:37:55:184,10.286,-0.172,0.730,0.178,-10.671,-90.489,-5.417
19:37:55:209,10.311,-0.223,0.830,0.862,-12.123,-90.919,1.148
19:37:55:294,10.396,-0.078,0.570,1.115,-14.302,-89.516,10.594
19:37:55:295,10.397,-0.127,0.464,1.605,-17.754,-87.963,19.322
19:37:55:296,10.398,-1.032,-0.050,2.120,-19.945,-87.084,24.374
19:37:55:315,10.417,0.507,-0.957,2.559,-21.486,-86.001,29.169
19:37:55:394,10.496,0.009,-0.565,1.658,-21.321,-86.384,29.480
19:37:55:425,10.527,-0.806,1.330,-2.394,-20.654,-87.281,26.155
19:37:55:425,10.527,-0.534,-0.214,1.444,-20.660,-87.339,25.493
19:37:55:426,10.528,0.075,0.457,-0.515,-20.322,-88.671,24.451
19:37:55:445,10.547,-0.492,1.107,1.159,-20.750,-90.352,21.311
19:37:55:498,10.600,0.286,-0.419,0.118,-20.006,-90.874,19.854
19:37:55:527,10.629,0.271,0.054,0.207,-20.204,-90.948,17.288
19:37:55:528,10.630,0.114,0.001,0.255,-20.580,-90.855,15.863
19:37:55:551,10.653,0.027,-0.017,0.027,-20.604,-89.067,13.877
19:37:55:606,10.708,0.056,0.003,0.029,-20.807,-87.476,12.077
19:37:55:607,10.709,0.165,0.027,0.024,-20.919,-86.917,11.013
19:37:55:66,10.762,0.114,-0.016,0.057,-20.817,-85.852,9.397
19:37:55:66,10.762,0.085,-0.051,-0.054,-20.671,-84.946,8.220
19:37:55:683,10.785,0.034,0.018,0.036,-20.454,-83.738,6.397
19:37:55:736,10.837,0.040,0.041,0.073,-20.187,-82.833,4.543
19:37:55:763,10.865,0.054,0.003,0.026,-20.008,-82.160,3.347
19:37:55:765,10.866,0.093,0.017,-0.030,-19.879,-81.148,1.468
19:37:55:786,10.888,0.045,-0.019,-0.012,-19.800,-80.504,0.136
19:37:55:814,10.916,0.079,0.025,-0.024,-19.809,-79.532,-1.999
19:37:55:868,10.970,0.092,0.036,-0.051,-19.889,-78.814,-3.548
19:37:55:869,10.971,0.074,0.086,-0.039,-20.103,-77.819,-6.030
19:37:55:893,10.995,-0.024,0.151,0.000,-20.413,-76.634,-8.759
19:37:55:919,11.021,-0.161,0.181,-0.049,-20.567,-75.564,-10.819
19:37:55:977,11.079,-0.084,0.254,-0.127,-20.807,-73.926,-14.380
19:37:55:977,11.079,-0.181,0.352,-0.173,-21.024,-72.613,-17.098
19:37:56:026,11.128,-0.382,0.484,-0.456,-21.331,-69.769,-21.720
19:37:56:026,11.128,-0.751,0.527,-1.159,-21.272,-65.702,-27.253
19:37:56:049,11.151,-0.766,0.519,-1.586,-20.825,-62.694,-31.498
19:37:56:075,11.177,0.076,0.399,-0.871,-19.788,-58.747,-37.699
19:37:56:102,11.204,-0.465,-0.089,-1.374,-19.910,-56.472,-41.592
19:37:56:128,11.230,-0.057,0.189,-0.637,-19.142,-53.255,-46.187
19:37:56:154,11.256,0.417,-0.334,-0.326,-16.675,-51.763,-48.313
19:37:56:181,11.283,-0.940,-1.441,-0.303,-11.251,-47.026,-48.258
19:37:56:207,11.309,-0.629,-1.230,-0.007,-5.090,-41.516,-44.899
19:37:56:233,11.335,-0.627,-1.005,-0.093,-3.088,-38.575,-41.500
19:37:56:261,11.362,-0.351,-0.516,0.007,-3.875,-36.175,-35.846
19:37:56:287,11.389,-0.538,-0.365,-0.117,-5.767,-35.545,-31.326
19:37:56:341,11.443,-0.438,-0.111,-0.233,-8.797,-35.428,-23.159
19:37:56:342,11.444,-0.248,0.087,-0.114,-11.686,-36.434,-13.282
19:37:56:365,11.467,-0.143,0.456,0.195,-13.570,-37.634,-6.346
19:37:56:391,11.493,0.656,0.822,0.943,-15.879,-38.700,4.212
19:37:56:417,11.519,0.919,0.619,0.890,-17.049,-37.512,10.708
19:37:56:444,11.545,1.470,0.457,1.433,-20.149,-34.973,19.505
19:37:56:474,11.576,1.363,-0.353,1.478,-23.104,-33.383,27.094
19:37:56:496,11.598,2.182,-0.930,1.094,-23.822,-33.281,30.277
19:37:56:522,11.624,0.458,-0.190,0.775,-22.728,-34.965,31.254
19:37:56:548,11.650,-2.576,1.927,-1.085,-21.767,-37.151,29.204
19:37:56:575,11.676,1.034,-0.635,1.628,-20.898,-39.617,28.883
19:37:56:602,11.703,0.220,-0.141,0.394,-20.537,-42.887,28.420
19:37:56:63,11.732,0.960,1.210,1.145,-20.458,-43.632,24.957
19:37:56:63,11.732,0.175,-0.321,-0.066,-20.175,-42.827,21.972
19:37:56:711,11.813,0.327,0.017,0.047,-20.559,-43.133,20.481
19:37:56:712,11.814,0.377,-0.034,0.192,-20.697,-42.359,18.690
19:37:56:713,11.815,0.024,-0.006,-0.013,-21.077,-40.669,17.409
19:37:56:732,11.834,0.105,-0.003,-0.033,-21.499,-38.568,15.605
19:37:56:758,11.860,0.073,-0.045,-0.035,-21.559,-36.931,13.947
19:37:56:784,11.886,-0.013,0.001,-0.013,-21.449,-35.644,12.633
19:37:56:811,11.913,-0.007,-0.029,-0.017,-21.225,-34.028,10.502
19:37:56:838,11.940,0.100,0.027,0.065,-21.053,-33.209,9.043
19:37:56:864,11.966,0.091,0.007,0.089,-20.754,-31.991,6.938
19:37:56:89,11.992,-0.017,0.005,-0.110,-20.592,-31.175,5.544
19:37:56:945,12.046,0.030,0.021,-0.087,-20.397,-30.110,3.280
19:37:56:946,12.047,0.117,0.021,0.057,-20.188,-29.109,0.909
19:37:56:969,12.070,0.002,0.000,0.012,-20.060,-28.363,-0.683
19:37:56:994,12.096,-0.002,0.074,-0.044,-20.042,-27.253,-3.291
19:37:57:02,12.122,-0.009,0.136,0.103,-20.015,-26.576,-5.155
19:37:57:048,12.150,-0.105,0.183,0.266,-19.962,-25.303,-8.280
19:37:57:074,12.176,-0.134,0.290,-0.034,-19.911,-24.152,-11.938
19:37:57:128,12.230,-0.148,0.354,-0.033,-19.866,-23.043,-14.733
19:37:57:129,12.231,-0.458,0.475,0.068,-19.584,-20.642,-19.278
19:37:57:152,12.254,-1.165,0.376,-0.198,-19.108,-18.486,-22.606
19:37:57:178,12.280,-1.585,0.467,-0.505,-17.985,-15.285,-28.438
19:37:57:205,12.307,-0.923,0.349,-0.734,-17.353,-13.589,-32.535
19:37:57:231,12.333,-1.133,0.106,-0.937,-17.897,-12.205,-38.727
19:37:57:257,12.359,-0.511,0.077,-0.374,-18.085,-11.450,-43.754
19:37:57:283,12.385,-0.226,-0.396,-0.298,-16.805,-11.491,-46.255
19:37:57:31,12.412,-0.192,-0.578,-0.629,-13.180,-9.300,-46.841
19:37:57:336,12.437,-0.795,-1.201,0.026,-10.322,-7.313,-45.500
19:37:57:391,12.493,-0.289,-0.972,0.068,-6.315,-5.045,-41.630
19:37:57:393,12.495,-0.219,-0.657,-0.005,-5.421,-4.279,-35.859
19:37:57:415,12.517,-0.261,-0.585,-0.081,-6.076,-4.724,-31.367
19:37:57:44,12.542,-0.400,-0.386,-0.179,-7.803,-6.037,-23.286
19:37:57:467,12.569,-0.152,0.075,-0.100,-9.149,-7.587,-16.999
19:37:57:493,12.595,-0.047,0.426,-0.031,-11.124,-10.637,-6.879
19:37:57:519,12.621,0.513,0.910,0.246,-12.252,-12.908,0.103
19:37:57:547,12.649,1.181,0.805,0.171,-13.624,-15.640,10.360
19:37:57:602,12.704,1.766,0.474,0.156,-15.479,-17.279,20.047
19:37:57:602,12.704,2.113,0.104,0.677,-17.024,-18.773,25.880
19:37:57:624,12.726,2.177,-0.844,-0.157,-18.026,-20.113,32.281
19:37:57:651,12.753,1.780,-0.675,0.647,-18.459,-21.197,34.460
19:37:57:677,12.779,-0.949,0.642,0.203,-17.594,-21.631,31.796
19:37:57:703,12.805,0.424,-0.022,-0.543,-17.707,-23.249,29.869
19:37:57:73,12.832,0.067,0.519,1.227,-16.332,-26.143,29.046
19:37:57:756,12.858,1.488,0.652,0.629,-15.359,-29.508,25.886
19:37:57:782,12.884,0.161,-0.336,-0.072,-16.486,-30.444,24.023
19:37:57:809,12.911,0.314,-0.231,-0.327,-16.815,-30.720,21.319
19:37:57:834,12.936,0.474,0.025,0.050,-17.623,-30.420,19.779
19:37:57:861,12.963,-0.006,0.015,0.195,-18.296,-27.430,17.016
19:37:57:887,12.989,-0.101,0.095,-0.068,-18.749,-25.549,14.825
19:37:57:913,13.015,0.277,0.047,0.019,-18.935,-25.600,13.725
19:37:57:939,13.041,0.176,0.019,0.091,-18.916,-25.009,12.135
19:37:57:965,13.067,0.018,-0.042,-0.043,-18.983,-24.028,11.200
19:37:57:994,13.095,0.073,0.006,-0.042,-19.085,-22.697,9.668
19:37:58:047,13.149,0.087,-0.014,0.040,-18.905,-21.610,8.061
19:37:58:047,13.149,0.054,0.055,0.032,-18.857,-20.936,6.979
19:37:58:07,13.172,0.054,0.012,-0.049,-18.810,-20.242,5.277
19:37:58:097,13.199,0.056,-0.026,-0.042,-18.725,-19.585,4.093
19:37:58:123,13.225,0.027,-0.009,0.003,-18.600,-18.821,2.134
19:37:58:178,13.280,-0.014,0.038,-0.027,-18.497,-18.334,0.719
19:37:58:179,13.281,0.029,0.087,0.015,-18.419,-17.983,-1.691
19:37:58:202,13.304,-0.035,0.066,0.083,-18.350,-17.584,-4.392
19:37:58:228,13.330,-0.049,0.194,0.154,-18.356,-17.143,-6.411
19:37:58:284,13.386,-0.019,0.327,0.105,-18.428,-16.474,-9.895
19:37:58:285,13.387,-0.167,0.362,0.147,-18.378,-15.704,-12.504
19:37:58:307,13.409,-0.373,0.433,0.236,-18.147,-13.821,-16.761
19:37:58:334,13.436,-1.126,0.498,-0.071,-17.536,-11.108,-21.649
19:37:58:389,13.490,-1.569,0.502,-0.250,-16.724,-8.953,-25.459
19:37:58:39,13.491,-0.911,0.347,-0.755,-15.458,-6.403,-31.637
19:37:58:412,13.514,-0.985,0.436,-0.870,-15.770,-5.958,-35.844
19:37:58:438,13.540,-0.710,0.200,-0.293,-17.429,-6.553,-41.350
19:37:58:464,13.566,-0.241,-0.291,-0.308,-17.562,-7.812,-44.202
19:37:58:519,13.621,0.106,-0.296,-0.575,-15.936,-8.302,-46.082
19:37:58:52,13.622,-0.716,-1.208,-0.116,-11.947,-6.835,-43.843
19:37:58:544,13.646,-0.319,-1.071,0.017,-9.161,-5.887,-41.098
19:37:58:569,13.671,-0.249,-0.648,0.006,-7.518,-5.243,-35.394
19:37:58:655,13.757,-0.261,-0.549,-0.140,-7.963,-6.582,-28.467
19:37:58:655,13.757,-0.325,-0.389,-0.179,-8.708,-7.712,-23.053
19:37:58:656,13.758,-0.152,-0.041,-0.178,-9.842,-9.911,-13.502
19:37:58:676,13.778,0.019,0.442,-0.080,-10.802,-11.547,-6.565
19:37:58:701,13.803,0.309,0.732,0.035,-12.553,-14.594,4.090
19:37:58:727,13.829,1.242,0.996,0.254,-13.618,-16.661,11.049
19:37:58:754,13.855,1.598,0.484,0.320,-15.380,-18.624,21.164
19:37:58:78,13.881,1.968,-0.177,1.033,-17.210,-19.979,29.668
19:37:58:805,13.907,2.450,-0.875,-0.224,-17.449,-20.785,33.672
19:37:58:832,13.934,1.496,-0.752,0.711,-17.379,-21.815,34.856
19:37:58:859,13.961,0.233,0.003,0.119,-16.716,-21.817,31.626
19:37:58:884,13.986,1.072,-0.437,0.165,-17.214,-22.411,29.272
19:37:58:911,14.013,0.211,0.333,0.197,-16.827,-22.148,27.567
19:37:58:94,14.042,1.585,0.333,-0.321,-16.907,-22.515,23.553
19:37:58:94,14.042,0.017,-0.089,0.295,-17.587,-23.786,20.183
19:37:58:992,14.094,0.477,-0.215,0.149,-16.835,-24.447,18.520
19:37:58:993,14.095,0.482,0.183,0.231,-18.249,-24.161,16.376
19:37:59:016,14.118,0.078,0.115,0.064,-18.801,-22.432,14.635
19:37:59:042,14.144,-0.124,-0.041,-0.054,-19.103,-20.396,12.676
19:37:59:096,14.198,0.133,-0.039,0.034,-19.232,-20.308,11.495
19:37:59:123,14.225,0.189,0.093,0.043,-19.428,-20.341,10.647
19:37:59:124,14.226,0.192,-0.108,0.045,-19.354,-19.638,9.306
19:37:59:149,14.251,-0.010,0.005,-0.020,-19.351,-18.740,8.411
19:37:59:202,14.304,0.016,0.047,-0.012,-19.406,-17.721,6.995
19:37:59:203,14.305,0.092,0.009,-0.006,-19.203,-17.090,5.575
19:37:59:228,14.330,0.094,-0.029,0.043,-19.060,-16.559,4.559
19:37:59:253,14.355,-0.002,0.013,0.013,-18.934,-15.584,2.866
19:37:59:279,14.381,0.073,0.054,0.008,-18.866,-15.051,1.618
19:37:59:305,14.407,0.024,0.021,0.033,-18.736,-15.102,-0.402
19:37:59:331,14.432,-0.027,0.082,-0.008,-18.649,-14.340,-2.744
19:37:59:357,14.459,-0.062,0.114,-0.012,-18.592,-14.548,-4.557
19:37:59:384,14.486,-0.039,0.165,0.187,-18.474,-13.650,-7.715
19:37:59:409,14.511,-0.094,0.302,0.106,-18.376,-13.815,-10.106
19:37:59:436,14.538,-0.200,0.394,0.116,-18.111,-12.455,-14.143
19:37:59:491,14.593,-0.680,0.512,0.042,-17.847,-11.910,-17.106
19:37:59:492,14.594,-1.026,0.361,-0.108,-17.077,-9.671,-22.118
19:37:59:514,14.616,-1.507,0.465,-0.360,-16.150,-7.562,-28.163
19:37:59:541,14.643,-0.859,0.338,-0.703,-15.672,-6.510,-32.231
19:37:59:568,14.670,-1.359,-0.047,-0.630,-16.194,-5.874,-38.252
19:37:59:593,14.695,-0.885,0.119,-0.349,-16.940,-5.831,-41.517
19:37:59:62,14.722,-0.115,-0.350,-0.254,-16.630,-7.436,-45.458
19:37:59:646,14.748,-0.578,-0.891,-0.013,-14.978,-6.771,-46.056
19:37:59:672,14.774,-0.640,-1.160,0.003,-11.489,-3.961,-44.574
19:37:59:7,14.801,-0.405,-1.099,0.088,-7.829,-1.783,-40.710
19:37:59:726,14.827,-0.167,-0.586,-0.015,-7.309,-1.208,-37.131
19:37:59:75,14.852,-0.255,-0.560,-0.054,-8.423,-2.117,-30.929
19:37:59:777,14.879,-0.374,-0.297,-0.050,-9.538,-3.064,-25.901
19:37:59:832,14.934,-0.245,-0.007,-0.070,-11.223,-5.001,-16.935
19:37:59:833,14.935,0.018,0.432,0.049,-12.999,-7.187,-7.041
19:37:59:856,14.958,0.356,0.776,0.346,-14.316,-8.710,-0.331
19:37:59:883,14.985,1.247,0.754,0.236,-16.203,-10.080,10.006
19:37:59:908,15.010,1.317,0.684,0.077,-17.906,-9.496,16.318
19:37:59:935,15.037,1.826,-0.082,0.925,-21.686,-9.405,25.815
19:37:59:961,15.063,2.542,-1.121,-0.596,-24.451,-8.572,32.764
19:37:59:987,15.089,2.462,-0.949,0.501,-25.362,-8.505,35.049
19:38:00:014,15.116,0.205,0.076,0.664,-25.149,-7.512,32.162
19:38:00:04,15.142,0.648,-0.150,-0.408,-25.153,-7.887,30.176
19:38:00:066,15.167,0.017,0.495,0.694,-24.816,-8.559,29.507
19:38:00:093,15.194,1.532,0.249,0.058,-24.026,-10.741,28.318
19:38:00:119,15.221,0.771,0.248,0.279,-24.004,-14.203,25.866
19:38:00:145,15.247,0.317,-0.250,-0.292,-23.141,-15.825,23.695
19:38:00:171,15.273,0.429,0.108,-0.101,-23.844,-16.291,22.230
19:38:00:197,15.299,0.297,0.040,0.122,-24.500,-14.427,19.695
19:38:00:223,15.325,-0.096,-0.037,0.096,-24.879,-12.149,17.964
19:38:00:249,15.351,0.108,0.054,-0.017,-25.281,-10.508,15.908
19:38:00:276,15.378,0.179,-0.007,-0.029,-25.451,-10.356,14.511
19:38:00:302,15.404,0.111,-0.035,0.034,-25.414,-9.679,13.442
19:38:00:328,15.430,0.041,-0.045,0.037,-25.380,-8.061,11.549
19:38:00:355,15.457,0.099,0.046,0.091,-25.395,-7.158,10.288
19:38:00:381,15.482,0.082,0.057,0.067,-25.248,-6.371,8.523
19:38:00:408,15.509,0.088,-0.022,0.019,-25.145,-5.757,7.369
19:38:00:433,15.535,0.050,-0.010,0.013,-25.145,-4.660,5.584
19:38:00:46,15.562,0.012,0.045,0.026,-25.221,-3.598,3.694
19:38:00:485,15.587,0.035,0.000,0.027,-25.277,-2.947,2.365
19:38:00:512,15.614,0.001,-0.008,0.052,-25.480,-2.000,0.237
19:38:00:538,15.640,-0.015,0.109,-0.027,-25.688,-1.467,-1.350
19:38:00:564,15.666,0.029,0.081,0.068,-25.963,-0.441,-4.089
19:38:00:591,15.693,-0.001,0.188,0.141,-26.312,1.173,-7.365
19:38:00:617,15.719,-0.017,0.295,0.213,-26.534,2.479,-9.823
19:38:00:643,15.745,-0.052,0.299,0.315,-26.828,4.849,-13.858
19:38:00:699,15.801,-0.222,0.324,0.390,-27.031,6.852,-16.903
19:38:00:7,15.802,-0.729,0.421,0.483,-27.201,10.502,-22.330
19:38:00:723,15.825,-1.271,0.368,0.662,-27.024,14.978,-28.847
19:38:00:778,15.879,-1.242,0.499,0.153,-26.892,17.845,-33.381
19:38:00:778,15.879,-1.257,0.167,-0.088,-27.624,20.522,-39.532
19:38:00:801,15.903,-0.690,0.159,0.522,-28.333,22.146,-42.886
19:38:00:827,15.929,-0.273,-0.537,-0.009,-26.825,23.967,-46.900
19:38:00:853,15.955,-0.395,-0.540,-0.332,-22.410,28.013,-47.920
19:38:00:879,15.981,-0.502,-1.573,1.032,-18.371,31.577,-46.690
19:38:00:906,16.008,-0.328,-1.256,0.531,-14.016,35.368,-42.598
19:38:00:932,16.034,-0.090,-0.566,0.393,-13.306,36.537,-38.806
19:38:00:958,16.060,-0.125,-0.495,0.284,-13.868,36.722,-32.214
19:38:01:011,16.113,-0.196,-0.054,0.424,-16.237,35.839,-16.887
19:38:01:066,16.168,0.333,0.488,0.313,-17.987,34.601,-6.407
19:38:01:067,16.169,1.059,1.021,0.037,-19.150,34.087,0.867
19:38:01:148,16.249,0.651,0.566,-0.172,-20.866,35.908,10.790
19:38:01:149,16.250,1.559,0.558,-0.854,-22.916,37.081,17.056
19:38:01:15,16.251,2.194,-0.129,-0.355,-26.271,37.810,25.707
19:38:01:169,16.270,1.900,-1.202,-2.184,-27.474,37.619,31.257
19:38:01:194,16.296,1.674,-1.037,-1.140,-27.102,36.629,32.229
19:38:01:221,16.323,-0.845,1.059,1.590,-26.011,34.962,28.728
19:38:01:247,16.349,2.010,-1.154,-0.559,-26.321,35.318,28.126
19:38:01:273,16.375,-0.370,0.292,0.453,-26.438,36.286,26.580
19:38:01:333,16.434,1.276,0.907,-0.636,-27.592,36.619,23.252
19:38:01:333,16.434,0.427,-0.184,-0.001,-27.513,35.922,21.813
19:38:01:334,16.435,-0.108,-0.082,-0.160,-26.734,35.142,19.524
19:38:01:353,16.454,0.302,0.122,-0.275,-27.500,34.750,18.255
19:38:01:407,16.509,0.192,0.040,-0.033,-27.803,36.881,15.527
19:38:01:408,16.510,0.046,-0.051,0.173,-27.949,38.915,13.742
19:38:01:461,16.563,0.110,0.073,-0.012,-28.070,39.905,11.778
19:38:01:461,16.563,0.136,-0.028,-0.061,-28.036,40.415,10.048
19:38:01:513,16.615,0.132,-0.041,0.054,-27.929,41.369,8.757
19:38:01:514,16.616,0.002,-0.019,0.057,-27.858,42.910,6.695
19:38:01:536,16.638,0.099,0.026,0.017,-27.787,43.726,5.343
19:38:01:62,16.722,0.132,-0.009,-0.006,-27.598,44.706,3.452
19:38:01:621,16.723,0.037,0.039,0.045,-27.433,45.890,1.530
19:38:01:622,16.724,0.038,0.017,0.023,-27.313,46.740,0.191
19:38:01:64,16.742,0.087,-0.002,0.041,-27.130,48.134,-1.890
19:38:01:755,16.857,0.061,0.021,0.067,-27.079,48.135,-3.278
19:38:01:755,16.857,0.029,0.041,0.100,-27.054,49.350,-5.441
19:38:01:756,16.858,-0.052,0.060,0.116,-27.057,49.479,-7.869
19:38:01:757,16.859,0.104,0.146,0.174,-27.126,50.197,-9.711
19:38:01:772,16.874,0.105,0.193,0.264,-27.273,50.683,-12.942
19:38:01:799,16.901,0.090,0.280,0.269,-27.341,51.717,-15.425
19:38:01:826,16.928,0.134,0.323,0.418,-27.396,53.122,-19.598
19:38:01:851,16.953,-0.037,0.346,0.739,-27.322,55.191,-22.762
19:38:01:877,16.979,-0.399,0.292,1.297,-27.026,58.335,-28.274
19:38:01:933,17.035,-0.959,0.294,1.359,-26.724,61.469,-34.728
19:38:01:933,17.035,-0.742,0.508,0.573,-27.065,62.879,-38.986
19:38:01:985,17.087,-0.551,-0.067,1.082,-28.612,63.975,-44.804
19:38:01:986,17.088,-0.470,-0.220,0.317,-28.778,64.863,-48.165
19:38:02:062,17.164,-0.345,-0.185,0.099,-27.452,64.427,-51.718
19:38:02:093,17.195,-0.448,-1.396,0.744,-23.190,66.641,-51.935
19:38:02:093,17.195,-0.155,-1.279,0.530,-19.653,68.160,-50.508
19:38:02:094,17.196,-0.055,-0.965,0.376,-15.359,69.693,-46.536
19:38:02:113,17.215,-0.043,-0.640,0.298,-14.312,69.802,-42.783
19:38:02:139,17.241,-0.171,-0.455,0.302,-14.519,68.729,-35.909
19:38:02:253,17.355,-0.247,-0.343,0.321,-15.032,67.886,-30.461
19:38:02:254,17.356,-0.229,-0.066,0.327,-16.043,65.968,-20.933
19:38:02:255,17.357,0.015,0.550,0.023,-17.633,63.087,-10.231
19:38:02:256,17.358,0.495,1.166,-0.267,-18.770,61.175,-2.889
19:38:02:359,17.460,0.665,0.818,-1.043,-20.429,59.217,7.808
19:38:02:359,17.460,1.291,0.613,-1.578,-21.969,58.832,14.164
19:38:02:36,17.461,1.238,-0.069,-1.502,-23.784,59.189,21.736
19:38:02:361,17.462,1.433,-0.844,-2.309,-24.461,58.755,25.672
19:38:02:377,17.478,0.820,-0.494,-0.953,-24.377,58.930,24.600
19:38:02:431,17.533,-0.521,1.165,2.459,-24.229,57.733,21.530
19:38:02:431,17.533,2.099,-0.367,-0.227,-24.189,58.037,21.025
19:38:02:454,17.556,-0.116,0.257,-0.238,-23.617,55.298,19.521
19:38:02:481,17.583,0.688,1.200,-0.363,-24.350,53.506,17.667
19:38:02:507,17.609,0.225,-0.473,-0.273,-24.313,51.334,15.690
19:38:02:563,17.665,0.139,0.144,-0.352,-25.052,50.326,13.604
19:38:02:563,17.665,0.268,0.185,-0.295,-25.625,51.652,11.835
19:38:02:586,17.688,0.014,-0.019,0.191,-25.846,55.166,9.065
19:38:02:67,17.772,-0.034,-0.016,0.258,-26.043,56.055,7.731
19:38:02:671,17.773,0.034,0.043,-0.084,-26.265,56.020,6.188
19:38:02:672,17.774,0.019,-0.073,0.127,-26.078,57.254,4.272
19:38:02:691,17.793,0.007,-0.072,0.143,-25.993,58.370,2.803
19:38:02:717,17.818,-0.001,0.008,0.146,-25.943,60.428,0.590
19:38:02:745,17.846,0.107,0.017,0.051,-25.838,60.828,-0.766
19:38:02:769,17.871,0.076,0.029,0.075,-25.777,62.316,-2.774
19:38:02:795,17.897,-0.005,0.002,0.115,-25.770,63.015,-4.167
19:38:02:822,17.924,-0.022,0.002,0.137,-25.803,64.656,-6.339
19:38:02:849,17.951,0.036,0.025,0.122,-25.906,65.543,-8.571
19:38:02:875,17.977,0.059,-0.007,0.136,-25.996,66.897,-10.136
19:38:02:902,18.004,-0.052,0.047,0.150,-26.216,67.840,-12.694
19:38:02:956,18.058,0.021,0.104,0.228,-26.426,69.036,-14.618
19:38:02:957,18.059,0.140,0.220,0.302,-26.761,70.351,-17.965
19:38:03:01,18.112,0.084,0.283,0.323,-26.966,71.480,-20.503
19:38:03:01,18.112,0.162,0.299,0.480,-27.180,73.507,-24.826
19:38:03:062,18.164,-0.014,0.321,0.991,-27.313,76.446,-29.963
19:38:03:062,18.164,-0.092,0.357,1.476,-27.217,78.763,-33.935
19:38:03:2,18.301,-0.310,0.310,1.558,-26.543,82.814,-40.505
19:38:03:2,18.301,-0.614,0.286,0.791,-25.626,85.323,-44.541
19:38:03:201,18.302,-0.239,-0.289,1.282,-25.856,88.373,-50.164
19:38:03:202,18.303,-0.291,-0.393,0.208,-25.041,90.413,-54.378
19:38:03:248,18.350,-0.312,-0.486,0.026,-22.276,91.687,-55.681
19:38:03:248,18.350,0.401,-1.471,0.698,-15.105,95.973,-54.642
19:38:03:249,18.351,0.293,-1.308,0.387,-9.913,98.658,-52.386
19:38:03:269,18.371,0.372,-1.072,0.469,-6.302,102.007,-47.625
19:38:03:295,18.397,0.196,-0.455,0.198,-7.844,103.301,-42.137
19:38:03:321,18.423,0.287,-0.478,0.455,-9.567,103.596,-37.589
19:38:03:347,18.449,0.271,-0.140,0.573,-12.064,103.932,-29.376
19:38:03:374,18.476,0.332,0.059,0.335,-13.661,103.699,-23.126
19:38:03:4,18.502,0.445,0.597,-0.135,-15.873,102.744,-13.476
19:38:03:427,18.528,0.280,0.786,-0.519,-16.928,102.424,-6.958
19:38:03:452,18.554,-0.056,0.778,-0.807,-18.315,103.781,2.050
19:38:03:51,18.612,-0.192,0.527,-1.729,-20.733,104.967,10.405
19:38:03:511,18.613,0.491,0.078,-1.980,-22.335,105.985,15.054
19:38:03:511,18.613,-0.834,-0.507,-1.800,-23.303,107.637,19.489
19:38:03:56,18.662,-0.114,-0.380,-0.749,-23.247,107.282,20.312
19:38:03:561,18.663,1.690,0.809,2.209,-22.935,105.600,18.028
19:38:03:611,18.713,-0.178,-0.432,-1.324,-22.900,104.090,17.431
19:38:03:691,18.793,0.156,0.242,-0.104,-23.106,101.891,16.996
19:38:03:692,18.794,0.177,0.876,-0.851,-23.451,100.281,14.185
19:38:03:75,18.852,-0.134,-0.165,-0.133,-23.600,100.314,12.719
19:38:03:75,18.852,-0.123,0.024,0.010,-23.851,101.183,10.154
19:38:03:751,18.853,0.010,0.115,-0.182,-24.416,101.870,8.213
19:38:03:752,18.854,0.067,0.000,-0.004,-24.439,103.055,7.025
19:38:03:796,18.897,0.024,-0.019,0.103,-24.609,104.848,5.434
19:38:03:797,18.898,-0.017,0.060,0.150,-24.778,105.694,4.436
19:38:03:821,18.922,0.035,0.006,0.105,-24.749,107.000,2.950
19:38:03:846,18.948,0.055,-0.031,0.092,-24.579,108.105,1.795
19:38:03:872,18.974,0.076,-0.018,0.146,-24.279,109.943,-0.096
19:38:03:929,19.031,0.084,0.039,0.030,-23.985,111.187,-1.881
19:38:03:929,19.031,0.087,0.039,0.079,-23.766,111.878,-3.049
19:38:04:065,19.167,0.027,-0.036,0.142,-23.449,112.957,-4.834
19:38:04:066,19.168,0.068,-0.002,0.148,-23.299,113.771,-6.150
19:38:04:067,19.169,0.053,0.016,0.119,-23.140,114.828,-8.195
19:38:04:068,19.170,0.065,0.021,0.117,-23.132,117.202,-10.342
19:38:04:17,19.271,0.059,-0.029,0.128,-23.139,117.940,-11.862
19:38:04:171,19.272,-0.012,0.075,0.211,-23.260,119.946,-14.346
19:38:04:172,19.273,0.169,0.129,0.101,-23.401,120.644,-16.191
19:38:04:173,19.274,0.270,0.187,0.105,-23.546,123.284,-19.383
19:38:04:19,19.291,0.254,0.247,0.145,-23.621,124.418,-21.811
19:38:04:191,19.292,0.354,0.271,0.195,-23.686,127.590,-25.793
19:38:04:213,19.315,0.733,0.320,0.605,-23.589,131.082,-30.501
19:38:04:24,19.342,0.976,0.310,0.802,-23.294,133.507,-34.203
19:38:04:295,19.397,1.208,0.197,1.216,-22.342,137.130,-40.292
19:38:04:295,19.397,0.281,0.324,0.918,-21.671,139.146,-44.196
19:38:04:347,19.449,0.929,-0.267,1.134,-22.001,142.354,-49.362
19:38:04:348,19.450,0.078,-0.310,0.458,-20.395,143.615,-53.509
19:38:04:371,19.473,-0.002,-0.533,0.264,-17.964,144.689,-55.051
19:38:04:397,19.499,0.633,-1.362,0.406,-12.317,147.631,-54.451
19:38:04:425,19.527,0.379,-1.338,0.120,-7.919,149.602,-52.523
19:38:04:45,19.552,0.488,-1.037,0.037,-3.814,151.929,-47.918
19:38:04:505,19.607,0.310,-0.719,0.059,-3.394,152.510,-44.362
19:38:04:506,19.608,0.318,-0.526,0.184,-5.034,152.077,-38.005
19:38:04:529,19.631,0.410,-0.327,0.294,-7.016,151.215,-29.977
19:38:04:554,19.656,0.340,-0.084,0.284,-8.280,150.360,-23.785
19:38:04:582,19.684,0.158,0.351,0.148,-10.259,148.848,-13.949
19:38:04:748,19.850,-0.254,1.160,-0.292,-11.583,147.908,-7.132
19:38:04:748,19.850,-0.650,0.924,-0.463,-13.258,147.930,2.878
19:38:04:749,19.851,-1.184,0.798,-0.823,-15.600,149.383,12.151
19:38:04:75,19.852,-1.303,0.162,-1.557,-17.052,149.942,17.638
19:38:04:77,19.872,-2.451,-0.735,-1.031,-17.588,149.164,22.791
19:38:04:771,19.873,-0.786,-0.370,-0.537,-17.184,148.099,23.031
19:38:04:772,19.874,0.635,0.408,0.095,-16.531,146.176,18.915
19:38:04:82,19.922,-1.390,-0.671,-0.222,-16.640,144.980,18.555
19:38:04:821,19.923,0.475,0.612,-0.228,-17.017,144.776,17.485
19:38:04:873,19.975,-0.541,0.945,-0.868,-17.415,144.185,14.822
19:38:04:874,19.976,-0.012,0.285,-0.244,-17.852,143.786,13.269
19:38:04:897,19.999,-0.121,-0.215,0.228,-17.838,142.677,11.087
19:38:04:952,20.053,-0.383,0.127,0.025,-18.615,141.925,9.879
19:38:04:952,20.053,-0.193,0.101,-0.122,-19.045,142.917,7.978
19:38:05:003,20.105,0.086,-0.055,0.061,-19.102,144.695,6.729
19:38:05:004,20.106,0.117,0.075,0.093,-19.401,146.742,5.015
19:38:05:027,20.129,-0.040,0.029,0.162,-19.550,147.334,3.658
19:38:05:055,20.157,0.068,-0.059,0.068,-19.383,148.057,2.640
19:38:05:08,20.182,0.101,-0.049,0.117,-19.138,149.688,0.884
19:38:05:137,20.239,0.051,0.026,0.039,-19.021,150.606,-0.323
19:38:05:137,20.239,0.092,0.047,0.066,-18.757,151.617,-2.096
19:38:05:159,20.261,0.031,-0.022,0.079,-18.436,152.592,-3.843
19:38:05:272,20.374,0.048,-0.002,0.128,-18.288,153.388,-5.027
19:38:05:273,20.375,0.104,-0.004,0.117,-18.063,154.490,-6.957
19:38:05:273,20.375,0.075,-0.005,0.094,-18.081,155.217,-8.007
19:38:05:274,20.376,0.104,0.042,0.113,-18.047,156.109,-10.180
19:38:05:29,20.392,0.154,0.022,0.103,-18.037,156.893,-12.585
19:38:05:374,20.476,0.213,0.105,0.103,-18.041,157.397,-14.403
19:38:05:375,20.477,0.196,0.222,-0.048,-18.164,158.506,-17.606
19:38:05:376,20.478,0.240,0.309,0.052,-18.219,159.264,-19.971
19:38:05:395,20.497,0.374,0.345,-0.011,-18.086,161.038,-23.797
19:38:05:478,20.580,1.032,0.388,0.129,-17.627,163.506,-28.224
19:38:05:478,20.580,1.309,0.315,0.194,-17.043,165.228,-31.679
19:38:05:503,20.605,1.649,0.138,0.617,-15.894,167.708,-37.679
19:38:05:503,20.605,0.749,0.357,0.824,-15.347,168.871,-41.743
19:38:05:527,20.629,1.443,-0.308,0.598,-16.222,170.080,-47.506
19:38:05:693,20.795,0.520,-0.222,0.580,-16.607,169.765,-52.562
19:38:05:694,20.796,0.194,-0.347,0.353,-16.324,168.770,-54.958
19:38:05:695,20.797,0.770,-1.394,0.119,-13.033,169.092,-55.154
19:38:05:696,20.798,0.218,-1.091,0.063,-9.726,169.604,-53.554
19:38:05:744,20.846,0.336,-0.970,-0.018,-5.510,170.003,-49.465
19:38:05:745,20.847,0.193,-0.610,0.047,-4.321,169.856,-45.698
19:38:05:746,20.848,0.400,-0.617,0.219,-4.179,168.667,-38.859
19:38:05:747,20.849,0.455,-0.346,0.268,-4.821,167.431,-30.532
19:38:05:762,20.864,0.352,-0.106,0.268,-5.391,166.310,-24.246
19:38:05:821,20.923,0.044,0.474,0.233,-6.626,164.292,-14.128
19:38:05:821,20.923,-0.332,1.167,0.057,-7.623,162.877,-7.170
19:38:05:822,20.924,-1.065,1.025,-0.057,-8.985,160.928,3.229
19:38:05:841,20.943,-1.625,0.649,-0.295,-10.490,159.402,13.128
19:38:05:867,20.969,-1.786,0.190,-1.071,-11.416,158.536,18.805
19:38:05:894,20.996,-2.908,-0.864,-0.801,-11.388,157.457,24.515
19:38:05:95,21.051,-1.396,-0.545,-0.780,-11.368,156.878,25.386
19:38:05:95,21.051,1.941,1.331,0.544,-11.219,156.367,21.310
19:38:05:972,21.074,-0.668,-0.189,-2.116,-11.755,156.793,20.509
19:38:06:057,21.159,0.155,0.121,0.151,-11.934,157.920,18.359
19:38:06:057,21.159,-1.170,0.890,0.020,-13.797,157.668,15.493
19:38:06:058,21.160,0.053,0.076,-0.201,-14.064,156.958,13.911
19:38:06:077,21.179,-0.376,-0.219,0.339,-14.368,155.508,11.964
19:38:06:103,21.205,-0.333,0.184,-0.049,-15.270,156.127,10.740
19:38:06:13,21.232,0.024,0.078,-0.009,-15.765,159.728,8.435
19:38:06:186,21.288,0.426,0.012,0.137,-16.043,161.404,6.814
19:38:06:186,21.288,-0.156,0.018,0.124,-16.125,161.144,5.814
19:38:06:209,21.311,0.023,0.055,0.105,-16.067,161.694,4.167
19:38:06:237,21.339,0.113,-0.114,0.095,-15.886,162.617,3.007
19:38:06:262,21.364,0.108,0.023,0.092,-15.846,163.742,1.099
19:38:06:315,21.416,-0.002,0.013,0.069,-15.732,164.125,-0.173
19:38:06:344,21.446,-0.008,-0.018,0.073,-15.554,164.590,-1.940
19:38:06:345,21.447,0.011,0.062,0.063,-15.460,165.315,-3.723
19:38:06:366,21.468,0.016,0.023,0.081,-15.309,165.953,-4.904
19:38:06:451,21.553,0.047,-0.049,0.095,-14.990,166.909,-6.662
19:38:06:452,21.554,0.103,-0.025,0.143,-14.796,167.401,-7.899
19:38:06:453,21.555,0.233,0.043,0.095,-14.533,168.096,-10.035
19:38:06:473,21.575,0.211,0.068,0.089,-14.367,168.426,-11.692
19:38:06:499,21.601,0.142,0.246,0.002,-14.257,168.851,-14.774
19:38:06:55,21.652,0.260,0.315,-0.139,-14.030,169.839,-18.324
19:38:06:637,21.739,0.419,0.347,0.041,-13.733,170.760,-20.887
19:38:06:638,21.740,1.079,0.461,0.153,-13.226,172.747,-25.373
19:38:06:639,21.741,1.810,0.358,0.235,-12.460,174.298,-28.896
19:38:06:64,21.742,2.052,0.301,0.336,-11.180,176.289,-35.268
19:38:06:657,21.759,0.947,0.374,1.189,-10.453,177.294,-41.801
19:38:06:682,21.784,1.546,-0.280,0.499,-11.292,177.299,-45.690
19:38:06:708,21.809,0.360,0.037,0.325,-13.094,175.448,-51.409
19:38:06:734,21.835,0.129,-0.090,0.669,-12.488,173.990,-53.370
19:38:06:759,21.861,0.902,-1.214,0.266,-9.764,173.755,-53.233
19:38:06:786,21.888,-0.018,-1.222,-0.042,-5.500,172.177,-51.482
19:38:06:841,21.943,0.064,-0.932,0.045,-4.619,170.968,-48.976
19:38:06:842,21.944,0.182,-0.923,0.098,-4.593,168.713,-43.430
19:38:06:894,21.996,0.260,-0.701,0.228,-4.640,167.234,-38.791
19:38:06:894,21.996,0.219,-0.480,0.257,-4.903,165.080,-30.705
19:38:06:917,22.019,0.265,-0.221,0.203,-5.143,163.649,-24.877
19:38:06:945,22.047,0.009,0.058,0.172,-5.526,161.577,-15.576
19:38:06:97,22.072,-0.527,0.412,0.070,-5.820,159.933,-5.740
19:38:06:996,22.098,-0.856,0.691,0.091,-6.338,159.448,0.614
19:38:07:022,22.124,-1.766,0.760,-0.125,-7.771,157.202,9.112
19:38:07:049,22.151,-2.289,0.262,-0.902,-8.543,155.078,13.999
19:38:07:077,22.178,-2.183,-0.446,-0.225,-8.934,154.202,19.681
19:38:07:101,22.202,-1.730,-0.137,-0.558,-9.089,153.223,20.832
19:38:07:128,22.230,0.572,0.307,0.042,-9.333,152.379,19.798
19:38:07:154,22.256,-0.750,-0.545,-1.107,-10.309,152.175,19.790
19:38:07:179,22.281,-0.147,0.097,0.112,-10.413,150.507,18.294
19:38:07:235,22.337,-0.525,0.911,-0.228,-11.395,149.380,14.781
19:38:07:236,22.338,-0.042,-0.308,-0.009,-12.513,147.435,12.289
19:38:07:287,22.389,-0.493,-0.212,0.146,-12.655,146.251,11.086
19:38:07:288,22.390,-0.189,0.155,0.044,-14.018,147.915,8.772
19:38:07:311,22.413,0.096,-0.074,0.041,-14.298,150.154,7.386
19:38:07:337,22.439,0.295,0.147,0.236,-14.909,150.848,5.663
19:38:07:364,22.466,-0.179,-0.092,0.053,-15.214,150.371,4.732
19:38:07:39,22.492,0.023,-0.007,0.037,-15.093,149.940,3.033
19:38:07:416,22.518,0.048,0.003,0.055,-15.145,151.092,1.212
19:38:07:443,22.545,0.078,0.045,0.091,-15.244,151.079,-0.066
19:38:07:469,22.571,0.005,0.015,0.065,-15.241,151.802,-1.895
19:38:07:553,22.655,0.020,-0.005,0.102,-15.249,151.451,-3.087
19:38:07:554,22.656,0.055,-0.006,0.106,-15.315,152.287,-4.971
19:38:07:554,22.656,0.055,-0.001,0.152,-15.709,152.283,-6.578
19:38:07:574,22.676,0.023,0.036,0.105,-15.777,152.735,-8.005
19:38:07:629,22.731,0.073,0.032,0.092,-15.900,153.036,-10.235
19:38:07:63,22.732,0.188,0.093,0.030,-15.983,153.732,-11.855
19:38:07:681,22.783,0.212,0.181,-0.014,-16.142,154.155,-14.631
19:38:07:682,22.784,0.173,0.191,0.106,-16.318,154.862,-17.872
19:38:07:705,22.807,0.229,0.320,0.197,-16.407,154.887,-20.324
19:38:07:731,22.833,0.525,0.433,0.143,-16.400,156.552,-24.472
19:38:07:758,22.860,1.109,0.316,0.376,-16.022,158.058,-27.529
19:38:07:784,22.885,1.563,0.399,0.661,-15.068,160.887,-32.985
19:38:07:812,22.913,0.626,0.236,0.820,-14.345,162.570,-37.025
19:38:07:836,22.938,0.613,0.167,0.878,-13.179,164.881,-42.840
19:38:07:862,22.964,0.989,0.114,0.438,-13.605,167.422,-47.316
19:38:07:888,22.990,0.241,-0.482,0.220,-11.901,167.813,-49.728
19:38:07:915,23.017,0.400,-0.806,0.119,-7.352,170.626,-49.944
19:38:07:941,23.043,0.848,-1.381,-0.066,-3.747,173.224,-48.135
19:38:07:967,23.069,0.498,-1.163,-0.160,-0.605,176.134,-43.736
19:38:07:994,23.096,0.286,-0.619,-0.071,-1.519,177.176,-38.271
19:38:08:049,23.151,0.210,-0.515,-0.004,-3.237,176.939,-34.018
19:38:08:05,23.152,0.352,-0.325,0.076,-5.929,176.035,-26.020
19:38:08:075,23.177,0.337,-0.024,0.064,-7.542,175.281,-19.656
19:38:08:075,23.177,0.089,0.411,0.017,-10.129,173.699,-9.521
19:38:08:099,23.201,-0.594,1.169,-0.259,-11.723,172.668,-2.705
19:38:08:155,23.257,-0.925,0.752,-0.179,-13.675,172.743,7.026
19:38:08:155,23.257,-1.535,0.557,-0.156,-16.489,174.214,15.948
19:38:08:258,23.360,-1.733,0.051,-1.017,-18.558,174.455,21.347
19:38:08:319,23.421,-1.826,-0.542,0.134,-19.928,175.268,26.702
19:38:08:319,23.421,-2.172,-0.614,-0.311,-20.188,175.277,27.971
19:38:08:319,23.421,1.128,0.400,-0.383,-19.824,175.838,24.721
19:38:08:32,23.422,-1.155,-0.526,0.150,-20.137,175.504,23.588
19:38:08:367,23.469,-0.566,0.192,-0.338,-19.356,172.810,23.019
19:38:08:367,23.469,-1.258,0.381,-0.343,-18.846,169.764,20.625
19:38:08:368,23.470,-0.368,-0.148,0.028,-19.046,168.119,19.236
19:38:08:389,23.491,-0.097,-0.270,0.347,-18.826,168.298,16.816
19:38:08:415,23.517,-0.303,0.069,0.127,-19.552,168.534,15.383
19:38:08:44,23.542,-0.218,0.134,-0.046,-20.064,170.036,13.442
19:38:08:466,23.568,0.099,-0.047,0.010,-20.351,171.982,11.842
19:38:08:551,23.653,-0.023,-0.014,0.045,-20.637,172.467,10.951
19:38:08:551,23.653,-0.025,0.023,0.124,-20.883,173.183,9.729
19:38:08:553,23.655,0.043,-0.027,0.031,-20.867,174.146,8.774
19:38:08:601,23.702,0.070,-0.014,0.046,-20.809,175.625,7.133
19:38:08:601,23.702,-0.042,0.012,0.034,-20.716,176.567,5.451
19:38:08:653,23.755,-0.061,0.025,0.012,-20.609,177.153,4.339
19:38:08:653,23.755,0.059,-0.007,0.099,-20.520,178.721,2.643
19:38:08:704,23.806,0.040,-0.018,0.059,-20.471,179.495,1.451
19:38:08:729,23.831,0.046,0.014,0.027,-20.482,-178.958,-0.436
19:38:08:757,23.859,0.031,-0.001,0.060,-20.522,-178.399,-1.719
19:38:08:758,23.860,0.076,0.016,0.056,-20.705,-177.260,-3.733
19:38:08:922,24.024,0.074,0.082,0.072,-21.023,-176.134,-6.010
19:38:08:923,24.025,0.063,0.081,0.112,-21.192,-175.534,-7.737
19:38:08:923,24.025,0.053,0.155,0.000,-21.451,-173.541,-10.713
19:38:08:924,24.026,0.094,0.330,-0.116,-21.610,-172.269,-12.944
19:38:08:973,24.075,0.079,0.337,-0.249,-21.825,-169.520,-16.625
19:38:08:974,24.076,0.406,0.370,-0.286,-21.955,-166.585,-20.709
19:38:08:975,24.077,0.699,0.416,-0.466,-21.882,-164.004,-23.958
19:38:08:976,24.078,1.329,0.549,-0.694,-21.385,-159.550,-29.849
19:38:08:992,24.094,1.385,0.388,-0.476,-20.474,-156.305,-33.952
19:38:09:019,24.121,1.049,0.262,0.060,-19.179,-152.081,-39.669
19:38:09:044,24.146,0.723,0.145,-0.322,-19.109,-149.256,-42.681
19:38:09:099,24.201,0.267,-0.667,-0.297,-17.031,-146.869,-46.646
19:38:09:1,24.202,0.518,-1.118,-0.276,-12.947,-143.490,-47.645
19:38:09:123,24.225,0.516,-1.496,-0.509,-9.705,-140.465,-46.057
19:38:09:149,24.251,0.266,-1.105,-0.691,-5.738,-136.645,-41.469
19:38:09:175,24.276,0.123,-0.619,-0.393,-4.806,-134.891,-37.548
19:38:09:2,24.302,0.065,-0.409,-0.338,-5.704,-133.751,-30.906
19:38:09:227,24.329,0.184,-0.179,-0.431,-7.306,-133.028,-22.504
19:38:09:253,24.355,0.262,0.045,-0.375,-8.365,-132.750,-15.988
19:38:09:28,24.382,0.010,0.396,-0.188,-10.407,-133.333,-5.450
19:38:09:306,24.408,-0.947,1.476,0.585,-12.056,-134.510,1.657
19:38:09:332,24.434,-0.882,0.556,0.760,-14.272,-135.484,11.928
19:38:09:358,24.460,-1.673,0.529,1.186,-16.786,-134.872,21.541
19:38:09:386,24.488,-1.433,-0.338,1.699,-17.741,-134.268,26.842
19:38:09:411,24.513,-1.843,-1.176,1.890,-18.969,-132.851,31.667
19:38:09:438,24.540,-0.969,-0.599,0.594,-19.310,-131.808,31.133
19:38:09:464,24.566,0.991,0.881,-0.527,-18.689,-132.843,27.722
19:38:09:491,24.593,-1.333,-0.918,1.165,-18.421,-133.133,27.246
19:38:09:517,24.618,0.240,0.261,-0.387,-16.511,-137.564,25.632
19:38:09:572,24.674,-0.761,0.846,0.553,-16.808,-140.123,23.243
19:38:09:572,24.674,0.022,-0.263,0.378,-16.735,-140.842,21.606
19:38:09:594,24.696,-0.150,0.083,0.493,-17.323,-141.149,19.175
19:38:09:621,24.723,-0.342,0.127,0.262,-17.877,-140.698,17.702
19:38:09:649,24.751,-0.023,-0.025,0.058,-18.314,-138.217,15.614
19:38:09:674,24.776,-0.010,0.087,0.076,-18.833,-136.129,13.858
19:38:09:7,24.802,0.053,0.044,0.137,-19.036,-135.608,13.012
19:38:09:726,24.828,0.053,-0.037,0.104,-19.012,-134.588,11.744
19:38:09:753,24.855,0.045,-0.054,0.063,-18.989,-133.383,10.651
19:38:09:808,24.910,-0.002,0.008,0.000,-18.978,-131.377,8.854
19:38:09:809,24.911,0.013,0.051,-0.024,-18.946,-130.453,7.661
19:38:09:831,24.933,0.021,0.021,0.038,-18.769,-129.520,5.848
19:38:09:858,24.960,0.053,-0.040,0.014,-18.552,-128.459,3.829
19:38:09:884,24.985,0.056,0.016,-0.025,-18.450,-127.809,2.358
19:38:09:939,25.041,0.077,0.021,0.008,-18.300,-126.485,0.089
19:38:09:939,25.041,-0.008,0.031,0.002,-18.258,-126.137,-1.507
19:38:09:992,25.094,0.128,0.024,0.005,-18.247,-124.852,-4.063
19:38:09:992,25.094,0.100,0.141,0.044,-18.314,-124.115,-7.038
19:38:10:014,25.116,0.027,0.174,0.041,-18.311,-122.653,-9.289
19:38:10:071,25.173,-0.040,0.296,-0.134,-18.177,-120.726,-12.968
19:38:10:071,25.173,-0.150,0.442,-0.335,-18.033,-118.781,-15.593
19:38:10:124,25.226,0.084,0.446,-0.656,-17.803,-116.498,-19.952
19:38:10:124,25.226,0.421,0.503,-0.984,-17.536,-114.494,-23.421
19:38:10:146,25.248,0.608,0.532,-1.449,-16.898,-111.390,-29.495
19:38:10:235,25.337,0.849,0.192,-0.736,-15.492,-108.265,-35.660
19:38:10:235,25.337,0.952,0.189,-0.572,-15.278,-106.631,-39.575
19:38:10:236,25.338,0.439,0.197,-0.931,-15.839,-104.419,-44.037
19:38:10:237,25.339,0.198,-0.496,-0.154,-14.363,-104.382,-46.504
19:38:10:282,25.383,0.075,-1.095,-0.587,-10.537,-101.371,-46.929
19:38:10:282,25.383,-0.028,-1.288,-0.413,-6.046,-97.729,-43.825
19:38:10:332,25.434,-0.118,-1.039,-0.475,-4.314,-95.881,-40.591
19:38:10:333,25.435,-0.027,-0.552,-0.283,-4.439,-94.678,-34.904
19:38:10:386,25.488,0.068,-0.462,-0.338,-5.681,-94.900,-30.484
19:38:10:387,25.489,0.028,-0.295,-0.393,-7.901,-95.732,-22.416
19:38:10:408,25.510,0.042,0.032,-0.295,-9.283,-96.566,-16.133
19:38:10:464,25.566,-0.098,0.424,-0.109,-11.578,-98.555,-6.003
19:38:10:465,25.567,-0.402,1.056,0.701,-13.779,-100.996,4.303
19:38:10:488,25.590,-0.334,0.835,0.902,-14.971,-101.648,10.986
19:38:10:516,25.618,-0.374,0.546,1.601,-17.279,-102.368,20.473
19:38:10:541,25.643,-1.139,-0.028,1.991,-18.579,-103.559,26.227
19:38:10:566,25.668,-0.220,-1.202,2.885,-19.070,-104.583,31.899
19:38:10:593,25.695,-0.304,-0.659,1.349,-19.076,-104.668,31.636
19:38:10:618,25.720,-0.182,1.035,-1.325,-18.756,-104.888,28.522
19:38:10:644,25.746,-0.957,-0.866,1.294,-18.978,-104.927,27.494
19:38:10:671,25.773,0.136,0.112,0.302,-18.404,-106.348,26.441
19:38:10:756,25.857,0.003,0.441,1.475,-18.610,-107.859,23.790
19:38:10:757,25.858,-0.189,-0.274,0.251,-19.508,-108.963,22.212
19:38:10:757,25.858,0.287,-0.205,0.372,-19.088,-109.425,19.956
19:38:10:776,25.878,-0.104,0.099,0.380,-20.064,-108.286,17.852
19:38:10:918,26.020,-0.102,0.104,0.169,-20.574,-106.393,16.371
19:38:10:919,26.021,0.038,-0.036,-0.180,-20.983,-104.332,14.574
19:38:10:919,26.021,0.110,0.043,0.234,-21.101,-104.383,13.688
19:38:10:919,26.021,0.003,0.039,0.149,-21.134,-103.882,12.112
19:38:10:969,26.070,0.033,-0.084,-0.040,-20.969,-102.224,10.260
19:38:10:969,26.070,0.008,0.010,-0.004,-20.935,-101.285,8.931
19:38:10:97,26.071,-0.002,0.036,0.076,-20.788,-100.565,6.995
19:38:11:015,26.117,-0.024,0.000,0.112,-20.613,-100.181,5.757
19:38:11:016,26.118,0.057,-0.018,0.017,-20.444,-99.271,3.824
19:38:11:064,26.166,0.040,0.028,0.044,-20.302,-97.555,0.292
19:38:11:092,26.194,-0.002,0.027,0.026,-20.278,-96.849,-1.928
19:38:11:117,26.219,0.020,0.022,-0.012,-20.284,-96.337,-3.513
19:38:11:144,26.246,0.015,0.131,-0.066,-20.377,-95.641,-6.148
19:38:11:202,26.304,-0.147,0.246,-0.046,-20.477,-95.055,-8.140
19:38:11:202,26.304,-0.089,0.262,-0.110,-20.563,-93.885,-11.542
19:38:11:223,26.325,-0.162,0.310,-0.165,-20.514,-92.165,-15.458
19:38:11:279,26.381,-0.218,0.458,-0.483,-20.466,-90.532,-18.422
19:38:11:279,26.381,-0.159,0.374,-1.035,-20.145,-87.569,-23.560
19:38:11:331,26.432,-0.208,0.437,-1.309,-19.681,-85.362,-27.493
19:38:11:331,26.432,0.184,0.374,-1.097,-18.941,-82.142,-33.779
19:38:11:355,26.456,0.201,-0.155,-1.484,-18.738,-79.702,-39.674
19:38:11:41,26.512,-0.197,0.208,-0.896,-19.000,-78.073,-42.753
19:38:11:41,26.512,0.085,-0.584,-0.267,-17.033,-76.785,-46.747
19:38:11:432,26.534,-0.055,-0.981,-0.566,-14.434,-74.980,-47.680
19:38:11:459,26.561,-0.178,-1.303,-0.520,-9.609,-70.736,-46.122
19:38:11:512,26.614,-0.324,-1.015,-0.354,-6.531,-68.333,-43.708
19:38:11:569,26.671,-0.230,-0.726,-0.237,-4.897,-65.806,-38.739
19:38:11:57,26.672,-0.136,-0.503,-0.226,-6.389,-65.341,-32.894
19:38:11:571,26.673,-0.162,-0.367,-0.407,-8.035,-65.473,-27.898
19:38:11:591,26.693,-0.135,-0.070,-0.310,-10.571,-66.144,-18.892
19:38:11:645,26.747,-0.178,0.351,-0.025,-12.412,-66.999,-12.557
19:38:11:646,26.748,-0.163,0.782,0.420,-14.832,-68.371,-2.867
19:38:11:697,26.799,0.089,0.663,0.842,-16.972,-67.925,6.639
19:38:11:698,26.800,0.298,0.590,1.067,-18.935,-66.966,12.723
19:38:11:75,26.852,0.118,0.303,1.756,-22.360,-65.990,21.259
19:38:11:751,26.853,0.353,-0.148,1.864,-23.786,-65.016,25.533
19:38:11:773,26.875,0.626,-0.867,2.036,-24.468,-64.670,28.598
19:38:11:8,26.902,-0.370,-0.187,0.540,-24.039,-64.497,26.688
19:38:11:855,26.957,-1.016,0.995,-1.233,-23.857,-65.750,24.161
19:38:11:856,26.958,-0.040,0.066,0.702,-22.967,-67.720,23.544
19:38:11:879,26.981,-0.345,0.371,-0.681,-22.542,-69.528,22.296
19:38:11:905,27.006,-0.039,1.013,1.089,-22.998,-72.754,20.150
19:38:11:932,27.033,0.393,-0.326,0.121,-22.174,-73.399,18.675
19:38:11:957,27.059,0.285,0.062,0.249,-22.864,-73.018,16.009
19:38:11:983,27.085,0.004,0.054,0.190,-23.341,-70.749,13.465
19:38:12:011,27.113,-0.104,-0.002,0.000,-23.503,-69.094,12.025
19:38:12:066,27.168,0.070,0.014,0.035,-23.772,-68.170,10.427
19:38:12:067,27.169,0.102,0.068,0.104,-23.978,-67.705,9.548
19:38:12:089,27.190,0.010,-0.034,-0.009,-23.961,-66.137,8.073
19:38:12:174,27.276,-0.004,-0.036,-0.089,-23.939,-64.490,6.453
19:38:12:175,27.277,-0.007,0.010,-0.044,-23.849,-63.633,5.285
19:38:12:175,27.277,-0.013,0.017,0.039,-23.627,-62.608,3.544
19:38:12:193,27.295,-0.004,0.010,-0.041,-23.517,-61.855,2.361
19:38:12:251,27.353,-0.012,-0.023,-0.057,-23.357,-60.741,0.494
19:38:12:251,27.353,-0.014,0.018,-0.079,-23.279,-60.003,-0.883
19:38:12:301,27.403,-0.001,0.037,0.028,-23.296,-59.081,-3.083
19:38:12:302,27.404,-0.024,-0.029,-0.006,-23.328,-58.081,-5.354
19:38:12:325,27.427,-0.028,0.029,-0.088,-23.441,-56.925,-6.973
19:38:12:382,27.484,-0.007,0.095,-0.084,-23.699,-56.055,-9.594
19:38:12:383,27.485,-0.124,0.219,0.053,-23.839,-54.593,-11.552
19:38:12:404,27.506,-0.234,0.247,0.011,-23.998,-52.911,-14.936
19:38:12:459,27.560,-0.242,0.260,0.019,-24.032,-50.490,-18.739
19:38:12:46,27.561,-0.420,0.362,-0.157,-24.080,-48.640,-21.636
19:38:12:483,27.584,-0.895,0.446,-0.542,-24.070,-44.618,-26.826
19:38:12:509,27.611,-1.153,0.385,-0.630,-23.681,-41.603,-30.880
19:38:12:534,27.636,-1.056,0.384,-1.204,-22.657,-36.801,-37.512
19:38:12:561,27.663,-0.587,0.164,-1.333,-21.837,-33.244,-43.579
19:38:12:591,27.693,-1.031,-0.374,-1.078,-22.208,-31.503,-46.791
19:38:12:591,27.693,0.050,-0.229,-0.240,-21.018,-29.782,-50.996
19:38:12:643,27.745,0.248,-0.465,-0.431,-18.175,-28.257,-51.821
19:38:12:643,27.745,-0.700,-1.490,-0.073,-11.852,-23.623,-49.951
19:38:12:666,27.768,-0.737,-1.262,0.007,-7.837,-20.731,-47.239
19:38:12:722,27.824,-0.639,-0.847,0.069,-6.084,-17.989,-41.850
19:38:12:722,27.824,-0.205,-0.356,0.098,-7.910,-17.836,-35.827
19:38:12:774,27.876,-0.457,-0.358,0.057,-9.212,-18.097,-30.936
19:38:12:775,27.877,-0.507,-0.151,-0.060,-11.012,-18.547,-22.000
19:38:12:824,27.925,-0.321,0.087,0.031,-12.220,-19.090,-15.234
19:38:12:853,27.954,0.089,0.757,0.333,-14.230,-20.338,-4.856
19:38:12:854,27.955,0.616,0.795,0.434,-15.666,-20.706,5.184
19:38:12:876,27.978,0.760,0.780,0.417,-16.912,-20.096,11.545
19:38:12:904,28.006,1.444,0.417,1.114,-19.225,-20.459,21.018
19:38:12:987,28.089,3.125,-0.759,0.508,-19.879,-21.459,26.273
19:38:12:988,28.090,1.465,-1.168,0.790,-19.571,-22.692,30.320
19:38:12:989,28.091,0.150,0.194,0.472,-19.028,-23.333,28.931
19:38:13:008,28.110,-1.184,0.769,-0.681,-18.143,-25.804,25.439
19:38:13:034,28.135,0.093,0.388,1.427,-17.742,-27.372,24.956
19:38:13:059,28.161,-0.526,0.285,0.114,-17.023,-29.133,23.383
19:38:13:086,28.188,0.676,1.047,0.478,-17.366,-31.504,20.678
19:38:13:112,28.214,0.213,-0.359,0.023,-17.267,-32.896,19.057
19:38:13:14,28.242,0.568,0.072,-0.035,-17.506,-35.332,16.916
19:38:13:165,28.267,0.274,-0.043,0.226,-18.359,-34.697,14.850
19:38:13:22,28.322,-0.071,0.022,0.011,-18.791,-32.197,13.326
19:38:13:221,28.323,-0.051,0.080,-0.005,-19.326,-29.621,11.289
19:38:13:244,28.346,0.061,0.083,-0.035,-19.615,-29.434,10.316
19:38:13:27,28.372,0.106,-0.046,-0.020,-19.643,-29.325,9.044
19:38:13:296,28.398,0.044,-0.063,-0.003,-19.619,-28.368,7.898
19:38:13:352,28.454,-0.113,0.020,-0.012,-19.695,-26.126,5.833
19:38:13:353,28.455,-0.022,0.018,0.000,-19.687,-24.935,3.786
19:38:13:375,28.477,0.010,0.006,0.017,-19.563,-24.599,2.466
19:38:13:401,28.503,0.018,0.001,-0.017,-19.472,-23.899,0.336
19:38:13:457,28.559,-0.073,0.018,-0.021,-19.457,-23.244,-1.183
19:38:13:457,28.559,-0.035,0.004,-0.085,-19.458,-22.740,-3.611
19:38:13:48,28.582,-0.009,0.053,-0.029,-19.554,-22.314,-6.200
19:38:13:506,28.608,-0.020,0.084,-0.012,-19.611,-21.993,-8.035
19:38:13:562,28.663,-0.115,0.087,-0.061,-19.644,-21.169,-11.082
19:38:13:563,28.664,-0.068,0.171,-0.032,-19.695,-20.527,-13.400
19:38:13:585,28.686,-0.198,0.364,0.066,-19.673,-19.034,-17.337
19:38:13:611,28.713,-0.473,0.496,0.119,-19.557,-17.719,-20.260
19:38:13:637,28.739,-0.994,0.596,0.024,-19.144,-14.825,-25.372
19:38:13:665,28.767,-1.825,0.473,-0.379,-17.991,-11.665,-31.357
19:38:13:689,28.791,-1.712,0.281,-0.604,-16.906,-9.816,-35.570
19:38:13:718,28.820,-0.788,0.086,-0.938,-15.698,-7.921,-41.753
19:38:13:744,28.845,-1.096,0.098,-0.304,-16.597,-7.080,-45.197
19:38:13:769,28.870,-0.278,-0.096,-0.376,-16.956,-7.329,-49.649
19:38:13:824,28.926,-0.051,-0.336,-0.523,-13.810,-5.834,-50.873
19:38:13:824,28.926,-0.902,-1.374,0.072,-10.502,-3.705,-49.524
19:38:13:877,28.979,-0.479,-1.070,0.280,-6.063,-1.348,-45.611
19:38:13:878,28.980,-0.310,-0.639,0.079,-5.275,-0.488,-42.080
19:38:13:9,29.002,-0.323,-0.551,0.051,-6.554,-1.017,-35.947
19:38:13:926,29.028,-0.461,-0.321,0.127,-7.727,-1.849,-30.960
19:38:13:952,29.054,-0.413,-0.066,0.076,-9.055,-3.655,-21.892
19:38:13:979,29.081,-0.344,0.148,0.092,-10.332,-6.109,-11.804
19:38:14:005,29.107,0.029,0.640,0.152,-11.155,-8.160,-4.861
19:38:14:031,29.133,0.976,0.986,0.145,-11.847,-10.718,5.614
19:38:14:058,29.160,1.131,0.769,0.012,-12.429,-11.656,12.317
19:38:14:084,29.186,2.142,0.294,0.124,-13.722,-13.635,21.759
19:38:14:11,29.211,2.823,-0.983,-0.287,-13.936,-15.474,28.350
19:38:14:137,29.238,2.265,-0.519,0.088,-14.457,-16.150,30.196
19:38:14:163,29.265,-1.064,0.768,-0.239,-13.881,-17.018,27.356
19:38:14:189,29.291,0.759,-0.211,-0.501,-13.920,-19.251,25.904
19:38:14:215,29.317,0.572,0.504,0.994,-12.876,-21.372,24.276
19:38:14:241,29.343,1.539,1.007,0.180,-13.523,-22.917,20.553
19:38:14:267,29.369,0.060,0.612,0.402,-15.018,-22.781,18.595
19:38:14:296,29.398,0.188,-0.278,-0.377,-15.004,-23.722,16.173
19:38:14:32,29.422,0.274,-0.058,-0.037,-15.730,-23.926,14.861
19:38:14:347,29.449,0.062,0.044,0.126,-16.453,-22.163,12.506
19:38:14:373,29.475,-0.179,0.059,-0.111,-16.838,-20.569,10.588
19:38:14:399,29.501,0.115,0.033,0.036,-17.119,-20.499,9.492
19:38:14:425,29.527,0.092,0.047,0.007,-17.262,-20.307,7.873
19:38:14:451,29.553,-0.025,-0.087,-0.060,-17.362,-19.767,6.890
19:38:14:478,29.580,-0.045,0.026,-0.041,-17.507,-19.074,5.279
19:38:14:505,29.606,0.049,-0.002,0.034,-17.470,-18.769,4.116
19:38:14:53,29.632,-0.002,0.036,0.007,-17.441,-18.598,2.356
19:38:14:556,29.658,-0.055,0.013,-0.060,-17.506,-18.224,0.550
19:38:14:582,29.684,-0.022,-0.006,-0.080,-17.560,-18.347,-0.702
19:38:14:608,29.710,0.050,0.029,0.068,-17.586,-17.966,-2.740
19:38:14:635,29.737,-0.098,0.019,-0.064,-17.614,-17.543,-4.180
19:38:14:662,29.764,-0.068,0.093,-0.067,-17.725,-16.818,-6.571
19:38:14:687,29.789,-0.056,0.106,-0.060,-17.844,-16.580,-9.317
19:38:14:714,29.816,-0.080,0.112,0.146,-17.842,-15.974,-11.318
19:38:14:74,29.842,-0.165,0.337,0.029,-17.903,-15.139,-14.819
19:38:14:766,29.868,-0.185,0.407,0.037,-17.888,-14.330,-17.441
19:38:14:793,29.895,-0.663,0.544,0.103,-17.606,-12.298,-21.860
19:38:14:82,29.922,-1.523,0.532,-0.253,-17.088,-10.296,-25.211
19:38:14:849,29.951,-1.495,0.272,-0.432,-15.789,-7.593,-30.944
19:38:14:85,29.952,-0.705,0.213,-0.879,-14.599,-5.565,-36.830
19:38:14:901,30.002,-1.377,-0.312,-0.814,-14.683,-4.778,-40.676
19:38:14:901,30.002,-0.292,-0.059,-0.379,-15.771,-4.631,-45.519
19:38:14:923,30.025,0.014,-0.258,-0.637,-15.146,-5.114,-47.740
19:38:14:95,30.052,-0.844,-1.125,-0.095,-12.503,-3.939,-47.815
19:38:14:976,30.078,-0.452,-1.175,-0.028,-9.109,-2.293,-45.106
19:38:15:002,30.104,-0.431,-0.783,0.072,-7.681,-1.714,-42.258
19:38:15:029,30.131,-0.316,-0.579,-0.091,-7.602,-1.956,-36.745
19:38:15:084,30.186,-0.397,-0.513,-0.166,-8.417,-2.904,-32.349
19:38:15:084,30.186,-0.384,-0.289,-0.124,-9.861,-4.855,-24.468
19:38:15:107,30.209,-0.254,0.057,-0.139,-10.631,-6.522,-18.298
19:38:15:133,30.235,-0.090,0.529,-0.094,-11.937,-9.334,-8.241
19:38:15:16,30.262,0.339,1.029,0.106,-13.341,-12.611,2.165
19:38:15:186,30.288,1.137,1.075,0.176,-14.196,-15.008,9.151
19:38:15:212,30.314,1.616,0.613,0.831,-15.439,-17.538,19.210
19:38:15:239,30.341,3.237,-0.656,0.182,-15.828,-18.549,24.816
19:38:15:266,30.368,2.499,-0.840,0.132,-16.915,-18.427,29.537
19:38:15:291,30.393,1.105,-0.174,0.200,-17.116,-17.804,26.993
19:38:15:318,30.420,-0.878,0.744,-0.187,-17.842,-17.108,25.463
19:38:15:344,30.446,0.249,0.476,0.298,-17.727,-16.287,23.806
19:38:15:37,30.472,1.363,0.697,0.268,-17.870,-17.391,21.622
19:38:15:397,30.499,0.064,0.202,0.294,-18.256,-19.953,19.180
19:38:15:424,30.525,0.408,-0.166,-0.418,-17.993,-21.655,17.819
19:38:15:45,30.551,0.446,-0.019,-0.038,-19.167,-22.283,15.909
19:38:15:475,30.577,0.208,0.097,0.123,-20.062,-18.619,13.361
19:38:15:501,30.603,-0.246,-0.036,0.087,-20.414,-15.900,11.840
19:38:15:527,30.629,-0.032,0.138,-0.111,-20.948,-15.751,10.408
19:38:15:554,30.656,0.356,0.034,-0.026,-20.962,-16.132,9.480
19:38:15:58,30.682,-0.037,-0.042,-0.010,-20.897,-14.785,7.869
19:38:15:606,30.708,-0.129,-0.026,-0.063,-20.968,-13.068,5.973
19:38:15:632,30.734,-0.054,0.057,-0.009,-21.009,-12.429,4.657
19:38:15:66,30.762,0.039,0.034,0.008,-20.895,-11.873,2.690
19:38:15:686,30.788,0.034,0.027,0.022,-20.874,-11.228,1.294
19:38:15:712,30.814,-0.068,-0.017,-0.065,-20.863,-9.970,-0.921
19:38:15:738,30.840,-0.060,0.020,-0.041,-20.842,-8.764,-3.328
19:38:15:765,30.867,-0.050,0.029,0.010,-20.861,-7.942,-5.085
19:38:15:79,30.891,-0.139,0.066,-0.021,-20.849,-6.745,-8.052
19:38:15:816,30.918,-0.118,0.156,0.024,-20.830,-7.544,-10.238
19:38:15:843,30.945,-0.103,0.243,0.280,-20.852,-6.290,-13.866
19:38:15:87,30.972,-0.243,0.280,0.074,-20.814,-6.984,-16.519
19:38:15:925,31.027,-0.368,0.340,0.066,-20.702,-5.353,-20.926
19:38:15:925,31.027,-0.985,0.432,0.037,-20.389,-4.365,-25.851
19:38:15:947,31.049,-1.509,0.331,-0.115,-19.891,-2.530,-29.672
19:38:15:974,31.076,-1.680,0.268,-0.417,-19.247,0.003,-36.306
19:38:16:001,31.103,-1.324,0.194,-0.843,-19.171,1.366,-40.794
19:38:16:027,31.129,-1.331,0.033,-0.084,-19.924,2.106,-46.586
19:38:16:053,31.155,-0.573,-0.362,-0.261,-20.238,2.229,-51.332
19:38:16:079,31.181,-0.071,-0.069,-0.661,-18.392,3.200,-52.565
19:38:16:105,31.207,-0.855,-1.607,0.057,-13.382,6.351,-51.364
19:38:16:132,31.234,-0.386,-1.072,0.205,-10.805,7.840,-48.883
19:38:16:158,31.260,-0.283,-0.744,0.162,-10.404,8.517,-43.448
19:38:16:184,31.285,-0.373,-0.556,0.120,-11.530,8.046,-39.037
19:38:16:211,31.312,-0.371,-0.343,0.134,-13.166,7.055,-30.990
19:38:16:266,31.367,-0.321,0.006,0.130,-14.360,6.034,-21.177
19:38:16:267,31.368,-0.293,0.198,0.173,-15.246,5.485,-14.119
19:38:16:288,31.390,0.493,0.934,0.456,-16.791,4.989,-3.173
19:38:16:344,31.446,0.959,0.832,0.226,-17.688,5.423,3.900
19:38:16:344,31.446,1.287,0.684,0.040,-19.978,7.120,13.847
19:38:16:367,31.469,2.553,-0.124,0.496,-22.590,7.279,22.594
19:38:16:452,31.554,2.222,-0.548,-0.614,-23.383,7.606,26.643
19:38:16:453,31.555,2.233,-0.981,-0.144,-23.720,7.174,29.179
19:38:16:454,31.556,-1.643,1.224,1.077,-23.632,7.396,27.114
19:38:16:474,31.576,1.370,-0.625,0.593,-24.448,9.521,25.058
19:38:16:5,31.602,1.018,0.895,-0.604,-24.621,9.191,23.703
19:38:16:525,31.627,0.590,0.089,0.223,-25.207,7.557,20.392
19:38:16:61,31.712,0.083,-0.066,-0.212,-24.365,6.655,17.986
19:38:16:61,31.712,0.284,-0.100,-0.265,-24.793,6.792,16.356
19:38:16:612,31.714,0.053,0.066,0.046,-25.456,9.512,13.265
19:38:16:688,31.790,-0.250,0.097,0.024,-25.553,11.580,11.385
19:38:16:688,31.790,0.098,0.002,-0.028,-25.704,12.304,9.431
19:38:16:708,31.810,-0.036,-0.081,-0.015,-25.396,13.781,6.061
19:38:16:736,31.838,0.009,0.022,0.014,-25.328,14.994,3.959
19:38:16:79,31.892,0.071,-0.026,0.014,-25.124,15.606,2.644
19:38:16:791,31.893,0.061,0.042,0.041,-24.906,16.546,0.632
19:38:16:814,31.916,-0.016,0.003,0.011,-24.862,17.557,-1.338
19:38:16:84,31.942,-0.040,0.026,0.017,-24.866,18.186,-2.668
19:38:16:981,32.083,0.040,0.016,0.044,-24.962,19.248,-4.778
19:38:16:982,32.084,-0.138,0.070,0.097,-25.113,20.194,-6.374
19:38:16:982,32.084,-0.141,0.160,0.076,-25.480,21.601,-9.103
19:38:16:983,32.085,0.066,0.206,0.250,-25.686,22.522,-11.200
19:38:17:034,32.135,0.019,0.225,0.245,-26.006,24.381,-14.844
19:38:17:034,32.135,-0.163,0.241,0.232,-26.254,26.030,-19.016
19:38:17:035,32.136,-0.257,0.345,0.415,-26.441,27.805,-22.122
19:38:17:035,32.136,-0.798,0.455,0.779,-26.738,31.107,-27.526
19:38:17:076,32.178,-1.127,0.297,1.009,-26.540,34.036,-31.683
19:38:17:131,32.233,-1.281,0.521,0.750,-26.006,38.695,-38.597
19:38:17:132,32.234,-1.555,-0.225,0.725,-26.203,42.142,-44.690
19:38:17:158,32.260,-0.763,0.149,0.865,-26.237,44.239,-48.188
19:38:17:158,32.260,-0.269,-0.438,0.223,-23.772,46.188,-51.747
19:38:17:269,32.371,-0.474,-1.261,0.501,-19.923,48.820,-51.759
19:38:17:269,32.371,-0.161,-1.496,0.498,-13.528,53.216,-48.983
19:38:17:27,32.372,-0.025,-1.158,0.627,-10.510,56.174,-43.829
19:38:17:316,32.418,-0.035,-0.412,0.334,-12.743,56.381,-32.618
19:38:17:316,32.418,-0.072,-0.325,0.443,-13.859,55.986,-26.622
19:38:17:397,32.499,-0.023,-0.025,0.320,-15.304,55.251,-16.280
19:38:17:397,32.499,0.365,0.457,0.154,-16.508,54.460,-9.058
19:38:17:398,32.500,0.874,1.015,-0.150,-18.149,53.741,1.901
19:38:17:417,32.519,0.806,0.786,-0.637,-19.587,54.641,11.992
19:38:17:473,32.575,1.097,0.697,-1.235,-21.066,54.613,18.428
19:38:17:474,32.576,1.631,-0.054,-1.510,-22.854,53.525,27.208
19:38:17:497,32.599,1.613,-1.264,-2.726,-23.109,52.950,30.973
19:38:17:524,32.625,0.886,-0.642,-1.236,-23.232,53.613,30.854
19:38:17:578,32.680,-0.993,1.690,2.324,-22.952,52.394,27.973
19:38:17:579,32.681,1.670,-1.000,-1.175,-22.673,52.280,27.273
19:38:17:601,32.703,0.327,-0.219,-0.479,-21.173,49.398,25.170
19:38:17:715,32.816,0.468,0.606,-0.514,-22.011,48.178,23.361
19:38:17:716,32.817,0.114,-0.321,-0.183,-21.973,47.118,20.907
19:38:17:717,32.818,0.153,0.131,-0.443,-22.377,46.525,19.367
19:38:17:717,32.818,0.280,-0.019,-0.319,-23.035,47.577,17.222
19:38:17:761,32.863,0.050,0.040,0.065,-23.571,50.757,15.035
19:38:17:762,32.864,-0.062,-0.020,0.122,-23.794,51.971,13.841
19:38:17:785,32.887,-0.067,0.052,-0.074,-23.957,52.322,12.419
19:38:17:811,32.913,-0.013,-0.020,-0.051,-23.878,53.023,11.289
19:38:17:895,32.997,0.012,-0.062,0.058,-23.802,55.204,8.943
19:38:17:895,32.997,0.056,0.009,0.117,-23.782,57.018,6.441
19:38:17:978,33.080,0.078,0.044,-0.014,-23.701,57.548,4.912
19:38:17:979,33.081,0.056,-0.007,0.000,-23.536,58.323,2.620
19:38:17:979,33.081,-0.027,0.020,0.003,-23.512,58.998,1.035
19:38:17:996,33.098,-0.031,0.079,0.051,-23.515,60.971,-3.161
19:38:18:08,33.182,0.037,0.099,0.105,-23.695,62.257,-5.930
19:38:18:08,33.182,-0.004,0.055,0.089,-23.828,63.407,-8.945
19:38:18:081,33.183,0.191,0.163,0.162,-23.944,64.436,-11.238
19:38:18:102,33.204,0.054,0.318,0.202,-24.130,66.046,-15.144
19:38:18:126,33.228,0.032,0.360,0.245,-24.217,67.326,-18.117
19:38:18:152,33.254,0.150,0.351,0.577,-24.141,69.982,-22.902
19:38:18:237,33.339,-0.223,0.374,1.244,-23.971,71.973,-26.417
19:38:18:238,33.340,-0.387,0.311,1.600,-23.487,75.066,-32.450
19:38:18:239,33.341,-0.636,0.292,1.315,-23.093,78.038,-39.162
19:38:18:316,33.417,-0.828,-0.174,1.446,-23.617,79.462,-43.539
19:38:18:317,33.418,-0.267,0.170,0.969,-24.796,81.474,-48.956
19:38:18:365,33.467,-0.635,-0.489,0.175,-20.043,83.855,-53.295
19:38:18:366,33.468,0.063,-1.447,0.601,-12.770,87.986,-50.963
19:38:18:389,33.491,0.292,-1.127,0.433,-8.857,90.395,-47.970
19:38:18:445,33.547,0.149,-0.707,0.394,-7.220,92.787,-42.046
19:38:18:445,33.547,0.144,-0.523,0.337,-8.313,93.335,-37.605
19:38:18:467,33.569,0.212,-0.308,0.527,-10.786,93.282,-29.355
19:38:18:494,33.596,0.197,0.143,0.259,-13.032,92.778,-19.416
19:38:18:52,33.622,0.282,0.209,0.258,-14.506,92.062,-12.354
19:38:18:605,33.707,0.490,1.048,-0.457,-16.785,90.237,-1.376
19:38:18:605,33.707,0.244,0.777,-1.038,-18.062,89.865,5.606
19:38:18:606,33.708,0.116,0.731,-1.671,-20.605,90.305,15.545
19:38:18:625,33.727,0.928,0.210,-2.441,-22.610,89.754,21.718
19:38:18:651,33.753,-0.722,-0.809,-2.775,-23.691,89.420,28.155
19:38:18:678,33.780,0.160,-0.865,-1.434,-23.325,88.196,29.510
19:38:18:763,33.865,0.647,1.615,2.274,-22.757,86.935,26.907
19:38:18:764,33.866,1.165,-0.999,-1.764,-22.935,87.078,25.380
19:38:18:764,33.866,-0.579,0.073,-0.968,-22.467,85.718,24.303
19:38:18:784,33.886,0.498,1.171,-0.564,-23.234,84.536,20.722
19:38:18:81,33.912,-0.351,-0.438,-0.104,-22.607,82.912,18.258
19:38:18:834,33.936,-0.221,0.014,-0.258,-22.861,81.632,16.847
19:38:18:861,33.963,0.043,0.044,-0.403,-23.567,82.086,14.560
19:38:18:916,34.018,0.066,0.023,0.131,-23.886,84.349,12.685
19:38:18:917,34.019,0.096,-0.026,0.215,-24.161,87.157,10.182
19:38:18:941,34.043,-0.024,0.077,-0.129,-24.361,86.799,8.743
19:38:18:995,34.097,-0.002,-0.022,-0.153,-24.316,86.542,7.892
19:38:18:996,34.098,0.058,-0.045,-0.050,-24.267,87.398,6.293
19:38:19:019,34.121,0.030,-0.008,0.070,-24.277,88.403,5.022
19:38:19:045,34.147,0.052,0.057,0.049,-24.304,89.466,3.145
19:38:19:071,34.173,0.058,0.017,-0.027,-24.304,90.227,1.254
19:38:19:156,34.258,0.022,-0.008,0.023,-24.340,90.898,-0.118
19:38:19:156,34.258,0.003,0.015,0.110,-24.462,92.030,-2.420
19:38:19:157,34.259,0.016,0.048,0.103,-24.599,92.715,-4.110
19:38:19:176,34.278,0.086,0.083,0.036,-24.880,93.736,-6.879
19:38:19:203,34.305,0.012,0.078,0.115,-25.058,95.001,-8.906
19:38:19:309,34.411,0.069,0.130,0.133,-25.408,96.324,-12.401
19:38:19:344,34.445,0.249,0.339,0.111,-25.762,98.839,-16.418
19:38:19:344,34.445,0.290,0.263,0.128,-25.860,100.434,-19.306
19:38:19:345,34.446,0.455,0.391,0.486,-26.119,103.474,-24.162
19:38:19:345,34.446,0.492,0.463,0.851,-26.344,105.673,-27.940
19:38:19:361,34.462,0.670,0.376,1.507,-26.024,109.913,-34.495
19:38:19:386,34.488,0.174,0.346,1.314,-25.322,113.044,-39.126
19:38:19:415,34.517,-0.012,-0.045,1.515,-24.989,116.805,-45.590
19:38:19:416,34.518,0.579,0.094,1.055,-25.330,120.103,-50.487
19:38:19:497,34.599,0.064,-0.503,0.176,-23.595,121.154,-52.888
19:38:19:497,34.599,0.449,-1.048,0.302,-17.585,125.190,-53.318
19:38:19:498,34.600,0.532,-1.549,0.249,-12.703,128.612,-51.489
19:38:19:518,34.620,0.677,-1.174,0.204,-8.989,132.376,-46.753
19:38:19:573,34.675,0.443,-0.498,0.076,-10.269,133.918,-41.067
19:38:19:574,34.676,0.494,-0.436,0.076,-11.879,134.085,-36.421
19:38:19:596,34.698,0.536,-0.216,0.241,-14.064,134.013,-27.809
19:38:19:623,34.725,0.439,0.039,0.086,-15.213,133.702,-21.034
19:38:19:737,34.838,0.272,0.374,-0.205,-16.795,132.999,-10.206
19:38:19:737,34.838,0.004,0.956,-0.681,-18.022,132.781,0.628
19:38:19:738,34.839,-0.307,1.001,-0.852,-19.197,133.743,7.476
19:38:19:783,34.885,-1.576,-0.200,-1.853,-23.512,134.162,23.554
19:38:19:783,34.885,-2.271,-1.146,-1.946,-24.203,133.853,28.930
19:38:19:806,34.908,0.359,0.143,-0.432,-24.129,133.947,28.620
19:38:19:891,34.993,2.182,1.641,1.752,-23.593,132.303,25.045
19:38:19:892,34.994,0.369,0.099,-2.203,-23.075,130.653,24.483
19:38:19:892,34.994,-0.425,-0.163,-0.516,-21.873,128.738,23.009
19:38:19:94,35.042,-0.445,1.390,-0.827,-23.057,127.059,20.008
19:38:19:941,35.043,-0.218,-0.295,-0.004,-22.744,125.891,18.435
19:38:19:965,35.067,-0.479,0.043,-0.128,-23.063,124.489,16.402
19:38:20:019,35.121,-0.076,0.047,-0.276,-23.623,126.921,14.027
19:38:20:02,35.122,0.135,0.077,-0.032,-24.030,129.933,12.269
19:38:20:043,35.145,0.155,0.029,0.129,-24.297,132.198,10.276
19:38:20:071,35.173,-0.068,0.063,0.021,-24.447,132.132,9.425
19:38:20:095,35.196,-0.020,-0.031,0.022,-24.276,133.036,7.747
19:38:20:179,35.281,0.115,-0.074,0.008,-24.141,134.819,6.144
19:38:20:18,35.282,0.171,0.028,0.020,-24.011,137.188,3.666
19:38:20:181,35.283,0.050,0.046,-0.013,-23.808,138.133,1.449
19:38:20:2,35.302,0.003,-0.023,-0.008,-23.616,138.639,-0.007
19:38:20:256,35.358,0.033,-0.041,0.035,-23.374,140.383,-2.340
19:38:20:256,35.358,0.126,0.025,0.101,-23.324,141.414,-3.997
19:38:20:308,35.410,0.060,0.041,-0.003,-23.334,142.798,-6.531
19:38:20:309,35.411,0.056,0.060,0.076,-23.437,143.884,-9.193
19:38:20:331,35.433,0.152,0.095,0.051,-23.529,145.124,-11.137
19:38:20:387,35.489,0.314,0.229,-0.148,-23.717,146.718,-14.447
19:38:20:388,35.490,0.293,0.272,-0.193,-23.849,147.966,-16.979
19:38:20:411,35.513,0.321,0.308,0.069,-23.989,149.505,-21.244
19:38:20:437,35.539,0.668,0.373,0.029,-24.020,151.969,-25.992
19:38:20:463,35.564,1.184,0.377,0.235,-23.866,153.933,-29.523
19:38:20:489,35.590,1.657,0.122,0.900,-22.867,157.531,-35.638
19:38:20:569,35.671,0.703,0.628,0.940,-22.311,159.482,-39.989
19:38:20:6,35.702,1.362,-0.060,1.044,-23.612,161.230,-46.379
19:38:20:6,35.702,0.573,-0.212,0.528,-24.237,162.078,-49.917
19:38:20:601,35.703,0.202,-0.214,0.447,-23.479,162.011,-54.301
19:38:20:62,35.722,0.496,-1.037,0.362,-18.878,164.027,-55.177
19:38:20:646,35.748,0.483,-1.347,0.021,-14.137,166.080,-53.965
19:38:20:673,35.775,0.363,-0.990,-0.074,-7.903,168.577,-50.011
19:38:20:757,35.859,0.309,-0.683,-0.006,-5.960,169.665,-46.179
19:38:20:758,35.860,0.387,-0.635,0.107,-6.009,170.058,-39.515
19:38:20:759,35.861,0.468,-0.379,0.179,-7.729,169.318,-31.312
19:38:20:778,35.880,0.364,-0.015,0.170,-9.015,168.248,-24.902
19:38:20:805,35.907,0.216,0.403,0.140,-11.098,165.828,-14.577
19:38:20:831,35.933,-0.120,0.839,-0.092,-12.392,163.702,-7.418
19:38:20:857,35.958,-0.956,0.916,-0.216,-13.780,161.243,2.951
19:38:20:882,35.984,-1.600,0.689,-0.179,-14.654,160.627,9.667
19:38:20:909,36.011,-1.902,0.305,-0.472,-16.884,159.606,18.806
19:38:20:993,36.095,-2.128,-0.588,-0.088,-18.435,158.532,25.166
19:38:20:994,36.096,-2.263,-0.647,-0.898,-18.743,157.562,26.876
19:38:20:995,36.097,1.114,0.526,-0.096,-18.058,156.479,23.193
19:38:21:016,36.118,-1.326,-0.645,-0.590,-18.179,155.051,22.462
19:38:21:04,36.142,0.245,0.595,-1.838,-17.474,152.809,20.992
19:38:21:094,36.196,-0.168,0.255,-0.115,-18.625,149.253,16.024
19:38:21:148,36.250,-0.391,-0.246,0.113,-18.762,146.588,13.874
19:38:21:149,36.251,-0.519,0.164,-0.175,-19.499,146.669,12.643
19:38:21:172,36.274,0.109,0.033,-0.109,-20.043,150.550,10.015
19:38:21:228,36.329,0.229,-0.050,-0.003,-20.360,152.546,8.588
19:38:21:228,36.329,0.185,0.125,0.243,-20.818,152.074,7.214
19:38:21:279,36.381,-0.093,-0.023,-0.045,-20.640,152.326,5.427
19:38:21:28,36.382,0.136,-0.115,0.013,-20.527,153.604,4.060
19:38:21:303,36.405,0.179,0.042,0.073,-20.586,155.263,1.692
19:38:21:329,36.431,0.023,0.019,-0.003,-20.533,155.597,0.193
19:38:21:443,36.545,-0.026,0.020,-0.083,-20.379,155.841,-1.863
19:38:21:444,36.546,0.070,0.027,0.016,-20.396,156.703,-3.965
19:38:21:444,36.546,0.120,-0.001,0.089,-20.390,157.419,-5.421
19:38:21:445,36.547,0.066,0.008,0.029,-20.385,158.286,-7.654
19:38:21:522,36.624,0.091,0.017,0.045,-20.389,158.746,-9.165
19:38:21:523,36.625,0.160,0.065,0.026,-20.468,159.676,-11.646
19:38:21:524,36.626,0.219,0.135,-0.015,-20.521,159.768,-13.497
19:38:21:524,36.626,0.267,0.176,-0.167,-20.572,160.923,-16.699
19:38:21:567,36.669,0.271,0.311,0.008,-20.564,161.708,-20.507
19:38:21:592,36.694,0.412,0.467,-0.076,-20.495,162.914,-23.414
19:38:21:621,36.723,0.990,0.479,0.009,-19.812,165.433,-28.229
19:38:21:621,36.723,1.629,0.186,0.299,-18.917,167.343,-31.845
19:38:21:674,36.775,1.868,0.160,0.673,-17.667,169.664,-38.298
19:38:21:674,36.775,0.997,0.260,1.087,-17.509,170.905,-44.830
19:38:21:784,36.886,1.642,-0.623,0.852,-19.044,170.986,-48.793
19:38:21:785,36.887,0.407,-0.199,0.358,-21.045,170.013,-54.043
19:38:21:786,36.888,0.001,-0.230,0.686,-20.470,169.414,-55.813
19:38:21:786,36.888,0.904,-1.457,0.109,-16.046,170.594,-55.008
19:38:21:801,36.903,0.273,-1.195,0.046,-10.906,171.516,-51.634
19:38:21:828,36.930,0.371,-0.863,-0.009,-8.712,171.840,-48.087
19:38:21:855,36.957,0.242,-0.614,0.092,-8.046,171.207,-41.336
19:38:21:881,36.983,0.315,-0.589,0.186,-8.412,170.315,-36.077
19:38:21:907,37.009,0.378,-0.363,0.237,-9.252,168.800,-26.781
19:38:21:962,37.063,0.233,0.166,0.075,-9.948,167.540,-19.789
19:38:21:963,37.064,0.115,0.659,-0.047,-11.346,165.583,-8.883
19:38:22:014,37.116,-0.720,1.170,-0.119,-12.909,162.981,1.589
19:38:22:015,37.117,-1.459,0.822,-0.317,-13.733,161.059,8.373
19:38:22:039,37.141,-1.825,0.313,-0.949,-14.794,158.582,17.601
19:38:22:064,37.166,-2.823,-0.413,-0.135,-14.865,156.967,22.183
19:38:22:12,37.222,-2.816,-1.077,-0.995,-14.167,154.007,25.887
19:38:22:12,37.222,-0.618,0.005,-0.393,-13.892,152.514,23.923
19:38:22:143,37.245,1.442,0.665,0.719,-14.153,151.088,22.384
19:38:22:169,37.271,-0.435,0.585,-0.665,-14.409,151.272,21.405
19:38:22:195,37.297,-1.442,0.879,-0.319,-14.131,150.327,19.150
19:38:22:224,37.326,0.071,0.698,-0.488,-16.300,149.423,15.830
19:38:22:248,37.350,-0.351,-0.421,0.387,-15.987,148.532,14.185
19:38:22:276,37.378,-0.342,0.123,-0.178,-16.981,146.953,12.345
19:38:22:301,37.403,-0.130,0.106,-0.043,-17.977,148.780,10.148
19:38:22:327,37.428,0.239,-0.126,0.078,-18.230,150.870,8.701
19:38:22:381,37.483,0.140,0.138,0.112,-18.820,151.657,7.006
19:38:22:382,37.484,-0.181,0.038,0.058,-19.064,151.133,5.990
19:38:22:405,37.507,0.061,-0.033,0.000,-19.127,151.897,4.127
19:38:22:431,37.533,0.092,-0.017,0.048,-19.248,152.706,1.996
19:38:22:487,37.589,0.081,0.051,0.045,-19.353,153.264,0.522
19:38:22:487,37.589,0.025,0.028,-0.041,-19.360,153.081,-1.542
19:38:22:539,37.641,0.057,0.031,0.037,-19.399,153.429,-2.899
19:38:22:54,37.642,0.090,0.029,0.044,-19.544,153.587,-4.988
19:38:22:563,37.665,0.058,0.004,0.031,-19.604,154.136,-6.410
19:38:22:619,37.721,0.055,-0.006,0.069,-19.721,154.390,-8.622
19:38:22:619,37.721,0.128,0.055,0.018,-19.916,155.302,-11.043
19:38:22:641,37.743,0.183,0.122,0.025,-20.062,155.462,-12.835
19:38:22:668,37.770,0.265,0.274,-0.211,-20.307,156.609,-15.943
19:38:22:694,37.796,0.268,0.214,-0.136,-20.416,157.155,-18.263
19:38:22:72,37.822,0.391,0.385,0.131,-20.468,158.599,-22.360
19:38:22:746,37.848,1.022,0.454,0.218,-20.271,160.859,-27.250
19:38:22:773,37.875,1.441,0.213,0.385,-19.607,162.924,-30.852
19:38:22:799,37.901,1.898,0.318,0.693,-18.436,166.044,-37.308
19:38:22:854,37.956,0.734,0.282,1.079,-17.791,167.617,-41.545
19:38:22:855,37.957,1.293,-0.168,0.435,-19.270,168.843,-47.704
19:38:22:878,37.980,0.280,-0.332,0.089,-19.865,168.782,-51.028
19:38:22:904,38.005,-0.093,-0.130,0.492,-17.146,169.301,-53.070
19:38:22:931,38.032,0.933,-1.486,-0.217,-11.864,172.501,-51.405
19:38:22:956,38.058,0.356,-1.336,-0.018,-8.582,174.279,-48.852
19:38:22:984,38.085,0.507,-0.911,-0.108,-6.744,176.091,-43.488
19:38:23:008,38.110,0.256,-0.586,0.020,-7.340,176.182,-39.426
19:38:23:035,38.137,0.311,-0.431,0.018,-9.083,175.384,-32.042
19:38:23:091,38.193,0.388,-0.202,-0.031,-10.594,174.537,-22.832
19:38:23:091,38.193,0.321,0.033,-0.070,-11.719,173.913,-16.055
19:38:23:114,38.216,0.017,0.548,-0.116,-13.787,172.256,-5.409
19:38:23:17,38.272,-0.815,1.273,-0.450,-15.282,171.228,1.671
19:38:23:17,38.272,-1.292,0.712,-0.282,-17.544,170.963,11.773
19:38:23:193,38.294,-2.243,0.495,-1.017,-19.324,170.684,18.038
19:38:23:219,38.320,-2.385,-0.396,-0.140,-20.493,170.792,24.789
19:38:23:245,38.347,-1.933,-0.853,-0.484,-20.223,169.897,26.786
19:38:23:3,38.402,0.075,-0.066,-0.261,-20.020,169.192,24.496
19:38:23:301,38.403,-1.325,-0.667,0.522,-20.374,169.790,22.906
19:38:23:324,38.426,-1.210,0.548,-0.018,-20.829,168.538,21.717
19:38:23:35,38.452,-0.586,0.713,-0.681,-21.009,168.080,18.073
19:38:23:376,38.478,0.130,-0.412,0.174,-20.963,169.345,15.437
19:38:23:463,38.565,0.040,-0.065,0.184,-21.663,169.503,13.964
19:38:23:463,38.565,-0.239,0.092,-0.082,-22.269,170.422,11.896
19:38:23:463,38.565,0.090,-0.023,-0.034,-22.247,171.427,10.756
19:38:23:482,38.584,0.075,-0.026,0.065,-22.526,172.207,9.392
19:38:23:509,38.611,-0.036,0.089,0.090,-22.670,172.926,7.874
19:38:23:535,38.637,0.077,-0.065,0.024,-22.521,173.760,6.771
19:38:23:561,38.662,0.136,0.005,0.033,-22.385,174.832,4.949
19:38:23:587,38.688,-0.025,0.016,0.004,-22.243,175.308,3.645
19:38:23:612,38.714,0.007,0.019,-0.015,-22.014,175.894,1.723
19:38:23:668,38.770,0.014,0.027,-0.047,-21.932,176.456,0.425
19:38:23:668,38.770,0.093,-0.017,0.034,-21.853,177.751,-1.582
19:38:23:799,38.901,0.065,-0.013,0.045,-21.833,178.555,-3.699
19:38:23:832,38.934,0.068,0.027,0.018,-21.893,179.153,-5.210
19:38:23:833,38.935,0.080,0.068,-0.050,-22.065,-179.868,-7.659
19:38:23:834,38.936,0.166,0.177,-0.007,-22.192,-179.219,-9.466
19:38:23:835,38.937,0.142,0.192,-0.134,-22.355,-178.144,-12.588
19:38:23:857,38.959,0.194,0.272,-0.132,-22.443,-176.930,-14.976
19:38:23:857,38.959,0.301,0.355,-0.102,-22.540,-174.935,-19.157
19:38:23:857,38.959,0.860,0.459,-0.360,-22.471,-171.336,-24.234
19:38:23:875,38.977,1.144,0.343,-0.382,-22.102,-168.549,-28.125
19:38:23:931,39.033,1.556,0.460,-0.282,-21.370,-164.366,-34.583
19:38:23:932,39.033,0.968,0.332,0.438,-20.603,-162.004,-38.535
19:38:24:041,39.143,1.461,-0.273,-0.029,-20.433,-158.336,-43.999
19:38:24:042,39.144,0.389,-0.177,0.063,-19.259,-155.468,-48.414
19:38:24:043,39.145,0.045,-0.386,0.562,-16.580,-153.888,-49.759
19:38:24:044,39.146,0.606,-1.560,-0.671,-10.422,-148.504,-48.283
19:38:24:059,39.161,0.358,-1.223,-0.690,-6.247,-144.822,-45.650
19:38:24:085,39.187,0.273,-0.889,-0.621,-3.943,-140.577,-40.385
19:38:24:141,39.243,0.070,-0.360,-0.295,-5.518,-138.734,-34.504
19:38:24:142,39.244,0.321,-0.304,-0.478,-7.177,-138.221,-29.759
19:38:24:193,39.295,0.381,-0.067,-0.388,-9.752,-138.121,-21.087
19:38:24:194,39.296,0.161,0.019,-0.375,-11.432,-138.701,-14.628
19:38:24:217,39.319,-0.510,0.826,-0.090,-13.984,-140.609,-4.764
19:38:24:243,39.345,-0.619,0.538,0.271,-15.327,-141.541,1.817
19:38:24:269,39.371,-0.774,0.660,0.502,-17.185,-140.637,11.081
19:38:24:297,39.399,-1.769,0.144,0.837,-19.444,-140.563,19.700
19:38:24:349,39.450,-1.718,-0.381,1.650,-20.065,-140.486,23.844
19:38:24:376,39.478,-1.535,-0.749,0.835,-19.979,-140.860,26.482
19:38:24:377,39.479,1.157,1.196,-1.643,-19.239,-141.517,24.413
19:38:24:429,39.531,-0.639,-0.709,1.195,-19.328,-142.133,22.502
19:38:24:43,39.532,0.226,-0.005,-0.034,-18.711,-142.202,20.839
19:38:24:453,39.555,-0.344,0.272,0.777,-18.622,-142.211,18.720
19:38:24:479,39.581,-0.260,-0.238,0.109,-19.150,-144.888,16.629
19:38:24:505,39.607,-0.103,0.039,0.447,-18.254,-146.759,15.528
19:38:24:531,39.633,-0.353,0.060,0.427,-19.282,-147.687,13.741
19:38:24:558,39.660,0.112,0.037,-0.106,-19.770,-145.660,12.209
19:38:24:584,39.686,0.210,0.050,-0.168,-20.218,-142.135,10.170
19:38:24:64,39.742,-0.035,0.031,0.074,-20.527,-141.732,8.874
19:38:24:641,39.743,0.009,0.044,0.175,-20.633,-141.909,8.153
19:38:24:663,39.765,0.055,-0.067,0.052,-20.570,-140.692,6.706
19:38:24:69,39.791,0.105,-0.042,-0.040,-20.514,-139.043,5.382
19:38:24:716,39.817,0.092,0.040,-0.130,-20.374,-137.170,3.286
19:38:24:741,39.843,-0.036,0.007,0.051,-20.141,-136.452,1.330
19:38:24:797,39.899,0.006,-0.002,0.012,-19.994,-135.846,-0.064
19:38:24:798,39.900,0.040,0.018,-0.073,-19.812,-134.445,-2.364
19:38:24:821,39.922,0.136,-0.007,-0.100,-19.712,-133.648,-3.959
19:38:24:875,39.977,0.115,0.055,-0.072,-19.710,-131.976,-6.514
19:38:24:876,39.978,0.177,0.120,-0.017,-19.720,-131.526,-8.428
19:38:24:957,40.059,-0.008,0.182,-0.060,-19.665,-129.391,-11.874
19:38:24:958,40.060,0.028,0.325,-0.244,-19.453,-127.391,-15.815
19:38:24:958,40.060,-0.097,0.443,-0.322,-19.252,-124.853,-18.788
19:38:25:033,40.135,0.129,0.459,-0.685,-18.872,-122.234,-23.595
19:38:25:034,40.136,0.616,0.551,-1.154,-18.483,-120.165,-27.319
19:38:25:06,40.162,1.066,0.391,-1.765,-17.224,-116.792,-33.897
19:38:25:06,40.162,1.290,0.125,-0.470,-14.937,-113.530,-40.554
19:38:25:172,40.274,1.681,-0.259,-1.067,-15.302,-112.089,-44.512
19:38:25:172,40.274,0.582,0.055,-0.461,-17.066,-111.232,-49.609
19:38:25:173,40.274,0.467,-0.559,-0.001,-15.358,-111.246,-51.331
19:38:25:175,40.276,-0.106,-1.468,-1.058,-10.319,-107.806,-50.549
19:38:25:217,40.319,-0.100,-1.260,-0.303,-5.790,-104.848,-46.961
19:38:25:217,40.319,-0.045,-0.876,-0.429,-4.903,-103.391,-43.380
19:38:25:24,40.342,0.123,-0.630,-0.261,-6.379,-103.018,-37.098
19:38:25:266,40.368,0.150,-0.547,-0.340,-8.271,-103.758,-32.004
19:38:25:322,40.424,0.063,-0.191,-0.406,-10.822,-105.288,-22.680
19:38:25:322,40.424,-0.011,0.250,-0.279,-12.297,-106.448,-15.717
19:38:25:347,40.449,-0.289,0.757,0.053,-14.631,-108.650,-4.818
19:38:25:401,40.503,-0.659,1.183,0.852,-16.742,-110.168,5.900
19:38:25:402,40.504,-0.572,0.711,0.996,-17.981,-109.934,12.596
19:38:25:424,40.526,-1.117,0.107,1.781,-20.247,-110.016,21.676
19:38:25:45,40.552,-1.227,-0.193,1.848,-21.059,-110.503,26.391
19:38:25:477,40.579,-0.916,-1.127,2.902,-20.935,-111.911,30.307
19:38:25:532,40.634,-0.047,0.031,0.042,-20.325,-111.831,27.542
19:38:25:533,40.635,0.605,0.496,-0.120,-21.333,-111.319,26.467
19:38:25:556,40.657,-0.284,0.332,0.015,-20.766,-111.041,24.815
19:38:25:581,40.682,-0.378,0.729,1.074,-20.445,-112.086,22.591
19:38:25:608,40.710,-0.099,-0.155,0.267,-20.824,-114.869,20.069
19:38:25:634,40.736,0.292,0.029,0.580,-20.414,-116.812,18.706
19:38:25:661,40.763,-0.013,-0.081,0.689,-21.114,-117.299,16.509
19:38:25:689,40.790,-0.144,0.115,0.036,-22.064,-113.176,13.848
19:38:25:714,40.815,0.076,-0.013,-0.309,-22.389,-110.670,12.221
19:38:25:739,40.841,0.146,0.085,0.148,-22.867,-110.531,10.729
19:38:25:765,40.867,0.025,-0.041,0.120,-22.826,-110.511,9.767
19:38:25:791,40.893,0.040,-0.091,-0.089,-22.725,-108.161,7.657
19:38:25:847,40.949,0.038,0.036,-0.131,-22.804,-105.623,5.185
19:38:25:848,40.950,0.019,0.076,-0.042,-22.703,-104.808,3.625
19:38:25:871,40.973,-0.017,-0.017,0.057,-22.387,-104.063,1.397
19:38:25:898,40.999,0.055,0.003,-0.031,-22.298,-103.259,-0.200
19:38:25:924,41.025,0.074,0.029,-0.033,-22.319,-101.817,-2.778
19:38:25:978,41.080,-0.003,0.027,-0.038,-22.438,-100.408,-5.451
19:38:25:978,41.080,0.020,0.048,-0.039,-22.564,-98.935,-7.346
19:38:26:029,41.131,0.021,0.170,-0.149,-22.862,-97.747,-10.427
19:38:26:116,41.218,-0.369,0.302,-0.125,-23.096,-96.296,-12.740
19:38:26:117,41.219,-0.038,0.312,-0.238,-23.371,-94.522,-16.767
19:38:26:117,41.219,-0.167,0.362,-0.314,-23.540,-92.861,-19.841
19:38:26:118,41.220,-0.247,0.451,-0.731,-23.681,-89.720,-24.992
19:38:26:221,41.323,-0.177,0.337,-1.578,-23.353,-85.593,-31.128
19:38:26:222,41.324,-0.132,0.156,-1.689,-22.473,-82.490,-35.614
19:38:26:223,41.325,0.371,0.592,-1.191,-21.752,-78.320,-42.454
19:38:26:223,41.325,-0.026,-0.417,-1.715,-22.268,-76.626,-46.380
19:38:26:267,41.368,0.268,-0.209,-0.398,-22.100,-75.007,-51.565
19:38:26:268,41.369,0.683,-0.500,-0.309,-18.826,-73.640,-53.859
19:38:26:351,41.453,-0.784,-1.611,-0.689,-14.579,-70.980,-53.024
19:38:26:352,41.454,-0.413,-1.340,-0.148,-7.708,-66.985,-48.983
19:38:26:353,41.455,-0.310,-0.703,-0.231,-5.636,-64.725,-45.068
19:38:26:354,41.456,-0.271,-0.550,-0.227,-6.273,-63.201,-38.604
19:38:26:369,41.471,-0.356,-0.422,-0.453,-7.836,-62.968,-33.503
19:38:26:395,41.497,-0.346,-0.025,-0.371,-10.397,-63.033,-24.381
19:38:26:448,41.550,-0.302,0.361,-0.096,-12.811,-63.672,-14.000
19:38:26:506,41.608,-0.248,0.576,0.262,-14.434,-64.394,-6.726
19:38:26:507,41.609,0.080,0.955,0.957,-16.668,-64.506,4.179
19:38:26:508,41.610,0.390,0.829,1.211,-18.369,-63.237,10.792
19:38:26:526,41.628,0.188,0.170,2.414,-21.949,-62.341,20.256
19:38:26:613,41.715,1.256,-0.465,2.009,-23.757,-62.004,26.940
19:38:26:613,41.715,0.938,-0.987,2.361,-23.411,-63.066,28.022
19:38:26:614,41.716,-1.329,0.935,-1.354,-22.385,-65.430,24.613
19:38:26:632,41.734,0.286,-1.126,1.918,-22.338,-66.428,24.223
19:38:26:687,41.789,-0.684,0.533,0.515,-21.515,-69.463,23.198
19:38:26:687,41.789,0.289,0.867,1.032,-22.187,-70.735,20.049
19:38:26:797,41.899,0.252,0.000,0.355,-22.338,-71.558,18.342
19:38:26:798,41.900,0.368,0.019,0.155,-22.277,-72.596,15.812
19:38:26:799,41.901,0.299,0.052,0.378,-22.600,-72.151,14.293
19:38:26:817,41.919,-0.034,0.002,-0.240,-23.292,-66.833,10.123
19:38:26:9,42.002,-0.002,0.010,-0.098,-23.648,-65.929,8.500
19:38:26:901,42.003,0.084,0.013,0.032,-23.738,-65.101,6.926
19:38:26:902,42.004,-0.026,-0.031,-0.040,-23.686,-63.826,5.624
19:38:26:95,42.052,-0.013,-0.011,-0.086,-23.633,-61.964,3.579
19:38:26:951,42.053,-0.032,0.037,-0.033,-23.567,-61.022,2.216
19:38:26:973,42.075,-0.029,0.040,-0.031,-23.430,-59.932,0.198
19:38:27:029,42.131,0.009,0.011,-0.066,-23.346,-58.725,-1.988
19:38:27:029,42.131,0.024,-0.010,-0.071,-23.324,-57.740,-3.544
19:38:27:055,42.157,-0.066,0.020,-0.137,-23.470,-56.126,-6.113
19:38:27:106,42.208,-0.054,0.091,-0.136,-23.652,-55.172,-7.985
19:38:27:107,42.209,-0.111,0.171,-0.010,-23.991,-53.788,-11.044
19:38:27:13,42.232,-0.354,0.172,0.105,-24.106,-52.564,-13.308
19:38:27:157,42.259,-0.264,0.250,-0.048,-24.364,-50.587,-17.225
19:38:27:183,42.285,-0.268,0.325,-0.130,-24.621,-48.322,-21.701
19:38:27:209,42.311,-0.612,0.361,-0.308,-24.669,-46.180,-25.002
19:38:27:235,42.337,-1.194,0.260,-0.891,-24.381,-42.167,-30.743
19:38:27:261,42.363,-1.381,0.249,-1.009,-23.859,-39.242,-35.166
19:38:27:319,42.420,-0.716,0.510,-1.023,-23.554,-35.332,-41.854
19:38:27:319,42.420,-1.156,-0.275,-1.041,-24.056,-32.524,-47.505
19:38:27:341,42.442,-0.684,0.042,-0.537,-23.534,-31.260,-50.877
19:38:27:366,42.468,-0.004,-0.200,-0.398,-20.338,-28.790,-53.596
19:38:27:393,42.495,-1.128,-1.711,0.006,-15.901,-26.501,-53.141
19:38:27:42,42.522,-0.485,-1.399,0.113,-8.979,-23.113,-49.670
19:38:27:445,42.547,-0.432,-0.811,0.086,-6.431,-21.469,-45.939
19:38:27:471,42.573,-0.380,-0.560,0.051,-6.190,-20.876,-39.389
19:38:27:498,42.600,-0.531,-0.411,-0.088,-7.642,-21.583,-31.429
19:38:27:552,42.654,-0.444,-0.195,-0.174,-8.612,-22.414,-25.018
19:38:27:58,42.682,-0.394,0.130,-0.024,-10.073,-24.394,-14.391
19:38:27:58,42.682,0.086,0.890,0.359,-11.105,-26.146,-6.958
19:38:27:603,42.705,0.854,1.222,0.506,-12.174,-28.272,4.254
19:38:27:659,42.761,1.569,0.998,0.598,-13.388,-28.771,14.801
19:38:27:66,42.762,2.149,0.328,0.891,-14.176,-29.654,21.244
19:38:27:711,42.812,3.211,-1.249,0.852,-14.371,-30.955,27.885
19:38:27:712,42.813,1.632,-0.908,0.923,-15.050,-30.850,29.276
19:38:27:734,42.836,-1.452,1.083,-0.721,-14.943,-31.091,25.487
19:38:27:789,42.891,-0.483,0.416,-0.896,-14.652,-33.026,24.403
19:38:27:79,42.892,0.442,0.611,0.652,-14.360,-34.812,23.148
19:38:27:813,42.915,0.922,0.989,0.190,-14.132,-35.890,20.753
19:38:27:839,42.941,0.081,0.300,0.360,-15.817,-37.252,17.841
19:38:27:865,42.967,0.398,-0.176,-0.043,-15.667,-39.301,15.490
19:38:27:892,42.994,0.409,-0.008,0.150,-16.358,-39.894,14.373
19:38:27:918,43.020,0.057,0.063,0.045,-16.973,-38.235,12.431
19:38:27:944,43.046,-0.060,0.041,-0.075,-17.427,-36.051,10.783
19:38:28:029,43.131,-0.027,0.113,-0.081,-17.735,-35.637,9.885
19:38:28:03,43.132,0.046,-0.105,-0.113,-17.798,-35.275,8.555
19:38:28:03,43.132,-0.044,-0.042,-0.121,-17.874,-34.377,7.313
19:38:28:05,43.152,-0.025,-0.015,0.003,-17.927,-32.403,5.077
19:38:28:076,43.177,-0.059,0.058,0.052,-17.908,-31.369,3.546
19:38:28:103,43.204,-0.079,0.026,-0.056,-17.859,-30.586,1.281
19:38:28:128,43.230,0.051,0.004,-0.042,-17.806,-30.013,-1.066
19:38:28:154,43.256,0.007,-0.001,-0.039,-17.744,-29.367,-2.704
19:38:28:18,43.282,-0.139,0.036,-0.187,-17.653,-28.388,-5.312
19:38:28:206,43.308,-0.059,0.124,-0.098,-17.706,-27.818,-7.222
19:38:28:233,43.335,-0.026,0.089,-0.076,-17.719,-26.980,-10.438
19:38:28:259,43.361,-0.145,0.280,0.241,-17.723,-25.491,-14.090
19:38:28:289,43.391,-0.227,0.390,0.114,-17.716,-24.421,-16.785
19:38:28:289,43.391,-0.511,0.500,0.080,-17.595,-22.582,-21.239
19:38:28:342,43.444,-1.225,0.483,-0.426,-17.391,-20.929,-24.516
19:38:28:342,43.444,-1.538,0.206,-0.586,-16.390,-18.383,-29.900
19:38:28:364,43.466,-1.446,0.205,-1.011,-15.508,-16.700,-34.154
19:38:28:391,43.493,-0.754,0.235,-1.098,-14.811,-14.976,-40.640
19:38:28:417,43.519,-1.043,0.035,-0.365,-16.524,-14.383,-46.564
19:38:28:442,43.544,-0.332,-0.300,-0.474,-16.194,-14.891,-49.554
19:38:28:469,43.571,-0.153,-0.441,-0.851,-13.216,-13.959,-50.484
19:38:28:495,43.597,-0.920,-1.450,-0.017,-10.189,-12.675,-48.764
19:38:28:551,43.653,-0.334,-1.085,0.079,-6.302,-11.060,-44.123
19:38:28:551,43.653,-0.326,-0.642,-0.056,-4.812,-10.373,-37.295
19:38:28:574,43.676,-0.390,-0.532,-0.179,-4.947,-10.505,-32.055
19:38:28:601,43.703,-0.428,-0.215,-0.132,-6.180,-11.633,-23.072
19:38:28:627,43.729,-0.259,0.309,-0.003,-7.106,-12.865,-16.174
19:38:28:653,43.755,-0.159,0.561,0.019,-8.609,-14.986,-5.186
19:38:28:68,43.782,0.653,1.194,0.177,-10.124,-18.329,5.851
19:38:28:706,43.808,1.417,0.961,0.222,-10.943,-20.702,12.933
19:38:28:734,43.835,2.120,0.396,0.850,-11.460,-24.188,22.787
19:38:28:758,43.860,2.052,-0.301,0.535,-10.846,-26.682,27.898
19:38:28:785,43.887,2.787,-1.227,1.124,-10.041,-29.671,31.790
19:38:28:81,43.912,1.490,-0.620,0.558,-9.648,-30.188,30.607
19:38:28:836,43.938,-1.215,1.170,-0.713,-9.439,-31.825,25.741
19:38:28:863,43.965,0.540,0.002,3.105,-9.551,-31.985,23.393
19:38:28:919,44.021,0.418,0.054,-0.079,-9.190,-32.462,20.243
19:38:28:92,44.022,0.824,0.451,-0.690,-11.061,-33.340,15.852
19:38:28:942,44.044,0.206,-0.090,0.432,-12.789,-34.259,13.494
19:38:28:971,44.073,0.696,-0.387,-0.010,-12.010,-36.460,10.640
19:38:28:994,44.096,0.333,0.166,0.239,-13.405,-35.320,8.304
19:38:29:021,44.123,0.098,0.072,0.065,-13.700,-33.762,6.776
19:38:29:047,44.149,0.008,0.037,-0.090,-14.225,-32.655,5.159
19:38:29:073,44.175,0.101,-0.011,-0.027,-14.566,-32.522,4.474
19:38:29:1,44.201,0.089,0.018,-0.009,-15.020,-32.202,3.455
19:38:29:126,44.228,0.086,-0.074,-0.043,-15.172,-31.814,2.773
19:38:29:151,44.253,0.003,-0.009,-0.051,-15.377,-30.611,1.696
19:38:29:178,44.280,-0.017,0.030,-0.105,-15.564,-29.452,0.368
19:38:29:204,44.306,-0.011,-0.019,-0.060,-15.532,-28.891,-0.556
19:38:29:23,44.332,0.008,0.014,-0.059,-15.602,-28.007,-2.193
19:38:29:257,44.359,0.021,0.018,-0.051,-15.691,-27.365,-3.466
19:38:29:283,44.385,-0.014,0.064,-0.050,-15.850,-26.457,-5.593
19:38:29:309,44.411,-0.073,0.099,-0.118,-15.929,-25.775,-7.130
19:38:29:335,44.437,-0.105,0.215,-0.013,-16.152,-24.802,-9.812
19:38:29:362,44.464,-0.237,0.237,0.105,-16.245,-23.656,-12.925
19:38:29:388,44.490,-0.165,0.378,-0.076,-16.261,-22.929,-15.358
19:38:29:415,44.517,-0.366,0.392,0.111,-16.179,-21.350,-19.386
19:38:29:441,44.543,-0.856,0.389,-0.193,-15.834,-19.733,-22.224
19:38:29:467,44.568,-1.375,0.286,-0.514,-14.945,-17.220,-27.181
19:38:29:493,44.594,-1.406,0.170,-1.018,-13.987,-14.868,-33.338
19:38:29:519,44.621,-0.937,0.438,-0.878,-14.135,-13.875,-37.664
19:38:29:546,44.648,-1.444,-0.213,-0.759,-15.493,-13.554,-43.791
19:38:29:572,44.674,-0.518,-0.149,-0.530,-15.857,-14.103,-47.540
19:38:29:598,44.700,-0.018,-0.120,-0.700,-15.152,-14.781,-50.774
19:38:29:624,44.726,-0.686,-1.483,-0.035,-12.809,-14.102,-50.517
19:38:29:651,44.753,-0.372,-1.369,-0.008,-7.809,-12.239,-47.594
19:38:29:677,44.779,-0.443,-0.929,-0.032,-4.744,-10.643,-42.099
19:38:29:703,44.805,-0.269,-0.559,-0.147,-4.559,-10.530,-37.589
19:38:29:729,44.831,-0.318,-0.425,-0.188,-5.894,-11.528,-29.874
19:38:29:755,44.857,-0.341,-0.149,-0.145,-6.992,-12.631,-23.876
19:38:29:784,44.886,-0.285,0.202,-0.164,-8.615,-14.674,-13.540
19:38:29:808,44.910,0.003,0.839,0.053,-10.462,-17.495,-2.497
19:38:29:835,44.936,0.952,1.539,0.328,-11.864,-19.924,5.084
19:38:29:862,44.963,1.458,0.721,0.218,-13.701,-21.889,15.883
19:38:29:886,44.988,2.166,0.007,1.300,-15.316,-22.787,22.590
19:38:29:912,45.014,3.098,-1.214,0.249,-16.749,-22.942,29.938
19:38:29:939,45.041,1.642,-1.107,0.981,-17.962,-22.400,32.002
19:38:29:966,45.068,0.356,0.166,0.590,-17.759,-22.165,28.937
19:38:29:992,45.094,0.508,0.003,0.184,-17.661,-23.403,25.492
19:38:30:018,45.120,0.265,0.027,2.261,-17.388,-23.343,23.953
19:38:30:045,45.147,1.670,0.274,-0.624,-16.590,-24.698,19.642
19:38:30:071,45.173,0.185,0.848,0.697,-17.922,-26.318,17.115
19:38:30:097,45.198,0.765,-0.448,0.072,-17.404,-27.534,13.969
19:38:30:123,45.224,0.411,-0.002,0.118,-18.155,-27.051,11.405
19:38:30:149,45.251,0.102,0.038,0.112,-18.584,-25.178,9.658
19:38:30:175,45.277,-0.044,0.086,-0.077,-19.230,-23.490,7.951
19:38:30:201,45.303,0.083,-0.063,-0.067,-19.570,-23.375,7.285
19:38:30:228,45.329,0.147,0.049,-0.077,-19.956,-23.308,6.372
19:38:30:255,45.356,0.160,-0.050,0.021,-20.171,-22.349,5.243
19:38:30:28,45.382,-0.102,-0.024,-0.066,-20.327,-21.228,4.487
19:38:30:306,45.408,-0.011,0.036,-0.072,-20.495,-20.138,3.290
19:38:30:333,45.434,-0.006,-0.003,-0.091,-20.488,-19.658,2.380
19:38:30:359,45.461,-0.029,0.013,-0.029,-20.584,-18.594,0.699
19:38:30:386,45.488,-0.061,0.029,-0.052,-20.683,-18.646,-0.663
19:38:30:412,45.514,0.015,0.090,-0.013,-21.036,-17.456,-3.065
19:38:30:47,45.572,0.024,0.045,-0.046,-21.390,-16.927,-5.577
19:38:30:47,45.572,-0.074,0.081,-0.007,-21.643,-16.034,-7.388
19:38:30:471,45.573,-0.123,0.209,0.119,-22.006,-15.321,-10.571
19:38:30:517,45.619,-0.140,0.283,-0.041,-22.234,-14.328,-13.029
19:38:30:546,45.647,-0.198,0.298,-0.020,-22.500,-12.812,-17.166
19:38:30:547,45.648,-0.583,0.408,0.131,-22.692,-9.897,-21.903
19:38:30:595,45.697,-1.072,0.438,0.104,-22.701,-7.676,-25.603
19:38:30:625,45.727,-1.557,0.342,-0.179,-22.334,-3.635,-32.034
19:38:30:625,45.727,-1.099,0.450,-0.317,-22.183,-0.956,-36.492
19:38:30:648,45.750,-1.544,0.067,-0.614,-22.411,2.714,-42.483
19:38:30:674,45.776,-0.608,0.065,-0.177,-20.881,5.822,-47.176
19:38:30:701,45.803,-0.317,-0.433,-0.163,-18.451,7.403,-49.370
19:38:30:727,45.829,-0.477,-0.921,-0.286,-12.555,12.249,-49.312
19:38:30:753,45.855,-0.711,-1.581,0.362,-8.387,15.891,-47.293
19:38:30:779,45.881,-0.365,-0.974,0.578,-5.865,19.574,-42.317
19:38:30:835,45.937,-0.236,-0.684,0.436,-6.612,20.605,-38.526
19:38:30:835,45.937,-0.158,-0.409,0.293,-9.483,20.300,-31.868
19:38:30:858,45.960,-0.390,-0.186,0.237,-12.198,19.220,-23.089
19:38:30:885,45.987,-0.219,0.108,0.158,-13.607,18.297,-16.247
19:38:30:911,46.013,0.120,0.431,0.254,-15.558,17.009,-5.659
19:38:30:938,46.039,0.739,0.866,0.241,-16.520,16.877,1.384
19:38:30:992,46.094,0.795,0.766,0.090,-17.864,18.614,11.255
19:38:30:992,46.094,1.549,0.551,-0.346,-20.681,19.649,20.799
19:38:31:015,46.117,2.090,0.004,-0.084,-22.419,18.887,26.833
19:38:31:041,46.143,2.598,-1.330,-1.636,-23.360,18.193,32.769
19:38:31:068,46.170,1.210,-0.609,-0.631,-23.795,18.844,33.219
19:38:31:094,46.196,-1.949,1.573,1.139,-23.493,19.713,28.823
19:38:31:147,46.249,-0.036,0.412,0.844,-22.091,16.311,27.282
19:38:31:173,46.275,1.351,1.068,-0.092,-21.547,13.421,24.562
19:38:31:199,46.301,0.404,0.080,-0.337,-21.543,11.966,23.030
19:38:31:226,46.328,0.266,-0.079,-0.474,-21.529,9.905,20.888
19:38:31:252,46.354,0.496,-0.023,-0.163,-21.988,9.867,19.654
19:38:31:279,46.381,0.091,0.026,0.076,-22.626,13.184,17.214
19:38:31:334,46.435,-0.174,0.003,0.064,-23.269,15.933,15.207
19:38:31:334,46.435,0.023,0.113,-0.071,-23.558,15.893,14.386
19:38:31:356,46.458,0.140,-0.031,-0.143,-23.589,16.059,13.158
19:38:31:383,46.485,-0.037,-0.035,0.060,-23.631,17.442,11.907
19:38:31:438,46.540,-0.025,-0.017,0.038,-23.834,19.817,9.751
19:38:31:439,46.541,0.003,0.048,-0.003,-23.873,20.788,8.373
19:38:31:462,46.564,0.090,0.003,0.000,-23.740,21.560,6.480
19:38:31:488,46.590,0.003,-0.008,-0.036,-23.703,22.622,4.427
19:38:31:516,46.618,-0.016,-0.011,-0.026,-23.724,23.548,2.944
19:38:31:542,46.644,-0.055,0.041,-0.001,-23.819,24.722,0.634
19:38:31:567,46.669,0.015,0.025,-0.012,-23.924,25.324,-0.946
19:38:31:593,46.695,-0.044,0.050,-0.028,-24.182,26.360,-3.489
19:38:31:62,46.722,-0.105,0.064,-0.023,-24.371,27.118,-5.346
19:38:31:734,46.836,0.006,0.195,0.129,-24.732,27.284,-8.547
19:38:31:734,46.836,0.014,0.327,0.209,-25.080,27.917,-12.343
19:38:31:735,46.837,0.078,0.323,0.328,-25.241,29.508,-15.166
19:38:31:735,46.837,-0.135,0.382,0.489,-25.472,31.357,-19.822
19:38:31:75,46.852,-0.694,0.571,0.909,-25.618,33.959,-23.482
19:38:31:777,46.879,-1.137,0.483,1.227,-25.360,38.762,-29.908
19:38:31:945,47.046,-1.118,0.427,0.427,-24.472,43.705,-36.756
19:38:31:945,47.046,-1.310,0.369,0.277,-24.292,46.272,-41.021
19:38:31:946,47.047,-0.565,0.070,0.569,-24.826,48.889,-46.175
19:38:31:946,47.047,-0.159,-0.291,-0.046,-24.323,48.906,-49.219
19:38:31:962,47.063,-0.433,-0.340,-0.539,-20.965,51.140,-50.836
19:38:31:992,47.094,-0.255,-1.516,0.603,-14.981,55.572,-48.694
19:38:31:993,47.095,-0.089,-1.379,0.727,-11.309,58.264,-45.657
19:38:31:994,47.096,0.004,-0.621,0.484,-9.774,60.675,-39.959
19:38:32:014,47.116,0.084,-0.380,0.552,-10.996,60.654,-35.813
19:38:32:04,47.142,0.030,-0.236,0.645,-12.925,60.176,-28.290
19:38:32:065,47.167,0.016,0.093,0.508,-14.413,59.303,-18.948
19:38:32:121,47.223,0.088,0.305,0.294,-15.302,58.299,-11.981
19:38:32:122,47.224,0.480,0.621,0.013,-16.578,56.087,-0.909
19:38:32:146,47.248,0.743,0.952,-0.660,-16.930,55.216,6.150
19:38:32:171,47.273,0.806,0.755,-1.148,-18.062,54.716,16.175
19:38:32:197,47.299,1.518,-0.325,-2.095,-18.454,52.258,24.744
19:38:32:223,47.325,1.473,-1.060,-2.983,-18.149,51.552,28.058
19:38:32:249,47.351,0.646,-0.750,-1.495,-18.281,52.660,27.284
19:38:32:334,47.435,-1.030,1.793,2.296,-18.899,52.465,24.937
19:38:32:335,47.436,2.308,0.141,-0.298,-18.462,52.849,23.467
19:38:32:336,47.437,0.056,0.138,-0.802,-18.278,51.740,20.337
19:38:32:355,47.456,0.205,0.980,-0.414,-19.921,51.305,18.300
19:38:32:439,47.541,-0.275,-0.465,-0.305,-19.674,49.021,16.049
19:38:32:439,47.541,0.357,0.045,-0.396,-19.886,47.952,15.052
19:38:32:44,47.542,0.363,0.114,-0.310,-20.785,50.049,12.554
19:38:32:573,47.675,-0.064,-0.047,0.239,-21.242,53.073,10.813
19:38:32:574,47.676,-0.276,0.166,0.313,-21.825,54.399,9.028
19:38:32:595,47.697,-0.068,-0.072,0.109,-21.776,56.864,4.733
19:38:32:595,47.697,-0.053,0.004,0.116,-21.826,57.872,3.339
19:38:32:677,47.778,-0.116,0.016,0.079,-21.758,58.521,1.239
19:38:32:678,47.779,-0.001,0.005,0.046,-21.707,58.979,-0.934
19:38:32:679,47.780,0.043,0.009,0.053,-21.708,59.443,-2.438
19:38:32:697,47.798,-0.036,0.035,0.075,-21.683,61.257,-4.939
19:38:32:781,47.883,-0.057,-0.001,0.063,-21.682,61.793,-6.688
19:38:32:781,47.883,-0.036,0.054,0.061,-21.744,63.295,-9.450
19:38:32:782,47.884,-0.080,0.085,0.145,-21.790,63.766,-11.448
19:38:32:829,47.931,0.164,0.222,0.158,-21.821,65.623,-14.867
19:38:32:831,47.933,0.122,0.336,0.269,-21.900,66.946,-18.760
19:38:32:856,47.958,0.010,0.329,0.338,-21.814,68.542,-21.659
19:38:32:857,47.959,-0.155,0.557,0.929,-21.634,71.312,-26.773
19:38:32:937,48.039,-0.387,0.386,1.572,-21.163,73.638,-30.724
19:38:32:938,48.040,-0.542,0.293,1.729,-19.782,77.125,-37.169
19:38:32:939,48.041,-0.968,0.251,0.708,-18.264,79.821,-43.427
19:38:32:957,48.059,-0.755,-0.579,1.573,-18.588,81.053,-47.208
19:38:32:984,48.086,-0.370,-0.222,0.220,-19.476,81.720,-52.001
19:38:33:012,48.114,-0.317,-0.344,0.002,-18.091,81.900,-53.795
19:38:33:066,48.168,0.383,-1.357,0.810,-12.610,85.219,-53.060
19:38:33:067,48.169,0.104,-1.336,0.334,-8.337,87.525,-50.969
19:38:33:198,48.300,0.133,-1.037,0.495,-5.567,89.889,-46.223
19:38:33:199,48.301,0.057,-0.533,0.299,-7.248,90.190,-40.387
19:38:33:231,48.333,0.055,-0.420,0.299,-8.934,89.719,-35.771
19:38:33:231,48.333,-0.016,-0.263,0.471,-11.271,88.606,-27.324
19:38:33:232,48.334,0.029,0.174,0.336,-12.771,87.636,-20.823
19:38:33:232,48.334,0.110,0.471,0.083,-14.996,85.923,-10.636
19:38:33:247,48.349,0.357,0.973,-0.678,-16.709,84.743,-0.412
19:38:33:273,48.375,0.192,0.667,-0.910,-17.717,85.297,6.102
19:38:33:329,48.431,0.145,0.672,-1.370,-20.555,86.825,15.424
19:38:33:329,48.431,1.281,-0.020,-2.478,-22.582,87.124,20.946
19:38:33:381,48.482,-0.221,-0.579,-2.945,-23.815,87.730,26.395
19:38:33:382,48.483,0.515,0.126,0.500,-23.333,87.958,25.218
19:38:33:405,48.507,0.393,1.310,2.204,-23.719,86.858,23.342
19:38:33:432,48.534,1.297,0.590,-0.491,-22.878,84.590,22.547
19:38:33:458,48.560,-0.130,0.088,-1.452,-21.775,82.331,20.949
19:38:33:484,48.586,0.031,-0.096,-0.307,-22.702,80.239,17.910
19:38:33:54,48.642,-0.329,-0.267,-0.221,-22.124,79.279,16.277
19:38:33:54,48.642,-0.103,0.076,-0.484,-22.822,78.490,14.023
19:38:33:562,48.664,0.155,0.057,-0.088,-23.243,80.856,11.415
19:38:33:617,48.719,0.069,-0.015,0.188,-23.495,82.966,9.807
19:38:33:618,48.720,-0.059,0.056,0.074,-23.880,83.703,8.102
19:38:33:641,48.743,-0.018,0.032,-0.107,-23.977,83.604,7.192
19:38:33:669,48.771,-0.001,-0.101,0.080,-23.937,84.823,5.471
19:38:33:694,48.796,-0.027,0.021,0.121,-23.956,86.337,3.563
19:38:33:72,48.821,0.013,0.017,0.057,-23.931,86.904,2.276
19:38:33:746,48.847,-0.001,-0.001,-0.059,-23.792,87.313,0.489
19:38:33:771,48.873,0.046,0.066,-0.021,-23.811,87.827,-0.709
19:38:33:798,48.900,0.047,0.044,0.076,-23.931,88.946,-2.570
19:38:33:853,48.955,-0.011,-0.057,0.135,-23.987,89.795,-3.890
19:38:33:854,48.956,-0.056,0.034,0.124,-24.232,92.069,-6.054
19:38:33:906,49.008,-0.053,0.010,0.143,-24.626,94.249,-8.614
19:38:33:907,49.009,-0.128,0.055,0.176,-24.807,94.972,-10.584
19:38:33:929,49.031,0.102,0.228,0.060,-25.214,97.486,-14.060
19:38:33:985,49.087,0.175,0.333,0.176,-25.453,98.829,-16.685
19:38:33:986,49.088,0.305,0.392,0.222,-25.784,102.137,-21.027
19:38:34:008,49.110,0.539,0.535,0.696,-26.212,105.565,-26.159
19:38:34:064,49.166,0.709,0.420,1.065,-26.300,108.471,-30.344
19:38:34:064,49.166,0.723,0.539,1.891,-25.906,113.414,-37.329
19:38:34:116,49.217,0.188,0.208,1.308,-24.764,116.598,-41.612
19:38:34:117,49.218,0.269,-0.334,1.485,-24.570,121.163,-47.304
19:38:34:139,49.241,0.207,0.211,0.749,-24.124,124.033,-50.327
19:38:34:166,49.268,-0.741,-0.488,0.300,-19.261,126.810,-52.402
19:38:34:192,49.294,1.064,-1.844,0.468,-11.963,132.735,-49.890
19:38:34:218,49.320,0.758,-1.428,0.129,-8.969,136.034,-46.488
19:38:34:244,49.346,0.729,-0.761,0.048,-8.755,139.352,-40.513
19:38:34:27,49.372,0.525,-0.335,-0.086,-10.398,140.245,-36.037
19:38:34:297,49.399,0.709,-0.226,0.056,-13.054,140.833,-27.751
19:38:34:324,49.426,0.628,0.186,0.058,-15.193,140.478,-17.510
19:38:34:408,49.510,0.507,0.387,-0.222,-16.312,139.646,-10.240
19:38:34:408,49.510,-0.116,0.835,-0.964,-17.224,138.566,1.005
19:38:34:409,49.511,-0.428,0.925,-0.780,-17.500,139.332,7.977
19:38:34:459,49.561,-0.981,0.789,-1.168,-19.453,140.736,17.772
19:38:34:459,49.561,-1.840,-0.202,-1.850,-20.529,139.734,24.082
19:38:34:511,49.613,-2.671,-1.334,-1.880,-19.749,137.612,29.995
19:38:34:511,49.613,-1.354,-0.496,-0.801,-19.151,137.090,29.165
19:38:34:533,49.635,2.266,2.099,1.670,-18.926,135.898,26.627
19:38:34:589,49.691,0.035,0.012,-2.580,-19.011,136.668,25.713
19:38:34:59,49.692,0.206,0.112,-0.384,-18.228,135.801,23.908
19:38:34:666,49.768,-0.545,1.016,-0.507,-19.527,135.757,20.915
19:38:34:697,49.798,-0.170,-0.278,-0.008,-19.466,133.345,18.684
19:38:34:698,49.799,-0.733,-0.013,-0.103,-19.671,131.938,17.704
19:38:34:698,49.799,-0.210,-0.032,-0.366,-20.439,134.048,15.508
19:38:34:717,49.818,0.235,0.062,0.254,-21.014,137.265,13.984
19:38:34:743,49.845,0.271,0.087,0.206,-21.524,139.271,12.054
19:38:34:827,49.929,-0.232,-0.067,0.063,-21.247,138.247,10.768
19:38:34:828,49.930,-0.107,-0.064,-0.012,-21.123,138.787,9.484
19:38:34:877,49.979,0.169,0.060,-0.010,-20.988,142.559,5.253
19:38:34:878,49.980,-0.033,0.009,-0.102,-20.852,143.353,2.947
19:38:34:901,50.003,-0.040,0.009,-0.044,-20.729,144.069,0.718
19:38:35:042,50.144,0.035,-0.016,0.056,-20.693,144.949,-0.923
19:38:35:042,50.144,0.090,-0.010,0.155,-20.583,146.975,-3.560
19:38:35:043,50.145,0.138,0.065,0.119,-20.582,147.793,-5.479
19:38:35:062,50.164,0.142,0.239,0.005,-20.503,150.055,-11.188
19:38:35:062,50.164,0.252,0.344,-0.255,-20.351,152.294,-15.453
19:38:35:145,50.247,0.368,0.431,-0.027,-20.015,154.395,-20.236
19:38:35:146,50.248,0.619,0.498,-0.117,-19.790,156.274,-23.626
19:38:35:146,50.248,1.456,0.405,0.509,-19.138,159.190,-29.167
19:38:35:147,50.249,1.860,0.256,1.083,-18.168,161.184,-33.327
19:38:35:192,50.294,1.189,0.338,0.959,-17.105,163.753,-40.221
19:38:35:193,50.295,1.683,-0.272,0.973,-18.409,165.203,-46.767
19:38:35:245,50.347,0.644,0.050,0.541,-19.814,165.370,-50.813
19:38:35:245,50.347,0.441,-0.680,0.522,-18.571,164.694,-54.086
19:38:35:268,50.370,0.805,-1.528,0.134,-14.689,165.901,-53.658
19:38:35:296,50.398,0.291,-1.126,-0.139,-8.052,168.339,-50.695
19:38:35:349,50.451,0.328,-0.929,-0.046,-5.396,169.608,-47.313
19:38:35:376,50.478,0.449,-0.724,0.104,-4.602,170.577,-40.596
19:38:35:377,50.479,0.463,-0.546,0.142,-6.748,169.495,-32.654
19:38:35:4,50.502,0.440,-0.267,0.151,-8.472,167.718,-26.282
19:38:35:426,50.528,0.304,0.337,0.078,-10.654,164.340,-15.622
19:38:35:481,50.583,-0.143,1.010,-0.301,-11.805,162.054,-8.054
