Time,Second,AccelerationX,AccelerationY,AccelerationZ,EulerAnglesX,EulerAnglesY,EulerAnglesZ
19:31:37:574,0.000,0.066,0.042,0.147,0.370,11.486,-19.217
19:31:37:574,0.000,0.117,0.030,0.071,0.076,11.282,-19.181
19:31:37:656,0.083,-0.069,0.054,0.160,0.126,11.294,-19.170
19:31:37:657,0.084,0.063,-0.019,0.133,0.161,10.818,-18.879
19:31:37:657,0.084,0.137,0.079,0.136,0.067,9.712,-18.729
19:31:37:658,0.085,0.185,0.097,0.110,0.143,8.848,-18.739
19:31:37:763,0.190,0.209,0.071,0.143,0.248,7.526,-19.035
19:31:37:763,0.190,0.130,0.049,0.011,0.337,6.747,-19.292
19:31:37:764,0.191,0.148,0.032,-0.005,0.008,5.570,-19.907
19:31:37:765,0.192,0.023,-0.011,-0.131,-0.425,5.458,-20.431
19:31:37:816,0.242,0.007,-0.023,-0.158,-0.784,5.922,-20.831
19:31:37:816,0.242,-0.107,-0.117,-0.174,-1.103,7.310,-21.431
19:31:37:816,0.242,-0.078,-0.132,-0.194,-1.150,8.446,-21.820
19:31:37:816,0.242,-0.102,-0.103,-0.198,-1.237,9.857,-22.319
19:31:37:838,0.264,-0.013,-0.060,-0.123,-1.489,10.282,-22.682
19:31:37:838,0.264,-0.035,-0.027,-0.026,-1.770,11.223,-23.251
19:31:37:838,0.264,-0.016,0.019,0.043,-1.729,13.033,-23.738
19:31:37:911,0.337,-0.024,0.032,0.163,-1.517,14.472,-23.977
19:31:37:972,0.398,0.038,0.028,0.184,-1.379,16.086,-24.268
19:31:37:973,0.399,-0.003,0.024,0.163,-1.201,17.299,-24.531
19:31:37:973,0.399,-0.046,-0.024,0.150,-0.943,17.981,-24.597
19:31:37:973,0.399,-0.066,-0.067,0.072,-0.608,18.434,-24.511
19:31:37:989,0.415,-0.123,-0.054,0.042,-0.440,18.487,-24.319
19:31:38:071,0.498,-0.099,-0.034,0.014,-0.246,18.003,-23.737
19:31:38:071,0.498,-0.053,0.005,-0.050,-0.018,17.143,-22.913
19:31:38:098,0.525,-0.044,0.001,-0.030,0.326,16.611,-22.237
19:31:38:098,0.525,0.017,0.009,0.016,0.857,15.690,-21.162
19:31:38:121,0.548,0.004,0.028,-0.051,1.171,14.973,-20.494
19:31:38:146,0.573,0.027,0.031,-0.042,1.154,13.525,-19.763
19:31:38:201,0.627,0.081,0.042,-0.019,0.919,12.120,-19.338
19:31:38:227,0.653,0.128,0.045,-0.003,0.827,11.175,-19.180
19:31:38:228,0.654,0.067,0.025,0.002,0.737,10.474,-19.263
19:31:38:251,0.677,0.068,0.003,0.013,0.657,10.178,-19.383
19:31:38:277,0.703,0.043,0.001,0.028,0.547,9.981,-19.663
19:31:38:303,0.729,0.045,-0.004,-0.008,0.428,9.676,-19.843
19:31:38:39,0.816,0.028,-0.031,0.002,0.332,9.399,-19.942
19:31:38:39,0.816,0.026,-0.026,-0.005,0.315,9.218,-19.951
19:31:38:39,0.816,0.011,-0.034,-0.027,0.311,9.104,-20.022
19:31:38:409,0.835,-0.033,-0.023,-0.027,0.306,9.208,-20.066
19:31:38:435,0.861,-0.023,0.034,0.027,0.362,9.374,-20.022
19:31:38:46,0.887,-0.006,0.041,0.016,0.342,9.377,-19.958
19:31:38:548,0.975,-0.002,-0.013,0.051,0.227,9.352,-19.880
19:31:38:549,0.976,0.022,0.029,0.068,0.145,9.370,-19.829
19:31:38:549,0.976,-0.005,0.024,0.068,0.109,9.318,-19.847
19:31:38:55,0.977,0.007,0.007,0.019,0.004,8.731,-19.750
19:31:38:625,1.052,0.023,0.000,0.002,-0.090,8.096,-19.701
19:31:38:625,1.052,0.039,0.001,-0.017,-0.172,7.355,-19.523
19:31:38:625,1.052,0.025,-0.012,-0.013,-0.198,6.917,-19.449
19:31:38:698,1.125,0.019,-0.013,-0.024,-0.255,6.541,-19.351
19:31:38:729,1.155,0.042,0.004,-0.029,-0.365,6.312,-19.302
19:31:38:73,1.156,0.018,0.008,-0.032,-0.488,6.136,-19.318
19:31:38:73,1.156,0.017,-0.013,-0.017,-0.500,6.131,-19.306
19:31:38:778,1.204,0.022,0.019,0.004,-0.526,6.070,-19.312
19:31:38:779,1.205,0.021,0.018,0.023,-0.494,6.072,-19.294
19:31:38:802,1.228,-0.002,-0.001,0.007,-0.479,6.078,-19.298
19:31:38:858,1.284,0.019,0.006,0.005,-0.493,6.152,-19.365
19:31:38:858,1.284,0.022,0.033,0.021,-0.504,6.346,-19.490
19:31:38:882,1.308,-0.015,0.007,0.001,-0.528,6.532,-19.580
19:31:38:908,1.334,-0.047,-0.022,0.009,-0.522,6.978,-19.730
19:31:38:934,1.360,-0.042,-0.019,-0.006,-0.551,7.310,-19.836
19:31:38:959,1.386,-0.054,-0.028,-0.005,-0.579,7.548,-19.978
19:31:39:014,1.441,-0.032,-0.015,-0.057,-0.776,7.610,-19.925
19:31:39:015,1.442,-0.009,-0.052,-0.034,-0.989,7.567,-20.024
19:31:39:04,1.467,0.061,0.000,-0.063,-1.446,7.942,-20.266
19:31:39:065,1.492,-0.033,0.026,-0.040,-1.750,8.678,-20.480
19:31:39:09,1.516,-0.042,-0.026,0.080,-2.252,9.364,-20.883
19:31:39:118,1.544,0.101,0.040,0.080,-2.851,9.286,-21.267
19:31:39:204,1.631,0.047,0.038,0.052,-3.122,9.426,-21.529
19:31:39:204,1.631,-0.163,-0.124,0.171,-2.691,10.520,-21.860
19:31:39:204,1.631,-0.019,-0.022,0.120,-2.462,10.919,-21.751
19:31:39:252,1.678,-0.068,-0.034,0.084,-1.825,11.046,-21.155
19:31:39:252,1.678,-0.039,0.040,-0.036,-1.340,10.934,-20.553
19:31:39:276,1.702,-0.159,-0.004,-0.075,-1.036,10.930,-20.216
19:31:39:359,1.785,-0.057,-0.060,-0.033,-0.448,11.414,-19.574
19:31:39:36,1.786,-0.052,-0.035,-0.071,0.045,12.123,-18.986
19:31:39:36,1.786,0.039,0.002,-0.067,0.827,13.391,-17.956
19:31:39:38,1.806,-0.067,0.010,-0.095,1.530,15.010,-17.029
19:31:39:406,1.832,0.031,0.047,-0.089,1.607,15.664,-16.393
19:31:39:432,1.858,0.055,0.066,-0.077,1.398,16.288,-15.777
19:31:39:458,1.884,0.096,0.030,-0.018,1.032,16.331,-15.573
19:31:39:543,1.970,0.238,0.055,0.011,0.469,15.377,-15.617
19:31:39:544,1.971,0.271,0.101,0.119,-0.206,15.152,-16.048
19:31:39:544,1.971,0.224,0.026,0.280,0.081,16.336,-16.515
19:31:39:564,1.991,-0.113,0.005,0.161,0.923,18.411,-17.249
19:31:39:589,2.016,0.105,0.004,0.067,1.145,18.325,-17.636
19:31:39:615,2.042,0.047,-0.047,0.034,1.262,17.389,-18.013
19:31:39:642,2.069,-0.087,-0.063,0.015,1.593,17.338,-18.154
19:31:39:697,2.123,-0.012,-0.007,0.029,1.874,16.734,-18.316
19:31:39:698,2.124,0.066,0.009,0.047,1.973,15.349,-18.497
19:31:39:721,2.147,0.048,0.000,0.091,2.062,14.319,-18.768
19:31:39:747,2.173,0.055,0.025,0.066,1.994,12.769,-19.295
19:31:39:773,2.199,0.038,0.042,-0.023,1.883,12.034,-19.680
19:31:39:827,2.253,-0.027,-0.007,-0.127,1.655,11.793,-20.134
19:31:39:855,2.281,-0.075,-0.040,-0.124,1.502,12.893,-20.548
19:31:39:858,2.284,-0.146,-0.044,-0.116,1.476,14.115,-20.772
19:31:39:908,2.334,-0.049,-0.092,-0.015,1.182,15.960,-20.964
19:31:39:908,2.335,0.024,-0.076,0.050,0.936,17.027,-21.024
19:31:39:93,2.357,0.038,-0.087,0.040,0.700,18.806,-21.131
19:31:40:011,2.438,-0.103,-0.066,0.061,0.517,20.185,-21.219
19:31:40:071,2.497,-0.204,-0.079,0.068,0.299,20.485,-21.215
19:31:40:071,2.497,-0.114,-0.018,0.024,-0.081,20.221,-20.883
19:31:40:072,2.498,-0.060,0.034,-0.062,-0.184,19.610,-20.434
19:31:40:073,2.499,-0.001,0.004,-0.074,0.185,18.972,-19.571
19:31:40:088,2.514,-0.057,-0.026,0.066,1.328,19.963,-18.692
19:31:40:229,2.656,0.021,-0.006,0.050,2.004,20.970,-17.918
19:31:40:231,2.658,-0.076,0.003,0.014,2.761,21.880,-17.074
19:31:40:232,2.659,0.019,0.057,-0.085,2.859,21.576,-16.549
19:31:40:232,2.659,0.118,0.102,-0.046,2.197,19.911,-15.930
19:31:40:25,2.676,0.132,0.060,-0.036,1.600,18.350,-15.692
19:31:40:25,2.676,0.041,0.042,-0.054,1.180,17.708,-15.691
19:31:40:272,2.698,0.314,0.164,0.242,1.000,17.911,-15.879
19:31:40:413,2.839,0.109,0.001,0.158,1.684,19.235,-16.165
19:31:40:414,2.840,0.011,0.009,0.196,2.044,20.414,-16.545
19:31:40:415,2.841,0.067,0.031,0.182,2.287,20.375,-17.096
19:31:40:415,2.841,0.009,0.039,0.078,2.311,20.155,-17.248
19:31:40:433,2.860,0.038,0.024,0.034,2.402,19.703,-17.522
19:31:40:433,2.860,-0.003,0.057,0.010,2.410,19.484,-17.825
19:31:40:512,2.938,-0.079,-0.048,-0.033,2.329,19.517,-18.149
19:31:40:513,2.939,-0.093,-0.033,-0.062,1.927,19.742,-18.511
19:31:40:538,2.964,-0.051,0.002,-0.052,1.557,19.853,-18.765
19:31:40:538,2.964,-0.014,-0.017,-0.038,1.074,20.593,-18.946
19:31:40:561,2.987,-0.086,-0.028,-0.036,0.915,21.392,-19.012
19:31:40:587,3.013,-0.090,-0.053,-0.042,0.870,22.533,-19.073
19:31:40:701,3.127,-0.077,-0.098,-0.039,0.889,23.044,-18.862
19:31:40:701,3.127,-0.043,-0.103,-0.066,0.851,23.008,-18.667
19:31:40:719,3.145,-0.019,-0.016,-0.139,0.859,21.447,-18.000
19:31:40:745,3.171,0.204,-0.094,0.126,0.814,21.026,-17.812
19:31:40:831,3.257,0.150,-0.042,-0.029,1.141,22.287,-17.619
19:31:40:831,3.257,-0.008,0.055,0.088,1.601,24.806,-17.746
19:31:40:832,3.258,0.036,0.035,0.145,1.722,25.927,-17.722
19:31:40:879,3.306,0.046,0.030,0.153,1.689,26.672,-17.927
19:31:40:879,3.306,0.025,-0.002,0.103,1.474,26.478,-18.109
19:31:40:905,3.332,0.021,-0.026,0.076,1.284,26.044,-18.170
19:31:40:905,3.332,0.015,0.010,0.056,1.005,25.295,-18.256
19:31:41:044,3.470,-0.009,0.006,0.030,0.966,24.956,-18.295
19:31:41:044,3.470,-0.015,-0.028,0.008,1.065,24.632,-18.221
19:31:41:045,3.471,-0.019,-0.003,-0.025,1.104,24.352,-18.211
19:31:41:045,3.471,-0.022,0.010,-0.015,1.148,24.100,-18.202
19:31:41:063,3.489,0.022,-0.014,0.012,1.213,23.934,-18.093
19:31:41:063,3.489,0.021,-0.006,0.006,1.262,23.957,-18.011
19:31:41:227,3.653,0.003,0.003,-0.018,1.374,24.108,-17.872
19:31:41:228,3.654,0.006,0.000,0.019,1.403,24.043,-17.759
19:31:41:228,3.654,0.036,-0.004,0.012,1.414,23.754,-17.619
19:31:41:229,3.655,0.029,0.007,0.009,1.415,23.470,-17.599
19:31:41:332,3.759,0.033,0.016,0.022,1.445,23.329,-17.616
19:31:41:332,3.759,-0.003,0.000,0.012,1.529,23.199,-17.607
19:31:41:334,3.761,0.006,0.003,0.008,1.416,22.579,-17.568
19:31:41:352,3.779,0.011,0.001,0.003,1.307,22.125,-17.529
19:31:41:353,3.780,0.019,-0.010,0.000,1.244,21.653,-17.497
19:31:41:377,3.804,0.011,-0.008,-0.003,1.138,21.396,-17.467
19:31:41:378,3.805,0.010,0.003,0.007,1.070,21.280,-17.467
19:31:41:402,3.828,0.005,-0.005,0.009,0.961,21.049,-17.452
19:31:41:485,3.911,0.010,-0.004,0.020,0.853,20.836,-17.455
19:31:41:486,3.912,0.002,0.004,0.014,0.781,20.646,-17.457
19:31:41:507,3.933,0.006,-0.003,0.014,0.682,20.409,-17.441
19:31:41:535,3.961,0.013,-0.014,0.018,0.609,20.148,-17.402
19:31:41:536,3.962,0.019,-0.017,0.025,0.534,19.822,-17.329
19:31:41:674,4.100,0.005,0.002,0.019,0.511,19.610,-17.288
19:31:41:674,4.100,0.000,0.010,0.006,0.472,19.456,-17.256
19:31:41:675,4.101,0.015,-0.007,0.001,0.402,19.143,-17.205
19:31:41:676,4.102,-0.002,-0.009,0.004,0.356,18.918,-17.159
19:31:41:692,4.118,0.000,-0.009,0.012,0.311,18.765,-17.096
19:31:41:693,4.119,0.009,0.000,-0.009,0.224,18.506,-17.030
19:31:41:717,4.143,0.009,0.003,-0.002,0.168,18.406,-16.983
19:31:41:83,4.257,0.009,-0.007,0.004,0.090,18.079,-16.929
19:31:41:831,4.258,0.011,-0.005,0.005,0.030,18.045,-16.907
19:31:41:833,4.260,0.009,0.000,0.000,-0.083,18.007,-16.891
19:31:41:833,4.260,0.009,-0.004,0.001,-0.159,17.934,-16.891
19:31:41:849,4.276,0.002,-0.001,-0.002,-0.242,17.799,-16.868
19:31:41:874,4.300,0.010,-0.008,0.014,-0.335,17.717,-16.813
19:31:41:9,4.326,0.012,-0.003,0.012,-0.403,17.623,-16.785
19:31:41:984,4.410,0.007,0.006,0.013,-0.504,17.579,-16.767
19:31:41:985,4.411,0.009,-0.004,0.011,-0.570,17.501,-16.767
19:31:41:986,4.412,0.007,-0.006,0.010,-0.647,17.299,-16.740
19:31:42:005,4.431,0.010,-0.002,0.009,-0.761,17.214,-16.719
19:31:42:031,4.457,0.008,-0.008,0.011,-0.832,17.170,-16.691
19:31:42:147,4.573,0.006,-0.012,0.003,-0.980,17.071,-16.636
19:31:42:147,4.573,0.008,-0.006,0.005,-1.088,17.001,-16.613
19:31:42:147,4.573,0.029,-0.001,0.004,-1.223,16.934,-16.543
19:31:42:147,4.573,0.023,-0.022,0.002,-1.285,16.997,-16.450
19:31:42:162,4.588,0.018,-0.009,-0.006,-1.350,17.037,-16.409
19:31:42:188,4.615,0.038,0.007,-0.003,-1.496,16.991,-16.364
19:31:42:294,4.721,0.044,0.001,0.006,-1.594,17.012,-16.367
19:31:42:328,4.755,0.037,0.004,0.010,-1.723,17.076,-16.437
19:31:42:329,4.756,0.028,0.012,0.012,-1.847,17.168,-16.501
19:31:42:329,4.756,0.016,0.018,0.007,-1.922,17.235,-16.531
19:31:42:331,4.758,0.027,0.006,0.011,-2.038,17.317,-16.550
19:31:42:348,4.775,0.035,-0.001,0.004,-2.106,17.385,-16.559
19:31:42:459,4.885,0.046,0.003,0.013,-2.191,17.561,-16.588
19:31:42:461,4.887,0.033,-0.017,-0.001,-2.180,17.879,-16.580
19:31:42:461,4.887,0.026,-0.029,-0.005,-2.180,18.023,-16.515
19:31:42:477,4.903,0.055,-0.009,-0.010,-2.309,17.747,-16.494
19:31:42:503,4.929,0.041,0.001,-0.028,-2.340,17.544,-16.594
19:31:42:588,5.014,0.027,0.034,-0.044,-2.292,17.492,-16.586
19:31:42:589,5.015,0.025,0.051,-0.064,-2.083,17.516,-16.474
19:31:42:59,5.016,0.053,0.055,-0.040,-1.798,17.580,-16.309
19:31:42:637,5.064,0.017,0.050,-0.034,-1.632,17.658,-16.317
19:31:42:638,5.065,0.003,0.004,-0.039,-1.369,17.654,-16.225
19:31:42:69,5.117,0.017,-0.024,-0.037,-1.262,17.498,-16.209
19:31:42:69,5.117,0.021,-0.034,-0.030,-1.177,17.314,-16.226
19:31:42:743,5.170,0.004,-0.030,-0.033,-1.155,17.208,-16.342
19:31:42:743,5.170,0.015,-0.015,-0.036,-1.208,17.101,-16.464
19:31:42:766,5.192,0.000,-0.004,-0.027,-1.261,16.818,-16.661
19:31:42:792,5.218,-0.012,-0.002,-0.029,-1.262,16.551,-16.728
19:31:42:906,5.332,-0.002,-0.010,-0.038,-1.218,15.950,-16.729
19:31:42:906,5.332,0.004,-0.028,-0.032,-1.099,15.144,-16.624
19:31:42:907,5.333,-0.011,-0.005,-0.048,-1.009,14.556,-16.526
19:31:42:908,5.334,0.004,0.007,-0.050,-0.842,13.652,-16.349
19:31:42:923,5.349,0.007,0.008,-0.033,-0.707,13.105,-16.182
19:31:42:952,5.378,-0.005,0.017,-0.026,-0.395,12.313,-15.894
19:31:43:118,5.544,0.008,0.037,-0.036,-0.109,11.320,-15.568
19:31:43:118,5.544,0.030,0.045,-0.034,0.091,11.022,-15.341
19:31:43:119,5.545,0.040,0.054,-0.038,0.505,9.808,-14.914
19:31:43:12,5.546,0.030,0.091,-0.048,0.824,9.687,-14.659
19:31:43:143,5.569,0.019,0.163,-0.051,1.415,8.357,-14.260
19:31:43:144,5.570,0.016,0.277,-0.071,2.098,6.707,-13.910
19:31:43:144,5.570,0.023,0.201,-0.039,2.612,5.440,-13.538
19:31:43:144,5.570,0.058,0.134,-0.032,3.376,3.286,-12.910
19:31:43:16,5.586,0.084,0.087,-0.015,3.878,1.747,-12.463
19:31:43:216,5.642,0.142,-0.023,-0.019,4.717,-0.245,-11.632
19:31:43:216,5.642,0.120,-0.096,0.033,5.647,-1.537,-10.770
19:31:43:326,5.753,0.094,-0.104,0.036,6.242,-2.020,-10.343
19:31:43:326,5.753,0.022,-0.112,0.049,6.990,-2.430,-10.086
19:31:43:327,5.754,-0.003,-0.048,0.034,7.367,-2.698,-10.156
19:31:43:429,5.855,0.007,-0.049,-0.019,8.300,-3.974,-10.860
19:31:43:43,5.856,0.049,0.000,-0.034,8.714,-4.494,-11.022
19:31:43:431,5.857,0.107,0.057,-0.072,9.378,-5.404,-11.232
19:31:43:48,5.906,0.100,0.002,-0.062,9.917,-5.853,-11.187
19:31:43:481,5.907,0.145,-0.062,-0.076,10.736,-6.227,-10.971
19:31:43:482,5.908,0.189,-0.115,-0.059,11.427,-6.223,-10.453
19:31:43:501,5.927,0.192,-0.030,-0.103,11.791,-5.875,-10.145
19:31:43:527,5.953,0.248,-0.247,-0.095,12.256,-4.803,-9.344
19:31:43:553,5.979,0.325,-0.281,-0.100,12.481,-3.658,-8.653
19:31:43:639,6.065,0.331,-0.333,-0.111,12.698,-1.136,-7.612
19:31:43:64,6.066,0.247,-0.297,-0.160,12.773,1.184,-6.790
19:31:43:64,6.066,0.250,-0.217,-0.203,12.723,4.883,-5.771
19:31:43:659,6.085,0.248,-0.187,-0.226,12.534,8.328,-4.792
19:31:43:744,6.171,0.233,-0.124,-0.261,12.422,10.413,-4.194
19:31:43:745,6.172,0.262,-0.040,-0.296,12.243,12.961,-3.527
19:31:43:745,6.172,0.308,0.132,-0.373,12.133,14.420,-3.207
19:31:43:792,6.219,0.265,0.245,-0.426,12.033,16.784,-2.856
19:31:43:793,6.220,0.221,0.409,-0.494,12.025,19.510,-2.702
19:31:43:816,6.243,0.173,0.420,-0.487,12.017,21.247,-3.017
19:31:43:9,6.326,0.003,0.454,-0.491,11.998,23.603,-4.320
19:31:43:901,6.327,0.009,0.315,-0.445,11.874,24.897,-5.770
19:31:43:902,6.328,-0.080,0.350,-0.438,11.353,27.323,-8.293
19:31:43:921,6.347,-0.369,0.432,-0.313,10.576,31.261,-11.865
19:31:43:948,6.374,-0.430,0.121,-0.170,10.112,34.215,-14.504
19:31:44:003,6.429,-0.390,-0.043,-0.037,8.879,37.989,-18.965
19:31:44:003,6.429,-0.238,-0.112,-0.004,7.668,40.075,-22.089
19:31:44:026,6.452,-0.242,-0.105,-0.019,5.351,42.636,-26.844
19:31:44:08,6.506,-0.298,-0.156,0.050,3.100,45.010,-31.803
19:31:44:108,6.534,-0.303,-0.228,0.094,1.685,46.631,-34.754
19:31:44:108,6.535,-0.388,-0.155,0.179,0.107,49.055,-39.028
19:31:44:132,6.559,-0.453,-0.130,0.242,-0.359,50.644,-41.717
19:31:44:157,6.584,-0.485,-0.233,0.300,-0.352,52.753,-45.023
19:31:44:183,6.610,-0.481,-0.110,0.423,-0.065,54.101,-47.850
19:31:44:237,6.664,-0.561,0.015,0.573,0.506,54.652,-49.459
19:31:44:265,6.691,-0.574,-0.070,0.618,1.657,54.873,-51.071
19:31:44:265,6.691,-0.499,-0.151,0.606,1.741,54.496,-51.694
19:31:44:288,6.714,-0.452,-0.098,0.572,0.162,53.262,-52.224
19:31:44:315,6.741,-0.285,-0.151,0.568,-2.582,51.819,-51.632
19:31:44:372,6.798,-0.214,-0.097,0.595,-4.475,50.866,-50.826
19:31:44:372,6.798,-0.025,-0.014,0.512,-6.797,49.386,-49.070
19:31:44:423,6.849,-0.059,0.119,0.505,-7.038,48.745,-47.505
19:31:44:423,6.849,-0.169,0.167,0.501,-5.317,48.423,-44.846
19:31:44:448,6.874,-0.288,0.144,0.371,-2.466,48.300,-41.245
19:31:44:473,6.899,-0.258,0.138,0.293,-0.528,47.861,-38.388
19:31:44:499,6.925,-0.168,0.159,0.187,2.489,46.827,-33.723
19:31:44:525,6.951,-0.034,0.105,0.079,4.568,46.097,-30.278
19:31:44:551,6.977,0.067,0.153,-0.028,7.634,45.195,-24.805
19:31:44:577,7.003,0.055,0.256,-0.169,9.584,44.740,-21.094
19:31:44:604,7.030,0.090,0.262,-0.322,12.612,44.212,-15.330
19:31:44:63,7.056,0.315,0.101,-0.538,15.771,44.243,-9.439
19:31:44:709,7.136,0.406,-0.001,-0.689,17.982,45.102,-5.458
19:31:44:734,7.161,0.327,-0.026,-0.738,20.887,47.791,0.410
19:31:44:797,7.224,0.223,-0.385,-0.869,22.459,50.051,4.381
19:31:44:797,7.224,0.231,-0.615,-0.890,24.816,53.330,8.891
19:31:44:797,7.224,0.172,-0.642,-0.652,25.970,56.681,11.508
19:31:44:798,7.225,0.035,-0.403,-0.593,25.808,59.136,12.356
19:31:44:843,7.269,-0.033,-0.380,-0.622,25.069,61.948,12.882
19:31:44:843,7.269,-0.056,-0.480,-0.637,24.684,62.953,12.802
19:31:44:954,7.380,-0.101,-0.342,-0.844,24.160,63.411,11.483
19:31:44:954,7.380,-0.302,-0.111,-0.878,23.426,63.888,9.226
19:31:44:955,7.381,-0.460,0.044,-0.832,22.885,64.556,7.372
19:31:45:029,7.455,-0.798,0.723,-0.492,20.211,69.895,1.499
19:31:45:03,7.456,-0.751,0.726,-0.184,17.995,76.370,-1.840
19:31:45:031,7.457,-0.368,0.354,-0.081,15.491,81.509,-6.145
19:31:45:049,7.476,-0.283,0.298,-0.087,13.419,84.097,-9.698
19:31:45:076,7.502,-0.365,0.369,0.110,10.319,87.478,-16.501
19:31:45:102,7.528,-0.297,0.146,0.286,8.008,89.486,-21.188
19:31:45:129,7.555,-0.216,0.083,0.325,4.170,92.302,-28.096
19:31:45:216,7.642,-0.196,0.231,0.488,0.511,95.515,-34.996
19:31:45:217,7.643,-0.193,0.199,0.644,-1.256,98.163,-39.371
19:31:45:218,7.644,-0.089,-0.114,0.569,-2.579,102.555,-45.276
19:31:45:219,7.645,-0.003,-0.196,0.558,-2.584,105.440,-49.009
19:31:45:263,7.690,0.136,-0.206,0.665,-1.250,109.378,-54.273
19:31:45:263,7.690,0.181,-0.265,0.732,0.689,111.550,-57.258
19:31:45:314,7.741,0.162,-0.346,0.765,4.234,113.665,-60.703
19:31:45:315,7.742,0.189,-0.411,0.813,6.819,114.276,-63.134
19:31:45:367,7.794,0.240,-0.384,0.921,7.097,113.899,-64.267
19:31:45:368,7.795,0.214,-0.377,0.813,4.335,112.382,-64.876
19:31:45:39,7.816,0.235,-0.429,0.667,0.850,111.008,-64.438
19:31:45:417,7.843,0.270,-0.357,0.652,-5.367,108.687,-62.840
19:31:45:443,7.869,0.316,-0.118,0.629,-10.680,106.263,-60.123
19:31:45:47,7.896,0.336,-0.026,0.623,-12.347,104.839,-57.656
19:31:45:496,7.922,0.376,0.121,0.570,-12.219,103.090,-53.227
19:31:45:522,7.948,0.273,0.156,0.588,-10.808,102.142,-50.003
19:31:45:578,8.004,0.185,0.132,0.582,-7.582,100.923,-44.892
19:31:45:579,8.005,0.061,0.076,0.487,-4.445,99.405,-39.048
19:31:45:601,8.027,0.026,0.085,0.327,-2.518,98.030,-34.828
19:31:45:656,8.083,-0.014,0.120,0.164,0.231,95.467,-28.231
19:31:45:657,8.084,-0.065,0.283,-0.008,1.991,93.365,-23.696
19:31:45:679,8.106,-0.073,0.355,-0.228,4.854,89.825,-16.717
19:31:45:706,8.133,-0.140,0.365,-0.445,8.335,86.547,-9.798
19:31:45:761,8.187,-0.214,0.282,-0.600,10.997,84.877,-5.368
19:31:45:762,8.188,-0.173,0.099,-0.809,15.188,83.638,0.938
19:31:45:784,8.210,-0.276,-0.101,-0.923,17.766,84.098,4.976
19:31:45:811,8.237,-0.322,-0.286,-0.959,20.715,86.420,10.507
19:31:45:837,8.263,-0.290,-0.327,-0.839,22.105,89.042,14.489
19:31:45:864,8.290,-0.277,-0.217,-0.770,22.273,90.506,16.025
19:31:45:89,8.316,-0.341,-0.180,-0.725,22.042,92.001,17.425
19:31:45:916,8.342,-0.362,-0.282,-0.779,21.922,92.256,17.881
19:31:45:97,8.396,-0.393,-0.393,-0.789,21.901,91.505,17.437
19:31:46:026,8.453,-0.461,-0.282,-0.770,21.668,90.180,15.497
19:31:46:027,8.454,-0.583,0.058,-0.847,21.002,89.582,13.435
19:31:46:028,8.455,-0.574,0.268,-0.658,18.853,90.216,10.387
19:31:46:047,8.474,-0.484,0.366,-0.503,16.965,91.772,8.008
19:31:46:075,8.502,-0.402,0.417,-0.359,13.885,94.509,3.582
19:31:46:129,8.555,-0.264,0.363,-0.264,10.676,96.360,-1.999
19:31:46:129,8.555,-0.220,0.346,-0.180,8.491,97.337,-6.216
19:31:46:24,8.666,-0.166,0.287,-0.034,5.083,98.894,-12.984
19:31:46:24,8.666,-0.114,0.251,0.076,2.801,100.169,-17.702
19:31:46:241,8.667,-0.035,0.241,0.210,-0.622,102.573,-24.988
19:31:46:242,8.668,0.045,0.199,0.341,-3.694,105.903,-32.295
19:31:46:285,8.711,0.105,0.145,0.426,-5.239,108.639,-37.082
19:31:46:423,8.850,0.180,0.027,0.500,-6.467,113.082,-43.926
19:31:46:424,8.851,0.238,-0.063,0.590,-6.383,116.007,-48.180
19:31:46:425,8.852,0.339,-0.124,0.689,-4.837,119.791,-53.950
19:31:46:426,8.853,0.403,-0.152,0.850,-3.061,121.641,-57.287
19:31:46:503,8.929,0.405,-0.268,0.866,0.146,123.212,-61.109
19:31:46:504,8.930,0.371,-0.401,0.812,2.345,123.301,-63.608
19:31:46:505,8.931,0.371,-0.455,0.757,2.215,122.649,-64.687
19:31:46:505,8.931,0.395,-0.488,0.702,-0.330,121.063,-65.378
19:31:46:523,8.949,0.396,-0.461,0.603,-3.065,119.870,-65.157
19:31:46:524,8.950,0.388,-0.372,0.576,-7.320,118.125,-63.896
19:31:46:546,8.972,0.429,-0.222,0.627,-10.056,116.611,-61.622
19:31:46:687,9.113,0.482,-0.071,0.702,-10.379,115.761,-59.491
19:31:46:687,9.113,0.442,0.056,0.635,-9.160,114.531,-55.228
19:31:46:688,9.114,0.422,0.101,0.524,-7.675,113.628,-51.849
19:31:46:689,9.115,0.254,0.040,0.507,-4.889,111.936,-46.438
19:31:46:707,9.133,0.128,-0.026,0.456,-2.241,109.484,-40.404
19:31:46:708,9.134,0.053,0.027,0.383,-0.760,107.163,-36.003
19:31:46:73,9.156,0.011,0.233,0.168,1.504,102.760,-29.027
19:31:46:814,9.241,-0.102,0.396,0.018,3.245,99.474,-24.158
19:31:46:814,9.241,-0.189,0.534,-0.184,6.411,94.025,-16.858
19:31:46:815,9.242,-0.247,0.361,-0.544,10.391,88.563,-10.003
19:31:46:834,9.261,-0.162,0.115,-0.777,13.471,85.831,-5.669
19:31:46:89,9.316,-0.288,0.169,-0.888,18.149,84.175,0.217
19:31:46:89,9.316,-0.403,0.012,-0.873,20.840,84.677,3.807
19:31:46:942,9.368,-0.328,-0.311,-0.845,23.804,86.159,8.505
19:31:46:943,9.369,-0.303,-0.143,-0.778,25.300,87.500,11.377
19:31:46:967,9.393,-0.374,-0.152,-0.831,25.798,88.260,12.756
19:31:46:992,9.418,-0.415,-0.401,-0.931,26.575,88.244,14.196
19:31:47:019,9.445,-0.447,-0.520,-0.977,27.104,87.474,14.309
19:31:47:045,9.471,-0.383,-0.514,-0.871,27.337,86.154,13.371
19:31:47:158,9.585,-0.465,-0.238,-0.779,26.789,85.975,12.192
19:31:47:158,9.585,-0.608,-0.002,-0.832,25.036,86.764,9.735
19:31:47:159,9.586,-0.746,0.235,-0.612,22.250,89.257,7.109
19:31:47:16,9.587,-0.762,0.498,-0.359,20.090,91.759,4.823
19:31:47:175,9.602,-0.706,0.743,-0.058,16.776,95.469,0.049
19:31:47:202,9.629,-0.357,0.437,-0.021,14.829,97.091,-4.187
19:31:47:228,9.655,-0.242,0.385,0.012,11.569,97.882,-11.530
19:31:47:313,9.739,-0.135,0.383,0.057,6.785,97.899,-19.150
19:31:47:313,9.739,-0.060,0.340,0.175,3.033,98.189,-24.425
19:31:47:314,9.740,0.026,0.240,0.326,-3.562,99.414,-32.043
19:31:47:365,9.791,0.070,0.186,0.362,-8.381,100.922,-36.974
19:31:47:365,9.791,0.147,0.119,0.439,-15.441,104.684,-44.222
19:31:47:447,9.873,0.252,-0.012,0.548,-20.775,110.172,-51.484
19:31:47:448,9.874,0.291,-0.149,0.590,-22.747,114.256,-56.127
19:31:47:449,9.875,0.363,-0.275,0.632,-22.915,120.004,-62.301
19:31:47:45,9.876,0.402,-0.365,0.688,-20.878,123.206,-65.640
19:31:47:493,9.920,0.458,-0.436,0.702,-14.137,126.769,-69.282
19:31:47:494,9.921,0.460,-0.530,0.775,-5.155,128.591,-71.320
19:31:47:517,9.944,0.433,-0.588,0.754,-0.629,128.818,-71.807
19:31:47:543,9.970,0.357,-0.619,0.679,1.007,127.870,-71.529
19:31:47:596,10.023,0.359,-0.522,0.571,-1.430,126.597,-70.654
19:31:47:651,10.077,0.358,-0.414,0.528,-6.915,124.225,-68.339
19:31:47:653,10.079,0.409,-0.256,0.493,-11.112,121.652,-64.623
19:31:47:706,10.133,0.493,-0.012,0.549,-12.551,119.842,-61.603
19:31:47:707,10.134,0.452,0.150,0.541,-12.108,117.044,-56.349
19:31:47:708,10.135,0.383,0.124,0.534,-10.211,115.364,-52.440
19:31:47:755,10.181,0.308,0.179,0.545,-6.547,113.136,-46.327
19:31:47:782,10.209,0.167,0.192,0.417,-2.776,110.920,-39.915
19:31:47:783,10.210,0.098,0.193,0.290,-0.377,109.374,-35.477
19:31:47:835,10.262,0.029,0.360,0.140,2.767,106.695,-28.683
19:31:47:835,10.262,-0.099,0.535,0.020,4.703,104.606,-24.234
19:31:47:858,10.285,-0.215,0.504,-0.139,7.858,101.135,-17.690
19:31:47:884,10.311,-0.345,0.346,-0.403,11.537,97.921,-11.634
19:31:47:938,10.364,-0.375,0.169,-0.592,14.204,96.513,-7.931
19:31:48:025,10.451,-0.483,-0.001,-0.640,18.123,95.971,-2.984
19:31:48:026,10.452,-0.528,-0.089,-0.623,20.302,96.455,-0.224
19:31:48:07,10.496,-0.507,-0.258,-0.568,25.056,98.714,6.596
19:31:48:099,10.525,-0.583,-0.373,-0.678,26.044,98.265,7.296
19:31:48:099,10.525,-0.698,-0.386,-0.694,26.445,98.194,7.359
19:31:48:121,10.547,-0.725,-0.338,-0.660,26.509,98.912,7.103
19:31:48:146,10.573,-0.900,-0.028,-0.675,26.031,100.348,6.673
19:31:48:175,10.602,-0.921,0.077,-0.541,24.538,103.965,5.991
19:31:48:229,10.656,-0.882,0.174,-0.435,22.418,109.304,4.819
19:31:48:229,10.656,-0.795,0.271,-0.302,20.712,113.528,3.537
19:31:48:31,10.736,-0.699,0.492,0.004,18.057,119.963,0.408
19:31:48:311,10.737,-0.554,0.561,0.245,16.497,123.651,-2.672
19:31:48:312,10.738,-0.393,0.428,0.356,14.749,127.651,-8.761
19:31:48:332,10.758,-0.252,0.295,0.390,13.324,130.522,-15.876
19:31:48:416,10.842,-0.142,0.259,0.485,12.438,132.384,-20.699
19:31:48:416,10.842,-0.007,0.205,0.538,11.421,135.203,-28.158
19:31:48:437,10.863,0.232,0.280,0.610,11.167,140.630,-39.953
19:31:48:462,10.888,0.483,0.183,0.856,12.955,143.705,-46.773
19:31:48:489,10.915,0.539,-0.084,0.838,14.529,145.317,-50.887
19:31:48:515,10.942,0.661,-0.133,0.804,16.750,146.935,-56.720
19:31:48:599,11.026,0.770,-0.158,0.841,18.188,147.705,-60.226
19:31:48:599,11.026,0.791,-0.302,0.797,20.461,148.620,-64.765
19:31:48:6,11.027,0.727,-0.469,0.717,21.605,149.227,-68.441
19:31:48:619,11.046,0.688,-0.539,0.643,21.093,149.518,-70.395
19:31:48:646,11.073,0.558,-0.647,0.496,17.242,150.057,-72.528
19:31:48:672,11.098,0.497,-0.658,0.408,12.417,150.569,-73.442
19:31:48:756,11.182,0.516,-0.619,0.347,2.956,151.711,-73.996
19:31:48:757,11.183,0.686,-0.647,0.303,-5.169,153.171,-73.282
19:31:48:758,11.184,0.739,-0.510,0.298,-8.677,154.027,-71.837
19:31:48:778,11.204,0.747,-0.275,0.230,-10.666,155.188,-67.894
19:31:48:803,11.229,0.694,-0.089,0.021,-9.641,155.849,-64.210
19:31:48:83,11.256,0.604,0.057,-0.119,-6.312,156.630,-57.500
19:31:48:856,11.282,0.475,0.007,0.070,-1.500,157.075,-50.317
19:31:48:912,11.339,0.428,0.033,0.110,0.882,157.430,-44.918
19:31:48:912,11.339,0.274,0.381,-0.088,3.018,158.006,-35.427
19:31:48:965,11.392,0.176,0.501,-0.100,4.535,158.800,-28.629
19:31:48:965,11.392,0.053,0.835,-0.111,6.336,160.203,-18.351
19:31:48:987,11.414,-0.420,0.717,-0.280,7.699,160.343,-11.869
19:31:49:069,11.496,-0.763,0.478,-0.417,10.204,160.027,-3.054
19:31:49:069,11.496,-0.923,0.201,-0.406,12.730,160.510,4.386
19:31:49:096,11.522,-0.866,-0.055,-0.309,14.221,161.092,8.237
19:31:49:096,11.522,-0.744,-0.104,-0.330,15.987,161.459,12.051
19:31:49:149,11.575,-0.786,-0.045,-0.233,16.773,161.425,13.706
19:31:49:149,11.575,-0.891,-0.213,-0.133,18.309,160.646,14.948
19:31:49:17,11.597,-1.051,-0.373,0.038,20.210,159.346,14.890
19:31:49:226,11.653,-1.016,-0.345,0.248,21.165,158.666,14.373
19:31:49:226,11.653,-0.995,-0.336,0.193,22.102,158.630,13.069
19:31:49:308,11.734,-1.023,-0.089,0.351,22.246,159.201,11.872
19:31:49:308,11.734,-0.994,0.063,0.412,21.814,160.924,9.526
19:31:49:31,11.736,-0.811,0.195,0.389,20.852,164.105,6.581
19:31:49:465,11.891,-0.607,0.242,0.354,19.894,166.878,4.317
19:31:49:465,11.891,-0.285,0.407,0.474,18.354,171.103,-0.281
19:31:49:496,11.922,-0.126,0.378,0.496,17.361,172.972,-4.326
19:31:49:496,11.922,-0.054,0.277,0.471,15.436,173.752,-11.281
19:31:49:497,11.923,0.056,0.293,0.421,12.750,173.526,-18.782
19:31:49:498,11.924,0.234,0.302,0.415,10.626,173.729,-23.717
19:31:49:543,11.970,0.347,0.249,0.358,7.324,175.073,-30.977
19:31:49:544,11.971,0.476,0.220,0.294,5.331,176.795,-35.605
19:31:49:545,11.972,0.583,0.159,0.235,3.450,-179.614,-42.278
19:31:49:593,12.020,0.702,0.037,0.189,3.565,-175.429,-48.493
19:31:49:594,12.021,0.776,-0.048,0.127,4.746,-172.795,-52.377
19:31:49:646,12.073,0.895,-0.158,0.048,7.912,-169.382,-57.656
19:31:49:647,12.074,0.992,-0.273,-0.006,10.705,-167.540,-60.696
19:31:49:758,12.184,1.006,-0.378,-0.058,14.845,-165.558,-64.484
19:31:49:758,12.184,0.933,-0.584,-0.090,17.032,-164.456,-67.325
19:31:49:759,12.185,0.855,-0.691,-0.134,16.333,-164.164,-68.606
19:31:49:776,12.202,0.415,-0.586,-0.210,5.524,-164.231,-69.085
19:31:49:804,12.230,0.479,-0.504,-0.233,-0.827,-164.177,-67.555
19:31:49:805,12.231,0.633,-0.356,-0.246,-3.593,-164.048,-65.172
19:31:49:857,12.283,0.692,-0.292,-0.245,-3.669,-163.877,-62.851
19:31:49:858,12.284,0.794,-0.032,-0.288,-2.613,-163.522,-58.351
19:31:49:909,12.335,0.709,0.123,-0.254,-1.496,-163.309,-54.676
19:31:49:91,12.336,0.617,0.186,-0.222,0.405,-163.229,-48.353
19:31:49:932,12.359,0.454,0.240,-0.146,2.189,-163.443,-41.406
19:31:49:958,12.385,0.392,0.213,-0.094,3.306,-163.706,-36.457
19:31:50:096,12.522,0.090,0.267,-0.048,4.747,-164.587,-28.672
19:31:50:096,12.522,-0.110,0.374,-0.024,5.715,-165.310,-23.301
19:31:50:097,12.523,-0.219,0.591,0.146,7.423,-165.816,-14.970
19:31:50:122,12.548,-0.482,0.476,0.188,8.823,-165.998,-9.486
19:31:50:122,12.548,-0.847,0.222,0.248,11.160,-165.722,-1.648
19:31:50:123,12.549,-0.989,-0.033,0.356,13.219,-163.965,5.566
19:31:50:144,12.570,-0.890,-0.173,0.412,14.158,-162.106,9.718
19:31:50:17,12.596,-0.752,-0.185,0.287,14.449,-159.095,14.404
19:31:50:254,12.680,-0.767,-0.140,0.232,14.041,-157.237,16.564
19:31:50:254,12.680,-0.704,-0.135,0.288,13.427,-155.400,18.515
19:31:50:255,12.681,-0.721,-0.277,0.468,14.014,-155.556,19.039
19:31:50:275,12.701,-0.779,-0.301,0.579,15.092,-156.816,18.659
19:31:50:328,12.755,-0.776,-0.331,0.731,16.764,-159.036,17.194
19:31:50:329,12.756,-0.733,-0.184,0.763,17.495,-159.823,15.839
19:31:50:352,12.779,-0.682,-0.033,0.801,17.516,-159.367,13.377
19:31:50:378,12.805,-0.610,0.189,0.769,16.816,-156.954,10.417
19:31:50:405,12.831,-0.502,0.371,0.740,16.076,-154.342,8.097
19:31:50:431,12.857,-0.259,0.531,0.647,15.063,-149.802,3.789
19:31:50:458,12.884,-0.018,0.592,0.537,14.680,-147.120,0.234
19:31:50:512,12.938,0.212,0.524,0.471,14.444,-144.124,-6.117
19:31:50:513,12.939,0.394,0.358,0.293,14.287,-142.189,-13.379
19:31:50:565,12.991,0.481,0.354,0.206,14.083,-141.371,-18.517
19:31:50:566,12.992,0.548,0.303,0.090,13.545,-140.773,-26.550
19:31:50:755,13.182,0.588,0.231,0.012,13.020,-140.502,-31.862
19:31:50:755,13.182,0.665,0.189,-0.084,12.313,-139.701,-39.546
19:31:50:755,13.182,0.778,0.081,-0.172,12.432,-138.263,-46.699
19:31:50:773,13.200,0.793,-0.045,-0.247,13.402,-136.911,-51.084
19:31:50:855,13.281,0.779,-0.254,-0.345,16.545,-134.617,-57.119
19:31:50:856,13.282,0.819,-0.312,-0.429,19.665,-133.154,-60.849
19:31:50:912,13.338,0.815,-0.465,-0.499,25.473,-131.280,-65.772
19:31:50:912,13.338,0.757,-0.575,-0.510,29.180,-130.365,-68.468
19:31:50:912,13.338,0.727,-0.652,-0.493,32.584,-129.582,-71.922
19:31:51:013,13.439,0.663,-0.646,-0.490,31.636,-129.184,-74.485
19:31:51:013,13.439,0.526,-0.631,-0.400,28.201,-128.877,-75.477
19:31:51:044,13.470,0.463,-0.586,-0.361,19.339,-128.127,-75.583
19:31:51:045,13.471,0.439,-0.459,-0.428,10.241,-126.777,-74.116
19:31:51:046,13.472,0.406,-0.414,-0.488,6.656,-125.539,-72.324
19:31:51:437,13.864,0.133,-0.151,-0.501,3.883,-121.363,-64.255
19:31:51:438,13.865,0.065,0.005,-0.460,4.466,-118.609,-57.818
19:31:51:439,13.866,0.123,0.016,-0.402,5.420,-116.809,-53.167
19:31:51:44,13.867,0.212,0.079,-0.441,6.582,-114.240,-45.277
19:31:51:516,13.943,0.234,0.213,-0.495,6.535,-112.398,-36.123
19:31:51:517,13.944,0.147,0.616,-0.379,5.855,-111.955,-29.694
19:31:51:518,13.945,0.012,0.896,-0.057,5.244,-112.561,-19.959
19:31:51:518,13.945,-0.339,0.822,0.367,5.609,-113.538,-13.811
19:31:51:59,14.016,-0.568,0.570,0.630,6.961,-115.027,-5.351
19:31:51:591,14.017,-0.642,0.149,0.757,8.779,-115.291,2.035
19:31:51:649,14.075,-0.551,0.009,0.825,9.758,-114.849,6.324
19:31:51:649,14.075,-0.462,-0.129,0.861,10.823,-113.906,11.513
19:31:51:65,14.076,-0.339,-0.180,0.806,11.323,-113.152,14.042
19:31:51:753,14.179,-0.090,-0.193,0.730,11.667,-110.228,17.912
19:31:51:754,14.180,-0.040,-0.299,0.754,12.103,-109.687,18.252
19:31:51:755,14.181,0.015,-0.275,0.945,13.128,-109.495,18.285
19:31:51:756,14.182,0.062,-0.281,0.980,13.846,-109.373,18.053
19:31:51:858,14.285,0.040,-0.280,1.075,14.935,-108.816,17.137
19:31:51:859,14.286,0.165,0.126,1.108,14.878,-105.444,13.699
19:31:51:859,14.286,0.273,0.365,0.763,13.811,-101.734,10.222
19:31:51:91,14.336,0.383,0.468,0.466,12.994,-99.159,7.181
19:31:51:911,14.337,0.410,0.473,0.287,11.889,-96.017,1.472
19:31:51:912,14.338,0.401,0.436,0.134,10.885,-94.328,-5.483
19:31:51:913,14.339,0.377,0.321,0.050,10.126,-93.850,-10.569
19:31:52:015,14.442,0.328,0.212,-0.067,8.625,-93.347,-18.449
19:31:52:015,14.442,0.289,0.203,-0.170,7.448,-92.745,-23.768
19:31:52:016,14.443,0.309,0.276,-0.375,5.797,-91.110,-31.539
19:31:52:017,14.444,0.275,0.102,-0.526,5.038,-88.598,-38.716
19:31:52:036,14.463,0.241,-0.015,-0.580,5.084,-86.701,-43.089
19:31:52:037,14.464,0.175,-0.084,-0.705,5.960,-84.022,-49.069
19:31:52:067,14.494,0.129,-0.162,-0.807,6.912,-82.512,-52.474
19:31:52:068,14.494,0.087,-0.265,-0.820,8.559,-80.694,-56.726
19:31:52:069,14.495,0.062,-0.327,-0.872,9.460,-79.851,-59.124
19:31:52:07,14.496,0.039,-0.441,-0.846,9.624,-79.075,-62.018
19:31:52:167,14.593,-0.022,-0.542,-0.761,7.324,-78.767,-63.894
19:31:52:167,14.593,-0.108,-0.608,-0.671,4.199,-78.726,-64.520
19:31:52:199,14.625,-0.162,-0.576,-0.532,-1.642,-78.603,-64.162
19:31:52:2,14.626,-0.276,-0.297,-0.590,-5.173,-78.303,-63.187
19:31:52:201,14.627,-0.344,-0.195,-0.657,-7.915,-77.546,-60.962
19:31:52:202,14.628,-0.380,-0.112,-0.748,-7.789,-76.623,-57.568
19:31:52:225,14.651,-0.415,0.072,-0.703,-7.036,-76.111,-54.630
19:31:52:226,14.652,-0.349,0.195,-0.661,-5.146,-75.744,-49.379
19:31:52:227,14.653,-0.228,0.096,-0.708,-3.686,-76.014,-45.091
19:31:52:228,14.654,-0.088,0.125,-0.605,-2.586,-78.325,-37.694
19:31:52:357,14.784,-0.047,0.233,-0.251,-1.739,-82.957,-29.317
19:31:52:357,14.784,-0.135,0.312,0.105,-0.661,-86.659,-23.433
19:31:52:358,14.785,-0.103,0.600,0.349,1.947,-91.805,-14.395
19:31:52:358,14.785,0.003,0.602,0.630,4.413,-94.784,-8.536
19:31:52:383,14.810,0.032,0.399,0.870,9.096,-97.992,-0.406
19:31:52:383,14.810,0.086,0.162,1.108,14.008,-98.932,7.051
19:31:52:384,14.811,0.207,0.006,1.201,16.899,-98.299,11.577
19:31:52:385,14.812,0.156,-0.231,0.962,20.108,-96.554,17.119
19:31:52:432,14.859,0.140,-0.113,0.944,21.219,-95.703,19.693
19:31:52:433,14.860,0.203,-0.304,0.997,22.477,-95.098,22.208
19:31:52:433,14.860,0.217,-0.482,1.031,24.100,-95.585,23.324
19:31:52:48,14.906,0.309,-0.592,1.091,25.153,-96.444,23.406
19:31:52:507,14.933,0.257,-0.668,1.099,26.035,-97.633,22.706
19:31:52:508,14.934,0.312,-0.510,1.054,25.714,-97.455,21.930
19:31:52:531,14.957,0.453,-0.286,0.999,23.678,-94.924,20.426
19:31:52:699,15.126,0.525,-0.020,0.904,20.592,-92.006,18.176
19:31:52:699,15.126,0.522,0.113,0.841,18.280,-89.823,16.011
19:31:52:699,15.126,0.537,0.387,0.701,14.630,-86.231,11.705
19:31:52:699,15.126,0.483,0.569,0.415,12.295,-83.811,8.047
19:31:52:72,15.147,0.384,0.552,0.244,9.494,-80.990,1.423
19:31:52:721,15.148,0.274,0.461,0.126,7.070,-79.338,-6.206
19:31:52:722,15.149,0.199,0.421,0.017,5.377,-78.511,-11.593
19:31:52:799,15.226,0.092,0.345,-0.147,2.693,-77.161,-19.803
19:31:52:8,15.227,0.027,0.290,-0.242,0.757,-76.080,-25.199
19:31:52:8,15.227,-0.042,0.257,-0.404,-2.162,-74.046,-33.171
19:31:52:82,15.246,-0.104,0.159,-0.487,-3.935,-72.445,-38.204
19:31:52:846,15.272,-0.142,0.080,-0.571,-6.015,-69.779,-45.254
19:31:52:872,15.298,-0.223,-0.020,-0.711,-7.273,-67.238,-51.689
19:31:52:957,15.383,-0.242,-0.105,-0.756,-7.825,-65.861,-55.483
19:31:52:958,15.384,-0.308,-0.222,-0.809,-8.320,-64.253,-60.350
19:31:52:978,15.404,-0.343,-0.518,-0.786,-9.437,-63.021,-65.937
19:31:53:004,15.430,-0.327,-0.614,-0.636,-11.489,-63.247,-67.240
19:31:53:03,15.456,-0.312,-0.624,-0.544,-13.157,-63.566,-67.269
19:31:53:056,15.482,-0.371,-0.527,-0.542,-15.468,-64.070,-66.353
19:31:53:111,15.537,-0.406,-0.413,-0.494,-16.457,-64.407,-65.152
19:31:53:112,15.538,-0.506,-0.325,-0.584,-15.961,-64.714,-62.405
19:31:53:135,15.561,-0.481,-0.070,-0.763,-13.283,-65.107,-58.471
19:31:53:161,15.587,-0.430,0.081,-0.764,-11.188,-65.707,-54.955
19:31:53:187,15.614,-0.303,0.151,-0.722,-8.295,-67.396,-48.335
19:31:53:302,15.729,-0.224,0.217,-0.530,-6.643,-69.367,-43.239
19:31:53:302,15.729,-0.156,0.287,-0.336,-4.299,-73.556,-34.858
19:31:53:303,15.730,-0.106,0.325,0.025,-1.379,-78.301,-25.997
19:31:53:303,15.730,-0.023,0.558,0.174,0.867,-81.209,-19.880
19:31:53:318,15.745,0.134,0.662,0.418,4.884,-84.727,-10.746
19:31:53:344,15.770,0.218,0.517,0.642,8.018,-86.413,-4.949
19:31:53:431,15.857,0.353,0.322,0.958,12.871,-87.848,3.155
19:31:53:431,15.857,0.468,-0.207,1.002,17.543,-87.831,9.885
19:31:53:431,15.857,0.258,-0.236,0.871,19.924,-87.623,13.108
19:31:53:45,15.876,0.222,-0.061,0.922,22.386,-88.183,16.213
19:31:53:477,15.903,0.417,-0.181,1.122,24.083,-89.801,17.227
19:31:53:531,15.957,0.528,-0.495,1.254,27.375,-93.393,17.539
19:31:53:532,15.958,0.383,-0.701,1.237,29.321,-95.486,17.314
19:31:53:584,16.011,0.393,-0.649,1.058,30.337,-95.730,17.244
19:31:53:584,16.011,0.450,-0.540,0.843,28.973,-92.969,17.346
19:31:53:637,16.064,0.519,-0.277,0.716,27.370,-91.005,16.858
19:31:53:637,16.064,0.652,-0.040,0.735,24.692,-89.102,14.945
19:31:53:659,16.086,0.751,0.146,0.758,22.979,-88.585,12.879
19:31:53:686,16.113,0.735,0.239,0.707,20.218,-87.692,9.046
19:31:53:712,16.138,0.648,0.405,0.553,16.707,-84.910,4.727
19:31:53:738,16.164,0.576,0.511,0.410,14.041,-81.919,1.510
19:31:53:765,16.191,0.425,0.525,0.200,10.180,-76.485,-4.197
19:31:53:792,16.218,0.281,0.482,-0.138,6.734,-70.860,-10.937
19:31:53:818,16.244,0.151,0.345,-0.294,4.809,-67.559,-15.909
19:31:53:844,16.270,0.011,0.267,-0.335,2.257,-63.944,-23.901
19:31:53:87,16.296,-0.100,0.252,-0.340,0.457,-62.139,-29.282
19:31:53:896,16.322,-0.181,0.230,-0.421,-2.433,-59.652,-37.130
19:31:53:951,16.378,-0.280,0.121,-0.527,-5.163,-57.201,-44.404
19:31:53:952,16.379,-0.306,-0.029,-0.577,-6.649,-55.615,-48.855
19:31:53:975,16.402,-0.364,-0.152,-0.607,-8.377,-53.480,-54.809
19:31:54:,16.427,-0.469,-0.281,-0.697,-9.112,-52.299,-58.263
19:31:54:027,16.454,-0.492,-0.386,-0.721,-9.784,-51.150,-62.368
19:31:54:142,16.569,-0.481,-0.491,-0.686,-10.839,-51.078,-64.374
19:31:54:143,16.570,-0.456,-0.546,-0.615,-13.666,-51.809,-66.173
19:31:54:144,16.571,-0.400,-0.563,-0.527,-16.962,-53.014,-66.498
19:31:54:145,16.572,-0.383,-0.571,-0.433,-18.435,-53.812,-65.953
19:31:54:158,16.585,-0.443,-0.419,-0.477,-19.298,-54.836,-64.135
19:31:54:244,16.670,-0.477,-0.310,-0.441,-18.923,-55.399,-62.343
19:31:54:244,16.670,-0.566,-0.117,-0.518,-16.724,-56.003,-58.744
19:31:54:244,16.670,-0.572,0.101,-0.599,-13.532,-56.134,-53.926
19:31:54:295,16.721,-0.511,0.138,-0.479,-11.163,-56.388,-50.144
19:31:54:296,16.722,-0.419,0.196,-0.323,-7.802,-57.132,-43.884
19:31:54:297,16.723,-0.299,0.189,-0.238,-5.855,-57.774,-39.297
19:31:54:316,16.742,-0.202,0.221,-0.159,-3.119,-59.004,-31.979
19:31:54:342,16.768,-0.069,0.343,-0.006,-0.497,-60.527,-24.253
19:31:54:457,16.884,0.035,0.452,0.103,1.299,-61.675,-18.950
19:31:54:457,16.884,0.224,0.535,0.241,4.300,-63.307,-10.906
19:31:54:457,16.884,0.347,0.532,0.465,6.610,-64.280,-5.651
19:31:54:458,16.885,0.530,0.246,0.786,10.501,-65.066,1.847
19:31:54:504,16.931,0.735,-0.119,0.882,14.390,-64.164,8.751
19:31:54:504,16.931,0.759,-0.311,0.798,16.446,-62.578,12.856
19:31:54:556,16.983,0.501,-0.379,0.727,18.163,-59.765,17.564
19:31:54:556,16.983,0.503,-0.231,0.604,18.221,-57.891,19.712
19:31:54:607,17.033,0.558,-0.288,0.583,17.712,-55.834,21.677
19:31:54:608,17.034,0.634,-0.489,0.592,18.544,-56.505,21.744
19:31:54:631,17.058,0.817,-0.526,0.767,19.406,-57.854,20.921
19:31:54:686,17.113,0.853,-0.482,0.789,19.398,-58.760,19.480
19:31:54:687,17.114,0.924,-0.188,0.619,18.134,-57.239,18.589
19:31:54:768,17.194,1.001,0.047,0.519,15.392,-53.351,16.853
19:31:54:769,17.195,0.911,0.288,0.332,12.578,-48.007,14.422
19:31:54:77,17.196,0.806,0.483,0.170,10.998,-44.202,12.211
19:31:54:818,17.244,0.678,0.531,0.032,9.432,-39.819,7.580
19:31:54:819,17.245,0.509,0.511,-0.029,8.749,-37.544,3.695
19:31:54:842,17.268,0.346,0.456,-0.158,7.819,-34.426,-2.947
19:31:54:868,17.294,0.220,0.376,-0.208,6.955,-32.408,-10.561
19:31:54:893,17.320,0.110,0.320,-0.270,6.379,-31.336,-15.990
19:31:54:919,17.346,-0.073,0.325,-0.365,5.595,-29.476,-24.238
19:31:54:946,17.372,-0.260,0.349,-0.463,5.186,-28.018,-29.584
19:31:54:972,17.398,-0.358,0.242,-0.466,5.206,-25.779,-37.233
19:31:54:999,17.425,-0.500,0.135,-0.515,5.623,-24.329,-41.931
19:31:55:025,17.451,-0.618,0.000,-0.510,6.839,-22.504,-48.452
19:31:55:052,17.478,-0.678,-0.131,-0.497,8.231,-21.410,-54.228
19:31:55:078,17.504,-0.719,-0.224,-0.502,8.984,-21.042,-57.668
19:31:55:105,17.532,-0.788,-0.349,-0.552,9.376,-20.924,-62.197
19:31:55:13,17.557,-0.689,-0.453,-0.457,8.569,-21.108,-64.667
19:31:55:27,17.696,-0.635,-0.512,-0.400,5.142,-21.579,-67.552
19:31:55:271,17.697,-0.588,-0.567,-0.367,-1.365,-21.925,-69.680
19:31:55:272,17.698,-0.540,-0.550,-0.324,-6.434,-21.886,-70.459
19:31:55:273,17.699,-0.588,-0.524,-0.282,-13.388,-21.508,-70.508
19:31:55:29,17.716,-0.523,-0.560,-0.170,-16.235,-21.084,-69.618
19:31:55:291,17.717,-0.508,-0.406,-0.017,-17.610,-20.285,-66.577
19:31:55:313,17.739,-0.565,-0.197,0.051,-16.284,-19.345,-61.911
19:31:55:48,17.907,-0.598,-0.116,0.075,-13.997,-18.581,-58.207
19:31:55:481,17.908,-0.549,0.051,-0.002,-9.555,-17.069,-51.990
19:31:55:481,17.908,-0.592,0.166,-0.057,-6.263,-15.508,-47.203
19:31:55:482,17.909,-0.465,0.242,0.104,-2.073,-12.979,-39.592
19:31:55:559,17.985,-0.187,0.333,0.339,0.856,-10.770,-31.485
19:31:55:56,17.986,-0.112,0.452,0.369,1.987,-9.236,-25.787
19:31:55:561,17.987,0.039,0.684,0.358,2.648,-7.507,-16.878
19:31:55:562,17.988,0.406,0.618,0.446,3.041,-7.278,-11.049
19:31:55:579,18.005,0.631,0.367,0.400,4.303,-7.462,-2.921
19:31:55:58,18.006,0.863,0.110,0.387,6.213,-7.630,3.961
19:31:55:629,18.055,0.864,-0.149,0.269,7.653,-7.539,7.723
19:31:55:687,18.114,0.799,-0.209,0.271,9.094,-6.466,11.450
19:31:55:687,18.114,0.836,-0.118,0.100,9.523,-5.759,12.869
19:31:55:688,18.115,0.822,-0.190,0.031,10.689,-6.403,13.620
19:31:55:707,18.134,0.808,-0.338,-0.103,11.753,-7.304,13.652
19:31:55:736,18.163,0.866,-0.393,-0.193,13.129,-8.598,13.348
19:31:55:789,18.215,0.995,-0.254,-0.272,13.519,-8.236,12.896
19:31:55:789,18.215,1.032,-0.172,-0.340,13.204,-6.642,12.600
19:31:55:839,18.265,0.993,-0.035,-0.438,11.904,-2.428,11.875
19:31:55:926,18.352,0.718,0.146,-0.472,10.662,1.167,10.800
19:31:55:927,18.353,0.474,0.308,-0.538,8.647,6.428,7.736
19:31:55:928,18.354,0.268,0.517,-0.447,6.934,10.278,2.843
19:31:55:944,18.370,0.025,0.519,-0.244,4.915,12.806,-8.682
19:31:56:023,18.449,-0.120,0.398,-0.147,3.923,13.125,-14.065
19:31:56:112,18.539,-0.211,0.331,-0.072,1.998,13.672,-22.542
19:31:56:112,18.539,-0.351,0.281,-0.004,-0.516,14.915,-31.050
19:31:56:112,18.539,-0.442,0.227,0.058,-2.281,16.215,-36.553
19:31:56:112,18.539,-0.590,0.163,0.131,-4.962,18.592,-44.342
19:31:56:158,18.584,-0.701,0.084,0.204,-6.418,20.323,-49.159
19:31:56:158,18.584,-0.730,-0.012,0.240,-7.966,22.848,-55.752
19:31:56:211,18.637,-0.850,-0.130,0.281,-7.869,25.310,-61.522
19:31:56:212,18.638,-0.934,-0.257,0.334,-6.848,26.665,-64.780
19:31:56:237,18.664,-0.941,-0.473,0.365,-5.176,27.831,-68.699
19:31:56:237,18.664,-0.862,-0.550,0.362,-5.196,27.952,-70.721
19:31:56:258,18.684,-0.699,-0.715,0.319,-8.498,27.615,-72.601
19:31:56:285,18.711,-0.658,-0.674,0.369,-15.883,26.945,-73.484
19:31:56:34,18.767,-0.686,-0.643,0.422,-20.416,26.491,-73.244
19:31:56:34,18.767,-0.675,-0.524,0.359,-23.012,25.752,-71.251
19:31:56:365,18.792,-0.573,-0.369,0.405,-22.394,25.233,-68.929
19:31:56:39,18.817,-0.533,-0.277,0.478,-19.268,24.643,-64.323
19:31:56:415,18.842,-0.503,-0.206,0.428,-14.693,24.435,-58.639
19:31:56:445,18.872,-0.504,-0.109,0.448,-11.795,24.472,-54.390
19:31:56:445,18.872,-0.422,0.036,0.363,-8.062,24.381,-47.347
19:31:56:55,18.977,-0.370,0.122,0.317,-6.073,23.956,-42.404
19:31:56:582,19.008,-0.254,0.261,0.284,-3.805,22.465,-34.526
19:31:56:583,19.009,-0.044,0.505,0.241,-2.544,20.970,-29.008
19:31:56:583,19.009,0.137,0.678,0.117,-0.521,18.649,-20.428
19:31:56:584,19.010,0.414,0.768,-0.024,2.034,16.684,-11.851
19:31:56:714,19.140,0.688,0.483,-0.144,4.115,15.907,-6.500
19:31:56:715,19.141,0.846,0.264,-0.213,7.356,15.686,0.731
19:31:56:716,19.142,0.873,-0.144,-0.353,9.485,15.442,4.632
19:31:56:716,19.142,0.799,-0.270,-0.155,12.196,14.760,8.625
19:31:56:734,19.160,0.793,-0.098,-0.290,13.854,13.674,10.715
19:31:56:735,19.161,0.896,-0.168,-0.400,15.210,11.916,11.213
19:31:56:759,19.185,0.950,-0.384,-0.556,17.643,8.460,11.003
19:31:56:785,19.211,1.012,-0.449,-0.602,18.907,6.752,10.416
19:31:56:838,19.265,0.935,-0.376,-0.627,19.354,7.492,9.709
19:31:56:839,19.266,0.675,-0.052,-0.735,18.023,11.222,8.920
19:31:56:862,19.289,0.492,0.060,-0.691,16.840,14.048,7.856
19:31:56:888,19.315,0.389,0.200,-0.706,14.934,17.804,5.168
19:31:56:914,19.341,0.322,0.362,-0.712,13.515,20.073,2.712
19:31:56:968,19.394,0.150,0.482,-0.602,11.395,23.570,-1.918
19:31:57:026,19.452,-0.023,0.487,-0.446,9.481,27.060,-7.679
19:31:57:026,19.452,-0.136,0.444,-0.353,8.304,29.346,-12.046
19:31:57:027,19.453,-0.261,0.363,-0.172,6.772,32.946,-19.185
19:31:57:046,19.472,-0.393,0.371,-0.052,5.977,35.508,-24.181
19:31:57:072,19.498,-0.498,0.349,0.080,5.314,39.507,-31.710
19:31:57:099,19.525,-0.601,0.275,0.233,5.479,43.283,-38.984
19:31:57:125,19.551,-0.681,0.226,0.339,5.991,45.491,-43.546
19:31:57:209,19.636,-0.733,0.066,0.455,7.378,48.143,-49.863
19:31:57:209,19.636,-0.748,-0.045,0.513,8.696,49.521,-53.754
19:31:57:21,19.637,-0.827,-0.150,0.652,11.192,51.060,-59.098
19:31:57:229,19.656,-0.847,-0.342,0.745,13.473,51.685,-63.786
19:31:57:256,19.683,-0.776,-0.470,0.661,13.964,51.485,-66.520
19:31:57:37,19.796,-0.588,-0.606,0.504,11.889,50.625,-70.067
19:31:57:37,19.796,-0.522,-0.710,0.530,8.287,50.261,-71.813
19:31:57:371,19.797,-0.536,-0.739,0.574,-0.104,50.116,-73.802
19:31:57:387,19.813,-0.388,-0.639,0.476,-15.170,50.641,-73.539
19:31:57:413,19.839,-0.344,-0.475,0.598,-18.272,51.511,-71.293
19:31:57:469,19.895,-0.227,-0.388,0.576,-17.644,52.305,-68.996
19:31:57:47,19.896,-0.218,-0.323,0.571,-13.788,53.912,-64.468
19:31:57:493,19.919,-0.311,-0.150,0.625,-10.915,55.126,-61.079
19:31:57:52,19.946,-0.360,-0.046,0.663,-7.108,57.011,-54.951
19:31:57:546,19.973,-0.320,0.065,0.611,-3.758,58.479,-48.108
19:31:57:571,19.998,-0.196,0.188,0.518,-2.138,59.161,-43.103
19:31:57:597,20.024,0.159,0.414,0.290,-0.292,59.906,-35.093
19:31:57:623,20.050,0.260,0.562,0.168,0.698,60.701,-29.443
19:31:57:708,20.135,0.180,0.673,0.072,1.760,62.458,-20.632
19:31:57:709,20.136,0.471,0.552,-0.199,2.628,63.767,-12.159
19:31:57:71,20.137,0.479,0.302,-0.367,3.437,64.446,-7.071
19:31:57:728,20.155,0.474,0.189,-0.486,4.627,65.306,-0.296
19:31:57:842,20.268,0.465,0.089,-0.672,5.483,65.465,3.459
19:31:57:843,20.269,0.422,-0.058,-0.639,6.835,65.401,7.563
19:31:57:844,20.270,0.480,-0.155,-0.728,8.239,64.678,9.876
19:31:57:845,20.271,0.362,-0.118,-0.794,9.185,63.710,10.652
19:31:57:861,20.287,0.216,-0.133,-0.994,10.849,61.543,10.879
19:31:57:888,20.314,0.146,-0.161,-1.191,11.909,60.359,10.586
19:31:57:914,20.340,0.057,-0.156,-1.162,12.751,60.929,9.714
19:31:58:052,20.479,-0.117,-0.030,-0.948,12.519,64.544,8.254
19:31:58:053,20.480,-0.218,0.106,-0.900,11.938,67.664,6.848
19:31:58:054,20.481,-0.370,0.325,-0.721,10.944,72.574,3.839
19:31:58:055,20.482,-0.393,0.452,-0.466,10.343,75.652,1.104
19:31:58:125,20.551,-0.417,0.473,-0.330,9.716,79.176,-4.217
19:31:58:157,20.583,-0.427,0.425,-0.136,9.407,80.774,-8.488
19:31:58:158,20.584,-0.425,0.382,0.079,8.898,82.467,-15.761
19:31:58:158,20.584,-0.363,0.268,0.257,8.189,83.321,-23.808
19:31:58:159,20.585,-0.349,0.229,0.353,7.442,83.453,-29.435
19:31:58:175,20.601,-0.321,0.238,0.456,5.690,83.704,-37.882
19:31:58:201,20.627,-0.300,0.200,0.648,3.757,84.910,-45.941
19:31:58:227,20.653,-0.272,0.118,0.732,2.996,86.217,-50.987
19:31:58:283,20.709,-0.275,-0.007,0.853,3.247,88.585,-58.108
19:31:58:284,20.710,-0.259,-0.154,0.987,4.736,90.336,-62.392
19:31:58:306,20.732,-0.190,-0.346,1.083,9.497,92.785,-67.941
19:31:58:361,20.788,-0.084,-0.536,1.026,15.479,94.591,-72.270
19:31:58:362,20.789,-0.049,-0.747,0.940,18.184,95.389,-74.426
19:31:58:384,20.811,0.009,-0.806,0.733,17.162,96.121,-76.426
19:31:58:44,20.867,0.081,-0.648,0.628,11.832,96.469,-76.941
19:31:58:44,20.867,0.144,-0.525,0.614,2.263,97.105,-76.641
19:31:58:463,20.889,0.106,-0.595,0.714,-0.728,97.729,-75.782
19:31:58:49,20.916,0.111,-0.609,0.730,-0.164,98.797,-73.690
19:31:58:516,20.942,0.168,-0.460,0.831,1.004,99.856,-70.651
19:31:58:543,20.969,0.213,-0.343,0.844,1.232,100.524,-67.995
19:31:58:569,20.995,0.260,-0.159,0.758,1.020,101.244,-63.060
19:31:58:596,21.022,0.203,-0.099,0.674,0.791,101.374,-59.356
19:31:58:709,21.136,0.148,-0.016,0.663,0.623,101.019,-53.207
19:31:58:709,21.136,0.138,0.152,0.536,0.427,99.774,-46.308
19:31:58:71,21.137,0.139,0.300,0.380,0.557,98.649,-41.309
19:31:58:711,21.138,0.119,0.545,0.187,1.658,97.332,-33.255
19:31:58:757,21.184,0.053,0.767,0.046,2.677,96.806,-27.486
19:31:58:758,21.185,0.021,0.773,-0.193,4.415,96.423,-18.448
19:31:58:837,21.263,-0.053,0.352,-0.576,7.860,97.158,-4.103
19:31:58:838,21.264,-0.309,0.063,-0.754,9.721,97.888,3.146
19:31:58:838,21.264,-0.168,-0.160,-0.789,11.098,97.956,6.793
19:31:58:857,21.283,-0.096,-0.073,-0.723,12.342,97.927,10.364
19:31:58:942,21.368,-0.206,-0.054,-0.755,13.083,96.806,12.183
19:31:58:943,21.369,-0.265,-0.229,-0.859,14.142,94.700,12.441
19:31:58:943,21.369,-0.349,-0.345,-0.947,16.041,90.419,11.885
19:31:58:962,21.388,-0.320,-0.400,-1.007,17.083,87.992,11.118
19:31:58:989,21.415,-0.407,-0.236,-1.008,17.366,87.595,10.180
19:31:59:044,21.470,-0.473,-0.033,-0.816,16.630,89.531,9.785
19:31:59:045,21.471,-0.533,0.033,-0.698,15.103,94.125,8.960
19:31:59:125,21.552,-0.491,0.168,-0.493,13.317,99.200,7.081
19:31:59:126,21.553,-0.416,0.327,-0.358,12.160,102.226,5.001
19:31:59:127,21.554,-0.448,0.453,-0.249,10.663,105.363,0.455
19:31:59:146,21.573,-0.445,0.622,-0.134,9.254,107.219,-5.578
19:31:59:172,21.599,-0.309,0.614,0.020,8.292,108.434,-10.266
19:31:59:199,21.626,-0.178,0.471,0.210,7.001,110.428,-18.261
19:31:59:224,21.651,-0.118,0.486,0.364,6.122,111.885,-24.043
19:31:59:251,21.677,0.030,0.414,0.697,4.803,114.306,-32.871
19:31:59:277,21.704,0.152,0.178,0.539,3.918,115.601,-38.735
19:31:59:303,21.730,0.158,0.062,0.516,1.894,116.758,-47.068
19:31:59:33,21.757,0.296,-0.083,0.580,-1.699,118.118,-54.380
19:31:59:356,21.782,0.400,-0.255,0.670,-3.493,119.451,-58.431
19:31:59:412,21.838,0.333,-0.282,0.718,-3.497,121.230,-62.854
19:31:59:412,21.838,0.365,-0.526,0.737,-1.782,122.083,-64.910
19:31:59:437,21.863,0.373,-0.608,0.684,1.776,122.333,-66.982
19:31:59:462,21.888,0.382,-0.648,0.705,5.871,122.048,-68.433
19:31:59:488,21.914,0.377,-0.772,0.673,9.017,121.976,-68.936
19:31:59:514,21.940,0.343,-0.745,0.456,11.992,121.689,-69.199
19:31:59:54,21.966,0.262,-0.714,0.395,11.109,121.410,-68.784
19:31:59:567,21.993,0.400,-0.594,0.603,8.885,121.122,-67.954
19:31:59:592,22.019,0.521,-0.452,0.938,5.848,120.858,-66.519
19:31:59:618,22.045,0.559,-0.289,0.952,3.193,120.149,-64.891
19:31:59:644,22.071,0.551,0.062,1.088,-0.720,118.575,-61.231
19:31:59:671,22.098,0.480,0.148,0.947,-2.060,116.945,-58.275
19:31:59:699,22.126,0.347,0.142,0.767,-2.690,113.850,-53.009
19:31:59:754,22.180,0.197,0.105,0.538,-2.534,109.961,-46.759
19:31:59:754,22.180,0.065,0.131,0.340,-2.143,106.956,-42.064
19:31:59:776,22.202,0.110,0.322,0.158,-0.839,102.213,-34.208
19:31:59:802,22.228,-0.007,0.631,0.011,0.632,99.089,-28.746
19:31:59:828,22.254,-0.141,0.766,-0.097,4.024,95.257,-20.209
19:31:59:856,22.282,-0.253,0.756,-0.443,8.470,92.522,-11.565
19:31:59:883,22.309,-0.332,0.641,-0.723,11.776,91.465,-6.090
19:31:59:937,22.363,-0.482,0.226,-0.988,16.686,91.419,1.507
19:31:59:937,22.363,-0.542,-0.238,-1.082,19.521,91.749,5.788
19:32:00:074,22.501,-0.186,-0.306,-0.819,22.290,91.515,9.689
19:32:00:074,22.501,-0.264,-0.199,-0.653,23.658,90.850,11.578
19:32:00:075,22.502,-0.457,-0.270,-0.917,24.622,88.779,11.442
19:32:00:094,22.520,-0.392,-0.412,-1.025,27.296,80.126,8.309
19:32:00:094,22.520,-0.365,-0.390,-0.964,27.497,77.339,6.633
19:32:00:117,22.543,-0.384,-0.288,-0.824,26.866,78.340,6.061
19:32:00:143,22.569,-0.424,-0.223,-0.716,25.123,81.348,5.455
19:32:00:17,22.596,-0.543,-0.004,-0.627,22.641,85.608,4.259
19:32:00:311,22.737,-0.588,0.133,-0.575,20.756,88.196,2.746
19:32:00:312,22.738,-0.650,0.457,-0.410,17.608,91.621,-0.903
19:32:00:312,22.738,-0.606,0.678,-0.149,15.393,93.784,-4.198
19:32:00:313,22.739,-0.460,0.704,0.039,12.209,96.629,-10.483
19:32:00:33,22.757,-0.317,0.666,0.171,8.834,98.925,-18.178
19:32:00:33,22.757,-0.172,0.605,0.288,6.430,100.629,-23.854
19:32:00:382,22.809,-0.022,0.495,0.489,2.468,103.581,-32.780
19:32:00:383,22.810,0.074,0.427,0.545,-0.407,105.800,-38.834
19:32:00:406,22.833,0.232,0.268,0.652,-4.730,109.731,-47.771
19:32:00:461,22.888,0.357,-0.015,0.771,-8.259,114.194,-56.206
19:32:00:462,22.888,0.396,-0.343,0.732,-9.513,117.060,-61.298
19:32:00:515,22.941,0.385,-0.482,0.638,-10.066,120.625,-67.774
19:32:00:516,22.942,0.389,-0.530,0.646,-9.341,122.490,-71.178
19:32:00:624,23.051,0.453,-0.611,0.686,-6.321,124.475,-75.150
19:32:00:625,23.052,0.466,-0.743,0.715,-0.679,125.454,-77.493
19:32:00:626,23.053,0.451,-0.764,0.700,2.214,125.480,-78.293
19:32:00:627,23.054,0.463,-0.728,0.700,2.110,124.760,-78.373
19:32:00:643,23.070,0.431,-0.679,0.657,-0.910,123.885,-77.655
19:32:00:783,23.209,0.408,-0.561,0.665,-6.021,122.296,-75.385
19:32:00:783,23.209,0.464,-0.387,0.663,-9.328,120.603,-71.819
19:32:00:784,23.210,0.480,-0.241,0.676,-9.641,119.563,-68.819
19:32:00:805,23.231,0.426,-0.004,0.805,-5.874,117.011,-59.789
19:32:00:805,23.231,0.353,0.084,0.776,-3.174,114.914,-53.492
19:32:00:826,23.252,0.231,0.199,0.593,-1.326,111.912,-46.685
19:32:00:853,23.279,0.186,0.264,0.413,-0.273,109.453,-41.888
19:32:00:94,23.366,0.096,0.414,0.262,1.464,105.536,-34.285
19:32:00:941,23.367,0.001,0.651,-0.015,2.989,102.943,-29.023
19:32:00:941,23.367,-0.150,0.709,-0.163,6.191,99.874,-21.085
19:32:00:958,23.384,-0.473,0.396,-0.413,13.321,96.876,-8.574
19:32:00:983,23.410,-0.564,0.005,-0.730,17.972,94.310,-3.058
19:32:01:009,23.436,-0.466,-0.138,-0.791,20.739,91.976,-0.873
19:32:01:065,23.492,-0.353,-0.101,-0.653,23.760,88.679,0.801
19:32:01:066,23.493,-0.610,-0.190,-0.764,25.321,86.640,1.216
19:32:01:116,23.542,-0.662,-0.281,-0.829,27.415,82.809,0.631
19:32:01:202,23.628,-0.495,-0.418,-0.876,29.082,79.064,-0.824
19:32:01:203,23.629,-0.516,-0.377,-0.857,29.569,78.030,-1.642
19:32:01:204,23.630,-0.604,-0.292,-0.728,29.305,79.334,-2.011
19:32:01:204,23.630,-0.765,-0.153,-0.573,28.202,83.083,-1.831
19:32:01:221,23.647,-0.847,-0.033,-0.516,27.221,85.875,-1.852
19:32:01:247,23.673,-0.946,0.180,-0.517,25.291,90.225,-2.394
19:32:01:299,23.725,-0.878,0.372,-0.071,20.636,100.251,-5.192
19:32:01:352,23.779,-0.680,0.390,0.152,18.609,105.007,-7.453
19:32:01:38,23.807,-0.502,0.362,0.275,15.819,111.494,-12.439
19:32:01:38,23.807,-0.319,0.325,0.374,13.175,116.750,-18.907
19:32:01:403,23.830,-0.170,0.306,0.510,11.391,119.736,-23.727
19:32:01:429,23.856,-0.027,0.272,0.546,8.924,123.760,-31.401
19:32:01:456,23.883,0.077,0.373,0.612,7.496,126.466,-36.541
19:32:01:538,23.965,0.229,0.372,0.794,6.296,130.878,-43.933
19:32:01:539,23.966,0.377,0.213,0.693,7.399,135.072,-50.733
19:32:01:622,24.049,0.516,0.090,0.713,9.171,137.453,-54.959
19:32:01:622,24.049,0.709,-0.098,1.013,14.275,140.779,-60.595
19:32:01:623,24.050,0.786,-0.339,0.956,19.115,142.155,-63.910
19:32:01:624,24.051,0.760,-0.447,0.901,25.877,142.701,-68.357
19:32:01:699,24.125,0.650,-0.567,0.755,29.644,141.669,-72.328
19:32:01:699,24.125,0.613,-0.627,0.721,29.368,140.754,-74.427
19:32:01:699,24.125,0.613,-0.687,0.677,22.597,138.933,-76.633
19:32:01:719,24.145,0.515,-0.772,0.525,11.303,137.944,-77.273
19:32:01:745,24.171,0.206,-0.704,0.265,-8.204,136.952,-76.523
19:32:01:772,24.198,0.273,-0.528,0.222,-17.178,136.996,-74.462
19:32:01:797,24.223,0.439,-0.472,0.265,-15.951,137.603,-72.548
19:32:01:824,24.250,0.484,-0.409,0.365,-7.430,139.224,-68.495
19:32:01:85,24.276,0.506,-0.272,0.502,-1.527,140.584,-65.112
19:32:01:93,24.357,0.596,-0.188,0.577,4.669,142.991,-58.290
19:32:02:069,24.495,0.547,0.090,0.527,7.178,144.540,-49.864
19:32:02:07,24.496,0.402,0.313,0.391,7.726,144.829,-43.616
19:32:02:071,24.497,0.154,0.694,0.133,8.539,145.065,-33.511
19:32:02:096,24.522,-0.506,0.521,-0.169,12.643,152.940,-5.132
19:32:02:097,24.523,-0.526,0.300,-0.220,13.332,155.380,0.956
19:32:02:097,24.523,-0.629,0.046,-0.343,14.053,158.220,8.557
19:32:02:114,24.540,-0.671,-0.098,-0.416,14.574,159.214,12.263
19:32:02:225,24.652,-0.759,-0.201,-0.513,15.596,158.980,15.633
19:32:02:226,24.653,-0.894,-0.251,-0.397,16.462,157.872,16.655
19:32:02:227,24.654,-0.947,-0.317,-0.350,18.257,155.266,16.795
19:32:02:228,24.655,-1.132,-0.429,-0.258,20.225,152.796,16.185
19:32:02:244,24.671,-1.257,-0.404,-0.073,21.153,152.411,15.832
19:32:02:27,24.697,-1.319,-0.262,0.029,21.367,154.894,15.778
19:32:02:352,24.778,-1.401,-0.130,0.204,20.713,158.220,15.856
19:32:02:353,24.779,-1.172,-0.053,0.349,19.184,164.755,15.223
19:32:02:378,24.804,-0.700,0.332,0.552,16.863,172.368,13.095
19:32:02:378,24.804,-0.497,0.494,0.540,15.679,176.680,10.446
19:32:02:402,24.828,-0.348,0.576,0.598,15.347,179.951,4.306
19:32:02:427,24.853,-0.239,0.596,0.668,15.562,179.893,-1.030
19:32:02:484,24.910,-0.145,0.527,0.622,15.575,177.860,-10.421
19:32:02:484,24.910,0.038,0.503,0.513,14.703,176.286,-20.438
19:32:02:506,24.932,0.282,0.480,0.547,13.823,176.346,-26.993
19:32:02:561,24.988,0.557,0.393,0.491,12.655,177.465,-36.533
19:32:02:561,24.988,0.761,0.342,0.412,12.028,178.539,-42.634
19:32:02:584,25.011,0.825,0.184,0.324,11.574,-179.635,-51.206
19:32:02:611,25.038,0.952,0.002,0.270,12.689,-177.271,-58.954
19:32:02:638,25.065,1.074,-0.169,0.227,15.265,-175.348,-63.521
19:32:02:692,25.118,1.164,-0.424,0.110,22.131,-172.677,-69.461
19:32:02:693,25.119,1.035,-0.661,0.015,27.939,-171.351,-72.785
19:32:02:805,25.231,0.887,-0.788,-0.020,35.721,-170.167,-76.776
19:32:02:805,25.231,0.660,-0.843,-0.081,38.488,-169.342,-79.280
19:32:02:806,25.232,0.638,-0.816,-0.078,37.316,-168.819,-80.452
19:32:02:807,25.233,0.633,-0.837,-0.119,31.280,-167.871,-81.185
19:32:02:848,25.274,0.664,-0.775,-0.100,25.610,-167.175,-80.713
19:32:02:905,25.332,0.695,-0.699,-0.094,18.019,-166.227,-78.529
19:32:02:906,25.333,0.722,-0.557,-0.171,13.221,-165.508,-74.647
19:32:02:907,25.334,0.790,-0.337,-0.192,10.965,-165.120,-71.177
19:32:03:014,25.441,0.807,-0.185,-0.200,8.846,-164.561,-64.669
19:32:03:014,25.441,0.717,-0.107,-0.191,8.203,-164.441,-59.675
19:32:03:015,25.442,0.696,0.075,-0.137,7.234,-164.991,-51.349
19:32:03:031,25.457,0.436,0.542,-0.025,6.156,-168.508,-35.555
19:32:03:087,25.513,0.052,1.057,0.083,6.737,-171.461,-25.120
19:32:03:087,25.513,-0.181,1.225,0.194,7.897,-172.795,-17.919
19:32:03:138,25.565,-0.668,0.918,0.222,10.464,-173.654,-7.547
19:32:03:139,25.566,-0.991,0.396,0.160,13.169,-173.207,1.884
19:32:03:191,25.618,-0.800,0.040,0.348,14.541,-172.513,7.521
19:32:03:192,25.619,-0.726,-0.124,0.037,16.191,-172.267,13.518
19:32:03:218,25.645,-0.768,0.022,0.067,16.764,-172.031,16.495
19:32:03:218,25.645,-0.863,0.025,0.266,17.317,-172.571,19.631
19:32:03:3,25.726,-1.111,-0.419,0.417,20.302,-176.394,20.641
19:32:03:3,25.726,-1.170,-0.562,0.409,23.219,179.942,20.132
19:32:03:301,25.727,-1.279,-0.671,0.306,26.886,175.100,18.669
19:32:03:346,25.772,-1.170,-0.653,0.304,27.287,175.389,18.300
19:32:03:375,25.801,-1.057,-0.460,0.474,26.127,178.530,18.190
19:32:03:376,25.802,-0.969,-0.234,0.600,24.532,-178.113,18.022
19:32:03:427,25.854,-0.852,0.009,0.701,21.903,-172.735,16.906
19:32:03:428,25.855,-0.705,0.246,0.725,19.358,-167.668,14.299
19:32:03:451,25.878,-0.556,0.433,0.691,17.962,-164.773,11.554
19:32:03:506,25.932,-0.348,0.532,0.682,16.251,-161.182,5.991
19:32:03:507,25.933,-0.183,0.514,0.615,15.388,-159.243,1.437
19:32:03:559,25.985,0.004,0.506,0.529,14.368,-156.776,-6.364
19:32:03:559,25.985,0.255,0.499,0.417,13.633,-154.289,-14.839
19:32:03:641,26.067,0.417,0.477,0.318,13.425,-152.539,-20.693
19:32:03:642,26.068,0.587,0.436,0.167,13.678,-150.085,-29.484
19:32:03:643,26.069,0.772,0.371,0.072,14.355,-148.442,-35.151
19:32:03:72,26.147,0.864,0.202,-0.074,16.385,-146.224,-43.139
19:32:03:72,26.147,0.912,0.084,-0.155,19.289,-144.779,-50.431
19:32:03:721,26.148,0.952,-0.011,-0.223,21.903,-144.002,-54.858
19:32:03:855,26.281,1.050,-0.206,-0.305,26.873,-143.154,-60.800
19:32:03:855,26.281,1.040,-0.326,-0.333,30.573,-142.954,-64.365
19:32:03:855,26.281,0.920,-0.569,-0.307,35.973,-143.193,-69.180
19:32:03:856,26.282,0.741,-0.717,-0.273,39.182,-143.756,-73.140
19:32:03:903,26.329,0.705,-0.730,-0.265,39.188,-144.022,-75.261
19:32:03:904,26.330,0.587,-0.725,-0.236,34.999,-143.974,-77.539
19:32:03:905,26.331,0.508,-0.711,-0.245,28.671,-143.522,-78.245
19:32:04:011,26.437,0.516,-0.652,-0.303,16.445,-142.221,-77.999
19:32:04:012,26.438,0.550,-0.567,-0.356,8.302,-140.470,-75.605
19:32:04:013,26.439,0.478,-0.437,-0.362,5.427,-139.223,-72.711
19:32:04:014,26.440,0.319,-0.268,-0.391,3.405,-137.202,-66.720
19:32:04:057,26.483,0.271,-0.206,-0.395,3.165,-135.842,-62.004
19:32:04:169,26.596,0.207,-0.017,-0.468,3.606,-134.177,-54.618
19:32:04:17,26.597,0.360,0.020,-0.333,4.517,-131.993,-45.869
19:32:04:17,26.597,0.472,0.170,-0.324,5.044,-130.495,-39.444
19:32:04:171,26.598,0.520,0.679,-0.369,4.941,-129.206,-28.614
19:32:04:219,26.645,-0.044,1.227,-0.009,4.898,-129.324,-21.074
19:32:04:219,26.645,-0.459,1.104,0.331,5.798,-129.652,-10.304
19:32:04:219,26.645,-0.725,0.629,0.427,6.612,-129.356,-3.662
19:32:04:327,26.753,-0.766,0.280,0.529,7.307,-128.466,5.175
19:32:04:327,26.753,-0.743,-0.007,0.536,7.668,-127.530,12.134
19:32:04:328,26.754,-0.659,-0.145,0.529,7.778,-126.766,15.723
19:32:04:328,26.754,-0.664,-0.124,0.570,7.995,-126.058,19.602
19:32:04:344,26.770,-0.634,-0.218,0.752,8.920,-126.747,21.230
19:32:04:37,26.796,-0.658,-0.343,0.833,11.931,-129.365,22.391
19:32:04:424,26.851,-0.719,-0.499,0.986,15.274,-132.002,22.357
19:32:04:48,26.907,-0.732,-0.448,1.084,16.558,-132.648,22.053
19:32:04:481,26.908,-0.532,-0.356,1.104,16.984,-131.208,21.444
19:32:04:482,26.909,-0.367,-0.217,1.075,16.491,-129.036,20.925
19:32:04:641,27.067,-0.175,-0.146,0.956,15.270,-124.637,19.692
19:32:04:642,27.068,-0.075,0.033,0.998,13.920,-119.947,17.652
19:32:04:643,27.069,0.067,0.265,1.056,13.015,-116.799,15.757
19:32:04:645,27.071,0.237,0.454,0.851,12.134,-112.025,11.804
19:32:04:664,27.090,0.307,0.431,0.575,12.039,-109.195,8.341
19:32:04:665,27.091,0.332,0.350,0.392,12.545,-106.118,2.005
19:32:04:666,27.092,0.346,0.261,0.231,13.331,-104.466,-5.441
19:32:04:685,27.111,0.387,0.272,0.118,13.782,-103.947,-10.855
19:32:04:711,27.138,0.497,0.359,-0.025,14.332,-103.800,-19.301
19:32:04:791,27.217,0.597,0.396,-0.183,14.598,-103.914,-24.927
19:32:05:011,27.437,0.577,0.309,-0.339,15.165,-104.012,-33.106
19:32:05:011,27.437,0.558,0.179,-0.473,16.414,-103.396,-40.591
19:32:05:012,27.438,0.584,0.090,-0.590,17.820,-102.659,-45.122
19:32:05:013,27.439,0.576,-0.077,-0.737,20.786,-101.552,-51.324
19:32:05:035,27.462,0.558,-0.277,-0.814,22.984,-101.102,-55.081
19:32:05:036,27.463,0.494,-0.448,-0.775,25.335,-101.081,-60.063
19:32:05:036,27.463,0.376,-0.567,-0.635,24.911,-101.496,-64.126
19:32:05:037,27.464,0.333,-0.578,-0.586,22.426,-101.691,-66.294
19:32:05:115,27.542,0.275,-0.531,-0.569,15.530,-101.582,-68.724
19:32:05:116,27.543,0.217,-0.470,-0.558,9.618,-101.058,-69.613
19:32:05:117,27.544,0.160,-0.445,-0.605,1.445,-99.494,-69.734
19:32:05:193,27.619,0.009,-0.389,-0.669,-5.522,-96.023,-66.591
19:32:05:193,27.619,-0.088,-0.183,-0.596,-6.258,-93.715,-62.323
19:32:05:194,27.620,-0.148,-0.113,-0.597,-5.729,-92.122,-58.729
19:32:05:456,27.883,-0.160,-0.064,-0.526,-4.039,-89.102,-47.960
19:32:05:457,27.884,-0.162,0.049,-0.430,-3.441,-88.009,-40.251
19:32:05:457,27.884,-0.253,0.304,-0.215,-2.935,-87.586,-31.905
19:32:05:458,27.885,-0.252,0.463,-0.112,-2.448,-87.351,-25.995
19:32:05:482,27.909,-0.305,0.798,0.133,-1.561,-87.094,-16.534
19:32:05:482,27.909,-0.508,0.700,0.802,-0.688,-87.136,-10.131
19:32:05:483,27.910,-0.456,0.486,1.032,0.793,-86.313,-0.829
19:32:05:484,27.911,-0.331,0.164,1.036,1.990,-84.983,7.457
19:32:05:508,27.935,-0.210,-0.231,1.094,3.215,-84.748,12.022
19:32:05:508,27.935,-0.153,-0.387,0.910,5.083,-84.417,16.873
19:32:05:509,27.936,-0.209,-0.313,0.866,6.029,-84.381,18.682
19:32:05:51,27.937,0.012,-0.055,0.801,6.880,-84.580,20.075
19:32:05:612,28.039,0.235,-0.090,0.887,8.900,-86.010,19.890
19:32:05:613,28.040,0.322,-0.165,1.044,10.708,-87.616,19.235
19:32:05:614,28.041,0.376,-0.348,1.301,13.109,-89.627,17.598
19:32:05:615,28.042,0.419,-0.127,1.123,13.648,-89.163,16.296
19:32:05:636,28.063,0.450,0.069,0.950,12.749,-85.388,14.018
19:32:05:637,28.064,0.450,0.131,0.820,11.578,-80.065,11.085
19:32:05:637,28.064,0.594,0.233,0.761,10.646,-76.118,8.710
19:32:05:713,28.139,0.671,0.448,0.585,9.153,-69.932,4.305
19:32:05:79,28.216,0.778,0.535,0.421,8.339,-65.971,0.626
19:32:05:822,28.249,0.823,0.680,0.112,7.514,-59.843,-6.042
19:32:05:823,28.250,0.806,0.716,-0.099,7.767,-52.696,-13.804
19:32:05:824,28.251,0.631,0.737,-0.293,8.962,-47.355,-19.467
19:32:05:842,28.269,0.278,0.772,-0.817,17.195,-34.223,-34.586
19:32:05:843,28.270,0.148,0.774,-0.909,26.196,-28.399,-44.208
19:32:06:007,28.434,-0.120,0.497,-1.183,34.311,-25.253,-50.739
19:32:06:007,28.434,-0.345,0.042,-1.118,49.982,-22.458,-61.273
19:32:06:008,28.435,-0.380,-0.082,-0.948,67.736,-21.900,-72.705
19:32:06:01,28.437,-0.546,-0.225,-0.913,78.728,-22.135,-80.345
19:32:06:111,28.538,-0.527,-0.514,-0.598,91.936,-23.767,-92.070
19:32:06:112,28.539,-0.481,-0.502,-0.411,98.192,-26.262,-100.463
19:32:06:113,28.540,-0.502,-0.602,-0.170,104.191,-31.805,-113.819
19:32:06:113,28.540,-0.353,-0.647,0.171,107.747,-39.446,-128.008
19:32:06:134,28.561,-0.275,-0.567,0.344,109.195,-44.890,-137.191
19:32:06:135,28.562,-0.184,-0.416,0.236,110.446,-52.375,-149.499
19:32:06:135,28.562,-0.167,-0.359,0.144,110.679,-56.537,-156.576
19:32:06:155,28.581,-0.186,-0.297,0.130,110.297,-61.760,-165.586
19:32:06:24,28.667,-0.198,-0.292,0.241,109.461,-66.538,-173.229
19:32:06:24,28.667,-0.180,-0.231,0.245,108.888,-68.686,-176.793
19:32:06:24,28.667,-0.169,-0.192,0.173,108.139,-69.868,-179.555
19:32:06:26,28.687,-0.114,-0.232,0.092,107.838,-70.059,179.600
19:32:06:427,28.854,-0.073,-0.179,0.139,107.499,-70.690,178.344
19:32:06:428,28.855,0.000,-0.150,0.248,107.247,-72.607,176.170
19:32:06:429,28.856,0.039,-0.150,0.174,107.269,-72.640,176.009
19:32:06:43,28.857,0.028,-0.108,0.074,107.391,-71.921,176.490
19:32:06:45,28.877,0.008,-0.128,0.229,107.398,-72.741,175.526
19:32:06:45,28.877,0.024,-0.147,0.232,107.479,-73.435,174.604
19:32:06:451,28.878,-0.013,-0.137,0.138,107.719,-71.923,175.876
19:32:06:469,28.895,-0.073,-0.094,0.175,107.795,-71.614,176.086
19:32:06:583,29.009,-0.054,-0.103,0.208,107.903,-72.390,175.141
19:32:06:584,29.010,-0.020,-0.067,0.219,108.009,-72.661,174.713
19:32:06:585,29.011,-0.049,0.001,0.214,108.225,-72.652,174.643
19:32:06:601,29.027,0.012,0.077,0.147,108.851,-71.886,175.302
19:32:06:627,29.053,0.029,0.199,0.209,109.079,-71.991,175.053
19:32:06:684,29.110,0.046,0.202,0.138,109.191,-72.325,174.570
19:32:06:684,29.110,0.040,0.241,0.027,109.305,-71.714,174.612
19:32:06:762,29.189,0.038,0.195,0.039,109.308,-71.813,174.092
19:32:06:762,29.189,0.053,0.157,-0.034,109.329,-72.103,173.216
19:32:06:788,29.215,0.069,0.134,-0.074,109.377,-71.615,173.134
19:32:06:788,29.215,0.050,0.108,-0.079,109.343,-71.158,173.213
19:32:06:811,29.238,-0.044,0.049,-0.069,109.209,-69.905,173.889
19:32:06:891,29.317,-0.092,0.024,-0.052,109.085,-68.612,174.649
19:32:06:922,29.348,-0.131,-0.073,-0.004,109.005,-66.004,176.640
19:32:06:922,29.348,-0.068,-0.154,0.005,109.088,-62.563,179.196
19:32:06:923,29.349,-0.042,-0.157,0.017,109.109,-60.788,-179.604
19:32:06:942,29.368,-0.039,-0.213,0.043,109.045,-59.331,-178.982
19:32:06:969,29.395,-0.034,-0.195,0.018,109.024,-58.645,-178.873
19:32:07:081,29.508,-0.031,-0.192,0.063,108.963,-58.319,-179.252
19:32:07:082,29.509,-0.017,-0.150,0.061,108.909,-58.658,179.878
19:32:07:083,29.510,-0.020,-0.035,0.051,108.804,-58.986,179.160
19:32:07:084,29.511,-0.024,0.009,0.049,108.620,-60.549,177.271
19:32:07:099,29.526,-0.063,0.084,0.010,108.530,-61.480,176.216
19:32:07:126,29.553,-0.085,0.139,0.040,108.417,-63.954,173.977
19:32:07:181,29.608,-0.051,0.136,0.084,108.516,-65.624,172.698
19:32:07:182,29.609,-0.021,0.166,0.100,108.653,-65.885,172.619
19:32:07:205,29.632,-0.031,0.181,0.069,108.803,-66.251,172.458
19:32:07:231,29.657,-0.046,0.173,0.062,108.782,-67.209,171.586
19:32:07:257,29.683,-0.060,0.104,0.070,108.595,-69.224,169.663
19:32:07:284,29.710,-0.087,0.068,0.075,108.474,-70.224,168.832
19:32:07:339,29.765,-0.169,0.029,0.008,108.370,-70.586,168.540
19:32:07:339,29.765,-0.209,-0.036,0.017,108.136,-71.554,167.618
19:32:07:364,29.790,-0.162,-0.092,0.037,108.002,-72.313,166.942
19:32:07:389,29.815,-0.145,-0.102,0.048,107.978,-72.524,167.031
19:32:07:415,29.841,-0.113,-0.139,0.044,108.142,-72.000,167.896
19:32:07:441,29.867,-0.063,-0.156,0.071,108.250,-71.935,168.107
19:32:07:468,29.894,0.001,-0.145,0.129,108.370,-72.173,168.081
19:32:07:494,29.920,0.017,-0.155,0.157,108.479,-72.123,168.183
19:32:07:52,29.947,0.009,-0.179,0.150,108.683,-71.339,169.065
19:32:07:546,29.973,-0.030,-0.120,0.159,108.823,-71.322,169.129
19:32:07:572,29.999,0.019,-0.112,0.245,108.944,-71.691,168.785
19:32:07:598,30.025,0.023,-0.105,0.186,109.224,-70.713,169.634
19:32:07:625,30.052,0.010,-0.017,0.132,109.337,-70.162,170.057
19:32:07:651,30.077,-0.005,-0.023,0.168,109.374,-70.477,169.472
19:32:07:677,30.103,-0.021,-0.021,0.171,109.422,-70.758,168.848
19:32:07:706,30.132,-0.042,0.047,0.181,109.476,-71.035,168.357
19:32:07:707,30.133,-0.006,0.078,0.139,109.692,-71.025,168.043
19:32:07:76,30.187,0.043,0.180,0.155,109.844,-70.712,168.016
19:32:07:76,30.187,0.054,0.214,0.199,109.999,-70.815,167.509
19:32:07:811,30.238,0.093,0.217,0.052,110.202,-69.597,168.063
19:32:07:812,30.239,0.105,0.181,0.017,110.325,-68.588,168.593
19:32:07:836,30.262,0.078,0.136,-0.011,110.312,-67.775,168.617
19:32:07:887,30.313,0.107,0.084,-0.016,110.238,-67.704,168.063
19:32:07:918,30.344,0.091,-0.049,-0.094,110.238,-65.738,168.804
19:32:07:918,30.344,0.093,-0.010,-0.111,110.163,-63.243,170.073
19:32:07:969,30.395,0.036,-0.021,-0.107,110.099,-61.645,170.927
19:32:07:97,30.396,-0.036,-0.070,-0.037,110.056,-58.319,172.974
19:32:07:995,30.421,-0.010,-0.130,-0.038,110.091,-55.693,174.631
19:32:08:048,30.474,-0.021,-0.158,-0.072,110.140,-51.886,176.835
19:32:08:049,30.475,-0.006,-0.213,-0.032,110.097,-50.145,177.516
19:32:08:072,30.498,-0.004,-0.188,-0.018,109.936,-48.433,177.740
19:32:08:097,30.524,-0.011,-0.184,0.044,109.843,-46.748,178.167
19:32:08:123,30.550,-0.004,-0.166,0.034,109.842,-45.212,178.985
19:32:08:149,30.576,-0.010,-0.081,0.024,109.762,-43.558,179.759
19:32:08:176,30.603,0.042,0.008,0.050,109.592,-43.536,179.347
19:32:08:202,30.629,0.065,0.063,-0.021,109.306,-43.169,179.068
19:32:08:258,30.684,0.026,0.157,-0.012,108.922,-43.045,178.809
19:32:08:259,30.685,-0.013,0.161,0.046,108.674,-43.795,177.931
19:32:08:34,30.766,0.058,0.124,0.066,108.553,-44.093,177.378
19:32:08:34,30.766,0.050,0.253,-0.054,108.572,-43.216,177.978
19:32:08:341,30.767,0.029,0.280,-0.059,108.329,-43.148,177.643
19:32:08:36,30.786,-0.004,0.123,0.061,108.012,-43.821,176.467
19:32:08:415,30.841,-0.015,0.104,0.027,107.903,-42.892,176.894
19:32:08:416,30.842,-0.085,0.079,-0.010,107.807,-41.004,177.960
19:32:08:44,30.866,-0.182,-0.031,-0.041,107.804,-39.726,178.580
19:32:08:465,30.892,-0.107,-0.039,-0.060,107.889,-38.717,178.512
19:32:08:491,30.918,-0.060,-0.092,-0.045,108.243,-38.249,178.326
19:32:08:517,30.944,-0.020,-0.127,-0.001,108.645,-36.941,179.099
19:32:08:543,30.970,0.074,-0.125,0.026,109.259,-35.048,-179.773
19:32:08:57,30.997,0.100,-0.114,0.008,109.656,-33.797,-179.230
19:32:08:711,31.137,0.093,-0.089,-0.012,110.108,-31.479,-178.085
19:32:08:712,31.138,0.069,-0.062,0.047,110.294,-30.239,-177.759
19:32:08:712,31.138,0.067,-0.074,0.090,110.495,-28.956,-177.671
19:32:08:713,31.139,0.048,-0.084,0.084,110.819,-26.777,-176.926
19:32:08:73,31.156,-0.056,-0.053,0.076,111.069,-25.178,-176.384
19:32:08:731,31.157,-0.069,-0.048,0.108,111.407,-24.299,-176.996
19:32:08:755,31.181,0.019,-0.072,0.152,111.764,-24.277,-178.684
19:32:08:867,31.294,0.005,-0.011,0.143,112.038,-23.964,-179.372
19:32:08:868,31.295,0.036,0.038,0.140,112.413,-23.466,179.426
19:32:08:868,31.295,0.070,0.066,0.149,112.657,-23.282,178.835
19:32:08:869,31.296,0.008,0.222,0.128,112.963,-22.133,178.379
19:32:08:884,31.311,0.027,0.215,0.140,113.190,-21.702,177.805
19:32:08:911,31.338,0.064,0.217,0.088,113.695,-20.594,177.316
19:32:08:966,31.392,-0.004,0.205,-0.088,114.302,-18.842,177.467
19:32:08:967,31.393,0.024,0.124,-0.145,114.593,-17.834,177.286
19:32:08:99,31.416,0.010,0.056,-0.219,114.761,-17.097,176.222
19:32:09:017,31.443,-0.042,0.003,-0.233,114.737,-16.170,175.633
19:32:09:072,31.498,-0.040,-0.061,-0.193,114.596,-14.122,175.401
19:32:09:073,31.499,-0.084,-0.117,-0.159,114.490,-10.637,176.496
19:32:09:095,31.521,-0.103,-0.187,-0.080,114.450,-7.859,177.784
19:32:09:121,31.547,-0.019,-0.303,0.001,114.523,-2.785,-179.517
19:32:09:199,31.626,0.065,-0.370,-0.019,114.666,1.280,-177.053
19:32:09:307,31.733,0.073,-0.350,-0.019,114.871,8.125,-172.570
19:32:09:341,31.767,-0.222,-0.261,0.004,114.986,14.956,-167.645
19:32:09:342,31.768,-0.295,-0.203,0.080,114.962,18.130,-165.825
19:32:09:342,31.768,-0.042,-0.164,0.003,114.768,20.617,-164.619
19:32:09:393,31.819,0.062,0.007,0.004,114.359,27.040,-159.815
19:32:09:393,31.819,0.028,0.072,-0.019,114.039,29.567,-157.680
19:32:09:394,31.820,-0.103,0.195,0.042,113.375,32.601,-154.706
19:32:09:395,31.821,0.033,0.282,0.111,112.576,34.498,-152.797
19:32:09:498,31.925,0.130,0.219,0.077,112.232,35.212,-151.882
19:32:09:498,31.925,-0.017,0.252,-0.009,112.232,37.500,-149.137
19:32:09:498,31.925,-0.262,0.262,0.070,112.073,39.399,-146.919
19:32:09:499,31.926,-0.216,0.255,0.170,111.649,38.931,-146.788
19:32:09:544,31.970,0.034,0.010,0.280,111.140,37.295,-147.918
19:32:09:545,31.971,-0.035,-0.069,0.215,111.371,37.316,-147.283
19:32:09:626,32.052,-0.183,-0.035,0.038,112.186,40.100,-144.323
19:32:09:626,32.052,-0.070,-0.082,0.031,112.432,41.591,-142.737
19:32:09:627,32.053,-0.001,-0.192,0.111,112.209,43.406,-140.752
19:32:09:646,32.072,-0.077,-0.228,0.075,112.007,45.767,-138.218
19:32:09:673,32.099,-0.021,-0.254,0.072,111.993,47.646,-136.291
19:32:09:701,32.127,0.110,-0.342,0.101,111.948,50.230,-133.318
19:32:09:727,32.153,0.085,-0.294,0.025,112.002,51.961,-131.277
19:32:09:781,32.207,0.091,-0.275,0.000,112.395,54.734,-128.038
19:32:09:781,32.207,0.125,-0.355,0.107,112.940,57.418,-124.599
19:32:09:803,32.230,0.128,-0.384,0.095,113.484,59.019,-122.207
19:32:09:862,32.289,0.128,-0.445,0.097,114.582,61.363,-118.555
19:32:09:862,32.289,0.160,-0.616,0.166,115.418,62.693,-115.989
19:32:09:909,32.336,0.069,-0.594,0.198,118.762,65.063,-107.346
19:32:09:937,32.363,0.018,-0.604,0.269,119.538,65.053,-103.927
19:32:09:938,32.364,-0.161,-0.597,0.411,119.242,63.763,-98.049
19:32:09:961,32.387,-0.285,-0.502,0.405,114.888,61.688,-93.522
19:32:10:043,32.469,-0.661,0.101,0.277,-18.730,56.526,-85.326
19:32:10:043,32.469,-1.207,0.252,0.772,-32.848,50.061,-75.590
19:32:10:096,32.522,-1.046,0.710,0.669,-32.453,43.779,-67.328
19:32:10:097,32.523,-0.301,1.568,0.567,-26.583,32.087,-54.326
19:32:10:122,32.548,-0.339,1.595,0.659,-19.118,26.328,-45.891
19:32:10:122,32.548,-0.151,1.390,0.217,-8.193,21.312,-34.697
19:32:10:285,32.712,0.091,1.020,-0.171,-0.384,19.546,-24.490
19:32:10:286,32.713,0.235,0.465,-0.331,2.976,19.977,-18.566
19:32:10:286,32.713,0.115,-0.186,-0.111,6.217,21.663,-12.087
19:32:10:287,32.714,-0.086,-0.267,-0.021,7.085,23.512,-9.257
19:32:10:308,32.735,-0.001,-0.144,-0.189,7.158,26.028,-6.096
19:32:10:308,32.735,0.020,-0.050,-0.367,6.888,26.880,-3.897
19:32:10:309,32.736,0.044,-0.018,-0.429,6.925,26.416,-3.101
19:32:10:408,32.834,0.161,-0.106,-0.535,8.021,23.295,-2.613
19:32:10:496,32.922,0.254,-0.120,-0.562,9.309,19.966,-2.611
19:32:10:496,32.922,0.253,-0.047,-0.567,11.601,14.711,-2.902
19:32:10:497,32.923,0.233,-0.039,-0.546,13.996,10.369,-3.633
19:32:10:498,32.924,0.287,0.009,-0.406,15.607,8.122,-4.297
19:32:10:518,32.945,0.089,0.106,-0.375,17.640,5.960,-5.022
19:32:10:518,32.945,-0.023,0.219,-0.468,18.721,4.801,-5.418
19:32:10:519,32.946,0.073,0.215,-0.445,19.808,1.828,-5.961
19:32:10:596,33.023,0.464,0.051,-0.056,19.926,-0.931,-6.206
19:32:10:597,33.024,0.514,0.013,0.134,19.172,-3.893,-5.690
19:32:10:598,33.025,0.269,-0.075,0.128,18.061,-3.664,-4.712
19:32:10:617,33.043,0.215,-0.165,0.135,17.089,-1.954,-3.987
19:32:10:643,33.069,0.337,-0.274,0.079,15.119,2.276,-2.850
19:32:10:67,33.096,0.117,-0.042,0.077,13.592,6.118,-2.375
19:32:10:698,33.124,-0.220,0.105,0.093,11.616,11.644,-2.483
19:32:10:723,33.149,-0.120,-0.123,0.198,11.181,14.331,-3.386
19:32:10:749,33.175,0.096,-0.195,0.124,11.679,14.472,-4.109
19:32:10:775,33.201,0.232,-0.090,-0.018,12.282,13.536,-5.104
19:32:10:801,33.227,0.294,-0.221,-0.084,12.820,12.987,-5.731
19:32:10:828,33.254,0.301,-0.251,-0.160,13.666,13.053,-6.514
19:32:10:853,33.280,0.285,-0.136,-0.250,14.007,14.804,-7.008
19:32:10:909,33.336,0.265,-0.182,-0.256,14.131,17.300,-7.069
19:32:10:909,33.336,0.169,-0.194,-0.334,14.268,21.817,-7.012
19:32:10:992,33.418,0.120,-0.229,-0.423,14.239,24.943,-7.037
19:32:10:992,33.418,0.056,-0.242,-0.474,14.150,29.198,-7.304
19:32:10:992,33.418,-0.005,-0.260,-0.462,13.932,33.213,-7.957
19:32:11:012,33.438,-0.088,-0.304,-0.435,13.780,35.696,-8.722
19:32:11:038,33.464,-0.273,0.109,-0.470,13.192,38.802,-10.288
19:32:11:122,33.548,-0.459,0.577,-0.536,12.418,40.468,-11.449
19:32:11:123,33.549,-0.368,0.600,-0.541,11.793,42.565,-13.706
19:32:11:124,33.550,-0.630,0.986,-0.497,11.240,45.957,-16.096
19:32:11:143,33.569,-0.639,0.769,-0.319,11.239,49.288,-17.901
19:32:11:169,33.595,-0.600,0.470,-0.041,11.280,55.210,-20.836
19:32:11:195,33.621,-0.612,0.486,0.128,10.963,59.194,-22.940
19:32:11:221,33.647,-0.514,0.275,0.203,10.079,64.484,-26.518
19:32:11:247,33.674,-0.437,0.082,0.235,8.340,68.639,-30.645
19:32:11:275,33.702,-0.381,0.026,0.265,6.890,71.031,-33.537
19:32:11:33,33.757,-0.316,-0.086,0.307,4.621,74.677,-37.752
19:32:11:352,33.779,-0.320,-0.100,0.429,2.300,81.712,-44.114
19:32:11:378,33.804,-0.231,-0.244,0.439,2.875,86.252,-47.255
19:32:11:432,33.858,-0.209,-0.305,0.551,3.790,89.090,-48.963
19:32:11:46,33.886,-0.070,-0.452,0.642,5.005,92.274,-50.914
19:32:11:461,33.887,-0.048,-0.442,0.585,5.389,93.485,-51.912
19:32:11:484,33.910,-0.062,-0.395,0.668,5.419,94.343,-52.860
19:32:11:567,33.993,-0.074,-0.417,0.752,5.286,94.453,-53.173
19:32:11:567,33.993,-0.006,-0.560,0.621,5.105,94.023,-53.448
19:32:11:592,34.018,-0.004,-0.489,0.632,4.114,93.118,-53.397
19:32:11:592,34.018,-0.048,-0.318,0.815,2.938,92.360,-53.012
19:32:11:615,34.041,-0.058,-0.309,0.675,0.973,90.651,-51.668
19:32:11:641,34.068,0.003,-0.006,0.681,-1.374,88.684,-49.139
19:32:11:754,34.181,-0.047,0.273,0.806,-2.501,87.427,-46.736
19:32:11:754,34.181,-0.077,0.105,0.535,-2.716,85.272,-42.573
19:32:11:755,34.182,-0.059,0.204,0.393,-2.455,83.838,-39.360
19:32:11:775,34.202,-0.041,0.351,0.334,-1.553,81.994,-33.821
19:32:11:776,34.203,-0.100,0.382,0.190,0.273,80.452,-27.662
19:32:11:799,34.225,-0.075,0.353,0.022,1.780,79.548,-23.221
19:32:11:825,34.251,0.089,0.307,-0.360,4.131,78.861,-16.206
19:32:11:905,34.332,0.124,0.231,-0.451,5.727,79.327,-11.541
19:32:11:935,34.362,0.037,0.216,-0.423,7.694,81.455,-4.788
19:32:11:936,34.363,-0.082,0.193,-0.514,8.736,83.276,-0.512
19:32:11:937,34.364,-0.023,0.040,-0.672,10.108,85.923,5.272
19:32:11:956,34.383,-0.019,-0.012,-0.639,11.027,88.492,9.879
19:32:11:982,34.409,-0.009,-0.055,-0.655,11.669,89.268,12.208
19:32:12:097,34.523,-0.024,-0.235,-0.735,13.086,89.222,14.420
19:32:12:097,34.523,-0.047,-0.303,-0.746,14.111,88.404,15.132
19:32:12:098,34.524,-0.079,-0.251,-0.838,15.073,87.355,15.341
19:32:12:099,34.525,-0.107,-0.310,-0.865,15.063,87.969,14.947
19:32:12:114,34.540,-0.198,-0.286,-0.776,14.528,89.621,14.439
19:32:12:14,34.566,-0.318,-0.091,-0.760,13.135,93.169,13.274
19:32:12:198,34.624,-0.393,0.114,-0.727,12.151,95.972,12.106
19:32:12:199,34.625,-0.468,0.286,-0.592,10.887,100.632,9.591
19:32:12:247,34.674,-0.444,0.403,-0.251,10.102,107.334,2.398
19:32:12:248,34.675,-0.369,0.358,-0.063,10.257,110.198,-3.673
19:32:12:297,34.724,-0.313,0.333,0.073,10.523,111.663,-8.327
19:32:12:356,34.783,-0.312,0.320,0.176,10.953,113.146,-15.996
19:32:12:357,34.784,-0.252,0.319,0.299,11.366,114.334,-24.204
19:32:12:357,34.784,-0.178,0.317,0.420,11.661,115.094,-29.842
19:32:12:405,34.831,-0.050,0.250,0.599,12.355,116.219,-38.316
19:32:12:406,34.832,0.017,0.119,0.741,13.167,116.982,-43.845
19:32:12:458,34.884,0.091,0.034,0.837,15.073,117.976,-51.719
19:32:12:458,34.884,0.182,-0.055,1.007,17.644,118.596,-58.819
19:32:12:481,34.907,0.202,-0.199,0.992,19.865,118.708,-63.068
19:32:12:508,34.934,0.236,-0.386,0.943,23.445,118.569,-68.683
19:32:12:564,34.990,0.311,-0.610,0.852,25.493,118.379,-71.810
19:32:12:565,34.991,0.358,-0.737,0.803,26.362,118.087,-75.448
19:32:12:587,35.013,0.356,-0.710,0.699,21.963,117.945,-77.520
19:32:12:612,35.039,0.360,-0.636,0.638,16.839,118.274,-77.900
19:32:12:64,35.067,0.479,-0.630,0.720,11.156,119.202,-77.360
19:32:12:666,35.092,0.607,-0.581,0.807,8.548,119.716,-76.337
19:32:12:691,35.117,0.589,-0.415,0.902,5.106,120.222,-73.153
19:32:12:747,35.173,0.558,-0.315,0.907,2.875,120.341,-69.950
19:32:12:747,35.173,0.456,-0.236,0.786,-0.289,119.562,-63.855
19:32:12:769,35.196,0.392,-0.107,0.596,-2.825,117.140,-56.431
19:32:12:796,35.223,0.316,0.054,0.460,-3.600,114.783,-50.915
19:32:12:881,35.308,0.206,0.168,0.401,-3.279,110.508,-42.050
19:32:12:881,35.308,0.150,0.472,0.311,-2.307,107.314,-35.796
19:32:12:901,35.328,-0.088,0.803,-0.306,3.419,97.717,-16.219
19:32:12:927,35.353,-0.151,0.759,-0.562,6.347,95.112,-10.122
19:32:12:954,35.380,-0.234,0.642,-0.892,11.031,92.739,-1.632
19:32:13:094,35.521,-0.418,0.233,-1.043,14.030,92.373,3.537
19:32:13:094,35.521,-0.397,-0.037,-1.220,17.539,92.698,9.916
19:32:13:115,35.542,-0.509,-0.277,-0.973,20.547,95.524,17.894
19:32:13:115,35.542,-0.486,-0.548,-0.970,21.192,95.490,18.179
19:32:13:137,35.564,-0.467,-0.524,-0.900,22.101,94.910,17.478
19:32:13:163,35.590,-0.566,-0.343,-0.843,22.187,94.548,15.853
19:32:13:189,35.616,-0.588,-0.279,-0.849,21.801,94.893,14.491
19:32:13:217,35.643,-0.627,-0.048,-0.785,20.158,97.020,12.097
19:32:13:242,35.668,-0.561,0.177,-0.557,18.547,99.295,9.982
19:32:13:269,35.695,-0.532,0.357,-0.382,16.044,102.757,5.583
19:32:13:381,35.807,-0.492,0.468,-0.222,13.770,105.440,-0.343
19:32:13:382,35.808,-0.427,0.450,-0.112,12.378,106.850,-4.980
19:32:13:382,35.808,-0.328,0.408,0.065,10.404,108.765,-12.795
19:32:13:404,35.830,-0.242,0.415,0.187,9.052,110.072,-18.399
19:32:13:404,35.830,-0.115,0.390,0.373,7.023,112.203,-27.194
19:32:13:426,35.852,0.053,0.317,0.526,5.095,114.793,-36.101
19:32:13:455,35.881,0.144,0.274,0.648,4.000,116.730,-41.963
19:32:13:48,35.906,0.279,0.169,0.731,2.757,119.650,-50.295
19:32:13:562,35.989,0.377,0.088,0.874,2.414,121.504,-55.440
19:32:13:563,35.990,0.464,-0.039,0.953,2.959,123.917,-62.289
19:32:13:564,35.991,0.500,-0.224,0.985,3.897,125.094,-66.210
19:32:13:584,36.011,0.524,-0.460,0.910,5.773,126.066,-71.097
19:32:13:609,36.036,0.480,-0.740,0.688,6.312,126.136,-74.596
19:32:13:636,36.063,0.463,-0.756,0.557,4.599,125.934,-76.119
19:32:13:662,36.088,0.465,-0.688,0.506,1.836,126.143,-77.250
19:32:13:689,36.115,0.616,-0.715,0.617,1.754,126.456,-77.444
19:32:13:715,36.141,0.647,-0.675,0.696,2.593,126.723,-76.845
19:32:13:882,36.309,0.657,-0.471,0.873,3.223,126.607,-74.357
19:32:13:882,36.309,0.653,-0.382,0.931,2.450,126.146,-71.601
19:32:13:883,36.310,0.582,-0.223,0.909,-0.568,124.329,-66.046
19:32:13:884,36.311,0.499,0.011,0.740,-3.190,122.114,-61.471
19:32:13:987,36.414,0.403,0.149,0.643,-5.522,117.484,-53.602
19:32:13:987,36.414,0.251,0.215,0.526,-5.183,111.834,-44.978
19:32:13:988,36.415,0.147,0.330,0.404,-3.976,107.728,-38.938
19:32:14:066,36.492,-0.142,0.823,-0.035,1.810,98.472,-23.472
19:32:14:066,36.492,-0.284,0.764,-0.288,6.703,94.548,-14.642
19:32:14:067,36.493,-0.376,0.520,-0.668,12.068,92.026,-6.611
19:32:14:068,36.494,-0.463,0.280,-0.859,15.565,91.259,-1.721
19:32:14:086,36.512,-0.417,-0.104,-0.877,20.000,90.930,4.306
19:32:14:087,36.513,-0.201,-0.019,-0.669,22.061,90.663,7.008
19:32:14:162,36.588,-0.260,-0.041,-0.753,24.373,90.255,9.708
19:32:14:194,36.620,-0.498,-0.248,-0.899,26.605,88.572,10.745
19:32:14:194,36.620,-0.566,-0.433,-0.978,28.134,86.577,10.487
19:32:14:195,36.621,-0.453,-0.487,-0.956,29.889,83.209,8.917
19:32:14:214,36.640,-0.443,-0.394,-0.887,30.418,81.861,7.684
19:32:14:241,36.667,-0.556,-0.225,-0.848,29.986,82.180,6.230
19:32:14:325,36.751,-0.675,-0.060,-0.718,28.486,85.317,5.324
19:32:14:326,36.752,-0.709,0.035,-0.613,27.043,88.548,4.748
19:32:14:326,36.752,-0.798,0.400,-0.428,24.288,94.017,3.153
19:32:14:377,36.803,-0.765,0.614,-0.220,22.209,97.453,1.191
19:32:14:378,36.804,-0.579,0.515,0.011,19.280,101.381,-3.708
19:32:14:379,36.805,-0.510,0.532,0.188,16.125,103.715,-10.686
19:32:14:427,36.853,-0.415,0.404,0.239,13.737,105.156,-15.833
19:32:14:427,36.853,-0.241,0.262,0.269,9.980,108.198,-23.568
19:32:14:534,36.961,-0.099,0.162,0.235,7.551,111.053,-28.604
19:32:14:535,36.962,-0.089,-0.015,0.306,4.925,117.265,-35.489
19:32:14:536,36.963,0.062,-0.262,0.492,4.697,122.456,-39.913
19:32:14:616,37.042,0.087,-0.425,0.540,7.345,130.879,-45.927
19:32:14:617,37.043,0.059,-0.440,0.612,13.789,138.980,-50.530
19:32:14:618,37.044,0.190,-0.404,0.698,19.689,144.085,-52.920
19:32:14:618,37.044,0.476,-0.404,0.777,29.769,150.888,-55.493
19:32:14:663,37.089,1.054,-0.111,1.349,36.070,154.367,-56.690
19:32:14:663,37.089,1.166,-0.695,1.330,42.792,156.837,-57.638
19:32:14:686,37.112,0.771,-0.747,1.101,46.642,153.029,-61.048
19:32:14:742,37.168,0.508,-0.725,1.022,45.131,147.582,-63.723
19:32:14:742,37.168,0.196,-0.405,0.672,33.278,137.984,-66.760
19:32:14:823,37.249,0.198,-0.188,0.579,16.768,132.515,-66.967
19:32:14:824,37.250,0.555,0.217,0.223,-6.875,127.384,-64.134
19:32:14:825,37.251,0.778,0.274,-0.138,-13.408,125.883,-60.026
19:32:14:843,37.270,0.724,0.295,-0.025,-10.114,126.939,-57.430
19:32:14:869,37.296,0.461,0.044,0.520,-1.272,131.298,-52.586
19:32:14:955,37.382,0.187,0.097,0.733,3.475,134.928,-48.487
19:32:14:955,37.382,0.296,0.171,0.505,8.309,139.477,-41.491
19:32:14:956,37.383,0.419,0.183,0.402,10.197,141.963,-33.957
19:32:15:004,37.430,0.314,0.239,0.196,10.447,141.369,-29.081
19:32:15:005,37.431,0.030,0.541,-0.048,10.333,137.367,-21.787
19:32:15:027,37.453,-0.168,0.551,-0.201,10.857,133.645,-17.062
19:32:15:054,37.480,-0.459,0.404,-0.435,13.071,127.942,-10.477
19:32:15:081,37.507,-0.597,0.240,-0.630,16.449,124.376,-4.362
19:32:15:106,37.532,-0.704,0.107,-0.645,18.973,124.188,-0.346
19:32:15:162,37.588,-0.884,-0.279,-0.613,22.233,127.060,5.588
19:32:15:162,37.588,-0.716,-0.285,-0.438,23.528,130.042,8.906
19:32:15:215,37.642,-0.618,-0.206,-0.368,24.541,133.492,11.932
19:32:15:215,37.642,-0.602,-0.152,-0.331,25.650,134.297,12.638
19:32:15:324,37.751,-0.794,-0.236,-0.343,26.699,133.394,12.026
19:32:15:325,37.752,-0.948,-0.343,-0.330,28.192,131.338,10.044
19:32:15:326,37.753,-0.972,-0.374,-0.269,28.773,130.644,8.483
19:32:15:327,37.754,-1.037,-0.202,-0.099,28.542,131.977,6.534
19:32:15:371,37.797,-1.116,0.053,0.099,27.879,134.487,5.606
19:32:15:372,37.798,-1.055,0.126,0.226,26.684,140.118,4.397
19:32:15:453,37.879,-0.894,0.242,0.396,25.433,146.903,2.525
19:32:15:454,37.880,-0.715,0.374,0.547,24.548,151.334,0.488
19:32:15:455,37.881,-0.338,0.399,0.674,23.591,156.699,-4.172
19:32:15:503,37.929,-0.199,0.320,0.627,23.132,158.988,-8.361
19:32:15:504,37.930,-0.119,0.287,0.603,22.337,160.955,-15.758
19:32:15:526,37.952,0.060,0.275,0.613,21.355,162.428,-23.784
19:32:15:579,38.006,0.158,0.277,0.628,20.676,163.518,-29.187
19:32:15:607,38.034,0.359,0.269,0.622,20.017,165.791,-36.967
19:32:15:608,38.035,0.543,0.266,0.635,20.181,167.781,-41.812
19:32:15:631,38.058,0.693,0.164,0.600,21.985,171.222,-48.468
19:32:15:686,38.112,0.870,0.001,0.552,25.975,174.557,-54.539
19:32:15:687,38.113,1.040,-0.067,0.516,29.354,176.476,-58.193
19:32:15:71,38.136,1.052,-0.292,0.401,35.100,178.521,-63.271
19:32:15:763,38.189,1.033,-0.448,0.321,38.872,179.355,-66.400
19:32:15:792,38.218,0.964,-0.622,0.249,43.188,179.963,-70.656
19:32:15:792,38.218,0.870,-0.719,0.125,44.428,-179.691,-74.106
19:32:15:815,38.241,0.809,-0.777,0.042,42.492,-179.363,-75.697
19:32:15:841,38.267,0.673,-0.665,-0.050,34.182,-178.529,-76.701
19:32:15:868,38.294,0.518,-0.579,-0.070,27.438,-177.554,-76.307
19:32:15:922,38.349,0.688,-0.542,-0.084,21.102,-175.849,-74.980
19:32:15:923,38.350,0.960,-0.409,-0.043,17.405,-174.294,-72.486
19:32:16:035,38.462,0.959,-0.352,-0.039,14.623,-173.264,-69.434
19:32:16:035,38.462,0.896,-0.127,-0.038,10.721,-172.329,-63.263
19:32:16:036,38.463,0.697,0.015,-0.089,8.495,-172.361,-58.261
19:32:16:037,38.464,0.570,0.129,-0.059,6.484,-173.309,-49.738
19:32:16:109,38.535,0.444,0.304,-0.042,5.839,-174.333,-43.524
19:32:16:11,38.536,0.357,0.514,0.010,5.763,-176.151,-33.531
19:32:16:111,38.537,0.073,0.673,0.073,6.732,-178.063,-23.154
19:32:16:16,38.586,-0.166,0.752,0.117,7.868,-179.102,-16.308
19:32:16:16,38.586,-0.571,0.632,0.144,10.061,-179.984,-6.557
19:32:16:183,38.609,-0.890,0.351,-0.029,12.379,-179.768,2.253
19:32:16:267,38.693,-1.008,0.194,-0.036,13.654,-178.869,7.535
19:32:16:268,38.694,-0.940,0.093,0.075,14.641,-176.827,14.324
19:32:16:269,38.695,-0.952,-0.036,0.162,15.134,-175.731,17.810
19:32:16:288,38.714,-0.938,-0.137,0.180,16.054,-174.948,21.463
19:32:16:313,38.740,-0.944,-0.276,0.166,17.047,-175.189,22.880
19:32:16:339,38.766,-1.000,-0.382,0.181,19.321,-176.800,23.688
19:32:16:366,38.793,-1.114,-0.473,0.288,21.660,-178.859,23.202
19:32:16:448,38.874,-1.120,-0.488,0.318,22.846,-179.759,22.354
19:32:16:449,38.875,-1.179,-0.424,0.416,23.516,-179.530,20.779
19:32:16:499,38.925,-1.133,-0.333,0.527,23.099,-177.911,19.765
19:32:16:535,38.961,-0.987,-0.191,0.632,21.439,-173.310,17.891
19:32:16:535,38.961,-0.659,0.312,0.778,18.910,-167.321,14.925
19:32:16:535,38.961,-0.386,0.515,0.786,17.540,-163.466,12.038
19:32:16:536,38.962,-0.094,0.560,0.705,16.986,-159.816,5.767
19:32:16:577,39.003,-0.027,0.498,0.660,17.190,-159.221,0.393
19:32:16:633,39.059,0.087,0.450,0.556,17.449,-160.072,-8.945
19:32:16:633,39.059,0.226,0.474,0.434,16.845,-161.802,-19.062
19:32:16:656,39.082,0.366,0.522,0.372,15.880,-162.820,-25.866
19:32:16:681,39.108,0.607,0.547,0.238,13.911,-163.410,-35.724
19:32:16:74,39.167,0.909,0.460,0.185,12.610,-162.917,-41.872
19:32:16:74,39.167,0.964,0.280,0.101,11.704,-161.065,-50.474
19:32:16:741,39.168,1.116,0.081,-0.061,13.934,-157.946,-58.233
19:32:16:925,39.351,1.144,-0.098,-0.154,18.250,-155.702,-62.938
19:32:16:925,39.351,1.173,-0.337,-0.248,29.073,-152.895,-69.309
19:32:16:926,39.352,1.165,-0.508,-0.281,38.050,-151.554,-73.007
19:32:16:953,39.380,0.957,-0.758,-0.267,50.660,-150.442,-77.805
19:32:16:953,39.380,0.779,-0.800,-0.250,56.853,-150.062,-80.444
19:32:16:954,39.381,0.660,-0.814,-0.213,61.513,-149.471,-83.223
19:32:16:955,39.382,0.575,-0.809,-0.261,60.761,-148.448,-84.829
19:32:16:973,39.400,0.530,-0.799,-0.348,55.513,-147.478,-85.258
19:32:16:974,39.401,0.559,-0.725,-0.412,37.550,-145.772,-84.730
19:32:17:055,39.482,0.587,-0.635,-0.389,22.362,-143.909,-82.250
19:32:17:055,39.482,0.650,-0.537,-0.373,18.265,-142.698,-79.472
19:32:17:056,39.483,0.646,-0.416,-0.395,13.932,-141.048,-73.697
19:32:17:104,39.530,0.583,-0.344,-0.436,11.188,-140.142,-68.722
19:32:17:104,39.530,0.523,-0.089,-0.495,7.313,-139.464,-59.868
19:32:17:157,39.583,0.388,0.205,-0.445,5.166,-139.664,-53.167
19:32:17:157,39.583,0.282,0.469,-0.354,3.753,-140.424,-42.002
19:32:17:426,39.852,0.036,1.011,-0.088,4.233,-140.641,-29.593
19:32:17:427,39.853,-0.197,1.267,0.191,5.349,-139.850,-21.016
19:32:17:452,39.878,-0.803,0.345,0.662,8.638,-131.492,10.561
19:32:17:453,39.879,-0.757,0.027,0.584,8.816,-128.855,18.244
19:32:17:453,39.879,-0.745,-0.086,0.587,8.773,-127.874,21.733
19:32:17:47,39.896,-0.668,-0.235,0.707,9.072,-127.696,26.327
19:32:17:557,39.984,-0.740,-0.317,0.842,11.270,-129.677,27.049
19:32:17:558,39.985,-0.836,-0.642,1.149,14.744,-132.314,26.893
19:32:17:559,39.986,-0.786,-0.721,1.174,16.559,-132.994,26.580
19:32:17:559,39.986,-0.727,-0.617,1.247,17.145,-131.197,25.937
19:32:17:609,40.036,-0.601,-0.369,1.264,15.967,-127.894,25.260
19:32:17:609,40.036,-0.295,0.066,1.304,12.519,-120.399,23.633
19:32:17:61,40.037,0.082,0.468,0.870,9.159,-111.523,20.636
19:32:17:611,40.038,0.170,0.532,0.680,8.298,-106.285,17.662
19:32:17:655,40.082,0.249,0.414,0.585,9.595,-101.594,11.679
19:32:17:711,40.137,0.334,0.331,0.507,11.307,-100.479,6.874
19:32:17:711,40.137,0.451,0.405,0.440,13.887,-100.706,-1.273
19:32:17:712,40.138,0.591,0.450,0.286,16.052,-101.588,-9.965
19:32:17:76,40.186,0.640,0.458,0.117,17.529,-101.404,-15.729
19:32:17:761,40.187,0.869,0.560,-0.172,20.326,-100.223,-23.954
19:32:17:924,40.351,0.958,0.450,-0.475,22.761,-99.307,-29.183
19:32:17:924,40.351,0.809,0.073,-0.628,27.454,-98.516,-37.019
19:32:17:925,40.352,0.761,-0.021,-0.781,32.381,-98.575,-44.638
19:32:17:926,40.353,0.786,-0.072,-0.898,35.329,-99.015,-49.617
19:32:17:948,40.375,0.653,-0.321,-0.817,39.329,-100.178,-56.971
19:32:17:948,40.375,0.563,-0.511,-0.843,41.621,-100.842,-61.601
19:32:17:948,40.375,0.474,-0.683,-0.801,44.514,-101.391,-67.833
19:32:17:967,40.394,0.358,-0.795,-0.691,45.574,-101.211,-72.485
19:32:18:099,40.526,0.265,-0.785,-0.643,44.865,-100.474,-74.573
19:32:18:134,40.561,0.149,-0.720,-0.603,40.910,-98.350,-75.915
19:32:18:134,40.561,0.144,-0.703,-0.744,37.386,-96.640,-76.025
19:32:18:135,40.562,0.135,-0.682,-0.825,31.727,-94.186,-74.939
19:32:18:136,40.563,0.111,-0.470,-0.832,26.434,-92.675,-73.020
19:32:18:257,40.684,0.016,-0.263,-0.853,16.697,-90.296,-67.585
19:32:18:293,40.720,-0.122,0.052,-0.739,9.154,-88.288,-59.897
19:32:18:293,40.720,-0.196,0.122,-0.616,6.075,-87.416,-53.932
19:32:18:294,40.721,-0.106,0.176,-0.514,3.257,-86.921,-44.314
19:32:18:295,40.722,-0.145,0.423,-0.359,1.728,-86.957,-33.909
19:32:18:447,40.873,-0.172,0.628,-0.206,1.228,-87.042,-26.517
19:32:18:447,40.873,-0.259,0.916,0.148,1.131,-86.808,-15.098
19:32:18:448,40.874,-0.302,0.928,0.435,1.407,-86.655,-7.742
19:32:18:553,40.980,-0.333,0.727,0.900,2.102,-86.700,2.722
19:32:18:554,40.981,-0.415,0.301,1.146,3.098,-86.910,12.070
19:32:18:555,40.982,-0.366,0.097,1.147,3.960,-87.147,17.345
19:32:18:556,40.983,-0.233,-0.100,1.220,5.770,-87.606,23.736
19:32:18:738,41.165,-0.068,-0.226,1.238,7.238,-87.820,27.068
19:32:18:738,41.165,0.087,-0.455,1.229,9.844,-88.183,30.437
19:32:18:739,41.166,0.142,-0.552,1.256,12.514,-88.542,31.911
19:32:18:74,41.167,0.207,-0.543,1.197,13.635,-88.287,32.107
19:32:18:79,41.217,0.271,-0.623,1.304,14.690,-87.214,31.600
19:32:18:791,41.218,0.395,-0.517,1.278,14.739,-85.854,30.861
19:32:18:791,41.218,0.495,-0.367,1.211,13.118,-82.085,28.990
19:32:18:792,41.219,0.588,0.054,1.023,11.360,-78.800,26.966
19:32:18:869,41.295,0.680,0.343,0.794,8.842,-73.726,22.451
19:32:18:869,41.295,0.666,0.574,0.445,7.899,-69.861,16.008
19:32:18:87,41.296,0.535,0.496,0.259,8.164,-68.446,10.638
19:32:18:871,41.297,0.407,0.442,0.172,8.907,-68.137,1.311
19:32:18:948,41.374,0.389,0.531,0.082,9.166,-69.020,-5.519
19:32:18:949,41.375,0.343,0.628,-0.043,8.712,-70.783,-16.163
19:32:18:949,41.375,0.306,0.779,-0.396,7.640,-71.420,-26.876
19:32:18:998,41.424,0.093,0.347,-0.856,8.232,-67.999,-43.230
19:32:18:998,41.424,0.051,0.217,-0.853,10.440,-65.856,-49.189
19:32:18:999,41.425,0.293,0.430,-0.944,16.464,-62.521,-57.362
19:32:19:053,41.479,0.153,0.279,-1.244,30.368,-56.599,-64.619
19:32:19:054,41.480,-0.199,-0.092,-1.012,43.075,-52.542,-69.142
19:32:19:055,41.481,-0.053,0.032,-0.804,61.553,-46.964,-75.613
19:32:19:056,41.482,0.073,0.145,-0.716,71.871,-43.486,-79.647
19:32:19:077,41.503,-0.018,0.240,-0.459,83.182,-38.578,-85.110
19:32:19:077,41.503,-0.100,-0.085,-0.360,91.265,-35.035,-91.190
19:32:19:077,41.503,-0.129,-0.329,-0.302,94.820,-33.602,-95.568
19:32:19:097,41.523,-0.378,-0.387,0.082,98.569,-33.082,-102.651
19:32:19:18,41.607,-0.290,-0.176,-0.036,100.593,-33.770,-107.551
19:32:19:181,41.608,-0.325,-0.273,0.174,102.396,-36.906,-115.909
19:32:19:182,41.609,-0.243,-0.243,0.432,103.757,-42.053,-125.071
19:32:19:201,41.628,-0.152,-0.269,0.282,104.742,-45.191,-130.568
19:32:19:227,41.654,-0.105,-0.384,0.215,105.886,-49.603,-138.405
19:32:19:253,41.679,-0.024,-0.439,0.205,106.273,-52.927,-143.904
19:32:19:359,41.785,-0.009,-0.452,0.310,106.332,-59.089,-153.159
19:32:19:394,41.820,0.014,-0.391,0.293,106.144,-65.181,-162.126
19:32:19:394,41.820,0.006,-0.383,0.262,105.937,-69.172,-167.884
19:32:19:395,41.821,0.006,-0.302,0.310,105.559,-74.674,-175.835
19:32:19:411,41.838,-0.015,-0.128,0.318,105.171,-82.566,172.968
19:32:19:437,41.863,-0.018,-0.065,0.250,105.225,-84.354,170.067
19:32:19:494,41.920,-0.057,0.014,0.252,105.321,-87.355,165.654
19:32:19:494,41.920,-0.060,0.054,0.344,105.614,-90.190,161.620
19:32:19:516,41.942,-0.005,0.107,0.275,105.936,-90.635,160.373
19:32:19:572,41.998,-0.028,0.193,0.171,106.414,-90.289,158.891
19:32:19:572,41.998,-0.029,0.238,0.181,106.661,-91.172,157.239
19:32:19:596,42.022,0.031,0.187,0.105,107.123,-90.885,155.676
19:32:19:679,42.106,0.061,0.145,0.022,107.581,-89.664,155.205
19:32:19:68,42.107,0.071,0.107,0.006,107.791,-89.419,154.832
19:32:19:681,42.108,0.086,0.060,-0.010,108.019,-87.412,155.548
19:32:19:699,42.126,-0.037,0.005,-0.052,108.098,-85.450,157.066
19:32:19:755,42.182,-0.078,-0.030,0.011,108.037,-82.479,159.032
19:32:19:756,42.183,-0.086,-0.133,0.117,107.939,-79.429,161.547
19:32:19:808,42.234,-0.069,-0.197,0.096,107.918,-76.385,163.843
19:32:19:808,42.234,-0.051,-0.245,0.026,107.768,-73.118,166.548
19:32:19:831,42.257,-0.048,-0.239,0.054,107.548,-71.966,166.998
19:32:19:858,42.284,-0.026,-0.249,0.102,107.244,-71.912,166.694
19:32:19:883,42.309,0.026,-0.258,0.029,107.126,-71.013,167.004
19:32:19:91,42.336,0.025,-0.197,0.073,106.968,-71.427,166.500
19:32:19:937,42.363,0.080,-0.076,0.083,106.622,-73.024,164.550
19:32:19:963,42.389,0.129,-0.004,0.017,106.364,-74.135,163.399
19:32:19:989,42.415,0.097,0.063,0.051,105.889,-75.827,161.422
19:32:20:015,42.442,0.027,0.143,0.143,105.523,-78.297,159.241
19:32:20:041,42.467,-0.014,0.134,0.086,105.488,-78.171,159.131
19:32:20:067,42.493,-0.005,0.183,0.085,105.547,-78.151,159.444
19:32:20:094,42.520,0.057,0.190,0.159,105.580,-78.500,159.032
19:32:20:15,42.576,0.073,0.212,0.042,105.471,-79.131,158.536
19:32:20:15,42.576,-0.036,0.224,0.077,105.034,-80.125,157.492
19:32:20:173,42.599,-0.194,0.217,0.066,104.724,-81.314,156.434
19:32:20:201,42.627,-0.198,0.094,0.086,104.707,-80.969,156.820
19:32:20:225,42.651,-0.116,0.046,0.073,104.986,-79.770,158.216
19:32:20:251,42.678,0.011,-0.041,0.038,105.555,-76.862,161.080
19:32:20:306,42.733,0.054,-0.115,0.028,105.860,-75.038,162.807
19:32:20:307,42.734,0.116,-0.198,0.021,106.192,-72.066,165.354
19:32:20:331,42.758,0.116,-0.184,0.040,106.303,-69.846,166.797
19:32:20:356,42.783,0.114,-0.284,0.126,106.397,-69.425,166.827
19:32:20:382,42.809,0.107,-0.304,0.156,106.694,-67.302,167.893
19:32:20:408,42.834,0.097,-0.238,0.164,106.946,-66.057,168.650
19:32:20:467,42.893,0.107,-0.204,0.203,107.303,-65.254,168.648
19:32:20:467,42.893,0.090,-0.134,0.169,107.709,-63.508,169.411
19:32:20:487,42.913,0.056,-0.096,0.130,107.945,-61.821,170.154
19:32:20:514,42.940,0.082,-0.060,0.180,108.168,-61.204,169.723
19:32:20:54,42.966,0.081,0.021,0.185,108.285,-60.686,169.219
19:32:20:566,42.992,0.057,0.097,0.216,108.461,-59.874,168.904
19:32:20:593,43.019,0.038,0.173,0.152,108.859,-57.769,169.812
19:32:20:619,43.045,0.033,0.183,0.170,109.230,-56.220,170.582
19:32:20:644,43.071,0.127,0.190,0.183,109.918,-53.853,171.717
19:32:20:673,43.100,0.233,0.121,0.025,110.458,-51.512,173.222
19:32:20:698,43.125,0.297,0.136,-0.132,111.114,-47.067,176.125
19:32:20:725,43.152,0.310,0.119,-0.197,111.415,-42.530,179.275
19:32:20:75,43.177,0.246,0.054,-0.187,111.521,-38.827,-177.791
19:32:20:776,43.202,0.181,-0.135,-0.088,111.727,-31.755,-171.753
19:32:20:802,43.228,0.182,-0.347,-0.020,111.945,-26.358,-166.785
19:32:20:829,43.255,0.149,-0.474,0.004,112.416,-17.329,-158.040
19:32:20:855,43.281,0.100,-0.690,0.013,112.978,-8.082,-148.668
19:32:20:971,43.397,0.111,-0.727,0.018,113.296,-2.099,-142.370
19:32:20:972,43.398,0.080,-0.716,-0.052,113.542,6.500,-132.820
19:32:20:972,43.398,-0.016,-0.738,-0.082,113.294,11.544,-126.732
19:32:20:972,43.398,-0.174,-0.766,-0.042,111.848,17.748,-118.187
19:32:20:987,43.413,-0.277,-0.644,0.006,108.481,22.957,-109.326
19:32:21:042,43.469,-0.418,-0.458,0.074,104.974,25.866,-103.532
19:32:21:042,43.469,-0.525,-0.495,0.278,96.559,29.267,-94.871
19:32:21:092,43.519,-0.760,-0.245,0.167,88.184,30.798,-88.797
19:32:21:152,43.578,-0.993,-0.417,0.476,71.980,32.213,-79.534
19:32:21:153,43.579,-1.483,-0.011,0.359,50.474,32.395,-68.430
19:32:21:154,43.580,-1.552,0.330,0.280,36.529,30.425,-61.151
19:32:21:154,43.580,-1.308,1.161,0.072,19.471,24.879,-50.198
19:32:21:17,43.596,-0.817,1.325,0.058,12.030,20.118,-42.739
19:32:21:252,43.678,-0.337,1.409,0.067,5.752,12.791,-31.897
19:32:21:252,43.678,-0.055,1.136,0.025,3.745,8.507,-25.182
19:32:21:278,43.704,-0.009,0.908,-0.003,2.235,3.796,-16.613
19:32:21:279,43.705,0.007,0.910,0.014,0.990,0.681,-9.657
19:32:21:331,43.757,0.266,0.765,-0.040,0.375,-1.072,-5.854
19:32:21:331,43.757,0.386,0.548,-0.114,0.288,-3.995,-1.198
19:32:21:467,43.894,0.795,0.184,-0.043,3.619,-12.219,5.432
19:32:21:467,43.894,0.962,-0.078,0.119,8.293,-17.938,9.260
19:32:21:468,43.895,1.015,-0.252,0.086,11.950,-20.723,11.748
19:32:21:469,43.896,1.037,-0.461,0.038,17.906,-23.432,15.483
19:32:21:485,43.912,1.128,-0.665,0.072,22.058,-24.634,17.923
19:32:21:512,43.939,1.161,-0.892,0.178,27.870,-25.485,21.305
19:32:21:538,43.964,1.115,-1.049,0.175,31.765,-24.334,24.348
19:32:21:652,44.079,0.989,-0.901,0.121,32.527,-22.616,25.735
19:32:21:652,44.079,0.904,-0.649,-0.051,30.930,-19.215,26.574
19:32:21:652,44.079,0.859,-0.597,-0.147,28.725,-17.101,26.360
19:32:21:653,44.080,0.931,-0.407,-0.178,25.232,-15.482,24.450
19:32:21:697,44.124,1.086,-0.176,-0.228,21.862,-15.495,21.123
19:32:21:698,44.125,1.206,-0.022,-0.219,19.486,-15.519,18.493
19:32:21:748,44.175,1.259,0.372,-0.309,15.523,-14.050,14.496
19:32:21:776,44.203,1.196,0.662,-0.464,12.940,-11.685,11.727
19:32:21:777,44.204,0.896,1.025,-0.655,9.165,-5.837,7.270
19:32:21:858,44.284,0.279,1.102,-0.605,6.333,2.400,1.412
19:32:21:859,44.285,-0.049,1.143,-0.652,5.415,7.797,-3.591
19:32:21:86,44.286,-0.418,0.822,-0.441,5.206,13.768,-12.271
19:32:21:938,44.364,-0.483,0.599,-0.177,5.405,16.373,-18.972
19:32:21:938,44.364,-0.565,0.401,-0.002,4.995,19.342,-29.376
19:32:21:958,44.384,-0.847,0.387,-0.059,2.661,22.900,-46.121
19:32:22:014,44.440,-0.829,0.118,0.168,2.361,26.185,-55.540
19:32:22:014,44.440,-0.890,-0.154,0.275,4.271,28.873,-61.407
19:32:22:036,44.463,-0.910,-0.319,0.325,11.490,32.537,-69.454
19:32:22:121,44.548,-0.957,-0.455,0.372,20.021,34.421,-74.196
19:32:22:121,44.548,-0.925,-0.616,0.401,38.864,36.303,-80.210
19:32:22:122,44.549,-0.848,-0.731,0.432,60.548,37.093,-84.963
19:32:22:283,44.709,-0.756,-0.809,0.425,73.890,37.232,-87.494
19:32:22:283,44.709,-0.631,-0.950,0.427,93.398,37.252,-90.430
19:32:22:284,44.710,-0.465,-0.916,0.411,105.615,37.202,-91.592
19:32:22:284,44.710,-0.408,-0.814,0.407,124.856,37.342,-91.876
19:32:22:304,44.730,-0.445,-0.681,0.432,113.909,37.792,-90.214
19:32:22:305,44.731,-0.475,-0.614,0.554,-8.363,38.095,-88.178
19:32:22:306,44.732,-0.590,-0.565,0.568,-6.649,38.575,-83.564
19:32:22:325,44.752,-0.634,-0.442,0.643,-5.788,38.628,-79.335
19:32:22:38,44.806,-0.792,-0.243,0.719,-6.213,38.128,-71.173
19:32:22:381,44.807,-0.762,0.086,0.704,-7.449,36.068,-60.775
19:32:22:46,44.886,-0.744,0.485,0.639,-7.993,33.657,-52.669
19:32:22:461,44.887,-0.449,1.005,0.482,-7.090,29.003,-39.306
19:32:22:595,45.021,0.002,1.154,0.328,-5.320,26.008,-30.093
19:32:22:596,45.022,0.358,1.153,0.104,-1.832,22.877,-16.685
19:32:22:597,45.023,0.606,0.928,-0.189,1.611,21.935,-4.388
19:32:22:625,45.051,0.826,0.622,-0.456,3.668,21.826,2.759
19:32:22:625,45.051,1.049,-0.086,-0.535,6.848,21.147,10.921
19:32:22:625,45.051,0.838,0.101,-0.213,8.854,20.259,14.416
19:32:22:625,45.051,0.961,-0.063,-0.419,11.076,18.455,17.953
19:32:22:64,45.066,1.053,-0.424,-0.619,15.349,14.204,19.263
19:32:22:667,45.093,1.251,-0.752,-0.700,18.829,10.517,19.198
19:32:22:747,45.173,1.258,-0.687,-0.619,22.162,7.608,18.678
19:32:22:777,45.203,0.991,-0.465,-0.585,22.201,9.378,18.969
19:32:22:778,45.204,0.692,-0.275,-0.662,19.821,15.605,19.781
19:32:22:779,45.205,0.573,-0.092,-0.691,17.290,21.539,19.505
19:32:22:8,45.226,0.683,0.012,-0.890,16.108,24.179,18.472
19:32:22:824,45.251,0.613,0.167,-1.002,14.437,27.349,15.802
19:32:22:91,45.337,0.268,0.626,-1.036,11.751,31.821,11.780
19:32:22:91,45.337,-0.052,0.859,-0.914,9.649,35.712,8.193
19:32:22:911,45.338,-0.273,0.648,-0.449,7.355,41.340,0.497
19:32:22:957,45.383,-0.260,0.477,-0.212,6.250,44.400,-5.669
19:32:22:958,45.384,-0.318,0.320,0.002,4.115,47.193,-15.751
19:32:23:096,45.522,-0.236,0.250,0.106,1.264,48.188,-25.694
19:32:23:096,45.522,-0.205,0.254,0.053,-1.032,49.103,-31.928
19:32:23:097,45.523,-0.282,0.188,0.140,-3.458,52.241,-40.562
19:32:23:098,45.524,-0.546,0.239,0.347,-3.330,55.254,-45.891
19:32:23:116,45.542,-0.679,-0.008,0.579,1.272,60.384,-52.839
19:32:23:116,45.542,-0.717,-0.228,0.702,10.220,64.546,-58.310
19:32:23:14,45.566,-0.696,-0.228,0.774,16.531,66.221,-60.993
19:32:23:166,45.592,-0.811,-0.247,0.960,24.417,67.094,-63.815
19:32:23:191,45.618,-0.707,-0.401,0.803,27.726,66.537,-65.229
19:32:23:217,45.644,-0.677,-0.495,0.701,29.229,64.861,-67.168
19:32:23:244,45.671,-0.545,-0.585,0.578,26.074,62.795,-68.811
19:32:23:269,45.696,-0.482,-0.621,0.521,21.293,61.635,-69.675
19:32:23:298,45.725,-0.433,-0.555,0.565,10.850,60.794,-70.079
19:32:23:351,45.777,-0.339,-0.388,0.677,4.407,61.034,-69.622
19:32:23:352,45.778,-0.314,-0.297,0.791,-0.718,62.431,-67.724
19:32:23:375,45.801,-0.317,-0.315,0.857,-2.657,64.341,-64.166
19:32:23:401,45.827,-0.229,-0.224,0.778,-3.005,65.474,-60.800
19:32:23:43,45.856,-0.145,-0.013,0.685,-3.370,66.888,-54.687
19:32:23:485,45.911,-0.141,0.004,0.645,-3.272,67.634,-49.974
19:32:23:485,45.911,-0.016,0.139,0.517,-2.775,68.188,-42.202
19:32:23:506,45.932,0.091,0.313,0.386,-2.434,68.382,-36.746
19:32:23:536,45.962,0.223,0.386,0.263,-2.081,68.067,-28.169
19:32:23:537,45.963,0.314,0.529,-0.014,-1.726,66.957,-19.073
19:32:23:587,46.014,0.390,0.615,-0.136,-1.225,66.352,-12.819
19:32:23:588,46.015,0.580,0.418,-0.466,-0.030,65.987,-3.742
19:32:23:611,46.038,0.587,0.386,-0.577,0.734,66.402,1.894
19:32:23:752,46.178,0.545,0.223,-0.799,2.048,67.062,9.550
19:32:23:753,46.179,0.555,-0.191,-1.069,3.678,67.723,15.398
19:32:23:753,46.179,0.570,-0.414,-1.053,4.563,68.637,17.794
19:32:23:754,46.180,0.416,-0.263,-0.936,4.063,71.539,19.216
19:32:23:801,46.227,0.310,-0.128,-1.050,3.141,73.813,19.428
19:32:23:801,46.227,0.247,-0.230,-1.117,2.523,76.858,19.215
19:32:23:802,46.228,0.090,-0.307,-1.158,1.817,81.185,18.425
19:32:23:935,46.362,-0.076,-0.047,-0.950,0.760,85.219,17.698
19:32:23:936,46.363,-0.132,0.133,-0.907,-0.384,91.325,16.208
19:32:23:937,46.364,-0.197,0.160,-1.020,-0.327,94.458,14.849
19:32:23:938,46.365,-0.453,0.372,-0.831,0.264,98.711,11.674
19:32:23:955,46.382,-0.536,0.516,-0.570,1.418,102.917,6.783
19:32:23:956,46.383,-0.568,0.552,-0.419,2.680,105.336,2.673
19:32:24:009,46.436,-0.571,0.445,-0.147,4.943,108.424,-4.569
19:32:24:009,46.436,-0.526,0.405,0.138,6.478,110.414,-10.001
19:32:24:031,46.458,-0.424,0.348,0.262,9.226,113.188,-18.713
19:32:24:057,46.483,-0.359,0.331,0.484,12.895,116.259,-27.492
19:32:24:084,46.510,-0.326,0.289,0.706,16.153,118.423,-33.041
19:32:24:112,46.538,-0.175,0.169,0.850,22.547,121.422,-40.773
19:32:24:224,46.650,-0.151,0.118,1.107,27.788,123.140,-45.449
19:32:24:228,46.654,0.005,-0.139,1.120,36.536,124.929,-51.806
19:32:24:228,46.654,1.828,-0.208,-1.780,-175.328,134.237,175.835
19:32:24:243,46.669,0.149,-0.555,1.011,55.425,121.962,-67.103
19:32:24:268,46.694,0.150,-0.774,1.026,58.089,120.006,-70.497
19:32:24:294,46.721,0.183,-0.835,0.825,58.884,116.948,-74.274
19:32:24:319,46.746,0.128,-0.566,0.608,56.778,115.515,-75.565
19:32:24:347,46.774,0.146,-0.643,0.701,52.928,114.934,-76.376
19:32:24:373,46.800,0.271,-0.709,0.750,48.255,115.924,-75.306
19:32:24:399,46.826,0.371,-0.514,0.870,44.377,117.061,-73.562
19:32:24:425,46.851,0.428,-0.393,0.956,37.567,119.180,-69.452
19:32:24:452,46.878,0.399,-0.255,0.849,31.999,120.599,-65.621
19:32:24:535,46.962,0.393,-0.129,0.756,23.794,122.319,-58.793
19:32:24:536,46.963,0.348,0.020,0.595,16.930,123.251,-51.045
19:32:24:537,46.964,0.323,0.120,0.506,13.097,123.252,-45.533
19:32:24:556,46.983,0.287,0.238,0.295,8.467,122.209,-36.853
19:32:24:582,47.009,0.253,0.500,0.123,6.173,121.008,-30.757
19:32:24:608,47.035,0.159,0.668,-0.033,4.141,118.713,-21.221
19:32:24:664,47.090,0.062,0.642,-0.377,3.670,116.011,-11.830
19:32:24:69,47.116,0.009,0.565,-0.575,3.960,114.336,-5.896
19:32:24:691,47.117,-0.098,0.509,-0.736,4.864,112.119,2.424
19:32:24:714,47.140,-0.169,0.261,-0.972,5.760,110.795,7.235
19:32:24:741,47.167,-0.241,-0.070,-1.074,7.282,109.373,12.883
19:32:24:766,47.192,-0.277,-0.079,-0.855,7.982,108.613,16.403
19:32:24:906,47.333,-0.250,-0.092,-0.816,8.346,107.672,17.690
19:32:24:907,47.334,-0.287,-0.190,-0.860,9.627,105.292,18.303
19:32:24:908,47.335,-0.370,-0.408,-0.905,10.716,103.520,18.085
19:32:24:909,47.336,-0.375,-0.466,-0.887,12.089,101.726,17.020
19:32:24:954,47.381,-0.520,-0.258,-0.810,12.217,101.888,15.392
19:32:24:954,47.381,-0.615,-0.020,-0.802,11.635,103.219,14.108
19:32:24:977,47.404,-0.672,0.192,-0.751,10.255,107.073,11.747
19:32:25:035,47.461,-0.640,0.388,-0.558,9.227,110.541,9.498
19:32:25:035,47.461,-0.490,0.501,-0.150,8.015,115.755,4.655
19:32:25:036,47.462,-0.293,0.421,-0.015,7.600,118.417,0.491
19:32:25:084,47.510,-0.201,0.348,0.076,7.294,120.614,-7.005
19:32:25:085,47.511,-0.141,0.274,0.182,6.518,120.964,-15.474
19:32:25:135,47.561,-0.077,0.359,0.270,5.485,120.572,-21.423
19:32:25:163,47.589,0.024,0.352,0.372,3.168,120.198,-30.393
19:32:25:164,47.590,0.145,0.295,0.476,0.772,120.911,-39.260
19:32:25:186,47.612,0.237,0.215,0.598,-0.526,122.044,-44.976
19:32:25:213,47.639,0.354,0.044,0.710,-1.597,124.225,-53.147
19:32:25:239,47.666,0.468,-0.037,0.804,-1.579,125.756,-58.205
19:32:25:264,47.691,0.548,-0.206,0.884,-0.405,127.746,-65.004
19:32:25:322,47.749,0.584,-0.350,0.925,0.984,128.674,-68.973
19:32:25:322,47.749,0.587,-0.589,0.944,2.350,129.411,-73.957
19:32:25:343,47.770,0.555,-0.980,0.691,-1.249,129.058,-77.334
19:32:25:37,47.796,0.472,-0.836,0.521,-9.832,128.371,-78.553
19:32:25:483,47.910,0.466,-0.705,0.507,-27.442,127.582,-78.807
19:32:25:484,47.911,0.699,-0.570,0.585,-33.940,127.138,-78.009
19:32:25:484,47.911,0.760,-0.519,0.674,-35.523,126.495,-75.685
19:32:25:485,47.912,0.808,-0.360,0.898,-30.412,125.661,-71.710
19:32:25:501,47.928,0.783,-0.203,1.008,-25.902,124.908,-68.059
19:32:25:528,47.955,0.647,-0.013,0.781,-19.936,122.915,-61.328
19:32:25:554,47.981,0.551,0.063,0.567,-16.605,121.123,-56.139
19:32:25:58,48.007,0.435,0.111,0.515,-12.094,118.085,-47.690
19:32:25:668,48.094,0.301,0.261,0.421,-8.423,114.303,-38.573
19:32:25:669,48.095,0.201,0.437,0.304,-6.314,111.265,-32.114
19:32:25:67,48.096,0.018,0.690,0.040,-2.818,106.266,-22.201
19:32:25:67,48.096,-0.091,0.739,-0.159,-0.048,102.984,-15.718
19:32:25:741,48.167,-0.284,0.635,-0.505,4.762,98.623,-6.703
19:32:25:742,48.168,-0.352,0.298,-0.858,10.097,95.869,1.133
19:32:25:791,48.217,-0.459,0.037,-0.938,13.381,95.294,5.667
19:32:25:822,48.248,-0.379,-0.074,-0.873,16.977,95.742,11.040
19:32:25:823,48.249,-0.437,0.083,-0.818,18.327,96.422,13.725
19:32:25:823,48.249,-0.547,-0.133,-0.951,19.985,96.396,16.429
19:32:25:843,48.269,-0.581,-0.461,-1.017,22.222,94.715,17.574
19:32:25:898,48.324,-0.558,-0.518,-1.005,23.373,93.595,17.734
19:32:25:899,48.325,-0.391,-0.592,-0.853,23.938,93.358,17.625
19:32:25:98,48.406,-0.368,-0.583,-0.812,23.431,94.240,17.325
19:32:25:98,48.407,-0.549,-0.344,-0.834,21.306,96.454,16.109
19:32:25:98,48.407,-0.728,0.049,-0.787,18.095,99.608,13.883
19:32:26:028,48.455,-0.756,0.306,-0.654,15.606,102.425,11.713
19:32:26:029,48.456,-0.659,0.663,-0.277,11.960,107.251,6.976
19:32:26:052,48.479,-0.444,0.696,-0.103,9.988,110.054,2.600
19:32:26:137,48.563,-0.306,0.680,-0.032,7.606,112.779,-5.501
19:32:26:138,48.564,-0.174,0.667,0.102,6.016,113.780,-11.585
19:32:26:138,48.564,-0.026,0.617,0.271,3.119,114.792,-21.274
19:32:26:158,48.584,0.141,0.504,0.458,-0.712,115.827,-31.145
19:32:26:185,48.611,0.255,0.371,0.560,-3.872,116.888,-37.580
19:32:26:21,48.636,0.384,0.256,0.627,-9.334,119.337,-46.885
19:32:26:265,48.691,0.470,0.129,0.719,-13.204,121.463,-52.823
19:32:26:321,48.747,0.528,-0.059,0.751,-18.847,125.002,-61.261
19:32:26:322,48.748,0.592,-0.289,0.793,-23.680,128.481,-68.955
19:32:26:322,48.748,0.596,-0.440,0.785,-26.337,130.451,-73.465
19:32:26:341,48.767,0.572,-0.594,0.767,-29.687,132.522,-79.140
19:32:26:367,48.794,0.526,-0.702,0.736,-32.080,133.295,-82.134
19:32:26:393,48.820,0.450,-0.814,0.689,-40.050,133.575,-85.424
19:32:26:449,48.876,0.430,-0.836,0.661,-57.437,133.130,-87.252
19:32:26:449,48.876,0.416,-0.801,0.652,-66.751,132.644,-87.630
19:32:26:474,48.901,0.390,-0.714,0.556,-68.453,131.745,-86.782
19:32:26:499,48.925,0.464,-0.593,0.518,-64.599,131.083,-85.254
19:32:26:526,48.952,0.567,-0.486,0.579,-55.647,130.021,-81.613
19:32:26:552,48.978,0.678,-0.331,0.660,-44.439,128.757,-76.276
19:32:26:578,49.004,0.735,-0.193,0.628,-36.831,127.712,-71.794
19:32:26:604,49.030,0.716,-0.009,0.545,-26.878,125.953,-64.009
19:32:26:659,49.086,0.649,0.039,0.550,-21.224,124.652,-58.250
19:32:26:66,49.087,0.499,0.223,0.454,-14.221,122.698,-48.991
19:32:26:682,49.108,0.367,0.453,0.294,-8.446,120.923,-39.185
19:32:26:709,49.135,0.303,0.666,0.171,-4.991,120.062,-32.443
19:32:26:735,49.161,0.102,0.844,-0.106,-0.305,119.402,-22.262
19:32:26:761,49.187,-0.108,0.776,-0.301,2.500,119.355,-15.606
19:32:26:787,49.213,-0.324,0.560,-0.642,6.429,119.896,-6.228
19:32:26:814,49.240,-0.558,0.130,-0.710,9.808,121.402,2.191
19:32:26:841,49.267,-0.627,-0.004,-0.730,11.407,122.567,6.433
19:32:26:867,49.293,-0.409,-0.048,-0.758,13.052,123.606,10.229
19:32:26:922,49.349,-0.520,-0.099,-0.548,13.992,123.735,11.722
19:32:26:924,49.350,-0.634,-0.227,-0.566,16.255,121.574,12.125
19:32:27:003,49.430,-0.786,-0.330,-0.611,18.105,118.967,11.322
19:32:27:004,49.431,-0.829,-0.293,-0.730,20.267,115.753,9.435
19:32:27:004,49.431,-0.845,-0.178,-0.527,21.197,115.499,7.640
19:32:27:023,49.450,-0.849,-0.031,-0.378,21.236,117.343,6.640
19:32:27:109,49.535,-0.845,0.100,-0.186,21.214,121.316,5.152
19:32:27:109,49.535,-0.863,0.110,-0.144,21.203,124.024,3.808
19:32:27:11,49.536,-0.841,0.196,-0.014,20.883,127.769,0.954
19:32:27:129,49.555,-0.749,0.424,0.284,19.997,131.194,-2.971
19:32:27:155,49.581,-0.662,0.477,0.414,19.289,133.033,-6.312
19:32:27:181,49.607,-0.492,0.463,0.518,18.247,135.008,-12.394
19:32:27:295,49.722,-0.332,0.380,0.587,17.578,136.013,-17.024
19:32:27:295,49.722,-0.241,0.352,0.642,16.619,137.754,-24.402
19:32:27:296,49.723,-0.071,0.449,0.723,16.059,140.544,-32.003
19:32:27:297,49.724,0.028,0.532,0.873,16.027,142.955,-37.242
19:32:27:312,49.739,0.357,0.524,1.165,17.088,147.441,-45.272
19:32:27:338,49.765,0.582,0.409,1.217,18.988,150.792,-50.791
19:32:27:365,49.792,0.825,0.368,1.266,24.252,155.922,-59.302
19:32:27:445,49.871,1.067,0.146,1.232,34.456,161.012,-68.002
19:32:27:475,49.901,1.135,0.067,1.145,45.653,164.380,-73.810
19:32:27:475,49.901,1.229,-0.098,1.034,68.949,169.302,-82.331
19:32:27:499,49.925,1.179,-0.178,0.965,84.755,172.549,-87.861
19:32:27:5,49.926,1.105,-0.555,0.586,100.880,177.193,-95.896
19:32:27:582,50.008,0.862,-0.469,0.339,106.754,179.832,-101.070
19:32:27:582,50.008,0.694,-0.350,0.203,110.937,-176.624,-108.282
19:32:27:583,50.009,0.766,-0.285,0.024,110.697,-173.506,-114.548
19:32:27:601,50.027,0.754,-0.474,0.148,110.445,-173.940,-120.637
19:32:27:628,50.054,0.663,-0.746,-0.112,109.827,-179.066,-133.780
19:32:27:654,50.080,-0.033,-0.637,-0.355,109.701,171.541,-150.305
19:32:27:738,50.165,-0.031,-0.310,-0.201,109.711,167.602,-158.467
19:32:27:738,50.165,0.001,-0.262,-0.267,109.250,162.510,-169.636
19:32:27:739,50.166,-0.087,-0.226,-0.160,108.862,159.221,-176.562
19:32:27:758,50.185,-0.081,-0.220,-0.110,108.037,154.640,173.713
19:32:27:814,50.240,-0.166,-0.261,-0.141,107.365,151.160,167.196
19:32:27:815,50.241,-0.086,-0.252,-0.065,106.493,149.405,161.208
19:32:27:837,50.263,-0.042,-0.179,-0.128,105.515,147.705,155.739
19:32:27:864,50.290,-0.125,-0.173,-0.091,104.877,145.720,151.515
19:32:27:891,50.317,-0.103,-0.147,-0.056,104.142,144.798,147.430
19:32:27:947,50.373,-0.039,-0.117,-0.038,103.744,145.216,145.979
19:32:27:948,50.374,-0.007,-0.080,-0.006,103.251,145.795,144.089
19:32:27:974,50.400,0.076,-0.036,0.030,102.842,146.166,142.247
19:32:27:974,50.400,0.086,0.021,0.023,102.615,145.863,140.682
19:32:27:995,50.421,0.033,0.116,0.049,102.282,144.534,137.649
19:32:28:022,50.448,-0.053,0.213,0.126,102.167,144.089,136.159
19:32:28:136,50.562,0.010,0.170,0.110,102.271,145.730,136.380
19:32:28:137,50.563,0.218,0.184,0.186,102.370,147.936,137.090
19:32:28:138,50.564,0.172,0.170,0.287,102.294,147.975,136.080
19:32:28:139,50.565,0.207,0.109,0.355,102.105,148.784,135.419
19:32:28:153,50.579,0.238,0.068,0.332,101.853,149.684,135.295
19:32:28:206,50.632,0.254,0.015,0.334,101.484,151.884,135.985
19:32:28:265,50.692,0.363,-0.050,0.208,101.251,156.742,139.361
19:32:28:265,50.692,0.333,-0.087,0.123,101.108,159.830,141.553
19:32:28:265,50.692,0.185,-0.145,0.082,100.932,163.636,144.143
19:32:28:283,50.710,0.147,-0.224,0.105,100.879,167.048,146.700
19:32:28:31,50.737,0.238,-0.255,0.085,100.792,173.374,151.599
19:32:28:336,50.763,0.231,-0.279,0.081,100.470,176.800,153.454
19:32:28:421,50.847,0.172,-0.236,0.108,100.162,177.275,152.927
19:32:28:422,50.848,0.107,-0.218,0.128,99.802,177.352,151.693
19:32:28:422,50.848,0.150,-0.179,0.177,99.571,177.755,151.282
19:32:28:441,50.867,0.176,-0.024,0.170,99.095,177.127,149.435
19:32:28:468,50.894,0.245,-0.013,0.132,98.725,175.296,146.573
19:32:28:495,50.921,0.289,0.026,0.118,98.536,173.676,144.419
19:32:28:55,50.977,0.212,0.127,0.102,98.282,169.408,139.633
19:32:28:55,50.977,0.130,0.181,0.147,98.234,167.319,137.288
19:32:28:63,51.057,0.183,0.169,0.083,98.392,167.252,136.856
19:32:28:631,51.058,0.211,0.155,0.084,98.536,167.859,137.241
19:32:28:632,51.059,0.294,0.142,0.077,98.561,167.140,136.001
19:32:28:74,51.166,0.178,0.114,0.048,98.304,163.980,132.251
19:32:28:74,51.166,0.193,0.049,0.039,98.144,162.325,130.217
19:32:28:741,51.167,0.230,0.002,-0.067,98.118,162.509,129.999
19:32:28:741,51.167,0.238,0.021,0.040,98.152,162.822,130.167
19:32:28:785,51.211,0.212,0.001,0.061,98.294,164.332,131.475
19:32:28:786,51.212,0.162,-0.055,0.056,98.380,167.256,133.985
19:32:28:81,51.236,0.151,-0.136,0.094,98.374,169.130,135.474
19:32:28:976,51.403,0.117,-0.242,0.115,98.359,171.626,137.195
19:32:28:976,51.403,0.080,-0.253,0.121,98.344,172.875,137.846
19:32:28:977,51.404,0.049,-0.269,0.157,98.403,174.007,138.098
19:32:28:977,51.404,0.095,-0.224,0.166,98.654,176.507,139.690
19:32:29:028,51.455,0.081,-0.177,0.154,98.831,178.030,140.584
19:32:29:029,51.456,0.045,-0.145,0.174,99.053,179.226,140.764
19:32:29:029,51.456,0.104,-0.093,0.172,99.234,-179.208,141.583
19:32:29:03,51.457,0.095,-0.010,0.145,99.401,-177.579,142.006
19:32:29:074,51.500,0.063,0.028,0.113,99.521,-177.295,141.042
19:32:29:075,51.501,0.105,0.065,0.151,99.694,-176.121,141.290
19:32:29:098,51.524,0.147,0.127,0.144,100.028,-173.488,142.515
19:32:29:316,51.743,0.127,0.202,0.176,100.211,-172.400,142.648
19:32:29:317,51.744,0.122,0.214,0.224,100.579,-170.231,143.239
19:32:29:318,51.745,0.256,0.231,0.224,101.038,-166.541,145.182
19:32:29:475,51.901,0.381,0.067,0.287,101.751,-160.115,148.335
19:32:29:475,51.901,0.463,0.038,0.245,101.880,-157.636,149.374
