Time,Second,AccelerationX,AccelerationY,AccelerationZ,EulerAnglesX,EulerAnglesY,EulerAnglesZ
19:31:37:612,0.000,-0.046,-0.003,-0.032,4.776,-52.512,8.955
19:31:37:613,0.001,-0.035,-0.010,-0.030,4.781,-52.454,8.934
19:31:37:664,0.053,-0.017,0.009,-0.025,4.807,-52.449,9.035
19:31:37:664,0.053,-0.012,0.014,-0.001,4.834,-52.583,9.057
19:31:37:714,0.103,0.009,-0.003,0.013,4.862,-52.706,9.032
19:31:37:743,0.132,0.015,-0.012,0.016,4.899,-52.784,9.004
19:31:37:743,0.132,0.019,-0.019,0.019,4.921,-52.808,8.995
19:31:37:768,0.157,0.013,-0.031,0.030,4.967,-52.895,8.942
19:31:37:792,0.181,0.005,-0.006,0.023,5.007,-52.926,8.871
19:31:37:849,0.237,0.008,0.005,0.020,5.060,-52.859,8.774
19:31:37:85,0.238,0.002,0.003,-0.005,5.094,-52.731,8.664
19:31:37:871,0.260,-0.005,0.006,-0.008,5.096,-52.678,8.579
19:31:37:897,0.286,-0.027,0.020,0.006,5.091,-52.655,8.473
19:31:37:953,0.341,-0.030,0.001,0.012,5.083,-52.676,8.410
19:31:37:954,0.342,-0.025,-0.015,0.013,5.115,-52.750,8.354
19:31:37:978,0.366,-0.005,-0.009,0.008,5.152,-52.895,8.289
19:31:38:003,0.391,0.000,-0.002,0.004,5.157,-52.985,8.231
19:31:38:03,0.418,0.006,-0.010,-0.026,5.160,-53.045,8.133
19:31:38:057,0.445,-0.003,0.005,-0.026,5.157,-53.076,8.072
19:31:38:082,0.471,0.002,-0.010,-0.006,5.161,-53.184,7.975
19:31:38:11,0.499,0.001,-0.008,0.001,5.165,-53.248,7.872
19:31:38:133,0.522,0.005,-0.013,0.003,5.168,-53.264,7.809
19:31:38:16,0.549,-0.002,-0.006,0.015,5.166,-53.334,7.708
19:31:38:186,0.575,0.005,0.000,0.022,5.158,-53.441,7.629
19:31:38:212,0.601,0.000,-0.004,0.009,5.181,-53.529,7.489
19:31:38:239,0.627,-0.012,-0.003,-0.031,5.167,-53.562,7.402
19:31:38:265,0.653,-0.032,0.001,-0.030,5.138,-53.678,7.278
19:31:38:291,0.679,-0.035,0.000,-0.032,5.108,-53.866,7.180
19:31:38:347,0.735,-0.032,-0.009,-0.029,5.130,-54.013,7.210
19:31:38:348,0.736,-0.005,0.002,-0.015,5.175,-54.283,7.209
19:31:38:37,0.758,-0.005,0.013,-0.013,5.195,-54.457,7.178
19:31:38:396,0.784,0.018,0.020,0.004,5.235,-54.740,7.115
19:31:38:423,0.811,0.020,0.007,0.024,5.292,-54.981,7.046
19:31:38:448,0.837,0.031,0.010,0.030,5.337,-55.115,6.996
19:31:38:474,0.863,0.029,0.003,0.037,5.408,-55.290,6.878
19:31:38:501,0.890,0.029,-0.013,0.038,5.436,-55.369,6.699
19:31:38:527,0.916,0.021,-0.006,0.038,5.482,-55.388,6.436
19:31:38:554,0.943,0.009,-0.008,0.018,5.510,-55.339,6.287
19:31:38:58,0.969,0.001,-0.020,0.003,5.556,-55.203,6.129
19:31:38:606,0.995,-0.011,-0.017,0.005,5.584,-55.130,6.013
19:31:38:632,1.021,-0.016,-0.019,0.008,5.607,-55.112,5.959
19:31:38:659,1.048,0.000,-0.015,0.002,5.640,-55.065,5.906
19:31:38:686,1.075,0.013,-0.014,-0.001,5.666,-55.012,5.888
19:31:38:767,1.155,0.001,-0.004,0.009,5.735,-54.766,5.866
19:31:38:767,1.155,-0.013,-0.005,0.008,5.750,-54.627,5.871
19:31:38:79,1.178,-0.011,-0.008,-0.001,5.779,-54.428,5.890
19:31:38:816,1.204,-0.024,-0.007,0.007,5.802,-54.342,5.905
19:31:38:843,1.231,-0.020,0.000,0.004,5.853,-54.267,5.934
19:31:38:871,1.259,-0.010,0.009,0.008,5.899,-54.247,5.968
19:31:38:924,1.312,0.007,0.003,0.006,5.929,-54.259,5.973
19:31:38:925,1.313,0.005,-0.012,0.018,5.965,-54.301,5.952
19:31:38:948,1.336,0.005,-0.016,0.022,5.987,-54.321,5.938
19:31:38:973,1.362,0.001,-0.020,0.021,6.027,-54.330,5.931
19:31:38:999,1.388,0.010,-0.019,0.010,6.050,-54.327,5.940
19:31:39:026,1.415,0.007,-0.017,0.013,6.081,-54.359,5.975
19:31:39:052,1.441,0.009,-0.009,0.002,6.104,-54.360,6.031
19:31:39:078,1.467,0.004,-0.001,0.007,6.112,-54.345,6.066
19:31:39:105,1.494,-0.003,-0.003,0.007,6.108,-54.343,6.107
19:31:39:132,1.520,-0.010,-0.005,0.011,6.114,-54.344,6.136
19:31:39:157,1.546,-0.004,-0.011,0.010,6.123,-54.364,6.169
19:31:39:183,1.572,-0.018,-0.018,0.015,6.135,-54.445,6.189
19:31:39:209,1.598,-0.013,-0.009,0.002,6.134,-54.525,6.198
19:31:39:237,1.625,-0.008,0.005,-0.009,6.127,-54.634,6.214
19:31:39:263,1.651,-0.003,0.004,-0.008,6.118,-54.702,6.232
19:31:39:289,1.677,0.003,-0.010,0.005,6.096,-54.860,6.265
19:31:39:317,1.706,0.012,-0.019,0.020,6.074,-55.053,6.332
19:31:39:341,1.729,0.013,-0.015,0.025,6.077,-55.136,6.406
19:31:39:369,1.757,0.001,0.002,0.018,6.068,-55.158,6.480
19:31:39:395,1.783,-0.012,0.002,0.012,6.053,-55.128,6.535
19:31:39:42,1.808,-0.023,0.018,-0.005,6.045,-55.028,6.623
19:31:39:476,1.864,-0.011,0.014,-0.028,6.034,-54.917,6.701
19:31:39:476,1.864,-0.015,0.012,-0.011,6.035,-54.785,6.863
19:31:39:499,1.887,-0.007,-0.002,-0.004,6.056,-54.675,7.094
19:31:39:525,1.913,-0.010,-0.011,0.009,6.074,-54.621,7.231
19:31:39:551,1.940,0.006,-0.024,0.006,6.113,-54.536,7.425
19:31:39:606,1.995,-0.001,-0.032,0.017,6.144,-54.514,7.533
19:31:39:607,1.996,0.012,-0.032,0.007,6.164,-54.512,7.656
19:31:39:63,2.019,-0.001,-0.030,-0.004,6.165,-54.502,7.726
19:31:39:656,2.045,0.013,-0.027,-0.021,6.141,-54.506,7.764
19:31:39:682,2.071,0.013,-0.002,-0.013,6.095,-54.497,7.832
19:31:39:709,2.097,0.015,0.013,-0.012,6.062,-54.477,7.879
19:31:39:736,2.124,0.003,0.018,-0.003,6.003,-54.442,7.949
19:31:39:761,2.149,-0.010,0.019,0.004,5.942,-54.379,8.006
19:31:39:787,2.175,-0.016,0.021,0.022,5.921,-54.324,8.055
19:31:39:814,2.202,-0.021,0.012,0.010,5.925,-54.195,8.145
19:31:39:844,2.232,-0.030,0.005,-0.005,5.933,-54.087,8.256
19:31:39:845,2.233,-0.009,-0.007,-0.006,5.957,-53.925,8.462
19:31:39:867,2.255,0.002,-0.014,0.001,5.978,-53.806,8.595
19:31:39:921,2.310,0.021,-0.024,-0.011,6.017,-53.596,8.795
19:31:39:922,2.311,0.026,-0.030,-0.021,6.004,-53.398,8.949
19:31:40:003,2.392,0.029,-0.016,-0.027,5.940,-53.319,9.021
19:31:40:004,2.393,0.001,0.005,-0.013,5.846,-53.256,9.090
19:31:40:004,2.393,-0.030,0.028,0.014,5.796,-53.266,9.097
19:31:40:053,2.442,-0.031,0.032,0.015,5.730,-53.318,9.094
19:31:40:053,2.442,-0.026,0.010,0.012,5.668,-53.401,9.085
19:31:40:107,2.495,-0.021,-0.003,0.001,5.645,-53.474,9.103
19:31:40:107,2.495,-0.021,-0.008,0.000,5.601,-53.582,9.152
19:31:40:13,2.519,-0.008,-0.011,-0.016,5.581,-53.621,9.215
19:31:40:154,2.543,0.004,0.002,-0.019,5.563,-53.629,9.339
19:31:40:181,2.570,0.011,-0.012,-0.017,5.562,-53.671,9.483
19:31:40:209,2.598,0.007,-0.017,-0.005,5.556,-53.713,9.567
19:31:40:234,2.623,0.002,0.005,0.000,5.561,-53.720,9.658
19:31:40:26,2.649,-0.009,0.003,0.004,5.568,-53.720,9.682
19:31:40:286,2.674,-0.011,-0.009,0.001,5.576,-53.749,9.683
19:31:40:312,2.700,-0.021,0.008,0.016,5.589,-53.813,9.672
19:31:40:368,2.756,-0.005,0.010,0.005,5.610,-53.944,9.654
19:31:40:368,2.756,-0.007,-0.003,0.019,5.589,-54.087,9.634
19:31:40:392,2.780,0.013,0.035,0.012,5.549,-54.119,9.601
19:31:40:418,2.806,-0.004,-0.011,0.003,5.460,-53.932,9.589
19:31:40:443,2.832,-0.008,-0.031,-0.014,5.384,-53.735,9.570
19:31:40:469,2.858,0.000,-0.022,0.000,5.304,-53.576,9.552
19:31:40:496,2.885,0.012,-0.025,-0.019,5.243,-53.438,9.545
19:31:40:522,2.911,0.013,-0.034,-0.015,5.204,-53.406,9.528
19:31:40:55,2.938,0.013,-0.024,-0.016,5.119,-53.441,9.472
19:31:40:575,2.963,-0.006,-0.022,-0.005,5.074,-53.474,9.426
19:31:40:601,2.989,-0.002,-0.003,-0.017,5.016,-53.491,9.366
19:31:40:627,3.016,-0.003,0.000,-0.016,4.979,-53.502,9.336
19:31:40:653,3.042,-0.006,0.019,-0.017,4.920,-53.560,9.330
19:31:40:68,3.068,-0.005,0.001,-0.005,4.882,-53.696,9.343
19:31:40:735,3.123,-0.004,-0.010,-0.001,4.867,-53.800,9.373
19:31:40:736,3.124,-0.007,0.013,0.006,4.833,-53.907,9.426
19:31:40:759,3.147,-0.006,-0.007,0.015,4.822,-53.973,9.454
19:31:40:785,3.173,-0.017,-0.002,0.013,4.816,-54.075,9.460
19:31:40:811,3.199,-0.009,0.011,0.003,4.816,-54.192,9.452
19:31:40:838,3.226,0.000,0.009,0.009,4.822,-54.319,9.445
19:31:40:865,3.253,-0.007,-0.010,0.013,4.826,-54.552,9.419
19:31:40:89,3.279,-0.001,-0.016,0.021,4.839,-54.706,9.397
19:31:40:916,3.305,0.004,0.000,0.012,4.855,-54.892,9.342
19:31:40:942,3.331,0.008,0.005,-0.007,4.871,-55.025,9.275
19:31:40:968,3.357,0.004,0.004,-0.012,4.863,-55.101,9.236
19:31:40:995,3.384,0.008,0.000,-0.011,4.851,-55.179,9.194
19:31:41:021,3.410,-0.004,-0.006,-0.002,4.849,-55.195,9.187
19:31:41:047,3.435,-0.002,-0.017,-0.008,4.849,-55.195,9.187
19:31:41:074,3.462,-0.012,-0.009,-0.006,4.852,-55.174,9.190
19:31:41:102,3.490,-0.009,-0.007,-0.011,4.847,-55.133,9.181
19:31:41:128,3.516,-0.020,-0.007,-0.005,4.865,-55.127,9.161
19:31:41:154,3.542,-0.009,0.003,-0.013,4.870,-55.132,9.147
19:31:41:18,3.568,-0.006,0.009,-0.014,4.880,-55.176,9.126
19:31:41:206,3.594,0.000,0.001,-0.016,4.883,-55.228,9.113
19:31:41:232,3.620,-0.003,0.001,-0.006,4.898,-55.335,9.090
19:31:41:257,3.646,-0.003,-0.005,-0.006,4.912,-55.436,9.051
19:31:41:285,3.674,-0.009,-0.003,-0.006,4.920,-55.496,9.023
19:31:41:31,3.699,0.000,-0.006,-0.008,4.935,-55.580,8.981
19:31:41:336,3.725,-0.004,-0.004,0.001,4.943,-55.640,8.953
19:31:41:362,3.751,0.004,-0.002,0.003,4.972,-55.725,8.916
19:31:41:388,3.777,0.003,0.008,0.003,4.995,-55.768,8.889
19:31:41:415,3.804,0.006,-0.004,0.001,5.035,-55.803,8.843
19:31:41:441,3.829,-0.001,-0.002,0.003,5.068,-55.845,8.800
19:31:41:497,3.885,0.006,0.001,-0.006,5.085,-55.851,8.768
19:31:41:497,3.885,0.003,-0.008,-0.002,5.108,-55.846,8.730
19:31:41:52,3.908,0.008,-0.007,0.006,5.146,-55.836,8.681
19:31:41:546,3.934,0.004,-0.001,0.003,5.171,-55.836,8.638
19:31:41:573,3.961,-0.001,0.003,0.007,5.206,-55.828,8.567
19:31:41:599,3.987,-0.002,-0.005,0.000,5.230,-55.830,8.512
19:31:41:624,4.013,-0.005,-0.010,0.001,5.270,-55.805,8.439
19:31:41:651,4.040,-0.001,-0.004,0.000,5.301,-55.798,8.393
19:31:41:677,4.065,-0.007,-0.001,0.006,5.350,-55.828,8.319
19:31:41:704,4.092,0.003,-0.005,-0.007,5.401,-55.855,8.236
19:31:41:759,4.147,-0.002,-0.002,-0.003,5.436,-55.852,8.180
19:31:41:76,4.148,0.000,-0.007,-0.008,5.493,-55.873,8.094
19:31:41:782,4.171,-0.006,-0.005,-0.003,5.539,-55.888,8.042
19:31:41:808,4.197,-0.001,-0.003,-0.002,5.595,-55.916,7.960
19:31:41:835,4.224,-0.011,-0.005,-0.005,5.653,-55.949,7.873
19:31:41:89,4.279,-0.003,-0.002,-0.004,5.695,-55.997,7.806
19:31:41:891,4.280,-0.013,-0.001,-0.006,5.762,-56.084,7.698
19:31:41:913,4.301,-0.008,0.000,-0.012,5.813,-56.131,7.634
19:31:41:941,4.329,-0.008,0.000,-0.012,5.891,-56.219,7.544
19:31:41:967,4.355,-0.002,0.000,-0.007,5.930,-56.302,7.484
19:31:41:992,4.380,-0.007,0.000,-0.003,5.999,-56.461,7.381
19:31:42:019,4.407,-0.010,-0.004,-0.002,6.073,-56.605,7.276
19:31:42:045,4.433,-0.011,-0.006,0.003,6.127,-56.688,7.205
19:31:42:072,4.460,-0.004,-0.009,-0.006,6.221,-56.799,7.099
19:31:42:098,4.486,-0.005,-0.006,-0.006,6.283,-56.873,7.031
19:31:42:126,4.514,0.003,0.004,-0.012,6.390,-56.974,6.946
19:31:42:151,4.539,-0.005,0.001,-0.001,6.457,-57.042,6.896
19:31:42:178,4.567,-0.007,-0.006,0.000,6.563,-57.080,6.835
19:31:42:179,4.568,-0.013,0.000,-0.007,6.679,-57.034,6.784
19:31:42:231,4.620,-0.028,-0.006,-0.009,6.764,-56.987,6.745
19:31:42:232,4.621,-0.028,0.005,0.000,6.945,-56.887,6.715
19:31:42:283,4.672,-0.021,0.009,-0.016,7.140,-56.579,6.761
19:31:42:284,4.673,-0.021,0.009,-0.044,7.269,-56.237,6.892
19:31:42:307,4.696,-0.020,0.005,-0.043,7.441,-55.698,7.124
19:31:42:333,4.722,-0.031,0.003,-0.033,7.548,-55.344,7.330
19:31:42:359,4.748,-0.040,-0.006,-0.030,7.713,-54.756,7.783
19:31:42:386,4.775,-0.033,-0.031,-0.037,7.840,-54.297,8.156
19:31:42:412,4.800,-0.039,-0.037,-0.025,7.975,-53.640,8.642
19:31:42:441,4.829,-0.030,-0.032,-0.009,8.088,-53.022,9.198
19:31:42:467,4.855,-0.039,-0.031,0.002,8.158,-52.562,9.577
19:31:42:492,4.880,-0.037,-0.014,0.000,8.255,-51.808,10.120
19:31:42:518,4.906,-0.042,0.009,0.015,8.281,-51.308,10.432
19:31:42:544,4.932,-0.050,0.016,0.096,8.248,-50.538,10.793
19:31:42:57,4.958,-0.065,0.014,0.064,8.216,-49.736,11.016
19:31:42:597,4.985,-0.059,-0.013,0.023,8.190,-48.038,11.326
19:31:42:622,5.011,-0.095,-0.039,-0.022,8.170,-46.253,11.502
19:31:42:648,5.037,-0.099,-0.055,-0.018,8.167,-45.458,11.495
19:31:42:675,5.064,-0.100,-0.051,-0.014,8.204,-45.054,11.272
19:31:42:702,5.091,-0.077,-0.025,0.000,8.306,-45.255,11.084
19:31:42:728,5.117,-0.071,-0.008,0.009,8.336,-45.960,10.462
19:31:42:754,5.143,-0.070,-0.009,-0.002,8.321,-46.912,9.688
19:31:42:78,5.169,-0.090,-0.034,-0.001,8.354,-47.485,9.206
19:31:42:806,5.194,-0.103,-0.043,-0.015,8.319,-48.356,8.446
19:31:42:834,5.222,-0.107,-0.044,-0.029,8.328,-48.866,8.072
19:31:42:86,5.248,-0.111,-0.057,-0.051,8.434,-49.606,7.871
19:31:42:886,5.274,-0.116,-0.055,-0.051,8.505,-50.602,7.704
19:31:42:911,5.299,-0.107,-0.048,-0.033,8.546,-51.272,7.563
19:31:42:938,5.326,-0.101,-0.037,-0.022,8.631,-52.231,7.327
19:31:42:967,5.355,-0.114,-0.029,-0.057,8.662,-52.716,7.201
19:31:42:991,5.380,-0.117,-0.026,-0.058,8.683,-53.340,7.143
19:31:43:045,5.434,-0.113,-0.017,-0.063,8.665,-53.751,7.142
19:31:43:046,5.435,-0.104,0.024,-0.067,8.487,-54.438,6.941
19:31:43:128,5.517,-0.109,0.171,-0.082,8.069,-55.052,6.317
19:31:43:128,5.517,-0.127,0.190,-0.077,7.808,-55.566,5.900
19:31:43:128,5.517,-0.138,0.183,-0.070,7.473,-56.171,5.327
19:31:43:148,5.536,-0.133,0.157,-0.074,7.298,-56.719,5.054
19:31:43:174,5.562,-0.127,0.120,-0.068,7.406,-57.063,5.388
19:31:43:259,5.647,-0.075,0.045,-0.098,7.465,-57.391,5.878
19:31:43:259,5.647,-0.040,0.048,-0.099,7.605,-57.619,6.542
19:31:43:26,5.648,0.023,0.037,-0.069,7.961,-58.211,8.045
19:31:43:279,5.667,0.066,0.023,-0.038,8.295,-58.601,9.333
19:31:43:305,5.694,0.124,0.057,0.025,8.829,-59.145,11.601
19:31:43:333,5.722,0.152,0.060,0.086,9.301,-59.157,14.229
19:31:43:358,5.747,0.188,0.042,0.100,9.531,-58.827,16.085
19:31:43:384,5.773,0.195,0.086,0.111,9.555,-58.046,18.688
19:31:43:439,5.828,0.175,0.022,0.125,9.574,-57.521,20.431
19:31:43:44,5.829,0.178,0.027,0.162,9.575,-56.886,22.750
19:31:43:462,5.851,0.158,-0.082,0.172,9.596,-56.571,24.116
19:31:43:488,5.876,0.177,-0.081,0.198,9.630,-56.082,25.932
19:31:43:515,5.903,0.145,-0.165,0.177,9.680,-55.705,27.472
19:31:43:541,5.929,0.112,-0.252,0.206,9.743,-55.395,28.365
19:31:43:568,5.956,0.075,-0.314,0.199,9.824,-55.120,29.537
19:31:43:594,5.982,0.078,-0.325,0.206,9.890,-54.846,30.219
19:31:43:62,6.008,0.130,-0.265,0.225,9.981,-54.493,30.970
19:31:43:646,6.034,0.153,-0.236,0.227,10.061,-53.569,31.250
19:31:43:702,6.090,0.186,-0.147,0.239,10.081,-53.127,31.064
19:31:43:703,6.091,0.262,0.032,0.278,10.079,-51.975,30.167
19:31:43:725,6.113,0.318,0.166,0.302,10.053,-51.197,29.187
19:31:43:81,6.199,0.328,0.256,0.299,9.874,-49.174,27.179
19:31:43:81,6.199,0.475,0.453,0.231,9.640,-47.677,25.629
19:31:43:811,6.200,0.352,0.391,0.155,9.115,-44.761,23.188
19:31:43:83,6.219,0.104,0.217,0.130,8.593,-42.382,20.637
19:31:43:856,6.245,0.057,0.162,0.227,8.371,-41.231,19.043
19:31:43:882,6.271,0.178,0.121,0.156,8.354,-40.077,17.154
19:31:43:909,6.297,0.337,0.083,0.041,8.477,-38.272,15.991
19:31:43:993,6.381,0.304,0.043,0.018,8.517,-36.434,15.509
19:31:43:994,6.382,0.182,-0.164,0.003,8.549,-32.509,14.973
19:31:43:995,6.383,0.114,-0.257,0.009,8.530,-29.575,14.637
19:31:44:014,6.402,-0.021,-0.385,-0.060,8.421,-24.745,14.008
19:31:44:07,6.458,-0.105,-0.401,-0.065,8.313,-21.902,13.413
19:31:44:071,6.459,-0.112,-0.396,-0.066,8.202,-18.326,12.184
19:31:44:121,6.510,-0.142,-0.305,-0.059,8.066,-16.404,10.467
19:31:44:122,6.511,-0.231,-0.237,0.024,7.880,-15.969,9.018
19:31:44:145,6.534,-0.266,-0.164,0.079,7.495,-16.136,6.468
19:31:44:171,6.560,-0.286,-0.098,0.048,7.117,-16.527,4.684
19:31:44:198,6.587,-0.358,-0.026,0.080,6.376,-17.169,2.079
19:31:44:224,6.613,-0.449,0.055,0.126,5.473,-18.259,-0.270
19:31:44:28,6.668,-0.463,0.088,0.119,4.842,-19.192,-1.591
19:31:44:281,6.670,-0.477,0.274,0.080,3.881,-20.530,-3.027
19:31:44:302,6.690,-0.478,0.314,0.110,3.291,-21.311,-3.611
19:31:44:331,6.719,-0.488,0.306,0.141,2.682,-22.176,-3.806
19:31:44:383,6.771,-0.410,0.338,0.126,2.527,-22.535,-3.045
19:31:44:411,6.799,-0.321,0.450,0.076,2.687,-22.352,-1.930
19:31:44:411,6.799,-0.214,0.525,0.033,3.240,-21.537,0.705
19:31:44:438,6.826,-0.143,0.526,0.039,3.738,-20.822,3.154
19:31:44:438,6.826,0.012,0.402,0.137,4.560,-19.761,7.880
19:31:44:486,6.874,0.221,0.198,0.197,5.115,-19.073,11.681
19:31:44:515,6.903,0.301,0.061,0.219,5.975,-17.972,17.987
19:31:44:516,6.904,0.322,-0.188,0.168,6.896,-17.026,24.402
19:31:44:592,6.980,0.285,-0.174,0.186,7.508,-16.469,28.510
19:31:44:624,7.012,0.392,-0.200,0.216,9.062,-16.367,34.134
19:31:44:624,7.012,0.547,-0.347,0.211,10.650,-16.621,37.407
19:31:44:625,7.013,0.528,-0.457,0.192,13.570,-16.839,41.535
19:31:44:673,7.061,0.587,-0.454,0.157,16.392,-16.614,44.708
19:31:44:674,7.062,0.561,-0.473,0.129,17.723,-16.012,46.272
19:31:44:698,7.087,0.498,-0.496,0.094,18.769,-14.725,47.734
19:31:44:722,7.111,0.476,-0.466,0.087,18.941,-13.890,48.084
19:31:44:748,7.137,0.503,-0.350,0.077,18.598,-12.878,47.650
19:31:44:777,7.166,0.522,-0.270,0.066,18.043,-12.347,46.732
19:31:44:802,7.191,0.561,-0.211,0.050,16.832,-11.306,44.484
19:31:44:827,7.216,0.631,-0.015,0.055,15.062,-10.386,41.286
19:31:44:854,7.242,0.697,0.118,0.007,13.668,-9.681,38.733
19:31:44:88,7.268,0.723,0.298,-0.055,11.432,-7.964,34.448
19:31:44:906,7.294,0.659,0.459,-0.068,9.901,-6.347,31.373
19:31:44:932,7.320,0.537,0.570,-0.002,7.887,-3.366,26.694
19:31:44:959,7.347,0.396,0.405,-0.031,6.625,-0.077,22.298
19:31:44:985,7.373,0.292,0.284,-0.059,6.172,2.311,19.696
19:31:45:012,7.400,0.143,0.035,-0.082,5.855,6.097,16.396
19:31:45:039,7.427,0.063,-0.083,-0.054,5.787,8.754,14.553
19:31:45:093,7.481,-0.026,-0.218,-0.023,5.780,12.914,12.150
19:31:45:094,7.482,-0.075,-0.272,0.013,5.839,15.800,10.681
19:31:45:146,7.534,-0.129,-0.305,-0.010,6.100,20.081,8.581
19:31:45:147,7.535,-0.196,-0.260,0.034,6.506,24.038,6.404
19:31:45:17,7.558,-0.221,-0.233,0.112,6.769,26.072,4.715
19:31:45:196,7.584,-0.216,-0.253,0.184,7.106,28.172,1.779
19:31:45:222,7.610,-0.283,-0.189,0.267,7.232,29.105,-0.376
19:31:45:247,7.636,-0.314,-0.106,0.333,7.173,29.779,-3.831
19:31:45:273,7.662,-0.391,-0.017,0.383,6.845,29.838,-7.376
19:31:45:329,7.718,-0.445,0.025,0.416,6.469,29.569,-9.680
19:31:45:33,7.719,-0.520,0.127,0.439,5.670,28.900,-12.763
19:31:45:352,7.741,-0.590,0.228,0.481,5.080,28.583,-14.369
19:31:45:379,7.768,-0.538,0.095,0.506,4.260,28.527,-15.728
19:31:45:405,7.794,-0.441,-0.023,0.539,3.591,28.959,-15.625
19:31:45:431,7.819,-0.412,0.055,0.543,3.153,29.207,-14.740
19:31:45:458,7.846,-0.491,0.247,0.487,2.567,29.225,-12.319
19:31:45:484,7.872,-0.459,0.321,0.437,2.296,28.948,-10.067
19:31:45:511,7.899,-0.339,0.459,0.308,2.107,28.166,-5.806
19:31:45:537,7.925,-0.148,0.467,0.180,2.176,27.589,-2.396
19:31:45:563,7.951,-0.038,0.409,0.101,2.532,26.800,3.497
19:31:45:589,7.977,0.114,0.239,0.063,3.023,26.123,10.161
19:31:45:614,8.003,0.181,0.166,0.027,3.384,25.703,14.901
19:31:45:67,8.059,0.287,0.112,-0.027,4.065,25.061,22.300
19:31:45:671,8.060,0.415,0.062,-0.118,4.705,24.534,27.268
19:31:45:693,8.082,0.467,-0.037,-0.154,6.233,23.580,34.428
19:31:45:72,8.109,0.517,-0.190,-0.198,9.039,22.238,40.933
19:31:45:748,8.137,0.532,-0.389,-0.194,11.669,21.357,44.768
19:31:45:772,8.161,0.533,-0.503,-0.205,16.218,20.326,49.556
19:31:45:799,8.187,0.552,-0.539,-0.211,19.246,19.905,52.089
19:31:45:825,8.213,0.575,-0.594,-0.218,22.947,19.684,54.777
19:31:45:851,8.239,0.614,-0.531,-0.253,24.529,19.728,55.741
19:31:45:878,8.266,0.615,-0.496,-0.279,25.298,19.910,55.916
19:31:45:904,8.292,0.645,-0.369,-0.333,24.155,20.112,54.547
19:31:45:93,8.318,0.712,-0.223,-0.370,22.492,20.149,52.740
19:31:45:957,8.345,0.668,-0.113,-0.340,19.191,20.160,48.920
19:31:45:984,8.372,0.636,-0.032,-0.253,16.784,20.149,45.768
19:31:46:008,8.397,0.710,0.203,-0.213,13.186,20.039,40.272
19:31:46:034,8.423,0.720,0.539,-0.220,10.350,19.839,34.104
19:31:46:061,8.450,0.589,0.563,-0.262,9.127,19.737,29.838
19:31:46:116,8.505,0.330,0.387,-0.273,7.836,20.039,23.547
19:31:46:117,8.506,0.212,0.130,-0.117,7.115,20.720,19.626
19:31:46:141,8.530,0.160,0.027,-0.004,6.085,22.857,14.469
19:31:46:195,8.583,0.099,-0.113,0.111,5.127,26.286,10.271
19:31:46:196,8.584,0.001,-0.137,0.111,4.649,29.106,7.911
19:31:46:277,8.665,-0.151,-0.118,0.113,4.228,33.835,4.829
19:31:46:278,8.666,-0.181,-0.132,0.163,4.165,36.842,2.984
19:31:46:279,8.667,-0.221,-0.100,0.303,4.274,40.204,0.248
19:31:46:298,8.686,-0.246,-0.098,0.353,4.422,41.411,-1.658
19:31:46:325,8.713,-0.259,-0.154,0.414,4.614,41.761,-4.716
19:31:46:35,8.738,-0.278,-0.060,0.453,4.586,41.019,-7.971
19:31:46:376,8.765,-0.297,-0.038,0.479,4.429,40.281,-10.176
19:31:46:402,8.791,-0.372,0.035,0.551,4.063,39.172,-13.285
19:31:46:428,8.817,-0.470,0.053,0.565,3.798,38.743,-15.053
19:31:46:457,8.846,-0.497,0.060,0.574,3.438,38.417,-16.883
19:31:46:481,8.869,-0.451,-0.033,0.557,3.157,38.610,-17.447
19:31:46:539,8.927,-0.408,-0.081,0.545,2.999,38.772,-17.071
19:31:46:539,8.927,-0.464,0.067,0.498,2.669,38.747,-15.460
19:31:46:56,8.948,-0.503,0.186,0.489,2.447,38.312,-13.810
19:31:46:64,9.028,-0.500,0.361,0.408,2.147,37.414,-10.701
19:31:46:671,9.059,-0.388,0.473,0.259,2.052,36.378,-8.219
19:31:46:672,9.060,-0.281,0.469,0.161,2.156,34.726,-3.865
19:31:46:673,9.061,-0.102,0.283,0.090,2.556,33.168,1.256
19:31:46:694,9.082,-0.001,0.164,0.058,2.921,32.336,5.082
19:31:46:695,9.083,0.104,0.146,-0.006,3.510,31.426,11.386
19:31:46:718,9.106,0.183,0.158,-0.101,3.914,31.084,15.866
19:31:46:772,9.161,0.220,0.090,-0.151,4.601,30.751,22.775
19:31:46:773,9.162,0.299,0.046,-0.199,5.602,30.250,29.644
19:31:46:826,9.215,0.360,-0.088,-0.227,6.799,29.616,34.046
19:31:46:826,9.215,0.443,-0.263,-0.288,9.736,28.292,40.110
19:31:46:849,9.238,0.460,-0.387,-0.323,12.336,27.405,43.642
19:31:46:905,9.294,0.468,-0.449,-0.301,16.794,26.273,47.959
19:31:46:905,9.294,0.505,-0.468,-0.293,20.956,25.471,50.996
19:31:46:928,9.316,0.558,-0.460,-0.329,23.114,25.246,52.299
19:31:46:954,9.342,0.599,-0.510,-0.388,24.983,25.407,53.263
19:31:47:009,9.397,0.623,-0.437,-0.435,25.061,25.848,53.258
19:31:47:01,9.398,0.542,-0.341,-0.443,23.209,27.197,52.163
19:31:47:033,9.421,0.547,-0.251,-0.446,21.012,27.911,50.525
19:31:47:088,9.476,0.640,-0.018,-0.472,17.201,28.713,47.000
19:31:47:089,9.477,0.710,0.225,-0.388,13.483,29.189,42.419
19:31:47:14,9.529,0.709,0.355,-0.345,11.422,29.301,38.954
19:31:47:141,9.530,0.648,0.448,-0.302,9.127,29.407,33.473
19:31:47:164,9.553,0.437,0.230,-0.267,7.977,29.601,29.801
19:31:47:19,9.579,0.308,0.126,-0.184,6.501,30.234,24.441
19:31:47:216,9.605,0.177,-0.084,0.034,5.208,31.250,19.364
19:31:47:242,9.631,0.157,-0.144,0.147,4.429,32.096,16.135
19:31:47:268,9.657,0.070,-0.136,0.187,3.489,33.732,11.462
19:31:47:297,9.686,0.008,-0.126,0.173,3.068,34.991,8.432
19:31:47:322,9.710,-0.090,-0.089,0.210,2.729,37.105,3.918
19:31:47:349,9.737,-0.133,-0.002,0.295,2.650,38.498,0.957
19:31:47:375,9.763,-0.172,-0.023,0.352,2.725,40.479,-3.362
19:31:47:4,9.788,-0.223,-0.049,0.469,2.901,42.283,-7.424
19:31:47:426,9.814,-0.254,-0.065,0.521,2.986,43.129,-9.922
19:31:47:453,9.841,-0.330,-0.042,0.625,2.977,44.028,-13.146
19:31:47:478,9.867,-0.386,-0.018,0.664,2.876,44.257,-14.807
19:31:47:505,9.894,-0.403,0.003,0.640,2.577,44.311,-16.342
19:31:47:532,9.921,-0.384,0.040,0.610,2.209,44.167,-16.710
19:31:47:557,9.946,-0.336,-0.031,0.599,2.017,44.207,-16.315
19:31:47:584,9.973,-0.288,-0.058,0.571,1.834,44.186,-14.845
19:31:47:61,9.999,-0.349,0.123,0.506,1.807,44.242,-13.333
19:31:47:636,10.025,-0.333,0.282,0.452,1.871,44.414,-10.317
19:31:47:663,10.051,-0.255,0.425,0.350,2.016,44.556,-6.373
19:31:47:689,10.078,-0.169,0.452,0.297,2.115,44.545,-3.201
19:31:47:715,10.104,-0.004,0.494,0.191,2.229,44.240,2.377
19:31:47:741,10.130,0.092,0.433,0.114,2.351,43.924,6.620
19:31:47:797,10.186,0.205,0.363,0.003,2.643,43.328,13.615
19:31:47:797,10.186,0.289,0.315,-0.076,2.987,42.796,18.594
19:31:47:82,10.209,0.376,0.227,-0.201,3.910,41.843,26.305
19:31:47:846,10.235,0.488,0.116,-0.269,5.651,40.749,34.031
19:31:47:872,10.261,0.524,-0.004,-0.305,7.588,39.977,39.018
19:31:47:928,10.317,0.552,-0.253,-0.346,12.103,38.907,46.054
19:31:47:928,10.317,0.539,-0.446,-0.382,16.087,38.464,50.368
19:31:48:039,10.427,0.539,-0.589,-0.366,22.797,38.386,56.157
19:31:48:04,10.428,0.513,-0.775,-0.360,28.979,38.981,60.904
19:31:48:04,10.428,0.474,-0.794,-0.342,31.862,39.748,63.261
19:31:48:085,10.473,0.440,-0.625,-0.313,32.704,41.792,65.509
19:31:48:086,10.474,0.514,-0.455,-0.395,29.482,42.150,64.124
19:31:48:109,10.497,0.564,-0.383,-0.441,26.758,42.626,62.089
19:31:48:135,10.523,0.640,-0.266,-0.575,22.528,42.157,57.602
19:31:48:161,10.550,0.759,0.021,-0.606,18.150,41.514,51.592
19:31:48:187,10.576,0.806,0.205,-0.577,15.538,41.095,46.917
19:31:48:213,10.602,0.819,0.458,-0.635,12.361,41.023,39.364
19:31:48:24,10.629,0.572,0.553,-0.714,10.565,41.803,34.254
19:31:48:266,10.655,0.364,0.592,-0.623,8.336,44.521,26.859
19:31:48:292,10.681,0.229,0.367,-0.392,6.814,48.967,20.109
19:31:48:319,10.707,0.125,0.219,-0.231,6.149,53.009,16.133
19:31:48:348,10.736,-0.063,0.030,-0.054,5.760,60.469,11.022
19:31:48:371,10.759,-0.174,-0.010,0.025,5.959,65.970,8.156
19:31:48:398,10.786,-0.219,-0.028,0.114,6.906,74.247,4.532
19:31:48:424,10.812,-0.255,-0.012,0.245,7.878,79.363,2.446
19:31:48:45,10.838,-0.224,-0.010,0.350,9.620,85.665,-0.573
19:31:48:477,10.865,-0.202,-0.083,0.507,11.496,89.831,-3.852
19:31:48:503,10.891,-0.183,-0.124,0.517,12.681,91.400,-6.281
19:31:48:528,10.917,-0.154,-0.203,0.541,14.155,92.444,-10.308
19:31:48:555,10.944,-0.112,-0.165,0.601,14.822,92.648,-13.155
19:31:48:581,10.970,-0.114,-0.059,0.728,15.300,92.741,-17.456
19:31:48:607,10.996,-0.079,-0.099,0.835,15.308,93.222,-21.327
19:31:48:634,11.023,-0.056,-0.068,0.950,15.099,93.958,-23.355
19:31:48:662,11.051,0.089,-0.294,0.820,14.473,96.491,-25.099
19:31:48:686,11.075,0.177,-0.272,0.751,13.774,97.758,-25.334
19:31:48:713,11.101,0.193,-0.221,0.747,11.987,99.850,-24.513
19:31:48:739,11.127,0.155,-0.022,0.893,9.558,99.951,-22.468
19:31:48:792,11.180,0.172,0.303,0.711,5.089,98.476,-16.557
19:31:48:819,11.207,0.223,0.366,0.526,3.581,97.142,-13.244
19:31:48:845,11.233,0.322,0.364,0.264,1.881,94.969,-7.244
19:31:48:871,11.259,0.367,0.368,0.050,1.182,93.470,-2.402
19:31:48:9,11.288,0.358,0.385,-0.072,0.698,91.424,5.669
19:31:48:901,11.289,0.377,0.389,-0.251,0.984,89.507,14.400
19:31:48:951,11.340,0.293,0.394,-0.284,1.688,87.935,20.234
19:31:48:952,11.341,0.296,0.083,-0.599,4.460,84.369,28.757
19:31:48:975,11.364,0.234,-0.060,-0.519,7.114,82.487,33.671
19:31:49:03,11.419,0.267,-0.230,-0.562,11.705,80.873,40.081
19:31:49:031,11.420,0.253,-0.579,-0.592,16.105,80.467,45.210
19:31:49:082,11.471,0.205,-0.645,-0.526,17.980,81.659,47.852
19:31:49:084,11.472,0.172,-0.617,-0.491,19.053,83.007,50.453
19:31:49:107,11.495,0.095,-0.525,-0.456,18.713,84.725,51.227
19:31:49:134,11.522,0.072,-0.389,-0.466,17.193,86.173,50.824
19:31:49:159,11.547,0.055,-0.188,-0.621,15.429,87.137,48.504
19:31:49:185,11.574,0.017,-0.133,-0.684,14.228,87.671,46.063
19:31:49:211,11.600,-0.075,0.068,-0.747,12.101,88.782,41.312
19:31:49:237,11.626,-0.061,0.186,-0.732,10.557,89.828,37.555
19:31:49:263,11.652,-0.048,0.447,-0.722,8.368,92.143,31.401
19:31:49:29,11.679,-0.117,0.579,-0.648,7.217,94.337,27.160
19:31:49:317,11.706,-0.187,0.600,-0.433,6.191,98.491,20.920
19:31:49:343,11.731,-0.180,0.472,-0.193,6.024,103.214,15.061
19:31:49:369,11.757,-0.131,0.269,-0.061,6.310,106.519,11.474
19:31:49:395,11.783,-0.033,0.010,0.089,7.170,111.721,6.666
19:31:49:421,11.809,-0.015,-0.111,0.210,7.995,115.196,3.819
19:31:49:448,11.836,0.008,-0.162,0.270,9.490,120.043,-0.041
19:31:49:504,11.892,0.084,-0.194,0.344,11.158,124.087,-3.608
19:31:49:504,11.892,0.123,-0.184,0.386,12.299,126.144,-5.966
19:31:49:527,11.915,0.184,-0.176,0.438,13.919,128.207,-9.621
19:31:49:552,11.941,0.283,-0.197,0.426,14.862,130.145,-12.174
19:31:49:638,12.027,0.346,-0.203,0.446,15.990,130.607,-16.191
19:31:49:638,12.027,0.399,-0.203,0.464,16.564,131.612,-18.899
19:31:49:638,12.027,0.451,-0.219,0.515,17.239,131.834,-22.735
19:31:49:657,12.046,0.540,-0.194,0.609,17.754,132.488,-25.963
19:31:49:684,12.073,0.557,-0.244,0.646,18.005,133.162,-27.593
19:31:49:71,12.099,0.604,-0.183,0.733,18.133,134.562,-28.855
19:31:49:765,12.153,0.549,-0.278,0.563,17.967,135.605,-28.884
19:31:49:766,12.154,0.574,-0.226,0.525,17.211,137.122,-27.743
19:31:49:791,12.179,0.586,-0.192,0.496,15.836,138.130,-25.499
19:31:49:816,12.204,0.587,-0.061,0.563,14.714,138.480,-23.579
19:31:49:841,12.229,0.588,0.194,0.630,12.825,138.486,-20.169
19:31:49:899,12.287,0.487,0.380,0.506,11.476,138.062,-17.476
19:31:49:899,12.287,0.382,0.461,0.348,9.607,136.846,-12.619
19:31:49:92,12.309,0.258,0.455,0.162,8.168,135.239,-6.655
19:31:49:946,12.335,0.187,0.410,0.031,7.489,134.121,-2.070
19:31:49:972,12.361,0.087,0.341,-0.082,6.917,132.491,5.446
19:31:49:999,12.388,0.012,0.295,-0.156,6.841,131.384,10.650
19:31:50:025,12.414,-0.071,0.206,-0.211,7.185,129.589,18.359
19:31:50:053,12.442,-0.102,0.105,-0.273,7.833,128.126,23.236
19:31:50:078,12.467,-0.136,-0.033,-0.391,9.734,125.446,29.964
19:31:50:104,12.492,-0.176,-0.215,-0.483,12.990,122.644,35.896
19:31:50:132,12.520,-0.226,-0.385,-0.515,15.708,121.048,39.389
19:31:50:185,12.573,-0.227,-0.515,-0.520,19.739,119.450,43.791
19:31:50:186,12.574,-0.215,-0.533,-0.520,21.928,118.860,46.034
19:31:50:209,12.597,-0.197,-0.523,-0.506,23.926,118.515,48.159
19:31:50:235,12.623,-0.214,-0.462,-0.469,24.067,118.718,48.613
19:31:50:262,12.650,-0.223,-0.377,-0.458,23.229,119.039,47.950
19:31:50:316,12.705,-0.318,-0.184,-0.534,21.139,119.408,45.396
19:31:50:317,12.706,-0.347,-0.109,-0.539,19.428,119.690,42.789
19:31:50:34,12.729,-0.435,0.153,-0.579,16.522,120.417,37.781
19:31:50:367,12.756,-0.428,0.357,-0.588,14.633,121.247,33.856
19:31:50:424,12.812,-0.486,0.578,-0.503,12.202,123.365,27.468
19:31:50:424,12.812,-0.522,0.748,-0.283,10.525,126.931,20.915
19:31:50:445,12.833,-0.467,0.714,-0.086,9.930,130.128,16.675
19:31:50:5,12.888,-0.255,0.421,0.088,9.940,135.820,10.816
19:31:50:501,12.889,-0.083,0.180,0.161,10.421,140.104,7.370
19:31:50:524,12.912,0.031,-0.022,0.216,11.719,147.095,3.060
19:31:50:55,12.938,0.114,-0.157,0.300,13.535,153.931,-0.317
19:31:50:576,12.964,0.191,-0.189,0.373,14.884,158.034,-2.250
19:31:50:603,12.991,0.266,-0.225,0.364,16.980,163.276,-4.927
19:31:50:629,13.017,0.388,-0.254,0.350,18.354,166.055,-6.725
19:31:50:685,13.073,0.448,-0.263,0.296,20.221,168.930,-9.690
19:31:50:685,13.073,0.487,-0.284,0.255,21.734,170.243,-13.090
19:31:50:736,13.125,0.505,-0.284,0.231,22.537,170.494,-15.538
19:31:50:737,13.126,0.550,-0.250,0.259,23.425,170.491,-19.198
19:31:50:76,13.149,0.615,-0.211,0.290,23.865,170.632,-21.419
19:31:50:787,13.176,0.731,-0.188,0.345,24.303,171.570,-23.909
19:31:50:813,13.202,0.825,-0.174,0.309,24.339,173.241,-25.034
19:31:50:87,13.258,0.791,-0.145,0.271,24.015,174.546,-25.008
19:31:50:87,13.258,0.685,-0.190,0.131,23.068,176.770,-23.728
19:31:50:891,13.279,0.720,-0.067,0.126,22.019,178.086,-22.294
19:31:50:918,13.306,0.726,-0.020,0.128,20.088,179.425,-19.590
19:31:50:944,13.332,0.709,0.059,0.129,17.806,179.834,-16.389
19:31:50:97,13.358,0.665,0.162,0.121,16.171,179.520,-13.947
19:31:50:997,13.385,0.542,0.342,0.110,13.697,178.000,-9.746
19:31:51:023,13.411,0.392,0.484,0.040,12.228,176.287,-6.468
19:31:51:102,13.491,0.147,0.509,-0.094,10.746,172.890,-0.659
19:31:51:163,13.552,-0.063,0.479,-0.154,10.463,169.213,6.188
19:31:51:163,13.552,-0.175,0.483,-0.199,11.017,166.926,11.107
19:31:51:164,13.553,-0.371,0.384,-0.275,13.075,163.731,18.544
19:31:51:165,13.554,-0.462,0.179,-0.233,15.144,162.136,23.390
19:31:51:181,13.570,-0.476,0.047,-0.209,18.789,160.944,30.282
19:31:51:264,13.652,-0.489,-0.145,-0.229,21.441,160.718,34.520
19:31:51:265,13.653,-0.497,-0.282,-0.281,25.696,161.035,40.229
19:31:51:266,13.654,-0.475,-0.506,-0.285,29.844,162.259,45.158
19:31:51:317,13.705,-0.432,-0.618,-0.213,32.009,163.723,47.952
19:31:51:318,13.706,-0.344,-0.660,-0.131,33.588,166.186,51.016
19:31:51:319,13.707,-0.289,-0.613,-0.108,33.333,168.338,52.052
19:31:51:338,13.726,-0.275,-0.484,-0.104,31.382,170.538,51.843
19:31:51:393,13.781,-0.436,-0.291,-0.064,28.416,172.157,49.428
19:31:51:394,13.782,-0.524,-0.157,-0.040,26.262,172.951,46.601
19:31:51:475,13.864,-0.691,0.031,0.094,23.174,174.007,40.951
19:31:51:475,13.864,-0.742,0.237,0.177,21.163,174.997,36.554
19:31:51:476,13.865,-0.745,0.578,0.265,18.370,177.282,29.451
19:31:51:495,13.884,-0.664,0.737,0.387,16.987,179.535,24.803
19:31:51:579,13.968,-0.416,0.697,0.466,15.807,-175.676,18.460
19:31:51:58,13.969,-0.140,0.519,0.444,15.703,-169.751,13.074
19:31:51:581,13.970,0.013,0.303,0.382,16.113,-165.567,10.054
19:31:51:6,13.989,0.180,0.036,0.253,17.184,-159.110,6.349
19:31:51:627,14.015,0.319,-0.107,0.173,18.094,-154.859,4.293
19:31:51:653,14.041,0.370,-0.163,0.126,19.678,-149.087,1.548
19:31:51:708,14.097,0.440,-0.211,0.109,21.480,-144.443,-1.091
19:31:51:709,14.098,0.501,-0.189,0.082,22.725,-142.019,-2.913
19:31:51:732,14.120,0.551,-0.168,-0.006,24.575,-139.534,-5.910
19:31:51:758,14.146,0.558,-0.177,-0.035,25.769,-138.540,-8.077
19:31:51:784,14.172,0.580,-0.177,-0.073,27.392,-137.459,-11.495
19:31:51:839,14.228,0.565,-0.224,-0.180,28.782,-136.430,-14.837
19:31:51:84,14.229,0.596,-0.191,-0.254,29.523,-135.677,-16.920
19:31:51:862,14.251,0.723,-0.175,-0.356,30.347,-134.434,-19.699
19:31:51:889,14.278,0.789,-0.231,-0.385,30.687,-133.640,-21.185
19:31:51:944,14.333,0.801,-0.244,-0.395,30.712,-132.344,-22.457
19:31:51:944,14.333,0.583,-0.298,-0.380,30.387,-131.404,-22.533
19:31:51:968,14.357,0.604,-0.195,-0.391,29.309,-130.238,-21.722
19:31:51:994,14.383,0.739,-0.108,-0.441,27.554,-130.039,-20.278
19:31:52:02,14.409,0.853,-0.012,-0.424,26.121,-130.550,-19.156
19:31:52:046,14.435,0.872,0.157,-0.386,23.565,-132.292,-17.189
19:31:52:073,14.462,0.718,0.388,-0.216,21.675,-134.078,-15.514
19:31:52:099,14.488,0.566,0.469,-0.099,18.964,-137.318,-12.052
19:31:52:125,14.513,0.359,0.379,-0.020,16.865,-140.414,-7.074
19:31:52:152,14.540,0.240,0.313,0.028,15.873,-142.350,-2.986
19:31:52:178,14.566,0.110,0.251,0.097,14.961,-144.870,4.041
19:31:52:204,14.592,0.017,0.247,0.142,14.746,-146.367,9.099
19:31:52:23,14.618,-0.092,0.211,0.229,15.028,-148.527,16.915
19:31:52:257,14.645,-0.157,0.172,0.266,15.705,-150.025,22.042
19:31:52:283,14.671,-0.279,0.000,0.302,17.787,-152.708,29.197
19:31:52:308,14.697,-0.377,-0.146,0.312,21.292,-155.750,35.371
19:31:52:335,14.724,-0.425,-0.271,0.308,24.276,-157.762,38.833
19:31:52:362,14.751,-0.516,-0.358,0.278,29.025,-160.373,42.984
19:31:52:388,14.777,-0.610,-0.465,0.325,31.905,-161.693,45.032
19:31:52:442,14.831,-0.622,-0.517,0.314,34.812,-163.157,47.008
19:31:52:47,14.859,-0.609,-0.448,0.368,35.422,-163.047,47.566
19:31:52:47,14.859,-0.601,-0.352,0.395,34.544,-162.622,47.062
19:31:52:492,14.880,-0.575,-0.239,0.400,32.002,-161.616,45.051
19:31:52:52,14.908,-0.577,-0.120,0.355,29.876,-161.626,42.911
19:31:52:545,14.933,-0.560,0.059,0.358,26.762,-160.946,38.767
19:31:52:572,14.960,-0.575,0.291,0.458,24.203,-160.530,33.785
19:31:52:598,14.986,-0.516,0.409,0.570,22.811,-160.132,30.127
19:31:52:624,15.012,-0.334,0.402,0.565,21.114,-159.016,24.370
19:31:52:65,15.038,-0.188,0.301,0.421,20.208,-157.626,20.595
19:31:52:705,15.094,-0.085,0.169,0.285,19.138,-154.213,15.466
19:31:52:706,15.095,0.019,0.017,0.113,18.627,-151.285,12.485
19:31:52:729,15.118,0.090,-0.050,0.073,18.319,-146.396,8.596
19:31:52:755,15.144,0.240,-0.110,0.037,18.524,-141.547,5.197
19:31:52:782,15.171,0.300,-0.134,-0.018,18.917,-138.673,3.069
19:31:52:836,15.225,0.349,-0.096,-0.118,19.762,-135.454,-0.179
19:31:52:837,15.226,0.370,-0.059,-0.163,20.439,-134.112,-2.459
19:31:52:86,15.248,0.395,-0.056,-0.182,21.518,-132.851,-5.991
19:31:52:886,15.274,0.455,-0.043,-0.229,22.583,-131.799,-9.507
19:31:52:913,15.301,0.497,-0.033,-0.269,23.287,-130.983,-11.776
19:31:52:939,15.327,0.622,-0.008,-0.376,24.305,-129.930,-14.895
19:31:52:965,15.353,0.668,-0.019,-0.458,24.917,-128.744,-16.672
19:31:52:991,15.379,0.700,-0.148,-0.528,25.655,-127.200,-18.375
19:31:53:018,15.406,0.669,-0.097,-0.442,25.878,-125.602,-18.820
19:31:53:044,15.432,0.619,-0.156,-0.425,25.738,-124.449,-18.472
19:31:53:07,15.458,0.587,-0.220,-0.454,24.915,-124.177,-17.355
19:31:53:097,15.485,0.710,-0.086,-0.467,23.944,-124.343,-16.359
19:31:53:124,15.512,0.772,0.116,-0.455,22.067,-126.229,-14.628
19:31:53:15,15.538,0.738,0.249,-0.357,20.632,-127.641,-13.180
19:31:53:175,15.564,0.646,0.368,-0.183,18.470,-130.580,-10.282
19:31:53:201,15.590,0.459,0.421,-0.028,16.612,-133.790,-6.200
19:31:53:227,15.616,0.336,0.392,0.045,15.706,-135.871,-2.701
19:31:53:312,15.701,0.175,0.281,0.135,14.923,-138.495,3.600
19:31:53:313,15.702,0.076,0.272,0.200,14.704,-139.925,8.320
19:31:53:314,15.703,-0.021,0.247,0.262,14.838,-141.942,15.781
19:31:53:362,15.751,-0.145,0.160,0.310,15.723,-144.125,23.281
19:31:53:362,15.751,-0.197,0.124,0.308,16.872,-145.752,28.116
19:31:53:385,15.773,-0.347,0.005,0.351,19.977,-148.646,34.908
19:31:53:412,15.800,-0.482,-0.208,0.443,23.098,-150.676,39.051
19:31:53:438,15.826,-0.579,-0.446,0.451,28.768,-153.225,44.536
19:31:53:464,15.852,-0.609,-0.571,0.402,34.090,-154.678,48.897
19:31:53:52,15.908,-0.610,-0.572,0.381,36.769,-155.142,51.046
19:31:53:521,15.909,-0.613,-0.557,0.415,38.645,-154.618,53.095
19:31:53:546,15.934,-0.591,-0.455,0.512,38.262,-153.613,53.669
19:31:53:546,15.934,-0.522,-0.389,0.535,35.728,-151.507,53.165
19:31:53:569,15.957,-0.509,-0.245,0.535,33.368,-150.321,51.931
19:31:53:594,15.983,-0.532,-0.106,0.560,29.636,-148.743,48.772
19:31:53:621,16.010,-0.581,0.118,0.604,26.385,-147.887,44.271
19:31:53:647,16.036,-0.565,0.228,0.621,24.607,-147.551,40.707
19:31:53:674,16.063,-0.449,0.294,0.604,22.333,-147.133,34.839
19:31:53:7,16.089,-0.351,0.292,0.541,20.966,-146.642,30.781
19:31:53:756,16.144,-0.189,0.200,0.411,19.154,-145.367,24.760
19:31:53:757,16.145,-0.056,0.083,0.265,17.696,-143.394,19.011
19:31:53:779,16.167,0.035,0.017,0.196,16.957,-141.681,15.397
19:31:53:834,16.222,0.151,-0.039,0.092,16.234,-138.659,10.345
19:31:53:835,16.223,0.215,-0.043,0.073,16.054,-136.523,7.234
19:31:53:86,16.248,0.296,-0.022,-0.005,16.109,-133.242,2.865
19:31:53:884,16.272,0.354,0.073,-0.149,16.447,-130.097,-1.216
19:31:53:939,16.327,0.375,0.103,-0.241,16.785,-128.483,-3.892
19:31:53:94,16.328,0.434,0.047,-0.304,17.372,-126.578,-7.846
19:31:53:962,16.351,0.425,-0.058,-0.356,17.762,-126.136,-10.388
19:31:54:021,16.410,0.440,-0.052,-0.496,18.190,-125.123,-13.896
19:31:54:021,16.410,0.469,-0.029,-0.571,18.343,-125.063,-15.966
19:31:54:041,16.430,0.516,-0.097,-0.609,18.434,-124.498,-18.365
19:31:54:067,16.456,0.540,-0.102,-0.578,18.362,-124.229,-19.572
19:31:54:123,16.512,0.479,-0.124,-0.523,18.194,-123.608,-19.648
19:31:54:124,16.513,0.385,-0.178,-0.532,17.862,-122.654,-18.672
19:31:54:147,16.536,0.433,-0.112,-0.525,17.526,-121.979,-17.435
19:31:54:173,16.562,0.587,0.121,-0.515,16.926,-121.190,-14.876
19:31:54:198,16.587,0.588,0.371,-0.463,16.120,-120.922,-11.653
19:31:54:225,16.614,0.490,0.460,-0.333,15.558,-121.147,-9.086
19:31:54:251,16.639,0.344,0.478,-0.152,14.825,-121.776,-4.404
19:31:54:278,16.666,0.199,0.449,-0.051,14.422,-122.277,-0.667
19:31:54:418,16.806,0.083,0.386,0.055,14.015,-123.077,5.842
19:31:54:419,16.807,0.012,0.312,0.139,13.910,-123.551,10.716
19:31:54:42,16.808,-0.102,0.270,0.212,14.146,-124.494,18.477
19:31:54:421,16.809,-0.204,0.220,0.331,15.327,-126.039,26.365
19:31:54:438,16.827,-0.234,0.120,0.400,16.918,-127.249,31.515
19:31:54:438,16.827,-0.278,-0.030,0.472,20.662,-129.006,38.850
19:31:54:462,16.851,-0.319,-0.171,0.496,24.052,-130.029,43.399
19:31:54:488,16.877,-0.399,-0.372,0.537,30.127,-131.165,49.604
19:31:54:514,16.903,-0.430,-0.523,0.487,36.450,-131.618,54.799
19:31:54:54,16.929,-0.422,-0.595,0.469,40.446,-131.648,57.747
19:31:54:566,16.955,-0.390,-0.616,0.412,44.085,-131.641,60.516
19:31:54:622,17.010,-0.369,-0.570,0.399,45.187,-131.297,61.462
19:31:54:622,17.010,-0.380,-0.543,0.420,44.971,-131.040,61.541
19:31:54:674,17.063,-0.374,-0.433,0.571,42.732,-130.502,59.888
19:31:54:674,17.063,-0.429,-0.341,0.684,40.370,-130.260,57.771
19:31:54:697,17.086,-0.422,-0.156,0.791,35.723,-129.687,53.105
19:31:54:724,17.112,-0.437,-0.029,0.819,32.196,-129.036,49.168
19:31:54:75,17.138,-0.383,0.197,0.850,26.735,-127.258,42.504
19:31:54:777,17.165,-0.299,0.407,0.819,23.341,-125.406,37.804
19:31:54:832,17.220,-0.126,0.529,0.734,19.283,-121.804,30.544
19:31:54:833,17.221,0.068,0.446,0.491,16.818,-117.529,23.359
19:31:54:857,17.245,0.143,0.331,0.362,15.957,-114.393,18.770
19:31:54:882,17.270,0.232,0.104,0.121,15.513,-109.195,12.582
19:31:54:908,17.297,0.279,0.013,0.018,15.625,-105.588,9.039
19:31:54:934,17.322,0.302,0.013,-0.071,16.229,-100.075,4.655
19:31:54:96,17.348,0.322,0.035,-0.211,17.242,-94.658,1.238
19:31:54:987,17.375,0.280,0.012,-0.340,18.063,-91.364,-0.658
19:31:55:013,17.401,0.237,0.013,-0.441,19.279,-87.534,-3.295
19:31:55:04,17.428,0.218,-0.051,-0.506,20.003,-85.933,-5.104
19:31:55:094,17.483,0.181,-0.150,-0.549,20.898,-84.551,-7.923
19:31:55:094,17.483,0.142,-0.156,-0.597,21.298,-84.275,-9.808
19:31:55:117,17.506,0.092,-0.131,-0.624,21.567,-83.929,-12.441
19:31:55:144,17.533,0.101,-0.082,-0.711,21.515,-83.671,-14.421
19:31:55:172,17.561,0.133,-0.029,-0.764,21.291,-83.212,-15.177
19:31:55:197,17.586,0.083,-0.146,-0.687,20.685,-82.597,-15.279
19:31:55:223,17.612,0.052,0.039,-0.651,19.612,-81.731,-14.183
19:31:55:249,17.638,0.041,-0.046,-0.586,18.796,-81.191,-12.816
19:31:55:275,17.663,0.087,0.037,-0.575,17.448,-80.455,-9.900
19:31:55:358,17.746,0.113,0.112,-0.498,16.485,-80.214,-7.512
19:31:55:359,17.747,0.088,0.244,-0.394,14.909,-80.495,-3.336
19:31:55:383,17.771,0.067,0.419,-0.186,13.862,-81.205,-0.108
19:31:55:384,17.772,0.038,0.462,-0.043,12.560,-82.764,5.532
19:31:55:407,17.795,-0.044,0.494,0.149,11.857,-84.685,12.101
19:31:55:461,17.850,-0.063,0.452,0.273,11.885,-86.184,16.856
19:31:55:462,17.851,-0.087,0.359,0.414,12.907,-88.675,24.278
19:31:55:485,17.874,-0.111,0.250,0.567,14.435,-90.484,29.213
19:31:55:511,17.900,-0.106,0.096,0.643,18.195,-92.984,36.288
19:31:55:538,17.926,-0.093,-0.115,0.645,23.256,-94.678,42.780
19:31:55:564,17.952,-0.108,-0.275,0.634,27.049,-95.348,46.699
19:31:55:59,17.978,-0.148,-0.502,0.600,32.780,-95.603,51.914
19:31:55:617,18.005,-0.136,-0.614,0.561,36.152,-95.309,54.894
19:31:55:643,18.031,-0.131,-0.688,0.486,39.758,-94.408,58.423
19:31:55:669,18.058,-0.093,-0.645,0.465,40.801,-93.653,59.944
19:31:55:724,18.113,-0.066,-0.595,0.456,40.126,-92.564,60.697
19:31:55:725,18.114,-0.016,-0.459,0.547,37.226,-91.477,59.578
19:31:55:776,18.165,0.088,-0.368,0.721,34.514,-91.115,57.796
19:31:55:777,18.166,0.199,-0.224,0.824,29.724,-89.911,53.718
19:31:55:802,18.191,0.233,-0.003,0.888,26.387,-88.922,50.192
19:31:55:831,18.219,0.239,0.175,0.896,21.698,-86.973,44.029
19:31:55:831,18.219,0.271,0.336,0.824,17.696,-84.054,37.411
19:31:55:853,18.241,0.319,0.464,0.767,15.523,-81.414,33.010
19:31:55:908,18.296,0.402,0.509,0.522,13.178,-76.518,26.588
19:31:55:909,18.297,0.400,0.469,0.337,12.268,-72.817,22.507
19:31:55:961,18.349,0.311,0.254,0.046,11.661,-66.659,16.760
19:31:55:961,18.349,0.145,0.034,-0.140,11.661,-62.200,13.265
19:31:56:013,18.401,0.089,-0.026,-0.214,12.218,-55.594,8.622
19:31:56:014,18.402,0.002,-0.074,-0.291,13.339,-50.029,4.544
19:31:56:036,18.425,-0.067,-0.077,-0.408,14.312,-47.157,2.030
19:31:56:062,18.451,-0.121,-0.051,-0.459,15.867,-44.272,-1.614
19:31:56:088,18.477,-0.170,-0.091,-0.490,16.872,-43.204,-4.002
19:31:56:117,18.506,-0.205,-0.130,-0.479,18.166,-42.543,-7.468
19:31:56:142,18.530,-0.282,-0.161,-0.505,19.115,-42.155,-10.599
19:31:56:168,18.556,-0.329,-0.176,-0.534,19.525,-41.890,-12.356
19:31:56:194,18.582,-0.401,-0.214,-0.556,19.805,-41.237,-14.263
19:31:56:22,18.608,-0.402,-0.150,-0.614,19.748,-40.723,-14.964
19:31:56:246,18.635,-0.358,-0.070,-0.677,19.172,-40.094,-15.168
19:31:56:273,18.662,-0.387,0.047,-0.655,18.010,-39.822,-14.343
19:31:56:299,18.687,-0.366,0.119,-0.598,16.892,-39.983,-13.268
19:31:56:325,18.713,-0.330,0.118,-0.519,15.112,-40.283,-10.742
19:31:56:351,18.740,-0.258,0.198,-0.453,13.876,-40.504,-8.522
19:31:56:377,18.766,-0.212,0.295,-0.407,12.014,-41.048,-4.471
19:31:56:404,18.793,-0.120,0.396,-0.269,10.173,-42.365,0.371
19:31:56:43,18.819,-0.048,0.447,-0.182,9.060,-43.955,4.120
19:31:56:456,18.845,0.046,0.461,0.001,7.880,-47.244,10.475
19:31:56:483,18.872,0.126,0.480,0.118,7.607,-50.064,15.166
19:31:56:509,18.898,0.270,0.445,0.335,8.268,-54.699,22.561
19:31:56:535,18.924,0.326,0.376,0.487,9.547,-57.722,27.568
19:31:56:561,18.950,0.323,0.182,0.618,12.980,-61.979,34.909
19:31:56:587,18.976,0.316,0.008,0.663,17.996,-65.211,41.716
19:31:56:615,19.003,0.266,-0.163,0.653,22.058,-66.733,45.879
19:31:56:641,19.029,0.230,-0.496,0.641,28.866,-68.179,51.488
19:31:56:666,19.054,0.200,-0.619,0.610,33.194,-68.480,54.793
19:31:56:693,19.081,0.169,-0.842,0.598,38.281,-68.171,58.852
19:31:56:719,19.107,0.210,-0.816,0.587,40.260,-67.146,61.376
19:31:56:745,19.133,0.212,-0.777,0.552,39.731,-66.226,62.084
19:31:56:772,19.160,0.336,-0.567,0.601,36.436,-64.619,61.610
19:31:56:798,19.186,0.527,-0.452,0.669,33.019,-63.396,60.274
19:31:56:823,19.212,0.669,-0.275,0.701,26.901,-61.410,56.675
19:31:56:851,19.240,0.663,0.018,0.722,22.884,-60.051,53.290
19:31:56:876,19.265,0.625,0.221,0.753,18.076,-58.121,47.096
19:31:56:932,19.321,0.641,0.440,0.747,14.587,-55.917,40.158
19:31:56:933,19.322,0.646,0.517,0.647,12.876,-54.117,35.450
19:31:56:955,19.344,0.568,0.452,0.373,11.187,-50.967,28.536
19:31:56:982,19.370,0.355,0.242,0.146,10.519,-48.583,24.115
19:31:57:008,19.396,0.270,0.174,0.057,9.965,-44.433,17.994
19:31:57:034,19.422,0.149,0.053,-0.075,9.955,-39.785,12.567
19:31:57:06,19.448,0.080,0.037,-0.179,10.223,-36.481,9.301
19:31:57:116,19.504,-0.030,0.015,-0.253,11.036,-31.577,4.881
19:31:57:116,19.504,-0.133,0.056,-0.274,11.804,-28.459,2.214
19:31:57:169,19.557,-0.223,0.047,-0.301,13.219,-24.100,-1.457
19:31:57:169,19.557,-0.312,-0.010,-0.341,14.851,-20.207,-4.848
19:31:57:191,19.580,-0.374,-0.091,-0.347,15.963,-17.906,-6.969
19:31:57:217,19.606,-0.466,-0.161,-0.311,17.494,-14.945,-9.887
19:31:57:272,19.661,-0.551,-0.142,-0.328,18.316,-13.347,-11.622
19:31:57:273,19.662,-0.599,-0.181,-0.308,19.175,-11.410,-13.772
19:31:57:296,19.685,-0.679,-0.086,-0.398,19.474,-10.292,-14.753
19:31:57:322,19.711,-0.676,-0.090,-0.367,19.420,-8.820,-15.389
19:31:57:349,19.738,-0.599,0.012,-0.319,18.734,-7.642,-14.876
19:31:57:404,19.792,-0.508,-0.100,-0.238,18.052,-6.970,-13.869
19:31:57:405,19.793,-0.499,-0.039,-0.271,16.713,-6.021,-11.483
19:31:57:428,19.816,-0.492,-0.016,-0.260,15.641,-5.572,-9.473
19:31:57:454,19.842,-0.423,0.036,-0.217,13.743,-5.467,-6.066
19:31:57:507,19.895,-0.351,0.185,-0.097,11.534,-6.231,-2.156
19:31:57:536,19.924,-0.300,0.247,-0.026,10.008,-7.417,0.753
19:31:57:537,19.925,-0.139,0.356,0.116,7.967,-10.530,5.731
19:31:57:558,19.947,-0.025,0.393,0.170,7.053,-13.346,9.566
19:31:57:585,19.974,0.207,0.452,0.240,6.855,-18.146,16.005
19:31:57:611,20.000,0.397,0.396,0.281,7.603,-21.294,20.551
19:31:57:639,20.028,0.422,0.271,0.355,9.803,-25.144,27.292
19:31:57:664,20.052,0.457,0.078,0.465,13.087,-27.850,33.637
19:31:57:691,20.079,0.470,-0.123,0.500,15.769,-28.975,37.575
19:31:57:716,20.105,0.446,-0.335,0.437,19.887,-29.419,43.153
19:31:57:743,20.132,0.453,-0.413,0.416,22.478,-29.185,46.547
19:31:57:8,20.188,0.453,-0.482,0.382,25.649,-28.416,50.860
19:31:57:8,20.188,0.424,-0.517,0.372,27.569,-27.562,53.785
19:31:57:822,20.210,0.434,-0.492,0.369,28.000,-27.050,54.771
19:31:57:848,20.236,0.602,-0.451,0.370,27.043,-26.282,54.685
19:31:57:874,20.262,0.784,-0.315,0.292,25.064,-25.517,53.600
19:31:57:901,20.289,0.849,-0.147,0.277,20.488,-23.823,50.438
19:31:57:927,20.315,0.819,0.041,0.269,15.905,-21.547,45.783
19:31:57:954,20.343,0.870,0.121,0.220,13.568,-19.703,42.263
19:31:58:094,20.483,0.926,0.299,0.066,11.017,-16.233,36.760
19:31:58:094,20.483,0.836,0.437,-0.085,9.887,-13.451,33.056
19:31:58:095,20.484,0.605,0.403,-0.159,9.132,-8.931,27.566
19:31:58:095,20.484,0.300,0.196,-0.134,9.081,-5.793,23.944
19:31:58:116,20.504,0.157,0.097,-0.121,9.283,-0.677,18.629
19:31:58:117,20.506,0.018,-0.100,-0.100,9.762,4.977,13.911
19:31:58:118,20.506,-0.036,-0.169,-0.107,10.296,8.594,11.091
19:31:58:166,20.554,-0.143,-0.150,-0.136,11.340,13.350,7.129
19:31:58:166,20.554,-0.249,-0.085,-0.127,12.123,16.081,4.597
19:31:58:218,20.606,-0.348,-0.022,-0.049,13.426,19.325,0.757
19:31:58:219,20.607,-0.399,-0.026,-0.033,14.353,20.834,-1.899
19:31:58:271,20.659,-0.434,-0.065,-0.006,15.720,22.608,-5.936
19:31:58:271,20.659,-0.455,-0.107,0.063,16.927,23.978,-9.806
19:31:58:294,20.682,-0.554,-0.079,0.130,17.600,24.959,-12.149
19:31:58:32,20.709,-0.606,-0.091,0.197,18.313,26.646,-15.010
19:31:58:346,20.735,-0.718,-0.058,0.206,18.562,27.819,-16.404
19:31:58:373,20.762,-0.716,-0.088,0.230,18.460,29.549,-17.357
19:31:58:4,20.789,-0.584,-0.156,0.260,17.787,31.164,-17.035
19:31:58:425,20.814,-0.572,-0.001,0.271,16.959,32.085,-16.237
19:31:58:451,20.840,-0.560,-0.041,0.302,15.487,32.891,-14.351
19:31:58:478,20.867,-0.585,0.013,0.278,14.361,33.108,-12.833
19:31:58:504,20.892,-0.578,0.031,0.265,12.508,32.482,-10.265
19:31:58:53,20.918,-0.472,0.153,0.225,10.495,30.657,-7.320
19:31:58:586,20.974,-0.384,0.207,0.190,9.219,28.740,-5.006
19:31:58:586,20.974,-0.160,0.319,0.175,7.657,25.016,-0.701
19:31:58:639,21.027,0.056,0.374,0.133,7.023,22.284,2.845
19:31:58:662,21.050,0.355,0.397,0.058,7.540,15.696,16.396
19:31:58:689,21.077,0.461,0.379,-0.005,8.470,14.216,21.412
19:31:58:714,21.103,0.545,0.249,-0.070,10.464,12.710,28.839
19:31:58:741,21.130,0.527,0.032,-0.055,12.187,12.001,33.534
19:31:58:766,21.155,0.517,-0.121,-0.020,15.423,11.021,39.961
19:31:58:82,21.209,0.543,-0.383,-0.019,22.404,9.684,48.778
19:31:58:846,21.235,0.520,-0.523,-0.036,26.717,9.167,52.661
19:31:58:871,21.259,0.501,-0.560,-0.030,28.943,8.976,54.495
19:31:58:898,21.286,0.463,-0.569,-0.027,30.620,8.763,55.846
19:31:58:925,21.313,0.505,-0.467,-0.032,30.495,8.594,55.733
19:31:58:951,21.339,0.574,-0.335,-0.068,28.729,8.191,53.995
19:31:58:977,21.365,0.691,-0.231,-0.047,25.977,7.757,50.720
19:31:59:003,21.391,0.762,-0.153,-0.099,23.981,7.704,48.026
19:31:59:029,21.417,0.786,-0.039,-0.179,20.914,8.363,43.638
19:31:59:056,21.444,0.795,0.099,-0.265,18.844,9.376,40.541
19:31:59:11,21.499,0.756,0.279,-0.376,15.886,11.913,35.655
19:31:59:111,21.500,0.595,0.405,-0.437,14.068,14.339,32.276
19:31:59:135,21.524,0.411,0.438,-0.416,11.659,19.125,27.002
19:31:59:161,21.550,0.179,0.358,-0.217,9.816,24.925,21.504
19:31:59:246,21.635,0.077,0.205,-0.030,9.056,29.093,17.830
19:31:59:246,21.635,-0.033,0.079,0.045,8.768,35.069,12.512
19:31:59:247,21.636,-0.130,0.142,-0.008,9.023,38.314,9.051
19:31:59:265,21.654,-0.289,0.187,0.056,9.808,41.714,3.966
19:31:59:291,21.680,-0.313,0.037,0.208,10.809,43.276,-1.014
19:31:59:347,21.736,-0.297,-0.099,0.325,11.444,43.396,-4.297
19:31:59:347,21.736,-0.304,-0.081,0.357,12.135,42.382,-9.077
19:31:59:37,21.759,-0.398,-0.067,0.287,12.457,41.418,-12.055
19:31:59:397,21.785,-0.468,-0.126,0.332,12.991,40.635,-15.937
19:31:59:423,21.811,-0.490,-0.271,0.400,13.705,40.778,-18.869
19:31:59:45,21.838,-0.530,-0.238,0.396,14.191,41.287,-20.111
19:31:59:475,21.863,-0.522,-0.237,0.429,14.775,42.248,-20.870
19:31:59:502,21.890,-0.466,-0.318,0.428,14.872,42.564,-20.795
19:31:59:528,21.916,-0.467,-0.452,0.407,14.564,42.392,-20.099
19:31:59:555,21.943,-0.552,-0.350,0.321,14.058,41.836,-19.378
19:31:59:58,21.969,-0.605,-0.230,0.350,12.804,40.395,-18.110
19:31:59:606,21.995,-0.582,-0.007,0.384,11.158,38.051,-16.708
19:31:59:632,22.021,-0.636,0.222,0.441,9.893,35.955,-15.691
19:31:59:658,22.047,-0.711,0.596,0.211,8.130,31.997,-13.789
19:31:59:685,22.074,-0.696,0.646,0.085,7.262,29.487,-11.891
19:31:59:711,22.100,-0.368,0.475,-0.004,6.654,26.566,-8.078
19:31:59:737,22.126,-0.057,0.230,0.015,6.677,25.164,-2.682
19:31:59:764,22.152,0.024,0.200,0.001,6.794,24.953,1.809
19:31:59:79,22.178,0.056,0.233,-0.045,6.881,25.644,9.420
19:31:59:817,22.205,0.102,0.266,-0.122,6.721,26.463,14.816
19:31:59:843,22.231,0.184,0.284,-0.180,6.201,27.417,23.059
19:31:59:869,22.257,0.274,0.213,-0.192,5.970,27.372,28.392
19:31:59:895,22.283,0.400,0.102,-0.221,6.778,25.812,35.855
19:31:59:922,22.310,0.520,-0.053,-0.269,9.815,22.968,42.489
19:31:59:948,22.336,0.564,-0.161,-0.281,13.178,20.896,46.332
19:31:59:973,22.362,0.603,-0.323,-0.246,19.595,18.072,51.031
19:32:00:,22.389,0.634,-0.468,-0.215,24.158,16.533,53.424
19:32:00:026,22.415,0.655,-0.542,-0.212,29.870,14.984,55.907
19:32:00:053,22.442,0.714,-0.558,-0.206,32.516,14.453,56.977
19:32:00:079,22.468,0.706,-0.519,-0.229,32.257,14.628,56.846
19:32:00:106,22.495,0.691,-0.399,-0.308,29.221,15.487,55.458
19:32:00:133,22.521,0.637,-0.328,-0.228,25.944,16.287,53.763
19:32:00:158,22.546,0.686,-0.195,-0.177,20.786,17.400,50.193
19:32:00:184,22.572,0.745,0.048,-0.231,16.703,18.064,45.640
19:32:00:21,22.598,0.728,0.161,-0.298,14.877,18.301,42.066
19:32:00:237,22.625,0.622,0.248,-0.406,12.848,18.717,35.888
19:32:00:295,22.683,0.445,0.217,-0.314,11.543,19.344,31.352
19:32:00:296,22.684,0.318,0.248,-0.203,9.497,21.271,24.164
19:32:00:296,22.684,0.134,0.223,-0.018,7.766,24.282,16.810
19:32:00:316,22.704,0.010,0.203,0.077,7.021,26.635,11.943
19:32:00:341,22.730,-0.166,0.174,0.082,6.586,29.806,4.879
19:32:00:367,22.756,-0.296,0.148,0.127,6.638,31.388,0.393
19:32:00:423,22.812,-0.401,0.032,0.253,6.894,32.709,-5.847
19:32:00:424,22.813,-0.430,-0.024,0.334,7.017,33.009,-9.528
19:32:00:476,22.864,-0.466,-0.073,0.408,7.049,33.006,-14.139
19:32:00:476,22.864,-0.480,-0.088,0.416,6.967,33.033,-17.570
19:32:00:499,22.887,-0.500,-0.143,0.466,6.906,33.206,-19.253
19:32:00:525,22.913,-0.541,-0.162,0.545,6.821,34.027,-20.975
19:32:00:552,22.940,-0.576,-0.185,0.544,6.851,34.623,-21.562
19:32:00:578,22.966,-0.574,-0.137,0.539,7.079,36.624,-21.551
19:32:00:603,22.992,-0.524,-0.149,0.515,7.406,38.589,-20.391
19:32:00:63,23.019,-0.494,-0.162,0.528,7.516,40.340,-19.027
19:32:00:659,23.048,-0.508,-0.100,0.486,7.311,41.497,-16.335
19:32:00:682,23.071,-0.557,0.052,0.462,6.940,41.660,-14.221
19:32:00:709,23.098,-0.547,0.385,0.397,6.090,40.672,-10.626
19:32:00:735,23.124,-0.417,0.541,0.336,5.528,39.394,-7.832
19:32:00:761,23.149,-0.220,0.586,0.156,5.007,36.912,-2.797
19:32:00:788,23.176,-0.038,0.601,0.043,4.935,34.403,3.390
19:32:00:816,23.204,0.113,0.510,-0.025,5.169,32.760,8.133
19:32:00:841,23.229,0.274,0.419,-0.088,5.966,30.577,16.025
19:32:00:867,23.255,0.409,0.372,-0.178,6.893,29.279,21.634
19:32:00:893,23.281,0.519,0.290,-0.266,9.046,27.558,30.246
19:32:00:949,23.337,0.605,0.128,-0.298,12.544,26.131,38.705
19:32:00:949,23.337,0.646,-0.010,-0.311,16.066,25.226,44.023
19:32:01:,23.389,0.674,-0.356,-0.321,23.386,24.169,51.327
19:32:01:001,23.390,0.648,-0.588,-0.313,29.143,23.925,55.683
19:32:01:024,23.413,0.611,-0.685,-0.265,37.691,24.321,61.355
19:32:01:05,23.439,0.556,-0.860,-0.212,44.466,25.393,65.775
19:32:01:076,23.465,0.500,-0.847,-0.230,47.016,26.348,67.885
19:32:01:161,23.549,0.460,-0.764,-0.261,47.443,28.379,69.553
19:32:01:162,23.550,0.518,-0.646,-0.294,45.757,29.081,69.607
19:32:01:162,23.550,0.624,-0.542,-0.404,41.009,29.764,68.013
19:32:01:211,23.599,0.684,-0.462,-0.507,36.823,30.033,65.874
19:32:01:213,23.601,0.764,-0.262,-0.616,29.844,30.230,61.126
19:32:01:234,23.622,0.922,0.020,-0.595,23.216,30.334,54.811
19:32:01:262,23.650,0.957,0.199,-0.606,19.351,30.551,49.975
19:32:01:287,23.675,0.896,0.429,-0.653,14.528,31.600,42.222
19:32:01:342,23.731,0.602,0.413,-0.590,11.855,33.035,36.920
19:32:01:342,23.731,0.390,0.389,-0.426,8.671,36.261,28.937
19:32:01:453,23.842,0.202,0.292,-0.257,6.644,40.405,21.154
19:32:01:454,23.843,0.076,0.210,-0.133,5.815,43.614,16.245
19:32:01:454,23.843,-0.115,0.166,-0.020,5.342,48.660,9.380
19:32:01:455,23.844,-0.195,0.150,0.055,5.477,51.941,5.182
19:32:01:47,23.859,-0.272,0.184,0.156,6.147,56.497,-0.460
19:32:01:497,23.885,-0.311,0.132,0.279,6.796,59.276,-3.781
19:32:01:551,23.940,-0.308,0.049,0.375,7.948,63.066,-8.195
19:32:01:553,23.942,-0.303,-0.010,0.520,9.070,66.386,-12.141
19:32:01:576,23.965,-0.324,-0.076,0.601,9.729,68.082,-14.610
19:32:01:602,23.991,-0.335,-0.146,0.710,10.503,70.748,-18.090
19:32:01:628,24.017,-0.341,-0.230,0.842,10.813,71.693,-20.162
19:32:01:654,24.043,-0.350,-0.134,0.952,10.829,73.515,-22.523
19:32:01:68,24.069,-0.305,0.058,0.969,10.253,74.554,-23.516
19:32:01:706,24.095,-0.242,0.110,0.917,9.493,75.425,-23.334
19:32:01:733,24.121,-0.096,-0.286,0.651,8.249,75.967,-21.783
19:32:01:759,24.147,-0.099,-0.334,0.605,7.375,76.483,-19.967
19:32:01:785,24.173,-0.092,-0.245,0.600,5.881,76.802,-16.393
19:32:01:841,24.229,-0.079,0.019,0.603,4.206,76.448,-12.007
19:32:01:841,24.229,-0.045,0.227,0.572,3.040,75.608,-8.666
19:32:01:864,24.252,0.106,0.517,0.404,1.492,73.324,-2.906
19:32:01:89,24.278,0.268,0.611,0.223,0.874,71.197,1.509
19:32:01:916,24.305,0.415,0.633,-0.050,0.938,67.667,9.059
19:32:01:972,24.361,0.496,0.579,-0.259,1.759,65.570,14.558
19:32:01:972,24.361,0.519,0.474,-0.435,4.055,63.302,23.120
19:32:01:995,24.383,0.483,0.270,-0.514,7.250,62.430,31.535
19:32:02:022,24.410,0.435,0.102,-0.540,9.789,62.475,36.906
19:32:02:048,24.436,0.451,-0.152,-0.540,14.446,62.909,44.330
19:32:02:074,24.462,0.433,-0.416,-0.569,18.174,63.377,48.817
19:32:02:131,24.519,0.408,-0.584,-0.546,23.990,64.517,54.654
19:32:02:132,24.520,0.314,-0.766,-0.430,28.623,66.062,59.318
19:32:02:152,24.541,0.283,-0.781,-0.367,30.179,67.129,61.444
19:32:02:178,24.567,0.259,-0.702,-0.346,29.800,68.495,62.798
19:32:02:205,24.594,0.291,-0.529,-0.448,28.057,69.174,62.377
19:32:02:231,24.620,0.252,-0.373,-0.644,24.391,70.032,59.866
19:32:02:258,24.647,0.113,-0.270,-0.839,21.519,70.720,57.118
19:32:02:284,24.673,0.085,-0.154,-0.836,16.928,72.054,51.728
19:32:02:31,24.699,0.209,0.057,-0.873,12.838,73.839,45.267
19:32:02:336,24.724,0.229,0.251,-0.914,10.520,75.454,40.535
19:32:02:392,24.780,0.039,0.572,-0.889,7.804,79.038,33.080
19:32:02:393,24.781,-0.176,0.625,-0.604,6.633,82.121,27.895
19:32:02:416,24.804,-0.252,0.545,-0.370,5.827,87.425,19.914
19:32:02:443,24.831,-0.212,0.420,-0.111,5.733,93.946,12.180
19:32:02:471,24.859,-0.132,0.268,0.057,6.146,98.914,7.398
19:32:02:472,24.860,-0.073,0.125,0.260,7.659,106.439,0.902
19:32:02:524,24.913,-0.106,0.079,0.435,9.186,111.024,-2.958
19:32:02:524,24.913,-0.068,0.000,0.578,11.951,116.787,-8.078
19:32:02:546,24.935,0.051,-0.084,0.698,14.760,120.716,-12.608
19:32:02:572,24.961,0.132,-0.152,0.699,16.384,122.162,-15.400
19:32:02:599,24.988,0.209,-0.249,0.690,18.258,122.962,-19.331
19:32:02:625,25.014,0.260,-0.280,0.700,19.134,122.997,-21.725
19:32:02:651,25.040,0.296,-0.284,0.744,19.965,122.910,-24.823
19:32:02:678,25.067,0.355,-0.301,0.790,20.326,123.046,-26.483
19:32:02:734,25.122,0.398,-0.326,0.863,20.568,123.548,-28.276
19:32:02:734,25.122,0.390,-0.304,0.924,20.269,124.319,-29.073
19:32:02:757,25.145,0.404,-0.344,0.883,19.764,124.995,-28.960
19:32:02:785,25.173,0.458,-0.198,0.814,18.346,126.045,-27.795
19:32:02:81,25.198,0.427,-0.200,0.734,17.090,126.667,-26.388
19:32:02:836,25.224,0.412,-0.112,0.732,14.857,127.428,-23.391
19:32:02:862,25.250,0.381,0.055,0.705,12.246,127.481,-19.591
19:32:02:888,25.276,0.362,0.216,0.670,10.317,126.861,-16.664
19:32:02:944,25.333,0.310,0.377,0.542,7.377,124.728,-11.585
19:32:02:944,25.333,0.240,0.456,0.371,5.610,122.548,-7.645
19:32:02:966,25.355,0.140,0.504,0.145,3.631,118.628,-0.844
19:32:02:993,25.382,0.095,0.558,-0.078,2.837,115.752,4.244
19:32:03:019,25.408,0.045,0.562,-0.277,2.622,111.203,12.449
19:32:03:046,25.435,-0.013,0.494,-0.438,3.645,107.113,20.849
19:32:03:071,25.459,0.010,0.352,-0.582,5.129,104.544,26.357
19:32:03:098,25.486,0.010,0.072,-0.608,8.692,101.416,34.026
19:32:03:125,25.513,-0.041,-0.147,-0.587,11.650,100.164,38.720
19:32:03:15,25.539,-0.052,-0.312,-0.594,16.509,99.290,45.107
19:32:03:177,25.566,-0.070,-0.540,-0.556,21.336,99.321,50.582
19:32:03:232,25.621,-0.069,-0.607,-0.510,24.042,99.698,53.601
19:32:03:232,25.621,-0.052,-0.635,-0.479,26.793,100.416,56.893
19:32:03:255,25.644,-0.042,-0.598,-0.451,27.601,100.853,58.093
19:32:03:281,25.670,-0.078,-0.543,-0.478,27.287,101.386,58.355
19:32:03:308,25.696,-0.193,-0.409,-0.579,25.260,101.859,56.762
19:32:03:334,25.722,-0.230,-0.351,-0.639,23.301,102.179,54.729
19:32:03:361,25.749,-0.301,-0.171,-0.747,19.861,102.886,50.368
19:32:03:386,25.775,-0.338,0.004,-0.824,17.413,103.724,46.767
19:32:03:413,25.802,-0.453,0.290,-0.864,13.800,105.839,40.545
19:32:03:439,25.828,-0.558,0.517,-0.814,11.602,108.102,36.017
19:32:03:465,25.854,-0.548,0.671,-0.523,8.905,112.917,28.907
19:32:03:491,25.880,-0.371,0.588,-0.227,7.357,118.834,21.634
19:32:03:517,25.905,-0.209,0.376,-0.087,6.975,123.050,16.859
19:32:03:544,25.932,0.013,0.156,0.089,7.205,129.569,10.154
19:32:03:571,25.959,0.020,0.010,0.213,7.917,133.532,6.066
19:32:03:597,25.985,0.056,-0.024,0.335,9.554,138.199,0.422
19:32:03:624,26.012,0.092,-0.005,0.479,11.494,141.560,-4.647
19:32:03:65,26.038,0.150,0.010,0.530,12.815,143.194,-7.789
19:32:03:676,26.064,0.255,-0.004,0.544,14.751,145.081,-12.175
19:32:03:702,26.090,0.315,-0.071,0.548,16.024,146.172,-14.882
19:32:03:727,26.116,0.421,-0.186,0.551,17.824,147.879,-18.568
19:32:03:754,26.143,0.528,-0.231,0.538,18.872,149.045,-20.788
19:32:03:78,26.169,0.633,-0.286,0.517,20.115,150.753,-23.707
19:32:03:806,26.195,0.698,-0.337,0.531,20.864,152.375,-25.879
19:32:03:833,26.222,0.733,-0.273,0.585,21.056,153.471,-26.759
19:32:03:859,26.248,0.679,-0.341,0.487,20.799,155.094,-27.150
19:32:03:885,26.273,0.705,-0.277,0.409,20.338,156.163,-26.797
19:32:03:912,26.300,0.713,-0.232,0.392,19.061,157.507,-25.422
19:32:03:938,26.326,0.751,-0.051,0.526,17.323,158.410,-23.049
19:32:03:964,26.352,0.726,0.009,0.545,15.967,158.658,-21.061
19:32:03:99,26.378,0.671,0.116,0.471,13.568,158.174,-17.609
19:32:04:017,26.405,0.578,0.261,0.351,11.722,157.015,-14.947
19:32:04:043,26.431,0.477,0.378,0.209,8.920,153.909,-10.119
19:32:04:069,26.457,0.341,0.531,0.000,6.695,149.342,-3.918
19:32:04:096,26.485,0.208,0.635,-0.088,5.903,145.716,1.048
19:32:04:122,26.511,-0.115,0.784,-0.189,6.199,140.269,9.561
19:32:04:148,26.537,-0.291,0.786,-0.267,7.423,137.140,15.577
19:32:04:173,26.562,-0.469,0.516,-0.576,10.848,133.319,24.422
19:32:04:2,26.589,-0.362,0.256,-0.606,14.158,131.946,29.804
19:32:04:226,26.615,-0.375,-0.055,-0.635,19.888,131.797,37.375
19:32:04:253,26.642,-0.389,-0.435,-0.632,25.574,133.267,44.425
19:32:04:279,26.667,-0.381,-0.609,-0.486,28.626,135.076,48.821
19:32:04:305,26.693,-0.311,-0.814,-0.417,31.432,138.311,54.641
19:32:04:332,26.720,-0.249,-0.789,-0.331,31.725,140.446,57.683
19:32:04:358,26.746,-0.207,-0.727,-0.274,30.269,143.181,60.370
19:32:04:442,26.831,-0.193,-0.590,-0.218,27.531,144.850,60.638
19:32:04:443,26.832,-0.298,-0.501,-0.217,25.858,145.396,59.445
19:32:04:444,26.833,-0.562,-0.358,-0.251,24.019,145.447,55.612
19:32:04:464,26.853,-0.760,-0.204,-0.306,23.033,145.150,51.684
19:32:04:489,26.878,-0.815,0.060,-0.314,21.412,144.671,44.111
19:32:04:515,26.904,-0.824,0.236,-0.381,20.310,144.662,38.336
19:32:04:571,26.959,-0.925,0.565,-0.295,18.243,145.965,29.499
19:32:04:572,26.960,-0.857,0.936,0.006,15.727,150.094,21.313
19:32:04:623,27.012,-0.651,0.887,0.252,14.372,154.476,16.381
19:32:04:624,27.013,-0.143,0.544,0.381,13.435,162.475,9.817
19:32:04:646,27.034,0.146,0.178,0.355,13.571,167.951,6.004
19:32:04:677,27.065,0.286,0.037,0.369,14.712,175.158,1.091
19:32:04:678,27.066,0.381,-0.090,0.375,16.513,-179.749,-3.198
19:32:04:757,27.146,0.436,-0.115,0.344,17.836,-177.542,-5.893
19:32:04:758,27.147,0.470,-0.133,0.270,19.746,-175.468,-9.774
19:32:04:758,27.147,0.520,-0.146,0.211,20.909,-174.478,-12.241
19:32:04:778,27.167,0.560,-0.169,0.165,22.456,-173.154,-15.785
19:32:04:804,27.193,0.633,-0.202,0.159,23.854,-171.705,-19.106
19:32:04:83,27.218,0.641,-0.265,0.097,24.733,-170.649,-21.159
19:32:04:886,27.274,0.727,-0.261,0.029,25.906,-168.906,-23.884
19:32:04:886,27.274,0.809,-0.255,0.003,26.529,-167.692,-25.433
19:32:04:909,27.297,0.873,-0.291,-0.038,27.165,-165.842,-27.201
19:32:04:935,27.323,0.959,-0.280,-0.061,27.364,-164.461,-27.783
19:32:04:964,27.352,0.854,-0.298,-0.118,27.092,-162.353,-27.549
19:32:05:017,27.405,0.765,-0.204,-0.192,26.102,-160.301,-25.902
19:32:05:018,27.406,0.784,-0.157,-0.170,25.121,-159.147,-24.209
19:32:05:04,27.429,0.839,-0.019,-0.128,23.280,-158.053,-21.118
19:32:05:066,27.455,0.784,0.064,-0.059,21.848,-157.997,-18.927
19:32:05:092,27.481,0.681,0.151,-0.051,19.510,-159.197,-15.505
19:32:05:119,27.508,0.520,0.262,-0.006,17.082,-161.952,-11.786
19:32:05:145,27.534,0.415,0.328,0.011,15.640,-164.288,-8.945
19:32:05:171,27.560,0.230,0.384,0.017,14.112,-168.112,-3.963
19:32:05:198,27.587,0.107,0.409,0.027,13.622,-170.660,-0.119
19:32:05:224,27.612,-0.078,0.473,0.096,13.706,-174.166,6.310
19:32:05:309,27.697,-0.245,0.457,0.098,14.304,-176.233,10.840
19:32:05:31,27.698,-0.354,0.330,0.094,16.020,-179.154,17.621
19:32:05:31,27.698,-0.419,0.171,0.083,18.718,178.158,24.070
19:32:05:329,27.717,-0.448,0.011,0.071,20.948,176.613,28.139
19:32:05:355,27.743,-0.474,-0.200,0.018,24.879,174.672,33.888
19:32:05:382,27.770,-0.499,-0.339,0.012,27.747,173.651,37.471
19:32:05:463,27.852,-0.479,-0.476,-0.027,31.999,172.615,42.325
19:32:05:464,27.853,-0.456,-0.545,-0.057,35.407,172.170,46.157
19:32:05:489,27.878,-0.434,-0.547,-0.052,36.756,172.202,47.953
19:32:05:49,27.879,-0.446,-0.490,-0.008,37.152,172.428,49.098
19:32:05:54,27.929,-0.560,-0.357,0.028,36.431,172.479,48.622
19:32:05:569,27.958,-0.629,-0.252,0.060,34.195,172.414,46.026
19:32:05:57,27.959,-0.666,-0.097,0.079,31.045,172.459,41.479
19:32:05:592,27.980,-0.678,0.055,0.081,28.802,172.677,37.666
19:32:05:617,28.006,-0.782,0.290,0.201,25.710,173.480,31.346
19:32:05:644,28.033,-0.753,0.448,0.303,23.919,174.665,27.021
19:32:05:67,28.059,-0.563,0.592,0.447,21.843,177.929,20.638
19:32:05:696,28.085,-0.356,0.549,0.453,20.937,-178.733,16.668
19:32:05:723,28.111,-0.091,0.311,0.445,20.232,-172.336,11.424
19:32:05:749,28.137,0.134,0.091,0.363,19.986,-164.557,7.461
19:32:05:776,28.164,0.278,-0.001,0.307,20.063,-159.121,5.438
19:32:05:801,28.190,0.489,-0.096,0.179,20.614,-152.185,2.781
19:32:05:857,28.246,0.555,-0.112,0.151,21.221,-149.157,0.867
19:32:05:857,28.246,0.499,-0.178,0.074,22.250,-147.582,-2.577
19:32:05:88,28.269,0.479,-0.187,-0.011,23.033,-147.902,-6.505
19:32:05:933,28.321,0.424,-0.164,-0.063,23.384,-148.558,-9.246
19:32:05:962,28.350,0.421,-0.140,-0.101,23.697,-149.293,-13.190
19:32:05:963,28.351,0.424,-0.120,-0.153,23.858,-149.233,-15.551
19:32:05:985,28.373,0.521,-0.091,-0.256,24.189,-148.242,-18.592
19:32:06:013,28.402,0.636,-0.106,-0.362,24.510,-147.179,-20.250
19:32:06:039,28.428,0.699,-0.119,-0.407,25.063,-145.314,-21.974
19:32:06:064,28.453,0.763,-0.108,-0.450,25.333,-143.606,-22.563
19:32:06:09,28.479,0.707,-0.165,-0.458,25.223,-142.765,-22.179
19:32:06:116,28.505,0.700,0.023,-0.424,24.485,-142.023,-20.565
19:32:06:143,28.532,0.588,0.008,-0.382,23.874,-141.790,-18.942
19:32:06:169,28.558,0.626,0.039,-0.320,22.998,-141.778,-15.945
19:32:06:195,28.583,0.605,0.147,-0.201,22.056,-142.689,-12.637
19:32:06:221,28.610,0.569,0.180,-0.141,21.437,-144.025,-10.335
19:32:06:247,28.636,0.433,0.196,-0.027,20.642,-146.996,-6.750
19:32:06:274,28.663,0.318,0.228,0.076,20.305,-149.365,-4.161
19:32:06:301,28.690,0.221,0.242,0.137,20.244,-152.998,0.195
19:32:06:327,28.715,0.086,0.238,0.218,20.888,-156.267,5.201
19:32:06:353,28.742,0.004,0.227,0.267,21.718,-158.083,8.859
19:32:06:379,28.768,-0.116,0.184,0.355,23.504,-160.189,14.668
19:32:06:405,28.794,-0.209,0.139,0.361,25.009,-161.220,18.609
19:32:06:431,28.820,-0.278,0.048,0.363,27.629,-162.180,24.465
19:32:06:457,28.846,-0.340,-0.094,0.322,30.578,-162.628,30.014
19:32:06:484,28.873,-0.339,-0.218,0.239,32.648,-162.710,33.531
19:32:06:51,28.898,-0.361,-0.299,0.211,35.823,-162.721,38.369
19:32:06:536,28.924,-0.397,-0.402,0.205,37.964,-162.793,41.102
19:32:06:564,28.952,-0.404,-0.455,0.205,40.811,-163.032,44.242
19:32:06:59,28.978,-0.418,-0.460,0.188,42.128,-163.189,45.580
19:32:06:616,29.004,-0.425,-0.441,0.177,42.899,-163.381,46.328
19:32:06:642,29.030,-0.522,-0.309,0.265,42.151,-163.664,45.357
19:32:06:668,29.056,-0.583,-0.266,0.323,40.914,-163.919,43.831
19:32:06:695,29.083,-0.603,-0.068,0.449,38.228,-163.805,40.645
19:32:06:72,29.109,-0.552,-0.012,0.445,36.184,-163.465,38.064
19:32:06:747,29.136,-0.543,0.094,0.503,33.106,-162.569,33.797
19:32:06:931,29.319,-0.478,0.308,0.594,30.060,-161.031,29.344
19:32:06:985,29.373,-0.407,0.378,0.622,28.196,-159.580,26.326
19:32:07:019,29.407,-0.204,0.359,0.579,25.746,-156.605,21.809
19:32:07:019,29.407,-0.035,0.222,0.482,24.353,-154.178,18.810
19:32:07:02,29.408,0.076,0.156,0.378,22.542,-149.940,14.384
19:32:07:021,29.409,0.179,0.041,0.219,21.108,-145.349,10.061
19:32:07:045,29.433,0.260,-0.021,0.134,20.402,-142.369,7.178
19:32:07:045,29.433,0.339,-0.030,0.027,19.787,-138.437,2.724
19:32:07:046,29.434,0.395,0.006,-0.067,19.680,-136.343,-0.362
19:32:07:047,29.435,0.397,0.024,-0.158,19.896,-134.253,-5.196
19:32:07:068,29.456,0.408,0.051,-0.249,20.163,-133.375,-8.418
19:32:07:068,29.456,0.423,0.029,-0.329,20.652,-131.977,-12.918
19:32:07:069,29.457,0.445,-0.050,-0.485,21.313,-130.265,-16.795
19:32:07:087,29.476,0.263,-0.004,-0.339,21.828,-128.645,-18.856
19:32:07:114,29.503,0.454,-0.242,-0.677,22.900,-126.464,-21.159
19:32:07:14,29.529,0.646,-0.142,-0.826,23.251,-125.944,-22.446
19:32:07:195,29.584,0.600,-0.132,-0.646,23.607,-125.362,-23.085
19:32:07:196,29.585,0.520,-0.191,-0.586,23.450,-125.419,-22.480
19:32:07:248,29.637,0.577,-0.136,-0.620,23.230,-125.009,-21.340
19:32:07:249,29.638,0.575,-0.070,-0.547,22.881,-124.099,-18.869
19:32:07:271,29.659,0.585,-0.088,-0.474,22.606,-123.600,-16.882
19:32:07:298,29.686,0.664,0.020,-0.411,21.838,-123.960,-13.720
19:32:07:324,29.713,0.674,0.203,-0.260,21.156,-124.975,-11.511
19:32:07:379,29.767,0.631,0.297,-0.138,20.055,-127.716,-8.053
19:32:07:406,29.794,0.523,0.365,0.029,19.196,-131.349,-4.118
19:32:07:406,29.794,0.430,0.372,0.121,18.867,-133.985,-1.131
19:32:07:43,29.818,0.300,0.335,0.252,18.869,-137.841,4.007
19:32:07:455,29.843,0.227,0.314,0.317,19.237,-140.209,7.811
19:32:07:482,29.870,0.098,0.316,0.426,20.354,-143.492,13.929
19:32:07:508,29.896,-0.085,0.250,0.524,22.293,-146.670,20.182
19:32:07:533,29.922,-0.171,0.187,0.560,24.095,-148.578,24.337
19:32:07:561,29.950,-0.298,0.023,0.570,27.449,-150.787,30.470
19:32:07:617,30.006,-0.378,-0.184,0.558,29.974,-151.811,34.441
19:32:07:617,30.006,-0.462,-0.372,0.496,34.015,-152.624,40.162
19:32:07:639,30.028,-0.488,-0.601,0.369,37.649,-152.448,45.262
19:32:07:725,30.114,-0.450,-0.607,0.314,39.132,-151.824,47.878
19:32:07:725,30.114,-0.460,-0.609,0.338,40.535,-151.282,50.358
19:32:07:725,30.114,-0.526,-0.623,0.376,41.024,-151.473,50.880
19:32:07:745,30.134,-0.609,-0.441,0.466,40.789,-151.992,50.143
19:32:07:77,30.159,-0.636,-0.332,0.495,39.951,-152.524,48.731
19:32:07:796,30.185,-0.685,-0.178,0.567,37.855,-153.214,45.475
19:32:07:822,30.211,-0.594,-0.079,0.532,34.998,-153.639,41.082
19:32:07:851,30.240,-0.549,-0.057,0.472,32.801,-153.586,37.746
19:32:07:876,30.264,-0.469,0.177,0.529,29.282,-152.861,32.439
19:32:07:931,30.319,-0.418,0.350,0.580,27.038,-151.947,28.738
19:32:07:932,30.320,-0.271,0.465,0.572,24.108,-149.759,23.039
19:32:07:984,30.372,-0.120,0.373,0.487,22.583,-147.671,19.237
19:32:07:984,30.372,0.046,0.277,0.427,20.770,-143.340,13.824
19:32:08:007,30.395,0.219,0.190,0.263,19.509,-137.643,8.974
19:32:08:033,30.421,0.375,0.155,0.127,19.052,-133.458,5.972
19:32:08:06,30.448,0.471,0.123,0.020,19.039,-127.604,1.541
19:32:08:085,30.474,0.496,0.103,-0.079,19.413,-124.300,-1.433
19:32:08:112,30.501,0.545,0.023,-0.218,20.359,-120.601,-6.050
19:32:08:137,30.526,0.491,0.000,-0.369,21.356,-117.922,-10.702
19:32:08:164,30.553,0.458,-0.023,-0.481,21.999,-116.479,-13.742
19:32:08:191,30.580,0.425,-0.098,-0.629,22.903,-114.649,-17.999
19:32:08:216,30.605,0.402,-0.180,-0.678,23.457,-113.730,-20.481
19:32:08:243,30.632,0.394,-0.276,-0.761,24.188,-112.204,-23.364
19:32:08:27,30.658,0.372,-0.314,-0.823,24.654,-110.754,-25.018
19:32:08:295,30.683,0.415,-0.268,-0.846,24.686,-109.944,-25.443
19:32:08:322,30.710,0.387,-0.241,-0.811,24.187,-109.186,-25.073
19:32:08:349,30.737,0.431,-0.064,-0.823,23.540,-108.742,-24.167
19:32:08:375,30.763,0.410,-0.045,-0.779,22.216,-108.335,-22.010
19:32:08:4,30.788,0.365,-0.095,-0.652,21.251,-108.289,-20.101
19:32:08:427,30.815,0.395,0.030,-0.613,19.620,-108.873,-16.589
19:32:08:452,30.841,0.419,0.227,-0.461,17.978,-110.435,-12.304
19:32:08:48,30.869,0.370,0.349,-0.324,17.028,-112.036,-9.015
19:32:08:505,30.894,0.259,0.469,-0.168,16.030,-115.039,-3.297
19:32:08:531,30.920,0.230,0.553,0.057,15.764,-117.118,1.127
19:32:08:558,30.947,0.133,0.682,0.239,16.060,-120.192,8.559
19:32:08:584,30.973,-0.065,0.613,0.449,17.554,-123.282,16.663
19:32:08:639,31.027,-0.140,0.494,0.535,19.332,-124.935,22.268
19:32:08:64,31.028,-0.284,0.274,0.596,23.105,-126.945,30.481
19:32:08:663,31.051,-0.338,0.151,0.610,26.435,-127.986,35.593
19:32:08:69,31.078,-0.420,-0.217,0.633,32.558,-129.048,42.434
19:32:08:716,31.104,-0.448,-0.461,0.565,36.857,-129.119,46.519
19:32:08:802,31.190,-0.438,-0.671,0.427,42.441,-128.030,52.089
19:32:08:803,31.191,-0.388,-0.690,0.411,46.331,-126.092,56.722
19:32:08:803,31.191,-0.346,-0.693,0.415,48.151,-124.899,58.944
19:32:08:821,31.209,-0.335,-0.682,0.451,49.785,-123.669,60.712
19:32:08:846,31.235,-0.330,-0.606,0.514,50.079,-123.142,60.794
19:32:08:929,31.318,-0.311,-0.372,0.795,46.469,-122.756,56.078
19:32:08:929,31.318,-0.285,-0.274,0.890,43.735,-122.601,52.993
19:32:08:951,31.340,-0.202,-0.030,0.976,38.363,-121.491,47.141
19:32:08:978,31.367,-0.137,0.055,0.939,34.460,-120.133,42.739
19:32:09:004,31.392,0.009,0.259,0.925,28.795,-117.075,35.808
19:32:09:032,31.420,0.220,0.600,0.923,24.002,-112.825,28.720
19:32:09:057,31.445,0.386,0.716,0.778,21.622,-109.433,23.972
19:32:09:084,31.472,0.532,0.571,0.396,19.503,-103.608,17.066
19:32:09:138,31.526,0.512,0.308,0.128,18.923,-99.421,12.796
19:32:09:139,31.527,0.427,0.123,-0.054,18.915,-92.785,7.346
19:32:09:194,31.582,0.363,0.047,-0.187,19.266,-88.282,4.387
19:32:09:195,31.583,0.345,0.029,-0.315,20.199,-81.675,0.869
19:32:09:196,31.584,0.314,-0.059,-0.413,21.456,-75.740,-1.840
19:32:09:243,31.631,0.229,-0.108,-0.457,22.371,-72.325,-3.371
19:32:09:244,31.632,0.175,-0.137,-0.511,23.758,-68.144,-5.558
19:32:09:267,31.655,0.114,-0.152,-0.548,24.623,-65.998,-6.995
19:32:09:293,31.681,0.021,-0.180,-0.593,25.784,-62.870,-9.121
19:32:09:348,31.736,-0.072,-0.219,-0.625,26.760,-60.268,-11.294
19:32:09:349,31.737,-0.173,-0.224,-0.671,27.268,-58.674,-12.789
19:32:09:373,31.761,-0.249,-0.186,-0.786,27.702,-56.797,-14.948
19:32:09:398,31.786,-0.271,-0.154,-0.882,27.680,-55.769,-16.109
19:32:09:453,31.842,-0.282,-0.183,-0.802,27.003,-54.762,-16.990
19:32:09:453,31.842,-0.320,-0.004,-0.689,26.135,-54.419,-16.886
19:32:09:476,31.865,-0.333,0.038,-0.658,24.295,-54.455,-15.323
19:32:09:503,31.892,-0.263,0.065,-0.606,22.303,-54.699,-12.241
19:32:09:529,31.918,-0.164,0.206,-0.591,20.960,-55.175,-9.724
19:32:09:555,31.944,-0.069,0.328,-0.517,19.048,-56.750,-5.488
19:32:09:611,31.999,-0.025,0.413,-0.395,17.943,-58.467,-2.392
19:32:09:611,31.999,0.069,0.443,-0.177,16.789,-62.298,2.751
19:32:09:635,32.023,0.175,0.383,0.040,16.512,-66.587,8.777
19:32:09:661,32.049,0.197,0.380,0.176,16.867,-69.140,13.322
19:32:09:687,32.075,0.198,0.374,0.356,18.286,-72.588,20.606
19:32:09:742,32.130,0.217,0.256,0.464,19.978,-74.760,25.503
19:32:09:743,32.131,0.235,0.111,0.552,23.439,-77.488,32.517
19:32:09:766,32.154,0.189,-0.026,0.606,27.714,-79.438,38.884
19:32:09:792,32.181,0.171,-0.219,0.606,30.982,-80.366,42.672
19:32:09:817,32.206,0.128,-0.405,0.614,36.080,-81.148,47.717
19:32:09:844,32.233,0.086,-0.547,0.660,39.283,-81.300,50.617
19:32:09:87,32.259,0.051,-0.616,0.624,43.161,-80.845,54.190
19:32:09:896,32.285,0.112,-0.557,0.689,44.791,-80.221,55.929
19:32:09:923,32.312,0.137,-0.512,0.695,45.574,-78.844,57.384
19:32:09:949,32.338,0.238,-0.382,0.715,44.585,-77.247,57.313
19:32:09:975,32.363,0.311,-0.293,0.768,43.157,-76.254,56.269
19:32:10:002,32.390,0.374,-0.254,0.715,40.139,-74.793,53.369
19:32:10:028,32.416,0.401,-0.173,0.698,37.522,-73.769,50.659
19:32:10:055,32.443,0.415,-0.086,0.661,33.030,-71.761,45.842
19:32:10:081,32.469,0.496,0.096,0.681,28.449,-69.221,40.397
19:32:10:107,32.495,0.609,0.319,0.646,25.455,-67.033,36.484
19:32:10:137,32.525,0.686,0.495,0.422,21.575,-63.016,30.258
19:32:10:159,32.547,0.623,0.481,0.253,19.536,-59.849,25.900
19:32:10:187,32.575,0.410,0.310,-0.040,17.319,-54.294,19.339
19:32:10:212,32.600,0.180,0.067,-0.133,16.232,-48.336,13.096
19:32:10:238,32.627,0.114,0.005,-0.181,16.008,-44.472,9.230
19:32:10:264,32.653,-0.020,-0.015,-0.308,16.281,-39.275,3.733
19:32:10:29,32.679,-0.185,0.038,-0.486,16.793,-36.472,0.136
19:32:10:316,32.705,-0.324,0.009,-0.529,17.772,-33.818,-5.365
19:32:10:343,32.732,-0.396,-0.027,-0.473,18.359,-33.357,-9.191
19:32:10:396,32.784,-0.483,-0.102,-0.473,19.019,-33.767,-14.842
19:32:10:424,32.812,-0.682,-0.168,-0.571,19.315,-34.496,-19.703
19:32:10:425,32.813,-0.743,-0.199,-0.552,19.312,-35.035,-22.188
19:32:10:448,32.836,-0.761,-0.190,-0.525,19.242,-34.585,-24.305
19:32:10:474,32.862,-0.800,-0.251,-0.529,19.229,-33.557,-24.569
19:32:10:501,32.889,-0.831,-0.144,-0.645,18.437,-32.448,-23.832
19:32:10:526,32.915,-0.712,-0.035,-0.494,16.513,-32.576,-22.068
19:32:10:553,32.942,-0.676,-0.015,-0.455,14.999,-33.173,-20.207
19:32:10:579,32.968,-0.578,0.094,-0.345,12.692,-34.695,-16.345
19:32:10:606,32.995,-0.371,0.370,-0.306,11.337,-36.388,-13.051
19:32:10:632,33.021,-0.197,0.656,-0.370,9.988,-39.284,-6.980
19:32:10:658,33.046,-0.017,0.918,-0.240,9.564,-41.219,-2.199
19:32:10:713,33.101,0.199,1.068,0.015,9.701,-44.144,5.884
19:32:10:714,33.102,0.335,0.657,0.244,11.155,-46.629,14.903
19:32:10:766,33.154,0.425,0.554,0.321,12.766,-48.072,21.163
19:32:10:767,33.155,0.589,0.340,0.484,15.806,-49.791,30.512
19:32:10:847,33.236,0.594,0.087,0.611,18.377,-50.592,36.466
19:32:10:848,33.237,0.613,-0.218,0.723,23.470,-51.857,44.587
19:32:10:868,33.257,0.429,-0.781,0.654,32.948,-52.397,55.753
19:32:10:894,33.283,0.452,-0.792,0.683,36.827,-51.952,60.492
19:32:10:92,33.309,0.404,-0.903,0.635,38.914,-51.653,62.671
19:32:10:946,33.335,0.360,-0.945,0.548,40.796,-51.126,64.547
19:32:10:973,33.362,0.470,-0.851,0.566,40.678,-50.657,64.662
19:32:10:999,33.388,0.474,-0.780,0.542,39.482,-50.217,63.897
19:32:11:025,33.413,0.602,-0.590,0.582,36.437,-49.312,61.609
19:32:11:052,33.440,0.934,-0.385,0.627,33.856,-48.493,59.382
19:32:11:08,33.468,1.057,-0.198,0.569,29.263,-46.807,54.966
19:32:11:105,33.493,1.168,0.144,0.616,25.852,-45.247,51.339
19:32:11:16,33.548,1.173,0.475,0.584,20.590,-42.546,44.802
19:32:11:16,33.548,0.978,0.629,0.368,16.177,-39.188,37.461
19:32:11:183,33.571,0.871,0.727,0.223,13.825,-36.476,32.463
19:32:11:21,33.598,0.645,0.743,-0.027,11.095,-31.658,25.209
19:32:11:376,33.765,0.359,0.588,-0.140,9.951,-28.128,20.719
19:32:11:376,33.765,0.150,0.419,-0.260,9.130,-22.847,14.537
19:32:11:377,33.766,-0.008,0.276,-0.380,8.964,-17.729,9.076
19:32:11:378,33.767,-0.164,0.148,-0.405,9.065,-14.333,5.743
19:32:11:402,33.790,-0.388,0.025,-0.360,9.405,-9.929,1.110
19:32:11:402,33.790,-0.453,-0.064,-0.358,9.569,-8.066,-1.816
19:32:11:403,33.791,-0.556,-0.121,-0.346,9.588,-6.327,-6.207
19:32:11:404,33.792,-0.627,-0.211,-0.288,9.044,-5.185,-10.543
19:32:11:475,33.863,-0.633,-0.488,-0.077,8.275,-4.619,-13.324
19:32:11:475,33.863,-0.894,-0.448,0.214,6.066,-4.787,-17.215
19:32:11:503,33.891,-0.890,-0.443,0.228,3.919,-6.031,-19.431
19:32:11:503,33.891,-0.747,-0.553,0.191,0.417,-8.548,-21.847
19:32:11:524,33.912,-0.631,-0.544,0.205,-2.423,-10.165,-23.118
19:32:11:55,33.938,-0.629,-0.414,0.126,-3.491,-10.171,-23.243
19:32:11:606,33.994,-0.711,-0.326,0.150,-3.986,-8.594,-22.211
19:32:11:607,33.995,-0.819,-0.169,0.346,-4.080,-7.996,-20.646
19:32:11:63,34.018,-0.897,0.345,0.372,-4.283,-8.464,-17.027
19:32:11:681,34.070,-0.689,0.742,0.158,-4.116,-9.027,-13.736
19:32:11:711,34.100,-0.369,0.713,0.284,-2.934,-8.730,-7.673
19:32:11:712,34.101,-0.065,0.681,0.410,-1.485,-7.181,0.080
19:32:11:734,34.123,0.082,0.817,0.345,-0.901,-5.590,6.323
19:32:11:76,34.149,0.300,0.812,0.260,-0.382,-4.064,16.582
19:32:11:845,34.233,0.455,0.631,0.274,0.316,-4.421,23.453
19:32:11:846,34.234,0.629,0.397,0.236,3.209,-6.755,33.296
19:32:11:847,34.235,0.861,0.061,0.170,9.375,-9.858,42.129
19:32:11:865,34.254,0.960,-0.198,0.204,15.195,-11.482,47.309
19:32:11:891,34.280,0.888,-0.510,0.163,24.014,-12.086,54.314
19:32:11:917,34.306,0.767,-0.588,0.181,28.730,-11.356,58.489
19:32:11:973,34.362,0.746,-0.592,0.148,33.701,-9.515,63.543
19:32:11:974,34.363,0.709,-0.643,0.087,36.033,-8.168,65.985
19:32:11:997,34.386,0.708,-0.677,0.010,37.881,-6.268,68.084
19:32:12:024,34.412,0.844,-0.608,-0.085,37.047,-4.444,68.321
19:32:12:05,34.438,0.880,-0.546,-0.092,35.053,-3.262,67.454
19:32:12:076,34.464,0.965,-0.432,-0.113,30.563,-0.854,64.714
19:32:12:103,34.491,1.021,-0.358,-0.208,27.190,0.412,62.143
19:32:12:128,34.516,1.034,-0.243,-0.258,21.978,2.750,57.461
19:32:12:155,34.543,1.047,-0.025,-0.304,16.944,5.527,51.845
19:32:12:181,34.569,0.973,0.101,-0.352,13.994,7.706,47.590
19:32:12:207,34.595,0.772,0.229,-0.401,10.299,11.527,40.455
19:32:12:347,34.736,0.585,0.270,-0.346,8.419,14.417,35.247
19:32:12:348,34.737,0.390,0.289,-0.301,6.499,19.277,26.981
19:32:12:349,34.738,0.173,0.257,-0.242,5.720,22.880,21.418
19:32:12:349,34.738,-0.001,0.301,-0.193,5.287,28.620,13.221
19:32:12:367,34.756,-0.262,0.287,-0.071,5.715,34.655,5.489
19:32:12:368,34.757,-0.392,0.272,0.033,6.514,38.294,0.636
19:32:12:39,34.779,-0.531,0.175,0.207,8.227,42.388,-6.242
19:32:12:417,34.805,-0.563,0.058,0.348,9.399,43.840,-10.598
19:32:12:443,34.831,-0.604,0.017,0.492,10.614,44.008,-16.797
19:32:12:469,34.857,-0.683,-0.090,0.553,11.041,42.743,-22.362
19:32:12:496,34.884,-0.724,-0.199,0.572,10.976,41.755,-25.428
19:32:12:524,34.912,-0.597,-0.269,0.553,10.685,40.920,-28.676
19:32:12:549,34.937,-0.639,-0.236,0.601,10.638,41.109,-29.831
19:32:12:575,34.963,-0.650,-0.323,0.647,10.696,42.392,-30.075
19:32:12:601,34.989,-0.642,-0.450,0.604,10.626,44.141,-29.022
19:32:12:626,35.015,-0.703,-0.399,0.611,10.134,44.922,-27.869
19:32:12:653,35.041,-0.776,-0.171,0.562,8.601,44.833,-25.649
19:32:12:679,35.067,-0.699,0.023,0.559,7.168,43.858,-23.840
19:32:12:706,35.094,-0.678,0.269,0.569,4.628,41.264,-20.368
19:32:12:732,35.120,-0.549,0.487,0.419,2.927,38.886,-17.387
19:32:12:789,35.178,-0.432,0.555,0.328,0.895,34.982,-11.714
19:32:12:789,35.178,-0.148,0.574,0.206,-0.170,31.095,-4.585
19:32:12:81,35.199,-0.029,0.532,0.106,-0.312,28.894,0.888
19:32:12:837,35.226,0.115,0.500,-0.041,0.057,26.288,9.827
19:32:12:862,35.251,0.283,0.523,-0.126,0.601,24.699,16.090
19:32:12:89,35.279,0.476,0.422,-0.198,2.001,22.312,25.551
19:32:12:915,35.304,0.633,0.183,-0.280,4.707,19.858,34.770
19:32:12:942,35.330,0.712,0.075,-0.337,7.456,18.363,40.619
19:32:12:968,35.356,0.807,-0.069,-0.361,13.346,16.576,48.777
19:32:12:994,35.382,0.914,-0.272,-0.361,18.728,15.685,53.655
19:32:13:021,35.409,0.897,-0.567,-0.316,28.468,15.011,59.849
19:32:13:047,35.435,0.828,-0.758,-0.316,34.559,15.166,63.177
19:32:13:072,35.461,0.732,-0.796,-0.272,39.845,16.279,66.789
19:32:13:099,35.488,0.689,-0.916,-0.337,39.756,17.720,68.502
19:32:13:126,35.515,0.622,-0.655,-0.326,37.001,18.535,68.428
19:32:13:152,35.541,0.702,-0.540,-0.383,31.144,19.287,66.827
19:32:13:177,35.566,0.808,-0.456,-0.371,27.679,19.265,64.769
19:32:13:204,35.593,0.931,-0.276,-0.370,24.213,18.552,60.257
19:32:13:23,35.619,1.061,-0.031,-0.427,21.520,17.553,54.310
19:32:13:258,35.646,1.053,0.062,-0.422,19.040,17.386,49.782
19:32:13:282,35.671,0.869,0.124,-0.382,14.340,18.629,42.399
19:32:13:309,35.698,0.598,0.145,-0.356,10.961,20.491,37.238
19:32:13:365,35.753,0.390,0.186,-0.270,6.549,24.497,29.188
19:32:13:365,35.753,0.164,0.279,-0.095,3.473,29.352,20.830
19:32:13:389,35.777,0.054,0.336,0.054,2.373,32.292,15.168
19:32:13:415,35.803,-0.096,0.289,0.061,1.999,35.328,6.804
19:32:13:441,35.829,-0.243,0.292,0.112,2.118,36.575,1.370
19:32:13:467,35.855,-0.318,0.319,0.296,2.337,37.643,-6.273
19:32:13:493,35.881,-0.503,0.173,0.546,2.438,38.145,-10.916
19:32:13:548,35.937,-0.513,0.037,0.637,2.361,38.289,-16.921
19:32:13:549,35.938,-0.501,0.003,0.659,2.029,38.298,-21.516
19:32:13:572,35.961,-0.494,0.002,0.677,1.812,38.432,-23.774
19:32:13:598,35.987,-0.601,-0.121,0.706,1.971,39.501,-25.997
19:32:13:624,36.013,-0.676,-0.154,0.731,2.387,40.623,-26.863
19:32:13:653,36.042,-0.654,-0.274,0.697,3.162,42.393,-27.446
19:32:13:654,36.043,-0.658,-0.475,0.688,3.632,43.784,-27.051
19:32:13:706,36.094,-0.654,-0.426,0.697,3.265,43.893,-26.175
19:32:13:706,36.094,-0.671,-0.121,0.673,1.861,42.515,-23.871
19:32:13:759,36.147,-0.571,0.192,0.640,0.765,40.919,-21.631
19:32:13:759,36.147,-0.501,0.425,0.565,-0.588,38.050,-17.061
19:32:13:782,36.170,-0.379,0.601,0.345,-1.044,36.177,-13.173
19:32:13:808,36.196,-0.206,0.585,0.236,-1.041,33.739,-6.259
19:32:13:863,36.251,-0.016,0.522,0.131,-0.565,31.868,1.780
19:32:13:889,36.278,0.088,0.498,0.041,-0.064,30.746,7.560
19:32:13:89,36.279,0.318,0.446,-0.158,1.069,28.859,16.546
19:32:13:942,36.331,0.421,0.425,-0.181,2.133,27.682,22.589
19:32:13:942,36.331,0.583,0.271,-0.257,4.287,26.478,31.576
19:32:13:965,36.354,0.601,0.071,-0.377,7.272,25.749,40.213
19:32:13:991,36.380,0.631,-0.039,-0.408,9.966,25.325,45.614
19:32:14:018,36.407,0.747,-0.235,-0.496,15.826,24.633,52.971
19:32:14:046,36.434,0.782,-0.594,-0.442,21.146,24.277,57.246
19:32:14:071,36.459,0.767,-0.783,-0.356,29.058,24.422,62.628
19:32:14:097,36.485,0.719,-0.836,-0.338,33.871,25.335,66.491
19:32:14:123,36.511,0.636,-0.795,-0.359,34.547,26.740,68.150
19:32:14:149,36.537,0.647,-0.762,-0.465,32.665,27.857,69.038
19:32:14:285,36.673,0.610,-0.645,-0.463,29.872,28.375,68.519
19:32:14:286,36.674,0.720,-0.418,-0.491,25.327,28.482,66.108
19:32:14:338,36.726,0.825,-0.346,-0.520,23.036,28.056,63.543
19:32:14:338,36.726,0.909,-0.237,-0.566,20.370,26.794,58.564
19:32:14:369,36.757,1.096,0.091,-0.597,17.543,25.322,52.485
19:32:14:369,36.757,1.139,0.394,-0.592,15.210,24.688,47.947
19:32:14:369,36.757,0.877,0.415,-0.479,11.499,24.969,40.747
19:32:14:371,36.759,0.621,0.379,-0.383,9.045,26.180,35.922
19:32:14:416,36.804,0.457,0.387,-0.275,5.726,29.218,28.854
19:32:14:416,36.804,0.213,0.252,-0.106,3.172,33.354,22.032
19:32:14:437,36.826,0.085,0.210,-0.048,1.973,36.447,17.594
19:32:14:464,36.853,-0.089,0.173,0.039,0.850,41.197,11.089
19:32:14:49,36.879,-0.267,0.172,0.170,0.554,44.118,6.871
19:32:14:517,36.906,-0.331,0.108,0.273,0.577,47.608,0.766
19:32:14:543,36.932,-0.380,-0.069,0.401,0.691,49.100,-3.139
19:32:14:569,36.958,-0.381,-0.179,0.503,0.618,50.353,-8.718
19:32:14:595,36.984,-0.382,-0.306,0.560,-0.081,50.763,-13.808
19:32:14:622,37.011,-0.354,-0.358,0.761,-1.005,50.433,-16.870
19:32:14:648,37.036,-0.330,-0.346,0.848,-3.273,48.693,-20.756
19:32:14:674,37.062,-0.386,-0.263,0.910,-5.248,46.829,-22.745
19:32:14:701,37.089,-0.420,-0.254,0.786,-8.256,43.817,-24.707
19:32:14:727,37.115,-0.376,-0.328,0.747,-10.360,41.735,-25.448
19:32:14:754,37.142,-0.316,-0.388,0.735,-11.018,41.094,-25.181
19:32:14:78,37.168,-0.258,-0.205,0.780,-11.140,40.685,-23.336
19:32:14:806,37.194,-0.302,0.010,0.774,-10.796,40.631,-21.151
19:32:14:832,37.220,-0.245,0.565,0.936,-9.992,40.414,-16.682
19:32:14:857,37.246,-0.100,0.777,0.717,-8.898,39.393,-10.739
19:32:14:884,37.273,0.054,0.826,0.517,-7.580,38.832,-5.989
19:32:14:91,37.299,0.340,0.831,0.298,-5.198,38.875,2.279
19:32:14:936,37.325,0.495,0.808,0.134,-3.549,39.707,8.616
19:32:14:992,37.381,0.589,0.710,-0.120,-1.220,41.559,19.267
19:32:14:993,37.382,0.597,0.520,-0.297,0.541,42.709,26.627
19:32:15:015,37.403,0.650,0.282,-0.462,4.135,44.002,37.422
19:32:15:071,37.459,0.702,-0.151,-0.559,9.908,45.023,47.157
19:32:15:071,37.459,0.675,-0.473,-0.574,14.823,46.036,52.758
19:32:15:094,37.482,0.590,-0.725,-0.514,22.199,48.409,60.172
19:32:15:121,37.509,0.502,-0.831,-0.424,26.312,50.361,64.397
19:32:15:148,37.536,0.390,-0.843,-0.366,30.527,53.441,69.433
19:32:15:174,37.562,0.315,-0.812,-0.363,32.195,55.857,72.555
19:32:15:2,37.588,0.308,-0.781,-0.372,31.777,57.104,73.404
19:32:15:225,37.614,0.278,-0.686,-0.438,28.945,58.477,72.726
19:32:15:251,37.640,0.333,-0.580,-0.622,25.892,59.040,70.910
19:32:15:307,37.696,0.352,-0.482,-0.678,20.474,59.571,66.260
19:32:15:307,37.696,0.404,-0.239,-0.772,16.681,59.880,62.080
19:32:15:33,37.719,0.440,0.005,-0.790,11.729,60.446,54.522
19:32:15:356,37.745,0.528,0.308,-0.899,7.908,61.545,45.908
19:32:15:383,37.771,0.427,0.557,-0.956,5.757,62.994,39.903
19:32:15:411,37.799,0.200,0.799,-0.853,3.153,66.640,30.768
19:32:15:436,37.824,0.081,0.855,-0.642,1.955,70.169,24.750
19:32:15:462,37.850,-0.077,0.720,-0.261,1.222,76.736,16.015
19:32:15:488,37.876,-0.119,0.397,0.061,1.822,84.211,7.899
19:32:15:514,37.902,-0.126,0.277,0.183,2.844,89.335,3.006
19:32:15:57,37.958,-0.130,0.154,0.338,5.199,96.849,-3.471
19:32:15:571,37.959,-0.203,0.060,0.516,7.299,101.546,-7.211
19:32:15:592,37.981,-0.176,-0.006,0.631,10.925,107.651,-12.097
19:32:15:621,38.010,-0.099,-0.084,0.756,14.651,112.167,-16.420
19:32:15:647,38.036,0.017,-0.165,0.771,16.924,114.124,-19.184
19:32:15:671,38.060,0.103,-0.241,0.812,19.804,115.713,-23.303
19:32:15:698,38.087,0.127,-0.292,0.839,21.313,116.148,-26.054
19:32:15:725,38.113,0.194,-0.346,0.885,22.986,116.474,-29.969
19:32:15:752,38.140,0.279,-0.430,0.966,23.733,116.760,-32.272
19:32:15:777,38.165,0.327,-0.486,0.972,24.360,117.609,-34.788
19:32:15:805,38.193,0.341,-0.445,0.929,24.184,118.981,-35.808
19:32:15:83,38.218,0.386,-0.492,0.835,23.618,120.077,-35.621
19:32:15:855,38.243,0.453,-0.548,0.672,21.857,121.589,-34.234
19:32:15:882,38.270,0.465,-0.383,0.831,20.117,122.318,-32.724
19:32:15:912,38.300,0.425,-0.186,0.981,16.747,122.609,-29.860
19:32:15:912,38.300,0.403,0.168,1.076,12.738,121.817,-26.299
19:32:15:963,38.352,0.397,0.462,1.025,9.825,120.461,-23.412
19:32:15:963,38.352,0.349,0.590,0.691,5.615,117.000,-18.077
19:32:16:015,38.404,0.327,0.624,0.419,3.204,113.900,-13.607
19:32:16:016,38.405,0.259,0.637,0.188,0.654,108.539,-5.388
19:32:16:041,38.430,0.189,0.678,-0.067,-0.207,104.940,0.948
19:32:16:065,38.454,0.156,0.652,-0.285,-0.245,99.851,11.214
19:32:16:092,38.481,0.111,0.494,-0.530,1.213,95.562,21.640
19:32:16:118,38.506,0.111,0.324,-0.631,3.055,93.234,28.408
19:32:16:145,38.533,0.076,0.099,-0.741,7.255,90.634,37.930
19:32:16:171,38.559,0.061,-0.109,-0.776,11.125,89.482,43.737
19:32:16:226,38.614,0.044,-0.493,-0.783,18.260,88.696,51.462
19:32:16:227,38.615,0.096,-0.918,-0.830,24.691,89.263,57.751
19:32:16:249,38.637,0.058,-0.976,-0.735,26.479,90.511,60.941
19:32:16:277,38.665,0.053,-0.860,-0.506,23.857,93.008,63.823
19:32:16:302,38.691,0.012,-0.643,-0.507,18.746,94.703,64.309
19:32:16:356,38.745,-0.025,-0.525,-0.620,10.643,96.568,62.905
19:32:16:383,38.772,-0.107,-0.322,-0.787,6.454,97.452,59.250
19:32:16:384,38.773,-0.148,-0.206,-0.847,5.609,97.644,55.738
19:32:16:406,38.795,-0.186,-0.035,-1.012,5.732,97.423,49.000
19:32:16:433,38.822,-0.210,0.302,-1.160,5.654,97.392,43.674
19:32:16:459,38.848,-0.329,0.697,-1.103,5.004,98.414,34.819
19:32:16:485,38.873,-0.342,0.848,-0.815,4.289,100.331,28.557
19:32:16:512,38.900,-0.271,0.918,-0.449,3.245,105.346,18.981
19:32:16:54,38.928,-0.150,0.684,-0.033,3.114,112.528,9.689
19:32:16:565,38.953,-0.126,0.529,0.126,3.832,117.824,3.884
19:32:16:591,38.979,-0.052,0.280,0.331,6.078,125.884,-3.926
19:32:16:617,39.005,-0.014,0.190,0.582,8.329,131.066,-8.466
19:32:16:672,39.061,0.113,0.054,0.718,13.006,138.867,-14.088
19:32:16:673,39.062,0.295,-0.134,0.829,18.959,146.498,-18.134
19:32:16:695,39.084,0.392,-0.249,0.833,23.087,151.159,-19.936
19:32:16:721,39.110,0.504,-0.411,0.703,28.728,157.034,-21.544
19:32:16:748,39.137,0.511,-0.468,0.657,31.781,160.025,-22.190
19:32:16:774,39.163,0.533,-0.516,0.626,35.123,163.090,-23.061
19:32:16:801,39.190,0.591,-0.524,0.672,36.726,164.592,-23.631
19:32:16:827,39.216,0.619,-0.569,0.653,38.459,166.586,-24.379
19:32:16:853,39.241,0.713,-0.543,0.728,39.387,168.458,-24.890
19:32:16:879,39.267,0.765,-0.563,0.705,39.420,169.533,-25.079
19:32:16:906,39.294,0.777,-0.527,0.646,38.140,170.492,-25.038
19:32:16:96,39.349,0.759,-0.437,0.585,36.371,170.482,-24.791
19:32:16:961,39.350,0.794,-0.174,0.683,32.532,169.567,-23.859
19:32:16:984,39.373,0.771,0.057,0.693,27.450,167.596,-21.981
19:32:17:01,39.399,0.780,0.317,0.673,23.577,165.654,-20.083
19:32:17:036,39.425,0.568,0.567,0.536,17.551,161.556,-16.027
19:32:17:062,39.451,0.477,0.605,0.342,13.913,158.386,-12.370
19:32:17:118,39.506,0.312,0.676,0.169,9.464,152.673,-5.462
19:32:17:119,39.507,0.168,0.672,0.041,7.387,148.460,-0.019
19:32:17:142,39.530,-0.093,0.673,-0.134,6.011,141.758,9.053
19:32:17:198,39.586,-0.270,0.671,-0.353,6.851,135.116,18.578
19:32:17:198,39.586,-0.365,0.538,-0.564,8.852,130.911,24.795
19:32:17:22,39.608,-0.447,0.236,-0.708,14.080,125.724,33.526
19:32:17:25,39.638,-0.531,-0.039,-0.783,18.657,123.366,38.896
19:32:17:273,39.661,-0.442,-0.347,-0.770,26.099,121.734,46.240
19:32:17:329,39.717,-0.308,-0.682,-0.743,32.820,122.004,52.636
19:32:17:33,39.718,-0.258,-0.796,-0.709,36.036,123.028,56.280
19:32:17:352,39.740,-0.213,-0.822,-0.530,37.923,125.316,60.467
19:32:17:378,39.766,-0.226,-0.733,-0.421,37.016,126.932,62.132
19:32:17:404,39.792,-0.251,-0.673,-0.378,33.042,129.054,62.651
19:32:17:489,39.877,-0.381,-0.440,-0.441,28.023,130.526,60.675
19:32:17:49,39.878,-0.489,-0.339,-0.481,25.133,131.218,57.993
19:32:17:51,39.898,-0.790,0.118,-0.566,19.516,132.813,47.011
19:32:17:536,39.925,-0.955,0.472,-0.564,16.620,135.102,38.395
19:32:17:59,39.979,-1.067,0.825,-0.296,14.841,137.920,32.341
19:32:17:591,39.980,-0.872,0.990,0.043,12.909,144.651,23.439
19:32:17:614,40.003,-0.493,0.817,0.316,12.615,153.467,15.175
19:32:17:64,40.029,-0.271,0.651,0.409,13.285,160.333,10.405
19:32:17:666,40.055,0.045,0.270,0.482,15.504,171.785,4.949
19:32:17:693,40.081,0.191,0.083,0.498,17.649,179.393,2.393
19:32:17:748,40.136,0.335,0.015,0.502,21.400,-170.184,-0.129
19:32:17:749,40.137,0.527,-0.069,0.510,25.337,-161.696,-1.665
19:32:17:801,40.189,0.629,-0.101,0.518,27.915,-157.649,-2.708
19:32:17:802,40.190,0.760,-0.198,0.462,31.563,-153.990,-4.810
19:32:17:825,40.213,0.820,-0.292,0.403,33.756,-152.944,-6.762
19:32:17:851,40.239,0.806,-0.352,0.295,36.579,-152.661,-10.420
19:32:17:877,40.265,0.839,-0.338,0.264,38.859,-152.497,-14.199
19:32:17:902,40.291,0.901,-0.353,0.239,40.121,-151.724,-16.171
19:32:17:929,40.318,0.917,-0.484,0.136,41.584,-149.097,-17.673
19:32:17:955,40.344,0.958,-0.411,0.143,42.045,-146.659,-17.717
19:32:17:982,40.371,0.910,-0.556,-0.009,41.763,-142.768,-16.696
19:32:18:008,40.397,0.874,-0.508,-0.116,40.383,-139.878,-15.204
19:32:18:036,40.425,0.948,-0.370,-0.061,38.844,-139.107,-14.435
19:32:18:06,40.449,1.025,-0.213,0.044,35.799,-139.477,-13.612
19:32:18:088,40.476,1.062,-0.005,0.100,33.321,-140.617,-13.170
19:32:18:113,40.502,1.078,0.275,0.021,28.786,-144.162,-12.598
19:32:18:139,40.528,0.715,0.573,0.068,25.338,-147.892,-12.001
19:32:18:169,40.558,0.563,0.522,0.030,20.160,-155.291,-9.815
19:32:18:169,40.558,0.185,0.549,-0.055,16.195,-162.808,-5.205
19:32:18:221,40.609,0.187,0.505,-0.074,14.588,-167.275,-0.859
19:32:18:222,40.610,-0.063,0.553,-0.003,13.594,-173.566,6.900
19:32:18:303,40.692,-0.195,0.594,0.053,13.895,-177.256,12.512
19:32:18:303,40.692,-0.533,0.362,0.034,15.974,177.430,21.148
19:32:18:304,40.693,-0.576,0.149,0.055,20.141,172.714,29.004
19:32:18:323,40.712,-0.690,-0.122,-0.048,23.641,170.334,33.810
19:32:18:349,40.738,-0.642,-0.393,-0.090,29.062,168.516,40.435
19:32:18:375,40.764,-0.615,-0.468,-0.113,32.248,168.320,44.430
19:32:18:401,40.790,-0.615,-0.624,-0.133,35.741,168.915,49.286
19:32:18:428,40.816,-0.687,-0.555,-0.111,36.760,169.660,51.420
19:32:18:483,40.871,-0.687,-0.486,-0.089,36.492,170.946,52.710
19:32:18:484,40.872,-0.750,-0.288,0.006,34.907,172.040,51.526
19:32:18:507,40.895,-0.857,-0.182,0.070,33.462,172.545,49.403
19:32:18:533,40.922,-0.931,0.031,0.141,30.901,173.084,44.485
19:32:18:559,40.948,-0.968,0.196,0.143,29.414,173.464,40.427
19:32:18:585,40.974,-0.954,0.380,0.318,27.420,174.652,33.754
19:32:18:612,41.000,-0.772,0.428,0.499,25.475,177.586,26.803
19:32:18:638,41.026,-0.524,0.500,0.571,24.199,-179.042,22.284
19:32:18:665,41.053,-0.128,0.363,0.564,22.798,-172.126,15.981
19:32:18:72,41.108,-0.008,0.234,0.505,22.447,-166.829,12.029
19:32:18:721,41.109,0.214,0.071,0.463,22.871,-158.745,6.392
19:32:18:742,41.131,0.506,-0.021,0.268,24.381,-150.736,1.560
19:32:18:769,41.158,0.608,-0.073,0.216,25.825,-146.499,-1.602
19:32:18:795,41.184,0.679,-0.096,0.095,28.269,-142.247,-6.569
19:32:18:821,41.210,0.752,-0.051,-0.099,29.903,-140.783,-10.027
19:32:18:849,41.238,0.717,-0.163,-0.135,32.087,-140.403,-15.386
19:32:18:9,41.288,0.689,-0.302,-0.291,34.719,-140.598,-22.507
19:32:18:927,41.315,0.724,-0.360,-0.352,35.939,-139.550,-24.631
19:32:18:953,41.341,0.795,-0.370,-0.382,36.584,-138.178,-25.012
19:32:18:98,41.368,0.834,-0.354,-0.393,37.043,-135.688,-24.417
19:32:19:036,41.424,0.874,-0.236,-0.415,36.845,-134.161,-23.528
19:32:19:036,41.424,0.762,-0.324,-0.480,35.994,-132.102,-21.588
19:32:19:087,41.475,0.734,-0.265,-0.493,34.328,-131.157,-19.519
19:32:19:088,41.476,0.886,-0.126,-0.419,32.834,-131.497,-18.202
19:32:19:112,41.501,1.069,0.147,-0.247,30.119,-133.558,-16.249
19:32:19:136,41.525,1.054,0.318,-0.158,28.126,-135.839,-14.751
19:32:19:192,41.581,0.881,0.546,0.076,25.162,-140.235,-11.764
19:32:19:192,41.581,0.614,0.623,0.156,23.452,-143.345,-8.977
19:32:19:215,41.604,0.391,0.600,0.270,21.597,-147.768,-3.354
19:32:19:242,41.631,0.194,0.500,0.335,20.711,-151.270,3.971
19:32:19:268,41.657,0.069,0.457,0.412,20.618,-153.193,9.507
19:32:19:294,41.682,-0.165,0.418,0.441,21.339,-155.786,18.309
19:32:19:321,41.709,-0.333,0.352,0.475,22.564,-157.508,24.239
19:32:19:349,41.737,-0.467,0.247,0.411,25.905,-160.262,32.836
19:32:19:374,41.762,-0.645,0.081,0.373,31.796,-163.232,40.737
19:32:19:4,41.788,-0.754,-0.104,0.354,37.115,-165.006,45.538
19:32:19:426,41.815,-0.839,-0.434,0.220,45.938,-166.762,51.988
19:32:19:452,41.841,-0.825,-0.595,0.108,51.412,-167.080,55.794
19:32:19:478,41.866,-0.760,-0.800,-0.045,57.560,-166.318,60.565
19:32:19:504,41.892,-0.712,-0.713,0.008,59.912,-165.197,62.959
19:32:19:531,41.919,-0.708,-0.646,0.085,61.020,-163.492,64.812
19:32:19:557,41.945,-0.775,-0.492,0.230,59.693,-162.398,64.210
19:32:19:583,41.971,-0.775,-0.493,0.320,57.893,-161.990,62.534
19:32:19:609,41.997,-0.744,-0.419,0.464,54.122,-161.789,58.473
19:32:19:637,42.025,-0.779,-0.297,0.575,51.039,-161.570,54.920
19:32:19:663,42.051,-0.764,-0.013,0.753,45.682,-160.754,48.678
19:32:19:717,42.106,-0.606,0.290,0.854,40.002,-158.796,41.849
19:32:19:717,42.106,-0.426,0.370,0.892,36.422,-156.624,37.254
19:32:19:8,42.189,-0.115,0.400,0.885,31.725,-152.284,30.347
19:32:19:8,42.189,0.069,0.293,0.705,29.234,-148.915,25.826
19:32:19:8,42.189,0.218,0.277,0.540,26.422,-143.290,19.375
19:32:19:877,42.265,0.374,0.225,0.324,25.151,-139.328,15.274
19:32:19:878,42.266,0.484,0.183,0.196,24.220,-133.749,9.268
19:32:19:879,42.267,0.633,0.174,0.034,24.320,-129.184,3.255
19:32:19:898,42.286,0.695,0.179,-0.070,24.826,-127.023,-0.868
19:32:19:924,42.312,0.714,0.101,-0.238,25.962,-125.126,-7.206
19:32:19:951,42.339,0.679,-0.024,-0.481,26.847,-124.409,-11.406
19:32:19:978,42.366,0.706,-0.098,-0.652,28.167,-123.732,-17.400
19:32:20:003,42.392,0.781,-0.232,-0.804,29.267,-123.465,-22.358
19:32:20:029,42.418,0.775,-0.324,-0.840,29.882,-122.784,-24.572
19:32:20:055,42.443,0.623,-0.330,-0.738,30.452,-121.399,-26.002
19:32:20:082,42.470,0.649,-0.255,-0.803,30.498,-120.265,-25.855
19:32:20:108,42.496,0.606,-0.334,-0.867,30.027,-118.718,-24.317
19:32:20:136,42.524,0.640,-0.299,-0.854,29.039,-117.386,-21.963
19:32:20:161,42.549,0.739,-0.221,-0.763,27.982,-117.362,-20.317
19:32:20:187,42.575,0.910,0.043,-0.647,25.821,-119.046,-17.761
19:32:20:214,42.602,0.897,0.254,-0.515,24.057,-121.523,-15.959
19:32:20:24,42.628,0.737,0.602,-0.176,21.353,-126.864,-12.510
19:32:20:265,42.654,0.564,0.744,0.046,19.946,-130.792,-9.323
19:32:20:291,42.680,0.385,0.766,0.182,18.946,-135.880,-2.860
19:32:20:318,42.707,0.171,0.692,0.351,19.195,-139.176,5.507
19:32:20:373,42.762,0.093,0.551,0.448,19.915,-140.387,11.859
19:32:20:374,42.763,-0.079,0.426,0.565,21.650,-141.525,21.820
19:32:20:397,42.786,-0.257,0.407,0.635,23.475,-142.431,28.338
19:32:20:426,42.814,-0.397,0.132,0.691,28.262,-144.725,37.341
19:32:20:426,42.814,-0.603,-0.307,0.656,35.793,-147.304,45.152
19:32:20:478,42.866,-0.711,-0.492,0.591,41.447,-148.400,49.821
19:32:20:479,42.867,-0.801,-0.695,0.433,49.268,-148.679,56.084
19:32:20:503,42.891,-0.741,-0.764,0.354,53.308,-147.840,59.752
19:32:20:53,42.918,-0.722,-0.859,0.357,57.385,-145.935,64.015
19:32:20:556,42.944,-0.654,-0.800,0.439,58.449,-144.039,65.977
19:32:20:581,42.969,-0.680,-0.690,0.489,57.973,-143.164,66.023
19:32:20:607,42.995,-0.695,-0.568,0.585,55.849,-142.580,64.348
19:32:20:632,43.021,-0.677,-0.463,0.731,53.467,-142.416,62.070
19:32:20:659,43.048,-0.618,-0.325,0.824,48.731,-142.522,57.091
19:32:20:714,43.103,-0.601,-0.187,0.844,45.057,-142.581,52.907
19:32:20:715,43.104,-0.585,0.035,0.959,39.119,-142.276,45.731
19:32:20:738,43.127,-0.438,0.394,1.065,33.056,-140.607,37.964
19:32:20:764,43.153,-0.249,0.555,1.009,29.329,-138.312,32.663
19:32:20:791,43.180,0.075,0.573,0.791,24.812,-133.117,24.828
19:32:20:817,43.205,0.300,0.362,0.642,22.622,-128.697,19.815
19:32:20:844,43.232,0.482,0.351,0.407,20.513,-121.158,12.894
19:32:20:87,43.258,0.545,0.314,0.009,19.888,-113.764,6.634
19:32:20:896,43.284,0.528,0.247,-0.217,20.242,-109.708,2.730
19:32:20:922,43.310,0.610,0.193,-0.324,21.433,-105.578,-2.755
19:32:20:948,43.336,0.598,0.127,-0.390,22.395,-103.730,-6.082
19:32:20:975,43.363,0.508,-0.014,-0.485,23.870,-101.392,-10.428
19:32:21:001,43.390,0.443,-0.080,-0.610,24.792,-99.931,-12.937
19:32:21:027,43.416,0.438,-0.118,-0.684,26.039,-97.669,-16.212
19:32:21:053,43.442,0.458,-0.219,-0.807,27.244,-94.957,-18.802
19:32:21:079,43.468,0.430,-0.282,-0.866,27.965,-92.876,-20.001
19:32:21:105,43.494,0.411,-0.231,-0.980,28.589,-89.606,-20.835
19:32:21:131,43.520,0.270,-0.325,-0.899,28.590,-87.579,-20.774
19:32:21:158,43.547,0.155,-0.285,-0.895,27.752,-85.343,-19.988
19:32:21:184,43.572,0.088,-0.282,-0.814,25.937,-84.510,-18.533
19:32:21:21,43.598,0.169,-0.063,-0.813,24.212,-84.711,-17.166
19:32:21:237,43.625,0.191,0.201,-0.716,21.139,-86.244,-14.414
19:32:21:264,43.652,0.175,0.464,-0.563,18.936,-88.025,-11.899
19:32:21:29,43.678,0.157,0.595,-0.396,15.920,-91.651,-6.853
19:32:21:316,43.704,0.062,0.696,-0.139,13.951,-95.907,-0.152
19:32:21:342,43.730,0.002,0.672,0.081,13.458,-98.891,5.118
19:32:21:368,43.756,-0.026,0.439,0.309,14.015,-102.786,13.894
19:32:21:395,43.783,-0.083,0.296,0.359,15.097,-104.925,19.947
19:32:21:422,43.810,-0.158,0.212,0.511,17.909,-107.866,28.759
19:32:21:446,43.835,-0.196,0.023,0.557,20.704,-109.584,34.280
19:32:21:473,43.862,-0.202,-0.292,0.553,25.944,-111.344,41.906
19:32:21:499,43.888,-0.225,-0.419,0.593,31.503,-111.946,48.643
19:32:21:526,43.914,-0.225,-0.522,0.600,34.981,-111.775,52.572
19:32:21:553,43.941,-0.216,-0.527,0.605,39.260,-110.893,57.390
19:32:21:579,43.967,-0.192,-0.490,0.719,41.249,-110.090,59.642
19:32:21:634,44.022,-0.155,-0.512,0.749,42.586,-108.733,61.447
19:32:21:634,44.022,-0.135,-0.484,0.843,41.610,-106.990,61.497
19:32:21:657,44.046,-0.103,-0.371,0.971,39.707,-105.984,60.520
19:32:21:682,44.071,-0.012,-0.230,1.067,35.367,-103.912,57.749
19:32:21:709,44.098,0.011,-0.042,1.107,31.886,-102.516,55.093
19:32:21:735,44.124,-0.073,0.190,1.036,26.967,-100.548,50.049
19:32:21:762,44.151,-0.086,0.248,1.005,24.423,-99.456,46.261
19:32:21:789,44.178,0.051,0.247,0.968,21.598,-97.702,40.428
19:32:21:814,44.203,0.227,0.195,0.763,19.483,-95.306,34.669
19:32:21:84,44.228,0.284,0.167,0.609,18.301,-93.166,30.907
19:32:21:867,44.255,0.261,0.068,0.335,16.832,-88.845,25.445
19:32:21:893,44.281,0.241,-0.042,0.150,16.153,-85.295,21.971
19:32:21:919,44.307,0.252,-0.060,0.039,15.653,-79.311,17.179
19:32:21:946,44.334,0.267,-0.063,-0.097,15.803,-73.083,12.871
19:32:21:974,44.362,0.249,-0.059,-0.200,16.225,-69.085,10.179
19:32:21:998,44.386,0.189,0.023,-0.345,17.165,-63.728,6.182
19:32:22:024,44.413,0.089,0.019,-0.459,17.920,-60.735,3.432
19:32:22:05,44.439,0.001,-0.055,-0.503,19.147,-57.391,-0.878
19:32:22:078,44.467,-0.069,-0.086,-0.611,20.215,-55.268,-5.213
19:32:22:104,44.493,-0.126,-0.053,-0.679,20.715,-54.340,-7.888
19:32:22:129,44.518,-0.206,-0.058,-0.786,21.048,-53.536,-11.276
19:32:22:155,44.544,-0.216,-0.114,-0.772,20.993,-53.019,-12.860
19:32:22:182,44.571,-0.202,0.011,-0.732,20.391,-52.105,-13.899
19:32:22:208,44.596,-0.260,-0.053,-0.627,19.732,-51.226,-13.734
19:32:22:234,44.622,-0.349,-0.076,-0.588,18.365,-49.804,-12.370
19:32:22:261,44.649,-0.328,-0.053,-0.566,16.626,-48.606,-10.115
19:32:22:288,44.676,-0.294,0.143,-0.601,15.234,-48.477,-8.255
19:32:22:317,44.705,-0.222,0.476,-0.483,12.902,-49.656,-4.827
19:32:22:339,44.728,-0.141,0.696,-0.239,11.420,-51.436,-1.948
19:32:22:365,44.754,-0.078,0.723,-0.031,9.834,-55.089,3.589
19:32:22:421,44.809,-0.020,0.591,0.258,9.486,-58.970,10.574
19:32:22:421,44.809,0.014,0.504,0.396,9.991,-61.076,15.984
19:32:22:472,44.860,0.085,0.388,0.549,11.781,-63.529,24.654
19:32:22:501,44.889,0.147,0.246,0.590,13.768,-64.752,30.553
19:32:22:501,44.889,0.207,0.034,0.604,18.093,-66.180,39.177
19:32:22:523,44.912,0.247,-0.129,0.669,22.020,-66.919,44.595
19:32:22:552,44.941,0.208,-0.379,0.687,29.384,-67.587,52.056
19:32:22:553,44.942,0.206,-0.563,0.629,37.509,-67.465,58.582
19:32:22:604,44.993,0.203,-0.701,0.597,42.569,-66.978,62.311
19:32:22:605,44.994,0.166,-0.812,0.515,48.075,-65.732,66.684
19:32:22:655,45.043,0.196,-0.751,0.464,49.711,-64.735,68.564
19:32:22:683,45.071,0.246,-0.738,0.460,48.733,-63.260,69.533
19:32:22:684,45.072,0.402,-0.575,0.511,44.078,-61.924,68.197
19:32:22:736,45.124,0.494,-0.463,0.600,39.779,-61.198,65.968
19:32:22:737,45.125,0.591,-0.307,0.700,33.013,-60.373,60.894
19:32:22:759,45.147,0.690,-0.073,0.814,28.889,-59.996,56.602
19:32:22:786,45.174,0.731,0.202,0.919,23.470,-59.377,49.336
19:32:22:84,45.229,0.789,0.506,0.929,18.707,-58.223,41.653
19:32:22:841,45.230,0.748,0.637,0.796,15.886,-56.766,36.561
19:32:22:894,45.283,0.547,0.579,0.430,12.557,-53.588,29.061
19:32:22:894,45.283,0.397,0.442,0.255,11.102,-51.022,24.223
19:32:22:916,45.305,0.201,0.130,0.036,9.882,-46.692,17.399
19:32:22:972,45.360,0.136,-0.038,-0.070,9.580,-43.617,13.241
19:32:22:973,45.361,0.103,-0.084,-0.215,9.650,-38.870,7.606
19:32:22:995,45.383,-0.013,-0.077,-0.298,10.233,-34.037,2.582
19:32:23:022,45.410,-0.107,-0.075,-0.336,10.863,-30.923,-0.489
19:32:23:049,45.437,-0.272,-0.064,-0.356,12.060,-26.508,-4.809
19:32:23:074,45.462,-0.383,-0.069,-0.377,12.921,-23.942,-7.565
19:32:23:101,45.489,-0.487,-0.097,-0.373,14.129,-20.799,-11.606
19:32:23:127,45.515,-0.698,-0.120,-0.388,14.989,-18.725,-15.544
19:32:23:153,45.541,-0.839,-0.153,-0.394,15.212,-18.039,-17.967
19:32:23:18,45.569,-0.866,-0.255,-0.396,14.866,-17.661,-20.582
19:32:23:206,45.595,-0.759,-0.102,-0.291,14.230,-17.527,-21.339
19:32:23:231,45.620,-0.643,-0.084,-0.188,12.947,-17.196,-21.042
19:32:23:258,45.647,-0.746,-0.098,-0.122,12.079,-16.644,-19.928
19:32:23:284,45.673,-0.702,-0.075,-0.149,10.684,-15.761,-17.340
19:32:23:311,45.700,-0.745,0.208,-0.219,9.142,-15.177,-13.967
19:32:23:337,45.726,-0.675,0.363,-0.192,8.001,-15.398,-11.298
19:32:23:364,45.752,-0.464,0.619,-0.088,6.329,-16.886,-6.428
19:32:23:389,45.777,-0.261,0.671,0.080,5.476,-18.490,-2.523
19:32:23:416,45.804,-0.100,0.637,0.182,4.891,-21.384,4.366
19:32:23:442,45.830,0.142,0.517,0.336,5.323,-24.338,12.383
19:32:23:497,45.885,0.275,0.420,0.394,6.252,-26.026,18.163
19:32:23:498,45.886,0.444,0.279,0.445,8.619,-27.893,27.099
19:32:23:522,45.910,0.528,0.157,0.410,10.732,-28.591,33.022
19:32:23:546,45.935,0.582,0.018,0.403,14.880,-29.145,41.503
19:32:23:572,45.961,0.654,-0.132,0.404,18.489,-29.359,46.756
19:32:23:599,45.988,0.621,-0.328,0.442,25.605,-29.533,53.888
19:32:23:625,46.014,0.608,-0.571,0.425,34.265,-29.323,60.042
19:32:23:651,46.040,0.566,-0.672,0.403,39.895,-28.814,63.573
19:32:23:679,46.068,0.501,-0.762,0.361,46.500,-27.744,67.767
19:32:23:705,46.094,0.481,-0.724,0.340,48.949,-27.028,69.597
19:32:23:731,46.119,0.502,-0.659,0.312,49.434,-26.239,70.647
19:32:23:757,46.145,0.680,-0.554,0.319,46.449,-25.842,69.613
19:32:23:783,46.171,0.740,-0.496,0.270,42.926,-25.739,67.764
19:32:23:809,46.197,0.875,-0.386,0.380,36.619,-25.733,63.529
19:32:23:836,46.224,0.947,-0.259,0.376,32.166,-25.627,59.944
19:32:23:862,46.250,1.112,-0.074,0.370,25.562,-24.747,53.814
19:32:23:946,46.335,1.246,0.241,0.226,19.249,-22.473,47.021
19:32:23:947,46.336,1.179,0.413,0.102,15.381,-19.870,42.219
19:32:23:947,46.336,0.862,0.529,-0.096,10.583,-14.246,34.706
19:32:23:994,46.383,0.561,0.439,-0.126,8.309,-9.558,29.540
19:32:24:022,46.411,0.278,0.325,-0.140,6.385,-1.666,21.808
19:32:24:023,46.412,0.073,0.198,-0.165,5.982,3.925,16.906
19:32:24:045,46.434,-0.078,0.117,-0.229,6.556,12.155,10.206
19:32:24:072,46.460,-0.275,0.096,-0.216,8.175,19.583,4.322
19:32:24:098,46.486,-0.406,0.116,-0.140,9.587,23.719,0.763
19:32:24:124,46.512,-0.526,0.133,-0.010,11.880,28.280,-4.293
19:32:24:15,46.538,-0.615,0.077,0.114,13.391,30.145,-7.625
19:32:24:179,46.567,-0.661,-0.025,0.120,15.471,31.489,-12.625
19:32:24:203,46.591,-0.782,-0.178,0.148,17.246,32.136,-17.369
19:32:24:23,46.618,-0.840,-0.209,0.223,18.172,32.734,-20.011
19:32:24:256,46.644,-0.838,-0.261,0.259,19.271,34.135,-22.829
19:32:24:281,46.670,-0.828,-0.158,0.288,19.655,35.605,-23.512
19:32:24:309,46.698,-0.751,-0.305,0.349,19.646,37.941,-23.362
19:32:24:336,46.725,-0.749,-0.374,0.429,18.791,40.129,-22.147
19:32:24:36,46.749,-0.729,-0.315,0.462,17.634,41.021,-21.030
19:32:24:386,46.775,-0.828,-0.049,0.396,15.059,41.109,-18.963
19:32:24:443,46.831,-0.852,0.098,0.382,12.902,40.290,-17.209
19:32:24:444,46.832,-0.750,0.436,0.296,9.174,37.526,-13.770
19:32:24:467,46.855,-0.576,0.577,0.216,6.720,34.886,-10.720
19:32:24:492,46.881,-0.250,0.607,0.188,3.668,30.520,-4.745
19:32:24:518,46.907,0.053,0.526,0.197,1.620,26.054,2.927
19:32:24:545,46.934,0.242,0.518,0.137,0.823,23.251,8.816
19:32:24:57,46.959,0.418,0.467,0.074,0.519,19.328,18.316
19:32:24:597,46.986,0.562,0.428,-0.019,0.934,16.977,24.839
19:32:24:623,47.012,0.681,0.255,-0.023,2.715,13.699,34.491
19:32:24:649,47.037,0.743,0.028,-0.032,6.509,10.743,43.482
19:32:24:676,47.064,0.811,-0.121,-0.039,10.562,8.986,48.964
19:32:24:702,47.090,0.852,-0.445,-0.047,19.216,6.902,56.231
19:32:24:728,47.116,0.836,-0.625,-0.030,25.879,6.083,60.352
19:32:24:754,47.142,0.709,-0.776,0.031,34.908,5.664,65.314
19:32:24:781,47.169,0.693,-0.781,0.030,40.333,5.667,68.250
19:32:24:807,47.195,0.685,-0.727,-0.024,41.376,5.758,68.995
19:32:24:833,47.221,0.774,-0.641,-0.130,39.170,5.881,68.187
19:32:24:859,47.248,0.791,-0.539,-0.128,35.665,5.975,66.422
19:32:24:889,47.278,0.916,-0.408,-0.123,29.241,5.987,62.201
19:32:24:889,47.278,0.953,-0.285,-0.138,24.843,6.119,58.581
19:32:24:941,47.330,1.052,-0.043,-0.206,18.568,6.823,52.203
19:32:24:942,47.331,1.055,0.301,-0.315,13.124,8.471,44.832
19:32:25:022,47.410,0.909,0.446,-0.364,10.112,10.317,39.426
19:32:25:023,47.411,0.589,0.524,-0.333,6.762,14.159,30.739
19:32:25:043,47.431,0.125,0.350,-0.084,4.225,22.590,15.785
19:32:25:13,47.518,-0.069,0.249,0.029,4.297,28.127,7.365
19:32:25:13,47.518,-0.210,0.202,0.033,4.925,31.544,2.212
19:32:25:13,47.518,-0.436,0.152,0.097,6.474,36.062,-4.718
19:32:25:149,47.537,-0.551,0.118,0.270,7.733,38.408,-8.814
19:32:25:175,47.563,-0.567,-0.012,0.386,9.616,40.396,-14.204
19:32:25:201,47.589,-0.603,-0.122,0.394,10.727,41.022,-17.221
19:32:25:226,47.615,-0.622,-0.159,0.433,12.174,41.668,-20.912
19:32:25:253,47.642,-0.653,-0.171,0.472,13.430,42.318,-23.652
19:32:25:279,47.668,-0.740,-0.204,0.499,13.949,43.357,-23.665
19:32:25:305,47.694,-0.742,-0.265,0.537,15.029,44.928,-24.810
19:32:25:332,47.721,-0.762,-0.207,0.531,15.511,46.062,-25.007
19:32:25:389,47.778,-0.666,-0.277,0.534,15.632,47.717,-24.377
19:32:25:389,47.778,-0.592,-0.321,0.541,14.938,48.998,-22.794
19:32:25:411,47.799,-0.632,-0.214,0.541,13.898,49.258,-21.333
19:32:25:437,47.825,-0.763,0.103,0.525,11.592,48.366,-18.716
19:32:25:464,47.852,-0.762,0.252,0.487,9.716,46.772,-16.678
19:32:25:489,47.878,-0.655,0.587,0.309,6.730,42.972,-12.860
19:32:25:544,47.933,-0.362,0.632,0.142,4.351,38.410,-7.701
19:32:25:545,47.934,-0.199,0.566,0.078,3.409,35.653,-3.466
19:32:25:628,48.017,0.000,0.471,0.011,2.653,32.145,3.962
19:32:25:628,48.017,0.141,0.416,-0.063,2.480,30.133,9.467
19:32:25:628,48.017,0.270,0.384,-0.133,2.664,27.465,18.249
19:32:25:648,48.036,0.432,0.359,-0.209,3.129,25.808,24.302
19:32:25:673,48.061,0.542,0.230,-0.256,4.664,23.374,33.373
19:32:25:7,48.088,0.623,0.021,-0.315,7.829,21.046,42.143
19:32:25:727,48.115,0.690,-0.092,-0.327,11.182,19.630,47.659
19:32:25:752,48.141,0.804,-0.232,-0.314,18.795,17.769,55.209
19:32:25:778,48.166,0.910,-0.482,-0.315,25.952,16.828,59.647
19:32:25:804,48.192,0.890,-0.621,-0.286,38.038,16.125,65.240
19:32:25:831,48.219,0.769,-0.852,-0.213,47.687,16.520,69.448
19:32:25:859,48.247,0.749,-0.812,-0.159,51.298,17.187,71.335
19:32:25:883,48.271,0.745,-0.799,-0.238,52.152,18.299,72.520
19:32:25:912,48.300,0.698,-0.761,-0.311,49.621,19.046,72.163
19:32:25:937,48.325,0.707,-0.559,-0.330,41.492,19.981,69.816
19:32:25:963,48.351,0.794,-0.401,-0.283,34.742,20.371,67.100
19:32:26:016,48.405,0.915,-0.214,-0.338,25.635,20.593,61.486
19:32:26:017,48.406,1.040,0.049,-0.474,18.946,20.499,54.116
19:32:26:071,48.460,0.981,0.206,-0.525,15.390,20.552,48.299
19:32:26:071,48.460,0.776,0.389,-0.488,10.638,21.623,38.537
19:32:26:123,48.512,0.500,0.429,-0.293,7.923,23.265,31.704
19:32:26:123,48.512,0.268,0.506,-0.092,4.996,26.919,21.421
19:32:26:205,48.593,0.038,0.400,0.096,3.664,30.652,11.684
19:32:26:205,48.593,-0.153,0.293,0.084,3.419,32.897,5.793
19:32:26:205,48.593,-0.476,0.182,0.286,3.626,35.725,-1.769
19:32:26:225,48.613,-0.458,0.114,0.298,3.945,36.959,-5.760
19:32:26:251,48.639,-0.295,0.060,0.315,4.399,38.345,-10.190
19:32:26:277,48.665,-0.377,0.048,0.446,4.832,39.803,-13.153
19:32:26:303,48.691,-0.437,-0.025,0.502,5.199,40.997,-14.688
19:32:26:33,48.718,-0.501,-0.151,0.518,5.841,43.034,-16.750
19:32:26:355,48.744,-0.579,-0.174,0.530,6.320,44.558,-17.973
19:32:26:381,48.770,-0.593,-0.175,0.543,6.954,46.766,-19.405
19:32:26:408,48.797,-0.658,-0.105,0.608,7.205,48.084,-19.898
19:32:26:434,48.823,-0.559,-0.165,0.614,7.151,50.624,-19.771
19:32:26:46,48.849,-0.431,-0.165,0.626,6.486,51.379,-18.466
19:32:26:487,48.876,-0.373,-0.123,0.583,5.746,52.168,-16.922
19:32:26:513,48.902,-0.420,0.244,0.524,4.264,51.686,-13.574
19:32:26:539,48.927,-0.351,0.533,0.453,3.218,51.298,-10.735
19:32:26:566,48.954,-0.225,0.638,0.359,1.741,50.037,-5.482
19:32:26:593,48.981,-0.021,0.640,0.233,0.553,48.449,1.000
19:32:26:618,49.006,0.120,0.618,0.145,-0.072,47.157,6.012
19:32:26:645,49.033,0.333,0.565,-0.001,-0.600,44.671,14.504
19:32:26:671,49.060,0.479,0.407,-0.177,-0.262,41.673,23.827
19:32:26:726,49.114,0.545,0.313,-0.245,0.685,39.483,30.189
19:32:26:726,49.114,0.698,0.147,-0.363,3.897,36.095,39.557
19:32:26:779,49.167,0.709,-0.020,-0.382,7.331,34.373,45.328
19:32:26:779,49.167,0.735,-0.275,-0.393,14.604,32.536,53.329
19:32:26:802,49.190,0.703,-0.454,-0.425,20.716,32.005,58.175
19:32:26:828,49.216,0.680,-0.623,-0.369,30.844,32.120,64.688
19:32:26:855,49.243,0.632,-0.751,-0.330,40.745,33.031,70.208
19:32:26:881,49.269,0.615,-0.830,-0.315,46.291,33.883,73.178
19:32:26:907,49.295,0.540,-0.838,-0.309,51.473,35.158,76.268
19:32:26:962,49.351,0.501,-0.795,-0.300,52.458,35.839,77.309
19:32:26:963,49.352,0.537,-0.742,-0.342,49.756,36.475,77.199
19:32:26:986,49.375,0.623,-0.584,-0.428,42.417,36.672,74.835
19:32:27:07,49.459,0.724,-0.520,-0.514,36.299,36.570,71.960
19:32:27:071,49.460,0.859,-0.360,-0.607,26.981,36.281,65.892
19:32:27:072,49.461,0.961,-0.202,-0.631,21.284,36.317,60.957
19:32:27:091,49.480,1.037,0.084,-0.824,13.781,37.365,52.696
19:32:27:117,49.505,0.930,0.479,-1.040,9.467,39.118,46.788
19:32:27:143,49.531,0.674,0.769,-0.958,4.338,43.682,37.472
19:32:27:171,49.559,0.334,0.779,-0.560,1.250,50.376,27.837
19:32:27:196,49.584,0.186,0.676,-0.306,0.336,55.684,21.503
19:32:27:222,49.610,0.006,0.307,-0.044,0.438,64.363,12.757
19:32:27:251,49.639,-0.145,0.150,0.040,1.270,70.131,7.793
19:32:27:252,49.640,-0.225,0.123,0.167,3.314,77.911,1.646
19:32:27:275,49.663,-0.274,0.076,0.340,5.881,84.074,-3.144
19:32:27:3,49.689,-0.234,0.009,0.417,7.655,87.149,-5.789
19:32:27:326,49.715,-0.170,-0.036,0.501,10.141,90.253,-9.286
19:32:27:353,49.742,-0.167,-0.049,0.549,11.620,91.533,-11.475
19:32:27:408,49.797,-0.224,-0.208,0.601,13.680,92.925,-14.669
19:32:27:409,49.798,-0.174,-0.241,0.692,15.562,94.345,-17.762
19:32:27:461,49.850,-0.179,-0.184,0.777,16.626,95.395,-19.707
19:32:27:461,49.850,-0.157,-0.212,0.921,17.986,97.485,-22.004
19:32:27:486,49.874,-0.084,-0.281,0.924,18.625,99.277,-22.893
19:32:27:511,49.899,0.010,-0.280,0.884,18.920,102.191,-23.166
19:32:27:537,49.925,0.114,-0.248,0.798,18.458,103.969,-22.667
19:32:27:563,49.951,0.199,-0.254,0.818,16.835,107.069,-21.143
19:32:27:59,49.978,0.118,-0.021,0.897,14.150,107.415,-18.930
19:32:27:616,50.004,0.112,0.109,0.916,11.871,107.549,-17.110
19:32:27:642,50.030,0.113,0.358,0.761,7.997,104.612,-13.628
19:32:27:667,50.056,0.214,0.551,0.463,5.424,101.678,-10.608
19:32:27:694,50.083,0.250,0.568,0.274,2.278,96.040,-4.870
19:32:27:722,50.111,0.332,0.472,0.000,0.641,90.248,2.416
19:32:27:776,50.165,0.368,0.419,-0.123,0.371,86.844,7.942
19:32:27:777,50.166,0.445,0.358,-0.326,1.073,82.716,16.815
19:32:27:799,50.188,0.432,0.269,-0.469,2.282,80.619,22.844
19:32:27:855,50.243,0.471,0.186,-0.509,5.054,78.578,31.620
19:32:27:855,50.243,0.460,0.009,-0.618,7.757,77.651,37.116
19:32:27:907,50.295,0.423,-0.143,-0.672,13.296,76.970,44.548
19:32:27:908,50.296,0.370,-0.365,-0.705,20.001,77.227,50.982
19:32:27:932,50.320,0.360,-0.461,-0.692,24.428,77.860,54.430
19:32:27:958,50.346,0.343,-0.620,-0.621,30.193,79.156,58.478
19:32:27:984,50.372,0.314,-0.679,-0.538,32.895,80.111,60.367
19:32:28:01,50.398,0.304,-0.663,-0.508,34.782,81.446,61.824
19:32:28:036,50.424,0.252,-0.546,-0.594,34.107,82.444,61.400
19:32:28:062,50.450,0.197,-0.437,-0.700,32.494,82.921,60.000
19:32:28:088,50.476,0.053,-0.343,-0.836,28.766,83.675,56.386
19:32:28:114,50.502,0.006,-0.249,-0.857,25.580,84.473,53.128
19:32:28:141,50.529,-0.089,-0.080,-0.915,20.367,86.623,47.371
19:32:28:196,50.584,-0.213,0.293,-0.999,15.100,90.319,40.752
19:32:28:197,50.585,-0.324,0.523,-0.920,11.917,93.808,35.979
19:32:28:22,50.608,-0.388,0.688,-0.586,8.312,100.551,28.392
19:32:28:245,50.634,-0.349,0.595,-0.285,6.930,105.704,23.159
19:32:28:272,50.661,-0.233,0.370,-0.023,6.274,113.751,15.395
19:32:28:357,50.746,-0.079,0.193,0.122,6.541,118.962,10.550
19:32:28:357,50.746,0.005,0.145,0.216,7.789,125.663,3.740
19:32:28:358,50.747,0.060,0.116,0.399,9.766,130.709,-2.612
19:32:28:377,50.765,0.080,0.096,0.515,11.325,133.199,-6.608
19:32:28:404,50.792,0.170,0.081,0.625,13.781,135.827,-12.252
19:32:28:43,50.818,0.268,0.047,0.659,15.436,136.980,-15.826
19:32:28:485,50.873,0.412,-0.085,0.654,17.952,138.411,-20.784
19:32:28:486,50.874,0.571,-0.237,0.586,20.533,140.053,-25.092
19:32:28:508,50.896,0.622,-0.283,0.605,22.213,141.279,-27.521
19:32:28:536,50.924,0.732,-0.315,0.730,24.599,143.522,-30.282
19:32:28:56,50.949,0.803,-0.398,0.773,26.088,145.299,-31.419
19:32:28:587,50.976,0.818,-0.399,0.724,27.679,147.947,-32.128
19:32:28:613,51.002,0.835,-0.509,0.616,28.188,149.597,-31.995
19:32:28:64,51.029,0.883,-0.527,0.564,27.928,151.606,-31.130
19:32:28:665,51.054,0.825,-0.505,0.596,26.296,152.348,-29.914
19:32:28:692,51.081,0.842,-0.378,0.692,24.428,152.059,-28.861
19:32:28:718,51.106,0.794,-0.071,0.801,20.680,150.337,-26.729
19:32:28:744,51.132,0.688,0.279,0.680,17.681,148.310,-24.763
19:32:28:771,51.159,0.547,0.455,0.569,13.109,144.331,-20.540
19:32:28:8,51.188,0.361,0.484,0.357,9.401,140.095,-14.399
19:32:28:823,51.211,0.292,0.475,0.286,7.591,137.445,-9.364
19:32:28:85,51.238,0.136,0.509,0.082,5.803,133.586,-0.847
19:32:28:876,51.264,0.077,0.497,-0.028,5.253,131.062,5.145
19:32:28:902,51.290,-0.082,0.402,-0.240,5.481,127.145,14.221
19:32:28:928,51.317,-0.139,0.335,-0.358,6.396,124.653,20.072
19:32:28:981,51.370,-0.273,0.007,-0.621,13.135,118.522,35.718
19:32:29:007,51.396,-0.325,-0.327,-0.722,16.712,117.157,40.102
19:32:29:033,51.422,-0.294,-0.459,-0.748,22.029,116.295,45.826
19:32:29:059,51.448,-0.274,-0.564,-0.789,24.735,116.448,48.935
19:32:29:085,51.474,-0.259,-0.605,-0.725,26.836,117.529,52.358
19:32:29:112,51.500,-0.298,-0.644,-0.702,26.917,118.821,54.014
19:32:29:14,51.528,-0.333,-0.536,-0.729,26.273,119.496,54.074
