Time,Second,AccelerationX,AccelerationY,AccelerationZ,EulerAnglesX,EulerAnglesY,EulerAnglesZ
13:38:27:31,0.000,0.007,0.022,0.014,8.861,-19.889,29.450
13:38:27:336,0.026,0.019,0.017,0.023,8.855,-19.430,29.352
13:38:27:364,0.054,0.015,0.014,0.013,8.857,-18.737,29.170
13:38:27:389,0.079,0.013,0.015,0.013,8.868,-18.111,28.947
13:38:27:416,0.106,0.014,0.016,0.002,8.883,-17.737,28.775
13:38:27:441,0.131,0.012,0.017,-0.005,8.916,-17.298,28.502
13:38:27:467,0.157,0.004,0.024,-0.010,8.922,-17.063,28.330
13:38:27:494,0.184,0.002,0.031,-0.005,8.939,-16.796,28.071
13:38:27:52,0.209,-0.006,0.040,-0.003,8.959,-16.651,27.839
13:38:27:546,0.236,-0.006,0.032,0.000,8.975,-16.565,27.719
13:38:27:572,0.262,-0.011,0.031,-0.002,8.978,-16.487,27.630
13:38:27:598,0.288,-0.018,0.021,-0.003,8.973,-16.460,27.625
13:38:27:624,0.314,-0.013,0.017,0.013,8.997,-16.515,27.668
13:38:27:653,0.343,0.002,0.019,0.004,9.041,-16.733,27.701
13:38:27:678,0.368,0.004,0.027,0.020,9.078,-16.931,27.705
13:38:27:703,0.393,0.007,0.015,0.020,9.130,-17.286,27.650
13:38:27:73,0.420,0.009,0.011,0.030,9.160,-17.551,27.581
13:38:27:756,0.446,0.019,0.002,0.023,9.214,-17.926,27.481
13:38:27:784,0.474,0.018,0.004,0.031,9.260,-18.143,27.426
13:38:27:809,0.499,0.017,0.011,0.019,9.311,-18.390,27.379
13:38:27:893,0.582,0.021,0.006,0.023,9.374,-18.641,27.314
13:38:27:894,0.583,0.027,0.011,0.016,9.412,-18.775,27.261
13:38:27:894,0.584,0.028,0.015,0.019,9.472,-18.864,27.217
13:38:27:914,0.604,0.028,0.019,0.010,9.501,-18.905,27.202
13:38:27:94,0.630,0.025,0.019,0.018,9.531,-18.955,27.184
13:38:27:966,0.656,0.029,0.007,0.021,9.575,-19.020,27.148
13:38:27:992,0.682,0.023,0.004,0.023,9.597,-19.038,27.120
13:38:28:019,0.709,0.025,0.007,0.024,9.622,-19.017,27.086
13:38:28:044,0.734,0.019,0.015,0.021,9.630,-19.003,27.061
13:38:28:071,0.761,0.015,0.018,0.015,9.625,-18.841,27.050
13:38:28:097,0.787,0.018,0.016,0.018,9.630,-18.683,27.020
13:38:28:123,0.813,0.019,0.015,0.008,9.629,-18.569,27.014
13:38:28:15,0.840,0.011,0.014,0.017,9.632,-18.391,27.018
13:38:28:176,0.865,0.010,0.012,0.018,9.638,-18.318,26.999
13:38:28:203,0.893,0.010,0.015,0.018,9.631,-18.199,26.956
13:38:28:228,0.918,0.010,0.020,0.020,9.624,-18.132,26.921
13:38:28:255,0.944,0.001,0.017,0.025,9.634,-17.909,26.891
13:38:28:281,0.971,0.001,0.022,0.026,9.640,-17.744,26.865
13:38:28:309,0.999,-0.003,0.024,0.023,9.654,-17.452,26.862
13:38:28:334,1.024,-0.006,0.015,0.020,9.673,-17.260,26.884
13:38:28:36,1.050,-0.006,0.014,0.016,9.697,-17.115,26.899
13:38:28:386,1.076,-0.009,0.004,0.022,9.706,-17.043,26.912
13:38:28:416,1.106,0.003,0.005,0.019,9.716,-17.053,26.889
13:38:28:416,1.106,0.004,0.015,0.022,9.710,-17.079,26.884
13:38:28:438,1.128,0.007,0.015,0.016,9.720,-17.111,26.860
13:38:28:494,1.184,0.007,0.017,0.023,9.729,-17.114,26.852
13:38:28:495,1.185,0.012,0.015,0.016,9.747,-17.101,26.848
13:38:28:517,1.207,0.017,0.012,0.022,9.775,-17.094,26.861
13:38:28:572,1.262,0.020,0.013,0.013,9.803,-17.062,26.892
13:38:28:573,1.263,0.013,0.011,0.023,9.827,-16.990,26.926
13:38:28:598,1.288,0.007,0.015,0.016,9.838,-16.923,26.955
13:38:28:623,1.313,0.007,0.006,0.018,9.844,-16.814,26.997
13:38:28:648,1.338,0.013,0.010,0.013,9.831,-16.772,27.011
13:38:28:703,1.393,0.010,0.015,0.016,9.827,-16.754,27.013
13:38:28:704,1.394,0.017,0.018,0.013,9.804,-16.778,26.986
13:38:28:727,1.417,0.020,0.014,0.018,9.799,-16.811,26.965
13:38:28:754,1.444,0.021,0.018,0.015,9.790,-16.803,26.925
13:38:28:78,1.470,0.022,0.013,0.016,9.780,-16.766,26.899
13:38:28:806,1.496,0.011,0.002,0.017,9.781,-16.675,26.883
13:38:28:832,1.522,0.009,0.024,0.009,9.756,-16.491,26.895
13:38:28:858,1.548,0.003,0.030,-0.001,9.723,-16.333,26.911
13:38:28:885,1.574,0.005,0.021,-0.002,9.704,-16.116,26.943
13:38:28:911,1.601,0.004,0.013,0.001,9.707,-15.976,26.975
13:38:28:937,1.627,-0.003,0.015,0.001,9.714,-15.809,27.034
13:38:28:964,1.654,0.002,0.009,0.008,9.694,-15.712,27.067
13:38:28:99,1.680,0.007,0.004,0.011,9.674,-15.674,27.073
13:38:29:016,1.706,0.012,0.007,0.013,9.612,-15.577,27.077
13:38:29:042,1.732,0.009,0.016,0.000,9.553,-15.477,27.077
13:38:29:068,1.758,0.005,0.016,0.000,9.486,-15.346,27.078
13:38:29:095,1.785,0.011,0.016,-0.004,9.449,-15.295,27.082
13:38:29:15,1.840,0.011,0.019,0.001,9.401,-15.203,27.089
13:38:29:151,1.841,0.008,0.014,0.002,9.346,-15.101,27.098
13:38:29:174,1.863,0.010,0.015,0.005,9.309,-15.029,27.102
13:38:29:199,1.889,0.014,0.011,0.007,9.257,-14.948,27.078
13:38:29:226,1.916,0.012,0.018,0.011,9.233,-14.895,27.058
13:38:29:252,1.942,0.006,0.019,0.005,9.182,-14.792,27.021
13:38:29:308,1.998,0.009,0.016,0.019,9.147,-14.669,26.996
13:38:29:309,1.998,0.002,0.010,0.007,9.130,-14.550,26.996
13:38:29:333,2.023,-0.009,0.015,0.010,9.100,-14.332,27.004
13:38:29:357,2.047,0.001,0.015,0.003,9.076,-14.193,27.015
13:38:29:385,2.075,0.002,0.019,0.002,9.051,-14.028,27.011
13:38:29:411,2.100,0.000,0.015,0.004,9.030,-13.931,27.001
13:38:29:436,2.126,0.000,0.010,0.015,9.004,-13.813,26.991
13:38:29:463,2.153,0.007,0.010,0.011,8.976,-13.706,26.971
13:38:29:488,2.178,0.000,0.010,0.019,8.972,-13.595,26.966
13:38:29:515,2.205,0.000,0.012,0.013,8.966,-13.358,26.975
13:38:29:542,2.232,-0.007,0.016,0.003,8.961,-13.161,27.002
13:38:29:567,2.257,-0.016,0.008,0.000,8.980,-12.856,27.049
13:38:29:594,2.284,-0.018,0.021,0.003,8.979,-12.522,27.110
13:38:29:62,2.310,-0.027,0.037,0.001,8.967,-12.276,27.141
13:38:29:646,2.336,-0.027,0.023,0.002,8.981,-11.897,27.188
13:38:29:672,2.362,-0.054,0.012,-0.002,9.018,-11.619,27.262
13:38:29:699,2.389,-0.039,0.017,0.005,9.063,-11.478,27.302
13:38:29:725,2.415,-0.029,0.040,-0.004,9.058,-11.638,27.291
13:38:29:751,2.441,-0.018,0.015,-0.005,9.067,-11.833,27.229
13:38:29:777,2.467,-0.005,-0.009,0.012,9.111,-12.246,27.096
13:38:29:803,2.493,0.014,-0.006,0.018,9.122,-12.555,26.989
13:38:29:829,2.519,0.027,0.010,0.027,9.058,-12.912,26.866
13:38:29:885,2.575,0.009,0.013,0.004,9.007,-12.954,26.825
13:38:29:886,2.575,0.005,-0.003,0.006,8.936,-12.802,26.772
13:38:29:909,2.598,0.008,0.008,0.000,8.872,-12.603,26.724
13:38:29:934,2.624,0.011,0.044,0.008,8.800,-12.479,26.676
13:38:29:961,2.651,0.000,0.056,0.003,8.666,-12.344,26.535
13:38:29:987,2.677,-0.013,0.025,0.025,8.620,-12.295,26.423
13:38:30:013,2.703,-0.014,-0.006,0.023,8.604,-12.238,26.302
13:38:30:039,2.729,-0.018,-0.039,0.030,8.629,-12.207,26.270
13:38:30:095,2.785,0.011,-0.034,0.015,8.628,-12.244,26.254
13:38:30:096,2.785,0.002,-0.009,0.004,8.562,-12.224,26.205
13:38:30:148,2.838,0.016,-0.007,-0.007,8.513,-12.200,26.108
13:38:30:148,2.838,0.019,0.048,0.017,8.425,-12.084,25.931
13:38:30:171,2.861,0.013,0.071,0.040,8.346,-11.850,25.816
13:38:30:197,2.887,0.001,0.034,0.038,8.340,-11.185,25.724
13:38:30:224,2.913,-0.063,-0.032,0.029,8.385,-10.082,25.841
13:38:30:249,2.939,-0.055,-0.034,0.043,8.346,-9.544,25.930
13:38:30:276,2.966,-0.046,-0.002,0.031,8.219,-9.143,25.912
13:38:30:302,2.992,-0.018,0.041,0.036,8.153,-9.041,25.768
13:38:30:329,3.019,-0.032,0.081,0.035,8.073,-8.845,25.371
13:38:30:354,3.044,-0.037,0.044,0.044,8.061,-8.538,24.863
13:38:30:381,3.071,-0.042,0.003,0.037,8.079,-8.315,24.523
13:38:30:407,3.097,-0.044,0.002,0.028,8.028,-8.070,24.056
13:38:30:435,3.125,-0.049,0.042,0.023,7.918,-7.998,23.721
13:38:30:462,3.152,-0.032,0.055,0.024,7.825,-8.028,23.180
13:38:30:487,3.177,-0.036,0.048,0.012,7.801,-8.166,22.546
13:38:30:514,3.204,-0.035,0.042,0.020,7.799,-8.285,22.103
13:38:30:541,3.231,-0.063,0.035,0.008,7.860,-8.442,21.536
13:38:30:566,3.256,-0.054,0.027,-0.010,7.893,-8.558,21.247
13:38:30:623,3.313,-0.067,0.024,-0.012,7.915,-8.934,20.868
13:38:30:624,3.314,-0.085,0.008,-0.014,7.948,-9.524,20.617
13:38:30:624,3.314,-0.085,0.028,-0.017,7.989,-10.082,20.470
13:38:30:645,3.335,-0.079,0.032,-0.040,8.054,-11.049,20.208
13:38:30:671,3.361,-0.093,0.003,-0.041,8.071,-11.725,20.073
13:38:30:696,3.386,-0.126,0.008,-0.064,8.223,-13.186,19.435
13:38:30:722,3.412,-0.133,0.061,-0.075,8.383,-14.306,19.003
13:38:30:778,3.468,-0.122,0.123,-0.106,8.751,-16.373,18.237
13:38:30:778,3.468,-0.125,0.074,-0.109,9.229,-18.647,17.440
13:38:30:829,3.519,-0.116,0.020,-0.103,9.585,-19.746,17.033
13:38:30:856,3.546,-0.166,-0.095,-0.060,10.085,-20.999,16.835
13:38:30:857,3.547,-0.172,-0.070,-0.084,10.329,-21.156,17.141
13:38:30:88,3.570,-0.321,0.024,-0.224,10.548,-20.657,18.257
13:38:30:906,3.596,-0.210,0.006,-0.227,11.010,-21.240,19.719
13:38:30:932,3.622,-0.175,-0.011,-0.227,11.519,-22.077,20.772
13:38:30:958,3.648,-0.092,0.062,-0.146,12.405,-23.509,22.316
13:38:30:986,3.676,-0.052,0.117,-0.133,13.022,-24.383,23.348
13:38:31:04,3.730,0.048,0.087,-0.165,13.862,-24.365,25.027
13:38:31:04,3.730,0.073,0.054,-0.159,14.239,-23.736,26.272
13:38:31:093,3.783,0.051,0.045,-0.165,14.457,-22.091,28.323
13:38:31:094,3.784,0.039,-0.017,-0.094,14.506,-20.765,30.436
13:38:31:116,3.806,0.062,-0.088,-0.095,14.571,-20.195,31.802
13:38:31:142,3.832,0.099,-0.119,-0.101,14.658,-19.837,33.631
13:38:31:17,3.860,0.118,-0.115,-0.063,14.656,-19.864,34.633
13:38:31:195,3.885,0.208,-0.152,0.079,14.627,-20.687,35.706
13:38:31:221,3.911,0.293,-0.136,0.119,14.452,-22.001,36.162
13:38:31:247,3.937,0.407,-0.086,0.182,14.187,-23.195,35.901
13:38:31:302,3.992,0.669,0.030,0.443,13.522,-24.461,34.561
13:38:31:303,3.993,0.836,-0.154,0.479,12.918,-24.913,33.313
13:38:31:326,4.016,0.908,-0.012,0.422,11.601,-24.338,31.010
13:38:31:381,4.071,0.800,0.432,0.306,9.946,-22.514,27.588
13:38:31:382,4.072,0.572,0.472,0.238,9.099,-21.059,24.806
13:38:31:434,4.124,0.314,0.547,0.113,8.230,-19.179,19.942
13:38:31:435,4.124,0.027,0.718,0.005,7.737,-17.680,16.525
13:38:31:487,4.177,-0.345,0.598,-0.127,7.100,-14.477,11.663
13:38:31:487,4.177,-0.651,0.323,-0.208,6.891,-11.730,8.688
13:38:31:564,4.254,-0.778,0.092,-0.167,7.021,-7.842,4.429
13:38:31:595,4.285,-0.961,-0.166,-0.139,7.605,-4.225,0.629
13:38:31:595,4.285,-0.953,-0.305,-0.112,8.160,-1.837,-1.434
13:38:31:596,4.286,-0.876,-0.534,-0.052,9.046,1.764,-3.669
13:38:31:616,4.306,-0.724,-0.677,0.084,9.618,4.261,-4.525
13:38:31:641,4.331,-0.584,-0.768,0.120,10.389,7.932,-4.864
13:38:31:667,4.357,-0.591,-0.965,0.244,11.214,12.596,-3.942
13:38:31:694,4.384,-0.548,-0.934,0.476,11.728,15.467,-2.934
13:38:31:72,4.410,-0.493,-1.107,0.226,12.797,19.844,-0.701
13:38:31:748,4.438,-0.676,-1.346,0.110,13.478,23.841,1.393
13:38:31:772,4.462,-1.043,-0.976,0.340,12.790,29.497,4.139
13:38:31:798,4.488,-1.984,0.671,0.902,10.442,32.120,5.110
13:38:31:825,4.515,-1.635,1.942,0.679,8.635,29.829,4.988
13:38:31:851,4.541,-0.076,1.977,0.118,2.467,20.611,9.115
13:38:31:877,4.567,-0.484,2.085,0.202,1.682,15.921,11.633
13:38:31:903,4.593,0.061,1.899,-0.017,0.263,8.970,17.479
13:38:31:932,4.622,0.611,1.182,-0.169,-0.109,0.378,23.331
13:38:31:985,4.675,1.027,0.517,0.033,3.382,-10.284,32.202
13:38:31:986,4.676,0.953,0.094,0.214,7.658,-14.415,39.518
13:38:32:008,4.698,0.794,-0.512,0.229,9.059,-14.784,44.418
13:38:32:035,4.725,0.758,-1.131,0.093,7.491,-13.414,51.072
13:38:32:061,4.751,0.336,-0.866,-0.161,4.664,-11.837,54.432
13:38:32:087,4.777,0.759,-1.305,-0.008,5.919,-12.686,58.679
13:38:32:113,4.803,1.261,-1.929,0.122,12.094,-14.252,62.348
13:38:32:14,4.830,1.145,-1.753,0.109,14.781,-13.756,64.497
13:38:32:166,4.856,1.320,-1.267,0.136,14.108,-10.388,67.388
13:38:32:192,4.882,1.679,-0.721,-0.047,9.686,-6.455,68.204
13:38:32:219,4.909,1.400,-0.075,-0.321,-1.040,1.815,65.882
13:38:32:245,4.935,1.167,2.857,-0.545,-6.087,8.446,61.670
13:38:32:271,4.961,1.344,1.307,0.546,-3.042,14.483,53.848
13:38:32:297,4.987,-0.197,2.445,0.756,-9.277,24.006,47.925
13:38:32:323,5.013,-0.529,1.032,-0.103,-10.628,30.554,45.902
13:38:32:35,5.040,-1.117,0.361,0.100,-7.655,35.281,44.471
13:38:32:377,5.067,-0.733,-0.271,0.443,-5.434,38.520,43.268
13:38:32:402,5.092,-0.555,-0.667,0.502,-2.920,42.430,41.861
13:38:32:486,5.176,-0.541,-1.032,0.596,-1.365,47.063,40.724
13:38:32:487,5.177,-0.540,-1.260,0.614,-1.070,50.705,40.385
13:38:32:488,5.178,-0.550,-1.422,0.641,-1.669,56.616,40.339
13:38:32:507,5.197,-0.536,-1.461,0.699,-2.900,60.605,40.558
13:38:32:534,5.224,-0.476,-1.389,0.812,-5.146,65.214,41.433
13:38:32:561,5.250,-0.500,-0.678,1.051,-7.399,67.070,43.107
13:38:32:586,5.276,-0.566,0.272,1.329,-7.212,65.548,44.849
13:38:32:612,5.302,-0.615,1.496,0.294,-8.222,55.921,49.869
13:38:32:639,5.328,0.734,1.783,0.437,-1.888,49.996,53.914
13:38:32:694,5.384,0.518,2.930,-0.802,3.782,49.709,53.571
13:38:32:695,5.385,0.699,1.208,-0.187,0.664,48.938,56.094
13:38:32:717,5.407,1.003,1.519,-0.747,-3.037,48.590,58.365
13:38:32:745,5.435,0.757,0.246,-0.420,-5.275,46.912,61.974
13:38:32:77,5.460,0.536,-0.343,-0.339,-4.900,45.248,64.445
13:38:32:796,5.486,0.590,-0.684,-0.383,-2.841,42.600,68.108
13:38:32:826,5.516,0.559,-1.064,-0.447,-2.389,41.359,69.737
13:38:32:826,5.516,0.468,-0.921,-0.342,-6.922,40.514,71.842
13:38:32:849,5.539,0.419,-1.060,-0.336,-9.832,40.250,73.132
13:38:32:877,5.567,0.461,-1.277,-0.375,-8.108,39.985,74.177
13:38:32:902,5.592,0.538,-1.309,-0.514,-5.658,40.797,75.638
13:38:32:927,5.617,0.636,-1.273,-0.555,-5.618,42.639,76.020
13:38:32:983,5.673,0.688,-1.178,-1.034,-11.875,47.533,75.342
13:38:32:983,5.673,0.323,1.072,-0.839,-23.448,56.412,70.537
13:38:33:037,5.727,0.238,3.154,-0.553,-21.896,62.244,64.408
13:38:33:037,5.727,0.660,1.519,-0.182,-2.801,66.131,55.932
13:38:33:059,5.749,0.647,1.354,0.362,5.618,67.154,52.393
13:38:33:169,5.859,-0.150,-0.114,0.342,6.950,76.091,46.870
13:38:33:17,5.860,-0.235,-0.047,0.469,1.605,85.056,44.038
13:38:33:171,5.860,-0.198,-0.274,0.763,-0.717,92.851,41.742
13:38:33:19,5.880,-0.154,-0.564,0.708,0.155,96.159,40.558
13:38:33:245,5.935,-0.066,-0.917,0.657,2.208,99.917,38.922
13:38:33:245,5.935,0.050,-1.151,0.722,3.551,102.317,37.963
13:38:33:269,5.959,0.131,-1.046,0.731,4.539,105.768,36.681
13:38:33:295,5.984,0.191,-1.133,0.650,4.859,108.359,36.413
13:38:33:321,6.011,0.308,-1.011,0.792,4.188,109.321,36.687
13:38:33:347,6.037,-0.336,-0.608,0.401,1.221,108.674,38.795
13:38:33:373,6.063,0.617,1.043,1.838,-0.536,112.631,39.071
13:38:33:401,6.091,0.232,1.259,1.340,-3.753,110.114,40.630
13:38:33:426,6.116,-0.051,3.073,-0.190,-1.388,102.326,42.222
13:38:33:452,6.142,0.212,2.689,-0.539,1.637,97.560,44.466
13:38:33:508,6.197,0.421,1.287,-0.608,5.535,92.320,49.504
13:38:33:509,6.198,0.357,0.347,-0.844,7.317,89.826,53.451
13:38:33:532,6.222,0.277,-0.031,-0.842,8.519,87.448,59.226
13:38:33:558,6.248,0.115,-0.489,-0.681,7.812,86.311,62.984
13:38:33:583,6.273,0.096,-0.918,-0.632,4.292,84.856,68.025
13:38:33:61,6.300,-0.025,-1.027,-0.671,-2.564,84.114,71.599
13:38:33:636,6.326,-0.119,-0.875,-0.652,-6.120,83.600,73.254
13:38:33:691,6.381,0.068,-1.221,-0.862,-4.190,82.498,75.289
13:38:33:692,6.382,0.113,-1.461,-0.956,0.081,82.473,76.267
13:38:33:744,6.433,0.076,-1.417,-1.130,3.351,84.180,77.368
13:38:33:745,6.434,-0.195,-1.137,-1.256,-2.829,88.475,77.206
13:38:33:767,6.457,-0.366,-0.518,-1.208,-12.764,93.076,75.340
13:38:33:793,6.483,0.027,3.072,-0.810,-16.193,102.880,66.854
13:38:33:82,6.510,1.294,0.493,-0.932,-6.974,104.399,62.315
13:38:33:846,6.536,0.859,2.502,-0.597,-2.676,112.115,54.156
13:38:33:872,6.562,0.424,0.861,0.882,-5.643,121.111,50.727
13:38:33:987,6.676,0.459,0.415,0.899,-6.120,127.779,48.654
13:38:33:987,6.676,0.531,-0.282,0.716,-5.747,135.185,46.832
13:38:33:988,6.677,0.551,-0.683,0.622,-4.549,138.536,46.146
13:38:33:989,6.678,0.560,-1.102,0.577,-3.530,142.469,45.370
13:38:34:003,6.693,0.667,-1.570,0.610,-3.427,145.393,45.384
13:38:34:03,6.720,0.775,-1.604,0.533,-3.817,149.581,45.538
13:38:34:056,6.746,0.854,-1.393,0.353,-4.720,152.243,45.987
13:38:34:082,6.772,0.731,-1.124,0.250,-5.367,152.853,46.372
13:38:34:11,6.800,0.741,-0.645,0.340,-6.927,153.208,47.185
13:38:34:135,6.825,0.876,0.325,0.323,-9.332,151.792,48.175
13:38:34:161,6.851,1.384,1.449,0.758,-15.042,147.990,51.411
13:38:34:187,6.877,1.265,1.746,0.013,-9.170,147.214,51.281
13:38:34:213,6.903,-0.150,2.929,-0.655,-10.851,141.989,54.916
13:38:34:269,6.959,-0.282,1.275,-0.735,-8.728,137.984,59.470
13:38:34:27,6.960,-0.344,0.252,-0.617,-8.229,135.437,62.963
13:38:34:292,6.982,-0.388,0.005,-0.491,-9.389,133.038,66.810
13:38:34:318,7.008,-0.370,-0.464,-0.383,-13.696,131.315,68.901
13:38:34:345,7.035,-0.247,-0.613,-0.244,-15.829,130.370,69.351
13:38:34:373,7.062,-0.295,-0.999,-0.249,-13.755,128.480,69.326
13:38:34:397,7.087,-0.355,-1.166,-0.317,-10.084,127.206,68.999
13:38:34:423,7.113,-0.436,-1.263,-0.315,-5.351,126.002,68.546
13:38:34:45,7.140,-0.481,-1.265,-0.392,-3.367,125.666,68.197
13:38:34:476,7.166,-0.530,-1.065,-0.560,-2.132,125.963,67.325
13:38:34:502,7.192,-0.440,-0.787,-0.878,-0.759,127.103,66.057
13:38:34:528,7.218,-0.904,-0.266,-1.079,0.829,128.643,64.767
13:38:34:555,7.245,-1.059,0.777,-0.639,1.384,133.380,61.362
13:38:34:581,7.271,-0.526,2.164,0.143,1.240,137.835,57.843
13:38:34:607,7.297,-0.596,1.882,-0.613,5.686,143.695,50.729
13:38:34:634,7.323,0.442,1.861,-0.070,6.764,150.981,44.521
13:38:34:66,7.350,0.602,0.891,0.522,6.387,156.520,42.092
13:38:34:715,7.405,0.608,0.618,0.745,6.712,163.466,38.462
13:38:34:716,7.406,0.930,-0.023,0.624,7.601,167.611,36.750
13:38:34:742,7.432,0.740,-0.514,0.337,10.229,171.637,34.064
13:38:34:825,7.515,0.744,-0.848,0.241,12.834,174.763,32.031
13:38:34:825,7.515,0.650,-1.094,0.184,13.691,177.350,31.260
13:38:34:825,7.515,0.586,-1.202,-0.010,14.034,-178.138,30.622
13:38:34:845,7.535,0.617,-1.339,-0.088,14.107,-175.207,30.550
13:38:34:87,7.560,0.554,-1.242,-0.110,13.668,-171.537,31.212
13:38:34:896,7.586,0.548,-1.540,-0.198,13.742,-169.558,32.689
13:38:34:951,7.641,0.817,-1.180,-0.031,12.967,-168.138,34.499
13:38:34:952,7.642,0.971,-1.177,-0.040,9.932,-170.230,38.538
13:38:35:005,7.695,1.781,0.416,-0.189,8.122,-170.789,39.407
13:38:35:005,7.695,1.442,1.812,0.583,11.971,-172.805,32.940
13:38:35:028,7.717,-0.433,3.241,1.098,11.266,179.615,33.780
13:38:35:053,7.743,0.150,2.122,-0.076,11.237,172.909,35.584
13:38:35:08,7.770,-0.954,1.237,-0.248,9.532,166.036,39.333
13:38:35:109,7.799,-0.982,0.464,-0.342,8.073,162.993,41.460
13:38:35:109,7.799,-0.776,-0.200,-0.256,4.233,159.496,45.163
13:38:35:132,7.822,-0.744,-0.688,-0.356,2.657,156.918,47.234
13:38:35:188,7.877,-0.675,-1.030,-0.363,1.445,153.677,50.565
13:38:35:189,7.878,-0.601,-1.214,-0.260,-0.405,152.394,53.325
13:38:35:241,7.931,-0.591,-1.281,-0.156,-1.415,152.135,54.855
13:38:35:242,7.931,-0.673,-1.309,-0.154,-1.592,152.177,56.858
13:38:35:263,7.953,-0.636,-1.134,-0.234,-1.519,152.745,57.986
13:38:35:29,7.980,-0.624,-0.984,-0.401,-1.488,154.462,59.216
13:38:35:316,8.006,-1.051,-0.616,-0.502,-1.711,157.555,59.206
13:38:35:342,8.032,-0.862,0.154,-0.287,-4.378,162.155,57.558
13:38:35:369,8.059,-0.241,3.765,0.708,-6.792,169.219,50.921
13:38:35:394,8.084,0.189,2.007,-0.955,2.376,168.602,46.804
13:38:35:423,8.113,0.043,1.777,-0.683,5.315,171.559,43.735
13:38:35:448,8.138,0.826,0.556,0.041,4.448,176.490,44.322
13:38:35:473,8.163,0.266,0.120,0.214,4.001,-179.082,43.883
13:38:35:499,8.189,0.514,-0.369,0.116,3.022,-175.409,43.297
13:38:35:526,8.216,0.596,-0.397,0.044,2.027,-173.121,43.335
13:38:35:554,8.244,0.412,-1.059,-0.022,2.360,-170.386,43.360
13:38:35:578,8.268,0.475,-1.093,-0.063,1.811,-168.400,43.057
13:38:35:605,8.295,0.492,-1.155,-0.101,0.276,-164.319,43.020
13:38:35:631,8.321,0.625,-1.188,-0.154,-1.464,-161.141,43.478
13:38:35:658,8.348,0.655,-1.068,-0.226,-2.216,-160.191,43.845
13:38:35:684,8.374,0.444,-0.882,-0.186,-2.955,-160.611,45.113
13:38:35:71,8.400,1.145,-0.097,-0.641,-4.362,-161.405,46.982
13:38:35:736,8.426,1.491,0.963,-0.972,-7.425,-164.078,49.040
13:38:35:763,8.452,0.378,1.880,-0.132,-6.600,-168.168,50.850
13:38:35:789,8.479,-1.322,3.016,0.187,2.290,-171.806,47.881
13:38:35:816,8.506,-0.241,1.501,-0.363,9.060,-174.671,49.410
13:38:35:841,8.531,-0.914,1.179,-0.358,12.265,-175.924,51.341
13:38:35:867,8.557,-0.704,0.217,-0.182,14.557,-176.280,54.760
13:38:35:923,8.613,-0.563,-0.110,-0.137,13.657,-175.682,57.332
13:38:35:924,8.614,-0.457,-0.500,-0.096,10.288,-174.794,61.202
13:38:35:947,8.637,-0.543,-0.885,-0.020,5.745,-174.349,64.833
13:38:35:973,8.663,-0.541,-0.937,0.035,1.694,-173.994,66.932
13:38:35:998,8.688,-0.431,-0.980,0.107,-0.031,-173.478,69.489
13:38:36:025,8.715,-0.757,-1.408,0.174,4.609,-173.575,70.911
13:38:36:051,8.741,-0.949,-1.426,0.227,10.637,-171.951,72.165
13:38:36:077,8.767,-1.178,-1.531,0.283,10.877,-168.470,72.400
13:38:36:103,8.793,-1.400,-1.170,0.652,4.197,-164.338,71.603
13:38:36:13,8.820,-1.081,0.779,1.008,-13.531,-154.438,66.989
13:38:36:157,8.847,-0.107,3.730,0.300,-18.264,-145.665,60.456
13:38:36:182,8.872,-1.002,1.451,-0.674,-7.261,-140.798,52.014
13:38:36:208,8.898,-0.012,1.850,-0.448,-2.291,-137.963,45.847
13:38:36:235,8.925,0.743,1.083,-0.482,-3.707,-128.232,42.119
13:38:36:262,8.952,0.885,0.445,-0.310,-5.104,-117.739,38.451
13:38:36:288,8.978,0.822,-0.346,-0.986,-5.021,-112.834,36.986
13:38:36:343,9.033,0.467,-0.602,-0.713,-1.557,-108.526,35.943
13:38:36:344,9.033,0.399,-0.980,-0.534,1.402,-106.965,35.751
13:38:36:366,9.056,0.319,-1.210,-0.505,4.763,-104.155,35.697
13:38:36:392,9.082,0.265,-1.330,-0.600,6.230,-100.345,36.189
13:38:36:418,9.108,0.310,-1.166,-0.739,6.211,-97.684,36.858
13:38:36:446,9.136,0.248,-1.073,-0.653,6.359,-94.847,37.984
13:38:36:498,9.188,0.112,-1.060,-0.686,6.296,-93.973,39.043
13:38:36:527,9.217,0.242,-0.336,-0.631,4.550,-94.980,41.308
13:38:36:528,9.218,0.314,1.534,-1.634,-1.340,-96.618,44.997
13:38:36:55,9.240,0.204,1.751,-0.124,-2.014,-99.333,46.412
13:38:36:576,9.266,0.577,0.838,-2.116,0.081,-99.940,46.923
13:38:36:602,9.292,-0.193,2.577,1.632,5.014,-100.988,43.584
13:38:36:629,9.319,-0.407,0.983,0.106,2.021,-105.524,46.776
13:38:36:656,9.345,-0.507,0.760,0.715,0.528,-107.735,47.917
13:38:36:681,9.371,-0.458,0.035,0.447,-0.761,-112.554,50.890
13:38:36:707,9.397,-0.375,-0.438,0.430,-1.030,-117.247,54.014
13:38:36:733,9.423,-0.386,-0.707,0.476,-0.928,-120.234,55.954
13:38:36:76,9.450,-0.409,-0.930,0.420,-2.105,-123.417,58.438
13:38:36:815,9.505,-0.330,-0.895,0.415,-3.632,-124.502,59.844
13:38:36:816,9.506,-0.400,-1.009,0.540,-3.556,-125.286,61.749
13:38:36:84,9.530,-0.470,-1.060,0.770,-3.169,-124.449,63.806
13:38:36:865,9.555,-0.642,-1.022,0.927,-3.539,-121.939,65.103
13:38:36:891,9.581,-0.533,-0.939,1.435,-7.590,-116.396,65.513
13:38:36:919,9.609,0.089,1.069,0.824,-17.064,-106.737,61.702
13:38:36:944,9.633,0.300,3.225,0.146,-17.368,-100.265,56.618
13:38:36:97,9.660,-1.035,0.365,-0.084,-2.467,-94.973,49.216
13:38:36:996,9.686,-0.730,1.036,0.101,2.284,-93.835,45.793
13:38:37:022,9.712,0.169,0.581,-0.682,4.715,-85.888,43.557
13:38:37:049,9.739,0.380,-0.226,-0.424,4.185,-80.192,42.439
13:38:37:075,9.764,0.362,-0.114,-0.676,-0.450,-71.796,40.676
13:38:37:101,9.791,-0.075,-0.575,-0.900,0.013,-64.806,39.728
13:38:37:127,9.817,-0.063,-0.890,-0.619,2.126,-62.522,39.411
13:38:37:153,9.843,-0.171,-0.948,-0.574,4.772,-59.408,39.138
13:38:37:181,9.871,-0.177,-1.000,-0.459,5.914,-57.764,39.245
13:38:37:206,9.896,-0.244,-0.829,-0.446,6.476,-55.797,39.863
13:38:37:263,9.952,-0.383,-0.792,-0.505,6.681,-54.844,40.660
13:38:37:263,9.953,-0.182,-0.850,-0.323,6.329,-55.087,41.476
13:38:37:285,9.975,-0.526,0.005,-0.979,3.739,-55.452,44.769
13:38:37:311,10.001,-0.642,1.151,-1.248,1.086,-56.208,47.519
13:38:37:338,10.028,-0.598,0.815,-0.280,4.199,-58.644,46.342
13:38:37:363,10.053,-0.090,1.722,-0.426,0.229,-62.583,48.937
13:38:37:419,10.109,-0.237,1.257,0.129,5.905,-63.256,48.501
13:38:37:42,10.110,0.171,1.014,0.541,8.098,-68.934,52.039
13:38:37:442,10.132,-0.001,0.263,0.664,10.467,-71.099,54.056
13:38:37:469,10.159,-0.061,0.040,0.617,11.394,-74.506,57.500
13:38:37:498,10.188,-0.103,-0.302,0.514,11.757,-76.569,59.774
13:38:37:498,10.188,-0.078,-0.620,0.546,11.591,-79.348,62.961
13:38:37:524,10.213,-0.007,-0.878,0.558,8.889,-81.077,65.501
13:38:37:577,10.267,-0.009,-0.814,0.526,4.970,-81.507,66.900
13:38:37:577,10.267,-0.011,-0.879,0.537,1.652,-81.665,68.749
13:38:37:627,10.316,0.117,-1.122,0.794,2.551,-81.645,70.098
13:38:37:655,10.345,0.189,-1.085,0.873,2.598,-80.237,72.042
13:38:37:656,10.346,0.278,-1.126,1.236,2.827,-76.001,73.112
13:38:37:708,10.398,0.601,-0.891,1.302,-0.724,-72.289,72.424
13:38:37:709,10.398,0.802,0.739,0.602,-12.179,-63.663,67.553
13:38:37:731,10.421,0.499,1.800,0.551,-13.625,-59.741,63.692
13:38:37:757,10.447,-0.209,0.842,1.519,1.650,-53.880,53.807
13:38:37:784,10.474,-0.385,1.536,0.347,8.538,-49.894,47.712
13:38:37:812,10.502,-0.306,0.841,-0.520,10.817,-44.991,44.646
13:38:37:836,10.526,0.053,0.321,-0.448,10.259,-40.082,40.660
13:38:37:864,10.553,-0.264,-0.004,-0.685,10.950,-35.920,38.494
13:38:37:89,10.580,-0.445,-0.071,-0.705,10.545,-28.781,36.024
13:38:37:915,10.605,-0.491,-0.556,-0.543,11.676,-25.534,34.705
13:38:37:941,10.631,-0.552,-0.681,-0.477,13.538,-21.536,32.979
13:38:37:967,10.657,-0.535,-0.963,-0.383,14.593,-16.897,31.890
13:38:37:994,10.683,-0.661,-1.077,-0.403,14.613,-13.406,31.818
13:38:38:02,10.710,-0.846,-1.076,-0.417,14.038,-8.716,32.610
13:38:38:046,10.736,-0.827,-0.950,-0.356,13.413,-6.887,33.436
13:38:38:073,10.762,-0.846,-1.118,-0.249,11.314,-8.135,35.391
13:38:38:128,10.818,-1.500,1.176,-0.930,11.498,-6.934,37.338
13:38:38:129,10.819,-0.981,0.721,-0.378,5.368,-10.326,40.678
13:38:38:182,10.872,1.092,3.254,-1.217,6.024,-13.297,39.460
13:38:38:182,10.872,0.177,2.181,-0.090,4.764,-16.915,42.987
13:38:38:204,10.894,0.563,1.888,0.003,6.258,-20.375,45.650
13:38:38:23,10.920,0.783,0.409,0.539,8.894,-24.085,48.278
13:38:38:256,10.946,0.675,0.201,0.477,10.660,-28.707,52.902
13:38:38:283,10.973,0.511,-0.209,0.437,11.450,-32.325,57.501
13:38:38:309,10.999,0.509,-0.461,0.460,12.015,-34.658,60.332
13:38:38:365,11.055,0.505,-0.872,0.448,11.910,-37.536,63.926
13:38:38:365,11.055,0.455,-0.841,0.294,10.606,-38.760,65.627
13:38:38:388,11.078,0.462,-0.993,0.335,11.266,-40.103,67.044
13:38:38:414,11.103,0.521,-1.096,0.382,14.429,-40.985,67.620
13:38:38:44,11.130,0.603,-1.120,0.442,15.249,-40.804,67.624
13:38:38:467,11.157,0.704,-1.222,0.720,16.225,-39.709,67.154
13:38:38:492,11.182,1.228,-0.524,0.800,14.401,-37.233,66.069
13:38:38:519,11.209,1.240,-0.052,0.573,6.796,-31.522,61.097
13:38:38:545,11.235,0.938,2.139,-0.352,2.033,-25.092,54.684
13:38:38:572,11.262,0.475,1.532,0.748,6.180,-22.923,49.111
13:38:38:598,11.287,-0.348,1.923,0.131,9.267,-18.747,41.683
13:38:38:623,11.313,-0.545,0.696,-0.390,6.932,-13.810,40.471
13:38:38:65,11.340,-0.549,0.153,-0.401,3.538,-6.332,38.026
13:38:38:676,11.366,-0.915,0.023,-0.291,1.370,-1.437,36.679
13:38:38:704,11.394,-0.731,-0.288,-0.134,1.036,3.342,35.478
13:38:38:729,11.419,-0.766,-0.663,-0.031,3.362,5.345,34.294
13:38:38:755,11.445,-0.744,-0.919,0.059,5.000,6.494,33.786
13:38:38:781,11.471,-0.623,-1.124,0.110,6.783,8.369,33.578
13:38:38:807,11.497,-0.724,-1.141,0.124,7.193,9.961,33.947
13:38:38:834,11.524,-0.789,-1.052,0.039,7.620,11.460,34.969
13:38:38:86,11.550,-0.804,-0.787,-0.017,8.405,11.082,36.358
13:38:38:886,11.576,-0.629,-0.633,-0.178,8.909,9.981,37.633
13:38:38:912,11.602,-1.349,0.545,-0.341,7.487,8.544,40.026
13:38:38:968,11.658,-0.607,2.366,-0.495,6.246,6.215,41.127
13:38:38:969,11.659,0.597,2.571,-0.745,9.074,-1.551,41.402
13:38:38:991,11.681,0.591,1.894,-0.378,13.404,-8.552,43.633
13:38:39:017,11.707,0.649,1.456,-0.133,16.264,-12.784,46.579
13:38:39:043,11.733,0.875,0.260,0.396,20.015,-18.342,51.311
13:38:39:07,11.760,0.645,-0.118,0.308,21.104,-20.778,55.041
13:38:39:096,11.786,0.526,-0.450,0.233,21.602,-23.686,60.323
13:38:39:123,11.813,0.548,-0.573,0.203,22.011,-25.552,63.612
13:38:39:149,11.839,0.542,-0.806,0.235,23.613,-28.239,67.659
13:38:39:234,11.924,0.628,-1.016,0.305,24.811,-30.287,70.590
13:38:39:234,11.924,0.583,-1.033,0.278,24.845,-30.503,71.940
13:38:39:234,11.924,0.620,-1.165,0.262,25.315,-29.889,73.232
13:38:39:312,12.002,0.748,-1.231,0.314,25.425,-28.678,73.633
13:38:39:313,12.003,0.561,-1.256,0.335,23.679,-25.304,73.921
13:38:39:313,12.003,1.121,-1.039,0.415,17.099,-20.828,72.381
13:38:39:332,12.022,1.087,-0.546,0.116,9.424,-16.560,70.226
13:38:39:359,12.049,1.018,1.563,-0.374,-4.250,-7.417,61.909
13:38:39:416,12.106,0.457,1.760,0.490,-1.569,-4.059,56.723
13:38:39:416,12.106,1.120,1.521,0.931,8.811,-2.985,46.431
13:38:39:438,12.128,-0.538,1.167,0.091,11.113,-2.070,42.118
13:38:39:464,12.153,-0.676,0.548,-0.223,10.927,-0.738,39.561
13:38:39:49,12.180,-0.401,-0.001,-0.168,8.471,1.767,35.980
13:38:39:516,12.206,-0.792,-0.249,-0.044,6.420,4.390,34.435
13:38:39:543,12.233,-0.763,-0.386,0.181,4.152,7.520,32.382
13:38:39:569,12.259,-0.724,-0.577,0.235,3.860,9.155,30.852
13:38:39:595,12.285,-0.663,-0.689,0.203,4.533,10.046,30.224
13:38:39:621,12.311,-0.526,-0.835,0.115,5.795,11.394,29.981
13:38:39:649,12.339,-0.587,-1.048,0.110,6.225,12.955,30.637
13:38:39:675,12.365,-0.567,-0.959,0.165,5.736,15.698,31.819
13:38:39:701,12.391,-0.632,-0.746,0.216,4.907,17.519,32.673
13:38:39:727,12.417,-0.708,-0.568,0.302,3.625,19.043,34.599
13:38:39:753,12.443,-1.339,1.173,0.425,2.125,19.508,37.070
13:38:39:782,12.472,-0.717,1.961,0.154,2.590,17.397,38.976
13:38:39:783,12.473,0.534,2.871,-0.036,5.893,13.469,41.602
13:38:39:831,12.521,0.336,1.734,0.092,7.973,12.893,44.875
13:38:39:86,12.550,0.818,0.738,0.069,11.651,12.007,51.206
13:38:39:861,12.551,0.789,0.171,-0.038,15.050,11.397,58.093
13:38:39:914,12.604,0.859,-0.341,-0.030,17.042,10.999,62.471
13:38:39:914,12.604,0.750,-0.618,0.022,19.298,9.751,68.575
13:38:39:937,12.627,0.626,-0.645,0.030,20.994,8.433,72.306
13:38:40:02,12.710,0.708,-0.892,0.085,30.345,5.893,77.233
13:38:40:021,12.711,0.686,-1.132,0.104,46.807,3.822,80.790
13:38:40:022,12.712,0.727,-1.334,0.145,56.319,3.112,82.355
13:38:40:07,12.760,0.603,-1.225,-0.046,60.553,3.501,83.810
13:38:40:071,12.761,0.833,-1.172,-0.146,56.715,4.131,83.538
13:38:40:094,12.783,0.661,-1.250,0.008,48.474,6.937,81.924
13:38:40:12,12.810,0.836,-0.983,-0.205,39.890,9.300,79.636
13:38:40:147,12.837,1.261,0.950,-0.516,18.901,15.135,72.949
13:38:40:172,12.862,0.671,2.081,-0.445,9.953,21.101,63.559
13:38:40:199,12.889,1.355,1.495,0.617,15.945,23.274,56.127
13:38:40:255,12.945,-0.192,1.970,0.472,15.440,28.693,48.143
13:38:40:255,12.945,-0.357,0.864,0.156,12.579,32.959,46.102
13:38:40:277,12.967,-0.831,0.410,0.363,6.913,42.012,42.384
13:38:40:303,12.993,-0.709,-0.386,0.570,5.075,49.199,40.179
13:38:40:331,13.021,-0.603,-0.657,0.551,5.688,52.344,38.970
13:38:40:356,13.046,-0.543,-0.839,0.592,6.457,56.503,37.578
13:38:40:41,13.100,-0.508,-0.974,0.608,6.533,59.254,36.901
13:38:40:438,13.127,-0.470,-1.048,0.635,5.888,63.172,36.506
13:38:40:438,13.128,-0.415,-1.061,0.612,4.805,65.984,36.764
13:38:40:463,13.153,-0.281,-0.857,0.615,3.898,67.041,37.238
13:38:40:488,13.178,-0.355,-0.907,0.759,2.083,66.699,39.175
13:38:40:514,13.204,-0.500,-0.103,0.671,-1.038,64.066,41.577
13:38:40:598,13.288,-0.432,1.437,0.969,-5.377,60.867,45.771
13:38:40:599,13.289,-1.489,2.696,0.428,-7.577,57.962,47.932
13:38:40:6,13.290,1.097,2.655,-0.713,-2.173,56.684,48.094
13:38:40:618,13.308,0.439,1.039,0.173,-1.490,50.960,53.415
13:38:40:645,13.335,0.507,0.792,-0.105,-0.606,49.963,56.990
13:38:40:672,13.362,0.720,0.029,-0.357,1.619,46.522,63.295
13:38:40:697,13.387,0.537,-0.408,-0.334,3.613,44.810,67.131
13:38:40:724,13.414,0.483,-0.656,-0.150,4.194,42.364,72.637
13:38:40:75,13.440,0.584,-0.852,-0.248,8.195,39.534,77.045
13:38:40:776,13.466,0.607,-0.931,-0.343,9.616,38.071,78.979
13:38:40:802,13.492,0.545,-1.007,-0.345,10.247,36.488,81.054
13:38:40:829,13.519,0.652,-1.072,-0.432,11.115,36.029,81.567
13:38:40:855,13.545,0.727,-1.187,-0.553,14.371,36.710,81.840
13:38:40:883,13.573,0.875,-1.197,-0.575,13.831,38.486,81.719
13:38:40:908,13.597,1.007,-1.290,-0.863,8.411,42.328,79.963
13:38:40:934,13.624,0.511,-0.612,-1.255,-10.673,49.515,75.142
13:38:40:96,13.650,0.343,2.010,-1.280,-18.751,55.019,69.020
13:38:40:986,13.676,0.028,2.107,-0.396,-4.949,61.540,58.644
13:38:41:012,13.702,1.557,1.368,-0.592,7.812,62.473,50.304
13:38:41:039,13.729,0.061,1.675,0.282,14.619,64.209,42.275
13:38:41:066,13.755,-0.477,0.533,0.578,14.828,70.151,36.349
13:38:41:092,13.782,-0.405,0.381,0.320,12.737,74.172,33.129
13:38:41:148,13.838,-0.307,-0.170,0.753,11.036,82.579,30.122
13:38:41:148,13.838,-0.229,-0.496,0.781,10.666,87.429,28.533
13:38:41:17,13.860,-0.145,-0.645,0.773,11.509,93.057,26.764
13:38:41:197,13.886,-0.109,-0.929,0.689,13.405,97.183,25.850
13:38:41:224,13.914,-0.047,-1.042,0.653,14.764,99.753,25.700
13:38:41:249,13.939,0.033,-1.052,0.659,16.246,103.108,25.994
13:38:41:275,13.965,-0.002,-1.037,0.699,16.839,105.170,26.651
13:38:41:301,13.991,-0.024,-1.125,0.700,17.019,107.702,28.359
13:38:41:328,14.018,0.013,-1.016,0.850,16.406,108.954,29.810
13:38:41:354,14.043,0.124,0.480,1.737,14.028,109.880,31.820
13:38:41:38,14.070,-0.553,1.142,1.352,11.040,103.718,34.969
13:38:41:408,14.098,-0.278,1.967,0.589,16.159,101.596,31.877
13:38:41:432,14.122,0.022,1.816,0.164,17.263,95.849,34.777
13:38:41:458,14.148,0.022,1.370,-0.323,16.488,94.681,37.672
13:38:41:485,14.175,0.193,0.903,-0.606,13.689,92.837,43.807
13:38:41:512,14.202,0.245,0.313,-0.637,9.638,90.413,50.475
13:38:41:537,14.227,0.302,-0.061,-0.700,7.389,88.000,54.860
13:38:41:564,14.254,0.366,-0.214,-0.792,6.776,83.593,61.197
13:38:41:59,14.280,0.331,-0.533,-0.753,8.668,80.620,65.221
13:38:41:616,14.306,0.357,-0.783,-0.595,13.936,76.947,70.803
13:38:41:671,14.361,0.378,-0.911,-0.674,19.813,74.527,75.488
13:38:41:672,14.362,0.383,-1.013,-0.695,23.660,73.622,78.043
13:38:41:694,14.384,0.292,-1.156,-0.696,26.505,73.417,81.305
13:38:41:722,14.412,0.258,-1.051,-0.711,24.019,74.204,82.805
13:38:41:748,14.438,0.192,-1.012,-0.726,23.425,76.996,83.713
13:38:41:773,14.463,-0.246,-1.195,-1.427,3.680,82.424,80.339
13:38:41:8,14.490,-0.545,0.463,-0.923,-15.857,86.876,77.128
13:38:41:826,14.516,0.088,2.146,-1.312,-14.840,94.508,64.753
13:38:41:852,14.542,1.431,0.654,-1.293,-3.821,98.004,57.619
13:38:41:879,14.568,0.215,1.812,-0.785,3.290,102.204,47.829
13:38:41:934,14.624,-0.219,1.706,1.163,2.207,109.473,44.112
13:38:41:935,14.625,-0.088,0.377,0.661,1.447,115.549,40.016
13:38:41:958,14.647,0.153,0.018,0.826,2.262,123.213,35.301
13:38:42:04,14.730,0.343,-0.296,1.001,3.040,127.388,33.623
13:38:42:041,14.731,0.290,-0.850,0.716,5.382,131.044,31.234
13:38:42:094,14.784,0.495,-0.928,0.695,5.935,134.046,29.888
13:38:42:095,14.785,0.546,-1.001,0.656,5.234,139.700,28.531
13:38:42:096,14.785,0.693,-0.946,0.725,4.295,144.994,27.941
13:38:42:147,14.837,0.726,-0.834,0.615,4.093,146.972,27.937
13:38:42:148,14.838,0.685,-0.760,0.476,3.988,147.933,28.832
13:38:42:148,14.838,0.754,-0.489,0.501,3.799,147.616,30.101
13:38:42:223,14.912,1.410,0.020,0.935,2.455,146.087,33.155
13:38:42:223,14.913,1.444,0.818,0.927,1.305,141.446,37.136
13:38:42:25,14.940,0.078,2.504,0.098,3.384,139.098,37.744
13:38:42:25,14.940,0.111,2.020,-0.261,6.702,132.527,41.962
13:38:42:301,14.991,-0.146,1.117,-0.553,9.837,129.495,45.295
13:38:42:328,15.018,-0.244,0.477,-0.794,14.568,126.342,51.226
13:38:42:328,15.018,-0.218,-0.047,-0.644,16.123,125.420,55.440
13:38:42:352,15.042,-0.156,-0.325,-0.530,16.043,124.630,61.660
13:38:42:377,15.067,-0.201,-0.412,-0.606,15.516,123.383,67.016
13:38:42:403,15.093,-0.197,-0.596,-0.595,16.695,122.140,69.859
13:38:42:43,15.120,-0.246,-0.783,-0.496,19.956,120.339,73.034
13:38:42:456,15.146,-0.302,-0.893,-0.536,21.764,119.351,74.320
13:38:42:485,15.175,-0.426,-0.893,-0.519,22.949,118.569,75.069
13:38:42:51,15.200,-0.424,-1.028,-0.630,26.167,118.600,74.563
13:38:42:536,15.225,-0.473,-1.083,-0.658,28.168,119.209,73.687
13:38:42:561,15.251,-0.230,-1.302,-0.612,26.789,122.165,71.546
13:38:42:588,15.278,-1.116,-0.707,-0.930,19.884,125.485,68.156
13:38:42:613,15.303,-1.228,-0.172,-0.659,10.859,132.532,62.551
13:38:42:64,15.330,-0.648,2.613,-0.275,3.914,141.029,53.536
13:38:42:666,15.356,-0.224,1.851,-0.179,7.033,145.014,47.004
13:38:42:692,15.382,0.508,2.202,0.032,14.210,147.685,35.810
13:38:42:748,15.438,0.628,1.994,0.798,14.231,152.644,31.681
13:38:42:748,15.438,0.930,0.309,0.725,12.975,159.813,27.641
13:38:42:829,15.519,1.168,-0.257,0.733,12.376,164.864,25.990
13:38:42:83,15.520,0.986,-0.641,0.457,14.175,168.738,24.103
13:38:42:831,15.521,0.955,-0.882,0.314,16.560,169.978,22.173
13:38:42:879,15.569,0.955,-0.965,0.169,17.604,171.060,21.148
13:38:42:88,15.570,0.906,-1.081,0.057,18.654,173.131,20.737
13:38:42:902,15.592,0.974,-1.257,0.161,19.189,174.414,21.528
13:38:42:958,15.647,0.934,-1.249,0.142,19.654,175.585,23.785
13:38:42:959,15.648,0.799,-1.088,0.075,19.207,175.556,26.245
13:38:43:01,15.700,0.738,-0.737,0.158,18.374,175.158,28.505
13:38:43:011,15.701,1.259,0.698,0.829,14.736,172.264,33.319
13:38:43:063,15.753,1.346,1.204,0.694,12.830,167.975,36.652
13:38:43:063,15.753,0.935,2.162,1.696,15.047,162.367,38.549
13:38:43:086,15.776,-0.935,3.008,0.620,19.118,157.317,40.514
13:38:43:138,15.828,-0.945,0.871,-0.217,26.943,145.900,54.594
13:38:43:167,15.857,-0.758,0.204,-0.340,29.398,143.935,59.136
13:38:43:192,15.882,-0.630,-0.326,-0.395,32.540,141.065,65.173
13:38:43:218,15.908,-0.649,-0.517,-0.482,34.521,139.081,68.610
13:38:43:244,15.933,-0.679,-0.824,-0.382,39.838,136.176,72.601
13:38:43:27,15.960,-0.656,-1.251,-0.547,47.405,133.551,74.918
13:38:43:296,15.986,-0.660,-1.351,-0.629,50.006,132.496,75.593
13:38:43:322,16.012,-0.702,-1.534,-0.784,50.392,131.890,75.548
13:38:43:35,16.040,-0.748,-1.411,-0.757,49.276,132.201,75.069
13:38:43:375,16.065,-0.788,-1.325,-0.821,45.715,133.727,73.294
13:38:43:401,16.091,-1.237,-0.948,-0.920,37.623,137.299,69.384
13:38:43:427,16.117,-1.523,0.476,-0.571,27.836,141.823,64.643
13:38:43:454,16.143,-0.945,2.449,0.137,18.900,147.321,55.219
13:38:43:481,16.171,-0.534,2.614,-0.486,19.161,149.184,47.498
13:38:43:506,16.196,0.523,1.919,0.442,18.092,153.465,40.356
13:38:43:532,16.222,0.696,0.999,0.721,15.662,158.466,38.158
13:38:43:558,16.248,0.964,0.116,0.455,12.402,163.957,34.614
13:38:43:614,16.304,1.000,-0.177,0.372,11.721,168.307,32.188
13:38:43:615,16.305,0.817,-0.510,0.235,12.972,169.505,30.551
13:38:43:637,16.327,0.797,-0.712,0.214,14.221,171.204,28.751
13:38:43:665,16.355,0.733,-1.031,0.111,14.745,172.664,28.213
13:38:43:69,16.380,0.707,-1.098,0.056,15.168,175.556,28.148
13:38:43:716,16.406,0.766,-1.168,0.015,15.316,178.739,28.773
13:38:43:742,16.432,0.684,-1.172,-0.027,15.299,179.848,29.511
13:38:43:768,16.458,0.659,-0.983,0.001,15.136,-179.681,30.833
13:38:43:795,16.485,0.649,-0.883,0.111,14.687,-179.885,31.939
13:38:43:822,16.512,1.406,0.020,0.345,12.738,179.646,34.048
13:38:43:847,16.537,1.285,2.125,0.379,11.038,176.163,35.296
13:38:43:874,16.564,0.104,2.952,0.437,12.271,170.156,35.776
13:38:43:9,16.590,-0.228,2.513,0.168,16.991,162.442,38.415
13:38:43:926,16.616,-0.672,1.108,-0.078,21.078,158.544,44.482
13:38:43:952,16.642,-0.711,0.537,-0.295,23.053,157.331,49.068
13:38:43:98,16.670,-0.631,-0.086,-0.380,23.453,156.839,55.896
13:38:44:006,16.696,-0.589,-0.343,-0.348,22.594,156.333,60.031
13:38:44:031,16.721,-0.487,-0.536,-0.301,22.539,154.811,66.213
13:38:44:057,16.747,-0.623,-0.748,-0.351,24.316,153.433,69.654
13:38:44:084,16.773,-0.627,-1.036,-0.341,30.524,151.571,73.696
13:38:44:11,16.800,-0.596,-1.217,-0.359,38.638,150.518,76.548
13:38:44:137,16.827,-0.608,-1.299,-0.413,43.353,150.456,77.849
13:38:44:162,16.852,-0.789,-1.430,-0.444,48.751,151.515,79.021
13:38:44:188,16.878,-0.904,-1.437,-0.445,50.395,153.266,79.298
13:38:44:215,16.905,-1.248,-1.415,-0.481,47.163,157.186,78.627
13:38:44:241,16.931,-1.599,-0.029,0.088,26.510,163.980,74.502
13:38:44:269,16.959,-1.399,2.167,0.352,11.685,169.410,68.776
13:38:44:323,17.013,-0.972,1.641,-0.415,12.186,174.852,57.920
13:38:44:323,17.013,-0.181,2.668,-0.321,14.410,176.940,50.467
13:38:44:346,17.036,0.710,1.423,0.353,10.528,-176.013,45.111
13:38:44:373,17.062,0.618,0.884,0.377,8.102,-171.046,41.746
13:38:44:4,17.090,1.094,-0.003,-0.105,7.242,-166.639,38.137
13:38:44:425,17.115,0.761,-0.583,-0.184,9.162,-163.618,34.761
13:38:44:454,17.144,0.755,-0.684,-0.203,10.449,-162.028,33.041
13:38:44:454,17.144,0.739,-0.999,-0.216,11.070,-158.537,30.779
13:38:44:507,17.197,0.814,-1.098,-0.295,10.992,-155.609,29.683
13:38:44:507,17.197,0.761,-1.112,-0.343,10.772,-150.954,28.609
13:38:44:532,17.222,0.692,-1.032,-0.368,11.028,-147.614,28.056
13:38:44:557,17.247,0.670,-0.954,-0.435,11.151,-145.919,28.150
13:38:44:583,17.273,0.716,-0.838,-0.531,10.612,-144.326,29.212
13:38:44:608,17.298,0.971,-0.116,-0.800,10.055,-143.416,30.386
13:38:44:664,17.354,1.374,1.355,-0.716,3.860,-146.510,34.022
13:38:44:665,17.355,1.083,2.634,0.380,2.640,-148.537,37.174
13:38:44:717,17.406,-0.201,2.186,-0.697,8.634,-147.919,38.954
13:38:44:717,17.407,-0.246,1.293,-0.191,11.970,-152.588,44.810
13:38:44:74,17.430,-0.814,0.663,0.236,14.865,-154.263,49.223
13:38:44:766,17.456,-0.831,0.194,0.153,18.189,-157.067,56.608
13:38:44:792,17.482,-0.786,-0.266,0.092,19.768,-158.689,60.899
13:38:44:818,17.508,-0.740,-0.477,0.042,23.023,-161.538,67.287
13:38:44:846,17.535,-0.712,-0.623,0.058,27.964,-164.153,72.251
13:38:44:871,17.561,-0.582,-0.817,0.045,31.890,-165.636,74.891
13:38:44:898,17.588,-0.590,-0.972,0.035,36.913,-167.314,77.721
13:38:44:924,17.614,-0.652,-1.053,0.056,39.698,-167.911,79.047
13:38:44:949,17.639,-0.665,-1.110,0.142,41.589,-167.740,80.240
13:38:44:976,17.666,-0.761,-0.960,0.227,40.625,-166.400,80.591
13:38:45:004,17.694,-0.930,-0.957,0.221,41.195,-164.747,80.128
13:38:45:058,17.748,-1.132,-1.067,0.760,35.945,-160.183,77.800
13:38:45:059,17.749,-0.861,0.699,1.105,21.696,-155.485,73.710
13:38:45:11,17.800,-0.636,2.340,0.950,9.636,-147.689,63.476
13:38:45:111,17.801,-1.004,1.380,-0.145,15.843,-144.135,56.160
13:38:45:135,17.825,-0.459,1.893,-0.094,20.768,-141.253,46.319
13:38:45:189,17.879,0.597,1.010,0.240,16.622,-133.361,40.872
13:38:45:19,17.880,0.739,0.378,-0.636,14.431,-127.103,37.773
13:38:45:213,17.903,0.799,0.019,-0.917,11.363,-119.190,34.303
13:38:45:239,17.929,0.624,-0.341,-0.732,12.459,-115.913,32.028
13:38:45:294,17.984,0.545,-0.529,-0.702,15.542,-113.488,28.852
13:38:45:295,17.984,0.412,-0.889,-0.671,17.836,-110.484,26.761
13:38:45:317,18.007,0.318,-1.019,-0.637,18.734,-107.698,26.215
13:38:45:344,18.034,0.224,-1.149,-0.655,19.249,-102.561,26.727
13:38:45:37,18.060,0.209,-1.163,-0.640,19.265,-99.091,27.563
13:38:45:396,18.086,0.130,-1.128,-0.624,19.181,-95.033,29.259
13:38:45:451,18.141,0.057,-1.011,-0.677,18.364,-92.869,31.247
13:38:45:452,18.142,0.129,-1.068,-1.002,16.458,-93.235,33.557
13:38:45:476,18.166,0.349,0.662,-1.571,12.415,-93.766,36.461
13:38:45:502,18.192,1.857,1.706,-1.860,10.725,-95.102,38.326
13:38:45:527,18.217,-0.365,2.664,0.581,15.538,-96.928,37.209
13:38:45:554,18.244,-0.124,1.758,-0.416,13.241,-102.269,41.639
13:38:45:58,18.270,-0.352,1.448,1.002,19.332,-104.967,47.330
13:38:45:606,18.296,-0.475,0.370,0.736,20.767,-107.009,55.481
13:38:45:632,18.322,-0.534,0.082,0.938,21.185,-108.522,60.826
13:38:45:658,18.348,-0.521,-0.353,0.838,22.849,-111.106,67.886
13:38:45:686,18.376,-0.455,-0.675,0.669,25.885,-112.971,71.456
13:38:45:712,18.402,-0.383,-1.297,0.627,37.426,-115.375,75.844
13:38:45:737,18.427,-0.421,-1.491,0.608,49.149,-116.679,78.829
13:38:45:765,18.455,-0.425,-1.433,0.581,49.703,-116.221,79.245
13:38:45:791,18.480,-0.351,-1.349,0.752,45.932,-114.898,78.144
13:38:45:816,18.506,-0.325,-1.491,0.717,45.660,-113.468,77.263
13:38:45:842,18.532,-0.394,-1.227,1.051,41.550,-110.147,74.678
13:38:45:869,18.559,0.013,-0.703,1.549,31.363,-104.183,69.985
13:38:45:895,18.585,0.732,2.061,1.341,20.238,-98.060,64.308
13:38:45:921,18.611,0.363,2.727,0.731,16.432,-90.644,53.922
13:38:45:977,18.667,0.314,2.505,0.211,18.612,-87.726,46.119
13:38:45:978,18.667,0.416,1.404,-1.380,14.400,-76.585,43.435
13:38:46:,18.690,-0.043,0.882,-1.208,12.887,-69.122,41.822
13:38:46:027,18.717,-0.404,-0.288,-1.413,8.986,-65.123,37.248
13:38:46:052,18.742,-0.215,-0.645,-0.854,11.691,-61.489,35.967
13:38:46:079,18.769,-0.328,-0.799,-0.789,12.862,-59.507,35.021
13:38:46:105,18.794,-0.467,-0.897,-0.640,13.603,-56.231,34.059
13:38:46:131,18.821,-0.532,-0.917,-0.528,14.083,-54.098,33.763
13:38:46:157,18.847,-0.531,-0.850,-0.475,14.895,-50.980,34.086
13:38:46:185,18.875,-0.471,-0.886,-0.467,15.236,-47.763,35.504
13:38:46:211,18.901,-0.443,-0.791,-0.532,14.755,-45.504,37.070
13:38:46:236,18.926,-0.518,-0.426,-0.529,13.567,-43.534,40.051
13:38:46:263,18.953,-0.568,0.735,-0.858,11.982,-44.862,43.087
13:38:46:289,18.978,-0.833,1.520,-1.077,11.002,-49.031,47.596
13:38:46:315,19.005,-0.444,2.003,-0.510,15.953,-55.355,49.851
13:38:46:341,19.031,0.610,2.912,0.517,20.984,-54.503,50.816
13:38:46:369,19.059,0.221,0.892,0.520,27.324,-59.351,57.781
13:38:46:394,19.084,0.447,0.552,0.902,31.815,-61.263,61.928
13:38:46:421,19.111,0.345,-0.234,0.874,37.427,-62.910,68.119
13:38:46:447,19.137,0.333,-0.620,0.871,40.524,-64.369,72.773
13:38:46:472,19.162,0.222,-0.749,0.695,43.552,-65.299,75.970
13:38:46:499,19.189,0.302,-1.123,0.530,51.910,-66.586,79.536
13:38:46:525,19.215,0.262,-1.324,0.629,57.727,-67.422,80.640
13:38:46:552,19.242,0.222,-1.276,0.755,57.633,-67.864,80.022
13:38:46:577,19.267,0.274,-1.426,0.905,54.632,-67.553,78.580
13:38:46:634,19.324,0.520,-1.310,0.916,48.774,-65.891,75.966
13:38:46:635,19.325,0.880,-1.122,1.159,40.307,-62.391,72.560
13:38:46:656,19.346,1.307,-0.664,1.153,31.602,-58.385,69.068
13:38:46:683,19.373,1.133,2.101,0.422,15.279,-49.865,60.875
13:38:46:741,19.431,0.437,2.198,0.886,11.747,-44.383,54.167
13:38:46:741,19.431,0.585,2.389,0.571,17.607,-40.573,43.387
13:38:46:742,19.432,-0.366,1.231,-0.765,16.033,-34.236,38.765
13:38:46:762,19.452,-0.558,0.492,-0.634,13.450,-28.307,36.495
13:38:46:817,19.507,-0.990,0.176,-0.743,10.684,-19.684,34.459
13:38:46:817,19.507,-0.966,-0.189,-0.615,11.610,-16.565,33.363
13:38:46:87,19.560,-0.720,-0.661,-0.376,14.585,-14.598,31.870
13:38:46:87,19.560,-0.599,-0.958,-0.245,16.189,-13.329,31.194
13:38:46:923,19.613,-0.598,-1.076,-0.205,17.309,-10.430,31.086
13:38:46:924,19.614,-0.727,-1.075,-0.192,17.138,-6.884,31.784
13:38:46:946,19.636,-0.723,-1.000,-0.189,17.158,-5.506,32.349
13:38:46:973,19.662,-0.587,-0.943,-0.103,17.342,-5.022,33.256
13:38:46:997,19.687,-0.437,-0.714,-0.098,16.424,-5.302,35.904
13:38:47:024,19.714,-1.473,-0.088,-0.360,14.101,-3.786,43.080
13:38:47:05,19.740,-1.676,0.881,-0.584,12.960,-7.096,46.039
13:38:47:076,19.766,-0.714,2.419,-0.844,14.855,-14.056,46.076
13:38:47:102,19.792,0.625,2.775,-0.242,21.195,-24.079,47.837
13:38:47:158,19.848,0.961,1.357,0.309,25.222,-27.783,50.696
13:38:47:158,19.848,0.518,0.980,0.414,28.452,-29.711,57.251
13:38:47:182,19.872,0.413,-0.046,0.367,31.743,-32.929,64.552
13:38:47:208,19.898,1.553,-0.008,0.479,36.437,-36.950,67.490
13:38:47:234,19.924,0.693,0.229,0.249,40.323,-37.991,73.722
13:38:47:26,19.950,0.691,-1.771,0.679,47.365,-41.095,75.333
13:38:47:286,19.976,0.715,-1.206,0.632,52.009,-43.078,78.117
13:38:47:312,20.002,0.683,-0.989,0.359,52.052,-43.575,79.389
13:38:47:339,20.029,0.569,-1.551,0.597,56.844,-45.004,79.814
13:38:47:394,20.084,0.669,-1.462,0.665,56.329,-44.999,78.982
13:38:47:395,20.085,0.621,-1.453,0.617,53.596,-43.821,78.124
13:38:47:417,20.107,0.872,-1.168,0.760,46.811,-41.223,75.750
13:38:47:444,20.134,1.275,0.354,0.594,38.346,-37.954,72.860
13:38:47:471,20.161,1.142,2.226,-0.069,24.097,-31.935,65.769
13:38:47:496,20.186,0.489,1.993,0.763,26.631,-28.926,55.447
13:38:47:522,20.212,0.092,2.038,0.231,26.630,-26.858,50.015
13:38:47:549,20.239,-0.506,1.074,-0.368,22.252,-19.307,47.118
13:38:47:575,20.265,-0.605,0.316,-0.308,19.357,-14.935,45.448
13:38:47:601,20.291,-0.856,0.077,-0.310,16.035,-8.629,43.843
13:38:47:628,20.318,-0.789,-0.277,-0.209,16.109,-6.071,43.023
13:38:47:654,20.343,-0.731,-0.546,-0.140,18.116,-4.187,41.785
13:38:47:681,20.371,-0.633,-0.822,-0.024,19.683,-2.367,40.818
13:38:47:706,20.396,-0.584,-0.928,-0.029,20.028,-0.734,40.603
13:38:47:732,20.422,-0.655,-0.906,-0.054,19.657,2.085,40.921
13:38:47:759,20.449,-0.639,-0.967,-0.052,19.622,3.310,41.392
13:38:47:786,20.476,-0.605,-0.852,-0.055,20.116,3.661,42.362
13:38:47:812,20.502,-0.448,-0.717,-0.111,20.285,3.117,43.964
13:38:47:837,20.527,-0.927,-0.192,-0.358,19.283,2.394,45.832
13:38:47:893,20.583,-1.411,2.126,-0.786,17.495,0.640,47.535
13:38:47:894,20.584,-0.520,2.469,-0.820,20.664,-4.379,48.218
13:38:47:946,20.636,0.917,2.687,-0.424,29.308,-12.824,50.566
13:38:47:946,20.636,0.944,1.063,0.010,36.996,-18.012,56.701
13:38:47:969,20.659,0.977,0.578,0.148,40.560,-19.699,62.106
13:38:47:995,20.685,0.985,-0.171,0.391,46.045,-22.210,69.783
13:38:48:021,20.711,0.828,-0.564,0.420,50.505,-24.194,74.233
13:38:48:047,20.737,0.688,-0.717,0.406,61.801,-27.467,80.737
13:38:48:075,20.765,0.587,-1.190,0.342,77.857,-30.475,86.093
13:38:48:1,20.789,0.582,-1.400,0.401,85.725,-32.105,88.524
13:38:48:126,20.816,0.554,-1.382,0.478,91.133,-33.610,90.411
13:38:48:152,20.842,0.589,-1.434,0.467,91.601,-33.889,90.570
13:38:48:179,20.869,0.685,-1.489,0.514,89.145,-33.195,89.697
13:38:48:205,20.895,0.712,-1.495,0.637,86.024,-32.471,88.565
13:38:48:26,20.950,0.112,-1.619,0.495,78.167,-28.827,85.856
13:38:48:261,20.951,1.542,-0.167,0.553,52.139,-24.557,78.269
13:38:48:342,21.032,0.920,0.679,-0.268,30.137,-19.260,72.292
13:38:48:342,21.032,0.904,2.354,0.450,22.860,-14.035,61.023
13:38:48:343,21.033,1.235,1.875,0.650,27.448,-12.918,53.736
13:38:48:363,21.053,-0.575,1.643,-0.745,21.032,-4.922,49.526
13:38:48:418,21.108,-0.443,0.722,-0.159,12.955,2.673,45.530
13:38:48:418,21.108,-0.851,0.184,-0.145,10.759,6.613,43.523
13:38:48:441,21.131,-0.741,-0.418,-0.061,11.039,10.893,41.392
13:38:48:467,21.157,-0.692,-0.651,-0.024,12.470,12.743,39.970
13:38:48:494,21.184,-0.670,-0.786,0.043,13.521,15.634,38.169
13:38:48:521,21.211,-0.657,-0.837,0.110,13.630,17.969,37.285
13:38:48:548,21.238,-0.594,-0.920,0.155,13.530,21.205,36.461
13:38:48:573,21.262,-0.709,-0.721,0.165,13.561,23.530,36.305
13:38:48:6,21.290,-0.671,-0.633,0.168,13.399,24.642,36.699
13:38:48:625,21.315,-0.579,-0.640,0.151,13.049,25.311,38.056
13:38:48:651,21.341,-1.277,0.690,0.436,11.992,25.583,39.402
13:38:48:68,21.370,-0.960,2.046,0.288,10.318,24.420,41.722
13:38:48:733,21.423,0.204,2.410,-0.288,15.153,17.255,43.824
13:38:48:733,21.423,0.425,1.904,-0.009,18.719,14.129,47.302
13:38:48:756,21.446,0.827,1.071,-0.021,21.264,11.393,54.349
13:38:48:782,21.472,0.992,0.220,0.075,21.950,9.845,59.125
13:38:48:809,21.499,0.899,-0.171,0.148,21.902,7.356,66.273
13:38:48:889,21.579,0.718,-0.492,0.185,24.848,4.241,73.119
13:38:48:923,21.613,0.768,-0.584,0.202,31.618,2.002,77.226
13:38:48:923,21.613,0.790,-0.823,0.203,50.220,-0.861,82.264
13:38:48:924,21.614,0.730,-1.188,0.200,63.953,-2.433,84.983
13:38:48:924,21.614,0.737,-1.324,0.177,77.694,-3.346,87.761
13:38:48:969,21.659,0.670,-1.168,0.057,82.781,-3.499,88.834
13:38:48:97,21.660,0.736,-1.235,-0.036,85.483,-1.979,89.342
13:38:48:993,21.683,0.932,-1.310,-0.064,77.447,0.373,88.223
13:38:49:049,21.738,1.026,-1.281,-0.056,63.880,3.259,86.554
13:38:49:05,21.739,1.336,-0.788,-0.522,20.638,9.428,81.271
13:38:49:071,21.761,1.380,0.570,-0.705,-0.059,14.511,75.034
13:38:49:127,21.817,1.168,2.207,-0.433,0.479,21.447,62.743
13:38:49:129,21.819,1.594,1.988,0.138,12.091,24.070,50.987
13:38:49:18,21.870,-0.041,1.991,0.201,13.734,27.061,45.569
13:38:49:18,21.870,-0.432,1.202,0.016,11.406,32.147,40.096
13:38:49:203,21.893,-0.631,0.359,0.393,9.597,37.388,36.478
13:38:49:258,21.948,-0.748,-0.097,0.617,6.826,45.328,33.259
13:38:49:259,21.949,-0.656,-0.548,0.641,7.406,50.459,30.635
13:38:49:282,21.972,-0.627,-0.690,0.649,8.484,52.578,29.286
13:38:49:307,21.997,-0.542,-1.069,0.586,10.103,55.562,27.871
13:38:49:334,22.024,-0.499,-1.169,0.581,10.647,57.219,27.466
13:38:49:36,22.050,-0.476,-1.095,0.674,10.433,60.952,27.667
13:38:49:386,22.076,-0.491,-0.980,0.729,9.795,63.183,28.455
13:38:49:413,22.103,-0.438,-0.711,0.721,8.650,65.248,30.248
13:38:49:468,22.158,-0.221,-0.066,0.707,6.726,65.216,33.187
13:38:49:468,22.158,-0.725,0.706,1.080,3.175,62.448,37.841
13:38:49:491,22.181,-1.138,1.349,2.233,2.149,58.498,40.263
13:38:49:517,22.207,-0.164,3.325,-0.248,2.899,55.709,41.009
13:38:49:546,22.236,0.819,1.544,-0.234,10.477,49.431,46.600
13:38:49:57,22.260,0.739,0.809,-0.440,16.666,46.667,54.676
13:38:49:597,22.287,0.819,0.288,-0.471,19.375,45.035,60.032
13:38:49:623,22.313,0.868,-0.308,-0.530,23.007,43.112,67.441
13:38:49:649,22.339,0.733,-0.624,-0.413,26.355,41.941,71.979
13:38:49:675,22.365,0.679,-0.817,-0.335,35.512,40.020,78.430
13:38:49:701,22.391,0.724,-0.879,-0.367,44.310,38.878,81.797
13:38:49:728,22.418,0.599,-1.186,-0.275,62.868,37.781,85.592
13:38:49:754,22.444,0.540,-1.227,-0.373,74.355,37.599,87.586
13:38:49:78,22.470,0.539,-1.206,-0.435,75.127,38.151,87.933
13:38:49:807,22.497,0.530,-1.025,-0.613,65.799,39.812,87.213
13:38:49:832,22.522,0.571,-1.096,-0.632,59.061,41.503,86.168
13:38:49:859,22.549,0.685,-1.289,-0.693,51.641,45.097,83.965
13:38:49:885,22.575,0.471,-0.828,-1.321,28.410,50.754,79.211
13:38:49:911,22.601,0.272,0.679,-1.368,6.298,55.837,72.909
13:38:49:937,22.627,0.512,2.661,-0.661,0.325,63.858,60.053
13:38:49:993,22.683,1.103,2.095,-0.578,10.110,65.734,51.278
13:38:49:994,22.684,-0.219,1.519,0.470,15.549,67.816,44.595
13:38:50:017,22.707,-0.112,0.336,0.417,13.712,72.387,38.923
13:38:50:071,22.761,-0.157,0.228,0.698,10.613,77.466,36.331
13:38:50:072,22.762,-0.227,-0.088,0.981,7.480,85.239,33.990
13:38:50:095,22.785,-0.178,-0.469,0.792,8.598,87.641,32.497
13:38:50:121,22.811,-0.143,-0.791,0.747,11.187,89.922,30.582
13:38:50:177,22.867,-0.039,-0.980,0.629,12.490,91.843,29.601
13:38:50:178,22.867,0.012,-0.994,0.656,13.069,96.248,29.135
13:38:50:258,22.948,0.065,-1.011,0.690,12.742,101.404,29.586
13:38:50:259,22.949,0.060,-1.031,0.633,12.561,104.260,30.246
13:38:50:26,22.950,0.135,-0.897,0.644,12.086,107.634,31.695
13:38:50:279,22.969,0.280,-0.499,0.678,11.241,109.059,33.150
13:38:50:306,22.996,0.741,0.731,1.671,7.744,108.812,37.078
13:38:50:331,23.021,0.630,0.917,2.426,7.350,104.849,40.512
13:38:50:359,23.049,0.024,2.571,-0.664,14.921,102.837,37.833
13:38:50:442,23.132,0.355,1.568,0.112,19.631,95.037,42.479
13:38:50:443,23.133,0.270,0.955,-0.582,21.954,93.051,45.824
13:38:50:443,23.133,0.353,0.473,-0.632,24.004,91.473,52.432
13:38:50:463,23.153,0.225,-0.048,-0.668,24.480,90.274,58.996
13:38:50:518,23.208,0.275,-0.378,-0.628,24.988,89.316,63.030
13:38:50:519,23.209,0.276,-0.595,-0.470,26.732,87.447,68.712
13:38:50:542,23.232,0.269,-0.577,-0.561,29.384,86.078,72.066
13:38:50:568,23.258,0.287,-0.768,-0.597,36.241,83.989,75.679
13:38:50:594,23.284,0.276,-0.851,-0.543,42.025,82.910,77.694
13:38:50:62,23.309,0.285,-0.881,-0.646,49.278,81.899,79.850
13:38:50:647,23.337,0.207,-0.993,-0.704,54.091,81.846,80.976
13:38:50:702,23.392,0.090,-1.031,-0.699,54.594,82.539,81.218
13:38:50:702,23.392,-0.033,-0.775,-0.844,48.729,84.718,80.237
13:38:50:725,23.415,-0.183,-0.813,-1.080,42.642,86.925,78.293
13:38:50:751,23.441,-0.364,-0.243,-1.120,28.107,91.505,71.875
13:38:50:777,23.467,-0.130,2.130,-0.979,18.037,96.653,61.530
13:38:50:805,23.495,0.185,0.971,-1.341,18.924,99.116,53.514
13:38:50:831,23.521,-0.046,1.884,-0.443,17.102,104.240,46.280
13:38:50:856,23.546,-0.044,1.379,0.714,13.820,109.749,42.522
13:38:50:883,23.572,0.399,0.353,0.447,10.276,115.781,37.231
13:38:50:909,23.599,0.403,-0.064,0.840,8.610,122.195,32.981
13:38:50:935,23.625,0.392,-0.232,0.715,9.415,124.867,30.375
13:38:50:962,23.652,0.499,-0.468,0.585,11.096,127.827,26.583
13:38:50:987,23.677,0.529,-0.598,0.557,11.964,129.995,24.481
13:38:51:013,23.703,0.552,-0.758,0.480,12.831,134.052,22.020
13:38:51:04,23.730,0.635,-0.786,0.490,13.114,136.916,20.831
13:38:51:068,23.757,0.672,-0.837,0.482,13.369,141.281,20.011
13:38:51:124,23.814,0.640,-0.853,0.313,13.632,144.486,20.162
13:38:51:125,23.815,0.637,-0.885,0.324,13.338,146.437,21.307
13:38:51:126,23.816,0.755,-0.509,0.317,12.433,150.342,23.071
13:38:51:174,23.864,1.211,-0.085,0.549,11.106,151.922,25.249
13:38:51:175,23.865,1.506,0.042,0.545,11.592,150.657,27.921
13:38:51:197,23.887,0.589,1.743,0.753,12.471,146.044,31.005
13:38:51:224,23.914,0.785,1.805,0.457,14.351,144.180,33.615
13:38:51:25,23.940,0.215,1.629,-0.052,16.104,141.018,39.833
13:38:51:303,23.993,-0.092,1.237,-0.123,17.140,139.225,44.842
13:38:51:332,24.021,-0.366,0.883,-0.385,19.917,136.511,51.704
13:38:51:332,24.022,-0.456,0.079,-0.580,23.252,134.368,55.965
13:38:51:384,24.074,-0.386,-0.303,-0.501,28.323,131.922,61.688
13:38:51:385,24.075,-0.280,-0.607,-0.457,32.865,129.910,66.724
13:38:51:407,24.097,-0.299,-0.721,-0.479,35.301,128.701,69.426
13:38:51:435,24.125,-0.363,-0.868,-0.429,36.813,127.516,72.244
13:38:51:46,24.150,-0.425,-0.848,-0.335,37.202,127.051,73.190
13:38:51:486,24.176,-0.385,-0.995,-0.416,40.056,126.201,73.359
13:38:51:513,24.203,-0.433,-1.204,-0.583,41.804,125.762,72.300
13:38:51:539,24.229,-0.466,-1.226,-0.640,40.912,125.844,71.003
13:38:51:565,24.255,-0.499,-1.025,-0.709,36.448,127.020,68.358
13:38:51:593,24.283,-0.838,-1.060,-0.685,31.853,129.177,65.619
13:38:51:619,24.308,-0.945,-0.093,-0.567,25.415,132.521,59.880
13:38:51:644,24.334,-0.918,1.904,-0.220,18.351,137.190,49.835
13:38:51:67,24.360,-0.436,2.213,-0.238,17.245,139.713,42.518
13:38:51:696,24.386,0.287,1.833,0.060,18.361,142.574,34.497
13:38:51:782,24.472,0.503,1.411,0.740,16.693,147.533,31.501
13:38:51:782,24.472,0.784,0.386,0.462,15.123,153.593,27.974
13:38:51:782,24.472,0.906,0.010,0.529,14.438,157.953,25.963
13:38:51:859,24.549,0.890,-0.274,0.395,14.767,163.049,23.639
13:38:51:86,24.550,0.826,-0.571,0.292,16.031,166.313,21.398
13:38:51:861,24.551,0.812,-0.766,0.180,16.878,168.209,20.128
13:38:51:911,24.601,0.717,-0.957,0.029,18.063,171.036,18.791
13:38:51:911,24.601,0.637,-1.043,-0.020,18.616,173.173,18.466
13:38:51:932,24.622,0.625,-1.072,-0.042,19.100,176.520,18.893
13:38:51:959,24.649,0.784,-0.943,-0.012,19.228,179.515,20.093
13:38:52:015,24.705,0.769,-0.889,-0.034,19.281,-179.297,21.132
13:38:52:015,24.705,0.639,-0.857,0.065,19.394,-179.205,22.893
13:38:52:067,24.757,0.999,-0.546,0.097,18.870,-179.195,24.524
13:38:52:067,24.757,1.994,1.539,0.914,14.811,177.784,30.392
13:38:52:09,24.780,1.056,2.461,0.868,15.836,172.299,31.809
13:38:52:175,24.864,0.370,3.300,1.236,20.098,167.523,29.622
13:38:52:175,24.865,-0.182,1.244,0.218,23.065,159.227,35.967
13:38:52:176,24.866,-0.505,0.845,0.180,24.839,157.921,40.711
13:38:52:195,24.885,-0.644,0.235,-0.075,26.304,155.087,49.156
13:38:52:221,24.911,-0.782,-0.137,-0.231,27.037,153.265,53.976
13:38:52:248,24.938,-0.659,-0.381,-0.296,28.969,149.615,60.978
13:38:52:274,24.963,-0.692,-0.579,-0.419,32.672,145.317,66.951
13:38:52:3,24.990,-0.722,-0.790,-0.415,36.356,142.530,70.213
13:38:52:326,25.016,-0.777,-0.829,-0.334,41.617,139.416,73.352
13:38:52:353,25.043,-0.735,-0.913,-0.356,44.964,137.932,74.165
13:38:52:38,25.070,-0.680,-0.968,-0.420,47.757,136.623,73.824
13:38:52:406,25.096,-0.594,-1.207,-0.578,48.838,136.062,72.321
13:38:52:431,25.121,-0.596,-1.182,-0.605,48.507,136.230,71.201
13:38:52:457,25.147,-0.587,-1.028,-0.521,45.619,137.773,69.409
13:38:52:484,25.174,-0.663,-0.955,-0.588,42.846,139.614,68.050
13:38:52:51,25.200,-1.069,-0.537,-0.442,36.001,143.993,64.551
13:38:52:537,25.227,-0.850,2.305,0.279,24.053,151.261,57.041
13:38:52:563,25.253,-0.630,2.762,0.677,18.868,154.999,49.441
13:38:52:59,25.280,-0.801,2.520,-0.450,21.519,155.909,36.077
13:38:52:615,25.305,1.573,2.340,0.623,20.600,159.536,32.131
13:38:52:641,25.331,0.788,0.654,0.334,19.091,163.950,28.536
13:38:52:667,25.357,0.827,0.060,0.245,17.914,167.158,26.986
13:38:52:694,25.384,0.982,-0.489,0.139,15.300,171.065,25.643
13:38:52:72,25.410,0.632,-0.738,0.036,15.519,172.001,24.578
13:38:52:746,25.436,0.558,-0.902,0.006,15.666,172.391,23.946
13:38:52:772,25.462,0.576,-0.965,-0.119,15.839,173.280,23.751
13:38:52:798,25.488,0.592,-0.977,-0.138,16.053,174.057,23.957
13:38:52:827,25.517,0.596,-1.059,-0.164,16.616,174.937,24.679
13:38:52:853,25.543,0.643,-0.817,-0.153,17.395,175.244,25.567
13:38:52:877,25.567,0.575,-0.680,-0.150,18.162,174.898,26.401
13:38:52:904,25.594,0.798,-0.330,-0.095,18.929,174.575,28.559
13:38:52:93,25.620,1.372,1.252,0.303,19.480,173.844,30.107
13:38:52:956,25.646,0.505,1.442,0.404,23.517,166.976,30.305
13:38:52:982,25.672,-0.040,1.333,0.283,27.954,161.156,30.689
13:38:53:009,25.699,0.057,1.107,0.183,29.858,159.733,32.667
13:38:53:036,25.726,-0.346,1.042,0.125,31.782,159.100,36.316
13:38:53:062,25.752,-0.436,0.752,0.075,32.925,158.857,38.807
13:38:53:087,25.777,-0.440,0.166,-0.003,35.137,158.009,42.309
13:38:53:116,25.806,-0.463,-0.150,-0.105,38.904,156.357,46.169
13:38:53:141,25.831,-0.609,-0.238,-0.176,41.641,155.151,48.350
13:38:53:166,25.856,-0.629,-0.516,-0.256,45.432,154.375,51.623
13:38:53:22,25.910,-0.572,-0.566,0.006,51.142,155.049,56.440
13:38:53:245,25.935,-0.693,-0.717,-0.263,54.203,154.533,57.090
13:38:53:271,25.961,-0.645,-0.709,-0.293,57.683,154.605,57.725
13:38:53:297,25.987,-0.569,-0.606,-0.138,59.368,156.325,58.368
13:38:53:324,26.014,-0.511,-0.620,-0.033,60.049,158.086,58.547
13:38:53:35,26.040,-0.596,-0.089,0.050,59.718,159.673,56.541
13:38:53:376,26.066,-0.606,0.646,0.100,58.128,159.872,52.826
13:38:53:435,26.125,-0.613,0.514,-0.050,53.910,160.899,45.708
13:38:53:435,26.125,-0.416,0.597,0.254,48.602,165.480,41.490
13:38:53:436,26.126,-0.135,0.858,0.264,45.142,168.720,39.383
13:38:53:455,26.145,0.227,0.733,0.187,40.808,173.072,36.413
13:38:53:482,26.172,0.229,0.326,0.013,38.627,175.354,34.204
13:38:53:538,26.228,0.329,-0.007,-0.140,35.978,179.071,31.992
13:38:53:538,26.228,0.437,-0.137,-0.185,34.185,-177.842,31.087
13:38:53:589,26.279,0.541,-0.232,-0.263,32.056,-173.641,29.616
13:38:53:59,26.280,0.462,-0.367,-0.320,31.080,-170.735,27.477
13:38:53:613,26.303,0.436,-0.426,-0.330,30.776,-169.354,26.163
13:38:53:639,26.329,0.465,-0.405,-0.382,30.284,-166.705,24.820
13:38:53:665,26.355,0.550,-0.329,-0.411,29.969,-164.901,24.382
13:38:53:691,26.381,0.534,-0.306,-0.424,29.862,-162.626,24.142
13:38:53:719,26.409,0.486,-0.218,-0.390,30.188,-161.554,24.267
13:38:53:745,26.435,0.403,-0.214,-0.331,30.388,-160.619,24.695
13:38:53:77,26.460,0.582,0.101,-0.384,30.296,-159.200,25.870
13:38:53:796,26.486,0.531,0.500,-0.376,30.244,-158.658,26.407
13:38:53:822,26.512,0.211,0.595,-0.265,30.692,-160.061,26.694
13:38:53:849,26.539,0.216,0.469,-0.188,31.202,-160.357,28.156
13:38:53:875,26.565,0.283,0.592,-0.177,31.502,-160.580,29.698
13:38:53:901,26.591,0.169,0.869,-0.054,32.616,-161.656,31.724
13:38:53:928,26.618,-0.163,0.514,0.013,34.076,-163.408,32.674
13:38:53:953,26.643,-0.191,0.312,0.042,36.537,-164.914,34.943
13:38:53:982,26.672,-0.261,0.022,0.083,37.997,-164.819,37.403
13:38:54:008,26.698,-0.290,-0.064,0.077,39.726,-163.615,41.574
13:38:54:062,26.752,-0.236,-0.218,0.138,41.531,-162.549,45.736
13:38:54:062,26.752,-0.279,-0.332,0.146,43.314,-162.383,47.990
13:38:54:085,26.775,-0.477,-0.469,0.209,46.089,-162.910,50.290
13:38:54:111,26.801,-0.589,-0.609,0.224,47.267,-162.460,51.353
13:38:54:139,26.829,-0.388,-0.550,0.347,47.416,-160.820,52.697
13:38:54:164,26.854,-0.433,-0.642,0.385,46.998,-158.645,52.828
13:38:54:19,26.880,-0.529,-0.623,0.434,46.622,-157.944,51.938
13:38:54:216,26.906,-0.526,-0.523,0.538,44.883,-155.892,49.630
13:38:54:272,26.961,-0.541,-0.467,0.576,42.908,-154.349,47.665
13:38:54:273,26.962,-0.375,-0.052,0.801,38.839,-150.886,43.893
13:38:54:296,26.986,-0.152,0.612,0.694,34.224,-148.015,37.409
13:38:54:321,27.011,-0.280,0.698,0.736,31.271,-146.295,31.613
13:38:54:376,27.066,-0.362,0.752,0.552,27.480,-143.646,23.180
13:38:54:377,27.067,0.494,1.177,-0.120,24.942,-139.969,19.252
13:38:54:402,27.092,0.552,0.891,-0.338,21.872,-133.472,14.601
13:38:54:427,27.117,0.456,0.468,-0.516,20.707,-130.220,11.121
13:38:54:452,27.142,0.434,0.181,-0.636,20.124,-126.631,6.883
13:38:54:479,27.168,0.315,-0.162,-0.844,20.083,-122.927,4.148
13:38:54:505,27.195,0.181,-0.285,-0.897,20.128,-119.996,2.890
13:38:54:533,27.223,0.225,-0.476,-1.012,20.440,-115.408,1.734
13:38:54:587,27.277,0.067,-0.736,-0.907,20.931,-113.285,1.387
13:38:54:588,27.278,-0.048,-0.848,-0.852,21.720,-111.587,1.617
13:38:54:641,27.331,-0.175,-0.875,-0.827,22.151,-110.079,2.715
13:38:54:641,27.331,-0.187,-0.799,-0.778,22.279,-109.252,3.955
13:38:54:663,27.353,0.017,-0.563,-0.753,22.509,-108.685,6.530
13:38:54:689,27.379,0.145,-0.217,-0.767,22.830,-108.947,8.514
13:38:54:715,27.405,0.294,0.550,-1.053,23.391,-110.543,11.228
13:38:54:742,27.431,0.434,1.374,-0.407,24.968,-115.961,12.799
13:38:54:768,27.458,0.431,1.431,-0.178,26.362,-119.212,14.199
13:38:54:794,27.484,0.424,1.226,-0.048,28.527,-122.018,18.119
13:38:54:82,27.510,0.215,0.873,0.237,29.960,-123.014,21.278
13:38:54:846,27.536,0.085,0.580,0.346,31.878,-123.230,26.882
13:38:54:873,27.563,0.024,0.155,0.289,32.992,-122.754,31.148
13:38:54:899,27.589,0.016,0.015,0.274,34.710,-122.083,37.552
13:38:54:926,27.616,-0.052,-0.051,0.427,37.261,-122.653,42.949
13:38:54:953,27.643,-0.139,-0.218,0.469,39.706,-123.711,46.018
13:38:54:979,27.669,-0.205,-0.473,0.430,44.022,-125.402,50.254
13:38:55:005,27.695,-0.264,-0.521,0.466,46.748,-126.298,52.711
13:38:55:06,27.750,-0.292,-0.587,0.548,50.158,-126.831,55.880
13:38:55:06,27.750,-0.264,-0.752,0.598,53.348,-127.098,58.180
13:38:55:082,27.772,-0.315,-0.834,0.638,55.035,-127.167,58.968
13:38:55:109,27.799,-0.394,-0.851,0.800,56.196,-126.173,59.507
13:38:55:135,27.825,-0.350,-0.758,0.929,55.938,-124.499,59.683
13:38:55:161,27.851,-0.269,-0.612,1.153,54.137,-120.665,59.539
13:38:55:188,27.878,0.045,-0.025,1.403,49.896,-115.576,57.566
13:38:55:216,27.905,0.387,0.487,1.161,45.881,-111.967,54.922
13:38:55:241,27.931,0.168,0.815,1.114,39.894,-107.364,48.336
13:38:55:267,27.957,0.218,1.061,0.962,36.159,-104.029,44.042
13:38:55:292,27.982,0.591,1.340,0.102,30.504,-97.385,39.376
13:38:55:318,28.008,0.521,0.786,-0.326,26.641,-91.711,34.532
13:38:55:345,28.035,0.414,0.574,-0.526,25.184,-88.636,31.319
13:38:55:373,28.063,0.168,0.171,-0.650,24.050,-84.821,26.651
13:38:55:398,28.088,0.071,-0.008,-0.678,23.477,-82.127,23.940
13:38:55:424,28.114,0.008,-0.052,-0.882,22.576,-76.773,21.050
13:38:55:45,28.140,-0.048,-0.427,-0.876,22.546,-73.585,19.659
13:38:55:476,28.166,-0.239,-0.658,-0.772,23.232,-69.841,18.035
13:38:55:502,28.192,-0.456,-0.911,-0.643,24.294,-65.892,17.322
13:38:55:531,28.220,-0.500,-0.973,-0.607,25.129,-62.871,17.437
13:38:55:556,28.246,-0.473,-1.014,-0.663,26.393,-57.617,18.618
13:38:55:581,28.271,-0.502,-1.064,-0.551,27.037,-53.969,19.969
13:38:55:639,28.329,-0.498,-1.041,-0.518,27.148,-48.180,22.981
13:38:55:64,28.330,-1.182,0.335,-1.387,25.603,-42.147,26.726
13:38:55:641,28.331,-0.616,1.132,-1.137,25.663,-42.087,28.075
13:38:55:689,28.379,0.284,1.887,-0.773,28.117,-48.139,27.552
13:38:55:69,28.380,0.248,1.813,-0.253,29.775,-52.253,27.917
13:38:55:768,28.458,0.142,1.354,-0.152,29.875,-55.073,31.578
13:38:55:768,28.458,0.187,0.919,0.164,29.070,-56.533,35.761
13:38:55:821,28.511,0.252,0.496,0.261,26.819,-57.823,41.687
13:38:55:821,28.511,0.228,0.166,0.521,25.280,-61.623,47.581
13:38:55:876,28.566,0.190,-0.062,0.623,25.835,-65.461,51.085
13:38:55:876,28.566,0.035,-0.349,0.574,29.780,-71.741,56.555
13:38:55:877,28.567,0.091,-0.459,0.788,34.047,-75.723,59.866
13:38:55:896,28.586,-0.004,-0.684,0.796,41.094,-80.598,64.251
13:38:55:923,28.613,-0.061,-1.064,0.748,45.891,-83.488,67.949
13:38:55:949,28.639,0.066,-0.933,0.658,46.866,-84.081,69.859
13:38:55:977,28.667,0.206,-0.945,0.686,47.999,-84.000,71.457
13:38:56:005,28.695,0.186,-1.008,0.866,48.843,-83.414,71.754
13:38:56:028,28.718,0.268,-1.000,1.147,47.632,-80.802,71.137
13:38:56:054,28.743,0.938,-0.547,1.459,40.914,-75.513,68.518
13:38:56:081,28.771,1.162,0.403,1.162,31.115,-70.376,64.945
13:38:56:107,28.797,0.545,1.931,0.888,23.059,-63.474,57.679
13:38:56:133,28.823,0.561,1.333,1.225,24.155,-60.874,51.471
13:38:56:188,28.878,0.412,1.605,-0.035,20.516,-55.159,46.548
13:38:56:189,28.879,-0.022,0.583,-0.602,15.333,-49.213,45.140
13:38:56:212,28.902,-0.329,0.294,-0.617,10.786,-41.604,42.254
13:38:56:238,28.928,-0.333,-0.204,-0.564,11.789,-37.119,39.522
13:38:56:264,28.954,-0.382,-0.541,-0.534,13.793,-34.941,37.743
13:38:56:319,29.009,-0.409,-0.743,-0.404,16.334,-31.635,35.036
13:38:56:32,29.010,-0.440,-0.766,-0.368,17.519,-28.855,33.353
13:38:56:342,29.032,-0.442,-0.776,-0.321,19.190,-24.425,31.291
13:38:56:369,29.059,-0.513,-0.714,-0.394,20.991,-20.066,30.015
13:38:56:395,29.085,-0.495,-0.807,-0.325,22.109,-17.206,29.734
13:38:56:422,29.112,-0.530,-0.877,-0.308,23.032,-12.738,30.253
13:38:56:447,29.137,-0.767,-0.580,-0.420,22.741,-9.367,31.320
13:38:56:475,29.165,-1.440,0.344,-0.640,21.465,-4.634,33.523
13:38:56:501,29.191,-0.686,1.455,-0.799,20.781,-5.463,34.902
13:38:56:526,29.216,0.177,2.178,-0.990,21.219,-8.465,34.746
13:38:56:553,29.243,-0.431,1.854,-0.522,18.743,-10.825,36.985
13:38:56:579,29.269,0.199,1.333,-0.233,19.489,-11.583,39.421
13:38:56:606,29.296,0.616,0.504,0.047,22.051,-14.140,43.920
13:38:56:632,29.322,0.471,-0.063,0.210,21.717,-16.647,48.386
13:38:56:658,29.347,0.507,-0.209,0.318,20.360,-22.127,53.944
13:38:56:684,29.374,0.366,-0.369,0.298,21.786,-28.499,59.996
13:38:56:739,29.429,0.448,-0.445,0.382,25.947,-32.971,63.509
13:38:56:74,29.430,0.495,-0.719,0.559,33.804,-39.106,67.771
13:38:56:764,29.454,0.515,-0.977,0.527,38.596,-42.163,70.096
13:38:56:789,29.479,0.551,-0.972,0.391,42.666,-44.767,72.182
13:38:56:815,29.505,0.748,-0.999,0.381,45.053,-45.710,72.347
13:38:56:841,29.531,0.779,-1.078,0.547,45.537,-45.618,71.439
13:38:56:868,29.558,0.832,-0.865,0.573,43.385,-44.050,69.184
13:38:56:894,29.584,1.028,-0.843,0.884,41.411,-42.264,67.174
13:38:56:922,29.612,1.447,-0.639,0.751,35.494,-37.312,63.033
13:38:56:947,29.636,1.414,1.124,-0.026,28.189,-32.214,59.324
13:38:56:972,29.662,0.838,2.227,-0.340,19.716,-24.054,51.796
13:38:56:999,29.689,0.542,2.061,0.376,18.341,-19.784,43.538
13:38:57:025,29.715,-0.505,1.867,-0.316,16.285,-15.582,40.382
13:38:57:051,29.741,-0.817,0.478,-0.394,13.264,-9.505,37.368
13:38:57:078,29.767,-0.831,0.023,-0.269,11.812,-5.740,35.572
13:38:57:104,29.794,-0.898,-0.124,-0.168,10.719,-0.740,33.704
13:38:57:131,29.821,-0.832,-0.486,-0.159,12.076,1.964,32.210
13:38:57:156,29.846,-0.791,-0.628,-0.113,13.532,3.507,31.353
13:38:57:182,29.872,-0.654,-0.936,0.022,15.407,5.464,30.624
13:38:57:209,29.899,-0.625,-1.020,0.116,16.082,7.832,30.702
13:38:57:264,29.954,-0.669,-1.081,0.165,16.589,11.088,31.531
13:38:57:265,29.955,-0.795,-1.018,0.098,17.212,13.616,32.750
13:38:57:288,29.978,-0.778,-0.928,0.048,17.662,14.668,33.685
13:38:57:314,30.004,-0.760,-0.725,-0.018,17.902,14.488,35.483
13:38:57:34,30.030,-1.467,0.370,-0.397,16.251,12.390,37.912
13:38:57:366,30.056,-2.338,0.855,0.235,17.952,10.312,39.771
13:38:57:394,30.083,-0.034,1.901,-0.969,16.757,2.170,41.319
13:38:57:419,30.109,0.662,2.292,-0.739,23.691,-2.938,41.368
13:38:57:445,30.135,0.505,1.146,-0.407,25.537,-9.914,46.792
13:38:57:558,30.248,0.854,0.749,-0.110,26.647,-13.186,50.231
13:38:57:559,30.249,0.829,0.091,0.215,27.693,-18.134,55.686
13:38:57:56,30.250,0.678,-0.286,0.243,29.559,-23.128,61.011
13:38:57:561,30.251,0.625,-0.529,0.292,31.393,-26.419,64.105
13:38:57:579,30.269,0.699,-0.734,0.402,34.210,-30.889,67.727
13:38:57:603,30.293,0.697,-0.880,0.416,36.439,-33.387,69.311
13:38:57:629,30.319,0.657,-0.989,0.444,40.089,-36.486,70.842
13:38:57:655,30.345,0.649,-1.189,0.533,41.977,-37.872,71.542
13:38:57:684,30.373,0.668,-1.302,0.584,43.098,-38.336,72.092
13:38:57:708,30.398,0.787,-1.128,0.498,41.123,-36.851,71.911
13:38:57:734,30.424,0.722,-1.146,0.550,40.017,-35.045,71.627
13:38:57:76,30.450,1.354,-0.758,0.606,33.914,-30.998,69.420
13:38:57:788,30.478,1.416,1.820,-0.248,25.992,-26.474,66.673
13:38:57:814,30.503,0.998,3.005,-0.801,13.922,-18.920,58.752
13:38:57:869,30.559,0.739,1.540,1.007,16.123,-14.477,48.273
13:38:57:869,30.559,-0.402,1.753,-0.022,12.750,-9.470,45.958
13:38:57:891,30.581,-0.565,0.571,-0.232,7.474,-1.337,43.810
13:38:57:917,30.607,-0.634,0.197,-0.260,5.677,2.506,42.182
13:38:57:944,30.634,-0.749,-0.144,-0.162,5.693,6.476,39.563
13:38:58:029,30.719,-0.546,-0.481,-0.073,7.561,7.654,38.329
13:38:58:03,30.719,-0.654,-0.573,-0.015,9.879,7.659,36.588
13:38:58:03,30.720,-0.515,-0.868,0.105,11.701,8.938,35.044
13:38:58:051,30.741,-0.435,-0.849,0.045,12.364,10.195,34.226
13:38:58:052,30.742,-0.537,-0.875,0.020,12.831,12.557,33.634
13:38:58:075,30.765,-0.673,-0.796,0.011,12.872,14.166,33.590
13:38:58:101,30.791,-0.588,-0.897,0.051,13.058,15.753,34.117
13:38:58:127,30.817,-0.622,-0.829,0.056,13.175,16.492,35.273
13:38:58:154,30.844,-1.043,-0.299,0.073,12.864,16.693,36.290
13:38:58:18,30.870,-0.957,1.314,-0.183,12.579,15.522,38.192
13:38:58:206,30.896,-0.261,2.048,-0.386,14.533,11.792,38.812
13:38:58:261,30.951,0.127,2.200,-0.183,18.652,6.226,40.285
13:38:58:262,30.952,0.243,1.547,-0.145,21.034,4.408,44.661
13:38:58:286,30.976,0.580,1.092,-0.079,21.947,3.626,48.422
13:38:58:311,31.001,0.661,0.093,0.132,22.015,2.497,54.277
13:38:58:338,31.028,0.516,-0.293,0.146,21.131,1.435,58.469
13:38:58:364,31.054,0.468,-0.418,0.193,21.086,-1.384,64.737
13:38:58:419,31.109,0.742,-0.436,0.236,23.542,-4.006,68.490
13:38:58:42,31.110,0.663,-0.683,0.300,34.417,-8.373,73.432
13:38:58:472,31.162,0.683,-0.888,0.336,49.864,-11.996,77.600
13:38:58:473,31.163,0.727,-1.102,0.418,58.678,-13.590,79.737
13:38:58:495,31.185,0.773,-1.291,0.248,66.056,-14.104,81.785
13:38:58:521,31.211,0.850,-1.126,0.097,66.695,-13.215,82.256
13:38:58:548,31.238,0.869,-1.047,0.057,61.313,-10.581,81.384
13:38:58:574,31.263,1.173,-1.041,-0.010,50.520,-6.121,78.644
13:38:58:6,31.290,1.378,-0.585,-0.245,38.574,-1.829,75.387
13:38:58:628,31.318,0.844,1.799,-0.669,23.132,6.277,68.039
13:38:58:711,31.401,0.854,1.276,0.219,25.198,9.929,62.314
13:38:58:711,31.401,0.414,2.074,-0.453,23.668,16.680,55.192
13:38:58:712,31.402,-0.387,0.845,-0.224,18.237,22.662,50.990
13:38:58:731,31.421,-0.542,0.613,-0.002,14.076,28.155,47.869
13:38:58:758,31.448,-0.615,0.089,0.204,10.377,35.392,44.162
13:38:58:784,31.474,-0.673,0.034,0.235,9.922,39.509,42.232
13:38:58:811,31.501,-0.694,-0.346,0.342,11.761,43.652,39.647
13:38:58:836,31.526,-0.544,-0.672,0.336,13.522,45.895,38.111
13:38:58:863,31.553,-0.469,-0.769,0.352,15.381,49.102,36.428
13:38:58:889,31.579,-0.381,-0.877,0.375,16.117,53.499,35.586
13:38:58:915,31.605,-0.485,-0.799,0.443,16.023,56.160,35.541
13:38:58:941,31.631,-0.447,-0.863,0.451,15.757,60.111,35.933
13:38:58:968,31.658,-0.403,-0.875,0.466,15.496,61.746,36.424
13:38:58:994,31.684,-0.371,-0.615,0.540,14.457,63.627,37.463
13:38:59:021,31.711,-0.795,0.553,1.077,11.425,61.430,42.580
13:38:59:048,31.738,-0.786,-0.339,0.968,12.187,59.980,42.505
13:38:59:073,31.763,-0.862,2.768,-0.254,9.967,57.100,40.326
13:38:59:099,31.789,0.008,2.269,0.149,10.255,55.827,41.140
13:38:59:125,31.815,0.215,2.078,-0.080,9.113,52.127,45.550
13:38:59:154,31.843,0.664,0.642,-0.325,10.207,48.776,49.321
13:38:59:178,31.868,0.666,0.103,-0.219,12.651,43.856,55.943
13:38:59:206,31.896,0.855,-0.093,-0.301,17.074,39.045,62.933
13:38:59:231,31.921,1.024,-0.309,-0.381,22.726,36.019,67.228
13:38:59:257,31.947,0.891,-0.712,-0.320,35.147,32.332,73.134
13:38:59:284,31.974,0.868,-1.116,-0.233,44.155,30.625,76.467
13:38:59:309,31.999,0.750,-1.312,-0.290,53.342,29.487,79.763
13:38:59:335,32.025,0.649,-1.236,-0.368,57.445,29.256,81.422
13:38:59:361,32.051,0.678,-1.147,-0.327,57.200,29.820,81.539
13:38:59:388,32.078,0.802,-1.321,-0.371,54.789,31.147,80.495
13:38:59:443,32.133,0.944,-1.292,-0.519,51.048,33.126,79.128
13:38:59:444,32.134,0.962,-1.128,-1.062,37.945,38.114,75.645
13:38:59:495,32.185,0.590,0.706,-1.507,14.118,46.354,68.920
13:38:59:496,32.186,0.459,2.477,-0.958,6.886,52.190,62.750
13:38:59:55,32.240,1.021,1.700,-0.509,13.116,57.550,52.563
13:38:59:55,32.240,-0.087,1.757,-0.149,13.677,61.550,47.073
13:38:59:571,32.261,-0.426,1.019,0.394,11.921,67.753,42.455
13:38:59:598,32.287,-0.339,0.298,0.595,10.171,73.152,39.278
13:38:59:653,32.343,-0.284,-0.054,0.713,9.341,80.509,36.228
13:38:59:654,32.344,-0.288,-0.521,0.651,10.635,86.508,34.171
13:38:59:706,32.396,-0.253,-0.654,0.659,11.752,90.048,32.966
13:38:59:706,32.396,-0.211,-0.894,0.653,13.295,95.220,31.309
13:38:59:729,32.419,-0.152,-0.997,0.694,14.040,98.734,30.513
13:38:59:755,32.445,-0.023,-1.040,0.819,14.535,103.844,29.892
13:38:59:781,32.471,0.079,-1.047,0.856,14.667,107.594,29.915
13:38:59:807,32.497,0.121,-0.998,0.833,14.575,108.993,30.271
13:38:59:834,32.524,0.183,-0.733,0.723,13.465,109.903,31.335
13:38:59:92,32.610,0.139,0.843,1.706,9.572,109.079,34.759
13:38:59:92,32.610,0.129,1.481,1.090,8.373,104.719,38.217
13:38:59:92,32.610,0.014,2.197,0.444,9.625,96.234,41.903
13:38:59:939,32.629,0.031,2.017,0.574,10.216,92.525,45.244
13:38:59:965,32.655,0.050,1.616,-0.501,11.311,88.004,49.492
13:38:59:993,32.683,0.511,0.648,-0.614,12.856,86.402,51.548
13:39:00:018,32.708,0.176,0.455,-0.842,8.444,85.593,57.312
13:39:00:044,32.734,0.223,-0.134,-0.873,8.579,82.224,63.259
13:39:00:07,32.760,0.402,-0.396,-0.900,11.859,77.484,69.407
13:39:00:096,32.786,0.357,-0.819,-0.751,22.425,73.160,74.920
13:39:00:124,32.814,0.387,-0.964,-0.689,33.358,70.858,78.219
13:39:00:178,32.867,0.440,-1.219,-0.770,50.291,68.624,82.181
13:39:00:179,32.868,0.333,-1.195,-0.734,59.986,68.251,84.321
13:39:00:205,32.895,0.202,-1.222,-0.825,70.794,69.002,86.344
13:39:00:205,32.895,0.307,-1.459,-0.813,76.367,71.323,87.187
13:39:00:257,32.947,0.265,-1.489,-0.907,76.022,73.812,87.146
13:39:00:257,32.947,0.048,-0.524,-1.063,56.209,78.999,84.880
13:39:00:309,32.999,-0.133,2.600,-1.378,17.897,83.307,81.029
13:39:00:31,33.000,0.998,1.299,-1.047,11.945,89.651,72.910
13:39:00:473,33.163,0.524,1.466,-0.446,18.291,92.673,67.331
13:39:00:474,33.164,0.205,0.851,0.313,8.550,99.815,63.285
13:39:00:475,33.165,0.141,0.354,0.607,-1.370,107.240,59.859
13:39:00:475,33.165,0.101,0.491,0.377,-5.365,111.314,57.668
13:39:00:493,33.183,0.228,-0.568,0.691,-4.133,114.674,55.989
13:39:00:494,33.184,0.178,-0.720,0.360,-1.606,117.218,54.401
13:39:00:519,33.209,0.192,-0.830,0.338,-0.112,121.577,51.787
13:39:00:52,33.210,0.289,-0.707,0.417,-1.945,127.269,49.374
13:39:00:543,33.233,0.298,-0.734,0.432,-3.158,130.861,47.926
13:39:00:569,33.259,0.407,-0.710,0.419,-4.136,135.442,46.239
13:39:00:596,33.286,0.381,-0.600,0.346,-4.555,137.730,45.405
13:39:00:622,33.312,0.559,-0.566,0.290,-5.391,140.887,44.955
13:39:00:648,33.337,1.158,-0.052,0.601,-9.026,142.781,45.853
13:39:00:674,33.364,0.811,1.160,0.009,-14.178,141.041,48.229
13:39:00:701,33.391,1.698,1.010,1.358,-10.619,138.330,48.791
13:39:00:727,33.417,-0.349,1.788,-0.561,-10.837,130.619,51.249
13:39:00:753,33.443,1.760,-0.258,0.631,1.766,129.648,52.078
13:39:00:779,33.469,0.224,0.599,-0.311,0.504,125.341,55.548
13:39:00:805,33.495,0.044,0.141,-0.412,0.578,123.521,59.299
13:39:00:861,33.551,-0.019,-0.073,-0.500,-0.129,120.725,63.595
13:39:00:862,33.552,-0.003,-0.325,-0.495,1.122,118.612,66.008
13:39:00:884,33.574,-0.100,-0.537,-0.580,5.440,115.326,68.881
13:39:00:911,33.601,-0.157,-0.664,-0.628,8.796,113.535,70.006
13:39:00:937,33.626,-0.251,-0.863,-0.630,11.392,111.781,70.495
13:39:00:963,33.653,-0.321,-0.797,-0.551,12.465,111.286,69.909
13:39:00:989,33.679,-0.333,-0.922,-0.624,15.023,111.235,69.283
13:39:01:015,33.705,-0.435,-1.003,-0.777,18.185,112.075,68.259
13:39:01:07,33.760,-0.503,-0.942,-0.978,18.381,113.601,67.436
13:39:01:071,33.761,-0.848,-0.677,-1.072,13.558,118.192,64.944
13:39:01:095,33.785,-0.858,1.394,-0.616,5.184,125.618,59.845
13:39:01:12,33.810,-0.725,2.259,-0.355,7.224,129.655,54.998
13:39:01:146,33.836,-0.170,1.490,-0.546,16.523,132.588,47.308
13:39:01:232,33.922,0.387,1.024,-0.088,18.117,136.227,43.554
13:39:01:232,33.922,0.459,0.796,0.293,15.125,144.500,39.149
13:39:01:233,33.923,0.839,0.100,0.653,12.090,149.112,37.579
13:39:01:254,33.943,0.828,0.065,0.594,11.446,155.722,34.407
13:39:01:278,33.967,0.664,-0.568,0.289,14.410,157.858,31.293
13:39:01:305,33.995,0.609,-0.747,0.200,16.096,158.966,29.240
13:39:01:33,34.020,0.610,-0.871,0.160,17.571,161.751,26.997
13:39:01:471,34.161,0.811,-0.734,0.227,18.134,164.138,26.183
13:39:01:472,34.162,0.752,-0.817,0.168,19.579,166.457,25.749
13:39:01:473,34.162,0.726,-0.809,0.109,21.395,167.632,26.366
13:39:01:49,34.180,0.760,-0.592,0.044,23.090,170.153,30.078
13:39:01:491,34.181,1.466,0.214,0.277,23.233,171.071,32.501
13:39:01:514,34.204,1.386,1.143,0.533,24.476,169.054,35.012
13:39:01:541,34.231,0.344,1.268,0.082,26.951,164.658,35.742
13:39:01:566,34.256,0.390,1.399,0.260,29.617,161.489,37.378
13:39:01:622,34.312,0.266,1.150,0.338,30.548,159.556,41.976
13:39:01:622,34.312,-0.063,1.045,0.235,31.726,157.531,44.782
13:39:01:645,34.335,-0.375,0.303,-0.101,35.187,152.865,48.297
13:39:01:673,34.363,-0.361,-0.020,-0.177,37.753,149.789,50.731
13:39:01:698,34.388,-0.414,-0.286,-0.214,40.962,145.867,54.609
13:39:01:724,34.414,-0.750,-0.390,-0.215,43.627,142.291,57.583
13:39:01:751,34.441,-0.823,-0.543,-0.283,45.841,139.706,58.663
13:39:01:776,34.466,-0.804,-0.884,-0.568,49.065,135.944,58.997
13:39:01:803,34.493,-0.958,-0.914,-0.680,50.249,134.378,58.915
13:39:01:829,34.519,-0.997,-0.836,-0.596,49.895,134.074,58.668
13:39:01:855,34.545,-0.862,-0.719,-0.530,48.247,135.086,57.733
13:39:01:882,34.571,-0.996,-0.719,-0.699,47.021,135.961,56.479
13:39:01:908,34.598,-0.992,0.267,-0.343,42.747,138.392,52.985
13:39:01:934,34.624,-0.761,0.607,-0.311,39.169,140.185,49.195
13:39:01:96,34.650,-0.474,1.220,-0.045,34.197,143.056,42.081
13:39:01:987,34.677,0.038,1.442,0.205,30.295,146.326,36.309
13:39:02:013,34.702,0.254,1.303,0.242,27.927,148.397,32.524
13:39:02:039,34.729,0.704,0.694,0.237,24.396,152.410,27.723
13:39:02:094,34.784,0.821,0.182,0.166,22.852,155.176,24.679
13:39:02:095,34.785,0.897,-0.047,0.045,21.480,158.646,20.568
13:39:02:118,34.808,1.000,-0.399,-0.067,20.535,161.966,17.176
13:39:02:144,34.834,1.015,-0.578,-0.169,20.136,164.008,15.406
13:39:02:173,34.863,1.081,-0.879,-0.150,19.972,166.935,13.735
13:39:02:198,34.888,0.999,-1.130,-0.124,20.259,168.219,13.168
13:39:02:224,34.914,0.934,-1.213,-0.180,21.007,168.832,13.021
13:39:02:25,34.940,0.981,-1.042,-0.127,21.673,169.380,14.129
13:39:02:276,34.965,0.958,-0.869,-0.013,22.064,169.667,15.531
13:39:02:301,34.991,1.067,-0.601,0.153,22.560,169.281,18.575
13:39:02:328,35.018,1.550,0.096,0.229,22.698,168.215,20.942
13:39:02:354,35.044,1.021,1.545,0.599,23.591,163.429,23.993
13:39:02:38,35.070,0.357,2.165,0.617,24.905,158.379,25.518
13:39:02:406,35.096,0.152,1.888,0.547,27.056,152.958,29.682
13:39:02:432,35.122,-0.377,1.417,0.207,29.577,149.228,35.411
13:39:02:458,35.148,-0.668,0.693,-0.065,31.704,147.131,39.538
13:39:02:486,35.176,-0.691,0.052,-0.196,34.779,145.371,46.236
13:39:02:511,35.201,-0.610,-0.270,-0.080,36.686,144.899,50.836
13:39:02:538,35.228,-0.699,-0.510,-0.269,41.226,142.914,56.567
13:39:02:567,35.257,-0.799,-0.902,-0.469,47.602,139.709,60.477
13:39:02:567,35.257,-0.804,-0.938,-0.456,50.199,138.459,62.254
13:39:02:59,35.280,-0.870,-0.866,-0.406,52.096,137.636,63.934
13:39:02:617,35.307,-0.863,-0.888,-0.400,53.449,137.309,64.591
13:39:02:673,35.363,-0.894,-1.020,-0.560,55.234,137.214,65.049
13:39:02:673,35.363,-0.925,-0.880,-0.624,55.348,138.529,65.097
13:39:02:725,35.415,-1.100,-0.728,-0.681,54.263,140.290,64.785
13:39:02:725,35.415,-1.321,-0.106,-0.481,48.762,144.697,62.907
13:39:02:748,35.438,-0.636,1.002,-0.148,42.193,148.535,60.134
13:39:02:774,35.464,-1.153,2.476,-0.229,33.060,153.809,52.734
13:39:02:8,35.490,-0.218,1.605,-0.084,31.032,156.611,48.952
13:39:02:855,35.545,0.612,1.418,0.273,26.114,163.400,44.184
13:39:02:856,35.546,0.563,0.591,0.093,21.199,169.650,39.582
13:39:02:879,35.569,0.690,0.458,0.147,18.585,175.011,37.105
13:39:02:905,35.595,0.772,-0.167,0.029,17.216,-178.286,34.105
13:39:02:931,35.621,0.686,-0.505,0.034,17.281,-174.527,32.040
13:39:02:959,35.649,0.719,-0.583,-0.043,17.815,-168.969,29.218
13:39:02:984,35.674,0.714,-0.723,-0.114,18.621,-163.396,27.003
13:39:03:01,35.700,0.727,-0.926,-0.144,19.189,-159.424,26.101
13:39:03:063,35.752,0.799,-1.242,-0.438,20.147,-149.220,26.098
13:39:03:089,35.779,0.751,-1.252,-0.535,20.215,-143.971,27.321
13:39:03:117,35.807,0.875,-0.997,-0.824,19.649,-141.113,28.611
13:39:03:142,35.832,1.422,-0.007,-1.025,18.285,-138.738,30.790
13:39:03:168,35.858,1.433,1.160,-0.604,19.493,-142.267,32.272
13:39:03:194,35.884,0.384,1.708,-0.305,21.533,-147.129,32.579
13:39:03:248,35.938,0.110,1.744,-0.132,20.624,-152.822,37.138
13:39:03:273,35.963,-0.309,1.129,-0.070,19.155,-155.771,41.459
13:39:03:299,35.989,-0.566,0.459,0.012,20.874,-160.410,46.439
13:39:03:326,36.016,-0.563,-0.051,-0.057,23.354,-163.441,50.116
13:39:03:351,36.041,-0.545,-0.405,-0.116,27.210,-167.480,55.324
13:39:03:378,36.067,-0.513,-0.484,-0.139,29.854,-169.796,58.676
13:39:03:404,36.094,-0.699,-0.495,0.006,33.672,-172.812,62.608
13:39:03:432,36.122,-0.745,-0.771,0.051,36.298,-175.040,65.315
13:39:03:457,36.147,-0.726,-0.725,0.068,36.649,-176.099,66.587
13:39:03:483,36.173,-0.857,-0.887,0.060,38.357,-176.935,67.831
13:39:03:509,36.199,-1.036,-1.145,0.164,40.264,-177.143,68.550
13:39:03:535,36.225,-1.130,-1.197,0.191,40.772,-175.477,69.120
13:39:03:561,36.251,-1.567,-1.098,0.766,33.236,-170.141,68.137
13:39:03:588,36.278,-1.342,-0.228,1.203,20.405,-163.918,65.898
13:39:03:615,36.305,-0.759,2.726,0.923,5.063,-153.621,58.529
13:39:03:641,36.331,-0.518,1.798,0.200,7.286,-148.578,52.278
13:39:03:667,36.356,-1.074,1.746,0.325,14.463,-146.396,41.706
13:39:03:693,36.383,0.892,1.203,-0.044,11.906,-140.107,38.422
13:39:03:719,36.409,1.088,0.698,-0.469,6.564,-128.316,34.994
13:39:03:745,36.435,0.963,-0.179,-0.747,7.802,-120.924,31.708
13:39:03:771,36.461,0.757,-0.516,-0.756,10.758,-118.457,29.723
13:39:03:827,36.517,0.591,-0.717,-0.713,15.183,-115.873,26.623
13:39:03:827,36.517,0.557,-0.846,-0.782,17.534,-113.535,24.772
13:39:03:851,36.541,0.417,-1.145,-0.670,20.787,-109.429,22.865
13:39:03:935,36.625,0.490,-1.223,-0.885,22.732,-103.125,23.333
13:39:03:936,36.626,0.414,-1.275,-0.951,23.273,-98.433,24.651
13:39:03:956,36.646,0.280,-0.704,-0.996,23.507,-91.229,28.749
13:39:03:981,36.671,0.319,-0.211,-1.312,22.910,-90.442,31.550
13:39:04:01,36.700,0.721,0.973,-1.372,21.640,-90.480,33.677
13:39:04:034,36.724,0.960,1.876,-1.253,18.664,-92.459,36.369
13:39:04:06,36.750,0.522,2.667,-0.098,16.413,-96.723,38.791
13:39:04:116,36.806,0.272,1.904,0.086,15.592,-100.650,41.007
13:39:04:116,36.806,-0.037,1.338,0.593,15.627,-107.683,45.570
13:39:04:168,36.858,-0.547,0.438,0.855,16.674,-112.760,48.927
13:39:04:169,36.859,-0.633,0.048,0.743,18.396,-119.725,54.526
13:39:04:191,36.881,-0.707,-0.569,0.719,21.357,-125.750,60.229
13:39:04:218,36.908,-0.740,-0.850,0.710,23.867,-128.867,63.506
13:39:04:244,36.934,-0.630,-0.867,0.587,27.623,-132.533,67.648
13:39:04:27,36.960,-0.768,-1.217,0.627,31.719,-134.459,69.832
13:39:04:296,36.986,-0.785,-1.467,0.698,38.925,-135.758,72.142
13:39:04:323,37.013,-0.623,-1.426,0.909,41.847,-134.237,73.598
13:39:04:349,37.039,-0.649,-1.265,1.008,41.543,-131.799,74.151
13:39:04:375,37.065,-0.224,-1.556,0.585,39.178,-124.959,74.057
13:39:04:428,37.118,0.319,2.360,1.003,11.132,-108.542,63.982
13:39:04:454,37.144,-0.603,1.847,0.920,13.717,-102.508,57.231
13:39:04:481,37.171,0.147,2.267,0.143,21.263,-96.778,48.925
13:39:04:506,37.196,0.483,0.707,-0.598,19.749,-87.926,44.365
13:39:04:533,37.223,0.349,0.330,-0.708,17.462,-81.551,41.857
13:39:04:559,37.249,0.160,-0.092,-1.047,14.698,-72.158,39.513
13:39:04:614,37.304,-0.040,-0.594,-0.893,15.817,-66.281,37.530
13:39:04:615,37.305,-0.106,-0.712,-0.850,17.662,-63.982,36.137
13:39:04:638,37.328,-0.181,-0.990,-0.608,20.032,-61.127,34.162
13:39:04:664,37.354,-0.167,-0.982,-0.556,20.889,-58.880,33.116
13:39:04:69,37.380,-0.224,-0.805,-0.812,21.103,-54.899,32.513
13:39:04:716,37.406,-0.229,-0.916,-0.769,21.672,-53.308,32.458
13:39:04:742,37.432,-0.266,-1.021,-0.615,22.477,-52.380,32.856
13:39:04:769,37.459,-0.333,-0.601,-0.419,21.466,-51.973,34.420
13:39:04:796,37.486,-0.784,-0.299,-0.922,18.122,-53.374,37.773
13:39:04:821,37.511,-0.397,1.613,-1.277,14.025,-56.723,40.677
13:39:04:848,37.538,-0.070,1.951,-0.680,13.722,-59.756,43.794
13:39:04:876,37.566,-0.187,2.409,-0.638,16.715,-62.554,44.403
13:39:04:877,37.567,0.225,1.599,0.863,21.780,-68.032,48.418
13:39:04:93,37.620,0.062,0.649,0.598,23.122,-70.706,51.879
13:39:04:93,37.620,0.068,0.274,0.639,24.902,-73.372,57.128
13:39:04:979,37.669,0.029,-0.089,0.889,26.805,-75.703,60.371
13:39:05:008,37.698,-0.085,-0.518,0.930,31.048,-79.283,64.525
13:39:05:009,37.699,-0.076,-0.863,0.688,35.854,-81.956,68.878
13:39:05:061,37.751,0.011,-0.840,0.731,38.873,-83.307,70.968
13:39:05:061,37.751,0.032,-1.070,0.870,44.311,-85.124,72.679
13:39:05:084,37.774,0.022,-1.388,0.918,47.477,-85.663,73.311
13:39:05:11,37.800,0.038,-1.466,0.977,50.100,-84.850,73.911
13:39:05:138,37.828,0.245,-1.247,1.151,49.576,-83.033,73.946
13:39:05:163,37.853,0.456,-1.215,1.267,46.060,-78.125,73.084
13:39:05:189,37.879,1.170,0.025,1.359,34.568,-69.958,69.262
13:39:05:215,37.905,1.377,2.567,0.644,26.032,-63.919,64.675
13:39:05:241,37.931,0.224,1.844,1.263,27.277,-57.634,54.791
13:39:05:268,37.957,0.445,2.275,0.394,27.775,-53.802,49.935
13:39:05:296,37.986,0.059,1.003,-0.671,25.092,-46.236,46.681
13:39:05:321,38.011,-0.365,0.274,-0.655,21.988,-38.657,43.880
13:39:05:347,38.037,-0.487,0.105,-0.704,21.170,-34.272,42.548
13:39:05:372,38.062,-0.486,-0.466,-0.640,23.158,-30.149,40.538
13:39:05:4,38.090,-0.534,-0.768,-0.532,25.012,-28.213,39.000
13:39:05:426,38.116,-0.503,-0.954,-0.384,27.139,-25.213,36.854
13:39:05:451,38.141,-0.444,-1.123,-0.340,27.484,-20.503,35.756
13:39:05:478,38.168,-0.709,-0.946,-0.568,26.919,-16.640,35.682
13:39:05:504,38.194,-0.852,-0.935,-0.554,26.653,-12.447,35.983
13:39:05:53,38.220,-0.775,-0.941,-0.421,26.914,-11.355,36.210
13:39:05:556,38.246,-0.657,-0.758,-0.346,26.886,-10.990,37.040
13:39:05:583,38.273,-1.132,0.729,-0.720,25.889,-10.788,38.261
13:39:05:609,38.299,-2.148,0.218,-0.249,22.710,-13.382,41.656
13:39:05:635,38.325,-1.345,1.551,-0.998,22.730,-18.752,42.744
13:39:05:662,38.352,0.899,3.314,-0.635,24.750,-22.225,42.484
13:39:05:688,38.378,0.416,1.562,0.063,26.780,-29.745,47.938
13:39:05:716,38.406,0.757,0.770,0.295,27.361,-33.515,52.400
13:39:05:74,38.430,0.787,0.303,0.573,29.101,-38.880,58.864
13:39:05:766,38.456,0.633,-0.320,0.656,32.291,-43.929,64.875
13:39:05:793,38.483,0.435,-0.625,0.594,35.523,-47.095,68.632
13:39:05:818,38.508,0.386,-0.911,0.613,40.947,-51.111,73.162
13:39:05:847,38.537,0.463,-0.946,0.555,43.798,-53.191,75.127
13:39:05:871,38.561,0.446,-1.029,0.567,47.648,-55.569,76.876
13:39:05:898,38.588,0.526,-1.220,0.769,51.140,-56.857,77.271
13:39:05:925,38.615,0.541,-1.289,0.888,52.447,-56.893,76.988
13:39:05:951,38.641,0.613,-1.283,0.934,51.362,-55.401,76.037
13:39:05:976,38.666,1.213,-1.387,1.092,46.571,-52.066,74.588
13:39:06:003,38.693,1.420,-0.844,0.796,33.293,-46.078,70.753
13:39:06:029,38.719,1.213,0.664,0.148,21.715,-39.996,67.153
13:39:06:055,38.745,0.813,3.010,-0.065,14.091,-31.865,58.212
13:39:06:081,38.771,1.032,1.966,1.029,25.631,-30.486,47.641
13:39:06:109,38.798,-0.297,1.445,-0.544,25.312,-25.835,44.304
13:39:06:134,38.824,-0.654,0.364,-0.527,20.283,-16.322,42.660
13:39:06:16,38.850,-1.036,-0.015,-0.629,17.114,-12.389,40.323
13:39:06:186,38.876,-1.089,-0.286,-0.488,16.719,-8.771,38.816
13:39:06:241,38.931,-0.582,-0.645,-0.235,20.336,-8.985,36.219
13:39:06:242,38.932,-0.591,-0.803,-0.179,22.136,-8.825,34.838
13:39:06:267,38.957,-0.664,-1.002,-0.203,23.022,-6.643,34.108
13:39:06:32,39.010,-0.872,-1.019,-0.271,22.919,-4.437,34.395
13:39:06:321,39.011,-0.858,-1.114,-0.175,22.765,-1.877,35.313
13:39:06:344,39.034,-0.753,-1.069,-0.106,22.920,-1.265,36.021
13:39:06:37,39.060,-0.647,-0.941,-0.113,22.815,-1.128,37.572
13:39:06:398,39.088,-0.865,-0.428,-0.320,21.518,-1.233,40.095
13:39:06:423,39.113,-1.733,0.816,-0.610,19.295,-1.371,42.183
13:39:06:449,39.139,-0.822,2.174,-0.956,19.052,-6.041,44.476
13:39:06:475,39.165,0.620,3.017,-0.412,22.210,-12.143,45.083
13:39:06:502,39.191,0.865,2.620,-0.173,26.882,-18.691,48.926
13:39:06:528,39.218,1.065,0.874,0.246,29.981,-22.972,55.397
13:39:06:554,39.244,0.856,0.232,0.299,31.852,-25.259,60.071
13:39:06:58,39.270,0.727,-0.312,0.423,35.754,-28.809,66.831
13:39:06:606,39.296,0.648,-0.718,0.451,39.865,-31.337,70.840
13:39:06:633,39.323,0.675,-0.985,0.424,46.847,-34.803,75.891
13:39:06:659,39.349,0.687,-1.029,0.369,53.289,-37.809,79.114
13:39:06:685,39.375,0.623,-1.221,0.460,58.503,-39.525,80.425
13:39:06:712,39.401,0.646,-1.445,0.601,65.042,-41.095,81.482
13:39:06:797,39.487,0.676,-1.551,0.685,67.348,-41.333,81.785
13:39:06:797,39.487,0.826,-1.558,0.787,67.117,-39.910,81.750
13:39:06:797,39.487,1.108,-1.358,0.707,61.897,-35.745,80.929
13:39:06:817,39.507,1.366,-0.997,0.481,51.158,-31.407,78.817
13:39:06:844,39.534,1.318,1.706,-0.319,26.398,-23.928,71.440
13:39:06:869,39.559,0.451,1.597,0.651,24.249,-19.903,64.329
13:39:06:895,39.585,0.766,2.481,0.317,23.766,-14.519,53.844
13:39:06:923,39.613,-0.703,1.829,-0.477,18.014,-7.252,49.220
13:39:06:948,39.638,-0.567,0.480,-0.320,15.246,-3.557,47.177
13:39:06:974,39.664,-0.805,0.032,-0.152,12.040,3.001,44.295
13:39:07:002,39.692,-0.750,-0.267,-0.065,11.942,5.921,43.034
13:39:07:027,39.717,-0.675,-0.598,-0.068,13.037,9.380,41.182
13:39:07:053,39.743,-0.666,-0.803,-0.035,13.863,11.470,40.144
13:39:07:079,39.769,-0.646,-0.860,0.017,14.983,14.657,38.762
13:39:07:105,39.795,-0.658,-0.832,0.055,15.690,17.655,37.797
13:39:07:131,39.821,-0.707,-0.770,0.089,16.083,19.541,37.616
13:39:07:157,39.847,-0.687,-0.794,0.111,16.620,21.514,38.309
13:39:07:184,39.874,-0.696,-0.784,0.091,16.603,22.425,39.432
13:39:07:213,39.903,-1.160,0.196,0.282,14.909,23.140,41.741
13:39:07:214,39.904,-0.668,1.953,-0.001,14.560,20.952,44.821
13:39:07:265,39.955,-0.451,1.909,-0.279,17.001,15.910,47.599
13:39:07:266,39.956,0.392,1.647,-0.050,22.176,13.904,49.025
13:39:07:289,39.979,0.212,0.981,0.182,23.109,11.132,52.783
13:39:07:346,40.036,0.844,0.909,-0.133,24.713,8.766,57.874
13:39:07:346,40.036,0.819,0.070,0.079,26.516,5.974,62.705
13:39:07:368,40.058,0.722,-0.127,0.132,28.712,3.440,66.349
13:39:07:394,40.084,0.653,-0.438,0.178,33.494,-0.287,71.090
13:39:07:422,40.112,0.718,-0.549,0.224,38.714,-2.871,74.073
13:39:07:447,40.137,0.687,-0.757,0.242,48.160,-6.361,77.832
13:39:07:473,40.163,0.690,-0.854,0.264,54.519,-8.242,79.964
13:39:07:5,40.189,0.772,-1.019,0.296,62.747,-10.550,82.575
13:39:07:554,40.244,0.912,-1.132,0.204,69.469,-11.058,84.666
13:39:07:555,40.245,0.959,-1.204,0.108,73.288,-10.148,85.787
13:39:07:638,40.327,0.613,-1.220,0.190,78.698,-6.278,87.298
13:39:07:638,40.327,1.494,-1.282,-0.288,72.861,-3.074,86.386
13:39:07:638,40.327,1.436,0.335,-0.790,20.081,4.647,81.650
13:39:07:657,40.347,1.410,2.090,-0.441,2.068,12.405,72.634
13:39:07:683,40.373,1.787,1.127,0.371,14.543,16.427,65.943
13:39:07:709,40.399,0.724,2.127,-0.024,19.552,20.936,58.123
13:39:07:735,40.425,-0.282,1.051,-0.088,18.907,24.606,54.227
13:39:07:762,40.451,-0.410,0.220,0.124,14.692,30.449,48.799
13:39:07:788,40.478,-0.725,0.031,0.251,11.234,37.575,44.897
13:39:07:815,40.505,-0.639,-0.355,0.315,11.999,40.853,42.659
13:39:07:84,40.530,-0.622,-0.605,0.353,14.407,44.397,39.524
13:39:07:866,40.556,-0.516,-0.820,0.316,16.025,46.502,37.627
13:39:07:893,40.583,-0.434,-0.878,0.342,17.846,49.812,35.203
13:39:07:919,40.609,-0.518,-0.742,0.411,18.502,52.459,34.003
13:39:08:003,40.693,-0.478,-0.778,0.466,19.246,56.498,33.218
13:39:08:004,40.694,-0.435,-0.812,0.477,19.932,60.019,33.590
13:39:08:005,40.695,-0.440,-0.744,0.556,20.074,62.095,34.371
13:39:08:025,40.715,-0.832,0.540,1.253,19.278,65.111,36.166
13:39:08:051,40.741,-0.714,1.159,0.900,19.465,65.503,37.355
13:39:08:104,40.794,-0.407,1.809,0.403,21.373,62.536,38.741
13:39:08:131,40.821,-0.163,1.811,0.228,22.876,60.388,42.426
13:39:08:132,40.822,-0.003,1.720,-0.027,22.933,59.227,46.211
13:39:08:156,40.846,0.424,0.788,-0.409,22.783,56.405,52.344
13:39:08:182,40.872,0.567,0.243,-0.396,22.494,53.963,56.602
13:39:08:208,40.898,0.651,-0.124,-0.375,22.891,49.479,63.221
13:39:08:234,40.924,0.710,-0.341,-0.366,24.888,46.091,67.446
13:39:08:26,40.950,0.786,-0.507,-0.363,32.119,40.862,73.115
13:39:08:286,40.976,0.827,-0.741,-0.321,44.353,36.240,77.624
13:39:08:312,41.002,0.834,-0.971,-0.290,52.650,33.825,79.986
13:39:08:339,41.029,0.878,-1.231,-0.195,61.814,31.294,82.637
13:39:08:365,41.055,0.801,-1.205,-0.336,65.023,30.610,83.846
13:39:08:393,41.083,0.758,-1.167,-0.428,64.901,31.268,84.598
13:39:08:418,41.108,0.879,-1.259,-0.550,59.674,33.815,83.937
13:39:08:444,41.134,0.894,-1.264,-0.793,50.645,36.933,82.240
13:39:08:47,41.160,0.612,-0.242,-1.268,20.568,44.231,76.640
13:39:08:497,41.186,0.863,2.523,-1.203,3.058,50.100,69.749
13:39:08:523,41.213,1.135,1.294,-0.938,11.154,57.354,59.308
13:39:08:551,41.241,0.491,1.489,-0.466,21.888,58.866,49.077
13:39:08:577,41.266,-0.184,1.010,-0.082,21.921,61.257,44.055
13:39:08:602,41.292,-0.331,0.474,0.272,17.470,68.352,38.080
13:39:08:629,41.319,-0.519,0.274,0.716,14.295,74.289,35.607
13:39:08:654,41.344,-0.350,-0.183,0.749,13.149,80.931,32.282
13:39:08:68,41.370,-0.245,-0.539,0.596,14.639,82.935,29.887
13:39:08:707,41.396,-0.194,-0.636,0.612,16.944,85.254,26.601
13:39:08:733,41.423,-0.144,-0.709,0.578,18.524,88.216,24.055
13:39:08:76,41.450,-0.132,-0.792,0.631,19.086,90.859,22.958
13:39:08:785,41.475,-0.082,-0.916,0.675,19.476,95.383,22.351
13:39:08:813,41.503,-0.041,-0.947,0.721,19.464,98.496,22.636
13:39:08:838,41.528,0.001,-0.801,0.828,19.074,102.147,23.539
13:39:08:864,41.554,0.177,-0.573,1.017,17.913,104.469,24.987
13:39:08:89,41.580,0.291,0.506,1.675,16.936,104.982,26.269
13:39:08:916,41.606,-0.311,1.859,1.147,15.333,101.781,28.159
13:39:08:943,41.633,0.317,1.907,0.558,14.956,99.286,29.825
13:39:08:998,41.688,0.265,1.939,0.082,14.954,95.996,34.820
13:39:08:999,41.689,0.372,1.217,-0.528,15.480,91.905,41.612
13:39:09:022,41.712,0.376,0.779,-0.786,16.552,89.352,46.394
13:39:09:047,41.737,0.401,-0.016,-0.863,18.926,86.030,53.643
13:39:09:074,41.764,0.386,-0.301,-0.925,20.832,84.372,58.337
13:39:09:1,41.790,0.387,-0.464,-1.071,25.001,82.199,64.946
13:39:09:126,41.816,0.456,-0.872,-1.070,31.695,80.547,70.815
13:39:09:153,41.843,0.421,-1.100,-0.906,35.046,80.171,74.098
13:39:09:179,41.868,0.173,-1.195,-0.829,39.990,80.653,77.893
13:39:09:205,41.895,0.088,-1.337,-0.864,44.463,81.468,79.480
13:39:09:233,41.923,-0.002,-1.457,-0.821,48.510,83.716,80.372
13:39:09:258,41.948,0.046,-1.115,-0.891,46.051,87.122,79.365
13:39:09:284,41.974,-0.032,-1.452,-0.650,36.547,90.866,76.517
13:39:09:311,42.000,-0.161,0.296,-0.589,27.574,96.760,73.076
13:39:09:365,42.055,-0.001,1.781,-0.776,21.560,101.230,68.220
13:39:09:424,42.114,0.369,1.638,-1.010,23.268,106.699,59.020
13:39:09:425,42.115,0.187,1.704,-0.146,20.957,112.279,53.511
13:39:09:426,42.116,0.372,0.926,0.368,17.900,116.312,50.345
13:39:09:468,42.158,0.454,-0.180,0.548,12.296,126.173,43.277
13:39:09:494,42.184,0.505,-0.578,0.587,12.488,130.569,39.971
13:39:09:552,42.242,0.496,-0.856,0.545,13.004,133.357,37.925
13:39:09:553,42.243,0.475,-0.976,0.418,13.437,137.280,35.161
13:39:09:554,42.244,0.585,-0.786,0.471,12.986,141.940,33.233
13:39:09:572,42.262,0.607,-0.676,0.468,13.102,144.044,32.392
13:39:09:599,42.289,0.640,-0.597,0.333,14.240,145.445,31.975
13:39:09:625,42.315,0.605,-0.619,0.214,15.021,145.860,32.434
13:39:09:684,42.373,0.769,-0.309,0.358,15.137,146.804,34.266
13:39:09:684,42.373,1.127,0.568,0.611,15.017,146.635,36.721
13:39:09:734,42.424,0.841,0.822,0.421,16.748,144.072,37.883
13:39:09:734,42.424,0.414,1.140,0.192,20.065,138.879,38.979
13:39:09:756,42.446,0.246,1.321,0.073,21.521,136.233,40.207
13:39:09:785,42.475,0.090,1.252,-0.054,22.932,133.199,42.598
13:39:09:81,42.499,-0.076,0.550,-0.256,25.173,129.950,45.021
13:39:09:835,42.525,-0.129,0.214,-0.320,27.044,127.986,46.890
13:39:09:891,42.581,-0.300,-0.260,-0.494,29.330,125.789,49.916
13:39:09:891,42.581,-0.339,-0.456,-0.448,30.157,124.822,51.838
13:39:09:915,42.605,-0.364,-0.645,-0.356,32.176,123.052,54.012
13:39:09:942,42.632,-0.526,-0.972,-0.529,34.388,121.505,54.736
13:39:09:968,42.658,-0.574,-0.959,-0.707,36.615,119.407,54.457
13:39:09:993,42.683,-0.663,-0.814,-0.767,36.221,118.524,53.363
13:39:10:019,42.709,-0.715,-0.743,-0.733,35.452,118.382,52.348
13:39:10:045,42.735,-0.717,-0.647,-0.791,34.831,118.367,50.091
13:39:10:071,42.761,-0.963,-0.029,-1.022,34.388,118.841,48.048
13:39:10:098,42.788,-0.989,0.943,-0.612,31.339,121.700,43.308
13:39:10:154,42.844,-0.239,0.974,-0.478,27.843,125.266,36.263
13:39:10:155,42.845,-0.297,1.910,-0.160,24.726,128.951,30.587
13:39:10:178,42.868,0.101,1.925,0.670,22.758,135.360,26.991
13:39:10:203,42.893,0.550,1.017,0.594,21.453,139.460,23.996
13:39:10:229,42.919,0.670,0.336,0.358,19.436,145.903,19.817
13:39:10:255,42.945,0.845,-0.013,0.395,19.028,151.346,16.470
13:39:10:282,42.971,0.924,-0.334,0.304,19.170,154.436,14.303
13:39:10:308,42.998,1.019,-0.774,0.124,19.831,158.034,11.241
13:39:10:334,43.024,1.040,-0.988,0.040,20.470,160.143,9.715
13:39:10:389,43.079,1.048,-1.245,0.026,21.517,162.816,8.348
13:39:10:39,43.080,1.069,-1.321,0.006,22.225,163.856,7.798
13:39:10:413,43.102,1.065,-1.216,-0.009,23.150,164.035,7.435
13:39:10:439,43.129,1.070,-0.951,0.069,23.601,163.572,8.343
13:39:10:465,43.155,1.223,-0.597,0.262,23.534,163.228,9.888
13:39:10:492,43.182,1.688,0.296,0.632,23.268,161.663,12.863
13:39:10:518,43.208,1.131,1.328,0.721,23.637,157.856,14.315
13:39:10:544,43.234,0.632,1.682,0.703,24.955,150.509,16.532
13:39:10:571,43.261,0.260,1.587,0.614,26.199,145.411,21.083
13:39:10:597,43.287,-0.053,1.522,0.483,27.167,142.891,24.858
13:39:10:623,43.313,-0.640,0.897,0.033,29.672,138.858,30.700
13:39:10:649,43.339,-0.651,0.444,-0.136,31.854,136.807,35.011
13:39:10:676,43.366,-0.529,-0.017,-0.177,34.936,135.677,42.247
13:39:10:701,43.391,-0.589,-0.133,-0.246,37.816,135.207,49.194
13:39:10:728,43.418,-0.715,-0.385,-0.288,40.345,134.455,53.171
13:39:10:755,43.445,-0.881,-0.656,-0.449,45.601,132.934,58.073
13:39:10:781,43.471,-0.904,-0.997,-0.750,49.138,132.147,60.662
13:39:10:807,43.497,-0.955,-1.019,-0.728,53.084,132.273,64.264
13:39:10:833,43.523,-1.164,-1.011,-0.787,54.877,133.113,66.436
13:39:10:859,43.549,-1.041,-1.100,-0.807,57.047,135.035,68.687
13:39:10:885,43.575,-1.138,-1.200,-0.940,56.398,137.989,69.240
13:39:10:911,43.601,-1.263,-0.665,-0.740,52.085,140.800,68.091
13:39:10:94,43.629,-0.964,-0.084,-0.410,41.091,144.420,62.613
13:39:10:965,43.655,-0.906,1.584,-0.143,34.469,146.413,56.934
13:39:10:992,43.682,-0.499,1.711,-0.085,30.419,147.348,47.119
13:39:11:017,43.707,-0.124,2.027,0.263,26.050,149.808,38.708
13:39:11:043,43.733,0.371,1.808,0.594,21.796,154.495,34.534
13:39:11:069,43.759,1.100,0.895,0.577,17.363,161.544,29.055
13:39:11:095,43.785,1.245,0.419,0.468,17.004,164.456,25.250
13:39:11:15,43.840,1.116,-0.181,0.297,17.962,166.472,19.824
13:39:11:151,43.841,1.309,-0.530,0.198,18.193,168.720,17.347
13:39:11:174,43.864,1.351,-0.878,0.053,18.128,173.993,15.803
13:39:11:2,43.890,1.558,-1.330,-0.111,18.634,178.089,15.973
13:39:11:226,43.916,1.277,-1.424,-0.213,19.551,178.613,16.372
13:39:11:254,43.944,0.996,-1.322,-0.291,21.115,178.260,17.985
13:39:11:28,43.970,0.895,-1.121,-0.161,22.496,178.462,21.374
13:39:11:307,43.997,0.794,-1.087,0.181,23.276,178.602,24.262
13:39:11:332,44.022,0.944,-0.765,0.371,23.577,178.111,28.909
13:39:11:358,44.048,1.654,0.636,0.652,23.349,176.398,31.689
13:39:11:384,44.074,0.327,1.951,1.050,24.430,169.830,34.464
13:39:11:41,44.100,-0.322,2.167,1.015,25.296,165.682,36.136
13:39:11:437,44.127,-0.055,1.598,0.508,24.586,162.113,39.416
13:39:11:492,44.182,-0.467,1.166,0.121,23.925,158.006,42.615
13:39:11:493,44.183,-0.630,0.820,-0.017,24.542,154.563,45.016
13:39:11:515,44.205,-0.640,0.153,-0.194,26.847,149.301,49.117
13:39:11:543,44.233,-0.556,-0.228,-0.299,29.117,145.873,51.984
13:39:11:569,44.259,-0.635,-0.382,-0.451,33.334,141.175,56.060
13:39:11:594,44.284,-0.664,-0.528,-0.468,37.295,137.548,59.383
13:39:11:62,44.310,-0.556,-0.652,-0.398,40.519,135.397,61.168
13:39:11:647,44.337,-0.573,-0.833,-0.503,46.102,132.673,63.221
13:39:11:673,44.363,-0.600,-0.899,-0.605,49.228,131.550,64.328
13:39:11:699,44.389,-0.568,-0.896,-0.562,51.881,131.405,65.744
13:39:11:725,44.415,-0.537,-0.821,-0.447,52.543,132.780,67.012
13:39:11:751,44.441,-0.564,-0.722,-0.461,52.124,134.211,67.454
13:39:11:779,44.468,-0.943,-0.254,-0.533,49.457,137.164,66.760
13:39:11:804,44.494,-1.086,0.307,-0.331,45.606,139.927,64.968
13:39:11:83,44.520,-1.067,0.827,-0.262,38.460,144.551,59.798
13:39:11:888,44.578,-0.602,1.357,-0.167,35.078,147.976,56.497
13:39:11:89,44.580,-0.478,1.254,-0.050,31.224,152.813,52.158
13:39:11:89,44.580,-0.047,0.913,0.218,25.847,159.716,48.436
13:39:11:94,44.630,-0.122,1.070,0.291,21.524,163.794,45.626
13:39:11:94,44.630,0.640,0.375,0.218,18.473,168.781,42.773
13:39:11:962,44.652,0.554,-0.244,0.092,17.792,171.366,40.342
13:39:11:988,44.678,0.588,-0.383,0.044,17.044,175.073,37.014
13:39:12:015,44.705,0.856,-0.263,0.098,15.688,179.673,34.023
13:39:12:041,44.731,1.002,-0.227,0.062,15.688,-177.902,32.259
13:39:12:067,44.756,0.813,-0.614,-0.067,17.242,-176.029,30.086
13:39:12:093,44.783,0.715,-0.850,-0.146,18.099,-174.585,29.266
13:39:12:119,44.809,0.767,-0.922,-0.200,18.283,-171.103,29.304
13:39:12:145,44.835,0.761,-0.854,-0.316,17.951,-167.447,30.299
13:39:12:172,44.862,0.658,-0.813,-0.326,17.926,-165.663,31.162
13:39:12:198,44.888,0.694,-0.648,-0.392,17.553,-163.429,32.587
13:39:12:224,44.914,0.942,0.078,-0.497,16.822,-162.216,33.634
13:39:12:25,44.940,0.724,0.744,-0.362,16.004,-162.005,35.219
13:39:12:306,44.996,0.398,1.179,-0.230,15.911,-163.132,36.261
13:39:12:306,44.996,0.236,1.123,-0.273,15.896,-165.191,38.067
13:39:12:329,45.019,0.295,1.448,-0.255,15.339,-167.599,40.730
13:39:12:355,45.045,-0.338,1.220,-0.034,17.274,-169.444,42.370
13:39:12:381,45.071,-0.284,0.437,-0.170,22.080,-173.139,45.527
13:39:12:408,45.098,-0.346,0.031,-0.238,25.108,-174.990,48.069
13:39:12:434,45.124,-0.379,-0.094,-0.239,29.015,-176.226,52.350
13:39:12:461,45.151,-0.393,-0.161,-0.165,32.519,-176.607,56.707
13:39:12:486,45.176,-0.398,-0.260,-0.120,35.425,-176.881,59.315
13:39:12:513,45.203,-0.435,-0.422,-0.065,40.538,-176.962,62.498
13:39:12:539,45.229,-0.465,-0.470,-0.070,43.834,-177.206,64.117
13:39:12:565,45.255,-0.623,-0.629,-0.026,47.933,-176.572,65.795
13:39:12:591,45.281,-0.700,-0.666,0.197,50.187,-175.100,66.897
13:39:12:618,45.308,-0.702,-0.754,0.262,50.698,-173.851,67.296
13:39:12:645,45.335,-0.776,-0.784,0.315,50.103,-171.385,67.151
13:39:12:67,45.360,-0.903,-0.747,0.330,48.790,-169.250,66.676
13:39:12:697,45.387,-1.201,-0.424,0.695,44.709,-165.093,65.014
13:39:12:723,45.413,-0.978,0.494,0.944,39.010,-161.252,62.616
13:39:12:749,45.439,-0.900,0.809,0.816,30.348,-155.163,56.694
13:39:12:776,45.465,-0.479,1.308,0.642,27.122,-150.262,49.501
13:39:12:803,45.493,-0.073,1.333,0.409,25.577,-146.634,45.428
13:39:12:828,45.518,0.288,1.241,0.187,22.135,-140.394,38.979
13:39:12:854,45.544,0.788,0.984,-0.164,19.863,-135.156,35.209
13:39:12:88,45.570,0.901,0.458,-0.450,19.106,-128.263,30.191
13:39:12:907,45.597,0.715,-0.057,-0.651,20.413,-123.057,25.195
13:39:12:933,45.623,0.565,-0.346,-0.781,21.502,-119.973,22.427
13:39:12:959,45.649,0.601,-0.717,-0.943,23.359,-115.457,19.466
13:39:13:014,45.704,0.602,-1.121,-1.038,24.672,-112.951,17.972
13:39:13:015,45.705,0.427,-1.170,-1.103,26.372,-110.079,16.269
13:39:13:04,45.730,0.284,-0.986,-1.131,27.185,-108.438,15.927
13:39:13:065,45.755,0.260,-0.879,-1.066,27.905,-106.346,17.020
13:39:13:12,45.810,0.399,-0.709,-0.978,28.000,-104.617,19.887
13:39:13:121,45.811,0.560,-0.348,-1.085,27.776,-104.183,22.073
13:39:13:143,45.833,0.767,0.599,-1.128,27.613,-105.783,24.959
13:39:13:198,45.888,0.814,1.395,-0.624,27.601,-108.288,26.415
13:39:13:199,45.889,0.899,1.936,-0.358,27.395,-111.946,29.502
13:39:13:222,45.912,0.751,2.218,0.079,27.546,-116.086,33.944
13:39:13:248,45.938,0.168,1.653,0.467,28.920,-120.066,37.308
13:39:13:3,45.990,-0.565,0.475,0.745,35.584,-128.528,48.861
13:39:13:327,46.017,-0.784,-0.167,0.719,41.028,-132.005,56.600
13:39:13:353,46.043,-0.816,-0.723,0.592,47.547,-134.296,64.439
13:39:13:379,46.069,-0.830,-0.946,0.575,52.036,-135.338,68.823
13:39:13:407,46.096,-0.635,-1.110,0.449,59.538,-136.646,74.019
13:39:13:432,46.122,-0.632,-1.489,0.483,63.631,-137.002,76.239
13:39:13:458,46.148,-0.594,-1.595,0.539,66.421,-136.304,77.913
13:39:13:484,46.174,-0.605,-1.416,0.774,66.020,-135.195,78.130
13:39:13:512,46.202,-0.532,-1.232,0.870,63.159,-132.612,77.477
13:39:13:538,46.228,-0.572,-1.123,0.943,58.656,-128.929,75.603
13:39:13:563,46.253,-0.520,-0.927,1.332,52.366,-125.499,72.943
13:39:13:589,46.279,-0.111,2.329,2.762,34.149,-117.952,64.862
13:39:13:615,46.305,-0.277,2.426,1.258,29.664,-112.518,56.322
13:39:13:644,46.334,-0.023,3.036,0.768,28.695,-109.074,50.333
13:39:13:668,46.358,0.662,1.487,-0.438,23.023,-102.401,46.325
13:39:13:695,46.385,0.579,0.984,-0.641,18.340,-96.817,43.911
13:39:13:721,46.411,0.355,0.438,-1.018,14.756,-89.959,40.768
13:39:13:747,46.437,0.163,-0.407,-0.686,15.664,-87.632,38.677
13:39:13:773,46.463,0.131,-0.579,-0.729,17.549,-84.853,35.659
13:39:13:83,46.520,0.075,-0.702,-0.693,18.232,-81.244,32.929
13:39:13:83,46.520,0.018,-0.882,-0.687,18.125,-77.993,31.532
13:39:13:851,46.541,-0.074,-1.007,-0.724,17.145,-71.840,30.219
13:39:13:878,46.568,-0.167,-1.057,-0.746,16.116,-67.292,29.731
13:39:13:906,46.596,-0.329,-1.054,-0.764,14.735,-61.068,29.315
13:39:13:931,46.621,-0.382,-1.120,-0.845,14.299,-56.706,29.352
13:39:13:957,46.647,-0.425,-1.275,-0.830,13.994,-54.850,29.723
13:39:13:983,46.673,-0.994,-0.452,-1.218,11.928,-53.277,31.005
13:39:14:009,46.699,-0.959,0.930,-1.565,10.551,-53.646,32.292
13:39:14:035,46.725,0.071,2.393,-1.479,11.502,-59.508,34.565
13:39:14:095,46.785,0.185,2.892,0.109,16.408,-67.913,37.483
13:39:14:095,46.785,-0.035,1.850,0.326,18.449,-71.108,40.972
13:39:14:095,46.785,-0.024,0.611,0.674,19.562,-73.684,47.934
13:39:14:143,46.833,0.006,0.236,0.708,19.731,-75.081,52.801
13:39:14:144,46.834,-0.067,-0.210,0.792,22.115,-78.342,59.770
13:39:14:166,46.856,-0.064,-0.522,0.761,26.025,-80.941,63.878
13:39:14:193,46.883,-0.096,-0.680,0.704,34.288,-84.648,69.140
13:39:14:219,46.909,-0.063,-1.052,0.884,41.891,-87.684,72.641
13:39:14:245,46.935,-0.026,-1.048,0.904,44.290,-89.180,73.948
13:39:14:272,46.962,0.133,-1.090,0.935,47.528,-90.500,74.680
13:39:14:301,46.991,0.198,-1.291,1.040,49.856,-90.647,74.592
13:39:14:353,47.043,0.069,-1.491,1.098,51.790,-89.659,74.011
13:39:14:354,47.044,0.242,-1.280,1.371,49.365,-86.339,72.881
13:39:14:406,47.096,0.809,-0.796,1.637,43.008,-82.153,71.287
13:39:14:407,47.096,1.815,2.348,1.731,24.880,-72.487,65.929
13:39:14:429,47.119,0.434,2.163,1.151,20.576,-68.818,61.538
13:39:14:458,47.148,0.581,2.426,1.031,23.900,-63.365,51.873
13:39:14:511,47.201,0.275,1.362,-0.324,24.425,-60.713,47.932
13:39:14:511,47.201,0.058,0.871,-0.617,19.430,-52.902,44.412
13:39:14:535,47.224,-0.336,0.798,-0.995,13.618,-43.305,43.658
13:39:14:56,47.250,-0.450,-0.270,-0.672,11.752,-38.960,40.507
13:39:14:587,47.277,-0.402,-0.478,-0.657,15.214,-35.420,37.444
13:39:14:614,47.304,-0.447,-0.776,-0.558,17.348,-33.486,35.153
13:39:14:668,47.358,-0.477,-1.069,-0.431,19.954,-30.537,32.033
13:39:14:669,47.359,-0.727,-1.034,-0.662,21.171,-26.244,29.843
13:39:14:692,47.382,-0.856,-1.049,-0.673,21.817,-23.533,29.012
13:39:14:718,47.408,-0.881,-0.976,-0.581,23.139,-21.242,28.270
13:39:14:744,47.434,-0.772,-1.044,-0.451,23.749,-20.477,28.375
13:39:14:771,47.461,-0.886,-0.726,-0.552,23.356,-19.235,29.859
13:39:14:797,47.487,-1.549,0.215,-0.835,21.459,-18.420,32.561
13:39:14:823,47.513,-1.048,1.058,-1.124,20.970,-20.039,33.842
13:39:14:849,47.539,-0.288,2.381,-1.105,22.381,-26.405,35.536
13:39:14:875,47.565,0.290,2.649,-0.252,23.941,-31.227,37.871
13:39:14:902,47.592,0.588,1.606,0.061,26.036,-37.309,43.513
13:39:14:928,47.618,0.723,0.850,0.396,26.971,-40.397,48.531
13:39:14:957,47.647,0.716,0.283,0.719,28.790,-44.997,55.950
13:39:14:981,47.671,0.570,-0.315,0.780,32.288,-49.663,62.685
13:39:15:008,47.698,0.491,-0.592,0.821,35.010,-52.460,66.484
13:39:15:033,47.723,0.434,-0.990,0.727,37.612,-55.708,70.712
13:39:15:061,47.751,0.451,-0.951,0.639,38.976,-57.435,72.481
13:39:15:092,47.782,0.428,-1.164,0.711,43.526,-59.719,73.787
13:39:15:112,47.802,0.413,-1.633,0.895,49.076,-60.664,74.504
13:39:15:139,47.829,0.524,-1.607,0.930,49.768,-60.048,74.594
13:39:15:164,47.854,0.651,-1.366,1.000,45.950,-57.260,73.788
13:39:15:191,47.881,1.085,-0.946,1.060,40.435,-53.844,72.247
13:39:15:217,47.906,1.680,0.621,0.950,27.422,-46.058,67.656
13:39:15:243,47.933,1.762,2.239,0.234,21.779,-39.449,59.577
13:39:15:269,47.959,0.251,2.465,0.606,25.753,-36.023,53.040
13:39:15:295,47.985,0.256,2.255,-0.329,23.565,-30.134,47.931
13:39:15:323,48.013,-0.486,0.668,-0.745,19.915,-24.898,46.051
13:39:15:348,48.038,-0.678,0.426,-0.625,14.946,-16.810,43.149
13:39:15:374,48.064,-0.842,-0.304,-0.535,14.744,-13.231,41.636
13:39:15:402,48.091,-0.761,-0.772,-0.405,17.434,-10.540,38.897
13:39:15:426,48.116,-0.717,-1.026,-0.311,19.759,-8.459,36.041
13:39:15:453,48.143,-0.651,-1.195,-0.208,20.600,-6.862,34.375
13:39:15:48,48.170,-0.816,-0.923,-0.285,20.587,-3.642,32.548
13:39:15:506,48.196,-0.955,-0.794,-0.267,20.347,-1.706,31.908
13:39:15:531,48.221,-0.858,-0.905,-0.178,20.633,-0.650,31.682
13:39:15:558,48.248,-0.786,-0.906,-0.177,20.494,-0.753,32.690
13:39:15:584,48.274,-0.845,-0.692,-0.247,19.387,-0.819,34.072
13:39:15:64,48.330,-1.776,0.668,-0.296,16.359,-1.848,37.159
13:39:15:641,48.331,-1.067,2.635,-1.180,15.287,-5.604,39.291
13:39:15:663,48.353,-0.874,2.367,-0.175,18.676,-14.963,41.132
13:39:15:69,48.380,0.981,2.158,-0.073,26.375,-23.718,46.375
13:39:15:716,48.406,0.906,1.098,0.303,29.885,-25.948,50.700
13:39:15:742,48.432,0.769,0.360,0.352,32.135,-28.378,58.883
13:39:15:797,48.487,0.787,-0.105,0.433,33.761,-30.128,63.729
13:39:15:798,48.488,0.715,-0.553,0.422,37.305,-33.317,69.871
13:39:15:85,48.539,0.588,-0.918,0.386,41.106,-35.593,73.179
13:39:15:85,48.540,0.585,-0.996,0.374,48.778,-38.856,76.666
13:39:15:904,48.594,0.639,-1.375,0.518,55.485,-41.510,78.303
13:39:15:904,48.594,0.727,-1.431,0.661,58.267,-42.798,78.692
13:39:15:925,48.615,0.791,-1.484,0.717,60.786,-43.360,78.897
13:39:15:952,48.642,0.828,-1.510,0.741,61.129,-42.718,78.726
13:39:15:978,48.668,0.973,-1.533,0.790,58.640,-40.050,77.838
13:39:16:004,48.694,1.321,-1.057,0.506,47.667,-34.400,75.128
13:39:16:061,48.750,1.389,0.583,0.021,32.988,-29.211,71.162
13:39:16:061,48.750,1.086,3.447,-0.241,19.785,-21.685,61.866
13:39:16:083,48.773,0.706,2.564,0.425,24.830,-19.716,54.983
13:39:16:109,48.799,-0.335,1.692,-0.471,24.613,-14.885,50.172
13:39:16:137,48.827,-0.727,0.484,-0.426,18.915,-7.808,47.627
13:39:16:22,48.910,-0.732,0.111,-0.179,15.998,-3.644,46.351
13:39:16:221,48.911,-0.676,-0.341,-0.125,14.334,1.162,45.183
13:39:16:222,48.912,-0.575,-0.689,-0.112,14.921,3.495,44.516
13:39:16:24,48.930,-0.561,-0.786,-0.091,16.049,6.807,43.167
13:39:16:268,48.958,-0.444,-1.029,-0.011,16.713,9.055,42.150
13:39:16:293,48.983,-0.549,-0.912,-0.034,16.708,13.016,40.843
13:39:16:322,49.012,-0.664,-1.006,0.010,16.632,16.793,39.996
13:39:16:348,49.038,-0.698,-1.069,0.049,16.943,18.569,39.818
13:39:16:349,49.039,-0.712,-1.084,0.149,17.011,20.311,40.044
13:39:16:401,49.090,-1.316,-0.033,0.452,16.008,21.214,40.523
13:39:16:402,49.091,-1.361,1.307,-0.103,11.464,19.825,43.197
13:39:16:424,49.114,-0.743,3.347,-0.889,12.754,14.698,45.678
13:39:16:451,49.141,0.144,1.791,0.958,18.600,10.821,46.382
13:39:16:506,49.196,0.233,1.593,0.056,24.347,4.306,50.710
13:39:16:507,49.197,0.575,1.176,-0.071,27.430,3.633,54.070
13:39:16:558,49.248,0.743,0.369,0.031,29.607,1.390,60.883
13:39:16:559,49.249,0.810,-0.249,0.202,33.152,-2.003,66.981
13:39:16:611,49.301,0.652,-0.498,0.172,35.487,-4.263,70.397
13:39:16:612,49.302,0.730,-0.618,0.243,44.070,-8.438,75.788
13:39:16:663,49.353,0.760,-0.939,0.287,51.032,-11.086,78.300
13:39:16:664,49.354,0.661,-1.092,0.304,61.218,-14.360,81.363
13:39:16:687,49.377,0.737,-1.155,0.287,65.981,-15.994,82.877
13:39:16:742,49.432,0.793,-1.169,0.282,71.765,-17.322,84.603
13:39:16:742,49.432,0.976,-1.451,0.280,76.524,-16.344,85.742
13:39:16:823,49.513,1.080,-1.640,0.271,77.525,-14.367,86.018
13:39:16:824,49.514,1.523,-1.155,-0.298,70.451,-8.887,84.847
13:39:16:825,49.515,1.696,1.263,-0.594,48.960,-3.679,81.952
13:39:16:844,49.534,1.462,2.781,-0.372,17.714,4.875,74.947
13:39:16:871,49.561,1.457,2.102,0.075,28.347,11.171,65.200
13:39:16:927,49.617,0.275,1.829,-0.343,26.504,15.355,61.813
13:39:16:928,49.618,-0.508,0.781,-0.046,12.253,23.989,58.228
13:39:16:949,49.639,-0.789,0.706,0.234,3.792,30.075,56.019
13:39:17:035,49.724,-0.667,-0.185,0.297,3.076,36.195,53.636
13:39:17:035,49.725,-0.476,-0.706,0.243,7.099,38.626,51.974
13:39:17:035,49.725,-0.462,-0.920,0.266,10.572,42.784,49.607
13:39:17:054,49.744,-0.470,-1.021,0.268,12.466,47.504,47.353
13:39:17:08,49.770,-0.502,-0.961,0.278,13.349,50.649,46.017
13:39:17:107,49.796,-0.470,-1.018,0.374,14.381,55.218,44.565
13:39:17:133,49.823,-0.462,-1.020,0.437,14.305,58.412,44.139
13:39:17:159,49.849,-0.494,-0.963,0.528,12.799,63.174,44.432
13:39:17:185,49.875,-0.416,-0.260,0.992,10.006,65.444,46.040
13:39:17:212,49.902,-1.133,0.644,0.756,7.071,62.928,50.801
13:39:17:238,49.928,-0.629,0.863,1.617,10.387,62.009,48.793
13:39:17:264,49.954,0.514,2.858,-0.599,9.863,58.496,50.161
13:39:17:29,49.980,-0.096,1.949,0.756,7.491,55.861,53.808
13:39:17:317,50.007,0.421,1.486,-0.488,8.893,52.853,59.392
13:39:17:343,50.033,0.756,0.463,-0.410,10.969,49.585,63.503
13:39:17:37,50.060,0.690,-0.241,-0.270,14.925,45.028,69.746
13:39:17:426,50.116,0.696,-0.435,-0.334,17.977,42.079,73.718
13:39:17:426,50.116,0.730,-0.678,-0.324,27.354,37.927,78.934
13:39:17:448,50.138,0.663,-1.003,-0.254,37.504,35.405,81.763
13:39:17:474,50.164,0.630,-1.094,-0.198,53.749,32.315,84.970
13:39:17:502,50.192,0.736,-1.073,-0.390,63.197,30.428,86.472
13:39:17:528,50.218,0.815,-1.085,-0.467,66.500,29.902,86.667
13:39:17:553,50.243,0.835,-1.289,-0.451,69.804,30.248,86.407
13:39:17:579,50.269,0.941,-1.388,-0.501,69.292,31.405,85.930
13:39:17:606,50.295,0.989,-1.356,-0.909,58.557,35.078,84.069
13:39:17:634,50.324,0.787,-0.243,-1.438,19.158,41.712,78.813
13:39:17:659,50.349,0.741,2.692,-1.398,1.923,46.932,73.372
13:39:17:684,50.374,1.296,1.339,-0.675,13.989,53.911,62.851
13:39:17:71,50.400,0.703,2.057,-0.606,17.329,57.110,57.504
13:39:17:737,50.426,-0.241,1.038,0.041,13.928,63.080,52.353
13:39:17:763,50.453,-0.277,0.523,0.513,8.476,70.867,47.467
13:39:17:79,50.480,-0.326,0.244,0.701,7.425,75.371,44.987
13:39:17:815,50.505,-0.285,-0.325,0.566,9.569,80.040,41.587
13:39:17:842,50.532,-0.238,-0.569,0.613,11.367,82.699,39.494
13:39:17:894,50.584,-0.140,-0.859,0.631,14.576,89.958,35.217
13:39:17:921,50.611,-0.110,-0.802,0.728,15.746,94.725,33.530
13:39:17:947,50.637,-0.134,-0.782,0.798,17.450,98.148,32.539
13:39:17:973,50.663,-0.079,-0.916,0.697,18.768,99.370,32.395
13:39:17:999,50.689,0.015,-0.978,0.718,19.361,101.267,33.345
13:39:18:025,50.715,0.157,-0.200,1.378,18.370,102.834,34.690
13:39:18:053,50.743,0.051,1.235,1.531,14.896,101.902,38.401
13:39:18:078,50.768,0.460,0.845,1.687,18.857,96.710,39.750
13:39:18:104,50.794,-0.745,2.881,-0.688,20.142,93.232,38.818
13:39:18:13,50.820,0.386,1.200,0.701,20.259,90.709,44.262
13:39:18:157,50.847,0.001,1.246,-0.372,18.631,88.932,48.149
13:39:18:185,50.875,0.255,0.557,-0.804,19.375,85.225,53.860
13:39:18:24,50.930,0.349,-0.043,-0.703,20.772,80.675,60.099
13:39:18:24,50.930,0.353,-0.318,-0.631,21.475,77.882,63.880
13:39:18:262,50.952,0.399,-0.470,-0.696,24.486,73.509,69.461
13:39:18:288,50.978,0.426,-0.798,-0.707,28.451,70.778,72.391
13:39:18:343,51.033,0.437,-1.034,-0.592,36.018,67.401,76.163
13:39:18:344,51.034,0.374,-1.088,-0.626,39.202,65.805,78.096
13:39:18:368,51.058,0.368,-0.998,-0.646,41.090,64.606,79.940
13:39:18:454,51.144,0.393,-1.147,-0.836,45.160,64.987,80.717
13:39:18:455,51.145,0.325,-1.223,-0.913,45.792,66.380,80.697
13:39:18:456,51.146,0.313,-1.256,-1.201,40.521,70.205,79.605
13:39:18:456,51.146,0.043,-0.847,-1.488,28.460,74.361,77.760
13:39:18:499,51.189,-0.429,1.658,-1.635,0.514,82.882,72.311
13:39:18:556,51.246,0.457,1.803,-1.040,-1.402,92.355,63.832
13:39:18:557,51.247,0.074,1.541,-1.060,4.515,96.305,58.945
13:39:18:558,51.248,-0.409,1.375,-0.382,2.079,103.869,54.022
13:39:18:606,51.296,-0.015,0.759,0.603,-1.776,109.640,51.052
13:39:18:606,51.296,0.327,0.284,0.880,-4.392,116.443,47.147
13:39:18:683,51.373,0.239,-0.352,0.557,-1.280,121.107,43.973
13:39:18:743,51.433,0.327,-0.566,0.514,1.128,123.792,42.077
13:39:18:743,51.433,0.321,-0.743,0.476,3.677,128.245,39.279
13:39:18:744,51.434,0.380,-0.722,0.519,4.803,131.498,37.517
