Time,Second,AccelerationX,AccelerationY,AccelerationZ,EulerAnglesX,EulerAnglesY,EulerAnglesZ
14:52:34:583,0.000,-0.004,-0.041,0.013,-5.089,2.834,7.508
14:52:34:584,0.001,0.001,-0.008,0.036,-4.854,2.289,7.672
14:52:34:608,0.025,-0.017,0.012,-0.003,-4.655,1.732,7.743
14:52:34:664,0.081,0.033,-0.010,-0.013,-4.505,1.292,7.772
14:52:34:664,0.081,0.057,0.032,0.007,-4.213,0.347,7.735
14:52:34:686,0.103,0.012,-0.008,-0.025,-4.095,-0.184,7.651
14:52:34:714,0.131,0.000,-0.007,-0.042,-4.033,-0.861,7.616
14:52:34:769,0.185,-0.001,0.026,-0.019,-3.980,-1.783,7.683
14:52:34:769,0.185,-0.077,-0.024,-0.019,-3.995,-2.602,7.736
14:52:34:79,0.207,-0.003,0.002,0.048,-4.021,-4.033,7.816
14:52:34:847,0.264,-0.032,-0.001,0.001,-4.020,-4.999,7.834
14:52:34:847,0.264,-0.057,-0.014,-0.009,-4.066,-6.534,7.823
14:52:34:87,0.287,-0.004,-0.022,0.000,-4.165,-7.989,7.851
14:52:34:922,0.338,0.041,-0.009,0.034,-4.186,-8.369,7.893
14:52:34:95,0.367,0.001,0.007,-0.024,-4.136,-7.971,7.959
14:52:34:977,0.394,-0.006,0.015,-0.030,-4.142,-7.471,7.994
14:52:34:977,0.394,-0.010,-0.019,-0.023,-4.139,-6.820,8.105
14:52:35:03,0.447,-0.107,-0.036,-0.060,-4.157,-6.285,8.168
14:52:35:03,0.447,0.049,0.012,0.007,-4.282,-5.841,8.290
14:52:35:052,0.469,0.016,0.013,0.037,-4.311,-5.858,8.348
14:52:35:08,0.497,-0.008,-0.002,0.008,-4.371,-5.774,8.341
14:52:35:106,0.522,0.005,-0.001,0.000,-4.512,-5.587,8.299
14:52:35:132,0.548,0.038,-0.004,0.008,-4.628,-5.498,8.258
14:52:35:187,0.604,0.011,0.002,0.000,-4.811,-5.173,8.176
14:52:35:188,0.605,-0.017,-0.007,0.001,-4.950,-4.778,8.103
14:52:35:213,0.630,-0.021,-0.002,-0.020,-5.013,-4.626,8.036
14:52:35:214,0.631,-0.005,0.002,0.000,-5.083,-4.482,7.921
14:52:35:295,0.712,-0.020,0.000,-0.008,-5.100,-4.404,7.833
14:52:35:296,0.712,-0.008,-0.008,-0.003,-5.108,-4.359,7.693
14:52:35:296,0.713,-0.001,-0.001,-0.004,-5.114,-4.370,7.589
14:52:35:317,0.734,-0.002,0.002,-0.012,-5.137,-4.408,7.460
14:52:35:369,0.786,0.032,0.003,0.003,-5.169,-4.404,7.415
14:52:35:397,0.814,0.017,-0.005,-0.006,-5.208,-4.346,7.456
14:52:35:397,0.814,-0.012,-0.005,-0.012,-5.261,-4.231,7.580
14:52:35:42,0.837,-0.027,-0.006,-0.006,-5.278,-4.098,7.671
14:52:35:477,0.893,-0.016,-0.001,-0.004,-5.295,-4.000,7.729
14:52:35:477,0.894,-0.005,-0.004,0.002,-5.303,-3.896,7.735
14:52:35:558,0.975,-0.002,-0.002,-0.002,-5.306,-3.860,7.716
14:52:35:558,0.975,-0.018,-0.002,-0.007,-5.330,-3.807,7.687
14:52:35:559,0.976,0.008,-0.002,0.000,-5.337,-3.779,7.654
14:52:35:578,0.995,-0.002,-0.007,-0.003,-5.342,-3.701,7.639
14:52:35:664,1.080,-0.005,-0.003,-0.006,-5.353,-3.657,7.633
14:52:35:664,1.081,-0.007,-0.004,-0.006,-5.361,-3.651,7.635
14:52:35:664,1.081,-0.005,-0.002,-0.002,-5.369,-3.596,7.630
14:52:35:741,1.158,-0.008,-0.002,-0.007,-5.374,-3.557,7.632
14:52:35:741,1.158,-0.003,-0.006,-0.005,-5.383,-3.528,7.633
14:52:35:742,1.159,-0.002,-0.002,-0.008,-5.383,-3.528,7.633
14:52:35:822,1.238,0.002,-0.003,0.000,-5.392,-3.520,7.628
14:52:35:822,1.238,-0.007,-0.004,-0.013,-5.395,-3.447,7.631
14:52:35:822,1.238,-0.002,-0.002,-0.006,-5.413,-3.446,7.633
14:52:35:842,1.258,0.010,0.004,-0.002,-5.410,-3.374,7.617
14:52:35:924,1.341,-0.021,-0.017,-0.008,-5.416,-3.266,7.619
14:52:35:925,1.342,-0.009,0.000,0.000,-5.429,-3.221,7.645
14:52:35:926,1.343,-0.008,-0.004,-0.010,-5.440,-3.404,7.686
14:52:35:945,1.362,-0.010,-0.008,-0.016,-5.459,-3.461,7.700
14:52:36:001,1.418,-0.006,0.000,-0.001,-5.459,-3.451,7.677
14:52:36:001,1.418,-0.012,-0.001,-0.009,-5.470,-3.453,7.666
14:52:36:024,1.441,-0.004,-0.001,-0.006,-5.473,-3.455,7.642
14:52:36:08,1.497,-0.008,-0.001,-0.009,-5.477,-3.443,7.617
14:52:36:105,1.522,-0.008,-0.003,-0.006,-5.483,-3.370,7.573
14:52:36:106,1.523,-0.007,-0.003,-0.007,-5.493,-3.381,7.511
14:52:36:187,1.604,-0.005,-0.002,-0.001,-5.486,-3.401,7.459
14:52:36:188,1.605,0.010,0.000,-0.008,-5.498,-3.447,7.386
14:52:36:189,1.605,0.005,-0.001,-0.004,-5.495,-3.470,7.353
14:52:36:208,1.624,-0.007,-0.005,-0.008,-5.501,-3.473,7.323
14:52:36:263,1.680,-0.002,0.000,-0.002,-5.497,-3.518,7.291
14:52:36:264,1.681,-0.002,-0.002,-0.005,-5.491,-3.548,7.266
14:52:36:286,1.703,-0.009,-0.005,-0.004,-5.493,-3.541,7.226
14:52:36:372,1.789,0.006,-0.003,-0.001,-5.493,-3.557,7.186
14:52:36:372,1.789,-0.002,-0.004,-0.010,-5.497,-3.534,7.150
14:52:36:372,1.789,0.005,-0.001,-0.005,-5.505,-3.504,7.129
14:52:36:45,1.867,-0.003,-0.001,-0.003,-5.507,-3.674,7.107
14:52:36:45,1.867,-0.010,-0.006,-0.005,-5.524,-3.648,7.092
14:52:36:451,1.868,-0.006,-0.005,-0.004,-5.539,-3.650,7.068
14:52:36:529,1.946,0.001,-0.001,-0.002,-5.568,-3.666,7.030
14:52:36:529,1.946,0.005,-0.003,-0.016,-5.588,-3.660,7.014
14:52:36:53,1.947,0.002,-0.003,-0.007,-5.618,-3.670,7.010
14:52:36:637,2.054,-0.003,0.001,-0.011,-5.647,-3.582,7.039
14:52:36:637,2.054,0.001,-0.001,-0.006,-5.663,-3.589,7.070
14:52:36:638,2.055,0.001,0.001,-0.007,-5.699,-3.559,7.130
14:52:36:639,2.056,0.020,0.004,0.010,-5.709,-3.492,7.169
14:52:36:712,2.129,-0.010,-0.008,-0.021,-5.718,-3.274,7.234
14:52:36:713,2.130,-0.004,-0.008,-0.005,-5.731,-3.146,7.287
14:52:36:714,2.131,-0.012,-0.002,-0.019,-5.755,-3.008,7.380
14:52:36:732,2.149,-0.016,-0.004,-0.020,-5.788,-2.960,7.504
14:52:36:789,2.205,-0.018,-0.008,-0.018,-5.814,-3.020,7.604
14:52:36:789,2.206,-0.011,-0.004,-0.007,-5.824,-3.135,7.713
14:52:36:812,2.229,-0.009,-0.004,-0.013,-5.823,-3.196,7.732
14:52:36:867,2.284,-0.012,0.001,-0.010,-5.821,-3.278,7.752
14:52:36:893,2.310,-0.010,-0.003,-0.009,-5.808,-3.432,7.766
14:52:36:894,2.311,-0.005,-0.005,-0.005,-5.795,-3.543,7.752
14:52:36:918,2.335,-0.001,0.000,0.002,-5.773,-3.711,7.709
14:52:36:974,2.391,0.005,0.000,0.002,-5.765,-3.810,7.670
14:52:36:974,2.391,-0.001,0.000,-0.011,-5.755,-3.943,7.621
14:52:36:995,2.412,0.003,0.000,-0.012,-5.747,-4.005,7.586
14:52:37:051,2.468,0.000,-0.003,-0.009,-5.753,-4.037,7.550
14:52:37:052,2.469,-0.001,-0.003,-0.002,-5.752,-4.039,7.539
14:52:37:075,2.492,0.011,0.000,0.001,-5.742,-4.020,7.538
14:52:37:159,2.575,-0.008,-0.003,-0.008,-5.722,-3.907,7.524
14:52:37:159,2.576,-0.015,-0.007,-0.005,-5.722,-3.811,7.517
14:52:37:16,2.576,-0.010,-0.004,-0.005,-5.719,-3.748,7.501
14:52:37:179,2.596,0.001,0.003,-0.002,-5.710,-3.725,7.449
14:52:37:205,2.622,-0.017,-0.002,-0.015,-5.717,-3.669,7.422
14:52:37:261,2.678,0.000,-0.002,-0.001,-5.731,-3.596,7.373
14:52:37:261,2.678,0.009,-0.002,-0.007,-5.735,-3.595,7.338
14:52:37:345,2.762,-0.004,-0.004,-0.008,-5.741,-3.552,7.311
14:52:37:346,2.763,-0.004,-0.003,-0.011,-5.740,-3.505,7.311
14:52:37:347,2.764,-0.010,-0.004,-0.007,-5.755,-3.395,7.301
14:52:37:348,2.764,0.005,-0.005,-0.012,-5.759,-3.337,7.298
14:52:37:363,2.780,-0.006,-0.005,-0.010,-5.771,-3.284,7.291
14:52:37:415,2.832,-0.005,-0.002,-0.008,-5.782,-3.221,7.290
14:52:37:502,2.919,-0.012,-0.003,-0.004,-5.785,-3.176,7.288
14:52:37:502,2.919,-0.007,-0.005,-0.012,-5.794,-3.177,7.283
14:52:37:502,2.919,0.000,-0.003,-0.002,-5.794,-3.231,7.261
14:52:37:523,2.940,-0.002,-0.004,-0.010,-5.789,-3.259,7.247
14:52:37:524,2.940,-0.005,-0.005,-0.006,-5.795,-3.294,7.222
14:52:37:574,2.991,0.005,-0.001,-0.003,-5.789,-3.332,7.198
14:52:37:603,3.020,-0.007,-0.002,-0.004,-5.788,-3.370,7.160
14:52:37:603,3.020,-0.012,-0.006,-0.003,-5.792,-3.387,7.129
14:52:37:625,3.042,-0.010,-0.003,-0.002,-5.796,-3.431,7.071
14:52:37:68,3.097,-0.009,-0.005,-0.012,-5.819,-3.550,6.977
14:52:37:681,3.098,-0.009,-0.005,-0.001,-5.828,-3.622,6.900
14:52:37:704,3.121,0.007,-0.002,-0.002,-5.838,-3.768,6.746
14:52:37:761,3.178,0.008,-0.001,-0.002,-5.843,-3.856,6.643
14:52:37:761,3.178,0.000,-0.004,-0.007,-5.846,-3.944,6.485
14:52:37:783,3.200,-0.004,-0.002,-0.005,-5.863,-4.051,6.333
14:52:37:898,3.315,-0.002,-0.001,-0.008,-5.867,-4.121,6.226
14:52:37:898,3.315,-0.007,-0.001,-0.003,-5.858,-4.196,6.052
14:52:37:899,3.315,-0.008,0.000,-0.009,-5.854,-4.245,5.915
14:52:37:9,3.316,-0.005,0.000,-0.011,-5.844,-4.325,5.675
14:52:37:945,3.362,-0.009,0.005,0.000,-5.845,-4.361,5.491
14:52:37:945,3.362,-0.026,-0.016,-0.015,-5.871,-4.338,5.145
14:52:37:967,3.384,0.005,0.000,-0.016,-5.903,-4.379,4.704
14:52:37:994,3.411,0.004,-0.005,-0.011,-5.894,-4.446,4.375
14:52:38:05,3.467,0.009,-0.002,-0.010,-5.883,-4.609,3.927
14:52:38:05,3.467,0.007,-0.005,-0.015,-5.876,-4.701,3.677
14:52:38:13,3.547,0.044,0.005,-0.005,-5.875,-4.858,3.370
14:52:38:13,3.547,0.033,-0.002,-0.007,-5.838,-4.914,3.229
14:52:38:131,3.548,0.006,0.001,-0.008,-5.818,-4.886,3.210
14:52:38:151,3.568,-0.001,-0.004,-0.015,-5.789,-4.830,3.223
14:52:38:205,3.622,-0.003,-0.003,-0.001,-5.773,-4.797,3.241
14:52:38:206,3.623,-0.005,-0.001,-0.011,-5.749,-4.784,3.292
14:52:38:229,3.646,0.010,-0.005,-0.002,-5.736,-4.808,3.333
14:52:38:316,3.733,-0.008,0.001,-0.010,-5.726,-4.805,3.410
14:52:38:316,3.733,0.000,-0.004,-0.005,-5.717,-4.803,3.510
14:52:38:316,3.733,0.001,-0.005,-0.013,-5.709,-4.804,3.592
14:52:38:393,3.809,-0.001,-0.006,-0.011,-5.704,-4.804,3.723
14:52:38:393,3.810,-0.004,-0.002,-0.009,-5.693,-4.784,3.817
14:52:38:394,3.811,0.004,-0.004,-0.003,-5.678,-4.789,3.970
14:52:38:471,3.888,-0.006,-0.004,-0.007,-5.678,-4.822,4.156
14:52:38:471,3.888,-0.017,-0.006,-0.007,-5.682,-4.819,4.271
14:52:38:472,3.889,-0.012,-0.003,-0.006,-5.667,-4.842,4.396
14:52:38:581,3.998,-0.025,0.003,-0.011,-5.660,-4.891,4.441
14:52:38:582,3.998,-0.008,-0.004,-0.010,-5.648,-4.959,4.438
14:52:38:582,3.998,-0.012,0.000,-0.001,-5.628,-5.003,4.415
14:52:38:582,3.998,0.000,-0.008,-0.008,-5.598,-5.077,4.355
14:52:38:598,4.015,0.002,0.000,-0.003,-5.553,-5.102,4.272
14:52:38:654,4.071,0.000,-0.001,-0.002,-5.524,-5.106,4.226
14:52:38:654,4.071,0.012,0.004,0.001,-5.484,-5.102,4.190
14:52:38:736,4.152,0.000,-0.009,-0.005,-5.466,-5.095,4.188
14:52:38:736,4.153,0.007,-0.001,-0.003,-5.446,-5.049,4.219
14:52:38:736,4.153,0.009,-0.004,-0.001,-5.427,-4.985,4.282
14:52:38:756,4.173,-0.007,-0.004,-0.001,-5.432,-4.937,4.340
14:52:38:81,4.227,-0.005,-0.004,-0.004,-5.439,-4.905,4.414
14:52:38:811,4.228,-0.015,-0.006,-0.013,-5.437,-4.903,4.453
14:52:38:833,4.250,-0.010,-0.005,-0.006,-5.444,-4.906,4.478
14:52:38:862,4.279,0.002,0.000,-0.010,-5.444,-4.905,4.456
14:52:38:916,4.333,0.005,0.002,0.000,-5.448,-4.906,4.431
14:52:38:916,4.333,0.001,-0.005,-0.006,-5.448,-4.895,4.420
14:52:38:969,4.386,-0.008,-0.004,-0.005,-5.448,-4.895,4.420
14:52:38:97,4.387,-0.001,0.001,-0.010,-5.447,-4.926,4.422
14:52:38:99,4.407,0.002,-0.001,-0.001,-5.453,-4.933,4.424
14:52:39:043,4.460,-0.003,-0.004,-0.003,-5.452,-4.930,4.497
14:52:39:099,4.515,0.000,-0.002,-0.005,-5.458,-4.919,4.550
14:52:39:099,4.516,-0.011,-0.001,-0.001,-5.460,-4.888,4.603
14:52:39:122,4.538,-0.003,0.001,-0.004,-5.459,-4.883,4.632
14:52:39:177,4.594,-0.003,-0.002,0.002,-5.462,-4.897,4.641
14:52:39:178,4.595,-0.004,0.001,-0.005,-5.462,-4.897,4.641
14:52:39:26,4.677,-0.002,-0.006,-0.004,-5.465,-4.911,4.647
14:52:39:26,4.677,0.002,0.001,-0.004,-5.459,-4.944,4.651
14:52:39:26,4.677,0.002,-0.007,-0.002,-5.461,-4.950,4.644
14:52:39:28,4.697,-0.002,-0.004,-0.008,-5.465,-4.951,4.653
14:52:39:364,4.781,0.005,-0.005,-0.002,-5.480,-4.981,4.674
14:52:39:364,4.781,0.000,0.000,-0.004,-5.491,-4.985,4.708
14:52:39:365,4.782,-0.001,-0.005,-0.006,-5.498,-4.954,4.748
14:52:39:443,4.860,-0.005,-0.005,-0.007,-5.499,-4.942,4.770
14:52:39:444,4.861,-0.006,-0.005,-0.006,-5.505,-4.910,4.788
14:52:39:444,4.861,0.000,-0.007,-0.006,-5.514,-4.888,4.783
14:52:39:465,4.882,0.000,-0.004,-0.004,-5.538,-4.907,4.788
14:52:39:547,4.964,-0.005,0.001,0.000,-5.561,-4.895,4.787
14:52:39:548,4.965,-0.004,-0.001,-0.003,-5.562,-4.872,4.786
14:52:39:549,4.966,0.000,-0.006,-0.008,-5.575,-4.861,4.779
14:52:39:571,4.988,0.001,0.002,-0.007,-5.586,-4.866,4.779
14:52:39:571,4.988,-0.009,-0.001,-0.001,-5.590,-4.840,4.782
14:52:39:623,5.040,0.000,-0.005,-0.012,-5.605,-4.856,4.781
14:52:39:624,5.041,0.004,-0.001,-0.008,-5.632,-4.895,4.785
14:52:39:647,5.063,-0.007,-0.003,-0.008,-5.640,-4.867,4.786
14:52:39:703,5.120,0.000,-0.006,-0.004,-5.655,-4.874,4.784
14:52:39:703,5.120,-0.001,-0.003,-0.012,-5.683,-4.891,4.786
14:52:39:726,5.143,0.001,-0.002,-0.003,-5.703,-4.896,4.782
14:52:39:781,5.198,0.003,-0.002,-0.013,-5.699,-4.896,4.796
14:52:39:782,5.199,-0.001,-0.001,-0.003,-5.702,-4.891,4.833
14:52:39:833,5.250,0.002,-0.003,-0.011,-5.701,-4.877,4.861
14:52:39:834,5.250,-0.010,-0.001,-0.004,-5.707,-4.846,4.901
14:52:39:886,5.303,-0.007,-0.003,-0.011,-5.706,-4.829,4.918
14:52:39:886,5.303,-0.001,-0.003,-0.006,-5.706,-4.830,4.941
14:52:39:909,5.326,0.000,-0.002,-0.006,-5.711,-4.829,4.961
14:52:39:965,5.382,0.001,-0.003,-0.002,-5.710,-4.813,4.978
14:52:39:965,5.382,-0.003,-0.003,-0.009,-5.710,-4.785,5.005
14:52:40:015,5.432,-0.004,-0.002,-0.005,-5.713,-4.779,5.020
14:52:40:076,5.493,-0.003,-0.003,-0.010,-5.716,-4.765,5.035
14:52:40:076,5.493,-0.003,-0.005,-0.004,-5.716,-4.754,5.046
14:52:40:076,5.493,-0.002,-0.001,-0.009,-5.719,-4.737,5.049
14:52:40:093,5.510,-0.005,0.000,-0.003,-5.720,-4.714,5.048
14:52:40:148,5.565,-0.006,0.004,-0.013,-5.720,-4.714,5.048
14:52:40:149,5.566,0.000,-0.008,-0.002,-5.705,-4.720,5.051
14:52:40:259,5.676,-0.008,0.001,-0.002,-5.696,-4.720,5.055
14:52:40:26,5.677,-0.006,0.000,-0.006,-5.692,-4.758,5.064
14:52:40:261,5.678,-0.009,-0.013,-0.009,-5.690,-4.794,5.065
14:52:40:261,5.678,-0.006,-0.002,-0.004,-5.680,-4.887,5.079
14:52:40:278,5.695,0.003,-0.001,0.000,-5.673,-4.983,5.090
14:52:40:332,5.749,-0.005,-0.004,-0.001,-5.670,-5.009,5.087
14:52:40:333,5.750,-0.007,-0.004,-0.008,-5.688,-5.061,5.096
14:52:40:414,5.830,-0.005,-0.001,-0.012,-5.697,-5.110,5.099
14:52:40:414,5.831,-0.006,-0.002,-0.007,-5.703,-5.177,5.098
14:52:40:415,5.832,-0.005,0.004,-0.008,-5.707,-5.227,5.080
14:52:40:434,5.851,0.000,-0.005,-0.007,-5.718,-5.272,5.065
14:52:40:521,5.938,-0.002,-0.001,-0.012,-5.716,-5.326,5.056
14:52:40:521,5.938,0.001,0.000,0.000,-5.710,-5.360,5.060
14:52:40:521,5.938,-0.003,-0.002,-0.013,-5.709,-5.382,5.061
14:52:40:542,5.959,-0.007,-0.001,-0.006,-5.703,-5.415,5.065
14:52:40:594,6.011,0.001,-0.001,-0.012,-5.703,-5.455,5.071
14:52:40:595,6.012,-0.007,-0.003,-0.005,-5.701,-5.450,5.067
14:52:40:708,6.125,-0.006,-0.003,-0.012,-5.702,-5.437,5.066
14:52:40:709,6.125,-0.007,-0.003,-0.007,-5.702,-5.428,5.066
14:52:40:709,6.125,-0.005,-0.001,-0.011,-5.705,-5.411,5.069
14:52:40:709,6.126,-0.006,-0.002,-0.003,-5.709,-5.372,5.038
14:52:40:75,6.167,-0.001,-0.004,-0.013,-5.710,-5.337,5.003
14:52:40:78,6.197,-0.005,-0.003,-0.008,-5.714,-5.325,4.978
14:52:40:78,6.197,-0.008,0.001,-0.007,-5.717,-5.307,4.927
14:52:40:801,6.218,-0.004,-0.006,-0.008,-5.712,-5.305,4.896
14:52:40:858,6.274,-0.004,0.000,-0.012,-5.716,-5.305,4.849
14:52:40:858,6.275,0.001,0.006,0.003,-5.709,-5.287,4.801
14:52:40:883,6.299,-0.010,-0.004,-0.016,-5.710,-5.191,4.748
14:52:40:935,6.352,-0.002,-0.008,-0.011,-5.715,-5.105,4.704
14:52:40:936,6.353,-0.004,-0.006,-0.015,-5.716,-5.073,4.680
14:52:40:96,6.377,-0.007,-0.004,-0.009,-5.724,-5.033,4.636
14:52:41:045,6.461,-0.010,-0.002,-0.010,-5.739,-5.037,4.601
14:52:41:045,6.461,-0.004,-0.002,-0.010,-5.760,-5.035,4.556
14:52:41:045,6.462,0.003,-0.002,-0.004,-5.768,-4.984,4.500
14:52:41:066,6.482,-0.001,-0.004,-0.005,-5.777,-4.912,4.466
14:52:41:092,6.509,-0.011,-0.003,-0.010,-5.782,-4.817,4.421
14:52:41:118,6.535,-0.004,0.006,-0.016,-5.787,-4.742,4.388
14:52:41:143,6.560,0.010,0.001,0.002,-5.793,-4.661,4.316
14:52:41:197,6.613,-0.003,-0.001,-0.024,-5.798,-4.567,4.293
14:52:41:225,6.642,0.001,-0.012,-0.014,-5.806,-4.476,4.286
14:52:41:226,6.643,-0.006,-0.006,-0.018,-5.814,-4.398,4.313
14:52:41:306,6.723,-0.004,-0.007,-0.011,-5.819,-4.351,4.337
14:52:41:307,6.724,-0.003,-0.002,-0.013,-5.815,-4.342,4.383
14:52:41:308,6.725,-0.003,-0.003,-0.010,-5.818,-4.359,4.422
14:52:41:387,6.803,-0.008,-0.003,-0.015,-5.815,-4.359,4.469
14:52:41:387,6.803,-0.011,-0.003,-0.009,-5.815,-4.360,4.491
14:52:41:387,6.804,-0.010,-0.004,-0.017,-5.817,-4.368,4.507
14:52:41:408,6.824,-0.003,-0.003,-0.008,-5.811,-4.423,4.512
14:52:41:461,6.878,-0.007,-0.005,-0.010,-5.804,-4.479,4.517
14:52:41:461,6.878,-0.005,-0.005,-0.007,-5.800,-4.579,4.533
14:52:41:485,6.902,-0.005,0.001,-0.005,-5.793,-4.648,4.539
14:52:41:512,6.929,-0.007,-0.005,-0.009,-5.787,-4.690,4.543
14:52:41:537,6.954,-0.003,-0.004,-0.015,-5.782,-4.764,4.553
14:52:41:562,6.979,0.002,-0.002,-0.005,-5.781,-4.786,4.555
14:52:41:65,7.067,-0.002,-0.004,-0.011,-5.784,-4.780,4.570
14:52:41:651,7.068,-0.007,-0.004,-0.010,-5.784,-4.781,4.592
14:52:41:652,7.069,-0.013,-0.003,-0.017,-5.785,-4.782,4.614
14:52:41:653,7.070,-0.003,-0.004,-0.009,-5.784,-4.804,4.615
14:52:41:755,7.172,-0.005,-0.003,-0.007,-5.779,-4.815,4.618
14:52:41:756,7.173,-0.002,-0.002,-0.010,-5.778,-4.838,4.619
14:52:41:757,7.174,-0.001,0.001,-0.008,-5.778,-4.838,4.619
14:52:41:758,7.175,-0.004,-0.008,-0.010,-5.761,-4.837,4.628
14:52:41:775,7.192,-0.010,0.000,-0.001,-5.730,-4.836,4.633
14:52:41:828,7.245,-0.006,-0.002,-0.003,-5.734,-4.847,4.631
14:52:41:829,7.246,-0.004,-0.005,-0.009,-5.730,-4.890,4.640
14:52:41:91,7.327,-0.008,-0.004,-0.008,-5.727,-4.903,4.636
14:52:41:91,7.327,-0.007,-0.004,-0.007,-5.724,-4.932,4.644
14:52:41:911,7.328,-0.004,-0.003,-0.017,-5.723,-4.963,4.646
14:52:41:932,7.349,-0.001,-0.005,-0.009,-5.721,-4.998,4.648
14:52:42:015,7.432,-0.002,-0.003,-0.014,-5.720,-5.021,4.649
14:52:42:016,7.433,-0.002,-0.003,-0.011,-5.715,-5.032,4.651
14:52:42:016,7.433,-0.005,0.002,-0.012,-5.715,-5.032,4.651
14:52:42:035,7.452,-0.003,-0.005,-0.004,-5.715,-5.032,4.651
14:52:42:091,7.508,-0.004,-0.003,-0.015,-5.718,-5.037,4.678
14:52:42:091,7.508,-0.008,-0.004,-0.001,-5.720,-5.046,4.716
14:52:42:143,7.559,-0.006,-0.004,-0.010,-5.715,-5.067,4.742
14:52:42:17,7.586,-0.008,-0.002,-0.005,-5.711,-5.119,4.773
14:52:42:17,7.587,-0.006,-0.004,-0.011,-5.708,-5.167,4.805
14:52:42:193,7.610,-0.007,-0.004,-0.005,-5.701,-5.215,4.831
14:52:42:278,7.695,-0.008,-0.004,-0.016,-5.700,-5.250,4.833
14:52:42:278,7.695,-0.007,-0.002,-0.006,-5.694,-5.293,4.837
14:52:42:279,7.696,-0.006,-0.006,-0.012,-5.695,-5.319,4.843
14:52:42:429,7.846,-0.002,0.000,-0.006,-5.692,-5.337,4.840
14:52:42:464,7.881,-0.006,-0.002,-0.012,-5.691,-5.362,4.852
14:52:42:465,7.882,-0.010,-0.005,-0.004,-5.693,-5.367,4.856
14:52:42:466,7.883,-0.011,-0.005,-0.010,-5.693,-5.367,4.856
14:52:42:467,7.884,-0.005,-0.003,-0.013,-5.688,-5.388,4.849
14:52:42:483,7.900,-0.012,-0.002,-0.017,-5.694,-5.394,4.829
14:52:42:544,7.961,-0.012,-0.003,-0.008,-5.691,-5.396,4.780
14:52:42:544,7.961,-0.005,-0.003,-0.008,-5.692,-5.403,4.741
14:52:42:544,7.961,-0.008,-0.001,-0.006,-5.692,-5.400,4.674
14:52:42:545,7.962,-0.007,-0.003,-0.008,-5.693,-5.402,4.634
14:52:42:618,8.035,0.014,0.006,-0.004,-5.691,-5.395,4.585
14:52:42:619,8.036,-0.009,-0.006,-0.013,-5.682,-5.271,4.542
14:52:42:62,8.037,-0.015,-0.007,-0.010,-5.689,-5.184,4.535
14:52:42:639,8.056,-0.005,-0.008,-0.009,-5.696,-5.129,4.530
14:52:42:695,8.111,-0.009,-0.004,-0.014,-5.696,-5.080,4.523
14:52:42:696,8.112,0.000,-0.003,-0.007,-5.702,-5.033,4.519
14:52:42:718,8.135,-0.006,0.000,-0.015,-5.703,-5.012,4.540
14:52:42:746,8.163,-0.008,-0.002,-0.012,-5.703,-5.013,4.562
14:52:42:799,8.216,-0.006,-0.005,-0.018,-5.700,-5.012,4.586
14:52:42:8,8.217,-0.008,-0.007,-0.009,-5.700,-5.013,4.609
14:52:42:823,8.240,-0.006,-0.003,-0.015,-5.700,-5.014,4.631
14:52:42:877,8.294,-0.009,-0.006,-0.010,-5.705,-5.015,4.640
14:52:42:905,8.322,-0.007,-0.006,-0.016,-5.700,-5.016,4.653
14:52:42:906,8.323,-0.009,-0.004,-0.006,-5.700,-5.016,4.653
14:52:42:989,8.406,-0.008,-0.002,-0.019,-5.703,-5.020,4.658
14:52:42:989,8.406,-0.006,-0.004,-0.009,-5.699,-5.038,4.654
14:52:42:99,8.407,-0.018,0.001,-0.015,-5.699,-5.038,4.654
14:52:43:007,8.424,0.008,-0.004,-0.007,-5.698,-5.059,4.633
14:52:43:062,8.479,0.001,-0.002,-0.012,-5.698,-5.070,4.645
14:52:43:063,8.479,-0.010,-0.006,-0.015,-5.697,-5.056,4.673
14:52:43:086,8.502,-0.009,-0.003,-0.009,-5.700,-5.050,4.721
14:52:43:141,8.558,-0.007,-0.003,-0.012,-5.700,-5.051,4.743
14:52:43:141,8.558,-0.005,-0.003,-0.014,-5.697,-5.080,4.751
14:52:43:164,8.581,-0.010,0.000,-0.008,-5.694,-5.096,4.759
14:52:43:248,8.665,-0.005,-0.001,-0.007,-5.691,-5.113,4.755
14:52:43:249,8.666,-0.008,-0.006,-0.013,-5.693,-5.118,4.760
14:52:43:25,8.667,-0.001,-0.005,-0.012,-5.693,-5.118,4.760
14:52:43:327,8.744,-0.005,-0.004,-0.008,-5.695,-5.146,4.788
14:52:43:328,8.745,-0.005,-0.006,-0.005,-5.690,-5.170,4.825
14:52:43:329,8.746,-0.008,-0.005,-0.009,-5.685,-5.195,4.883
14:52:43:348,8.765,-0.006,-0.002,-0.010,-5.690,-5.206,4.937
14:52:43:433,8.850,-0.005,-0.006,-0.010,-5.686,-5.206,4.984
14:52:43:433,8.850,-0.021,-0.003,-0.008,-5.691,-5.172,5.042
14:52:43:434,8.851,-0.014,-0.005,0.000,-5.696,-5.111,5.065
14:52:43:453,8.870,-0.019,-0.004,-0.012,-5.711,-5.039,5.073
14:52:43:51,8.927,-0.003,-0.004,-0.014,-5.726,-5.046,5.071
14:52:43:51,8.927,-0.001,-0.002,-0.008,-5.726,-5.046,5.071
14:52:43:59,9.007,-0.009,-0.002,-0.020,-5.729,-5.039,5.097
14:52:43:59,9.007,-0.005,-0.003,-0.012,-5.729,-5.040,5.120
14:52:43:591,9.008,-0.009,-0.003,-0.019,-5.730,-5.042,5.164
14:52:43:611,9.028,-0.011,-0.003,-0.008,-5.728,-5.046,5.193
14:52:43:695,9.112,-0.011,-0.004,-0.019,-5.725,-5.076,5.223
14:52:43:696,9.113,-0.011,-0.001,-0.009,-5.721,-5.105,5.231
14:52:43:696,9.113,-0.008,-0.005,-0.016,-5.720,-5.127,5.232
14:52:43:717,9.134,-0.005,-0.001,-0.009,-5.730,-5.154,5.234
14:52:43:771,9.188,-0.004,-0.005,-0.016,-5.736,-5.183,5.237
14:52:43:772,9.189,-0.010,-0.005,-0.008,-5.736,-5.184,5.260
14:52:43:794,9.211,-0.004,-0.004,-0.012,-5.737,-5.184,5.293
14:52:43:85,9.266,-0.004,-0.003,-0.010,-5.740,-5.168,5.319
14:52:43:85,9.267,-0.010,-0.001,-0.014,-5.743,-5.125,5.361
14:52:43:873,9.290,-0.009,-0.002,-0.010,-5.745,-5.091,5.381
14:52:43:927,9.344,-0.011,-0.006,-0.010,-5.749,-5.053,5.406
14:52:43:955,9.372,-0.008,-0.006,-0.009,-5.753,-5.026,5.409
14:52:43:955,9.372,-0.009,0.000,-0.014,-5.757,-4.998,5.423
14:52:43:978,9.395,-0.013,-0.007,-0.010,-5.755,-4.971,5.417
14:52:44:033,9.450,-0.009,-0.003,-0.010,-5.763,-4.965,5.419
14:52:44:034,9.451,-0.012,-0.002,-0.009,-5.756,-4.949,5.416
14:52:44:057,9.474,-0.009,-0.001,-0.009,-5.756,-4.949,5.416
14:52:44:144,9.561,-0.009,-0.003,-0.010,-5.759,-4.944,5.398
14:52:44:145,9.562,-0.007,-0.003,-0.008,-5.758,-4.966,5.399
14:52:44:145,9.562,-0.007,-0.002,-0.010,-5.757,-4.975,5.400
14:52:44:146,9.563,-0.008,0.000,-0.008,-5.754,-5.001,5.397
14:52:44:22,9.637,-0.006,-0.004,-0.017,-5.750,-5.020,5.382
14:52:44:221,9.638,-0.007,-0.004,-0.009,-5.751,-5.047,5.388
14:52:44:222,9.638,-0.008,-0.004,-0.017,-5.751,-5.047,5.388
14:52:44:299,9.716,-0.009,-0.004,-0.010,-5.748,-5.065,5.384
14:52:44:299,9.716,-0.008,-0.004,-0.017,-5.746,-5.099,5.364
14:52:44:3,9.717,-0.011,-0.003,-0.012,-5.747,-5.125,5.348
14:52:44:32,9.737,-0.008,-0.003,-0.015,-5.737,-5.183,5.326
14:52:44:405,9.821,-0.012,-0.007,-0.016,-5.733,-5.222,5.302
14:52:44:405,9.822,0.012,0.000,-0.009,-5.732,-5.322,5.271
14:52:44:405,9.822,-0.023,-0.004,-0.024,-5.742,-5.397,5.257
14:52:44:424,9.841,-0.020,0.005,-0.023,-5.758,-5.494,5.268
14:52:44:479,9.896,0.004,0.001,0.004,-5.732,-5.751,5.299
14:52:44:48,9.897,-0.013,-0.017,-0.009,-5.729,-5.877,5.332
14:52:44:503,9.920,0.009,-0.012,0.001,-5.644,-6.341,5.525
14:52:44:529,9.946,0.000,-0.005,-0.013,-5.589,-6.524,5.596
14:52:44:556,9.972,-0.009,-0.004,-0.009,-5.585,-6.565,5.615
14:52:44:582,9.998,-0.005,-0.001,-0.012,-5.587,-6.569,5.620
14:52:44:636,10.053,0.001,0.001,-0.009,-5.595,-6.541,5.621
14:52:44:663,10.080,-0.010,-0.001,-0.015,-5.616,-6.438,5.614
14:52:44:664,10.081,-0.009,0.000,-0.007,-5.628,-6.371,5.606
14:52:44:687,10.104,-0.004,-0.002,-0.011,-5.639,-6.266,5.581
14:52:44:713,10.130,-0.007,0.001,-0.009,-5.656,-6.148,5.542
14:52:44:739,10.156,-0.012,0.003,-0.016,-5.675,-6.065,5.514
14:52:44:768,10.184,0.003,-0.005,-0.010,-5.683,-6.036,5.493
14:52:44:821,10.238,-0.013,-0.004,-0.009,-5.695,-6.019,5.492
14:52:44:848,10.265,-0.009,-0.005,-0.012,-5.704,-5.972,5.492
14:52:44:848,10.265,-0.004,0.000,-0.008,-5.717,-5.933,5.490
14:52:44:929,10.346,-0.003,-0.004,-0.007,-5.722,-5.910,5.475
14:52:44:929,10.346,-0.004,-0.002,-0.005,-5.735,-5.834,5.445
14:52:44:93,10.347,-0.003,0.000,-0.014,-5.741,-5.778,5.418
14:52:44:95,10.366,-0.005,-0.006,-0.010,-5.753,-5.708,5.377
14:52:44:976,10.392,0.001,-0.004,-0.014,-5.764,-5.665,5.359
14:52:45:002,10.419,0.001,-0.001,-0.007,-5.774,-5.591,5.335
14:52:45:056,10.473,-0.001,-0.002,-0.012,-5.788,-5.530,5.332
14:52:45:112,10.529,-0.013,-0.004,-0.009,-5.796,-5.492,5.333
14:52:45:113,10.530,-0.007,0.000,-0.016,-5.802,-5.471,5.340
14:52:45:114,10.531,-0.003,-0.002,-0.003,-5.807,-5.469,5.338
14:52:45:133,10.550,-0.006,-0.001,-0.018,-5.813,-5.476,5.341
14:52:45:159,10.576,-0.006,-0.003,-0.003,-5.816,-5.499,5.351
14:52:45:186,10.602,-0.002,-0.003,-0.015,-5.806,-5.592,5.364
14:52:45:241,10.658,0.000,-0.002,-0.005,-5.813,-5.626,5.373
14:52:45:241,10.658,-0.028,0.001,-0.006,-5.827,-5.756,5.430
14:52:45:265,10.682,-0.001,-0.006,0.000,-5.787,-6.120,5.577
14:52:45:378,10.795,-0.005,-0.001,-0.010,-5.767,-6.213,5.595
14:52:45:378,10.795,0.003,-0.003,-0.002,-5.760,-6.269,5.600
14:52:45:379,10.796,0.003,0.000,-0.007,-5.761,-6.247,5.599
14:52:45:38,10.797,0.000,-0.004,-0.003,-5.774,-6.197,5.608
14:52:45:397,10.814,-0.005,-0.002,-0.004,-5.788,-6.057,5.603
14:52:45:451,10.868,-0.005,-0.002,-0.006,-5.795,-5.953,5.591
14:52:45:451,10.868,-0.006,-0.006,-0.002,-5.759,-6.167,5.692
14:52:45:533,10.949,0.003,-0.004,0.000,-5.692,-6.392,5.747
14:52:45:533,10.950,-0.005,-0.001,-0.004,-5.675,-6.429,5.751
14:52:45:534,10.951,-0.003,-0.004,-0.003,-5.658,-6.458,5.755
14:52:45:607,11.024,-0.002,-0.004,-0.008,-5.658,-6.458,5.755
14:52:45:638,11.055,-0.005,-0.001,-0.002,-5.669,-6.415,5.737
14:52:45:638,11.055,-0.005,-0.002,-0.001,-5.673,-6.374,5.718
14:52:45:639,11.056,-0.007,-0.005,-0.001,-5.678,-6.313,5.686
14:52:45:659,11.076,0.003,-0.002,-0.001,-5.688,-6.238,5.640
14:52:45:715,11.132,0.005,-0.002,-0.007,-5.690,-6.184,5.615
14:52:45:715,11.132,-0.005,-0.003,-0.004,-5.709,-6.076,5.603
14:52:45:797,11.214,-0.009,-0.004,-0.010,-5.724,-5.952,5.593
14:52:45:797,11.214,0.000,-0.005,-0.004,-5.727,-5.885,5.589
14:52:45:797,11.214,-0.003,0.002,-0.015,-5.737,-5.775,5.593
14:52:45:818,11.235,-0.013,-0.003,-0.009,-5.752,-5.753,5.629
14:52:45:9,11.317,-0.001,-0.002,-0.008,-5.754,-5.760,5.679
14:52:45:901,11.317,-0.002,-0.002,-0.016,-5.758,-5.744,5.704
14:52:45:902,11.318,0.006,-0.008,-0.002,-5.751,-5.905,5.823
14:52:45:92,11.337,-0.005,-0.003,0.000,-5.727,-6.000,5.899
14:52:45:976,11.393,-0.008,-0.006,-0.013,-5.732,-5.988,5.907
14:52:45:976,11.393,0.004,-0.003,-0.002,-5.734,-5.943,5.905
14:52:46:001,11.418,-0.021,0.006,-0.021,-5.742,-5.888,5.900
14:52:46:055,11.472,-0.007,-0.005,-0.002,-5.730,-5.905,5.934
14:52:46:056,11.473,0.000,-0.001,-0.006,-5.700,-5.972,5.973
14:52:46:078,11.495,-0.006,-0.003,0.001,-5.700,-5.982,5.996
14:52:46:164,11.581,-0.010,-0.005,-0.009,-5.705,-5.983,6.027
14:52:46:164,11.581,-0.008,-0.001,-0.010,-5.707,-5.979,6.031
14:52:46:164,11.581,-0.002,0.000,-0.008,-5.710,-6.002,6.041
14:52:46:242,11.659,-0.003,-0.004,-0.001,-5.709,-6.024,6.042
14:52:46:242,11.659,-0.008,0.002,-0.003,-5.707,-6.017,6.026
14:52:46:243,11.660,-0.003,-0.008,-0.003,-5.707,-6.017,5.993
14:52:46:262,11.679,-0.001,-0.003,-0.007,-5.709,-6.011,5.952
14:52:46:321,11.737,-0.003,-0.004,-0.001,-5.714,-5.958,5.899
14:52:46:321,11.737,-0.003,-0.002,-0.008,-5.720,-5.903,5.861
14:52:46:344,11.761,-0.003,0.000,-0.002,-5.725,-5.852,5.818
14:52:46:344,11.761,-0.003,-0.002,-0.004,-5.729,-5.852,5.805
14:52:46:423,11.840,0.000,-0.002,-0.003,-5.729,-5.852,5.805
14:52:46:423,11.840,-0.003,0.001,-0.010,-5.733,-5.854,5.803
14:52:46:507,11.923,-0.008,0.000,-0.017,-5.734,-5.881,5.809
14:52:46:507,11.924,-0.001,-0.001,-0.004,-5.722,-5.997,5.845
14:52:46:508,11.925,0.000,-0.002,-0.007,-5.717,-6.087,5.872
14:52:46:509,11.926,-0.002,-0.002,-0.003,-5.699,-6.275,5.930
14:52:46:525,11.941,-0.001,-0.005,-0.008,-5.669,-6.432,5.982
14:52:46:58,11.997,-0.002,0.000,-0.005,-5.656,-6.518,6.002
14:52:46:58,11.997,0.001,-0.002,-0.011,-5.609,-6.650,6.017
14:52:46:603,12.020,0.003,-0.004,-0.002,-5.590,-6.713,6.021
14:52:46:63,12.047,0.000,-0.004,-0.011,-5.582,-6.750,6.021
14:52:46:656,12.073,0.001,-0.004,0.000,-5.580,-6.744,6.028
14:52:46:682,12.099,-0.014,-0.001,-0.014,-5.586,-6.751,6.030
14:52:46:708,12.124,0.002,-0.006,0.004,-5.522,-6.860,6.052
14:52:46:763,12.180,-0.001,-0.001,-0.003,-5.497,-6.916,6.055
14:52:46:764,12.181,-0.003,-0.001,-0.001,-5.491,-6.985,6.065
14:52:46:875,12.292,-0.003,-0.002,-0.004,-5.461,-7.061,6.070
14:52:46:875,12.292,-0.005,-0.005,-0.001,-5.436,-7.145,6.078
14:52:46:876,12.292,0.005,0.000,-0.003,-5.455,-7.201,6.070
14:52:46:876,12.293,-0.012,-0.005,-0.001,-5.480,-7.244,6.070
14:52:46:892,12.308,-0.007,0.000,-0.008,-5.502,-7.460,6.104
14:52:46:92,12.337,-0.006,-0.002,0.000,-5.491,-7.544,6.116
14:52:46:946,12.363,0.004,-0.001,-0.001,-5.487,-7.611,6.119
14:52:47:028,12.445,-0.007,-0.004,-0.004,-5.479,-7.638,6.151
14:52:47:029,12.446,-0.012,-0.004,-0.003,-5.443,-7.685,6.153
14:52:47:03,12.447,-0.001,-0.001,0.000,-5.391,-7.778,6.163
14:52:47:137,12.554,-0.007,-0.001,-0.008,-5.367,-7.821,6.165
14:52:47:137,12.554,-0.005,-0.002,-0.001,-5.332,-7.895,6.172
14:52:47:138,12.555,-0.001,0.000,-0.001,-5.329,-7.931,6.174
14:52:47:139,12.556,-0.006,-0.003,-0.003,-5.323,-7.964,6.177
14:52:47:154,12.571,0.002,0.000,-0.002,-5.323,-7.964,6.177
14:52:47:209,12.626,0.002,-0.004,-0.004,-5.329,-7.931,6.174
14:52:47:21,12.627,-0.007,-0.004,-0.001,-5.346,-7.826,6.191
14:52:47:235,12.651,-0.016,0.003,-0.019,-5.377,-7.739,6.197
14:52:47:286,12.703,-0.007,-0.003,0.004,-5.396,-7.678,6.203
14:52:47:315,12.732,-0.005,-0.003,-0.008,-5.397,-7.669,6.202
14:52:47:315,12.732,0.000,-0.001,0.000,-5.397,-7.669,6.202
14:52:47:338,12.755,-0.004,-0.003,-0.007,-5.402,-7.647,6.188
14:52:47:393,12.810,-0.001,-0.003,0.000,-5.407,-7.597,6.168
14:52:47:394,12.811,0.001,-0.002,-0.011,-5.432,-7.477,6.132
14:52:47:476,12.893,0.000,-0.004,-0.003,-5.459,-7.349,6.100
14:52:47:477,12.894,0.001,-0.003,-0.010,-5.513,-7.073,6.034
14:52:47:477,12.894,0.000,-0.003,-0.001,-5.568,-6.758,5.962
14:52:47:497,12.914,-0.001,0.000,-0.012,-5.584,-6.566,5.921
14:52:47:581,12.998,-0.002,-0.001,-0.004,-5.610,-6.322,5.892
14:52:47:581,12.998,-0.006,-0.001,-0.008,-5.612,-6.188,5.876
14:52:47:582,12.998,-0.010,-0.002,-0.003,-5.613,-6.078,5.884
14:52:47:601,13.018,0.000,-0.002,0.002,-5.607,-6.224,5.980
14:52:47:627,13.044,0.000,-0.003,-0.002,-5.605,-6.297,6.010
14:52:47:653,13.070,-0.004,-0.002,-0.005,-5.565,-6.386,6.021
14:52:47:679,13.096,0.005,-0.006,0.002,-5.537,-6.445,6.030
14:52:47:764,13.180,-0.001,-0.003,0.000,-5.513,-6.488,6.032
14:52:47:765,13.181,0.000,-0.001,0.000,-5.493,-6.532,6.043
14:52:47:765,13.182,-0.007,-0.004,-0.005,-5.482,-6.536,6.043
14:52:47:842,13.259,0.000,0.000,0.001,-5.484,-6.531,6.047
14:52:47:843,13.260,0.002,-0.001,-0.007,-5.484,-6.523,6.047
14:52:47:844,13.261,-0.004,-0.001,-0.002,-5.496,-6.465,6.040
14:52:47:863,13.280,0.000,-0.004,-0.001,-5.501,-6.414,6.031
14:52:47:919,13.335,0.002,-0.004,0.001,-5.511,-6.315,5.991
14:52:47:919,13.336,-0.005,-0.001,-0.001,-5.527,-6.172,5.957
14:52:48:,13.417,-0.007,-0.005,-0.002,-5.538,-6.077,5.933
14:52:48:001,13.418,0.000,0.000,-0.001,-5.549,-5.994,5.909
14:52:48:002,13.419,-0.003,-0.002,-0.010,-5.551,-5.941,5.906
14:52:48:02,13.437,-0.010,-0.002,-0.005,-5.565,-5.861,5.898
14:52:48:075,13.492,-0.006,-0.001,-0.006,-5.570,-5.840,5.906
14:52:48:102,13.519,-0.002,-0.001,-0.006,-5.575,-5.839,5.892
14:52:48:103,13.520,-0.004,-0.004,-0.012,-5.570,-5.837,5.861
14:52:48:155,13.571,-0.004,-0.004,-0.005,-5.574,-5.848,5.838
14:52:48:155,13.572,0.002,-0.002,-0.007,-5.567,-5.881,5.808
14:52:48:178,13.595,-0.002,-0.004,-0.003,-5.569,-5.888,5.802
14:52:48:204,13.621,0.001,-0.003,-0.009,-5.571,-5.881,5.795
14:52:48:319,13.736,-0.002,0.000,-0.002,-5.572,-5.859,5.794
14:52:48:319,13.736,-0.001,-0.001,-0.006,-5.578,-5.839,5.790
14:52:48:319,13.736,-0.005,0.000,-0.001,-5.582,-5.808,5.794
14:52:48:32,13.737,-0.003,-0.003,-0.006,-5.587,-5.788,5.790
14:52:48:335,13.752,-0.002,-0.004,-0.002,-5.593,-5.764,5.787
14:52:48:362,13.779,-0.006,-0.003,-0.011,-5.606,-5.765,5.791
14:52:48:418,13.835,-0.001,-0.003,-0.001,-5.606,-5.765,5.791
14:52:48:418,13.835,0.000,-0.002,-0.003,-5.628,-5.766,5.792
14:52:48:441,13.858,-0.005,-0.002,-0.004,-5.640,-5.762,5.791
14:52:48:581,13.998,-0.004,-0.006,-0.008,-5.669,-5.766,5.794
14:52:48:582,13.999,0.002,-0.003,-0.004,-5.682,-5.767,5.798
14:52:48:583,13.999,0.000,-0.005,-0.009,-5.704,-5.768,5.799
14:52:48:584,14.000,-0.005,-0.004,-0.004,-5.726,-5.769,5.799
14:52:48:601,14.018,-0.002,-0.004,-0.003,-5.748,-5.770,5.799
14:52:48:602,14.019,-0.001,0.000,-0.006,-5.771,-5.771,5.799
14:52:48:626,14.043,0.000,-0.005,-0.003,-5.789,-5.770,5.801
14:52:48:653,14.070,0.000,-0.001,-0.002,-5.817,-5.778,5.804
14:52:48:654,14.071,-0.004,-0.002,-0.007,-5.838,-5.762,5.798
14:52:48:707,14.124,0.001,-0.003,-0.006,-5.838,-5.762,5.798
14:52:48:707,14.124,-0.001,-0.004,-0.002,-5.839,-5.748,5.798
14:52:48:729,14.146,0.001,-0.004,-0.012,-5.844,-5.737,5.795
14:52:48:812,14.229,-0.002,-0.002,-0.009,-5.850,-5.744,5.798
14:52:48:842,14.259,-0.001,-0.002,-0.014,-5.848,-5.789,5.800
14:52:48:842,14.259,-0.002,-0.002,-0.004,-5.843,-5.809,5.803
14:52:48:842,14.259,-0.006,-0.005,-0.008,-5.839,-5.977,5.854
14:52:48:862,14.279,-0.001,-0.001,-0.002,-5.836,-6.085,5.886
14:52:48:888,14.305,-0.021,0.010,-0.030,-5.826,-6.186,5.915
14:52:48:914,14.330,-0.023,0.000,-0.009,-5.807,-6.409,6.009
14:52:48:969,14.386,-0.001,0.000,-0.008,-5.755,-6.777,6.105
14:52:48:969,14.386,0.004,-0.006,-0.001,-5.734,-6.961,6.124
14:52:48:992,14.409,0.009,-0.004,-0.007,-5.728,-7.023,6.123
14:52:49:077,14.494,-0.005,-0.004,-0.008,-5.729,-7.088,6.146
14:52:49:077,14.494,-0.006,0.000,-0.011,-5.722,-7.172,6.179
14:52:49:078,14.495,0.004,0.000,-0.003,-5.718,-7.250,6.194
14:52:49:158,14.574,0.000,0.000,-0.004,-5.726,-7.194,6.189
14:52:49:158,14.575,0.001,0.001,-0.006,-5.761,-7.107,6.181
14:52:49:178,14.594,0.007,-0.003,-0.005,-5.796,-7.002,6.167
14:52:49:233,14.650,-0.013,-0.002,-0.011,-5.856,-6.794,6.155
14:52:49:234,14.651,-0.009,0.000,-0.004,-5.874,-6.718,6.167
14:52:49:255,14.672,0.003,-0.003,-0.003,-5.883,-6.628,6.183
14:52:49:281,14.698,-0.006,-0.003,-0.009,-5.912,-6.510,6.177
14:52:49:309,14.726,-0.005,-0.004,-0.011,-5.922,-6.437,6.175
14:52:49:334,14.751,-0.012,-0.001,-0.008,-5.934,-6.434,6.197
14:52:49:359,14.776,0.001,-0.001,-0.008,-5.926,-6.499,6.203
14:52:49:415,14.832,0.000,0.001,-0.007,-5.927,-6.525,6.209
14:52:49:416,14.832,-0.001,0.000,-0.006,-5.937,-6.504,6.203
14:52:49:438,14.855,-0.003,-0.004,-0.006,-5.938,-6.481,6.202
14:52:49:522,14.939,-0.009,-0.003,-0.007,-5.934,-6.561,6.239
14:52:49:523,14.940,0.001,-0.002,-0.011,-5.911,-6.660,6.264
14:52:49:524,14.941,0.000,-0.003,-0.006,-5.904,-6.743,6.275
14:52:49:543,14.960,-0.008,0.002,-0.017,-5.908,-6.754,6.274
14:52:49:569,14.986,0.000,-0.003,-0.005,-5.880,-6.826,6.284
14:52:49:596,15.012,-0.008,0.001,-0.015,-5.856,-6.886,6.269
14:52:49:624,15.041,-0.009,-0.003,-0.003,-5.826,-6.942,6.262
14:52:49:677,15.094,-0.003,-0.002,-0.006,-5.813,-7.028,6.226
14:52:49:678,15.095,-0.002,-0.001,-0.004,-5.808,-7.075,6.202
14:52:49:7,15.117,0.005,0.001,-0.012,-5.804,-7.151,6.173
14:52:49:786,15.203,-0.008,-0.004,-0.004,-5.809,-7.188,6.155
14:52:49:787,15.203,-0.008,0.002,-0.017,-5.810,-7.244,6.156
14:52:49:787,15.203,0.006,-0.002,-0.003,-5.803,-7.380,6.173
14:52:49:866,15.283,-0.003,-0.003,-0.005,-5.790,-7.397,6.174
14:52:49:866,15.283,-0.005,-0.001,-0.004,-5.787,-7.372,6.175
14:52:49:867,15.284,-0.005,0.000,-0.011,-5.791,-7.343,6.167
14:52:49:884,15.301,0.002,-0.003,-0.001,-5.808,-7.279,6.157
14:52:49:94,15.356,0.004,-0.004,-0.004,-5.820,-7.136,6.114
14:52:49:941,15.357,0.000,-0.006,-0.005,-5.854,-6.992,6.083
14:52:49:964,15.381,-0.005,-0.001,-0.009,-5.883,-6.743,6.035
14:52:49:99,15.407,-0.006,-0.004,-0.008,-5.900,-6.589,6.012
14:52:50:044,15.461,-0.004,-0.003,-0.010,-5.910,-6.400,5.991
14:52:50:045,15.462,-0.009,-0.002,-0.004,-5.909,-6.244,5.965
14:52:50:126,15.543,0.000,-0.001,-0.007,-5.919,-6.170,5.942
14:52:50:127,15.544,0.000,0.000,-0.009,-5.928,-6.081,5.924
14:52:50:128,15.544,-0.006,-0.002,-0.004,-5.931,-6.027,5.921
14:52:50:147,15.564,-0.004,-0.002,-0.004,-5.938,-5.981,5.917
14:52:50:231,15.648,-0.001,-0.005,-0.002,-5.941,-5.956,5.909
14:52:50:232,15.649,-0.001,-0.001,-0.007,-5.942,-5.943,5.908
14:52:50:233,15.650,-0.005,-0.002,-0.004,-5.942,-5.931,5.896
14:52:50:252,15.669,0.000,-0.004,-0.002,-5.942,-5.930,5.874
14:52:50:307,15.724,-0.002,-0.005,-0.006,-5.944,-5.927,5.845
14:52:50:308,15.725,0.003,0.001,-0.011,-5.944,-5.926,5.823
14:52:50:39,15.807,0.000,-0.002,-0.003,-5.941,-5.928,5.797
14:52:50:391,15.808,-0.002,-0.001,-0.010,-5.941,-5.928,5.797
14:52:50:391,15.808,-0.004,-0.001,-0.004,-5.941,-5.928,5.797
14:52:50:41,15.826,-0.002,-0.001,-0.005,-5.941,-5.928,5.797
14:52:50:524,15.941,-0.002,-0.003,-0.004,-5.948,-5.924,5.787
14:52:50:524,15.941,0.000,-0.003,-0.013,-5.943,-5.925,5.767
14:52:50:525,15.942,-0.003,-0.006,-0.002,-5.943,-5.933,5.746
14:52:50:525,15.942,-0.001,-0.003,-0.011,-5.943,-5.931,5.724
14:52:50:54,15.957,0.004,-0.007,-0.001,-5.941,-5.954,5.691
14:52:50:567,15.984,0.000,-0.003,-0.007,-5.941,-5.954,5.691
14:52:50:594,16.011,-0.003,0.000,-0.002,-5.941,-5.954,5.691
14:52:50:647,16.064,0.009,-0.003,-0.008,-5.937,-5.983,5.699
14:52:50:676,16.092,0.002,0.000,-0.003,-5.934,-5.999,5.707
14:52:50:676,16.092,-0.011,-0.002,-0.011,-5.938,-6.010,5.705
14:52:50:699,16.116,0.000,-0.005,-0.004,-5.948,-6.068,5.690
14:52:50:754,16.171,0.008,-0.001,-0.011,-5.943,-6.137,5.668
14:52:50:755,16.172,0.005,-0.002,-0.001,-5.943,-6.137,5.668
14:52:50:777,16.194,0.002,-0.001,-0.007,-5.946,-6.109,5.682
14:52:50:835,16.252,-0.001,-0.003,-0.006,-5.944,-6.077,5.704
14:52:50:836,16.253,-0.006,-0.001,-0.012,-5.936,-6.066,5.719
14:52:50:837,16.253,0.001,-0.003,-0.001,-5.912,-6.088,5.742
14:52:50:915,16.332,-0.002,0.001,-0.008,-5.895,-6.086,5.762
14:52:50:915,16.332,0.001,-0.004,-0.004,-5.893,-6.131,5.820
14:52:50:915,16.332,0.000,-0.005,-0.002,-5.892,-6.169,5.866
14:52:51:022,16.438,-0.007,-0.004,-0.005,-5.892,-6.171,5.910
14:52:51:023,16.439,-0.001,-0.007,-0.001,-5.888,-6.199,5.930
14:52:51:023,16.440,0.000,-0.004,0.000,-5.888,-6.208,5.930
14:52:51:024,16.441,-0.001,-0.006,-0.004,-5.888,-6.208,5.930
14:52:51:067,16.484,-0.002,-0.004,-0.011,-5.888,-6.199,5.930
14:52:51:095,16.512,-0.002,-0.006,-0.001,-5.893,-6.137,5.898
14:52:51:095,16.512,0.005,0.001,-0.011,-5.897,-6.098,5.867
14:52:51:12,16.537,0.001,-0.004,-0.008,-5.908,-6.074,5.850
14:52:51:173,16.590,0.001,-0.001,-0.010,-5.915,-6.017,5.823
14:52:51:174,16.591,-0.002,-0.003,-0.005,-5.919,-5.979,5.814
14:52:51:197,16.614,0.000,-0.002,-0.010,-5.917,-5.963,5.798
14:52:51:223,16.640,0.001,-0.001,-0.010,-5.920,-5.947,5.790
14:52:51:278,16.695,-0.001,-0.006,-0.011,-5.920,-5.895,5.772
14:52:51:279,16.696,0.001,-0.002,-0.003,-5.928,-5.876,5.741
14:52:51:302,16.719,0.007,-0.003,-0.015,-5.925,-5.873,5.725
14:52:51:359,16.776,0.000,-0.002,-0.006,-5.925,-5.873,5.725
14:52:51:36,16.776,0.002,-0.001,-0.010,-5.925,-5.873,5.725
14:52:51:382,16.798,0.003,-0.004,-0.002,-5.924,-5.904,5.726
14:52:51:437,16.854,0.000,-0.004,-0.009,-5.924,-5.904,5.726
14:52:51:437,16.854,-0.005,-0.007,-0.003,-5.924,-5.904,5.726
14:52:51:46,16.877,0.005,-0.004,-0.008,-5.922,-5.928,5.716
14:52:51:486,16.903,-0.001,-0.004,-0.010,-5.920,-5.920,5.701
14:52:51:541,16.958,0.001,-0.004,-0.010,-5.920,-5.920,5.701
14:52:51:542,16.958,0.001,-0.003,-0.007,-5.918,-5.926,5.685
14:52:51:566,16.983,0.006,-0.002,-0.008,-5.919,-5.943,5.668
14:52:51:648,17.065,0.001,-0.002,-0.010,-5.919,-5.943,5.668
14:52:51:648,17.065,0.000,-0.005,-0.005,-5.921,-5.936,5.662
14:52:51:726,17.143,0.001,-0.003,-0.009,-5.921,-5.936,5.662
14:52:51:726,17.143,-0.002,-0.003,-0.012,-5.919,-5.943,5.668
14:52:51:751,17.168,-0.004,-0.003,-0.008,-5.927,-5.952,5.665
14:52:51:752,17.168,0.002,-0.005,-0.006,-5.939,-5.977,5.659
14:52:51:775,17.191,0.007,-0.001,-0.007,-5.970,-6.026,5.640
14:52:51:801,17.218,0.001,-0.003,-0.017,-5.984,-6.024,5.633
14:52:51:827,17.244,0.003,-0.002,-0.006,-5.996,-5.998,5.632
14:52:51:853,17.270,0.003,-0.002,-0.018,-6.008,-5.981,5.631
14:52:51:908,17.325,0.002,-0.004,-0.013,-6.014,-5.939,5.626
14:52:51:909,17.326,0.001,0.000,-0.010,-6.019,-5.899,5.629
14:52:51:932,17.349,0.004,-0.002,-0.004,-6.020,-5.877,5.628
14:52:51:988,17.404,-0.001,-0.001,-0.013,-6.020,-5.867,5.638
14:52:51:988,17.405,-0.001,-0.002,-0.008,-6.021,-5.856,5.649
14:52:52:066,17.483,-0.013,0.003,-0.022,-6.026,-5.897,5.664
14:52:52:067,17.484,0.006,-0.005,-0.003,-6.013,-6.124,5.727
14:52:52:091,17.508,0.001,-0.003,-0.015,-6.011,-6.218,5.759
14:52:52:144,17.561,-0.002,-0.004,-0.009,-6.021,-6.286,5.767
14:52:52:174,17.591,0.003,0.000,-0.013,-6.035,-6.324,5.767
14:52:52:175,17.591,0.000,0.002,-0.017,-6.053,-6.354,5.775
14:52:52:176,17.592,0.017,-0.024,0.005,-6.060,-6.489,5.842
14:52:52:194,17.611,0.005,-0.005,-0.001,-5.932,-7.036,6.036
14:52:52:25,17.667,0.002,0.001,-0.012,-5.877,-7.245,6.057
14:52:52:251,17.668,0.001,-0.005,-0.005,-5.873,-7.310,6.038
14:52:52:273,17.690,0.005,-0.002,-0.006,-5.875,-7.317,5.998
14:52:52:299,17.716,0.007,0.000,-0.004,-5.884,-7.287,5.977
14:52:52:326,17.743,0.004,-0.001,-0.012,-5.925,-7.216,5.972
14:52:52:352,17.769,-0.002,0.000,-0.009,-5.965,-7.091,5.955
14:52:52:437,17.854,0.001,-0.004,-0.012,-5.982,-7.014,5.944
14:52:52:438,17.855,-0.004,-0.004,-0.012,-5.999,-6.908,5.939
14:52:52:438,17.855,-0.004,0.000,-0.009,-6.011,-6.842,5.931
14:52:52:457,17.874,0.004,-0.001,-0.009,-6.020,-6.804,5.932
14:52:52:512,17.929,-0.002,-0.003,-0.009,-6.031,-6.760,5.925
14:52:52:513,17.930,-0.002,-0.002,-0.005,-6.033,-6.756,5.929
14:52:52:536,17.952,0.004,-0.001,-0.011,-6.048,-6.732,5.922
14:52:52:589,18.006,0.001,0.000,-0.010,-6.054,-6.699,5.918
14:52:52:615,18.032,-0.003,-0.003,-0.007,-6.074,-6.626,5.912
14:52:52:7,18.117,0.002,0.001,-0.015,-6.074,-6.577,5.905
14:52:52:701,18.118,-0.005,0.001,-0.015,-6.092,-6.527,5.900
14:52:52:701,18.118,-0.001,0.000,-0.019,-6.093,-6.594,5.913
14:52:52:722,18.139,0.003,-0.005,-0.004,-6.070,-6.706,5.949
14:52:52:723,18.140,0.002,-0.003,-0.011,-6.041,-6.799,5.972
14:52:52:776,18.193,-0.003,-0.003,-0.008,-6.042,-6.826,5.978
14:52:52:776,18.193,0.005,-0.002,-0.011,-6.039,-6.861,5.979
14:52:52:798,18.215,0.000,-0.004,-0.002,-6.044,-6.850,5.976
14:52:52:824,18.241,-0.015,0.003,-0.020,-6.047,-6.855,5.981
14:52:52:881,18.297,0.005,-0.003,-0.007,-6.037,-6.955,5.989
14:52:52:881,18.298,0.001,-0.001,-0.008,-6.033,-6.984,5.997
14:52:52:964,18.381,-0.002,-0.004,-0.003,-6.038,-6.982,5.995
14:52:52:965,18.382,0.001,-0.001,-0.007,-6.041,-6.966,5.987
14:52:52:966,18.383,0.005,-0.002,-0.003,-6.046,-6.943,5.973
14:52:52:966,18.383,-0.001,-0.003,-0.009,-6.056,-6.844,5.932
14:52:53:011,18.428,-0.003,0.000,-0.007,-6.068,-6.779,5.913
14:52:53:011,18.428,0.001,0.000,-0.007,-6.079,-6.703,5.878
14:52:53:035,18.451,0.000,-0.004,-0.002,-6.088,-6.642,5.855
14:52:53:061,18.477,-0.001,0.000,-0.005,-6.081,-6.549,5.817
14:52:53:115,18.532,0.000,-0.003,-0.005,-6.091,-6.476,5.782
14:52:53:142,18.559,-0.001,-0.003,-0.006,-6.087,-6.424,5.755
14:52:53:143,18.560,-0.005,-0.001,-0.001,-6.076,-6.339,5.708
14:52:53:197,18.613,0.000,-0.003,-0.001,-6.080,-6.300,5.677
14:52:53:197,18.613,0.005,-0.006,-0.001,-6.079,-6.261,5.626
14:52:53:219,18.635,0.002,-0.001,-0.003,-6.087,-6.232,5.605
14:52:53:272,18.689,-0.001,-0.003,-0.003,-6.076,-6.187,5.598
14:52:53:3,18.717,0.002,-0.004,-0.001,-6.075,-6.158,5.570
14:52:53:3,18.717,-0.001,-0.002,-0.004,-6.073,-6.142,5.553
14:52:53:382,18.798,-0.002,-0.004,-0.006,-6.078,-6.130,5.528
14:52:53:383,18.799,0.003,0.000,-0.007,-6.078,-6.129,5.506
14:52:53:383,18.800,0.003,-0.004,-0.001,-6.075,-6.133,5.469
14:52:53:402,18.819,0.002,-0.001,-0.009,-6.073,-6.127,5.442
14:52:53:428,18.845,0.001,-0.002,-0.002,-6.075,-6.122,5.424
14:52:53:455,18.872,0.004,-0.002,-0.010,-6.072,-6.125,5.397
14:52:53:481,18.898,0.000,-0.002,0.000,-6.059,-6.115,5.392
14:52:53:508,18.925,0.000,-0.005,-0.010,-6.041,-6.085,5.384
14:52:53:564,18.981,0.000,-0.003,-0.001,-6.026,-6.069,5.385
14:52:53:564,18.981,0.000,-0.002,-0.007,-6.006,-6.051,5.355
14:52:53:586,19.002,-0.001,-0.005,-0.001,-5.979,-6.051,5.335
14:52:53:612,19.029,0.000,-0.001,-0.007,-5.964,-6.033,5.314
14:52:53:667,19.084,0.004,-0.005,-0.002,-5.934,-6.019,5.285
14:52:53:668,19.085,0.000,-0.002,-0.001,-5.921,-6.010,5.279
14:52:53:691,19.108,0.001,-0.001,0.002,-5.888,-6.004,5.279
14:52:53:717,19.134,-0.001,-0.002,-0.007,-5.865,-6.003,5.279
14:52:53:743,19.160,0.002,-0.003,0.000,-5.852,-6.002,5.274
14:52:53:771,19.188,0.004,-0.003,-0.004,-5.821,-6.001,5.279
14:52:53:798,19.214,0.001,-0.002,-0.003,-5.806,-5.996,5.292
14:52:53:823,19.240,0.002,-0.003,-0.003,-5.786,-5.992,5.318
14:52:53:876,19.293,0.000,-0.002,-0.001,-5.773,-5.991,5.347
14:52:53:902,19.319,0.004,-0.006,0.000,-5.775,-5.997,5.374
14:52:53:93,19.347,0.001,-0.004,0.000,-5.773,-5.994,5.413
14:52:53:93,19.347,-0.001,-0.002,-0.004,-5.774,-5.994,5.447
14:52:54:012,19.429,-0.001,-0.004,-0.002,-5.774,-5.993,5.480
14:52:54:013,19.429,0.000,-0.004,-0.001,-5.775,-5.994,5.502
14:52:54:013,19.430,-0.002,-0.007,-0.002,-5.775,-5.995,5.524
14:52:54:032,19.448,-0.006,-0.001,-0.002,-5.777,-5.991,5.528
14:52:54:146,19.563,-0.002,-0.002,0.000,-5.773,-5.989,5.531
14:52:54:146,19.563,0.002,-0.006,-0.005,-5.775,-5.995,5.524
14:52:54:147,19.564,-0.001,-0.001,-0.007,-5.775,-5.986,5.524
14:52:54:148,19.565,0.003,-0.002,-0.003,-5.785,-5.973,5.519
14:52:54:192,19.609,0.002,-0.004,-0.012,-5.793,-5.985,5.526
14:52:54:193,19.610,0.003,-0.003,-0.001,-5.793,-5.985,5.526
14:52:54:274,19.691,0.000,-0.005,-0.010,-5.793,-5.985,5.526
14:52:54:275,19.692,0.005,-0.001,-0.001,-5.793,-5.983,5.537
14:52:54:275,19.692,-0.004,-0.003,-0.010,-5.797,-5.986,5.535
14:52:54:296,19.713,-0.001,-0.004,-0.004,-5.808,-5.991,5.535
14:52:54:322,19.739,0.002,0.000,-0.011,-5.821,-6.014,5.541
14:52:54:375,19.791,0.001,-0.005,-0.003,-5.843,-6.015,5.541
14:52:54:403,19.819,0.002,-0.003,-0.013,-5.843,-6.015,5.541
14:52:54:403,19.820,-0.004,-0.004,-0.002,-5.852,-6.015,5.537
14:52:54:428,19.845,0.001,0.000,-0.007,-5.864,-6.026,5.531
14:52:54:453,19.870,0.003,-0.003,-0.001,-5.897,-6.043,5.521
14:52:54:479,19.896,-0.001,-0.001,-0.004,-5.908,-6.048,5.521
14:52:54:504,19.921,-0.001,-0.004,-0.005,-5.939,-6.049,5.517
14:52:54:531,19.948,0.002,-0.001,-0.007,-5.963,-6.055,5.522
14:52:54:646,20.063,-0.001,-0.002,-0.005,-5.985,-6.056,5.522
14:52:54:646,20.063,-0.001,-0.001,-0.006,-6.003,-6.057,5.513
14:52:54:646,20.063,0.004,-0.002,-0.008,-6.021,-6.055,5.515
14:52:54:646,20.063,0.001,-0.002,-0.007,-6.036,-6.063,5.513
14:52:54:662,20.079,-0.007,-0.004,-0.005,-6.040,-6.035,5.494
14:52:54:717,20.134,0.005,-0.001,-0.008,-6.059,-6.038,5.446
14:52:54:718,20.135,0.006,-0.003,-0.003,-6.071,-6.059,5.407
14:52:54:741,20.158,0.002,-0.002,-0.005,-6.069,-6.056,5.391
14:52:54:823,20.240,0.002,-0.003,-0.004,-6.071,-6.059,5.374
14:52:54:823,20.240,0.007,-0.005,-0.001,-6.071,-6.059,5.374
14:52:54:85,20.267,0.000,-0.002,-0.003,-6.080,-6.059,5.369
14:52:54:851,20.267,0.002,-0.003,-0.007,-6.102,-6.060,5.370
14:52:54:901,20.318,0.002,-0.001,-0.007,-6.119,-6.072,5.372
14:52:54:902,20.319,0.003,0.000,-0.002,-6.128,-6.073,5.368
14:52:55:015,20.432,0.002,-0.004,-0.009,-6.146,-6.071,5.370
14:52:55:015,20.432,0.002,-0.006,-0.002,-6.166,-6.077,5.366
14:52:55:015,20.432,0.004,-0.003,-0.014,-6.180,-6.096,5.376
14:52:55:015,20.432,0.006,-0.002,-0.005,-6.192,-6.090,5.387
14:52:55:059,20.475,-0.001,0.002,-0.014,-6.215,-6.081,5.398
14:52:55:084,20.501,0.003,-0.003,-0.008,-6.231,-6.076,5.418
14:52:55:112,20.529,-0.001,-0.008,-0.009,-6.229,-6.059,5.435
14:52:55:113,20.530,0.004,0.000,-0.004,-6.241,-6.042,5.434
14:52:55:134,20.551,0.001,-0.002,-0.016,-6.263,-6.065,5.435
14:52:55:161,20.578,0.000,-0.005,-0.005,-6.257,-6.098,5.439
14:52:55:187,20.604,0.001,-0.002,-0.015,-6.256,-6.109,5.429
14:52:55:243,20.659,0.000,-0.005,-0.007,-6.254,-6.140,5.397
14:52:55:243,20.660,0.006,-0.002,-0.013,-6.250,-6.170,5.372
14:52:55:267,20.684,0.002,-0.006,-0.001,-6.246,-6.217,5.348
14:52:55:319,20.736,0.001,-0.001,-0.009,-6.242,-6.245,5.334
14:52:55:38,20.797,0.002,-0.005,-0.005,-6.241,-6.267,5.335
14:52:55:381,20.797,0.008,-0.004,-0.007,-6.238,-6.283,5.343
14:52:55:381,20.798,0.003,-0.002,-0.007,-6.238,-6.283,5.343
14:52:55:382,20.798,0.001,-0.005,-0.008,-6.238,-6.283,5.343
14:52:55:397,20.814,0.002,-0.005,0.000,-6.238,-6.283,5.343
14:52:55:482,20.899,0.001,-0.003,-0.008,-6.238,-6.283,5.343
14:52:55:483,20.900,0.001,-0.004,-0.005,-6.238,-6.283,5.343
14:52:55:484,20.901,0.002,-0.002,-0.008,-6.238,-6.283,5.343
14:52:55:502,20.919,0.000,-0.003,-0.005,-6.238,-6.283,5.343
14:52:55:528,20.945,-0.001,-0.006,0.000,-6.238,-6.283,5.343
14:52:55:614,21.031,0.000,-0.004,-0.008,-6.238,-6.283,5.343
14:52:55:614,21.031,-0.001,-0.002,-0.007,-6.241,-6.267,5.335
14:52:55:614,21.031,0.000,-0.004,-0.006,-6.241,-6.267,5.335
14:52:55:634,21.051,0.000,-0.001,-0.006,-6.242,-6.245,5.334
14:52:55:66,21.077,0.007,-0.002,-0.011,-6.242,-6.245,5.334
14:52:55:686,21.103,0.000,-0.003,-0.011,-6.243,-6.231,5.333
14:52:55:712,21.129,-0.002,-0.001,-0.010,-6.245,-6.218,5.337
14:52:55:738,21.155,0.001,-0.003,-0.003,-6.245,-6.227,5.337
14:52:55:794,21.211,0.001,-0.002,-0.013,-6.242,-6.245,5.334
14:52:55:794,21.211,-0.002,-0.001,-0.003,-6.231,-6.249,5.334
14:52:55:875,21.292,0.005,0.000,-0.012,-6.230,-6.259,5.324
14:52:55:876,21.293,0.004,-0.003,-0.004,-6.227,-6.277,5.320
14:52:55:877,21.294,-0.002,-0.002,-0.012,-6.227,-6.277,5.320
14:52:55:927,21.344,0.006,-0.005,-0.005,-6.227,-6.277,5.320
14:52:55:927,21.344,0.003,-0.003,-0.009,-6.227,-6.277,5.320
14:52:55:949,21.365,-0.004,-0.003,-0.002,-6.229,-6.272,5.324
14:52:55:975,21.392,-0.005,-0.001,-0.009,-6.229,-6.272,5.324
14:52:56:028,21.445,0.003,-0.006,-0.004,-6.227,-6.277,5.320
14:52:56:056,21.473,0.001,-0.001,-0.005,-6.227,-6.275,5.298
14:52:56:057,21.474,0.001,-0.004,-0.003,-6.227,-6.277,5.287
14:52:56:081,21.498,0.005,-0.001,-0.007,-6.227,-6.277,5.287
14:52:56:106,21.523,-0.001,-0.004,-0.010,-6.227,-6.277,5.287
14:52:56:132,21.549,-0.001,-0.003,-0.006,-6.225,-6.271,5.293
14:52:56:158,21.575,0.007,-0.005,0.000,-6.225,-6.271,5.293
14:52:56:185,21.602,0.003,0.000,-0.009,-6.225,-6.271,5.293
14:52:56:211,21.628,-0.001,-0.005,-0.004,-6.225,-6.271,5.293
14:52:56:237,21.654,-0.002,-0.003,-0.006,-6.218,-6.277,5.291
14:52:56:322,21.739,0.002,-0.003,-0.002,-6.211,-6.283,5.289
14:52:56:322,21.739,0.000,-0.004,-0.002,-6.200,-6.287,5.289
14:52:56:323,21.740,-0.001,-0.003,-0.003,-6.184,-6.293,5.292
14:52:56:343,21.760,0.000,-0.003,-0.002,-6.178,-6.286,5.289
14:52:56:399,21.816,0.002,-0.004,-0.002,-6.178,-6.286,5.289
14:52:56:399,21.816,0.001,-0.002,-0.002,-6.178,-6.286,5.289
14:52:56:421,21.838,0.002,-0.002,-0.006,-6.169,-6.286,5.293
14:52:56:477,21.894,0.003,-0.003,-0.002,-6.174,-6.266,5.290
14:52:56:477,21.894,0.001,-0.002,-0.008,-6.174,-6.266,5.290
14:52:56:499,21.916,0.004,-0.001,-0.002,-6.174,-6.266,5.290
14:52:56:584,22.001,0.005,-0.001,-0.010,-6.174,-6.266,5.290
14:52:56:585,22.001,0.001,-0.004,0.000,-6.175,-6.253,5.289
14:52:56:586,22.002,0.001,-0.003,-0.009,-6.173,-6.234,5.284
14:52:56:605,22.022,0.003,-0.001,0.002,-6.173,-6.234,5.284
14:52:56:632,22.049,0.003,-0.005,-0.009,-6.173,-6.234,5.284
14:52:56:657,22.074,0.002,-0.004,0.001,-6.173,-6.234,5.284
14:52:56:683,22.100,0.012,-0.002,-0.009,-6.173,-6.234,5.284
14:52:56:71,22.127,0.006,-0.005,0.000,-6.178,-6.216,5.303
14:52:56:737,22.154,-0.004,-0.003,-0.006,-6.180,-6.181,5.323
14:52:56:763,22.180,0.000,-0.003,0.000,-6.182,-6.160,5.344
14:52:56:846,22.263,0.004,-0.002,-0.002,-6.179,-6.166,5.362
14:52:56:847,22.264,0.004,-0.004,0.000,-6.187,-6.152,5.386
14:52:56:848,22.265,0.001,-0.003,0.000,-6.188,-6.140,5.408
14:52:56:894,22.310,0.004,-0.004,0.000,-6.188,-6.141,5.430
14:52:56:922,22.339,0.002,-0.003,-0.002,-6.186,-6.136,5.458
14:52:56:923,22.340,0.001,-0.002,0.003,-6.191,-6.138,5.490
14:52:56:946,22.363,-0.001,-0.002,-0.003,-6.186,-6.139,5.525
14:52:57:001,22.418,0.001,-0.004,0.003,-6.188,-6.145,5.552
14:52:57:002,22.419,0.000,-0.006,-0.001,-6.184,-6.146,5.565
14:52:57:025,22.442,-0.003,-0.004,-0.001,-6.182,-6.139,5.572
14:52:57:051,22.468,0.008,-0.006,0.000,-6.182,-6.139,5.572
14:52:57:077,22.494,0.002,0.000,0.000,-6.181,-6.133,5.578
14:52:57:106,22.522,0.000,-0.003,0.002,-6.177,-6.102,5.589
14:52:57:131,22.548,0.002,-0.002,-0.005,-6.178,-6.089,5.589
14:52:57:156,22.573,0.003,-0.004,0.000,-6.184,-6.069,5.585
14:52:57:182,22.599,0.000,-0.003,-0.008,-6.185,-6.047,5.584
14:52:57:209,22.626,-0.001,0.000,0.001,-6.183,-6.029,5.579
14:52:57:264,22.681,0.007,-0.002,-0.003,-6.187,-6.012,5.583
14:52:57:265,22.682,0.000,-0.002,0.001,-6.184,-6.007,5.578
14:52:57:288,22.704,-0.001,-0.004,-0.007,-6.189,-5.996,5.575
14:52:57:314,22.730,0.009,-0.005,0.001,-6.189,-5.996,5.575
14:52:57:34,22.756,0.007,0.000,-0.002,-6.189,-6.007,5.587
14:52:57:366,22.783,-0.005,-0.006,0.001,-6.196,-5.965,5.615
14:52:57:393,22.810,-0.002,-0.002,-0.005,-6.195,-5.936,5.621
14:52:57:418,22.835,0.005,-0.005,0.003,-6.197,-5.892,5.618
14:52:57:444,22.861,-0.005,-0.002,-0.001,-6.203,-5.859,5.614
14:52:57:499,22.915,-0.003,-0.002,0.006,-6.207,-5.821,5.605
14:52:57:559,22.976,0.003,-0.002,0.002,-6.201,-5.841,5.576
14:52:57:56,22.977,0.005,-0.005,-0.003,-6.204,-5.874,5.575
14:52:57:56,22.977,-0.003,-0.007,-0.011,-6.202,-5.919,5.578
14:52:57:561,22.978,-0.001,-0.002,0.008,-6.200,-5.963,5.580
14:52:57:631,23.048,-0.001,-0.001,0.007,-6.194,-6.046,5.591
14:52:57:632,23.049,0.002,-0.007,0.000,-6.182,-6.112,5.599
14:52:57:659,23.076,-0.001,-0.004,-0.004,-6.180,-6.197,5.608
14:52:57:659,23.076,0.000,-0.003,0.004,-6.166,-6.294,5.618
14:52:57:71,23.127,0.003,-0.001,0.000,-6.161,-6.367,5.628
14:52:57:711,23.127,-0.001,-0.004,0.002,-6.149,-6.473,5.654
14:52:57:818,23.235,0.004,0.000,-0.007,-6.144,-6.535,5.675
14:52:57:819,23.236,0.001,0.002,0.001,-6.139,-6.597,5.707
14:52:57:819,23.236,-0.003,-0.002,0.001,-6.137,-6.592,5.735
14:52:57:842,23.259,0.001,-0.003,0.000,-6.140,-6.565,5.738
14:52:57:842,23.259,0.000,0.000,0.000,-6.142,-6.530,5.737
14:52:57:866,23.283,0.003,-0.001,-0.003,-6.150,-6.466,5.731
14:52:57:892,23.309,0.004,-0.001,0.000,-6.161,-6.381,5.718
14:52:57:92,23.337,0.000,-0.005,-0.006,-6.172,-6.277,5.714
14:52:58:002,23.419,-0.001,-0.005,0.006,-6.183,-6.145,5.716
14:52:58:002,23.419,-0.003,-0.003,-0.009,-6.200,-6.000,5.726
14:52:58:003,23.420,-0.005,-0.003,0.000,-6.210,-5.927,5.725
14:52:58:022,23.439,-0.007,-0.001,-0.004,-6.239,-5.833,5.713
14:52:58:078,23.495,-0.005,-0.004,0.003,-6.263,-5.803,5.711
14:52:58:078,23.495,0.009,0.000,-0.003,-6.301,-5.798,5.709
14:52:58:159,23.576,0.000,-0.001,0.002,-6.343,-5.713,5.702
14:52:58:16,23.577,0.000,-0.004,0.000,-6.369,-5.647,5.699
14:52:58:161,23.577,0.005,-0.002,0.003,-6.420,-5.567,5.721
14:52:58:296,23.713,-0.006,-0.004,-0.003,-6.453,-5.525,5.736
14:52:58:296,23.713,-0.005,-0.008,0.001,-6.495,-5.492,5.748
14:52:58:296,23.713,0.003,0.003,0.004,-6.516,-5.475,5.742
14:52:58:296,23.713,-0.008,-0.010,0.002,-6.525,-5.376,5.734
14:52:58:312,23.729,0.002,-0.001,-0.001,-6.561,-5.337,5.732
14:52:58:342,23.758,0.000,-0.002,-0.002,-6.594,-5.343,5.733
14:52:58:342,23.759,0.001,-0.005,-0.008,-6.629,-5.317,5.742
14:52:58:422,23.839,-0.002,0.004,0.000,-6.652,-5.356,5.793
14:52:58:422,23.839,0.000,-0.004,-0.010,-6.692,-5.525,5.918
14:52:58:423,23.840,0.011,0.006,-0.001,-6.707,-5.567,6.018
14:52:58:469,23.886,-0.022,-0.005,-0.004,-6.710,-5.482,6.043
14:52:58:556,23.972,0.004,-0.004,-0.003,-6.715,-5.447,6.078
14:52:58:557,23.973,0.001,-0.001,-0.002,-6.721,-5.436,6.108
14:52:58:558,23.975,-0.005,-0.004,-0.002,-6.726,-5.347,6.137
14:52:58:558,23.975,0.011,-0.005,0.007,-6.734,-5.293,6.153
14:52:58:603,24.020,0.008,0.003,-0.001,-6.720,-5.186,6.174
14:52:58:603,24.020,-0.013,-0.009,-0.004,-6.713,-5.048,6.213
14:52:58:626,24.043,-0.016,-0.010,-0.006,-6.697,-4.966,6.223
14:52:58:682,24.099,-0.012,-0.005,0.001,-6.675,-4.925,6.217
14:52:58:683,24.100,0.010,-0.002,-0.001,-6.676,-4.942,6.200
14:52:58:705,24.122,-0.003,-0.004,-0.001,-6.673,-4.947,6.185
14:52:58:759,24.176,0.010,-0.002,-0.002,-6.678,-4.936,6.182
14:52:58:786,24.203,0.006,0.006,0.011,-6.686,-4.859,6.175
14:52:58:787,24.204,0.012,0.000,-0.008,-6.698,-4.764,6.172
14:52:58:869,24.286,-0.001,-0.012,-0.008,-6.703,-4.673,6.178
14:52:58:869,24.286,-0.001,-0.004,-0.003,-6.718,-4.535,6.194
14:52:58:87,24.287,-0.010,-0.003,-0.001,-6.726,-4.478,6.200
14:52:58:942,24.359,-0.003,-0.004,-0.011,-6.736,-4.419,6.198
14:52:58:974,24.391,-0.005,-0.005,-0.002,-6.740,-4.367,6.188
14:52:58:975,24.392,-0.006,-0.002,-0.008,-6.742,-4.345,6.187
14:52:58:976,24.393,0.002,0.010,-0.002,-6.742,-4.336,6.186
14:52:58:994,24.411,-0.018,-0.004,-0.009,-6.745,-4.279,6.183
14:52:59:05,24.466,0.009,-0.001,0.005,-6.760,-4.286,6.181
14:52:59:05,24.466,0.001,0.000,-0.009,-6.772,-4.289,6.193
14:52:59:072,24.489,0.021,0.007,0.017,-6.776,-4.253,6.206
14:52:59:125,24.542,-0.003,-0.002,-0.005,-6.764,-4.074,6.229
14:52:59:214,24.631,-0.022,-0.007,-0.013,-6.751,-3.930,6.254
14:52:59:214,24.631,-0.005,-0.007,-0.008,-6.723,-3.766,6.280
14:52:59:215,24.631,-0.005,-0.002,-0.006,-6.710,-3.765,6.276
14:52:59:23,24.646,-0.012,-0.005,0.001,-6.693,-3.793,6.280
14:52:59:256,24.673,0.010,0.002,0.004,-6.687,-3.855,6.279
14:52:59:282,24.699,-0.006,-0.004,-0.004,-6.677,-3.943,6.276
14:52:59:311,24.728,-0.004,0.000,-0.001,-6.666,-4.027,6.289
14:52:59:394,24.811,0.000,-0.006,0.002,-6.660,-4.100,6.278
14:52:59:395,24.811,0.000,-0.004,-0.003,-6.647,-4.217,6.283
14:52:59:395,24.811,0.003,-0.003,-0.003,-6.641,-4.279,6.282
14:52:59:443,24.860,0.001,-0.002,0.001,-6.618,-4.340,6.290
14:52:59:443,24.860,-0.004,-0.004,-0.012,-6.603,-4.373,6.299
14:52:59:497,24.914,0.007,0.001,0.008,-6.594,-4.450,6.305
14:52:59:497,24.914,0.001,-0.004,-0.006,-6.566,-4.502,6.304
14:52:59:518,24.935,-0.002,-0.005,-0.002,-6.556,-4.524,6.310
14:52:59:544,24.961,0.000,-0.003,-0.005,-6.539,-4.561,6.314
14:52:59:571,24.987,-0.004,-0.004,-0.003,-6.533,-4.594,6.318
14:52:59:597,25.014,0.005,-0.001,0.004,-6.521,-4.680,6.321
14:52:59:654,25.071,0.003,-0.004,0.003,-6.506,-4.713,6.329
14:52:59:654,25.071,0.005,-0.005,-0.004,-6.506,-4.713,6.329
14:52:59:676,25.093,0.005,-0.001,0.002,-6.506,-4.725,6.341
14:52:59:702,25.119,-0.004,-0.009,-0.001,-6.496,-4.720,6.374
14:52:59:758,25.174,-0.003,0.000,0.005,-6.492,-4.691,6.426
14:52:59:758,25.175,-0.006,-0.004,-0.001,-6.491,-4.686,6.455
14:52:59:842,25.259,-0.011,-0.004,0.001,-6.484,-4.722,6.470
14:52:59:843,25.260,0.000,-0.001,0.005,-6.479,-4.742,6.474
14:52:59:843,25.260,-0.001,-0.005,0.005,-6.470,-4.743,6.467
14:52:59:844,25.261,-0.006,-0.009,-0.003,-6.467,-4.778,6.446
14:52:59:918,25.335,0.003,-0.002,0.003,-6.461,-4.809,6.428
14:52:59:918,25.335,0.007,0.003,-0.004,-6.458,-4.855,6.420
14:52:59:919,25.336,0.012,-0.002,0.005,-6.456,-4.858,6.427
14:52:59:969,25.385,0.000,-0.006,-0.004,-6.443,-4.821,6.449
14:52:59:969,25.385,-0.004,-0.005,0.000,-6.415,-4.774,6.484
14:53:00:02,25.437,-0.008,-0.003,0.002,-6.394,-4.754,6.494
14:53:00:021,25.438,-0.013,-0.001,-0.001,-6.365,-4.757,6.504
14:53:00:045,25.462,0.006,0.001,0.009,-6.342,-4.769,6.504
14:53:00:101,25.518,-0.002,-0.006,0.000,-6.320,-4.766,6.516
14:53:00:101,25.518,-0.008,-0.005,0.003,-6.300,-4.761,6.520
14:53:00:21,25.627,-0.008,-0.004,0.003,-6.302,-4.768,6.513
14:53:00:21,25.627,-0.007,-0.009,0.000,-6.294,-4.823,6.485
14:53:00:211,25.628,-0.006,0.000,-0.003,-6.287,-4.884,6.462
14:53:00:212,25.629,0.000,-0.001,0.001,-6.281,-5.022,6.441
14:53:00:227,25.644,0.005,-0.001,0.000,-6.272,-5.149,6.421
14:53:00:283,25.699,0.001,0.000,0.008,-6.263,-5.217,6.405
14:53:00:283,25.700,0.003,-0.004,-0.003,-6.257,-5.275,6.392
14:53:00:308,25.725,-0.002,-0.004,0.002,-6.256,-5.298,6.394
14:53:00:361,25.778,0.001,-0.003,-0.005,-6.249,-5.344,6.398
14:53:00:362,25.779,-0.003,0.003,0.006,-6.248,-5.366,6.399
14:53:00:445,25.862,0.016,-0.007,0.005,-6.243,-5.337,6.396
14:53:00:445,25.862,0.000,-0.002,0.002,-6.242,-5.272,6.428
14:53:00:445,25.862,0.000,-0.011,-0.006,-6.249,-5.250,6.469
14:53:00:466,25.882,-0.008,-0.004,0.000,-6.250,-5.211,6.518
14:53:00:491,25.908,-0.004,-0.002,0.003,-6.251,-5.203,6.539
14:53:00:545,25.962,-0.002,-0.002,0.010,-6.251,-5.201,6.550
14:53:00:546,25.962,-0.006,-0.005,-0.006,-6.251,-5.201,6.550
14:53:00:57,25.986,-0.005,-0.006,0.010,-6.251,-5.201,6.550
14:53:00:655,26.072,0.001,-0.002,-0.006,-6.251,-5.201,6.550
14:53:00:656,26.073,-0.003,-0.002,0.000,-6.251,-5.201,6.550
14:53:00:656,26.073,-0.024,0.003,-0.008,-6.244,-5.288,6.595
14:53:00:7,26.117,-0.002,-0.008,0.004,-6.220,-5.469,6.651
14:53:00:731,26.147,0.004,-0.001,0.005,-6.206,-5.636,6.685
14:53:00:731,26.148,-0.002,-0.002,0.007,-6.193,-5.704,6.682
14:53:00:811,26.228,-0.002,-0.003,-0.001,-6.188,-5.741,6.668
14:53:00:811,26.228,0.000,-0.001,0.000,-6.187,-5.752,6.624
14:53:00:812,26.229,-0.002,-0.002,0.003,-6.186,-5.761,6.592
14:53:00:831,26.248,-0.005,-0.004,0.001,-6.178,-5.854,6.559
14:53:00:916,26.333,-0.001,-0.001,0.005,-6.167,-5.914,6.527
14:53:00:917,26.334,0.001,-0.006,-0.001,-6.163,-5.942,6.512
14:53:00:918,26.335,0.001,-0.001,0.001,-6.160,-5.948,6.497
14:53:00:936,26.353,-0.001,-0.002,-0.002,-6.160,-5.948,6.497
14:53:00:964,26.380,-0.001,-0.005,0.004,-6.167,-5.915,6.493
14:53:00:989,26.406,-0.022,0.004,-0.011,-6.172,-5.904,6.490
14:53:01:014,26.431,0.002,-0.006,0.004,-6.150,-6.060,6.539
14:53:01:071,26.488,0.004,-0.004,0.000,-6.128,-6.214,6.576
14:53:01:071,26.488,-0.001,-0.005,0.008,-6.128,-6.254,6.582
14:53:01:094,26.511,0.011,-0.002,-0.001,-6.121,-6.269,6.581
14:53:01:208,26.624,-0.010,0.000,0.000,-6.128,-6.254,6.582
14:53:01:208,26.625,-0.007,-0.002,-0.007,-6.117,-6.288,6.599
14:53:01:209,26.625,0.001,-0.002,0.006,-6.093,-6.371,6.641
14:53:01:209,26.626,0.000,-0.002,0.000,-6.090,-6.387,6.649
14:53:01:281,26.698,-0.004,-0.003,0.000,-6.092,-6.383,6.653
14:53:01:282,26.699,0.000,-0.003,0.001,-6.092,-6.383,6.653
14:53:01:309,26.726,-0.003,-0.003,0.009,-6.096,-6.362,6.646
14:53:01:309,26.726,-0.008,-0.004,-0.001,-6.098,-6.360,6.638
14:53:01:33,26.747,0.006,-0.002,0.000,-6.095,-6.366,6.623
14:53:01:356,26.773,0.011,-0.004,0.002,-6.098,-6.329,6.599
14:53:01:41,26.827,-0.001,-0.003,0.005,-6.108,-6.270,6.598
14:53:01:438,26.855,0.004,-0.004,-0.002,-6.113,-6.182,6.616
14:53:01:438,26.855,-0.001,-0.002,0.007,-6.126,-6.104,6.630
14:53:01:461,26.878,-0.003,0.000,0.001,-6.128,-5.978,6.676
14:53:01:517,26.933,-0.008,-0.003,0.001,-6.138,-5.892,6.725
14:53:01:518,26.934,-0.005,-0.005,0.002,-6.140,-5.858,6.745
14:53:01:54,26.956,-0.013,-0.003,0.004,-6.144,-5.803,6.753
14:53:01:619,27.036,-0.009,-0.005,0.001,-6.144,-5.791,6.742
14:53:01:707,27.123,-0.001,0.000,0.000,-6.140,-5.809,6.705
14:53:01:707,27.124,0.000,-0.004,-0.001,-6.140,-5.817,6.683
14:53:01:708,27.125,-0.004,-0.004,0.001,-6.139,-5.818,6.672
14:53:01:709,27.125,-0.002,-0.002,0.003,-6.146,-5.840,6.647
14:53:01:785,27.202,-0.002,-0.001,-0.005,-6.150,-5.852,6.634
14:53:01:785,27.202,0.002,0.000,0.000,-6.152,-5.846,6.627
14:53:01:786,27.203,0.000,-0.002,-0.003,-6.159,-5.821,6.624
14:53:01:787,27.204,0.000,-0.002,0.003,-6.163,-5.774,6.614
14:53:01:802,27.219,0.000,-0.002,-0.003,-6.177,-5.695,6.606
14:53:01:887,27.303,-0.001,-0.011,-0.002,-6.179,-5.642,6.603
14:53:01:887,27.303,0.004,0.003,-0.003,-6.184,-5.522,6.592
14:53:01:973,27.390,-0.009,0.000,0.009,-6.169,-5.389,6.574
14:53:01:973,27.390,-0.017,-0.005,-0.007,-6.160,-5.192,6.546
14:53:01:973,27.390,-0.008,-0.007,0.000,-6.161,-5.118,6.493
14:53:01:973,27.390,0.000,0.000,-0.006,-6.164,-5.092,6.462
14:53:01:986,27.403,0.000,-0.004,-0.001,-6.167,-5.064,6.421
14:53:02:042,27.458,-0.004,0.001,-0.001,-6.173,-5.030,6.417
14:53:02:042,27.459,0.010,-0.005,0.006,-6.177,-4.973,6.414
14:53:02:067,27.483,-0.004,-0.009,-0.004,-6.182,-4.921,6.405
14:53:02:12,27.537,-0.001,-0.003,0.005,-6.187,-4.863,6.417
14:53:02:149,27.566,0.000,0.000,0.000,-6.202,-4.774,6.441
14:53:02:15,27.567,-0.008,-0.001,0.002,-6.221,-4.716,6.458
14:53:02:151,27.568,0.007,-0.005,0.000,-6.260,-4.682,6.493
14:53:02:169,27.586,0.006,0.001,0.002,-6.273,-4.627,6.530
14:53:02:225,27.642,-0.002,-0.003,0.003,-6.298,-4.502,6.610
14:53:02:226,27.643,-0.011,-0.005,0.006,-6.335,-4.400,6.695
14:53:02:332,27.749,-0.012,-0.008,-0.001,-6.363,-4.361,6.731
14:53:02:332,27.749,-0.014,-0.005,-0.005,-6.415,-4.347,6.743
14:53:02:416,27.833,-0.013,-0.003,0.001,-6.442,-4.385,6.725
14:53:02:416,27.833,-0.007,-0.002,0.002,-6.494,-4.494,6.661
14:53:02:416,27.833,-0.007,0.000,0.000,-6.522,-4.603,6.605
14:53:02:417,27.834,-0.007,-0.007,0.001,-6.574,-4.813,6.506
14:53:02:436,27.853,-0.005,-0.001,-0.005,-6.609,-5.051,6.388
14:53:02:436,27.853,-0.005,-0.003,-0.001,-6.618,-5.211,6.304
14:53:02:488,27.905,0.000,-0.001,-0.002,-6.623,-5.457,6.181
14:53:02:488,27.905,0.006,-0.007,-0.011,-6.621,-5.623,6.108
14:53:02:511,27.928,0.002,0.001,0.001,-6.616,-5.866,6.040
14:53:02:598,28.015,-0.011,0.002,0.000,-6.622,-6.085,5.999
14:53:02:598,28.015,-0.013,-0.007,0.000,-6.635,-6.251,5.976
14:53:02:598,28.015,-0.003,-0.003,-0.002,-6.650,-6.531,5.928
14:53:02:676,28.092,0.007,-0.001,0.000,-6.647,-6.703,5.873
14:53:02:676,28.092,0.002,-0.001,-0.007,-6.635,-6.841,5.773
14:53:02:676,28.092,-0.007,-0.001,0.005,-6.615,-6.871,5.695
14:53:02:754,28.171,0.005,-0.002,-0.001,-6.587,-6.929,5.582
14:53:02:755,28.172,-0.002,-0.006,-0.002,-6.554,-6.930,5.471
14:53:02:755,28.172,-0.001,-0.005,-0.002,-6.523,-6.916,5.407
14:53:02:776,28.193,0.005,-0.003,0.004,-6.476,-6.907,5.324
14:53:02:828,28.245,0.004,-0.003,0.005,-6.445,-6.906,5.295
14:53:02:855,28.272,0.000,0.005,0.009,-6.403,-6.897,5.287
14:53:02:856,28.273,-0.003,-0.011,-0.001,-6.367,-6.809,5.280
14:53:02:937,28.354,-0.002,-0.011,0.008,-6.357,-6.732,5.271
14:53:02:938,28.355,-0.004,-0.004,-0.001,-6.361,-6.615,5.271
14:53:02:939,28.356,-0.007,-0.001,0.005,-6.365,-6.556,5.283
14:53:03:015,28.432,0.004,-0.005,-0.003,-6.378,-6.477,5.297
14:53:03:016,28.433,-0.012,-0.004,0.001,-6.389,-6.385,5.305
14:53:03:017,28.434,-0.006,-0.008,-0.002,-6.402,-6.258,5.311
14:53:03:039,28.456,-0.001,-0.001,0.002,-6.426,-6.174,5.302
14:53:03:091,28.508,0.002,-0.002,-0.008,-6.441,-6.130,5.305
14:53:03:092,28.509,-0.005,0.001,-0.003,-6.456,-6.048,5.322
14:53:03:116,28.533,-0.005,0.001,-0.003,-6.471,-6.004,5.324
14:53:03:142,28.559,-0.009,0.000,-0.003,-6.476,-5.954,5.337
14:53:03:197,28.614,-0.003,-0.003,0.001,-6.484,-5.877,5.330
14:53:03:197,28.614,-0.004,-0.002,0.004,-6.484,-5.827,5.323
14:53:03:278,28.695,0.007,0.003,0.007,-6.494,-5.757,5.332
14:53:03:279,28.696,-0.012,0.002,-0.012,-6.505,-5.683,5.342
14:53:03:28,28.696,-0.010,-0.004,-0.002,-6.514,-5.545,5.372
14:53:03:299,28.715,0.001,-0.002,-0.007,-6.523,-5.496,5.393
14:53:03:384,28.801,0.003,0.000,0.001,-6.524,-5.488,5.448
14:53:03:385,28.802,-0.001,0.003,-0.011,-6.531,-5.405,5.503
14:53:03:385,28.802,0.019,-0.003,0.013,-6.534,-5.362,5.557
14:53:03:404,28.821,0.023,-0.001,-0.001,-6.542,-5.307,5.724
14:53:03:46,28.877,0.000,-0.003,-0.005,-6.554,-5.203,5.871
14:53:03:46,28.877,-0.039,-0.011,-0.021,-6.547,-4.997,6.081
14:53:03:482,28.899,-0.007,-0.005,0.004,-6.562,-4.891,6.273
14:53:03:538,28.955,-0.017,-0.010,-0.013,-6.569,-4.841,6.374
14:53:03:539,28.956,-0.008,-0.006,0.001,-6.555,-4.773,6.475
14:53:03:561,28.978,-0.015,-0.007,-0.006,-6.539,-4.723,6.510
14:53:03:646,29.063,-0.016,0.004,0.000,-6.517,-4.693,6.515
14:53:03:647,29.063,0.000,-0.006,-0.005,-6.514,-4.729,6.517
14:53:03:647,29.064,-0.010,-0.013,-0.002,-6.506,-4.797,6.523
14:53:03:724,29.141,-0.012,-0.006,-0.002,-6.486,-4.935,6.497
14:53:03:725,29.142,-0.007,-0.005,-0.004,-6.485,-5.074,6.485
14:53:03:726,29.143,0.006,-0.003,-0.002,-6.476,-5.305,6.474
14:53:03:798,29.215,0.004,-0.002,0.004,-6.462,-5.436,6.479
14:53:03:829,29.246,-0.005,0.000,-0.003,-6.442,-5.583,6.476
14:53:03:83,29.247,0.016,0.004,0.010,-6.426,-5.657,6.458
14:53:03:831,29.248,0.003,-0.003,-0.001,-6.412,-5.627,6.458
14:53:03:85,29.267,-0.011,-0.005,-0.001,-6.381,-5.558,6.450
14:53:03:905,29.322,-0.004,0.002,0.002,-6.362,-5.559,6.448
14:53:03:906,29.323,0.001,-0.002,0.007,-6.340,-5.568,6.471
14:53:03:987,29.404,-0.006,-0.001,-0.001,-6.326,-5.563,6.517
14:53:03:988,29.405,-0.021,0.000,-0.003,-6.308,-5.566,6.537
14:53:03:989,29.406,-0.016,-0.007,0.020,-6.258,-5.642,6.519
14:53:04:007,29.424,-0.004,-0.001,0.000,-6.201,-5.834,6.524
14:53:04:092,29.509,0.003,-0.002,0.002,-6.141,-6.174,6.518
14:53:04:093,29.510,0.004,-0.008,-0.005,-6.112,-6.411,6.500
14:53:04:093,29.510,0.004,-0.005,-0.001,-6.124,-6.502,6.484
14:53:04:112,29.529,0.017,0.001,-0.003,-6.163,-6.523,6.466
14:53:04:167,29.584,0.007,-0.009,-0.004,-6.194,-6.447,6.460
14:53:04:169,29.586,-0.007,-0.004,-0.005,-6.226,-6.293,6.485
14:53:04:192,29.608,-0.012,0.002,-0.004,-6.239,-6.217,6.510
14:53:04:247,29.664,-0.003,-0.004,-0.005,-6.250,-6.145,6.531
14:53:04:248,29.665,-0.008,-0.008,0.001,-6.251,-6.096,6.557
14:53:04:27,29.687,-0.011,-0.003,-0.009,-6.258,-6.081,6.558
14:53:04:323,29.740,-0.004,-0.005,0.002,-6.254,-6.079,6.560
14:53:04:386,29.803,-0.006,-0.008,-0.005,-6.256,-6.076,6.553
14:53:04:386,29.803,-0.017,-0.003,-0.002,-6.257,-6.063,6.519
14:53:04:386,29.803,-0.005,0.002,-0.002,-6.257,-6.078,6.458
14:53:04:386,29.803,0.007,-0.001,0.005,-6.257,-6.124,6.421
14:53:04:428,29.845,0.000,-0.003,-0.006,-6.262,-6.142,6.380
14:53:04:458,29.875,-0.013,0.001,0.003,-6.262,-6.142,6.380
14:53:04:458,29.875,0.000,-0.001,0.001,-6.258,-6.160,6.376
14:53:04:48,29.897,0.001,-0.002,-0.002,-6.257,-6.182,6.377
14:53:04:535,29.952,-0.007,-0.004,-0.009,-6.257,-6.182,6.377
14:53:04:536,29.953,0.002,0.001,0.003,-6.260,-6.205,6.387
14:53:04:617,30.034,0.010,-0.002,0.005,-6.257,-6.230,6.396
14:53:04:618,30.035,-0.008,-0.008,-0.002,-6.255,-6.248,6.448
14:53:04:619,30.036,-0.004,-0.007,-0.001,-6.257,-6.245,6.474
14:53:04:696,30.113,-0.003,-0.001,0.000,-6.258,-6.245,6.507
14:53:04:696,30.113,-0.001,-0.002,-0.004,-6.258,-6.245,6.507
14:53:04:697,30.114,0.000,-0.001,0.003,-6.258,-6.245,6.507
14:53:04:717,30.133,0.001,-0.005,0.000,-6.265,-6.190,6.524
14:53:04:772,30.189,-0.004,-0.005,-0.012,-6.271,-6.140,6.537
14:53:04:773,30.190,0.000,0.000,-0.001,-6.279,-6.076,6.565
14:53:04:795,30.212,0.000,0.000,-0.002,-6.286,-6.031,6.582
14:53:04:821,30.238,0.002,-0.003,0.010,-6.294,-5.937,6.615
14:53:04:88,30.296,-0.005,-0.003,-0.011,-6.308,-5.823,6.655
14:53:04:88,30.297,-0.004,-0.002,-0.002,-6.314,-5.735,6.673
14:53:04:9,30.317,-0.002,-0.004,-0.003,-6.323,-5.629,6.705
14:53:04:956,30.373,-0.003,-0.005,-0.001,-6.329,-5.571,6.739
14:53:04:956,30.373,-0.004,-0.001,-0.009,-6.340,-5.510,6.782
14:53:04:979,30.396,-0.008,-0.004,-0.001,-6.344,-5.496,6.853
14:53:05:063,30.480,-0.004,-0.007,-0.007,-6.340,-5.498,6.888
14:53:05:064,30.481,-0.008,-0.005,0.007,-6.344,-5.483,6.936
14:53:05:065,30.481,-0.012,-0.003,-0.007,-6.351,-5.460,6.955
14:53:05:084,30.500,-0.002,-0.003,0.001,-6.345,-5.454,6.975
14:53:05:139,30.556,-0.005,-0.004,-0.002,-6.349,-5.455,6.983
14:53:05:14,30.557,-0.001,-0.003,0.000,-6.349,-5.455,6.983
14:53:05:163,30.580,-0.008,-0.003,-0.002,-6.349,-5.455,6.983
14:53:05:219,30.636,-0.012,-0.005,-0.002,-6.344,-5.466,6.986
14:53:05:219,30.636,0.000,-0.001,-0.002,-6.344,-5.503,6.982
14:53:05:241,30.658,0.000,-0.003,0.000,-6.338,-5.527,6.985
14:53:05:326,30.743,-0.001,0.000,0.000,-6.338,-5.536,6.986
14:53:05:326,30.743,-0.002,-0.004,-0.004,-6.338,-5.527,6.985
14:53:05:327,30.744,-0.005,-0.003,-0.004,-6.338,-5.527,6.985
14:53:05:346,30.763,-0.006,-0.002,0.000,-6.338,-5.527,6.985
14:53:05:402,30.819,-0.003,-0.003,-0.001,-6.338,-5.527,6.985
14:53:05:402,30.819,0.000,-0.002,0.000,-6.332,-5.520,6.983
14:53:05:427,30.844,-0.004,-0.001,0.003,-6.335,-5.504,6.975
14:53:05:482,30.899,-0.020,-0.008,-0.003,-6.332,-5.471,6.942
14:53:05:483,30.900,-0.004,0.000,0.003,-6.328,-5.475,6.882
14:53:05:504,30.921,-0.006,-0.003,0.002,-6.328,-5.472,6.838
14:53:05:589,31.006,-0.010,-0.005,-0.001,-6.328,-5.474,6.743
14:53:05:589,31.006,-0.002,0.001,-0.011,-6.323,-5.492,6.672
14:53:05:589,31.006,0.006,-0.003,0.001,-6.319,-5.533,6.575
14:53:05:668,31.085,0.005,0.000,-0.003,-6.320,-5.507,6.507
14:53:05:668,31.085,-0.004,-0.006,-0.003,-6.328,-5.469,6.485
14:53:05:669,31.086,0.001,0.001,-0.013,-6.327,-5.440,6.457
14:53:05:688,31.105,-0.002,-0.005,0.001,-6.333,-5.458,6.449
14:53:05:771,31.188,-0.006,-0.003,-0.010,-6.333,-5.458,6.449
14:53:05:772,31.189,-0.011,0.001,0.000,-6.333,-5.449,6.448
14:53:05:773,31.190,-0.024,-0.005,-0.011,-6.350,-5.380,6.416
14:53:05:82,31.237,-0.009,-0.008,-0.001,-6.387,-5.459,6.338
14:53:05:848,31.265,-0.007,0.000,-0.009,-6.408,-5.527,6.262
14:53:05:849,31.266,-0.004,-0.002,0.001,-6.433,-5.662,6.148
14:53:05:929,31.346,0.000,-0.002,-0.004,-6.441,-5.767,6.062
14:53:05:93,31.347,-0.005,-0.001,-0.002,-6.448,-5.911,5.947
14:53:05:931,31.348,0.013,0.002,0.003,-6.434,-6.028,5.862
14:53:05:951,31.368,0.003,-0.001,0.000,-6.434,-6.064,5.835
14:53:06:035,31.452,0.027,0.008,0.007,-6.418,-6.079,5.838
14:53:06:035,31.452,-0.001,-0.005,0.003,-6.392,-6.007,5.843
14:53:06:036,31.453,-0.010,-0.007,-0.004,-6.378,-5.866,5.879
14:53:06:056,31.472,-0.003,-0.006,0.006,-6.366,-5.755,5.915
14:53:06:081,31.498,-0.006,-0.005,-0.002,-6.365,-5.660,5.930
14:53:06:108,31.525,-0.003,0.000,0.003,-6.374,-5.561,5.944
14:53:06:134,31.551,-0.001,-0.008,-0.001,-6.377,-5.507,5.952
14:53:06:187,31.604,-0.005,-0.006,-0.003,-6.388,-5.435,5.973
14:53:06:301,31.718,-0.002,-0.003,-0.001,-6.392,-5.379,5.992
14:53:06:301,31.718,-0.005,-0.006,0.000,-6.396,-5.351,6.006
14:53:06:302,31.719,-0.008,-0.003,-0.001,-6.400,-5.324,6.042
14:53:06:302,31.719,-0.006,-0.001,-0.009,-6.400,-5.325,6.065
14:53:06:322,31.739,-0.008,-0.005,-0.002,-6.396,-5.327,6.100
14:53:06:323,31.739,0.001,0.000,0.001,-6.400,-5.340,6.121
14:53:06:373,31.790,0.002,0.002,0.002,-6.396,-5.379,6.152
14:53:06:373,31.790,0.001,-0.003,-0.010,-6.400,-5.374,6.189
14:53:06:398,31.815,-0.006,-0.005,-0.003,-6.397,-5.354,6.223
14:53:06:455,31.872,-0.003,-0.003,-0.007,-6.404,-5.319,6.264
14:53:06:455,31.872,-0.006,-0.001,-0.001,-6.405,-5.320,6.286
14:53:06:475,31.892,-0.006,-0.003,-0.009,-6.401,-5.322,6.322
14:53:06:56,31.977,-0.004,-0.002,0.002,-6.403,-5.316,6.337
14:53:06:56,31.977,-0.006,-0.002,-0.006,-6.402,-5.338,6.338
14:53:06:561,31.978,-0.004,-0.005,-0.005,-6.392,-5.412,6.362
14:53:06:639,32.056,-0.007,-0.002,-0.001,-6.390,-5.458,6.387
14:53:06:639,32.056,-0.009,-0.002,0.003,-6.382,-5.535,6.427
14:53:06:64,32.057,0.010,0.000,0.001,-6.389,-5.608,6.453
14:53:06:659,32.076,0.000,-0.002,0.000,-6.381,-5.646,6.475
14:53:06:746,32.163,-0.002,-0.004,-0.004,-6.383,-5.655,6.513
14:53:06:747,32.164,-0.003,-0.003,0.000,-6.376,-5.671,6.534
14:53:06:747,32.164,0.001,0.003,-0.005,-6.376,-5.702,6.573
14:53:06:748,32.165,-0.006,-0.003,-0.001,-6.378,-5.690,6.595
14:53:06:819,32.236,-0.006,-0.002,-0.003,-6.355,-5.636,6.638
14:53:06:82,32.237,-0.003,-0.003,-0.001,-6.335,-5.603,6.670
14:53:06:845,32.262,-0.012,-0.001,-0.002,-6.318,-5.601,6.690
14:53:06:846,32.263,0.000,0.000,0.000,-6.293,-5.568,6.712
14:53:06:899,32.316,-0.006,-0.005,0.000,-6.277,-5.537,6.741
14:53:06:899,32.316,-0.011,-0.005,-0.002,-6.250,-5.491,6.777
14:53:06:921,32.338,-0.005,-0.004,0.001,-6.233,-5.480,6.796
14:53:07:006,32.423,-0.007,-0.004,-0.001,-6.215,-5.479,6.805
14:53:07:007,32.424,-0.012,-0.006,-0.001,-6.208,-5.485,6.803
14:53:07:008,32.425,-0.011,-0.007,-0.003,-6.201,-5.508,6.784
14:53:07:026,32.443,-0.004,-0.004,-0.004,-6.198,-5.571,6.755
14:53:07:082,32.499,0.006,0.000,-0.007,-6.182,-5.633,6.724
14:53:07:083,32.500,-0.005,-0.003,-0.001,-6.184,-5.704,6.686
14:53:07:106,32.523,-0.001,-0.002,-0.007,-6.177,-5.735,6.646
14:53:07:162,32.579,-0.004,-0.003,-0.001,-6.177,-5.762,6.618
14:53:07:162,32.579,-0.007,-0.007,-0.010,-6.166,-5.822,6.552
14:53:07:238,32.655,-0.009,-0.003,0.003,-6.163,-5.864,6.510
14:53:07:268,32.685,-0.004,0.001,-0.005,-6.151,-5.946,6.424
14:53:07:269,32.686,-0.008,-0.006,0.001,-6.142,-6.050,6.347
14:53:07:27,32.687,0.003,0.002,-0.005,-6.133,-6.113,6.297
14:53:07:289,32.706,-0.003,-0.003,0.006,-6.121,-6.207,6.245
14:53:07:345,32.762,-0.001,-0.002,-0.006,-6.114,-6.250,6.216
14:53:07:345,32.762,0.000,-0.004,0.001,-6.110,-6.314,6.175
14:53:07:368,32.784,-0.003,-0.002,-0.001,-6.104,-6.346,6.157
14:53:07:452,32.869,0.004,-0.005,0.000,-6.100,-6.362,6.131
14:53:07:453,32.870,-0.005,-0.001,-0.001,-6.106,-6.329,6.127
14:53:07:453,32.870,-0.009,-0.003,0.001,-6.106,-6.329,6.127
14:53:07:532,32.949,-0.010,-0.003,-0.007,-6.106,-6.329,6.127
14:53:07:533,32.950,-0.003,-0.003,-0.004,-6.106,-6.331,6.116
14:53:07:533,32.950,-0.004,-0.002,-0.002,-6.103,-6.347,6.090
14:53:07:609,33.026,-0.005,-0.003,0.000,-6.105,-6.350,6.073
14:53:07:61,33.027,-0.004,-0.006,-0.006,-6.100,-6.350,6.064
14:53:07:611,33.028,-0.002,-0.002,0.004,-6.107,-6.357,6.066
14:53:07:63,33.047,-0.003,-0.002,-0.001,-6.107,-6.357,6.066
14:53:07:685,33.102,-0.002,-0.005,0.000,-6.102,-6.357,6.079
14:53:07:711,33.128,-0.007,-0.004,-0.001,-6.102,-6.356,6.091
14:53:07:712,33.129,-0.005,-0.004,0.001,-6.102,-6.359,6.102
14:53:07:793,33.210,0.000,-0.003,0.000,-6.108,-6.335,6.121
14:53:07:794,33.211,0.000,-0.004,0.000,-6.112,-6.299,6.134
14:53:07:795,33.212,-0.008,-0.003,-0.001,-6.118,-6.238,6.157
14:53:07:814,33.231,-0.003,-0.001,-0.005,-6.118,-6.199,6.173
14:53:07:872,33.289,-0.002,0.000,0.000,-6.126,-6.143,6.201
14:53:07:872,33.289,-0.009,-0.001,-0.006,-6.139,-6.069,6.248
14:53:07:893,33.310,-0.009,-0.003,0.000,-6.145,-6.008,6.272
14:53:07:946,33.363,-0.008,-0.004,-0.006,-6.154,-5.933,6.310
14:53:07:975,33.391,-0.007,-0.005,0.002,-6.152,-5.898,6.321
14:53:07:975,33.392,-0.007,-0.003,-0.001,-6.159,-5.855,6.328
14:53:07:997,33.414,-0.008,-0.003,0.003,-6.160,-5.844,6.339
14:53:08:024,33.441,-0.003,-0.002,-0.004,-6.162,-5.840,6.343
14:53:08:051,33.468,-0.011,-0.003,0.004,-6.165,-5.843,6.359
14:53:08:076,33.493,-0.009,-0.001,-0.007,-6.165,-5.843,6.359
14:53:08:133,33.550,-0.006,-0.004,0.003,-6.160,-5.883,6.356
14:53:08:133,33.550,-0.008,-0.001,0.000,-6.156,-5.912,6.364
14:53:08:155,33.572,-0.005,0.000,0.003,-6.146,-5.971,6.365
14:53:08:24,33.657,-0.007,-0.004,-0.002,-6.141,-6.022,6.375
14:53:08:241,33.658,-0.007,-0.008,0.002,-6.135,-6.056,6.378
14:53:08:241,33.658,-0.002,0.000,0.000,-6.133,-6.100,6.381
14:53:08:261,33.678,-0.005,-0.006,0.000,-6.131,-6.122,6.382
14:53:08:315,33.732,-0.006,-0.002,-0.001,-6.126,-6.133,6.385
14:53:08:316,33.733,-0.006,-0.002,0.001,-6.126,-6.133,6.385
14:53:08:397,33.814,-0.006,-0.002,-0.003,-6.126,-6.133,6.385
14:53:08:398,33.815,-0.004,-0.002,-0.001,-6.132,-6.149,6.388
14:53:08:399,33.816,-0.008,-0.001,-0.003,-6.125,-6.155,6.386
14:53:08:417,33.834,-0.002,-0.003,0.003,-6.130,-6.144,6.383
14:53:08:502,33.919,-0.004,-0.005,0.001,-6.131,-6.122,6.382
14:53:08:503,33.920,-0.008,-0.002,-0.001,-6.140,-6.083,6.393
14:53:08:503,33.920,-0.004,-0.002,0.001,-6.143,-6.049,6.414
14:53:08:582,33.999,-0.002,-0.002,0.000,-6.147,-6.012,6.427
14:53:08:583,34.000,-0.008,-0.002,-0.001,-6.156,-5.946,6.466
14:53:08:583,34.000,-0.005,-0.001,-0.007,-6.159,-5.901,6.497
14:53:08:603,34.020,-0.005,-0.003,0.001,-6.157,-5.821,6.535
14:53:08:657,34.073,-0.010,-0.003,-0.004,-6.169,-5.739,6.566
14:53:08:658,34.074,-0.010,-0.003,0.001,-6.177,-5.685,6.583
14:53:08:68,34.097,-0.010,-0.002,-0.004,-6.187,-5.624,6.593
14:53:08:706,34.123,-0.011,-0.001,-0.001,-6.188,-5.602,6.592
14:53:08:733,34.150,-0.003,-0.002,-0.001,-6.189,-5.561,6.585
14:53:08:759,34.176,-0.011,-0.003,-0.001,-6.195,-5.519,6.581
14:53:08:787,34.204,-0.008,-0.003,-0.006,-6.197,-5.484,6.579
14:53:08:842,34.259,-0.015,-0.004,0.000,-6.197,-5.484,6.579
14:53:08:843,34.259,-0.007,-0.003,-0.003,-6.201,-5.497,6.566
14:53:08:864,34.280,-0.010,-0.002,0.003,-6.191,-5.544,6.556
14:53:08:949,34.366,0.005,-0.005,0.000,-6.189,-5.589,6.558
14:53:08:949,34.366,-0.003,0.000,0.000,-6.181,-5.635,6.562
14:53:08:95,34.367,-0.008,-0.001,-0.001,-6.181,-5.635,6.562
14:53:09:03,34.447,-0.009,-0.004,0.002,-6.181,-5.635,6.562
14:53:09:031,34.448,-0.009,-0.003,-0.003,-6.185,-5.618,6.566
14:53:09:032,34.448,-0.009,-0.003,0.002,-6.187,-5.613,6.548
14:53:09:032,34.449,-0.010,-0.003,0.000,-6.184,-5.617,6.510
14:53:09:049,34.465,-0.003,-0.004,-0.005,-6.184,-5.616,6.488
14:53:09:129,34.546,-0.002,-0.002,-0.004,-6.182,-5.608,6.472
14:53:09:13,34.547,-0.009,-0.003,0.001,-6.188,-5.575,6.468
14:53:09:236,34.653,-0.010,-0.003,0.001,-6.194,-5.542,6.464
14:53:09:236,34.653,-0.007,-0.003,-0.001,-6.196,-5.511,6.463
14:53:09:296,34.713,-0.005,-0.004,-0.001,-6.197,-5.498,6.462
14:53:09:296,34.713,-0.009,-0.002,0.000,-6.198,-5.477,6.450
14:53:09:296,34.713,-0.009,-0.003,0.002,-6.198,-5.477,6.450
14:53:09:313,34.730,-0.004,-0.004,-0.001,-6.202,-5.475,6.448
14:53:09:314,34.731,-0.008,-0.001,-0.006,-6.195,-5.481,6.446
14:53:09:367,34.783,-0.006,-0.004,0.001,-6.196,-5.508,6.452
14:53:09:367,34.783,-0.002,-0.002,-0.004,-6.195,-5.530,6.453
14:53:09:389,34.805,-0.006,-0.004,-0.001,-6.189,-5.555,6.456
14:53:09:474,34.891,0.000,0.000,-0.004,-6.182,-5.597,6.461
14:53:09:474,34.891,-0.006,-0.003,0.003,-6.186,-5.608,6.459
14:53:09:475,34.892,-0.005,-0.003,-0.006,-6.181,-5.610,6.461
14:53:09:552,34.969,-0.007,-0.001,0.004,-6.181,-5.619,6.462
14:53:09:553,34.969,-0.003,-0.004,-0.008,-6.182,-5.637,6.467
14:53:09:554,34.970,-0.003,-0.002,0.004,-6.180,-5.641,6.463
14:53:09:575,34.992,-0.004,-0.002,-0.004,-6.184,-5.642,6.472
14:53:09:626,35.043,-0.005,-0.001,0.003,-6.182,-5.638,6.489
14:53:09:654,35.071,-0.004,-0.001,-0.003,-6.183,-5.639,6.512
14:53:09:655,35.072,-0.005,-0.003,0.002,-6.183,-5.639,6.512
14:53:09:677,35.094,-0.008,-0.003,-0.002,-6.181,-5.621,6.506
14:53:09:733,35.150,-0.006,-0.006,0.002,-6.186,-5.610,6.504
14:53:09:733,35.150,-0.003,-0.004,-0.004,-6.186,-5.610,6.504
14:53:09:759,35.176,-0.003,-0.004,0.000,-6.186,-5.610,6.504
14:53:09:812,35.229,-0.008,-0.001,0.000,-6.186,-5.610,6.504
14:53:09:812,35.229,-0.009,-0.002,0.002,-6.189,-5.615,6.508
14:53:09:835,35.252,0.000,-0.004,0.000,-6.181,-5.670,6.514
14:53:09:891,35.308,-0.006,-0.003,-0.001,-6.180,-5.733,6.521
14:53:09:891,35.308,-0.001,-0.004,-0.006,-6.177,-5.786,6.524
14:53:09:916,35.333,-0.003,-0.004,-0.002,-6.181,-5.878,6.536
14:53:09:941,35.358,0.000,-0.003,0.001,-6.173,-5.933,6.541
14:53:09:966,35.383,-0.002,-0.002,-0.001,-6.168,-5.994,6.573
14:53:09:993,35.410,0.002,0.000,0.001,-6.164,-6.061,6.610
14:53:10:019,35.435,0.000,-0.001,0.002,-6.157,-6.068,6.630
14:53:10:073,35.490,-0.006,-0.001,0.000,-6.146,-6.076,6.663
14:53:10:1,35.517,-0.004,-0.003,-0.003,-6.142,-6.112,6.683
14:53:10:101,35.518,-0.003,-0.002,-0.001,-6.135,-6.208,6.751
14:53:10:182,35.599,-0.005,0.001,-0.006,-6.119,-6.293,6.810
14:53:10:183,35.600,-0.003,-0.007,0.003,-6.116,-6.361,6.892
14:53:10:184,35.601,-0.009,0.000,-0.008,-6.102,-6.347,6.937
14:53:10:203,35.619,-0.012,0.000,0.004,-6.088,-6.319,6.960
14:53:10:229,35.645,-0.010,-0.002,-0.004,-6.063,-6.284,6.960
14:53:10:255,35.672,-0.004,-0.004,0.000,-6.055,-6.272,6.953
14:53:10:341,35.758,-0.005,0.000,-0.006,-6.032,-6.271,6.919
14:53:10:341,35.758,-0.009,-0.006,-0.002,-6.017,-6.273,6.888
14:53:10:341,35.758,-0.006,-0.003,-0.008,-6.013,-6.279,6.840
14:53:10:361,35.778,0.001,-0.005,0.006,-6.009,-6.304,6.781
14:53:10:444,35.861,0.001,-0.001,-0.001,-6.010,-6.320,6.742
14:53:10:445,35.862,-0.002,-0.004,-0.001,-6.012,-6.314,6.702
14:53:10:446,35.863,-0.009,-0.001,-0.001,-6.013,-6.291,6.679
14:53:10:523,35.940,-0.005,-0.001,0.006,-6.011,-6.276,6.651
14:53:10:524,35.941,-0.004,-0.004,-0.005,-6.015,-6.267,6.655
14:53:10:525,35.942,-0.004,-0.002,-0.001,-6.020,-6.247,6.652
14:53:10:544,35.961,-0.007,0.000,-0.001,-6.025,-6.196,6.643
14:53:10:629,36.046,0.005,-0.001,0.007,-6.023,-6.163,6.643
14:53:10:629,36.046,0.007,-0.001,0.001,-6.031,-6.058,6.631
14:53:10:63,36.047,-0.016,-0.006,-0.004,-6.029,-5.927,6.617
14:53:10:649,36.066,-0.003,-0.004,-0.001,-6.034,-5.798,6.606
14:53:10:705,36.122,-0.009,-0.001,-0.008,-6.046,-5.713,6.593
14:53:10:705,36.122,-0.009,-0.003,-0.001,-6.048,-5.669,6.591
14:53:10:727,36.144,-0.012,-0.004,-0.001,-6.057,-5.631,6.569
14:53:10:783,36.200,0.000,-0.003,-0.001,-6.059,-5.634,6.551
14:53:10:783,36.200,0.007,0.000,0.002,-6.058,-5.606,6.523
14:53:10:806,36.223,-0.003,0.000,-0.003,-6.067,-5.546,6.500
14:53:10:892,36.309,-0.009,-0.005,-0.006,-6.069,-5.523,6.499
14:53:10:892,36.309,-0.003,-0.002,0.001,-6.068,-5.522,6.477
14:53:10:893,36.310,0.000,-0.003,-0.008,-6.063,-5.544,6.469
14:53:10:912,36.329,-0.002,-0.005,-0.001,-6.064,-5.562,6.474
14:53:10:967,36.384,-0.016,-0.002,-0.009,-6.060,-5.588,6.471
14:53:10:967,36.384,0.000,-0.002,0.000,-6.055,-5.628,6.469
14:53:10:992,36.409,-0.002,-0.003,-0.007,-6.054,-5.640,6.447
14:53:11:046,36.463,-0.011,-0.007,-0.002,-6.054,-5.647,6.425
14:53:11:046,36.463,-0.007,-0.005,-0.007,-6.049,-5.688,6.390
14:53:11:069,36.486,-0.002,-0.006,-0.002,-6.044,-5.726,6.365
14:53:11:124,36.541,-0.004,-0.002,-0.009,-6.035,-5.791,6.337
14:53:11:154,36.571,-0.003,-0.002,0.000,-6.027,-5.858,6.321
14:53:11:154,36.571,-0.004,0.000,-0.005,-6.025,-5.900,6.312
14:53:11:155,36.572,-0.006,-0.001,0.000,-6.018,-5.972,6.300
14:53:11:232,36.649,0.001,-0.004,-0.002,-6.009,-6.022,6.301
14:53:11:233,36.649,-0.004,-0.002,-0.002,-5.997,-6.066,6.307
14:53:11:234,36.650,-0.002,-0.003,-0.001,-5.978,-6.100,6.329
14:53:11:252,36.669,-0.004,-0.001,0.005,-5.969,-6.109,6.356
14:53:11:337,36.754,-0.003,-0.001,-0.003,-5.945,-6.104,6.407
14:53:11:338,36.755,-0.008,-0.006,-0.001,-5.931,-6.089,6.430
14:53:11:338,36.755,-0.010,-0.004,0.004,-5.900,-6.078,6.467
14:53:11:416,36.832,-0.007,0.000,-0.001,-5.893,-6.093,6.466
14:53:11:417,36.833,0.002,0.001,0.000,-5.887,-6.126,6.470
14:53:11:417,36.834,-0.005,-0.007,0.005,-5.890,-6.110,6.495
14:53:11:495,36.912,-0.008,-0.004,-0.001,-5.891,-6.102,6.517
14:53:11:496,36.913,0.000,-0.001,0.003,-5.922,-6.103,6.546
14:53:11:496,36.913,0.001,-0.003,-0.004,-5.955,-6.082,6.574
14:53:11:516,36.933,0.000,-0.002,-0.009,-6.005,-6.034,6.621
14:53:11:571,36.987,-0.003,-0.008,-0.001,-6.052,-5.898,6.689
14:53:11:571,36.988,-0.002,0.002,0.006,-6.083,-5.808,6.744
14:53:11:594,37.010,0.000,-0.001,0.011,-6.114,-5.599,6.824
14:53:11:62,37.037,-0.035,-0.010,-0.019,-6.156,-5.435,6.878
14:53:11:677,37.094,-0.021,-0.004,0.002,-6.204,-5.336,6.919
14:53:11:677,37.094,0.011,0.003,0.001,-6.238,-5.360,6.925
14:53:11:699,37.116,0.010,-0.004,-0.001,-6.277,-5.423,6.935
14:53:11:754,37.171,-0.017,0.000,-0.019,-6.315,-5.390,6.971
14:53:11:755,37.172,-0.013,-0.016,0.001,-6.335,-5.399,7.000
14:53:11:836,37.253,-0.015,0.003,-0.011,-6.372,-5.466,7.006
14:53:11:837,37.254,-0.010,-0.005,-0.011,-6.391,-5.578,6.999
14:53:11:837,37.254,-0.006,0.000,-0.011,-6.390,-5.733,6.948
14:53:11:859,37.276,-0.008,-0.005,0.000,-6.374,-5.831,6.891
14:53:11:884,37.301,-0.013,-0.003,-0.014,-6.367,-5.902,6.857
14:53:11:94,37.356,0.000,0.000,0.001,-6.351,-6.052,6.819
14:53:11:94,37.357,-0.009,-0.006,-0.008,-6.340,-6.150,6.804
14:53:12:022,37.439,-0.008,-0.006,0.005,-6.298,-6.286,6.778
14:53:12:022,37.439,0.006,-0.001,0.001,-6.271,-6.392,6.755
14:53:12:022,37.439,0.000,-0.005,0.000,-6.232,-6.494,6.716
14:53:12:042,37.459,0.006,0.000,0.001,-6.186,-6.551,6.712
14:53:12:097,37.514,-0.005,-0.002,0.003,-6.165,-6.559,6.716
14:53:12:097,37.514,-0.007,-0.004,0.000,-6.154,-6.525,6.754
14:53:12:119,37.536,0.001,-0.006,0.007,-6.154,-6.526,6.777
14:53:12:147,37.564,0.010,0.001,0.001,-6.165,-6.427,6.825
14:53:12:203,37.619,-0.008,-0.008,0.002,-6.190,-6.136,6.878
14:53:12:203,37.619,0.002,-0.001,0.000,-6.194,-5.925,6.915
14:53:12:224,37.640,-0.026,-0.006,-0.003,-6.240,-5.601,6.980
14:53:12:279,37.696,-0.022,-0.010,-0.003,-6.256,-5.424,7.013
14:53:12:28,37.697,-0.018,-0.004,-0.004,-6.279,-5.268,7.020
14:53:12:305,37.722,-0.014,-0.007,0.002,-6.292,-5.201,6.990
14:53:12:387,37.804,-0.007,-0.005,-0.001,-6.311,-5.206,6.952
14:53:12:388,37.805,0.000,0.001,0.002,-6.345,-5.234,6.885
14:53:12:388,37.805,0.007,0.002,0.007,-6.373,-5.252,6.855
14:53:12:466,37.883,-0.012,-0.007,-0.006,-6.405,-5.218,6.815
14:53:12:466,37.883,0.010,-0.005,-0.005,-6.429,-5.184,6.780
14:53:12:467,37.884,-0.005,-0.004,-0.004,-6.459,-5.146,6.736
14:53:12:486,37.903,-0.017,-0.008,-0.006,-6.484,-5.099,6.700
14:53:12:571,37.988,-0.003,-0.002,0.011,-6.486,-5.074,6.658
14:53:12:572,37.988,-0.007,-0.004,-0.017,-6.491,-5.075,6.583
14:53:12:572,37.989,-0.002,-0.021,0.011,-6.512,-5.084,6.528
14:53:12:594,38.010,0.009,0.018,-0.003,-6.560,-5.136,6.489
14:53:12:647,38.064,0.007,-0.007,-0.017,-6.594,-5.199,6.512
14:53:12:647,38.064,-0.014,-0.007,-0.022,-6.587,-5.156,6.503
14:53:12:67,38.087,-0.010,-0.001,0.007,-6.557,-5.102,6.489
14:53:12:723,38.140,-0.011,-0.004,-0.005,-6.542,-5.094,6.469
14:53:12:834,38.251,-0.004,-0.005,-0.003,-6.528,-5.150,6.421
14:53:12:835,38.252,-0.009,-0.010,-0.002,-6.513,-5.160,6.372
14:53:12:835,38.252,-0.010,-0.002,0.008,-6.493,-5.178,6.283
14:53:12:86,38.277,-0.001,0.000,0.004,-6.474,-5.231,6.181
14:53:12:861,38.278,-0.022,-0.008,-0.003,-6.465,-5.285,6.109
14:53:12:861,38.278,-0.011,-0.004,-0.006,-6.465,-5.427,5.990
14:53:12:909,38.326,-0.003,-0.001,-0.003,-6.459,-5.541,5.890
14:53:12:91,38.327,-0.003,-0.004,-0.007,-6.457,-5.712,5.751
14:53:12:933,38.350,0.000,-0.001,0.003,-6.460,-5.887,5.610
14:53:12:989,38.406,0.004,0.000,0.000,-6.447,-5.999,5.526
14:53:12:989,38.406,0.006,0.000,-0.001,-6.443,-6.112,5.403
14:53:13:1,38.517,0.006,0.002,-0.004,-6.437,-6.161,5.335
14:53:13:1,38.517,0.008,-0.001,0.005,-6.439,-6.161,5.251
14:53:13:101,38.518,-0.004,-0.002,-0.002,-6.448,-6.049,5.198
14:53:13:102,38.519,-0.013,0.000,0.001,-6.459,-5.955,5.162
14:53:13:144,38.561,-0.010,-0.001,-0.004,-6.472,-5.853,5.118
14:53:13:173,38.590,0.001,-0.002,0.000,-6.475,-5.824,5.077
14:53:13:173,38.590,-0.023,-0.004,-0.005,-6.484,-5.700,5.023
14:53:13:195,38.612,-0.020,-0.004,-0.008,-6.503,-5.657,5.001
14:53:13:279,38.696,0.000,-0.003,-0.003,-6.540,-5.683,4.967
14:53:13:28,38.697,-0.003,-0.005,-0.010,-6.562,-5.722,4.929
14:53:13:281,38.698,-0.015,-0.008,-0.005,-6.559,-5.725,4.903
14:53:13:36,38.777,-0.017,-0.006,-0.008,-6.561,-5.765,4.826
14:53:13:361,38.778,-0.006,0.001,-0.002,-6.562,-5.830,4.760
14:53:13:361,38.778,0.004,-0.007,-0.003,-6.578,-5.919,4.639
14:53:13:437,38.854,-0.003,-0.005,0.001,-6.586,-5.957,4.564
14:53:13:438,38.854,-0.005,0.003,-0.012,-6.596,-6.008,4.438
14:53:13:439,38.855,0.002,-0.004,0.001,-6.593,-6.021,4.312
14:53:13:519,38.936,-0.003,-0.009,-0.009,-6.591,-6.050,4.237
14:53:13:52,38.937,-0.007,0.001,-0.001,-6.595,-6.086,4.130
14:53:13:52,38.937,-0.003,0.003,-0.005,-6.601,-6.111,4.067
14:53:13:521,38.938,-0.003,-0.010,-0.001,-6.615,-6.147,3.989
14:53:13:536,38.953,-0.010,-0.008,-0.005,-6.636,-6.164,3.913
14:53:13:562,38.979,-0.005,-0.003,0.002,-6.648,-6.196,3.853
14:53:13:618,39.035,0.000,-0.003,0.003,-6.666,-6.231,3.762
14:53:13:619,39.035,-0.001,-0.004,-0.001,-6.681,-6.245,3.716
14:53:13:7,39.117,-0.009,-0.009,-0.005,-6.708,-6.282,3.666
14:53:13:701,39.118,0.000,-0.003,0.001,-6.735,-6.292,3.620
14:53:13:702,39.119,0.005,-0.001,-0.001,-6.748,-6.301,3.592
14:53:13:721,39.138,-0.006,-0.004,-0.001,-6.777,-6.262,3.547
14:53:13:806,39.223,0.000,-0.007,-0.001,-6.778,-6.249,3.513
14:53:13:806,39.223,0.000,-0.006,-0.005,-6.787,-6.214,3.474
14:53:13:807,39.224,0.019,0.009,0.007,-6.794,-6.197,3.453
14:53:13:883,39.300,-0.004,0.002,-0.004,-6.786,-6.049,3.417
14:53:13:884,39.301,-0.017,-0.015,-0.003,-6.784,-5.806,3.396
14:53:13:885,39.302,-0.017,-0.009,-0.007,-6.793,-5.721,3.382
14:53:13:904,39.321,-0.005,-0.004,-0.002,-6.795,-5.652,3.334
14:53:13:96,39.377,-0.006,0.002,-0.013,-6.795,-5.630,3.299
14:53:13:96,39.377,-0.002,0.002,-0.008,-6.797,-5.633,3.282
14:53:13:983,39.400,-0.002,-0.008,0.000,-6.791,-5.595,3.277
14:53:14:067,39.484,-0.007,-0.005,-0.001,-6.794,-5.588,3.270
14:53:14:068,39.485,-0.002,0.008,-0.015,-6.800,-5.582,3.239
14:53:14:069,39.485,-0.004,-0.004,-0.005,-6.798,-5.555,3.233
14:53:14:088,39.505,0.001,0.000,-0.007,-6.800,-5.519,3.231
14:53:14:144,39.561,0.001,-0.008,0.001,-6.800,-5.519,3.231
14:53:14:144,39.561,-0.005,-0.016,-0.011,-6.803,-5.472,3.255
14:53:14:166,39.583,0.003,-0.004,-0.001,-6.804,-5.462,3.265
14:53:14:224,39.641,0.000,-0.014,-0.006,-6.802,-5.542,3.359
14:53:14:245,39.662,-0.012,-0.003,-0.001,-6.796,-5.551,3.434
14:53:14:33,39.747,-0.016,-0.003,0.003,-6.801,-5.556,3.510
14:53:14:33,39.747,-0.004,-0.002,-0.011,-6.795,-5.626,3.572
14:53:14:331,39.748,0.008,0.000,0.000,-6.791,-5.698,3.627
14:53:14:411,39.828,0.001,-0.011,-0.007,-6.779,-5.756,3.752
14:53:14:411,39.828,-0.008,-0.015,-0.008,-6.764,-5.765,3.855
14:53:14:411,39.828,0.000,-0.003,-0.007,-6.738,-5.803,4.014
14:53:14:431,39.848,-0.003,-0.007,0.000,-6.715,-5.802,4.132
14:53:14:514,39.930,-0.003,-0.002,-0.005,-6.680,-5.830,4.295
14:53:14:514,39.931,0.003,0.007,0.002,-6.634,-5.853,4.458
14:53:14:515,39.932,-0.007,0.001,-0.001,-6.606,-5.850,4.578
14:53:14:593,40.010,-0.006,-0.009,-0.006,-6.573,-5.848,4.761
14:53:14:594,40.011,-0.029,-0.001,-0.004,-6.543,-5.829,4.864
14:53:14:594,40.011,-0.018,0.003,-0.003,-6.506,-5.849,4.979
14:53:14:671,40.088,-0.001,0.000,0.006,-6.470,-5.876,5.086
14:53:14:671,40.088,-0.010,-0.006,-0.004,-6.451,-5.870,5.157
14:53:14:672,40.089,-0.007,-0.006,0.000,-6.420,-5.896,5.251
14:53:14:691,40.108,-0.008,-0.001,-0.005,-6.399,-5.915,5.301
14:53:14:746,40.162,-0.010,-0.005,-0.004,-6.363,-5.957,5.366
14:53:14:771,40.188,0.003,0.001,-0.007,-6.328,-5.999,5.434
14:53:14:799,40.216,-0.003,-0.004,-0.004,-6.297,-6.000,5.483
14:53:14:8,40.217,-0.015,-0.001,-0.006,-6.262,-6.002,5.545
14:53:14:853,40.270,-0.011,-0.006,-0.002,-6.238,-6.058,5.581
14:53:14:853,40.270,-0.006,-0.003,-0.012,-6.205,-6.153,5.639
14:53:14:875,40.292,-0.007,-0.005,-0.005,-6.197,-6.221,5.678
14:53:14:93,40.347,-0.006,-0.002,-0.008,-6.181,-6.328,5.739
14:53:14:931,40.348,-0.013,-0.002,0.003,-6.172,-6.427,5.780
14:53:14:955,40.372,-0.009,-0.004,-0.009,-6.166,-6.501,5.790
14:53:15:007,40.424,-0.004,0.000,0.004,-6.153,-6.638,5.807
14:53:15:035,40.452,-0.009,-0.004,-0.007,-6.144,-6.716,5.813
14:53:15:036,40.453,-0.001,0.002,0.005,-6.134,-6.825,5.788
14:53:15:059,40.476,-0.009,-0.006,-0.003,-6.111,-6.895,5.762
14:53:15:115,40.532,-0.001,-0.005,-0.001,-6.101,-6.945,5.740
14:53:15:115,40.532,0.006,-0.002,0.002,-6.091,-7.006,5.730
14:53:15:139,40.556,-0.004,-0.006,-0.001,-6.094,-7.011,5.735
14:53:15:191,40.608,-0.001,-0.005,-0.003,-6.089,-7.012,5.770
14:53:15:22,40.637,-0.005,-0.003,0.001,-6.095,-6.989,5.789
14:53:15:22,40.637,-0.009,-0.002,-0.003,-6.102,-6.936,5.829
14:53:15:301,40.717,-0.004,-0.004,0.003,-6.108,-6.865,5.863
14:53:15:302,40.718,-0.008,-0.004,-0.003,-6.108,-6.816,5.889
14:53:15:302,40.719,-0.006,-0.001,0.004,-6.117,-6.729,5.915
14:53:15:381,40.798,-0.004,-0.001,-0.001,-6.125,-6.675,5.932
14:53:15:382,40.799,-0.006,-0.006,0.005,-6.134,-6.585,5.948
14:53:15:382,40.799,-0.006,-0.004,-0.003,-6.140,-6.514,5.982
14:53:15:489,40.906,-0.005,-0.004,0.002,-6.148,-6.460,5.999
14:53:15:489,40.906,-0.008,-0.003,-0.001,-6.158,-6.388,6.020
14:53:15:489,40.906,-0.003,-0.002,-0.005,-6.159,-6.369,6.029
14:53:15:49,40.907,-0.009,-0.003,0.002,-6.160,-6.319,6.056
14:53:15:567,40.984,-0.007,-0.003,-0.004,-6.168,-6.292,6.079
14:53:15:568,40.985,0.001,0.000,0.002,-6.167,-6.288,6.129
14:53:15:568,40.985,-0.012,-0.004,-0.008,-6.172,-6.278,6.182
14:53:15:569,40.986,-0.007,-0.003,-0.002,-6.173,-6.258,6.225
14:53:15:639,41.056,-0.005,-0.001,-0.002,-6.170,-6.258,6.272
14:53:15:64,41.057,-0.007,-0.005,0.002,-6.158,-6.263,6.295
14:53:15:752,41.169,-0.005,-0.004,-0.008,-6.162,-6.286,6.305
14:53:15:752,41.169,-0.004,-0.004,0.001,-6.156,-6.310,6.308
14:53:15:752,41.169,-0.004,-0.004,-0.002,-6.155,-6.319,6.309
14:53:15:753,41.170,-0.011,-0.002,0.003,-6.154,-6.332,6.309
14:53:15:769,41.185,-0.006,-0.002,-0.001,-6.149,-6.352,6.313
14:53:15:825,41.242,-0.003,-0.004,0.002,-6.131,-6.390,6.283
14:53:15:826,41.243,-0.003,-0.002,0.002,-6.101,-6.407,6.259
14:53:15:88,41.297,-0.003,0.001,0.005,-6.087,-6.417,6.267
14:53:15:88,41.297,-0.001,-0.001,-0.001,-6.062,-6.431,6.252
14:53:15:88,41.297,-0.001,-0.002,0.007,-6.050,-6.468,6.246
14:53:15:9,41.317,-0.006,-0.006,-0.002,-6.046,-6.514,6.256
14:53:15:925,41.342,-0.007,-0.005,0.001,-6.044,-6.550,6.257
14:53:16:012,41.429,-0.005,-0.001,-0.001,-6.041,-6.603,6.260
14:53:16:012,41.429,-0.005,0.000,0.006,-6.033,-6.631,6.260
14:53:16:012,41.429,-0.006,-0.005,0.001,-6.035,-6.636,6.264
14:53:16:033,41.450,-0.009,-0.002,0.003,-6.035,-6.636,6.264
14:53:16:085,41.502,-0.006,-0.003,0.005,-6.028,-6.651,6.263
14:53:16:086,41.503,-0.005,-0.002,0.003,-6.028,-6.692,6.269
14:53:16:109,41.526,-0.005,-0.002,0.004,-6.021,-6.725,6.273
14:53:16:276,41.693,-0.005,-0.004,-0.001,-6.025,-6.736,6.272
14:53:16:277,41.694,-0.006,-0.003,0.005,-6.019,-6.769,6.276
14:53:16:277,41.694,0.000,-0.003,-0.004,-6.018,-6.791,6.277
14:53:16:278,41.695,-0.008,-0.003,0.003,-6.015,-6.798,6.284
14:53:16:356,41.773,-0.007,-0.002,-0.002,-6.015,-6.796,6.295
14:53:16:356,41.773,-0.006,-0.002,0.006,-6.012,-6.824,6.314
14:53:16:356,41.773,-0.007,-0.002,-0.002,-6.012,-6.824,6.314
14:53:16:357,41.774,-0.007,-0.003,0.003,-6.012,-6.824,6.314
14:53:16:372,41.789,-0.004,-0.002,-0.002,-6.012,-6.824,6.314
14:53:16:432,41.849,-0.008,-0.003,0.005,-6.012,-6.824,6.314
14:53:16:432,41.849,-0.011,0.000,0.001,-6.012,-6.824,6.314
14:53:16:432,41.849,-0.009,-0.003,0.004,-6.012,-6.824,6.314
14:53:16:452,41.869,-0.004,-0.001,0.000,-6.012,-6.824,6.314
14:53:16:477,41.894,-0.009,-0.002,0.005,-6.012,-6.824,6.314
14:53:16:532,41.949,-0.008,-0.003,0.001,-6.012,-6.824,6.314
14:53:16:533,41.950,-0.013,-0.001,0.003,-6.012,-6.824,6.314
14:53:16:555,41.972,-0.007,0.001,0.001,-6.012,-6.824,6.314
14:53:16:611,42.027,-0.003,-0.003,0.006,-6.007,-6.826,6.316
14:53:16:611,42.028,-0.007,-0.001,-0.001,-6.002,-6.797,6.312
14:53:16:635,42.052,-0.010,-0.004,0.005,-6.002,-6.797,6.312
14:53:16:713,42.130,-0.010,-0.001,0.004,-6.002,-6.797,6.312
14:53:16:746,42.163,-0.011,-0.004,0.007,-6.002,-6.797,6.312
14:53:16:746,42.163,-0.003,-0.003,0.003,-6.001,-6.809,6.291
14:53:16:747,42.164,-0.004,-0.001,0.005,-6.001,-6.808,6.268
14:53:16:795,42.212,-0.006,-0.002,-0.001,-6.001,-6.805,6.258
14:53:16:795,42.212,-0.006,-0.002,0.008,-6.001,-6.805,6.258
14:53:16:82,42.237,-0.004,-0.002,0.004,-6.002,-6.823,6.263
14:53:16:902,42.319,-0.008,-0.002,0.003,-5.995,-6.829,6.261
14:53:16:903,42.320,-0.008,-0.001,0.007,-5.995,-6.829,6.261
14:53:16:904,42.320,-0.007,-0.006,0.004,-5.995,-6.829,6.261
14:53:16:954,42.371,-0.006,-0.003,0.005,-6.000,-6.838,6.248
14:53:16:954,42.371,-0.008,-0.002,0.004,-5.999,-6.839,6.237
14:53:16:975,42.392,-0.003,-0.002,0.006,-5.995,-6.838,6.228
14:53:17:06,42.476,-0.007,-0.004,-0.001,-5.995,-6.838,6.228
14:53:17:061,42.477,-0.008,-0.003,0.008,-5.995,-6.838,6.228
14:53:17:061,42.478,-0.008,-0.002,0.000,-5.995,-6.838,6.228
14:53:17:08,42.497,-0.004,-0.004,0.004,-5.995,-6.838,6.228
14:53:17:165,42.582,-0.003,-0.005,0.000,-5.995,-6.838,6.228
14:53:17:165,42.582,-0.004,-0.002,0.006,-5.995,-6.838,6.228
14:53:17:166,42.583,-0.006,-0.006,-0.001,-5.995,-6.838,6.228
14:53:17:185,42.602,-0.005,-0.002,0.006,-5.995,-6.838,6.228
14:53:17:241,42.657,-0.005,0.000,-0.002,-5.998,-6.823,6.220
14:53:17:241,42.658,-0.004,-0.001,0.005,-6.001,-6.796,6.223
14:53:17:322,42.739,-0.002,0.000,0.002,-6.005,-6.779,6.227
14:53:17:323,42.740,-0.011,-0.003,0.005,-6.011,-6.747,6.245
14:53:17:324,42.741,-0.005,-0.004,0.001,-6.010,-6.730,6.262
14:53:17:343,42.760,-0.012,-0.003,0.003,-6.014,-6.702,6.277
14:53:17:428,42.845,-0.009,-0.002,0.002,-6.014,-6.702,6.277
14:53:17:429,42.846,-0.010,-0.001,0.006,-6.014,-6.702,6.277
14:53:17:429,42.846,-0.006,-0.001,0.005,-6.014,-6.702,6.277
14:53:17:45,42.866,-0.009,-0.006,0.005,-6.009,-6.713,6.279
14:53:17:503,42.920,-0.006,0.001,-0.001,-6.011,-6.747,6.279
14:53:17:504,42.921,-0.009,-0.003,0.008,-6.001,-6.769,6.284
14:53:17:526,42.943,-0.002,-0.002,0.004,-6.004,-6.802,6.284
14:53:17:582,42.999,-0.005,-0.002,0.002,-6.001,-6.818,6.291
14:53:17:582,42.999,-0.006,-0.001,0.000,-6.001,-6.818,6.291
14:53:17:607,43.024,-0.006,-0.003,0.003,-6.001,-6.818,6.291
14:53:17:658,43.075,-0.006,0.000,0.005,-6.001,-6.818,6.291
14:53:17:688,43.105,-0.010,-0.003,-0.006,-6.002,-6.796,6.290
14:53:17:688,43.105,-0.005,-0.002,0.003,-6.008,-6.762,6.286
14:53:17:71,43.127,-0.011,-0.001,0.006,-6.008,-6.762,6.286
14:53:17:74,43.157,-0.005,-0.003,0.000,-6.008,-6.762,6.286
14:53:17:763,43.180,-0.006,-0.006,-0.003,-6.008,-6.762,6.286
14:53:17:79,43.207,-0.008,-0.003,0.004,-6.008,-6.762,6.286
14:53:17:816,43.232,-0.005,-0.003,-0.003,-6.001,-6.769,6.284
14:53:17:841,43.258,-0.008,-0.002,0.005,-6.007,-6.785,6.288
14:53:17:868,43.285,-0.006,-0.003,-0.006,-6.018,-6.790,6.288
14:53:17:922,43.339,-0.009,-0.001,-0.001,-6.030,-6.804,6.293
14:53:17:95,43.366,-0.001,0.001,-0.004,-6.033,-6.797,6.286
14:53:17:95,43.367,0.004,-0.001,0.008,-6.033,-6.748,6.279
14:53:17:976,43.392,-0.017,-0.005,-0.009,-6.034,-6.580,6.297
14:53:17:976,43.393,-0.017,-0.008,0.002,-6.042,-6.439,6.312
14:53:18:028,43.445,-0.009,-0.004,-0.005,-6.048,-6.406,6.308
14:53:18:054,43.471,-0.009,-0.004,0.003,-6.049,-6.384,6.307
14:53:18:055,43.472,-0.012,0.001,-0.001,-6.052,-6.377,6.300
14:53:18:109,43.526,-0.005,-0.003,0.004,-6.050,-6.372,6.295
14:53:18:109,43.526,-0.010,-0.004,-0.005,-6.048,-6.366,6.301
14:53:18:161,43.577,-0.008,-0.005,0.004,-6.053,-6.355,6.299
14:53:18:161,43.577,-0.010,-0.002,0.000,-6.053,-6.355,6.299
14:53:18:212,43.629,-0.005,-0.002,0.000,-6.057,-6.357,6.296
14:53:18:212,43.629,-0.010,-0.002,-0.001,-6.057,-6.357,6.296
14:53:18:293,43.710,-0.008,-0.008,-0.003,-6.059,-6.371,6.302
14:53:18:294,43.711,-0.003,-0.002,-0.008,-6.052,-6.406,6.294
14:53:18:295,43.712,-0.007,-0.004,0.003,-6.052,-6.406,6.294
14:53:18:314,43.731,-0.012,-0.003,-0.004,-6.053,-6.393,6.294
14:53:18:399,43.816,-0.001,-0.005,-0.004,-6.054,-6.411,6.299
14:53:18:399,43.816,-0.004,-0.004,0.000,-6.054,-6.411,6.299
14:53:18:4,43.817,-0.007,0.000,-0.002,-6.054,-6.411,6.299
14:53:18:419,43.836,-0.003,-0.003,-0.001,-6.054,-6.411,6.299
14:53:18:475,43.891,-0.007,-0.001,-0.006,-6.054,-6.411,6.299
14:53:18:475,43.892,-0.007,-0.003,-0.001,-6.054,-6.411,6.299
14:53:18:501,43.917,-0.008,0.002,-0.006,-6.054,-6.411,6.299
14:53:18:553,43.970,-0.006,-0.004,-0.007,-6.054,-6.411,6.299
14:53:18:554,43.971,-0.005,0.001,-0.005,-6.054,-6.411,6.299
14:53:18:576,43.993,-0.008,-0.004,-0.005,-6.054,-6.411,6.299
14:53:18:631,44.048,-0.004,-0.001,-0.008,-6.054,-6.411,6.299
14:53:18:658,44.075,-0.002,-0.004,0.000,-6.049,-6.422,6.302
14:53:18:659,44.076,-0.007,-0.001,-0.004,-6.049,-6.433,6.314
14:53:18:682,44.098,-0.010,-0.006,-0.002,-6.046,-6.437,6.310
14:53:18:708,44.125,-0.006,-0.004,-0.007,-6.042,-6.466,6.318
14:53:18:734,44.151,-0.013,-0.001,0.003,-6.040,-6.511,6.320
14:53:18:76,44.177,-0.009,0.000,-0.005,-6.040,-6.560,6.327
14:53:18:816,44.233,-0.003,-0.002,0.000,-6.030,-6.619,6.328
14:53:18:817,44.234,-0.006,-0.004,-0.005,-6.028,-6.644,6.340
14:53:18:84,44.256,-0.009,-0.003,0.001,-6.017,-6.698,6.370
14:53:18:924,44.341,-0.005,-0.004,0.002,-6.017,-6.737,6.387
14:53:18:924,44.341,-0.008,-0.005,0.001,-6.018,-6.755,6.392
14:53:18:925,44.342,-0.005,-0.005,-0.006,-6.012,-6.789,6.418
14:53:18:946,44.363,-0.004,-0.004,0.000,-6.012,-6.789,6.418
14:53:19:,44.416,-0.007,-0.005,-0.003,-6.007,-6.790,6.432
14:53:19:,44.417,-0.007,-0.003,0.000,-6.010,-6.793,6.448
14:53:19:024,44.441,-0.007,-0.003,-0.007,-6.008,-6.789,6.465
14:53:19:05,44.467,-0.007,-0.004,-0.002,-6.015,-6.783,6.467
14:53:19:106,44.523,-0.009,-0.002,-0.007,-6.013,-6.770,6.462
14:53:19:106,44.523,-0.010,-0.003,0.001,-6.013,-6.770,6.462
14:53:19:128,44.545,-0.007,-0.003,-0.003,-6.016,-6.761,6.466
14:53:19:184,44.601,-0.011,-0.002,-0.005,-6.016,-6.761,6.466
14:53:19:184,44.601,-0.007,-0.004,-0.005,-6.016,-6.761,6.466
14:53:19:266,44.683,-0.007,-0.001,-0.002,-6.014,-6.756,6.461
14:53:19:266,44.683,-0.009,-0.005,-0.002,-6.015,-6.734,6.460
14:53:19:267,44.684,-0.008,-0.004,-0.001,-6.015,-6.734,6.460
14:53:19:37,44.787,-0.006,-0.003,-0.007,-6.017,-6.730,6.464
14:53:19:371,44.787,-0.011,-0.004,-0.002,-6.017,-6.731,6.486
14:53:19:372,44.788,-0.006,-0.001,-0.007,-6.017,-6.731,6.486
14:53:19:449,44.866,-0.012,-0.004,-0.002,-6.017,-6.731,6.486
14:53:19:449,44.866,-0.007,-0.001,-0.010,-6.017,-6.731,6.486
14:53:19:45,44.867,-0.009,-0.002,-0.004,-6.017,-6.731,6.486
14:53:19:469,44.886,-0.011,-0.005,-0.009,-6.017,-6.731,6.486
14:53:19:554,44.971,-0.012,-0.002,0.001,-6.017,-6.731,6.486
14:53:19:555,44.972,-0.009,-0.001,-0.007,-6.019,-6.745,6.492
14:53:19:555,44.972,-0.012,-0.003,-0.002,-6.018,-6.767,6.493
14:53:19:602,45.019,-0.013,-0.002,-0.005,-6.018,-6.767,6.493
14:53:19:63,45.047,-0.009,-0.001,-0.001,-6.010,-6.786,6.491
14:53:19:63,45.047,-0.009,-0.003,-0.001,-6.012,-6.800,6.497
14:53:19:655,45.072,-0.011,0.000,0.000,-6.012,-6.800,6.497
14:53:19:681,45.097,-0.008,-0.005,-0.005,-6.012,-6.800,6.497
14:53:19:707,45.123,-0.013,-0.006,-0.002,-6.005,-6.806,6.495
14:53:19:733,45.150,-0.011,-0.001,-0.004,-5.994,-6.801,6.494
14:53:19:758,45.175,-0.008,-0.002,-0.004,-5.994,-6.801,6.494
14:53:19:814,45.231,-0.008,-0.004,-0.001,-5.994,-6.801,6.494
14:53:19:814,45.231,-0.010,-0.001,0.003,-5.994,-6.801,6.494
14:53:19:895,45.312,-0.008,-0.002,-0.002,-5.994,-6.801,6.494
14:53:19:896,45.313,-0.009,-0.004,-0.003,-6.002,-6.801,6.490
14:53:19:896,45.313,-0.006,-0.003,0.000,-5.997,-6.785,6.487
14:53:19:916,45.332,-0.009,-0.005,0.001,-6.003,-6.761,6.484
14:53:19:971,45.388,-0.009,-0.002,-0.001,-6.008,-6.740,6.491
14:53:19:972,45.389,-0.009,-0.002,0.002,-6.007,-6.724,6.497
14:53:19:995,45.412,-0.012,-0.006,-0.002,-6.009,-6.690,6.518
14:53:20:021,45.438,-0.010,0.000,-0.005,-6.014,-6.670,6.514
14:53:20:076,45.493,-0.013,-0.001,-0.001,-6.013,-6.664,6.521
14:53:20:077,45.493,-0.011,-0.002,-0.008,-6.013,-6.664,6.521
14:53:20:099,45.516,-0.009,-0.006,-0.004,-6.014,-6.670,6.514
14:53:20:155,45.572,-0.004,-0.002,-0.007,-6.008,-6.703,6.518
14:53:20:155,45.572,-0.010,-0.002,0.000,-6.010,-6.717,6.524
14:53:20:236,45.653,-0.009,-0.002,-0.003,-6.004,-6.741,6.527
14:53:20:236,45.653,-0.012,-0.002,0.001,-6.003,-6.764,6.528
14:53:20:261,45.678,-0.008,-0.001,-0.008,-6.003,-6.764,6.528
14:53:20:261,45.678,-0.008,-0.002,0.001,-6.003,-6.764,6.528
14:53:20:342,45.759,-0.007,-0.002,-0.008,-6.003,-6.764,6.528
14:53:20:343,45.760,-0.012,-0.003,0.001,-6.003,-6.764,6.528
14:53:20:343,45.760,-0.010,-0.002,-0.004,-6.003,-6.764,6.528
14:53:20:364,45.781,-0.011,-0.003,-0.001,-6.003,-6.764,6.528
14:53:20:365,45.782,-0.011,-0.002,-0.006,-6.003,-6.764,6.528
14:53:20:417,45.834,-0.011,-0.004,0.000,-6.001,-6.786,6.529
14:53:20:418,45.835,-0.014,-0.001,-0.003,-5.995,-6.819,6.533
14:53:20:441,45.858,-0.010,-0.004,-0.002,-5.994,-6.841,6.534
14:53:20:497,45.914,-0.012,-0.003,-0.007,-5.987,-6.874,6.538
14:53:20:498,45.915,-0.008,-0.004,0.004,-5.984,-6.900,6.535
14:53:20:607,46.024,-0.011,-0.004,-0.004,-5.981,-6.944,6.515
14:53:20:607,46.024,-0.009,-0.002,-0.004,-5.980,-6.965,6.494
14:53:20:608,46.025,-0.001,-0.002,-0.002,-5.980,-6.965,6.494
14:53:20:624,46.041,-0.009,-0.002,-0.001,-5.980,-6.966,6.516
14:53:20:679,46.096,-0.009,0.000,-0.001,-5.980,-6.967,6.538
14:53:20:68,46.097,-0.013,-0.003,-0.003,-5.984,-6.939,6.553
14:53:20:704,46.121,-0.015,-0.004,-0.001,-5.987,-6.923,6.545
14:53:20:76,46.177,-0.014,0.000,0.000,-5.989,-6.892,6.543
14:53:20:761,46.177,-0.010,-0.005,-0.009,-5.990,-6.870,6.542
14:53:20:782,46.198,-0.006,-0.005,-0.009,-5.993,-6.860,6.524
14:53:20:868,46.285,0.001,0.001,-0.007,-5.967,-6.851,6.537
14:53:20:868,46.285,-0.017,-0.001,-0.001,-5.950,-6.829,6.566
14:53:20:868,46.285,-0.018,-0.004,-0.006,-5.936,-6.840,6.629
14:53:20:888,46.305,-0.019,-0.005,-0.003,-5.927,-6.881,6.662
14:53:20:944,46.361,-0.017,-0.005,-0.006,-5.921,-6.962,6.684
14:53:20:944,46.361,-0.020,-0.004,0.001,-5.912,-7.029,6.667
14:53:20:965,46.382,-0.008,-0.002,-0.004,-5.897,-7.138,6.633
14:53:21:02,46.437,-0.004,0.000,-0.003,-5.887,-7.196,6.578
14:53:21:047,46.464,-0.013,-0.004,-0.010,-5.891,-7.195,6.543
14:53:21:048,46.465,-0.002,-0.002,0.006,-5.884,-7.193,6.506
14:53:21:13,46.547,-0.007,-0.003,-0.008,-5.879,-7.163,6.503
14:53:21:13,46.547,-0.009,-0.004,0.005,-5.866,-7.123,6.514
14:53:21:13,46.547,-0.008,0.000,-0.002,-5.848,-7.084,6.538
14:53:21:208,46.624,-0.015,-0.004,-0.002,-5.842,-7.040,6.563
14:53:21:208,46.625,-0.014,-0.001,-0.003,-5.825,-6.991,6.586
14:53:21:209,46.626,-0.017,0.002,0.000,-5.827,-6.996,6.591
14:53:21:228,46.645,-0.019,-0.005,-0.003,-5.821,-7.020,6.594
14:53:21:313,46.730,-0.009,0.000,-0.003,-5.818,-7.035,6.580
14:53:21:314,46.731,-0.006,-0.001,-0.007,-5.819,-7.012,6.523
14:53:21:314,46.731,-0.010,-0.002,0.003,-5.803,-6.939,6.446
14:53:21:333,46.750,-0.013,0.001,0.000,-5.796,-6.893,6.392
14:53:21:389,46.805,-0.019,-0.007,0.002,-5.800,-6.852,6.317
14:53:21:389,46.806,0.001,-0.004,0.001,-5.805,-6.839,6.270
14:53:21:412,46.828,-0.004,-0.004,-0.001,-5.807,-6.794,6.212
14:53:21:467,46.884,-0.015,-0.005,-0.001,-5.813,-6.734,6.203
14:53:21:468,46.885,-0.008,-0.003,0.000,-5.813,-6.694,6.196
14:53:21:49,46.907,-0.009,-0.002,0.001,-5.823,-6.623,6.184
14:53:21:576,46.993,-0.014,-0.002,-0.006,-5.828,-6.572,6.175
14:53:21:576,46.993,-0.013,-0.003,-0.001,-5.830,-6.539,6.151
14:53:21:577,46.993,-0.015,-0.001,-0.007,-5.830,-6.538,6.129
14:53:21:596,47.013,-0.004,-0.004,0.000,-5.834,-6.537,6.093
14:53:21:622,47.038,-0.008,-0.005,-0.009,-5.831,-6.544,6.067
14:53:21:648,47.065,-0.009,0.000,0.001,-5.828,-6.559,6.052
14:53:21:674,47.091,-0.014,-0.005,-0.008,-5.830,-6.565,6.046
14:53:21:702,47.119,-0.015,-0.004,-0.002,-5.830,-6.564,6.023
14:53:21:727,47.144,-0.006,0.000,-0.008,-5.846,-6.605,5.984
14:53:21:753,47.170,-0.012,-0.007,-0.002,-5.869,-6.622,5.945
14:53:21:779,47.196,-0.004,-0.005,-0.008,-5.882,-6.623,5.916
14:53:21:806,47.223,-0.005,-0.002,0.001,-5.900,-6.613,5.862
14:53:21:834,47.251,-0.014,-0.007,-0.006,-5.914,-6.638,5.829
14:53:21:887,47.304,-0.014,-0.003,-0.003,-5.937,-6.677,5.791
14:53:21:888,47.304,-0.007,-0.004,-0.008,-5.952,-6.721,5.762
14:53:21:911,47.327,-0.012,-0.002,-0.004,-5.973,-6.751,5.720
14:53:21:937,47.354,-0.011,-0.005,-0.005,-5.997,-6.756,5.669
14:53:21:99,47.407,-0.008,-0.003,-0.001,-6.006,-6.757,5.632
14:53:22:018,47.435,-0.007,-0.005,-0.006,-6.023,-6.755,5.579
14:53:22:019,47.436,-0.001,0.001,-0.004,-6.044,-6.739,5.540
14:53:22:042,47.459,0.004,0.006,0.010,-6.031,-6.628,5.510
14:53:22:097,47.514,-0.017,-0.010,-0.012,-6.041,-6.416,5.488
14:53:22:098,47.515,-0.020,-0.007,-0.008,-6.047,-6.335,5.499
14:53:22:122,47.539,-0.021,-0.003,-0.005,-6.056,-6.244,5.492
14:53:22:176,47.593,-0.010,-0.006,-0.003,-6.065,-6.236,5.487
14:53:22:199,47.616,-0.008,-0.001,-0.002,-6.076,-6.250,5.488
14:53:22:253,47.670,-0.015,-0.006,0.001,-6.076,-6.252,5.499
14:53:22:281,47.697,-0.017,0.000,-0.002,-6.077,-6.268,5.494
14:53:22:282,47.698,-0.009,-0.004,-0.014,-6.074,-6.297,5.502
14:53:22:305,47.722,-0.016,-0.006,-0.006,-6.069,-6.305,5.493
14:53:22:361,47.778,-0.007,-0.003,-0.006,-6.068,-6.317,5.472
14:53:22:361,47.778,-0.006,-0.003,-0.005,-6.070,-6.335,5.477
14:53:22:383,47.800,-0.012,-0.002,-0.012,-6.067,-6.348,5.474
14:53:22:439,47.856,-0.010,-0.001,-0.002,-6.066,-6.352,5.473
14:53:22:44,47.857,-0.007,-0.004,-0.012,-6.066,-6.352,5.473
14:53:22:463,47.879,-0.010,-0.003,0.000,-6.066,-6.352,5.473
14:53:22:488,47.905,-0.014,-0.004,-0.009,-6.066,-6.352,5.473
14:53:22:514,47.931,-0.011,-0.007,-0.002,-6.066,-6.352,5.473
14:53:22:544,47.961,-0.012,-0.005,-0.009,-6.066,-6.361,5.474
14:53:22:544,47.961,-0.012,-0.005,-0.003,-6.067,-6.379,5.479
14:53:22:596,48.013,-0.013,-0.004,-0.004,-6.064,-6.406,5.476
14:53:22:596,48.013,-0.010,0.000,-0.001,-6.055,-6.455,5.488
14:53:22:62,48.037,-0.008,-0.003,-0.005,-6.054,-6.468,5.488
14:53:22:701,48.118,-0.010,-0.004,-0.004,-6.054,-6.468,5.488
14:53:22:731,48.148,-0.011,-0.002,-0.005,-6.060,-6.444,5.485
14:53:22:731,48.148,-0.011,-0.007,-0.006,-6.059,-6.417,5.479
14:53:22:731,48.148,-0.011,-0.006,-0.007,-6.060,-6.395,5.478
14:53:22:752,48.169,-0.012,-0.003,-0.005,-6.060,-6.395,5.478
14:53:22:807,48.224,-0.011,-0.003,-0.008,-6.063,-6.388,5.471
14:53:22:807,48.224,-0.009,-0.005,-0.004,-6.063,-6.388,5.471
14:53:22:829,48.246,-0.010,-0.003,-0.002,-6.063,-6.388,5.471
14:53:22:855,48.272,-0.011,0.000,-0.001,-6.064,-6.415,5.477
14:53:22:882,48.299,-0.016,-0.003,-0.005,-6.057,-6.421,5.475
14:53:22:91,48.327,-0.007,-0.007,0.001,-6.062,-6.450,5.479
14:53:22:936,48.353,-0.012,-0.002,-0.004,-6.051,-6.494,5.485
14:53:22:961,48.378,-0.013,-0.005,-0.004,-6.050,-6.525,5.487
14:53:22:987,48.404,-0.011,-0.003,-0.002,-6.045,-6.577,5.496
14:53:23:072,48.489,-0.009,-0.003,-0.006,-6.041,-6.616,5.494
14:53:23:072,48.489,-0.010,-0.003,-0.002,-6.036,-6.667,5.503
14:53:23:073,48.490,-0.003,0.000,-0.006,-6.033,-6.228,5.498
14:53:23:092,48.509,-0.006,-0.003,-0.001,-6.029,-6.266,5.507
14:53:23:118,48.535,-0.009,-0.007,-0.010,-6.027,-5.973,5.504
14:53:23:144,48.561,-0.011,-0.004,-0.002,-6.028,-5.991,5.510
14:53:23:17,48.587,-0.009,0.001,-0.012,-6.022,-5.856,5.509
14:53:23:255,48.672,-0.008,-0.003,-0.002,-6.023,-5.874,5.515
14:53:23:256,48.673,-0.010,-0.003,-0.009,-6.019,-5.648,5.538
14:53:23:256,48.673,-0.012,-0.003,-0.001,-6.020,-5.369,5.575
14:53:23:275,48.692,-0.015,-0.002,-0.008,-6.022,-5.375,5.602
14:53:23:302,48.719,-0.009,-0.005,-0.001,-6.018,-5.376,5.637
14:53:23:328,48.745,-0.009,-0.005,-0.002,-6.018,-5.378,5.659
14:53:23:357,48.773,-0.008,-0.004,-0.001,-6.020,-5.217,5.693
14:53:23:439,48.856,-0.011,-0.002,-0.011,-6.020,-5.219,5.715
14:53:23:439,48.856,-0.007,-0.002,-0.003,-6.018,-5.058,5.740
14:53:23:44,48.857,-0.011,0.000,-0.004,-6.026,-5.031,5.763
14:53:23:459,48.876,-0.014,-0.008,-0.004,-6.026,-5.000,5.780
14:53:23:485,48.902,-0.012,-0.003,-0.007,-6.030,-4.974,5.783
14:53:23:512,48.928,-0.004,0.002,-0.001,-6.029,-4.937,5.787
14:53:23:54,48.956,-0.011,-0.006,-0.005,-6.033,-4.908,5.779
14:53:23:565,48.982,-0.012,-0.007,-0.006,-6.040,-4.852,5.774
14:53:23:59,49.007,-0.012,-0.002,-0.008,-6.037,-4.832,5.775
14:53:23:617,49.034,-0.010,-0.004,-0.005,-6.040,-4.775,5.772
14:53:23:673,49.089,-0.010,-0.004,-0.003,-6.036,-4.763,5.774
14:53:23:674,49.090,-0.016,-0.005,-0.004,-6.043,-4.709,5.791
14:53:23:696,49.113,-0.016,-0.002,-0.004,-6.043,-4.709,5.791
14:53:23:722,49.138,-0.014,-0.004,-0.007,-6.040,-4.636,5.785
14:53:23:748,49.165,-0.012,0.000,-0.004,-6.040,-4.636,5.785
14:53:23:774,49.191,-0.008,-0.005,-0.002,-6.040,-4.470,5.792
14:53:23:861,49.278,-0.011,-0.006,-0.001,-6.046,-4.445,5.788
14:53:23:861,49.278,-0.005,0.003,-0.010,-6.046,-4.345,5.785
14:53:23:862,49.278,-0.008,-0.002,-0.004,-6.051,-4.295,5.798
14:53:24:013,49.430,-0.019,-0.005,-0.011,-6.056,-4.076,5.807
14:53:24:046,49.463,-0.006,-0.004,-0.002,-6.054,-4.074,5.813
14:53:24:047,49.464,-0.011,-0.004,-0.013,-6.054,-3.992,5.811
14:53:24:047,49.464,-0.010,-0.002,-0.006,-6.059,-3.972,5.808
14:53:24:048,49.465,-0.010,-0.001,-0.006,-6.063,-3.915,5.805
14:53:24:069,49.486,-0.013,-0.007,-0.008,-6.064,-3.844,5.819
14:53:24:069,49.486,-0.011,-0.003,-0.009,-6.066,-3.821,5.829
14:53:24:07,49.487,-0.018,0.002,-0.002,-6.071,-3.801,5.825
14:53:24:12,49.537,-0.016,-0.004,-0.010,-6.071,-3.801,5.825
14:53:24:121,49.537,-0.019,-0.005,-0.003,-6.069,-3.845,5.828
14:53:24:142,49.558,-0.012,-0.001,-0.001,-6.069,-3.854,5.828
14:53:24:197,49.613,-0.015,0.000,-0.001,-6.068,-3.867,5.829
14:53:24:223,49.639,-0.015,-0.003,-0.009,-6.066,-3.898,5.831
14:53:24:25,49.667,-0.011,-0.003,0.000,-6.064,-3.905,5.838
14:53:24:251,49.667,-0.011,-0.002,-0.004,-6.061,-3.923,5.834
14:53:24:303,49.720,-0.014,-0.001,-0.007,-6.064,-3.805,5.834
14:53:24:303,49.720,-0.014,-0.005,-0.007,-6.056,-3.805,5.839
14:53:24:325,49.742,-0.009,-0.001,0.001,-6.046,-3.815,5.833
14:53:24:381,49.798,-0.008,-0.004,-0.002,-6.046,-3.815,5.833
14:53:24:382,49.798,-0.010,-0.003,-0.001,-6.049,-3.729,5.835
14:53:24:463,49.880,-0.014,-0.002,-0.004,-6.038,-3.715,5.835
14:53:24:463,49.880,-0.017,0.000,-0.002,-6.012,-3.732,5.831
14:53:24:464,49.881,-0.018,-0.003,-0.003,-5.997,-3.724,5.834
14:53:24:483,49.900,-0.020,-0.006,-0.003,-5.975,-3.646,5.832
14:53:24:538,49.955,-0.018,-0.006,-0.001,-5.949,-3.699,5.824
14:53:24:539,49.956,-0.006,-0.003,-0.005,-5.923,-3.768,5.806
14:53:24:562,49.979,-0.011,-0.002,-0.004,-5.908,-3.828,5.787
14:53:24:588,50.005,-0.016,-0.005,-0.009,-5.909,-3.855,5.793
14:53:24:614,50.031,-0.009,-0.001,-0.002,-5.912,-3.900,5.804
14:53:24:641,50.058,-0.012,-0.004,-0.011,-5.889,-3.951,5.822
14:53:24:669,50.086,-0.013,-0.001,-0.001,-5.875,-3.984,5.831
14:53:24:757,50.173,-0.013,0.000,-0.012,-5.850,-4.030,5.844
14:53:24:757,50.173,-0.011,-0.003,-0.001,-5.834,-4.057,5.859
14:53:24:757,50.173,-0.013,0.000,-0.006,-5.810,-4.089,5.872
14:53:24:757,50.173,-0.009,-0.006,0.005,-5.784,-4.001,5.895
14:53:24:798,50.215,-0.004,-0.001,-0.003,-5.756,-4.033,5.899
14:53:24:824,50.241,0.000,0.001,0.005,-5.728,-4.067,5.914
14:53:24:854,50.271,-0.014,-0.008,-0.003,-5.707,-4.057,5.947
14:53:24:854,50.271,-0.002,-0.003,0.001,-5.673,-4.058,6.010
14:53:24:935,50.352,0.000,0.001,-0.001,-5.651,-4.039,6.060
14:53:24:936,50.353,-0.003,-0.004,-0.002,-5.617,-3.986,6.178
14:53:24:937,50.354,-0.004,-0.005,0.001,-5.574,-3.855,6.320
14:53:24:956,50.373,-0.010,-0.003,0.005,-5.544,-3.740,6.425
14:53:24:982,50.399,-0.009,-0.006,-0.004,-5.512,-3.582,6.590
14:53:25:01,50.427,-0.011,-0.007,-0.001,-5.488,-3.475,6.697
14:53:25:035,50.452,-0.011,0.001,0.003,-5.460,-3.299,6.867
14:53:25:061,50.477,-0.021,0.001,0.007,-5.456,-3.126,7.030
14:53:25:117,50.534,-0.029,-0.007,-0.002,-5.466,-3.027,7.125
14:53:25:117,50.534,-0.029,0.001,-0.001,-5.486,-2.943,7.209
14:53:25:168,50.585,0.000,-0.003,0.001,-5.519,-2.935,7.237
14:53:25:195,50.611,0.008,0.000,0.003,-5.563,-2.910,7.242
14:53:25:195,50.612,-0.010,-0.004,-0.004,-5.593,-2.849,7.276
14:53:25:219,50.636,-0.019,0.001,-0.004,-5.648,-2.738,7.347
14:53:25:244,50.661,-0.027,-0.003,-0.006,-5.706,-2.692,7.424
14:53:25:271,50.688,-0.021,-0.006,-0.002,-5.736,-2.717,7.442
14:53:25:297,50.714,-0.022,-0.005,-0.003,-5.769,-2.846,7.421
14:53:25:323,50.740,-0.010,-0.002,-0.013,-5.786,-2.981,7.380
14:53:25:35,50.767,-0.020,-0.002,-0.008,-5.807,-3.244,7.277
14:53:25:376,50.793,-0.005,-0.001,-0.008,-5.803,-3.538,7.132
14:53:25:46,50.877,-0.003,-0.003,-0.002,-5.782,-3.739,7.033
14:53:25:461,50.878,-0.005,-0.002,-0.005,-5.742,-4.026,6.879
14:53:25:462,50.879,-0.007,-0.002,-0.002,-5.717,-4.226,6.771
14:53:25:481,50.898,-0.009,0.001,-0.012,-5.689,-4.489,6.601
14:53:25:507,50.924,0.000,0.000,0.003,-5.652,-4.656,6.483
14:53:25:533,50.950,-0.004,-0.004,-0.006,-5.594,-4.857,6.298
14:53:25:56,50.977,-0.010,0.009,0.010,-5.540,-5.003,6.121
14:53:25:644,51.060,-0.005,-0.010,-0.005,-5.515,-5.098,6.001
14:53:25:645,51.061,-0.001,-0.004,0.008,-5.500,-5.241,5.844
14:53:25:646,51.063,-0.004,-0.007,-0.002,-5.489,-5.329,5.750
14:53:25:722,51.139,-0.004,-0.004,-0.002,-5.482,-5.408,5.639
14:53:25:723,51.140,0.020,-0.007,0.007,-5.510,-5.433,5.569
14:53:25:724,51.141,-0.004,-0.001,0.001,-5.557,-5.347,5.549
14:53:25:743,51.160,0.000,-0.011,-0.010,-5.620,-5.240,5.548
14:53:25:799,51.215,0.002,-0.008,-0.011,-5.664,-5.174,5.570
14:53:25:8,51.216,0.000,0.003,-0.001,-5.713,-4.958,5.601
14:53:25:822,51.239,-0.011,0.001,0.009,-5.736,-4.779,5.619
14:53:25:906,51.323,-0.013,-0.006,-0.002,-5.786,-4.584,5.666
14:53:25:907,51.324,0.000,-0.001,0.000,-5.830,-4.440,5.719
14:53:25:908,51.325,-0.005,0.001,-0.001,-5.862,-4.324,5.761
14:53:25:927,51.344,-0.014,-0.003,-0.002,-5.901,-4.175,5.856
14:53:25:955,51.371,-0.012,-0.007,-0.002,-5.923,-4.121,5.910
14:53:25:981,51.398,-0.007,-0.002,-0.002,-5.944,-4.050,5.960
14:53:26:066,51.483,-0.008,0.003,0.001,-5.951,-3.978,5.994
14:53:26:066,51.483,-0.009,-0.010,-0.005,-5.957,-3.946,6.012
14:53:26:066,51.483,-0.005,-0.006,0.000,-5.962,-3.919,6.026
14:53:26:141,51.558,-0.007,-0.002,-0.004,-5.961,-3.892,6.020
14:53:26:142,51.559,-0.005,-0.003,0.001,-5.970,-3.841,6.020
14:53:26:166,51.583,0.002,0.001,-0.007,-5.976,-3.779,6.021
14:53:26:167,51.584,-0.010,-0.004,-0.008,-5.985,-3.703,6.037
14:53:26:191,51.608,-0.011,-0.003,-0.007,-5.999,-3.626,6.072
14:53:26:216,51.633,-0.008,-0.001,-0.006,-6.008,-3.575,6.072
14:53:26:242,51.659,-0.003,-0.002,-0.007,-6.014,-3.513,6.073
14:53:26:268,51.685,0.000,-0.001,0.000,-6.019,-3.462,6.064
14:53:26:323,51.740,-0.013,-0.004,-0.013,-6.028,-3.362,6.056
14:53:26:324,51.741,-0.008,-0.002,0.007,-6.039,-3.278,6.043
14:53:26:347,51.764,-0.012,-0.001,-0.002,-6.048,-3.226,6.020
14:53:26:403,51.820,-0.014,-0.001,-0.004,-6.053,-3.179,5.960
14:53:26:404,51.821,-0.020,-0.006,-0.016,-6.052,-3.156,5.903
14:53:26:454,51.871,-0.008,-0.009,0.002,-6.065,-3.137,5.811
14:53:26:481,51.898,-0.005,-0.001,-0.002,-6.074,-3.157,5.716
14:53:26:482,51.898,-0.010,0.000,-0.006,-6.097,-3.199,5.661
14:53:26:505,51.922,-0.003,-0.005,-0.007,-6.119,-3.262,5.566
14:53:26:532,51.949,-0.020,-0.005,-0.001,-6.135,-3.259,5.490
14:53:26:587,52.004,-0.003,0.000,0.000,-6.171,-3.323,5.337
14:53:26:587,52.004,-0.005,-0.003,-0.005,-6.212,-3.413,5.155
14:53:26:61,52.027,-0.004,-0.003,-0.006,-6.233,-3.445,5.021
14:53:26:665,52.082,-0.001,0.000,-0.002,-6.266,-3.509,4.831
