Time,Second,AccelerationX,AccelerationY,AccelerationZ,EulerAnglesX,EulerAnglesY,EulerAnglesZ
14:44:40:789,0.000,0.325,-0.064,0.087,5.356,-15.160,-7.190
14:44:40:876,0.087,0.337,-0.012,0.136,5.398,-16.405,-6.214
14:44:40:877,0.088,0.340,0.036,0.147,5.393,-17.168,-5.702
14:44:40:877,0.088,0.369,0.031,0.166,5.414,-18.152,-5.055
14:44:40:878,0.089,0.339,0.055,0.141,5.401,-18.714,-4.623
14:44:40:93,0.141,0.298,0.102,0.133,5.404,-19.044,-4.492
14:44:40:93,0.141,0.296,0.086,0.129,5.472,-19.847,-4.439
14:44:40:93,0.141,0.326,0.024,0.154,5.541,-20.592,-4.474
14:44:40:93,0.141,0.361,-0.013,0.175,5.606,-21.538,-4.681
14:44:41:008,0.219,0.362,0.013,0.173,5.538,-21.465,-5.042
14:44:41:009,0.220,0.343,0.030,0.127,5.420,-20.480,-5.442
14:44:41:009,0.221,0.243,-0.043,0.072,5.164,-17.483,-6.367
14:44:41:01,0.221,0.180,-0.137,0.080,4.993,-15.034,-7.196
14:44:41:244,0.455,0.095,-0.132,0.026,4.787,-10.831,-8.781
14:44:41:244,0.455,0.065,-0.023,0.015,4.865,-6.843,-10.737
14:44:41:245,0.456,0.110,0.042,-0.027,5.200,-4.416,-11.911
14:44:41:246,0.457,0.101,0.069,-0.109,6.114,-1.619,-13.437
14:44:41:298,0.509,0.061,0.095,-0.157,6.864,0.019,-14.503
14:44:41:298,0.509,0.040,0.045,-0.171,7.985,0.645,-16.511
14:44:41:298,0.509,-0.001,0.059,-0.157,8.834,1.097,-19.138
14:44:41:298,0.509,-0.011,0.079,-0.154,9.215,1.113,-21.124
14:44:41:394,0.605,-0.067,0.053,-0.156,9.665,1.361,-24.151
14:44:41:5,0.711,-0.135,0.002,-0.172,9.973,1.530,-26.113
14:44:41:526,0.738,-0.186,-0.004,-0.175,10.421,1.846,-28.929
14:44:41:527,0.739,-0.236,-0.005,-0.166,10.696,2.039,-31.546
14:44:41:631,0.842,-0.240,-0.035,-0.137,10.014,2.244,-32.269
14:44:41:632,0.843,-0.253,-0.091,-0.091,9.981,2.307,-34.250
14:44:41:664,0.875,-0.265,-0.077,-0.078,9.936,2.338,-35.248
14:44:41:665,0.876,-0.309,-0.057,-0.084,9.949,2.310,-36.290
14:44:41:665,0.876,-0.385,-0.018,-0.086,9.961,1.995,-36.797
14:44:41:666,0.877,-0.369,-0.077,-0.041,9.761,1.405,-36.847
14:44:41:743,0.955,-0.372,0.024,-0.063,9.179,0.217,-36.457
14:44:41:744,0.956,-0.383,0.088,-0.054,8.691,-1.108,-35.867
14:44:41:745,0.956,-0.341,-0.013,-0.009,7.702,-3.430,-34.544
14:44:41:746,0.957,-0.153,-0.112,0.070,6.895,-5.393,-33.408
14:44:41:847,1.058,-0.079,-0.091,0.113,5.669,-8.274,-31.398
14:44:41:848,1.059,-0.061,-0.016,0.156,4.969,-10.133,-29.217
14:44:41:849,1.060,-0.151,0.019,0.085,4.920,-10.619,-27.787
14:44:41:85,1.061,-0.140,0.051,0.058,4.992,-10.793,-25.700
14:44:41:874,1.085,-0.019,0.020,0.057,5.032,-11.134,-24.286
14:44:41:875,1.086,0.073,-0.027,0.090,5.106,-11.998,-22.037
14:44:41:877,1.088,0.130,-0.038,0.139,5.281,-13.232,-19.783
14:44:41:899,1.110,0.179,-0.030,0.077,5.851,-15.326,-16.619
14:44:41:9,1.111,0.234,-0.009,0.102,6.142,-15.901,-15.504
14:44:41:901,1.112,0.279,-0.032,0.087,6.596,-16.636,-13.865
14:44:41:902,1.113,0.292,-0.096,0.045,7.077,-16.216,-12.303
14:44:41:978,1.190,0.256,-0.157,0.012,7.310,-15.848,-11.281
14:44:41:979,1.190,0.322,-0.064,0.093,7.438,-15.286,-9.911
14:44:41:979,1.191,0.347,0.065,0.061,7.511,-15.378,-9.076
14:44:41:98,1.192,0.412,0.072,0.045,7.785,-15.600,-7.894
14:44:42:136,1.348,0.423,-0.007,0.079,8.060,-16.604,-6.896
14:44:42:136,1.348,0.448,0.029,0.109,8.174,-16.731,-6.456
14:44:42:137,1.348,0.502,0.074,0.148,8.180,-17.083,-6.144
14:44:42:138,1.349,0.464,-0.005,0.122,8.106,-16.261,-6.234
14:44:42:268,1.479,0.380,-0.016,0.079,7.833,-14.755,-7.224
14:44:42:268,1.479,0.301,-0.002,0.040,7.353,-12.207,-9.078
14:44:42:268,1.479,0.257,0.005,0.031,6.967,-10.414,-10.735
14:44:42:269,1.480,0.214,0.086,-0.016,6.413,-6.398,-13.657
14:44:42:343,1.555,0.133,0.165,-0.023,6.160,-3.708,-15.778
14:44:42:344,1.555,0.036,0.150,-0.086,6.120,0.478,-19.069
14:44:42:344,1.556,-0.002,0.039,-0.079,6.287,2.558,-21.247
14:44:42:375,1.586,-0.129,-0.041,-0.086,7.183,6.516,-27.762
14:44:42:375,1.586,-0.171,-0.034,-0.107,7.629,7.342,-29.754
14:44:42:375,1.586,-0.215,-0.043,-0.104,8.540,8.413,-32.529
14:44:42:477,1.688,-0.266,-0.056,-0.102,8.890,9.345,-34.024
14:44:42:478,1.689,-0.297,-0.065,-0.094,9.220,9.702,-34.991
14:44:42:478,1.689,-0.332,-0.099,-0.090,10.017,9.702,-36.849
14:44:42:479,1.690,-0.350,-0.117,-0.082,10.321,9.417,-37.901
14:44:42:501,1.713,-0.352,-0.086,-0.073,9.512,8.845,-37.880
14:44:42:501,1.713,-0.351,-0.044,-0.067,8.908,8.329,-37.768
14:44:42:501,1.713,-0.305,0.025,-0.081,8.300,7.387,-37.868
14:44:42:58,1.791,-0.269,0.080,-0.006,7.747,6.802,-37.100
14:44:42:58,1.791,-0.298,0.069,0.009,7.544,6.474,-36.266
14:44:42:58,1.791,-0.265,0.047,-0.010,7.147,5.408,-34.521
14:44:42:601,1.812,-0.170,0.019,0.006,6.791,4.330,-32.966
14:44:42:714,1.926,-0.136,-0.022,0.024,6.168,2.122,-30.327
14:44:42:714,1.926,-0.040,-0.092,0.061,5.513,-0.969,-27.552
14:44:42:715,1.926,0.030,-0.050,0.085,5.193,-3.002,-25.659
14:44:42:715,1.926,0.120,0.012,0.101,4.991,-5.253,-22.911
14:44:42:73,1.941,0.091,0.084,0.075,4.995,-6.039,-21.228
14:44:42:871,2.082,0.124,0.117,0.088,5.077,-6.574,-18.950
14:44:42:871,2.083,0.218,0.033,0.096,5.158,-6.803,-16.844
14:44:42:872,2.084,0.197,-0.027,0.095,5.232,-6.846,-15.523
14:44:42:873,2.084,0.307,-0.046,0.114,5.316,-7.409,-13.751
14:44:42:976,2.187,0.335,-0.061,0.115,5.380,-7.888,-12.694
14:44:42:976,2.187,0.345,-0.083,0.103,5.545,-7.852,-11.305
14:44:42:977,2.188,0.353,-0.093,0.075,5.765,-6.870,-10.036
14:44:42:978,2.189,0.353,-0.051,0.067,5.905,-6.132,-9.252
14:44:43:08,2.292,0.349,-0.065,0.077,6.128,-4.916,-8.215
14:44:43:081,2.293,0.365,-0.091,0.082,6.259,-4.458,-7.608
14:44:43:082,2.293,0.417,-0.032,0.100,6.649,-4.080,-8.209
14:44:43:101,2.312,0.482,0.033,0.088,6.810,-2.551,-7.590
14:44:43:101,2.312,0.415,0.034,0.029,6.826,-0.758,-7.724
14:44:43:182,2.393,0.375,0.036,0.008,6.863,0.512,-8.028
14:44:43:183,2.394,0.335,0.066,-0.022,6.958,2.154,-8.749
14:44:43:184,2.395,0.345,0.080,-0.037,7.067,3.064,-9.408
14:44:43:203,2.414,0.319,0.026,-0.061,7.276,4.329,-10.736
14:44:43:229,2.440,0.246,0.030,-0.102,7.451,6.007,-12.510
14:44:43:309,2.520,0.187,0.068,-0.128,7.560,7.577,-13.859
14:44:43:341,2.552,0.125,0.045,-0.151,7.840,10.503,-16.044
14:44:43:341,2.552,0.047,0.046,-0.163,8.331,13.756,-18.345
14:44:43:341,2.552,0.012,0.049,-0.176,8.803,15.919,-19.836
14:44:43:419,2.631,-0.037,0.026,-0.184,9.738,19.038,-21.937
14:44:43:419,2.631,-0.093,-0.005,-0.193,10.479,20.956,-23.270
14:44:43:471,2.682,-0.142,-0.025,-0.184,11.702,23.540,-25.201
14:44:43:472,2.683,-0.200,-0.036,-0.196,12.565,25.101,-26.418
14:44:43:473,2.684,-0.226,-0.048,-0.177,13.712,27.232,-28.093
14:44:43:551,2.762,-0.268,-0.048,-0.157,13.809,29.190,-29.264
14:44:43:551,2.762,-0.280,-0.040,-0.128,13.339,30.375,-29.743
14:44:43:551,2.762,-0.289,-0.043,-0.091,12.442,31.891,-30.306
14:44:43:599,2.811,-0.272,-0.066,-0.052,11.660,32.697,-30.554
14:44:43:6,2.811,-0.275,-0.051,-0.001,11.486,33.285,-31.943
14:44:43:652,2.863,-0.300,0.019,0.040,10.856,33.203,-33.171
14:44:43:653,2.864,-0.287,0.075,0.048,10.131,32.731,-33.724
14:44:43:704,2.915,-0.154,-0.034,0.092,8.879,31.977,-34.001
14:44:43:705,2.916,-0.097,-0.073,0.130,8.084,31.563,-33.898
14:44:43:843,3.054,-0.117,0.003,0.187,6.970,31.057,-33.421
14:44:43:844,3.055,-0.106,0.034,0.203,5.968,30.439,-32.469
14:44:43:844,3.055,-0.058,-0.044,0.183,5.303,29.942,-31.580
14:44:43:845,3.056,-0.033,-0.104,0.177,4.231,29.094,-30.006
14:44:44:026,3.237,0.057,0.019,0.191,3.476,28.490,-28.850
14:44:44:026,3.237,0.059,0.025,0.181,2.643,28.402,-27.003
14:44:44:027,3.238,0.055,0.010,0.157,2.151,29.566,-25.111
14:44:44:028,3.239,0.079,0.015,0.152,1.833,30.491,-23.859
14:44:44:054,3.265,0.082,0.002,0.171,1.767,32.279,-22.118
14:44:44:054,3.265,0.146,-0.026,0.106,1.511,32.908,-21.008
14:44:44:055,3.266,0.192,0.001,0.108,1.104,33.799,-19.221
14:44:44:056,3.267,0.268,-0.002,0.064,0.882,33.823,-17.261
14:44:44:072,3.283,0.386,0.013,-0.004,0.878,33.605,-15.817
14:44:44:073,3.284,0.359,-0.015,-0.104,1.126,33.448,-13.652
14:44:44:154,3.366,0.364,-0.059,-0.171,1.401,34.672,-12.306
14:44:44:154,3.366,0.388,-0.045,-0.139,1.717,37.480,-10.460
14:44:44:155,3.367,0.132,-0.025,-0.085,2.289,41.087,-9.054
14:44:44:174,3.386,0.175,-0.097,-0.145,2.725,41.878,-8.101
14:44:44:201,3.412,0.315,-0.088,-0.204,3.311,41.956,-6.608
14:44:44:314,3.526,0.373,-0.048,-0.239,3.627,41.401,-5.773
14:44:44:315,3.526,0.413,0.016,-0.299,3.950,41.183,-4.944
14:44:44:316,3.527,0.387,0.009,-0.275,3.944,41.733,-4.762
14:44:44:317,3.528,0.350,0.002,-0.264,3.541,43.429,-5.156
14:44:44:393,3.604,0.321,0.089,-0.277,2.889,46.058,-6.114
14:44:44:393,3.604,0.278,0.172,-0.292,2.449,47.616,-6.932
14:44:44:394,3.605,0.230,0.109,-0.268,1.915,50.786,-8.408
14:44:44:436,3.647,0.037,0.016,-0.167,1.159,60.889,-14.433
14:44:44:522,3.734,0.010,0.053,-0.146,1.321,63.851,-16.151
14:44:44:523,3.734,-0.037,0.111,-0.102,2.008,68.280,-18.635
14:44:44:523,3.734,-0.078,0.101,-0.054,2.758,71.100,-20.199
14:44:44:629,3.840,-0.116,0.080,0.001,4.259,74.812,-22.481
14:44:44:629,3.840,-0.158,0.026,0.061,5.945,77.720,-24.800
14:44:44:629,3.840,-0.175,0.028,0.096,7.039,79.248,-26.410
14:44:44:65,3.861,-0.199,0.036,0.149,8.603,81.116,-28.936
14:44:44:65,3.861,-0.233,0.047,0.213,9.592,82.130,-30.706
14:44:44:673,3.884,-0.257,0.028,0.293,10.911,83.280,-33.455
14:44:44:758,3.969,-0.273,-0.037,0.376,11.814,83.845,-36.146
14:44:44:758,3.969,-0.228,-0.078,0.386,11.939,83.933,-37.750
14:44:44:759,3.970,-0.133,-0.175,0.322,11.553,84.214,-39.712
14:44:44:778,3.989,-0.111,-0.185,0.344,11.117,84.527,-40.827
14:44:44:804,4.015,-0.110,-0.163,0.371,10.399,84.842,-42.267
14:44:44:86,4.071,-0.110,-0.095,0.395,9.376,84.748,-43.042
14:44:44:86,4.071,-0.101,-0.074,0.396,8.642,84.580,-43.058
14:44:44:885,4.096,-0.067,-0.121,0.370,7.372,84.079,-42.421
14:44:44:911,4.122,-0.006,-0.078,0.362,6.317,83.501,-41.607
14:44:44:935,4.146,0.024,0.041,0.328,4.753,82.416,-39.735
14:44:44:991,4.202,0.054,0.073,0.274,3.872,81.699,-38.092
14:44:44:991,4.202,0.085,0.037,0.263,2.910,80.824,-35.340
14:44:45:014,4.225,0.080,-0.020,0.205,2.135,79.662,-32.390
14:44:45:04,4.251,0.120,0.027,0.125,1.527,78.463,-30.350
14:44:45:125,4.336,0.189,0.052,0.084,0.631,76.537,-27.354
14:44:45:125,4.336,0.230,0.059,0.012,-0.016,74.919,-24.528
14:44:45:126,4.337,0.254,0.068,-0.006,-0.349,74.181,-22.844
14:44:45:174,4.385,0.283,0.062,-0.022,-0.788,73.347,-20.680
14:44:45:175,4.386,0.330,0.022,-0.064,-1.033,72.453,-19.443
14:44:45:226,4.437,0.373,0.006,-0.147,-1.288,69.816,-17.700
14:44:45:253,4.464,0.328,0.004,-0.236,-1.224,67.461,-16.611
14:44:45:254,4.465,0.248,-0.043,-0.279,-0.621,65.099,-15.318
14:44:45:277,4.489,0.145,-0.041,-0.218,0.323,65.015,-14.366
14:44:45:356,4.567,0.136,-0.087,-0.229,0.974,66.003,-13.956
14:44:45:389,4.600,0.119,-0.128,-0.195,1.767,68.122,-13.457
14:44:45:389,4.600,0.112,-0.104,-0.176,2.201,69.618,-13.175
14:44:45:389,4.600,0.070,-0.113,-0.156,2.754,72.315,-12.875
14:44:45:409,4.620,0.061,-0.054,-0.177,3.081,74.371,-12.641
14:44:45:492,4.703,0.072,-0.016,-0.241,3.161,75.094,-12.523
14:44:45:493,4.704,0.056,0.048,-0.269,3.207,75.560,-12.389
14:44:45:494,4.705,0.027,0.123,-0.281,3.213,75.763,-12.296
14:44:45:513,4.724,0.021,0.106,-0.267,3.197,76.140,-12.191
14:44:45:539,4.750,0.028,0.088,-0.251,3.026,76.479,-12.674
14:44:45:623,4.835,0.066,0.147,-0.246,2.806,76.756,-13.291
14:44:45:624,4.835,0.088,0.068,-0.255,2.346,77.424,-13.964
14:44:45:625,4.836,0.077,-0.041,-0.225,1.978,78.242,-14.763
14:44:45:644,4.855,0.052,-0.061,-0.155,1.240,79.906,-16.609
14:44:45:73,4.941,0.081,0.023,-0.101,0.295,82.130,-19.116
14:44:45:731,4.942,0.070,0.061,-0.055,-0.333,83.983,-21.093
14:44:45:731,4.942,0.095,0.109,-0.015,-1.050,87.358,-24.295
14:44:45:751,4.962,0.044,0.101,0.058,-1.255,90.071,-26.512
14:44:45:777,4.988,0.063,0.043,0.115,-1.254,93.453,-29.695
14:44:45:832,5.043,0.064,0.012,0.181,-0.878,96.604,-32.759
14:44:45:832,5.043,0.062,-0.030,0.233,-0.413,98.041,-34.663
14:44:45:854,5.065,0.052,-0.066,0.294,0.506,100.327,-37.248
14:44:45:882,5.093,0.062,-0.074,0.325,1.185,101.501,-38.795
14:44:45:965,5.176,0.060,-0.070,0.357,2.222,102.806,-40.163
14:44:45:966,5.177,0.064,-0.136,0.371,3.030,103.546,-40.496
14:44:45:966,5.177,0.058,-0.158,0.382,3.432,103.580,-41.426
14:44:45:988,5.200,0.068,-0.168,0.382,3.533,103.068,-42.538
14:44:46:011,5.223,0.073,-0.185,0.351,3.165,102.537,-42.346
14:44:46:096,5.307,0.072,-0.166,0.366,2.472,101.591,-42.882
14:44:46:097,5.308,0.059,-0.049,0.367,1.576,100.550,-42.862
14:44:46:098,5.309,0.048,0.013,0.350,1.110,99.849,-42.382
14:44:46:117,5.328,0.050,0.014,0.338,0.674,98.791,-41.036
14:44:46:143,5.354,0.050,0.059,0.317,0.415,97.893,-39.692
14:44:46:198,5.409,0.052,0.143,0.285,0.020,96.295,-37.155
14:44:46:199,5.410,0.054,0.104,0.155,-0.260,94.542,-33.998
14:44:46:221,5.433,0.070,0.031,0.066,-0.360,93.413,-31.763
14:44:46:248,5.459,0.124,-0.048,0.016,-0.431,91.853,-28.578
14:44:46:332,5.543,0.119,0.000,0.012,-0.329,90.962,-26.607
14:44:46:333,5.544,0.090,0.013,-0.037,-0.215,89.679,-24.114
14:44:46:334,5.545,0.145,0.060,-0.041,-0.555,88.121,-22.333
14:44:46:354,5.566,0.167,0.056,-0.064,-1.006,86.709,-21.503
14:44:46:379,5.590,0.192,0.008,-0.141,-1.839,84.183,-20.640
14:44:46:463,5.674,0.194,-0.063,-0.177,-2.406,82.475,-20.231
14:44:46:464,5.675,0.197,-0.083,-0.141,-3.150,79.369,-19.816
14:44:46:485,5.696,0.145,-0.098,-0.141,-3.794,75.774,-19.256
14:44:46:511,5.722,0.131,-0.077,-0.166,-3.878,74.914,-18.825
14:44:46:597,5.808,0.151,-0.069,-0.194,-3.820,73.996,-18.447
14:44:46:597,5.808,0.142,-0.053,-0.154,-3.592,74.451,-17.727
14:44:46:597,5.808,0.180,-0.077,-0.171,-3.326,74.040,-16.795
14:44:46:721,5.932,0.169,-0.065,-0.176,-3.147,74.090,-16.104
14:44:46:756,5.967,0.196,0.039,-0.190,-2.930,73.576,-15.035
14:44:46:757,5.968,0.218,0.129,-0.230,-2.782,73.556,-14.369
14:44:46:757,5.968,0.210,0.105,-0.238,-2.533,73.285,-13.595
14:44:46:758,5.969,0.218,0.090,-0.216,-2.130,73.632,-13.711
14:44:46:801,6.012,0.213,0.101,-0.205,-1.639,73.401,-14.584
14:44:46:834,6.045,0.209,0.164,-0.216,-1.437,73.530,-15.392
14:44:46:834,6.046,0.231,0.072,-0.228,-1.489,73.428,-15.933
14:44:46:835,6.047,0.227,0.031,-0.154,-1.424,75.116,-17.253
14:44:46:939,6.150,0.164,-0.010,0.035,-0.320,82.319,-20.294
14:44:46:939,6.151,0.073,-0.037,0.099,1.145,87.779,-21.884
14:44:46:94,6.152,0.050,-0.009,0.116,2.082,90.404,-22.746
14:44:46:941,6.152,-0.015,0.022,0.097,3.249,92.449,-23.984
14:44:46:957,6.168,-0.041,-0.003,0.101,4.251,92.829,-25.420
14:44:46:983,6.194,-0.097,-0.062,0.088,4.809,92.588,-26.634
14:44:47:068,6.279,-0.077,-0.070,0.112,5.449,91.969,-28.724
14:44:47:068,6.279,-0.091,-0.082,0.149,5.899,91.643,-30.127
14:44:47:069,6.280,-0.091,-0.086,0.149,6.169,91.388,-31.491
14:44:47:089,6.300,-0.102,-0.085,0.165,6.142,91.307,-32.102
14:44:47:114,6.326,-0.091,-0.083,0.179,5.916,91.137,-32.822
14:44:47:17,6.381,-0.093,-0.095,0.191,5.481,90.879,-33.210
14:44:47:171,6.382,-0.086,-0.118,0.195,5.045,90.656,-33.275
14:44:47:194,6.405,-0.077,-0.041,0.218,4.411,90.195,-33.420
14:44:47:22,6.431,-0.071,0.062,0.236,4.220,89.872,-33.714
14:44:47:303,6.515,-0.086,0.062,0.224,3.999,89.535,-33.636
14:44:47:304,6.516,-0.047,0.151,0.318,3.763,89.214,-33.035
14:44:47:305,6.516,-0.064,0.196,0.391,3.509,88.727,-32.379
14:44:47:324,6.535,-0.040,0.050,0.255,2.552,86.843,-30.955
14:44:47:354,6.565,0.031,0.081,0.275,1.650,85.063,-29.703
14:44:47:436,6.647,0.054,0.001,0.162,0.333,81.767,-27.332
14:44:47:436,6.647,0.185,-0.082,-0.059,-0.709,78.246,-24.434
14:44:47:437,6.648,0.265,-0.105,-0.038,-1.048,76.741,-22.446
14:44:47:455,6.666,0.309,0.007,0.006,-0.989,75.402,-19.502
14:44:47:482,6.693,0.223,-0.043,0.034,-0.658,74.974,-17.620
14:44:47:537,6.748,0.288,0.009,0.000,-0.355,74.208,-15.282
14:44:47:538,6.749,0.300,0.019,-0.109,-0.261,72.818,-13.365
14:44:47:561,6.772,0.292,-0.012,-0.174,-0.181,71.848,-12.354
14:44:47:675,6.886,0.255,-0.017,-0.164,-0.083,70.994,-11.286
14:44:47:675,6.887,0.228,-0.011,-0.131,0.020,70.707,-10.761
14:44:47:676,6.888,0.135,-0.101,-0.142,0.262,70.488,-10.084
14:44:47:677,6.888,0.133,-0.100,-0.153,0.398,70.212,-9.630
14:44:47:691,6.903,0.166,-0.079,-0.224,0.640,69.438,-8.835
14:44:47:718,6.929,0.182,-0.099,-0.279,1.004,68.749,-7.888
14:44:47:773,6.984,0.228,-0.066,-0.293,1.262,68.451,-7.228
14:44:47:799,7.010,0.200,-0.034,-0.264,1.649,68.816,-6.266
14:44:47:8,7.011,0.194,-0.092,-0.290,1.950,69.038,-5.341
14:44:47:823,7.034,0.227,-0.048,-0.331,2.042,69.617,-4.791
14:44:47:908,7.119,0.245,0.046,-0.414,2.107,70.394,-4.053
14:44:47:908,7.119,0.225,0.027,-0.436,2.141,71.467,-3.634
14:44:47:909,7.120,0.162,-0.070,-0.398,2.124,73.082,-3.273
14:44:47:93,7.141,0.157,0.020,-0.411,1.990,75.172,-3.220
14:44:47:956,7.167,0.144,0.054,-0.444,1.913,76.426,-3.350
14:44:48:038,7.250,0.132,0.030,-0.452,1.853,78.643,-3.961
14:44:48:039,7.250,0.100,-0.030,-0.393,1.796,80.005,-4.756
14:44:48:04,7.251,0.065,-0.016,-0.324,1.552,82.410,-6.661
14:44:48:059,7.270,0.055,-0.033,-0.241,1.275,84.220,-8.393
14:44:48:086,7.297,0.042,0.028,-0.207,0.795,87.105,-11.575
14:44:48:141,7.352,0.031,0.128,-0.127,0.410,90.233,-15.239
14:44:48:167,7.379,0.014,0.151,-0.069,0.340,92.438,-17.806
14:44:48:167,7.379,0.009,0.156,0.039,0.573,95.632,-21.704
14:44:48:19,7.402,-0.004,0.090,0.144,0.966,97.498,-24.230
14:44:48:22,7.431,0.002,0.048,0.195,1.726,99.603,-27.858
14:44:48:272,7.483,0.022,0.014,0.245,2.368,100.687,-31.357
14:44:48:273,7.484,0.024,0.082,0.285,2.704,100.946,-33.550
14:44:48:296,7.507,-0.012,0.056,0.300,3.295,100.980,-36.390
14:44:48:321,7.532,-0.007,-0.072,0.312,3.706,100.940,-38.069
14:44:48:376,7.588,0.036,-0.151,0.364,4.074,100.728,-40.473
14:44:48:403,7.614,0.046,-0.209,0.357,3.925,100.270,-42.746
14:44:48:404,7.615,0.044,-0.210,0.362,3.395,99.842,-44.079
14:44:48:427,7.638,0.065,-0.117,0.397,2.203,99.210,-45.662
14:44:48:453,7.664,0.085,-0.024,0.414,1.315,98.791,-46.328
14:44:48:509,7.720,0.100,-0.021,0.420,0.168,98.139,-46.637
14:44:48:535,7.746,0.078,-0.105,0.398,-0.461,97.519,-46.377
14:44:48:535,7.747,0.092,-0.062,0.426,-1.660,95.893,-45.358
14:44:48:558,7.769,0.105,0.021,0.434,-3.184,93.456,-43.455
14:44:48:642,7.853,0.121,0.016,0.310,-4.158,91.461,-41.566
14:44:48:643,7.854,0.147,-0.071,0.110,-5.168,88.233,-37.992
14:44:48:644,7.855,0.194,-0.048,0.040,-5.400,85.259,-33.938
14:44:48:663,7.874,0.249,0.044,0.025,-5.123,83.718,-31.139
14:44:48:689,7.900,0.219,0.050,0.035,-4.142,82.457,-27.213
14:44:48:804,8.015,0.238,0.102,0.019,-3.464,81.937,-24.895
14:44:48:804,8.015,0.252,0.107,-0.027,-2.749,80.785,-21.729
14:44:48:805,8.016,0.290,0.050,-0.215,-2.286,78.421,-18.876
14:44:48:806,8.017,0.271,0.011,-0.224,-1.919,76.636,-17.201
14:44:48:881,8.093,0.260,-0.031,-0.309,-1.258,74.299,-15.082
14:44:48:882,8.093,0.097,-0.047,-0.228,-0.640,73.743,-13.956
14:44:48:883,8.094,0.076,-0.035,-0.249,0.226,74.935,-12.567
14:44:48:883,8.095,0.092,-0.017,-0.310,0.640,76.106,-11.776
14:44:48:902,8.113,0.057,-0.030,-0.238,1.117,77.943,-10.579
14:44:48:925,8.136,0.097,-0.019,-0.276,1.425,79.646,-9.281
14:44:49:01,8.221,0.082,-0.061,-0.289,1.653,80.290,-8.351
14:44:49:01,8.221,0.083,-0.132,-0.379,2.040,80.204,-6.873
14:44:49:011,8.222,0.141,-0.111,-0.463,2.267,79.916,-5.899
14:44:49:06,8.271,0.116,-0.057,-0.496,2.583,79.842,-4.542
14:44:49:06,8.272,0.096,0.004,-0.489,2.774,80.764,-3.503
14:44:49:141,8.352,0.105,0.027,-0.503,2.737,81.837,-3.057
14:44:49:142,8.353,0.137,0.070,-0.525,2.411,83.810,-2.947
14:44:49:143,8.354,0.128,0.101,-0.496,2.074,85.364,-3.298
14:44:49:162,8.373,0.096,0.052,-0.405,1.383,88.372,-4.604
14:44:49:246,8.457,0.042,-0.036,-0.301,0.525,91.986,-6.897
14:44:49:247,8.458,0.032,-0.016,-0.260,-0.032,94.556,-8.858
14:44:49:247,8.459,0.042,0.003,-0.182,-0.664,98.603,-12.131
14:44:49:381,8.592,0.079,0.040,-0.157,-0.763,101.348,-14.346
14:44:49:382,8.593,-0.040,0.076,-0.105,-0.140,105.915,-17.282
14:44:49:383,8.594,-0.040,0.142,-0.059,1.115,110.271,-19.845
14:44:49:383,8.594,-0.054,0.119,-0.015,2.281,112.537,-21.291
14:44:49:401,8.612,-0.107,0.100,0.056,4.463,115.433,-23.400
14:44:49:401,8.612,-0.099,0.097,0.174,6.075,117.280,-24.892
14:44:49:425,8.637,-0.084,0.066,0.226,8.649,119.810,-27.141
14:44:49:479,8.690,-0.077,0.024,0.296,11.268,121.974,-29.501
14:44:49:506,8.717,-0.062,0.000,0.336,12.909,123.103,-31.187
14:44:49:617,8.829,-0.052,-0.001,0.404,15.105,124.325,-33.858
14:44:49:618,8.829,-0.054,-0.075,0.442,16.419,124.824,-35.652
14:44:49:618,8.830,-0.027,-0.105,0.472,17.969,125.081,-38.306
14:44:49:619,8.831,-0.020,-0.133,0.478,18.816,124.722,-40.769
14:44:49:637,8.848,-0.004,-0.137,0.476,19.003,124.397,-42.222
14:44:49:639,8.850,0.031,-0.103,0.515,18.715,123.702,-44.099
14:44:49:661,8.872,0.043,-0.114,0.518,18.152,123.168,-45.041
14:44:49:746,8.957,0.033,-0.153,0.470,16.666,121.967,-45.908
14:44:49:747,8.958,0.084,-0.080,0.448,15.214,121.276,-46.100
14:44:49:747,8.958,0.095,-0.148,0.306,12.617,120.433,-45.710
14:44:49:767,8.978,0.154,-0.129,0.075,9.903,119.963,-44.527
14:44:49:85,9.061,0.250,-0.024,0.203,8.508,120.024,-43.476
14:44:49:85,9.061,0.174,-0.047,0.219,7.271,120.076,-41.634
14:44:49:875,9.086,0.182,-0.035,0.179,6.188,119.384,-40.009
14:44:49:875,9.086,0.211,0.041,0.095,4.415,118.013,-36.859
14:44:49:897,9.108,0.196,0.043,-0.074,2.955,116.620,-33.067
14:44:50:134,9.345,0.202,0.095,-0.180,2.383,116.127,-30.540
14:44:50:273,9.484,0.221,0.066,-0.259,1.861,116.629,-27.350
14:44:50:274,9.485,0.363,-0.056,-0.306,1.379,117.482,-25.742
14:44:50:275,9.486,0.319,0.007,-0.794,-0.137,116.133,-23.903
14:44:50:276,9.487,0.332,0.159,-0.629,-2.208,108.587,-22.878
14:44:50:354,9.565,0.138,-0.050,-0.487,-2.377,104.616,-22.440
14:44:50:354,9.565,-0.151,-0.069,-0.312,-0.657,104.083,-22.710
14:44:50:354,9.566,-0.116,0.023,-0.004,1.007,107.661,-23.264
14:44:50:354,9.566,-0.110,-0.030,0.069,3.473,114.631,-23.919
14:44:50:379,9.590,0.015,-0.080,0.107,5.707,120.998,-24.173
14:44:50:379,9.590,0.055,-0.052,0.136,6.961,124.791,-24.108
14:44:50:38,9.591,0.026,-0.048,0.112,8.303,129.138,-23.623
14:44:50:38,9.592,-0.074,0.033,0.122,8.788,130.760,-23.227
14:44:50:405,9.616,-0.134,0.095,0.109,8.967,131.259,-22.758
14:44:50:405,9.616,-0.152,0.117,0.102,8.717,130.835,-22.267
14:44:50:406,9.617,-0.150,0.101,0.058,8.418,130.683,-21.899
14:44:50:407,9.618,-0.146,0.055,0.007,7.833,131.328,-21.341
14:44:50:456,9.667,-0.140,0.050,-0.050,7.349,132.103,-20.988
14:44:50:457,9.668,-0.139,0.074,-0.081,6.598,134.331,-20.521
14:44:50:458,9.669,-0.132,0.025,-0.098,5.935,136.936,-20.304
14:44:50:459,9.670,-0.148,0.006,-0.115,5.563,138.812,-20.362
14:44:50:474,9.685,-0.131,-0.036,-0.069,5.159,142.898,-20.754
14:44:50:501,9.712,-0.127,-0.002,-0.060,4.966,145.951,-21.265
14:44:50:585,9.796,-0.089,0.067,-0.031,4.949,151.472,-22.362
14:44:50:585,9.797,-0.044,0.057,0.033,5.492,157.703,-23.808
14:44:50:586,9.798,0.055,0.026,0.099,6.147,161.843,-24.960
14:44:50:605,9.816,0.140,0.002,0.112,7.230,167.050,-26.953
14:44:50:632,9.843,0.180,-0.018,0.112,7.941,170.414,-28.411
14:44:50:717,9.928,0.196,-0.018,0.126,9.047,173.181,-30.739
14:44:50:717,9.928,0.233,-0.011,0.149,10.179,174.927,-33.099
14:44:50:717,9.928,0.269,0.002,0.171,10.660,175.730,-34.265
14:44:50:736,9.948,0.306,-0.004,0.182,11.192,176.485,-35.755
14:44:50:817,10.028,0.361,-0.033,0.194,12.240,176.585,-38.059
14:44:50:848,10.059,0.384,-0.059,0.189,12.293,176.495,-38.861
14:44:50:849,10.060,0.407,-0.110,0.193,12.632,175.704,-40.796
14:44:50:849,10.060,0.378,-0.105,0.200,12.518,174.897,-41.842
14:44:50:868,10.079,0.369,-0.075,0.188,11.997,173.552,-42.961
14:44:50:952,10.163,0.405,-0.021,0.187,11.386,172.982,-43.457
14:44:50:953,10.164,0.441,0.002,0.178,11.007,172.364,-43.401
14:44:50:953,10.165,0.487,0.070,0.189,10.329,171.994,-42.701
14:44:50:973,10.184,0.466,0.097,0.180,9.754,171.289,-41.770
14:44:51:001,10.212,0.351,0.003,0.136,8.693,170.392,-39.761
14:44:51:052,10.263,0.221,-0.128,0.025,7.851,169.280,-38.189
14:44:51:082,10.293,0.167,-0.196,-0.039,6.649,167.403,-35.754
14:44:51:082,10.293,0.104,-0.211,-0.099,5.614,165.522,-33.443
14:44:51:104,10.315,0.195,-0.038,-0.081,5.084,164.458,-32.028
14:44:51:22,10.431,0.221,0.048,-0.065,4.430,163.802,-30.000
14:44:51:22,10.431,0.157,0.132,-0.068,3.877,162.725,-28.046
14:44:51:22,10.431,0.089,0.139,-0.112,3.569,162.737,-26.724
14:44:51:221,10.432,0.006,0.025,-0.176,3.215,162.129,-24.764
14:44:51:235,10.446,-0.078,-0.001,-0.227,2.994,161.468,-23.478
14:44:51:35,10.561,-0.153,-0.032,-0.251,2.843,160.115,-21.598
14:44:51:35,10.562,-0.210,-0.030,-0.263,3.026,159.879,-20.432
14:44:51:35,10.562,-0.159,-0.070,-0.130,3.732,159.785,-18.831
14:44:51:351,10.562,-0.158,-0.041,-0.101,4.486,160.166,-17.352
14:44:51:37,10.581,-0.287,-0.043,-0.151,4.993,160.287,-16.427
14:44:51:37,10.581,-0.223,-0.051,-0.091,5.815,161.683,-15.185
14:44:51:451,10.662,-0.250,-0.061,-0.068,6.329,162.616,-14.449
14:44:51:452,10.663,-0.232,0.016,-0.032,6.903,163.812,-13.540
14:44:51:452,10.663,-0.273,0.124,-0.025,7.303,164.542,-12.882
14:44:51:56,10.771,-0.277,0.154,-0.016,7.489,165.052,-12.561
14:44:51:56,10.771,-0.281,0.086,0.010,7.667,165.396,-12.301
14:44:51:561,10.772,-0.316,0.080,-0.010,7.659,165.471,-12.299
14:44:51:561,10.772,-0.334,0.093,-0.030,7.450,165.820,-12.537
14:44:51:577,10.788,-0.346,0.080,-0.018,7.154,166.989,-13.117
14:44:51:603,10.814,-0.319,0.017,-0.008,6.973,168.268,-13.779
14:44:51:716,10.927,-0.240,-0.039,0.032,6.696,171.315,-15.241
14:44:51:717,10.928,-0.157,-0.046,0.044,6.520,173.810,-16.535
14:44:51:718,10.929,-0.112,-0.001,0.061,6.351,177.947,-18.912
14:44:51:719,10.930,-0.038,0.089,0.070,6.519,-177.711,-21.683
14:44:51:843,11.055,0.035,0.133,0.101,6.908,-174.798,-23.628
14:44:51:844,11.055,0.152,0.128,0.099,7.923,-170.782,-26.616
14:44:51:927,11.138,0.252,0.099,0.095,8.798,-168.554,-28.624
14:44:51:928,11.139,0.304,0.057,0.075,10.207,-166.138,-31.686
14:44:51:929,11.140,0.354,0.010,0.066,11.470,-164.843,-34.784
14:44:51:929,11.140,0.387,-0.016,0.057,12.217,-164.435,-36.802
14:44:51:98,11.191,0.407,-0.052,0.068,13.253,-164.245,-39.626
14:44:51:981,11.192,0.439,-0.087,0.057,13.902,-164.227,-41.344
14:44:51:981,11.192,0.478,-0.142,0.049,14.739,-164.376,-43.617
14:44:51:981,11.192,0.474,-0.193,0.031,15.214,-164.725,-45.398
14:44:52:027,11.238,0.442,-0.210,0.013,15.324,-165.032,-46.309
14:44:52:027,11.238,0.513,-0.104,-0.017,15.356,-165.523,-47.249
14:44:52:05,11.261,0.547,-0.110,-0.008,15.385,-165.830,-47.496
14:44:52:076,11.287,0.529,-0.132,-0.006,14.997,-166.572,-47.234
14:44:52:161,11.372,0.534,-0.075,-0.040,13.000,-167.645,-44.637
14:44:52:162,11.373,0.525,-0.051,-0.033,11.915,-169.060,-43.818
14:44:52:162,11.373,0.394,-0.032,-0.026,9.894,-171.612,-42.024
14:44:52:182,11.393,0.276,-0.070,-0.085,8.556,-173.350,-40.491
14:44:52:207,11.418,0.209,-0.044,-0.097,6.716,-176.250,-37.967
14:44:52:291,11.502,0.054,-0.006,-0.141,5.695,-178.219,-36.166
14:44:52:292,11.503,0.044,0.041,-0.183,4.834,179.580,-33.449
14:44:52:293,11.504,0.110,0.057,-0.153,4.697,178.575,-30.888
14:44:52:34,11.551,0.071,0.055,-0.136,4.763,178.134,-29.260
14:44:52:341,11.552,-0.034,-0.003,-0.093,4.972,176.529,-26.881
14:44:52:393,11.605,-0.077,-0.049,-0.085,5.228,176.243,-25.304
14:44:52:394,11.606,-0.115,-0.046,-0.078,5.760,175.033,-23.026
14:44:52:416,11.628,-0.170,0.004,-0.081,6.324,173.986,-20.858
14:44:52:443,11.654,-0.177,0.019,-0.047,6.729,173.779,-19.474
14:44:52:528,11.739,-0.237,0.017,-0.050,7.390,172.758,-17.501
14:44:52:528,11.739,-0.283,-0.007,-0.015,7.866,172.782,-16.247
14:44:52:529,11.740,-0.296,-0.013,-0.022,8.513,172.417,-14.526
14:44:52:549,11.760,-0.316,-0.034,-0.016,9.056,173.007,-13.611
14:44:52:574,11.786,-0.321,-0.025,-0.004,9.352,172.939,-12.788
14:44:52:66,11.871,-0.341,0.056,0.019,9.637,173.546,-12.407
14:44:52:66,11.871,-0.354,0.094,0.027,9.801,173.679,-11.947
14:44:52:66,11.871,-0.352,0.048,0.047,9.977,174.463,-11.574
14:44:52:679,11.890,-0.341,0.022,0.042,9.966,175.242,-11.692
14:44:52:765,11.976,-0.341,0.034,0.045,9.829,175.960,-12.048
14:44:52:765,11.976,-0.351,0.151,0.074,9.523,177.227,-12.922
14:44:52:787,11.998,-0.290,0.076,0.092,9.301,178.667,-13.733
14:44:52:789,12.001,-0.228,0.041,0.127,9.030,-178.294,-15.367
14:44:52:9,12.111,-0.130,0.027,0.141,8.874,-174.199,-17.451
14:44:52:9,12.111,-0.056,0.045,0.158,8.899,-171.092,-19.041
14:44:52:9,12.111,0.018,0.089,0.170,9.265,-166.344,-21.519
14:44:52:9,12.111,0.071,0.123,0.192,9.784,-163.239,-23.129
14:44:52:945,12.157,0.109,0.135,0.192,11.068,-158.618,-25.350
14:44:52:945,12.157,0.200,0.090,0.194,12.996,-154.128,-27.299
14:44:53:026,12.237,0.250,0.041,0.175,14.536,-151.347,-28.512
14:44:53:027,12.238,0.336,-0.021,0.166,17.021,-147.743,-30.291
14:44:53:028,12.239,0.385,-0.041,0.153,18.727,-145.742,-31.479
14:44:53:047,12.258,0.439,-0.063,0.142,21.233,-143.386,-33.285
14:44:53:131,12.343,0.477,-0.078,0.117,23.393,-141.737,-35.062
14:44:53:131,12.343,0.501,-0.075,0.102,23.157,-140.731,-35.390
14:44:53:154,12.366,0.497,-0.078,0.056,22.062,-139.770,-35.752
14:44:53:155,12.366,0.498,-0.135,0.026,21.860,-139.677,-36.618
14:44:53:178,12.389,0.483,-0.119,-0.006,22.210,-140.237,-38.823
14:44:53:262,12.473,0.464,-0.109,-0.031,21.754,-140.990,-40.774
14:44:53:263,12.474,0.456,-0.101,-0.037,21.144,-141.838,-41.888
14:44:53:264,12.475,0.438,-0.122,-0.122,19.877,-142.468,-43.168
14:44:53:283,12.494,0.384,-0.199,-0.132,18.761,-143.231,-43.757
14:44:53:31,12.522,0.335,-0.170,-0.111,16.409,-144.824,-44.166
14:44:53:367,12.578,0.399,0.001,-0.210,13.601,-146.864,-43.842
14:44:53:367,12.578,0.294,-0.108,-0.215,11.624,-148.133,-43.106
14:44:53:419,12.630,0.201,-0.070,-0.194,8.851,-150.224,-41.222
14:44:53:419,12.630,0.006,0.012,-0.267,7.376,-151.219,-39.443
14:44:53:499,12.710,-0.158,0.004,-0.285,6.039,-151.806,-36.338
14:44:53:499,12.710,-0.090,0.081,-0.309,5.935,-150.658,-33.144
14:44:53:5,12.711,-0.041,0.158,-0.306,6.251,-149.153,-31.092
14:44:53:519,12.731,-0.026,0.136,-0.235,6.657,-147.020,-28.134
14:44:53:545,12.757,-0.059,0.065,-0.133,6.854,-145.863,-26.201
14:44:53:633,12.844,-0.088,0.021,-0.127,7.071,-144.178,-23.446
14:44:53:633,12.844,-0.058,-0.047,-0.122,7.198,-143.604,-21.851
14:44:53:634,12.845,-0.171,-0.063,-0.027,7.211,-144.709,-19.729
14:44:53:635,12.846,-0.351,-0.013,0.101,7.269,-147.410,-17.774
14:44:53:65,12.861,-0.308,0.010,0.145,7.563,-148.679,-16.506
14:44:53:765,12.976,-0.354,-0.063,0.240,8.427,-149.773,-14.711
14:44:53:765,12.976,-0.343,-0.094,0.282,9.130,-149.302,-13.556
14:44:53:766,12.977,-0.254,-0.083,0.291,10.036,-146.801,-11.875
14:44:53:766,12.977,-0.171,-0.054,0.275,10.621,-142.882,-10.332
14:44:53:869,13.081,-0.158,0.011,0.267,10.817,-140.277,-9.449
14:44:53:87,13.082,-0.078,0.072,0.261,11.103,-137.190,-8.474
14:44:53:871,13.082,-0.154,0.001,0.331,11.278,-136.526,-8.073
14:44:53:872,13.083,-0.177,0.013,0.348,11.360,-136.677,-7.932
14:44:53:887,13.099,-0.203,0.100,0.415,11.182,-136.877,-8.201
14:44:53:996,13.207,-0.232,0.177,0.453,10.906,-136.278,-8.563
14:44:53:997,13.208,-0.180,0.042,0.390,10.319,-134.470,-9.488
14:44:54:024,13.235,-0.142,-0.038,0.345,9.854,-132.409,-10.452
14:44:54:024,13.235,-0.043,-0.063,0.283,9.058,-128.101,-12.454
14:44:54:025,13.236,0.038,0.001,0.214,8.351,-122.754,-15.033
14:44:54:097,13.308,0.079,0.062,0.161,8.056,-118.948,-17.010
14:44:54:159,13.370,0.128,0.162,0.093,8.076,-113.325,-20.192
14:44:54:16,13.371,0.190,0.198,0.037,8.444,-109.824,-22.361
14:44:54:16,13.371,0.221,0.162,-0.036,9.604,-105.042,-25.595
14:44:54:16,13.371,0.260,0.098,-0.171,11.319,-101.139,-28.842
14:44:54:236,13.447,0.282,0.047,-0.238,12.601,-99.254,-31.047
14:44:54:236,13.447,0.296,0.007,-0.321,14.456,-97.638,-34.460
14:44:54:236,13.448,0.313,-0.048,-0.379,15.522,-97.340,-36.778
14:44:54:284,13.496,0.309,-0.096,-0.405,16.655,-97.911,-40.158
14:44:54:284,13.496,0.306,-0.198,-0.405,16.970,-99.411,-43.350
14:44:54:336,13.547,0.274,-0.235,-0.441,16.566,-100.733,-45.350
14:44:54:336,13.547,0.198,-0.239,-0.437,14.983,-103.123,-47.980
14:44:54:359,13.570,0.176,-0.262,-0.447,13.293,-105.046,-49.429
14:44:54:385,13.596,0.251,-0.272,-0.447,9.855,-108.759,-51.039
14:44:54:47,13.681,0.261,-0.156,-0.422,6.850,-111.691,-51.470
14:44:54:471,13.682,0.147,-0.038,-0.408,-0.637,-119.596,-49.494
14:44:54:519,13.730,0.109,0.102,-0.431,-1.956,-121.829,-48.023
14:44:54:52,13.731,0.101,0.132,-0.383,-2.609,-124.805,-45.148
14:44:54:604,13.816,0.090,0.070,-0.282,-2.401,-126.531,-42.862
14:44:54:604,13.816,0.062,0.011,-0.224,-1.528,-128.582,-39.003
14:44:54:604,13.816,-0.035,0.122,-0.160,-0.507,-130.311,-34.896
14:44:54:622,13.833,-0.085,0.138,-0.094,0.344,-131.059,-32.138
14:44:54:708,13.919,-0.132,0.099,0.011,1.826,-131.035,-28.268
14:44:54:708,13.919,-0.132,0.108,0.018,2.867,-130.019,-26.071
14:44:54:709,13.920,-0.034,0.051,0.006,4.352,-127.598,-23.268
14:44:54:729,13.940,-0.026,0.011,0.042,5.161,-126.029,-20.829
14:44:54:754,13.965,-0.122,0.019,0.132,5.438,-125.631,-19.335
14:44:54:837,14.048,-0.150,0.021,0.172,5.873,-125.151,-17.307
14:44:54:837,14.049,-0.112,-0.010,0.229,6.268,-124.925,-16.114
14:44:54:863,14.074,-0.074,-0.047,0.217,6.912,-125.118,-14.487
14:44:54:863,14.074,-0.161,-0.102,0.322,7.651,-124.705,-13.021
14:44:54:884,14.095,-0.149,-0.130,0.322,8.143,-124.346,-12.173
14:44:54:938,14.149,-0.118,-0.092,0.316,8.745,-122.751,-11.102
14:44:55:13,14.341,-0.119,-0.098,0.337,9.076,-121.989,-10.559
14:44:55:13,14.341,-0.104,-0.052,0.332,9.444,-120.441,-10.051
14:44:55:131,14.342,-0.054,0.053,0.341,9.678,-119.224,-10.000
14:44:55:132,14.343,-0.037,0.063,0.327,9.729,-118.583,-10.246
14:44:55:21,14.421,-0.009,0.048,0.289,9.588,-117.973,-11.107
14:44:55:21,14.421,-0.008,0.060,0.266,9.302,-117.682,-11.997
14:44:55:211,14.422,-0.017,0.126,0.282,8.616,-117.216,-13.662
14:44:55:212,14.423,-0.015,0.180,0.243,7.842,-116.346,-15.597
14:44:55:235,14.446,0.018,0.101,0.209,7.390,-115.256,-17.071
14:44:55:235,14.446,0.051,0.057,0.138,6.729,-113.219,-19.583
14:44:55:235,14.446,0.072,0.026,0.072,6.359,-111.312,-21.367
14:44:55:236,14.447,0.078,0.009,0.048,6.068,-107.876,-24.049
14:44:55:251,14.462,0.118,0.066,-0.028,6.213,-103.928,-26.733
14:44:55:336,14.547,0.116,0.081,-0.054,6.591,-101.302,-28.479
14:44:55:337,14.548,0.150,0.067,-0.131,7.592,-97.405,-31.002
14:44:55:337,14.549,0.158,0.029,-0.202,8.487,-95.195,-32.640
14:44:55:356,14.568,0.169,-0.019,-0.282,9.941,-92.225,-35.040
14:44:55:441,14.652,0.189,-0.056,-0.337,11.328,-90.508,-37.402
14:44:55:442,14.653,0.211,-0.045,-0.336,12.096,-89.556,-38.835
14:44:55:442,14.653,0.148,-0.144,-0.417,13.538,-88.631,-40.407
14:44:55:462,14.673,0.182,-0.205,-0.371,14.567,-88.229,-41.049
14:44:55:488,14.699,0.187,-0.193,-0.328,15.276,-89.464,-41.706
14:44:55:542,14.754,0.094,-0.188,-0.370,15.334,-90.681,-42.221
14:44:55:569,14.780,0.071,-0.238,-0.405,15.052,-91.642,-42.421
14:44:55:57,14.781,0.098,-0.072,-0.363,14.117,-93.528,-42.354
14:44:55:594,14.805,0.112,0.073,-0.465,13.498,-94.698,-42.039
14:44:55:724,14.936,0.066,-0.007,-0.461,12.416,-96.346,-41.194
14:44:55:864,15.076,0.042,0.017,-0.360,10.867,-98.341,-39.955
14:44:55:865,15.077,0.058,0.077,-0.374,9.855,-99.697,-38.908
14:44:55:866,15.077,0.067,0.046,-0.313,8.245,-101.906,-37.123
14:44:55:867,15.078,0.006,-0.029,-0.211,7.067,-103.493,-35.847
14:44:55:912,15.123,-0.077,-0.027,-0.109,5.426,-105.599,-34.015
14:44:55:912,15.123,-0.138,0.047,-0.066,4.691,-106.498,-32.811
14:44:55:946,15.157,-0.118,0.065,-0.117,4.311,-106.770,-31.079
14:44:55:946,15.157,-0.021,0.026,-0.211,4.504,-107.181,-29.430
14:44:55:946,15.157,-0.022,-0.038,-0.125,4.548,-107.741,-28.327
14:44:55:946,15.157,-0.083,-0.077,-0.038,4.382,-109.963,-26.657
14:44:55:969,15.180,-0.103,-0.110,0.021,4.260,-111.481,-25.599
14:44:55:97,15.181,-0.125,-0.096,0.084,4.113,-114.330,-24.215
14:44:55:971,15.182,-0.131,-0.021,0.136,4.065,-116.403,-23.028
14:44:55:971,15.182,-0.134,0.003,0.132,4.259,-117.707,-22.362
14:44:56:045,15.256,-0.038,0.019,0.103,4.891,-117.953,-21.399
14:44:56:045,15.257,-0.026,0.018,0.139,5.331,-118.343,-20.692
14:44:56:068,15.279,-0.029,-0.021,0.156,6.003,-118.434,-19.436
14:44:56:069,15.280,-0.085,-0.015,0.225,6.764,-118.906,-17.931
14:44:56:146,15.357,-0.060,0.005,0.228,7.353,-118.790,-16.878
14:44:56:176,15.387,-0.049,0.091,0.268,8.218,-118.940,-15.250
14:44:56:177,15.388,-0.011,0.120,0.277,8.768,-118.675,-14.227
14:44:56:178,15.389,-0.006,0.110,0.272,9.392,-118.763,-13.004
14:44:56:196,15.407,-0.041,0.167,0.295,9.680,-118.892,-12.310
14:44:56:225,15.436,-0.056,0.161,0.303,9.686,-119.005,-12.145
14:44:56:276,15.488,-0.071,-0.018,0.302,9.452,-118.765,-12.419
14:44:56:306,15.517,-0.075,-0.103,0.286,9.146,-118.430,-12.982
14:44:56:306,15.517,-0.046,-0.087,0.224,8.405,-116.929,-14.376
14:44:56:328,15.539,-0.028,-0.054,0.206,7.477,-114.749,-16.453
14:44:56:412,15.624,-0.019,0.020,0.182,6.872,-112.895,-18.115
14:44:56:413,15.625,0.049,0.101,0.087,6.197,-109.305,-20.859
14:44:56:414,15.626,0.057,0.114,0.040,5.977,-106.740,-22.767
14:44:56:433,15.644,0.091,0.072,-0.007,5.983,-103.120,-25.621
14:44:56:459,15.670,0.096,0.057,-0.097,6.323,-100.056,-28.475
14:44:56:515,15.726,0.129,0.038,-0.142,6.743,-98.366,-30.342
14:44:56:516,15.727,0.149,-0.005,-0.204,7.601,-96.179,-33.010
14:44:56:539,15.750,0.161,-0.036,-0.271,8.238,-95.057,-34.765
14:44:56:565,15.776,0.162,-0.047,-0.313,9.152,-93.882,-37.354
14:44:56:65,15.862,0.167,-0.064,-0.361,9.856,-93.275,-39.782
14:44:56:65,15.862,0.150,-0.097,-0.348,9.308,-93.023,-39.924
14:44:56:65,15.862,0.129,-0.182,-0.341,9.277,-93.356,-41.896
14:44:56:671,15.882,0.115,-0.181,-0.355,8.965,-93.949,-43.015
14:44:56:695,15.906,0.118,-0.080,-0.383,8.272,-95.018,-44.227
14:44:56:78,15.991,0.091,-0.047,-0.410,7.768,-95.779,-44.677
14:44:56:78,15.991,0.087,-0.053,-0.472,7.029,-96.875,-44.886
14:44:56:781,15.992,0.096,0.052,-0.509,6.000,-98.374,-44.384
14:44:56:8,16.011,0.087,0.121,-0.452,5.229,-99.587,-43.478
14:44:56:827,16.038,0.022,0.036,-0.334,4.156,-101.563,-41.339
14:44:56:883,16.094,-0.073,-0.061,-0.201,3.545,-102.766,-39.618
14:44:56:883,16.094,-0.104,-0.080,-0.161,3.015,-104.371,-36.936
14:44:56:905,16.116,-0.134,-0.048,-0.134,3.064,-105.044,-34.334
14:44:56:934,16.145,-0.042,-0.054,-0.287,3.406,-105.033,-32.790
14:44:56:959,16.170,-0.017,-0.026,-0.273,3.738,-105.045,-30.699
14:44:57:016,16.228,-0.012,0.005,-0.165,3.775,-105.529,-29.357
14:44:57:017,16.228,-0.056,0.027,-0.062,3.663,-106.698,-27.370
14:44:57:066,16.277,-0.123,-0.011,-0.003,3.602,-108.584,-25.611
14:44:57:066,16.277,-0.148,0.003,0.070,3.531,-110.298,-24.430
14:44:57:118,16.329,-0.127,-0.017,0.161,3.646,-112.870,-22.671
14:44:57:145,16.356,-0.070,0.004,0.179,4.138,-113.539,-21.473
14:44:57:145,16.356,-0.016,0.037,0.152,5.145,-113.357,-19.562
14:44:57:168,16.379,0.018,-0.028,0.175,6.325,-112.447,-17.616
14:44:57:195,16.406,0.036,-0.063,0.164,7.057,-111.424,-16.280
14:44:57:251,16.462,-0.011,-0.047,0.206,7.872,-110.346,-14.265
14:44:57:251,16.462,-0.027,-0.028,0.267,8.317,-110.040,-13.008
14:44:57:273,16.484,-0.042,-0.009,0.319,8.882,-110.192,-11.328
14:44:57:299,16.510,-0.040,0.040,0.382,9.346,-110.387,-9.884
14:44:57:386,16.597,-0.056,0.086,0.420,9.600,-110.397,-9.072
14:44:57:386,16.597,-0.048,0.072,0.434,9.864,-109.881,-8.168
14:44:57:386,16.597,-0.057,0.072,0.424,9.891,-109.306,-7.838
14:44:57:433,16.644,-0.056,0.142,0.416,9.592,-108.255,-8.480
14:44:57:434,16.645,-0.033,0.029,0.370,9.250,-106.731,-9.154
14:44:57:516,16.727,-0.015,-0.051,0.338,8.933,-105.374,-10.044
14:44:57:516,16.727,0.010,-0.060,0.269,8.256,-102.560,-11.977
14:44:57:517,16.728,0.036,0.009,0.230,7.796,-100.458,-13.594
14:44:57:535,16.747,0.080,0.095,0.206,7.323,-96.818,-16.268
14:44:57:678,16.889,0.112,0.154,0.160,7.365,-92.607,-18.979
14:44:57:678,16.889,0.147,0.147,0.102,7.831,-89.407,-20.698
14:44:57:678,16.889,0.174,0.076,-0.017,9.223,-84.460,-23.144
14:44:57:678,16.889,0.195,0.033,-0.104,10.523,-81.389,-24.741
14:44:57:754,16.965,0.200,0.026,-0.178,12.876,-77.364,-27.092
14:44:57:754,16.966,0.216,0.030,-0.299,15.573,-74.180,-29.500
14:44:57:755,16.967,0.210,0.014,-0.351,17.438,-72.659,-31.178
14:44:57:802,17.013,0.194,-0.062,-0.490,21.720,-71.329,-35.795
14:44:57:802,17.013,0.185,-0.162,-0.524,23.571,-72.239,-38.767
14:44:57:883,17.094,0.150,-0.194,-0.513,24.263,-73.432,-40.722
14:44:57:883,17.094,0.111,-0.280,-0.574,24.367,-75.975,-43.569
14:44:57:884,17.095,0.145,-0.226,-0.463,22.873,-79.766,-46.037
14:44:57:903,17.114,0.147,-0.142,-0.456,21.183,-82.423,-47.205
14:44:57:988,17.199,0.123,-0.100,-0.500,18.640,-85.625,-48.187
14:44:57:988,17.199,0.061,-0.143,-0.479,16.301,-87.872,-48.249
14:44:57:989,17.200,0.051,-0.069,-0.468,14.948,-88.967,-47.712
14:44:58:037,17.248,0.062,0.096,-0.546,13.384,-90.177,-46.125
14:44:58:038,17.249,0.046,0.004,-0.447,12.521,-90.895,-44.532
14:44:58:121,17.333,-0.031,-0.183,-0.202,11.109,-91.964,-41.585
14:44:58:122,17.334,-0.096,-0.150,-0.094,9.976,-92.886,-38.310
14:44:58:123,17.334,-0.045,-0.002,-0.156,9.679,-93.226,-36.194
14:44:58:165,17.377,0.008,0.197,-0.166,9.754,-92.691,-30.768
14:44:58:221,17.432,-0.010,0.182,-0.132,9.741,-91.481,-27.669
14:44:58:222,17.433,-0.056,0.085,0.032,9.535,-90.822,-25.746
14:44:58:249,17.460,-0.088,0.031,0.119,9.023,-90.086,-22.995
14:44:58:249,17.460,-0.117,-0.036,0.182,8.442,-90.009,-20.654
14:44:58:36,17.571,-0.078,-0.031,0.389,8.124,-91.078,-19.337
14:44:58:36,17.571,-0.048,-0.044,0.328,8.155,-93.426,-17.423
14:44:58:36,17.572,-0.017,0.009,0.468,8.472,-95.013,-16.216
14:44:58:36,17.572,-0.007,-0.027,0.497,9.330,-96.221,-14.482
14:44:58:406,17.617,0.039,-0.094,0.495,10.583,-95.295,-12.924
14:44:58:406,17.617,0.081,-0.124,0.373,11.412,-93.388,-11.958
14:44:58:486,17.697,0.110,-0.082,0.317,12.404,-89.869,-10.859
14:44:58:487,17.698,0.117,-0.050,0.355,12.893,-87.778,-10.478
14:44:58:488,17.699,0.170,0.091,0.287,13.372,-84.851,-10.499
14:44:58:535,17.746,0.206,0.146,0.130,13.534,-81.853,-11.091
14:44:58:591,17.802,0.236,0.121,0.103,13.534,-80.440,-11.863
14:44:58:591,17.802,0.227,0.096,0.174,13.297,-79.579,-13.563
14:44:58:616,17.827,0.254,0.168,0.197,13.000,-79.469,-14.872
14:44:58:616,17.827,0.266,0.247,0.189,12.461,-79.201,-16.837
14:44:58:638,17.849,0.277,0.175,0.186,12.116,-78.095,-18.556
14:44:58:778,17.989,0.254,-0.009,0.116,12.153,-76.456,-19.616
14:44:58:779,17.990,0.233,-0.051,0.017,12.406,-73.075,-21.264
14:44:58:828,18.039,0.236,0.082,-0.226,15.115,-59.671,-25.457
14:44:58:829,18.040,0.207,0.072,-0.280,16.229,-56.249,-26.463
14:44:58:83,18.041,0.154,-0.010,-0.339,17.998,-51.549,-28.074
14:44:58:965,18.176,0.113,-0.031,-0.396,19.159,-48.861,-29.282
14:44:58:965,18.176,0.090,-0.041,-0.422,20.835,-45.586,-31.274
14:44:58:965,18.176,0.061,-0.065,-0.454,22.402,-43.039,-33.372
14:44:58:965,18.176,0.042,-0.094,-0.485,23.383,-41.873,-34.777
14:44:58:982,18.193,-0.006,-0.114,-0.503,23.673,-40.095,-36.257
14:44:58:983,18.194,-0.042,-0.181,-0.518,24.278,-39.496,-37.661
14:44:59:005,18.216,-0.073,-0.239,-0.493,24.662,-39.061,-39.717
14:44:59:146,18.357,-0.102,-0.285,-0.446,24.198,-39.300,-41.667
14:44:59:147,18.358,-0.118,-0.285,-0.433,23.440,-39.492,-42.785
14:44:59:148,18.359,-0.076,-0.193,-0.424,21.858,-39.791,-43.850
14:44:59:195,18.406,-0.178,-0.018,-0.414,19.698,-38.385,-43.358
14:44:59:195,18.406,-0.209,0.006,-0.325,19.021,-37.427,-42.432
14:44:59:218,18.429,-0.341,0.154,-0.355,18.032,-36.367,-40.706
14:44:59:219,18.430,-0.417,0.068,-0.388,16.475,-36.436,-38.546
14:44:59:359,18.570,-0.247,-0.016,-0.124,14.758,-37.581,-36.709
14:44:59:359,18.570,-0.155,-0.013,-0.041,12.512,-39.490,-33.541
14:44:59:36,18.571,-0.189,0.060,-0.042,11.464,-40.765,-31.485
14:44:59:36,18.571,-0.174,0.057,0.022,10.382,-42.187,-28.365
14:44:59:698,18.909,-0.136,0.106,0.080,9.669,-42.867,-25.481
14:44:59:698,18.909,-0.115,0.110,0.124,9.221,-43.330,-23.791
14:44:59:699,18.910,-0.094,0.065,0.203,8.414,-44.111,-21.665
14:44:59:699,18.910,0.042,0.165,0.474,7.640,-45.793,-20.614
14:44:59:714,18.925,0.096,0.056,0.443,6.751,-49.901,-19.515
14:44:59:751,18.962,0.203,-0.025,0.350,6.679,-54.098,-18.663
14:44:59:751,18.962,0.301,-0.068,0.328,7.185,-55.108,-18.277
14:44:59:751,18.962,0.291,-0.121,0.014,8.570,-52.076,-17.595
14:44:59:752,18.963,0.225,-0.051,-0.102,9.393,-48.139,-16.887
14:44:59:82,19.031,0.192,-0.044,-0.008,10.272,-42.691,-15.771
14:44:59:934,19.145,0.127,-0.071,-0.022,10.986,-38.445,-14.661
14:44:59:935,19.146,0.129,-0.062,0.012,11.382,-36.504,-13.906
14:44:59:936,19.147,0.219,-0.032,0.041,11.818,-35.696,-13.020
14:44:59:937,19.148,0.333,0.027,0.033,12.065,-36.221,-12.627
14:44:59:987,19.198,0.357,0.053,0.029,12.362,-37.304,-12.197
14:44:59:987,19.198,0.375,0.103,0.000,12.470,-37.781,-11.954
14:44:59:987,19.198,0.317,0.111,-0.025,12.422,-37.561,-11.913
14:44:59:988,19.199,0.276,0.082,-0.075,12.183,-36.760,-12.079
14:45:00:066,19.277,0.309,0.087,0.009,11.851,-36.625,-12.313
14:45:00:067,19.278,0.324,0.013,0.092,11.219,-35.801,-12.857
14:45:00:068,19.279,0.303,-0.099,0.101,10.563,-34.211,-13.700
14:45:00:084,19.295,0.220,-0.001,0.000,9.394,-29.185,-15.884
14:45:00:119,19.330,0.172,0.048,-0.044,9.026,-26.227,-16.976
14:45:00:119,19.330,0.157,0.074,-0.070,8.780,-21.320,-18.805
14:45:00:119,19.330,0.086,0.072,-0.133,9.029,-16.427,-20.764
14:45:00:119,19.330,0.031,0.033,-0.151,9.459,-13.475,-22.101
14:45:00:198,19.409,-0.050,-0.002,-0.182,10.398,-9.592,-24.218
14:45:00:198,19.409,-0.099,-0.021,-0.192,11.137,-7.544,-25.730
14:45:00:198,19.410,-0.166,-0.015,-0.222,12.310,-5.313,-28.136
14:45:00:198,19.410,-0.210,-0.024,-0.227,13.152,-4.107,-30.380
14:45:00:218,19.430,-0.227,-0.032,-0.227,12.883,-3.672,-31.172
14:45:00:219,19.431,-0.241,-0.054,-0.218,12.252,-3.600,-32.135
14:45:00:22,19.431,-0.273,-0.024,-0.215,11.643,-3.854,-32.601
14:45:00:326,19.537,-0.300,-0.001,-0.231,11.403,-4.870,-33.964
14:45:00:327,19.538,-0.220,-0.137,-0.221,11.209,-6.578,-35.329
14:45:00:328,19.539,-0.220,-0.129,-0.195,10.765,-7.926,-36.007
14:45:00:329,19.540,-0.297,0.007,-0.171,9.853,-9.979,-36.658
14:45:00:432,19.643,-0.242,-0.052,-0.138,9.147,-11.314,-36.690
14:45:00:433,19.644,-0.220,-0.083,-0.096,7.938,-13.331,-36.224
14:45:00:434,19.645,-0.219,-0.019,-0.030,6.717,-15.302,-35.249
14:45:00:435,19.646,-0.195,0.032,-0.010,6.193,-16.404,-34.280
14:45:00:535,19.746,-0.178,0.070,-0.072,5.986,-17.538,-32.348
14:45:00:536,19.747,-0.191,0.075,-0.080,6.003,-18.051,-30.804
14:45:00:536,19.748,-0.111,0.063,-0.007,5.801,-19.062,-28.210
14:45:00:696,19.907,0.008,0.063,0.110,5.590,-19.826,-26.347
14:45:00:696,19.907,0.052,0.032,0.127,5.463,-20.440,-23.537
14:45:00:697,19.908,0.039,0.035,0.117,5.528,-20.480,-20.898
14:45:00:698,19.909,0.096,0.019,0.093,5.585,-20.531,-19.184
14:45:00:722,19.933,0.129,-0.006,0.099,5.772,-20.580,-16.736
14:45:00:722,19.933,0.204,-0.049,0.115,5.918,-20.811,-15.193
14:45:00:722,19.933,0.238,-0.037,0.115,6.225,-21.549,-12.986
14:45:00:724,19.935,0.317,-0.043,0.148,6.758,-22.332,-10.904
14:45:00:799,20.010,0.323,-0.057,0.124,7.189,-22.186,-9.607
14:45:00:8,20.011,0.391,-0.055,0.133,7.778,-21.544,-7.814
14:45:00:8,20.012,0.356,-0.087,0.086,8.068,-20.286,-7.441
14:45:00:801,20.013,0.372,-0.091,0.101,8.484,-19.305,-6.095
14:45:01:168,20.379,0.411,-0.115,0.119,8.847,-18.267,-5.051
14:45:01:168,20.379,0.434,-0.103,0.105,9.005,-18.339,-5.312
14:45:01:168,20.380,0.463,-0.058,0.092,9.227,-17.458,-4.807
14:45:01:169,20.381,0.459,0.028,0.064,9.294,-17.033,-4.676
14:45:01:194,20.406,0.443,0.040,0.048,9.300,-15.871,-4.804
14:45:01:195,20.406,0.390,0.049,0.024,9.142,-14.877,-5.352
14:45:01:195,20.407,0.373,0.040,0.027,8.937,-13.778,-5.986
14:45:01:196,20.408,0.408,0.123,0.018,8.515,-12.856,-7.217
14:45:01:404,20.615,0.380,0.103,0.005,8.198,-11.973,-8.175
14:45:01:404,20.615,0.339,0.026,-0.007,7.747,-9.945,-9.859
14:45:01:405,20.616,0.255,-0.001,-0.073,7.344,-6.895,-11.884
14:45:01:407,20.618,0.212,0.027,-0.090,7.151,-4.414,-13.366
14:45:01:43,20.641,0.145,0.045,-0.130,7.113,-0.215,-15.678
14:45:01:43,20.641,0.100,0.095,-0.145,7.331,2.595,-17.221
14:45:01:431,20.642,0.036,0.110,-0.178,8.077,6.756,-19.411
14:45:01:432,20.643,-0.035,0.083,-0.186,8.844,9.355,-20.761
14:45:01:503,20.714,-0.106,0.030,-0.195,10.290,12.913,-22.693
14:45:01:503,20.714,-0.131,-0.029,-0.194,11.883,15.877,-24.540
14:45:01:534,20.746,-0.171,-0.061,-0.208,12.967,17.559,-25.708
14:45:01:535,20.747,-0.214,-0.055,-0.207,14.641,19.849,-27.385
14:45:01:536,20.748,-0.277,-0.020,-0.231,16.270,21.752,-28.987
14:45:01:537,20.749,-0.292,0.003,-0.234,17.278,22.721,-29.970
14:45:01:642,20.853,-0.289,-0.053,-0.197,18.612,24.127,-31.219
14:45:01:642,20.853,-0.271,-0.138,-0.149,19.309,24.911,-32.012
14:45:01:642,20.853,-0.297,-0.141,-0.125,19.894,25.503,-33.415
14:45:01:642,20.853,-0.303,-0.074,-0.127,19.980,25.500,-34.465
14:45:01:667,20.878,-0.345,-0.030,-0.107,19.822,25.327,-35.972
14:45:01:668,20.879,-0.356,-0.034,-0.073,19.390,25.116,-37.120
14:45:01:668,20.879,-0.347,-0.076,-0.051,18.912,24.808,-37.706
14:45:01:668,20.879,-0.370,-0.038,0.041,17.705,23.860,-38.343
14:45:01:739,20.950,-0.358,-0.023,0.080,16.558,22.835,-38.541
14:45:01:771,20.982,-0.349,0.041,0.073,14.383,20.564,-38.335
14:45:01:771,20.983,-0.369,-0.034,0.073,12.151,17.830,-37.275
14:45:01:773,20.984,-0.229,-0.157,0.057,10.631,15.610,-36.073
14:45:01:773,20.985,-0.071,-0.105,0.074,8.347,12.098,-33.579
14:45:01:794,21.006,0.075,0.064,0.142,7.259,10.393,-31.529
14:45:01:795,21.006,0.038,0.138,0.193,6.776,9.824,-28.100
14:45:01:795,21.006,0.053,0.162,0.159,7.041,10.993,-24.558
14:45:01:873,21.084,0.090,0.108,0.139,7.280,12.200,-22.223
14:45:01:873,21.084,0.169,0.018,0.122,7.456,13.942,-18.810
14:45:01:874,21.085,0.270,0.008,0.134,7.440,14.494,-16.699
14:45:01:893,21.104,0.402,0.024,0.083,7.503,14.647,-13.980
14:45:01:921,21.132,0.320,-0.044,0.018,7.971,15.463,-11.774
14:45:02:004,21.215,0.312,-0.012,-0.057,8.285,16.785,-10.466
14:45:02:004,21.215,0.191,-0.094,-0.120,8.555,19.825,-8.548
14:45:02:006,21.217,0.329,-0.052,-0.123,8.559,21.814,-7.336
14:45:02:14,21.351,0.390,-0.108,-0.130,8.481,24.618,-5.486
14:45:02:14,21.351,0.465,-0.143,-0.177,8.585,26.688,-3.819
14:45:02:14,21.351,0.471,-0.180,-0.206,8.822,27.775,-2.869
14:45:02:141,21.352,0.451,-0.101,-0.294,9.350,29.164,-1.660
14:45:02:244,21.455,0.459,-0.054,-0.338,9.783,30.030,-0.999
14:45:02:245,21.456,0.390,-0.008,-0.376,10.420,31.477,-0.368
14:45:02:245,21.456,0.360,0.022,-0.381,10.846,33.066,-0.291
14:45:02:246,21.457,0.370,0.068,-0.393,10.964,34.205,-0.600
14:45:02:264,21.475,0.356,0.168,-0.417,10.906,36.326,-1.603
14:45:02:264,21.475,0.237,0.000,-0.355,10.776,38.008,-2.713
14:45:02:287,21.498,0.161,-0.040,-0.320,10.465,40.715,-5.139
14:45:02:343,21.554,0.107,0.041,-0.288,10.187,42.597,-7.173
14:45:02:344,21.555,0.043,0.100,-0.285,9.849,45.678,-10.594
14:45:02:366,21.577,-0.049,0.194,-0.274,9.934,49.005,-14.176
14:45:02:392,21.604,-0.119,0.213,-0.227,10.256,51.217,-16.588
14:45:02:532,21.743,-0.175,0.202,-0.165,11.181,54.508,-20.119
14:45:02:533,21.744,-0.243,0.113,-0.092,12.065,56.558,-22.428
14:45:02:533,21.745,-0.279,0.066,-0.037,13.709,59.297,-25.840
14:45:02:534,21.746,-0.363,0.053,0.036,15.554,61.591,-29.242
14:45:02:611,21.822,-0.423,0.060,0.091,16.874,62.909,-31.480
14:45:02:612,21.823,-0.472,0.009,0.147,18.882,64.445,-34.742
14:45:02:613,21.824,-0.484,-0.064,0.230,20.128,65.094,-36.883
14:45:02:629,21.840,-0.447,-0.224,0.285,22.092,64.961,-43.089
14:45:02:654,21.865,-0.422,-0.271,0.295,21.772,64.443,-44.965
14:45:02:712,21.924,-0.351,-0.309,0.299,20.396,63.653,-47.416
14:45:02:713,21.924,-0.291,-0.235,0.359,19.066,63.214,-48.733
14:45:02:714,21.925,-0.282,-0.200,0.391,16.790,62.713,-50.067
14:45:02:733,21.944,-0.276,-0.164,0.405,14.513,62.188,-50.515
14:45:02:759,21.971,-0.250,-0.145,0.452,13.011,61.793,-50.245
14:45:02:841,22.052,-0.094,-0.184,0.438,10.619,60.965,-48.854
14:45:02:841,22.052,-0.073,0.027,0.441,8.919,60.062,-47.394
14:45:02:867,22.078,-0.119,0.158,0.501,6.791,58.345,-44.524
14:45:02:868,22.079,-0.060,0.084,0.387,5.279,56.347,-40.712
14:45:02:978,22.189,0.001,0.096,0.294,4.468,54.699,-37.825
14:45:02:978,22.189,0.088,0.136,0.206,3.800,52.511,-33.294
14:45:02:979,22.190,0.171,0.200,0.159,3.728,51.680,-30.340
14:45:02:98,22.191,0.181,0.167,0.180,4.005,51.596,-26.319
14:45:03:024,22.235,0.108,0.171,0.134,4.387,51.401,-22.838
14:45:03:025,22.236,0.148,0.140,0.028,4.606,50.339,-20.697
14:45:03:106,22.317,0.118,0.075,-0.043,5.146,47.742,-17.708
14:45:03:107,22.318,0.211,0.051,-0.218,5.709,45.273,-15.861
14:45:03:107,22.319,0.224,-0.017,-0.250,6.947,41.769,-13.226
14:45:03:213,22.424,0.311,0.007,-0.344,8.467,39.730,-10.711
14:45:03:214,22.425,0.336,-0.015,-0.386,9.573,39.553,-9.024
14:45:03:215,22.426,0.258,-0.100,-0.398,11.031,40.819,-6.462
14:45:03:234,22.445,0.296,-0.108,-0.404,11.745,42.127,-4.816
14:45:03:235,22.446,0.182,-0.112,-0.371,12.748,43.918,-2.650
14:45:03:258,22.469,0.265,-0.111,-0.452,13.722,44.148,-0.932
14:45:03:343,22.554,0.261,-0.093,-0.503,14.311,43.926,-0.067
14:45:03:343,22.554,0.286,-0.050,-0.567,14.965,43.718,0.851
14:45:03:344,22.555,0.286,-0.067,-0.576,15.086,44.016,1.187
14:45:03:506,22.717,0.260,-0.063,-0.549,14.630,45.378,1.119
14:45:03:506,22.717,0.250,-0.037,-0.514,13.903,46.747,0.654
14:45:03:507,22.718,0.249,0.007,-0.526,12.376,49.462,-0.631
14:45:03:507,22.718,0.218,0.064,-0.503,10.514,53.107,-2.603
14:45:03:582,22.794,0.154,0.054,-0.445,9.225,56.246,-4.357
14:45:03:583,22.794,0.043,0.040,-0.339,7.516,61.655,-7.691
14:45:03:584,22.795,-0.015,0.109,-0.249,6.606,65.514,-10.343
14:45:03:584,22.796,-0.074,0.159,-0.154,5.897,71.387,-14.684
14:45:03:602,22.813,-0.135,0.262,-0.041,6.156,76.850,-19.172
14:45:03:603,22.814,-0.169,0.287,0.016,6.871,79.911,-22.083
14:45:03:625,22.837,-0.207,0.295,0.128,8.627,83.599,-26.333
14:45:03:682,22.893,-0.239,0.197,0.281,10.109,85.444,-29.130
14:45:03:682,22.893,-0.250,0.108,0.355,12.435,87.101,-33.422
14:45:03:705,22.916,-0.264,0.057,0.441,14.474,87.556,-37.839
14:45:03:732,22.943,-0.267,0.004,0.470,15.562,87.396,-40.776
14:45:03:816,23.027,-0.264,-0.104,0.515,16.705,86.763,-45.050
14:45:03:816,23.027,-0.240,-0.203,0.518,17.080,86.235,-47.665
14:45:03:816,23.028,-0.220,-0.247,0.515,17.067,85.537,-51.022
14:45:03:836,23.047,-0.199,-0.330,0.509,16.811,85.161,-53.697
14:45:03:863,23.074,-0.174,-0.383,0.509,16.404,85.008,-55.122
14:45:03:942,23.153,-0.139,-0.421,0.508,15.267,84.715,-56.526
14:45:03:972,23.184,-0.128,-0.385,0.511,14.317,84.489,-56.834
14:45:03:973,23.184,-0.088,-0.231,0.585,12.779,84.062,-56.461
14:45:03:974,23.185,-0.074,-0.221,0.664,10.892,82.977,-55.346
14:45:03:993,23.204,-0.101,-0.210,0.608,9.032,81.501,-54.055
14:45:04:049,23.260,-0.116,-0.073,0.571,5.664,78.280,-51.189
14:45:04:049,23.260,-0.110,0.093,0.563,3.410,75.588,-48.639
14:45:04:101,23.312,-0.080,0.195,0.449,0.676,70.897,-43.987
14:45:04:101,23.312,0.021,0.169,0.230,-0.579,66.193,-38.628
14:45:04:211,23.422,0.065,0.204,0.157,-0.544,63.465,-34.914
14:45:04:212,23.423,0.172,0.255,0.009,0.408,60.297,-29.320
14:45:04:213,23.424,0.261,0.284,-0.092,1.417,58.859,-25.729
14:45:04:214,23.425,0.223,0.303,-0.108,3.311,57.652,-20.711
14:45:04:23,23.441,0.183,0.289,-0.175,5.087,55.169,-16.446
14:45:04:422,23.633,0.302,0.108,-0.342,6.515,52.423,-13.975
14:45:04:423,23.634,0.145,-0.023,-0.346,8.999,49.992,-10.716
14:45:04:424,23.635,0.120,-0.074,-0.374,10.485,49.881,-8.719
14:45:04:425,23.636,0.131,-0.084,-0.474,12.310,50.080,-6.302
14:45:04:443,23.654,0.102,-0.115,-0.453,13.217,50.762,-4.993
14:45:04:444,23.655,0.092,-0.114,-0.435,14.077,52.206,-3.397
14:45:04:554,23.765,0.125,-0.162,-0.470,14.616,53.383,-2.232
14:45:04:554,23.765,0.154,-0.207,-0.502,14.837,53.729,-1.628
14:45:04:555,23.766,0.136,-0.229,-0.493,14.951,54.344,-1.097
14:45:04:556,23.767,0.120,-0.174,-0.518,14.899,54.175,-1.009
14:45:04:657,23.868,0.101,-0.076,-0.542,14.596,54.516,-1.163
14:45:04:657,23.869,0.083,0.012,-0.562,13.964,55.147,-1.535
14:45:04:658,23.870,0.025,0.033,-0.495,13.365,55.865,-2.000
14:45:04:682,23.894,0.093,0.060,-0.418,11.124,56.920,-4.337
14:45:04:683,23.894,0.125,0.145,-0.437,9.317,58.061,-6.397
14:45:04:706,23.917,0.137,0.135,-0.381,7.320,60.230,-8.977
14:45:04:706,23.917,0.121,0.103,-0.349,5.989,62.448,-11.033
14:45:04:791,24.002,0.094,0.151,-0.253,4.097,67.407,-14.728
14:45:04:791,24.002,0.124,0.201,-0.108,3.174,72.268,-17.574
14:45:04:791,24.002,-0.143,0.227,0.296,3.066,83.007,-22.489
14:45:04:791,24.002,-0.139,0.209,0.357,3.989,91.920,-27.427
14:45:04:836,24.047,0.026,0.213,0.161,4.465,94.775,-30.355
14:45:04:922,24.133,-0.020,0.063,0.264,5.758,98.036,-34.529
14:45:04:922,24.133,-0.026,-0.001,0.377,6.926,99.544,-36.946
14:45:04:922,24.133,-0.067,-0.077,0.397,8.604,100.133,-40.055
14:45:04:923,24.134,-0.120,-0.088,0.429,10.136,99.271,-42.856
14:45:04:968,24.179,-0.127,-0.151,0.477,11.174,98.407,-44.578
14:45:04:968,24.179,-0.097,-0.244,0.515,12.379,96.716,-46.938
14:45:05:017,24.228,-0.080,-0.280,0.531,12.536,95.250,-48.358
14:45:05:047,24.259,-0.083,-0.309,0.495,11.319,92.644,-50.143
14:45:05:047,24.259,-0.051,-0.353,0.425,8.706,90.092,-51.437
14:45:05:159,24.370,-0.036,-0.326,0.424,6.631,88.615,-51.918
14:45:05:159,24.370,-0.035,-0.164,0.435,3.893,86.888,-51.787
14:45:05:159,24.370,-0.055,-0.027,0.423,2.755,86.106,-51.091
14:45:05:159,24.370,-0.072,-0.006,0.425,2.386,85.539,-49.194
14:45:05:393,24.604,-0.072,0.031,0.444,2.692,85.385,-47.441
14:45:05:394,24.605,-0.073,0.094,0.460,3.385,85.140,-44.159
14:45:05:395,24.606,-0.099,0.226,0.450,4.054,84.705,-39.974
14:45:05:396,24.607,-0.074,0.146,0.324,4.313,84.165,-36.751
14:45:05:42,24.631,-0.003,0.127,0.122,4.311,82.604,-31.767
14:45:05:42,24.632,0.057,0.123,0.009,4.347,81.279,-28.631
14:45:05:421,24.632,0.069,0.088,-0.030,4.531,79.331,-24.444
14:45:05:422,24.633,0.087,0.081,-0.031,4.557,77.415,-21.119
14:45:05:442,24.654,0.094,0.099,-0.007,4.337,76.045,-19.464
14:45:05:443,24.654,0.129,0.054,-0.096,3.666,73.208,-17.716
14:45:05:444,24.655,0.084,-0.036,-0.178,3.214,70.801,-16.873
14:45:05:522,24.733,0.109,-0.036,-0.278,2.730,67.372,-15.842
14:45:05:522,24.733,0.037,-0.034,-0.250,2.532,65.390,-14.825
14:45:05:523,24.734,0.040,-0.003,-0.260,2.561,65.170,-14.172
14:45:05:542,24.753,0.057,-0.019,-0.292,2.586,65.466,-12.881
14:45:05:57,24.781,0.140,-0.098,-0.359,2.734,66.073,-11.794
14:45:05:623,24.834,0.185,-0.146,-0.367,3.173,66.309,-9.943
14:45:05:624,24.835,0.149,-0.159,-0.355,3.938,66.971,-8.029
14:45:05:648,24.859,0.132,-0.122,-0.384,4.530,66.913,-6.752
14:45:05:673,24.884,0.153,0.022,-0.442,5.376,67.117,-5.018
14:45:05:758,24.969,0.178,0.143,-0.498,5.831,67.041,-4.040
14:45:05:758,24.970,0.173,0.129,-0.477,6.224,67.747,-3.061
14:45:05:759,24.970,0.157,0.094,-0.358,6.174,68.431,-2.951
14:45:05:778,24.989,0.209,0.069,-0.398,5.952,68.867,-3.330
14:45:05:892,25.103,0.265,0.112,-0.492,5.410,69.027,-4.478
14:45:05:892,25.103,0.198,-0.050,-0.394,4.985,70.065,-5.621
14:45:05:893,25.104,0.152,-0.123,-0.335,4.432,72.013,-7.915
14:45:05:894,25.105,0.113,-0.093,-0.237,3.898,74.720,-10.912
14:45:05:909,25.120,0.174,0.022,-0.202,3.685,77.007,-13.211
14:45:05:936,25.147,-0.001,0.149,0.005,4.038,82.091,-16.734
14:45:06:02,25.231,-0.066,0.163,0.056,4.853,86.228,-18.970
14:45:06:021,25.232,-0.075,0.252,0.083,6.336,90.686,-22.222
14:45:06:022,25.233,-0.037,0.141,0.174,7.333,92.019,-24.374
14:45:06:04,25.251,-0.126,0.047,0.175,8.775,92.816,-27.731
14:45:06:126,25.337,-0.153,0.035,0.223,9.968,92.771,-31.243
14:45:06:126,25.337,-0.171,-0.015,0.279,10.696,92.650,-33.540
14:45:06:126,25.337,-0.172,-0.050,0.308,11.861,92.634,-36.775
14:45:06:147,25.358,-0.181,-0.086,0.343,12.744,92.743,-38.734
14:45:06:173,25.384,-0.170,-0.147,0.376,14.172,93.140,-41.335
14:45:06:256,25.467,-0.164,-0.210,0.427,15.466,93.548,-43.594
14:45:06:257,25.468,-0.148,-0.256,0.433,16.010,93.651,-44.864
14:45:06:258,25.469,-0.155,-0.234,0.437,16.205,93.453,-46.346
14:45:06:365,25.577,-0.165,-0.184,0.488,15.972,93.129,-47.047
14:45:06:365,25.577,-0.171,-0.147,0.499,15.169,92.441,-47.516
14:45:06:366,25.578,-0.168,-0.022,0.520,13.953,91.579,-47.094
14:45:06:367,25.579,-0.144,-0.040,0.482,12.989,90.992,-46.311
14:45:06:602,25.813,-0.109,-0.082,0.431,11.307,90.004,-44.493
14:45:06:603,25.814,-0.087,0.040,0.458,10.010,89.111,-42.943
14:45:06:604,25.815,-0.078,0.082,0.404,7.904,87.308,-40.149
14:45:06:604,25.815,-0.032,-0.028,0.236,5.788,84.945,-36.831
14:45:06:627,25.838,0.065,-0.041,0.091,4.507,83.188,-34.425
14:45:06:628,25.839,0.084,0.043,0.143,3.253,80.786,-30.804
14:45:06:629,25.840,0.133,0.107,0.028,2.677,79.077,-28.457
14:45:06:629,25.840,0.155,0.129,0.025,2.046,76.534,-24.985
14:45:06:651,25.862,0.302,0.182,-0.072,1.508,73.960,-21.762
14:45:06:651,25.862,0.414,0.157,-0.178,1.081,71.004,-19.844
14:45:06:652,25.863,0.414,0.115,-0.429,1.171,65.515,-17.198
14:45:06:729,25.940,0.128,-0.048,-0.279,1.993,63.654,-15.841
14:45:06:729,25.940,0.154,-0.020,-0.364,3.483,63.319,-13.859
14:45:06:73,25.941,0.117,-0.001,-0.344,4.777,64.890,-12.183
14:45:06:863,26.074,0.082,-0.011,-0.331,5.571,66.684,-11.097
14:45:06:864,26.075,0.049,-0.025,-0.265,6.598,69.950,-9.541
14:45:06:866,26.077,0.128,-0.056,-0.369,7.173,71.647,-8.545
14:45:06:866,26.077,0.075,-0.147,-0.348,8.075,73.273,-7.228
14:45:06:883,26.094,0.046,-0.127,-0.414,8.981,73.789,-6.320
14:45:06:884,26.095,0.017,-0.095,-0.430,9.510,73.943,-5.964
14:45:06:908,26.119,-0.046,0.007,-0.464,10.120,74.520,-5.750
14:45:06:961,26.173,-0.056,0.083,-0.451,10.355,75.199,-5.821
14:45:06:962,26.174,-0.071,0.055,-0.414,10.451,76.675,-6.277
14:45:06:987,26.198,-0.049,0.053,-0.386,10.353,77.753,-6.880
14:45:07:012,26.223,-0.065,0.163,-0.411,9.962,79.365,-8.244
14:45:07:102,26.313,-0.084,0.260,-0.393,9.393,81.426,-10.054
14:45:07:102,26.313,-0.113,0.106,-0.316,9.035,83.363,-11.498
14:45:07:102,26.313,-0.140,0.001,-0.205,8.571,86.969,-14.143
14:45:07:102,26.313,-0.148,0.015,-0.121,8.333,89.786,-16.132
14:45:07:145,26.356,-0.167,0.039,-0.063,8.282,94.632,-19.244
14:45:07:231,26.442,-0.188,0.118,0.004,8.872,99.986,-22.208
14:45:07:231,26.442,-0.201,0.153,0.050,9.722,103.705,-24.008
14:45:07:232,26.443,-0.212,0.142,0.145,11.714,109.220,-26.422
14:45:07:233,26.444,-0.205,0.054,0.274,13.402,112.589,-27.950
14:45:07:335,26.546,-0.175,0.022,0.363,16.174,116.830,-30.198
14:45:07:336,26.547,-0.165,-0.001,0.451,18.964,119.946,-32.448
14:45:07:337,26.548,-0.152,-0.021,0.493,20.726,121.357,-33.969
14:45:07:338,26.549,-0.145,-0.107,0.506,23.043,122.534,-36.335
14:45:07:353,26.564,-0.127,-0.157,0.519,24.316,122.814,-37.965
14:45:07:467,26.679,-0.108,-0.185,0.538,25.602,122.690,-40.412
14:45:07:468,26.679,-0.085,-0.223,0.513,26.024,122.225,-42.701
14:45:07:468,26.680,-0.078,-0.252,0.497,25.821,121.849,-44.109
14:45:07:469,26.680,-0.007,-0.237,0.533,24.892,121.499,-45.852
14:45:07:485,26.697,0.021,-0.138,0.527,23.855,121.431,-46.527
14:45:07:51,26.722,0.035,-0.173,0.465,22.172,121.951,-46.748
14:45:07:624,26.835,0.119,-0.254,0.398,20.327,122.678,-46.402
14:45:07:625,26.836,0.242,-0.236,0.364,18.632,122.727,-46.086
14:45:07:625,26.836,0.220,-0.073,0.373,15.527,121.588,-45.172
14:45:07:626,26.837,0.221,0.094,0.393,13.432,120.617,-44.026
14:45:07:73,26.941,0.285,0.074,0.328,10.464,119.072,-41.469
14:45:07:73,26.941,0.247,0.072,0.093,7.882,117.231,-38.266
14:45:07:731,26.942,0.258,0.150,0.021,6.732,116.435,-35.918
14:45:07:732,26.943,0.278,0.181,-0.011,5.913,116.510,-32.363
14:45:07:749,26.960,0.318,0.082,-0.016,5.667,117.162,-30.136
14:45:07:8,27.011,0.309,0.091,-0.031,5.299,118.283,-27.131
14:45:07:857,27.069,0.247,0.019,-0.033,4.963,118.379,-25.257
14:45:07:858,27.069,0.268,0.015,-0.310,4.193,116.841,-22.761
14:45:07:859,27.070,0.073,0.091,-0.474,3.323,111.700,-20.574
14:45:07:878,27.089,-0.097,0.089,-0.707,3.267,107.698,-19.417
14:45:07:962,27.173,-0.139,-0.064,-0.386,4.506,106.395,-18.163
14:45:07:963,27.174,-0.261,-0.010,-0.157,5.944,109.440,-17.144
14:45:07:964,27.175,-0.253,0.009,-0.156,7.476,115.395,-15.290
14:45:07:983,27.194,-0.212,-0.065,-0.050,8.750,121.671,-13.442
14:45:08:067,27.279,-0.167,-0.047,-0.070,9.309,125.124,-12.226
14:45:08:068,27.280,-0.149,-0.054,-0.151,9.949,128.607,-10.460
14:45:08:069,27.280,-0.242,-0.045,-0.212,10.410,129.333,-9.458
14:45:08:117,27.328,-0.366,0.028,-0.170,11.185,129.516,-8.342
14:45:08:118,27.329,-0.412,0.082,-0.143,11.862,129.413,-7.700
14:45:08:2,27.411,-0.420,0.058,-0.135,12.119,129.253,-7.552
14:45:08:201,27.412,-0.357,0.041,-0.137,12.113,129.734,-7.766
14:45:08:201,27.412,-0.347,0.037,-0.184,11.859,130.175,-8.186
14:45:08:22,27.432,-0.345,0.095,-0.192,11.155,131.465,-9.204
14:45:08:304,27.515,-0.316,0.045,-0.174,10.239,133.173,-10.716
14:45:08:304,27.515,-0.278,-0.006,-0.138,9.576,134.944,-12.044
14:45:08:305,27.516,-0.230,-0.034,-0.079,8.528,137.805,-14.480
14:45:08:325,27.536,-0.192,0.042,-0.036,7.898,140.334,-16.319
14:45:08:439,27.650,-0.151,0.096,0.042,7.374,144.384,-19.168
14:45:08:439,27.650,-0.116,0.109,0.086,7.585,148.805,-21.979
14:45:08:439,27.651,-0.064,0.110,0.152,8.141,151.612,-23.814
14:45:08:44,27.651,0.007,0.111,0.214,9.493,155.718,-26.469
14:45:08:456,27.667,0.057,0.055,0.247,10.630,157.910,-28.134
14:45:08:482,27.693,0.109,0.030,0.271,12.569,161.301,-30.615
14:45:08:567,27.778,0.199,0.026,0.324,14.691,163.722,-33.136
14:45:08:567,27.778,0.229,0.004,0.339,16.107,165.015,-34.852
14:45:08:568,27.779,0.340,-0.056,0.315,18.107,166.362,-37.584
14:45:08:587,27.798,0.438,-0.168,0.404,19.195,166.398,-39.657
14:45:08:671,27.882,0.387,-0.212,0.394,19.333,164.332,-42.984
14:45:08:672,27.883,0.355,-0.206,0.326,17.584,161.176,-46.030
14:45:08:673,27.884,0.350,-0.220,0.306,15.691,158.982,-47.812
14:45:08:692,27.903,0.324,-0.194,0.261,12.001,155.850,-50.055
14:45:08:806,28.017,0.359,-0.160,0.223,9.607,154.364,-51.086
14:45:08:806,28.017,0.419,-0.110,0.155,7.177,154.125,-51.909
14:45:08:806,28.018,0.440,-0.109,0.164,6.366,154.091,-52.063
14:45:08:807,28.019,0.409,-0.087,0.157,5.595,154.720,-51.544
14:45:08:823,28.034,0.417,-0.076,0.091,5.268,154.927,-48.523
14:45:08:85,28.061,0.326,-0.018,0.078,5.155,154.954,-46.866
14:45:08:935,28.146,0.320,0.130,0.085,5.612,155.266,-43.565
14:45:08:935,28.146,0.271,0.048,0.085,6.294,155.706,-41.008
14:45:08:935,28.146,0.194,-0.085,0.066,7.188,156.159,-36.923
14:45:09:096,28.307,0.129,-0.033,0.051,7.570,156.038,-32.771
14:45:09:096,28.307,0.086,0.090,0.004,7.744,155.929,-29.986
14:45:09:096,28.307,0.018,0.189,0.011,8.095,156.158,-25.888
14:45:09:097,28.308,-0.036,0.143,-0.002,8.291,156.484,-23.369
14:45:09:279,28.490,-0.061,0.097,-0.014,8.307,156.815,-20.048
14:45:09:279,28.490,-0.209,0.088,-0.127,7.928,156.288,-17.288
14:45:09:28,28.491,-0.325,0.060,-0.194,7.676,155.661,-15.573
14:45:09:281,28.492,-0.358,-0.010,-0.151,7.602,155.743,-13.176
14:45:09:305,28.516,-0.297,-0.080,-0.038,7.656,156.556,-11.675
14:45:09:305,28.516,-0.358,-0.057,-0.090,7.684,157.823,-9.661
14:45:09:306,28.517,-0.377,-0.092,-0.131,7.690,158.718,-7.783
14:45:09:307,28.518,-0.390,-0.119,-0.146,7.840,159.675,-6.652
14:45:09:41,28.621,-0.423,-0.158,-0.106,8.316,159.873,-5.159
14:45:09:41,28.622,-0.471,-0.170,-0.120,8.678,160.293,-4.321
14:45:09:411,28.623,-0.496,-0.139,-0.142,9.172,160.436,-3.380
14:45:09:412,28.623,-0.542,-0.007,-0.103,9.573,161.626,-2.880
14:45:09:433,28.644,-0.546,0.069,-0.089,9.747,162.471,-2.795
14:45:09:433,28.644,-0.491,0.162,-0.039,9.803,164.580,-3.172
14:45:09:434,28.645,-0.438,0.189,-0.024,9.741,165.684,-3.843
14:45:09:456,28.667,-0.460,0.149,-0.021,9.573,167.423,-5.367
14:45:09:456,28.667,-0.503,0.184,0.015,9.319,169.329,-7.399
14:45:09:506,28.717,-0.609,0.159,0.036,9.125,170.805,-8.983
14:45:09:534,28.745,-0.587,0.042,0.125,9.009,174.445,-11.703
14:45:09:535,28.746,-0.458,0.128,0.298,9.132,178.000,-13.882
14:45:09:645,28.856,-0.384,0.211,0.477,9.774,-175.843,-17.933
14:45:09:646,28.857,-0.371,0.288,0.524,10.448,-171.603,-21.056
14:45:09:647,28.858,-0.167,0.432,0.578,12.085,-165.290,-26.263
14:45:09:648,28.859,-0.003,0.721,0.713,14.761,-158.816,-32.113
14:45:09:694,28.905,0.231,0.700,0.690,17.521,-154.041,-36.300
14:45:09:694,28.905,0.609,0.576,0.565,23.384,-146.718,-43.167
14:45:09:83,29.041,0.680,0.696,0.604,28.552,-142.181,-48.131
14:45:09:83,29.041,0.936,0.436,0.307,39.353,-134.794,-55.350
14:45:09:832,29.043,1.066,0.230,0.143,52.229,-128.923,-63.015
14:45:09:832,29.043,1.071,0.108,0.037,61.312,-125.657,-68.242
14:45:09:88,29.092,0.944,-0.160,-0.230,73.966,-121.086,-75.677
14:45:09:88,29.092,0.736,-0.403,-0.316,80.959,-118.763,-80.829
14:45:09:881,29.093,0.548,-0.552,-0.416,88.959,-116.483,-88.712
14:45:09:9,29.112,0.415,-0.464,-0.356,94.699,-116.070,-96.915
14:45:10:013,29.224,0.379,-0.482,-0.326,97.650,-116.653,-102.727
14:45:10:013,29.224,0.151,-0.592,-0.369,100.921,-119.358,-112.465
14:45:10:015,29.226,-0.054,-0.525,-0.271,102.728,-122.279,-119.500
14:45:10:016,29.227,-0.112,-0.451,-0.154,104.923,-126.614,-129.109
14:45:10:031,29.242,-0.082,-0.371,-0.118,106.273,-130.089,-137.045
14:45:10:057,29.268,-0.110,-0.272,-0.120,106.622,-132.054,-141.633
14:45:10:143,29.354,-0.114,-0.275,-0.037,106.450,-134.400,-147.355
14:45:10:143,29.354,-0.143,-0.223,-0.054,106.039,-135.207,-149.972
14:45:10:143,29.354,-0.190,-0.131,-0.060,105.323,-134.277,-151.112
14:45:10:249,29.460,-0.025,-0.129,-0.059,104.836,-132.867,-150.499
14:45:10:25,29.461,-0.014,-0.121,-0.085,104.462,-132.188,-150.311
14:45:10:25,29.462,-0.017,-0.015,-0.055,103.941,-130.431,-149.044
14:45:10:251,29.463,-0.061,-0.040,-0.049,103.689,-128.906,-147.639
14:45:10:295,29.506,-0.050,-0.072,-0.046,103.520,-126.832,-145.395
14:45:10:38,29.591,-0.006,-0.025,-0.032,103.248,-124.237,-142.345
14:45:10:381,29.592,0.086,0.024,-0.042,103.026,-122.256,-140.099
14:45:10:382,29.593,0.019,-0.059,0.013,102.766,-120.420,-138.052
14:45:10:429,29.641,-0.010,-0.072,-0.005,102.507,-118.558,-136.264
14:45:10:429,29.641,0.057,-0.048,0.007,102.452,-118.419,-135.725
14:45:10:505,29.716,0.050,-0.014,0.025,102.440,-117.721,-135.327
14:45:10:53,29.741,-0.052,0.005,0.025,102.320,-117.578,-135.259
14:45:10:617,29.828,-0.031,-0.012,0.021,102.254,-116.991,-135.148
14:45:10:618,29.829,-0.013,0.014,0.000,102.111,-116.152,-134.619
14:45:10:619,29.830,-0.020,0.063,0.017,101.935,-115.308,-134.370
14:45:10:619,29.831,-0.022,0.060,0.049,101.681,-114.552,-134.339
14:45:10:637,29.848,-0.020,0.063,0.063,101.553,-113.197,-134.019
14:45:10:639,29.851,-0.038,0.066,0.079,101.375,-112.115,-133.596
14:45:10:661,29.872,-0.020,0.082,0.088,100.890,-109.960,-132.868
14:45:10:801,30.012,0.057,0.069,0.088,100.722,-109.065,-132.876
14:45:10:802,30.013,0.083,0.071,0.070,100.355,-105.818,-131.372
14:45:10:802,30.014,0.059,0.025,0.045,99.959,-102.471,-129.614
14:45:10:852,30.063,0.166,0.007,0.066,99.314,-95.984,-126.297
14:45:10:852,30.063,0.163,-0.028,0.049,99.068,-93.621,-125.266
14:45:10:854,30.065,0.160,-0.108,0.083,98.890,-90.669,-124.379
14:45:10:872,30.083,0.195,-0.100,0.084,98.840,-88.151,-123.662
14:45:11:011,30.222,0.208,-0.077,0.050,98.765,-86.128,-122.892
14:45:11:012,30.223,0.189,-0.069,-0.014,98.663,-83.260,-121.789
14:45:11:013,30.224,0.154,-0.087,-0.025,98.680,-81.525,-121.367
14:45:11:014,30.225,0.064,-0.090,-0.005,98.711,-79.153,-120.891
14:45:11:222,30.433,0.077,-0.108,-0.015,98.815,-76.718,-120.482
14:45:11:222,30.433,0.110,-0.106,-0.026,98.987,-75.288,-120.273
14:45:11:222,30.433,0.134,-0.027,-0.045,99.352,-73.323,-119.987
14:45:11:223,30.434,0.038,-0.026,0.003,99.568,-72.337,-120.037
14:45:11:242,30.453,-0.013,-0.086,0.034,99.955,-71.371,-120.557
14:45:11:243,30.454,0.025,0.003,0.000,100.370,-70.350,-120.608
14:45:11:274,30.486,0.023,0.037,0.014,100.498,-69.466,-120.392
14:45:11:274,30.486,0.017,0.006,0.064,100.521,-68.399,-120.295
14:45:11:275,30.486,-0.001,0.017,0.077,100.492,-67.575,-120.020
14:45:11:275,30.487,0.009,0.042,0.025,100.185,-65.953,-118.987
14:45:11:353,30.564,0.034,0.136,0.031,99.696,-64.088,-117.542
14:45:11:353,30.564,0.012,0.166,0.056,99.302,-62.668,-116.376
14:45:11:354,30.565,-0.012,0.092,0.078,98.582,-60.338,-114.440
14:45:11:355,30.566,0.063,0.098,0.022,97.946,-58.600,-112.780
14:45:11:369,30.581,0.094,0.104,0.019,96.972,-56.099,-110.194
14:45:11:395,30.607,0.084,0.015,0.014,96.322,-54.437,-108.167
14:45:11:481,30.692,0.080,0.083,-0.009,95.858,-53.083,-106.698
14:45:11:481,30.692,0.075,0.029,-0.057,95.070,-51.146,-104.891
14:45:11:482,30.693,0.099,-0.038,-0.079,94.764,-50.273,-104.213
14:45:11:591,30.802,0.158,-0.014,-0.043,94.760,-49.838,-104.149
14:45:11:591,30.802,0.112,-0.054,0.042,95.008,-50.205,-104.858
14:45:11:591,30.802,0.107,-0.084,0.062,95.547,-51.068,-106.266
14:45:11:592,30.803,0.108,-0.060,0.028,95.953,-51.362,-107.159
14:45:11:608,30.819,0.085,-0.069,0.015,96.154,-51.335,-107.659
14:45:11:609,30.820,0.051,-0.110,0.040,96.493,-51.226,-108.527
14:45:11:633,30.844,0.066,-0.105,0.033,96.770,-51.124,-109.118
14:45:11:716,30.927,0.036,-0.033,0.018,97.023,-50.341,-109.531
14:45:11:717,30.928,0.013,-0.013,0.021,97.243,-49.431,-110.023
14:45:11:717,30.929,-0.023,-0.063,0.077,97.426,-48.899,-110.527
14:45:11:737,30.948,-0.061,-0.062,0.099,97.663,-47.913,-111.126
14:45:11:764,30.975,-0.052,-0.015,0.091,97.733,-47.030,-111.340
14:45:11:848,31.059,-0.014,-0.005,0.040,97.857,-46.148,-111.927
14:45:11:848,31.059,0.002,0.013,0.053,98.199,-45.818,-112.958
14:45:11:849,31.060,-0.035,0.038,0.078,98.440,-45.655,-113.629
14:45:11:869,31.080,-0.050,0.092,0.071,98.780,-45.419,-114.566
14:45:11:952,31.163,0.069,0.151,-0.012,99.055,-45.207,-115.195
14:45:11:953,31.164,0.139,0.139,-0.024,99.552,-44.850,-116.314
14:45:11:954,31.165,0.114,0.052,0.031,99.878,-44.180,-117.171
14:45:11:973,31.184,0.175,0.009,0.008,100.025,-43.494,-117.414
14:45:12:001,31.212,0.211,-0.004,-0.082,100.133,-42.058,-117.338
14:45:12:054,31.266,0.182,-0.028,-0.087,100.143,-40.866,-117.150
14:45:12:055,31.267,0.172,-0.099,-0.058,100.094,-39.052,-116.876
14:45:12:078,31.289,0.148,-0.086,-0.097,99.920,-36.871,-116.027
14:45:12:105,31.316,0.098,-0.048,-0.114,99.773,-35.313,-115.270
14:45:12:189,31.400,0.057,-0.101,-0.083,99.736,-33.471,-114.621
14:45:12:209,31.420,-0.010,-0.092,-0.102,99.785,-29.797,-112.993
14:45:12:236,31.448,-0.007,-0.112,-0.098,99.805,-29.251,-112.657
14:45:12:315,31.526,-0.047,-0.083,0.021,99.814,-28.655,-112.178
14:45:12:375,31.586,-0.072,-0.157,0.097,99.801,-28.400,-111.826
14:45:12:376,31.587,-0.069,-0.153,0.052,99.749,-28.083,-110.962
14:45:12:377,31.588,0.024,-0.004,-0.177,99.929,-28.148,-110.424
14:45:12:378,31.589,0.010,-0.040,-0.055,99.853,-28.336,-110.130
14:45:12:451,31.662,-0.023,-0.189,0.077,99.547,-27.886,-109.424
14:45:12:452,31.663,0.056,-0.152,0.079,99.271,-27.383,-108.302
14:45:12:452,31.664,0.190,0.078,0.054,97.985,-25.125,-105.036
14:45:12:472,31.683,0.136,0.312,-0.112,96.569,-23.226,-102.153
14:45:12:555,31.766,0.071,0.493,-0.389,94.734,-20.093,-98.714
14:45:12:556,31.767,0.139,0.333,-0.102,92.824,-16.311,-95.678
14:45:12:608,31.820,0.065,0.319,0.052,91.709,-13.317,-93.586
14:45:12:609,31.821,0.070,0.232,-0.062,91.103,-10.774,-92.232
14:45:12:61,31.821,-0.035,-0.071,-0.047,91.146,-10.054,-92.230
14:45:12:69,31.901,-0.074,-0.268,-0.018,91.456,-9.843,-92.760
14:45:12:69,31.901,-0.138,-0.526,0.078,92.061,-10.843,-93.766
14:45:12:69,31.901,-0.162,-0.580,0.109,92.503,-12.169,-94.314
14:45:12:708,31.919,-0.209,-0.686,0.072,92.742,-14.485,-94.274
14:45:12:849,32.060,-0.127,-0.599,0.020,92.525,-16.600,-93.674
14:45:12:849,32.060,-0.131,-0.459,0.027,90.408,-18.073,-90.539
14:45:12:85,32.061,-0.230,-0.413,0.084,85.581,-17.658,-84.577
14:45:12:851,32.062,-0.306,-0.346,0.004,81.122,-17.068,-79.588
14:45:12:947,32.158,-0.255,-0.327,-0.306,72.963,-17.061,-71.415
14:45:12:98,32.192,-0.214,-0.334,-0.445,66.806,-18.181,-65.994
14:45:12:981,32.193,-0.152,-0.224,-0.652,56.849,-22.257,-58.268
14:45:12:982,32.193,-0.080,-0.005,-0.751,46.727,-28.773,-50.328
14:45:12:983,32.194,0.050,0.200,-0.796,41.020,-34.512,-45.177
14:45:13:08,32.291,0.247,0.453,-0.898,35.051,-44.420,-37.851
14:45:13:08,32.291,0.461,0.558,-0.538,32.130,-51.564,-33.449
14:45:13:216,32.427,0.405,0.488,-0.347,28.915,-61.071,-27.881
14:45:13:216,32.428,0.302,0.426,-0.278,25.147,-69.827,-24.054
14:45:13:217,32.429,0.242,0.566,-0.107,22.083,-76.488,-22.404
14:45:13:296,32.507,0.394,0.660,0.243,15.834,-90.308,-18.400
14:45:13:296,32.507,0.513,0.571,0.347,13.800,-94.013,-15.423
14:45:13:297,32.508,0.516,0.459,0.418,12.427,-95.052,-11.986
14:45:13:297,32.508,0.396,0.251,0.470,11.797,-95.341,-9.388
14:45:13:347,32.558,0.184,-0.107,0.495,11.281,-96.361,-5.235
14:45:13:348,32.559,-0.017,-0.087,0.581,11.160,-97.451,-2.403
14:45:13:35,32.561,0.026,-0.130,0.550,11.865,-98.752,1.735
14:45:13:35,32.561,-0.091,-0.235,0.782,13.219,-100.483,5.976
14:45:13:392,32.604,-0.120,-0.254,0.749,14.032,-101.110,8.543
14:45:13:419,32.630,-0.086,-0.375,0.737,14.702,-100.726,11.563
14:45:13:444,32.655,-0.077,-0.512,0.649,14.472,-99.977,12.499
14:45:13:534,32.746,-0.071,-0.380,0.502,12.926,-98.590,11.976
14:45:13:535,32.746,-0.133,-0.201,0.508,10.967,-97.909,9.668
14:45:13:535,32.746,-0.116,-0.167,0.491,9.939,-97.791,7.586
14:45:13:535,32.747,-0.035,-0.167,0.571,8.713,-97.141,4.095
14:45:13:55,32.761,0.012,-0.095,0.522,7.864,-96.214,1.568
14:45:13:577,32.788,-0.034,0.105,0.522,6.515,-93.816,-2.876
14:45:13:578,32.789,-0.102,0.296,0.242,5.804,-91.333,-6.057
14:45:13:715,32.926,0.137,0.180,0.044,5.649,-84.188,-10.557
14:45:13:715,32.927,0.080,0.171,-0.420,6.549,-74.510,-14.478
14:45:13:716,32.928,-0.002,0.437,-0.467,7.456,-71.245,-16.471
14:45:13:717,32.928,0.137,0.317,-0.402,9.006,-72.454,-18.882
14:45:13:788,32.999,0.316,0.154,-0.289,10.511,-77.673,-21.371
14:45:13:925,33.137,0.335,0.171,-0.346,10.968,-82.101,-23.025
14:45:13:926,33.137,0.233,0.148,-0.305,10.738,-89.352,-25.223
14:45:13:927,33.138,0.124,0.019,-0.244,10.217,-93.494,-26.412
14:45:13:928,33.139,0.042,-0.010,-0.284,9.426,-97.112,-27.682
14:45:13:951,33.162,-0.076,-0.137,-0.309,8.967,-98.028,-28.126
14:45:13:952,33.163,-0.119,-0.190,-0.317,8.427,-98.152,-28.353
14:45:13:953,33.164,-0.062,-0.178,-0.324,8.413,-97.526,-28.229
14:45:13:953,33.164,0.048,-0.164,-0.377,8.639,-97.028,-27.972
14:45:14:03,33.241,0.056,-0.120,-0.444,8.753,-96.764,-27.364
14:45:14:03,33.241,0.024,-0.062,-0.432,8.521,-97.137,-26.808
14:45:14:031,33.242,-0.018,-0.068,-0.279,7.975,-98.720,-25.695
14:45:14:032,33.243,-0.024,-0.086,-0.142,7.613,-100.620,-24.269
14:45:14:162,33.373,-0.020,-0.098,-0.085,7.540,-101.819,-23.230
14:45:14:162,33.373,-0.006,-0.084,-0.036,7.532,-103.140,-21.584
14:45:14:163,33.374,-0.010,-0.008,0.038,7.540,-104.055,-20.430
14:45:14:184,33.395,0.037,0.040,0.132,8.026,-106.132,-16.611
14:45:14:184,33.395,0.048,-0.005,0.184,8.340,-106.927,-15.210
14:45:14:185,33.396,0.027,0.033,0.244,8.760,-108.289,-13.004
14:45:14:291,33.503,-0.032,0.064,0.226,9.076,-109.130,-11.540
14:45:14:292,33.503,0.038,0.123,0.344,9.846,-110.913,-9.425
14:45:14:293,33.504,-0.071,0.154,0.496,10.763,-113.635,-7.283
14:45:14:294,33.505,-0.083,0.096,0.495,11.359,-115.094,-5.928
14:45:14:397,33.608,-0.151,0.049,0.549,12.152,-116.835,-4.138
14:45:14:398,33.609,-0.194,0.076,0.623,12.493,-117.206,-3.259
14:45:14:399,33.610,-0.197,0.028,0.604,12.547,-116.535,-2.528
14:45:14:414,33.625,-0.102,-0.249,0.425,11.675,-112.999,-3.306
14:45:14:528,33.739,-0.030,-0.133,0.364,10.560,-110.072,-5.159
14:45:14:529,33.740,0.009,-0.084,0.334,9.713,-107.614,-6.813
14:45:14:529,33.740,0.058,0.052,0.289,8.598,-103.690,-9.697
14:45:14:53,33.741,0.068,0.145,0.269,8.095,-100.905,-11.795
14:45:14:632,33.843,0.160,0.149,0.041,8.207,-91.521,-18.380
14:45:14:632,33.844,0.138,0.117,-0.066,8.764,-89.111,-20.643
14:45:14:632,33.844,0.158,0.126,-0.137,9.911,-86.369,-24.112
14:45:14:68,33.891,0.194,0.114,-0.222,10.828,-85.117,-26.440
14:45:14:68,33.891,0.196,0.078,-0.281,12.258,-84.145,-29.928
14:45:14:732,33.943,0.195,0.022,-0.363,13.618,-84.122,-33.337
14:45:14:733,33.944,0.184,-0.096,-0.386,14.369,-84.630,-35.518
14:45:14:755,33.966,0.166,-0.172,-0.379,14.985,-86.050,-38.641
14:45:14:782,33.993,0.159,-0.196,-0.377,15.012,-87.259,-40.543
14:45:14:866,34.077,0.157,-0.161,-0.375,14.661,-89.087,-42.912
14:45:14:867,34.078,0.165,-0.063,-0.462,14.366,-90.368,-44.541
14:45:14:868,34.079,0.163,-0.087,-0.499,14.224,-90.937,-45.214
14:45:14:916,34.127,0.158,-0.126,-0.456,13.645,-91.919,-45.630
14:45:14:916,34.127,0.123,-0.059,-0.504,12.906,-92.836,-45.475
14:45:14:968,34.180,0.121,-0.002,-0.497,11.413,-94.470,-44.511
14:45:14:969,34.180,0.122,-0.056,-0.394,9.867,-96.340,-42.641
14:45:14:992,34.203,0.067,-0.168,-0.294,8.908,-97.602,-40.971
14:45:15:018,34.229,-0.011,-0.132,-0.241,7.474,-99.831,-38.124
14:45:15:047,34.258,-0.047,-0.026,-0.130,6.645,-101.581,-36.043
14:45:15:1,34.311,-0.075,0.109,-0.071,5.841,-104.303,-32.591
14:45:15:101,34.312,-0.022,0.126,-0.109,5.942,-105.707,-28.918
14:45:15:123,34.334,-0.028,0.148,-0.074,6.174,-106.353,-26.523
14:45:15:149,34.361,-0.083,0.158,0.005,6.499,-107.429,-23.062
14:45:15:234,34.445,-0.145,0.173,0.168,6.759,-108.551,-20.827
14:45:15:234,34.445,-0.124,0.062,0.301,7.466,-110.566,-17.569
14:45:15:235,34.446,-0.059,0.013,0.228,8.657,-111.932,-14.557
14:45:15:254,34.465,0.005,-0.045,0.228,9.608,-112.199,-12.723
14:45:15:28,34.491,-0.075,-0.030,0.389,10.954,-113.322,-10.223
14:45:15:336,34.547,-0.101,-0.052,0.480,11.773,-113.552,-8.680
14:45:15:336,34.548,-0.016,-0.084,0.419,12.855,-113.501,-6.584
14:45:15:361,34.572,-0.043,-0.115,0.454,13.629,-112.903,-4.838
14:45:15:473,34.684,-0.094,-0.111,0.495,13.974,-112.604,-3.930
14:45:15:473,34.684,-0.045,-0.023,0.513,14.453,-112.247,-2.910
14:45:15:474,34.685,0.002,-0.044,0.529,14.750,-112.215,-2.483
14:45:15:475,34.686,0.005,-0.072,0.514,15.039,-112.322,-2.333
14:45:15:492,34.703,-0.013,-0.034,0.519,15.041,-112.441,-2.611
14:45:15:517,34.729,-0.026,0.047,0.522,14.391,-112.318,-4.318
14:45:15:602,34.813,0.007,0.095,0.487,13.619,-110.846,-5.818
14:45:15:602,34.813,0.021,0.036,0.423,12.953,-109.210,-7.222
14:45:15:603,34.814,0.073,0.015,0.310,11.822,-106.062,-9.986
14:45:15:623,34.834,0.096,0.053,0.240,11.094,-103.569,-12.200
14:45:15:648,34.859,0.162,0.130,0.151,10.221,-99.106,-15.883
14:45:15:704,34.915,0.203,0.173,0.032,9.864,-94.275,-19.626
14:45:15:704,34.916,0.206,0.178,0.012,10.030,-91.171,-22.002
14:45:15:755,34.966,0.206,0.150,-0.061,10.932,-86.608,-25.302
14:45:15:861,35.073,0.221,0.090,-0.166,12.503,-82.636,-28.432
14:45:15:862,35.073,0.232,0.077,-0.241,13.779,-80.471,-30.420
14:45:15:893,35.105,0.262,0.020,-0.292,15.947,-77.664,-33.087
14:45:15:893,35.105,0.248,-0.023,-0.345,17.563,-75.905,-34.668
14:45:15:894,35.106,0.237,-0.057,-0.424,20.101,-73.628,-36.870
14:45:15:895,35.106,0.224,-0.090,-0.478,22.527,-72.012,-38.967
14:45:15:939,35.150,0.214,-0.134,-0.527,23.914,-71.384,-40.389
14:45:15:967,35.178,0.189,-0.199,-0.588,25.337,-71.235,-42.542
14:45:15:967,35.178,0.155,-0.212,-0.597,25.635,-71.680,-43.954
14:45:16:071,35.282,0.115,-0.186,-0.536,24.974,-72.799,-45.697
14:45:16:072,35.283,0.096,-0.167,-0.476,24.042,-73.645,-46.562
14:45:16:104,35.315,0.095,-0.125,-0.460,22.239,-75.013,-47.335
14:45:16:104,35.315,0.019,-0.045,-0.476,20.410,-76.005,-47.383
14:45:16:105,35.316,-0.017,-0.179,-0.466,19.288,-76.791,-47.084
14:45:16:106,35.317,0.009,-0.151,-0.462,17.026,-78.724,-46.074
14:45:16:203,35.414,-0.041,-0.133,-0.355,15.132,-80.320,-44.915
14:45:16:204,35.415,-0.079,-0.136,-0.249,12.128,-83.062,-42.619
14:45:16:232,35.444,-0.090,0.014,-0.133,9.793,-85.694,-39.590
14:45:16:232,35.444,-0.146,0.036,-0.056,8.972,-86.750,-37.253
14:45:16:233,35.444,-0.122,0.085,-0.105,8.713,-87.421,-33.668
14:45:16:339,35.550,-0.097,0.139,-0.106,8.801,-87.498,-31.292
14:45:16:34,35.551,-0.059,0.149,-0.054,9.008,-87.514,-27.719
14:45:16:341,35.552,-0.059,0.088,0.023,9.280,-87.635,-24.154
14:45:16:341,35.552,-0.050,0.092,0.135,9.421,-88.192,-21.884
14:45:16:357,35.568,-0.064,0.073,0.300,9.775,-90.039,-18.732
14:45:16:441,35.652,0.044,0.000,0.286,10.341,-90.964,-16.775
14:45:16:443,35.654,0.036,-0.003,0.400,11.428,-91.632,-14.032
14:45:16:443,35.654,0.076,-0.027,0.425,12.553,-91.485,-11.600
14:45:16:462,35.673,0.112,-0.024,0.438,13.291,-90.754,-10.062
14:45:16:488,35.699,0.173,-0.071,0.358,14.139,-88.490,-7.945
14:45:16:572,35.783,0.171,-0.083,0.416,14.519,-87.139,-6.766
14:45:16:573,35.784,0.190,-0.089,0.407,14.941,-85.350,-5.301
14:45:16:574,35.785,0.202,0.005,0.471,14.888,-84.691,-5.365
14:45:16:593,35.804,0.241,0.011,0.482,15.146,-83.574,-4.689
14:45:16:619,35.830,0.279,0.008,0.440,15.222,-82.449,-4.549
14:45:16:675,35.886,0.276,0.041,0.424,15.076,-81.517,-4.801
14:45:16:676,35.887,0.302,0.092,0.409,14.556,-79.771,-5.652
14:45:16:699,35.910,0.317,0.145,0.367,13.822,-77.050,-7.019
14:45:16:812,36.023,0.305,0.099,0.292,13.296,-74.821,-8.254
14:45:16:813,36.024,0.276,0.018,0.181,12.520,-70.858,-10.582
14:45:16:813,36.024,0.266,0.034,0.100,12.072,-67.889,-12.407
14:45:16:814,36.025,0.267,0.067,0.027,11.731,-63.094,-15.367
14:45:16:859,36.070,0.271,0.132,-0.052,11.837,-59.786,-17.369
14:45:16:859,36.070,0.252,0.139,-0.121,12.602,-54.815,-20.259
14:45:16:94,36.151,0.223,0.132,-0.225,14.118,-49.995,-22.918
14:45:16:94,36.152,0.178,0.087,-0.289,15.486,-47.014,-24.581
14:45:16:942,36.153,0.135,0.020,-0.374,17.857,-43.198,-26.977
14:45:17:101,36.312,0.097,-0.003,-0.435,19.530,-41.174,-28.568
14:45:17:101,36.313,0.076,-0.003,-0.480,21.996,-38.957,-30.960
14:45:17:102,36.314,0.041,-0.016,-0.531,24.413,-37.254,-33.325
14:45:17:103,36.315,0.021,-0.055,-0.566,25.969,-36.330,-34.892
14:45:17:202,36.413,-0.042,-0.144,-0.601,28.078,-35.491,-37.260
14:45:17:202,36.413,-0.090,-0.208,-0.601,29.153,-35.146,-38.872
14:45:17:233,36.444,-0.114,-0.250,-0.578,30.047,-35.279,-41.269
14:45:17:233,36.444,-0.150,-0.268,-0.538,29.988,-35.610,-43.515
14:45:17:234,36.445,-0.164,-0.211,-0.503,29.381,-36.405,-44.825
14:45:17:234,36.445,-0.191,-0.156,-0.475,27.870,-36.829,-46.342
14:45:17:276,36.487,-0.216,-0.140,-0.454,26.701,-37.004,-46.958
14:45:17:305,36.517,-0.253,-0.126,-0.433,24.754,-37.287,-47.245
14:45:17:306,36.518,-0.310,-0.162,-0.309,22.359,-37.926,-46.895
14:45:17:436,36.647,-0.325,-0.129,-0.330,20.485,-38.720,-46.308
14:45:17:437,36.648,-0.289,-0.010,-0.326,17.442,-40.150,-44.484
14:45:17:469,36.681,-0.273,-0.002,-0.141,15.380,-41.160,-42.640
14:45:17:47,36.681,-0.235,0.029,-0.054,12.552,-42.973,-39.351
14:45:17:47,36.682,-0.125,0.083,0.068,10.720,-44.355,-35.436
14:45:17:471,36.683,-0.099,0.122,0.109,10.106,-44.533,-32.613
14:45:17:6,36.811,-0.098,0.145,0.095,9.811,-43.771,-28.464
14:45:17:6,36.812,-0.073,0.094,0.037,9.744,-42.906,-25.936
14:45:17:601,36.813,0.005,0.113,0.121,9.474,-41.865,-22.505
14:45:17:602,36.813,-0.028,-0.018,0.130,9.069,-41.218,-19.533
14:45:17:602,36.813,-0.028,-0.018,0.130,9.069,-41.218,-19.533
14:45:17:68,36.891,0.081,0.031,0.369,8.598,-42.118,-18.004
14:45:17:68,36.891,0.282,0.019,0.379,8.216,-45.484,-16.354
14:45:17:68,36.891,0.292,-0.053,0.368,8.426,-47.128,-15.493
14:45:17:681,36.892,0.319,-0.088,0.113,9.108,-47.263,-14.033
14:45:17:697,36.908,0.326,0.000,0.188,9.420,-46.393,-13.075
14:45:17:782,36.994,0.333,-0.029,0.078,9.996,-43.643,-11.474
14:45:17:783,36.995,0.297,-0.072,0.078,10.568,-40.476,-9.768
14:45:17:784,36.995,0.360,-0.019,0.187,10.875,-39.298,-8.734
14:45:17:785,36.996,0.408,0.053,0.235,11.395,-39.236,-7.474
14:45:17:828,37.039,0.454,0.102,0.213,11.801,-39.596,-6.838
14:45:17:914,37.125,0.457,0.064,0.187,12.334,-40.427,-6.207
14:45:17:915,37.126,0.438,0.012,0.186,12.501,-40.436,-6.144
14:45:17:916,37.127,0.423,0.024,0.171,12.338,-40.105,-6.462
14:45:17:917,37.128,0.445,0.131,0.136,11.776,-38.625,-7.413
14:45:18:072,37.283,0.364,0.067,0.061,11.271,-37.023,-8.316
14:45:18:073,37.284,0.307,-0.004,0.034,10.426,-33.767,-10.185
14:45:18:074,37.285,0.212,-0.030,-0.001,9.540,-29.916,-12.688
14:45:18:074,37.285,0.194,0.026,-0.023,9.057,-27.157,-14.614
14:45:18:152,37.363,0.097,0.070,-0.045,8.793,-22.676,-17.549
14:45:18:152,37.364,0.129,0.062,-0.144,9.047,-19.472,-19.327
14:45:18:153,37.364,0.107,0.091,-0.158,9.936,-15.461,-21.763
14:45:18:154,37.365,0.025,0.053,-0.214,11.305,-12.417,-23.993
14:45:18:201,37.412,-0.028,0.031,-0.240,12.416,-10.807,-25.450
14:45:18:202,37.413,-0.101,-0.001,-0.283,14.187,-8.890,-27.629
14:45:18:203,37.414,-0.174,0.012,-0.326,15.388,-7.865,-29.067
14:45:18:281,37.492,-0.211,-0.009,-0.333,17.145,-6.653,-31.268
14:45:18:282,37.493,-0.251,-0.030,-0.339,17.967,-5.768,-33.069
14:45:18:283,37.494,-0.261,-0.055,-0.307,17.375,-5.277,-33.634
14:45:18:284,37.495,-0.289,-0.138,-0.301,18.094,-5.336,-36.057
14:45:18:3,37.511,-0.320,-0.158,-0.300,18.189,-5.674,-37.725
14:45:18:438,37.649,-0.350,-0.135,-0.324,17.662,-6.501,-40.060
14:45:18:438,37.649,-0.308,-0.194,-0.282,16.415,-7.421,-41.880
14:45:18:439,37.650,-0.292,-0.193,-0.279,15.292,-7.991,-42.807
14:45:18:572,37.783,-0.320,-0.146,-0.240,13.192,-8.800,-43.673
14:45:18:572,37.783,-0.295,-0.112,-0.180,11.681,-9.259,-43.719
14:45:18:572,37.784,-0.295,-0.061,-0.132,9.634,-9.805,-42.912
14:45:18:573,37.785,-0.286,-0.002,-0.100,7.916,-10.511,-41.297
14:45:19:045,38.256,-0.288,0.063,-0.103,6.937,-11.320,-39.797
14:45:19:045,38.257,-0.220,0.221,-0.053,5.702,-12.981,-36.738
14:45:19:045,38.257,-0.088,0.093,0.026,5.083,-14.273,-34.220
14:45:19:046,38.257,0.050,0.071,0.205,4.480,-16.727,-30.164
14:45:19:123,38.334,0.020,0.023,0.343,4.347,-18.502,-27.376
14:45:19:124,38.335,0.190,0.304,0.601,4.373,-21.484,-23.363
14:45:19:125,38.336,0.210,0.165,0.452,4.608,-26.617,-19.920
14:45:19:176,38.387,0.329,-0.057,0.238,6.219,-36.115,-18.840
14:45:19:176,38.387,0.179,-0.073,0.048,7.123,-36.606,-18.806
14:45:19:177,38.388,0.221,-0.081,-0.001,8.660,-34.168,-18.721
14:45:19:178,38.389,0.191,-0.083,-0.079,10.091,-29.834,-18.569
14:45:19:254,38.465,0.158,-0.036,-0.106,10.901,-26.520,-18.324
14:45:19:255,38.466,0.104,-0.051,-0.135,11.871,-21.862,-17.659
14:45:19:256,38.467,0.138,-0.103,-0.139,12.306,-19.626,-17.115
14:45:19:257,38.468,0.216,-0.116,-0.145,12.741,-17.892,-16.139
14:45:19:358,38.569,0.265,-0.114,-0.144,13.068,-17.376,-14.964
14:45:19:359,38.570,0.281,-0.120,-0.137,13.331,-17.234,-14.098
14:45:19:36,38.571,0.301,-0.034,-0.164,13.824,-16.617,-12.714
14:45:19:361,38.572,0.330,0.013,-0.143,14.112,-16.389,-11.693
14:45:19:385,38.596,0.377,0.046,-0.090,14.414,-15.670,-10.087
14:45:19:385,38.596,0.335,0.003,-0.059,14.493,-15.135,-9.192
14:45:19:386,38.597,0.372,0.006,-0.007,14.286,-14.684,-8.389
14:45:19:542,38.753,0.380,0.103,-0.003,12.890,-13.855,-8.647
14:45:19:543,38.754,0.367,-0.007,-0.008,11.709,-12.766,-9.698
14:45:19:544,38.755,0.317,-0.037,-0.026,10.332,-10.754,-11.311
14:45:19:596,38.807,0.256,0.067,-0.066,7.947,-4.862,-14.859
14:45:19:597,38.808,0.188,0.088,-0.084,7.289,-1.631,-16.314
14:45:19:599,38.810,0.132,0.094,-0.118,6.839,3.660,-18.448
14:45:19:599,38.810,0.035,0.090,-0.126,7.160,8.700,-20.536
14:45:19:621,38.832,-0.026,0.070,-0.140,7.675,11.576,-21.947
14:45:19:622,38.833,-0.126,0.017,-0.137,8.664,15.042,-24.116
14:45:19:623,38.834,-0.187,0.001,-0.130,9.370,16.782,-25.635
14:45:19:624,38.835,-0.234,0.004,-0.124,10.421,18.661,-28.027
14:45:19:647,38.859,-0.262,0.004,-0.128,11.127,19.519,-29.660
14:45:19:648,38.859,-0.274,-0.020,-0.117,11.040,20.521,-31.186
14:45:19:649,38.860,-0.314,-0.080,-0.092,11.331,20.982,-33.158
14:45:19:649,38.861,-0.346,-0.121,-0.078,11.553,20.936,-34.729
14:45:19:778,38.989,-0.358,-0.140,-0.053,11.313,20.515,-36.959
14:45:19:779,38.990,-0.345,-0.110,-0.034,10.798,20.061,-38.233
14:45:19:78,38.991,-0.347,-0.078,-0.030,9.687,19.272,-39.708
14:45:19:781,38.992,-0.343,-0.038,-0.030,8.414,18.374,-40.539
14:45:19:885,39.096,-0.335,-0.022,-0.012,7.542,17.752,-40.648
14:45:19:886,39.097,-0.313,-0.039,0.032,6.245,16.696,-40.148
14:45:19:886,39.097,-0.273,-0.044,0.068,5.382,15.696,-39.409
14:45:19:887,39.098,-0.215,0.011,0.051,4.247,13.753,-37.629
14:45:19:962,39.173,-0.210,0.136,0.052,3.579,11.513,-34.966
14:45:19:963,39.174,-0.137,0.059,0.025,3.343,9.825,-32.726
14:45:19:964,39.175,0.029,-0.026,0.049,3.114,6.819,-28.975
14:45:19:965,39.176,0.147,0.088,0.089,3.227,4.957,-26.253
14:45:19:989,39.201,0.216,0.116,0.090,3.959,2.950,-22.069
14:45:19:99,39.201,0.276,0.141,0.076,4.666,2.385,-19.374
14:45:19:99,39.201,0.273,0.127,0.082,5.703,2.173,-15.776
14:45:19:991,39.202,0.378,0.085,0.079,6.585,1.664,-12.889
14:45:20:093,39.304,0.374,-0.073,0.026,7.298,1.391,-11.376
14:45:20:094,39.305,0.261,-0.124,-0.063,8.149,1.963,-9.540
14:45:20:095,39.306,0.343,-0.097,-0.071,8.673,2.778,-8.073
14:45:20:096,39.307,0.401,-0.078,-0.101,8.897,3.574,-7.260
14:45:20:113,39.324,0.321,-0.059,-0.151,9.051,5.477,-6.093
14:45:20:114,39.325,0.409,-0.098,-0.133,9.110,6.618,-5.347
14:45:20:139,39.350,0.448,-0.162,-0.121,9.159,8.259,-4.231
14:45:20:19,39.402,0.488,-0.156,-0.110,9.194,9.916,-3.286
14:45:20:219,39.430,0.451,-0.187,-0.122,9.275,11.123,-2.792
14:45:20:22,39.431,0.418,-0.195,-0.172,9.404,12.647,-2.306
14:45:20:242,39.453,0.426,-0.049,-0.217,9.424,13.640,-2.196
14:45:20:326,39.537,0.379,0.048,-0.248,9.314,15.409,-2.339
14:45:20:327,39.538,0.345,0.104,-0.265,9.120,16.889,-2.637
14:45:20:328,39.539,0.327,0.143,-0.243,8.614,18.854,-3.442
14:45:20:347,39.558,0.329,0.139,-0.223,7.856,20.762,-4.765
14:45:20:487,39.698,0.344,0.189,-0.203,7.259,22.071,-5.892
14:45:20:488,39.699,0.314,0.175,-0.210,6.346,24.472,-7.836
14:45:20:491,39.702,0.225,-0.009,-0.175,5.782,26.426,-9.306
14:45:20:491,39.702,0.165,-0.075,-0.162,4.945,29.743,-11.810
14:45:20:511,39.722,0.086,-0.022,-0.132,4.224,33.447,-14.593
14:45:20:511,39.722,0.079,0.049,-0.165,3.968,36.012,-16.394
14:45:20:512,39.723,0.056,0.074,-0.175,4.187,40.226,-18.731
14:45:20:56,39.772,-0.021,0.052,-0.187,4.811,43.399,-20.016
14:45:20:56,39.772,-0.083,0.056,-0.149,6.376,48.355,-21.614
14:45:20:583,39.794,-0.177,0.038,-0.101,8.515,53.104,-22.904
14:45:20:609,39.820,-0.228,0.011,-0.075,10.160,56.001,-23.675
14:45:20:691,39.902,-0.302,-0.021,-0.009,12.640,59.532,-24.937
14:45:20:692,39.903,-0.338,-0.012,0.024,14.185,61.201,-25.931
14:45:20:719,39.930,-0.365,-0.014,0.039,16.238,62.857,-27.660
14:45:20:719,39.930,-0.384,-0.062,0.043,17.315,64.006,-29.152
14:45:20:74,39.952,-0.425,-0.106,0.071,18.248,64.381,-30.494
14:45:20:798,40.009,-0.430,-0.118,0.109,19.017,64.475,-32.539
14:45:20:798,40.009,-0.369,-0.142,0.118,19.074,64.356,-33.773
14:45:20:82,40.031,-0.320,-0.138,0.073,18.581,63.811,-35.393
14:45:20:846,40.057,-0.312,-0.097,0.105,17.644,62.984,-36.838
14:45:20:872,40.083,-0.322,-0.045,0.172,16.855,62.440,-37.595
14:45:20:928,40.139,-0.275,-0.044,0.251,15.437,61.747,-38.183
14:45:20:928,40.140,-0.200,-0.109,0.328,14.291,61.170,-38.320
14:45:20:95,40.162,-0.172,-0.062,0.319,11.946,59.319,-38.193
14:45:20:979,40.190,-0.117,0.194,0.282,9.082,56.692,-37.035
14:45:21:062,40.273,-0.058,0.213,0.263,7.336,54.988,-35.666
14:45:21:062,40.273,0.087,-0.027,0.170,5.149,52.481,-33.112
14:45:21:063,40.274,0.168,-0.057,0.121,4.065,51.066,-31.202
14:45:21:111,40.322,0.323,0.033,0.100,3.045,50.116,-28.145
14:45:21:111,40.323,0.285,0.058,0.176,2.953,51.219,-25.255
14:45:21:164,40.375,0.174,0.061,0.219,3.133,52.190,-23.605
14:45:21:164,40.375,0.202,0.061,0.140,3.216,52.348,-21.309
14:45:21:214,40.425,0.235,0.026,0.047,3.273,51.824,-19.794
14:45:21:41,40.621,0.275,-0.023,-0.014,3.546,50.743,-17.649
14:45:21:41,40.621,0.294,-0.035,-0.130,3.815,49.730,-16.427
14:45:21:41,40.621,0.358,-0.018,-0.205,4.270,48.021,-14.790
14:45:21:41,40.621,0.335,-0.057,-0.262,4.966,47.210,-13.501
14:45:21:433,40.644,0.179,-0.057,-0.264,5.578,48.433,-12.627
14:45:21:433,40.644,0.104,-0.061,-0.262,6.351,50.841,-11.262
14:45:21:434,40.645,0.117,-0.090,-0.285,6.771,53.211,-10.400
14:45:21:481,40.692,0.066,-0.052,-0.241,7.442,59.758,-7.892
14:45:21:482,40.693,0.076,-0.010,-0.289,7.631,60.661,-7.123
14:45:21:483,40.694,0.120,0.116,-0.403,7.994,60.916,-6.003
14:45:21:589,40.800,0.119,0.069,-0.420,8.308,60.567,-5.307
14:45:21:59,40.801,0.104,0.026,-0.399,8.771,59.791,-4.572
14:45:21:591,40.802,0.157,-0.019,-0.394,8.917,58.794,-4.381
14:45:21:592,40.803,0.204,0.036,-0.418,8.733,58.320,-4.546
14:45:21:659,40.870,0.189,0.013,-0.412,8.151,58.501,-5.234
14:45:21:72,40.932,0.139,-0.105,-0.355,7.567,59.187,-6.051
14:45:21:721,40.932,0.123,-0.073,-0.301,6.359,60.983,-7.854
14:45:21:722,40.933,0.123,-0.029,-0.275,4.896,63.700,-10.291
14:45:21:722,40.934,0.097,0.050,-0.238,3.908,66.072,-12.183
14:45:21:796,41.007,0.066,0.154,-0.225,2.671,70.494,-15.258
14:45:21:797,41.008,0.031,0.166,-0.130,2.177,74.114,-17.379
14:45:21:798,41.009,-0.061,0.115,0.015,2.021,79.651,-20.680
14:45:21:817,41.028,-0.027,0.023,0.036,2.303,83.836,-23.878
14:45:21:901,41.112,-0.038,0.031,0.084,2.637,86.023,-25.980
14:45:21:902,41.113,-0.065,0.036,0.152,3.410,88.729,-28.978
14:45:21:903,41.114,-0.094,0.041,0.201,4.096,90.243,-30.870
14:45:21:923,41.135,-0.090,0.033,0.259,5.369,92.177,-33.569
14:45:21:949,41.160,-0.100,-0.002,0.327,6.848,93.675,-36.036
14:45:22:002,41.213,-0.099,-0.050,0.368,7.786,94.256,-37.563
14:45:22:032,41.243,-0.097,-0.133,0.397,8.759,94.384,-39.665
14:45:22:032,41.243,-0.088,-0.180,0.395,8.990,94.067,-40.928
14:45:22:053,41.264,-0.076,-0.179,0.381,8.663,93.136,-42.557
14:45:22:08,41.292,-0.068,-0.092,0.438,7.765,91.964,-43.783
14:45:22:164,41.375,-0.063,-0.062,0.464,6.963,91.111,-44.240
14:45:22:164,41.375,-0.036,-0.079,0.448,5.526,89.590,-44.256
14:45:22:165,41.376,-0.026,-0.056,0.411,4.371,88.246,-43.804
14:45:22:184,41.395,0.004,0.039,0.421,2.352,85.734,-42.038
14:45:22:269,41.480,0.064,-0.039,0.307,0.634,82.821,-39.630
14:45:22:27,41.481,0.102,-0.142,0.176,-0.326,80.611,-37.651
14:45:22:271,41.482,0.212,0.006,0.147,-1.380,77.429,-34.377
14:45:22:29,41.501,0.238,0.109,0.105,-1.617,75.858,-32.047
14:45:22:317,41.528,0.226,0.137,0.100,-1.286,74.538,-28.592
14:45:22:4,41.611,0.172,0.094,0.105,-0.888,74.131,-26.453
14:45:22:401,41.612,0.197,0.082,0.057,-0.395,73.625,-23.435
14:45:22:402,41.613,0.181,-0.021,-0.006,-0.019,72.965,-20.633
14:45:22:508,41.719,0.174,-0.075,-0.077,0.211,72.229,-18.922
14:45:22:509,41.720,0.155,-0.096,-0.112,0.507,70.563,-16.590
14:45:22:509,41.720,0.217,-0.069,-0.214,0.693,69.016,-15.186
14:45:22:51,41.721,0.148,-0.027,-0.236,1.209,67.514,-13.325
14:45:22:527,41.738,0.182,-0.014,-0.322,1.805,66.803,-11.541
14:45:22:552,41.763,0.121,-0.013,-0.297,2.297,66.714,-10.358
14:45:22:692,41.903,0.117,0.008,-0.306,3.064,66.502,-8.563
14:45:22:693,41.904,0.166,-0.031,-0.355,3.564,66.511,-7.293
14:45:22:694,41.905,0.205,-0.006,-0.405,4.299,65.559,-5.368
14:45:22:694,41.905,0.228,0.064,-0.464,5.062,64.821,-3.539
14:45:22:737,41.948,0.246,0.075,-0.506,5.584,63.877,-2.424
14:45:22:772,41.983,0.212,0.000,-0.493,6.242,63.591,-1.115
14:45:22:772,41.983,0.214,-0.016,-0.456,6.484,63.004,-0.612
14:45:22:772,41.983,0.259,0.038,-0.484,6.481,62.924,-0.486
14:45:22:773,41.984,0.278,-0.012,-0.483,6.065,62.896,-1.121
14:45:22:868,42.079,0.210,-0.122,-0.408,5.545,63.799,-2.031
14:45:22:903,42.115,0.181,-0.124,-0.344,4.434,65.582,-4.216
14:45:22:903,42.115,0.156,-0.057,-0.271,3.526,67.382,-6.169
14:45:22:903,42.115,0.119,0.022,-0.250,2.153,70.731,-9.704
14:45:22:904,42.115,0.094,0.144,-0.171,1.133,74.715,-13.587
14:45:23:007,42.218,0.076,0.151,-0.118,0.822,77.817,-16.174
14:45:23:008,42.219,-0.009,0.147,-0.012,1.021,82.562,-19.926
14:45:23:008,42.219,-0.007,0.075,0.036,1.445,84.836,-22.315
14:45:23:009,42.220,-0.024,0.054,0.093,2.352,87.262,-25.824
14:45:23:024,42.235,-0.080,0.043,0.194,3.431,88.760,-29.217
14:45:23:14,42.351,-0.092,0.042,0.236,4.168,89.345,-31.388
14:45:23:14,42.351,-0.108,0.013,0.302,5.302,89.827,-34.498
14:45:23:14,42.351,-0.105,-0.025,0.342,5.999,89.975,-36.368
14:45:23:14,42.351,-0.115,-0.103,0.389,6.931,89.850,-39.051
14:45:23:186,42.397,-0.113,-0.148,0.396,7.253,89.503,-40.645
14:45:23:187,42.398,-0.103,-0.205,0.394,7.088,88.714,-42.734
14:45:23:263,42.475,-0.073,-0.202,0.397,6.291,87.786,-44.379
14:45:23:287,42.499,-0.082,-0.162,0.432,5.592,87.162,-45.113
14:45:23:375,42.586,-0.082,-0.151,0.446,4.424,86.216,-45.609
14:45:23:376,42.587,-0.069,-0.103,0.422,3.483,85.415,-45.455
14:45:23:376,42.587,-0.041,-0.042,0.405,1.985,84.005,-44.382
14:45:23:377,42.588,-0.019,0.059,0.396,0.675,82.480,-42.370
14:45:23:396,42.607,-0.009,0.201,0.430,0.074,81.496,-40.525
14:45:23:396,42.607,0.009,0.108,0.288,-0.487,79.990,-37.028
14:45:23:418,42.629,0.096,-0.054,0.096,-0.774,78.848,-34.323
14:45:23:612,42.824,0.148,-0.040,0.012,-1.020,76.967,-30.039
14:45:23:612,42.824,0.230,0.027,-0.032,-0.848,75.419,-25.897
14:45:23:613,42.824,0.215,0.062,0.004,-0.542,74.886,-23.418
14:45:23:613,42.825,0.168,0.125,0.051,-0.129,74.413,-20.261
14:45:23:638,42.850,0.235,0.144,-0.017,-0.063,73.745,-18.497
14:45:23:638,42.850,0.384,0.120,-0.248,-0.399,70.559,-16.347
14:45:23:638,42.850,0.360,0.012,-0.339,-0.383,66.224,-14.757
14:45:23:639,42.851,0.209,-0.088,-0.293,-0.119,64.351,-14.029
14:45:23:654,42.866,0.207,-0.103,-0.338,0.429,63.447,-13.133
14:45:23:708,42.919,0.094,-0.111,-0.264,0.876,64.365,-12.702
14:45:23:736,42.947,0.073,-0.085,-0.214,1.431,66.499,-12.047
14:45:23:737,42.948,0.082,-0.102,-0.219,1.987,68.139,-11.133
14:45:23:76,42.971,0.125,-0.095,-0.261,2.369,68.474,-10.416
14:45:23:787,42.998,0.145,-0.110,-0.305,3.053,68.160,-9.267
14:45:23:899,43.110,0.115,-0.133,-0.314,3.548,67.692,-8.529
14:45:23:9,43.111,0.106,-0.072,-0.334,4.161,67.080,-7.605
14:45:23:901,43.112,0.130,0.074,-0.354,4.552,66.638,-6.942
14:45:23:902,43.113,0.136,0.098,-0.380,4.695,66.467,-6.665
14:45:23:975,43.186,0.148,0.088,-0.363,4.643,66.445,-6.603
14:45:23:976,43.187,0.161,0.112,-0.330,4.413,66.500,-7.407
14:45:23:976,43.187,0.170,0.118,-0.322,3.874,67.097,-8.734
14:45:23:996,43.207,0.169,0.045,-0.297,3.212,67.532,-10.557
14:45:24:022,43.233,0.152,-0.055,-0.269,2.675,68.520,-11.750
14:45:24:078,43.289,0.120,-0.045,-0.229,1.788,70.091,-13.930
14:45:24:079,43.290,0.121,0.062,-0.195,1.184,71.731,-15.642
14:45:24:128,43.339,0.103,0.118,-0.126,0.560,75.569,-18.446
14:45:24:214,43.425,0.050,0.139,-0.015,0.542,79.239,-20.414
14:45:24:215,43.426,-0.018,0.117,0.107,1.090,85.272,-23.352
14:45:24:216,43.427,-0.020,0.057,0.071,1.705,88.918,-26.068
14:45:24:217,43.428,0.006,0.005,0.103,2.170,90.765,-27.880
14:45:24:234,43.445,-0.033,-0.035,0.149,3.214,93.410,-30.406
14:45:24:259,43.470,-0.077,-0.014,0.195,4.126,94.942,-31.929
14:45:24:345,43.556,-0.091,-0.027,0.235,5.731,96.869,-34.157
14:45:24:345,43.556,-0.080,-0.060,0.323,7.578,98.413,-36.257
14:45:24:345,43.556,-0.079,-0.067,0.371,8.748,99.081,-37.603
14:45:24:392,43.603,-0.080,-0.117,0.407,10.034,99.282,-39.586
14:45:24:393,43.604,-0.110,-0.138,0.441,10.384,98.885,-40.904
14:45:24:474,43.685,-0.096,-0.072,0.384,10.117,97.803,-42.611
14:45:24:474,43.685,-0.095,-0.119,0.353,9.705,97.032,-43.600
14:45:24:475,43.686,-0.117,-0.159,0.246,9.224,96.533,-43.931
14:45:24:495,43.706,0.062,-0.034,-0.214,7.941,96.909,-43.561
14:45:24:635,43.846,0.187,0.151,-0.262,7.816,98.498,-43.259
14:45:24:636,43.847,0.076,0.119,0.085,9.362,101.176,-43.377
14:45:24:636,43.847,-0.134,0.197,-0.063,11.149,104.375,-42.733
14:45:24:637,43.848,-0.208,0.327,-0.162,12.463,107.153,-42.349
14:45:24:715,43.927,-0.199,0.294,-0.310,13.913,111.738,-42.520
14:45:24:715,43.927,-0.017,0.330,-0.480,14.362,114.709,-43.270
14:45:24:715,43.927,-0.191,0.521,-0.167,20.142,124.043,-49.006
14:45:24:731,43.943,-0.148,0.648,-0.110,23.388,126.844,-51.839
14:45:24:844,44.055,-0.047,0.605,0.128,30.148,130.450,-56.958
14:45:24:845,44.056,0.005,0.504,0.291,36.411,132.610,-60.767
14:45:24:846,44.057,-0.006,0.426,0.401,48.228,135.433,-66.869
14:45:24:847,44.058,0.084,0.330,0.518,61.912,137.807,-73.273
14:45:24:918,44.130,0.157,0.190,0.579,71.172,139.047,-77.774
14:45:24:976,44.187,0.213,-0.091,0.581,83.476,140.147,-84.978
14:45:24:976,44.187,0.278,-0.326,0.506,90.180,140.235,-90.156
14:45:24:977,44.188,0.297,-0.448,0.418,98.118,139.310,-98.342
14:45:24:978,44.189,0.240,-0.500,0.307,104.092,137.535,-106.655
14:45:24:996,44.207,0.203,-0.505,0.230,107.063,136.037,-112.152
14:45:24:997,44.208,0.254,-0.545,0.135,110.459,133.250,-120.656
14:45:25:048,44.259,0.255,-0.523,0.033,112.237,131.269,-126.228
14:45:25:074,44.286,0.185,-0.487,-0.059,114.258,128.531,-133.980
14:45:25:075,44.287,0.160,-0.425,0.000,115.114,126.764,-138.724
14:45:25:101,44.312,0.165,-0.367,-0.007,115.693,123.985,-145.504
14:45:25:208,44.419,0.105,-0.280,-0.138,115.577,121.127,-151.817
14:45:25:208,44.419,0.072,-0.246,-0.159,115.232,119.756,-155.184
14:45:25:317,44.529,0.095,-0.132,-0.131,114.338,118.735,-158.827
14:45:25:318,44.529,0.059,-0.113,-0.114,113.594,118.295,-160.804
14:45:25:319,44.530,0.017,-0.098,-0.063,112.375,119.020,-162.116
14:45:25:319,44.531,0.040,-0.031,-0.029,110.966,121.419,-161.317
14:45:25:338,44.549,-0.003,-0.046,0.059,110.050,123.417,-160.327
14:45:25:339,44.550,-0.006,-0.054,0.084,108.546,126.461,-158.768
14:45:25:364,44.575,0.020,-0.015,-0.022,107.422,128.363,-157.767
14:45:25:364,44.575,0.034,-0.023,0.076,106.270,131.892,-155.454
14:45:25:446,44.657,-0.010,-0.071,0.172,105.829,135.686,-152.956
14:45:25:446,44.657,-0.020,-0.073,0.107,105.617,137.992,-151.549
14:45:25:447,44.658,-0.030,-0.088,0.114,105.471,141.492,-149.253
14:45:25:555,44.766,-0.010,-0.041,0.182,105.417,143.892,-147.611
14:45:25:555,44.766,0.032,-0.005,0.168,105.217,147.450,-145.244
14:45:25:555,44.766,0.026,-0.013,0.193,105.180,150.516,-143.533
14:45:25:556,44.767,0.047,-0.066,0.122,105.189,152.231,-142.748
14:45:25:571,44.782,0.076,-0.055,0.039,105.204,154.694,-141.587
14:45:25:597,44.808,0.085,-0.054,0.101,105.246,156.258,-140.829
14:45:25:681,44.893,0.089,-0.046,0.121,105.374,158.425,-140.025
14:45:25:682,44.893,0.067,-0.053,0.029,105.484,160.114,-139.444
14:45:25:683,44.894,0.048,-0.081,-0.008,105.621,161.117,-139.109
14:45:25:702,44.913,0.022,-0.116,-0.022,105.879,162.782,-138.209
14:45:25:786,44.997,0.012,-0.133,-0.102,105.919,164.049,-137.263
14:45:25:787,44.998,0.013,-0.162,-0.145,105.712,166.075,-135.345
14:45:25:788,44.999,-0.002,-0.237,-0.152,105.394,168.586,-132.295
14:45:25:807,45.018,0.020,-0.290,-0.153,105.076,170.604,-129.459
14:45:25:833,45.045,0.054,-0.430,-0.182,104.382,173.779,-124.309
14:45:25:918,45.129,0.103,-0.571,-0.197,103.945,175.736,-120.444
14:45:25:918,45.129,0.216,-0.604,-0.104,103.111,178.492,-113.826
14:45:25:919,45.130,0.290,-0.603,-0.064,102.121,179.585,-109.249
14:45:25:939,45.150,0.550,-0.622,0.075,99.858,179.642,-102.526
14:45:26:024,45.235,0.655,-0.572,0.413,96.614,177.346,-96.392
14:45:26:024,45.236,0.732,-0.472,0.542,92.933,174.837,-92.306
14:45:26:025,45.237,0.742,-0.265,0.705,82.371,169.962,-85.649
14:45:26:043,45.254,0.887,-0.117,0.883,70.205,165.687,-80.717
14:45:26:152,45.363,0.857,0.363,1.100,43.230,157.819,-71.967
14:45:26:153,45.364,0.551,0.836,0.848,18.790,148.003,-61.814
14:45:26:209,45.420,0.480,1.085,0.619,10.102,140.733,-54.909
14:45:26:21,45.421,0.302,0.893,0.478,5.723,129.814,-45.003
14:45:26:211,45.422,0.145,0.814,0.438,5.747,122.882,-38.944
14:45:26:285,45.496,-0.336,0.658,-0.056,11.225,107.101,-23.426
14:45:26:286,45.497,-0.413,0.556,-0.080,13.803,105.121,-19.224
14:45:26:287,45.498,-0.516,0.390,-0.103,17.176,103.885,-13.919
14:45:26:42,45.631,-0.584,0.235,-0.231,19.017,103.435,-10.891
14:45:26:421,45.632,-0.597,0.113,-0.258,21.320,103.702,-6.591
14:45:26:422,45.633,-0.619,-0.043,-0.366,23.482,103.551,-2.613
14:45:26:438,45.649,-0.581,-0.297,-0.627,27.882,100.459,2.572
14:45:26:577,45.789,-0.580,-0.308,-0.686,29.551,99.172,4.191
14:45:26:578,45.789,-0.552,-0.438,-0.705,31.450,98.232,6.417
14:45:26:579,45.790,-0.434,-0.480,-0.626,31.773,98.420,7.800
14:45:26:579,45.791,-0.395,-0.384,-0.614,31.021,98.646,7.830
14:45:26:657,45.868,-0.426,-0.323,-0.602,29.110,99.109,6.954
14:45:26:657,45.868,-0.457,-0.320,-0.635,27.454,99.579,5.901
14:45:26:658,45.869,-0.505,-0.207,-0.636,24.338,101.037,3.740
14:45:26:659,45.870,-0.547,-0.019,-0.567,20.575,103.948,0.916
14:45:26:676,45.887,-0.570,0.146,-0.471,17.857,106.946,-1.414
14:45:26:677,45.888,-0.499,0.332,-0.284,13.848,113.144,-5.616
14:45:26:756,45.967,-0.414,0.447,-0.144,11.583,118.305,-8.904
14:45:26:757,45.968,-0.355,0.623,-0.018,9.308,127.194,-14.482
14:45:26:781,45.992,-0.040,0.699,0.392,9.049,137.226,-20.550
14:45:26:781,45.993,0.082,0.719,0.453,10.075,143.645,-24.803
14:45:26:806,46.017,0.190,0.483,0.510,12.993,150.277,-30.924
14:45:26:889,46.100,0.261,0.445,0.566,15.413,153.117,-34.946
14:45:26:889,46.100,0.407,0.270,0.652,19.387,155.458,-40.891
14:45:26:89,46.101,0.483,0.105,0.686,22.083,155.950,-44.811
14:45:27:024,46.235,0.509,-0.055,0.674,26.087,155.649,-50.594
14:45:27:024,46.235,0.537,-0.211,0.666,29.971,154.748,-56.131
14:45:27:025,46.236,0.553,-0.381,0.623,32.319,154.094,-59.578
14:45:27:026,46.237,0.519,-0.502,0.557,35.055,153.178,-64.209
14:45:27:043,46.254,0.517,-0.577,0.465,36.012,152.758,-66.810
14:45:27:183,46.394,0.496,-0.574,0.413,36.066,152.498,-69.855
14:45:27:183,46.394,0.540,-0.543,0.345,35.048,152.727,-71.878
14:45:27:183,46.394,0.571,-0.614,0.318,34.132,153.012,-72.734
14:45:27:184,46.395,0.527,-0.643,0.281,30.719,153.098,-73.020
14:45:27:262,46.473,0.501,-0.516,0.262,26.794,152.872,-72.408
14:45:27:262,46.473,0.572,-0.396,0.226,19.446,152.264,-70.470
14:45:27:263,46.474,0.656,-0.216,0.185,12.063,152.119,-67.481
14:45:27:263,46.474,0.713,-0.121,0.155,8.301,151.291,-64.815
14:45:27:311,46.523,0.601,-0.053,0.138,4.889,150.274,-59.946
14:45:27:312,46.524,0.579,0.042,0.132,3.644,149.117,-56.213
14:45:27:313,46.524,0.566,0.277,0.140,2.917,147.484,-50.053
14:45:27:314,46.525,0.467,0.361,0.109,3.377,146.242,-43.539
14:45:27:388,46.599,0.373,0.402,0.121,4.057,145.577,-39.172
14:45:27:388,46.599,0.200,0.444,0.052,5.041,144.578,-32.720
14:45:27:389,46.600,0.078,0.367,-0.039,5.654,143.840,-28.500
14:45:27:918,47.129,-0.161,0.461,-0.255,6.382,141.691,-22.484
14:45:27:918,47.129,-0.432,0.274,-0.395,7.669,137.554,-17.174
14:45:27:918,47.129,-0.320,0.204,-0.108,9.294,135.787,-14.016
14:45:27:919,47.130,-0.483,0.114,-0.203,11.911,134.821,-9.581
14:45:28:1,47.311,-0.554,0.010,-0.232,13.496,135.674,-6.616
14:45:28:101,47.312,-0.462,-0.051,-0.073,15.341,138.546,-2.503
14:45:28:101,47.312,-0.522,-0.137,-0.211,16.766,141.127,0.730
14:45:28:102,47.313,-0.552,-0.233,-0.236,17.900,140.685,2.229
14:45:28:126,47.337,-0.637,-0.266,-0.266,19.664,139.831,3.494
14:45:28:127,47.338,-0.727,-0.200,-0.241,20.610,138.813,3.903
14:45:28:128,47.339,-0.763,-0.176,-0.234,21.388,138.719,3.917
14:45:28:129,47.340,-0.675,-0.178,-0.142,21.289,138.988,3.237
14:45:28:152,47.363,-0.614,-0.117,-0.092,20.585,140.331,2.144
14:45:28:153,47.364,-0.567,-0.052,-0.079,19.018,141.377,-0.279
14:45:28:154,47.365,-0.552,0.041,-0.057,17.765,142.908,-2.293
14:45:28:155,47.366,-0.510,0.124,-0.022,15.712,144.544,-5.870
14:45:28:231,47.443,-0.431,0.183,0.047,14.304,145.968,-8.687
14:45:28:232,47.443,-0.348,0.244,0.088,12.242,148.749,-13.394
14:45:28:284,47.495,0.145,0.412,0.298,9.646,162.976,-27.227
14:45:28:284,47.495,0.166,0.393,0.297,10.325,167.073,-30.642
14:45:28:285,47.496,0.312,0.312,0.330,12.395,172.819,-35.423
14:45:28:286,47.497,0.463,0.203,0.320,15.408,177.611,-39.888
14:45:28:337,47.548,0.540,0.088,0.327,17.634,-179.938,-42.693
14:45:28:337,47.548,0.596,-0.069,0.296,20.949,-177.333,-46.730
14:45:28:338,47.549,0.642,-0.240,0.245,26.067,-174.792,-52.910
14:45:28:338,47.549,0.647,-0.315,0.218,28.596,-173.982,-56.025
14:45:28:365,47.576,0.649,-0.352,0.198,29.840,-173.690,-57.833
14:45:28:365,47.576,0.672,-0.469,0.133,30.637,-173.617,-60.168
14:45:28:365,47.576,0.610,-0.517,0.016,30.119,-173.875,-61.370
14:45:28:366,47.577,0.587,-0.497,0.020,27.646,-174.965,-62.612
14:45:28:391,47.602,0.615,-0.343,0.014,23.352,-176.703,-62.914
14:45:28:391,47.602,0.586,-0.300,-0.019,20.302,-177.817,-62.375
14:45:28:391,47.603,0.458,-0.316,-0.070,16.157,-179.301,-60.506
14:45:28:391,47.603,0.464,-0.198,-0.133,13.596,179.666,-58.818
14:45:28:467,47.678,0.562,0.012,-0.157,10.455,177.993,-55.709
14:45:28:468,47.679,0.538,0.095,-0.084,8.871,176.432,-51.692
14:45:28:469,47.680,0.388,0.046,-0.039,8.374,175.398,-48.550
14:45:28:469,47.680,0.303,0.102,-0.078,8.267,173.960,-43.543
14:45:28:514,47.725,0.301,0.170,-0.051,8.503,173.000,-40.214
14:45:28:515,47.726,0.220,0.205,-0.038,8.838,170.912,-35.367
14:45:28:756,47.967,0.120,0.268,0.010,9.221,168.146,-30.818
14:45:28:757,47.968,0.034,0.280,0.017,9.650,166.127,-27.977
14:45:28:757,47.969,-0.108,0.262,0.044,10.653,163.211,-24.009
14:45:28:758,47.970,-0.228,0.168,0.008,11.494,161.460,-21.547
14:45:28:836,48.047,-0.250,0.077,0.045,12.996,158.768,-18.311
14:45:28:836,48.047,-0.339,0.033,0.056,14.610,155.500,-15.728
14:45:28:837,48.048,-0.423,0.017,0.028,15.692,153.270,-14.280
14:45:28:838,48.049,-0.466,-0.007,0.028,17.379,151.149,-12.197
14:45:28:861,48.072,-0.484,-0.067,0.065,18.481,150.832,-10.887
14:45:28:862,48.073,-0.489,-0.118,0.092,19.817,150.969,-9.051
14:45:28:863,48.074,-0.530,-0.112,0.030,20.509,151.285,-7.967
14:45:28:864,48.075,-0.498,-0.138,0.028,21.297,151.855,-6.563
14:45:28:882,48.093,-0.546,-0.127,0.047,21.932,152.021,-5.630
14:45:28:882,48.093,-0.592,-0.103,0.044,22.227,151.982,-5.256
14:45:28:933,48.144,-0.621,-0.064,0.049,22.330,152.321,-4.996
14:45:28:99,48.201,-0.591,-0.060,0.065,22.081,153.046,-5.082
14:45:28:99,48.201,-0.535,-0.002,0.099,21.182,154.753,-5.785
14:45:28:991,48.202,-0.524,0.120,0.130,19.742,157.083,-7.202
14:45:29:07,48.281,-0.489,0.117,0.143,18.591,159.192,-8.516
14:45:29:07,48.281,-0.392,0.063,0.177,16.698,163.383,-11.096
14:45:29:07,48.281,-0.277,0.116,0.239,15.429,166.951,-13.169
14:45:29:088,48.299,-0.170,0.163,0.272,13.839,173.406,-16.673
14:45:29:114,48.326,-0.001,0.238,0.295,13.017,-179.275,-20.482
14:45:29:202,48.413,0.105,0.285,0.293,13.034,-174.396,-23.083
14:45:29:202,48.413,0.214,0.295,0.288,14.000,-167.679,-26.844
14:45:29:203,48.414,0.301,0.225,0.293,15.206,-163.795,-29.194
14:45:29:204,48.415,0.393,0.097,0.249,17.579,-159.139,-32.608
14:45:29:333,48.544,0.493,-0.015,0.200,20.185,-155.922,-36.042
14:45:29:334,48.545,0.528,-0.044,0.175,21.915,-154.461,-38.353
14:45:29:335,48.546,0.569,-0.089,0.109,24.569,-152.800,-41.788
14:45:29:336,48.547,0.670,-0.168,0.071,26.340,-152.144,-44.121
14:45:29:354,48.565,0.666,-0.240,0.100,28.228,-152.489,-47.877
14:45:29:354,48.565,0.637,-0.255,0.053,28.769,-153.498,-51.533
14:45:29:435,48.647,0.603,-0.262,0.021,28.636,-153.967,-53.651
14:45:29:436,48.647,0.588,-0.275,-0.022,28.017,-154.250,-56.340
14:45:29:437,48.648,0.592,-0.242,-0.037,27.364,-154.213,-57.795
14:45:29:455,48.667,0.574,-0.186,-0.107,26.174,-153.804,-59.343
14:45:29:482,48.693,0.520,-0.224,-0.159,24.819,-153.356,-60.192
14:45:29:568,48.779,0.457,-0.262,-0.170,23.415,-153.471,-60.453
14:45:29:568,48.780,0.393,-0.285,-0.163,20.280,-154.374,-60.275
14:45:29:568,48.780,0.391,-0.227,-0.194,17.659,-155.291,-59.632
14:45:29:667,48.878,0.369,-0.113,-0.217,13.411,-157.042,-57.587
14:45:29:702,48.913,0.243,-0.040,-0.191,10.941,-158.398,-55.454
14:45:29:702,48.913,0.262,0.030,-0.155,8.745,-160.412,-51.300
14:45:29:703,48.914,0.220,0.133,-0.121,8.080,-162.305,-46.157
14:45:29:703,48.914,0.084,0.255,-0.090,8.240,-163.258,-42.272
14:45:29:718,48.929,0.029,0.340,-0.080,9.339,-163.691,-36.164
14:45:29:803,49.014,-0.009,0.278,-0.052,10.458,-163.184,-32.290
14:45:29:803,49.014,-0.079,0.171,-0.005,11.984,-162.140,-27.239
14:45:29:804,49.015,-0.199,-0.016,-0.028,13.117,-160.918,-23.051
14:45:29:823,49.034,-0.271,0.051,-0.027,13.622,-160.364,-20.823
14:45:29:849,49.061,-0.384,0.036,0.087,14.248,-161.507,-18.467
14:45:29:934,49.145,-0.454,0.026,0.180,14.838,-162.788,-17.445
14:45:29:934,49.145,-0.258,0.002,0.215,15.913,-163.264,-16.148
14:45:29:935,49.146,-0.172,-0.063,0.332,16.902,-161.245,-14.774
14:45:30:044,49.256,-0.170,-0.039,0.337,17.315,-159.392,-13.928
14:45:30:044,49.256,-0.150,-0.086,0.340,17.765,-155.641,-12.662
14:45:30:045,49.257,-0.154,-0.087,0.324,17.914,-152.901,-11.800
14:45:30:046,49.258,-0.133,0.014,0.293,17.990,-149.148,-10.705
14:45:30:059,49.271,-0.151,0.025,0.360,18.280,-147.282,-10.097
14:45:30:086,49.297,-0.202,-0.014,0.411,18.561,-147.513,-10.051
14:45:30:171,49.382,-0.174,-0.051,0.432,18.871,-148.595,-10.359
14:45:30:171,49.382,-0.134,-0.016,0.445,18.945,-149.151,-10.659
14:45:30:172,49.383,-0.121,0.037,0.463,18.820,-148.935,-11.121
14:45:30:221,49.433,-0.070,0.134,0.505,18.442,-146.881,-11.481
14:45:30:221,49.433,-0.035,-0.005,0.448,18.108,-144.505,-11.774
14:45:30:273,49.484,0.034,-0.039,0.392,17.489,-140.030,-12.612
14:45:30:273,49.484,0.083,0.010,0.338,17.016,-136.624,-13.457
14:45:30:297,49.508,0.148,0.064,0.299,16.397,-131.218,-15.127
14:45:30:409,49.620,0.196,0.101,0.268,16.055,-125.739,-17.126
14:45:30:41,49.621,0.240,0.107,0.228,16.076,-122.079,-18.575
14:45:30:41,49.622,0.294,0.077,0.155,16.565,-116.870,-20.860
14:45:30:411,49.623,0.341,0.007,0.090,17.153,-113.802,-22.444
14:45:30:43,49.641,0.361,-0.009,0.031,18.242,-110.073,-24.956
14:45:30:453,49.664,0.402,-0.003,-0.056,19.459,-107.316,-27.580
14:45:30:566,49.777,0.426,-0.005,-0.093,20.275,-105.999,-29.414
14:45:30:567,49.778,0.445,-0.018,-0.149,21.423,-104.698,-32.278
14:45:30:568,49.779,0.456,-0.008,-0.215,22.105,-104.075,-34.242
14:45:30:569,49.780,0.427,-0.027,-0.285,22.914,-103.271,-37.168
14:45:30:672,49.883,0.391,-0.139,-0.345,23.246,-102.859,-39.143
14:45:30:673,49.884,0.344,-0.229,-0.343,23.133,-102.933,-42.313
14:45:30:674,49.885,0.299,-0.206,-0.372,21.831,-103.892,-45.537
14:45:30:674,49.885,0.223,-0.157,-0.423,20.368,-104.631,-47.389
14:45:30:777,49.988,0.206,-0.155,-0.423,18.203,-105.784,-49.422
14:45:30:778,49.989,0.221,-0.158,-0.426,16.901,-106.672,-50.215
14:45:30:779,49.990,0.220,-0.111,-0.530,14.749,-108.256,-50.547
14:45:30:779,49.991,0.155,-0.057,-0.481,11.960,-110.510,-49.601
14:45:31:066,50.277,0.081,-0.105,-0.328,10.027,-112.258,-48.247
14:45:31:067,50.278,-0.014,0.005,-0.314,7.829,-114.647,-45.484
14:45:31:069,50.280,0.000,-0.001,0.000,124.470,38.021,108.034
14:45:31:146,50.357,0.033,0.073,-0.263,7.662,-117.914,-35.993
14:45:31:146,50.357,0.034,0.119,-0.244,8.015,-118.341,-33.562
14:45:31:146,50.357,0.009,0.162,-0.103,8.479,-119.263,-29.956
14:45:31:147,50.358,-0.036,0.124,-0.002,8.852,-119.876,-27.578
14:45:31:197,50.409,-0.005,0.075,0.035,9.649,-120.336,-24.216
14:45:31:198,50.410,-0.026,0.015,0.099,10.472,-120.907,-21.169
14:45:31:199,50.410,-0.134,0.069,0.238,10.876,-122.190,-19.411
14:45:31:2,50.411,-0.175,-0.023,0.330,11.679,-124.921,-17.270
14:45:31:242,50.453,-0.047,-0.015,0.321,12.531,-125.923,-15.870
14:45:31:276,50.487,-0.028,-0.036,0.389,13.855,-125.397,-13.597
14:45:31:276,50.487,0.017,-0.066,0.365,15.098,-124.159,-11.523
14:45:31:277,50.488,0.025,-0.083,0.387,15.887,-123.223,-10.214
14:45:31:382,50.593,0.029,-0.073,0.386,16.824,-122.050,-8.363
14:45:31:382,50.594,0.033,-0.007,0.474,17.308,-121.559,-7.294
14:45:31:383,50.594,0.008,0.001,0.516,18.006,-121.668,-5.968
14:45:31:383,50.595,0.003,-0.002,0.558,18.637,-122.236,-5.001
14:45:31:434,50.645,-0.008,-0.006,0.572,18.931,-122.640,-4.581
14:45:31:435,50.646,0.000,0.027,0.584,19.041,-122.844,-4.248
14:45:31:436,50.647,-0.006,0.043,0.571,18.843,-122.514,-4.278
14:45:31:436,50.647,-0.010,-0.105,0.484,18.136,-121.262,-4.843
14:45:31:51,50.721,-0.007,-0.144,0.423,17.389,-119.987,-5.632
14:45:31:511,50.722,0.030,-0.100,0.411,15.896,-117.101,-7.380
14:45:31:512,50.723,0.054,-0.016,0.380,14.132,-113.123,-9.751
14:45:31:644,50.855,0.108,0.144,0.330,12.979,-109.743,-11.601
14:45:31:645,50.856,0.152,0.205,0.210,11.550,-103.497,-14.643
14:45:31:645,50.856,0.251,0.238,-0.018,10.980,-98.599,-16.778
14:45:31:646,50.857,0.204,0.128,0.031,10.902,-92.641,-20.140
14:45:31:743,50.955,0.182,0.095,-0.071,11.330,-89.003,-23.708
14:45:31:744,50.956,0.186,0.075,-0.148,11.795,-87.392,-26.195
14:45:31:801,51.012,0.204,0.042,-0.242,12.634,-85.911,-29.865
14:45:31:802,51.013,0.213,0.036,-0.269,13.235,-85.526,-32.285
14:45:31:803,51.014,0.213,-0.001,-0.320,14.259,-85.391,-35.786
14:45:31:88,51.091,0.185,-0.140,-0.420,16.030,-85.824,-41.037
14:45:31:882,51.093,0.165,-0.193,-0.424,16.514,-86.669,-43.728
14:45:31:882,51.093,0.144,-0.242,-0.431,16.495,-87.321,-45.258
14:45:31:883,51.094,0.148,-0.235,-0.452,16.021,-88.342,-46.991
14:45:32:038,51.249,0.157,-0.174,-0.473,15.115,-89.456,-47.980
14:45:32:038,51.249,0.167,-0.133,-0.446,14.236,-90.327,-47.962
14:45:32:039,51.250,0.173,-0.047,-0.447,12.809,-91.796,-47.061
14:45:32:04,51.251,0.164,0.023,-0.442,11.845,-92.832,-45.934
14:45:32:055,51.266,0.168,0.077,-0.400,10.596,-94.318,-43.152
14:45:32:084,51.296,0.120,0.062,-0.267,9.636,-95.516,-39.401
14:45:32:135,51.346,0.073,0.054,-0.181,9.121,-96.201,-36.587
14:45:32:169,51.380,-0.009,0.033,-0.013,8.736,-97.112,-32.295
14:45:32:169,51.380,-0.037,0.001,0.057,8.798,-97.604,-29.589
14:45:32:17,51.381,0.002,0.009,-0.016,9.175,-98.004,-25.938
14:45:32:219,51.430,-0.182,0.230,0.013,8.142,-102.407,-21.287
14:45:32:22,51.431,-0.436,0.131,0.701,6.621,-112.574,-20.371
14:45:32:223,51.434,-0.448,0.109,0.576,5.701,-120.439,-20.726
14:45:32:241,51.452,-0.194,-0.111,0.384,6.126,-126.429,-20.984
14:45:32:242,51.453,0.004,-0.191,0.370,7.992,-124.848,-20.911
14:45:32:264,51.476,0.182,-0.099,0.269,9.192,-121.463,-20.715
