Time,Second,AccelerationX,AccelerationY,AccelerationZ,EulerAnglesX,EulerAnglesY,EulerAnglesZ
14:11:03:505,0.000,0.001,0.001,0.005,-8.805,33.971,1.547
14:11:03:506,0.001,-0.009,0.001,0.008,-8.810,33.971,1.556
14:11:03:506,0.002,-0.001,0.000,0.009,-8.808,33.967,1.552
14:11:03:525,0.021,-0.009,0.002,0.001,-8.817,33.964,1.558
14:11:03:552,0.048,-0.001,0.001,0.008,-8.817,33.950,1.559
14:11:03:61,0.105,-0.006,0.002,0.006,-8.817,33.941,1.560
14:11:03:61,0.105,-0.005,0.000,0.012,-8.817,33.941,1.560
14:11:03:691,0.186,-0.004,0.002,0.001,-8.813,33.927,1.574
14:11:03:691,0.186,-0.001,0.001,0.006,-8.816,33.916,1.597
14:11:03:691,0.186,-0.010,0.001,0.005,-8.815,33.919,1.615
14:11:03:711,0.207,-0.004,0.004,0.012,-8.817,33.918,1.637
14:11:03:767,0.262,-0.003,0.001,0.006,-8.814,33.917,1.651
14:11:03:767,0.262,-0.006,0.001,0.013,-8.815,33.921,1.679
14:11:03:788,0.283,-0.011,0.001,0.012,-8.812,33.920,1.693
14:11:03:841,0.336,0.001,0.003,0.008,-8.814,33.918,1.715
14:11:03:9,0.395,-0.008,0.000,0.006,-8.816,33.917,1.738
14:11:03:9,0.396,-0.003,0.000,0.013,-8.816,33.920,1.755
14:11:03:9,0.396,-0.007,0.003,0.007,-8.814,33.920,1.780
14:11:04:086,0.581,-0.005,0.001,0.007,-8.811,33.919,1.794
14:11:04:087,0.582,-0.004,0.001,0.009,-8.815,33.921,1.820
14:11:04:087,0.583,-0.008,0.001,0.008,-8.817,33.918,1.849
14:11:04:088,0.584,-0.006,0.001,0.008,-8.813,33.917,1.863
14:11:04:111,0.607,-0.004,0.001,0.012,-8.816,33.920,1.867
14:11:04:112,0.608,-0.008,0.004,0.010,-8.816,33.920,1.867
14:11:04:113,0.609,-0.002,0.002,0.011,-8.816,33.912,1.867
14:11:04:114,0.609,-0.006,-0.001,0.007,-8.816,33.912,1.867
14:11:04:13,0.626,-0.008,0.001,0.011,-8.814,33.913,1.874
14:11:04:157,0.652,-0.004,0.003,0.005,-8.814,33.905,1.875
14:11:04:183,0.678,-0.005,-0.001,0.007,-8.818,33.905,1.890
14:11:04:208,0.703,-0.012,0.000,0.013,-8.816,33.906,1.915
14:11:04:263,0.758,-0.009,0.004,0.003,-8.816,33.906,1.915
14:11:04:264,0.759,-0.008,0.002,0.008,-8.817,33.907,1.926
14:11:04:287,0.782,-0.012,0.003,0.004,-8.817,33.910,1.943
14:11:04:313,0.808,-0.008,0.001,0.010,-8.816,33.905,1.962
14:11:04:339,0.834,-0.010,0.004,0.006,-8.816,33.908,1.979
14:11:04:367,0.862,-0.004,0.000,0.009,-8.815,33.910,1.997
14:11:04:392,0.887,-0.011,0.000,0.007,-8.818,33.922,2.018
14:11:04:476,0.971,-0.005,0.003,0.009,-8.816,33.915,2.025
14:11:04:477,0.972,-0.009,0.002,0.005,-8.814,33.924,2.049
14:11:04:478,0.973,-0.007,0.001,0.012,-8.819,33.960,2.080
14:11:04:497,0.992,-0.011,0.002,0.005,-8.822,33.974,2.094
14:11:04:523,1.018,-0.004,0.004,0.008,-8.816,33.972,2.121
14:11:04:549,1.045,-0.007,0.002,0.010,-8.813,33.979,2.152
14:11:04:58,1.075,-0.008,0.000,0.017,-8.803,34.005,2.198
14:11:04:58,1.075,-0.006,0.003,0.009,-8.791,34.029,2.233
14:11:04:662,1.157,-0.003,0.004,0.011,-8.777,34.040,2.265
14:11:04:662,1.157,-0.006,0.002,0.008,-8.761,34.079,2.290
14:11:04:662,1.157,-0.010,-0.002,0.012,-8.750,34.113,2.307
14:11:04:682,1.177,-0.008,0.004,0.007,-8.725,34.138,2.338
14:11:04:707,1.202,-0.006,0.003,0.012,-8.713,34.157,2.363
14:11:04:763,1.258,-0.009,0.001,0.013,-8.686,34.193,2.383
14:11:04:763,1.258,-0.008,0.000,0.011,-8.658,34.226,2.398
14:11:04:874,1.369,-0.008,0.002,0.008,-8.639,34.244,2.403
14:11:04:874,1.369,-0.007,-0.001,0.014,-8.614,34.265,2.418
14:11:04:875,1.370,-0.006,0.002,0.013,-8.595,34.283,2.423
14:11:04:875,1.370,-0.007,0.001,0.013,-8.575,34.307,2.434
14:11:04:891,1.386,-0.005,0.000,0.012,-8.546,34.345,2.432
14:11:04:919,1.414,-0.008,0.002,0.014,-8.525,34.368,2.432
14:11:04:972,1.467,-0.007,0.001,0.015,-8.498,34.391,2.424
14:11:04:973,1.468,-0.006,-0.002,0.016,-8.491,34.407,2.421
14:11:05:055,1.550,-0.007,0.003,0.015,-8.470,34.443,2.421
14:11:05:055,1.550,-0.012,0.001,0.006,-8.464,34.472,2.417
14:11:05:055,1.550,-0.008,0.000,0.018,-8.444,34.502,2.410
14:11:05:074,1.569,-0.011,0.005,0.013,-8.444,34.519,2.427
14:11:05:101,1.596,-0.006,0.001,0.012,-8.436,34.541,2.431
14:11:05:127,1.622,-0.008,0.002,0.008,-8.433,34.588,2.430
14:11:05:153,1.648,-0.009,-0.001,0.017,-8.436,34.619,2.432
14:11:05:238,1.733,-0.016,0.001,0.014,-8.427,34.647,2.442
14:11:05:239,1.734,-0.002,0.003,0.013,-8.424,34.655,2.455
14:11:05:239,1.734,-0.003,0.001,0.002,-8.420,34.657,2.457
14:11:05:258,1.753,-0.005,0.001,0.014,-8.422,34.661,2.461
14:11:05:285,1.780,-0.009,0.002,0.010,-8.414,34.661,2.466
14:11:05:31,1.805,-0.005,0.001,0.015,-8.407,34.668,2.464
14:11:05:339,1.834,-0.004,0.000,0.006,-8.409,34.662,2.458
14:11:05:364,1.860,-0.005,-0.001,0.017,-8.400,34.662,2.463
14:11:05:448,1.943,-0.008,0.002,0.009,-8.405,34.664,2.461
14:11:05:448,1.943,-0.005,-0.001,0.013,-8.414,34.658,2.449
14:11:05:449,1.944,-0.006,0.002,0.012,-8.424,34.652,2.437
14:11:05:47,1.965,-0.002,0.002,0.007,-8.434,34.660,2.424
14:11:05:496,1.991,-0.005,0.003,0.007,-8.457,34.656,2.405
14:11:05:521,2.016,-0.005,0.002,0.010,-8.467,34.660,2.403
14:11:05:634,2.129,-0.008,-0.001,0.011,-8.476,34.674,2.397
14:11:05:635,2.130,-0.008,-0.001,0.008,-8.495,34.682,2.379
14:11:05:636,2.131,-0.005,0.003,0.005,-8.499,34.677,2.359
14:11:05:637,2.132,0.000,0.004,0.010,-8.515,34.677,2.348
14:11:05:654,2.149,-0.008,0.000,0.008,-8.515,34.677,2.348
14:11:05:679,2.174,-0.003,-0.001,0.011,-8.512,34.676,2.362
14:11:05:704,2.199,-0.004,0.004,0.011,-8.512,34.676,2.362
14:11:05:73,2.226,-0.001,0.002,0.004,-8.515,34.672,2.366
14:11:05:757,2.252,-0.002,-0.001,0.006,-8.515,34.672,2.366
14:11:05:841,2.337,-0.013,0.004,0.009,-8.518,34.675,2.370
14:11:05:842,2.337,-0.001,0.002,0.012,-8.521,34.671,2.375
14:11:05:843,2.338,-0.007,0.001,0.002,-8.512,34.671,2.380
14:11:05:862,2.357,-0.003,0.001,0.007,-8.515,34.674,2.384
14:11:05:888,2.383,-0.010,0.001,0.007,-8.518,34.670,2.389
14:11:05:916,2.411,-0.007,0.002,0.010,-8.509,34.670,2.394
14:11:06:028,2.523,-0.009,0.004,0.003,-8.509,34.670,2.394
14:11:06:028,2.524,-0.009,0.000,0.012,-8.515,34.669,2.402
14:11:06:029,2.525,-0.009,0.003,0.003,-8.506,34.669,2.408
14:11:06:03,2.526,-0.003,0.002,0.007,-8.509,34.664,2.412
14:11:06:047,2.543,-0.006,0.002,0.003,-8.507,34.665,2.419
14:11:06:072,2.568,-0.007,0.000,0.009,-8.503,34.668,2.421
14:11:06:099,2.594,-0.008,0.000,0.006,-8.501,34.660,2.429
14:11:06:124,2.619,-0.005,0.001,0.011,-8.500,34.667,2.435
14:11:06:231,2.726,-0.010,0.000,0.009,-8.503,34.662,2.440
14:11:06:266,2.761,-0.005,0.003,0.007,-8.498,34.659,2.443
14:11:06:266,2.762,-0.001,0.001,0.005,-8.497,34.666,2.449
14:11:06:266,2.762,-0.009,0.001,0.012,-8.497,34.666,2.449
14:11:06:266,2.762,-0.005,0.004,0.004,-8.504,34.672,2.450
14:11:06:282,2.777,-0.009,0.000,0.006,-8.504,34.672,2.450
14:11:06:308,2.803,-0.007,0.000,0.005,-8.513,34.673,2.445
14:11:06:334,2.829,-0.013,0.002,0.017,-8.513,34.673,2.445
14:11:06:42,2.916,-0.005,0.002,0.004,-8.533,34.679,2.449
14:11:06:42,2.916,-0.010,-0.003,0.004,-8.544,34.674,2.448
14:11:06:42,2.916,-0.007,-0.001,0.009,-8.544,34.674,2.448
14:11:06:44,2.936,-0.008,0.000,0.008,-8.548,34.672,2.446
14:11:06:467,2.962,-0.004,0.002,0.006,-8.566,34.674,2.446
14:11:06:492,2.987,-0.007,0.000,0.009,-8.588,34.674,2.444
14:11:06:606,3.102,-0.004,0.000,0.005,-8.613,34.669,2.446
14:11:06:607,3.102,-0.007,0.002,0.009,-8.627,34.668,2.449
14:11:06:608,3.103,0.000,0.002,0.007,-8.649,34.682,2.446
14:11:06:608,3.104,-0.005,0.005,-0.002,-8.672,34.717,2.441
14:11:06:623,3.118,-0.007,0.002,0.006,-8.696,34.741,2.448
14:11:06:65,3.145,-0.010,0.001,0.002,-8.719,34.746,2.475
14:11:06:676,3.171,-0.007,0.002,0.005,-8.734,34.769,2.487
14:11:06:734,3.229,-0.014,0.001,0.004,-8.740,34.799,2.511
14:11:06:734,3.229,-0.009,0.000,0.011,-8.746,34.820,2.518
14:11:06:735,3.230,-0.001,0.001,0.001,-8.753,34.821,2.537
14:11:06:814,3.309,-0.007,0.001,0.007,-8.767,34.817,2.551
14:11:06:815,3.310,-0.014,0.002,0.000,-8.777,34.822,2.575
14:11:06:816,3.311,-0.007,0.000,0.010,-8.778,34.826,2.603
14:11:06:862,3.357,-0.011,0.001,0.007,-8.781,34.838,2.625
14:11:06:863,3.358,-0.005,-0.002,0.008,-8.797,34.836,2.650
14:11:06:885,3.380,-0.013,0.005,0.004,-8.810,34.856,2.658
14:11:07:001,3.496,-0.010,0.002,0.007,-8.815,34.872,2.683
14:11:07:001,3.496,-0.010,-0.003,0.007,-8.817,34.870,2.706
14:11:07:001,3.496,-0.011,0.000,0.009,-8.817,34.873,2.723
14:11:07:002,3.497,-0.018,0.002,0.002,-8.821,34.875,2.720
14:11:07:018,3.513,-0.005,0.000,0.007,-8.822,34.872,2.732
14:11:07:044,3.539,-0.010,0.000,0.006,-8.832,34.868,2.756
14:11:07:069,3.564,-0.009,0.001,0.004,-8.832,34.871,2.773
14:11:07:096,3.591,-0.011,0.001,0.003,-8.832,34.854,2.804
14:11:07:176,3.672,-0.017,0.001,0.009,-8.837,34.856,2.830
14:11:07:208,3.703,-0.011,0.001,0.007,-8.834,34.855,2.843
14:11:07:208,3.703,-0.011,0.001,0.005,-8.836,34.859,2.872
14:11:07:208,3.703,-0.009,0.002,0.004,-8.838,34.857,2.894
14:11:07:228,3.723,-0.011,-0.001,0.006,-8.837,34.858,2.919
14:11:07:255,3.750,-0.007,0.002,-0.002,-8.837,34.875,2.935
14:11:07:281,3.776,-0.004,0.003,0.004,-8.846,34.888,2.958
14:11:07:308,3.803,-0.013,-0.004,0.003,-8.845,34.885,2.994
14:11:07:39,3.885,-0.010,0.005,-0.002,-8.844,34.886,3.019
14:11:07:391,3.886,-0.015,0.004,0.005,-8.843,34.883,3.055
14:11:07:392,3.887,-0.024,0.000,-0.002,-8.853,34.888,3.078
14:11:07:411,3.906,-0.017,0.002,0.005,-8.850,34.887,3.092
14:11:07:439,3.934,-0.018,0.003,0.007,-8.850,34.887,3.092
14:11:07:577,4.073,-0.013,0.002,0.004,-8.850,34.887,3.092
14:11:07:578,4.073,-0.011,0.003,-0.008,-8.849,34.843,3.095
14:11:07:579,4.074,-0.008,-0.001,0.002,-8.844,34.818,3.100
14:11:07:58,4.075,-0.010,0.003,0.001,-8.844,34.818,3.100
14:11:07:598,4.093,-0.015,0.003,0.002,-8.844,34.818,3.100
14:11:07:599,4.094,-0.017,0.004,-0.005,-8.848,34.807,3.098
14:11:07:621,4.116,-0.008,0.001,0.002,-8.833,34.800,3.102
14:11:07:65,4.145,-0.018,0.004,0.007,-8.815,34.798,3.102
14:11:07:673,4.168,-0.013,0.000,0.009,-8.790,34.803,3.099
14:11:07:701,4.197,-0.017,0.003,0.006,-8.776,34.804,3.096
14:11:07:784,4.279,-0.019,0.001,0.008,-8.755,34.784,3.093
14:11:07:785,4.280,-0.004,-0.001,0.001,-8.726,34.780,3.058
14:11:07:786,4.281,-0.011,-0.001,0.010,-8.716,34.804,3.040
14:11:07:805,4.300,-0.015,0.002,0.002,-8.713,34.792,3.018
14:11:07:831,4.326,-0.004,0.006,0.005,-8.713,34.767,3.003
14:11:07:857,4.352,-0.008,0.000,0.002,-8.709,34.762,2.988
14:11:07:97,4.466,-0.018,0.000,0.008,-8.704,34.762,2.979
14:11:07:971,4.467,-0.014,0.000,0.002,-8.710,34.755,2.981
14:11:07:972,4.467,-0.005,0.006,0.002,-8.710,34.755,2.981
14:11:07:974,4.470,-0.013,-0.001,0.008,-8.704,34.762,2.979
14:11:07:99,4.485,-0.014,0.003,0.002,-8.704,34.762,2.979
14:11:08:015,4.511,-0.009,0.005,0.004,-8.704,34.762,2.979
14:11:08:071,4.566,-0.012,0.001,0.005,-8.704,34.762,2.979
14:11:08:071,4.566,-0.007,0.004,0.003,-8.706,34.770,2.972
14:11:08:181,4.677,-0.014,-0.002,0.006,-8.705,34.782,2.960
14:11:08:181,4.677,-0.006,0.003,0.005,-8.707,34.795,2.934
14:11:08:182,4.677,-0.013,0.003,-0.001,-8.709,34.796,2.921
14:11:08:183,4.678,-0.012,0.003,0.003,-8.707,34.797,2.898
14:11:08:2,4.695,-0.015,0.000,0.005,-8.706,34.815,2.868
14:11:08:226,4.721,-0.012,-0.002,0.002,-8.709,34.816,2.854
14:11:08:251,4.746,-0.013,0.003,-0.009,-8.705,34.810,2.839
14:11:08:277,4.772,-0.011,0.000,0.007,-8.712,34.817,2.841
14:11:08:363,4.858,-0.014,0.005,0.003,-8.711,34.849,2.834
14:11:08:363,4.858,-0.008,0.001,0.002,-8.707,34.860,2.836
14:11:08:363,4.858,-0.018,0.002,-0.002,-8.711,34.893,2.831
14:11:08:382,4.878,-0.010,0.001,0.006,-8.716,34.918,2.826
14:11:08:409,4.904,-0.010,0.001,0.003,-8.714,34.937,2.820
14:11:08:435,4.930,-0.010,0.000,0.002,-8.714,34.937,2.820
14:11:08:548,5.043,-0.015,0.003,0.006,-8.714,34.937,2.820
14:11:08:549,5.044,-0.009,0.002,0.006,-8.714,34.959,2.819
14:11:08:55,5.045,-0.017,0.005,0.003,-8.708,34.988,2.815
14:11:08:55,5.046,-0.013,0.002,0.009,-8.713,35.013,2.810
14:11:08:567,5.063,-0.014,0.000,0.003,-8.711,35.045,2.804
14:11:08:593,5.088,-0.013,0.001,0.004,-8.711,35.045,2.804
14:11:08:648,5.143,-0.012,0.001,0.002,-8.711,35.045,2.804
14:11:08:648,5.143,-0.014,-0.001,0.007,-8.711,35.045,2.804
14:11:08:671,5.166,-0.007,0.000,0.006,-8.702,35.043,2.798
14:11:08:755,5.251,-0.012,0.004,0.009,-8.702,35.049,2.780
14:11:08:756,5.251,-0.010,0.002,0.003,-8.699,35.045,2.776
14:11:08:757,5.252,-0.007,0.002,0.005,-8.699,35.045,2.776
14:11:08:775,5.271,-0.008,0.001,0.003,-8.699,35.045,2.776
14:11:08:802,5.297,-0.011,0.001,0.005,-8.699,35.067,2.774
14:11:08:829,5.324,-0.013,0.002,0.006,-8.702,35.088,2.766
14:11:08:882,5.377,-0.009,0.002,0.006,-8.704,35.092,2.770
14:11:08:94,5.435,-0.008,0.002,0.009,-8.702,35.110,2.764
14:11:08:94,5.435,-0.014,0.002,-0.001,-8.700,35.129,2.759
14:11:08:94,5.436,-0.011,0.001,0.004,-8.705,35.159,2.736
14:11:08:96,5.455,-0.013,0.002,0.001,-8.708,35.174,2.721
14:11:08:986,5.481,-0.006,0.000,0.005,-8.704,35.177,2.705
14:11:09:014,5.509,-0.011,0.004,0.000,-8.707,35.186,2.709
14:11:09:119,5.614,-0.006,0.002,0.005,-8.708,35.200,2.708
14:11:09:153,5.648,-0.015,0.001,0.001,-8.705,35.227,2.702
14:11:09:153,5.649,-0.006,0.001,0.004,-8.706,35.240,2.701
14:11:09:154,5.649,-0.006,-0.002,-0.003,-8.708,35.270,2.692
14:11:09:155,5.650,-0.012,0.001,0.007,-8.711,35.296,2.694
14:11:09:173,5.668,-0.013,0.001,0.001,-8.711,35.296,2.694
14:11:09:173,5.668,-0.006,0.001,0.007,-8.711,35.296,2.694
14:11:09:196,5.691,-0.009,0.001,0.004,-8.711,35.296,2.694
14:11:09:249,5.744,-0.008,0.002,0.008,-8.711,35.296,2.694
14:11:09:335,5.831,-0.010,0.001,0.003,-8.711,35.296,2.694
14:11:09:336,5.832,-0.004,0.001,0.005,-8.711,35.296,2.694
14:11:09:337,5.832,-0.010,0.001,0.003,-8.713,35.303,2.686
14:11:09:338,5.833,-0.010,0.001,0.007,-8.713,35.303,2.686
14:11:09:353,5.849,-0.012,0.002,0.002,-8.713,35.303,2.686
14:11:09:382,5.877,-0.005,-0.001,0.003,-8.713,35.303,2.686
14:11:09:407,5.902,-0.006,0.000,-0.001,-8.713,35.303,2.686
14:11:09:519,6.015,-0.008,0.003,0.005,-8.713,35.303,2.686
14:11:09:52,6.016,-0.011,0.003,0.003,-8.713,35.303,2.686
14:11:09:521,6.017,-0.004,0.002,0.002,-8.711,35.310,2.693
14:11:09:522,6.017,-0.009,0.000,0.005,-8.709,35.314,2.688
14:11:09:539,6.034,-0.014,0.002,0.006,-8.709,35.314,2.688
14:11:09:593,6.088,-0.006,0.000,-0.001,-8.709,35.314,2.688
14:11:09:593,6.088,-0.007,0.000,-0.003,-8.709,35.314,2.688
14:11:09:645,6.140,-0.007,-0.001,0.005,-8.709,35.314,2.688
14:11:09:645,6.141,-0.012,0.004,0.002,-8.709,35.314,2.688
14:11:09:756,6.251,-0.006,0.004,0.005,-8.709,35.314,2.688
14:11:09:757,6.252,-0.013,0.003,-0.001,-8.709,35.314,2.688
14:11:09:757,6.252,-0.013,0.001,0.007,-8.698,35.319,2.689
14:11:09:758,6.253,-0.011,0.003,-0.002,-8.687,35.315,2.690
14:11:09:773,6.268,-0.006,0.002,0.003,-8.676,35.319,2.691
14:11:09:799,6.295,-0.010,0.001,0.001,-8.671,35.308,2.695
14:11:09:916,6.411,-0.009,-0.002,0.006,-8.664,35.293,2.695
14:11:09:916,6.411,-0.019,0.004,0.006,-8.641,35.266,2.699
14:11:09:916,6.411,-0.001,0.002,0.005,-8.616,35.235,2.699
14:11:09:916,6.411,-0.013,0.002,-0.003,-8.605,35.239,2.700
14:11:09:931,6.426,-0.014,0.001,0.009,-8.580,35.236,2.698
14:11:09:957,6.452,-0.008,0.003,0.004,-8.560,35.226,2.706
14:11:09:983,6.478,-0.010,-0.001,0.009,-8.533,35.227,2.699
14:11:10:009,6.505,-0.014,0.001,0.008,-8.525,35.227,2.705
14:11:10:094,6.589,-0.007,0.002,0.008,-8.497,35.228,2.699
14:11:10:095,6.590,-0.010,0.001,0.005,-8.476,35.228,2.701
14:11:10:096,6.591,-0.013,0.004,0.010,-8.464,35.233,2.702
14:11:10:114,6.609,-0.009,0.003,0.001,-8.464,35.233,2.702
14:11:10:141,6.636,-0.010,-0.001,0.009,-8.469,35.244,2.698
14:11:10:169,6.665,-0.014,0.002,0.006,-8.458,35.262,2.698
14:11:10:193,6.689,-0.008,0.003,-0.001,-8.455,35.267,2.694
14:11:10:22,6.715,-0.006,0.001,-0.004,-8.455,35.287,2.699
14:11:10:304,6.799,-0.009,0.000,0.009,-8.440,35.319,2.718
14:11:10:305,6.800,-0.009,0.002,0.012,-8.421,35.323,2.724
14:11:10:306,6.801,-0.008,0.004,0.007,-8.419,35.329,2.731
14:11:10:325,6.820,-0.014,0.001,0.009,-8.419,35.329,2.731
14:11:10:351,6.846,-0.010,-0.001,0.007,-8.419,35.329,2.731
14:11:10:377,6.872,-0.009,0.005,0.007,-8.414,35.330,2.722
14:11:10:49,6.986,-0.010,0.006,0.004,-8.414,35.330,2.722
14:11:10:491,6.987,-0.007,0.000,0.005,-8.414,35.330,2.722
14:11:10:492,6.987,-0.017,0.002,0.001,-8.414,35.330,2.722
14:11:10:493,6.988,-0.014,0.001,0.013,-8.415,35.344,2.721
14:11:10:508,7.004,-0.009,0.003,0.001,-8.415,35.344,2.721
14:11:10:535,7.030,-0.006,0.000,0.003,-8.415,35.344,2.721
14:11:10:59,7.085,-0.016,0.002,0.000,-8.414,35.330,2.722
14:11:10:591,7.086,-0.015,0.001,0.010,-8.413,35.316,2.723
14:11:10:613,7.108,-0.006,0.001,-0.005,-8.413,35.316,2.723
14:11:10:698,7.193,-0.011,0.001,0.008,-8.413,35.316,2.723
14:11:10:698,7.194,-0.014,0.005,0.002,-8.413,35.294,2.725
14:11:10:699,7.194,-0.011,0.000,0.012,-8.411,35.287,2.732
14:11:10:719,7.214,-0.014,0.000,0.003,-8.412,35.284,2.715
14:11:10:745,7.240,-0.010,0.001,0.003,-8.409,35.286,2.693
14:11:10:885,7.381,-0.006,-0.002,0.004,-8.409,35.286,2.693
14:11:10:885,7.381,-0.015,-0.002,0.013,-8.409,35.286,2.693
14:11:10:886,7.382,-0.006,0.006,0.005,-8.412,35.281,2.697
14:11:10:887,7.383,-0.005,0.001,0.005,-8.411,35.279,2.686
14:11:10:906,7.401,-0.014,-0.001,0.003,-8.409,35.277,2.675
14:11:10:906,7.401,-0.014,0.001,0.010,-8.412,35.278,2.661
14:11:10:929,7.424,-0.004,0.002,-0.006,-8.412,35.281,2.626
14:11:10:955,7.450,-0.005,0.000,0.003,-8.410,35.277,2.622
14:11:10:982,7.477,-0.014,0.001,0.006,-8.410,35.277,2.622
14:11:11:065,7.561,-0.012,0.001,0.006,-8.407,35.282,2.617
14:11:11:066,7.561,-0.003,0.005,0.004,-8.411,35.276,2.597
14:11:11:067,7.562,-0.006,0.001,0.000,-8.409,35.275,2.557
14:11:11:086,7.581,-0.007,0.000,0.002,-8.407,35.277,2.535
14:11:11:113,7.608,-0.009,0.001,0.004,-8.404,35.278,2.513
14:11:11:138,7.633,-0.011,0.004,0.008,-8.399,35.307,2.484
14:11:11:165,7.660,-0.010,0.003,0.009,-8.393,35.311,2.465
14:11:11:192,7.687,-0.007,0.002,0.005,-8.383,35.340,2.428
14:11:11:279,7.774,-0.012,0.000,0.000,-8.374,35.349,2.404
14:11:11:28,7.775,-0.017,0.001,0.012,-8.378,35.388,2.352
14:11:11:28,7.775,-0.004,0.007,-0.007,-8.362,35.424,2.288
14:11:11:281,7.776,-0.001,0.000,0.002,-8.365,35.464,2.260
14:11:11:324,7.819,-0.013,0.001,0.002,-8.354,35.516,2.247
14:11:11:349,7.844,-0.011,0.001,0.012,-8.332,35.517,2.249
14:11:11:463,7.958,-0.012,0.003,0.004,-8.296,35.526,2.248
14:11:11:464,7.959,-0.001,0.001,0.006,-8.280,35.545,2.239
14:11:11:464,7.959,-0.015,0.000,0.001,-8.259,35.581,2.239
14:11:11:465,7.960,-0.015,-0.003,0.010,-8.234,35.608,2.235
14:11:11:481,7.976,-0.015,0.003,0.004,-8.221,35.622,2.231
14:11:11:509,8.004,-0.006,0.000,0.004,-8.205,35.649,2.222
14:11:11:509,8.004,-0.013,0.001,0.007,-8.191,35.663,2.218
14:11:11:563,8.058,-0.009,0.001,0.010,-8.171,35.666,2.213
14:11:11:563,8.058,-0.008,0.004,0.000,-8.145,35.666,2.183
14:11:11:673,8.168,-0.013,0.001,0.009,-8.131,35.663,2.162
14:11:11:673,8.168,-0.019,0.000,0.011,-8.082,35.645,2.106
14:11:11:674,8.169,-0.006,-0.006,0.013,-8.051,35.614,2.045
14:11:11:675,8.170,0.000,0.010,0.009,-8.038,35.569,1.920
14:11:11:691,8.186,0.011,0.013,-0.012,-8.036,35.551,1.845
14:11:11:716,8.211,0.004,0.001,-0.017,-8.035,35.541,1.781
14:11:11:859,8.354,0.004,0.000,-0.005,-8.006,35.551,1.799
14:11:11:859,8.354,-0.006,0.001,-0.005,-7.974,35.541,1.850
14:11:11:859,8.354,-0.008,0.003,-0.001,-7.905,35.510,1.956
14:11:11:859,8.354,-0.012,-0.002,0.007,-7.854,35.492,2.025
14:11:11:876,8.371,-0.014,0.005,0.017,-7.760,35.475,2.127
14:11:11:877,8.372,-0.012,0.003,0.015,-7.671,35.432,2.193
14:11:11:9,8.395,-0.005,0.000,0.002,-7.607,35.418,2.224
14:11:11:956,8.451,-0.007,0.001,0.000,-7.528,35.422,2.274
14:11:11:956,8.451,-0.014,0.003,0.002,-7.468,35.439,2.306
14:11:12:038,8.533,-0.007,0.001,0.009,-7.371,35.493,2.342
14:11:12:039,8.534,-0.013,0.006,-0.002,-7.318,35.545,2.356
14:11:12:039,8.534,-0.008,0.002,0.006,-7.249,35.595,2.380
14:11:12:059,8.554,-0.012,0.002,0.000,-7.170,35.632,2.411
14:11:12:084,8.579,-0.005,0.001,0.003,-7.131,35.661,2.429
14:11:12:11,8.605,-0.017,0.003,0.002,-7.065,35.704,2.469
14:11:12:138,8.633,-0.003,0.001,0.004,-7.026,35.727,2.506
14:11:12:162,8.657,-0.011,0.006,-0.002,-6.966,35.764,2.573
14:11:12:247,8.742,-0.014,0.001,0.010,-6.915,35.812,2.644
14:11:12:247,8.742,-0.020,-0.001,0.003,-6.877,35.846,2.691
14:11:12:248,8.743,-0.011,-0.001,0.005,-6.824,35.898,2.759
14:11:12:267,8.762,-0.012,0.001,0.000,-6.793,35.939,2.807
14:11:12:294,8.789,-0.011,0.001,0.009,-6.750,35.993,2.880
14:11:12:32,8.815,-0.012,0.000,0.002,-6.723,36.009,2.927
14:11:12:435,8.930,-0.015,0.004,0.011,-6.676,36.029,2.980
14:11:12:436,8.931,-0.012,0.001,0.009,-6.644,36.081,3.016
14:11:12:436,8.931,-0.004,0.000,0.009,-6.634,36.116,3.033
14:11:12:436,8.931,-0.010,0.001,0.004,-6.633,36.126,3.057
14:11:12:451,8.946,-0.010,0.001,0.007,-6.630,36.125,3.071
14:11:12:477,8.972,-0.012,0.000,0.002,-6.635,36.150,3.067
14:11:12:503,8.998,-0.013,0.001,0.007,-6.632,36.197,3.067
14:11:12:531,9.027,-0.015,0.001,0.004,-6.636,36.200,3.064
14:11:12:556,9.052,-0.010,0.002,0.010,-6.640,36.197,3.062
14:11:12:641,9.136,-0.009,0.001,0.006,-6.658,36.199,3.062
14:11:12:642,9.137,-0.011,0.001,0.005,-6.687,36.206,3.060
14:11:12:642,9.137,-0.005,0.006,0.003,-6.701,36.205,3.063
14:11:12:661,9.156,-0.009,0.001,0.005,-6.723,36.205,3.061
14:11:12:687,9.182,-0.012,0.001,0.004,-6.741,36.185,3.062
14:11:12:829,9.324,-0.012,0.002,0.003,-6.749,36.146,3.070
14:11:12:829,9.324,-0.003,0.000,0.002,-6.768,36.094,3.078
14:11:12:829,9.324,-0.017,0.002,0.004,-6.780,36.064,3.089
14:11:12:83,9.325,-0.008,0.001,0.006,-6.800,36.009,3.108
14:11:12:85,9.345,-0.014,0.001,-0.001,-6.828,35.957,3.110
14:11:12:871,9.366,-0.011,0.002,-0.007,-6.871,35.886,3.120
14:11:12:928,9.424,-0.007,0.004,0.006,-6.889,35.883,3.121
14:11:12:928,9.424,-0.015,0.000,0.001,-6.918,35.881,3.120
14:11:13:037,9.532,-0.007,0.000,0.005,-6.940,35.880,3.118
14:11:13:038,9.533,-0.013,0.000,0.001,-6.950,35.888,3.105
14:11:13:038,9.533,-0.013,-0.001,0.007,-6.986,35.906,3.086
14:11:13:039,9.534,-0.016,0.002,0.003,-7.002,35.912,3.082
14:11:13:054,9.549,-0.011,0.002,0.008,-7.030,35.888,3.065
14:11:13:083,9.578,-0.012,0.006,0.001,-7.051,35.865,3.064
14:11:13:108,9.604,-0.005,0.000,0.001,-7.083,35.853,3.068
14:11:13:221,9.716,-0.010,-0.001,0.001,-7.112,35.851,3.067
14:11:13:222,9.717,-0.012,-0.002,0.004,-7.129,35.848,3.067
14:11:13:222,9.717,-0.012,0.005,0.006,-7.154,35.843,3.069
14:11:13:223,9.718,-0.009,0.000,0.003,-7.172,35.845,3.070
14:11:13:239,9.734,-0.014,0.000,-0.001,-7.194,35.845,3.067
14:11:13:265,9.760,-0.011,0.001,0.005,-7.219,35.840,3.069
14:11:13:291,9.786,-0.011,0.002,0.005,-7.230,35.844,3.068
14:11:13:404,9.899,-0.006,0.001,-0.002,-7.254,35.839,3.070
14:11:13:405,9.900,-0.009,0.001,0.006,-7.273,35.841,3.070
14:11:13:406,9.901,-0.011,0.001,0.005,-7.294,35.849,3.067
14:11:13:407,9.902,-0.015,0.001,0.005,-7.308,35.848,3.070
14:11:13:422,9.917,-0.012,0.004,0.002,-7.337,35.846,3.069
14:11:13:449,9.944,-0.008,0.000,0.002,-7.373,35.845,3.070
14:11:13:475,9.970,-0.010,0.002,0.000,-7.398,35.840,3.072
14:11:13:501,9.996,-0.014,0.001,0.008,-7.421,35.839,3.063
14:11:13:527,10.022,-0.016,0.004,0.001,-7.442,35.836,3.050
14:11:13:581,10.076,-0.005,0.002,-0.002,-7.485,35.836,3.016
14:11:13:612,10.107,-0.011,0.003,-0.004,-7.526,35.837,2.989
14:11:13:612,10.107,-0.012,-0.002,0.004,-7.552,35.831,2.966
14:11:13:613,10.108,-0.012,0.001,-0.008,-7.595,35.825,2.933
14:11:13:661,10.157,-0.008,-0.001,-0.001,-7.615,35.806,2.921
14:11:13:662,10.157,-0.013,0.000,-0.003,-7.648,35.793,2.900
14:11:13:799,10.294,-0.008,0.005,0.005,-7.664,35.771,2.891
14:11:13:8,10.295,-0.012,0.002,-0.003,-7.692,35.738,2.875
14:11:13:801,10.296,-0.006,0.000,-0.003,-7.718,35.732,2.852
14:11:13:801,10.296,-0.014,0.002,-0.009,-7.729,35.728,2.851
14:11:13:819,10.314,-0.006,0.000,0.000,-7.729,35.728,2.851
14:11:13:819,10.315,-0.015,0.002,0.003,-7.742,35.731,2.843
14:11:13:871,10.366,-0.007,0.001,0.000,-7.751,35.727,2.849
14:11:13:872,10.367,-0.011,-0.001,-0.001,-7.756,35.730,2.846
14:11:14:01,10.506,-0.015,0.003,0.006,-7.756,35.730,2.846
14:11:14:01,10.506,-0.004,0.001,-0.002,-7.756,35.730,2.846
14:11:14:01,10.506,-0.012,0.002,-0.003,-7.760,35.727,2.843
14:11:14:011,10.507,-0.012,0.001,0.000,-7.760,35.727,2.843
14:11:14:029,10.524,-0.015,0.002,0.003,-7.760,35.727,2.843
14:11:14:029,10.525,-0.012,0.002,-0.005,-7.760,35.727,2.843
14:11:14:052,10.547,-0.007,0.003,0.000,-7.760,35.727,2.843
14:11:14:078,10.573,-0.011,0.000,-0.005,-7.760,35.727,2.843
14:11:14:105,10.600,-0.015,0.001,0.003,-7.760,35.727,2.843
14:11:14:19,10.685,-0.014,0.001,0.001,-7.760,35.727,2.843
14:11:14:19,10.685,-0.012,0.004,-0.001,-7.760,35.727,2.843
14:11:14:191,10.686,-0.013,0.002,-0.003,-7.760,35.727,2.843
14:11:14:21,10.705,-0.016,0.003,-0.002,-7.760,35.727,2.843
14:11:14:236,10.731,-0.013,0.001,0.001,-7.764,35.730,2.840
14:11:14:377,10.873,-0.011,0.005,-0.011,-7.764,35.730,2.840
14:11:14:377,10.873,-0.011,0.000,-0.003,-7.764,35.730,2.840
14:11:14:378,10.873,-0.020,0.003,-0.007,-7.764,35.730,2.840
14:11:14:379,10.874,-0.013,0.001,-0.003,-7.764,35.730,2.840
14:11:14:398,10.893,-0.017,0.002,-0.008,-7.764,35.730,2.840
14:11:14:398,10.893,-0.012,0.002,-0.003,-7.764,35.730,2.840
14:11:14:42,10.915,-0.019,0.003,-0.007,-7.764,35.730,2.840
14:11:14:476,10.971,-0.011,-0.002,-0.006,-7.775,35.726,2.840
14:11:14:476,10.971,-0.017,0.000,-0.014,-7.797,35.726,2.837
14:11:14:5,10.995,-0.013,0.000,0.001,-7.804,35.727,2.838
14:11:14:583,11.078,-0.015,0.002,-0.009,-7.804,35.727,2.838
14:11:14:583,11.079,-0.015,0.002,-0.002,-7.804,35.732,2.838
14:11:14:584,11.080,-0.014,0.000,-0.007,-7.804,35.732,2.838
14:11:14:603,11.099,-0.015,0.001,0.001,-7.825,35.744,2.824
14:11:14:631,11.127,-0.027,0.001,0.001,-7.844,35.773,2.804
14:11:14:744,11.239,-0.014,0.002,-0.004,-7.885,35.817,2.781
14:11:14:745,11.240,-0.015,0.005,-0.009,-7.931,35.817,2.734
14:11:14:746,11.241,-0.004,0.002,-0.006,-7.951,35.817,2.685
14:11:14:746,11.241,-0.004,0.002,-0.016,-7.999,35.820,2.630
14:11:14:761,11.256,-0.011,0.002,-0.018,-8.012,35.817,2.616
14:11:14:787,11.283,-0.012,0.002,-0.010,-8.034,35.816,2.613
14:11:14:815,11.310,-0.016,0.002,0.000,-8.043,35.811,2.626
14:11:14:84,11.335,-0.016,-0.002,-0.003,-8.048,35.788,2.636
14:11:14:98,11.475,-0.008,0.000,-0.006,-8.060,35.752,2.642
14:11:14:981,11.476,-0.015,0.002,-0.006,-8.063,35.734,2.647
14:11:14:982,11.477,-0.013,0.001,-0.010,-8.067,35.697,2.658
14:11:14:982,11.478,-0.013,0.000,-0.007,-8.082,35.684,2.673
14:11:14:997,11.493,-0.013,0.002,-0.006,-8.092,35.684,2.714
14:11:15:026,11.521,-0.010,0.000,-0.004,-8.105,35.659,2.755
14:11:15:027,11.522,-0.012,0.002,-0.007,-8.099,35.631,2.795
14:11:15:051,11.546,-0.009,0.002,-0.009,-8.088,35.585,2.846
14:11:15:076,11.571,-0.015,0.000,-0.013,-8.072,35.554,2.888
14:11:15:162,11.658,-0.014,0.000,-0.004,-8.043,35.514,2.956
14:11:15:162,11.658,-0.017,0.003,-0.013,-8.020,35.467,3.027
14:11:15:162,11.658,-0.009,0.002,-0.009,-8.004,35.436,3.069
14:11:15:182,11.678,-0.012,0.002,-0.015,-7.972,35.392,3.133
14:11:15:208,11.703,-0.007,0.001,-0.005,-7.944,35.372,3.182
14:11:15:235,11.730,-0.018,0.003,-0.009,-7.910,35.324,3.271
14:11:15:261,11.756,-0.008,0.002,-0.009,-7.885,35.287,3.337
14:11:15:344,11.840,-0.013,0.000,-0.012,-7.843,35.239,3.431
14:11:15:345,11.840,-0.006,-0.001,-0.003,-7.807,35.205,3.533
14:11:15:346,11.841,-0.014,0.000,-0.008,-7.771,35.172,3.599
14:11:15:365,11.860,-0.013,0.001,-0.004,-7.740,35.108,3.705
14:11:15:392,11.887,-0.007,-0.004,-0.007,-7.717,35.053,3.776
14:11:15:417,11.912,-0.010,0.001,-0.001,-7.693,34.969,3.884
14:11:15:443,11.938,-0.012,0.002,-0.006,-7.669,34.835,4.000
14:11:15:47,11.965,-0.006,0.000,-0.003,-7.651,34.723,4.075
14:11:15:555,12.051,-0.010,0.001,-0.002,-7.645,34.549,4.187
14:11:15:555,12.051,-0.006,-0.004,0.005,-7.642,34.390,4.267
14:11:15:555,12.051,-0.021,0.003,-0.012,-7.666,34.173,4.385
14:11:15:576,12.071,-0.020,0.004,-0.003,-7.680,34.073,4.475
14:11:15:601,12.096,-0.007,0.000,-0.014,-7.677,33.922,4.572
14:11:15:708,12.203,-0.018,0.006,-0.009,-7.677,33.815,4.659
14:11:15:742,12.238,-0.020,-0.001,-0.008,-7.688,33.776,4.701
14:11:15:742,12.238,-0.017,0.000,-0.005,-7.699,33.754,4.730
14:11:15:743,12.238,-0.012,0.002,-0.004,-7.713,33.753,4.733
14:11:15:744,12.239,-0.009,0.000,-0.008,-7.723,33.755,4.739
14:11:15:791,12.286,-0.015,0.001,-0.006,-7.734,33.759,4.738
14:11:15:791,12.286,-0.007,0.001,-0.010,-7.739,33.755,4.729
14:11:15:792,12.287,-0.002,-0.003,-0.006,-7.751,33.806,4.713
14:11:15:842,12.337,-0.010,0.000,-0.011,-7.761,33.842,4.706
14:11:15:842,12.337,-0.009,0.002,-0.007,-7.768,33.883,4.693
14:11:15:951,12.446,-0.009,0.003,-0.013,-7.772,33.906,4.678
14:11:15:952,12.447,-0.009,0.002,-0.002,-7.781,34.008,4.651
14:11:15:953,12.448,-0.019,-0.004,-0.007,-7.786,34.109,4.637
14:11:15:954,12.449,-0.005,0.000,-0.009,-7.782,34.137,4.609
14:11:15:97,12.465,-0.013,0.003,-0.012,-7.775,34.187,4.564
14:11:15:997,12.492,-0.005,-0.002,-0.005,-7.776,34.240,4.531
14:11:16:051,12.546,-0.006,0.007,-0.011,-7.788,34.314,4.485
14:11:16:052,12.547,-0.005,0.003,-0.012,-7.797,34.371,4.436
14:11:16:133,12.628,-0.015,0.001,-0.015,-7.814,34.419,4.412
14:11:16:133,12.628,-0.011,0.002,-0.003,-7.804,34.502,4.367
14:11:16:133,12.629,-0.008,0.001,-0.008,-7.790,34.542,4.332
14:11:16:153,12.648,-0.008,0.001,-0.003,-7.794,34.571,4.270
14:11:16:179,12.674,0.002,-0.001,-0.014,-7.797,34.574,4.220
14:11:16:205,12.700,-0.008,0.001,-0.008,-7.811,34.616,4.156
14:11:16:318,12.814,-0.003,0.004,-0.010,-7.824,34.683,4.103
14:11:16:319,12.814,-0.005,0.001,-0.006,-7.830,34.714,4.081
14:11:16:32,12.815,0.000,-0.003,-0.012,-7.840,34.766,4.036
14:11:16:32,12.816,-0.005,-0.003,-0.005,-7.850,34.810,4.028
14:11:16:338,12.833,-0.006,0.003,-0.010,-7.860,34.860,4.019
14:11:16:364,12.859,-0.007,0.004,-0.013,-7.871,34.892,4.022
14:11:16:417,12.912,-0.010,0.003,-0.008,-7.880,34.906,4.016
14:11:16:418,12.913,-0.007,0.001,-0.010,-7.887,34.935,4.016
14:11:16:441,12.937,-0.003,-0.002,-0.017,-7.901,34.960,4.006
14:11:16:496,12.992,-0.008,0.004,-0.006,-7.909,35.002,4.005
14:11:16:524,13.019,-0.003,0.001,-0.011,-7.921,35.020,4.003
14:11:16:524,13.019,-0.012,0.002,-0.010,-7.934,35.048,4.010
14:11:16:546,13.041,-0.003,-0.003,-0.004,-7.951,35.056,4.017
14:11:16:574,13.069,-0.011,0.002,-0.005,-7.958,35.071,4.018
14:11:16:629,13.124,-0.005,0.001,-0.006,-7.965,35.077,4.019
14:11:16:629,13.124,-0.011,0.003,-0.015,-7.958,35.071,4.018
14:11:16:681,13.176,-0.005,0.002,-0.006,-7.952,35.078,4.016
14:11:16:682,13.177,-0.009,0.002,-0.013,-7.937,35.094,4.018
14:11:16:704,13.199,-0.003,0.000,-0.008,-7.923,35.094,4.015
14:11:16:73,13.225,-0.010,0.001,-0.012,-7.917,35.102,4.013
14:11:16:757,13.252,-0.008,-0.001,-0.009,-7.902,35.117,4.016
14:11:16:782,13.277,-0.009,0.001,-0.016,-7.893,35.143,4.008
14:11:16:808,13.303,-0.004,0.000,-0.008,-7.894,35.156,4.008
14:11:16:895,13.390,-0.011,0.001,-0.018,-7.894,35.156,4.008
14:11:16:895,13.390,-0.004,0.001,-0.006,-7.878,35.158,4.011
14:11:16:895,13.390,-0.010,0.003,-0.011,-7.873,35.159,4.003
14:11:16:915,13.410,-0.005,0.001,-0.006,-7.873,35.159,4.003
14:11:16:941,13.436,-0.006,-0.001,-0.011,-7.865,35.159,4.008
14:11:16:967,13.462,-0.004,0.002,-0.006,-7.840,35.164,4.006
14:11:16:993,13.488,-0.006,0.004,-0.014,-7.840,35.164,4.006
14:11:17:019,13.514,-0.003,-0.003,-0.011,-7.840,35.164,4.006
14:11:17:045,13.541,-0.007,-0.001,-0.009,-7.822,35.162,4.005
14:11:17:071,13.566,-0.004,0.002,-0.006,-7.807,35.161,4.009
14:11:17:097,13.592,-0.009,0.002,-0.006,-7.786,35.163,4.005
14:11:17:124,13.619,-0.003,0.001,-0.008,-7.786,35.163,4.005
14:11:17:15,13.645,-0.004,0.000,-0.011,-7.775,35.168,4.005
14:11:17:178,13.673,-0.007,0.002,-0.011,-7.753,35.169,4.008
14:11:17:204,13.699,-0.009,0.001,-0.008,-7.735,35.158,4.008
14:11:17:29,13.785,-0.006,0.002,-0.009,-7.715,35.166,4.003
14:11:17:29,13.785,-0.006,-0.001,-0.010,-7.702,35.163,4.011
14:11:17:291,13.786,-0.005,0.001,-0.007,-7.677,35.168,4.009
14:11:17:307,13.802,-0.010,0.001,-0.007,-7.653,35.165,4.007
14:11:17:334,13.829,-0.007,0.003,-0.015,-7.642,35.170,4.008
14:11:17:362,13.857,-0.006,0.002,-0.012,-7.617,35.175,4.006
14:11:17:387,13.882,-0.007,0.002,-0.008,-7.599,35.173,4.005
14:11:17:412,13.908,-0.007,0.001,-0.007,-7.577,35.174,4.008
14:11:17:498,13.993,-0.007,0.003,-0.018,-7.573,35.176,4.010
14:11:17:498,13.993,-0.006,0.000,-0.010,-7.573,35.176,4.010
14:11:17:498,13.993,-0.012,-0.001,-0.014,-7.559,35.185,4.006
14:11:17:518,14.013,-0.010,0.002,-0.005,-7.542,35.197,4.005
14:11:17:544,14.039,-0.007,0.002,-0.018,-7.539,35.193,4.001
14:11:17:597,14.092,-0.011,-0.001,-0.011,-7.534,35.197,4.011
14:11:17:683,14.178,-0.011,0.002,-0.015,-7.522,35.196,4.030
14:11:17:684,14.179,-0.013,0.002,-0.006,-7.509,35.197,4.027
14:11:17:685,14.180,-0.005,0.002,-0.018,-7.509,35.197,4.027
14:11:17:686,14.181,-0.010,0.000,-0.008,-7.509,35.197,4.027
14:11:17:702,14.197,-0.015,0.003,-0.010,-7.509,35.197,4.027
14:11:17:727,14.222,-0.008,0.002,-0.008,-7.511,35.178,4.032
14:11:17:753,14.249,-0.009,0.002,-0.015,-7.511,35.178,4.032
14:11:17:78,14.275,-0.006,0.001,-0.009,-7.511,35.178,4.032
14:11:17:893,14.388,-0.010,0.001,-0.010,-7.511,35.178,4.032
14:11:17:894,14.389,-0.007,0.003,-0.010,-7.506,35.167,4.035
14:11:17:895,14.390,-0.006,0.001,-0.012,-7.510,35.156,4.034
14:11:17:896,14.391,-0.010,0.002,-0.010,-7.506,35.167,4.035
14:11:17:913,14.408,-0.009,0.003,-0.013,-7.511,35.178,4.032
14:11:17:938,14.434,-0.010,0.001,-0.007,-7.497,35.179,4.029
14:11:17:963,14.459,-0.011,0.000,-0.012,-7.498,35.193,4.028
14:11:17:99,14.485,-0.003,0.003,-0.016,-7.482,35.220,4.019
14:11:18:074,14.569,-0.008,0.000,-0.015,-7.466,35.248,4.010
14:11:18:075,14.570,-0.008,0.002,-0.011,-7.443,35.294,4.005
14:11:18:076,14.571,-0.004,0.000,-0.014,-7.424,35.346,3.997
14:11:18:095,14.590,-0.008,0.002,-0.013,-7.407,35.380,3.995
14:11:18:122,14.618,-0.007,0.003,-0.013,-7.375,35.433,3.984
14:11:18:15,14.645,-0.006,0.000,-0.009,-7.354,35.469,3.984
14:11:18:151,14.646,-0.009,0.001,-0.012,-7.339,35.510,3.974
14:11:18:261,14.756,-0.012,0.001,-0.018,-7.322,35.519,3.955
14:11:18:262,14.757,-0.006,0.002,-0.015,-7.302,35.532,3.932
14:11:18:263,14.758,-0.016,0.003,-0.009,-7.279,35.564,3.903
14:11:18:264,14.759,-0.001,0.001,-0.018,-7.266,35.570,3.882
14:11:18:28,14.775,-0.010,0.003,-0.020,-7.263,35.579,3.859
14:11:18:306,14.801,-0.006,0.001,-0.014,-7.242,35.599,3.843
14:11:18:332,14.827,-0.012,0.005,-0.018,-7.223,35.634,3.818
14:11:18:358,14.853,-0.006,-0.001,-0.013,-7.210,35.673,3.777
14:11:18:471,14.967,-0.011,0.001,-0.022,-7.208,35.697,3.753
14:11:18:472,14.967,-0.006,0.000,-0.012,-7.188,35.710,3.730
14:11:18:473,14.968,-0.010,0.002,-0.019,-7.175,35.729,3.708
14:11:18:473,14.968,0.000,0.001,-0.015,-7.158,35.772,3.676
14:11:18:489,14.985,-0.007,-0.001,-0.020,-7.151,35.793,3.655
14:11:18:515,15.010,-0.004,0.000,-0.018,-7.146,35.793,3.647
14:11:18:597,15.092,-0.012,0.003,-0.016,-7.125,35.801,3.642
14:11:18:598,15.093,-0.008,0.001,-0.011,-7.115,35.819,3.642
14:11:18:652,15.147,-0.004,0.002,-0.022,-7.090,35.830,3.622
14:11:18:652,15.147,-0.002,0.000,-0.017,-7.087,35.832,3.625
14:11:18:653,15.148,-0.017,0.002,-0.011,-7.076,35.837,3.626
14:11:18:672,15.168,-0.007,0.002,-0.021,-7.076,35.837,3.626
14:11:18:698,15.194,-0.002,0.004,-0.023,-7.068,35.830,3.624
14:11:18:724,15.220,-0.003,0.001,-0.015,-7.054,35.837,3.628
14:11:18:857,15.353,-0.012,0.002,-0.011,-7.040,35.838,3.625
14:11:18:892,15.388,0.001,0.001,-0.018,-7.026,35.847,3.621
14:11:18:892,15.388,-0.007,-0.001,-0.016,-7.012,35.876,3.623
14:11:18:893,15.388,-0.006,0.002,-0.013,-6.988,35.912,3.637
14:11:18:896,15.391,-0.006,0.003,-0.015,-6.966,35.921,3.639
14:11:18:913,15.408,-0.005,0.001,-0.014,-6.949,35.924,3.639
14:11:18:913,15.408,-0.006,0.003,-0.017,-6.927,35.925,3.641
14:11:18:935,15.430,-0.012,0.001,-0.020,-6.913,35.925,3.638
14:11:18:963,15.458,-0.013,-0.001,-0.012,-6.870,35.928,3.636
14:11:19:045,15.541,-0.005,0.003,-0.026,-6.835,35.929,3.635
14:11:19:046,15.541,-0.005,0.000,-0.018,-6.816,35.927,3.635
14:11:19:047,15.542,-0.012,0.002,-0.026,-6.816,35.927,3.635
14:11:19:066,15.561,-0.002,0.005,-0.022,-6.813,35.930,3.638
14:11:19:092,15.587,-0.009,0.000,-0.022,-6.788,35.935,3.636
14:11:19:119,15.614,-0.011,0.000,-0.015,-6.774,35.936,3.633
14:11:19:232,15.728,-0.012,0.002,-0.021,-6.752,35.922,3.636
14:11:19:233,15.728,-0.006,0.000,-0.017,-6.724,35.910,3.631
14:11:19:234,15.729,-0.012,0.003,-0.025,-6.705,35.911,3.619
14:11:19:234,15.730,0.001,0.001,-0.021,-6.674,35.917,3.609
14:11:19:25,15.745,-0.007,0.002,-0.020,-6.650,35.914,3.608
14:11:19:276,15.771,-0.007,0.002,-0.015,-6.612,35.916,3.614
14:11:19:303,15.798,-0.013,0.003,-0.019,-6.587,35.919,3.619
14:11:19:33,15.825,-0.008,0.001,-0.009,-6.557,35.921,3.619
14:11:19:355,15.850,-0.006,0.006,-0.024,-6.544,35.922,3.616
14:11:19:409,15.904,-0.003,0.000,-0.021,-6.544,35.922,3.616
14:11:19:436,15.932,-0.010,0.002,-0.029,-6.574,35.921,3.609
14:11:19:46,15.955,-0.006,0.002,-0.022,-6.608,35.935,3.586
14:11:19:487,15.982,-0.010,0.000,-0.019,-6.620,35.941,3.596
14:11:19:599,16.095,-0.012,0.003,-0.021,-6.636,35.943,3.610
14:11:19:6,16.096,-0.005,-0.002,-0.019,-6.640,35.954,3.606
14:11:19:601,16.096,-0.005,0.003,-0.017,-6.662,35.975,3.603
14:11:19:602,16.097,-0.011,-0.003,-0.013,-6.648,36.047,3.609
14:11:19:617,16.113,-0.006,0.002,-0.017,-6.639,36.118,3.624
14:11:19:645,16.140,-0.005,0.005,-0.021,-6.655,36.175,3.624
14:11:19:67,16.165,-0.010,-0.002,-0.013,-6.677,36.188,3.621
14:11:19:725,16.220,-0.003,0.000,-0.017,-6.692,36.181,3.617
14:11:19:726,16.221,-0.005,0.002,-0.017,-6.713,36.159,3.616
14:11:19:807,16.302,-0.008,0.004,-0.022,-6.727,36.158,3.619
14:11:19:807,16.303,-0.004,0.002,-0.013,-6.755,36.191,3.630
14:11:19:808,16.304,-0.007,0.001,-0.017,-6.773,36.204,3.647
14:11:19:827,16.322,-0.008,0.001,-0.015,-6.785,36.210,3.656
14:11:19:854,16.349,-0.014,0.003,-0.016,-6.804,36.204,3.686
14:11:19:88,16.375,-0.004,0.001,-0.013,-6.820,36.205,3.700
14:11:19:906,16.401,-0.009,0.002,-0.019,-6.832,36.197,3.710
14:11:19:932,16.427,-0.009,0.001,-0.012,-6.844,36.200,3.702
14:11:19:986,16.482,-0.013,0.002,-0.015,-6.865,36.192,3.707
14:11:20:015,16.510,-0.002,0.000,-0.018,-6.886,36.170,3.706
14:11:20:015,16.510,-0.012,0.001,-0.017,-6.901,36.154,3.703
14:11:20:038,16.533,-0.008,0.004,-0.011,-6.920,36.114,3.727
14:11:20:065,16.560,-0.006,0.001,-0.014,-6.926,36.079,3.749
14:11:20:091,16.586,-0.006,0.003,-0.013,-6.940,36.019,3.777
14:11:20:205,16.700,-0.008,0.000,-0.016,-6.952,35.964,3.801
14:11:20:205,16.700,-0.005,0.001,-0.011,-6.949,35.946,3.798
14:11:20:206,16.701,-0.009,0.003,-0.012,-6.964,35.934,3.813
14:11:20:207,16.702,0.000,0.003,-0.004,-6.968,35.911,3.823
14:11:20:221,16.716,-0.006,0.002,-0.020,-6.982,35.868,3.821
14:11:20:247,16.742,-0.008,-0.001,-0.012,-6.989,35.852,3.824
14:11:20:274,16.769,-0.010,0.002,-0.014,-7.010,35.838,3.822
14:11:20:3,16.795,-0.008,0.003,-0.011,-7.023,35.835,3.832
14:11:20:329,16.825,-0.007,0.002,-0.015,-7.031,35.836,3.827
14:11:20:33,16.826,-0.005,0.002,-0.009,-7.048,35.810,3.829
14:11:20:411,16.906,-0.003,0.003,-0.013,-7.055,35.788,3.825
14:11:20:411,16.906,-0.007,0.000,-0.010,-7.060,35.799,3.821
14:11:20:412,16.907,-0.006,0.001,-0.010,-7.054,35.828,3.818
14:11:20:463,16.958,-0.006,0.003,-0.009,-7.060,35.821,3.820
14:11:20:463,16.958,-0.007,0.000,-0.008,-7.069,35.821,3.815
14:11:20:626,17.121,-0.010,0.001,-0.014,-7.079,35.823,3.820
14:11:20:626,17.121,-0.006,0.002,-0.014,-7.087,35.823,3.815
14:11:20:627,17.122,-0.009,0.001,-0.016,-7.087,35.823,3.815
14:11:20:627,17.122,-0.004,0.005,-0.011,-7.087,35.823,3.815
14:11:20:647,17.142,-0.008,0.002,-0.016,-7.087,35.832,3.814
14:11:20:647,17.142,-0.009,0.000,-0.007,-7.081,35.853,3.812
14:11:20:672,17.167,-0.014,0.002,-0.012,-7.082,35.866,3.811
14:11:20:672,17.167,-0.006,0.000,-0.008,-7.071,35.871,3.812
14:11:20:694,17.189,-0.012,0.002,-0.016,-7.057,35.872,3.809
14:11:20:809,17.304,-0.006,0.002,-0.009,-7.060,35.889,3.812
14:11:20:809,17.304,-0.010,0.002,-0.016,-7.057,35.894,3.807
14:11:20:809,17.304,-0.005,0.001,-0.011,-7.061,35.916,3.792
14:11:20:809,17.304,-0.004,0.002,-0.011,-7.060,35.942,3.780
14:11:20:856,17.351,-0.005,-0.001,-0.012,-7.066,35.989,3.774
14:11:20:856,17.352,-0.008,0.002,-0.015,-7.070,36.020,3.776
14:11:20:878,17.373,-0.002,0.001,-0.007,-7.063,36.027,3.774
14:11:20:904,17.399,-0.006,0.002,-0.017,-7.061,36.046,3.769
14:11:20:989,17.484,-0.001,0.001,-0.009,-7.062,36.068,3.768
14:11:20:989,17.484,-0.009,0.002,-0.013,-7.054,36.115,3.759
14:11:20:99,17.485,-0.008,0.001,-0.014,-7.057,36.133,3.762
14:11:21:009,17.504,-0.005,0.003,-0.019,-7.057,36.133,3.762
14:11:21:035,17.530,-0.007,0.002,-0.011,-7.057,36.133,3.762
14:11:21:061,17.556,-0.006,0.003,-0.015,-7.057,36.133,3.762
14:11:21:175,17.670,-0.007,0.004,-0.014,-7.057,36.133,3.762
14:11:21:175,17.670,-0.007,0.002,-0.017,-7.057,36.133,3.762
14:11:21:176,17.671,-0.006,0.002,-0.013,-7.057,36.133,3.762
14:11:21:177,17.672,-0.006,0.001,-0.010,-7.061,36.144,3.759
14:11:21:192,17.687,-0.001,0.001,-0.009,-7.049,36.180,3.754
14:11:21:22,17.715,-0.005,0.002,-0.016,-7.054,36.205,3.750
14:11:21:246,17.741,-0.004,-0.002,-0.017,-7.057,36.209,3.753
14:11:21:272,17.767,-0.005,0.001,-0.011,-7.057,36.209,3.753
14:11:21:385,17.881,-0.005,0.003,-0.022,-7.055,36.219,3.749
14:11:21:386,17.881,-0.003,0.001,-0.011,-7.054,36.227,3.748
14:11:21:386,17.882,-0.007,0.002,-0.022,-7.055,36.241,3.747
14:11:21:403,17.898,-0.007,0.003,-0.020,-7.055,36.241,3.747
14:11:21:431,17.926,-0.002,0.001,-0.012,-7.055,36.241,3.747
14:11:21:509,18.004,-0.008,0.002,-0.019,-7.056,36.263,3.746
14:11:21:57,18.065,-0.003,-0.001,-0.013,-7.056,36.277,3.745
14:11:21:57,18.065,-0.004,0.001,-0.023,-7.056,36.277,3.745
14:11:21:57,18.065,-0.004,-0.001,-0.012,-7.062,36.282,3.735
14:11:21:571,18.066,-0.003,0.004,-0.027,-7.059,36.278,3.731
14:11:21:586,18.082,-0.003,0.000,-0.016,-7.057,36.276,3.720
14:11:21:613,18.108,-0.006,0.002,-0.017,-7.060,36.271,3.725
14:11:21:64,18.136,-0.003,0.001,-0.016,-7.059,36.235,3.727
14:11:21:665,18.160,-0.008,0.001,-0.020,-7.055,36.204,3.725
14:11:21:747,18.242,-0.004,-0.001,-0.016,-7.053,36.180,3.715
14:11:21:775,18.270,-0.006,0.002,-0.020,-7.047,36.156,3.691
14:11:21:776,18.271,-0.002,0.002,-0.015,-7.045,36.131,3.681
14:11:21:777,18.272,-0.007,0.002,-0.021,-7.049,36.078,3.675
14:11:21:796,18.292,-0.008,0.000,-0.021,-7.057,36.036,3.665
14:11:21:824,18.319,0.000,0.001,-0.022,-7.072,35.978,3.658
14:11:21:849,18.344,-0.003,0.000,-0.018,-7.089,35.929,3.636
14:11:21:875,18.370,-0.005,0.002,-0.022,-7.098,35.901,3.626
14:11:21:961,18.456,0.000,-0.001,-0.027,-7.110,35.868,3.620
14:11:21:961,18.456,-0.004,0.002,-0.018,-7.135,35.868,3.604
14:11:21:961,18.456,-0.007,0.002,-0.020,-7.161,35.870,3.599
14:11:21:981,18.476,-0.001,0.000,-0.020,-7.184,35.871,3.589
14:11:22:007,18.502,-0.003,0.000,-0.016,-7.205,35.874,3.576
14:11:22:147,18.642,-0.002,0.002,-0.020,-7.237,35.873,3.561
14:11:22:147,18.642,-0.010,0.002,-0.025,-7.252,35.874,3.557
14:11:22:148,18.643,-0.004,0.001,-0.018,-7.284,35.895,3.541
14:11:22:149,18.644,-0.009,0.002,-0.026,-7.301,35.909,3.530
14:11:22:166,18.662,0.001,0.002,-0.020,-7.323,35.908,3.527
14:11:22:167,18.663,-0.005,0.002,-0.026,-7.347,35.918,3.535
14:11:22:19,18.686,0.001,0.001,-0.019,-7.368,35.915,3.540
14:11:22:216,18.711,-0.013,-0.001,-0.023,-7.388,35.930,3.543
14:11:22:269,18.764,-0.009,0.004,-0.021,-7.431,35.952,3.533
14:11:22:353,18.848,-0.003,0.002,-0.014,-7.450,35.956,3.526
14:11:22:354,18.849,-0.008,0.001,-0.023,-7.467,35.957,3.515
14:11:22:355,18.850,-0.006,-0.001,-0.015,-7.487,35.966,3.508
14:11:22:374,18.869,-0.011,0.000,-0.015,-7.497,35.970,3.506
14:11:22:4,18.895,-0.004,0.000,-0.014,-7.517,35.974,3.499
14:11:22:541,19.036,-0.011,0.001,-0.017,-7.542,35.974,3.501
14:11:22:541,19.036,-0.002,0.001,-0.016,-7.563,35.989,3.505
14:11:22:542,19.037,-0.008,0.002,-0.018,-7.583,36.023,3.514
14:11:22:543,19.038,-0.001,0.001,-0.019,-7.594,36.035,3.530
14:11:22:562,19.058,-0.013,0.002,-0.016,-7.614,36.029,3.559
14:11:22:562,19.058,-0.005,0.002,-0.015,-7.627,36.031,3.580
14:11:22:584,19.080,-0.010,-0.001,-0.014,-7.648,36.032,3.602
14:11:22:61,19.105,-0.009,0.002,-0.016,-7.663,36.033,3.616
14:11:22:751,19.246,-0.004,-0.001,-0.016,-7.682,36.037,3.609
14:11:22:751,19.247,-0.002,-0.002,-0.016,-7.693,36.033,3.608
14:11:22:752,19.247,0.001,0.004,-0.015,-7.710,36.033,3.597
14:11:22:753,19.248,0.000,-0.001,-0.015,-7.725,36.034,3.611
14:11:22:775,19.270,-0.008,0.002,-0.011,-7.727,36.039,3.640
14:11:22:775,19.271,-0.007,0.004,-0.011,-7.731,36.031,3.656
14:11:22:775,19.271,-0.004,0.002,-0.014,-7.740,36.019,3.662
14:11:22:795,19.291,-0.008,0.004,-0.023,-7.754,36.019,3.665
14:11:22:821,19.316,-0.002,-0.001,-0.015,-7.766,36.021,3.657
14:11:22:93,19.425,-0.007,-0.001,-0.006,-7.793,36.027,3.669
14:11:22:931,19.426,-0.011,0.001,-0.008,-7.798,36.003,3.708
14:11:22:932,19.427,-0.001,0.005,-0.012,-7.799,35.969,3.721
14:11:22:951,19.447,-0.010,0.003,-0.017,-7.801,35.951,3.727
14:11:23:006,19.502,-0.006,0.001,-0.011,-7.787,35.952,3.724
14:11:23:007,19.502,-0.004,0.001,-0.022,-7.763,35.923,3.735
14:11:23:118,19.613,0.004,0.007,-0.014,-7.737,35.889,3.771
14:11:23:118,19.613,-0.004,0.004,-0.019,-7.720,35.870,3.801
14:11:23:119,19.614,-0.012,-0.002,-0.001,-7.674,35.875,3.848
14:11:23:119,19.615,-0.007,0.002,-0.011,-7.654,35.869,3.844
14:11:23:135,19.630,-0.004,0.000,-0.010,-7.649,35.850,3.830
14:11:23:161,19.656,-0.002,0.006,-0.022,-7.649,35.855,3.812
14:11:23:187,19.683,0.001,0.000,-0.017,-7.632,35.881,3.810
14:11:23:214,19.709,-0.004,0.001,-0.023,-7.609,35.896,3.818
14:11:23:242,19.737,0.001,0.001,-0.018,-7.592,35.891,3.847
14:11:23:294,19.789,-0.009,0.000,-0.012,-7.561,35.861,3.911
14:11:23:321,19.817,-0.006,0.002,-0.008,-7.543,35.831,3.959
14:11:23:322,19.818,-0.010,0.002,-0.007,-7.509,35.786,4.012
14:11:23:346,19.842,-0.006,0.002,-0.012,-7.479,35.714,4.047
14:11:23:372,19.868,-0.009,0.002,-0.019,-7.466,35.689,4.057
14:11:23:512,20.007,-0.006,-0.004,-0.013,-7.502,35.660,4.124
14:11:23:512,20.008,0.002,0.003,-0.012,-7.526,35.601,4.159
14:11:23:513,20.009,0.002,0.001,-0.010,-7.561,35.510,4.169
14:11:23:514,20.009,0.000,0.001,-0.017,-7.581,35.477,4.158
14:11:23:532,20.028,-0.001,0.004,-0.014,-7.589,35.477,4.153
14:11:23:533,20.028,-0.001,0.002,-0.017,-7.606,35.477,4.142
14:11:23:555,20.050,-0.001,0.001,-0.017,-7.614,35.477,4.137
14:11:23:584,20.079,-0.020,0.004,-0.016,-7.627,35.488,4.128
14:11:23:608,20.103,-0.005,0.002,-0.012,-7.637,35.488,4.169
14:11:23:692,20.187,-0.002,0.001,-0.010,-7.645,35.460,4.213
14:11:23:693,20.188,-0.009,0.002,-0.017,-7.655,35.457,4.237
14:11:23:693,20.189,-0.001,0.001,-0.012,-7.663,35.457,4.231
14:11:23:712,20.208,-0.011,0.004,-0.017,-7.667,35.454,4.229
14:11:23:739,20.234,-0.006,0.002,-0.009,-7.675,35.471,4.240
14:11:23:767,20.262,-0.003,0.003,-0.012,-7.688,35.516,4.236
14:11:23:792,20.287,0.003,0.002,-0.009,-7.700,35.590,4.219
14:11:23:817,20.312,-0.007,0.004,-0.019,-7.711,35.639,4.210
14:11:23:844,20.339,-0.001,0.001,-0.017,-7.710,35.693,4.202
14:11:23:901,20.397,-0.007,0.005,-0.018,-7.701,35.727,4.194
14:11:23:902,20.397,-0.007,0.001,-0.013,-7.693,35.801,4.173
14:11:23:922,20.418,-0.006,0.001,-0.009,-7.675,35.838,4.159
14:11:23:949,20.444,-0.005,0.003,-0.004,-7.655,35.883,4.158
14:11:23:975,20.470,-0.006,0.002,-0.013,-7.641,35.937,4.123
14:11:24:058,20.553,-0.006,0.000,-0.011,-7.635,35.963,4.102
14:11:24:058,20.554,-0.008,0.002,-0.015,-7.616,35.998,4.077
14:11:24:083,20.579,0.002,0.000,-0.013,-7.603,36.018,4.055
14:11:24:084,20.579,-0.006,0.001,-0.014,-7.591,36.060,4.031
14:11:24:106,20.601,-0.004,0.004,-0.010,-7.571,36.090,4.025
14:11:24:134,20.629,-0.002,0.001,-0.013,-7.557,36.125,4.009
14:11:24:161,20.656,0.002,-0.001,-0.018,-7.565,36.169,3.971
14:11:24:185,20.680,-0.005,0.000,-0.017,-7.568,36.204,3.944
14:11:24:211,20.706,-0.001,0.001,-0.014,-7.561,36.237,3.930
14:11:24:294,20.789,0.001,0.005,-0.010,-7.552,36.263,3.923
14:11:24:295,20.790,-0.002,0.001,-0.012,-7.534,36.308,3.908
14:11:24:319,20.814,-0.004,0.001,-0.012,-7.527,36.349,3.893
14:11:24:32,20.815,-0.002,0.001,-0.009,-7.512,36.390,3.883
14:11:24:344,20.839,-0.005,-0.001,-0.011,-7.500,36.441,3.877
14:11:24:398,20.893,-0.006,0.002,-0.014,-7.484,36.468,3.868
14:11:24:399,20.894,0.002,0.001,-0.014,-7.469,36.501,3.859
14:11:24:449,20.944,-0.007,0.003,-0.017,-7.447,36.549,3.848
14:11:24:478,20.973,-0.002,0.001,-0.012,-7.429,36.569,3.846
14:11:24:478,20.973,-0.007,0.002,-0.020,-7.402,36.590,3.846
14:11:24:5,20.995,-0.002,0.003,-0.013,-7.384,36.610,3.844
14:11:24:526,21.021,-0.002,0.004,-0.020,-7.358,36.648,3.836
14:11:24:553,21.048,-0.005,0.001,-0.013,-7.338,36.678,3.830
14:11:24:662,21.157,-0.008,0.002,-0.018,-7.310,36.707,3.829
14:11:24:692,21.187,0.004,0.002,-0.010,-7.286,36.726,3.826
14:11:24:693,21.188,-0.003,0.002,-0.020,-7.275,36.731,3.827
14:11:24:694,21.189,-0.004,0.001,-0.012,-7.251,36.758,3.824
14:11:24:695,21.190,-0.002,0.001,-0.016,-7.238,36.772,3.820
14:11:24:712,21.207,0.000,0.000,-0.011,-7.214,36.799,3.817
14:11:24:737,21.232,-0.009,0.002,-0.015,-7.198,36.813,3.827
14:11:24:762,21.257,-0.005,0.000,-0.010,-7.190,36.813,3.833
14:11:24:789,21.284,-0.007,0.002,-0.016,-7.181,36.813,3.838
14:11:24:85,21.345,-0.004,0.001,-0.013,-7.181,36.813,3.838
14:11:24:85,21.345,-0.005,0.001,-0.020,-7.181,36.813,3.838
14:11:24:851,21.346,-0.001,0.000,-0.013,-7.181,36.813,3.838
14:11:24:898,21.393,-0.006,0.002,-0.015,-7.179,36.817,3.833
14:11:24:898,21.393,-0.006,0.002,-0.017,-7.179,36.817,3.833
14:11:24:95,21.445,-0.008,0.002,-0.016,-7.179,36.817,3.833
14:11:24:95,21.445,0.001,0.002,-0.014,-7.172,36.825,3.832
14:11:24:972,21.468,-0.003,-0.001,-0.014,-7.168,36.827,3.834
14:11:25:057,21.552,-0.003,0.000,-0.013,-7.168,36.827,3.834
14:11:25:058,21.553,-0.002,0.002,-0.017,-7.168,36.827,3.834
14:11:25:059,21.554,-0.007,-0.001,-0.009,-7.168,36.836,3.834
14:11:25:078,21.573,-0.002,0.001,-0.015,-7.168,36.836,3.834
14:11:25:106,21.601,-0.001,0.001,-0.014,-7.168,36.836,3.834
14:11:25:131,21.626,-0.002,0.001,-0.016,-7.168,36.836,3.834
14:11:25:156,21.652,-0.011,0.002,-0.021,-7.168,36.836,3.834
14:11:25:182,21.678,0.000,0.002,-0.016,-7.168,36.836,3.834
14:11:25:267,21.762,-0.008,0.001,-0.022,-7.170,36.843,3.826
14:11:25:268,21.763,-0.002,0.002,-0.016,-7.176,36.861,3.816
14:11:25:269,21.764,-0.010,0.002,-0.021,-7.174,36.880,3.810
14:11:25:287,21.782,-0.003,0.002,-0.016,-7.178,36.891,3.807
14:11:25:314,21.809,-0.006,0.001,-0.024,-7.174,36.902,3.809
14:11:25:454,21.949,-0.003,0.001,-0.015,-7.174,36.902,3.809
14:11:25:455,21.950,-0.010,0.002,-0.022,-7.174,36.902,3.809
14:11:25:456,21.951,0.000,0.001,-0.017,-7.174,36.902,3.809
14:11:25:457,21.952,-0.007,0.000,-0.025,-7.174,36.902,3.809
14:11:25:475,21.970,0.000,0.000,-0.021,-7.174,36.902,3.809
14:11:25:475,21.970,-0.003,0.003,-0.022,-7.187,36.904,3.801
14:11:25:501,21.996,-0.002,0.000,-0.020,-7.219,36.911,3.785
14:11:25:524,22.019,-0.005,0.001,-0.023,-7.244,36.911,3.769
14:11:25:55,22.045,0.000,0.001,-0.016,-7.260,36.912,3.758
14:11:25:635,22.130,-0.003,0.002,-0.023,-7.288,36.929,3.745
14:11:25:636,22.131,-0.002,0.002,-0.022,-7.303,36.936,3.740
14:11:25:637,22.132,-0.007,0.000,-0.022,-7.335,36.943,3.725
14:11:25:655,22.150,0.000,-0.001,-0.021,-7.356,36.946,3.711
14:11:25:682,22.177,0.000,0.001,-0.020,-7.372,36.946,3.700
14:11:25:709,22.205,-0.007,0.002,-0.021,-7.397,36.946,3.684
14:11:25:735,22.230,-0.007,0.002,-0.021,-7.416,36.950,3.677
14:11:25:76,22.256,0.000,0.000,-0.019,-7.448,36.949,3.662
14:11:25:846,22.341,-0.002,0.002,-0.018,-7.459,36.953,3.660
14:11:25:846,22.341,-0.002,-0.001,-0.017,-7.480,36.956,3.647
14:11:25:846,22.341,0.003,0.001,-0.021,-7.505,36.956,3.630
14:11:25:866,22.361,-0.001,0.001,-0.018,-7.521,36.956,3.619
14:11:25:892,22.387,-0.004,0.001,-0.015,-7.542,36.959,3.606
14:11:25:918,22.413,-0.006,0.002,-0.025,-7.556,36.938,3.603
14:11:26:031,22.527,-0.001,0.001,-0.021,-7.583,36.920,3.592
14:11:26:032,22.527,-0.004,0.002,-0.024,-7.603,36.909,3.579
14:11:26:032,22.528,0.000,0.001,-0.017,-7.619,36.888,3.569
14:11:26:033,22.529,0.000,0.003,-0.026,-7.639,36.863,3.557
14:11:26:05,22.545,0.002,0.001,-0.021,-7.660,36.866,3.544
14:11:26:076,22.571,-0.006,0.003,-0.026,-7.684,36.866,3.527
14:11:26:102,22.597,-0.001,0.003,-0.018,-7.705,36.869,3.513
14:11:26:127,22.622,-0.003,0.002,-0.027,-7.727,36.869,3.511
14:11:26:154,22.649,0.000,0.001,-0.021,-7.748,36.875,3.515
14:11:26:238,22.733,-0.008,0.003,-0.025,-7.769,36.881,3.519
14:11:26:239,22.734,-0.001,0.002,-0.021,-7.793,36.882,3.527
14:11:26:24,22.735,-0.004,0.002,-0.022,-7.820,36.881,3.533
14:11:26:259,22.754,0.004,0.004,-0.019,-7.846,36.864,3.546
14:11:26:285,22.780,-0.007,0.001,-0.017,-7.880,36.869,3.553
14:11:26:367,22.863,0.000,0.001,-0.019,-7.894,36.869,3.556
14:11:26:368,22.864,-0.002,0.001,-0.027,-7.948,36.870,3.556
14:11:26:423,22.918,0.000,0.001,-0.019,-7.961,36.876,3.566
14:11:26:423,22.918,-0.002,0.002,-0.018,-7.985,36.874,3.585
14:11:26:424,22.919,0.001,0.001,-0.021,-7.995,36.876,3.591
14:11:26:443,22.938,-0.003,0.002,-0.027,-8.045,36.874,3.594
14:11:26:5,22.995,-0.002,0.002,-0.021,-8.071,36.876,3.588
14:11:26:5,22.995,-0.001,0.002,-0.024,-8.095,36.883,3.578
14:11:26:628,23.123,-0.004,0.002,-0.024,-8.121,36.885,3.573
14:11:26:664,23.159,-0.001,0.001,-0.019,-8.148,36.884,3.579
14:11:26:664,23.159,0.001,0.001,-0.019,-8.169,36.890,3.583
14:11:26:664,23.159,-0.002,0.003,-0.017,-8.197,36.889,3.588
14:11:26:665,23.160,0.002,0.003,-0.017,-8.207,36.891,3.594
14:11:26:682,23.177,-0.001,0.002,-0.019,-8.233,36.896,3.606
14:11:26:683,23.178,-0.007,0.003,-0.024,-8.247,36.895,3.609
14:11:26:706,23.201,0.000,0.004,-0.020,-8.270,36.897,3.617
14:11:26:732,23.227,-0.001,0.001,-0.024,-8.279,36.900,3.629
14:11:26:758,23.253,-0.003,0.001,-0.018,-8.300,36.897,3.634
14:11:26:811,23.306,-0.007,0.000,-0.025,-8.323,36.893,3.642
14:11:26:841,23.336,0.004,-0.001,-0.018,-8.343,36.877,3.648
14:11:26:841,23.336,-0.004,0.003,-0.027,-8.362,36.867,3.660
14:11:26:863,23.358,0.002,0.001,-0.017,-8.379,36.870,3.667
14:11:26:889,23.384,-0.003,0.003,-0.024,-8.402,36.872,3.675
14:11:27:003,23.499,0.006,0.001,-0.019,-8.424,36.874,3.690
14:11:27:004,23.499,-0.001,0.001,-0.027,-8.434,36.876,3.695
14:11:27:005,23.500,-0.001,0.001,-0.015,-8.455,36.876,3.718
14:11:27:006,23.501,0.005,0.000,-0.020,-8.463,36.879,3.730
14:11:27:02,23.515,0.001,0.002,-0.017,-8.484,36.880,3.752
14:11:27:049,23.544,-0.001,0.001,-0.022,-8.503,36.885,3.770
14:11:27:05,23.545,-0.001,0.003,-0.014,-8.518,36.889,3.801
14:11:27:074,23.569,0.000,0.002,-0.017,-8.539,36.889,3.823
14:11:27:13,23.625,0.003,0.001,-0.020,-8.550,36.888,3.840
14:11:27:131,23.626,0.000,0.002,-0.021,-8.565,36.895,3.860
14:11:27:212,23.707,0.001,0.001,-0.011,-8.565,36.898,3.878
14:11:27:212,23.707,-0.001,0.003,-0.020,-8.570,36.892,3.904
14:11:27:212,23.707,0.001,0.001,-0.018,-8.578,36.895,3.917
14:11:27:259,23.754,0.001,0.002,-0.021,-8.580,36.897,3.928
14:11:27:26,23.755,0.002,0.001,-0.014,-8.569,36.896,3.947
14:11:27:397,23.892,0.003,0.002,-0.015,-8.567,36.895,3.961
14:11:27:398,23.893,0.007,0.000,-0.016,-8.564,36.894,3.974
14:11:27:399,23.894,0.000,0.001,-0.017,-8.569,36.893,3.983
14:11:27:447,23.942,0.002,0.002,-0.015,-8.557,36.882,3.992
14:11:27:447,23.942,0.008,0.000,-0.017,-8.562,36.867,4.001
14:11:27:447,23.942,0.003,0.000,-0.019,-8.573,36.837,4.013
14:11:27:466,23.961,0.002,0.002,-0.020,-8.561,36.826,4.022
14:11:27:607,24.102,0.004,0.001,-0.014,-8.566,36.825,4.030
14:11:27:607,24.102,0.002,0.001,-0.023,-8.574,36.806,4.044
14:11:27:608,24.103,0.004,0.001,-0.020,-8.583,36.794,4.051
14:11:27:609,24.104,-0.002,0.003,-0.022,-8.597,36.793,4.054
14:11:27:627,24.122,0.001,0.002,-0.014,-8.609,36.799,4.063
14:11:27:627,24.122,-0.001,0.004,-0.021,-8.620,36.794,4.062
14:11:27:65,24.145,0.003,0.001,-0.013,-8.630,36.802,4.049
14:11:27:676,24.172,0.001,0.001,-0.021,-8.647,36.802,4.038
14:11:27:79,24.285,0.005,0.002,-0.013,-8.655,36.802,4.033
14:11:27:791,24.286,-0.001,0.003,-0.019,-8.658,36.803,4.019
14:11:27:791,24.286,0.008,0.002,-0.014,-8.674,36.803,4.008
14:11:27:792,24.287,-0.001,-0.001,-0.015,-8.679,36.808,3.998
14:11:27:808,24.303,0.003,0.002,-0.008,-8.692,36.811,3.990
14:11:27:835,24.330,0.006,0.003,-0.020,-8.698,36.807,3.981
14:11:27:974,24.469,0.004,0.001,-0.015,-8.703,36.812,3.971
14:11:27:975,24.470,0.001,0.000,-0.013,-8.719,36.812,3.960
14:11:27:976,24.471,0.001,0.003,-0.010,-8.724,36.815,3.957
14:11:27:977,24.472,0.002,0.005,-0.016,-8.733,36.817,3.944
14:11:27:996,24.491,0.002,0.003,-0.014,-8.735,36.816,3.938
14:11:27:996,24.491,0.000,0.002,-0.019,-8.751,36.816,3.927
14:11:28:018,24.513,0.002,-0.001,-0.013,-8.746,36.817,3.918
14:11:28:044,24.539,-0.001,0.004,-0.009,-8.740,36.826,3.909
14:11:28:1,24.595,0.006,0.003,-0.017,-8.748,36.827,3.904
14:11:28:101,24.596,0.001,0.003,-0.013,-8.758,36.834,3.891
14:11:28:181,24.676,0.004,0.000,-0.009,-8.764,36.830,3.882
14:11:28:182,24.677,-0.002,0.002,-0.007,-8.772,36.831,3.876
14:11:28:183,24.678,0.004,0.004,-0.012,-8.774,36.838,3.869
14:11:28:231,24.726,0.007,0.001,-0.014,-8.786,36.835,3.861
14:11:28:232,24.727,-0.002,0.002,-0.018,-8.790,36.838,3.858
14:11:28:368,24.864,-0.002,0.001,-0.008,-8.799,36.832,3.846
14:11:28:369,24.864,-0.002,0.004,-0.016,-8.804,36.835,3.843
14:11:28:369,24.865,0.004,0.000,-0.012,-8.809,36.840,3.833
14:11:28:37,24.866,0.000,0.001,-0.016,-8.817,36.840,3.828
14:11:28:389,24.884,0.004,0.000,-0.010,-8.821,36.837,3.825
14:11:28:389,24.884,-0.004,0.002,-0.016,-8.829,36.837,3.819
14:11:28:412,24.907,0.006,0.000,-0.013,-8.831,36.836,3.813
14:11:28:439,24.934,0.005,0.001,-0.019,-8.839,36.836,3.807
14:11:28:606,25.101,0.003,0.000,-0.008,-8.845,36.841,3.797
14:11:28:606,25.101,-0.004,0.001,-0.009,-8.850,36.837,3.788
14:11:28:606,25.102,0.007,0.003,-0.005,-8.853,36.844,3.756
14:11:28:607,25.103,0.006,0.003,-0.017,-8.856,36.842,3.725
14:11:28:628,25.123,0.006,0.000,-0.016,-8.871,36.860,3.683
14:11:28:629,25.124,0.004,-0.001,-0.007,-8.873,36.887,3.656
14:11:28:629,25.124,0.003,0.000,-0.003,-8.875,36.914,3.630
14:11:28:678,25.173,0.001,0.003,-0.018,-8.883,36.925,3.587
14:11:28:678,25.173,0.006,0.001,-0.013,-8.900,36.945,3.557
14:11:28:7,25.195,-0.003,-0.001,-0.008,-8.916,36.968,3.516
14:11:28:755,25.251,-0.002,0.000,-0.002,-8.929,36.978,3.482
14:11:28:756,25.252,0.000,0.005,-0.015,-8.958,36.985,3.426
14:11:28:78,25.275,0.003,0.000,-0.009,-8.990,37.008,3.374
14:11:28:805,25.300,0.000,0.000,-0.009,-9.038,37.024,3.293
14:11:28:832,25.327,-0.010,0.003,-0.013,-9.087,37.031,3.188
14:11:28:946,25.441,0.005,0.001,-0.014,-9.121,37.026,3.106
14:11:28:947,25.442,0.000,0.000,-0.010,-9.177,37.023,2.986
14:11:28:947,25.442,-0.001,0.001,-0.004,-9.218,36.996,2.900
14:11:28:947,25.442,0.001,0.002,-0.008,-9.283,36.931,2.765
14:11:28:963,25.458,0.009,0.001,-0.015,-9.350,36.859,2.642
14:11:28:989,25.484,0.003,0.001,-0.012,-9.394,36.822,2.561
14:11:29:044,25.539,-0.005,-0.002,-0.011,-9.453,36.764,2.443
14:11:29:045,25.540,0.001,0.003,-0.022,-9.493,36.716,2.366
14:11:29:068,25.563,0.011,0.001,-0.021,-9.555,36.663,2.251
14:11:29:155,25.650,-0.004,0.003,-0.016,-9.628,36.616,2.152
14:11:29:156,25.651,-0.006,0.002,-0.004,-9.671,36.583,2.085
14:11:29:157,25.652,0.006,0.004,-0.015,-9.732,36.525,1.996
14:11:29:157,25.652,0.003,-0.002,-0.010,-9.777,36.497,1.932
14:11:29:202,25.697,0.005,0.000,-0.022,-9.848,36.463,1.846
14:11:29:203,25.698,-0.002,0.006,-0.005,-9.894,36.445,1.793
14:11:29:252,25.748,-0.005,0.004,-0.015,-9.976,36.444,1.728
14:11:29:341,25.836,0.012,0.000,-0.010,-10.061,36.446,1.642
14:11:29:341,25.836,0.000,0.000,-0.017,-10.114,36.441,1.596
14:11:29:341,25.836,0.000,0.002,-0.006,-10.208,36.438,1.523
14:11:29:341,25.836,0.001,0.007,-0.012,-10.275,36.466,1.459
14:11:29:356,25.851,0.003,0.001,-0.008,-10.382,36.544,1.352
14:11:29:383,25.878,-0.005,0.002,-0.006,-10.493,36.612,1.244
14:11:29:411,25.907,-0.004,0.004,-0.005,-10.569,36.657,1.166
14:11:29:549,26.044,0.002,0.007,-0.014,-10.698,36.725,1.039
14:11:29:55,26.045,0.004,-0.003,-0.013,-10.782,36.775,0.944
14:11:29:551,26.046,-0.005,0.001,-0.012,-10.913,36.853,0.802
14:11:29:552,26.047,0.005,0.004,-0.017,-10.994,36.888,0.722
14:11:29:569,26.064,0.008,0.005,-0.021,-11.111,36.948,0.597
14:11:29:57,26.065,0.002,0.003,-0.010,-11.223,37.002,0.482
14:11:29:595,26.091,0.002,0.004,-0.011,-11.294,37.043,0.414
14:11:29:619,26.114,0.004,0.002,-0.009,-11.414,37.124,0.308
14:11:29:645,26.140,0.003,-0.001,-0.016,-11.491,37.172,0.240
14:11:29:674,26.169,0.004,0.001,-0.011,-11.589,37.230,0.139
14:11:29:729,26.224,0.004,0.003,-0.010,-11.688,37.296,0.055
14:11:29:729,26.224,0.008,0.003,-0.014,-11.748,37.330,0.000
14:11:29:75,26.245,-0.002,0.001,-0.011,-11.856,37.379,-0.077
14:11:29:776,26.271,-0.007,0.011,-0.009,-11.907,37.418,-0.121
14:11:29:803,26.298,0.013,0.011,-0.012,-12.002,37.478,-0.191
14:11:29:945,26.440,-0.006,-0.001,-0.014,-12.073,37.528,-0.243
14:11:29:945,26.440,-0.012,-0.001,-0.008,-12.170,37.597,-0.310
14:11:29:945,26.440,0.006,0.004,-0.025,-12.264,37.633,-0.389
14:11:29:945,26.440,0.013,-0.008,-0.016,-12.326,37.655,-0.432
14:11:29:964,26.459,0.001,-0.008,-0.016,-12.421,37.651,-0.478
14:11:29:965,26.460,-0.006,0.011,-0.011,-12.471,37.612,-0.489
14:11:29:986,26.482,0.013,0.013,-0.018,-12.563,37.608,-0.502
14:11:30:042,26.537,0.008,0.002,-0.009,-12.649,37.648,-0.522
14:11:30:043,26.538,-0.011,0.005,-0.012,-12.707,37.689,-0.548
14:11:30:124,26.619,0.000,0.007,-0.005,-12.788,37.766,-0.605
14:11:30:125,26.620,0.007,0.006,-0.013,-12.844,37.805,-0.641
14:11:30:126,26.621,0.013,0.002,-0.014,-12.933,37.883,-0.704
14:11:30:144,26.639,-0.002,0.006,-0.010,-12.984,37.959,-0.753
14:11:30:311,26.806,0.001,0.012,-0.008,-13.050,38.087,-0.819
14:11:30:312,26.807,0.007,0.010,-0.017,-13.128,38.220,-0.887
14:11:30:312,26.807,0.002,0.003,-0.005,-13.174,38.321,-0.937
14:11:30:314,26.809,-0.005,0.003,-0.010,-13.248,38.457,-1.003
14:11:30:362,26.858,0.002,0.008,-0.011,-13.295,38.552,-1.059
14:11:30:363,26.859,-0.001,0.011,-0.012,-13.345,38.716,-1.143
14:11:30:364,26.860,-0.002,-0.002,-0.016,-13.397,38.881,-1.217
14:11:30:365,26.860,0.000,0.000,-0.020,-13.429,38.969,-1.268
14:11:30:381,26.876,-0.006,-0.004,-0.017,-13.460,39.100,-1.342
14:11:30:436,26.931,-0.008,0.000,-0.010,-13.471,39.165,-1.387
14:11:30:463,26.958,-0.008,0.001,-0.008,-13.486,39.207,-1.439
14:11:30:463,26.958,-0.006,0.006,-0.008,-13.489,39.207,-1.471
14:11:30:513,27.008,-0.010,0.008,0.001,-13.497,39.189,-1.511
14:11:30:54,27.035,-0.013,0.010,-0.004,-13.508,39.111,-1.539
14:11:30:541,27.036,0.014,0.001,-0.013,-13.511,39.051,-1.575
14:11:30:564,27.060,0.001,-0.005,-0.007,-13.518,39.007,-1.640
14:11:30:59,27.085,-0.006,0.012,-0.017,-13.523,38.981,-1.683
14:11:30:616,27.112,0.010,0.013,-0.014,-13.529,38.958,-1.744
14:11:30:643,27.138,0.001,-0.003,-0.020,-13.535,38.947,-1.795
14:11:30:699,27.194,0.003,-0.008,-0.017,-13.549,38.927,-1.819
14:11:30:7,27.195,0.000,0.014,-0.018,-13.562,38.903,-1.849
14:11:30:721,27.216,0.007,0.001,-0.010,-13.565,38.905,-1.863
14:11:30:747,27.243,-0.004,-0.005,-0.015,-13.569,38.908,-1.867
14:11:30:774,27.269,0.001,-0.005,-0.012,-13.576,38.899,-1.882
14:11:30:888,27.383,-0.004,0.004,-0.018,-13.589,38.875,-1.888
14:11:30:889,27.384,-0.003,0.000,-0.011,-13.607,38.842,-1.884
14:11:30:89,27.385,-0.003,-0.003,-0.017,-13.613,38.809,-1.883
14:11:30:906,27.401,-0.004,0.013,-0.011,-13.621,38.729,-1.872
14:11:30:931,27.427,0.004,0.004,-0.009,-13.613,38.677,-1.861
14:11:30:958,27.453,-0.004,0.002,-0.004,-13.587,38.653,-1.834
14:11:31:013,27.508,0.004,0.008,-0.007,-13.572,38.631,-1.827
14:11:31:014,27.509,0.003,0.005,-0.012,-13.549,38.609,-1.814
14:11:31:037,27.532,-0.006,0.006,-0.008,-13.531,38.597,-1.813
14:11:31:094,27.589,-0.007,0.006,-0.009,-13.495,38.591,-1.811
14:11:31:094,27.589,0.010,-0.001,-0.014,-13.473,38.590,-1.808
14:11:31:115,27.611,0.000,-0.005,-0.018,-13.441,38.550,-1.781
14:11:31:171,27.666,-0.009,-0.001,-0.009,-13.396,38.495,-1.726
14:11:31:171,27.667,0.018,0.021,0.006,-13.370,38.436,-1.677
14:11:31:281,27.776,0.016,0.001,-0.010,-13.323,38.377,-1.625
14:11:31:282,27.777,-0.003,0.003,-0.007,-13.303,38.329,-1.588
14:11:31:283,27.778,-0.006,0.005,-0.001,-13.265,38.244,-1.528
14:11:31:284,27.779,0.011,0.011,-0.004,-13.222,38.189,-1.480
14:11:31:299,27.794,0.014,0.004,0.002,-13.201,38.161,-1.463
14:11:31:326,27.821,0.003,0.000,-0.011,-13.170,38.118,-1.424
14:11:31:353,27.848,0.002,0.012,-0.016,-13.147,38.089,-1.393
14:11:31:378,27.873,0.007,0.002,-0.011,-13.098,38.089,-1.349
14:11:31:518,28.014,-0.005,-0.004,-0.014,-13.070,38.093,-1.318
14:11:31:519,28.015,0.011,0.003,-0.012,-13.034,38.061,-1.254
14:11:31:52,28.015,0.007,0.010,-0.015,-12.986,38.018,-1.186
14:11:31:521,28.016,0.000,0.003,-0.008,-12.950,38.002,-1.130
14:11:31:538,28.033,-0.004,0.005,-0.011,-12.900,37.971,-1.051
14:11:31:539,28.034,0.009,0.004,-0.007,-12.861,37.960,-1.000
14:11:31:563,28.058,0.004,0.008,-0.015,-12.797,37.996,-0.937
14:11:31:588,28.083,-0.012,0.001,-0.004,-12.733,38.071,-0.861
14:11:31:673,28.168,-0.014,0.002,-0.009,-12.678,38.109,-0.804
14:11:31:673,28.168,0.001,-0.002,-0.008,-12.599,38.140,-0.719
14:11:31:674,28.169,-0.012,-0.004,-0.017,-12.558,38.141,-0.655
14:11:31:696,28.191,-0.007,0.009,0.000,-12.477,38.099,-0.548
14:11:31:696,28.192,0.011,0.017,-0.004,-12.406,38.062,-0.471
14:11:31:721,28.216,-0.001,0.008,-0.004,-12.307,38.053,-0.368
14:11:31:879,28.375,-0.002,-0.003,-0.014,-12.213,38.028,-0.272
14:11:31:88,28.376,-0.003,0.005,-0.003,-12.145,38.007,-0.211
14:11:31:914,28.409,0.002,0.009,-0.008,-12.033,37.971,-0.115
14:11:31:914,28.409,0.005,0.004,-0.007,-11.958,37.944,-0.055
14:11:31:914,28.410,0.004,-0.008,-0.011,-11.856,37.881,0.050
14:11:31:914,28.410,-0.002,0.007,-0.002,-11.745,37.775,0.172
14:11:31:932,28.427,0.009,0.008,-0.008,-11.676,37.699,0.256
14:11:31:933,28.428,0.006,0.003,-0.002,-11.563,37.614,0.382
14:11:31:985,28.480,0.005,-0.005,-0.006,-11.494,37.532,0.466
14:11:31:985,28.480,0.007,0.006,-0.006,-11.381,37.431,0.575
14:11:32:066,28.561,0.008,0.001,-0.012,-11.310,37.390,0.644
14:11:32:066,28.562,0.005,-0.001,-0.009,-11.197,37.325,0.749
14:11:32:067,28.563,-0.006,0.002,0.004,-11.081,37.215,0.873
14:11:32:086,28.582,0.020,0.006,-0.006,-11.007,37.145,0.958
14:11:32:142,28.638,-0.001,0.007,-0.004,-10.903,37.067,1.077
14:11:32:143,28.638,-0.008,0.002,-0.010,-10.829,37.012,1.160
14:11:32:254,28.749,0.000,-0.001,-0.009,-10.717,36.913,1.279
14:11:32:255,28.750,0.006,0.003,-0.019,-10.603,36.822,1.404
14:11:32:255,28.750,0.009,-0.003,-0.014,-10.530,36.741,1.501
14:11:32:255,28.750,0.001,0.005,-0.016,-10.404,36.584,1.651
14:11:32:302,28.797,-0.002,0.004,-0.001,-10.311,36.491,1.755
14:11:32:302,28.797,0.010,0.004,-0.012,-10.180,36.402,1.907
14:11:32:463,28.958,0.008,0.001,-0.007,-10.094,36.353,2.015
14:11:32:464,28.959,0.001,0.001,-0.014,-9.958,36.254,2.171
14:11:32:465,28.960,0.006,0.004,-0.011,-9.824,36.162,2.320
14:11:32:466,28.961,0.007,0.001,-0.012,-9.732,36.128,2.418
14:11:32:488,28.983,0.002,0.003,-0.003,-9.603,36.088,2.576
14:11:32:488,28.983,0.004,0.000,-0.009,-9.513,36.036,2.680
14:11:32:488,28.983,0.000,0.005,-0.002,-9.381,35.941,2.832
14:11:32:508,29.003,0.012,0.009,-0.011,-9.257,35.881,2.964
14:11:32:644,29.139,0.008,0.001,-0.007,-9.184,35.872,3.035
14:11:32:645,29.140,0.011,-0.001,-0.008,-9.068,35.875,3.146
14:11:32:646,29.141,0.009,0.000,-0.009,-8.996,35.857,3.218
14:11:32:67,29.165,-0.021,0.005,0.022,-8.883,35.833,3.311
14:11:32:67,29.165,0.011,0.005,-0.009,-8.790,35.838,3.383
14:11:32:671,29.166,0.007,0.001,-0.010,-8.732,35.845,3.420
14:11:32:69,29.185,0.003,-0.001,-0.004,-8.660,35.851,3.490
14:11:32:716,29.212,0.003,0.000,-0.007,-8.610,35.830,3.542
14:11:32:833,29.328,0.008,0.000,-0.009,-8.537,35.791,3.615
14:11:32:833,29.328,-0.003,-0.003,0.007,-8.485,35.770,3.656
14:11:32:833,29.328,-0.025,0.007,0.028,-8.423,35.721,3.675
14:11:32:834,29.329,0.019,0.005,-0.012,-8.408,35.660,3.687
14:11:32:877,29.372,0.021,0.001,-0.016,-8.411,35.672,3.708
14:11:32:902,29.397,-0.001,0.000,-0.003,-8.372,35.746,3.748
14:11:32:927,29.422,0.009,0.003,-0.005,-8.372,35.780,3.734
14:11:32:952,29.448,0.005,0.003,-0.018,-8.375,35.781,3.720
14:11:33:058,29.553,0.007,0.001,-0.013,-8.366,35.781,3.726
14:11:33:114,29.609,0.010,0.001,-0.011,-8.363,35.763,3.723
14:11:33:114,29.610,-0.001,0.001,-0.013,-8.357,35.716,3.729
14:11:33:224,29.719,0.010,0.002,-0.005,-8.359,35.676,3.736
14:11:33:225,29.720,0.003,0.001,-0.007,-8.355,35.619,3.747
14:11:33:226,29.721,0.013,0.002,-0.009,-8.356,35.573,3.726
14:11:33:226,29.721,0.005,0.003,-0.010,-8.350,35.552,3.719
14:11:33:242,29.737,0.004,0.003,-0.002,-8.349,35.530,3.721
14:11:33:297,29.793,-0.002,0.002,-0.006,-8.352,35.513,3.719
14:11:33:298,29.794,0.010,0.001,-0.009,-8.352,35.513,3.719
14:11:33:32,29.816,0.007,-0.001,-0.010,-8.352,35.513,3.719
14:11:33:434,29.929,0.007,0.002,-0.009,-8.352,35.513,3.719
14:11:33:435,29.930,0.006,0.004,-0.007,-8.345,35.498,3.719
14:11:33:436,29.931,0.008,0.000,-0.006,-8.345,35.498,3.719
14:11:33:437,29.932,0.007,0.004,-0.009,-8.349,35.496,3.716
14:11:33:451,29.946,0.009,0.003,-0.010,-8.349,35.496,3.716
14:11:33:48,29.975,0.003,0.002,-0.008,-8.349,35.487,3.717
14:11:33:535,30.030,0.011,0.001,-0.009,-8.349,35.487,3.717
14:11:33:536,30.031,0.009,0.002,-0.007,-8.349,35.487,3.717
14:11:33:617,30.112,0.007,0.001,-0.007,-8.349,35.493,3.698
14:11:33:617,30.112,0.007,0.000,-0.011,-8.345,35.487,3.684
14:11:33:618,30.113,0.012,0.002,-0.011,-8.345,35.487,3.684
14:11:33:635,30.130,0.011,0.000,-0.008,-8.348,35.483,3.688
14:11:33:663,30.159,0.006,0.002,-0.005,-8.348,35.483,3.688
14:11:33:803,30.298,0.011,0.000,-0.008,-8.348,35.483,3.688
14:11:33:803,30.298,0.011,0.003,-0.015,-8.345,35.487,3.684
14:11:33:804,30.299,0.011,-0.001,-0.010,-8.345,35.487,3.684
14:11:33:804,30.299,0.009,0.001,-0.014,-8.351,35.484,3.674
14:11:33:825,30.320,0.009,0.003,-0.008,-8.349,35.473,3.664
14:11:33:825,30.320,0.005,0.000,-0.019,-8.347,35.475,3.642
14:11:33:826,30.321,0.011,0.001,-0.009,-8.345,35.473,3.631
14:11:33:846,30.341,0.007,0.002,-0.012,-8.348,35.474,3.617
14:11:33:872,30.368,0.012,-0.001,-0.015,-8.349,35.468,3.611
14:11:33:929,30.424,0.004,0.003,-0.017,-8.349,35.468,3.611
14:11:33:929,30.424,0.012,0.001,-0.008,-8.353,35.470,3.608
14:11:34:038,30.533,0.009,0.002,-0.016,-8.349,35.473,3.592
14:11:34:038,30.534,0.011,-0.001,-0.012,-8.349,35.470,3.575
14:11:34:039,30.535,0.008,0.000,-0.013,-8.352,35.471,3.561
14:11:34:04,30.536,0.010,0.005,-0.011,-8.349,35.454,3.558
14:11:34:197,30.692,0.011,0.003,-0.017,-8.346,35.442,3.537
14:11:34:197,30.692,0.017,0.001,-0.017,-8.355,35.427,3.526
14:11:34:197,30.692,0.010,0.001,-0.014,-8.364,35.432,3.502
14:11:34:198,30.693,0.005,0.001,-0.014,-8.358,35.433,3.494
14:11:34:219,30.714,0.006,0.004,-0.013,-8.370,35.422,3.487
14:11:34:22,30.715,0.009,0.004,-0.012,-8.373,35.423,3.473
14:11:34:221,30.716,0.009,-0.002,-0.015,-8.374,35.417,3.466
14:11:34:268,30.763,0.008,0.002,-0.019,-8.382,35.395,3.463
14:11:34:269,30.764,0.009,0.000,-0.017,-8.387,35.377,3.454
14:11:34:4,30.895,0.010,0.002,-0.009,-8.395,35.372,3.467
14:11:34:401,30.896,0.010,0.000,-0.011,-8.395,35.375,3.485
14:11:34:431,30.926,0.008,0.001,-0.010,-8.403,35.356,3.499
14:11:34:432,30.927,0.009,0.002,-0.012,-8.403,35.350,3.517
14:11:34:433,30.928,0.008,0.003,-0.013,-8.407,35.356,3.532
14:11:34:434,30.929,0.007,0.002,-0.007,-8.412,35.358,3.558
14:11:34:45,30.945,0.006,0.001,-0.019,-8.416,35.355,3.574
14:11:34:476,30.971,0.009,0.000,-0.011,-8.424,35.358,3.586
14:11:34:501,30.997,0.001,0.003,-0.014,-8.426,35.363,3.615
14:11:34:588,31.083,0.007,0.004,-0.011,-8.428,35.361,3.637
14:11:34:588,31.083,0.000,0.002,-0.018,-8.433,35.355,3.663
14:11:34:589,31.084,0.009,0.000,-0.010,-8.442,35.358,3.676
14:11:34:607,31.102,0.003,0.003,-0.017,-8.445,35.344,3.710
14:11:34:634,31.129,0.006,0.002,-0.011,-8.450,35.316,3.738
14:11:34:774,31.269,0.004,0.003,-0.016,-8.445,35.260,3.774
14:11:34:774,31.269,0.006,0.002,-0.007,-8.471,35.217,3.801
14:11:34:775,31.270,0.002,0.005,-0.019,-8.477,35.182,3.823
14:11:34:776,31.271,0.008,0.001,-0.010,-8.505,35.169,3.841
14:11:34:793,31.288,0.011,0.002,-0.017,-8.517,35.152,3.852
14:11:34:794,31.289,0.004,0.002,-0.012,-8.544,35.154,3.876
14:11:34:818,31.313,0.006,0.001,-0.012,-8.549,35.147,3.903
14:11:34:843,31.339,0.011,0.005,-0.013,-8.552,35.137,3.926
14:11:34:871,31.366,0.001,0.001,-0.016,-8.560,35.143,3.956
14:11:34:983,31.478,0.009,0.001,-0.012,-8.561,35.139,3.985
14:11:34:984,31.479,0.007,0.004,-0.014,-8.575,35.150,4.023
14:11:34:985,31.480,0.000,0.000,-0.008,-8.575,35.167,4.040
14:11:34:986,31.481,0.000,0.006,-0.013,-8.585,35.205,4.049
14:11:35:002,31.497,0.006,0.000,-0.009,-8.593,35.274,4.035
14:11:35:167,31.662,0.002,0.001,-0.005,-8.600,35.314,4.022
14:11:35:168,31.663,0.004,0.000,-0.007,-8.604,35.357,3.987
14:11:35:169,31.664,0.007,0.002,-0.012,-8.607,35.355,3.956
14:11:35:17,31.665,0.006,0.005,-0.009,-8.612,35.374,3.898
14:11:35:19,31.685,0.005,0.001,-0.006,-8.620,35.394,3.827
14:11:35:19,31.685,0.005,0.003,-0.004,-8.616,35.391,3.776
14:11:35:191,31.686,0.010,0.003,-0.013,-8.638,35.374,3.703
14:11:35:24,31.735,0.015,-0.001,-0.011,-8.656,35.345,3.663
14:11:35:24,31.735,0.002,0.003,-0.015,-8.692,35.253,3.621
14:11:35:379,31.874,0.007,0.003,-0.024,-8.714,35.185,3.600
14:11:35:379,31.874,0.009,-0.001,-0.017,-8.747,35.119,3.559
14:11:35:379,31.874,-0.003,0.001,-0.014,-8.769,35.059,3.536
14:11:35:38,31.875,-0.002,0.003,-0.007,-8.769,35.014,3.515
14:11:35:397,31.892,0.009,0.000,-0.016,-8.776,34.993,3.464
14:11:35:398,31.893,0.012,0.004,-0.014,-8.777,35.009,3.427
14:11:35:42,31.916,0.000,0.003,-0.016,-8.786,35.021,3.385
14:11:35:447,31.942,0.015,0.000,-0.015,-8.778,35.023,3.355
14:11:35:473,31.968,0.009,0.005,-0.019,-8.765,35.027,3.316
14:11:35:557,32.052,0.003,0.001,-0.009,-8.748,35.032,3.308
14:11:35:558,32.053,0.003,0.001,-0.017,-8.727,35.026,3.304
14:11:35:559,32.054,0.006,0.002,-0.001,-8.704,35.038,3.294
14:11:35:578,32.073,0.001,0.005,-0.015,-8.692,35.055,3.283
14:11:35:604,32.099,0.007,0.002,-0.016,-8.671,35.080,3.247
14:11:35:745,32.240,0.006,0.000,-0.014,-8.651,35.141,3.209
14:11:35:745,32.240,0.007,0.000,-0.010,-8.629,35.176,3.198
14:11:35:746,32.241,0.005,0.001,-0.010,-8.599,35.224,3.191
14:11:35:747,32.242,0.007,0.001,-0.011,-8.583,35.251,3.182
14:11:35:764,32.259,0.004,0.000,-0.012,-8.551,35.289,3.164
14:11:35:765,32.260,0.002,0.001,-0.009,-8.531,35.319,3.158
14:11:35:791,32.286,0.005,0.002,-0.008,-8.508,35.332,3.148
14:11:35:791,32.287,0.011,-0.001,-0.008,-8.499,35.344,3.141
14:11:35:843,32.338,0.013,0.004,-0.016,-8.507,35.344,3.136
14:11:35:844,32.339,0.011,0.002,-0.012,-8.510,35.345,3.122
14:11:35:867,32.362,-0.002,0.002,-0.005,-8.516,35.349,3.112
14:11:35:948,32.443,0.006,0.002,-0.006,-8.521,35.374,3.108
14:11:36:034,32.529,0.013,0.000,-0.010,-8.522,35.390,3.100
14:11:36:036,32.531,0.007,0.000,-0.007,-8.524,35.389,3.093
14:11:36:036,32.531,0.002,0.003,-0.008,-8.530,35.394,3.083
14:11:36:036,32.531,0.000,0.003,-0.011,-8.530,35.394,3.083
14:11:36:139,32.634,0.005,0.000,-0.007,-8.538,35.394,3.078
14:11:36:139,32.634,-0.002,0.003,-0.009,-8.532,35.395,3.069
14:11:36:14,32.635,0.005,0.002,-0.005,-8.527,35.396,3.061
14:11:36:141,32.636,0.003,0.003,-0.014,-8.527,35.396,3.061
14:11:36:189,32.684,0.008,0.003,-0.010,-8.533,35.400,3.051
14:11:36:189,32.685,0.003,0.005,-0.017,-8.523,35.404,3.045
14:11:36:189,32.685,0.006,0.004,-0.004,-8.511,35.401,3.053
14:11:36:237,32.732,0.005,0.004,-0.018,-8.497,35.401,3.050
14:11:36:238,32.733,0.011,0.001,-0.009,-8.491,35.405,3.060
14:11:36:319,32.814,0.003,0.003,-0.015,-8.485,35.407,3.076
14:11:36:32,32.815,0.006,0.000,-0.007,-8.466,35.427,3.099
14:11:36:321,32.816,0.008,0.001,-0.007,-8.449,35.427,3.109
14:11:36:339,32.834,0.006,0.001,-0.009,-8.440,35.430,3.132
14:11:36:365,32.861,0.002,0.001,-0.010,-8.442,35.432,3.143
14:11:36:45,32.945,0.011,0.003,-0.004,-8.433,35.434,3.166
14:11:36:451,32.946,0.009,0.001,-0.006,-8.417,35.434,3.177
14:11:36:452,32.947,0.011,-0.001,-0.010,-8.417,35.434,3.177
14:11:36:499,32.995,0.008,0.003,-0.011,-8.422,35.462,3.190
14:11:36:5,32.996,0.004,0.000,-0.004,-8.419,35.483,3.202
14:11:36:525,33.021,0.008,0.002,-0.007,-8.403,35.513,3.229
14:11:36:55,33.046,0.007,0.003,-0.011,-8.381,35.542,3.236
14:11:36:577,33.072,0.007,0.002,-0.011,-8.372,35.584,3.245
14:11:36:602,33.097,0.004,-0.001,-0.004,-8.363,35.641,3.260
14:11:36:716,33.211,0.008,0.004,-0.005,-8.344,35.660,3.265
14:11:36:717,33.212,0.009,0.000,-0.005,-8.327,35.693,3.262
14:11:36:717,33.213,0.005,0.000,-0.005,-8.320,35.700,3.260
14:11:36:718,33.214,0.004,0.002,-0.005,-8.299,35.703,3.256
14:11:36:735,33.230,0.004,0.003,0.000,-8.276,35.710,3.264
14:11:36:761,33.256,0.012,0.003,-0.007,-8.263,35.710,3.261
14:11:36:787,33.282,0.004,-0.002,-0.008,-8.262,35.713,3.279
14:11:36:953,33.448,0.000,0.002,-0.010,-8.249,35.708,3.294
14:11:36:954,33.449,0.005,0.001,-0.003,-8.229,35.713,3.300
14:11:36:955,33.450,0.002,0.003,-0.012,-8.229,35.713,3.300
14:11:36:956,33.451,0.009,0.002,-0.006,-8.226,35.695,3.298
14:11:37:111,33.606,0.005,0.003,-0.008,-8.224,35.666,3.307
14:11:37:111,33.606,0.005,0.001,-0.006,-8.223,35.652,3.307
14:11:37:112,33.607,0.002,0.002,-0.002,-8.222,35.616,3.310
14:11:37:112,33.607,0.013,0.001,-0.010,-8.225,35.611,3.315
14:11:37:137,33.632,-0.003,0.001,-0.011,-8.222,35.610,3.328
14:11:37:137,33.632,0.004,0.000,0.000,-8.224,35.615,3.357
14:11:37:138,33.633,0.002,0.002,-0.008,-8.224,35.610,3.375
14:11:37:139,33.634,0.011,0.001,-0.006,-8.225,35.615,3.404
14:11:37:157,33.652,0.006,0.000,-0.009,-8.222,35.614,3.418
14:11:37:157,33.652,0.009,-0.001,-0.006,-8.226,35.608,3.451
14:11:37:179,33.674,0.005,0.000,-0.010,-8.224,35.609,3.476
14:11:37:205,33.700,0.004,-0.002,-0.007,-8.221,35.595,3.490
14:11:37:315,33.810,0.005,0.003,-0.003,-8.222,35.583,3.502
14:11:37:315,33.810,0.001,0.005,-0.001,-8.222,35.583,3.502
14:11:37:342,33.837,0.011,0.005,-0.011,-8.222,35.574,3.503
14:11:37:343,33.838,0.011,0.002,-0.009,-8.217,35.550,3.507
14:11:37:344,33.839,0.002,0.002,-0.010,-8.234,35.524,3.510
14:11:37:363,33.858,0.000,0.000,-0.005,-8.229,35.499,3.514
14:11:37:418,33.914,0.005,0.005,-0.006,-8.228,35.477,3.516
14:11:37:419,33.914,0.009,0.000,-0.006,-8.226,35.434,3.525
14:11:37:5,33.995,0.004,0.000,-0.010,-8.224,35.398,3.528
14:11:37:501,33.996,-0.001,0.003,-0.006,-8.218,35.329,3.536
14:11:37:502,33.997,0.009,0.001,-0.007,-8.219,35.274,3.544
14:11:37:521,34.016,0.007,0.002,-0.008,-8.214,35.250,3.548
14:11:37:547,34.042,0.003,0.001,-0.004,-8.209,35.202,3.554
14:11:37:573,34.068,0.010,0.002,-0.007,-8.210,35.170,3.561
14:11:37:687,34.182,0.007,0.001,-0.009,-8.205,35.115,3.567
14:11:37:688,34.183,0.002,0.001,-0.016,-8.202,35.072,3.577
14:11:37:688,34.183,0.004,0.001,-0.005,-8.203,35.009,3.586
14:11:37:689,34.184,0.002,0.002,-0.013,-8.193,34.937,3.597
14:11:37:704,34.199,0.011,0.001,-0.007,-8.198,34.894,3.601
14:11:37:76,34.255,0.003,0.004,-0.014,-8.192,34.825,3.609
14:11:37:761,34.256,0.005,0.001,-0.011,-8.187,34.800,3.613
14:11:37:813,34.309,0.000,0.002,-0.014,-8.186,34.764,3.616
14:11:37:814,34.309,0.009,0.002,-0.012,-8.195,34.710,3.618
14:11:37:897,34.392,0.008,0.003,-0.021,-8.208,34.687,3.623
14:11:37:897,34.392,0.004,0.000,-0.008,-8.208,34.687,3.623
14:11:37:898,34.393,0.001,0.003,-0.010,-8.204,34.676,3.627
14:11:37:899,34.394,0.007,0.001,-0.009,-8.202,34.640,3.629
14:11:38:055,34.550,0.006,0.004,-0.017,-8.204,34.622,3.635
14:11:38:056,34.551,0.008,0.004,-0.013,-8.219,34.592,3.633
14:11:38:056,34.551,0.005,0.004,-0.015,-8.221,34.574,3.639
14:11:38:057,34.552,0.007,0.001,-0.011,-8.232,34.570,3.638
14:11:38:075,34.570,0.005,0.001,-0.012,-8.234,34.551,3.643
14:11:38:075,34.570,0.002,0.002,-0.012,-8.236,34.533,3.649
14:11:38:104,34.599,0.003,0.001,-0.014,-8.239,34.508,3.648
14:11:38:104,34.599,0.006,0.000,-0.010,-8.240,34.488,3.661
14:11:38:182,34.678,0.003,0.000,-0.011,-8.240,34.488,3.661
14:11:38:183,34.678,0.002,0.002,-0.015,-8.240,34.488,3.661
14:11:38:26,34.755,0.008,0.001,-0.015,-8.240,34.488,3.661
14:11:38:26,34.755,0.003,0.003,-0.012,-8.240,34.488,3.661
14:11:38:285,34.780,0.002,0.004,-0.006,-8.240,34.488,3.661
14:11:38:285,34.780,0.006,0.000,-0.011,-8.240,34.474,3.661
14:11:38:308,34.803,-0.001,0.001,-0.012,-8.251,34.470,3.661
14:11:38:334,34.830,0.005,0.003,-0.011,-8.251,34.470,3.661
14:11:38:363,34.858,0.001,0.001,-0.014,-8.246,34.445,3.665
14:11:38:388,34.883,0.001,0.004,-0.015,-8.250,34.434,3.663
14:11:38:442,34.937,0.004,0.001,-0.021,-8.268,34.436,3.664
14:11:38:443,34.938,0.004,0.001,-0.011,-8.274,34.437,3.665
14:11:38:466,34.961,-0.008,0.004,-0.014,-8.274,34.437,3.665
14:11:38:492,34.987,0.003,0.002,-0.014,-8.276,34.436,3.659
14:11:38:518,35.013,0.001,0.002,-0.022,-8.276,34.436,3.659
14:11:38:544,35.040,0.006,0.001,-0.014,-8.272,34.425,3.662
14:11:38:658,35.153,-0.003,0.003,-0.018,-8.270,34.389,3.665
14:11:38:659,35.154,0.002,0.004,-0.013,-8.268,34.365,3.655
14:11:38:66,35.155,-0.001,0.003,-0.020,-8.271,34.366,3.641
14:11:38:661,35.156,0.002,0.001,-0.011,-8.271,34.349,3.625
14:11:38:676,35.171,-0.001,0.002,-0.019,-8.264,34.326,3.607
14:11:38:704,35.199,0.001,0.002,-0.014,-8.263,34.321,3.578
14:11:38:787,35.283,0.004,-0.001,-0.017,-8.262,34.316,3.550
14:11:38:787,35.283,0.005,0.000,-0.013,-8.265,34.317,3.536
14:11:38:788,35.283,0.005,0.002,-0.020,-8.262,34.319,3.514
14:11:38:894,35.389,0.003,0.001,-0.013,-8.271,34.319,3.509
14:11:38:895,35.390,0.005,0.001,-0.017,-8.271,34.319,3.509
14:11:38:896,35.391,0.002,0.001,-0.018,-8.271,34.319,3.509
14:11:38:897,35.392,0.001,0.001,-0.018,-8.271,34.319,3.509
14:11:38:941,35.437,0.006,0.005,-0.016,-8.265,34.320,3.500
14:11:38:942,35.438,0.006,0.003,-0.018,-8.263,34.316,3.496
14:11:39:019,35.514,0.008,0.001,-0.015,-8.263,34.316,3.496
14:11:39:049,35.544,0.003,0.001,-0.017,-8.263,34.316,3.496
14:11:39:05,35.545,0.004,0.001,-0.014,-8.263,34.316,3.496
14:11:39:05,35.545,0.008,0.003,-0.015,-8.260,34.326,3.473
14:11:39:123,35.619,0.006,0.000,-0.015,-8.263,34.327,3.460
14:11:39:149,35.645,0.003,0.001,-0.018,-8.265,34.326,3.435
14:11:39:262,35.758,0.000,0.002,-0.019,-8.265,34.323,3.417
14:11:39:263,35.759,0.005,0.002,-0.018,-8.266,34.326,3.381
14:11:39:264,35.759,0.004,0.003,-0.026,-8.277,34.327,3.362
14:11:39:265,35.760,0.004,0.002,-0.017,-8.311,34.330,3.305
14:11:39:286,35.782,-0.003,0.002,-0.016,-8.326,34.329,3.255
14:11:39:286,35.782,0.003,0.002,-0.014,-8.341,34.331,3.222
14:11:39:286,35.782,-0.001,0.003,-0.023,-8.374,34.320,3.166
14:11:39:306,35.802,0.012,0.001,-0.024,-8.396,34.326,3.117
14:11:39:331,35.827,-0.003,-0.001,-0.021,-8.431,34.323,3.053
14:11:39:358,35.853,0.006,0.000,-0.014,-8.464,34.327,3.021
14:11:39:444,35.939,0.001,0.002,-0.021,-8.504,34.326,2.955
14:11:39:444,35.939,0.005,0.001,-0.018,-8.553,34.342,2.875
14:11:39:444,35.939,0.002,-0.001,-0.020,-8.582,34.349,2.827
14:11:39:464,35.960,0.005,0.001,-0.013,-8.622,34.349,2.761
14:11:39:49,35.986,0.004,0.003,-0.018,-8.658,34.351,2.726
14:11:39:63,36.125,0.000,-0.002,-0.015,-8.699,34.352,2.671
14:11:39:63,36.125,0.003,0.001,-0.014,-8.742,34.356,2.608
14:11:39:631,36.126,0.009,-0.001,-0.015,-8.762,34.355,2.566
14:11:39:632,36.127,0.001,0.002,-0.018,-8.818,34.355,2.490
14:11:39:649,36.145,0.002,0.001,-0.017,-8.852,34.362,2.450
14:11:39:65,36.146,-0.005,0.001,-0.010,-8.891,34.382,2.389
14:11:39:674,36.170,0.005,0.002,-0.021,-8.928,34.390,2.336
14:11:39:699,36.195,0.002,0.002,-0.020,-8.963,34.395,2.290
14:11:39:756,36.251,0.003,0.000,-0.015,-9.004,34.392,2.234
14:11:39:756,36.251,0.004,0.000,-0.007,-9.026,34.392,2.203
14:11:39:837,36.333,0.009,0.001,-0.016,-9.050,34.388,2.159
14:11:39:837,36.333,0.002,-0.002,-0.016,-9.096,34.398,2.111
14:11:39:838,36.333,-0.001,0.003,-0.012,-9.110,34.395,2.097
14:11:40:023,36.519,0.000,0.003,-0.008,-9.133,34.392,2.077
14:11:40:024,36.520,0.003,0.001,-0.022,-9.152,34.393,2.053
14:11:40:025,36.520,0.008,-0.003,-0.017,-9.189,34.396,2.018
14:11:40:026,36.521,-0.003,0.001,-0.020,-9.210,34.399,2.004
14:11:40:076,36.572,0.005,0.000,-0.010,-9.227,34.399,1.994
14:11:40:077,36.573,0.006,0.004,-0.020,-9.235,34.400,1.988
14:11:40:078,36.573,0.003,0.001,-0.014,-9.248,34.403,1.980
14:11:40:079,36.574,-0.001,-0.001,-0.020,-9.273,34.404,1.964
14:11:40:096,36.591,-0.001,0.001,-0.009,-9.281,34.404,1.959
14:11:40:097,36.592,0.001,0.006,-0.015,-9.292,34.400,1.958
14:11:40:121,36.616,0.008,0.001,-0.013,-9.299,34.376,1.944
14:11:40:234,36.729,-0.001,0.002,-0.021,-9.308,34.364,1.951
14:11:40:234,36.730,-0.003,0.002,-0.010,-9.321,34.344,1.973
14:11:40:235,36.730,-0.002,0.004,-0.013,-9.325,34.328,1.990
14:11:40:236,36.731,0.009,0.000,-0.013,-9.338,34.321,2.011
14:11:40:25,36.746,0.003,-0.001,-0.015,-9.338,34.324,2.029
14:11:40:28,36.775,0.002,0.001,-0.011,-9.348,34.295,2.066
14:11:40:281,36.776,0.001,0.002,-0.016,-9.349,34.273,2.108
14:11:40:305,36.800,0.003,0.002,-0.009,-9.343,34.257,2.137
14:11:40:33,36.825,0.003,-0.001,-0.013,-9.326,34.225,2.179
14:11:40:414,36.909,0.001,0.001,-0.008,-9.313,34.194,2.207
14:11:40:414,36.910,0.003,0.002,-0.016,-9.301,34.148,2.259
14:11:40:415,36.911,0.005,0.001,-0.014,-9.286,34.104,2.313
14:11:40:464,36.959,0.004,0.000,-0.015,-9.273,34.083,2.351
14:11:40:464,36.959,-0.001,0.001,-0.009,-9.250,34.035,2.422
14:11:40:601,37.097,0.000,-0.002,-0.007,-9.233,34.001,2.471
14:11:40:602,37.097,0.005,0.006,-0.012,-9.213,33.951,2.539
14:11:40:602,37.098,-0.002,0.001,-0.010,-9.195,33.925,2.587
14:11:40:603,37.099,0.002,0.003,-0.008,-9.173,33.865,2.670
14:11:40:621,37.117,0.006,0.000,-0.009,-9.152,33.797,2.728
14:11:40:621,37.117,0.003,0.001,-0.010,-9.145,33.753,2.777
14:11:40:644,37.139,0.001,0.002,0.002,-9.129,33.683,2.844
14:11:40:671,37.166,0.001,0.001,-0.011,-9.112,33.629,2.888
14:11:40:726,37.221,0.005,0.003,-0.016,-9.089,33.561,2.953
14:11:40:727,37.222,-0.003,-0.002,-0.017,-9.067,33.456,3.032
14:11:40:808,37.304,0.007,0.001,-0.014,-9.052,33.358,3.095
14:11:40:808,37.304,0.005,0.001,-0.018,-9.016,33.191,3.215
14:11:40:809,37.304,0.006,0.004,-0.010,-8.986,33.069,3.312
14:11:40:829,37.324,0.002,0.002,-0.012,-8.931,32.905,3.460
14:11:40:882,37.377,0.009,-0.001,-0.010,-8.897,32.807,3.558
14:11:40:996,37.492,-0.005,0.001,-0.007,-8.848,32.716,3.687
14:11:40:996,37.492,0.006,-0.002,-0.003,-8.815,32.651,3.792
14:11:40:996,37.492,0.004,0.004,-0.015,-8.802,32.600,3.862
14:11:40:997,37.493,0.012,-0.001,-0.007,-8.786,32.527,3.958
14:11:41:017,37.512,-0.001,0.004,-0.004,-8.778,32.500,4.023
14:11:41:017,37.512,0.002,0.003,-0.004,-8.778,32.455,4.113
14:11:41:038,37.534,0.004,0.003,-0.014,-8.778,32.403,4.186
14:11:41:066,37.561,0.004,0.004,-0.004,-8.777,32.388,4.234
14:11:41:091,37.586,0.003,0.002,-0.009,-8.773,32.385,4.283
14:11:41:17,37.665,0.011,0.003,-0.010,-8.774,32.389,4.312
14:11:41:201,37.697,-0.001,0.003,-0.010,-8.779,32.405,4.337
14:11:41:202,37.697,-0.002,0.002,-0.003,-8.780,32.435,4.353
14:11:41:203,37.698,0.001,0.004,-0.012,-8.786,32.483,4.347
14:11:41:221,37.717,0.004,0.000,-0.009,-8.785,32.523,4.339
14:11:41:251,37.746,0.003,0.000,-0.009,-8.792,32.564,4.327
14:11:41:276,37.771,0.004,0.004,-0.011,-8.794,32.622,4.322
14:11:41:301,37.796,0.006,0.005,-0.008,-8.797,32.651,4.313
14:11:41:385,37.880,0.006,0.000,-0.006,-8.798,32.705,4.280
14:11:41:386,37.881,0.007,0.000,-0.008,-8.803,32.747,4.245
14:11:41:387,37.882,0.001,0.001,-0.008,-8.802,32.763,4.222
14:11:41:405,37.901,0.008,0.000,-0.011,-8.807,32.805,4.187
14:11:41:431,37.927,0.006,0.001,-0.018,-8.807,32.837,4.156
14:11:41:458,37.953,0.011,-0.001,-0.009,-8.810,32.872,4.129
14:11:41:574,38.070,-0.003,0.005,-0.015,-8.812,32.900,4.108
14:11:41:574,38.070,0.005,0.002,-0.007,-8.813,32.945,4.076
14:11:41:574,38.070,0.001,0.003,-0.015,-8.816,32.986,4.030
14:11:41:575,38.070,0.006,-0.001,-0.008,-8.817,33.008,4.000
14:11:41:589,38.085,0.003,-0.002,-0.011,-8.821,33.037,3.966
14:11:41:643,38.138,0.006,0.002,-0.009,-8.820,33.053,3.943
14:11:41:671,38.166,0.003,0.006,-0.020,-8.829,33.081,3.917
14:11:41:672,38.167,0.008,0.000,-0.010,-8.840,33.110,3.903
14:11:41:696,38.191,0.000,0.001,-0.016,-8.837,33.135,3.904
14:11:41:779,38.274,0.006,-0.001,-0.007,-8.841,33.146,3.900
14:11:41:78,38.275,0.001,0.003,-0.017,-8.841,33.146,3.900
14:11:41:78,38.276,0.004,0.001,-0.011,-8.841,33.150,3.889
14:11:41:8,38.295,0.002,0.001,-0.015,-8.839,33.148,3.878
14:11:41:825,38.321,0.010,-0.001,-0.009,-8.843,33.155,3.846
14:11:41:851,38.347,0.003,0.002,-0.017,-8.841,33.148,3.825
14:11:41:964,38.459,0.007,-0.001,-0.013,-8.837,33.142,3.810
14:11:41:965,38.460,0.008,0.001,-0.017,-8.838,33.144,3.803
14:11:41:965,38.460,0.000,0.001,-0.007,-8.838,33.144,3.803
14:11:41:986,38.482,0.007,-0.002,-0.016,-8.839,33.129,3.797
14:11:41:987,38.482,0.008,0.001,-0.016,-8.841,33.123,3.791
14:11:42:009,38.505,0.001,0.002,-0.017,-8.841,33.123,3.791
14:11:42:035,38.531,0.006,0.000,-0.012,-8.822,33.099,3.792
14:11:42:062,38.557,0.006,0.002,-0.017,-8.818,33.101,3.794
14:11:42:175,38.671,0.008,0.000,-0.015,-8.818,33.101,3.794
14:11:42:176,38.671,0.007,0.000,-0.012,-8.811,33.095,3.793
14:11:42:177,38.672,0.012,-0.001,-0.013,-8.793,33.059,3.806
14:11:42:194,38.689,0.007,0.000,-0.011,-8.788,33.008,3.824
14:11:42:22,38.715,0.008,0.002,-0.013,-8.772,32.962,3.860
14:11:42:246,38.741,0.004,0.001,-0.019,-8.764,32.924,3.890
14:11:42:272,38.767,0.011,-0.002,-0.010,-8.755,32.870,3.928
14:11:42:357,38.853,0.004,0.003,-0.019,-8.740,32.846,3.962
14:11:42:357,38.853,0.006,0.002,-0.015,-8.721,32.839,3.980
14:11:42:358,38.853,0.000,0.003,-0.017,-8.696,32.835,4.007
14:11:42:377,38.873,0.004,0.001,-0.014,-8.685,32.834,4.026
14:11:42:403,38.898,0.003,0.003,-0.016,-8.654,32.851,4.049
14:11:42:429,38.924,0.008,0.000,-0.011,-8.634,32.867,4.043
14:11:42:543,39.039,0.003,0.001,-0.019,-8.602,32.909,4.043
14:11:42:544,39.040,0.008,0.002,-0.014,-8.571,32.950,4.042
14:11:42:545,39.040,0.004,0.001,-0.017,-8.546,32.984,4.044
14:11:42:546,39.041,0.003,0.004,-0.006,-8.513,33.019,4.062
14:11:42:564,39.060,0.010,0.003,-0.016,-8.495,33.034,4.078
14:11:42:565,39.060,0.012,-0.001,-0.011,-8.464,33.066,4.108
14:11:42:587,39.082,0.000,0.000,-0.012,-8.426,33.128,4.133
14:11:42:613,39.108,0.004,0.000,-0.004,-8.403,33.163,4.146
14:11:42:641,39.136,0.005,0.001,-0.016,-8.382,33.217,4.162
14:11:42:667,39.162,0.002,0.001,-0.008,-8.369,33.242,4.175
14:11:42:751,39.246,0.001,0.002,-0.016,-8.349,33.255,4.198
14:11:42:751,39.246,0.011,0.001,-0.009,-8.331,33.253,4.197
14:11:42:751,39.247,0.021,0.001,-0.014,-8.320,33.258,4.198
14:11:42:771,39.266,0.001,0.002,-0.015,-8.322,33.307,4.194
14:11:42:798,39.294,0.003,0.003,-0.011,-8.325,33.333,4.196
14:11:42:826,39.321,0.005,0.001,-0.007,-8.322,33.362,4.186
14:11:42:905,39.400,0.006,0.000,-0.011,-8.325,33.359,4.184
14:11:42:906,39.401,0.004,0.003,-0.016,-8.331,33.364,4.174
14:11:42:931,39.426,0.007,0.000,-0.012,-8.337,33.360,4.165
14:11:42:956,39.451,0.013,-0.001,-0.013,-8.349,33.375,4.145
14:11:42:981,39.476,0.006,0.001,-0.006,-8.353,33.398,4.129
14:11:43:036,39.531,0.003,0.003,-0.004,-8.358,33.457,4.112
14:11:43:119,39.614,0.004,0.001,-0.019,-8.365,33.497,4.099
14:11:43:12,39.615,0.007,0.002,-0.011,-8.375,33.568,4.078
14:11:43:12,39.615,-0.004,0.001,-0.009,-8.383,33.636,4.063
14:11:43:141,39.636,-0.001,0.001,-0.005,-8.391,33.664,4.063
14:11:43:142,39.637,0.003,0.003,-0.016,-8.394,33.687,4.047
14:11:43:165,39.661,0.004,0.002,-0.007,-8.400,33.712,4.043
14:11:43:192,39.687,0.001,0.001,-0.011,-8.403,33.735,4.028
14:11:43:218,39.713,0.007,0.001,-0.009,-8.406,33.740,4.003
14:11:43:271,39.766,0.001,0.004,-0.019,-8.434,33.746,3.955
14:11:43:326,39.821,0.003,-0.001,-0.007,-8.463,33.745,3.908
14:11:43:326,39.822,-0.004,0.006,-0.017,-8.477,33.747,3.875
14:11:43:352,39.847,0.012,-0.001,-0.011,-8.514,33.731,3.824
14:11:43:352,39.847,0.005,0.000,-0.014,-8.531,33.734,3.778
14:11:43:374,39.870,0.005,0.003,-0.009,-8.568,33.733,3.725
14:11:43:402,39.897,0.001,0.004,-0.020,-8.604,33.729,3.662
14:11:43:515,40.010,0.006,0.001,-0.010,-8.638,33.727,3.624
14:11:43:515,40.011,0.003,0.001,-0.010,-8.676,33.741,3.563
14:11:43:516,40.011,0.004,-0.002,-0.009,-8.700,33.757,3.524
14:11:43:516,40.012,0.002,0.006,-0.011,-8.745,33.790,3.453
14:11:43:532,40.027,0.003,0.001,-0.008,-8.778,33.822,3.401
14:11:43:558,40.053,-0.002,0.002,-0.013,-8.831,33.859,3.313
14:11:43:585,40.080,0.003,0.001,-0.010,-8.884,33.901,3.207
14:11:43:64,40.135,0.004,0.002,-0.011,-8.929,33.934,3.135
14:11:43:641,40.136,0.014,0.003,-0.012,-9.010,33.995,3.016
14:11:43:721,40.217,-0.002,0.000,-0.001,-9.072,34.034,2.934
14:11:43:722,40.217,0.001,0.001,-0.007,-9.147,34.080,2.789
14:11:43:723,40.218,-0.001,-0.002,-0.007,-9.246,34.136,2.624
14:11:43:742,40.237,0.010,0.005,-0.009,-9.318,34.197,2.510
14:11:43:77,40.265,0.000,0.003,-0.004,-9.432,34.283,2.338
14:11:43:795,40.290,-0.012,0.002,-0.005,-9.503,34.322,2.225
14:11:43:821,40.316,0.015,0.008,-0.022,-9.607,34.398,2.048
14:11:43:875,40.370,0.007,0.002,-0.019,-9.685,34.457,1.924
14:11:43:905,40.401,0.005,0.000,-0.010,-9.782,34.523,1.757
14:11:43:905,40.401,0.000,0.007,-0.014,-9.875,34.556,1.596
14:11:43:926,40.421,0.002,0.003,-0.015,-9.947,34.566,1.485
14:11:43:952,40.447,0.005,-0.002,-0.024,-10.039,34.566,1.344
14:11:44:007,40.502,0.004,-0.003,-0.011,-10.093,34.564,1.263
14:11:44:008,40.503,0.000,0.002,-0.013,-10.167,34.562,1.140
14:11:44:118,40.613,0.016,0.003,-0.021,-10.252,34.541,1.018
14:11:44:118,40.614,0.005,0.001,-0.022,-10.314,34.529,0.950
14:11:44:136,40.631,0.013,0.005,-0.016,-10.518,34.543,0.696
14:11:44:162,40.657,0.007,-0.002,-0.024,-10.568,34.561,0.634
14:11:44:189,40.684,-0.001,0.001,-0.012,-10.635,34.562,0.573
14:11:44:215,40.710,0.005,0.005,-0.017,-10.693,34.561,0.526
14:11:44:299,40.794,0.011,0.002,-0.014,-10.725,34.561,0.493
14:11:44:299,40.795,0.001,-0.001,-0.016,-10.779,34.564,0.465
14:11:44:3,40.796,-0.004,0.003,-0.011,-10.809,34.565,0.458
14:11:44:32,40.815,0.001,0.005,-0.016,-10.844,34.568,0.447
14:11:44:346,40.841,0.012,0.000,-0.014,-10.871,34.565,0.436
14:11:44:372,40.867,0.002,-0.003,-0.013,-10.884,34.569,0.428
14:11:44:486,40.982,-0.007,0.003,-0.010,-10.892,34.555,0.424
14:11:44:486,40.982,0.009,0.004,-0.008,-10.900,34.542,0.419
14:11:44:487,40.982,0.010,0.000,-0.010,-10.908,34.540,0.421
14:11:44:535,41.030,0.005,-0.005,-0.011,-10.910,34.538,0.444
14:11:44:536,41.031,-0.005,0.002,-0.007,-10.915,34.517,0.472
14:11:44:537,41.032,-0.005,0.009,-0.012,-10.923,34.466,0.518
14:11:44:558,41.053,0.002,0.005,-0.017,-10.928,34.445,0.547
14:11:44:612,41.108,0.008,-0.001,-0.007,-10.932,34.405,0.595
14:11:44:613,41.108,-0.002,0.003,-0.013,-10.932,34.373,0.627
14:11:44:634,41.130,0.008,0.006,-0.018,-10.938,34.298,0.689
14:11:44:693,41.188,0.006,0.003,-0.020,-10.939,34.234,0.753
14:11:44:694,41.189,0.008,-0.001,-0.007,-10.948,34.193,0.810
14:11:44:695,41.190,-0.010,0.002,-0.009,-10.955,34.132,0.911
14:11:44:741,41.236,0.008,0.004,-0.008,-10.952,34.079,0.977
14:11:44:768,41.263,-0.002,0.003,-0.019,-10.957,34.010,1.085
14:11:44:793,41.289,0.003,-0.002,-0.003,-10.960,33.948,1.200
14:11:44:821,41.316,-0.005,0.005,-0.008,-10.963,33.904,1.285
14:11:44:822,41.317,0.008,0.001,-0.015,-10.964,33.847,1.395
14:11:44:874,41.369,0.003,-0.003,-0.020,-10.969,33.824,1.470
14:11:44:875,41.370,-0.009,0.002,-0.004,-10.972,33.801,1.600
14:11:44:897,41.392,0.000,0.002,-0.007,-10.959,33.792,1.691
14:11:44:924,41.419,0.015,0.004,-0.010,-10.945,33.794,1.817
14:11:44:98,41.476,0.010,0.004,-0.013,-10.930,33.794,1.932
14:11:44:981,41.476,0.004,0.000,-0.004,-10.914,33.804,2.018
14:11:45:002,41.497,0.000,0.009,-0.008,-10.899,33.835,2.148
14:11:45:086,41.581,0.012,0.004,-0.008,-10.890,33.864,2.222
14:11:45:087,41.582,-0.005,-0.004,-0.007,-10.870,33.881,2.345
14:11:45:088,41.583,-0.003,0.000,-0.001,-10.852,33.807,2.474
14:11:45:107,41.602,0.000,0.002,0.000,-10.850,33.736,2.546
14:11:45:133,41.628,0.011,0.005,-0.010,-10.844,33.607,2.654
14:11:45:161,41.656,0.011,-0.002,-0.008,-10.842,33.519,2.710
14:11:45:186,41.681,-0.006,-0.003,0.000,-10.837,33.381,2.812
14:11:45:212,41.707,0.008,0.006,-0.011,-10.835,33.267,2.881
14:11:45:238,41.733,0.021,0.008,-0.018,-10.831,33.157,2.963
14:11:45:265,41.760,0.011,0.000,-0.007,-10.815,33.180,3.036
14:11:45:291,41.786,-0.011,0.005,0.000,-10.794,33.197,3.094
14:11:45:319,41.814,0.001,0.007,-0.004,-10.771,33.227,3.165
14:11:45:345,41.840,-0.009,0.006,-0.012,-10.760,33.264,3.198
14:11:45:457,41.952,0.003,-0.001,-0.011,-10.730,33.319,3.236
14:11:45:458,41.953,-0.009,0.002,-0.003,-10.690,33.350,3.270
14:11:45:458,41.953,-0.002,0.002,0.003,-10.668,33.354,3.290
14:11:45:459,41.954,0.003,0.005,-0.014,-10.634,33.322,3.295
14:11:45:474,41.969,0.000,0.002,-0.007,-10.622,33.305,3.298
14:11:45:502,41.997,-0.005,0.003,-0.008,-10.590,33.281,3.296
14:11:45:527,42.022,0.011,0.001,-0.005,-10.563,33.256,3.303
14:11:45:553,42.048,-0.001,0.005,-0.011,-10.545,33.226,3.298
14:11:45:58,42.075,0.006,0.001,-0.010,-10.529,33.174,3.307
14:11:45:606,42.101,0.003,0.002,-0.014,-10.503,33.143,3.307
14:11:45:661,42.156,0.005,0.003,-0.002,-10.471,33.120,3.305
14:11:45:662,42.157,0.005,0.003,-0.007,-10.445,33.115,3.292
14:11:45:685,42.180,0.014,0.001,-0.009,-10.412,33.087,3.262
14:11:45:711,42.206,-0.002,0.001,-0.002,-10.385,33.055,3.251
14:11:45:737,42.232,-0.001,0.002,-0.002,-10.360,33.021,3.234
14:11:45:763,42.259,0.012,0.001,-0.009,-10.333,32.977,3.207
14:11:45:79,42.285,0.016,0.003,-0.010,-10.311,32.945,3.176
14:11:45:847,42.342,0.010,0.001,-0.014,-10.296,32.931,3.133
14:11:45:847,42.342,0.008,0.000,-0.004,-10.281,32.930,3.119
14:11:45:868,42.363,-0.001,0.001,-0.007,-10.257,32.904,3.094
14:11:45:897,42.392,0.023,0.000,-0.012,-10.236,32.868,3.075
14:11:45:921,42.416,0.006,-0.001,-0.007,-10.239,32.844,3.074
14:11:46:062,42.557,0.007,0.000,-0.004,-10.238,32.785,3.079
14:11:46:063,42.558,0.010,0.004,-0.008,-10.237,32.749,3.083
14:11:46:063,42.558,0.010,0.001,-0.009,-10.237,32.741,3.083
14:11:46:064,42.559,0.006,-0.004,-0.003,-10.239,32.739,3.106
14:11:46:081,42.576,0.004,0.001,-0.001,-10.238,32.719,3.125
14:11:46:082,42.577,0.010,0.007,-0.007,-10.237,32.725,3.132
14:11:46:105,42.600,0.006,0.003,-0.012,-10.242,32.724,3.140
14:11:46:13,42.626,0.002,0.000,-0.004,-10.246,32.726,3.166
14:11:46:157,42.652,-0.003,0.003,-0.007,-10.248,32.724,3.189
14:11:46:241,42.736,0.007,0.000,-0.003,-10.245,32.727,3.191
14:11:46:242,42.737,0.003,0.003,-0.014,-10.248,32.724,3.189
14:11:46:243,42.738,0.000,0.001,-0.007,-10.253,32.727,3.186
14:11:46:263,42.758,-0.007,0.003,-0.005,-10.250,32.709,3.183
14:11:46:29,42.785,0.012,0.006,-0.008,-10.248,32.679,3.193
14:11:46:315,42.810,0.005,0.000,-0.013,-10.246,32.630,3.197
14:11:46:402,42.897,0.004,0.001,-0.010,-10.244,32.600,3.207
14:11:46:402,42.897,-0.005,0.008,-0.009,-10.245,32.559,3.215
14:11:46:402,42.897,0.009,0.001,-0.006,-10.238,32.530,3.215
14:11:46:42,42.915,0.013,0.000,-0.012,-10.244,32.514,3.219
14:11:46:446,42.941,0.000,0.000,-0.004,-10.240,32.503,3.222
14:11:46:472,42.967,0.004,0.005,-0.011,-10.235,32.478,3.227
14:11:46:5,42.996,0.013,0.004,-0.010,-10.237,32.460,3.233
14:11:46:524,43.020,0.000,0.000,-0.009,-10.237,32.460,3.233
14:11:46:551,43.046,0.002,0.001,-0.008,-10.236,32.437,3.235
14:11:46:577,43.072,0.007,0.002,-0.011,-10.236,32.424,3.236
14:11:46:604,43.099,0.006,0.004,-0.008,-10.236,32.424,3.236
14:11:46:629,43.124,-0.002,0.004,-0.009,-10.236,32.424,3.236
14:11:46:657,43.152,0.006,0.000,-0.002,-10.234,32.426,3.214
14:11:46:683,43.178,0.004,0.003,-0.007,-10.233,32.421,3.185
14:11:46:708,43.204,0.012,0.002,-0.012,-10.234,32.402,3.151
14:11:46:796,43.291,0.008,0.000,-0.016,-10.235,32.396,3.145
14:11:46:796,43.291,0.006,0.002,-0.007,-10.233,32.401,3.140
14:11:46:796,43.291,0.006,0.001,-0.001,-10.233,32.398,3.122
14:11:46:813,43.308,0.011,0.002,-0.007,-10.230,32.390,3.090
14:11:46:84,43.335,0.010,0.000,-0.012,-10.230,32.386,3.061
14:11:46:866,43.361,0.008,0.000,-0.010,-10.230,32.383,3.044
14:11:46:925,43.421,-0.001,0.003,0.001,-10.229,32.387,3.014
14:11:46:925,43.421,0.007,0.006,-0.016,-10.230,32.385,2.997
14:11:46:925,43.421,0.012,0.000,-0.013,-10.232,32.388,2.961
14:11:47:032,43.527,0.000,0.000,-0.015,-10.230,32.386,2.950
14:11:47:033,43.528,-0.005,0.004,0.001,-10.228,32.388,2.927
14:11:47:034,43.529,0.009,0.003,-0.014,-10.231,32.385,2.885
14:11:47:035,43.530,0.008,0.002,-0.007,-10.247,32.398,2.863
14:11:47:05,43.545,0.006,-0.002,-0.017,-10.268,32.411,2.820
14:11:47:077,43.573,0.005,0.002,-0.006,-10.275,32.409,2.804
14:11:47:131,43.626,0.010,0.004,-0.019,-10.296,32.408,2.762
14:11:47:132,43.627,0.014,0.001,-0.012,-10.320,32.425,2.723
14:11:47:215,43.710,-0.002,-0.002,-0.015,-10.328,32.429,2.707
14:11:47:215,43.710,0.002,0.002,-0.004,-10.334,32.431,2.679
14:11:47:215,43.710,0.005,0.006,-0.011,-10.350,32.430,2.658
14:11:47:233,43.728,0.010,0.002,-0.009,-10.374,32.443,2.630
14:11:47:262,43.757,0.003,-0.001,-0.013,-10.395,32.436,2.607
14:11:47:285,43.781,-0.002,0.001,-0.002,-10.409,32.442,2.592
14:11:47:399,43.894,0.009,0.005,-0.016,-10.434,32.437,2.566
14:11:47:4,43.895,0.008,0.003,-0.010,-10.449,32.436,2.544
14:11:47:401,43.896,0.007,0.003,-0.012,-10.473,32.449,2.517
14:11:47:402,43.897,0.007,0.006,-0.010,-10.495,32.453,2.504
14:11:47:418,43.913,0.006,0.005,-0.013,-10.520,32.445,2.489
14:11:47:445,43.940,0.009,0.000,-0.010,-10.543,32.481,2.484
14:11:47:47,43.965,0.003,0.001,-0.012,-10.554,32.485,2.483
14:11:47:496,43.991,0.007,0.004,-0.013,-10.577,32.490,2.481
14:11:47:522,44.017,0.010,0.001,-0.010,-10.595,32.501,2.480
14:11:47:548,44.043,0.006,-0.002,-0.010,-10.617,32.523,2.476
14:11:47:603,44.098,0.006,0.001,-0.009,-10.626,32.537,2.470
14:11:47:604,44.099,0.020,0.003,-0.016,-10.644,32.570,2.468
14:11:47:628,44.123,0.007,0.000,-0.011,-10.675,32.635,2.433
14:11:47:653,44.149,0.003,0.002,-0.010,-10.688,32.683,2.420
14:11:47:679,44.175,0.002,0.002,-0.010,-10.692,32.743,2.401
14:11:47:706,44.201,0.008,0.002,-0.021,-10.695,32.773,2.392
14:11:47:761,44.256,0.009,0.001,-0.014,-10.710,32.828,2.372
14:11:47:762,44.257,-0.002,0.000,-0.020,-10.721,32.858,2.357
14:11:47:784,44.279,0.001,0.001,-0.008,-10.724,32.855,2.355
14:11:47:811,44.306,0.005,0.005,-0.019,-10.729,32.884,2.338
14:11:47:837,44.332,0.010,-0.001,-0.012,-10.734,32.889,2.328
14:11:47:863,44.359,-0.001,0.002,-0.016,-10.743,32.890,2.323
14:11:48:004,44.499,0.009,0.002,-0.012,-10.747,32.892,2.320
14:11:48:004,44.500,0.001,0.004,-0.018,-10.753,32.897,2.311
14:11:48:005,44.501,0.008,0.000,-0.011,-10.754,32.891,2.304
14:11:48:006,44.501,0.002,0.002,-0.015,-10.758,32.880,2.303
14:11:48:024,44.519,0.008,0.004,-0.008,-10.759,32.852,2.299
14:11:48:024,44.520,0.007,0.004,-0.013,-10.763,32.841,2.297
14:11:48:047,44.542,0.007,-0.001,-0.009,-10.769,32.823,2.289
14:11:48:102,44.597,0.004,0.002,-0.010,-10.750,32.785,2.292
14:11:48:103,44.598,0.008,0.003,-0.008,-10.750,32.754,2.295
14:11:48:184,44.680,0.006,0.000,-0.007,-10.753,32.729,2.295
14:11:48:185,44.680,0.005,0.002,-0.009,-10.755,32.714,2.289
14:11:48:185,44.681,0.006,0.002,-0.007,-10.759,32.690,2.289
14:11:48:205,44.700,0.008,0.001,-0.012,-10.756,32.672,2.286
14:11:48:232,44.727,0.006,0.003,-0.015,-10.757,32.643,2.282
14:11:48:258,44.753,0.003,0.003,-0.006,-10.742,32.608,2.282
14:11:48:337,44.832,0.006,0.005,-0.010,-10.727,32.601,2.286
14:11:48:367,44.863,0.010,-0.001,-0.010,-10.708,32.589,2.276
14:11:48:368,44.864,0.006,0.000,-0.010,-10.694,32.567,2.274
14:11:48:369,44.865,0.005,-0.001,-0.007,-10.672,32.525,2.273
14:11:48:388,44.884,0.008,0.005,-0.008,-10.643,32.496,2.276
14:11:48:415,44.910,0.005,0.001,-0.008,-10.626,32.488,2.269
14:11:48:441,44.936,0.003,-0.002,-0.007,-10.608,32.463,2.271
14:11:48:467,44.962,-0.001,0.003,-0.013,-10.590,32.430,2.273
14:11:48:495,44.990,0.009,0.005,-0.007,-10.560,32.407,2.286
14:11:48:578,45.073,0.009,0.000,-0.017,-10.539,32.395,2.300
14:11:48:578,45.074,0.005,-0.001,-0.007,-10.513,32.374,2.335
14:11:48:579,45.075,-0.005,0.003,-0.010,-10.477,32.343,2.366
14:11:48:627,45.122,0.009,0.003,-0.006,-10.450,32.335,2.389
14:11:48:628,45.123,0.006,0.001,-0.015,-10.415,32.326,2.417
14:11:48:678,45.173,-0.001,-0.002,-0.007,-10.385,32.319,2.446
14:11:48:764,45.260,0.000,0.002,-0.007,-10.335,32.291,2.491
14:11:48:765,45.260,0.005,0.006,-0.006,-10.308,32.283,2.513
14:11:48:766,45.261,0.008,0.000,-0.016,-10.264,32.271,2.558
14:11:48:782,45.277,0.000,0.001,-0.008,-10.169,32.237,2.653
14:11:48:809,45.304,0.010,0.005,-0.004,-10.113,32.230,2.694
14:11:48:835,45.330,0.007,0.000,-0.010,-10.082,32.233,2.718
14:11:48:862,45.357,0.007,0.001,-0.014,-10.027,32.229,2.752
14:11:48:975,45.470,-0.002,0.000,-0.005,-9.961,32.226,2.797
14:11:48:975,45.470,0.002,0.006,0.000,-9.916,32.229,2.818
14:11:48:976,45.471,0.010,0.002,-0.008,-9.857,32.228,2.854
14:11:48:977,45.472,0.006,0.000,-0.011,-9.815,32.235,2.879
14:11:48:992,45.487,0.001,-0.001,-0.008,-9.754,32.238,2.910
14:11:49:018,45.513,0.006,0.010,-0.006,-9.679,32.222,2.933
14:11:49:074,45.569,0.012,0.006,-0.010,-9.636,32.211,2.949
14:11:49:075,45.570,0.005,-0.003,-0.007,-9.582,32.201,2.976
14:11:49:155,45.651,0.008,-0.005,-0.012,-9.536,32.155,3.001
14:11:49:155,45.651,-0.006,0.002,-0.003,-9.469,32.082,3.034
14:11:49:182,45.677,0.013,0.006,-0.007,-9.430,32.034,3.061
14:11:49:182,45.677,0.005,0.000,-0.008,-9.374,31.960,3.111
14:11:49:183,45.678,0.003,-0.001,-0.010,-9.322,31.875,3.160
14:11:49:231,45.726,0.007,0.002,-0.008,-9.287,31.824,3.184
14:11:49:232,45.727,0.004,0.008,-0.006,-9.233,31.784,3.214
14:11:49:343,45.838,0.004,0.004,-0.013,-9.202,31.767,3.233
14:11:49:343,45.839,0.006,0.000,-0.006,-9.161,31.725,3.266
14:11:49:343,45.839,0.004,-0.001,-0.010,-9.118,31.672,3.277
14:11:49:344,45.840,0.001,0.003,-0.006,-9.095,31.614,3.284
14:11:49:36,45.855,0.007,0.007,-0.017,-9.069,31.549,3.297
14:11:49:386,45.881,0.007,0.001,-0.011,-9.050,31.525,3.298
14:11:49:412,45.907,0.003,0.003,-0.014,-9.018,31.498,3.307
14:11:49:438,45.933,0.006,-0.002,-0.003,-8.993,31.481,3.305
14:11:49:466,45.961,-0.001,0.004,-0.008,-8.966,31.448,3.312
14:11:49:549,46.044,0.011,0.002,-0.011,-8.943,31.413,3.316
14:11:49:55,46.045,0.003,0.000,-0.014,-8.925,31.411,3.316
14:11:49:551,46.046,0.006,0.003,-0.003,-8.892,31.407,3.318
14:11:49:57,46.065,0.008,0.004,-0.010,-8.876,31.409,3.321
14:11:49:598,46.093,0.012,0.003,-0.012,-8.859,31.412,3.320
14:11:49:653,46.148,0.010,0.002,-0.011,-8.830,31.415,3.320
14:11:49:653,46.148,0.007,-0.001,-0.011,-8.816,31.415,3.316
14:11:49:702,46.197,-0.006,0.002,-0.008,-8.792,31.443,3.311
14:11:49:732,46.227,0.009,0.003,-0.011,-8.777,31.450,3.314
14:11:49:732,46.227,0.007,0.002,-0.013,-8.743,31.453,3.305
14:11:49:754,46.249,0.000,0.000,0.000,-8.722,31.451,3.289
14:11:49:781,46.276,0.005,0.006,-0.008,-8.697,31.452,3.257
14:11:49:807,46.302,0.008,0.000,-0.012,-8.690,31.454,3.226
14:11:49:832,46.327,0.006,0.002,-0.014,-8.674,31.447,3.230
14:11:49:938,46.433,0.012,0.004,-0.010,-8.636,31.431,3.225
14:11:49:972,46.467,0.009,0.004,-0.009,-8.610,31.434,3.211
14:11:49:973,46.468,0.013,0.002,-0.012,-8.565,31.439,3.185
14:11:49:973,46.468,0.005,0.001,-0.004,-8.525,31.438,3.157
14:11:49:974,46.469,0.004,0.000,-0.006,-8.503,31.443,3.129
14:11:49:992,46.487,0.008,0.001,-0.008,-8.469,31.446,3.091
14:11:50:016,46.512,0.000,0.004,-0.010,-8.449,31.446,3.068
14:11:50:042,46.538,0.008,0.005,-0.009,-8.438,31.437,3.041
14:11:50:127,46.622,0.007,0.002,-0.016,-8.434,31.935,3.025
14:11:50:128,46.623,0.007,0.001,-0.006,-8.438,31.936,3.011
14:11:50:128,46.623,0.005,0.001,-0.020,-8.439,32.045,3.010
14:11:50:147,46.642,0.009,0.002,-0.012,-8.439,32.045,3.010
14:11:50:175,46.670,0.013,0.000,-0.018,-8.438,32.416,3.013
14:11:50:2,46.695,0.003,0.000,-0.008,-8.440,32.423,3.005
14:11:50:316,46.811,0.005,0.004,-0.016,-8.436,32.457,3.005
14:11:50:316,46.811,0.017,-0.001,-0.014,-8.441,32.532,3.004
14:11:50:316,46.811,0.009,0.000,-0.013,-8.442,32.568,3.001
14:11:50:316,46.811,0.004,0.003,-0.007,-8.440,32.651,2.998
14:11:50:331,46.826,0.015,0.002,-0.009,-8.440,32.651,2.998
14:11:50:357,46.852,0.010,0.005,-0.012,-8.445,32.720,2.990
14:11:50:383,46.878,0.000,0.001,-0.013,-8.444,32.761,2.983
14:11:50:412,46.907,0.008,0.003,-0.005,-8.442,32.779,2.977
14:11:50:437,46.932,0.015,0.002,-0.010,-8.436,32.822,2.973
14:11:50:521,47.016,0.010,0.001,-0.010,-8.436,33.036,2.966
14:11:50:521,47.016,0.005,0.002,-0.011,-8.440,33.073,2.950
14:11:50:522,47.017,0.009,0.003,-0.004,-8.437,33.177,2.934
14:11:50:542,47.037,0.013,0.003,-0.015,-8.437,33.208,2.903
14:11:50:569,47.064,0.009,0.004,-0.008,-8.424,33.455,2.873
14:11:50:594,47.089,0.008,0.001,-0.013,-8.408,33.486,2.852
14:11:50:619,47.115,0.011,0.000,-0.011,-8.390,33.560,2.817
14:11:50:704,47.199,0.012,0.001,-0.013,-8.378,33.593,2.793
14:11:50:705,47.200,0.012,0.002,-0.014,-8.358,33.731,2.745
14:11:50:705,47.200,0.006,0.001,-0.005,-8.340,33.774,2.713
14:11:50:725,47.220,0.010,0.003,-0.011,-8.316,33.829,2.660
14:11:50:751,47.246,0.013,0.006,-0.013,-8.291,33.860,2.597
14:11:50:809,47.304,0.020,0.008,-0.012,-8.269,34.026,2.554
14:11:50:809,47.305,0.008,0.004,-0.007,-8.242,34.064,2.499
14:11:50:917,47.412,0.009,0.001,-0.022,-8.227,34.124,2.469
14:11:50:918,47.413,0.012,0.000,-0.008,-8.212,34.163,2.394
14:11:50:918,47.413,-0.003,-0.001,-0.014,-8.187,34.230,2.329
14:11:50:919,47.414,0.005,-0.003,-0.010,-8.168,34.263,2.287
14:11:50:935,47.430,0.003,0.006,-0.011,-8.144,34.307,2.199
14:11:50:961,47.456,0.006,-0.002,-0.007,-8.130,34.327,2.130
14:11:50:989,47.484,-0.008,-0.005,-0.002,-8.120,34.360,1.981
14:11:51:013,47.509,0.009,0.007,-0.002,-8.116,34.375,1.871
14:11:51:097,47.592,0.014,0.000,-0.018,-8.121,34.429,1.671
14:11:51:097,47.592,0.004,-0.002,-0.007,-8.127,34.546,1.448
14:11:51:122,47.617,-0.001,0.001,-0.002,-8.125,34.599,1.275
14:11:51:122,47.617,0.018,-0.002,-0.007,-8.138,34.673,0.974
14:11:51:145,47.640,0.007,0.005,-0.010,-8.162,34.707,0.751
14:11:51:172,47.668,0.002,-0.001,-0.008,-8.210,35.001,0.406
14:11:51:285,47.780,0.013,0.001,-0.018,-8.267,35.040,0.050
14:11:51:286,47.781,0.023,0.001,-0.022,-8.305,35.107,-0.191
14:11:51:287,47.782,0.015,0.003,-0.030,-8.362,35.152,-0.519
14:11:51:288,47.783,0.016,0.009,-0.017,-8.377,35.161,-0.699
14:11:51:302,47.797,0.019,0.003,-0.027,-8.394,35.166,-0.922
14:11:51:328,47.823,0.019,0.000,-0.029,-8.401,35.059,-1.035
14:11:51:358,47.853,0.015,0.000,-0.031,-8.412,35.045,-1.118
14:11:51:358,47.854,0.013,0.003,-0.017,-8.388,35.026,-1.072
14:11:51:41,47.906,0.012,0.002,-0.016,-8.361,35.005,-0.983
14:11:51:41,47.906,0.003,0.001,-0.010,-8.306,34.957,-0.797
14:11:51:491,47.986,0.000,0.001,-0.002,-8.277,34.921,-0.647
14:11:51:492,47.987,0.008,-0.001,-0.007,-8.231,34.909,-0.423
14:11:51:493,47.988,0.000,0.000,-0.002,-8.191,34.877,-0.196
14:11:51:541,48.036,-0.014,0.006,0.004,-8.173,34.859,-0.048
14:11:51:542,48.037,0.011,-0.003,-0.008,-8.154,34.786,0.169
14:11:51:567,48.062,0.005,0.000,-0.012,-8.138,34.745,0.294
14:11:51:592,48.087,0.006,0.008,-0.009,-8.119,34.714,0.490
14:11:51:676,48.171,0.006,0.004,-0.012,-8.105,34.691,0.617
14:11:51:676,48.171,-0.003,0.001,-0.004,-8.103,34.641,0.793
14:11:51:677,48.172,0.000,0.002,-0.016,-8.096,34.589,0.971
14:11:51:696,48.191,0.003,0.001,-0.004,-8.083,34.560,1.092
14:11:51:723,48.218,-0.002,0.002,-0.002,-8.059,34.532,1.268
14:11:51:748,48.244,0.007,0.000,-0.006,-8.051,34.503,1.369
14:11:51:774,48.270,-0.005,0.000,-0.007,-8.054,34.434,1.501
14:11:51:888,48.383,0.008,0.003,-0.004,-8.049,34.367,1.573
14:11:51:889,48.384,-0.002,0.000,-0.006,-8.050,34.336,1.604
14:11:51:89,48.385,0.004,-0.002,-0.001,-8.050,34.288,1.618
14:11:51:891,48.386,0.005,0.004,-0.011,-8.052,34.234,1.626
14:11:51:906,48.401,0.012,0.001,-0.008,-8.050,34.165,1.620
14:11:51:934,48.429,0.009,0.003,-0.009,-8.049,34.138,1.593
14:11:51:96,48.455,0.004,0.000,-0.007,-8.049,34.091,1.561
14:11:51:985,48.480,-0.004,0.004,-0.004,-8.055,34.040,1.519
14:11:52:072,48.567,0.005,0.000,0.003,-8.055,34.033,1.473
14:11:52:073,48.568,0.011,0.002,-0.008,-8.050,34.031,1.400
14:11:52:073,48.568,0.013,0.000,-0.013,-8.054,34.012,1.352
14:11:52:09,48.585,0.004,0.007,-0.010,-8.056,33.978,1.294
14:11:52:118,48.613,0.012,0.003,-0.009,-8.056,33.948,1.249
14:11:52:259,48.754,0.005,0.000,-0.013,-8.059,33.932,1.219
14:11:52:259,48.754,0.008,0.002,-0.006,-8.063,33.930,1.187
14:11:52:259,48.754,0.006,0.002,-0.005,-8.048,33.929,1.173
14:11:52:259,48.754,0.009,0.003,-0.006,-8.042,33.929,1.165
14:11:52:276,48.771,0.010,-0.001,-0.009,-8.037,33.930,1.156
14:11:52:277,48.772,0.007,0.000,-0.009,-8.036,33.933,1.145
14:11:52:3,48.795,0.008,0.001,-0.005,-8.009,33.942,1.138
14:11:52:327,48.822,0.012,0.001,-0.011,-7.993,33.961,1.129
14:11:52:353,48.848,0.008,0.003,-0.005,-7.968,33.988,1.125
14:11:52:379,48.874,0.001,0.005,-0.008,-7.944,34.006,1.122
14:11:52:463,48.958,0.006,0.003,-0.001,-7.909,34.003,1.132
14:11:52:463,48.958,0.005,0.001,-0.013,-7.884,34.030,1.128
14:11:52:464,48.959,0.002,-0.001,-0.004,-7.871,34.047,1.142
14:11:52:483,48.978,0.002,0.003,-0.011,-7.846,34.082,1.155
14:11:52:509,49.005,0.010,0.000,-0.005,-7.828,34.097,1.171
14:11:52:536,49.031,0.003,0.001,-0.013,-7.805,34.116,1.208
14:11:52:623,49.118,0.007,0.000,-0.006,-7.785,34.115,1.232
14:11:52:624,49.119,-0.002,-0.002,-0.011,-7.756,34.116,1.279
14:11:52:624,49.119,0.001,0.005,0.004,-7.743,34.116,1.323
14:11:52:641,49.136,0.013,0.002,-0.015,-7.745,34.115,1.345
14:11:52:667,49.162,0.007,-0.001,-0.005,-7.744,34.115,1.399
14:11:52:695,49.191,0.006,0.000,-0.007,-7.743,34.113,1.435
14:11:52:723,49.218,0.009,0.000,-0.005,-7.743,34.115,1.499
14:11:52:746,49.241,0.003,0.002,-0.006,-7.744,34.111,1.557
14:11:52:86,49.355,0.010,0.000,-0.007,-7.746,34.126,1.596
14:11:52:86,49.356,0.001,0.001,-0.003,-7.746,34.134,1.642
14:11:52:861,49.356,0.010,0.003,-0.006,-7.750,34.135,1.675
14:11:52:862,49.357,0.010,0.003,-0.011,-7.746,34.131,1.725
14:11:52:878,49.374,0.008,0.000,-0.006,-7.746,34.136,1.754
14:11:52:903,49.399,0.002,-0.003,-0.006,-7.745,34.137,1.807
14:11:52:959,49.454,0.001,0.002,0.001,-7.745,34.123,1.855
14:11:53:04,49.535,0.008,0.000,-0.008,-7.770,34.104,1.905
14:11:53:04,49.535,0.006,0.000,-0.010,-7.785,34.066,1.933
14:11:53:064,49.559,0.002,0.002,-0.004,-7.793,34.038,1.947
14:11:53:087,49.583,0.004,-0.001,-0.014,-7.830,33.975,1.957
14:11:53:113,49.609,0.006,0.001,-0.007,-7.850,33.932,1.965
14:11:53:228,49.723,0.005,0.000,-0.011,-7.867,33.898,1.968
14:11:53:228,49.723,0.004,0.005,0.000,-7.878,33.871,1.968
14:11:53:229,49.724,0.003,0.000,-0.011,-7.909,33.824,1.975
14:11:53:23,49.725,0.004,0.000,-0.008,-7.929,33.794,1.982
14:11:53:245,49.740,0.008,0.006,-0.012,-7.957,33.756,1.985
14:11:53:272,49.768,0.008,0.001,-0.009,-7.973,33.737,1.993
14:11:53:297,49.793,0.001,0.001,-0.011,-8.006,33.719,1.991
14:11:53:323,49.818,0.009,0.003,-0.005,-8.019,33.696,1.996
14:11:53:437,49.933,0.006,0.004,-0.011,-8.046,33.673,2.004
14:11:53:438,49.934,0.007,0.001,-0.006,-8.079,33.655,2.003
14:11:53:439,49.935,0.003,0.001,-0.009,-8.090,33.650,2.002
14:11:53:44,49.935,0.009,0.003,-0.005,-8.118,33.635,2.003
14:11:53:455,49.951,0.005,0.004,-0.007,-8.132,33.634,2.006
14:11:53:481,49.976,0.008,0.001,-0.008,-8.157,33.629,2.008
14:11:53:623,50.118,0.003,0.001,-0.012,-8.179,33.629,2.006
14:11:53:623,50.118,0.005,0.004,-0.005,-8.197,33.631,2.007
14:11:53:624,50.119,0.005,-0.001,-0.006,-8.216,33.630,2.019
14:11:53:624,50.120,0.001,0.002,-0.008,-8.229,33.630,2.022
14:11:53:644,50.139,0.007,0.000,-0.008,-8.251,33.629,2.020
14:11:53:644,50.139,0.007,0.001,-0.004,-8.275,33.631,2.029
14:11:53:666,50.162,0.002,0.006,-0.006,-8.283,33.626,2.042
14:11:53:692,50.187,0.009,0.000,-0.005,-8.310,33.625,2.048
14:11:53:717,50.212,0.001,0.000,-0.006,-8.323,33.624,2.052
14:11:53:832,50.327,0.005,0.000,-0.003,-8.332,33.625,2.046
14:11:53:833,50.328,0.005,0.001,-0.003,-8.342,33.627,2.052
14:11:53:834,50.329,0.007,-0.001,-0.005,-8.364,33.626,2.050
14:11:53:834,50.329,0.003,0.000,-0.007,-8.359,33.615,2.054
14:11:53:851,50.346,0.002,0.003,-0.004,-8.359,33.615,2.054
14:11:53:852,50.347,0.002,0.001,-0.004,-8.370,33.619,2.052
14:11:53:876,50.371,0.001,0.003,-0.012,-8.379,33.611,2.048
14:11:53:93,50.425,0.005,0.002,-0.009,-8.388,33.599,2.054
14:11:53:931,50.426,-0.001,0.001,-0.007,-8.388,33.599,2.054
14:11:54:01,50.505,0.010,-0.001,-0.007,-8.399,33.603,2.053
14:11:54:011,50.506,0.002,0.002,-0.015,-8.421,33.603,2.051
14:11:54:035,50.530,0.005,0.001,-0.005,-8.424,33.599,2.056
14:11:54:036,50.531,-0.002,0.003,-0.011,-8.434,33.603,2.054
14:11:54:06,50.555,0.006,-0.001,-0.007,-8.446,33.598,2.054
14:11:54:085,50.580,0.000,0.001,-0.014,-8.465,33.594,2.048
14:11:54:199,50.694,0.005,0.003,-0.007,-8.476,33.559,2.031
14:11:54:199,50.694,0.000,0.001,-0.014,-8.490,33.556,2.017
14:11:54:2,50.695,0.008,0.000,-0.006,-8.512,33.539,1.998
14:11:54:201,50.696,0.000,0.001,-0.009,-8.526,33.536,1.984
14:11:54:217,50.712,0.003,0.001,-0.002,-8.533,33.538,1.957
14:11:54:243,50.738,0.003,0.001,-0.009,-8.550,33.522,1.930
14:11:54:268,50.763,0.007,0.001,-0.009,-8.562,33.494,1.906
14:11:54:295,50.790,0.006,0.004,-0.013,-8.587,33.476,1.881
14:11:54:321,50.817,0.001,0.001,-0.004,-8.587,33.482,1.862
14:11:54:406,50.901,0.003,0.002,-0.011,-8.593,33.470,1.836
14:11:54:406,50.901,0.010,0.002,-0.015,-8.594,33.447,1.813
14:11:54:407,50.902,0.004,0.001,-0.014,-8.601,33.418,1.788
14:11:54:426,50.921,0.004,0.003,-0.009,-8.599,33.420,1.766
14:11:54:452,50.947,0.004,0.002,-0.012,-8.597,33.418,1.755
14:11:54:479,50.974,0.010,0.000,-0.012,-8.603,33.415,1.746
14:11:54:506,51.002,0.006,0.001,-0.014,-8.603,33.415,1.746
14:11:54:588,51.083,0.005,-0.001,-0.008,-8.603,33.415,1.746
14:11:54:588,51.083,0.008,0.001,-0.014,-8.603,33.415,1.746
14:11:54:613,51.108,0.006,0.000,-0.009,-8.603,33.415,1.746
14:11:54:613,51.108,0.006,0.002,-0.008,-8.603,33.415,1.746
14:11:54:638,51.133,0.002,0.000,-0.018,-8.603,33.415,1.746
14:11:54:662,51.158,0.003,0.001,-0.012,-8.599,33.403,1.749
14:11:54:805,51.300,0.001,0.003,-0.017,-8.599,33.390,1.750
14:11:54:805,51.300,0.010,0.001,-0.015,-8.594,33.378,1.753
14:11:54:805,51.300,0.003,0.001,-0.017,-8.602,33.359,1.768
14:11:54:805,51.300,0.004,0.000,-0.006,-8.597,33.342,1.789
14:11:54:823,51.318,0.001,0.004,-0.011,-8.602,33.345,1.815
14:11:54:823,51.318,0.002,0.001,-0.013,-8.600,33.345,1.840
14:11:54:846,51.342,0.001,0.002,-0.017,-8.596,33.347,1.871
14:11:54:872,51.368,0.002,0.002,-0.007,-8.603,33.345,1.902
14:11:54:899,51.395,0.008,0.005,-0.018,-8.600,33.344,1.916
14:11:54:981,51.476,0.006,0.000,-0.013,-8.598,33.348,1.958
14:11:54:982,51.477,0.003,-0.004,-0.016,-8.598,33.339,1.988
14:11:55:006,51.501,0.002,0.000,-0.011,-8.600,33.319,2.040
14:11:55:007,51.502,-0.005,0.003,-0.006,-8.599,33.317,2.076
14:11:55:03,51.525,0.013,0.000,-0.012,-8.601,33.309,2.117
14:11:55:056,51.551,0.004,0.001,-0.012,-8.596,33.262,2.152
14:11:55:164,51.659,0.005,0.002,-0.008,-8.595,33.234,2.172
14:11:55:196,51.691,-0.001,0.007,-0.008,-8.602,33.193,2.188
14:11:55:197,51.692,0.008,0.000,-0.006,-8.619,33.159,2.191
14:11:55:197,51.693,0.006,0.001,-0.016,-8.653,33.106,2.203
14:11:55:198,51.694,0.006,-0.002,-0.016,-8.673,33.064,2.222
14:11:55:215,51.710,0.005,0.002,-0.013,-8.698,33.028,2.256
14:11:55:241,51.736,0.001,0.007,-0.006,-8.736,33.026,2.280
14:11:55:267,51.762,0.010,-0.002,-0.020,-8.768,33.038,2.294
14:11:55:292,51.787,0.004,-0.003,-0.008,-8.805,33.081,2.310
14:11:55:378,51.873,-0.001,0.002,-0.005,-8.828,33.104,2.317
14:11:55:378,51.873,0.004,0.001,-0.012,-8.860,33.140,2.307
14:11:55:378,51.873,0.004,0.001,-0.010,-8.895,33.210,2.292
14:11:55:398,51.894,0.010,-0.001,-0.010,-8.918,33.245,2.288
14:11:55:423,51.919,0.005,-0.002,-0.011,-8.950,33.278,2.260
14:11:55:45,51.945,-0.001,0.005,-0.015,-8.968,33.312,2.229
14:11:55:505,52.000,0.012,0.001,-0.016,-9.002,33.361,2.194
14:11:55:56,52.055,0.004,0.003,-0.018,-9.041,33.411,2.177
14:11:55:561,52.056,0.003,-0.001,-0.010,-9.061,33.429,2.170
14:11:55:562,52.057,0.003,0.001,-0.013,-9.094,33.459,2.153
14:11:55:581,52.077,0.007,0.005,-0.013,-9.121,33.481,2.129
14:11:55:607,52.103,-0.001,0.002,-0.017,-9.158,33.519,2.092
14:11:55:635,52.130,0.006,-0.004,-0.011,-9.212,33.557,2.044
14:11:55:661,52.156,0.009,0.003,-0.016,-9.243,33.580,2.006
14:11:55:773,52.269,0.006,0.001,-0.013,-9.299,33.626,1.950
14:11:55:774,52.269,0.001,0.003,-0.012,-9.349,33.676,1.904
14:11:55:775,52.270,0.007,0.001,-0.007,-9.378,33.706,1.872
14:11:55:775,52.271,0.003,0.001,-0.012,-9.432,33.744,1.824
14:11:55:792,52.288,0.005,0.001,-0.014,-9.472,33.778,1.791
14:11:55:817,52.313,0.006,0.000,-0.018,-9.531,33.816,1.751
14:11:55:844,52.339,0.003,0.000,-0.010,-9.558,33.838,1.726
14:11:55:87,52.365,0.006,0.002,-0.010,-9.605,33.862,1.678
14:11:55:896,52.391,0.008,0.002,-0.022,-9.658,33.885,1.638
14:11:55:951,52.447,0.004,0.000,-0.020,-9.694,33.888,1.603
14:11:55:952,52.448,0.004,0.002,-0.012,-9.746,33.911,1.562
14:11:55:975,52.471,0.009,0.001,-0.014,-9.777,33.931,1.535
14:11:56:001,52.496,0.007,0.002,-0.016,-9.823,33.961,1.493
14:11:56:027,52.522,0.002,0.002,-0.015,-9.869,33.982,1.480
14:11:56:141,52.637,0.004,-0.003,-0.013,-9.895,33.993,1.475
14:11:56:142,52.638,0.003,0.003,-0.009,-9.936,34.015,1.453
14:11:56:143,52.639,0.000,0.005,-0.017,-9.947,34.033,1.451
14:11:56:159,52.655,0.001,0.000,-0.019,-9.999,34.037,1.430
14:11:56:187,52.683,0.003,0.000,-0.010,-10.038,34.052,1.416
14:11:56:188,52.684,0.002,0.004,-0.018,-10.057,34.048,1.410
14:11:56:213,52.708,0.005,0.005,-0.014,-10.081,34.055,1.400
14:11:56:237,52.732,0.002,-0.001,-0.015,-10.114,34.051,1.398
14:11:56:353,52.849,0.010,0.000,-0.010,-10.132,34.053,1.398
14:11:56:353,52.849,0.002,0.005,-0.017,-10.165,34.051,1.413
14:11:56:353,52.849,0.006,0.002,-0.010,-10.193,34.052,1.430
14:11:56:354,52.849,-0.002,0.002,-0.013,-10.211,34.057,1.448
14:11:56:37,52.865,0.012,-0.002,-0.013,-10.242,34.062,1.469
