Time,Second,AccelerationX,AccelerationY,AccelerationZ,EulerAnglesX,EulerAnglesY,EulerAnglesZ
14:04:26:979,0.000,0.000,-0.002,-0.002,-10.025,0.014,1.152
14:04:27:013,0.034,-0.007,-0.006,0.004,-10.200,0.325,1.106
14:04:27:014,0.035,-0.007,-0.001,0.007,-10.312,0.494,1.094
14:04:27:015,0.036,0.000,-0.003,0.015,-10.500,0.664,1.101
14:04:27:015,0.036,-0.001,0.001,0.008,-10.649,0.793,1.124
14:04:27:036,0.057,0.004,0.010,0.005,-10.910,1.013,1.163
14:04:27:036,0.057,-0.009,-0.010,-0.002,-11.178,1.291,1.220
14:04:27:037,0.058,-0.006,-0.006,0.024,-11.352,1.414,1.281
14:04:27:144,0.165,-0.008,0.004,0.020,-11.614,1.491,1.403
14:04:27:145,0.165,-0.016,0.014,-0.022,-11.822,1.521,1.500
14:04:27:146,0.166,0.037,0.018,-0.025,-12.065,1.271,1.762
14:04:27:146,0.167,0.009,-0.002,0.038,-12.124,1.004,2.025
14:04:27:161,0.182,-0.035,0.008,0.023,-12.176,0.828,2.455
14:04:27:187,0.208,0.015,0.002,-0.004,-12.228,0.631,2.914
14:04:27:333,0.353,-0.001,0.012,0.013,-12.246,0.446,3.243
14:04:27:333,0.353,0.007,0.004,0.007,-12.264,0.212,3.754
14:04:27:333,0.353,0.006,0.009,-0.008,-12.263,0.037,4.114
14:04:27:333,0.354,-0.024,0.030,0.006,-12.219,-0.226,4.699
14:04:27:348,0.369,0.003,0.012,0.015,-12.087,-0.533,5.317
14:04:27:349,0.370,0.012,0.028,0.010,-11.967,-0.747,5.737
14:04:27:461,0.481,-0.008,0.014,0.012,-11.753,-1.095,6.414
14:04:27:461,0.481,0.020,-0.003,-0.008,-11.600,-1.362,6.873
14:04:27:461,0.481,0.025,0.021,-0.005,-11.367,-1.673,7.523
14:04:27:462,0.482,-0.010,0.014,0.012,-11.182,-1.797,7.966
14:04:27:508,0.528,0.007,0.015,-0.005,-10.911,-2.022,8.635
14:04:27:508,0.529,0.010,0.021,-0.011,-10.580,-2.250,9.306
14:04:27:695,0.716,0.025,0.020,-0.004,-10.328,-2.372,9.753
14:04:27:696,0.717,0.025,0.017,-0.015,-9.925,-2.505,10.462
14:04:27:697,0.718,0.024,0.037,0.010,-9.626,-2.625,10.998
14:04:27:698,0.719,0.036,0.021,0.012,-9.134,-2.870,11.929
14:04:27:822,0.843,0.050,0.039,0.030,-8.618,-3.105,12.942
14:04:27:822,0.843,0.060,0.059,0.012,-8.208,-3.231,13.574
14:04:27:853,0.874,0.039,0.063,0.017,-7.589,-3.184,14.670
14:04:27:854,0.875,0.095,0.083,0.018,-7.094,-3.371,15.554
14:04:27:855,0.875,0.132,0.103,-0.024,-6.232,-3.536,16.994
14:04:27:856,0.876,0.194,0.115,-0.039,-5.143,-3.716,18.667
14:04:27:906,0.927,0.215,0.136,0.004,-4.307,-3.748,19.944
14:04:27:906,0.927,0.312,0.129,0.015,-2.871,-3.701,22.119
14:04:27:907,0.928,0.348,0.114,0.102,-1.800,-3.553,23.766
14:04:27:908,0.929,0.492,0.109,0.080,0.250,-3.718,26.667
14:04:27:978,0.999,0.664,0.177,-0.043,2.490,-3.658,30.381
14:04:27:979,1.000,0.861,0.122,-0.275,3.953,-3.330,33.435
14:04:28:008,1.028,0.886,0.042,-0.337,5.261,-1.601,38.799
14:04:28:008,1.029,0.739,-0.171,-0.280,5.673,0.086,42.283
14:04:28:009,1.029,0.077,0.143,-0.385,6.732,1.927,46.503
14:04:28:058,1.078,0.684,-0.444,-0.417,8.012,2.552,48.669
14:04:28:058,1.078,0.370,-0.603,-0.177,9.030,2.991,48.834
14:04:28:138,1.159,0.358,-0.654,-0.157,10.624,2.465,47.234
14:04:28:138,1.159,0.339,-0.616,-0.178,11.140,1.811,45.109
14:04:28:22,1.240,0.350,-0.528,-0.132,10.987,0.412,40.474
14:04:28:221,1.241,0.389,-0.495,-0.085,9.429,-1.227,34.258
14:04:28:222,1.242,0.345,-0.301,-0.047,7.640,-1.969,29.634
14:04:28:222,1.243,0.303,-0.071,-0.014,4.410,-2.262,22.149
14:04:28:267,1.288,0.245,0.038,0.003,2.064,-1.716,16.922
14:04:28:267,1.288,-0.016,0.300,-0.036,-1.249,-0.249,8.551
14:04:28:291,1.312,-0.141,0.547,-0.073,-3.304,1.086,2.425
14:04:28:317,1.338,-0.441,0.671,0.004,-5.996,3.858,-7.229
14:04:28:372,1.393,-1.214,0.808,0.270,-7.906,7.555,-16.622
14:04:28:373,1.393,-2.238,-0.217,0.122,-8.678,10.192,-22.073
14:04:28:536,1.557,-2.436,-0.977,0.737,-10.896,12.179,-27.823
14:04:28:536,1.557,-1.514,-0.287,0.271,-12.523,11.142,-28.245
14:04:28:537,1.558,1.275,0.455,-0.810,-11.715,11.166,-25.049
14:04:28:538,1.559,-0.111,0.412,0.093,-9.665,13.587,-22.315
14:04:28:558,1.578,-0.450,0.165,0.512,-8.325,16.343,-20.003
14:04:28:558,1.579,-0.886,0.579,0.327,-7.399,19.353,-16.080
14:04:28:663,1.684,-0.321,-0.291,0.158,-7.507,20.603,-13.554
14:04:28:664,1.685,-0.478,-0.135,0.028,-7.938,21.048,-10.891
14:04:28:692,1.713,-0.136,0.037,0.144,-8.470,19.791,-8.946
14:04:28:693,1.714,-0.031,0.009,0.081,-9.045,18.775,-8.052
14:04:28:694,1.715,0.016,-0.003,0.021,-10.117,17.819,-7.092
14:04:28:695,1.716,-0.272,0.028,-0.090,-10.819,17.473,-6.538
14:04:28:713,1.734,-0.203,0.029,-0.078,-11.602,15.909,-5.728
14:04:28:713,1.734,0.184,0.031,0.059,-12.105,13.549,-4.857
14:04:28:824,1.845,0.057,0.017,-0.025,-12.334,13.231,-4.459
14:04:28:825,1.846,-0.082,0.025,-0.089,-12.493,13.016,-3.744
14:04:28:825,1.846,0.096,0.017,-0.029,-12.491,12.253,-2.986
14:04:28:826,1.847,0.043,0.016,0.001,-12.338,11.302,-1.684
14:04:28:844,1.865,-0.047,0.011,-0.020,-12.163,11.118,-0.848
14:04:28:869,1.890,-0.021,-0.001,0.009,-11.888,10.594,0.310
14:04:28:981,2.002,0.030,0.029,-0.027,-11.580,9.977,1.474
14:04:28:982,2.003,0.046,0.039,-0.022,-11.318,9.488,2.322
14:04:28:983,2.004,0.025,0.047,-0.002,-10.856,8.797,3.740
14:04:28:983,2.004,0.029,0.059,0.010,-10.501,8.223,4.800
14:04:29:028,2.049,0.069,0.039,-0.008,-9.864,7.216,6.550
14:04:29:03,2.051,0.038,0.068,-0.003,-9.373,6.650,7.785
14:04:29:11,2.130,0.087,0.071,-0.082,-8.443,5.877,9.754
14:04:29:111,2.131,0.115,0.116,0.024,-7.338,5.254,11.910
14:04:29:111,2.132,0.185,0.203,-0.074,-6.460,4.862,13.471
14:04:29:13,2.151,0.240,0.199,-0.080,-4.856,4.411,16.075
14:04:29:157,2.178,0.381,0.197,-0.008,-3.608,4.156,18.054
14:04:29:184,2.205,0.553,0.253,-0.035,-1.471,4.057,21.494
14:04:29:242,2.262,0.663,0.481,-0.141,0.805,4.284,25.786
14:04:29:242,2.262,1.019,0.321,-0.293,2.535,4.529,29.199
14:04:29:263,2.283,0.892,0.235,-0.557,4.644,6.183,35.447
14:04:29:318,2.339,0.984,0.053,-0.608,5.809,7.730,39.753
14:04:29:318,2.339,0.581,-0.479,-0.478,7.721,10.527,45.077
14:04:29:394,2.415,0.754,-0.650,-0.605,8.603,13.310,48.865
14:04:29:426,2.446,0.455,-0.901,-0.412,10.031,14.511,49.509
14:04:29:426,2.447,0.186,-0.625,-0.314,11.782,16.055,48.806
14:04:29:427,2.448,0.142,-0.649,-0.350,13.186,16.819,47.211
14:04:29:477,2.497,0.175,-0.643,-0.401,14.346,17.725,43.357
14:04:29:477,2.497,0.091,-0.514,-0.397,13.829,18.612,37.518
14:04:29:527,2.548,0.080,-0.453,-0.430,13.046,19.088,32.862
14:04:29:527,2.548,0.094,-0.225,-0.445,11.152,20.004,25.181
14:04:29:55,2.571,0.158,-0.121,-0.461,9.465,21.270,19.968
14:04:29:578,2.599,-0.048,0.142,-0.415,6.643,25.108,12.280
14:04:29:634,2.654,-0.255,0.487,-0.543,4.899,28.909,6.846
14:04:29:634,2.655,-0.740,0.742,-0.292,3.014,36.111,-1.951
14:04:29:656,2.676,-1.134,0.696,-0.036,2.462,44.191,-10.841
14:04:29:681,2.702,-1.798,0.515,0.398,2.876,50.231,-16.114
14:04:29:708,2.729,-1.852,-0.604,2.244,2.805,57.356,-22.806
14:04:29:734,2.755,-1.334,-0.787,1.825,0.436,57.359,-25.878
14:04:29:763,2.784,-0.517,0.291,0.802,-2.802,54.717,-26.562
14:04:29:789,2.810,0.900,0.683,-0.305,-1.488,56.070,-23.351
14:04:29:814,2.835,-0.385,-0.132,0.295,0.262,59.566,-21.041
14:04:29:868,2.889,-0.071,0.034,0.991,0.923,64.481,-16.785
14:04:29:869,2.890,-0.472,0.235,0.338,0.365,66.186,-14.144
14:04:29:979,3.000,-0.236,-0.245,0.251,-1.011,65.805,-10.919
14:04:29:98,3.001,-0.097,0.044,0.068,-1.707,64.915,-9.397
14:04:29:98,3.001,0.015,-0.003,-0.033,-2.576,63.505,-7.848
14:04:29:981,3.002,0.071,-0.014,0.000,-3.428,63.562,-6.784
14:04:30:026,3.047,-0.031,0.010,0.049,-4.113,64.207,-6.237
14:04:30:027,3.047,-0.171,-0.012,0.049,-5.184,64.595,-5.615
14:04:30:049,3.069,-0.120,-0.002,-0.029,-5.775,63.900,-5.218
14:04:30:104,3.125,0.073,0.024,-0.145,-6.505,63.045,-4.628
14:04:30:105,3.126,-0.134,0.034,0.039,-7.063,63.477,-3.996
14:04:30:128,3.149,-0.125,0.018,-0.011,-7.322,63.349,-3.465
14:04:30:184,3.204,0.043,-0.012,-0.091,-7.539,62.394,-2.517
14:04:30:184,3.205,-0.005,0.009,0.011,-7.625,61.965,-1.841
14:04:30:209,3.229,-0.053,0.004,0.029,-7.679,61.716,-0.808
14:04:30:233,3.253,-0.010,0.004,-0.037,-7.629,61.363,-0.133
14:04:30:261,3.282,0.023,0.017,-0.024,-7.465,60.632,0.846
14:04:30:286,3.307,-0.017,0.007,-0.012,-7.281,60.102,1.854
14:04:30:312,3.333,-0.028,0.029,0.008,-7.124,60.536,2.550
14:04:30:338,3.359,0.030,0.007,-0.010,-6.829,59.950,3.649
14:04:30:364,3.385,-0.004,0.066,-0.070,-6.621,60.289,4.397
14:04:30:39,3.411,-0.008,0.074,-0.096,-6.165,59.589,5.812
14:04:30:416,3.437,0.032,0.112,-0.065,-5.492,59.550,7.518
14:04:30:444,3.465,0.076,0.118,-0.066,-4.895,58.999,8.773
14:04:30:47,3.491,0.006,0.145,-0.155,-3.744,58.757,10.782
14:04:30:495,3.516,-0.021,0.162,-0.207,-2.777,58.334,12.234
14:04:30:552,3.572,0.061,0.175,-0.219,-1.064,58.116,14.664
14:04:30:552,3.572,0.173,0.157,-0.323,0.926,58.450,17.400
14:04:30:574,3.595,0.158,0.161,-0.427,2.325,58.681,19.442
14:04:30:6,3.621,0.124,0.196,-0.666,4.662,59.557,23.049
14:04:30:656,3.677,0.111,0.337,-0.874,6.243,60.166,25.907
14:04:30:656,3.677,0.110,0.251,-0.899,8.910,61.534,31.376
14:04:30:708,3.729,0.047,-0.021,-0.980,10.278,63.290,35.534
14:04:30:708,3.729,-0.017,-0.284,-0.965,11.955,66.615,41.366
14:04:30:794,3.814,-0.390,0.309,0.036,13.081,69.690,45.900
14:04:30:794,3.815,-0.080,-0.771,-0.828,13.433,72.058,48.018
14:04:30:795,3.815,-0.066,-0.702,-0.533,13.510,74.172,48.829
14:04:30:795,3.816,-0.151,-0.590,-0.345,13.572,75.376,48.263
14:04:30:867,3.888,-0.191,-0.628,-0.308,13.673,76.690,45.982
14:04:30:867,3.888,-0.199,-0.563,-0.334,13.145,77.630,41.858
14:04:30:947,3.968,-0.270,-0.488,-0.363,12.414,77.898,37.963
14:04:30:948,3.969,-0.253,-0.322,-0.376,11.194,77.855,31.159
14:04:30:949,3.969,-0.211,-0.152,-0.300,9.823,78.022,26.280
14:04:30:972,3.992,-0.198,-0.039,-0.331,7.111,79.004,18.732
14:04:31:023,4.044,-0.341,0.459,-0.045,1.906,84.278,5.410
14:04:31:024,4.045,-0.443,0.706,0.236,-0.547,89.173,-3.505
14:04:31:076,4.097,-0.486,0.782,0.564,-1.704,92.824,-9.600
14:04:31:076,4.097,0.014,0.306,1.493,-2.978,97.992,-18.436
14:04:31:128,4.149,0.380,-0.377,2.351,-4.217,99.882,-23.508
14:04:31:129,4.150,0.692,-0.738,2.227,-8.067,98.811,-28.404
14:04:31:182,4.202,0.496,-0.361,1.112,-10.079,95.949,-27.356
14:04:31:182,4.202,0.515,1.063,-1.352,-8.949,96.284,-24.748
14:04:31:204,4.225,0.150,0.441,0.463,-6.710,99.399,-21.187
14:04:31:232,4.253,0.681,0.115,0.586,-5.913,101.614,-18.502
14:04:31:258,4.279,-0.198,0.172,0.418,-5.719,103.914,-14.222
14:04:31:313,4.334,0.042,-0.233,0.340,-5.886,104.577,-11.758
14:04:31:314,4.335,0.046,0.004,0.256,-6.153,104.354,-8.875
14:04:31:335,4.356,0.079,0.011,0.055,-6.530,103.068,-6.963
14:04:31:362,4.382,-0.001,0.005,-0.063,-6.957,102.278,-6.054
14:04:31:389,4.410,-0.031,0.004,0.020,-7.804,101.941,-4.961
14:04:31:415,4.436,-0.146,0.016,0.134,-8.332,101.708,-4.377
14:04:31:47,4.490,-0.107,0.024,0.099,-8.898,100.358,-3.496
14:04:31:47,4.491,0.002,0.008,-0.158,-9.283,98.775,-2.667
14:04:31:522,4.542,-0.050,0.014,-0.016,-9.505,98.682,-2.198
14:04:31:523,4.543,-0.112,0.026,0.022,-9.733,98.687,-1.368
14:04:31:547,4.568,-0.049,0.008,-0.066,-9.783,98.159,-0.628
14:04:31:572,4.593,-0.004,0.010,-0.037,-9.742,97.279,0.537
14:04:31:657,4.677,-0.016,-0.002,0.012,-9.566,96.771,1.642
14:04:31:657,4.677,-0.002,0.011,-0.007,-9.429,96.396,2.374
14:04:31:658,4.678,-0.048,0.033,-0.031,-9.244,95.748,3.508
14:04:31:947,4.967,-0.043,0.029,-0.046,-9.060,95.286,4.362
14:04:31:947,4.967,-0.040,0.061,-0.153,-8.620,94.313,5.917
14:04:31:948,4.968,-0.059,0.092,-0.115,-8.194,93.629,7.195
14:04:31:975,4.995,-0.022,0.088,-0.096,-7.408,92.783,9.469
14:04:31:975,4.996,-0.024,0.100,-0.110,-6.478,92.185,11.964
14:04:31:976,4.997,-0.110,0.163,-0.140,-5.734,91.935,13.727
14:04:32:051,5.072,0.025,0.230,-0.412,-3.030,91.393,18.831
14:04:32:051,5.072,-0.057,0.219,-0.518,-0.914,90.937,22.605
14:04:32:052,5.073,-0.217,0.284,-0.854,1.594,90.532,27.113
14:04:32:071,5.092,-0.267,0.288,-0.932,3.481,90.233,30.503
14:04:32:181,5.202,-0.475,0.228,-0.842,6.058,90.468,36.559
14:04:32:181,5.202,-0.362,0.007,-0.934,7.188,91.297,40.816
14:04:32:207,5.228,-0.243,-0.475,-0.792,9.353,92.598,45.698
14:04:32:207,5.228,-0.517,0.542,0.586,11.775,93.223,47.992
14:04:32:264,5.285,-0.222,-1.239,-0.628,14.084,93.203,50.295
14:04:32:264,5.285,-0.148,-0.662,-0.315,15.051,93.353,49.509
14:04:32:265,5.286,-0.173,-0.671,-0.235,15.138,93.278,47.954
14:04:32:265,5.286,-0.178,-0.675,-0.344,14.418,92.595,44.043
14:04:32:317,5.337,-0.178,-0.586,-0.361,13.201,91.825,40.321
14:04:32:317,5.338,-0.141,-0.416,-0.389,10.766,90.519,33.843
14:04:32:318,5.339,-0.024,-0.157,-0.401,7.258,90.036,26.716
14:04:32:319,5.339,-0.043,-0.093,-0.429,4.635,90.537,21.693
14:04:32:338,5.359,-0.103,0.293,-0.120,0.973,92.451,13.641
14:04:32:339,5.360,-0.151,0.511,-0.093,-1.171,94.056,7.730
14:04:32:34,5.361,-0.093,0.749,0.255,-3.849,97.054,-2.005
14:04:32:359,5.379,0.125,0.933,1.046,-5.872,100.106,-12.082
14:04:32:443,5.464,0.153,0.305,1.699,-6.956,102.050,-18.270
14:04:32:444,5.465,0.638,-0.601,2.374,-9.441,103.576,-25.585
14:04:32:445,5.466,0.802,-0.638,1.837,-12.078,102.320,-27.775
14:04:32:494,5.515,0.135,-0.137,0.396,-13.152,100.236,-26.002
14:04:32:495,5.516,0.908,0.167,-0.486,-12.055,100.598,-23.550
14:04:32:517,5.537,-0.207,0.304,0.522,-9.333,104.061,-20.595
14:04:32:678,5.699,0.401,0.459,0.899,-7.550,108.040,-17.011
14:04:32:679,5.699,0.120,0.523,0.607,-7.302,110.045,-14.158
14:04:32:71,5.730,0.051,-0.228,0.588,-7.251,111.310,-10.516
14:04:32:71,5.731,0.078,0.029,0.116,-7.301,111.068,-8.414
14:04:32:711,5.732,0.123,0.058,0.092,-7.325,109.645,-6.038
14:04:32:712,5.732,0.015,-0.018,-0.064,-7.851,108.877,-4.565
14:04:32:729,5.750,0.014,-0.010,-0.020,-8.320,109.112,-3.870
14:04:32:73,5.751,-0.078,0.012,0.125,-9.046,109.376,-3.005
14:04:32:886,5.907,-0.098,0.002,0.132,-9.477,108.928,-2.439
14:04:32:912,5.932,-0.007,0.028,-0.110,-9.880,107.465,-1.568
14:04:32:947,5.968,-0.063,0.026,0.081,-10.216,107.101,-0.387
14:04:32:947,5.968,-0.068,-0.004,-0.076,-10.315,106.393,0.479
14:04:32:948,5.969,-0.027,0.010,-0.040,-10.287,105.814,1.145
14:04:33:025,6.045,-0.016,0.025,-0.006,-10.178,105.229,2.232
14:04:33:025,6.046,-0.051,0.002,-0.071,-10.064,104.688,3.079
14:04:33:026,6.047,-0.063,0.021,-0.028,-9.813,104.018,4.375
14:04:33:027,6.048,-0.074,0.043,-0.040,-9.430,103.515,5.820
14:04:33:044,6.065,-0.062,0.064,-0.031,-9.094,103.137,6.973
14:04:33:045,6.066,-0.024,0.083,-0.061,-8.464,102.433,8.943
14:04:33:1,6.121,-0.019,0.092,-0.072,-7.937,101.941,10.408
14:04:33:101,6.122,-0.007,0.130,-0.102,-6.979,101.344,12.719
14:04:33:102,6.123,-0.126,0.249,-0.176,-5.680,100.773,15.234
14:04:33:151,6.172,-0.073,0.252,-0.257,-4.543,100.356,17.121
14:04:33:151,6.172,-0.013,0.223,-0.409,-2.458,99.033,20.290
14:04:33:202,6.222,-0.163,0.260,-0.473,-0.895,98.783,22.656
14:04:33:228,6.249,-0.385,0.251,-0.738,1.924,97.888,26.727
14:04:33:229,6.249,-0.577,0.237,-0.921,4.125,97.113,29.823
14:04:33:31,6.331,-0.619,0.142,-0.797,7.056,96.968,35.432
14:04:33:31,6.331,-0.387,-0.093,-0.638,8.796,98.291,41.757
14:04:33:311,6.332,-0.306,-0.345,-0.644,9.998,99.063,45.330
14:04:33:33,6.351,-0.456,-0.323,-0.638,13.171,99.016,49.058
14:04:33:356,6.377,-0.076,-0.895,-0.486,15.156,98.374,50.243
14:04:33:382,6.403,-0.075,-0.652,-0.365,17.380,97.451,50.077
14:04:33:409,6.430,-0.090,-0.750,-0.304,18.085,96.436,48.071
14:04:33:493,6.514,-0.093,-0.639,-0.285,17.337,95.690,45.807
14:04:33:494,6.515,-0.162,-0.515,-0.325,14.534,94.559,40.743
14:04:33:495,6.516,-0.129,-0.385,-0.387,12.135,93.920,36.733
14:04:33:514,6.535,-0.056,-0.178,-0.367,8.275,93.372,30.147
14:04:33:54,6.561,-0.080,0.074,-0.224,4.609,93.557,23.212
14:04:33:569,6.590,-0.157,0.259,-0.119,2.442,93.897,18.312
14:04:33:652,6.673,-0.099,0.295,0.014,-0.595,94.574,10.316
14:04:33:652,6.673,-0.034,0.517,0.179,-2.734,95.336,4.555
14:04:33:653,6.674,0.086,0.673,0.379,-5.791,96.425,-4.310
14:04:33:671,6.692,0.400,0.698,0.944,-7.850,97.009,-10.241
14:04:33:727,6.748,0.502,0.228,1.337,-10.977,97.507,-18.551
14:04:33:727,6.748,0.799,-0.501,1.851,-14.610,97.225,-25.052
14:04:33:75,6.771,0.946,-0.740,1.913,-16.769,96.553,-27.245
14:04:33:777,6.797,0.204,-0.286,0.677,-17.113,96.042,-26.206
14:04:33:832,6.853,-0.124,0.753,-1.014,-16.017,97.151,-24.565
14:04:33:833,6.854,0.271,0.495,0.175,-14.162,99.727,-23.054
14:04:33:884,6.905,0.351,0.274,0.602,-12.870,102.366,-20.375
14:04:33:885,6.906,0.126,0.339,0.411,-12.787,103.108,-18.265
14:04:33:907,6.928,-0.077,-0.072,0.202,-12.837,104.780,-15.778
14:04:33:963,6.984,-0.085,-0.005,0.240,-12.926,105.145,-14.362
14:04:33:964,6.984,-0.006,-0.011,0.086,-13.174,104.358,-12.068
14:04:33:987,7.007,0.082,0.012,0.012,-13.329,103.995,-10.913
14:04:34:153,7.174,0.066,0.024,0.075,-13.575,104.517,-9.818
14:04:34:154,7.175,-0.150,0.034,0.115,-13.850,104.790,-8.780
14:04:34:155,7.175,-0.184,-0.004,-0.047,-13.925,104.148,-7.842
14:04:34:156,7.176,0.012,-0.005,0.028,-13.683,103.184,-6.238
14:04:34:26,7.281,0.010,0.012,0.046,-13.477,102.687,-5.123
14:04:34:26,7.281,-0.032,0.017,0.033,-13.184,101.695,-3.524
14:04:34:261,7.282,-0.032,0.003,-0.029,-12.830,100.038,-2.094
14:04:34:261,7.282,0.002,-0.001,-0.028,-12.531,99.177,-1.199
14:04:34:281,7.301,-0.005,0.001,0.000,-11.975,97.892,0.078
14:04:34:282,7.302,0.001,-0.001,0.011,-11.575,97.314,0.890
14:04:34:283,7.303,-0.028,0.017,-0.045,-10.992,96.418,2.070
14:04:34:302,7.323,-0.027,-0.005,-0.069,-10.461,95.562,3.157
14:04:34:328,7.349,-0.044,0.016,-0.039,-10.109,95.290,4.007
14:04:34:383,7.404,0.005,0.018,0.037,-9.507,94.819,5.691
14:04:34:384,7.405,-0.064,0.046,-0.029,-9.092,94.467,6.866
14:04:34:437,7.458,-0.053,0.097,-0.033,-8.374,93.273,8.713
14:04:34:437,7.458,-0.001,0.128,-0.041,-7.810,92.911,10.046
14:04:34:459,7.480,0.039,0.161,-0.115,-6.726,92.225,12.176
14:04:34:486,7.506,-0.054,0.259,-0.213,-5.361,91.535,14.467
14:04:34:511,7.532,-0.035,0.207,-0.222,-4.247,91.178,16.135
14:04:34:539,7.560,-0.016,0.177,-0.289,-2.392,91.133,18.996
14:04:34:785,7.806,-0.096,0.207,-0.338,-1.066,91.291,21.123
14:04:34:785,7.806,-0.220,0.217,-0.472,1.255,91.455,24.734
14:04:34:785,7.806,-0.297,0.219,-0.871,4.174,90.744,28.886
14:04:34:786,7.807,-0.434,0.222,-0.881,6.457,90.109,32.076
14:04:34:81,7.831,-0.452,0.121,-0.928,9.550,90.397,38.056
14:04:34:81,7.831,-0.253,-0.200,-0.731,10.690,91.785,42.266
14:04:34:811,7.832,-0.262,0.216,-0.055,12.501,93.807,47.576
14:04:34:812,7.833,-0.239,-0.785,-0.672,15.012,94.555,50.846
14:04:34:833,7.854,-0.125,-0.690,-0.414,15.948,94.523,51.522
14:04:34:834,7.854,-0.183,-0.741,-0.279,16.707,94.699,50.663
14:04:34:835,7.856,-0.203,-0.743,-0.337,16.730,94.305,48.858
14:04:34:994,8.015,-0.188,-0.646,-0.328,15.523,93.259,44.214
14:04:34:994,8.015,-0.123,-0.557,-0.401,14.328,92.169,40.202
14:04:34:995,8.016,-0.025,-0.323,-0.453,11.455,90.812,33.237
14:04:34:995,8.016,-0.073,-0.057,-0.360,7.973,90.400,25.884
14:04:35:016,8.037,-0.106,0.159,-0.134,5.550,90.943,20.871
14:04:35:018,8.038,-0.149,0.426,-0.087,2.359,91.888,12.626
14:04:35:018,8.039,-0.043,0.497,0.024,0.244,92.915,6.561
14:04:35:251,8.272,0.096,0.754,0.299,-2.893,95.882,-3.178
14:04:35:415,8.436,0.197,0.854,1.123,-4.960,100.740,-13.083
14:04:35:415,8.436,0.322,0.448,1.766,-5.394,104.815,-19.051
14:04:35:415,8.436,1.122,-0.951,2.684,-5.621,110.418,-26.032
14:04:35:416,8.437,0.726,-0.029,1.388,-6.941,111.135,-28.030
14:04:35:432,8.452,-0.624,0.451,-0.847,-7.245,110.226,-25.867
14:04:35:468,8.488,0.088,0.517,0.170,-6.331,110.671,-23.858
14:04:35:468,8.489,0.533,0.032,0.443,-4.305,113.698,-20.242
14:04:35:468,8.489,0.420,0.350,0.684,-3.339,116.718,-15.953
14:04:35:469,8.489,-0.057,-0.151,0.203,-3.614,117.485,-13.160
14:04:35:519,8.540,0.029,-0.096,0.354,-4.145,117.830,-9.726
14:04:35:519,8.540,0.062,0.026,0.256,-4.538,116.865,-8.144
14:04:35:52,8.541,-0.028,-0.028,-0.042,-5.143,115.009,-6.457
14:04:35:521,8.542,0.016,-0.006,-0.020,-5.915,114.483,-5.374
14:04:35:571,8.592,0.010,0.009,0.041,-6.510,114.571,-4.759
14:04:35:572,8.593,-0.058,0.033,0.194,-7.281,114.157,-4.002
14:04:35:573,8.594,-0.025,-0.005,-0.094,-7.575,113.031,-3.500
14:04:35:601,8.622,-0.041,0.029,0.090,-8.075,112.031,-2.211
14:04:35:601,8.622,-0.081,0.011,0.089,-8.123,111.844,-1.753
14:04:35:601,8.622,-0.087,-0.013,-0.069,-8.075,111.168,-0.914
14:04:35:601,8.622,-0.032,0.037,0.003,-7.922,111.023,-0.246
14:04:35:618,8.639,-0.013,0.018,0.047,-7.573,111.018,0.856
14:04:35:618,8.639,-0.030,0.023,0.006,-7.327,110.877,1.622
14:04:35:67,8.691,-0.051,0.024,-0.004,-6.892,110.543,2.839
14:04:35:67,8.691,-0.065,0.047,-0.027,-6.412,110.079,4.129
14:04:35:693,8.713,-0.040,0.086,-0.048,-5.946,109.737,5.161
14:04:35:72,8.741,-0.010,0.089,-0.040,-5.034,109.129,7.003
14:04:35:745,8.766,-0.004,0.081,-0.091,-4.304,108.664,8.333
14:04:35:93,8.951,-0.041,0.142,-0.098,-3.032,108.193,10.408
14:04:36:095,9.116,-0.256,0.217,-0.089,-2.008,107.952,11.886
14:04:36:096,9.117,-0.172,0.218,-0.163,-0.228,107.896,14.446
14:04:36:097,9.118,-0.139,0.262,-0.370,1.899,107.875,17.450
14:04:36:098,9.119,-0.339,0.260,-0.523,3.505,107.903,19.715
14:04:36:167,9.187,-0.525,0.205,-0.602,6.167,107.990,23.533
14:04:36:246,9.266,-0.633,0.196,-0.673,8.062,108.243,26.618
14:04:36:297,9.318,-0.601,0.140,-0.480,10.896,109.509,32.206
14:04:36:326,9.347,-0.577,-0.033,-0.583,12.801,112.556,37.871
14:04:36:439,9.460,-0.551,-0.299,-0.636,14.260,114.507,41.080
14:04:36:44,9.460,-0.576,0.001,0.312,16.757,116.947,44.810
14:04:36:44,9.460,-0.728,-0.900,-0.633,17.914,118.147,46.032
14:04:36:44,9.461,-0.411,-0.765,-0.273,18.691,120.376,45.973
14:04:36:49,9.511,-0.467,-0.635,-0.051,18.332,122.155,44.742
14:04:36:49,9.511,-0.490,-0.659,-0.055,17.282,124.499,41.188
14:04:36:491,9.512,-0.551,-0.448,0.010,15.563,126.510,35.773
14:04:36:492,9.512,-0.476,-0.280,0.113,14.228,127.599,31.199
14:04:36:769,9.790,-0.488,-0.163,0.076,11.942,129.167,23.809
14:04:36:795,9.816,-0.452,0.141,0.143,9.114,131.694,16.159
14:04:36:877,9.898,0.092,0.581,0.458,7.198,134.151,11.073
14:04:36:878,9.899,-0.125,0.477,0.450,4.428,139.349,2.963
14:04:36:909,9.930,0.003,0.550,0.651,2.993,143.865,-2.649
14:04:36:91,9.931,0.328,0.679,0.893,1.934,151.409,-11.086
14:04:36:911,9.932,1.611,0.184,1.204,1.841,156.792,-16.259
14:04:36:912,9.933,2.020,-0.490,1.180,0.932,161.383,-23.051
14:04:36:929,9.950,2.088,-0.658,0.768,-2.232,160.431,-26.523
14:04:36:93,9.951,1.322,-0.229,0.142,-3.671,158.622,-26.060
14:04:36:963,9.983,-0.421,0.476,-0.451,-2.233,159.324,-22.559
14:04:36:963,9.983,0.313,-0.058,0.291,-0.742,162.122,-20.018
14:04:36:964,9.984,0.891,0.060,-0.024,0.152,166.307,-15.645
14:04:36:964,9.985,0.057,0.006,0.255,-0.443,168.166,-11.258
14:04:36:981,10.001,0.311,-0.347,0.257,-0.956,168.503,-8.853
14:04:37:04,10.061,0.040,0.065,0.138,-1.419,167.175,-5.956
14:04:37:041,10.062,0.039,0.045,-0.069,-1.634,166.183,-4.505
14:04:37:042,10.063,0.028,-0.032,-0.056,-2.252,165.804,-3.082
14:04:37:043,10.064,0.055,0.000,0.019,-2.787,166.007,-2.418
14:04:37:068,10.089,0.047,0.004,0.087,-3.627,166.238,-1.621
14:04:37:068,10.089,0.077,0.014,0.155,-4.337,165.465,-0.971
14:04:37:069,10.090,-0.155,0.020,-0.049,-4.647,164.475,-0.555
14:04:37:087,10.108,-0.021,0.006,0.051,-5.289,164.510,1.054
14:04:37:088,10.109,-0.040,-0.008,0.070,-5.247,165.146,2.223
14:04:37:121,10.141,-0.005,0.024,0.008,-5.018,165.841,3.034
14:04:37:121,10.142,-0.032,0.017,0.020,-4.850,165.833,3.639
14:04:37:122,10.142,-0.043,0.018,0.050,-4.544,166.258,4.610
14:04:37:122,10.143,-0.072,0.029,0.049,-4.294,166.162,5.559
14:04:37:143,10.164,-0.082,0.027,0.078,-4.036,166.335,6.306
14:04:37:144,10.165,-0.103,0.061,0.034,-3.400,166.114,7.760
14:04:37:145,10.166,-0.078,0.050,-0.003,-2.923,166.359,8.883
14:04:37:227,10.248,-0.091,0.058,-0.014,-2.126,166.251,10.742
14:04:37:227,10.248,-0.153,0.181,0.147,-1.464,166.702,12.091
14:04:37:227,10.248,-0.225,0.251,0.123,-0.114,166.807,14.318
14:04:37:227,10.248,-0.299,0.254,-0.042,1.638,166.926,17.077
14:04:37:244,10.265,-0.412,0.297,-0.040,2.985,167.079,19.264
14:04:37:245,10.266,-0.543,0.217,0.158,5.248,167.927,23.118
14:04:37:268,10.289,-0.760,0.234,0.260,6.898,168.266,26.081
14:04:37:357,10.377,-0.922,0.190,0.353,10.065,168.059,30.930
14:04:37:357,10.378,-0.907,0.023,0.172,12.848,167.122,34.282
14:04:37:358,10.379,-0.892,-0.268,-0.013,16.724,167.144,39.596
14:04:37:359,10.380,-0.421,-0.193,0.158,20.187,168.795,43.780
14:04:37:4,10.420,-0.971,-0.790,0.069,22.430,169.205,45.973
14:04:37:457,10.478,-0.554,-0.837,-0.043,23.834,170.582,47.416
14:04:37:458,10.479,-0.288,-0.706,0.097,23.385,171.499,47.217
14:04:37:459,10.480,-0.314,-0.661,0.125,21.217,173.304,45.263
14:04:37:613,10.634,-0.344,-0.523,0.177,17.520,174.195,41.238
14:04:37:614,10.635,-0.295,-0.437,0.167,14.878,174.709,37.661
14:04:37:721,10.742,-0.204,-0.269,0.203,11.318,175.158,31.301
14:04:37:721,10.742,-0.219,-0.074,0.154,9.284,175.067,26.414
14:04:37:722,10.742,-0.209,0.161,0.173,6.116,175.043,18.718
14:04:37:773,10.793,-0.030,0.274,0.085,2.771,175.940,11.130
14:04:37:773,10.794,0.069,0.445,0.079,0.546,177.235,5.969
14:04:37:774,10.795,0.339,0.546,-0.023,-2.581,-179.887,-2.096
14:04:37:793,10.814,0.553,0.691,-0.125,-4.349,-177.711,-7.715
14:04:37:901,10.922,1.075,0.488,-0.256,-6.122,-173.987,-15.919
14:04:37:902,10.923,1.762,-0.136,-0.123,-7.246,-170.392,-23.195
14:04:37:932,10.953,2.077,-0.675,-0.620,-8.529,-168.961,-26.750
14:04:37:932,10.953,1.297,-0.217,-0.250,-10.431,-169.569,-28.069
14:04:37:933,10.953,-0.952,0.802,0.061,-9.900,-169.373,-26.434
14:04:37:953,10.973,0.321,-0.249,-0.758,-8.450,-167.499,-24.571
14:04:38:091,11.111,0.430,0.169,-0.404,-7.440,-165.415,-22.889
14:04:38:092,11.112,0.425,0.219,-0.384,-7.067,-163.264,-19.934
14:04:38:092,11.113,0.411,0.156,-0.044,-7.596,-161.979,-17.111
14:04:38:093,11.114,0.151,-0.060,0.024,-7.915,-161.630,-15.457
14:04:38:113,11.133,0.191,-0.061,0.120,-8.563,-162.039,-13.118
14:04:38:114,11.134,0.014,-0.056,0.070,-8.975,-162.599,-11.750
14:04:38:192,11.213,0.055,0.020,-0.033,-9.493,-162.841,-10.260
14:04:38:192,11.213,-0.076,0.071,0.059,-9.989,-162.773,-9.130
14:04:38:245,11.266,-0.057,-0.001,0.185,-10.167,-162.720,-8.295
14:04:38:246,11.267,0.049,0.029,0.067,-10.151,-162.663,-6.743
14:04:38:246,11.267,0.026,0.020,-0.005,-10.021,-162.687,-5.681
14:04:38:272,11.292,-0.001,0.010,0.007,-9.758,-162.649,-4.179
14:04:38:273,11.293,0.037,0.050,0.042,-9.545,-162.823,-3.173
14:04:38:273,11.294,0.018,-0.011,0.050,-9.127,-163.197,-1.826
14:04:38:376,11.397,-0.022,0.000,0.019,-8.622,-163.797,-0.528
14:04:38:376,11.397,-0.033,-0.015,0.023,-8.292,-164.099,0.320
14:04:38:432,11.453,0.016,0.009,0.033,-7.831,-164.446,1.545
14:04:38:432,11.453,-0.006,-0.002,0.028,-7.514,-164.730,2.341
14:04:38:432,11.453,-0.051,0.007,0.045,-7.040,-165.145,3.486
14:04:38:56,11.581,-0.036,0.033,0.078,-6.625,-165.407,4.645
14:04:38:561,11.582,-0.067,0.041,0.095,-6.184,-165.755,5.661
14:04:38:562,11.583,-0.046,0.068,0.080,-5.450,-166.093,7.390
14:04:38:586,11.607,-0.070,0.079,0.088,-4.910,-166.471,8.669
14:04:38:586,11.607,-0.097,0.098,0.021,-3.984,-166.982,10.772
14:04:38:666,11.687,-0.143,0.181,0.061,-2.848,-167.347,13.136
14:04:38:666,11.687,-0.182,0.255,0.152,-1.919,-167.234,14.850
14:04:38:667,11.687,-0.267,0.242,0.127,-0.177,-167.455,17.761
14:04:38:744,11.765,-0.382,0.246,0.183,1.159,-167.399,19.986
14:04:38:745,11.766,-0.434,0.198,0.287,3.292,-166.974,23.846
14:04:38:745,11.766,-0.556,0.274,0.606,4.853,-166.499,26.826
14:04:38:849,11.870,-0.749,0.228,0.708,8.114,-167.179,31.782
14:04:38:85,11.870,-0.967,0.051,0.752,12.977,-169.168,37.122
14:04:38:851,11.871,-1.031,-0.142,0.481,16.088,-169.487,40.952
14:04:38:982,12.003,-0.624,-0.284,0.415,20.484,-168.325,46.013
14:04:38:982,12.003,-0.346,-0.044,0.328,22.916,-167.575,48.813
14:04:38:982,12.003,-0.606,-0.925,0.138,24.164,-165.682,50.963
14:04:39:008,12.029,-0.255,-0.691,0.183,22.033,-163.361,50.996
14:04:39:008,12.029,-0.165,-0.708,0.205,19.928,-162.164,49.742
14:04:39:008,12.029,-0.176,-0.673,0.281,16.673,-161.273,45.480
14:04:39:191,12.212,-0.190,-0.520,0.276,14.804,-161.329,41.443
14:04:39:191,12.212,-0.310,-0.379,0.247,12.047,-162.032,34.141
14:04:39:192,12.213,-0.413,-0.180,0.214,10.301,-162.693,28.704
14:04:39:32,12.341,-0.250,0.113,0.148,7.267,-162.721,20.397
14:04:39:32,12.341,-0.204,0.407,0.250,3.930,-160.954,11.551
14:04:39:347,12.368,-0.017,0.618,0.144,1.605,-158.241,5.204
14:04:39:348,12.369,0.410,0.899,0.086,-1.126,-151.807,-4.808
14:04:39:349,12.370,1.198,0.821,-0.401,-1.940,-143.757,-14.420
14:04:39:376,12.397,1.885,0.252,-0.668,-1.485,-138.572,-19.906
14:04:39:376,12.397,2.116,-1.053,-1.927,-2.025,-134.710,-25.810
14:04:39:376,12.397,0.848,-0.087,-0.761,-4.049,-136.388,-26.720
14:04:39:402,12.422,0.363,-0.274,-0.479,-4.478,-138.589,-24.242
14:04:39:402,12.422,0.289,0.013,-0.103,-3.572,-138.518,-22.189
14:04:39:402,12.423,0.016,0.396,-0.458,-2.266,-135.519,-18.500
14:04:39:451,12.471,0.544,0.403,-0.755,-1.722,-132.379,-14.508
14:04:39:451,12.472,0.206,0.241,-0.280,-2.273,-131.192,-11.662
14:04:39:477,12.498,0.453,-0.150,-0.119,-3.181,-131.023,-8.195
14:04:39:477,12.498,0.150,0.050,-0.026,-3.669,-132.084,-6.308
14:04:39:505,12.526,-0.043,0.033,0.057,-4.162,-133.803,-4.047
14:04:39:506,12.527,-0.023,-0.051,0.079,-4.546,-133.816,-2.443
14:04:39:506,12.527,0.062,0.057,0.025,-4.854,-133.197,-1.598
14:04:39:583,12.603,0.119,-0.007,-0.010,-5.226,-132.763,-0.531
14:04:39:583,12.603,0.046,0.032,0.009,-5.362,-133.067,0.148
14:04:39:605,12.626,-0.061,0.011,0.024,-5.477,-133.352,0.983
14:04:39:634,12.655,0.015,0.011,-0.005,-5.577,-133.094,1.442
14:04:39:635,12.656,0.052,0.011,0.017,-5.736,-132.715,2.050
14:04:39:664,12.685,-0.008,0.011,-0.004,-5.959,-132.838,2.664
14:04:39:664,12.685,-0.009,0.001,0.030,-6.116,-132.990,3.046
14:04:39:664,12.685,0.019,0.008,0.030,-6.315,-133.194,3.629
14:04:39:686,12.707,0.012,0.008,0.087,-6.355,-133.414,4.046
14:04:39:686,12.707,-0.025,0.018,0.101,-6.239,-133.839,4.787
14:04:39:711,12.732,0.007,0.039,0.112,-5.942,-134.302,5.803
14:04:39:762,12.783,-0.017,0.045,0.119,-5.899,-134.666,6.339
14:04:39:791,12.811,-0.043,0.093,0.047,-5.309,-135.338,7.919
14:04:39:791,12.812,-0.080,0.078,-0.023,-4.890,-136.069,9.184
14:04:39:842,12.863,-0.071,0.113,0.121,-4.073,-136.958,11.323
14:04:39:868,12.889,-0.033,0.252,0.208,-2.884,-137.543,13.629
14:04:39:925,12.945,-0.102,0.251,0.218,-1.819,-137.846,15.303
14:04:39:925,12.945,-0.306,0.268,0.168,0.157,-138.419,18.243
14:04:39:946,12.967,-0.324,0.322,0.513,1.790,-138.822,20.520
14:04:40:002,13.023,-0.335,0.238,0.641,4.508,-139.032,24.555
14:04:40:002,13.023,-0.322,0.247,0.912,6.469,-139.081,27.765
14:04:40:057,13.078,-0.243,0.147,0.876,9.686,-139.282,32.954
14:04:40:057,13.078,-0.362,-0.023,0.846,12.679,-138.513,38.422
14:04:40:058,13.079,-0.338,-0.308,0.619,14.525,-137.229,41.669
14:04:40:215,13.236,0.558,0.105,0.252,17.933,-135.675,45.356
14:04:40:215,13.236,-0.438,-0.998,0.636,19.545,-134.976,47.081
14:04:40:215,13.236,-0.260,-0.721,0.370,21.263,-134.036,47.272
14:04:40:236,13.257,-0.086,-0.727,0.447,20.948,-132.215,45.781
14:04:40:293,13.313,-0.146,-0.754,0.477,20.055,-131.406,43.729
14:04:40:294,13.314,0.023,-0.530,0.434,17.306,-130.281,38.804
14:04:40:294,13.315,0.022,-0.434,0.408,15.294,-129.640,34.902
14:04:40:418,13.439,-0.108,-0.293,0.439,11.816,-128.452,28.279
14:04:40:45,13.471,0.005,-0.008,0.398,9.491,-127.247,23.650
14:04:40:451,13.472,0.218,0.285,0.238,6.201,-124.365,16.490
14:04:40:451,13.472,0.260,0.514,0.192,3.223,-120.691,8.459
14:04:40:479,13.499,0.343,0.707,0.030,1.391,-117.387,2.577
14:04:40:479,13.499,0.544,0.841,-0.500,-0.521,-111.042,-6.466
14:04:40:479,13.500,1.037,0.535,-1.483,-1.006,-106.476,-12.086
14:04:40:527,13.547,0.887,-0.332,-2.397,-1.499,-100.769,-18.975
14:04:40:528,13.548,0.313,-0.427,-1.935,-3.443,-99.774,-22.442
14:04:40:658,13.679,-0.239,-0.165,-1.288,-4.397,-100.807,-21.933
14:04:40:659,13.679,0.047,0.229,0.378,-3.129,-99.695,-18.222
14:04:40:765,13.786,0.006,0.188,-0.362,-2.112,-97.605,-15.804
14:04:40:766,13.787,-0.026,0.526,-1.126,-1.696,-94.677,-11.406
14:04:40:767,13.788,0.058,-0.453,-0.165,-2.498,-93.728,-6.831
14:04:40:817,13.838,0.250,-0.284,-0.562,-3.043,-92.830,-4.455
14:04:40:818,13.839,0.027,0.112,0.020,-3.622,-94.372,-1.882
14:04:40:819,13.840,-0.067,0.043,0.016,-3.947,-95.509,-0.801
14:04:40:871,13.892,-0.036,-0.048,0.119,-4.585,-95.925,0.606
14:04:40:872,13.892,0.067,0.074,-0.013,-4.912,-95.697,1.376
14:04:40:872,13.893,0.143,-0.002,-0.099,-5.259,-95.287,2.404
14:04:40:923,13.944,-0.044,0.024,0.129,-5.404,-96.057,3.418
14:04:40:923,13.944,-0.051,0.027,0.071,-5.450,-96.371,4.102
14:04:40:926,13.947,0.055,0.023,0.013,-5.579,-96.162,5.020
14:04:40:952,13.973,0.001,0.027,0.040,-5.628,-96.146,5.637
14:04:40:953,13.974,0.000,0.016,0.044,-5.647,-96.381,6.618
14:04:40:954,13.975,0.021,0.007,0.037,-5.587,-96.431,7.568
14:04:40:954,13.975,0.001,0.025,0.013,-5.496,-96.409,8.226
14:04:40:999,14.020,0.024,0.039,0.027,-5.319,-96.466,9.224
14:04:41:024,14.045,0.026,0.058,0.076,-4.904,-96.642,10.968
14:04:41:025,14.046,0.029,0.091,0.099,-4.626,-96.935,11.874
14:04:41:106,14.127,-0.004,0.116,0.160,-4.052,-97.317,13.466
14:04:41:107,14.128,-0.034,0.091,0.202,-3.244,-97.891,15.413
14:04:41:107,14.128,-0.039,0.117,0.234,-2.562,-98.124,16.928
14:04:41:126,14.147,0.059,0.165,0.310,-1.305,-97.857,19.508
14:04:41:154,14.175,0.091,0.203,0.356,-0.286,-97.618,21.464
14:04:41:208,14.229,0.035,0.200,0.500,1.498,-97.220,24.826
14:04:41:209,14.229,0.102,0.212,0.642,3.734,-97.015,28.627
14:04:41:607,14.628,0.195,0.245,0.919,5.689,-97.297,31.440
14:04:41:607,14.628,0.344,0.128,1.108,9.414,-97.947,36.493
14:04:41:607,14.628,0.328,0.040,1.096,11.633,-97.554,40.432
14:04:41:658,14.679,0.084,-0.346,0.818,14.474,-95.676,45.948
14:04:41:658,14.679,0.375,-0.515,0.684,16.954,-94.082,49.880
14:04:41:659,14.680,0.052,-0.981,0.655,18.176,-93.853,51.210
14:04:41:734,14.755,-0.016,-0.734,0.306,18.927,-93.391,51.296
14:04:41:735,14.756,0.039,-0.698,0.301,18.813,-93.456,50.105
14:04:41:765,14.785,0.003,-0.774,0.453,17.515,-94.119,46.470
14:04:41:765,14.785,0.044,-0.624,0.318,15.693,-95.001,42.499
14:04:41:765,14.785,0.014,-0.459,0.352,12.806,-96.735,35.526
14:04:41:841,14.862,-0.169,-0.267,0.538,9.204,-98.261,27.461
14:04:41:841,14.862,-0.110,-0.041,0.483,6.575,-98.445,21.986
14:04:41:894,14.915,0.024,0.425,0.190,2.691,-96.963,13.485
14:04:41:895,14.916,0.057,0.845,0.016,0.200,-94.883,7.283
14:04:41:895,14.916,0.071,1.108,-0.504,-2.959,-89.719,-2.716
14:04:41:922,14.943,-0.027,1.270,-1.527,-4.410,-83.217,-12.283
14:04:41:922,14.943,-0.089,-0.166,-2.891,-4.378,-78.660,-17.234
14:04:41:922,14.943,-0.542,-0.466,-1.911,-5.207,-75.627,-22.118
14:04:41:97,14.991,-0.566,-0.164,-1.553,-6.236,-76.448,-22.203
14:04:42:052,15.073,0.527,0.596,0.982,-5.462,-76.332,-18.750
14:04:42:052,15.073,-0.381,0.613,-0.779,-4.937,-75.649,-16.256
14:04:42:053,15.074,-0.211,0.388,-0.721,-4.326,-73.596,-11.813
14:04:42:078,15.099,-0.073,-0.186,-0.473,-4.565,-71.812,-7.680
14:04:42:079,15.100,-0.154,-0.138,-0.519,-4.936,-70.716,-5.664
14:04:42:08,15.101,0.004,0.032,-0.076,-5.569,-71.862,-3.291
14:04:42:13,15.151,0.035,-0.023,0.088,-6.094,-73.056,-2.240
14:04:42:131,15.152,0.065,-0.044,0.092,-6.974,-74.088,-0.921
14:04:42:132,15.152,0.057,0.011,-0.032,-7.754,-74.477,0.193
14:04:42:184,15.204,0.038,0.038,-0.012,-8.119,-74.847,0.859
14:04:42:184,15.204,0.018,0.011,0.072,-8.531,-75.798,1.916
14:04:42:184,15.205,0.010,0.016,0.045,-8.753,-76.081,2.550
14:04:42:212,15.233,-0.003,0.026,-0.039,-8.960,-76.236,3.457
14:04:42:212,15.233,-0.001,-0.009,0.025,-9.094,-76.564,4.332
14:04:42:212,15.233,0.014,-0.008,0.035,-9.131,-76.735,4.855
14:04:42:237,15.258,0.045,0.010,-0.009,-9.167,-76.799,5.551
14:04:42:237,15.258,0.010,0.028,0.001,-9.166,-76.807,6.014
14:04:42:237,15.258,-0.017,0.016,0.071,-9.075,-77.046,6.798
14:04:42:257,15.278,0.053,0.032,0.083,-8.942,-77.198,7.405
14:04:42:314,15.335,0.037,0.056,0.047,-8.662,-77.494,8.517
14:04:42:315,15.336,-0.030,0.054,0.073,-8.313,-77.582,9.843
14:04:42:316,15.336,-0.013,0.067,0.089,-8.054,-77.847,10.821
14:04:42:578,15.599,0.010,0.072,0.076,-7.609,-78.128,12.430
14:04:42:579,15.599,0.042,0.117,0.115,-7.240,-78.438,13.614
14:04:42:579,15.599,0.080,0.160,0.174,-6.489,-78.784,15.569
14:04:42:629,15.650,0.132,0.214,0.244,-5.425,-79.308,17.872
14:04:42:63,15.651,0.062,0.158,0.307,-4.533,-79.480,19.664
14:04:42:63,15.651,0.109,0.147,0.373,-3.040,-79.543,22.692
14:04:42:919,15.939,0.180,0.138,0.408,-2.005,-79.329,24.933
14:04:42:919,15.940,0.250,0.165,0.399,-0.273,-79.209,28.666
14:04:42:92,15.941,0.337,0.225,0.635,1.344,-79.680,31.441
14:04:43:049,16.070,0.473,0.166,0.864,4.846,-81.394,36.201
14:04:43:05,16.071,0.452,0.032,0.946,8.587,-82.552,41.607
14:04:43:051,16.072,0.401,-0.245,0.818,10.800,-82.452,45.015
14:04:43:077,16.098,0.570,0.565,-0.283,14.585,-82.370,48.923
14:04:43:078,16.098,0.131,-1.046,0.652,16.821,-82.712,50.839
14:04:43:078,16.098,0.072,-0.860,0.522,18.738,-83.324,51.099
14:04:43:1,16.121,0.132,-0.703,0.255,17.903,-83.475,49.318
14:04:43:101,16.121,0.177,-0.753,0.320,16.672,-83.922,46.903
14:04:43:207,16.228,0.259,-0.500,0.428,13.634,-85.090,41.553
14:04:43:208,16.229,0.169,-0.520,0.439,11.405,-86.281,36.836
14:04:43:208,16.229,-0.031,-0.201,0.455,7.623,-88.008,29.444
14:04:43:254,16.275,0.063,0.009,0.403,3.561,-88.738,21.634
14:04:43:391,16.412,0.089,0.347,0.161,0.870,-88.443,16.198
14:04:43:391,16.412,-0.032,0.611,0.125,-3.226,-87.089,7.244
14:04:43:393,16.414,-0.119,0.831,-0.054,-5.876,-85.295,0.646
14:04:43:547,16.568,-0.533,1.136,-0.977,-9.162,-81.848,-9.630
14:04:43:547,16.568,-0.303,0.114,-2.265,-10.804,-79.568,-16.260
14:04:43:627,16.648,-1.193,-0.803,-2.730,-12.951,-76.620,-24.158
14:04:43:627,16.648,-0.448,0.072,-1.239,-15.288,-77.923,-25.872
14:04:43:683,16.704,-0.047,-0.223,-0.731,-14.651,-78.573,-23.628
14:04:43:684,16.704,-0.757,-0.109,-0.080,-12.743,-78.526,-20.072
14:04:43:685,16.705,-0.569,0.165,-0.326,-11.211,-76.993,-17.650
14:04:43:685,16.706,-0.353,0.355,-0.694,-9.805,-74.018,-14.221
14:04:43:703,16.724,-0.158,-0.101,-0.267,-9.475,-72.080,-10.283
14:04:43:704,16.724,-0.016,-0.056,-0.424,-9.441,-71.364,-8.182
14:04:43:763,16.784,-0.067,0.028,-0.147,-9.648,-72.167,-5.702
14:04:43:763,16.784,-0.078,-0.001,-0.014,-9.875,-73.453,-4.524
14:04:43:764,16.785,0.021,-0.045,0.090,-10.599,-74.560,-3.309
14:04:43:764,16.785,-0.010,0.026,0.019,-11.219,-74.564,-2.763
14:04:43:893,16.914,0.093,0.036,-0.161,-12.075,-74.282,-2.113
14:04:43:894,16.914,0.069,-0.007,0.095,-12.551,-75.309,-1.353
14:04:43:894,16.915,0.073,-0.003,0.183,-12.662,-76.229,-0.762
14:04:43:895,16.916,0.067,0.022,0.004,-12.680,-76.436,0.038
14:04:43:92,16.941,0.056,0.012,0.043,-12.549,-76.658,0.650
14:04:43:92,16.941,-0.006,0.011,0.082,-12.121,-77.393,1.736
14:04:43:921,16.942,0.005,-0.011,0.014,-11.622,-77.741,2.840
14:04:43:921,16.942,0.038,0.016,0.053,-10.891,-78.425,4.815
14:04:43:945,16.966,0.055,0.057,0.108,-9.715,-80.546,8.499
14:04:43:946,16.967,-0.026,0.093,0.085,-9.124,-80.951,10.342
14:04:43:947,16.968,0.045,0.191,0.153,-7.564,-82.249,14.436
14:04:43:947,16.968,0.120,0.244,0.248,-6.130,-83.283,17.317
14:04:44:022,17.042,0.020,0.234,0.394,-4.960,-83.641,19.553
14:04:44:022,17.043,0.052,0.251,0.483,-2.910,-84.223,23.415
14:04:44:023,17.043,0.176,0.298,0.691,-0.316,-85.052,27.991
14:04:44:074,17.094,0.328,0.261,1.016,2.016,-86.378,31.455
14:04:44:074,17.095,0.518,0.141,0.918,5.598,-87.968,37.008
14:04:44:076,17.096,0.370,-0.085,0.991,7.454,-87.964,41.060
14:04:44:093,17.114,0.224,-0.421,0.899,10.277,-87.203,45.981
14:04:44:18,17.201,0.874,0.644,-0.782,14.278,-87.638,49.000
14:04:44:18,17.201,0.168,-1.353,1.018,16.459,-88.865,49.944
14:04:44:18,17.201,-0.099,-0.882,0.451,18.122,-90.422,48.877
14:04:44:231,17.252,0.090,-0.664,0.231,18.025,-90.924,47.069
14:04:44:232,17.252,0.132,-0.810,0.388,16.371,-92.145,42.723
14:04:44:233,17.253,0.152,-0.477,0.443,14.062,-92.850,38.651
14:04:44:283,17.304,0.145,-0.384,0.356,10.673,-94.411,31.500
14:04:44:284,17.305,-0.055,-0.124,0.372,6.677,-95.474,23.866
14:04:44:285,17.306,-0.015,-0.019,0.393,3.961,-95.620,18.547
14:04:44:363,17.384,0.025,0.426,0.071,0.019,-94.584,10.336
14:04:44:363,17.384,-0.039,0.770,0.003,-2.604,-93.088,4.343
14:04:44:363,17.384,-0.176,0.939,-0.437,-6.243,-88.936,-5.487
14:04:44:383,17.404,-0.289,0.875,-1.211,-8.429,-83.709,-15.184
14:04:44:415,17.436,-0.061,0.289,-1.980,-8.952,-79.837,-20.663
14:04:44:416,17.436,-0.787,-1.018,-2.437,-10.961,-77.853,-25.690
14:04:44:417,17.437,-0.461,-0.158,-1.277,-12.233,-79.112,-25.375
14:04:44:471,17.492,-0.506,0.023,-0.248,-10.653,-78.657,-21.948
14:04:44:472,17.493,-0.071,-0.138,-0.232,-9.115,-77.501,-19.943
14:04:44:472,17.493,-0.595,0.213,-0.495,-7.475,-73.742,-16.647
14:04:44:473,17.494,-0.467,0.551,-0.931,-7.113,-71.057,-12.890
14:04:44:493,17.514,-0.119,-0.186,-0.087,-7.469,-70.244,-10.319
14:04:44:494,17.515,0.019,-0.036,-0.392,-8.060,-70.110,-7.633
14:04:44:495,17.516,-0.052,0.081,-0.109,-8.365,-71.617,-6.121
14:04:44:518,17.539,-0.026,-0.006,0.097,-9.081,-73.942,-4.406
14:04:44:518,17.539,0.055,0.023,0.084,-9.958,-74.654,-3.295
14:04:44:539,17.560,0.091,0.031,-0.131,-10.353,-74.429,-2.767
14:04:44:566,17.586,0.075,0.019,0.044,-10.656,-75.788,-1.850
14:04:44:621,17.641,0.045,0.018,0.083,-10.737,-76.704,-1.293
14:04:44:622,17.642,0.122,0.028,-0.020,-10.595,-76.625,-0.623
14:04:44:645,17.666,0.103,0.033,0.085,-10.260,-76.856,0.252
14:04:44:67,17.691,0.056,0.026,0.128,-9.958,-77.145,1.072
14:04:44:696,17.717,-0.003,0.057,-0.008,-9.475,-77.112,2.446
14:04:44:751,17.772,-0.003,0.004,-0.018,-9.173,-77.144,3.378
14:04:44:777,17.797,0.005,0.018,0.019,-8.693,-77.881,4.770
14:04:44:803,17.823,0.004,0.022,0.017,-8.348,-78.005,5.707
14:04:44:832,17.852,0.037,0.050,0.097,-7.757,-78.790,7.161
14:04:44:832,17.853,-0.004,0.086,0.111,-7.086,-79.371,8.886
14:04:44:854,17.875,-0.053,0.098,0.057,-6.628,-79.457,10.150
14:04:44:88,17.901,-0.051,0.052,0.075,-5.878,-80.308,12.181
14:04:44:907,17.928,0.078,0.068,0.084,-5.283,-80.548,13.577
14:04:44:962,17.983,0.078,0.074,0.128,-4.243,-81.365,15.751
14:04:44:963,17.983,0.140,0.170,0.217,-3.006,-81.267,18.127
14:04:44:987,18.008,0.134,0.196,0.218,-2.071,-81.680,19.923
14:04:45:013,18.033,0.094,0.174,0.350,-0.464,-81.402,22.968
14:04:45:039,18.060,0.117,0.230,0.458,0.865,-81.630,25.267
14:04:45:064,18.085,0.148,0.242,0.628,3.442,-82.307,29.039
14:04:45:091,18.112,0.457,0.223,0.934,5.861,-83.446,31.909
14:04:45:116,18.137,0.553,0.107,0.962,9.417,-83.984,37.086
14:04:45:144,18.164,0.477,-0.215,0.842,12.105,-82.488,42.433
14:04:45:169,18.190,0.252,-0.042,0.350,13.619,-81.086,45.528
14:04:45:225,18.246,0.501,-0.742,0.719,15.517,-79.481,48.979
14:04:45:225,18.246,0.253,-0.782,0.480,16.511,-78.643,49.717
14:04:45:306,18.327,0.279,-0.668,0.269,16.923,-77.411,49.179
14:04:45:306,18.327,0.295,-0.696,0.271,16.829,-76.717,46.583
14:04:45:308,18.328,0.418,-0.554,0.407,15.956,-76.426,43.558
14:04:45:327,18.347,0.392,-0.574,0.242,14.147,-76.439,37.413
14:04:45:354,18.375,0.268,-0.266,0.254,12.517,-76.521,32.738
14:04:45:464,18.485,0.270,-0.187,0.329,9.396,-76.051,25.223
14:04:45:464,18.485,0.315,0.144,0.126,7.037,-74.939,20.098
14:04:45:465,18.486,0.280,0.362,-0.033,3.504,-72.045,12.026
14:04:45:487,18.508,0.217,0.598,-0.141,0.109,-67.802,2.913
14:04:45:488,18.509,0.207,0.875,-0.372,-1.662,-64.398,-3.560
14:04:45:51,18.531,-0.526,0.977,-1.107,-3.328,-58.189,-13.021
14:04:45:539,18.560,-0.805,0.228,-1.822,-3.650,-53.964,-18.696
14:04:45:617,18.638,-1.763,-0.821,-2.046,-4.679,-49.421,-25.091
14:04:45:647,18.668,-1.133,-0.243,-1.281,-6.877,-50.089,-26.182
14:04:45:648,18.669,-0.086,0.133,0.376,-6.210,-49.529,-24.015
14:04:45:649,18.670,-0.291,0.030,-0.236,-4.019,-45.858,-21.128
14:04:45:699,18.719,-0.628,0.260,0.011,-3.245,-42.647,-18.791
14:04:45:699,18.719,-0.768,0.447,-0.616,-3.103,-39.835,-15.170
14:04:45:72,18.741,-0.287,-0.152,-0.336,-4.281,-39.600,-11.691
14:04:45:776,18.797,-0.162,-0.092,-0.280,-4.960,-40.160,-9.905
14:04:45:776,18.797,-0.035,0.020,-0.064,-5.854,-41.987,-8.018
14:04:45:801,18.822,0.039,-0.025,0.051,-6.374,-43.107,-7.018
14:04:45:855,18.876,0.073,0.015,0.065,-7.176,-43.560,-5.889
14:04:45:855,18.876,-0.013,0.006,-0.121,-7.692,-43.417,-5.252
14:04:45:88,18.900,0.003,0.022,-0.153,-8.360,-44.223,-4.449
14:04:45:936,18.956,0.049,0.023,0.151,-8.789,-45.572,-3.675
14:04:45:936,18.956,0.041,0.018,0.014,-8.943,-45.583,-3.213
14:04:45:958,18.979,0.125,0.003,-0.021,-8.920,-45.446,-2.255
14:04:45:983,19.004,-0.001,0.022,0.038,-8.709,-45.534,-1.352
14:04:46:042,19.063,-0.034,-0.007,0.043,-8.333,-45.584,0.064
14:04:46:042,19.063,0.002,0.000,-0.022,-8.000,-45.375,1.340
14:04:46:091,19.111,0.012,0.028,-0.036,-7.770,-45.353,2.136
14:04:46:117,19.137,0.019,0.015,0.019,-7.330,-45.591,3.367
14:04:46:118,19.138,0.031,0.045,0.020,-6.982,-45.781,4.213
14:04:46:142,19.162,0.032,0.047,0.036,-6.378,-46.158,5.616
14:04:46:196,19.216,0.037,0.025,0.033,-5.920,-46.564,6.641
14:04:46:197,19.217,0.029,0.060,0.058,-5.157,-46.946,8.233
14:04:46:219,19.240,0.058,0.082,0.074,-4.202,-47.491,10.033
14:04:46:303,19.324,0.099,0.170,0.037,-3.427,-47.628,11.331
14:04:46:304,19.325,0.181,0.190,0.057,-1.992,-48.082,13.442
14:04:46:305,19.326,0.160,0.171,0.153,-0.856,-48.124,15.005
14:04:46:383,19.404,0.242,0.228,0.197,1.030,-48.124,17.570
14:04:46:383,19.404,0.375,0.215,0.252,3.180,-47.632,20.472
14:04:46:406,19.426,0.500,0.174,0.284,4.834,-47.322,22.624
14:04:46:407,19.427,0.734,0.204,0.329,7.499,-47.058,26.412
14:04:46:434,19.455,0.847,0.169,0.317,9.517,-46.609,29.534
14:04:46:434,19.455,0.835,0.081,0.289,12.568,-44.853,35.071
14:04:46:541,19.562,0.796,-0.206,0.257,14.671,-41.130,40.487
14:04:46:542,19.562,0.557,-0.273,0.276,15.800,-38.766,43.720
14:04:46:543,19.563,0.980,-0.670,0.150,16.769,-35.288,47.395
14:04:46:67,19.691,0.706,-0.988,0.214,17.140,-34.165,48.255
14:04:46:671,19.692,0.458,-0.538,-0.175,16.104,-31.449,47.662
14:04:46:781,19.801,0.505,-0.689,-0.166,15.494,-30.990,45.931
14:04:46:781,19.802,0.479,-0.594,-0.173,14.567,-30.181,41.220
14:04:46:782,19.802,0.416,-0.500,-0.174,13.314,-30.658,34.360
14:04:46:783,19.803,0.455,-0.380,-0.043,12.031,-31.324,29.220
14:04:46:806,19.827,0.403,-0.098,-0.038,9.096,-31.743,21.216
14:04:46:807,19.827,0.242,0.241,-0.160,6.729,-31.087,16.009
14:04:46:807,19.827,0.248,0.437,-0.212,2.687,-28.005,7.826
14:04:46:908,19.929,-0.061,0.740,-0.253,-1.088,-21.845,-1.378
14:04:46:908,19.929,-0.803,0.929,-0.362,-2.698,-16.399,-7.883
14:04:46:928,19.949,-1.661,0.481,-0.858,-3.285,-8.709,-17.041
14:04:46:959,19.980,-3.127,-0.693,-0.581,-3.196,-4.280,-22.036
14:04:46:96,19.981,-2.280,-0.685,0.002,-5.341,-3.356,-25.806
14:04:47:016,20.036,0.014,0.188,0.526,-6.854,-5.389,-24.898
14:04:47:016,20.036,0.499,0.541,0.487,-5.791,-5.560,-21.273
14:04:47:016,20.037,-0.241,0.228,0.291,-4.497,-2.502,-17.690
14:04:47:067,20.088,-0.687,-0.007,0.229,-4.124,-0.168,-15.207
14:04:47:067,20.088,-0.568,0.171,-0.086,-4.673,2.211,-11.462
14:04:47:068,20.089,-0.437,-0.072,-0.107,-5.329,2.445,-9.583
14:04:47:088,20.109,-0.136,0.016,0.007,-6.221,1.264,-7.531
14:04:47:089,20.110,0.021,0.001,0.013,-7.060,0.065,-6.199
14:04:47:114,20.135,0.053,-0.039,-0.008,-7.676,0.019,-5.539
14:04:47:167,20.188,0.005,0.039,-0.004,-8.648,0.702,-4.769
14:04:47:168,20.189,-0.067,-0.007,-0.146,-9.186,0.929,-4.253
14:04:47:247,20.268,0.072,0.011,-0.035,-9.671,0.307,-3.433
14:04:47:248,20.269,0.157,-0.016,-0.002,-9.988,-0.050,-2.516
14:04:47:275,20.296,-0.015,0.002,-0.059,-10.222,0.307,-1.874
14:04:47:275,20.296,-0.060,0.009,-0.003,-10.478,0.404,-0.789
14:04:47:381,20.402,0.010,-0.008,0.043,-10.580,0.019,-0.035
14:04:47:382,20.402,0.029,0.005,-0.005,-10.745,-0.273,1.038
14:04:47:383,20.403,0.000,0.022,-0.006,-10.819,-0.351,1.751
14:04:47:403,20.424,0.049,0.014,0.010,-10.867,-0.793,2.880
14:04:47:404,20.424,0.015,0.012,0.031,-10.843,-1.154,4.105
14:04:47:427,20.447,0.019,0.044,-0.021,-10.789,-1.617,4.949
14:04:47:533,20.554,0.103,0.051,-0.060,-10.521,-2.260,6.446
14:04:47:593,20.614,0.103,0.094,0.051,-10.188,-3.052,7.688
14:04:47:594,20.614,0.041,0.129,0.072,-9.508,-3.982,9.924
14:04:47:594,20.614,0.092,0.148,0.045,-8.576,-5.114,12.425
14:04:47:644,20.664,0.150,0.220,-0.010,-7.742,-5.691,14.167
14:04:47:644,20.665,0.300,0.199,0.064,-6.106,-6.866,16.974
14:04:47:645,20.666,0.417,0.261,0.074,-4.846,-7.300,18.983
14:04:47:751,20.771,0.577,0.246,0.088,-2.591,-8.239,22.430
14:04:47:751,20.771,0.999,0.313,0.085,-0.750,-8.851,25.186
14:04:47:751,20.772,1.119,0.281,-0.026,2.262,-9.485,30.001
14:04:47:879,20.900,0.941,0.344,-0.294,4.606,-8.333,35.967
14:04:47:879,20.900,1.149,-0.182,-0.324,5.963,-6.757,39.940
14:04:47:905,20.926,0.732,-0.547,-0.379,6.910,-3.563,44.993
14:04:47:905,20.926,-0.259,0.238,-0.377,7.059,-1.477,47.648
14:04:47:981,21.001,0.648,-1.138,-0.350,7.499,-0.523,49.325
14:04:48:008,21.029,0.341,-0.730,-0.247,9.111,-0.277,47.762
14:04:48:009,21.030,0.275,-0.620,-0.174,10.131,-0.913,45.458
14:04:48:032,21.053,0.375,-0.710,-0.132,11.009,-2.702,40.021
14:04:48:064,21.085,0.394,-0.480,-0.147,10.547,-4.338,35.213
14:04:48:064,21.085,0.396,-0.242,-0.053,9.042,-7.087,27.330
14:04:48:065,21.086,0.397,-0.041,0.085,6.003,-8.902,19.115
14:04:48:145,21.166,0.261,0.229,0.097,3.434,-9.003,13.673
14:04:48:146,21.167,0.198,0.596,-0.019,-0.619,-6.920,5.128
14:04:48:147,21.167,-0.099,0.788,0.054,-3.223,-3.851,-1.130
14:04:48:148,21.168,-0.778,1.039,0.017,-5.834,2.198,-11.098
14:04:48:217,21.238,-2.138,0.051,-0.264,-6.313,8.545,-20.319
14:04:48:22,21.241,-3.048,-0.956,0.427,-6.515,11.764,-25.273
14:04:48:3,21.321,-1.799,-0.611,0.508,-9.670,10.032,-27.853
14:04:48:301,21.322,1.104,0.488,-0.438,-10.432,8.120,-26.130
14:04:48:302,21.322,-0.030,-0.094,0.664,-9.071,8.111,-22.799
14:04:48:321,21.341,-0.333,0.348,0.463,-7.173,11.159,-19.245
14:04:48:428,21.449,-0.827,0.246,0.562,-6.213,13.372,-16.713
14:04:48:457,21.478,-0.042,-0.079,-0.017,-6.127,15.270,-12.471
14:04:48:458,21.478,-0.626,-0.141,0.049,-6.449,16.167,-10.080
14:04:48:459,21.479,-0.294,-0.039,0.029,-6.981,15.761,-7.339
14:04:48:486,21.507,0.044,-0.040,0.006,-7.282,14.597,-5.915
14:04:48:487,21.508,0.072,0.014,0.010,-7.864,13.336,-4.375
14:04:48:487,21.508,0.020,0.021,0.011,-8.569,13.557,-3.392
14:04:48:488,21.509,-0.117,0.027,-0.054,-9.007,13.790,-2.802
14:04:48:506,21.527,-0.024,0.002,-0.017,-9.419,13.141,-1.945
14:04:48:531,21.552,0.122,-0.006,0.053,-9.555,12.295,-1.378
14:04:48:615,21.635,-0.028,0.005,0.003,-9.825,12.105,-0.772
14:04:48:615,21.636,-0.048,0.013,-0.039,-10.105,12.027,-0.227
14:04:48:616,21.637,0.046,-0.001,-0.052,-10.204,11.555,0.206
14:04:48:666,21.687,0.042,0.026,-0.039,-10.235,11.075,0.892
14:04:48:666,21.687,0.030,0.024,-0.051,-10.183,10.932,1.436
14:04:48:689,21.710,0.045,0.035,-0.031,-10.009,11.145,2.508
14:04:48:69,21.711,0.052,0.020,0.023,-9.780,10.462,3.800
14:04:48:713,21.734,0.063,0.053,-0.026,-9.575,10.648,4.821
14:04:48:739,21.760,0.058,0.036,-0.095,-9.078,9.908,6.554
14:04:48:772,21.793,0.040,0.051,-0.001,-8.645,10.263,7.814
14:04:48:772,21.793,0.049,0.087,0.030,-7.927,9.707,9.843
14:04:48:877,21.898,0.077,0.111,0.019,-7.357,9.961,11.267
14:04:48:877,21.898,0.123,0.191,-0.068,-6.264,9.348,13.515
14:04:48:878,21.899,0.210,0.194,0.030,-4.819,9.436,15.933
14:04:48:93,21.951,0.310,0.170,0.050,-3.651,9.041,17.717
14:04:48:93,21.951,0.368,0.223,-0.045,-1.638,9.254,20.624
14:04:48:93,21.951,0.648,0.227,-0.087,0.004,8.904,22.818
14:04:48:98,22.001,0.865,0.146,-0.228,3.167,8.141,26.454
14:04:48:981,22.001,0.875,0.240,-0.477,6.115,8.168,31.019
14:04:49:083,22.104,0.807,0.161,-0.503,7.741,9.412,34.857
14:04:49:084,22.105,0.775,-0.171,-0.537,9.262,12.775,40.916
14:04:49:112,22.133,-0.087,0.135,-0.418,10.064,15.094,44.322
14:04:49:113,22.134,0.283,-0.142,-0.525,10.776,18.017,48.496
14:04:49:114,22.135,0.443,-0.728,-0.416,11.616,19.060,49.709
14:04:49:162,22.183,0.224,-0.626,-0.353,13.304,19.935,49.434
14:04:49:163,22.183,0.233,-0.719,-0.300,15.144,19.919,46.780
14:04:49:215,22.235,0.402,-0.679,-0.395,15.583,19.475,43.729
14:04:49:215,22.236,0.259,-0.588,-0.328,14.738,18.435,37.217
14:04:49:351,22.372,0.325,-0.429,-0.283,13.551,17.542,32.317
14:04:49:352,22.372,0.344,-0.138,-0.234,10.656,16.972,24.694
14:04:49:352,22.372,0.099,0.245,-0.310,7.155,18.142,16.834
14:04:49:377,22.398,-0.020,0.393,-0.307,4.819,19.809,11.248
14:04:49:378,22.398,-0.138,0.723,-0.190,1.394,24.379,2.024
14:04:49:378,22.398,-0.814,0.923,0.030,-0.190,28.729,-4.559
14:04:49:395,22.416,-1.294,0.647,0.252,-0.957,36.415,-14.034
14:04:49:422,22.443,-2.314,-0.334,1.295,-0.585,43.376,-21.677
14:04:49:477,22.498,-1.961,-0.741,1.834,-1.460,45.562,-25.266
14:04:49:477,22.498,-0.822,-0.042,0.856,-4.294,44.116,-26.670
14:04:49:53,22.550,1.032,0.620,-0.523,-4.401,43.617,-24.921
14:04:49:53,22.551,-0.233,-0.152,0.354,-2.651,46.160,-21.812
14:04:49:553,22.574,-0.013,0.228,0.103,-1.678,49.389,-19.423
14:04:49:608,22.629,-0.549,0.188,0.897,-1.173,53.715,-15.513
14:04:49:609,22.630,-0.187,-0.047,0.154,-1.999,55.011,-11.744
14:04:49:632,22.653,-0.447,0.028,0.256,-2.779,54.681,-9.490
14:04:49:659,22.680,-0.111,-0.031,0.076,-3.702,53.089,-6.610
14:04:49:743,22.764,0.056,-0.024,0.020,-4.195,52.156,-5.141
14:04:49:743,22.764,0.039,0.019,0.040,-4.977,51.732,-3.453
14:04:49:744,22.764,-0.088,-0.006,0.015,-5.886,51.813,-2.141
14:04:49:763,22.784,-0.135,0.007,0.014,-6.399,51.685,-1.425
14:04:49:791,22.812,0.032,0.021,-0.065,-6.959,50.777,-0.520
14:04:49:816,22.837,-0.009,0.016,-0.036,-7.197,50.377,0.008
14:04:49:841,22.862,-0.055,0.012,-0.005,-7.370,50.540,0.672
14:04:49:898,22.918,-0.011,0.005,-0.001,-7.428,50.606,1.110
14:04:49:898,22.919,0.008,-0.004,0.000,-7.562,50.408,1.773
14:04:49:921,22.942,-0.005,-0.016,-0.016,-7.701,50.296,2.388
14:04:49:947,22.968,0.000,-0.012,-0.001,-7.779,50.319,2.767
14:04:49:973,22.994,-0.013,0.016,0.009,-7.866,50.345,3.307
14:04:49:999,23.020,-0.011,0.028,-0.009,-7.886,50.283,3.644
14:04:50:025,23.046,0.024,0.032,-0.051,-7.852,49.993,4.223
14:04:50:052,23.073,0.000,0.035,-0.072,-7.727,49.747,4.992
14:04:50:08,23.101,0.026,0.036,-0.069,-7.528,49.587,5.659
14:04:50:105,23.126,0.049,0.043,-0.061,-7.108,49.341,6.787
14:04:50:131,23.151,0.035,0.073,-0.010,-6.751,49.228,7.761
14:04:50:157,23.177,0.036,0.072,-0.037,-6.095,49.427,9.392
14:04:50:183,23.203,-0.004,0.144,-0.075,-5.525,49.178,10.574
14:04:50:211,23.232,0.038,0.156,-0.092,-4.422,48.851,12.424
14:04:50:264,23.285,0.159,0.146,-0.102,-2.992,48.357,14.470
14:04:50:265,23.286,0.161,0.169,-0.173,-1.898,48.117,15.933
14:04:50:287,23.308,0.170,0.172,-0.283,-0.090,48.074,18.353
14:04:50:314,23.335,0.265,0.208,-0.322,1.277,48.437,20.252
14:04:50:34,23.361,0.390,0.271,-0.550,3.785,48.310,23.663
14:04:50:394,23.415,0.429,0.169,-0.786,6.571,48.214,27.671
14:04:50:423,23.444,0.314,0.198,-0.742,8.489,48.840,30.821
14:04:50:423,23.444,0.233,-0.076,-0.826,10.782,51.597,35.976
14:04:50:581,23.602,0.161,-0.410,-0.821,11.611,54.383,39.311
14:04:50:582,23.603,-0.369,-0.045,-0.032,12.096,58.727,43.306
14:04:50:639,23.660,-0.009,-0.941,-0.822,12.200,62.088,45.905
14:04:50:639,23.660,-0.003,-0.748,-0.536,12.748,63.446,45.642
14:04:50:64,23.661,-0.214,-0.561,-0.428,13.093,65.398,43.652
14:04:50:641,23.662,-0.153,-0.571,-0.484,13.311,66.265,40.977
14:04:50:686,23.707,-0.198,-0.420,-0.466,12.836,66.733,35.053
14:04:50:687,23.707,-0.208,-0.359,-0.364,11.848,66.608,28.169
14:04:50:715,23.735,-0.189,-0.126,-0.366,10.324,66.745,23.183
14:04:50:715,23.735,-0.136,0.081,-0.308,7.293,68.054,15.838
14:04:50:715,23.736,-0.212,0.352,-0.109,5.093,69.881,11.041
14:04:50:735,23.755,-0.256,0.552,-0.027,1.794,73.822,3.351
14:04:50:848,23.869,-0.282,0.636,0.276,-0.111,77.280,-2.141
14:04:50:848,23.869,-0.244,0.660,0.774,-1.873,82.705,-10.570
14:04:50:849,23.870,-0.346,0.253,1.300,-2.634,87.676,-18.357
14:04:50:85,23.871,-0.310,-0.371,2.053,-3.366,89.866,-22.590
14:04:50:866,23.887,0.228,-0.433,1.600,-6.318,88.956,-25.865
14:04:50:92,23.941,0.063,-0.327,1.094,-7.428,87.654,-25.521
14:04:50:947,23.968,0.407,-0.041,0.085,-6.773,87.529,-22.836
14:04:50:948,23.969,-0.094,0.099,0.380,-5.301,89.752,-19.943
14:04:50:97,23.991,0.060,0.166,0.127,-4.706,92.073,-17.838
14:04:50:998,24.019,0.229,0.462,0.842,-4.395,94.734,-14.490
14:04:51:025,24.046,0.080,0.405,0.466,-4.726,95.318,-12.033
14:04:51:053,24.073,-0.122,-0.147,0.226,-5.513,95.146,-8.825
14:04:51:053,24.074,-0.069,0.037,0.081,-6.067,94.419,-6.132
14:04:51:105,24.125,0.076,-0.036,0.001,-6.754,93.843,-3.244
14:04:51:158,24.179,0.024,-0.009,0.007,-7.226,93.905,-2.531
14:04:51:158,24.179,0.004,-0.017,0.060,-8.094,93.719,-1.537
14:04:51:18,24.201,-0.046,0.020,-0.002,-8.670,93.056,-0.872
14:04:51:267,24.287,0.009,0.018,-0.105,-9.210,91.806,0.119
14:04:51:267,24.287,-0.008,0.039,-0.063,-9.515,91.392,0.971
14:04:51:268,24.288,-0.043,-0.005,0.006,-9.607,91.360,1.522
14:04:51:287,24.307,0.010,0.012,-0.008,-9.682,91.209,2.293
14:04:51:313,24.334,-0.001,-0.008,0.002,-9.715,91.125,2.791
14:04:51:339,24.360,0.025,-0.009,0.007,-9.766,91.064,3.451
14:04:51:364,24.385,-0.007,0.004,-0.014,-9.795,90.893,4.082
14:04:51:39,24.411,-0.002,0.006,-0.020,-9.802,90.735,4.488
14:04:51:417,24.437,-0.013,0.005,-0.039,-9.773,90.512,5.067
14:04:51:443,24.463,-0.021,0.028,-0.047,-9.738,90.406,5.470
14:04:51:47,24.490,-0.015,0.049,-0.035,-9.597,90.154,6.399
14:04:51:495,24.516,0.009,0.046,-0.060,-9.460,89.853,7.168
14:04:51:523,24.544,-0.020,0.059,-0.069,-9.158,90.084,8.329
14:04:51:548,24.569,-0.017,0.064,-0.084,-8.717,90.323,9.606
14:04:51:574,24.595,-0.004,0.103,-0.081,-8.275,90.107,10.814
14:04:51:601,24.621,0.011,0.160,-0.100,-7.456,90.366,12.808
14:04:51:627,24.647,-0.019,0.175,-0.146,-6.771,90.103,14.257
14:04:51:655,24.675,0.042,0.154,-0.199,-5.501,90.255,16.674
14:04:51:708,24.729,0.000,0.159,-0.296,-3.971,89.960,19.389
14:04:51:709,24.730,-0.049,0.173,-0.327,-2.860,90.198,21.384
14:04:51:761,24.782,-0.100,0.200,-0.396,-0.997,89.927,24.716
14:04:51:762,24.782,-0.087,0.216,-0.634,0.507,89.612,27.185
14:04:51:786,24.807,-0.173,0.143,-0.722,3.129,88.462,31.399
14:04:51:87,24.891,-0.279,0.204,-0.720,4.830,88.407,34.605
14:04:51:87,24.891,-0.189,0.010,-0.774,6.648,89.443,39.369
14:04:51:87,24.891,-0.262,-0.423,-0.666,9.278,90.604,43.153
14:04:51:921,24.941,-0.585,-0.030,0.092,11.152,90.806,44.971
14:04:51:921,24.941,-0.189,-0.953,-0.612,13.512,90.263,45.600
14:04:51:942,24.962,-0.181,-0.666,-0.358,14.453,89.778,44.689
14:04:51:969,24.989,-0.177,-0.687,-0.388,14.508,89.163,41.711
14:04:52:025,25.046,-0.199,-0.589,-0.463,13.094,88.204,36.702
14:04:52:025,25.046,-0.198,-0.479,-0.337,11.607,87.467,32.626
14:04:52:047,25.068,-0.056,-0.246,-0.372,8.454,86.848,26.194
14:04:52:073,25.094,-0.084,-0.051,-0.336,5.910,87.151,21.670
14:04:52:131,25.151,-0.151,0.260,-0.134,1.856,88.951,14.477
14:04:52:131,25.152,-0.125,0.466,0.011,-1.971,91.522,6.499
14:04:52:181,25.202,-0.064,0.587,0.149,-4.295,93.547,0.743
14:04:52:181,25.202,0.126,0.749,0.643,-7.167,96.675,-8.084
14:04:52:204,25.225,0.306,0.694,0.972,-8.619,98.630,-13.612
14:04:52:259,25.280,0.430,-0.007,1.909,-10.309,101.509,-20.735
14:04:52:26,25.281,0.736,-0.606,1.910,-11.796,102.253,-23.857
14:04:52:285,25.306,0.735,-0.467,1.470,-13.518,101.387,-24.416
14:04:52:443,25.464,-0.074,0.083,-0.528,-12.367,101.734,-21.631
14:04:52:504,25.524,0.667,-0.143,0.040,-11.411,102.564,-20.069
14:04:52:504,25.525,0.145,0.125,0.155,-9.790,105.506,-17.381
14:04:52:505,25.525,0.245,0.339,0.589,-9.197,107.039,-15.400
14:04:52:506,25.526,0.186,0.096,0.324,-9.112,108.304,-12.156
14:04:52:529,25.550,-0.055,-0.091,0.319,-9.381,108.126,-9.434
14:04:52:529,25.550,0.039,-0.031,0.121,-9.502,107.565,-7.903
14:04:52:53,25.550,0.073,0.063,0.066,-9.728,106.953,-6.207
14:04:52:53,25.551,0.054,-0.017,-0.018,-9.980,106.984,-5.480
14:04:52:602,25.623,0.009,0.021,0.030,-10.507,107.264,-4.509
14:04:52:63,25.651,-0.071,-0.012,0.090,-10.838,107.263,-3.830
14:04:52:631,25.652,-0.055,0.009,0.005,-11.120,106.560,-2.772
14:04:52:631,25.652,0.059,-0.013,-0.028,-11.151,105.921,-1.799
14:04:52:679,25.700,0.026,-0.010,-0.014,-11.157,105.789,-1.220
14:04:52:68,25.701,-0.025,0.000,0.020,-11.154,105.723,-0.420
14:04:52:79,25.810,-0.006,0.011,-0.011,-11.063,105.353,0.416
14:04:52:79,25.811,-0.006,0.019,-0.026,-10.945,105.134,0.986
14:04:52:79,25.811,-0.009,0.008,-0.011,-10.714,104.901,1.882
14:04:52:811,25.832,-0.003,-0.001,-0.007,-10.530,104.733,2.537
14:04:52:812,25.833,0.005,-0.002,-0.003,-10.246,104.434,3.547
14:04:52:861,25.882,-0.040,0.032,-0.046,-10.030,104.207,4.240
14:04:52:919,25.939,-0.044,0.056,-0.079,-9.634,103.729,5.508
14:04:52:92,25.940,-0.063,0.044,-0.047,-9.106,103.228,7.146
14:04:52:92,25.941,-0.030,0.057,-0.046,-8.660,102.915,8.398
14:04:52:939,25.960,-0.013,0.110,-0.025,-7.845,101.935,10.420
14:04:52:965,25.986,-0.012,0.201,-0.063,-6.821,101.030,12.522
14:04:52:992,26.013,-0.002,0.186,-0.116,-6.020,100.657,13.975
14:04:53:047,26.068,0.008,0.189,-0.199,-4.658,99.530,16.358
14:04:53:048,26.069,-0.050,0.249,-0.295,-3.603,99.106,18.127
14:04:53:101,26.122,-0.126,0.225,-0.423,-1.687,97.794,21.204
14:04:53:102,26.122,-0.233,0.267,-0.640,-0.231,97.196,23.620
14:04:53:152,26.172,-0.339,0.265,-0.643,2.129,95.894,27.826
14:04:53:153,26.173,-0.349,0.173,-0.582,4.635,94.539,32.294
14:04:53:202,26.223,-0.336,0.011,-0.801,6.308,93.834,35.362
14:04:53:233,26.254,-0.312,-0.257,-0.647,8.766,93.817,39.634
14:04:53:234,26.255,-0.460,-0.531,-0.320,10.255,93.652,41.909
14:04:53:284,26.305,-0.180,-1.087,-0.851,12.537,92.022,42.896
14:04:53:284,26.305,-0.090,-0.737,-0.584,13.309,90.515,41.402
14:04:53:361,26.382,-0.150,-0.702,-0.662,12.842,89.577,39.204
14:04:53:412,26.433,-0.196,-0.484,-0.412,10.680,88.458,34.425
14:04:53:474,26.494,-0.133,-0.283,-0.364,8.806,87.694,30.595
14:04:53:475,26.495,-0.022,-0.024,-0.326,5.450,86.822,24.169
14:04:53:476,26.496,-0.025,0.195,-0.150,2.254,86.132,17.123
14:04:53:497,26.517,0.200,0.412,0.054,-3.753,86.151,4.338
14:04:53:497,26.517,0.278,0.579,0.286,-6.381,87.364,-1.331
14:04:53:498,26.518,0.362,0.617,0.627,-9.756,90.361,-10.081
14:04:53:546,26.567,0.602,0.470,1.272,-11.403,92.712,-15.640
14:04:53:547,26.568,0.253,-0.056,1.622,-12.746,95.902,-22.577
14:04:53:569,26.590,0.708,-0.846,2.054,-13.762,97.667,-26.064
14:04:53:595,26.616,0.675,0.091,1.011,-14.358,96.990,-25.322
14:04:53:708,26.728,-0.111,0.862,-1.083,-12.946,97.478,-22.315
14:04:53:708,26.729,0.281,0.098,0.245,-11.719,98.340,-20.631
14:04:53:709,26.730,0.298,0.065,0.361,-10.327,100.515,-17.741
14:04:53:788,26.809,0.064,0.374,0.632,-9.726,102.155,-14.468
14:04:53:789,26.810,0.118,0.047,0.293,-9.646,102.759,-12.238
14:04:53:789,26.810,0.052,-0.057,0.261,-9.610,102.669,-9.463
14:04:53:86,26.881,0.028,-0.011,0.050,-9.649,101.877,-7.876
14:04:53:921,26.941,0.049,0.042,-0.004,-9.767,100.854,-5.992
14:04:53:921,26.942,0.018,-0.006,0.036,-9.910,100.715,-5.091
14:04:53:922,26.942,0.000,-0.030,0.068,-10.190,100.728,-3.862
14:04:53:923,26.943,-0.028,0.000,0.040,-10.544,100.156,-2.780
14:04:53:941,26.962,-0.026,-0.038,-0.040,-10.719,99.360,-2.053
14:04:53:941,26.962,0.040,0.007,-0.061,-10.953,98.612,-1.133
14:04:53:963,26.984,0.016,-0.021,0.011,-11.073,98.464,-0.567
14:04:54:017,27.038,-0.036,0.007,0.036,-11.185,98.408,0.127
14:04:54:073,27.094,-0.003,0.003,-0.030,-11.202,97.971,0.878
14:04:54:074,27.095,-0.002,0.002,-0.023,-11.180,97.705,1.421
14:04:54:075,27.096,0.010,0.000,0.020,-11.122,97.617,2.220
14:04:54:094,27.115,0.019,0.005,-0.008,-11.085,97.505,2.752
14:04:54:12,27.141,-0.030,0.030,-0.033,-11.028,97.152,3.645
14:04:54:176,27.196,-0.033,0.028,-0.052,-10.835,96.772,4.712
14:04:54:176,27.197,-0.047,0.050,-0.083,-10.594,96.900,5.570
14:04:54:229,27.250,-0.047,0.077,-0.099,-10.094,96.418,7.109
14:04:54:229,27.250,-0.035,0.085,-0.072,-9.606,96.221,8.434
14:04:54:252,27.273,-0.013,0.098,-0.071,-8.671,95.924,10.694
14:04:54:337,27.357,0.038,0.176,-0.107,-7.915,96.165,12.335
14:04:54:337,27.358,-0.029,0.198,-0.162,-6.552,95.700,15.001
14:04:54:36,27.380,-0.049,0.279,-0.285,-4.870,95.427,17.983
14:04:54:36,27.381,-0.027,0.315,-0.404,-3.551,94.963,20.273
14:04:54:383,27.404,-0.089,0.369,-0.730,-1.196,94.115,24.432
14:04:54:438,27.459,-0.269,0.323,-1.016,0.840,93.107,27.827
14:04:54:439,27.460,-0.381,0.213,-0.809,4.235,91.828,33.516
14:04:54:52,27.540,-0.384,-0.026,-0.864,6.866,92.103,38.845
14:04:54:521,27.541,-0.324,-0.255,-0.644,8.497,92.801,42.022
14:04:54:522,27.542,-0.343,-0.608,-0.320,10.426,93.593,45.832
14:04:54:541,27.561,-0.009,-1.053,-0.420,11.653,93.333,46.767
14:04:54:567,27.588,-0.091,-0.720,-0.237,12.569,93.031,45.746
14:04:54:593,27.614,-0.135,-0.797,-0.311,12.624,92.660,43.842
14:04:54:621,27.642,-0.163,-0.626,-0.209,11.108,91.977,38.964
14:04:54:647,27.668,-0.108,-0.450,-0.331,8.823,90.863,32.680
14:04:54:701,27.721,-0.006,-0.280,-0.326,6.951,90.203,28.135
14:04:54:702,27.722,-0.012,-0.031,-0.258,3.854,89.835,21.006
14:04:54:78,27.801,-0.031,0.288,-0.039,1.778,90.032,16.158
14:04:54:781,27.801,0.069,0.411,0.011,-1.328,90.679,8.573
14:04:54:806,27.826,0.223,0.555,0.181,-4.539,92.619,0.309
14:04:54:832,27.853,0.244,0.664,0.383,-6.291,94.531,-5.289
14:04:54:834,27.855,0.270,0.613,0.718,-8.045,97.817,-13.199
14:04:54:855,27.876,0.255,0.122,1.118,-8.739,100.126,-17.869
14:04:54:882,27.903,0.385,-0.227,1.299,-9.635,102.839,-23.338
14:04:54:908,27.929,0.480,-0.423,1.190,-10.505,103.463,-25.631
14:04:55:016,28.036,0.409,-0.367,0.960,-11.865,102.400,-26.491
14:04:55:049,28.070,0.128,-0.123,0.681,-11.955,101.222,-24.742
14:04:55:049,28.070,-0.350,0.130,-0.439,-11.682,100.674,-22.823
14:04:55:05,28.071,0.200,0.049,0.170,-11.277,100.140,-20.320
14:04:55:05,28.071,0.433,0.565,0.440,-10.783,100.630,-18.663
14:04:55:119,28.140,0.233,0.343,0.234,-9.821,102.011,-15.816
14:04:55:181,28.202,0.139,-0.308,0.119,-9.449,103.291,-13.321
14:04:55:181,28.202,0.022,-0.203,0.209,-9.421,104.150,-11.969
14:04:55:182,28.202,-0.167,0.107,0.772,-9.746,104.427,-10.215
14:04:55:182,28.203,0.086,-0.010,0.050,-10.010,104.511,-9.083
14:04:55:199,28.220,0.073,-0.040,0.115,-10.232,104.050,-7.878
14:04:55:225,28.246,0.106,0.032,0.005,-10.545,102.869,-6.773
14:04:55:338,28.359,0.018,0.018,-0.006,-10.884,102.440,-6.141
14:04:55:338,28.359,-0.084,0.004,0.082,-11.419,101.717,-5.259
14:04:55:338,28.359,-0.014,0.018,0.052,-11.649,101.489,-4.736
14:04:55:339,28.360,0.018,-0.007,-0.037,-11.801,99.850,-3.762
14:04:55:355,28.376,0.068,0.013,-0.047,-11.891,99.094,-3.106
14:04:55:382,28.403,-0.020,0.018,-0.037,-12.095,98.319,-2.229
14:04:55:493,28.514,-0.039,-0.009,0.060,-12.220,97.863,-1.394
14:04:55:493,28.514,0.017,-0.026,0.005,-12.227,97.106,-0.850
14:04:55:494,28.515,0.001,0.017,-0.093,-12.253,96.305,-0.023
14:04:55:515,28.536,-0.056,0.004,-0.031,-12.242,95.535,0.593
14:04:55:516,28.536,-0.073,-0.014,-0.061,-12.117,95.011,1.668
14:04:55:757,28.778,0.001,-0.001,-0.069,-11.930,94.386,2.875
14:04:55:758,28.779,-0.006,0.027,-0.036,-11.795,94.181,3.760
14:04:55:759,28.780,0.017,0.025,-0.027,-11.530,93.595,5.218
14:04:55:76,28.781,-0.011,0.028,-0.020,-11.299,93.219,6.277
14:04:55:836,28.857,-0.026,0.011,0.023,-10.804,92.435,7.891
14:04:55:837,28.857,0.030,0.059,-0.025,-10.180,91.885,9.520
14:04:55:838,28.858,0.052,0.103,-0.039,-9.679,91.404,10.641
14:04:55:838,28.859,0.067,0.172,-0.085,-8.805,90.697,12.595
14:04:55:864,28.885,0.009,0.180,-0.379,-8.020,89.968,14.117
14:04:55:865,28.885,-0.029,0.326,-0.378,-6.727,88.918,16.781
14:04:55:865,28.886,-0.064,0.440,-0.700,-5.254,87.697,20.232
14:04:55:865,28.886,-0.019,0.404,-0.751,-4.145,86.955,23.174
14:04:55:885,28.906,0.010,0.340,-0.564,-2.137,86.222,28.199
14:04:55:886,28.907,-0.067,0.063,-0.565,-0.910,86.258,31.466
14:04:55:886,28.907,-0.269,-0.260,-0.486,1.147,86.145,35.723
14:04:55:905,28.926,-0.327,-0.431,-0.128,2.404,86.429,38.097
14:04:56:177,29.198,-0.146,-0.816,-0.459,3.449,86.927,39.726
14:04:56:178,29.199,-0.065,-0.607,-0.360,4.725,86.469,38.735
14:04:56:179,29.200,-0.063,-0.562,-0.248,5.381,86.185,37.289
14:04:56:18,29.200,-0.094,-0.465,-0.420,5.799,85.379,33.735
14:04:56:336,29.357,-0.014,-0.305,-0.364,5.549,84.873,30.710
14:04:56:337,29.358,0.054,-0.124,-0.271,4.315,84.781,25.829
14:04:56:337,29.358,0.024,-0.015,-0.228,2.429,85.475,20.401
14:04:56:337,29.358,-0.021,0.142,-0.137,1.078,86.280,16.442
14:04:56:38,29.400,-0.021,0.268,0.019,-1.072,88.283,10.042
14:04:56:573,29.593,0.011,0.282,0.115,-2.437,90.150,5.552
14:04:56:574,29.594,0.025,0.362,0.227,-3.993,93.170,-1.398
14:04:56:574,29.595,0.000,0.382,0.430,-4.639,95.183,-5.994
14:04:56:575,29.596,0.040,0.300,0.600,-5.171,98.204,-12.616
14:04:56:72,29.741,0.225,0.119,0.789,-5.417,101.268,-18.280
14:04:57:035,30.056,0.314,-0.105,1.095,-5.254,103.720,-21.184
14:04:57:141,30.162,0.410,-0.426,1.327,-4.871,106.450,-23.517
14:04:57:434,30.455,0.088,0.019,0.702,-4.833,107.017,-23.433
14:04:57:435,30.456,-0.132,-0.100,0.210,-4.568,106.877,-21.364
14:04:57:436,30.457,0.113,0.014,0.157,-4.432,106.328,-18.943
14:04:57:465,30.486,-0.076,0.022,-0.039,-4.394,106.488,-17.281
14:04:57:465,30.486,0.221,0.113,0.119,-4.381,107.589,-14.787
14:04:57:465,30.486,0.134,0.235,0.413,-4.401,108.330,-13.021
14:04:57:466,30.487,0.085,-0.002,0.173,-4.931,108.859,-10.201
14:04:57:481,30.502,0.016,-0.022,0.283,-5.551,109.190,-7.789
14:04:57:64,30.661,0.048,-0.007,0.133,-5.865,109.247,-6.564
14:04:57:7,30.720,0.056,-0.030,0.070,-6.324,109.116,-5.390
14:04:57:701,30.721,0.066,-0.019,0.081,-6.734,108.967,-4.846
14:04:57:701,30.722,0.039,0.011,0.020,-7.477,108.681,-4.224
14:04:57:797,30.818,-0.135,-0.023,-0.011,-8.758,107.896,-3.003
14:04:57:857,30.878,-0.002,0.026,-0.003,-9.193,107.529,-2.427
14:04:57:858,30.879,0.010,0.030,-0.033,-9.386,107.206,-1.992
14:04:57:859,30.879,0.047,0.007,0.028,-9.563,107.235,-1.350
14:04:57:86,30.880,-0.001,0.002,0.033,-9.675,107.219,-0.965
14:04:57:902,30.922,0.004,-0.009,-0.011,-9.865,107.116,-0.435
14:04:57:932,30.953,-0.003,0.001,0.003,-10.024,106.946,0.033
14:04:57:932,30.953,-0.030,0.093,-0.004,-8.721,106.088,6.752
14:04:57:964,30.985,0.035,0.132,-0.131,-4.665,104.315,11.969
14:04:57:964,30.985,-0.388,0.051,-0.477,7.990,106.095,30.136
14:04:57:964,30.985,-0.459,0.043,-0.581,9.827,108.785,34.552
14:04:57:965,30.986,-0.485,-0.196,-0.348,10.912,112.477,38.858
14:04:57:99,31.011,-0.457,-0.151,-0.116,11.191,114.927,41.385
14:04:57:99,31.011,-0.635,-0.668,-0.389,11.831,118.050,43.048
14:04:57:991,31.012,-0.443,-0.468,-0.180,12.796,120.017,42.648
14:04:57:991,31.012,-0.399,-0.548,-0.108,13.649,120.936,41.038
14:04:58:016,31.037,-0.424,-0.582,-0.220,14.454,121.468,37.366
14:04:58:016,31.037,-0.361,-0.127,-0.091,11.828,122.114,22.993
14:04:58:016,31.037,-0.300,0.018,-0.054,9.162,123.761,16.445
14:04:58:017,31.038,-0.300,0.266,0.069,6.038,127.405,9.704
14:04:58:033,31.054,-0.245,0.373,0.180,4.081,130.852,4.937
14:04:58:06,31.080,-0.119,0.552,0.399,1.906,137.289,-2.772
14:04:58:097,31.117,0.460,0.580,1.046,1.431,149.832,-15.594
14:04:58:097,31.117,1.592,-0.287,1.364,1.868,156.736,-22.174
14:04:58:098,31.118,1.877,-0.596,0.831,0.526,158.075,-25.486
14:04:58:099,31.119,1.205,-0.466,0.770,-2.386,156.095,-27.116
14:04:58:12,31.141,0.983,-0.247,-0.245,-2.712,155.795,-25.960
14:04:58:121,31.142,-0.253,0.170,0.027,-0.872,158.266,-22.722
14:04:58:122,31.143,0.273,0.441,-0.007,-0.124,161.066,-20.342
14:04:58:123,31.144,0.721,-0.067,0.022,-0.001,164.209,-16.630
14:04:58:141,31.162,0.220,0.086,0.113,-0.785,165.376,-13.216
14:04:58:141,31.162,0.433,-0.068,0.182,-1.531,165.357,-11.384
14:04:58:248,31.268,0.111,0.044,0.078,-2.572,164.556,-9.393
14:04:58:248,31.269,0.045,-0.020,0.019,-3.140,164.109,-8.493
14:04:58:28,31.301,0.066,-0.010,0.006,-3.999,163.866,-7.596
14:04:58:281,31.301,0.091,0.010,-0.017,-4.975,163.570,-6.833
14:04:58:281,31.301,0.023,0.004,0.038,-5.711,163.126,-6.419
14:04:58:281,31.301,-0.036,-0.002,0.064,-6.608,162.265,-6.042
14:04:58:435,31.455,-0.064,0.014,-0.019,-7.014,161.917,-5.813
14:04:58:436,31.456,-0.045,0.024,0.011,-7.547,161.900,-5.351
14:04:58:437,31.457,-0.039,0.021,0.061,-7.866,162.021,-4.938
14:04:58:452,31.473,0.010,0.001,0.018,-8.289,162.331,-3.233
14:04:58:48,31.501,-0.035,-0.020,0.023,-8.385,162.376,-2.698
14:04:58:592,31.613,0.064,-0.010,0.005,-8.579,162.582,-2.003
14:04:58:593,31.614,0.065,0.011,-0.004,-8.718,162.613,-1.639
14:04:58:594,31.615,0.037,0.018,-0.004,-8.920,162.496,-1.177
14:04:58:595,31.616,-0.038,0.012,0.031,-8.977,162.523,-0.721
14:04:58:671,31.691,-0.066,0.022,0.037,-8.942,162.336,-0.325
14:04:58:672,31.692,-0.085,0.035,0.037,-8.697,162.149,0.496
14:04:58:672,31.693,-0.004,-0.001,0.002,-8.439,161.914,1.189
14:04:58:673,31.694,-0.058,0.017,0.037,-8.020,161.684,2.292
14:04:58:749,31.770,-0.058,0.004,0.073,-7.549,161.494,3.501
14:04:58:75,31.771,-0.029,0.038,0.021,-7.184,161.762,4.362
14:04:58:75,31.771,0.006,0.048,-0.011,-6.515,161.456,5.780
14:04:58:751,31.772,-0.027,0.086,0.051,-5.992,161.238,6.783
14:04:58:825,31.846,-0.018,0.080,0.035,-5.034,160.814,8.349
14:04:58:826,31.846,-0.087,0.139,0.001,-4.233,160.493,9.440
14:04:58:827,31.847,-0.099,0.151,-0.090,-2.797,159.896,11.161
14:04:58:904,31.925,-0.178,0.134,-0.057,-1.195,159.597,12.982
14:04:58:904,31.925,-0.234,0.109,-0.056,-0.043,159.573,14.296
14:04:58:905,31.926,-0.247,0.143,0.026,1.789,159.950,16.535
14:04:59:033,32.053,-0.309,0.137,0.022,3.136,160.241,18.213
14:04:59:116,32.137,-0.403,0.133,0.052,5.377,160.881,21.072
14:04:59:116,32.137,-0.604,0.186,0.077,7.700,161.635,24.516
14:04:59:116,32.137,-0.716,0.174,0.126,9.428,162.218,27.315
14:04:59:223,32.244,-0.802,0.136,0.189,12.259,163.733,32.182
14:04:59:223,32.244,-0.901,-0.122,0.215,14.203,165.316,35.614
14:04:59:224,32.244,-0.606,-0.130,0.218,15.758,169.068,40.308
14:04:59:225,32.245,-0.282,-0.081,0.471,16.541,171.083,42.950
14:04:59:346,32.367,-0.736,-0.756,0.361,16.800,173.930,45.351
14:04:59:381,32.402,-0.324,-0.637,0.222,16.010,175.716,45.103
14:04:59:381,32.402,-0.215,-0.586,0.252,15.505,176.821,43.631
14:04:59:382,32.402,-0.375,-0.612,0.168,14.320,176.893,39.808
14:04:59:382,32.403,-0.254,-0.517,0.118,12.834,176.722,36.128
14:04:59:424,32.444,-0.335,-0.296,0.145,10.447,176.025,29.652
14:04:59:485,32.506,-0.310,-0.082,0.066,7.685,175.221,22.483
14:04:59:485,32.506,-0.298,-0.013,0.049,5.542,175.018,17.548
14:04:59:486,32.507,-0.043,0.340,0.005,1.949,175.999,10.012
14:04:59:487,32.508,-0.034,0.511,-0.022,-0.573,177.571,4.634
14:04:59:529,32.550,0.312,0.662,-0.028,-3.849,-178.046,-3.888
14:04:59:617,32.637,0.781,0.734,-0.084,-5.657,-172.728,-12.313
14:04:59:618,32.639,1.216,0.612,-0.230,-5.897,-169.120,-17.401
14:04:59:618,32.639,2.166,-0.554,-0.266,-6.029,-165.032,-23.590
14:04:59:619,32.640,1.304,-0.252,-0.626,-7.562,-165.078,-25.720
14:04:59:695,32.716,1.109,-0.238,-0.552,-8.837,-166.802,-25.078
14:04:59:695,32.716,-1.008,0.693,0.054,-7.686,-167.098,-21.789
14:04:59:695,32.716,0.282,0.255,0.083,-6.594,-166.130,-19.568
14:04:59:747,32.768,0.166,0.037,-0.305,-5.377,-163.471,-15.965
14:04:59:748,32.769,0.348,0.157,-0.127,-4.946,-161.839,-13.570
14:04:59:749,32.769,0.583,0.016,-0.212,-4.850,-160.162,-10.210
14:04:59:75,32.770,0.152,-0.023,0.017,-5.036,-159.952,-8.250
14:04:59:77,32.791,0.141,0.096,-0.002,-5.505,-160.898,-5.916
14:04:59:771,32.791,0.026,-0.008,-0.039,-5.948,-161.827,-4.387
14:04:59:771,32.792,-0.003,-0.025,-0.002,-6.303,-161.878,-3.707
14:04:59:791,32.811,0.030,-0.008,-0.035,-6.943,-161.539,-2.991
14:04:59:933,32.953,0.078,0.005,0.067,-7.424,-161.404,-2.635
14:04:59:933,32.953,0.037,0.005,0.052,-8.040,-161.525,-2.176
14:04:59:934,32.954,-0.004,0.031,0.068,-8.312,-161.803,-1.853
14:04:59:935,32.955,-0.027,0.007,-0.013,-8.574,-161.797,-1.344
14:04:59:953,32.973,0.032,0.013,0.045,-8.835,-161.666,-0.809
14:04:59:953,32.974,0.027,0.009,0.031,-9.003,-161.365,-0.385
14:05:00:005,33.026,0.029,-0.005,0.016,-9.191,-161.764,0.291
14:05:00:005,33.026,-0.034,0.001,-0.029,-9.314,-162.003,0.735
14:05:00:027,33.048,0.008,0.013,0.046,-9.391,-162.446,1.382
14:05:00:11,33.130,0.009,0.012,0.041,-9.382,-162.546,2.022
14:05:00:111,33.131,-0.012,0.024,0.018,-9.360,-162.794,2.496
14:05:00:16,33.180,-0.040,0.043,0.074,-9.306,-163.203,3.364
14:05:00:246,33.267,-0.036,0.046,0.014,-9.263,-163.675,4.066
14:05:00:246,33.267,-0.044,0.062,-0.023,-9.149,-164.325,5.409
14:05:00:246,33.267,-0.054,0.024,0.125,-8.884,-165.353,7.047
14:05:00:3,33.321,-0.031,0.047,0.112,-8.545,-165.738,8.176
14:05:00:3,33.321,-0.048,0.084,0.049,-7.911,-166.211,9.970
14:05:00:301,33.321,-0.096,0.158,0.050,-7.371,-166.552,11.271
14:05:00:301,33.322,-0.137,0.198,0.082,-6.313,-167.280,13.487
14:05:00:319,33.339,-0.236,0.194,0.019,-5.004,-167.928,16.018
14:05:00:319,33.340,-0.260,0.195,0.026,-4.005,-168.306,17.901
14:05:00:346,33.366,-0.347,0.166,0.129,-2.269,-168.693,21.090
14:05:00:426,33.447,-0.392,0.215,0.209,-0.933,-168.977,23.464
14:05:00:427,33.448,-0.682,0.272,0.271,1.516,-169.787,27.493
14:05:00:428,33.449,-0.794,0.175,0.325,3.435,-170.662,30.460
14:05:00:478,33.498,-0.644,0.147,0.421,6.079,-170.903,35.510
14:05:00:5,33.520,-0.753,-0.323,0.323,8.018,-169.489,40.430
14:05:00:528,33.549,-0.609,-0.231,0.276,9.610,-168.805,43.063
14:05:00:529,33.550,-0.451,-0.488,0.498,12.622,-168.093,46.151
14:05:00:612,33.633,-0.497,-0.864,0.062,14.403,-168.593,46.732
14:05:00:612,33.633,-0.384,-0.697,0.106,16.549,-169.133,45.554
14:05:00:612,33.633,-0.353,-0.752,0.093,17.140,-169.980,42.177
14:05:00:632,33.653,-0.434,-0.700,0.116,16.215,-170.650,38.622
14:05:00:657,33.677,-0.335,-0.443,0.097,13.716,-171.452,32.241
14:05:00:683,33.703,-0.439,-0.269,0.056,11.504,-171.667,27.600
14:05:00:823,33.844,-0.314,0.002,0.074,7.855,-171.064,20.377
14:05:00:824,33.845,0.001,0.355,0.079,5.566,-170.159,15.423
14:05:00:825,33.846,-0.061,0.432,0.063,2.485,-168.671,7.516
14:05:00:826,33.847,0.017,0.658,-0.050,-0.421,-166.333,-1.072
14:05:00:874,33.895,0.332,0.823,-0.150,-1.829,-164.050,-6.847
14:05:00:874,33.895,1.290,0.638,-0.339,-2.763,-159.238,-15.125
14:05:00:874,33.895,1.913,-0.192,-0.563,-2.588,-155.495,-19.743
14:05:00:894,33.915,1.614,-0.658,-0.879,-3.205,-152.315,-24.827
14:05:00:948,33.969,1.043,-0.302,-0.522,-4.939,-153.936,-25.757
14:05:00:949,33.970,0.785,-0.241,-0.715,-4.586,-154.518,-24.247
14:05:01:002,34.023,0.400,-0.056,0.105,-3.186,-153.896,-20.873
14:05:01:002,34.023,0.432,0.212,-0.533,-2.833,-152.478,-18.290
14:05:01:024,34.045,0.562,0.373,-0.439,-2.508,-150.819,-14.215
14:05:01:08,34.100,0.312,-0.329,-0.077,-3.056,-150.416,-10.400
14:05:01:08,34.101,0.539,-0.059,-0.188,-3.480,-150.180,-8.386
14:05:01:132,34.153,0.108,0.072,-0.034,-4.151,-150.599,-6.067
14:05:01:158,34.179,0.088,-0.056,-0.003,-4.534,-151.060,-4.912
14:05:01:182,34.203,0.048,-0.007,-0.063,-5.646,-151.437,-3.194
14:05:01:236,34.257,0.033,0.005,0.038,-6.636,-151.956,-2.457
14:05:01:295,34.316,0.028,0.014,0.096,-7.410,-152.813,-1.776
14:05:01:295,34.316,-0.009,0.008,0.049,-7.715,-153.375,-1.350
14:05:01:316,34.337,-0.022,0.016,-0.011,-8.047,-153.736,-0.766
14:05:01:317,34.338,0.041,0.012,0.013,-8.242,-153.691,-0.412
14:05:01:398,34.418,0.049,0.001,0.052,-8.516,-153.865,0.147
14:05:01:398,34.419,-0.022,0.004,0.030,-8.686,-154.445,0.779
14:05:01:399,34.420,0.015,0.009,-0.004,-8.759,-154.628,1.206
14:05:01:418,34.439,-0.001,0.021,0.009,-8.827,-154.994,1.842
14:05:01:473,34.494,-0.067,0.016,0.076,-8.800,-155.478,2.368
14:05:01:474,34.495,-0.083,0.037,0.157,-8.605,-156.034,3.428
14:05:01:497,34.518,0.010,0.056,0.046,-8.331,-156.486,4.371
14:05:01:523,34.544,-0.011,0.061,0.040,-7.764,-157.015,6.014
14:05:01:549,34.570,-0.067,0.066,0.068,-7.045,-158.228,7.897
14:05:01:634,34.655,-0.073,0.096,0.026,-6.477,-158.686,9.278
14:05:01:634,34.655,-0.125,0.132,-0.025,-5.431,-159.687,11.504
14:05:01:715,34.736,-0.152,0.184,0.052,-4.601,-160.167,13.079
14:05:01:716,34.737,-0.189,0.222,0.131,-3.013,-160.921,15.539
14:05:01:717,34.738,-0.317,0.197,0.142,-1.022,-161.465,18.291
14:05:01:718,34.739,-0.432,0.214,0.209,0.513,-161.809,20.400
14:05:01:793,34.814,-0.747,0.284,0.375,3.232,-162.322,24.123
14:05:01:793,34.814,-0.996,0.246,0.670,5.362,-162.835,26.989
14:05:01:793,34.814,-0.828,0.315,0.636,8.566,-162.271,32.412
14:05:01:841,34.862,-0.788,-0.076,0.876,11.253,-159.356,38.664
14:05:01:842,34.862,-0.637,-0.325,0.861,12.428,-156.764,42.661
14:05:01:895,34.916,0.537,0.314,0.366,13.487,-153.092,47.409
14:05:01:895,34.916,-0.339,-0.928,0.533,13.861,-151.468,49.290
14:05:01:917,34.938,-0.165,-0.784,0.269,15.106,-149.776,49.324
14:05:01:972,34.993,-0.062,-0.630,0.236,15.520,-148.779,48.177
14:05:01:973,34.994,-0.045,-0.657,0.245,15.981,-147.691,44.862
14:05:01:997,35.018,0.054,-0.584,0.274,15.679,-147.235,41.640
14:05:02:179,35.200,0.025,-0.527,0.341,14.434,-146.944,35.214
14:05:02:215,35.236,0.018,-0.205,0.306,12.593,-147.162,27.707
14:05:02:215,35.236,-0.080,-0.075,0.311,10.930,-147.296,22.333
14:05:02:217,35.237,-0.082,0.115,0.335,7.942,-146.543,14.158
14:05:02:217,35.238,0.160,0.462,0.301,4.637,-143.359,6.063
14:05:02:233,35.254,0.355,0.645,0.221,2.772,-140.290,0.676
14:05:02:392,35.413,0.610,0.885,0.023,0.729,-134.574,-7.381
14:05:02:393,35.414,0.801,0.898,-0.257,0.076,-129.759,-12.658
14:05:02:47,35.490,1.513,0.059,-1.034,0.082,-121.820,-19.981
14:05:02:504,35.524,0.728,-0.555,-1.882,-0.517,-118.486,-24.161
14:05:02:505,35.525,0.784,-0.392,-1.367,-3.413,-119.524,-27.367
14:05:02:505,35.526,0.450,-0.453,-0.934,-3.875,-120.276,-25.737
14:05:02:506,35.527,-0.833,0.771,0.398,-3.285,-119.635,-23.620
14:05:02:53,35.551,-0.173,0.107,-0.249,-1.785,-117.814,-20.587
14:05:02:531,35.552,-0.247,0.102,0.116,-0.977,-115.292,-18.480
14:05:02:531,35.552,0.046,0.149,-0.598,-0.583,-111.377,-15.526
14:05:02:532,35.553,0.124,0.429,-0.875,-0.891,-108.913,-12.286
14:05:02:551,35.572,0.051,-0.050,0.053,-1.574,-109.385,-10.101
14:05:02:552,35.573,0.209,0.037,-0.098,-2.552,-109.874,-7.257
14:05:02:636,35.657,0.105,0.027,-0.129,-2.992,-109.771,-5.655
14:05:02:636,35.657,0.017,-0.010,-0.156,-3.530,-109.380,-3.951
14:05:02:637,35.657,0.009,0.012,-0.003,-4.268,-109.511,-2.692
14:05:02:638,35.658,0.058,0.008,0.072,-4.875,-109.717,-1.882
14:05:02:714,35.735,0.023,0.017,0.070,-5.613,-110.174,-0.745
14:05:02:714,35.735,-0.001,0.012,0.101,-5.944,-110.602,0.005
14:05:02:715,35.736,0.012,0.005,-0.009,-6.241,-110.658,0.988
14:05:02:716,35.737,-0.010,0.017,-0.008,-6.358,-110.662,1.592
14:05:02:819,35.839,0.017,0.025,0.015,-6.500,-110.939,2.493
14:05:02:82,35.840,0.005,-0.011,-0.006,-6.622,-111.153,3.270
14:05:02:821,35.841,0.003,-0.004,-0.008,-6.707,-111.196,3.685
14:05:02:821,35.842,0.013,0.015,0.054,-6.853,-111.281,4.244
14:05:02:868,35.889,0.034,0.009,0.048,-6.927,-111.402,4.648
14:05:02:868,35.889,0.005,0.015,0.055,-6.995,-111.153,5.286
14:05:02:869,35.890,0.017,0.027,0.089,-6.976,-111.548,5.924
14:05:02:975,35.996,0.034,0.054,0.102,-6.891,-111.456,6.507
14:05:02:976,35.997,0.008,0.040,0.089,-6.438,-112.049,7.876
14:05:02:977,35.998,-0.029,0.059,0.059,-6.059,-111.929,8.947
14:05:02:977,35.998,-0.025,0.085,0.068,-5.403,-112.430,10.737
14:05:03:448,36.469,-0.043,0.163,0.127,-4.817,-112.551,12.057
14:05:03:449,36.470,-0.028,0.193,0.172,-3.641,-113.102,14.222
14:05:03:45,36.471,-0.135,0.202,0.209,-2.017,-113.634,16.698
14:05:03:451,36.472,-0.169,0.206,0.276,-0.688,-114.005,18.554
14:05:03:503,36.524,-0.137,0.272,0.482,1.665,-114.466,21.602
14:05:03:503,36.524,-0.192,0.241,0.823,3.629,-114.908,24.019
14:05:03:503,36.524,-0.113,0.216,1.009,6.755,-115.138,28.468
14:05:03:503,36.524,0.007,0.259,0.913,9.570,-114.043,33.904
14:05:03:551,36.572,0.066,-0.070,0.989,11.132,-112.164,37.931
14:05:03:552,36.572,0.137,-0.225,0.826,12.495,-108.679,43.540
14:05:03:553,36.573,0.374,-0.303,0.454,13.000,-106.541,46.525
14:05:03:632,36.653,0.130,-0.897,0.563,14.132,-104.974,48.885
14:05:03:633,36.654,0.173,-0.661,0.364,15.007,-103.729,48.764
14:05:03:634,36.655,0.170,-0.723,0.330,15.727,-103.686,47.436
14:05:03:634,36.655,0.150,-0.681,0.395,15.824,-104.032,43.389
14:05:03:659,36.679,0.132,-0.630,0.359,15.054,-104.624,39.657
14:05:03:66,36.680,0.066,-0.424,0.385,13.181,-105.833,33.241
14:05:03:66,36.681,-0.006,-0.211,0.426,11.187,-106.362,28.577
14:05:03:661,36.682,0.069,-0.002,0.300,7.478,-105.980,21.421
14:05:03:687,36.707,0.125,0.365,0.117,3.607,-104.167,13.878
14:05:03:687,36.707,0.027,0.539,0.029,1.016,-102.184,8.336
14:05:03:687,36.707,0.036,0.652,-0.152,-2.249,-98.297,-0.696
14:05:03:687,36.708,0.142,0.772,-0.648,-3.730,-95.317,-6.832
14:05:03:703,36.724,0.134,0.456,-1.305,-4.990,-90.442,-15.276
14:05:03:784,36.805,-0.203,-0.282,-2.260,-5.627,-85.449,-21.890
14:05:03:785,36.806,-0.398,-0.673,-2.098,-6.389,-84.002,-24.475
14:05:03:843,36.863,-0.307,-0.333,-1.447,-7.392,-85.146,-24.151
14:05:03:843,36.864,0.152,0.722,1.214,-6.791,-85.427,-21.813
14:05:03:844,36.864,0.322,0.325,-0.324,-5.575,-84.787,-18.515
14:05:03:845,36.865,-0.290,0.178,-0.640,-5.029,-83.102,-16.026
14:05:03:925,36.945,-0.015,0.302,-0.480,-4.585,-81.055,-12.191
14:05:03:925,36.945,-0.069,-0.076,-0.481,-4.980,-80.040,-8.600
14:05:03:925,36.946,0.033,-0.005,-0.224,-5.336,-79.892,-6.614
14:05:03:925,36.946,-0.033,0.011,-0.194,-5.823,-80.687,-4.157
14:05:03:944,36.964,-0.053,-0.017,0.002,-6.127,-81.416,-3.034
14:05:03:944,36.965,-0.016,-0.003,0.032,-6.793,-81.806,-1.790
14:05:03:945,36.966,0.055,0.007,-0.059,-7.649,-81.850,-0.729
14:05:03:993,37.014,0.083,0.018,-0.063,-8.177,-82.167,-0.073
14:05:03:994,37.015,0.027,0.015,0.071,-8.682,-83.400,0.931
14:05:04:104,37.125,0.003,0.017,0.051,-8.922,-84.025,1.532
14:05:04:105,37.126,0.076,0.026,-0.001,-9.256,-84.414,2.339
14:05:04:106,37.126,0.092,0.019,0.012,-9.402,-84.912,3.224
14:05:04:107,37.127,0.026,0.007,0.066,-9.377,-85.370,3.855
14:05:04:122,37.143,0.031,-0.003,0.010,-9.220,-85.767,4.813
14:05:04:15,37.171,0.036,-0.002,-0.004,-9.109,-85.848,5.449
14:05:04:232,37.253,0.027,0.016,0.004,-8.932,-86.147,6.380
14:05:04:233,37.254,0.006,0.017,0.033,-8.811,-86.417,7.010
14:05:04:258,37.279,0.040,0.055,0.093,-8.570,-86.884,8.066
14:05:04:258,37.279,-0.004,0.075,0.105,-8.163,-87.465,9.468
14:05:04:309,37.329,-0.019,0.087,0.097,-7.790,-87.881,10.611
14:05:04:309,37.330,-0.018,0.102,0.104,-7.061,-88.565,12.571
14:05:04:332,37.353,0.008,0.130,0.142,-6.468,-88.980,13.984
14:05:04:388,37.408,0.017,0.138,0.177,-5.348,-89.496,16.264
14:05:04:389,37.409,0.021,0.175,0.234,-3.910,-89.856,18.778
14:05:04:41,37.431,-0.011,0.148,0.318,-2.776,-90.068,20.609
14:05:04:497,37.518,0.095,0.209,0.412,-0.842,-90.286,23.629
14:05:04:497,37.518,0.142,0.226,0.595,0.707,-90.505,25.954
14:05:04:497,37.518,0.254,0.244,0.977,3.458,-91.157,29.934
14:05:04:574,37.594,0.307,0.256,0.946,5.403,-91.285,33.173
14:05:04:575,37.595,0.431,0.165,0.893,7.924,-90.212,38.997
14:05:04:575,37.596,0.300,-0.290,0.807,10.007,-88.154,44.389
14:05:04:788,37.809,0.414,0.177,-0.077,11.421,-86.968,47.323
14:05:04:789,37.810,0.301,-0.971,0.627,13.386,-86.264,50.168
14:05:04:79,37.811,0.167,-0.734,0.347,14.706,-86.347,50.325
14:05:04:79,37.811,0.196,-0.671,0.262,15.422,-86.781,48.805
14:05:04:946,37.967,0.146,-0.765,0.397,15.423,-87.974,45.110
14:05:04:947,37.968,0.125,-0.661,0.350,14.106,-88.991,41.278
14:05:04:947,37.968,0.068,-0.479,0.456,11.420,-90.842,34.469
14:05:04:948,37.969,0.023,-0.169,0.471,8.988,-91.796,29.509
14:05:05:078,38.099,0.026,0.113,0.300,5.039,-92.422,21.800
14:05:05:078,38.099,0.049,0.387,0.203,2.483,-92.308,16.378
14:05:05:079,38.100,-0.105,0.529,0.101,-1.270,-91.285,7.627
14:05:05:08,38.100,-0.141,0.801,-0.207,-4.746,-88.544,-2.151
14:05:05:23,38.251,-0.176,0.886,-0.583,-6.523,-85.919,-8.784
14:05:05:23,38.251,-0.035,0.393,-1.558,-7.922,-81.087,-18.038
14:05:05:287,38.307,-0.294,-0.357,-2.394,-8.510,-77.914,-23.017
14:05:05:287,38.307,-0.724,-0.597,-1.852,-10.859,-78.368,-26.068
14:05:05:288,38.308,0.015,-0.335,-0.857,-10.579,-79.820,-23.110
14:05:05:289,38.309,0.160,0.700,1.076,-9.901,-80.224,-20.843
14:05:05:312,38.333,0.190,0.489,-0.277,-8.343,-78.198,-17.470
14:05:05:313,38.334,-0.309,0.243,-0.565,-7.574,-76.534,-14.899
14:05:05:314,38.334,-0.016,0.295,-0.442,-7.195,-74.769,-10.964
14:05:05:315,38.335,-0.023,-0.067,-0.353,-7.343,-73.852,-7.688
14:05:05:438,38.459,-0.010,0.031,-0.123,-7.485,-73.909,-5.936
14:05:05:439,38.459,-0.014,0.046,-0.018,-7.705,-74.811,-3.987
14:05:05:472,38.492,-0.032,-0.026,0.012,-7.919,-75.139,-3.042
14:05:05:472,38.492,-0.022,0.012,0.049,-8.415,-75.280,-2.039
14:05:05:472,38.493,0.057,0.004,-0.010,-8.852,-75.194,-1.395
14:05:05:473,38.493,0.140,-0.004,-0.042,-9.349,-75.492,-0.438
14:05:05:578,38.599,-0.002,0.001,0.099,-9.555,-76.559,0.509
14:05:05:578,38.599,-0.007,0.021,0.141,-9.698,-77.173,1.179
14:05:05:579,38.600,0.068,0.011,0.041,-9.948,-77.536,2.229
14:05:05:58,38.601,0.095,-0.011,0.025,-9.970,-77.854,2.943
14:05:05:603,38.624,0.041,0.006,0.097,-9.783,-78.683,4.015
14:05:05:603,38.624,0.032,0.002,0.059,-9.508,-79.044,5.147
14:05:05:603,38.624,0.019,0.000,0.014,-9.318,-79.025,5.918
14:05:05:604,38.625,0.051,0.014,0.048,-9.015,-79.336,7.073
14:05:05:628,38.649,0.053,0.033,0.114,-8.778,-79.462,7.890
14:05:05:629,38.650,0.066,0.020,0.103,-8.379,-79.774,9.278
14:05:05:63,38.651,0.105,0.062,0.136,-8.143,-79.877,10.150
14:05:05:631,38.651,0.037,0.068,0.114,-7.526,-80.280,12.076
14:05:05:734,38.755,0.012,0.126,0.132,-6.699,-80.689,14.331
14:05:05:734,38.755,0.032,0.184,0.179,-5.958,-81.013,15.964
14:05:05:735,38.756,0.101,0.215,0.234,-4.506,-81.507,18.612
14:05:05:735,38.756,0.039,0.213,0.298,-3.298,-81.870,20.560
14:05:05:864,38.884,0.107,0.203,0.470,-1.172,-82.271,23.798
14:05:05:865,38.885,0.243,0.181,0.625,1.388,-82.597,27.588
14:05:05:865,38.886,0.375,0.242,0.935,3.531,-83.103,30.627
14:05:05:886,38.907,0.576,0.042,1.074,9.126,-82.693,40.218
14:05:05:887,38.907,0.466,-0.385,0.685,11.613,-80.365,46.341
14:05:05:888,38.908,0.444,0.213,-0.090,13.742,-78.839,51.028
14:05:06:101,39.122,0.551,-1.030,0.807,14.819,-78.537,52.551
14:05:06:101,39.122,0.173,-0.791,0.312,15.464,-78.409,52.652
14:05:06:102,39.122,0.216,-0.812,0.252,15.598,-78.849,51.468
14:05:06:102,39.123,0.123,-0.795,0.239,14.552,-80.115,47.458
14:05:06:127,39.148,0.099,-0.701,0.336,13.198,-81.435,43.556
14:05:06:127,39.148,0.048,-0.514,0.427,10.558,-83.783,36.610
14:05:06:128,39.149,-0.061,-0.181,0.460,7.120,-85.691,29.043
14:05:06:128,39.149,-0.063,-0.017,0.391,4.636,-86.343,23.794
14:05:06:415,39.435,-0.012,0.301,0.215,1.081,-86.480,15.352
14:05:06:416,39.436,-0.122,0.669,0.140,-1.403,-85.828,9.251
14:05:06:417,39.437,-0.215,0.749,-0.257,-4.855,-82.799,-0.484
14:05:06:417,39.438,-0.383,0.925,-0.978,-6.992,-78.642,-9.949
14:05:06:522,39.543,-0.500,0.654,-1.390,-7.519,-75.542,-15.457
14:05:06:522,39.543,-0.631,-0.511,-2.332,-7.709,-71.441,-21.625
14:05:06:523,39.544,-0.619,-0.404,-1.464,-8.732,-71.197,-23.341
14:05:06:523,39.544,-0.655,-0.187,-1.127,-9.550,-72.848,-22.070
14:05:06:673,39.694,-0.252,0.306,0.709,-8.920,-73.523,-19.774
14:05:06:674,39.695,0.167,0.483,-0.251,-7.761,-72.691,-16.797
14:05:06:701,39.722,-0.387,0.231,-0.434,-7.027,-71.096,-13.329
14:05:06:702,39.723,-0.152,0.259,-0.442,-7.037,-69.988,-10.828
14:05:06:702,39.723,0.059,-0.066,-0.365,-7.349,-69.224,-7.839
14:05:06:758,39.779,-0.056,-0.020,-0.164,-7.562,-69.629,-6.273
14:05:06:758,39.779,-0.004,-0.003,0.023,-7.839,-70.822,-4.535
14:05:06:758,39.779,0.050,-0.046,0.096,-8.115,-71.359,-3.675
14:05:06:759,39.780,0.008,0.027,0.014,-8.669,-71.353,-2.618
14:05:06:784,39.805,0.048,0.016,-0.040,-9.292,-71.041,-1.819
14:05:06:784,39.805,0.040,0.016,-0.028,-9.590,-71.204,-1.304
14:05:06:784,39.805,0.011,-0.003,0.091,-9.880,-71.962,-0.506
14:05:06:784,39.805,0.048,0.012,0.076,-10.201,-72.269,0.294
14:05:06:913,39.934,0.031,0.014,0.032,-10.387,-72.221,0.833
14:05:06:914,39.935,0.096,-0.007,0.011,-10.510,-72.674,1.787
14:05:06:915,39.936,0.063,-0.017,0.085,-10.527,-73.194,2.493
14:05:06:916,39.937,0.010,-0.001,0.047,-10.478,-73.530,3.468
14:05:06:94,39.961,-0.019,0.017,0.008,-10.363,-74.114,4.098
14:05:06:941,39.962,0.036,0.002,0.065,-10.165,-74.696,5.084
14:05:06:942,39.963,0.063,0.011,0.073,-9.933,-75.502,6.160
14:05:06:942,39.963,0.157,0.029,0.096,-9.677,-75.806,7.008
14:05:07:019,40.040,0.068,0.064,0.106,-9.138,-76.867,8.612
14:05:07:02,40.041,0.096,0.084,0.115,-8.681,-77.337,9.902
14:05:07:021,40.042,0.036,0.089,0.125,-7.812,-78.346,12.120
14:05:07:072,40.093,0.036,0.217,0.219,-5.647,-79.849,16.401
14:05:07:072,40.093,0.050,0.220,0.329,-3.832,-80.516,19.353
14:05:07:073,40.093,0.069,0.222,0.447,-2.406,-81.075,21.532
14:05:07:073,40.094,0.127,0.222,0.520,0.050,-81.568,25.210
14:05:07:092,40.113,0.254,0.239,0.929,2.032,-82.198,28.016
14:05:07:093,40.114,0.389,0.172,1.067,5.530,-83.319,32.810
14:05:07:197,40.217,0.523,0.254,0.825,8.597,-83.006,38.500
14:05:07:197,40.218,0.590,-0.120,1.039,10.276,-81.646,42.348
14:05:07:225,40.246,0.497,-0.360,0.730,12.134,-79.266,47.297
14:05:07:226,40.246,0.533,0.325,-0.576,13.468,-77.969,49.847
14:05:07:227,40.247,0.192,-1.114,0.373,15.222,-77.706,51.125
14:05:07:306,40.327,0.241,-0.728,0.239,15.847,-77.416,49.811
14:05:07:306,40.327,0.221,-0.778,0.189,16.149,-77.588,47.761
14:05:07:306,40.327,0.289,-0.695,0.337,15.183,-78.383,42.670
14:05:07:354,40.375,0.272,-0.478,0.322,13.763,-79.174,38.249
14:05:07:354,40.375,0.182,-0.302,0.416,11.151,-80.742,30.983
14:05:07:407,40.428,0.101,0.024,0.344,8.973,-81.379,26.042
14:05:07:407,40.428,0.078,0.148,0.142,5.416,-81.146,18.694
14:05:07:517,40.537,0.099,0.388,0.007,1.771,-79.860,10.811
14:05:07:518,40.538,-0.064,0.507,-0.022,-0.761,-77.993,5.113
14:05:07:518,40.539,-0.104,0.661,-0.198,-3.770,-74.263,-3.993
14:05:07:519,40.540,-0.174,0.791,-0.580,-5.056,-71.188,-10.141
14:05:07:564,40.584,-0.344,0.228,-1.498,-5.992,-66.227,-18.365
14:05:07:564,40.585,-0.963,-0.460,-1.850,-7.455,-63.240,-24.207
14:05:07:616,40.637,-1.054,-0.471,-1.401,-9.144,-63.757,-25.799
14:05:07:617,40.638,-0.578,-0.034,-0.784,-9.402,-64.537,-24.346
14:05:07:642,40.663,0.010,0.598,0.951,-8.474,-64.067,-22.005
14:05:07:694,40.714,-0.102,0.272,-0.422,-6.911,-61.788,-18.976
14:05:07:721,40.742,-0.321,0.054,-0.205,-5.968,-59.044,-15.450
14:05:07:722,40.742,-0.353,0.233,-0.327,-5.689,-57.555,-13.106
14:05:07:805,40.826,-0.261,0.087,-0.345,-5.846,-56.355,-9.652
14:05:07:806,40.827,-0.107,0.007,-0.228,-6.195,-56.261,-7.695
14:05:07:806,40.827,-0.066,-0.025,-0.092,-6.736,-56.928,-5.409
14:05:07:881,40.902,-0.006,0.002,-0.015,-7.105,-57.572,-4.238
14:05:07:882,40.903,0.002,-0.012,0.001,-7.718,-58.330,-2.908
14:05:07:883,40.903,0.035,0.016,0.049,-8.457,-58.733,-1.947
14:05:07:96,40.981,0.029,0.003,0.002,-8.952,-58.751,-1.507
14:05:07:961,40.981,0.087,0.015,0.036,-9.538,-58.904,-0.940
14:05:07:961,40.982,0.094,0.015,0.061,-9.784,-58.987,-0.544
14:05:07:98,41.001,0.026,0.000,0.045,-9.967,-58.721,0.110
14:05:08:038,41.059,0.016,0.011,0.030,-10.079,-58.362,0.830
14:05:08:038,41.059,0.050,0.005,0.016,-10.139,-58.326,1.374
14:05:08:059,41.080,0.029,-0.007,0.055,-10.122,-58.541,2.218
14:05:08:173,41.194,0.027,-0.007,0.043,-10.067,-58.651,2.682
14:05:08:174,41.195,0.020,0.003,0.018,-9.992,-58.742,3.390
14:05:08:174,41.195,0.038,0.011,0.042,-9.909,-58.892,3.885
14:05:08:175,41.196,0.037,0.029,0.041,-9.741,-59.272,4.651
14:05:08:22,41.241,0.062,0.003,0.053,-9.450,-59.755,5.398
14:05:08:306,41.326,0.090,0.023,0.103,-9.186,-60.124,5.987
14:05:08:306,41.327,0.030,0.023,0.052,-8.606,-60.765,7.337
14:05:08:306,41.327,0.117,0.041,0.088,-8.135,-61.318,8.348
14:05:08:307,41.327,0.096,0.075,0.071,-7.279,-62.094,10.061
14:05:08:322,41.342,0.123,0.162,0.053,-6.049,-62.930,12.021
14:05:08:462,41.483,0.049,0.199,0.161,-4.940,-63.661,13.500
14:05:08:463,41.484,0.023,0.211,0.270,-2.989,-64.902,15.888
14:05:08:464,41.484,0.151,0.220,0.357,-1.544,-65.601,17.589
14:05:08:465,41.485,0.312,0.222,0.411,0.859,-66.438,20.508
14:05:08:482,41.503,0.460,0.239,0.601,3.687,-66.978,24.274
14:05:08:483,41.504,0.609,0.224,0.707,5.825,-67.205,27.363
14:05:08:506,41.526,0.562,0.205,0.580,8.936,-66.832,32.469
14:05:08:532,41.553,0.831,0.020,0.593,11.136,-65.787,36.208
14:05:08:617,41.638,0.682,-0.258,0.395,13.078,-62.345,41.783
14:05:08:617,41.638,0.258,-0.108,-0.271,13.240,-59.693,44.882
14:05:08:618,41.639,0.490,-0.178,-0.195,13.636,-56.454,48.191
14:05:08:803,41.824,0.431,-0.929,0.227,13.794,-54.436,48.726
14:05:08:804,41.825,0.343,-0.540,-0.031,13.470,-53.122,47.878
14:05:08:805,41.825,0.450,-0.675,0.010,13.584,-51.987,44.739
14:05:08:806,41.826,0.591,-0.560,0.169,13.243,-51.856,41.489
14:05:08:822,41.843,0.398,-0.457,0.056,12.058,-52.031,35.232
14:05:08:855,41.876,0.337,-0.214,0.117,9.791,-52.281,28.240
14:05:08:856,41.877,0.412,-0.101,0.234,7.693,-51.949,23.395
14:05:08:857,41.878,0.265,0.325,-0.041,4.138,-49.729,16.257
14:05:08:858,41.879,0.229,0.434,-0.088,1.798,-47.450,11.244
14:05:08:904,41.925,0.062,0.583,-0.172,-1.441,-42.579,2.991
14:05:08:904,41.925,-0.130,0.795,-0.381,-2.998,-38.707,-2.876
14:05:08:956,41.976,-0.599,0.786,-0.660,-4.238,-32.393,-11.705
14:05:08:956,41.977,-1.565,-0.026,-1.238,-4.444,-26.070,-19.473
14:05:09:038,42.059,-2.138,-0.625,-0.985,-5.030,-23.301,-23.360
14:05:09:039,42.060,-1.516,-0.424,-0.574,-7.293,-23.760,-25.202
14:05:09:04,42.061,-0.957,0.008,-0.121,-7.571,-24.270,-23.974
14:05:09:086,42.107,0.428,0.527,0.787,-6.167,-23.259,-20.879
14:05:09:086,42.107,-0.112,0.319,-0.046,-4.804,-20.131,-17.704
14:05:09:113,42.133,-0.585,-0.022,0.053,-4.525,-18.283,-15.421
14:05:09:113,42.134,-0.535,0.247,-0.159,-4.820,-16.706,-12.035
14:05:09:162,42.182,-0.317,-0.041,-0.242,-5.364,-16.584,-9.842
14:05:09:192,42.213,-0.137,-0.019,-0.072,-6.172,-17.091,-7.423
14:05:09:192,42.213,-0.040,0.021,0.035,-6.732,-17.823,-5.845
14:05:09:244,42.265,-0.011,-0.015,0.054,-7.127,-18.145,-5.107
14:05:09:244,42.265,0.037,-0.002,0.025,-7.883,-18.330,-4.191
14:05:09:296,42.316,0.047,0.000,-0.067,-8.457,-18.229,-3.641
14:05:09:297,42.317,0.044,-0.011,-0.071,-9.130,-18.319,-2.851
14:05:09:32,42.341,0.105,0.010,0.009,-9.458,-18.779,-2.301
14:05:09:346,42.367,0.061,0.010,0.078,-9.840,-19.475,-1.424
14:05:09:403,42.424,-0.001,0.009,0.040,-10.242,-19.428,-0.664
14:05:09:403,42.424,-0.038,0.006,0.019,-10.522,-19.297,-0.206
14:05:09:424,42.445,0.000,0.016,-0.003,-10.853,-19.472,0.431
14:05:09:45,42.471,0.034,0.022,0.035,-10.975,-19.782,0.844
14:05:09:477,42.498,0.062,0.002,0.047,-10.996,-20.222,1.497
14:05:09:503,42.524,0.062,-0.009,0.016,-10.990,-20.394,1.962
14:05:09:529,42.550,0.063,-0.004,-0.008,-10.934,-21.872,2.722
14:05:09:586,42.607,0.033,0.017,0.018,-10.812,-23.251,3.509
14:05:09:586,42.607,0.020,0.015,0.063,-10.676,-23.420,4.067
14:05:09:608,42.629,0.081,0.023,0.052,-10.379,-24.996,5.005
14:05:09:662,42.682,0.081,0.025,0.021,-10.125,-25.333,5.750
14:05:09:687,42.708,0.086,0.023,0.046,-9.617,-27.112,7.061
14:05:09:931,42.952,0.079,0.064,0.032,-8.894,-27.653,8.619
14:05:09:932,42.953,0.098,0.088,0.031,-8.271,-29.144,9.791
14:05:09:932,42.953,0.065,0.176,0.067,-7.091,-29.767,11.728
14:05:09:985,43.006,0.057,0.136,0.151,-6.101,-31.430,13.146
14:05:09:985,43.006,0.157,0.164,0.167,-4.382,-32.375,15.365
14:05:09:986,43.007,0.321,0.183,0.180,-2.414,-34.122,17.738
14:05:09:987,43.008,0.410,0.206,0.173,-0.961,-34.462,19.583
14:05:10:011,43.032,0.543,0.210,0.256,1.516,-35.143,22.972
14:05:10:011,43.032,0.705,0.278,0.302,3.280,-35.154,25.734
14:05:10:012,43.033,0.698,0.217,0.350,5.879,-35.476,30.373
14:05:10:089,43.110,0.711,-0.144,-0.046,9.423,-31.459,38.969
14:05:10:09,43.111,0.125,-0.060,-0.412,9.159,-27.702,43.466
14:05:10:091,43.112,0.537,-0.504,-0.115,9.183,-26.749,45.584
14:05:10:092,43.113,0.459,-0.825,-0.022,9.837,-25.643,45.987
14:05:10:163,43.184,0.295,-0.685,-0.125,10.127,-25.436,45.055
14:05:10:164,43.185,0.323,-0.742,-0.075,10.694,-26.086,41.943
14:05:10:193,43.213,0.386,-0.598,-0.032,10.484,-27.749,36.848
14:05:10:193,43.213,0.436,-0.456,0.005,9.701,-29.130,32.688
14:05:10:194,43.214,0.388,-0.150,0.162,7.168,-30.639,25.923
14:05:10:271,43.292,0.323,0.041,0.156,4.962,-31.022,21.386
14:05:10:271,43.292,0.175,0.379,0.046,1.402,-30.089,14.509
14:05:10:272,43.293,0.146,0.465,0.025,-1.089,-28.610,9.616
14:05:10:322,43.343,-0.071,0.618,-0.022,-4.628,-24.481,1.509
14:05:10:322,43.343,-0.414,0.700,-0.119,-6.972,-19.192,-7.055
14:05:10:401,43.422,-1.014,0.499,-0.446,-7.787,-15.559,-12.536
14:05:10:402,43.423,-1.741,-0.197,-0.508,-8.382,-10.531,-19.564
14:05:10:403,43.424,-1.679,-0.413,-0.034,-9.291,-8.830,-22.822
14:05:10:476,43.496,-1.273,-0.337,0.048,-11.151,-9.313,-24.213
14:05:10:59,43.611,-0.529,-0.195,0.068,-10.863,-9.415,-22.242
14:05:10:59,43.611,0.762,0.442,0.359,-9.963,-8.681,-20.017
14:05:10:59,43.611,-0.331,0.254,0.000,-8.523,-6.020,-17.385
14:05:10:591,43.612,-0.236,0.026,0.260,-7.979,-4.071,-15.311
14:05:10:72,43.741,-0.499,0.260,-0.001,-7.706,-2.443,-12.249
14:05:10:72,43.741,-0.338,-0.031,-0.016,-7.934,-1.792,-9.248
14:05:10:721,43.742,-0.248,-0.013,-0.088,-8.191,-1.738,-7.630
14:05:10:722,43.743,-0.088,-0.010,0.052,-8.459,-2.081,-5.725
14:05:10:745,43.766,-0.062,0.007,0.077,-8.712,-2.333,-4.800
14:05:10:746,43.767,0.051,-0.018,0.066,-9.297,-2.633,-3.751
14:05:10:747,43.768,0.016,-0.007,-0.016,-10.075,-2.565,-3.028
14:05:10:748,43.769,-0.005,-0.005,-0.048,-10.539,-1.215,-2.617
14:05:10:792,43.813,0.028,0.017,0.004,-11.083,-1.541,-2.019
14:05:10:793,43.814,0.068,0.023,0.036,-11.391,-0.507,-1.587
14:05:10:874,43.894,0.021,0.025,0.012,-11.838,-0.724,-0.879
14:05:10:874,43.895,0.003,0.017,-0.011,-12.136,0.159,-0.094
14:05:10:875,43.896,0.031,-0.011,0.021,-12.195,-0.250,0.482
14:05:10:894,43.915,0.060,0.004,0.003,-12.191,0.265,1.330
14:05:10:951,43.972,0.038,0.013,-0.013,-12.187,0.157,1.860
14:05:10:951,43.972,0.006,0.029,0.006,-12.084,0.836,2.696
14:05:11:034,44.054,0.043,-0.003,0.049,-11.919,0.579,3.284
14:05:11:034,44.055,0.050,0.017,0.015,-11.624,1.069,4.215
14:05:11:034,44.055,0.060,0.031,0.023,-11.162,1.588,5.148
14:05:11:052,44.073,0.081,0.022,-0.025,-10.839,1.424,5.725
14:05:11:132,44.153,0.056,0.046,0.015,-10.278,1.667,7.108
14:05:11:238,44.259,0.071,0.083,0.017,-9.802,1.394,8.171
14:05:11:402,44.423,0.079,0.085,0.018,-8.932,1.690,9.973
14:05:11:403,44.424,0.096,0.138,0.015,-7.815,1.151,11.975
14:05:11:404,44.425,0.116,0.186,0.053,-6.875,1.425,13.406
14:05:11:405,44.425,0.218,0.191,0.099,-5.186,0.753,15.671
14:05:11:456,44.476,0.278,0.200,0.065,-3.900,0.870,17.301
14:05:11:456,44.477,0.396,0.224,-0.054,-1.780,0.546,19.964
14:05:11:457,44.477,0.725,0.238,-0.331,2.449,0.914,25.752
14:05:11:559,44.580,0.785,0.241,-0.375,5.200,1.368,30.390
14:05:11:559,44.580,0.716,0.268,-0.415,7.074,1.873,34.035
14:05:11:559,44.580,0.768,-0.159,-0.315,9.868,3.491,39.676
14:05:11:689,44.710,0.113,-0.108,-0.148,10.794,5.079,42.818
14:05:11:689,44.710,0.122,-0.156,-0.424,12.668,6.753,46.637
14:05:11:69,44.711,0.467,-0.899,-0.129,13.976,7.075,48.083
14:05:11:717,44.738,0.298,-0.670,-0.177,13.886,7.960,47.572
14:05:11:718,44.739,0.343,-0.750,-0.137,13.316,7.639,44.925
14:05:11:719,44.740,0.425,-0.584,-0.086,12.214,7.152,42.162
14:05:11:719,44.740,0.436,-0.522,-0.072,9.424,6.298,36.276
14:05:11:743,44.764,0.509,-0.335,0.028,6.207,5.466,29.285
14:05:11:744,44.765,0.383,-0.013,0.126,3.889,5.390,24.387
14:05:11:745,44.766,0.245,0.301,0.034,0.660,5.751,16.650
14:05:11:745,44.766,0.195,0.460,0.107,-1.339,6.393,11.057
14:05:11:769,44.790,0.082,0.624,0.282,-4.401,8.903,1.788
14:05:11:77,44.791,-0.552,0.933,0.188,-6.552,13.943,-8.097
14:05:11:771,44.792,-1.207,0.846,0.245,-6.784,18.523,-14.384
14:05:11:845,44.865,-1.529,-0.374,0.595,-6.052,27.852,-24.816
14:05:11:846,44.866,-1.097,-0.269,0.512,-7.563,25.795,-24.290
14:05:11:847,44.867,0.364,-0.001,0.175,-7.200,24.962,-22.000
14:05:11:893,44.914,-0.308,0.197,0.021,-6.421,25.059,-19.000
14:05:11:921,44.942,-0.534,0.180,0.486,-5.842,27.326,-15.481
14:05:11:923,44.944,-0.322,0.474,0.197,-5.740,28.804,-12.705
14:05:11:974,44.995,-0.364,-0.187,0.182,-6.093,30.396,-9.277
14:05:11:974,44.995,-0.295,-0.039,0.151,-6.504,30.785,-7.228
14:05:11:997,45.018,-0.039,0.033,0.094,-7.026,29.734,-4.883
14:05:12:023,45.044,0.052,-0.023,0.141,-7.675,28.540,-3.463
14:05:12:079,45.100,0.045,-0.025,0.003,-8.291,28.042,-2.755
14:05:12:079,45.100,-0.044,0.016,0.050,-9.323,27.870,-1.849
14:05:12:103,45.124,-0.077,0.018,-0.034,-9.989,27.619,-1.306
14:05:12:157,45.178,0.078,0.003,-0.048,-10.584,26.442,-0.494
14:05:12:158,45.179,0.067,0.010,0.024,-10.852,25.865,-0.031
14:05:12:183,45.204,-0.017,-0.003,0.028,-11.197,26.082,0.530
14:05:12:207,45.227,-0.038,0.015,0.005,-11.556,26.277,1.059
14:05:12:233,45.254,0.007,0.024,0.027,-11.723,25.979,1.469
14:05:12:287,45.308,0.032,0.007,-0.016,-11.820,25.765,2.070
14:05:12:344,45.365,0.006,0.006,0.044,-11.852,25.717,2.480
14:05:12:344,45.365,0.023,-0.004,0.048,-11.902,25.499,3.144
14:05:12:345,45.366,0.043,0.018,-0.029,-11.941,25.262,3.876
14:05:12:365,45.386,0.069,0.021,-0.039,-11.897,25.032,4.479
14:05:12:391,45.411,0.058,0.040,-0.019,-11.690,24.742,5.540
14:05:12:417,45.437,0.041,0.049,-0.008,-11.478,24.415,6.472
14:05:12:473,45.494,0.068,0.053,-0.014,-11.026,23.757,8.094
14:05:12:474,45.495,0.062,0.074,-0.008,-10.384,23.120,9.934
14:05:12:496,45.517,0.070,0.118,0.006,-9.839,22.664,11.272
14:05:12:522,45.543,0.126,0.183,0.056,-8.803,21.865,13.411
14:05:12:548,45.569,0.194,0.175,0.023,-7.927,21.177,14.910
14:05:12:603,45.624,0.263,0.152,0.000,-6.330,20.253,17.250
14:05:12:604,45.625,0.318,0.180,-0.126,-5.094,19.667,18.880
14:05:12:629,45.650,0.405,0.176,-0.175,-2.914,18.838,21.705
14:05:12:683,45.704,0.653,0.196,-0.258,-0.445,18.069,25.165
14:05:12:683,45.704,0.748,0.155,-0.411,1.162,17.915,27.868
14:05:12:705,45.726,0.661,0.260,-0.418,3.133,18.797,32.906
14:05:12:735,45.755,0.619,0.178,-0.492,4.131,20.231,36.552
14:05:12:847,45.868,0.598,-0.328,-0.669,5.734,22.568,41.316
14:05:12:847,45.868,-0.346,0.152,-0.315,6.579,24.936,45.245
14:05:12:847,45.868,0.504,-0.704,-0.636,7.194,25.705,46.675
14:05:12:848,45.869,0.344,-0.782,-0.436,9.176,25.780,46.404
14:05:12:863,45.884,0.216,-0.610,-0.308,10.175,25.632,45.130
14:05:12:919,45.939,0.298,-0.634,-0.292,11.062,24.929,41.425
14:05:12:919,45.940,0.276,-0.619,-0.335,10.770,24.213,37.541
14:05:12:943,45.964,0.270,-0.438,-0.314,9.727,22.854,30.909
14:05:12:968,45.989,0.277,-0.136,-0.192,7.386,22.085,23.697
14:05:12:994,46.015,0.262,-0.005,-0.172,5.345,22.304,18.673
14:05:13:021,46.041,0.030,0.339,-0.125,2.165,23.963,10.870
14:05:13:047,46.067,0.010,0.567,-0.054,-0.089,26.290,5.222
14:05:13:101,46.122,-0.241,0.614,0.072,-2.924,32.326,-3.888
14:05:13:129,46.150,-0.862,0.754,0.385,-3.907,40.096,-12.938
14:05:13:129,46.150,-1.554,0.277,0.910,-3.539,45.342,-18.180
14:05:13:152,46.173,-1.996,-0.748,1.800,-3.453,50.440,-23.958
14:05:13:178,46.199,-1.164,-0.426,1.572,-4.865,50.264,-25.319
14:05:13:204,46.225,-0.205,-0.091,0.831,-5.472,49.269,-23.460
14:05:13:26,46.280,0.024,-0.140,0.011,-4.343,50.860,-20.495
14:05:13:26,46.281,0.009,0.381,0.307,-3.796,52.969,-18.086
14:05:13:314,46.335,-0.371,0.273,0.671,-3.679,55.187,-14.719
14:05:13:315,46.336,-0.150,0.013,0.255,-4.196,55.713,-12.433
14:05:13:336,46.357,-0.291,0.012,0.280,-5.245,55.312,-9.777
14:05:13:391,46.412,-0.093,0.026,0.063,-6.147,54.306,-8.068
14:05:13:392,46.413,-0.026,-0.003,0.030,-6.609,53.886,-7.357
14:05:13:442,46.462,0.047,-0.003,0.035,-7.343,53.751,-6.670
14:05:13:47,46.490,0.043,-0.013,0.025,-7.965,53.883,-6.281
14:05:13:47,46.491,-0.053,0.016,-0.036,-8.984,54.021,-5.632
14:05:13:494,46.515,-0.068,0.005,-0.033,-9.745,53.598,-4.949
14:05:13:6,46.620,0.007,0.030,-0.031,-10.114,53.084,-4.451
14:05:13:632,46.653,0.069,0.027,-0.004,-10.559,52.850,-3.695
14:05:13:633,46.653,-0.018,0.022,0.042,-10.813,52.991,-3.151
14:05:13:633,46.653,-0.030,0.031,0.025,-11.071,52.851,-2.237
14:05:13:653,46.674,0.021,-0.004,-0.036,-11.088,52.476,-1.337
14:05:13:654,46.675,0.032,-0.004,0.055,-11.041,52.397,-0.784
14:05:13:73,46.751,0.001,0.008,0.063,-10.979,52.418,-0.035
14:05:13:764,46.785,-0.019,0.007,0.007,-10.919,52.906,0.437
14:05:13:765,46.786,0.026,0.001,-0.013,-10.742,52.617,1.176
14:05:13:765,46.786,0.057,0.025,-0.001,-10.568,52.981,1.723
14:05:13:766,46.787,0.014,0.029,-0.035,-10.243,52.606,2.725
14:05:13:81,46.830,0.028,0.026,0.010,-9.817,52.700,3.878
14:05:13:835,46.855,0.053,0.016,-0.006,-9.507,52.409,4.704
14:05:13:89,46.911,0.018,0.054,-0.036,-8.961,52.487,6.073
14:05:13:891,46.912,0.034,0.105,-0.046,-8.480,52.078,7.072
14:05:13:942,46.963,0.067,0.108,-0.022,-7.577,51.656,8.808
14:05:13:943,46.964,0.068,0.155,-0.047,-6.824,51.138,10.050
14:05:13:968,46.989,0.094,0.141,-0.068,-5.425,50.728,11.982
14:05:13:969,46.990,0.159,0.163,-0.161,-3.763,50.292,14.056
14:05:14:019,47.039,0.208,0.230,-0.318,-2.523,50.030,15.657
14:05:14:049,47.069,0.266,0.248,-0.407,-0.346,50.197,18.591
14:05:14:049,47.069,0.386,0.239,-0.560,1.338,50.344,20.999
14:05:14:071,47.091,0.398,0.229,-0.673,3.925,51.038,25.222
14:05:14:099,47.120,0.329,0.230,-0.771,6.703,52.316,29.991
14:05:14:318,47.339,0.151,0.071,-1.027,8.517,54.235,33.483
14:05:14:318,47.339,-0.066,-0.348,-0.854,9.315,59.334,38.872
14:05:14:318,47.339,-0.568,0.164,0.062,8.734,63.062,41.932
14:05:14:319,47.340,-0.156,-0.604,-0.790,7.918,67.491,44.971
14:05:14:369,47.390,-0.229,-0.729,-0.557,8.140,71.198,45.094
14:05:14:37,47.391,-0.330,-0.527,-0.447,8.340,72.875,44.111
14:05:14:371,47.391,-0.325,-0.570,-0.317,9.389,74.539,40.934
14:05:14:372,47.392,-0.335,-0.623,-0.407,10.027,74.934,37.544
14:05:14:417,47.438,-0.304,-0.514,-0.411,10.523,74.824,31.121
14:05:14:418,47.438,-0.270,-0.193,-0.304,9.187,75.119,24.330
14:05:14:442,47.463,-0.317,0.054,-0.238,7.335,76.262,19.662
14:05:14:443,47.464,-0.358,0.270,-0.084,4.065,79.481,12.541
14:05:14:525,47.546,-0.342,0.400,0.043,1.776,82.584,7.501
14:05:14:526,47.547,-0.322,0.527,0.243,-1.152,88.233,-0.811
14:05:14:527,47.548,-0.348,0.638,0.620,-2.456,92.088,-6.662
14:05:14:528,47.549,-0.163,0.485,1.121,-3.716,97.004,-15.216
14:05:14:543,47.564,0.106,-0.182,1.937,-5.151,100.038,-22.671
14:05:14:631,47.651,0.397,-0.514,2.051,-7.106,100.306,-26.250
14:05:14:631,47.652,0.509,-0.170,1.333,-10.309,98.267,-27.724
14:05:14:631,47.652,0.695,-0.395,1.178,-10.363,97.461,-26.132
14:05:14:677,47.698,0.543,-0.104,0.036,-8.791,98.562,-22.933
14:05:14:678,47.699,0.185,0.035,0.071,-6.864,102.292,-19.622
14:05:14:731,47.752,0.444,0.147,0.514,-6.135,104.593,-17.206
14:05:14:732,47.753,-0.038,0.145,0.322,-6.045,106.233,-13.489
14:05:14:867,47.888,0.001,-0.009,0.403,-6.163,106.342,-11.059
14:05:14:868,47.889,0.028,0.037,0.214,-6.280,106.001,-7.860
14:05:14:869,47.890,0.034,-0.122,-0.037,-6.315,105.610,-6.205
14:05:14:87,47.891,0.084,-0.026,0.005,-6.530,105.256,-4.374
14:05:14:886,47.907,0.032,-0.007,0.017,-7.014,105.439,-2.948
14:05:14:914,47.935,0.046,-0.011,0.091,-7.361,105.533,-2.150
14:05:14:914,47.935,-0.017,-0.017,0.100,-7.854,105.298,-1.227
14:05:14:937,47.958,0.022,-0.009,0.033,-8.194,104.942,-0.765
14:05:15:025,48.046,0.009,0.013,-0.001,-8.763,104.470,-0.122
14:05:15:025,48.046,0.001,0.029,0.039,-9.225,104.178,0.497
14:05:15:025,48.046,-0.013,0.017,0.016,-9.446,103.819,0.946
14:05:15:042,48.063,-0.022,-0.007,0.001,-9.670,103.233,1.642
14:05:15:068,48.089,-0.006,-0.004,0.000,-9.769,102.950,2.074
14:05:15:182,48.203,-0.003,0.006,-0.018,-9.812,102.557,2.727
14:05:15:183,48.204,-0.007,0.013,-0.008,-9.794,102.357,3.185
14:05:15:183,48.204,0.008,0.004,0.006,-9.695,102.101,3.975
14:05:15:184,48.205,0.008,0.017,0.004,-9.535,101.835,4.837
14:05:15:228,48.249,0.024,0.039,0.011,-9.421,101.628,5.444
14:05:15:23,48.251,0.009,0.052,-0.024,-9.238,101.134,6.485
14:05:15:309,48.330,-0.036,0.071,-0.081,-9.047,100.678,7.345
14:05:15:309,48.330,-0.033,0.092,-0.077,-8.570,100.008,8.916
14:05:15:331,48.352,-0.026,0.141,-0.052,-7.759,99.378,10.815
14:05:15:385,48.406,-0.006,0.194,-0.078,-7.004,98.844,12.231
14:05:15:497,48.518,0.057,0.184,-0.168,-5.541,97.930,14.518
14:05:15:497,48.518,0.042,0.161,-0.230,-4.411,97.309,16.142
14:05:15:497,48.518,-0.095,0.177,-0.293,-2.486,96.603,18.695
14:05:15:709,48.729,-0.138,0.201,-0.461,-1.015,96.095,20.572
14:05:15:71,48.730,-0.225,0.173,-0.613,1.587,95.197,23.835
14:05:15:711,48.731,-0.337,0.196,-0.718,4.216,94.693,27.937
14:05:15:711,48.732,-0.324,0.227,-0.732,5.967,94.926,31.399
14:05:15:735,48.755,-0.503,0.039,-0.789,8.429,96.348,36.997
14:05:15:735,48.756,-0.444,-0.070,-0.637,9.541,97.872,40.427
14:05:15:736,48.757,-0.450,0.236,0.407,10.888,99.873,44.380
14:05:15:737,48.757,-0.472,-0.884,-0.690,12.428,100.009,46.434
14:05:15:761,48.781,-0.204,-0.822,-0.437,13.390,99.703,46.224
14:05:15:761,48.782,-0.232,-0.679,-0.283,13.956,98.864,44.049
14:05:15:763,48.783,-0.209,-0.739,-0.334,13.760,97.947,41.543
14:05:15:763,48.783,-0.202,-0.635,-0.350,11.867,96.426,36.048
14:05:15:809,48.830,-0.120,-0.303,-0.400,8.843,94.962,29.478
14:05:15:809,48.830,-0.063,-0.177,-0.410,6.310,94.489,24.829
14:05:15:81,48.831,-0.026,0.136,-0.150,2.373,94.828,17.553
14:05:15:83,48.851,-0.114,0.517,-0.096,-0.061,95.253,12.410
14:05:15:856,48.877,0.097,0.522,0.123,-3.744,96.235,3.996
14:05:15:912,48.932,0.200,0.643,0.265,-6.177,97.389,-1.991
14:05:15:912,48.932,0.310,0.680,0.502,-9.390,99.580,-11.246
14:05:15:964,48.984,0.531,0.367,1.244,-12.071,102.489,-20.214
14:05:15:964,48.985,0.818,-0.394,1.989,-13.879,104.294,-25.334
14:05:16:048,49.069,1.220,-0.900,1.963,-16.474,104.602,-29.085
14:05:16:049,49.070,0.166,0.009,0.816,-16.252,104.391,-27.948
14:05:16:049,49.070,0.360,0.353,-0.468,-14.507,105.308,-24.742
14:05:16:066,49.087,0.588,0.185,0.347,-11.346,108.868,-20.242
14:05:16:092,49.113,0.337,0.346,0.583,-10.401,110.971,-16.789
14:05:16:118,49.139,-0.016,-0.135,0.125,-10.375,111.727,-14.702
14:05:16:201,49.222,0.035,-0.058,0.398,-10.623,112.111,-12.072
14:05:16:201,49.222,0.143,0.010,0.158,-10.863,111.417,-9.954
14:05:16:226,49.247,0.122,-0.032,0.022,-11.144,110.815,-9.015
14:05:16:227,49.248,0.094,-0.015,-0.050,-11.870,110.446,-8.072
14:05:16:25,49.270,-0.013,0.050,0.136,-12.490,110.841,-7.674
14:05:16:277,49.298,-0.061,0.021,0.232,-13.375,111.326,-7.355
14:05:16:302,49.323,-0.102,0.000,-0.012,-13.772,110.732,-7.088
14:05:16:357,49.378,-0.089,0.052,-0.141,-14.088,109.623,-6.410
14:05:16:358,49.379,-0.047,0.046,-0.040,-14.020,108.241,-4.815
14:05:16:41,49.431,0.078,0.028,0.038,-13.835,107.311,-3.550
14:05:16:41,49.431,0.026,-0.008,0.004,-13.485,106.116,-1.933
14:05:16:435,49.455,-0.006,-0.002,-0.016,-13.211,105.517,-1.026
14:05:16:546,49.567,0.010,-0.005,0.042,-12.752,104.827,0.251
14:05:16:546,49.567,-0.009,0.006,-0.030,-12.303,104.082,1.475
14:05:16:547,49.568,0.001,0.019,-0.056,-11.993,103.628,2.333
14:05:16:567,49.588,0.001,0.020,-0.003,-11.462,103.155,3.735
14:05:16:568,49.589,0.003,0.035,-0.019,-11.090,102.775,4.779
14:05:16:59,49.611,-0.024,0.034,-0.070,-10.454,102.029,6.528
14:05:16:648,49.668,0.009,0.066,-0.037,-9.992,101.634,7.699
14:05:16:648,49.668,-0.046,0.122,-0.038,-9.123,101.223,9.825
14:05:16:7,49.721,-0.001,0.244,-0.098,-7.854,100.673,12.147
14:05:16:7,49.721,0.072,0.218,-0.207,-6.746,100.065,13.917
14:05:16:722,49.743,0.033,0.222,-0.355,-4.870,99.173,16.891
14:05:16:891,49.912,-0.188,0.278,-0.482,-3.493,97.568,19.177
14:05:16:891,49.912,-0.288,0.271,-0.596,-1.041,96.818,23.342
14:05:16:892,49.913,-0.400,0.298,-0.924,1.837,95.842,28.668
14:05:16:892,49.913,-0.370,0.303,-0.740,3.637,95.857,32.541
14:05:16:907,49.928,-0.459,0.102,-0.785,5.532,97.069,38.620
14:05:16:933,49.954,-0.447,-0.322,-0.743,6.577,98.346,42.231
14:05:16:963,49.984,-0.373,0.408,0.633,8.781,98.899,46.092
14:05:16:963,49.984,-0.192,-0.930,-0.386,10.468,99.023,48.239
14:05:17:046,50.066,-0.161,-0.797,-0.427,11.948,98.561,47.711
14:05:17:046,50.067,-0.160,-0.764,-0.276,13.087,97.406,45.376
14:05:17:047,50.068,-0.134,-0.687,-0.354,13.110,96.251,42.805
14:05:17:048,50.068,-0.120,-0.649,-0.394,11.577,94.181,37.367
14:05:17:123,50.144,-0.172,-0.409,-0.399,9.773,92.796,32.982
14:05:17:123,50.144,-0.077,-0.242,-0.396,6.512,90.872,25.806
14:05:17:123,50.144,0.065,-0.011,-0.311,2.744,89.707,18.339
14:05:17:144,50.165,0.027,0.288,-0.159,0.224,89.487,13.122
14:05:17:196,50.216,0.069,0.602,-0.013,-3.551,89.803,4.476
14:05:17:222,50.243,0.230,0.643,0.200,-6.165,90.948,-1.781
14:05:17:25,50.270,0.336,0.867,0.745,-9.776,93.914,-11.568
14:05:17:251,50.271,0.495,0.507,1.420,-12.304,97.790,-20.769
14:05:17:273,50.294,0.573,-0.590,2.536,-13.506,100.477,-26.003
14:05:17:359,50.379,0.598,-0.190,1.534,-16.112,100.895,-29.946
14:05:17:359,50.380,-0.355,0.503,-0.516,-16.098,100.554,-28.796
14:05:17:36,50.381,0.971,-0.518,0.591,-14.175,101.964,-26.441
14:05:17:379,50.399,0.465,0.074,0.567,-12.669,103.646,-24.831
14:05:17:433,50.454,0.368,0.376,0.638,-11.629,105.728,-21.886
14:05:17:434,50.455,0.049,-0.048,0.348,-11.714,107.116,-19.401
14:05:17:545,50.566,-0.061,-0.136,0.280,-12.020,107.194,-18.091
14:05:17:545,50.566,-0.013,-0.019,0.150,-12.688,106.144,-16.186
14:05:17:546,50.566,0.007,-0.034,-0.060,-13.150,105.204,-15.114
14:05:17:547,50.567,0.081,0.024,0.019,-13.682,104.853,-13.927
14:05:17:563,50.583,-0.047,0.056,0.163,-14.096,105.056,-12.820
14:05:17:756,50.777,-0.133,0.003,0.108,-14.371,104.421,-11.818
14:05:17:756,50.777,0.007,0.043,-0.092,-14.516,102.642,-10.062
14:05:17:757,50.778,0.031,-0.001,-0.002,-14.444,101.888,-9.008
14:05:17:758,50.779,-0.017,0.040,0.052,-14.314,101.146,-7.369
14:05:17:86,50.880,-0.053,-0.021,0.062,-14.055,100.349,-5.739
14:05:17:86,50.881,-0.010,-0.020,-0.032,-13.801,99.616,-4.664
14:05:17:86,50.881,0.041,-0.010,0.011,-13.398,99.065,-3.227
14:05:17:936,50.957,0.025,0.024,0.069,-13.107,98.966,-2.347
14:05:17:936,50.957,0.012,0.010,0.006,-12.643,98.415,-1.101
14:05:18:062,51.082,-0.010,0.006,-0.022,-12.323,97.953,-0.304
14:05:18:097,51.118,-0.036,-0.001,-0.070,-11.801,97.475,0.904
14:05:18:098,51.119,0.019,0.016,0.002,-11.252,97.250,2.286
14:05:18:099,51.120,-0.009,0.020,-0.016,-10.871,97.017,3.323
14:05:18:099,51.120,-0.023,0.044,-0.061,-10.229,96.618,5.054
14:05:18:149,51.170,0.014,0.060,0.003,-9.729,96.395,6.344
14:05:18:149,51.170,0.061,0.103,-0.041,-8.839,95.848,8.451
14:05:18:149,51.170,0.038,0.162,-0.113,-7.681,95.237,10.725
14:05:18:176,51.196,-0.033,0.216,-0.153,-6.739,94.745,12.363
14:05:18:177,51.198,-0.004,0.212,-0.240,-5.135,94.143,15.057
14:05:18:178,51.198,-0.077,0.257,-0.423,-3.903,93.818,17.047
14:05:18:178,51.199,-0.151,0.252,-0.565,-1.804,93.596,20.591
14:05:18:2,51.220,-0.302,0.355,-0.884,-0.227,93.578,23.467
14:05:18:2,51.220,-0.344,0.341,-0.913,2.391,93.529,28.551
14:05:18:2,51.221,-0.537,0.291,-0.832,4.990,94.380,34.449
14:05:18:247,51.268,-0.522,-0.092,-0.969,6.471,95.756,38.414
14:05:18:248,51.269,-0.313,-0.194,-0.185,8.288,98.025,43.608
14:05:18:303,51.324,-0.465,-0.952,-0.748,9.317,99.102,46.248
14:05:18:303,51.324,-0.218,-0.886,-0.402,10.474,99.632,47.446
14:05:18:304,51.325,-0.179,-0.662,-0.151,11.174,99.484,46.104
14:05:18:352,51.373,-0.174,-0.761,-0.258,11.662,98.696,43.887
14:05:18:353,51.374,-0.162,-0.681,-0.272,10.518,97.162,38.494
14:05:18:403,51.423,-0.136,-0.586,-0.351,9.262,95.938,34.287
14:05:18:431,51.452,-0.062,-0.357,-0.375,6.641,94.280,27.357
14:05:18:432,51.452,0.024,-0.148,-0.340,4.391,93.713,22.573
14:05:18:482,51.503,-0.046,0.131,-0.113,0.651,94.288,15.039
14:05:18:51,51.531,-0.059,0.319,-0.094,-2.868,95.687,6.672
14:05:18:51,51.531,0.108,0.677,0.163,-5.181,97.444,0.383
14:05:18:622,51.643,0.305,0.999,0.630,-8.061,100.487,-9.663
14:05:18:623,51.643,0.407,0.566,1.745,-9.492,102.729,-16.335
14:05:18:624,51.644,0.526,-0.451,2.612,-10.733,106.586,-25.065
14:05:18:624,51.645,0.888,-0.444,1.664,-13.337,107.554,-29.649
14:05:18:64,51.661,0.395,-0.196,1.143,-13.963,106.445,-28.518
14:05:18:667,51.688,0.967,-0.519,0.260,-12.363,106.739,-25.250
14:05:18:72,51.741,0.006,0.267,0.304,-10.601,108.322,-23.058
14:05:18:72,51.741,0.623,0.289,0.421,-8.635,111.487,-19.292
14:05:18:772,51.792,0.002,0.020,0.353,-8.036,113.590,-15.221
14:05:18:799,51.819,0.181,-0.055,0.532,-8.029,114.364,-13.073
14:05:18:799,51.820,0.096,-0.021,0.294,-8.129,114.302,-10.269
14:05:18:822,51.842,0.064,-0.028,0.026,-8.282,113.300,-8.820
14:05:18:879,51.900,0.033,-0.046,-0.045,-8.710,111.740,-7.207
14:05:18:879,51.900,0.081,-0.016,0.026,-9.092,111.622,-6.531
14:05:18:901,51.922,0.053,-0.005,0.079,-9.955,111.984,-5.838
14:05:18:957,51.978,-0.035,0.018,0.111,-10.960,111.956,-5.499
14:05:18:957,51.978,-0.029,0.015,-0.003,-11.496,111.382,-5.331
14:05:18:98,52.000,0.008,0.016,-0.041,-12.083,111.077,-5.200
14:05:19:006,52.027,-0.069,0.020,0.127,-12.391,111.471,-5.198
14:05:19:033,52.054,-0.141,0.001,0.056,-12.746,111.555,-4.992
14:05:19:058,52.079,-0.031,0.042,-0.056,-12.759,110.416,-4.160
14:05:19:113,52.134,0.060,0.034,-0.027,-12.599,109.558,-3.383
14:05:19:114,52.135,0.014,0.000,0.021,-12.299,108.643,-2.297
14:05:19:137,52.158,0.016,0.001,0.033,-12.087,108.237,-1.652
14:05:19:163,52.184,-0.018,0.006,0.011,-11.752,107.210,-0.689
14:05:19:189,52.210,0.009,0.008,-0.002,-11.512,106.749,-0.022
14:05:19:274,52.295,-0.039,0.023,-0.039,-11.095,105.720,1.083
14:05:19:275,52.296,-0.065,0.030,-0.052,-10.565,104.605,2.375
14:05:19:276,52.297,-0.069,0.039,-0.020,-10.124,104.206,3.393
14:05:19:328,52.348,0.004,0.061,-0.048,-9.344,103.365,5.126
14:05:19:328,52.348,-0.043,0.079,-0.043,-8.754,102.952,6.413
14:05:19:376,52.397,-0.055,0.169,-0.020,-7.688,102.287,8.526
