Time,Second,AccelerationX,AccelerationY,AccelerationZ,EulerAnglesX,EulerAnglesY,EulerAnglesZ
19:22:47:392,0.000,-0.005,-0.010,0.016,-3.815,17.965,-9.356
19:22:47:417,0.026,-0.008,-0.007,0.013,-3.815,17.965,-9.356
19:22:47:444,0.053,-0.008,-0.007,0.015,-3.815,17.965,-9.356
19:22:47:472,0.081,-0.008,-0.007,0.005,-3.815,17.965,-9.356
19:22:47:477,0.086,-0.004,-0.007,0.013,-3.815,17.965,-9.356
19:22:47:525,0.133,-0.005,-0.007,0.013,-3.815,17.965,-9.356
19:22:47:526,0.134,-0.007,-0.007,0.015,-3.815,17.965,-9.356
19:22:47:606,0.215,-0.010,-0.006,0.015,-3.815,17.965,-9.356
19:22:47:607,0.215,-0.006,-0.007,0.007,-3.815,17.965,-9.356
19:22:47:608,0.216,-0.003,-0.009,0.014,-3.815,17.965,-9.356
19:22:47:686,0.294,-0.005,-0.005,0.016,-3.815,17.965,-9.356
19:22:47:686,0.295,-0.005,-0.006,0.013,-3.815,17.965,-9.356
19:22:47:687,0.296,-0.008,-0.008,0.007,-3.815,17.965,-9.356
19:22:47:706,0.314,-0.006,-0.007,0.015,-3.815,17.965,-9.356
19:22:47:761,0.370,-0.006,-0.008,0.007,-3.815,17.965,-9.356
19:22:47:762,0.370,-0.006,-0.007,0.015,-3.815,17.965,-9.356
19:22:47:784,0.393,-0.009,-0.007,0.009,-3.815,17.965,-9.356
19:22:47:811,0.419,-0.004,-0.010,0.015,-3.814,17.971,-9.371
19:22:47:837,0.445,-0.008,-0.007,0.007,-3.820,17.967,-9.376
19:22:47:894,0.502,-0.006,-0.007,0.012,-3.820,17.967,-9.376
19:22:47:894,0.502,-0.008,-0.006,0.006,-3.820,17.967,-9.376
19:22:47:916,0.524,-0.005,-0.005,0.014,-3.820,17.967,-9.376
19:22:47:971,0.579,-0.009,-0.008,0.005,-3.820,17.967,-9.376
19:22:47:972,0.580,-0.006,-0.008,0.012,-3.820,17.967,-9.376
19:22:48:083,0.691,-0.005,-0.010,0.010,-3.820,17.967,-9.376
19:22:48:084,0.692,-0.002,-0.008,0.013,-3.820,17.967,-9.376
19:22:48:157,0.766,-0.006,-0.009,0.010,-3.820,17.967,-9.376
19:22:48:158,0.767,-0.003,-0.007,0.015,-3.820,17.967,-9.376
19:22:48:159,0.767,-0.005,-0.006,0.011,-3.820,17.967,-9.376
19:22:48:208,0.816,-0.006,-0.008,0.009,-3.820,17.967,-9.376
19:22:48:208,0.816,-0.004,-0.009,0.007,-3.820,17.967,-9.376
19:22:48:23,0.839,-0.004,-0.006,0.015,-3.820,17.967,-9.376
19:22:48:286,0.895,-0.006,-0.009,0.004,-3.820,17.967,-9.376
19:22:48:287,0.895,-0.007,-0.006,0.016,-3.820,17.967,-9.376
19:22:48:309,0.918,-0.003,-0.007,0.014,-3.820,17.967,-9.376
19:22:48:337,0.945,-0.007,-0.006,0.009,-3.820,17.967,-9.376
19:22:48:363,0.971,-0.005,-0.005,0.011,-3.820,17.967,-9.376
19:22:48:417,1.026,-0.006,-0.008,0.012,-3.820,17.967,-9.376
19:22:48:418,1.026,-0.006,-0.007,0.016,-3.820,17.967,-9.376
19:22:48:441,1.049,-0.004,-0.007,0.007,-3.820,17.967,-9.376
19:22:48:497,1.105,-0.006,-0.006,0.015,-3.820,17.967,-9.376
19:22:48:497,1.105,-0.007,-0.007,0.006,-3.820,17.967,-9.376
19:22:48:573,1.181,-0.004,-0.008,0.014,-3.820,17.967,-9.376
19:22:48:605,1.214,-0.008,-0.007,0.009,-3.820,17.967,-9.376
19:22:48:605,1.214,-0.004,-0.006,0.015,-3.820,17.967,-9.376
19:22:48:606,1.214,0.000,-0.010,0.009,-3.824,17.889,-9.423
19:22:48:653,1.262,-0.003,-0.003,0.016,-3.827,17.826,-9.466
19:22:48:654,1.263,-0.008,-0.009,0.005,-3.828,17.802,-9.480
19:22:48:677,1.286,0.001,-0.005,0.013,-3.829,17.792,-9.480
19:22:48:73,1.338,-0.015,-0.006,0.014,-3.819,17.791,-9.479
19:22:48:759,1.367,0.000,-0.010,0.016,-3.793,17.789,-9.487
19:22:48:759,1.367,-0.006,-0.006,0.008,-3.780,17.773,-9.481
19:22:48:782,1.390,-0.004,-0.007,0.012,-3.766,17.772,-9.470
19:22:48:809,1.418,0.000,-0.009,0.006,-3.741,17.769,-9.468
19:22:48:834,1.443,-0.006,-0.008,0.019,-3.726,17.763,-9.472
19:22:48:861,1.469,-0.004,-0.008,0.013,-3.698,17.741,-9.470
19:22:48:887,1.496,0.002,-0.007,0.009,-3.684,17.720,-9.468
19:22:48:942,1.551,-0.005,-0.007,0.008,-3.655,17.708,-9.466
19:22:48:943,1.552,-0.005,-0.008,0.010,-3.635,17.706,-9.465
19:22:48:967,1.575,-0.007,-0.008,0.009,-3.616,17.690,-9.468
19:22:49:021,1.629,-0.001,-0.006,0.016,-3.613,17.674,-9.462
19:22:49:022,1.630,-0.001,-0.007,0.007,-3.603,17.673,-9.462
19:22:49:045,1.653,-0.002,-0.008,0.017,-3.603,17.673,-9.452
19:22:49:1,1.708,-0.001,-0.008,0.016,-3.604,17.672,-9.432
19:22:49:1,1.709,-0.011,-0.007,0.017,-3.610,17.672,-9.402
19:22:49:124,1.732,-0.002,-0.008,0.014,-3.606,17.676,-9.387
19:22:49:178,1.787,0.010,0.013,-0.008,-3.607,17.656,-9.386
19:22:49:179,1.788,0.038,0.044,-0.002,-3.620,17.502,-9.511
19:22:49:202,1.810,-0.004,-0.060,0.018,-3.567,17.191,-9.691
19:22:49:257,1.866,0.005,0.046,0.007,-3.566,16.954,-9.732
19:22:49:258,1.867,0.005,-0.044,0.021,-3.498,16.597,-9.791
19:22:49:281,1.889,0.007,-0.009,0.017,-3.511,16.457,-9.747
19:22:49:307,1.915,-0.011,-0.010,0.004,-3.557,16.411,-9.574
19:22:49:333,1.941,-0.009,-0.016,0.011,-3.610,16.425,-9.443
19:22:49:359,1.968,-0.026,0.019,-0.005,-3.662,16.483,-9.259
19:22:49:386,1.994,-0.005,-0.018,0.012,-3.562,16.369,-9.205
19:22:49:47,2.079,-0.014,-0.007,0.008,-3.436,16.272,-9.151
19:22:49:471,2.079,-0.006,-0.008,0.022,-3.275,16.136,-9.020
19:22:49:472,2.080,0.003,-0.019,0.008,-3.200,16.057,-8.905
19:22:49:491,2.099,0.003,-0.006,0.011,-3.081,15.973,-8.729
19:22:49:577,2.185,-0.001,-0.007,0.011,-2.992,15.953,-8.595
19:22:49:577,2.185,-0.010,-0.010,0.017,-2.849,15.950,-8.355
19:22:49:577,2.185,-0.009,-0.011,0.009,-2.715,15.984,-8.102
19:22:49:625,2.233,-0.013,0.002,0.017,-2.627,16.033,-7.941
19:22:49:625,2.234,-0.012,-0.002,0.018,-2.486,16.097,-7.708
19:22:49:648,2.256,-0.009,-0.012,0.020,-2.389,16.136,-7.546
19:22:49:705,2.313,-0.010,-0.016,0.019,-2.262,16.212,-7.314
19:22:49:705,2.313,-0.010,-0.002,0.010,-2.173,16.302,-7.163
19:22:49:757,2.366,0.000,0.007,0.017,-2.050,16.489,-6.953
19:22:49:757,2.366,-0.013,-0.003,0.020,-1.903,16.664,-6.751
19:22:49:783,2.391,0.000,-0.004,0.011,-1.800,16.721,-6.643
19:22:49:783,2.391,0.004,-0.003,0.017,-1.656,16.780,-6.537
19:22:49:806,2.414,0.010,-0.007,0.021,-1.484,16.813,-6.435
19:22:49:834,2.442,0.005,-0.006,0.017,-1.375,16.846,-6.381
19:22:49:858,2.467,-0.008,-0.009,0.023,-1.222,16.896,-6.294
19:22:49:914,2.522,-0.007,-0.008,0.025,-1.128,16.925,-6.255
19:22:49:914,2.523,-0.005,-0.017,0.028,-1.020,16.918,-6.210
19:22:49:937,2.546,-0.002,-0.007,0.015,-0.957,16.895,-6.206
19:22:49:993,2.601,0.000,0.001,0.015,-0.908,16.838,-6.248
19:22:49:993,2.602,0.011,0.018,-0.009,-0.848,16.771,-6.338
19:22:50:017,2.625,-0.008,-0.023,0.020,-0.783,16.650,-6.483
19:22:50:072,2.680,0.006,0.009,0.012,-0.713,16.489,-6.676
19:22:50:072,2.680,-0.009,-0.028,0.016,-0.635,16.376,-6.781
19:22:50:095,2.703,-0.018,-0.006,0.016,-0.538,16.287,-6.840
19:22:50:151,2.759,0.002,-0.011,0.020,-0.478,16.189,-6.861
19:22:50:151,2.759,0.002,-0.001,0.008,-0.471,16.139,-6.861
19:22:50:173,2.782,0.000,-0.001,0.015,-0.464,16.104,-6.846
19:22:50:229,2.837,0.001,-0.010,0.009,-0.441,16.102,-6.805
19:22:50:229,2.838,0.001,-0.011,0.018,-0.409,16.100,-6.734
19:22:50:252,2.861,0.003,-0.004,0.010,-0.407,16.079,-6.684
19:22:50:278,2.886,0.002,0.002,0.005,-0.402,16.049,-6.625
19:22:50:305,2.913,-0.019,-0.005,0.023,-0.400,16.004,-6.599
19:22:50:331,2.939,0.003,-0.009,0.022,-0.383,15.983,-6.559
19:22:50:357,2.965,0.002,-0.014,0.013,-0.377,16.003,-6.558
19:22:50:442,3.051,0.004,-0.012,0.011,-0.376,16.037,-6.534
19:22:50:443,3.051,-0.009,-0.004,0.011,-0.370,16.096,-6.475
19:22:50:444,3.052,0.012,-0.012,0.022,-0.367,16.101,-6.420
19:22:50:462,3.070,-0.008,-0.023,0.010,-0.352,16.030,-6.399
19:22:50:518,3.126,-0.003,-0.012,0.027,-0.365,15.951,-6.330
19:22:50:519,3.127,0.003,-0.001,0.019,-0.389,15.922,-6.252
19:22:50:599,3.207,0.007,-0.014,0.020,-0.425,15.904,-6.134
19:22:50:6,3.208,0.018,0.000,0.009,-0.443,15.919,-6.040
19:22:50:6,3.209,-0.012,0.004,0.003,-0.479,16.014,-5.889
19:22:50:62,3.228,-0.005,-0.015,0.007,-0.452,16.101,-5.720
19:22:50:673,3.281,0.025,-0.005,0.013,-0.446,16.105,-5.635
19:22:50:701,3.310,-0.007,-0.005,0.010,-0.416,16.128,-5.490
19:22:50:702,3.310,0.018,-0.005,0.002,-0.379,16.160,-5.395
19:22:50:724,3.333,0.005,0.005,0.000,-0.350,16.218,-5.305
19:22:50:809,3.418,-0.024,-0.008,0.016,-0.307,16.304,-5.184
19:22:50:81,3.418,-0.016,-0.011,0.024,-0.275,16.347,-5.168
19:22:50:811,3.419,-0.003,-0.012,0.009,-0.237,16.321,-5.171
19:22:50:831,3.439,0.017,-0.010,-0.004,-0.227,16.296,-5.195
19:22:50:885,3.493,-0.001,-0.004,0.000,-0.210,16.310,-5.229
19:22:50:886,3.494,-0.010,-0.007,0.024,-0.173,16.353,-5.233
19:22:50:935,3.544,-0.015,-0.017,0.019,-0.086,16.398,-5.239
19:22:50:964,3.572,-0.004,-0.013,0.020,-0.036,16.371,-5.261
19:22:50:964,3.572,-0.005,-0.008,0.011,-0.037,16.322,-5.301
19:22:51:045,3.654,0.004,-0.007,0.009,-0.067,16.254,-5.361
19:22:51:046,3.654,-0.008,-0.010,0.005,-0.061,16.225,-5.411
19:22:51:047,3.655,0.003,-0.010,0.010,-0.061,16.155,-5.500
19:22:51:125,3.733,0.008,-0.013,-0.003,-0.086,16.067,-5.590
19:22:51:125,3.733,0.017,-0.005,0.009,-0.106,16.024,-5.635
19:22:51:125,3.734,0.001,0.001,0.004,-0.131,15.986,-5.686
19:22:51:145,3.753,0.003,-0.006,0.014,-0.140,15.981,-5.711
19:22:51:2,3.809,0.010,-0.013,0.000,-0.148,15.977,-5.746
19:22:51:201,3.809,-0.003,-0.008,0.011,-0.172,15.978,-5.767
19:22:51:223,3.831,-0.005,-0.006,0.010,-0.198,15.960,-5.777
19:22:51:25,3.859,0.008,-0.006,0.002,-0.248,15.923,-5.809
19:22:51:276,3.884,-0.007,-0.005,0.012,-0.283,15.920,-5.816
19:22:51:332,3.940,0.001,-0.008,0.009,-0.322,15.922,-5.837
19:22:51:332,3.940,0.003,-0.006,0.009,-0.352,15.898,-5.863
19:22:51:354,3.963,0.002,-0.006,0.012,-0.412,15.862,-5.895
19:22:51:381,3.989,-0.001,-0.003,0.006,-0.460,15.865,-5.937
19:22:51:407,4.015,-0.004,-0.007,0.007,-0.494,15.862,-5.963
19:22:51:433,4.042,0.003,-0.010,0.007,-0.541,15.869,-6.019
19:22:51:488,4.097,0.003,-0.009,0.000,-0.583,15.877,-6.086
19:22:51:489,4.098,0.007,0.000,0.009,-0.616,15.879,-6.137
19:22:51:513,4.121,-0.004,-0.006,0.003,-0.663,15.887,-6.193
19:22:51:567,4.176,0.002,-0.013,0.006,-0.697,15.879,-6.234
19:22:51:568,4.176,0.004,-0.009,-0.001,-0.755,15.858,-6.301
19:22:51:591,4.199,0.005,-0.004,0.013,-0.818,15.857,-6.358
19:22:51:646,4.254,0.007,-0.005,0.001,-0.861,15.860,-6.399
19:22:51:647,4.255,0.000,-0.006,0.009,-0.932,15.875,-6.462
19:22:51:669,4.278,-0.003,-0.006,0.001,-0.979,15.903,-6.509
19:22:51:697,4.305,0.004,-0.010,0.006,-1.040,15.912,-6.586
19:22:51:723,4.331,0.002,-0.008,0.009,-1.091,15.940,-6.633
19:22:51:749,4.357,0.001,-0.001,0.018,-1.167,15.961,-6.701
19:22:51:775,4.383,-0.004,-0.004,0.000,-1.234,15.970,-6.758
19:22:51:801,4.409,0.007,-0.010,0.003,-1.284,15.949,-6.795
19:22:51:827,4.436,0.010,-0.008,-0.003,-1.380,15.906,-6.848
19:22:51:854,4.462,0.003,-0.006,0.005,-1.443,15.905,-6.886
19:22:51:88,4.488,0.000,-0.004,0.005,-1.545,15.927,-6.925
19:22:51:935,4.543,0.001,-0.008,0.012,-1.643,15.938,-6.954
19:22:51:936,4.544,0.009,-0.010,-0.003,-1.722,15.948,-6.982
19:22:51:96,4.568,0.002,-0.006,0.003,-1.836,16.015,-7.018
19:22:52:014,4.623,0.001,-0.008,0.000,-1.892,16.083,-7.017
19:22:52:014,4.623,0.001,-0.006,0.000,-1.975,16.188,-7.023
19:22:52:037,4.645,0.002,-0.005,0.004,-2.055,16.277,-7.023
19:22:52:093,4.701,0.003,-0.007,0.004,-2.101,16.329,-7.026
19:22:52:093,4.701,0.005,-0.007,0.003,-2.167,16.403,-7.031
19:22:52:119,4.728,0.003,-0.009,0.006,-2.204,16.455,-7.034
19:22:52:119,4.728,0.001,-0.005,0.006,-2.263,16.548,-7.039
19:22:52:171,4.780,-0.002,-0.002,-0.003,-2.304,16.605,-7.037
19:22:52:172,4.780,0.005,-0.009,0.002,-2.353,16.698,-7.042
19:22:52:194,4.803,-0.003,-0.002,-0.002,-2.394,16.770,-7.045
19:22:52:221,4.830,0.002,-0.006,0.007,-2.417,16.801,-7.047
19:22:52:249,4.857,0.002,-0.009,-0.001,-2.465,16.824,-7.050
19:22:52:274,4.882,0.004,-0.007,0.002,-2.495,16.831,-7.047
19:22:52:33,4.938,0.004,-0.002,-0.004,-2.545,16.839,-7.045
19:22:52:33,4.938,0.002,-0.005,0.010,-2.589,16.856,-7.033
19:22:52:381,4.989,-0.002,-0.006,-0.001,-2.624,16.858,-7.034
19:22:52:382,4.990,0.003,-0.008,0.005,-2.679,16.862,-7.037
19:22:52:406,5.014,0.003,-0.006,-0.001,-2.717,16.874,-7.049
19:22:52:46,5.068,0.003,-0.005,0.006,-2.750,16.901,-7.057
19:22:52:461,5.069,-0.004,-0.007,0.006,-2.760,16.902,-7.057
19:22:52:543,5.151,0.002,-0.011,0.013,-2.807,16.861,-7.073
19:22:52:543,5.151,0.011,-0.007,-0.004,-2.868,16.826,-7.116
19:22:52:543,5.151,-0.001,-0.008,0.005,-2.902,16.828,-7.127
19:22:52:563,5.171,0.001,-0.005,0.000,-2.934,16.856,-7.144
19:22:52:617,5.226,0.004,-0.010,0.005,-2.958,16.878,-7.156
19:22:52:618,5.227,0.004,-0.006,0.000,-2.976,16.904,-7.163
19:22:52:641,5.249,0.003,-0.009,0.006,-2.975,16.909,-7.178
19:22:52:667,5.276,0.002,-0.006,0.005,-2.974,16.909,-7.197
19:22:52:693,5.301,0.006,-0.007,0.001,-2.977,16.911,-7.247
19:22:52:719,5.328,0.001,-0.005,0.010,-2.974,16.931,-7.277
19:22:52:746,5.354,0.002,-0.002,0.007,-2.970,16.948,-7.343
19:22:52:772,5.380,-0.003,-0.005,0.009,-2.961,16.950,-7.441
19:22:52:798,5.407,0.000,-0.007,0.004,-2.954,16.927,-7.525
19:22:52:826,5.434,0.003,-0.005,0.003,-2.916,16.874,-7.665
19:22:52:852,5.461,0.000,0.007,-0.006,-2.889,16.831,-7.786
19:22:52:878,5.486,0.004,-0.008,0.007,-2.826,16.743,-8.009
19:22:52:903,5.512,0.001,-0.011,-0.003,-2.774,16.665,-8.173
19:22:52:93,5.538,0.005,-0.010,0.002,-2.691,16.571,-8.420
19:22:52:985,5.593,0.006,-0.011,-0.002,-2.628,16.488,-8.638
19:22:52:986,5.594,0.016,-0.012,0.003,-2.591,16.463,-8.749
19:22:53:008,5.616,0.013,-0.008,-0.002,-2.567,16.459,-8.862
19:22:53:064,5.672,0.011,-0.008,0.005,-2.564,16.474,-8.907
19:22:53:065,5.673,0.006,-0.006,-0.002,-2.559,16.506,-8.968
19:22:53:087,5.695,0.014,-0.009,0.007,-2.574,16.542,-9.014
19:22:53:142,5.751,0.001,-0.008,-0.003,-2.566,16.582,-9.024
19:22:53:143,5.751,0.005,-0.007,0.006,-2.567,16.613,-9.055
19:22:53:167,5.776,0.008,-0.006,0.002,-2.560,16.628,-9.090
19:22:53:192,5.801,0.007,-0.007,0.003,-2.562,16.639,-9.140
19:22:53:219,5.827,0.010,-0.005,0.000,-2.564,16.660,-9.171
19:22:53:244,5.853,0.010,-0.005,0.002,-2.569,16.701,-9.201
19:22:53:271,5.879,0.003,-0.005,0.001,-2.568,16.756,-9.238
19:22:53:297,5.905,0.008,-0.007,0.005,-2.560,16.786,-9.268
19:22:53:323,5.931,0.000,-0.004,-0.005,-2.571,16.818,-9.309
19:22:53:353,5.961,-0.005,-0.002,0.013,-2.567,16.853,-9.334
19:22:53:376,5.984,0.007,-0.015,0.004,-2.553,16.859,-9.408
19:22:53:431,6.040,0.011,-0.013,0.002,-2.556,16.856,-9.463
19:22:53:432,6.041,0.010,-0.009,0.001,-2.575,16.863,-9.489
19:22:53:456,6.064,0.008,-0.005,0.002,-2.608,16.871,-9.516
19:22:53:51,6.118,0.006,-0.009,-0.001,-2.616,16.892,-9.527
19:22:53:511,6.119,0.007,-0.011,0.000,-2.640,16.909,-9.524
19:22:53:533,6.142,0.005,-0.006,0.003,-2.655,16.910,-9.524
19:22:53:589,6.197,0.007,-0.005,0.002,-2.680,16.912,-9.526
19:22:53:589,6.198,0.008,-0.009,0.003,-2.699,16.924,-9.527
19:22:53:612,6.221,0.015,0.001,-0.005,-2.718,16.926,-9.538
19:22:53:64,6.248,0.002,-0.006,0.013,-2.746,16.884,-9.563
19:22:53:666,6.274,0.001,-0.004,0.000,-2.777,16.872,-9.569
19:22:53:72,6.328,0.007,-0.007,0.002,-2.835,16.887,-9.602
19:22:53:72,6.329,0.016,0.011,-0.004,-2.877,16.875,-9.724
19:22:53:743,6.352,0.006,-0.001,-0.002,-2.887,16.833,-9.797
19:22:53:77,6.378,0.001,-0.014,-0.006,-2.873,16.834,-9.896
19:22:53:796,6.404,-0.006,-0.010,0.007,-2.860,16.854,-9.925
19:22:53:881,6.489,0.001,-0.012,-0.001,-2.847,16.795,-10.003
19:22:53:881,6.489,0.022,-0.015,0.001,-2.847,16.698,-10.090
19:22:53:882,6.490,0.011,-0.008,-0.008,-2.829,16.668,-10.118
19:22:53:903,6.511,0.002,-0.005,0.006,-2.809,16.661,-10.121
19:22:53:956,6.564,0.010,-0.002,0.000,-2.810,16.651,-10.121
19:22:53:957,6.565,0.011,-0.009,0.004,-2.812,16.627,-10.126
19:22:53:98,6.588,0.010,-0.004,0.001,-2.804,16.596,-10.125
19:22:54:036,6.644,0.008,-0.009,0.004,-2.786,16.570,-10.138
19:22:54:036,6.645,0.003,-0.011,0.003,-2.775,16.529,-10.136
19:22:54:058,6.667,0.007,-0.010,0.002,-2.785,16.520,-10.136
19:22:54:113,6.722,0.008,-0.008,0.000,-2.785,16.520,-10.136
19:22:54:114,6.723,0.006,-0.007,0.007,-2.781,16.519,-10.116
19:22:54:138,6.746,0.006,-0.007,0.003,-2.782,16.524,-10.091
19:22:54:163,6.771,0.009,-0.007,0.001,-2.769,16.566,-10.057
19:22:54:19,6.798,0.006,-0.002,-0.002,-2.767,16.600,-10.023
19:22:54:246,6.855,0.012,-0.009,0.003,-2.761,16.633,-9.989
19:22:54:246,6.855,0.013,-0.006,0.002,-2.760,16.648,-9.965
19:22:54:268,6.876,0.011,-0.007,0.004,-2.764,16.677,-9.926
19:22:54:324,6.932,0.010,-0.007,0.002,-2.769,16.706,-9.887
19:22:54:324,6.933,0.007,-0.008,0.009,-2.763,16.715,-9.867
19:22:54:408,7.016,0.010,-0.009,0.005,-2.784,16.721,-9.834
19:22:54:408,7.017,0.012,-0.007,-0.006,-2.804,16.732,-9.815
19:22:54:409,7.018,0.006,-0.006,0.001,-2.828,16.763,-9.777
19:22:54:484,7.093,0.006,-0.008,0.004,-2.858,16.794,-9.730
19:22:54:485,7.093,0.008,-0.007,-0.004,-2.888,16.796,-9.722
19:22:54:485,7.094,0.010,-0.007,0.003,-2.907,16.808,-9.723
19:22:54:505,7.113,0.007,-0.006,0.002,-2.934,16.849,-9.716
19:22:54:558,7.167,0.008,-0.003,0.001,-2.947,16.880,-9.717
19:22:54:586,7.194,0.001,-0.005,-0.002,-2.945,16.905,-9.723
19:22:54:587,7.195,0.006,-0.008,0.007,-2.945,16.905,-9.723
19:22:54:637,7.246,0.005,-0.009,-0.002,-2.945,16.905,-9.723
19:22:54:665,7.273,0.011,-0.008,0.004,-2.945,16.905,-9.723
19:22:54:665,7.274,0.010,-0.005,0.000,-2.945,16.905,-9.723
19:22:54:688,7.297,0.008,-0.007,0.005,-2.945,16.905,-9.723
19:22:54:715,7.323,0.008,-0.008,0.003,-2.945,16.905,-9.723
19:22:54:741,7.349,0.011,-0.005,0.005,-2.945,16.905,-9.723
19:22:54:767,7.376,0.009,-0.006,-0.003,-2.945,16.905,-9.723
19:22:54:852,7.460,0.007,-0.011,0.003,-2.944,16.910,-9.718
19:22:54:852,7.461,0.009,-0.008,-0.003,-2.944,16.915,-9.723
19:22:54:853,7.461,0.008,-0.006,0.003,-2.944,16.915,-9.723
19:22:54:873,7.482,0.012,-0.008,-0.001,-2.944,16.915,-9.723
19:22:54:927,7.536,0.007,-0.007,0.002,-2.943,16.925,-9.723
19:22:54:928,7.537,0.006,-0.009,0.004,-2.943,16.925,-9.723
19:22:54:952,7.561,0.005,-0.006,-0.002,-2.948,16.926,-9.724
19:22:55:007,7.616,0.004,-0.006,0.000,-2.948,16.926,-9.724
19:22:55:007,7.616,0.008,-0.007,0.002,-2.948,16.926,-9.724
19:22:55:03,7.638,0.008,-0.005,0.003,-2.948,16.926,-9.724
19:22:55:083,7.691,0.009,-0.008,0.003,-2.948,16.926,-9.724
19:22:55:111,7.719,0.007,-0.008,0.006,-2.948,16.926,-9.724
19:22:55:112,7.720,0.005,-0.006,-0.003,-2.948,16.926,-9.724
19:22:55:135,7.743,0.006,-0.009,-0.001,-2.948,16.926,-9.724
19:22:55:161,7.769,0.007,-0.006,-0.005,-2.948,16.926,-9.724
19:22:55:216,7.824,0.009,-0.006,-0.003,-2.948,16.926,-9.724
19:22:55:217,7.825,0.007,-0.008,-0.005,-2.948,16.926,-9.724
19:22:55:24,7.848,0.007,-0.008,0.005,-2.948,16.926,-9.724
19:22:55:295,7.903,0.006,-0.007,-0.004,-2.948,16.926,-9.724
19:22:55:295,7.904,0.010,-0.008,0.003,-2.948,16.926,-9.724
19:22:55:318,7.927,0.005,-0.006,-0.005,-2.948,16.926,-9.724
19:22:55:373,7.982,0.009,-0.006,0.000,-2.948,16.926,-9.724
19:22:55:374,7.983,0.007,-0.007,-0.006,-2.948,16.926,-9.724
19:22:55:397,8.005,0.007,-0.007,0.006,-2.943,16.925,-9.723
19:22:55:452,8.060,0.007,-0.005,0.000,-2.943,16.925,-9.723
19:22:55:453,8.061,0.014,-0.008,0.002,-2.943,16.925,-9.723
19:22:55:475,8.084,0.008,-0.009,-0.003,-2.943,16.925,-9.723
19:22:55:531,8.139,0.006,-0.006,0.006,-2.943,16.925,-9.723
19:22:55:532,8.140,0.009,-0.007,0.001,-2.943,16.925,-9.723
19:22:55:554,8.163,0.011,-0.008,0.004,-2.944,16.920,-9.708
19:22:55:61,8.218,0.008,-0.007,0.000,-2.945,16.919,-9.689
19:22:55:61,8.219,0.009,-0.008,0.008,-2.941,16.918,-9.668
19:22:55:662,8.271,0.010,-0.009,0.002,-2.936,16.923,-9.664
19:22:55:663,8.271,0.012,-0.009,0.005,-2.936,16.923,-9.654
19:22:55:744,8.353,0.008,-0.009,-0.001,-2.936,16.922,-9.643
19:22:55:745,8.353,0.007,-0.008,0.002,-2.938,16.921,-9.614
19:22:55:746,8.354,0.008,-0.008,0.007,-2.938,16.921,-9.594
19:22:55:765,8.373,0.010,-0.008,0.008,-2.940,16.911,-9.584
19:22:55:821,8.429,0.010,-0.009,0.004,-2.941,16.906,-9.569
19:22:55:821,8.429,0.013,-0.008,0.002,-2.935,16.910,-9.563
19:22:55:843,8.452,0.009,-0.005,0.004,-2.937,16.904,-9.549
19:22:55:899,8.507,0.007,-0.008,-0.003,-2.937,16.909,-9.534
19:22:55:9,8.508,0.007,-0.009,0.004,-2.937,16.909,-9.534
19:22:55:923,8.531,0.009,-0.008,-0.003,-2.937,16.909,-9.534
19:22:55:977,8.585,0.008,-0.009,0.003,-2.937,16.909,-9.524
19:22:55:978,8.586,0.006,-0.007,0.000,-2.937,16.918,-9.505
19:22:56:001,8.609,0.007,-0.009,0.008,-2.932,16.922,-9.489
19:22:56:056,8.665,0.004,-0.006,0.001,-2.934,16.922,-9.460
19:22:56:057,8.665,0.010,-0.007,0.006,-2.934,16.922,-9.460
19:22:56:108,8.717,0.007,-0.007,-0.002,-2.934,16.922,-9.460
19:22:56:109,8.718,0.010,-0.012,0.009,-2.934,16.921,-9.450
19:22:56:161,8.769,0.003,-0.008,0.008,-2.934,16.926,-9.445
19:22:56:162,8.770,0.006,-0.007,0.013,-2.964,16.929,-9.447
19:22:56:185,8.793,0.014,-0.007,-0.004,-2.988,16.931,-9.468
19:22:56:211,8.819,0.015,-0.004,0.004,-3.018,16.979,-9.496
19:22:56:296,8.904,-0.003,-0.005,0.001,-3.010,17.068,-9.508
19:22:56:296,8.905,0.002,-0.006,0.007,-2.998,17.092,-9.512
19:22:56:297,8.905,0.006,-0.004,0.000,-2.961,17.050,-9.519
19:22:56:346,8.954,0.013,-0.008,0.006,-2.929,17.007,-9.526
19:22:56:346,8.954,0.006,-0.009,0.004,-2.883,16.954,-9.522
19:22:56:368,8.977,0.006,-0.008,0.012,-2.855,16.932,-9.520
19:22:56:423,9.032,0.005,-0.012,0.004,-2.835,16.930,-9.519
19:22:56:424,9.033,0.011,-0.007,0.009,-2.838,17.378,-9.522
19:22:56:448,9.056,0.008,-0.008,0.009,-2.838,17.378,-9.522
19:22:56:502,9.110,0.005,-0.008,0.003,-2.833,17.611,-9.524
19:22:56:503,9.111,0.009,-0.007,0.004,-2.833,17.611,-9.524
19:22:56:525,9.134,0.009,-0.009,0.007,-2.833,17.621,-9.524
19:22:56:553,9.162,0.005,-0.009,0.007,-2.833,17.621,-9.514
19:22:56:579,9.187,0.007,-0.005,-0.001,-2.844,17.736,-9.514
19:22:56:634,9.242,0.007,-0.008,0.006,-2.849,17.736,-9.514
19:22:56:635,9.243,0.007,-0.007,-0.001,-2.851,17.776,-9.505
19:22:56:71,9.318,0.006,-0.009,0.007,-2.846,17.775,-9.495
19:22:56:737,9.346,0.006,-0.008,-0.002,-2.867,17.781,-9.471
19:22:56:798,9.407,0.008,-0.005,0.006,-2.877,17.792,-9.452
19:22:56:799,9.407,0.002,-0.007,0.000,-2.892,17.941,-9.418
19:22:56:799,9.408,0.006,-0.007,0.009,-2.904,17.941,-9.389
19:22:56:8,9.408,0.006,-0.005,0.002,-2.927,18.166,-9.352
19:22:56:817,9.425,0.005,-0.008,0.009,-2.944,18.300,-9.313
19:22:56:873,9.481,0.003,-0.007,0.001,-2.940,18.299,-9.292
19:22:56:874,9.482,0.009,-0.008,0.009,-2.941,18.308,-9.263
19:22:56:874,9.482,0.003,-0.006,0.005,-2.941,18.313,-9.248
19:22:56:95,9.558,0.002,-0.006,0.010,-2.941,18.442,-9.252
19:22:56:951,9.559,0.008,-0.009,0.002,-2.941,18.442,-9.252
19:22:56:975,9.584,0.005,-0.007,0.009,-2.943,18.597,-9.252
19:22:56:976,9.584,0.003,-0.005,0.006,-2.943,18.597,-9.252
19:22:57:027,9.636,0.005,-0.009,0.010,-2.943,18.601,-9.247
19:22:57:028,9.637,0.007,-0.005,0.003,-2.943,18.601,-9.247
19:22:57:051,9.660,0.005,-0.006,0.006,-2.947,18.741,-9.252
19:22:57:078,9.687,0.008,-0.007,-0.002,-2.947,18.741,-9.252
19:22:57:105,9.713,0.001,-0.009,0.010,-2.945,18.756,-9.257
19:22:57:159,9.767,0.005,-0.013,0.006,-2.944,18.752,-9.282
19:22:57:159,9.768,0.006,-0.009,0.011,-2.948,18.753,-9.312
19:22:57:241,9.849,0.007,-0.005,0.010,-2.946,18.754,-9.332
19:22:57:241,9.849,0.004,-0.010,0.001,-2.950,18.815,-9.364
19:22:57:242,9.850,0.011,-0.012,0.000,-2.946,18.830,-9.399
19:22:57:262,9.870,0.011,-0.009,0.004,-2.958,18.871,-9.411
19:22:57:316,9.924,0.002,-0.004,0.008,-2.975,18.912,-9.393
19:22:57:317,9.925,0.001,-0.006,0.002,-2.977,18.892,-9.393
19:22:57:398,10.006,0.005,-0.011,0.007,-2.989,18.928,-9.400
19:22:57:399,10.007,0.005,-0.007,0.001,-3.013,19.000,-9.403
19:22:57:399,10.008,0.003,-0.006,0.008,-3.025,19.036,-9.401
19:22:57:474,10.082,0.003,-0.006,0.006,-3.046,19.143,-9.420
19:22:57:474,10.083,0.007,-0.006,-0.003,-3.046,19.183,-9.452
19:22:57:497,10.105,0.004,-0.008,0.009,-3.043,19.194,-9.471
19:22:57:523,10.132,0.000,-0.007,0.005,-3.036,19.218,-9.487
19:22:57:55,10.158,0.007,-0.005,0.011,-3.035,19.194,-9.521
19:22:57:575,10.184,0.002,-0.010,-0.001,-3.039,19.196,-9.551
19:22:57:603,10.211,0.010,0.007,-0.003,-3.034,19.396,-9.607
19:22:57:628,10.236,0.019,0.019,-0.015,-3.004,19.307,-9.711
19:22:57:654,10.263,-0.009,-0.088,0.020,-2.889,19.073,-10.029
19:22:57:681,10.289,-0.015,0.002,0.010,-2.800,18.921,-10.217
19:22:57:707,10.315,-0.022,0.004,0.029,-2.756,18.891,-10.323
19:22:57:763,10.371,0.008,-0.010,0.002,-2.677,18.792,-10.448
19:22:57:763,10.371,0.005,-0.006,0.012,-2.647,18.856,-10.513
19:22:57:786,10.394,0.007,-0.015,0.000,-2.640,18.888,-10.583
19:22:57:872,10.480,0.013,-0.006,0.010,-2.628,19.002,-10.610
19:22:57:872,10.480,0.009,-0.009,-0.005,-2.625,19.081,-10.622
19:22:57:872,10.480,0.007,-0.008,0.012,-2.625,19.191,-10.626
19:22:57:92,10.528,0.008,-0.004,0.015,-2.629,19.251,-10.627
19:22:57:921,10.529,0.007,-0.006,0.013,-2.642,19.382,-10.633
19:22:57:943,10.552,0.008,-0.006,0.010,-2.638,19.422,-10.633
19:22:57:999,10.608,0.016,-0.012,0.015,-2.644,19.481,-10.615
19:22:57:999,10.608,-0.004,-0.007,0.014,-2.645,19.510,-10.557
19:22:58:022,10.630,0.004,-0.004,0.005,-2.648,19.464,-10.501
19:22:58:048,10.657,0.008,-0.008,0.004,-2.653,19.412,-10.420
19:22:58:076,10.684,0.006,-0.011,0.009,-2.665,19.422,-10.372
19:22:58:102,10.710,0.007,-0.002,0.007,-2.679,19.376,-10.296
19:22:58:128,10.736,-0.003,-0.003,0.011,-2.693,19.376,-10.238
19:22:58:212,10.820,0.004,-0.012,0.012,-2.696,19.360,-10.202
19:22:58:213,10.821,-0.003,-0.012,0.009,-2.722,19.331,-10.154
19:22:58:213,10.821,0.008,-0.013,0.012,-2.751,19.313,-10.116
19:22:58:232,10.840,0.031,-0.021,-0.020,-2.829,19.332,-10.057
19:22:58:287,10.896,0.015,-0.013,0.002,-2.911,19.418,-10.006
19:22:58:288,10.896,-0.012,-0.001,0.012,-3.006,19.610,-9.840
19:22:58:311,10.920,-0.014,0.003,0.024,-3.087,19.777,-9.698
19:22:58:395,11.004,0.006,-0.007,-0.002,-3.131,19.848,-9.624
19:22:58:396,11.004,0.012,-0.004,0.003,-3.183,19.954,-9.547
19:22:58:397,11.005,0.001,-0.004,0.003,-3.190,20.033,-9.500
19:22:58:445,11.054,0.004,-0.006,0.009,-3.180,20.144,-9.429
19:22:58:446,11.054,0.004,-0.006,0.005,-3.167,20.226,-9.385
19:22:58:468,11.076,0.008,-0.005,0.015,-3.157,20.290,-9.382
19:22:58:496,11.105,0.003,-0.007,0.017,-3.151,20.410,-9.396
19:22:58:55,11.158,0.001,-0.007,0.016,-3.150,20.484,-9.393
19:22:58:55,11.159,-0.001,-0.008,0.009,-3.149,20.564,-9.396
19:22:58:573,11.182,0.003,-0.009,0.006,-3.155,20.604,-9.397
19:22:58:629,11.237,0.004,-0.008,0.006,-3.167,20.645,-9.400
19:22:58:63,11.238,0.000,-0.007,0.012,-3.149,20.684,-9.400
19:22:58:653,11.261,0.002,-0.008,0.011,-3.148,20.693,-9.400
19:22:58:736,11.345,0.003,-0.007,0.014,-3.142,20.694,-9.420
19:22:58:737,11.346,0.004,-0.005,0.009,-3.136,20.679,-9.443
19:22:58:738,11.346,0.006,-0.006,0.009,-3.135,20.664,-9.467
19:22:58:757,11.366,0.003,-0.009,0.010,-3.128,20.670,-9.492
19:22:58:813,11.421,0.001,-0.004,0.001,-3.127,20.665,-9.507
19:22:58:813,11.422,0.004,-0.007,0.012,-3.126,20.661,-9.531
19:22:58:836,11.444,0.000,-0.009,0.005,-3.120,20.656,-9.546
19:22:58:891,11.500,0.005,-0.008,0.010,-3.120,20.642,-9.570
19:22:58:892,11.500,0.003,-0.008,0.005,-3.117,20.633,-9.609
19:22:58:916,11.524,0.007,-0.007,0.010,-3.110,20.638,-9.634
19:22:58:97,11.578,0.001,-0.007,0.002,-3.109,20.634,-9.658
19:22:58:971,11.579,0.006,-0.007,0.013,-3.102,20.639,-9.673
19:22:58:993,11.602,0.004,-0.005,0.003,-3.110,20.641,-9.703
19:22:59:02,11.628,-0.006,-0.008,0.005,-3.109,20.641,-9.713
19:22:59:046,11.654,0.001,0.000,0.002,-3.113,20.642,-9.734
19:22:59:073,11.681,0.006,-0.011,0.009,-3.111,20.638,-9.768
19:22:59:101,11.709,-0.001,-0.008,0.005,-3.104,20.638,-9.788
19:22:59:102,11.710,0.004,-0.005,0.009,-3.103,20.638,-9.807
19:22:59:124,11.733,0.002,-0.010,0.008,-3.101,20.639,-9.827
19:22:59:18,11.789,0.005,-0.006,0.011,-3.095,20.639,-9.837
19:22:59:181,11.790,0.003,-0.007,0.005,-3.093,20.644,-9.862
19:22:59:262,11.870,0.001,-0.008,0.012,-3.081,20.658,-9.866
19:22:59:263,11.871,0.000,-0.006,0.011,-3.081,20.668,-9.866
19:22:59:263,11.872,0.002,-0.006,0.011,-3.070,20.672,-9.870
19:22:59:34,11.948,0.003,-0.007,0.006,-3.068,20.668,-9.895
19:22:59:341,11.949,0.002,-0.007,0.008,-3.062,20.668,-9.914
19:22:59:342,11.950,-0.002,-0.007,0.009,-3.062,20.668,-9.914
19:22:59:36,11.969,0.001,-0.007,0.013,-3.069,20.649,-9.914
19:22:59:416,12.024,0.007,-0.007,0.011,-3.070,20.615,-9.928
19:22:59:417,12.025,0.005,-0.006,0.013,-3.059,20.573,-9.926
19:22:59:44,12.049,0.004,-0.009,0.014,-3.037,20.532,-9.922
19:22:59:467,12.075,0.003,-0.010,0.015,-3.031,20.491,-9.921
19:22:59:492,12.100,0.002,-0.010,0.012,-3.040,20.442,-9.920
19:22:59:518,12.126,0.005,-0.009,0.003,-3.043,20.408,-9.924
19:22:59:544,12.153,0.005,-0.007,0.008,-3.051,20.383,-9.919
19:22:59:571,12.179,0.000,-0.006,0.007,-3.051,20.383,-9.919
19:22:59:599,12.207,0.003,-0.005,0.011,-3.056,20.384,-9.920
19:22:59:623,12.232,-0.001,-0.004,0.010,-3.071,20.375,-9.920
19:22:59:708,12.316,-0.003,-0.006,0.016,-3.073,20.356,-9.920
19:22:59:709,12.317,0.002,-0.006,0.004,-3.083,20.302,-9.924
19:22:59:709,12.318,0.002,-0.007,0.010,-3.073,20.241,-9.921
19:22:59:729,12.337,0.001,-0.007,0.011,-3.068,20.126,-9.912
19:22:59:781,12.389,0.000,-0.006,0.016,-3.054,19.995,-9.906
19:22:59:81,12.418,0.001,-0.004,0.008,-3.038,19.884,-9.912
19:22:59:811,12.419,0.015,-0.013,0.003,-3.027,19.745,-9.956
19:22:59:862,12.471,0.003,-0.009,0.014,-3.018,19.670,-9.967
19:22:59:863,12.471,-0.010,-0.005,0.025,-3.019,19.600,-9.965
19:22:59:886,12.494,0.006,-0.004,0.005,-3.004,19.535,-9.977
19:22:59:942,12.550,0.006,-0.011,0.011,-2.983,19.440,-10.027
19:22:59:942,12.550,0.004,-0.008,0.007,-2.963,19.364,-10.058
19:22:59:965,12.573,-0.002,-0.001,0.029,-2.942,19.303,-10.074
19:22:59:991,12.599,0.001,-0.004,0.008,-2.878,19.154,-10.090
19:23:00:046,12.655,0.010,-0.015,0.011,-2.837,19.031,-10.113
19:23:00:047,12.656,0.006,-0.012,0.010,-2.784,18.823,-10.129
19:23:00:071,12.680,-0.001,-0.005,0.019,-2.745,18.626,-10.145
19:23:00:154,12.762,0.006,-0.007,0.006,-2.719,18.509,-10.155
19:23:00:155,12.763,0.003,-0.010,0.019,-2.679,18.372,-10.192
19:23:00:156,12.764,0.006,-0.007,0.011,-2.656,18.281,-10.209
19:23:00:233,12.841,0.003,-0.009,0.020,-2.634,18.156,-10.248
19:23:00:233,12.842,0.008,-0.007,0.009,-2.615,18.011,-10.288
19:23:00:234,12.843,0.004,-0.006,0.018,-2.601,17.921,-10.314
19:23:00:254,12.862,0.008,-0.012,0.012,-2.580,17.751,-10.338
19:23:00:309,12.917,0.014,-0.013,-0.009,-2.575,17.636,-10.350
19:23:00:31,12.918,0.013,-0.012,0.008,-2.593,17.479,-10.376
19:23:00:332,12.940,0.002,-0.008,0.003,-2.600,17.405,-10.380
19:23:00:387,12.995,-0.004,-0.004,0.022,-2.604,17.352,-10.404
19:23:00:388,12.996,0.010,-0.009,-0.004,-2.603,17.288,-10.436
19:23:00:411,13.020,0.015,-0.015,0.003,-2.614,17.255,-10.471
19:23:00:438,13.046,0.012,-0.010,-0.003,-2.651,17.239,-10.482
19:23:00:463,13.072,0.010,-0.008,0.003,-2.688,17.267,-10.490
19:23:00:489,13.098,-0.001,-0.004,0.005,-2.749,17.377,-10.502
19:23:00:516,13.124,0.003,-0.005,0.013,-2.801,17.521,-10.508
19:23:00:542,13.151,-0.001,-0.005,0.010,-2.833,17.609,-10.508
19:23:00:597,13.206,0.012,-0.012,-0.001,-2.881,17.739,-10.520
19:23:00:598,13.206,0.039,-0.017,-0.013,-2.931,17.853,-10.536
19:23:00:621,13.229,-0.002,-0.006,0.031,-3.031,18.136,-10.546
19:23:00:676,13.285,-0.038,0.010,0.037,-3.067,18.358,-10.526
19:23:00:677,13.285,-0.019,-0.008,0.021,-3.079,18.584,-10.568
19:23:00:7,13.308,0.008,-0.009,0.004,-3.086,18.632,-10.645
19:23:00:756,13.364,0.018,0.001,-0.012,-3.104,18.635,-10.686
19:23:00:756,13.364,-0.008,-0.013,0.022,-3.098,18.592,-10.769
19:23:00:778,13.387,0.001,-0.003,0.024,-3.073,18.562,-10.826
19:23:00:833,13.442,0.009,0.001,0.003,-3.032,18.511,-10.911
19:23:00:834,13.443,0.003,-0.012,0.016,-3.010,18.427,-11.002
19:23:00:859,13.467,0.004,0.002,0.009,-3.012,18.398,-11.031
19:23:00:912,13.520,0.015,-0.004,0.001,-3.008,18.355,-11.084
19:23:00:913,13.521,0.002,0.001,0.017,-3.008,18.341,-11.118
19:23:00:936,13.545,-0.001,0.004,0.015,-2.985,18.339,-11.156
19:23:00:962,13.571,-0.002,-0.022,0.021,-2.914,18.260,-11.224
19:23:00:988,13.597,-0.002,-0.006,0.023,-2.885,18.228,-11.251
19:23:01:015,13.623,-0.007,0.006,0.003,-2.828,18.150,-11.330
19:23:01:042,13.651,0.008,-0.012,0.002,-2.761,18.075,-11.383
19:23:01:067,13.676,0.016,-0.014,0.013,-2.718,18.054,-11.489
19:23:01:094,13.702,0.003,-0.013,0.000,-2.699,18.104,-11.550
19:23:01:119,13.728,0.004,-0.007,0.008,-2.689,18.148,-11.575
19:23:01:146,13.754,0.004,-0.008,0.006,-2.673,18.197,-11.575
19:23:01:23,13.838,0.003,-0.007,0.009,-2.666,18.221,-11.581
19:23:01:231,13.839,0.000,-0.008,0.006,-2.654,18.240,-11.580
19:23:01:232,13.840,0.006,-0.009,0.013,-2.642,18.253,-11.575
19:23:01:28,13.888,0.003,-0.006,0.006,-2.640,18.283,-11.566
19:23:01:281,13.889,0.003,-0.012,0.019,-2.659,18.314,-11.528
19:23:01:303,13.912,0.001,-0.006,0.006,-2.683,18.340,-11.495
19:23:01:359,13.968,0.005,-0.009,0.009,-2.724,18.413,-11.461
19:23:01:36,13.969,-0.005,-0.005,0.009,-2.740,18.463,-11.443
19:23:01:385,13.993,0.001,-0.006,0.012,-2.762,18.510,-11.421
19:23:01:386,13.994,-0.004,-0.008,0.013,-2.781,18.527,-11.418
19:23:01:409,14.017,0.006,-0.009,0.013,-2.800,18.534,-11.415
19:23:01:434,14.043,0.004,-0.005,0.004,-2.845,18.552,-11.393
19:23:01:461,14.070,0.009,-0.007,0.009,-2.869,18.579,-11.381
19:23:01:487,14.095,-0.004,-0.008,0.020,-2.892,18.625,-11.338
19:23:01:513,14.122,0.000,-0.004,0.013,-2.913,18.631,-11.315
19:23:01:57,14.179,0.004,-0.008,0.002,-2.944,18.643,-11.288
19:23:01:57,14.179,0.003,-0.006,0.009,-2.961,18.699,-11.246
19:23:01:592,14.201,-0.002,-0.010,0.014,-2.959,18.728,-11.217
19:23:01:647,14.256,0.002,-0.005,0.016,-2.975,18.783,-11.195
19:23:01:648,14.257,0.003,-0.009,0.008,-2.997,18.835,-11.178
19:23:01:673,14.281,-0.001,-0.006,0.009,-3.015,18.921,-11.158
19:23:01:728,14.336,0.001,-0.010,0.013,-3.020,18.980,-11.150
19:23:01:728,14.336,0.003,-0.007,0.014,-3.008,19.004,-11.135
19:23:01:749,14.358,0.001,-0.007,0.012,-2.997,19.032,-11.105
19:23:01:805,14.413,-0.001,-0.005,0.004,-2.987,19.045,-11.080
19:23:01:805,14.414,-0.005,-0.006,0.009,-2.974,19.083,-11.060
19:23:01:83,14.438,-0.003,-0.009,0.009,-2.959,19.110,-11.020
19:23:01:883,14.492,-0.003,-0.003,0.012,-2.949,19.118,-11.000
19:23:01:884,14.493,-0.002,-0.007,0.007,-2.945,19.117,-10.979
19:23:01:907,14.516,0.004,-0.008,0.007,-2.936,19.116,-10.969
19:23:01:933,14.541,-0.004,-0.006,0.013,-2.932,19.124,-10.939
19:23:01:962,14.570,-0.001,-0.005,0.017,-2.923,19.123,-10.908
19:23:02:015,14.623,-0.003,-0.005,0.005,-2.920,19.122,-10.878
19:23:02:015,14.624,0.003,-0.010,0.011,-2.915,19.121,-10.878
19:23:02:068,14.676,-0.004,-0.005,0.010,-2.915,19.121,-10.878
19:23:02:093,14.702,-0.005,-0.007,0.018,-2.915,19.122,-10.888
19:23:02:094,14.703,-0.003,-0.005,0.010,-2.920,19.102,-10.907
19:23:02:117,14.726,0.003,-0.005,0.012,-2.927,19.065,-10.947
19:23:02:202,14.810,0.005,-0.011,0.009,-2.929,19.026,-10.975
19:23:02:202,14.810,-0.001,-0.010,0.019,-2.931,19.006,-10.975
19:23:02:203,14.811,-0.004,-0.005,0.013,-2.939,18.977,-10.974
19:23:02:252,14.860,0.001,-0.007,0.017,-2.941,18.957,-10.974
19:23:02:252,14.861,0.001,-0.006,0.015,-2.943,18.938,-10.974
19:23:02:275,14.883,0.006,-0.010,0.025,-2.952,18.943,-10.970
19:23:02:33,14.938,0.001,-0.007,0.013,-2.984,18.951,-10.937
19:23:02:331,14.939,0.002,0.000,0.008,-3.020,18.958,-10.915
19:23:02:383,14.991,0.000,-0.007,0.009,-3.032,18.939,-10.915
19:23:02:383,14.991,-0.001,-0.010,0.015,-3.040,18.924,-10.890
19:23:02:435,15.043,-0.003,-0.005,0.019,-3.037,18.923,-10.850
19:23:02:436,15.044,-0.007,-0.003,0.020,-3.053,18.903,-10.781
19:23:02:458,15.066,-0.005,-0.005,0.014,-3.060,18.852,-10.740
19:23:02:484,15.093,0.007,-0.010,0.017,-3.068,18.823,-10.740
19:23:02:54,15.148,0.002,-0.009,0.015,-3.093,18.799,-10.706
19:23:02:54,15.149,-0.011,-0.002,0.014,-3.113,18.806,-10.693
19:23:02:564,15.172,-0.002,-0.007,0.019,-3.154,18.799,-10.685
19:23:02:619,15.228,0.003,-0.007,0.002,-3.199,18.803,-10.688
19:23:02:619,15.228,-0.003,-0.009,0.018,-3.222,18.830,-10.686
19:23:02:643,15.251,-0.006,-0.006,0.010,-3.244,18.872,-10.689
19:23:02:697,15.305,-0.006,-0.002,0.013,-3.266,18.900,-10.696
19:23:02:698,15.306,-0.006,-0.008,0.014,-3.295,18.898,-10.723
19:23:02:721,15.329,0.003,-0.013,0.015,-3.314,18.901,-10.744
19:23:02:776,15.384,-0.006,-0.003,0.010,-3.360,18.926,-10.778
19:23:02:777,15.385,0.002,-0.008,0.015,-3.415,18.968,-10.829
19:23:02:8,15.408,-0.002,-0.009,0.012,-3.451,18.997,-10.857
19:23:02:855,15.463,-0.005,-0.006,0.018,-3.491,19.028,-10.906
19:23:02:856,15.464,-0.007,-0.006,0.012,-3.518,19.041,-10.938
19:23:02:88,15.488,-0.002,-0.010,0.015,-3.560,19.047,-10.991
19:23:02:906,15.514,0.001,-0.010,0.012,-3.592,19.057,-11.048
19:23:02:96,15.568,0.001,-0.009,0.021,-3.615,19.056,-11.085
19:23:02:96,15.569,-0.006,-0.005,0.011,-3.649,19.056,-11.122
19:23:02:983,15.592,0.005,-0.007,0.018,-3.664,19.029,-11.162
19:23:03:01,15.618,0.005,-0.010,0.013,-3.685,18.998,-11.207
19:23:03:036,15.644,-0.001,-0.009,0.018,-3.690,18.984,-11.232
19:23:03:063,15.671,-0.007,-0.009,0.019,-3.691,18.960,-11.256
19:23:03:147,15.755,-0.003,-0.008,0.015,-3.697,18.937,-11.280
19:23:03:147,15.755,-0.004,-0.003,0.015,-3.701,18.938,-11.300
19:23:03:148,15.756,0.002,-0.012,0.014,-3.689,18.939,-11.350
19:23:03:167,15.776,0.002,-0.008,0.014,-3.682,18.939,-11.378
19:23:03:222,15.831,0.001,-0.004,0.016,-3.668,18.954,-11.413
19:23:03:223,15.832,-0.003,-0.007,0.015,-3.655,18.969,-11.447
19:23:03:246,15.854,-0.001,-0.008,0.011,-3.643,18.978,-11.457
19:23:03:301,15.910,-0.001,-0.008,0.017,-3.628,18.981,-11.451
19:23:03:302,15.910,0.003,-0.011,0.008,-3.619,18.970,-11.450
19:23:03:326,15.934,0.002,-0.010,0.019,-3.614,18.974,-11.445
19:23:03:351,15.959,-0.002,-0.007,0.008,-3.594,18.972,-11.443
19:23:03:377,15.985,-0.003,-0.008,0.019,-3.603,18.978,-11.439
19:23:03:432,16.041,-0.013,-0.008,0.011,-3.585,18.975,-11.408
19:23:03:433,16.042,-0.006,-0.008,0.023,-3.578,18.963,-11.377
19:23:03:456,16.064,-0.010,-0.004,0.019,-3.560,18.901,-11.344
19:23:03:483,16.091,0.004,-0.005,0.015,-3.560,18.829,-11.301
19:23:03:509,16.117,0.004,-0.006,0.010,-3.572,18.770,-11.280
19:23:03:593,16.201,0.008,-0.012,0.016,-3.603,18.677,-11.244
19:23:03:593,16.202,-0.008,-0.003,0.026,-3.625,18.623,-11.208
19:23:03:594,16.203,-0.012,-0.005,0.016,-3.614,18.556,-11.160
19:23:03:613,16.222,-0.006,-0.004,0.011,-3.596,18.484,-11.147
19:23:03:669,16.278,-0.002,-0.006,0.008,-3.581,18.433,-11.144
19:23:03:67,16.278,-0.004,-0.007,0.010,-3.542,18.359,-11.159
19:23:03:693,16.301,0.000,-0.008,0.021,-3.511,18.307,-11.174
19:23:03:748,16.356,0.001,-0.003,0.009,-3.477,18.220,-11.204
19:23:03:748,16.356,0.005,-0.007,0.014,-3.472,18.161,-11.222
19:23:03:774,16.383,0.000,-0.006,0.009,-3.470,18.116,-11.245
19:23:03:774,16.383,0.001,-0.006,0.016,-3.471,18.102,-11.259
19:23:03:826,16.435,-0.002,-0.008,0.011,-3.463,18.086,-11.253
19:23:03:827,16.435,0.002,-0.009,0.011,-3.474,18.022,-11.246
19:23:03:85,16.458,0.005,-0.008,0.016,-3.474,17.977,-11.240
19:23:03:876,16.484,0.002,-0.007,0.018,-3.473,17.937,-11.238
19:23:03:902,16.511,0.005,-0.003,0.012,-3.469,17.931,-11.233
19:23:03:959,16.568,0.007,-0.008,0.015,-3.464,17.931,-11.232
19:23:03:959,16.568,0.003,-0.008,0.013,-3.445,17.973,-11.218
19:23:03:981,16.590,-0.008,-0.005,0.008,-3.433,18.002,-11.199
19:23:04:007,16.615,0.000,0.001,0.011,-3.448,18.017,-11.175
19:23:04:033,16.642,-0.002,-0.005,0.009,-3.443,18.021,-11.170
19:23:04:061,16.669,-0.001,-0.012,0.012,-3.437,18.025,-11.165
19:23:04:115,16.724,-0.010,-0.006,0.009,-3.458,18.041,-11.132
19:23:04:116,16.724,-0.013,-0.004,0.019,-3.478,18.043,-11.133
19:23:04:138,16.747,-0.010,-0.005,0.009,-3.479,18.024,-11.142
19:23:04:195,16.803,-0.010,-0.007,0.022,-3.479,18.010,-11.167
19:23:04:195,16.803,-0.007,-0.007,0.011,-3.483,18.002,-11.216
19:23:04:217,16.825,0.002,-0.006,0.012,-3.484,18.004,-11.286
19:23:04:273,16.881,-0.008,-0.011,0.010,-3.482,18.002,-11.351
19:23:04:273,16.881,0.004,-0.009,0.019,-3.487,18.005,-11.441
19:23:04:296,16.905,0.010,0.000,0.001,-3.485,18.002,-11.495
19:23:04:322,16.931,-0.001,-0.004,0.015,-3.482,18.004,-11.565
19:23:04:348,16.957,-0.008,-0.008,0.020,-3.493,17.976,-11.604
19:23:04:404,17.012,0.000,-0.001,0.012,-3.502,17.928,-11.623
19:23:04:404,17.013,0.000,-0.016,0.011,-3.507,17.806,-11.684
19:23:04:429,17.038,-0.006,-0.006,0.023,-3.501,17.752,-11.706
19:23:04:483,17.091,-0.005,-0.003,0.009,-3.487,17.677,-11.738
19:23:04:483,17.092,0.004,-0.011,0.017,-3.471,17.621,-11.770
19:23:04:564,17.172,-0.003,-0.009,0.014,-3.446,17.565,-11.791
19:23:04:565,17.173,-0.005,-0.006,0.021,-3.419,17.518,-11.813
19:23:04:565,17.174,0.005,-0.005,0.015,-3.411,17.488,-11.831
19:23:04:585,17.194,0.007,-0.009,0.013,-3.393,17.466,-11.840
19:23:04:666,17.275,0.001,-0.008,0.014,-3.390,17.460,-11.814
19:23:04:667,17.275,-0.003,-0.007,0.025,-3.377,17.467,-11.744
19:23:04:752,17.361,0.008,-0.012,0.010,-3.365,17.467,-11.648
19:23:04:752,17.361,0.006,-0.011,0.012,-3.340,17.487,-11.583
19:23:04:752,17.361,-0.015,-0.009,0.023,-3.309,17.550,-11.454
19:23:04:753,17.362,-0.003,-0.007,0.013,-3.300,17.575,-11.355
19:23:04:827,17.435,0.012,-0.009,0.016,-3.325,17.624,-11.258
19:23:04:827,17.436,-0.006,-0.005,0.010,-3.361,17.665,-11.163
19:23:04:828,17.437,-0.004,-0.003,0.014,-3.397,17.691,-11.091
19:23:04:847,17.455,-0.026,-0.003,0.011,-3.393,17.681,-10.966
19:23:04:903,17.511,-0.020,-0.008,0.027,-3.391,17.624,-10.909
19:23:04:903,17.511,0.000,-0.012,0.008,-3.404,17.450,-10.869
19:23:04:926,17.534,-0.009,0.001,0.022,-3.419,17.301,-10.855
19:23:05:093,17.702,-0.005,-0.006,0.008,-3.398,17.050,-10.835
19:23:05:094,17.702,0.001,-0.015,0.015,-3.369,16.805,-10.880
19:23:05:095,17.703,-0.003,-0.010,0.001,-3.358,16.645,-10.904
19:23:05:171,17.780,0.004,-0.008,0.011,-3.304,16.249,-10.953
19:23:05:172,17.781,0.004,-0.012,0.003,-3.272,16.043,-10.989
19:23:05:176,17.784,0.011,-0.014,0.006,-3.273,15.915,-11.025
19:23:05:176,17.784,0.002,-0.006,0.015,-3.277,15.871,-11.029
19:23:05:193,17.801,-0.010,-0.001,0.020,-3.238,15.862,-11.022
19:23:05:193,17.801,-0.003,-0.011,0.015,-3.196,15.823,-11.014
19:23:05:244,17.852,-0.004,-0.010,0.011,-3.160,15.729,-11.000
19:23:05:244,17.853,0.017,0.001,0.001,-3.143,15.643,-11.001
19:23:05:267,17.876,-0.001,-0.003,0.021,-3.104,15.516,-11.021
19:23:05:295,17.904,-0.026,-0.003,0.031,-3.011,15.436,-10.985
19:23:05:321,17.929,-0.005,-0.009,0.018,-2.953,15.361,-10.970
19:23:05:347,17.955,0.004,-0.009,0.002,-2.905,15.231,-10.969
19:23:05:372,17.980,0.006,-0.015,0.005,-2.882,15.150,-10.976
19:23:05:398,18.007,-0.007,-0.009,0.016,-2.849,15.082,-10.969
19:23:05:424,18.033,-0.016,-0.005,0.020,-2.780,15.010,-10.949
19:23:05:453,18.061,-0.010,-0.003,0.015,-2.717,14.925,-10.944
19:23:05:478,18.086,0.012,-0.007,-0.003,-2.648,14.740,-10.977
19:23:05:532,18.140,0.009,-0.016,0.001,-2.610,14.607,-10.992
19:23:05:533,18.141,-0.012,-0.005,0.015,-2.553,14.472,-10.987
19:23:05:616,18.225,-0.025,-0.002,0.028,-2.500,14.393,-10.979
19:23:05:616,18.225,-0.006,-0.013,0.008,-2.397,14.254,-10.972
19:23:05:617,18.225,0.003,-0.012,0.003,-2.337,14.080,-11.006
19:23:05:635,18.243,0.011,-0.009,0.003,-2.308,13.968,-11.023
19:23:05:69,18.298,-0.029,0.002,0.027,-2.229,13.841,-11.029
19:23:05:691,18.299,-0.001,-0.002,0.028,-2.163,13.736,-11.034
19:23:05:715,18.323,0.013,-0.014,-0.004,-2.082,13.530,-11.058
19:23:05:769,18.377,0.021,-0.014,-0.002,-2.052,13.363,-11.089
19:23:05:769,18.378,-0.002,-0.003,0.011,-2.041,13.318,-11.103
19:23:05:792,18.400,-0.009,-0.005,0.021,-1.996,13.309,-11.126
19:23:05:851,18.459,0.004,-0.013,0.004,-1.963,13.281,-11.150
19:23:05:852,18.460,0.007,-0.014,0.004,-1.951,13.246,-11.184
19:23:05:853,18.461,0.001,-0.006,0.009,-1.948,13.226,-11.184
19:23:05:897,18.506,0.000,-0.006,0.012,-1.941,13.245,-11.194
19:23:05:986,18.594,-0.003,-0.012,0.015,-1.927,13.284,-11.214
19:23:05:986,18.594,-0.001,-0.011,0.014,-1.915,13.298,-11.219
19:23:05:986,18.594,0.006,-0.007,0.003,-1.932,13.334,-11.215
19:23:05:986,18.595,0.007,-0.005,0.011,-1.937,13.379,-11.221
19:23:06:057,18.666,-0.006,-0.004,0.001,-1.933,13.479,-11.223
19:23:06:058,18.667,-0.001,-0.009,0.020,-1.931,13.548,-11.244
19:23:06:084,18.692,-0.005,-0.006,0.010,-1.928,13.573,-11.259
19:23:06:085,18.693,0.000,-0.005,0.006,-1.914,13.602,-11.279
19:23:06:134,18.742,-0.003,-0.008,0.016,-1.902,13.621,-11.299
19:23:06:163,18.771,0.000,-0.006,0.014,-1.863,13.652,-11.314
19:23:06:163,18.771,-0.007,-0.007,0.022,-1.820,13.683,-11.308
19:23:06:215,18.824,-0.006,-0.003,0.016,-1.775,13.678,-11.307
19:23:06:216,18.825,0.000,-0.006,0.017,-1.701,13.652,-11.315
19:23:06:239,18.848,-0.003,-0.005,0.002,-1.644,13.611,-11.328
19:23:06:266,18.874,0.000,-0.012,0.007,-1.560,13.534,-11.365
19:23:06:291,18.899,0.005,-0.010,0.005,-1.502,13.455,-11.417
19:23:06:317,18.925,0.005,-0.010,0.012,-1.465,13.412,-11.455
19:23:06:343,18.951,-0.002,-0.006,0.009,-1.403,13.367,-11.513
19:23:06:369,18.978,0.009,-0.001,0.005,-1.365,13.328,-11.546
19:23:06:396,19.005,0.000,-0.013,0.008,-1.338,13.242,-11.609
19:23:06:451,19.060,0.002,-0.006,0.018,-1.328,13.192,-11.629
19:23:06:452,19.061,-0.010,-0.005,0.016,-1.290,13.113,-11.651
19:23:06:505,19.113,0.003,-0.003,0.011,-1.251,13.000,-11.649
19:23:06:505,19.114,-0.015,-0.004,0.018,-1.212,12.892,-11.633
19:23:06:527,19.136,0.004,-0.005,0.017,-1.170,12.659,-11.649
19:23:06:583,19.192,0.024,0.005,-0.020,-1.167,12.485,-11.702
19:23:06:583,19.192,0.014,-0.034,0.019,-1.167,12.238,-11.838
19:23:06:606,19.214,-0.005,-0.008,0.022,-1.141,12.192,-11.942
19:23:06:661,19.269,-0.012,-0.005,0.024,-1.119,12.205,-11.967
19:23:06:662,19.270,-0.002,-0.010,0.007,-1.099,12.203,-12.007
19:23:06:686,19.294,0.014,-0.007,0.015,-1.101,12.179,-12.031
19:23:06:74,19.348,-0.001,-0.005,0.015,-1.092,12.168,-12.041
19:23:06:741,19.349,-0.007,-0.004,0.024,-1.082,12.167,-12.041
19:23:06:763,19.372,0.005,-0.007,0.015,-1.068,12.155,-12.030
19:23:06:789,19.398,0.012,-0.011,0.011,-1.066,12.125,-12.030
19:23:06:816,19.424,-0.003,-0.008,0.017,-1.056,12.124,-12.030
19:23:06:842,19.450,-0.003,-0.006,0.010,-1.052,12.118,-11.995
19:23:06:868,19.477,-0.003,-0.006,0.024,-1.042,12.117,-11.995
19:23:06:896,19.504,-0.001,-0.004,0.009,-1.032,12.111,-11.990
19:23:06:95,19.559,0.007,-0.012,0.011,-1.037,12.072,-12.009
19:23:06:951,19.559,0.009,-0.011,0.012,-1.038,12.062,-12.019
19:23:06:974,19.582,-0.003,-0.007,0.015,-1.057,12.074,-12.019
19:23:07:029,19.637,0.010,-0.004,0.003,-1.075,12.091,-12.015
19:23:07:03,19.638,0.001,-0.012,0.020,-1.108,12.115,-12.055
19:23:07:052,19.660,-0.008,-0.002,0.006,-1.132,12.127,-12.066
19:23:07:108,19.716,-0.007,-0.003,0.010,-1.155,12.150,-12.056
19:23:07:108,19.716,0.002,-0.006,0.003,-1.150,12.149,-12.056
19:23:07:131,19.739,0.014,-0.005,0.014,-1.161,12.140,-12.076
19:23:07:186,19.795,0.002,-0.002,0.003,-1.181,12.143,-12.106
19:23:07:187,19.795,-0.004,-0.005,0.023,-1.196,12.150,-12.131
19:23:07:211,19.819,-0.005,-0.004,0.011,-1.190,12.154,-12.146
19:23:07:236,19.844,0.002,-0.003,0.012,-1.185,12.154,-12.136
19:23:07:262,19.871,0.003,-0.011,0.004,-1.185,12.149,-12.141
19:23:07:289,19.897,0.003,-0.005,0.008,-1.191,12.149,-12.141
19:23:07:314,19.923,-0.004,-0.004,0.012,-1.206,12.151,-12.141
19:23:07:341,19.949,0.007,-0.009,0.005,-1.229,12.168,-12.137
19:23:07:396,20.005,0.002,-0.010,0.010,-1.266,12.207,-12.162
19:23:07:399,20.007,0.005,-0.007,0.015,-1.282,12.244,-12.168
19:23:07:421,20.029,0.006,-0.008,0.002,-1.316,12.307,-12.169
19:23:07:477,20.085,0.002,-0.003,0.002,-1.395,12.469,-12.177
19:23:07:498,20.107,0.007,-0.012,0.018,-1.423,12.537,-12.193
19:23:07:554,20.162,-0.002,-0.006,0.010,-1.470,12.662,-12.196
19:23:07:555,20.163,-0.004,-0.009,0.020,-1.512,12.790,-12.193
19:23:07:577,20.186,-0.001,-0.005,0.009,-1.530,12.857,-12.189
19:23:07:632,20.241,-0.001,-0.006,0.018,-1.558,12.934,-12.186
19:23:07:633,20.241,-0.004,-0.007,0.019,-1.572,12.985,-12.187
19:23:07:657,20.265,-0.002,-0.006,0.010,-1.578,13.031,-12.183
19:23:07:712,20.321,-0.003,-0.006,0.012,-1.606,13.049,-12.179
19:23:07:712,20.321,0.001,-0.006,0.011,-1.606,13.053,-12.174
19:23:07:735,20.343,0.005,-0.009,0.007,-1.616,13.055,-12.174
19:23:07:761,20.369,0.000,-0.005,0.002,-1.626,13.056,-12.174
19:23:07:816,20.424,-0.005,-0.006,0.013,-1.660,13.069,-12.175
19:23:07:817,20.425,-0.003,-0.007,0.004,-1.689,13.082,-12.176
19:23:07:84,20.448,0.000,-0.005,0.007,-1.704,13.089,-12.171
19:23:07:866,20.474,-0.003,-0.006,0.004,-1.733,13.097,-12.176
19:23:07:922,20.530,0.000,-0.008,0.015,-1.753,13.099,-12.177
19:23:07:922,20.530,-0.002,-0.003,0.004,-1.778,13.106,-12.183
19:23:07:944,20.553,-0.001,-0.008,0.014,-1.783,13.107,-12.203
19:23:08:,20.609,-0.004,-0.005,0.006,-1.798,13.104,-12.218
19:23:08:001,20.610,-0.004,-0.006,0.013,-1.806,13.075,-12.237
19:23:08:025,20.633,-0.002,-0.010,0.005,-1.809,13.051,-12.252
19:23:08:108,20.716,-0.001,-0.009,0.013,-1.819,13.003,-12.291
19:23:08:109,20.717,-0.009,-0.005,0.007,-1.827,12.979,-12.316
19:23:08:11,20.718,0.001,-0.008,0.018,-1.837,12.926,-12.339
19:23:08:158,20.766,0.003,-0.006,0.010,-1.849,12.868,-12.369
19:23:08:158,20.766,-0.003,-0.008,0.014,-1.864,12.820,-12.388
19:23:08:181,20.790,0.006,-0.012,0.005,-1.876,12.757,-12.412
19:23:08:208,20.816,-0.006,-0.005,0.015,-1.888,12.739,-12.412
19:23:08:236,20.845,-0.003,-0.010,0.010,-1.899,12.735,-12.417
19:23:08:237,20.845,0.005,-0.012,0.011,-1.919,12.732,-12.412
19:23:08:289,20.897,0.004,-0.009,0.003,-1.939,12.739,-12.418
19:23:08:29,20.898,-0.004,-0.003,0.014,-1.972,12.762,-12.399
19:23:08:341,20.950,0.000,-0.008,0.016,-1.996,12.780,-12.395
19:23:08:342,20.950,0.000,-0.006,0.016,-2.031,12.784,-12.396
19:23:08:364,20.973,0.001,-0.009,0.008,-2.055,12.796,-12.396
19:23:08:449,21.057,-0.001,-0.009,0.010,-2.091,12.840,-12.397
19:23:08:45,21.058,-0.003,-0.004,0.018,-2.121,12.893,-12.399
19:23:08:451,21.059,-0.003,-0.006,0.011,-2.138,12.924,-12.400
19:23:08:47,21.078,0.002,-0.010,0.008,-2.170,12.958,-12.401
19:23:08:525,21.134,0.000,-0.006,0.003,-2.185,12.999,-12.402
19:23:08:526,21.134,0.001,-0.009,0.013,-2.213,13.071,-12.384
19:23:08:548,21.157,-0.005,-0.005,0.012,-2.239,13.158,-12.362
19:23:08:604,21.212,-0.004,-0.007,0.008,-2.258,13.225,-12.348
19:23:08:605,21.213,0.002,-0.008,0.000,-2.297,13.328,-12.322
19:23:08:627,21.236,0.006,-0.011,0.006,-2.334,13.411,-12.305
19:23:08:684,21.293,0.000,-0.006,0.019,-2.401,13.596,-12.260
19:23:08:684,21.293,0.001,-0.007,0.011,-2.450,13.799,-12.216
19:23:08:706,21.314,0.000,-0.008,0.001,-2.495,13.953,-12.191
19:23:08:732,21.340,-0.001,-0.013,0.014,-2.567,14.188,-12.149
19:23:08:758,21.367,0.003,-0.008,0.004,-2.620,14.362,-12.105
19:23:08:814,21.423,-0.023,-0.005,0.030,-2.701,14.662,-12.041
19:23:08:815,21.423,-0.004,-0.003,0.018,-2.743,14.845,-12.008
19:23:08:837,21.446,-0.003,-0.007,0.012,-2.811,15.080,-11.957
19:23:08:922,21.530,0.007,-0.014,-0.002,-2.896,15.291,-11.911
19:23:08:923,21.531,0.014,-0.009,0.002,-2.966,15.467,-11.869
19:23:08:923,21.532,-0.023,-0.001,0.012,-3.030,15.749,-11.781
19:23:08:971,21.580,-0.002,-0.003,0.021,-3.069,15.921,-11.738
19:23:08:972,21.580,-0.005,-0.014,0.007,-3.144,16.146,-11.679
19:23:08:995,21.603,0.001,-0.007,0.013,-3.238,16.337,-11.604
19:23:09:05,21.658,0.004,-0.008,0.008,-3.310,16.502,-11.553
19:23:09:051,21.659,-0.006,-0.007,0.018,-3.379,16.745,-11.465
19:23:09:074,21.682,-0.003,-0.013,0.010,-3.432,16.903,-11.409
19:23:09:13,21.738,0.012,-0.015,0.003,-3.517,17.147,-11.322
19:23:09:13,21.738,0.033,-0.015,-0.025,-3.600,17.358,-11.260
19:23:09:152,21.761,0.006,-0.004,0.021,-3.716,17.874,-11.166
19:23:09:179,21.787,-0.029,0.008,0.041,-3.771,18.462,-11.053
19:23:09:205,21.814,-0.028,0.000,0.041,-3.800,18.808,-11.014
19:23:09:231,21.839,-0.008,-0.010,0.012,-3.849,19.179,-10.962
19:23:09:257,21.865,0.002,-0.012,-0.005,-3.887,19.335,-10.916
19:23:09:313,21.921,-0.007,0.000,0.016,-3.940,19.545,-10.799
19:23:09:314,21.922,-0.009,-0.007,0.016,-3.931,19.774,-10.684
19:23:09:336,21.945,-0.010,-0.010,0.021,-3.937,19.921,-10.620
19:23:09:363,21.971,-0.004,-0.002,0.008,-3.960,20.150,-10.562
19:23:09:418,22.026,-0.003,-0.008,0.015,-3.978,20.305,-10.535
19:23:09:419,22.027,-0.019,-0.005,0.023,-3.973,20.521,-10.463
19:23:09:441,22.049,-0.008,-0.003,0.015,-3.980,20.654,-10.415
19:23:09:496,22.104,-0.008,-0.006,0.009,-3.999,20.699,-10.373
19:23:09:497,22.105,-0.002,-0.008,0.011,-4.019,20.734,-10.332
19:23:09:521,22.129,-0.004,-0.007,0.012,-4.023,20.769,-10.309
19:23:09:576,22.184,0.001,-0.004,0.015,-4.021,20.822,-10.266
19:23:09:576,22.185,-0.011,-0.007,0.011,-4.018,20.875,-10.243
19:23:09:598,22.207,-0.001,-0.011,0.014,-4.028,20.945,-10.227
19:23:09:654,22.262,-0.001,-0.009,0.010,-4.028,21.000,-10.224
19:23:09:654,22.263,-0.003,-0.007,0.015,-4.016,21.024,-10.219
19:23:09:706,22.315,-0.006,-0.009,0.012,-3.999,21.057,-10.214
19:23:09:707,22.315,-0.006,-0.009,0.010,-3.989,21.056,-10.214
19:23:09:73,22.338,-0.002,-0.008,0.010,-3.985,21.050,-10.198
19:23:09:786,22.394,-0.002,-0.008,0.019,-3.980,21.019,-10.176
19:23:09:786,22.394,-0.008,-0.003,0.013,-3.976,21.003,-10.170
19:23:09:808,22.416,-0.008,-0.010,0.017,-3.964,20.977,-10.163
19:23:09:864,22.472,-0.002,-0.007,0.009,-3.965,20.953,-10.177
19:23:09:865,22.473,-0.003,-0.007,0.017,-3.967,20.919,-10.191
19:23:09:887,22.495,-0.003,-0.007,0.014,-3.962,20.903,-10.204
19:23:09:942,22.551,-0.010,-0.010,0.019,-3.964,20.879,-10.209
19:23:09:943,22.552,-0.010,-0.007,0.012,-4.000,20.813,-10.219
19:23:09:966,22.574,0.002,-0.010,0.008,-4.028,20.761,-10.234
19:23:10:022,22.631,-0.003,-0.010,0.009,-4.070,20.685,-10.235
19:23:10:022,22.631,0.000,-0.007,0.009,-4.090,20.647,-10.224
19:23:10:045,22.653,-0.004,-0.008,0.011,-4.102,20.618,-10.224
19:23:10:1,22.708,-0.009,-0.010,0.003,-4.101,20.583,-10.218
19:23:10:101,22.709,-0.001,-0.006,0.009,-4.112,20.564,-10.228
19:23:10:124,22.732,-0.002,-0.007,0.002,-4.115,20.535,-10.227
19:23:10:15,22.759,-0.002,-0.007,0.012,-4.115,20.535,-10.227
19:23:10:176,22.785,-0.005,-0.007,0.007,-4.104,20.534,-10.236
19:23:10:231,22.840,-0.003,-0.011,0.014,-4.105,20.534,-10.226
19:23:10:232,22.840,-0.004,-0.009,0.004,-4.100,20.533,-10.225
19:23:10:313,22.921,-0.002,-0.009,0.015,-4.094,20.533,-10.235
19:23:10:313,22.922,-0.005,-0.008,0.011,-4.094,20.533,-10.235
19:23:10:314,22.923,0.000,-0.006,0.010,-4.093,20.533,-10.245
19:23:10:335,22.944,-0.001,-0.005,0.010,-4.093,20.534,-10.255
19:23:10:423,23.031,-0.005,-0.006,0.013,-4.093,20.524,-10.255
19:23:10:423,23.031,0.000,-0.008,0.005,-4.095,20.499,-10.259
19:23:10:423,23.031,0.001,-0.009,0.012,-4.095,20.495,-10.264
19:23:10:424,23.032,-0.005,-0.006,0.009,-4.095,20.495,-10.264
19:23:10:465,23.073,-0.003,-0.008,0.009,-4.095,20.495,-10.273
19:23:10:495,23.103,0.000,-0.008,0.009,-4.094,20.490,-10.288
19:23:10:495,23.103,-0.003,-0.006,0.011,-4.098,20.496,-10.294
19:23:10:546,23.154,-0.004,-0.007,0.010,-4.099,20.486,-10.294
19:23:10:547,23.155,-0.003,-0.007,0.016,-4.106,20.462,-10.298
19:23:10:657,23.265,-0.001,-0.007,0.013,-4.107,20.438,-10.312
19:23:10:658,23.266,0.003,-0.009,0.014,-4.116,20.389,-10.320
19:23:10:658,23.267,0.002,-0.008,0.013,-4.120,20.354,-10.314
19:23:10:675,23.283,-0.001,-0.009,0.010,-4.120,20.354,-10.314
19:23:10:728,23.337,-0.008,-0.008,0.008,-4.120,20.354,-10.314
19:23:10:756,23.364,0.002,-0.009,0.013,-4.120,20.354,-10.314
19:23:10:757,23.365,-0.004,-0.006,0.005,-4.120,20.354,-10.314
19:23:10:78,23.388,-0.003,-0.007,0.011,-4.120,20.354,-10.314
19:23:10:835,23.444,-0.004,-0.007,0.006,-4.126,20.345,-10.314
19:23:10:836,23.444,-0.001,-0.008,0.012,-4.127,20.330,-10.319
19:23:10:86,23.468,-0.002,-0.006,0.004,-4.128,20.310,-10.318
19:23:10:914,23.522,0.000,-0.006,0.017,-4.129,20.296,-10.323
19:23:10:914,23.523,-0.004,-0.008,0.011,-4.140,20.282,-10.338
19:23:10:937,23.546,0.001,-0.009,0.010,-4.140,20.268,-10.352
19:23:10:994,23.602,0.005,-0.007,0.003,-4.140,20.268,-10.352
19:23:10:994,23.602,-0.002,-0.009,0.015,-4.139,20.273,-10.357
19:23:11:016,23.624,-0.002,-0.007,0.009,-4.139,20.273,-10.357
19:23:11:071,23.679,0.003,-0.007,0.013,-4.139,20.273,-10.357
19:23:11:072,23.680,-0.001,-0.007,0.008,-4.139,20.273,-10.357
19:23:11:095,23.703,0.001,-0.009,0.014,-4.138,20.278,-10.362
19:23:11:121,23.729,-0.002,-0.008,0.008,-4.138,20.278,-10.362
19:23:11:147,23.756,0.000,-0.006,0.014,-4.138,20.278,-10.362
19:23:11:174,23.782,0.000,-0.005,0.009,-4.138,20.278,-10.362
19:23:11:2,23.808,-0.001,-0.008,0.011,-4.139,20.273,-10.367
19:23:11:226,23.835,0.002,-0.009,0.012,-4.139,20.273,-10.367
19:23:11:253,23.861,0.000,-0.010,0.013,-4.139,20.273,-10.367
19:23:11:278,23.887,-0.001,-0.008,0.011,-4.139,20.273,-10.367
19:23:11:363,23.971,0.003,-0.007,0.014,-4.139,20.273,-10.367
19:23:11:364,23.972,0.001,-0.008,0.013,-4.139,20.273,-10.367
19:23:11:364,23.973,0.001,-0.007,0.020,-4.139,20.273,-10.367
19:23:11:443,24.051,0.002,-0.009,0.014,-4.139,20.273,-10.367
19:23:11:443,24.051,0.006,-0.006,0.014,-4.139,20.273,-10.367
19:23:11:444,24.052,0.003,-0.009,0.015,-4.139,20.273,-10.367
19:23:11:463,24.072,-0.004,-0.007,0.009,-4.139,20.273,-10.367
19:23:11:517,24.126,0.000,-0.006,0.017,-4.139,20.273,-10.367
19:23:11:518,24.127,0.000,-0.008,0.008,-4.154,20.275,-10.369
19:23:11:541,24.149,0.004,-0.009,0.014,-4.174,20.282,-10.366
19:23:11:596,24.205,-0.002,-0.007,0.006,-4.192,20.308,-10.363
19:23:11:597,24.205,-0.005,-0.006,0.019,-4.211,20.334,-10.341
19:23:11:621,24.229,-0.005,-0.009,0.008,-4.230,20.360,-10.319
19:23:11:646,24.254,0.000,-0.006,0.010,-4.242,20.360,-10.300
19:23:11:672,24.281,0.000,-0.006,0.006,-4.253,20.370,-10.271
19:23:11:698,24.307,-0.002,-0.008,0.019,-4.254,20.379,-10.242
19:23:11:725,24.333,-0.002,-0.007,0.010,-4.255,20.378,-10.232
19:23:11:751,24.359,0.001,-0.007,0.017,-4.250,20.382,-10.217
19:23:11:806,24.414,0.001,-0.007,0.011,-4.250,20.382,-10.217
19:23:11:807,24.415,-0.002,-0.007,0.017,-4.249,20.392,-10.217
19:23:11:831,24.440,-0.006,-0.006,0.009,-4.248,20.402,-10.217
19:23:11:885,24.493,-0.005,-0.007,0.018,-4.248,20.402,-10.217
19:23:11:886,24.494,-0.008,-0.005,0.014,-4.256,20.373,-10.227
19:23:11:908,24.517,0.000,-0.006,0.020,-4.262,20.340,-10.251
19:23:11:964,24.572,-0.001,-0.008,0.017,-4.264,20.287,-10.293
19:23:11:964,24.573,0.000,-0.006,0.018,-4.255,20.257,-10.321
19:23:11:987,24.595,-0.003,-0.006,0.015,-4.242,20.193,-10.362
19:23:12:042,24.651,0.001,-0.011,0.016,-4.226,20.123,-10.398
19:23:12:043,24.652,0.002,-0.007,0.011,-4.219,20.074,-10.415
19:23:12:066,24.674,0.003,-0.007,0.019,-4.199,20.003,-10.440
19:23:12:12,24.728,-0.001,-0.010,0.020,-4.180,19.908,-10.469
19:23:12:175,24.783,0.001,-0.007,0.018,-4.169,19.857,-10.476
19:23:12:175,24.783,0.001,-0.007,0.020,-4.161,19.832,-10.489
19:23:12:197,24.805,-0.002,-0.008,0.019,-4.162,19.803,-10.508
19:23:12:223,24.832,0.000,-0.007,0.009,-4.169,19.784,-10.508
19:23:12:251,24.859,0.000,-0.007,0.018,-4.175,19.755,-10.527
19:23:12:276,24.884,-0.002,-0.008,0.009,-4.176,19.750,-10.522
19:23:12:332,24.941,0.002,-0.006,0.020,-4.176,19.750,-10.522
19:23:12:333,24.941,-0.006,-0.005,0.011,-4.161,19.749,-10.521
19:23:12:355,24.963,-0.001,-0.010,0.021,-4.152,19.747,-10.510
19:23:12:41,25.018,0.000,-0.005,0.008,-4.132,19.746,-10.508
19:23:12:411,25.019,0.000,-0.005,0.020,-4.132,19.750,-10.504
19:23:12:434,25.043,-0.006,-0.006,0.008,-4.112,19.748,-10.502
19:23:12:489,25.097,0.001,-0.009,0.021,-4.097,19.746,-10.491
19:23:12:49,25.098,-0.002,-0.005,0.011,-4.087,19.745,-10.490
19:23:12:512,25.121,-0.002,-0.006,0.021,-4.073,19.744,-10.479
19:23:12:567,25.176,-0.003,-0.008,0.019,-4.059,19.737,-10.473
19:23:12:568,25.177,-0.003,-0.009,0.018,-4.033,19.689,-10.463
19:23:12:591,25.199,0.001,-0.008,0.011,-4.031,19.655,-10.467
19:23:12:617,25.226,0.003,-0.007,0.023,-4.028,19.615,-10.485
19:23:12:706,25.314,-0.001,-0.005,0.014,-4.021,19.580,-10.498
19:23:12:706,25.314,-0.001,-0.009,0.018,-4.011,19.565,-10.512
19:23:12:706,25.315,-0.003,-0.010,0.017,-4.005,19.525,-10.510
19:23:12:707,25.315,0.000,-0.006,0.019,-3.998,19.493,-10.498
19:23:12:75,25.358,0.002,-0.007,0.016,-3.992,19.439,-10.520
19:23:12:774,25.383,-0.004,-0.005,0.019,-3.985,19.394,-10.533
19:23:12:804,25.412,0.005,0.000,0.008,-3.992,19.356,-10.551
19:23:12:805,25.413,0.002,-0.007,0.017,-3.988,19.272,-10.592
19:23:12:856,25.465,-0.002,-0.010,0.021,-3.990,19.234,-10.621
19:23:12:857,25.465,-0.002,-0.009,0.019,-3.959,19.167,-10.641
19:23:12:88,25.488,0.005,-0.007,0.016,-3.944,19.097,-10.667
19:23:12:935,25.544,0.002,-0.007,0.024,-3.933,19.041,-10.679
19:23:12:936,25.544,0.005,-0.003,0.017,-3.910,18.946,-10.708
19:23:12:961,25.569,-0.001,-0.011,0.010,-3.890,18.875,-10.734
19:23:13:014,25.622,-0.002,-0.011,0.020,-3.880,18.805,-10.760
19:23:13:015,25.623,0.001,-0.007,0.010,-3.873,18.775,-10.758
19:23:13:038,25.646,0.006,-0.009,0.013,-3.865,18.740,-10.772
19:23:13:063,25.672,-0.002,-0.007,0.013,-3.852,18.718,-10.770
19:23:13:09,25.698,0.003,-0.007,0.013,-3.847,18.718,-10.770
19:23:13:116,25.724,-0.005,-0.006,0.012,-3.833,18.711,-10.763
19:23:13:144,25.753,0.002,-0.013,0.018,-3.833,18.706,-10.758
19:23:13:198,25.807,-0.001,-0.010,0.010,-3.825,18.691,-10.762
19:23:13:199,25.807,0.002,-0.006,0.017,-3.815,18.690,-10.761
19:23:13:221,25.829,-0.004,-0.009,0.012,-3.804,18.694,-10.756
19:23:13:247,25.856,-0.002,-0.010,0.019,-3.790,18.692,-10.744
19:23:13:331,25.940,0.001,-0.007,0.012,-3.780,18.691,-10.744
19:23:13:332,25.940,0.001,-0.010,0.015,-3.770,18.690,-10.743
19:23:13:384,25.993,-0.002,-0.009,0.011,-3.760,18.689,-10.742
19:23:13:385,25.993,0.002,-0.009,0.017,-3.750,18.688,-10.732
19:23:13:386,25.994,-0.002,-0.006,0.009,-3.745,18.687,-10.731
19:23:13:405,26.013,0.000,-0.004,0.016,-3.735,18.691,-10.726
19:23:13:46,26.069,0.001,-0.003,0.009,-3.725,18.690,-10.725
19:23:13:461,26.069,0.002,-0.010,0.019,-3.720,18.690,-10.725
19:23:13:483,26.092,-0.003,-0.006,0.011,-3.720,18.690,-10.725
19:23:13:539,26.147,-0.002,-0.002,0.007,-3.716,18.689,-10.714
19:23:13:54,26.148,0.006,0.006,0.003,-3.716,18.669,-10.734
19:23:13:563,26.172,-0.003,-0.009,0.018,-3.707,18.585,-10.764
19:23:13:59,26.198,-0.004,-0.012,0.019,-3.710,18.555,-10.764
19:23:13:615,26.223,0.003,-0.009,0.017,-3.703,18.520,-10.767
19:23:13:641,26.250,0.001,-0.006,0.013,-3.693,18.519,-10.766
19:23:13:667,26.276,-0.001,-0.005,0.016,-3.702,18.544,-10.753
19:23:13:723,26.331,-0.003,-0.004,0.012,-3.706,18.555,-10.754
19:23:13:724,26.332,0.000,-0.007,0.009,-3.714,18.576,-10.755
19:23:13:746,26.355,-0.001,-0.018,0.018,-3.724,18.567,-10.775
19:23:13:831,26.439,-0.006,-0.008,0.009,-3.725,18.553,-10.790
19:23:13:831,26.440,-0.004,-0.010,0.021,-3.710,18.546,-10.783
19:23:13:832,26.441,-0.003,-0.005,0.008,-3.691,18.549,-10.767
19:23:13:851,26.459,0.001,-0.013,0.011,-3.692,18.534,-10.772
19:23:13:906,26.514,-0.006,-0.005,0.006,-3.683,18.523,-10.771
19:23:13:907,26.515,-0.003,-0.007,0.015,-3.672,18.527,-10.765
19:23:13:931,26.539,-0.006,-0.008,0.009,-3.668,18.521,-10.759
19:23:13:985,26.593,-0.003,-0.010,0.017,-3.688,18.528,-10.756
19:23:13:986,26.594,-0.004,-0.004,0.008,-3.688,18.528,-10.756
19:23:14:008,26.617,0.004,-0.001,0.012,-3.693,18.529,-10.757
19:23:14:035,26.643,0.002,-0.008,0.012,-3.692,18.529,-10.776
19:23:14:061,26.669,-0.004,-0.006,0.016,-3.691,18.534,-10.781
19:23:14:087,26.696,-0.006,-0.009,0.011,-3.701,18.535,-10.782
19:23:14:143,26.752,0.000,-0.008,0.015,-3.721,18.537,-10.783
19:23:14:144,26.752,-0.001,-0.010,0.010,-3.746,18.540,-10.786
19:23:14:167,26.775,-0.005,-0.011,0.016,-3.755,18.551,-10.787
19:23:14:192,26.801,0.000,-0.003,0.012,-3.773,18.572,-10.788
19:23:14:219,26.827,0.002,-0.011,0.017,-3.793,18.579,-10.785
19:23:14:274,26.882,-0.002,-0.008,0.011,-3.828,18.582,-10.788
19:23:14:274,26.883,-0.005,-0.003,0.010,-3.856,18.615,-10.781
19:23:14:297,26.905,-0.002,-0.009,0.011,-3.875,18.626,-10.782
19:23:14:352,26.961,-0.001,0.001,0.012,-3.899,18.644,-10.780
19:23:14:353,26.962,-0.011,-0.006,0.023,-3.899,18.644,-10.780
19:23:14:378,26.986,-0.007,-0.010,0.015,-3.905,18.634,-10.780
19:23:14:433,27.042,-0.006,-0.009,0.018,-3.906,18.624,-10.779
19:23:14:433,27.042,-0.004,-0.008,0.017,-3.911,18.625,-10.780
19:23:14:455,27.063,-0.005,-0.005,0.012,-3.911,18.625,-10.780
19:23:14:511,27.120,0.001,-0.007,0.014,-3.917,18.610,-10.785
19:23:14:511,27.120,-0.001,-0.010,0.012,-3.918,18.605,-10.779
19:23:14:533,27.141,-0.007,-0.007,0.005,-3.918,18.605,-10.779
19:23:14:561,27.170,0.001,-0.004,0.015,-3.943,18.608,-10.782
19:23:14:616,27.225,-0.003,-0.010,0.011,-3.973,18.616,-10.779
19:23:14:617,27.225,-0.005,-0.008,0.015,-3.981,18.632,-10.785
19:23:14:638,27.247,-0.008,-0.009,0.010,-4.003,18.664,-10.788
19:23:14:694,27.303,-0.001,-0.009,0.018,-4.023,18.671,-10.784
19:23:14:695,27.304,-0.009,-0.007,0.012,-4.023,18.671,-10.784
19:23:14:717,27.325,-0.003,-0.007,0.016,-4.023,18.671,-10.784
19:23:14:744,27.352,-0.008,-0.010,0.009,-4.023,18.671,-10.784
19:23:14:796,27.405,-0.001,-0.008,0.017,-4.033,18.672,-10.785
19:23:14:828,27.436,-0.002,-0.004,0.008,-4.038,18.672,-10.785
19:23:14:829,27.437,-0.005,-0.008,0.017,-4.043,18.672,-10.786
19:23:14:83,27.438,-0.008,-0.007,0.015,-4.043,18.672,-10.786
19:23:14:877,27.486,-0.003,-0.007,0.016,-4.043,18.672,-10.786
19:23:14:878,27.487,-0.004,-0.007,0.010,-4.043,18.672,-10.786
19:23:14:959,27.568,-0.002,-0.009,0.015,-4.043,18.672,-10.786
19:23:14:96,27.568,-0.003,-0.006,0.012,-4.043,18.672,-10.786
19:23:14:961,27.569,-0.004,-0.010,0.019,-4.043,18.668,-10.791
19:23:15:01,27.618,-0.004,-0.008,0.013,-4.042,18.673,-10.805
19:23:15:01,27.619,-0.007,-0.008,0.014,-4.042,18.673,-10.805
19:23:15:091,27.699,-0.002,-0.007,0.013,-4.057,18.675,-10.807
19:23:15:092,27.700,0.000,-0.005,0.013,-4.077,18.677,-10.808
19:23:15:092,27.700,-0.003,-0.006,0.014,-4.092,18.683,-10.804
19:23:15:138,27.746,0.001,-0.007,0.017,-4.117,18.685,-10.806
19:23:15:167,27.775,-0.004,-0.008,0.012,-4.137,18.687,-10.808
19:23:15:167,27.775,-0.005,-0.005,0.020,-4.157,18.694,-10.804
19:23:15:246,27.855,0.000,-0.006,0.015,-4.177,18.696,-10.806
19:23:15:247,27.856,-0.002,-0.010,0.011,-4.177,18.696,-10.806
19:23:15:273,27.881,-0.005,-0.007,0.015,-4.176,18.706,-10.806
19:23:15:273,27.881,-0.007,-0.006,0.009,-4.175,18.715,-10.806
19:23:15:324,27.932,-0.007,-0.008,0.016,-4.175,18.715,-10.806
19:23:15:325,27.933,-0.003,-0.009,0.008,-4.180,18.716,-10.807
19:23:15:348,27.957,-0.002,-0.004,0.014,-4.180,18.716,-10.807
19:23:15:403,28.011,-0.005,-0.007,0.010,-4.180,18.716,-10.807
19:23:15:404,28.012,-0.007,-0.008,0.017,-4.180,18.716,-10.807
19:23:15:426,28.034,0.002,-0.007,0.011,-4.180,18.716,-10.807
19:23:15:511,28.120,-0.005,-0.007,0.018,-4.180,18.716,-10.807
19:23:15:512,28.121,-0.008,-0.005,0.009,-4.180,18.716,-10.807
19:23:15:513,28.121,-0.004,-0.009,0.016,-4.180,18.716,-10.807
19:23:15:531,28.139,-0.006,-0.009,0.013,-4.180,18.716,-10.807
19:23:15:557,28.166,-0.005,-0.006,0.015,-4.180,18.716,-10.807
19:23:15:612,28.221,-0.008,-0.005,0.012,-4.180,18.716,-10.807
19:23:15:613,28.222,-0.005,-0.007,0.016,-4.180,18.716,-10.807
19:23:15:694,28.303,-0.010,-0.007,0.011,-4.180,18.716,-10.807
19:23:15:695,28.303,-0.007,-0.008,0.013,-4.180,18.716,-10.807
19:23:15:696,28.304,-0.005,-0.004,0.009,-4.180,18.716,-10.807
19:23:15:773,28.381,-0.004,-0.010,0.020,-4.180,18.716,-10.807
19:23:15:774,28.382,-0.009,-0.009,0.014,-4.180,18.716,-10.807
19:23:15:775,28.383,-0.008,-0.009,0.014,-4.180,18.716,-10.807
19:23:15:793,28.402,-0.008,-0.006,0.013,-4.180,18.716,-10.807
19:23:15:851,28.459,-0.006,-0.003,0.011,-4.180,18.716,-10.807
19:23:15:851,28.459,-0.009,-0.009,0.020,-4.180,18.716,-10.807
19:23:15:872,28.481,-0.008,-0.009,0.018,-4.180,18.716,-10.807
19:23:15:928,28.536,-0.002,-0.007,0.016,-4.180,18.716,-10.807
19:23:15:928,28.536,-0.007,-0.007,0.019,-4.180,18.716,-10.807
19:23:15:951,28.560,-0.003,-0.008,0.014,-4.180,18.716,-10.807
19:23:15:977,28.586,-0.008,-0.007,0.015,-4.180,18.716,-10.807
19:23:16:004,28.612,-0.008,-0.007,0.018,-4.180,18.716,-10.807
19:23:16:06,28.668,-0.009,-0.008,0.010,-4.180,18.716,-10.807
19:23:16:06,28.668,-0.007,-0.005,0.020,-4.180,18.716,-10.807
19:23:16:082,28.691,-0.010,-0.006,0.012,-4.180,18.716,-10.807
19:23:16:109,28.717,-0.007,-0.008,0.017,-4.180,18.716,-10.807
19:23:16:135,28.743,-0.010,-0.007,0.011,-4.180,18.716,-10.807
19:23:16:219,28.828,-0.009,-0.009,0.018,-4.180,18.716,-10.807
19:23:16:22,28.828,-0.008,-0.009,0.012,-4.180,18.716,-10.807
19:23:16:221,28.829,-0.006,-0.011,0.020,-4.180,18.716,-10.807
19:23:16:24,28.848,-0.013,-0.009,0.010,-4.180,18.716,-10.807
19:23:16:295,28.903,-0.005,-0.010,0.020,-4.180,18.716,-10.807
19:23:16:296,28.904,-0.012,-0.005,0.017,-4.180,18.716,-10.807
19:23:16:318,28.927,-0.008,-0.008,0.017,-4.180,18.716,-10.807
19:23:16:373,28.982,-0.010,-0.006,0.012,-4.180,18.716,-10.807
19:23:16:374,28.983,-0.010,-0.008,0.019,-4.180,18.716,-10.807
19:23:16:397,29.006,-0.013,-0.008,0.011,-4.180,18.716,-10.807
19:23:16:453,29.061,-0.010,-0.008,0.019,-4.180,18.716,-10.807
19:23:16:454,29.062,-0.013,-0.007,0.011,-4.180,18.716,-10.807
19:23:16:476,29.084,-0.004,-0.010,0.022,-4.180,18.716,-10.807
19:23:16:502,29.111,-0.010,-0.006,0.014,-4.180,18.716,-10.807
19:23:16:528,29.137,-0.012,-0.009,0.013,-4.180,18.716,-10.807
19:23:16:555,29.163,-0.010,-0.009,0.016,-4.180,18.716,-10.807
19:23:16:583,29.191,-0.016,-0.006,0.018,-4.180,18.716,-10.807
19:23:16:666,29.274,-0.012,-0.007,0.015,-4.180,18.716,-10.807
19:23:16:666,29.274,-0.010,-0.006,0.017,-4.180,18.716,-10.807
19:23:16:667,29.275,-0.013,-0.005,0.012,-4.175,18.715,-10.806
19:23:16:686,29.294,-0.011,-0.004,0.019,-4.150,18.709,-10.820
19:23:16:741,29.350,-0.013,-0.008,0.020,-4.131,18.688,-10.828
19:23:16:742,29.350,-0.012,-0.008,0.014,-4.118,18.666,-10.825
19:23:16:765,29.373,-0.008,-0.007,0.014,-4.120,18.642,-10.830
19:23:16:821,29.429,-0.013,-0.008,0.012,-4.110,18.626,-10.843
19:23:16:821,29.429,-0.010,-0.010,0.015,-4.111,18.617,-10.843
19:23:16:843,29.452,-0.013,-0.006,0.011,-4.111,18.617,-10.843
19:23:16:899,29.507,-0.011,-0.007,0.020,-4.111,18.617,-10.843
19:23:16:9,29.508,-0.012,-0.004,0.010,-4.111,18.617,-10.843
19:23:16:922,29.530,-0.010,-0.009,0.024,-4.111,18.617,-10.843
19:23:16:948,29.557,-0.016,-0.007,0.016,-4.111,18.617,-10.843
19:23:16:975,29.583,-0.015,-0.007,0.019,-4.111,18.617,-10.843
19:23:17:001,29.610,-0.013,-0.003,0.011,-4.111,18.617,-10.843
19:23:17:027,29.636,-0.011,-0.008,0.022,-4.111,18.617,-10.843
19:23:17:055,29.663,-0.015,-0.005,0.020,-4.111,18.617,-10.843
19:23:17:079,29.688,-0.015,-0.006,0.018,-4.111,18.617,-10.843
19:23:17:106,29.714,-0.013,-0.007,0.018,-4.112,18.607,-10.843
19:23:17:134,29.742,-0.013,-0.010,0.020,-4.092,18.605,-10.841
19:23:17:19,29.799,-0.015,-0.006,0.016,-4.077,18.598,-10.845
19:23:17:191,29.799,-0.012,-0.010,0.025,-4.067,18.597,-10.844
19:23:17:192,29.800,-0.015,-0.006,0.016,-4.067,18.598,-10.854
19:23:17:269,29.878,-0.012,-0.010,0.023,-4.071,18.599,-10.874
19:23:17:27,29.878,-0.014,-0.005,0.015,-4.027,18.584,-10.861
19:23:17:271,29.879,-0.011,-0.007,0.021,-3.984,18.560,-10.866
19:23:17:348,29.956,-0.014,-0.005,0.015,-3.960,18.543,-10.870
19:23:17:349,29.957,-0.016,-0.008,0.016,-3.917,18.510,-10.875
19:23:17:349,29.958,-0.008,-0.008,0.016,-3.894,18.487,-10.873
19:23:17:369,29.977,-0.009,-0.007,0.016,-3.856,18.454,-10.889
19:23:17:424,30.032,-0.014,-0.007,0.020,-3.836,18.452,-10.888
19:23:17:425,30.033,-0.014,-0.005,0.022,-3.786,18.443,-10.889
19:23:17:477,30.085,-0.011,-0.007,0.019,-3.746,18.425,-10.901
19:23:17:477,30.086,-0.011,-0.006,0.013,-3.717,18.412,-10.908
19:23:17:555,30.163,-0.019,-0.008,0.010,-3.656,18.402,-10.929
19:23:17:556,30.164,-0.010,-0.005,0.013,-3.615,18.394,-10.951
19:23:17:579,30.188,-0.012,-0.010,0.011,-3.572,18.391,-10.997
19:23:17:634,30.243,-0.016,-0.009,0.019,-3.541,18.384,-11.020
19:23:17:634,30.243,-0.018,-0.007,0.011,-3.490,18.375,-11.051
19:23:17:716,30.325,-0.010,-0.007,0.014,-3.464,18.369,-11.074
19:23:17:716,30.325,-0.011,-0.005,0.003,-3.433,18.366,-11.092
19:23:17:717,30.326,-0.012,-0.010,0.017,-3.397,18.358,-11.104
19:23:17:736,30.344,-0.016,-0.006,0.009,-3.373,18.356,-11.103
19:23:17:791,30.400,-0.009,-0.010,0.014,-3.342,18.348,-11.115
19:23:17:792,30.400,-0.010,-0.008,0.012,-3.322,18.347,-11.124
19:23:17:873,30.481,-0.012,-0.008,0.016,-3.307,18.345,-11.113
19:23:17:874,30.482,-0.011,-0.005,0.011,-3.297,18.348,-11.097
19:23:17:874,30.483,-0.009,-0.008,0.013,-3.288,18.347,-11.087
19:23:17:894,30.502,-0.014,-0.007,0.009,-3.284,18.341,-11.071
19:23:17:919,30.528,-0.013,-0.007,0.015,-3.280,18.341,-11.061
19:23:17:946,30.555,-0.010,-0.006,0.005,-3.270,18.344,-11.045
19:23:17:972,30.581,-0.009,-0.007,0.011,-3.251,18.337,-11.039
19:23:17:998,30.607,-0.013,-0.010,0.012,-3.221,18.324,-11.037
19:23:18:025,30.633,-0.012,-0.006,0.016,-3.189,18.295,-11.029
19:23:18:051,30.659,-0.011,-0.008,0.011,-3.170,18.289,-11.022
19:23:18:079,30.687,-0.006,-0.009,0.008,-3.142,18.261,-11.015
19:23:18:103,30.712,-0.006,-0.006,0.011,-3.128,18.249,-11.013
19:23:18:16,30.768,-0.006,-0.009,0.014,-3.122,18.219,-11.002
19:23:18:16,30.769,-0.014,-0.004,0.011,-3.118,18.208,-10.991
19:23:18:182,30.791,-0.006,-0.008,0.018,-3.092,18.170,-10.974
19:23:18:238,30.846,-0.014,-0.012,0.020,-3.093,18.110,-10.972
19:23:18:238,30.847,-0.007,-0.009,0.011,-3.097,18.076,-10.966
19:23:18:263,30.871,-0.010,-0.004,0.012,-3.105,18.032,-10.990
19:23:18:346,30.955,-0.011,-0.009,0.003,-3.110,18.014,-11.020
19:23:18:346,30.955,-0.005,-0.006,0.012,-3.111,17.995,-11.049
19:23:18:347,30.956,-0.014,-0.006,0.008,-3.116,17.972,-11.084
19:23:18:395,31.004,-0.015,-0.011,0.013,-3.118,17.943,-11.103
19:23:18:396,31.004,-0.010,-0.006,0.002,-3.130,17.900,-11.147
19:23:18:419,31.027,-0.010,-0.013,0.014,-3.138,17.863,-11.186
19:23:18:445,31.053,-0.008,-0.008,0.001,-3.152,17.801,-11.229
19:23:18:471,31.080,-0.010,-0.008,0.012,-3.166,17.739,-11.283
19:23:18:497,31.105,-0.010,-0.004,0.002,-3.173,17.696,-11.327
19:23:18:524,31.133,-0.005,-0.016,0.013,-3.187,17.625,-11.400
19:23:18:55,31.158,-0.013,-0.001,0.010,-3.199,17.592,-11.434
19:23:18:605,31.214,-0.013,-0.010,0.015,-3.208,17.535,-11.473
19:23:18:606,31.214,-0.017,-0.006,0.009,-3.222,17.483,-11.497
19:23:18:63,31.238,-0.016,-0.006,0.019,-3.236,17.390,-11.519
19:23:18:684,31.292,0.000,-0.017,0.002,-3.245,17.287,-11.551
19:23:18:685,31.293,-0.009,-0.007,0.012,-3.269,17.241,-11.571
19:23:18:707,31.316,0.003,-0.006,-0.004,-3.307,17.201,-11.616
19:23:18:763,31.372,-0.014,-0.007,0.007,-3.317,17.202,-11.617
19:23:18:763,31.372,-0.029,-0.005,0.016,-3.314,17.191,-11.587
19:23:18:786,31.394,-0.017,-0.008,0.015,-3.315,17.155,-11.541
19:23:18:841,31.450,-0.014,-0.009,0.011,-3.311,17.098,-11.513
19:23:18:842,31.451,-0.004,-0.010,0.004,-3.315,17.069,-11.503
19:23:18:865,31.474,-0.010,-0.007,0.010,-3.310,17.068,-11.502
19:23:18:891,31.499,-0.012,-0.008,0.012,-3.323,17.108,-11.465
19:23:18:917,31.526,-0.009,-0.008,0.006,-3.336,17.138,-11.436
19:23:18:944,31.552,-0.013,-0.006,0.010,-3.353,17.188,-11.380
19:23:18:971,31.579,-0.009,-0.004,0.006,-3.367,17.232,-11.317
19:23:19:054,31.662,-0.009,-0.009,0.013,-3.372,17.246,-11.273
19:23:19:055,31.663,-0.011,-0.010,0.008,-3.392,17.276,-11.206
19:23:19:056,31.664,-0.013,-0.014,0.003,-3.408,17.281,-11.172
19:23:19:075,31.683,-0.011,-0.006,0.007,-3.428,17.302,-11.134
19:23:19:13,31.738,-0.007,0.003,-0.010,-3.446,17.337,-11.102
19:23:19:131,31.739,-0.014,-0.021,0.013,-3.447,17.323,-11.116
19:23:19:153,31.762,-0.016,-0.007,0.002,-3.444,17.312,-11.095
19:23:19:212,31.820,-0.016,-0.012,0.009,-3.434,17.311,-11.085
19:23:19:212,31.821,-0.013,-0.005,0.000,-3.435,17.305,-11.070
19:23:19:213,31.822,-0.011,-0.003,0.014,-3.431,17.309,-11.055
19:23:19:287,31.896,-0.014,-0.012,0.004,-3.432,17.294,-11.049
19:23:19:288,31.897,-0.008,-0.014,0.010,-3.424,17.269,-11.053
19:23:19:314,31.922,-0.016,-0.012,0.009,-3.424,17.269,-11.063
19:23:19:315,31.923,-0.015,-0.008,0.013,-3.414,17.268,-11.052
19:23:19:363,31.972,-0.012,-0.008,0.005,-3.415,17.268,-11.043
19:23:19:393,32.002,-0.005,-0.006,0.010,-3.414,17.268,-11.052
19:23:19:394,32.002,-0.011,-0.002,0.005,-3.414,17.268,-11.062
19:23:19:445,32.053,-0.013,-0.007,0.013,-3.404,17.267,-11.062
19:23:19:446,32.054,-0.010,-0.006,0.003,-3.404,17.267,-11.072
19:23:19:47,32.078,-0.007,-0.013,0.010,-3.394,17.252,-11.085
19:23:19:524,32.132,-0.009,0.001,0.005,-3.383,17.256,-11.100
19:23:19:524,32.133,-0.011,-0.011,0.010,-3.355,17.220,-11.122
19:23:19:547,32.156,-0.016,-0.003,0.004,-3.340,17.219,-11.131
19:23:19:574,32.182,-0.012,-0.010,0.005,-3.304,17.211,-11.153
19:23:19:599,32.208,-0.013,-0.007,0.006,-3.279,17.204,-11.167
19:23:19:655,32.263,-0.007,-0.008,0.003,-3.248,17.196,-11.190
19:23:19:656,32.264,-0.007,-0.008,0.008,-3.228,17.190,-11.204
19:23:19:679,32.287,-0.016,-0.005,0.016,-3.197,17.192,-11.207
19:23:19:736,32.345,-0.015,-0.010,0.007,-3.163,17.184,-11.209
19:23:19:736,32.345,-0.012,-0.006,0.010,-3.143,17.181,-11.198
19:23:19:757,32.365,-0.014,-0.006,0.007,-3.114,17.173,-11.192
19:23:19:813,32.421,-0.015,-0.008,0.004,-3.094,17.171,-11.181
19:23:19:813,32.422,-0.013,-0.005,0.008,-3.084,17.170,-11.180
19:23:19:836,32.444,-0.010,-0.009,0.003,-3.064,17.163,-11.184
19:23:19:863,32.472,-0.008,-0.009,0.007,-3.064,17.163,-11.184
19:23:19:889,32.497,-0.013,-0.007,0.006,-3.064,17.163,-11.184
19:23:19:915,32.523,-0.013,-0.009,0.011,-3.064,17.163,-11.184
19:23:19:941,32.550,-0.013,-0.004,0.001,-3.064,17.163,-11.184
19:23:20:025,32.634,-0.011,-0.010,0.008,-3.064,17.163,-11.184
19:23:20:026,32.635,-0.012,-0.002,0.002,-3.064,17.163,-11.184
19:23:20:027,32.635,-0.012,-0.008,0.011,-3.064,17.163,-11.184
19:23:20:046,32.654,-0.016,-0.010,0.004,-3.064,17.163,-11.184
19:23:20:102,32.711,-0.018,-0.006,0.011,-3.064,17.163,-11.184
19:23:20:102,32.711,-0.014,-0.009,0.005,-3.064,17.163,-11.184
19:23:20:125,32.733,-0.014,-0.008,0.011,-3.064,17.163,-11.184
19:23:20:18,32.788,-0.018,-0.010,0.009,-3.064,17.163,-11.184
19:23:20:181,32.789,-0.014,-0.008,0.011,-3.064,17.163,-11.184
19:23:20:204,32.812,-0.015,-0.004,0.002,-3.064,17.163,-11.184
19:23:20:259,32.867,-0.013,-0.008,0.007,-3.064,17.163,-11.184
19:23:20:26,32.868,-0.014,-0.004,0.005,-3.064,17.163,-11.184
19:23:20:282,32.891,-0.016,-0.009,0.010,-3.064,17.163,-11.184
19:23:20:338,32.946,-0.016,-0.007,0.006,-3.064,17.163,-11.184
19:23:20:339,32.947,-0.017,-0.007,0.005,-3.064,17.163,-11.184
19:23:20:361,32.970,-0.015,-0.008,0.007,-3.064,17.163,-11.184
19:23:20:387,32.996,-0.018,-0.007,0.008,-3.064,17.163,-11.184
19:23:20:413,33.022,-0.017,-0.008,0.010,-3.064,17.163,-11.184
19:23:20:469,33.077,-0.016,-0.008,0.011,-3.064,17.163,-11.184
19:23:20:469,33.078,-0.018,-0.006,0.009,-3.065,17.163,-11.174
19:23:20:493,33.102,-0.014,-0.008,0.007,-3.060,17.167,-11.159
19:23:20:549,33.158,-0.014,-0.007,0.004,-3.060,17.167,-11.149
19:23:20:549,33.158,-0.018,-0.006,0.002,-3.061,17.167,-11.139
19:23:20:571,33.180,-0.018,-0.009,0.007,-3.057,17.161,-11.124
19:23:20:626,33.235,-0.017,-0.006,0.002,-3.057,17.165,-11.109
19:23:20:627,33.235,-0.015,-0.008,0.007,-3.057,17.165,-11.099
19:23:20:651,33.259,-0.020,-0.006,0.004,-3.053,17.164,-11.079
19:23:20:705,33.313,-0.014,-0.008,0.006,-3.054,17.164,-11.069
19:23:20:706,33.314,-0.015,-0.008,0.001,-3.055,17.159,-11.054
19:23:20:728,33.337,-0.014,-0.006,0.009,-3.055,17.158,-11.044
19:23:20:783,33.392,-0.016,-0.008,0.002,-3.050,17.157,-11.033
19:23:20:784,33.393,-0.015,-0.009,0.006,-3.051,17.162,-11.019
19:23:20:809,33.418,-0.013,-0.006,0.001,-3.051,17.162,-11.009
19:23:20:834,33.442,-0.018,-0.010,0.009,-3.052,17.156,-10.994
19:23:20:861,33.469,-0.013,-0.006,0.004,-3.048,17.156,-10.983
19:23:20:887,33.495,-0.014,-0.008,0.007,-3.048,17.151,-10.978
19:23:20:912,33.521,-0.017,-0.008,0.005,-3.049,17.155,-10.964
19:23:20:938,33.547,-0.016,-0.008,0.008,-3.049,17.155,-10.954
19:23:20:965,33.573,-0.017,-0.007,0.004,-3.045,17.154,-10.934
19:23:20:991,33.600,-0.017,-0.008,0.008,-3.046,17.149,-10.919
19:23:21:017,33.625,-0.016,-0.009,0.004,-3.046,17.148,-10.909
19:23:21:074,33.682,-0.015,-0.007,0.009,-3.047,17.153,-10.894
19:23:21:074,33.682,-0.015,-0.007,0.006,-3.047,17.153,-10.884
19:23:21:096,33.704,-0.017,-0.009,-0.002,-3.048,17.147,-10.869
19:23:21:152,33.760,-0.014,-0.008,0.004,-3.048,17.157,-10.860
19:23:21:152,33.761,-0.017,-0.006,0.004,-3.048,17.157,-10.850
19:23:21:175,33.783,-0.015,-0.011,0.009,-3.054,17.152,-10.835
19:23:21:23,33.838,-0.017,-0.008,-0.001,-3.055,17.152,-10.825
19:23:21:231,33.839,-0.015,-0.008,0.004,-3.055,17.151,-10.815
19:23:21:254,33.863,-0.017,-0.008,0.002,-3.050,17.151,-10.805
19:23:21:31,33.919,-0.014,-0.008,0.007,-3.051,17.150,-10.795
19:23:21:31,33.919,-0.015,-0.007,-0.004,-3.057,17.150,-10.775
19:23:21:332,33.940,-0.013,-0.008,0.004,-3.057,17.150,-10.775
19:23:21:359,33.967,-0.016,-0.009,-0.003,-3.058,17.150,-10.755
19:23:21:385,33.993,-0.013,-0.008,0.005,-3.058,17.150,-10.755
19:23:21:44,34.049,-0.016,-0.005,0.000,-3.059,17.144,-10.740
19:23:21:441,34.049,-0.011,-0.008,0.006,-3.059,17.144,-10.731
19:23:21:464,34.073,-0.018,-0.007,-0.002,-3.060,17.144,-10.721
19:23:21:551,34.159,-0.011,-0.008,0.005,-3.065,17.144,-10.711
19:23:21:552,34.160,-0.015,-0.005,0.000,-3.065,17.144,-10.701
19:23:21:552,34.161,-0.017,-0.008,0.005,-3.066,17.144,-10.691
19:23:21:553,34.162,-0.014,-0.009,0.002,-3.071,17.144,-10.681
19:23:21:684,34.292,-0.015,-0.008,0.004,-3.072,17.143,-10.671
19:23:21:684,34.293,-0.014,-0.009,0.001,-3.072,17.143,-10.661
19:23:21:685,34.294,-0.011,-0.010,0.008,-3.073,17.143,-10.651
19:23:21:686,34.294,-0.017,-0.007,0.001,-3.073,17.143,-10.642
19:23:21:7,34.308,-0.013,-0.009,0.001,-3.073,17.143,-10.632
19:23:21:755,34.364,-0.013,-0.008,0.000,-3.084,17.143,-10.622
19:23:21:756,34.364,-0.012,-0.007,0.002,-3.084,17.143,-10.613
19:23:21:782,34.390,-0.019,-0.009,-0.001,-3.085,17.138,-10.608
19:23:21:782,34.390,-0.012,-0.007,-0.003,-3.086,17.138,-10.598
19:23:21:805,34.413,-0.017,-0.009,0.005,-3.091,17.138,-10.588
19:23:21:833,34.441,-0.014,-0.010,0.004,-3.091,17.138,-10.578
19:23:21:884,34.492,-0.016,-0.009,0.004,-3.091,17.142,-10.573
19:23:21:914,34.522,-0.013,-0.008,0.004,-3.092,17.133,-10.573
19:23:21:914,34.522,-0.015,-0.010,0.001,-3.092,17.133,-10.573
19:23:21:965,34.573,-0.012,-0.008,-0.001,-3.092,17.133,-10.573
19:23:21:966,34.574,-0.010,-0.008,0.003,-3.092,17.133,-10.573
19:23:22:047,34.656,-0.017,-0.004,-0.004,-3.092,17.133,-10.573
19:23:22:047,34.656,-0.015,-0.007,0.004,-3.092,17.133,-10.573
19:23:22:048,34.657,-0.016,-0.010,-0.003,-3.092,17.133,-10.573
19:23:22:068,34.676,-0.014,-0.004,0.001,-3.092,17.133,-10.573
19:23:22:124,34.733,-0.015,-0.007,-0.003,-3.092,17.133,-10.573
19:23:22:124,34.733,-0.013,-0.009,0.004,-3.092,17.133,-10.573
19:23:22:146,34.754,-0.016,-0.010,-0.006,-3.091,17.142,-10.573
19:23:22:202,34.810,-0.012,-0.009,0.004,-3.091,17.142,-10.573
19:23:22:202,34.811,-0.015,-0.009,-0.005,-3.091,17.142,-10.573
19:23:22:226,34.834,-0.012,-0.010,0.006,-3.091,17.142,-10.573
19:23:22:28,34.888,-0.019,-0.006,-0.001,-3.091,17.142,-10.573
19:23:22:281,34.889,-0.014,-0.009,0.006,-3.091,17.142,-10.573
19:23:22:303,34.912,-0.014,-0.007,-0.002,-3.091,17.142,-10.573
19:23:22:33,34.938,-0.014,-0.007,0.003,-3.091,17.142,-10.573
19:23:22:356,34.964,-0.017,-0.005,0.000,-3.091,17.142,-10.573
19:23:22:384,34.992,-0.016,-0.008,0.004,-3.091,17.142,-10.573
19:23:22:409,35.017,-0.014,-0.006,-0.003,-3.091,17.142,-10.573
19:23:22:436,35.044,-0.014,-0.007,0.001,-3.091,17.142,-10.573
19:23:22:488,35.097,-0.015,-0.009,0.000,-3.091,17.142,-10.573
19:23:22:517,35.125,-0.018,-0.008,0.001,-3.091,17.142,-10.573
19:23:22:517,35.125,-0.019,-0.008,-0.001,-3.091,17.142,-10.573
19:23:22:569,35.177,-0.015,-0.008,0.004,-3.091,17.142,-10.573
19:23:22:57,35.178,-0.018,-0.007,0.003,-3.091,17.142,-10.573
19:23:22:593,35.201,-0.012,-0.007,0.002,-3.091,17.142,-10.573
19:23:22:648,35.256,-0.015,-0.008,0.004,-3.091,17.142,-10.573
19:23:22:649,35.257,-0.016,-0.010,0.003,-3.091,17.142,-10.573
19:23:22:73,35.339,-0.016,-0.006,0.003,-3.091,17.142,-10.573
19:23:22:73,35.339,-0.018,-0.010,-0.002,-3.091,17.142,-10.573
19:23:22:731,35.339,-0.011,-0.007,0.003,-3.091,17.142,-10.573
19:23:22:753,35.361,-0.018,-0.006,-0.005,-3.091,17.142,-10.573
19:23:22:776,35.384,-0.021,-0.007,0.004,-3.092,17.137,-10.558
19:23:22:803,35.412,-0.018,-0.008,-0.008,-3.096,17.103,-10.552
19:23:22:829,35.437,-0.012,-0.009,0.003,-3.102,17.083,-10.552
19:23:22:855,35.463,-0.014,-0.007,-0.002,-3.103,17.083,-10.542
19:23:22:939,35.548,-0.012,-0.008,0.004,-3.103,17.083,-10.532
19:23:22:94,35.549,-0.013,-0.009,-0.002,-3.103,17.087,-10.527
19:23:22:941,35.549,-0.013,-0.008,0.002,-3.109,17.083,-10.522
19:23:22:96,35.568,-0.014,-0.007,-0.005,-3.109,17.082,-10.512
19:23:23:015,35.623,-0.014,-0.007,0.004,-3.107,17.112,-10.503
19:23:23:016,35.624,-0.017,-0.006,0.000,-3.105,17.131,-10.494
19:23:23:039,35.647,-0.014,-0.010,0.003,-3.111,17.137,-10.480
19:23:23:095,35.704,-0.017,-0.007,0.000,-3.116,17.141,-10.465
19:23:23:096,35.704,-0.014,-0.007,0.004,-3.117,17.136,-10.460
19:23:23:175,35.784,-0.013,-0.010,0.001,-3.117,17.136,-10.450
19:23:23:176,35.785,-0.013,-0.009,0.004,-3.117,17.136,-10.440
19:23:23:177,35.786,-0.012,-0.007,0.002,-3.118,17.136,-10.430
19:23:23:196,35.805,-0.015,-0.009,0.003,-3.123,17.136,-10.420
19:23:23:251,35.860,-0.014,-0.010,0.003,-3.124,17.135,-10.410
19:23:23:252,35.861,-0.015,-0.004,0.003,-3.124,17.131,-10.415
19:23:23:275,35.883,-0.015,-0.009,-0.005,-3.133,17.136,-10.421
19:23:23:301,35.910,-0.013,-0.006,0.008,-3.136,17.107,-10.420
19:23:23:327,35.935,-0.011,-0.007,0.002,-3.143,17.083,-10.435
19:23:23:383,35.991,-0.008,-0.012,0.006,-3.140,17.049,-10.458
19:23:23:384,35.992,-0.006,-0.009,0.001,-3.141,17.034,-10.463
19:23:23:406,36.015,-0.008,-0.007,0.002,-3.151,17.035,-10.463
19:23:23:462,36.070,-0.007,-0.009,0.002,-3.178,17.077,-10.456
19:23:23:462,36.070,-0.010,-0.010,-0.009,-3.200,17.119,-10.449
19:23:23:485,36.093,-0.014,-0.007,0.005,-3.234,17.205,-10.409
19:23:23:54,36.148,-0.020,-0.004,-0.002,-3.260,17.261,-10.377
19:23:23:541,36.149,-0.013,-0.007,0.001,-3.285,17.337,-10.336
19:23:23:564,36.172,-0.020,-0.010,-0.005,-3.293,17.376,-10.308
19:23:23:62,36.229,-0.013,-0.006,0.001,-3.292,17.391,-10.294
19:23:23:62,36.229,-0.014,-0.005,-0.001,-3.293,17.390,-10.284
19:23:23:642,36.250,-0.012,-0.009,0.003,-3.294,17.385,-10.269
19:23:23:698,36.306,-0.013,-0.005,-0.010,-3.294,17.395,-10.259
19:23:23:699,36.307,-0.018,-0.010,0.009,-3.302,17.396,-10.289
19:23:23:722,36.331,-0.014,-0.008,0.004,-3.302,17.392,-10.294
19:23:23:748,36.356,-0.010,-0.008,0.003,-3.301,17.397,-10.309
19:23:23:804,36.413,-0.014,-0.006,0.000,-3.301,17.397,-10.309
19:23:23:804,36.413,-0.010,-0.010,0.003,-3.307,17.392,-10.305
19:23:23:826,36.434,-0.013,-0.006,0.001,-3.307,17.392,-10.305
19:23:23:852,36.460,-0.005,-0.008,0.001,-3.309,17.378,-10.299
19:23:23:878,36.487,-0.011,-0.007,0.003,-3.310,17.368,-10.299
19:23:23:906,36.515,-0.013,-0.005,0.004,-3.309,17.378,-10.299
19:23:23:934,36.542,-0.011,-0.009,0.002,-3.301,17.406,-10.299
19:23:23:935,36.543,-0.015,-0.009,-0.001,-3.294,17.431,-10.295
19:23:23:987,36.595,-0.013,-0.005,-0.005,-3.293,17.445,-10.281
19:23:23:988,36.596,-0.013,-0.005,0.003,-3.293,17.445,-10.281
19:23:24:068,36.677,-0.011,-0.007,0.005,-3.293,17.445,-10.281
19:23:24:069,36.677,-0.011,-0.009,0.002,-3.292,17.455,-10.281
19:23:24:07,36.678,-0.013,-0.006,0.004,-3.292,17.455,-10.281
19:23:24:147,36.755,-0.010,-0.009,0.006,-3.292,17.455,-10.281
19:23:24:147,36.756,-0.013,-0.008,0.004,-3.292,17.455,-10.291
19:23:24:148,36.756,-0.017,-0.007,0.005,-3.292,17.460,-10.286
19:23:24:169,36.777,-0.012,-0.005,0.003,-3.292,17.460,-10.286
19:23:24:223,36.831,-0.013,-0.008,-0.007,-3.291,17.461,-10.306
19:23:24:223,36.832,-0.009,-0.008,0.007,-3.291,17.461,-10.306
19:23:24:246,36.855,-0.013,-0.008,0.001,-3.286,17.460,-10.306
19:23:24:272,36.881,-0.011,-0.007,0.003,-3.286,17.460,-10.306
19:23:24:298,36.907,-0.014,-0.008,-0.003,-3.286,17.460,-10.306
19:23:24:354,36.962,-0.013,-0.006,0.004,-3.286,17.460,-10.306
19:23:24:355,36.963,-0.016,-0.008,-0.002,-3.286,17.460,-10.306
19:23:24:378,36.987,-0.012,-0.008,0.005,-3.286,17.460,-10.306
19:23:24:436,37.044,-0.018,-0.007,-0.003,-3.287,17.455,-10.301
19:23:24:436,37.044,-0.012,-0.010,0.005,-3.293,17.427,-10.330
19:23:24:456,37.064,-0.014,-0.007,0.004,-3.299,17.403,-10.354
19:23:24:512,37.120,-0.014,-0.008,0.007,-3.300,17.375,-10.393
19:23:24:513,37.121,-0.013,-0.010,0.001,-3.306,17.352,-10.428
19:23:24:535,37.143,-0.007,-0.008,0.006,-3.318,17.314,-10.467
19:23:24:59,37.198,-0.007,-0.007,-0.001,-3.318,17.295,-10.496
19:23:24:591,37.199,-0.007,-0.008,0.003,-3.318,17.295,-10.506
19:23:24:614,37.222,-0.012,-0.005,0.003,-3.318,17.295,-10.506
19:23:24:667,37.275,-0.011,-0.009,0.007,-3.318,17.295,-10.506
19:23:24:695,37.304,-0.016,-0.007,0.007,-3.317,17.310,-10.481
19:23:24:696,37.304,-0.009,-0.006,0.004,-3.306,17.337,-10.452
19:23:24:72,37.328,-0.019,-0.007,0.006,-3.303,17.372,-10.438
19:23:24:746,37.354,-0.017,-0.006,0.004,-3.291,17.410,-10.419
19:23:24:771,37.379,-0.015,-0.006,0.006,-3.289,17.434,-10.404
19:23:24:797,37.406,-0.013,-0.008,0.004,-3.284,17.447,-10.379
19:23:24:824,37.432,-0.009,-0.008,0.004,-3.263,17.455,-10.369
19:23:24:85,37.458,-0.011,-0.011,0.007,-3.236,17.478,-10.373
19:23:24:876,37.484,-0.016,-0.010,0.003,-3.232,17.517,-10.374
19:23:24:961,37.569,-0.018,-0.006,0.008,-3.224,17.547,-10.375
19:23:24:961,37.569,-0.009,-0.006,0.007,-3.221,17.581,-10.381
19:23:24:962,37.570,-0.015,-0.004,-0.004,-3.213,17.606,-10.396
19:23:24:981,37.590,-0.015,-0.009,0.007,-3.191,17.610,-10.430
19:23:25:038,37.646,-0.005,0.018,-0.015,-3.171,17.575,-10.492
19:23:25:038,37.647,-0.017,-0.028,0.012,-3.141,17.476,-10.586
19:23:25:06,37.668,-0.012,-0.004,-0.001,-3.108,17.342,-10.694
19:23:25:115,37.724,-0.009,0.013,0.003,-3.094,17.293,-10.772
19:23:25:116,37.725,-0.018,-0.012,0.001,-3.035,17.157,-10.908
19:23:25:139,37.747,-0.017,-0.003,0.005,-3.013,17.107,-10.966
19:23:25:194,37.803,-0.015,-0.012,-0.001,-2.991,17.101,-10.999
19:23:25:195,37.803,-0.005,-0.011,0.006,-2.985,17.106,-11.034
19:23:25:217,37.826,-0.013,-0.007,0.006,-2.976,17.136,-11.044
19:23:25:244,37.853,-0.015,-0.002,0.009,-2.961,17.184,-11.045
19:23:25:27,37.878,-0.010,-0.006,0.004,-2.951,17.179,-11.059
19:23:25:325,37.933,-0.009,-0.004,0.003,-2.950,17.179,-11.088
19:23:25:326,37.934,-0.009,-0.011,0.002,-2.933,17.179,-11.118
19:23:25:35,37.958,-0.011,-0.009,0.007,-2.933,17.179,-11.118
19:23:25:404,38.012,-0.013,-0.006,0.001,-2.922,17.192,-11.112
19:23:25:405,38.013,-0.006,-0.012,0.007,-2.921,17.207,-11.108
19:23:25:427,38.036,-0.012,-0.002,0.005,-2.912,17.241,-11.114
19:23:25:483,38.091,-0.004,-0.008,0.008,-2.911,17.247,-11.138
19:23:25:483,38.092,-0.008,-0.009,0.002,-2.908,17.272,-11.154
19:23:25:506,38.115,-0.012,-0.008,0.001,-2.908,17.321,-11.155
19:23:25:561,38.170,-0.016,0.002,0.005,-2.913,17.372,-11.157
19:23:25:562,38.170,-0.008,-0.006,0.001,-2.902,17.421,-11.178
19:23:25:585,38.193,-0.021,-0.007,0.011,-2.891,17.475,-11.184
19:23:25:64,38.248,-0.010,-0.009,0.009,-2.885,17.494,-11.175
19:23:25:641,38.249,-0.015,-0.004,0.007,-2.878,17.523,-11.155
19:23:25:664,38.273,-0.011,-0.009,-0.002,-2.879,17.518,-11.150
19:23:25:69,38.298,-0.011,-0.011,0.003,-2.879,17.517,-11.140
19:23:25:717,38.325,-0.013,-0.004,0.000,-2.875,17.516,-11.119
19:23:25:771,38.379,-0.007,-0.010,0.007,-2.875,17.516,-11.119
19:23:25:772,38.380,-0.007,-0.008,0.000,-2.874,17.526,-11.110
19:23:25:795,38.404,-0.009,-0.009,0.006,-2.873,17.536,-11.110
19:23:25:821,38.430,-0.015,-0.008,0.001,-2.868,17.545,-11.100
19:23:25:847,38.455,-0.012,-0.008,0.005,-2.864,17.539,-11.095
19:23:25:932,38.540,-0.014,-0.007,-0.002,-2.864,17.539,-11.085
19:23:25:932,38.541,-0.014,-0.008,0.005,-2.865,17.539,-11.075
19:23:25:933,38.542,-0.015,-0.007,0.001,-2.865,17.539,-11.065
19:23:25:953,38.561,-0.014,-0.005,0.006,-2.866,17.539,-11.055
19:23:26:037,38.645,-0.007,-0.010,0.002,-2.866,17.538,-11.045
19:23:26:037,38.646,-0.010,-0.009,0.008,-2.862,17.538,-11.035
19:23:26:038,38.647,-0.015,-0.007,0.006,-2.867,17.547,-11.005
19:23:26:087,38.695,-0.003,-0.003,0.001,-2.867,17.547,-10.996
19:23:26:087,38.695,-0.007,-0.003,0.000,-2.868,17.547,-10.986
19:23:26:111,38.719,-0.010,-0.007,0.003,-2.868,17.547,-10.986
19:23:26:166,38.774,-0.014,-0.009,0.000,-2.868,17.546,-10.976
19:23:26:166,38.774,-0.012,-0.008,0.005,-2.869,17.546,-10.966
19:23:26:191,38.800,-0.016,-0.008,0.002,-2.868,17.566,-10.947
19:23:26:192,38.801,-0.012,-0.008,0.004,-2.863,17.574,-10.926
19:23:26:244,38.852,-0.014,-0.007,0.004,-2.863,17.574,-10.917
19:23:26:245,38.853,-0.010,-0.006,0.003,-2.864,17.579,-10.902
19:23:26:294,38.902,-0.010,-0.009,0.004,-2.864,17.583,-10.887
19:23:26:323,38.931,-0.015,-0.009,0.005,-2.857,17.612,-10.858
19:23:26:324,38.932,-0.016,-0.009,0.008,-2.855,17.645,-10.834
19:23:26:404,39.013,-0.013,-0.007,0.003,-2.854,17.670,-10.819
19:23:26:405,39.013,-0.010,-0.012,0.002,-2.853,17.680,-10.820
19:23:26:405,39.014,-0.015,-0.006,-0.001,-2.852,17.685,-10.825
19:23:26:452,39.060,-0.015,-0.002,0.003,-2.846,17.699,-10.820
19:23:26:48,39.088,-0.017,-0.007,-0.002,-2.846,17.699,-10.820
19:23:26:481,39.089,-0.014,-0.008,0.003,-2.846,17.699,-10.820
19:23:26:533,39.141,-0.016,-0.008,-0.001,-2.846,17.699,-10.820
19:23:26:533,39.141,-0.014,-0.010,0.005,-2.846,17.699,-10.820
19:23:26:556,39.165,-0.017,-0.007,0.003,-2.846,17.699,-10.820
19:23:26:612,39.221,-0.013,-0.007,0.005,-2.846,17.699,-10.820
19:23:26:612,39.221,-0.016,-0.009,-0.001,-2.846,17.699,-10.820
19:23:26:635,39.243,-0.016,-0.009,0.006,-2.846,17.699,-10.820
19:23:26:661,39.270,-0.016,-0.009,-0.002,-2.846,17.699,-10.820
19:23:26:689,39.297,-0.012,-0.004,0.009,-2.846,17.699,-10.820
19:23:26:715,39.323,-0.011,-0.008,0.003,-2.844,17.714,-10.825
19:23:26:741,39.350,-0.011,-0.009,0.006,-2.843,17.733,-10.816
19:23:26:797,39.405,-0.015,-0.005,-0.001,-2.831,17.757,-10.801
19:23:26:797,39.405,-0.013,-0.006,0.008,-2.830,17.767,-10.801
19:23:26:819,39.427,-0.014,-0.007,0.001,-2.830,17.767,-10.801
19:23:26:905,39.513,-0.017,-0.007,0.004,-2.830,17.767,-10.801
19:23:26:905,39.513,-0.018,-0.006,0.001,-2.830,17.767,-10.801
19:23:26:905,39.513,-0.015,-0.011,0.005,-2.830,17.767,-10.801
19:23:26:924,39.533,-0.017,-0.007,0.003,-2.830,17.767,-10.801
19:23:26:979,39.587,-0.014,-0.009,0.006,-2.830,17.767,-10.801
19:23:26:979,39.588,-0.017,-0.009,0.003,-2.830,17.767,-10.801
19:23:27:002,39.611,-0.018,-0.007,0.003,-2.831,17.767,-10.791
19:23:27:058,39.666,-0.017,-0.008,0.005,-2.836,17.766,-10.781
19:23:27:058,39.667,-0.018,-0.008,0.005,-2.838,17.766,-10.742
19:23:27:081,39.689,-0.016,-0.008,0.005,-2.845,17.761,-10.717
19:23:27:138,39.746,-0.018,-0.008,0.005,-2.845,17.765,-10.702
19:23:27:138,39.746,-0.019,-0.008,0.006,-2.846,17.760,-10.688
19:23:27:16,39.768,-0.020,-0.008,-0.001,-2.847,17.760,-10.678
19:23:27:186,39.795,-0.017,-0.006,0.005,-2.847,17.764,-10.663
19:23:27:213,39.821,-0.018,-0.008,-0.002,-2.853,17.759,-10.648
19:23:27:238,39.847,-0.018,-0.007,0.006,-2.854,17.759,-10.638
19:23:27:266,39.875,-0.019,-0.007,-0.002,-2.850,17.758,-10.618
19:23:27:292,39.900,-0.016,-0.009,0.005,-2.850,17.758,-10.608
19:23:27:348,39.957,-0.016,-0.007,0.002,-2.851,17.758,-10.588
19:23:27:348,39.957,-0.019,-0.006,0.010,-2.852,17.757,-10.578
19:23:27:37,39.978,-0.007,-0.010,-0.013,-2.853,17.757,-10.559
19:23:27:426,40.034,-0.017,-0.008,0.002,-2.858,17.757,-10.549
19:23:27:427,40.035,-0.020,-0.008,-0.001,-2.859,17.757,-10.539
19:23:27:449,40.057,-0.016,-0.007,0.009,-2.860,17.752,-10.524
19:23:27:504,40.112,-0.019,-0.008,-0.002,-2.860,17.756,-10.509
19:23:27:505,40.113,-0.015,-0.006,0.010,-2.866,17.751,-10.494
19:23:27:53,40.138,-0.016,-0.009,0.001,-2.867,17.756,-10.480
19:23:27:582,40.191,-0.014,-0.007,0.004,-2.867,17.756,-10.470
19:23:27:583,40.192,-0.016,-0.008,0.002,-2.868,17.750,-10.455
19:23:27:634,40.242,-0.016,-0.006,0.002,-2.874,17.750,-10.435
19:23:27:659,40.268,-0.013,-0.007,0.004,-2.875,17.750,-10.425
19:23:27:686,40.295,-0.017,-0.007,0.005,-2.875,17.750,-10.415
19:23:27:711,40.319,-0.015,-0.008,0.006,-2.876,17.745,-10.401
19:23:27:737,40.346,-0.016,-0.007,0.004,-2.877,17.744,-10.391
19:23:27:764,40.372,-0.015,-0.007,-0.001,-2.877,17.749,-10.376
19:23:27:79,40.398,-0.014,-0.008,0.002,-2.883,17.749,-10.366
19:23:27:817,40.425,-0.013,-0.007,0.003,-2.883,17.744,-10.361
19:23:27:873,40.481,-0.017,-0.007,0.004,-2.884,17.749,-10.346
19:23:27:873,40.481,-0.016,-0.008,0.005,-2.884,17.744,-10.341
19:23:27:895,40.503,-0.014,-0.011,0.004,-2.890,17.748,-10.327
19:23:27:98,40.588,-0.015,-0.005,-0.002,-2.890,17.748,-10.317
19:23:27:98,40.589,-0.016,-0.008,0.005,-2.891,17.743,-10.302
19:23:27:981,40.589,-0.016,-0.006,-0.001,-2.892,17.743,-10.292
19:23:28:029,40.638,-0.014,-0.009,0.004,-2.897,17.743,-10.282
19:23:28:03,40.638,-0.013,-0.010,-0.007,-2.898,17.743,-10.272
19:23:28:055,40.664,-0.013,-0.007,0.004,-2.898,17.737,-10.267
19:23:28:108,40.717,-0.018,-0.006,0.001,-2.899,17.737,-10.257
19:23:28:108,40.717,-0.012,-0.005,0.003,-2.900,17.737,-10.247
19:23:28:131,40.739,-0.014,-0.006,-0.001,-2.904,17.742,-10.242
19:23:28:159,40.767,-0.014,-0.009,0.006,-2.905,17.742,-10.233
19:23:28:213,40.821,-0.014,-0.007,0.000,-2.905,17.742,-10.223
19:23:28:213,40.822,-0.011,-0.007,0.004,-2.906,17.742,-10.213
19:23:28:236,40.845,-0.011,-0.009,-0.003,-2.912,17.737,-10.209
19:23:28:263,40.871,-0.012,-0.006,0.005,-2.917,17.737,-10.199
19:23:28:318,40.926,-0.011,-0.007,0.000,-2.917,17.737,-10.189
19:23:28:318,40.926,-0.011,-0.009,0.002,-2.917,17.737,-10.189
19:23:28:341,40.949,-0.010,-0.010,-0.001,-2.918,17.737,-10.179
19:23:28:396,41.005,-0.011,-0.008,0.001,-2.923,17.737,-10.169
19:23:28:397,41.005,-0.011,-0.006,0.001,-2.923,17.737,-10.169
19:23:28:422,41.030,-0.011,-0.008,0.003,-2.923,17.737,-10.169
19:23:28:475,41.083,-0.012,-0.007,-0.004,-2.923,17.737,-10.169
19:23:28:476,41.084,-0.009,-0.008,0.004,-2.923,17.737,-10.169
19:23:28:499,41.107,-0.012,-0.008,0.002,-2.923,17.737,-10.169
19:23:28:554,41.162,-0.010,-0.008,0.005,-2.923,17.737,-10.169
19:23:28:555,41.163,-0.009,-0.008,-0.001,-2.923,17.737,-10.169
19:23:28:58,41.188,-0.013,-0.008,-0.001,-2.923,17.737,-10.169
19:23:28:58,41.189,-0.010,-0.010,0.000,-2.923,17.737,-10.169
19:23:28:633,41.241,-0.014,-0.009,-0.005,-2.923,17.737,-10.169
19:23:28:634,41.242,-0.011,-0.008,0.004,-2.923,17.737,-10.169
19:23:28:685,41.294,-0.010,-0.008,-0.005,-2.923,17.737,-10.169
19:23:28:686,41.295,-0.009,-0.008,-0.001,-2.923,17.737,-10.169
19:23:28:709,41.317,-0.012,-0.007,-0.007,-2.923,17.737,-10.169
19:23:28:735,41.344,-0.011,-0.008,0.003,-2.923,17.737,-10.169
19:23:28:761,41.369,-0.013,-0.007,-0.004,-2.923,17.737,-10.169
19:23:28:788,41.396,-0.009,-0.008,0.003,-2.923,17.737,-10.169
19:23:28:842,41.451,-0.012,-0.007,-0.004,-2.923,17.737,-10.169
19:23:28:843,41.452,-0.008,-0.005,0.001,-2.923,17.737,-10.169
19:23:28:866,41.475,-0.009,-0.007,-0.004,-2.923,17.737,-10.169
19:23:28:921,41.530,-0.010,-0.010,0.000,-2.923,17.737,-10.169
19:23:28:922,41.531,-0.008,-0.006,0.000,-2.923,17.737,-10.169
19:23:28:946,41.554,-0.010,-0.009,0.003,-2.923,17.737,-10.169
19:23:29:001,41.609,-0.011,-0.010,-0.003,-2.923,17.737,-10.169
19:23:29:001,41.609,-0.010,-0.009,0.005,-2.923,17.737,-10.169
19:23:29:023,41.632,-0.009,-0.008,-0.001,-2.923,17.737,-10.169
19:23:29:079,41.687,-0.010,-0.011,0.004,-2.923,17.737,-10.169
19:23:29:08,41.688,-0.013,-0.006,0.004,-2.923,17.737,-10.169
19:23:29:103,41.711,-0.008,-0.010,0.001,-2.923,17.737,-10.169
19:23:29:13,41.738,-0.011,-0.005,0.001,-2.923,17.737,-10.169
19:23:29:155,41.764,-0.009,-0.009,0.002,-2.923,17.737,-10.169
19:23:29:181,41.789,-0.011,-0.009,-0.003,-2.923,17.737,-10.169
19:23:29:207,41.816,-0.012,-0.006,0.007,-2.923,17.737,-10.169
19:23:29:234,41.842,-0.010,-0.008,-0.004,-2.924,17.727,-10.169
19:23:29:289,41.897,-0.012,-0.008,0.011,-2.926,17.707,-10.168
19:23:29:29,41.898,-0.012,-0.007,0.006,-2.928,17.688,-10.168
19:23:29:313,41.921,0.011,-0.011,-0.016,-2.930,17.668,-10.168
19:23:29:368,41.976,-0.003,-0.009,-0.012,-2.925,17.662,-10.162
19:23:29:369,41.977,-0.009,-0.006,-0.010,-2.926,17.662,-10.142
19:23:29:391,42.000,-0.008,-0.008,0.000,-2.936,17.667,-10.138
19:23:29:447,42.055,-0.016,-0.007,-0.002,-2.936,17.667,-10.138
19:23:29:447,42.055,-0.014,-0.005,0.002,-2.936,17.667,-10.138
19:23:29:47,42.078,-0.011,-0.009,-0.007,-2.936,17.667,-10.138
19:23:29:525,42.134,-0.008,-0.010,-0.003,-2.936,17.668,-10.148
19:23:29:526,42.134,-0.018,-0.005,-0.002,-2.947,17.690,-10.179
19:23:29:549,42.157,-0.020,0.000,0.004,-2.946,17.690,-10.199
19:23:29:574,42.183,-0.017,-0.007,-0.002,-2.922,17.659,-10.246
19:23:29:601,42.210,-0.009,-0.008,0.003,-2.914,17.610,-10.284
19:23:29:628,42.236,-0.011,-0.006,-0.005,-2.890,17.510,-10.339
19:23:29:653,42.262,-0.002,-0.003,0.003,-2.872,17.405,-10.400
19:23:29:68,42.288,-0.018,-0.006,0.003,-2.850,17.350,-10.442
19:23:29:706,42.314,-0.011,-0.008,0.006,-2.826,17.260,-10.488
19:23:29:732,42.341,-0.008,-0.010,-0.004,-2.815,17.200,-10.515
19:23:29:759,42.367,-0.012,-0.006,0.006,-2.806,17.116,-10.557
19:23:29:815,42.423,-0.014,-0.007,0.005,-2.797,17.036,-10.584
19:23:29:815,42.423,-0.015,-0.004,0.004,-2.790,16.982,-10.617
19:23:29:925,42.533,-0.009,-0.012,0.001,-2.769,16.871,-10.662
19:23:29:926,42.534,-0.016,-0.003,0.005,-2.759,16.806,-10.684
19:23:29:926,42.534,-0.014,-0.006,-0.001,-2.738,16.681,-10.725
19:23:29:927,42.535,-0.004,-0.009,0.003,-2.718,16.561,-10.761
19:23:29:971,42.580,-0.004,-0.012,-0.003,-2.713,16.501,-10.779
19:23:29:972,42.581,-0.002,-0.009,0.000,-2.713,16.442,-10.787
19:23:29:996,42.604,-0.007,-0.011,0.007,-2.715,16.413,-10.806
19:23:30:052,42.660,-0.003,-0.009,0.006,-2.736,16.410,-10.812
19:23:30:053,42.661,-0.006,-0.005,0.001,-2.774,16.428,-10.809
19:23:30:073,42.682,-0.010,-0.010,0.001,-2.797,16.460,-10.811
19:23:30:1,42.708,-0.009,-0.007,0.004,-2.835,16.484,-10.804
19:23:30:126,42.734,-0.010,-0.007,-0.005,-2.865,16.486,-10.805
19:23:30:181,42.790,-0.007,-0.013,0.004,-2.896,16.489,-10.797
19:23:30:182,42.791,-0.010,-0.006,0.001,-2.915,16.496,-10.793
19:23:30:206,42.814,-0.007,-0.008,0.006,-2.953,16.524,-10.790
19:23:30:26,42.868,-0.010,-0.007,-0.005,-2.985,16.567,-10.784
19:23:30:261,42.869,-0.005,-0.009,0.005,-3.007,16.599,-10.786
19:23:30:342,42.950,-0.008,-0.004,-0.002,-3.043,16.656,-10.774
19:23:30:343,42.951,-0.014,-0.009,0.006,-3.065,16.688,-10.767
19:23:30:344,42.952,-0.007,-0.003,-0.001,-3.098,16.725,-10.744
19:23:30:362,42.971,-0.005,-0.007,0.001,-3.121,16.752,-10.742
19:23:30:418,43.026,-0.008,-0.011,0.002,-3.147,16.799,-10.729
19:23:30:419,43.027,-0.005,0.000,0.004,-3.183,16.862,-10.713
19:23:30:441,43.049,-0.005,-0.009,-0.002,-3.205,16.899,-10.711
19:23:30:496,43.105,-0.011,-0.007,0.017,-3.238,16.976,-10.709
19:23:30:497,43.105,-0.013,-0.003,0.003,-3.258,17.042,-10.688
19:23:30:52,43.129,-0.013,-0.004,0.005,-3.281,17.119,-10.687
19:23:30:546,43.155,-0.007,-0.010,0.002,-3.303,17.160,-10.679
19:23:30:572,43.180,-0.009,-0.006,0.007,-3.321,17.186,-10.666
19:23:30:598,43.207,-0.015,-0.005,0.006,-3.347,17.238,-10.659
19:23:30:625,43.234,-0.008,-0.007,0.015,-3.360,17.260,-10.661
19:23:30:651,43.259,-0.007,-0.009,0.002,-3.357,17.294,-10.667
19:23:30:677,43.286,-0.002,0.005,-0.002,-3.371,17.301,-10.663
19:23:30:706,43.315,-0.008,-0.012,0.002,-3.373,17.272,-10.692
19:23:30:707,43.315,-0.007,-0.005,0.007,-3.384,17.249,-10.717
19:23:30:814,43.423,-0.010,-0.028,0.009,-3.385,17.225,-10.751
19:23:30:815,43.423,-0.007,-0.008,0.012,-3.355,17.145,-10.806
19:23:30:816,43.424,-0.018,-0.013,0.008,-3.348,17.100,-10.839
19:23:30:862,43.471,-0.012,-0.010,0.005,-3.350,17.076,-10.844
19:23:30:893,43.501,-0.008,-0.007,0.004,-3.350,17.076,-10.844
19:23:30:894,43.502,-0.011,-0.008,0.000,-3.350,17.076,-10.844
19:23:30:895,43.503,-0.010,-0.010,0.007,-3.350,17.076,-10.844
19:23:30:943,43.551,-0.016,-0.003,0.005,-3.350,17.076,-10.844
19:23:30:944,43.552,-0.008,-0.009,0.005,-3.350,17.076,-10.844
19:23:30:966,43.575,-0.004,-0.008,0.000,-3.357,17.047,-10.852
19:23:31:02,43.628,-0.010,-0.005,0.008,-3.364,17.023,-10.877
19:23:31:048,43.656,-0.021,-0.008,0.003,-3.366,16.985,-10.906
19:23:31:049,43.657,-0.007,-0.006,0.008,-3.366,16.985,-10.916
19:23:31:071,43.680,-0.014,-0.007,0.001,-3.366,16.985,-10.916
19:23:31:097,43.706,-0.007,-0.011,0.007,-3.367,16.980,-10.911
19:23:31:124,43.732,-0.008,-0.012,0.000,-3.367,16.980,-10.911
19:23:31:151,43.759,-0.011,-0.007,0.008,-3.367,16.980,-10.911
19:23:31:176,43.785,-0.011,-0.008,0.004,-3.367,16.980,-10.911
19:23:31:233,43.841,-0.008,-0.006,0.005,-3.367,16.980,-10.911
19:23:31:233,43.842,-0.008,-0.004,0.004,-3.367,16.980,-10.911
19:23:31:254,43.863,-0.006,-0.007,0.007,-3.367,16.980,-10.911
19:23:31:31,43.918,-0.013,-0.007,0.004,-3.367,16.980,-10.911
19:23:31:311,43.919,-0.011,-0.008,0.007,-3.372,16.981,-10.911
19:23:31:334,43.942,-0.011,-0.007,0.005,-3.387,16.982,-10.912
19:23:31:389,43.997,-0.011,-0.007,0.005,-3.397,16.983,-10.912
19:23:31:39,43.998,-0.012,-0.008,0.005,-3.397,16.983,-10.912
19:23:31:472,44.080,-0.008,-0.008,0.004,-3.411,16.989,-10.919
19:23:31:472,44.081,-0.006,-0.002,0.001,-3.416,16.990,-10.918
19:23:31:472,44.081,-0.009,-0.011,0.007,-3.416,16.990,-10.918
19:23:31:492,44.101,-0.023,-0.011,0.011,-3.426,16.991,-10.919
19:23:31:517,44.126,0.011,-0.010,-0.007,-3.433,16.976,-10.914
19:23:31:543,44.152,-0.006,-0.009,0.004,-3.449,16.963,-10.919
19:23:31:6,44.209,-0.011,-0.011,0.005,-3.449,16.963,-10.919
19:23:31:6,44.209,-0.010,-0.008,0.003,-3.454,16.964,-10.920
19:23:31:622,44.231,-0.013,-0.009,-0.004,-3.469,16.965,-10.920
19:23:31:649,44.257,-0.013,-0.007,0.006,-3.474,16.966,-10.921
19:23:31:676,44.284,-0.014,-0.008,0.002,-3.474,16.966,-10.921
19:23:31:782,44.391,-0.012,-0.007,0.006,-3.488,16.981,-10.907
19:23:31:834,44.442,-0.010,-0.006,-0.002,-3.513,16.984,-10.909
19:23:31:868,44.476,-0.010,-0.007,0.003,-3.523,16.985,-10.909
19:23:31:869,44.477,-0.011,-0.007,0.000,-3.531,17.005,-10.910
19:23:31:917,44.525,-0.013,-0.004,0.006,-3.530,17.015,-10.911
19:23:31:918,44.526,-0.014,-0.007,0.001,-3.530,17.015,-10.911
19:23:31:918,44.527,-0.012,-0.010,0.008,-3.530,17.015,-10.911
19:23:31:937,44.546,-0.015,-0.006,0.004,-3.530,17.015,-10.911
19:23:31:993,44.601,-0.012,-0.006,0.007,-3.530,17.015,-10.911
19:23:31:994,44.602,-0.014,-0.007,0.004,-3.530,17.015,-10.911
19:23:32:018,44.626,-0.012,-0.009,0.010,-3.530,17.015,-10.911
19:23:32:043,44.651,-0.014,-0.009,0.002,-3.530,17.015,-10.911
19:23:32:127,44.735,-0.010,-0.010,0.009,-3.530,17.015,-10.911
19:23:32:127,44.736,-0.011,-0.007,0.004,-3.530,17.015,-10.911
19:23:32:128,44.737,-0.012,-0.009,0.006,-3.530,17.015,-10.911
19:23:32:147,44.756,-0.011,-0.007,0.003,-3.530,17.015,-10.911
19:23:32:174,44.782,-0.011,-0.005,0.004,-3.530,17.015,-10.911
19:23:32:2,44.809,-0.014,-0.010,0.003,-3.530,17.015,-10.911
19:23:32:226,44.834,-0.011,-0.006,0.007,-3.530,17.015,-10.911
19:23:32:282,44.890,-0.012,-0.010,0.006,-3.530,17.015,-10.911
19:23:32:282,44.891,-0.010,-0.008,0.007,-3.530,17.015,-10.911
19:23:32:306,44.914,-0.012,-0.010,0.008,-3.530,17.015,-10.911
19:23:32:362,44.970,-0.015,-0.005,0.002,-3.530,17.015,-10.911
19:23:32:362,44.970,-0.011,-0.008,0.006,-3.530,17.015,-10.911
19:23:32:383,44.992,-0.013,-0.010,0.003,-3.530,17.015,-10.911
19:23:32:439,45.047,-0.015,-0.009,0.009,-3.530,17.015,-10.911
19:23:32:44,45.048,-0.015,-0.010,0.001,-3.530,17.015,-10.911
19:23:32:463,45.072,-0.009,-0.005,0.002,-3.530,17.015,-10.911
19:23:32:489,45.097,-0.016,-0.007,0.000,-3.531,17.011,-10.915
19:23:32:515,45.123,-0.015,-0.007,0.006,-3.531,17.011,-10.915
19:23:32:541,45.149,-0.017,-0.007,0.002,-3.531,17.011,-10.915
19:23:32:567,45.176,-0.010,-0.010,0.010,-3.531,17.011,-10.915
19:23:32:594,45.202,-0.014,-0.009,0.000,-3.531,17.011,-10.915
19:23:32:619,45.228,-0.010,-0.009,0.010,-3.531,17.011,-10.915
19:23:32:646,45.254,-0.016,-0.007,0.005,-3.531,17.011,-10.915
19:23:32:731,45.339,-0.014,-0.008,0.009,-3.531,17.011,-10.915
19:23:32:732,45.340,-0.011,-0.010,0.006,-3.531,17.011,-10.915
19:23:32:732,45.341,-0.012,-0.004,0.012,-3.531,17.011,-10.915
19:23:32:752,45.360,-0.015,-0.006,0.005,-3.531,17.011,-10.915
19:23:32:807,45.415,-0.010,-0.008,0.009,-3.531,17.011,-10.915
19:23:32:807,45.415,-0.013,-0.009,0.003,-3.531,17.011,-10.915
19:23:32:83,45.438,-0.011,-0.006,0.011,-3.531,17.011,-10.915
19:23:32:885,45.493,-0.014,-0.009,0.008,-3.531,17.011,-10.915
19:23:32:886,45.494,-0.013,-0.010,0.012,-3.531,17.011,-10.915
19:23:32:913,45.522,-0.014,-0.011,0.008,-3.531,17.011,-10.915
19:23:32:914,45.522,-0.012,-0.006,0.008,-3.530,17.020,-10.916
19:23:32:964,45.573,-0.015,-0.006,0.007,-3.530,17.020,-10.916
19:23:32:965,45.573,-0.015,-0.008,0.008,-3.530,17.020,-10.916
19:23:33:014,45.622,-0.014,-0.010,0.012,-3.530,17.020,-10.916
19:23:33:043,45.651,-0.012,-0.007,0.012,-3.530,17.020,-10.916
19:23:33:043,45.652,-0.016,-0.009,0.009,-3.529,17.021,-10.925
19:23:33:095,45.704,-0.007,-0.007,0.013,-3.530,17.016,-10.930
19:23:33:096,45.704,-0.012,-0.007,0.013,-3.529,17.016,-10.940
19:23:33:119,45.727,-0.014,-0.010,0.003,-3.529,17.016,-10.940
19:23:33:147,45.755,-0.009,-0.003,0.012,-3.529,17.016,-10.940
19:23:33:171,45.779,-0.015,-0.006,0.007,-3.529,17.016,-10.940
19:23:33:197,45.805,-0.012,-0.007,0.014,-3.529,17.016,-10.940
19:23:33:255,45.863,-0.012,-0.009,0.006,-3.528,17.021,-10.945
19:23:33:255,45.864,-0.013,-0.007,0.014,-3.528,17.021,-10.945
19:23:33:276,45.885,-0.013,-0.008,0.007,-3.528,17.021,-10.945
19:23:33:332,45.940,-0.010,-0.007,0.015,-3.529,17.011,-10.945
19:23:33:332,45.940,-0.014,-0.005,0.005,-3.529,17.012,-10.966
19:23:33:355,45.963,-0.012,-0.007,0.017,-3.535,16.989,-10.999
19:23:33:41,46.018,-0.011,-0.007,0.005,-3.534,16.994,-11.014
19:23:33:411,46.019,-0.017,-0.011,0.016,-3.519,16.984,-11.033
19:23:33:435,46.043,-0.013,-0.009,0.011,-3.524,16.980,-11.049
19:23:33:46,46.068,-0.011,-0.008,0.014,-3.524,16.970,-11.068
19:23:33:486,46.094,-0.014,-0.008,0.011,-3.523,16.971,-11.078
19:23:33:512,46.121,-0.009,-0.008,0.018,-3.523,16.962,-11.107
19:23:33:538,46.147,-0.013,-0.006,0.010,-3.522,16.962,-11.127
19:23:33:565,46.173,-0.010,-0.007,0.016,-3.522,16.962,-11.137
19:23:33:62,46.229,-0.011,-0.006,0.014,-3.521,16.963,-11.157
19:23:33:621,46.229,-0.010,-0.007,0.020,-3.521,16.964,-11.167
19:23:33:704,46.312,-0.011,-0.008,0.015,-3.521,16.964,-11.167
19:23:33:704,46.312,-0.012,-0.011,0.013,-3.521,16.959,-11.172
19:23:33:704,46.313,-0.014,-0.007,0.013,-3.521,16.959,-11.172
19:23:33:724,46.332,-0.011,-0.007,0.016,-3.521,16.959,-11.172
19:23:33:778,46.386,-0.013,-0.006,0.017,-3.521,16.959,-11.172
19:23:33:779,46.387,-0.008,-0.010,0.017,-3.521,16.959,-11.172
19:23:33:802,46.411,-0.011,-0.007,0.016,-3.521,16.959,-11.172
19:23:33:858,46.466,-0.007,-0.004,0.019,-3.521,16.959,-11.172
19:23:33:858,46.466,-0.010,-0.007,0.014,-3.531,16.960,-11.173
19:23:33:88,46.489,-0.015,-0.009,0.009,-3.546,16.961,-11.173
19:23:33:935,46.544,-0.015,-0.005,0.020,-3.571,16.964,-11.175
19:23:33:936,46.544,-0.013,-0.009,0.011,-3.581,16.969,-11.170
19:23:33:961,46.569,-0.005,-0.010,0.018,-3.601,16.971,-11.171
19:23:33:986,46.594,-0.012,-0.003,0.013,-3.621,16.973,-11.173
19:23:34:011,46.620,-0.014,-0.011,0.020,-3.631,16.974,-11.173
19:23:34:066,46.675,-0.015,-0.007,0.010,-3.631,16.974,-11.173
19:23:34:067,46.676,-0.010,-0.009,0.017,-3.633,16.955,-11.173
19:23:34:148,46.757,-0.015,-0.008,0.012,-3.632,16.960,-11.178
19:23:34:149,46.757,-0.013,-0.009,0.022,-3.638,16.951,-11.198
19:23:34:15,46.758,-0.011,-0.009,0.015,-3.638,16.937,-11.222
19:23:34:168,46.777,-0.005,-0.009,0.020,-3.663,16.940,-11.243
19:23:34:224,46.832,-0.009,-0.007,0.019,-3.662,16.950,-11.234
19:23:34:225,46.833,-0.007,-0.004,0.020,-3.666,16.964,-11.219
19:23:34:248,46.857,-0.009,-0.004,0.014,-3.666,16.969,-11.195
19:23:34:302,46.911,-0.007,-0.009,0.021,-3.672,16.973,-11.160
19:23:34:303,46.912,-0.012,-0.003,0.014,-3.693,16.988,-11.117
19:23:34:326,46.934,-0.008,-0.009,0.020,-3.698,16.993,-11.103
19:23:34:381,46.990,-0.006,-0.004,0.013,-3.719,17.004,-11.065
19:23:34:382,46.991,-0.005,-0.008,0.024,-3.733,17.024,-11.026
19:23:34:405,47.013,-0.003,-0.003,0.008,-3.744,17.043,-10.968
19:23:34:431,47.039,-0.008,-0.010,0.014,-3.754,17.057,-10.924
19:23:34:458,47.066,-0.011,-0.008,0.018,-3.763,17.086,-10.876
19:23:34:514,47.123,-0.018,-0.005,0.022,-3.752,17.137,-10.793
19:23:34:515,47.123,-0.012,-0.011,0.023,-3.742,17.144,-10.762
19:23:34:536,47.145,-0.010,-0.005,0.024,-3.722,17.147,-10.737
19:23:34:621,47.230,-0.008,-0.006,0.021,-3.713,17.145,-10.716
19:23:34:621,47.230,-0.010,-0.010,0.024,-3.709,17.139,-10.691
19:23:34:622,47.231,-0.009,-0.007,0.020,-3.719,17.109,-10.651
19:23:34:642,47.250,-0.013,-0.013,0.021,-3.725,17.103,-10.635
19:23:34:668,47.276,-0.013,-0.010,0.012,-3.741,17.119,-10.593
19:23:34:694,47.302,-0.003,-0.006,0.006,-3.756,17.124,-10.579
19:23:34:749,47.358,-0.001,0.000,0.008,-3.786,17.127,-10.580
19:23:34:75,47.358,-0.009,-0.008,0.012,-3.782,17.089,-10.638
19:23:34:773,47.381,-0.004,-0.010,0.015,-3.776,17.085,-10.673
19:23:34:828,47.436,-0.003,-0.006,0.008,-3.763,17.090,-10.727
19:23:34:829,47.437,0.000,0.002,0.002,-3.767,17.087,-10.762
19:23:34:853,47.461,-0.011,-0.006,0.013,-3.759,17.045,-10.835
19:23:34:907,47.515,0.003,-0.004,0.019,-3.749,17.006,-10.912
19:23:34:907,47.515,-0.003,-0.009,0.011,-3.744,16.983,-10.975
19:23:34:93,47.539,-0.004,-0.007,0.022,-3.728,16.969,-11.039
19:23:34:956,47.564,-0.010,-0.007,0.015,-3.715,16.989,-11.068
19:23:34:982,47.591,-0.003,-0.006,0.018,-3.682,16.997,-11.117
19:23:35:009,47.617,0.001,-0.004,0.011,-3.650,16.991,-11.170
19:23:35:035,47.643,-0.010,-0.013,0.028,-3.594,16.972,-11.221
19:23:35:09,47.698,-0.012,-0.009,0.016,-3.537,16.923,-11.261
19:23:35:119,47.728,-0.002,-0.010,0.021,-3.508,16.896,-11.283
19:23:35:12,47.728,-0.002,-0.009,0.013,-3.480,16.860,-11.315
19:23:35:121,47.729,0.000,-0.009,0.017,-3.470,16.854,-11.329
19:23:35:195,47.804,-0.002,-0.009,0.016,-3.449,16.857,-11.324
19:23:35:196,47.805,0.000,-0.006,0.015,-3.440,16.851,-11.328
19:23:35:222,47.830,0.002,-0.010,0.012,-3.440,16.851,-11.328
19:23:35:222,47.830,-0.014,-0.005,0.024,-3.446,16.896,-11.305
19:23:35:274,47.882,0.001,-0.009,0.017,-3.455,16.916,-11.296
19:23:35:275,47.883,0.001,-0.013,0.017,-3.474,16.933,-11.283
19:23:35:297,47.906,-0.005,-0.010,0.018,-3.483,16.958,-11.249
19:23:35:352,47.961,-0.002,-0.009,0.022,-3.491,16.983,-11.226
19:23:35:353,47.962,-0.002,-0.013,0.020,-3.495,16.997,-11.211
19:23:35:377,47.985,-0.013,-0.007,0.007,-3.496,16.997,-11.192
19:23:35:402,48.010,0.001,-0.005,0.014,-3.527,16.999,-11.173
19:23:35:429,48.037,0.002,-0.010,0.012,-3.540,16.980,-11.164
19:23:35:455,48.063,0.000,-0.005,0.017,-3.558,16.952,-11.163
19:23:35:481,48.090,-0.013,-0.007,0.012,-3.569,16.948,-11.149
19:23:35:536,48.145,-0.010,-0.011,0.024,-3.570,16.942,-11.134
19:23:35:537,48.145,-0.004,-0.006,0.011,-3.570,16.947,-11.119
19:23:35:562,48.170,0.000,-0.009,0.019,-3.565,16.946,-11.109
19:23:35:587,48.196,-0.004,-0.005,0.012,-3.570,16.956,-11.100
19:23:35:643,48.252,-0.004,-0.008,0.022,-3.585,16.957,-11.090
19:23:35:644,48.252,-0.002,-0.009,0.013,-3.595,16.963,-11.086
19:23:35:665,48.273,-0.002,-0.010,0.023,-3.603,16.983,-11.077
19:23:35:72,48.329,-0.007,-0.008,0.015,-3.601,17.007,-11.063
19:23:35:721,48.329,0.005,0.002,0.011,-3.616,17.028,-11.045
19:23:35:744,48.353,0.001,-0.007,0.016,-3.610,17.028,-11.045
19:23:35:8,48.408,-0.001,-0.006,0.022,-3.601,17.026,-11.024
19:23:35:8,48.408,-0.003,-0.007,0.013,-3.592,17.034,-10.995
19:23:35:823,48.431,-0.002,-0.008,0.019,-3.593,17.028,-10.969
19:23:35:907,48.515,-0.001,-0.007,0.013,-3.604,17.033,-10.935
19:23:35:907,48.516,0.004,-0.007,0.019,-3.602,17.057,-10.911
19:23:35:928,48.536,0.001,-0.006,0.020,-3.614,17.135,-10.825
19:23:35:953,48.562,0.002,-0.007,0.014,-3.615,17.134,-10.795
19:23:35:98,48.589,0.001,-0.006,0.012,-3.630,17.154,-10.757
19:23:36:006,48.614,-0.003,-0.007,0.015,-3.633,17.178,-10.733
19:23:36:032,48.641,-0.006,-0.007,0.022,-3.633,17.196,-10.684
19:23:36:059,48.667,0.005,-0.009,0.019,-3.634,17.196,-10.674
19:23:36:085,48.693,0.004,-0.004,0.015,-3.634,17.196,-10.674
19:23:36:111,48.720,-0.001,-0.009,0.023,-3.618,17.199,-10.668
19:23:36:167,48.775,-0.003,-0.003,0.007,-3.604,17.198,-10.658
19:23:36:168,48.776,0.009,0.002,0.007,-3.606,17.159,-10.696
19:23:36:191,48.799,0.003,0.010,0.005,-3.601,17.105,-10.709
19:23:36:245,48.853,0.000,-0.028,0.021,-3.587,17.025,-10.745
19:23:36:246,48.854,-0.002,0.016,0.005,-3.576,16.965,-10.762
19:23:36:269,48.877,0.014,-0.041,0.016,-3.545,16.840,-10.840
19:23:36:324,48.933,-0.007,-0.008,0.013,-3.531,16.760,-10.867
19:23:36:325,48.933,-0.007,-0.008,0.022,-3.537,16.751,-10.866
19:23:36:347,48.956,0.001,-0.008,0.009,-3.520,16.724,-10.850
19:23:36:374,48.983,0.002,-0.008,0.021,-3.510,16.727,-10.825
19:23:36:4,49.008,-0.001,-0.009,0.015,-3.499,16.755,-10.786
19:23:36:455,49.064,-0.004,-0.004,0.024,-3.504,16.837,-10.704
19:23:36:456,49.064,0.007,0.000,0.013,-3.501,16.894,-10.646
19:23:36:508,49.117,0.006,-0.009,0.017,-3.513,16.953,-10.579
19:23:36:509,49.118,0.003,-0.004,0.015,-3.522,16.992,-10.522
19:23:36:531,49.140,0.004,-0.007,0.017,-3.540,17.027,-10.489
19:23:36:558,49.166,0.000,-0.007,0.012,-3.563,17.082,-10.437
19:23:36:613,49.221,-0.001,-0.009,0.017,-3.572,17.106,-10.404
19:23:36:614,49.222,0.003,-0.008,0.013,-3.595,17.142,-10.361
19:23:36:636,49.244,0.002,-0.007,0.018,-3.615,17.162,-10.333
19:23:36:692,49.301,-0.001,-0.007,0.019,-3.633,17.207,-10.291
19:23:36:693,49.301,-0.001,-0.006,0.021,-3.651,17.248,-10.254
19:23:36:715,49.324,0.002,-0.007,0.014,-3.680,17.269,-10.227
19:23:36:771,49.379,0.000,-0.007,0.015,-3.709,17.305,-10.195
19:23:36:771,49.380,-0.007,-0.009,0.017,-3.728,17.331,-10.172
19:23:36:794,49.402,-0.005,-0.003,0.021,-3.747,17.356,-10.130
19:23:36:878,49.487,0.000,-0.009,0.019,-3.774,17.357,-10.091
19:23:36:879,49.487,0.006,-0.007,0.021,-3.779,17.362,-10.076
19:23:36:88,49.488,0.000,-0.006,0.016,-3.794,17.378,-10.053
19:23:36:898,49.507,-0.003,-0.007,0.012,-3.799,17.392,-10.029
19:23:36:926,49.534,0.002,-0.006,0.019,-3.819,17.403,-10.001
19:23:36:952,49.560,-0.001,-0.006,0.010,-3.829,17.408,-9.987
19:23:36:978,49.586,0.004,-0.005,0.017,-3.840,17.413,-9.963
19:23:37:004,49.612,-0.002,-0.007,0.011,-3.840,17.422,-9.943
19:23:37:09,49.698,-0.001,-0.006,0.018,-3.845,17.423,-9.943
19:23:37:09,49.698,-0.001,-0.006,0.015,-3.856,17.423,-9.934
19:23:37:09,49.698,0.003,-0.009,0.017,-3.851,17.423,-9.934
19:23:37:138,49.746,0.001,-0.006,0.012,-3.840,17.427,-9.929
19:23:37:139,49.747,0.005,-0.005,0.020,-3.830,17.426,-9.928
19:23:37:161,49.770,0.002,-0.009,0.012,-3.820,17.425,-9.928
19:23:37:217,49.825,0.004,-0.006,0.020,-3.815,17.429,-9.922
19:23:37:217,49.825,0.000,-0.008,0.019,-3.805,17.428,-9.922
19:23:37:301,49.909,0.003,-0.009,0.022,-3.786,17.422,-9.915
19:23:37:302,49.910,0.002,-0.007,0.018,-3.777,17.411,-9.915
19:23:37:303,49.911,0.004,-0.009,0.020,-3.771,17.415,-9.909
19:23:37:303,49.912,0.001,-0.007,0.013,-3.781,17.416,-9.910
19:23:37:349,49.957,0.002,-0.007,0.019,-3.792,17.412,-9.905
19:23:37:349,49.957,0.003,-0.010,0.013,-3.803,17.407,-9.901
19:23:37:373,49.981,0.001,-0.009,0.020,-3.814,17.398,-9.901
19:23:37:426,50.035,0.001,-0.007,0.017,-3.825,17.384,-9.896
19:23:37:427,50.035,0.002,-0.004,0.023,-3.837,17.366,-9.896
19:23:37:477,50.085,0.002,-0.008,0.016,-3.833,17.351,-9.911
19:23:37:505,50.114,0.003,-0.008,0.015,-3.820,17.311,-9.928
19:23:37:506,50.115,0.003,-0.007,0.017,-3.822,17.286,-9.942
19:23:37:529,50.137,0.003,-0.009,0.017,-3.814,17.252,-9.965
19:23:37:587,50.195,0.005,-0.009,0.019,-3.827,17.199,-9.989
19:23:37:587,50.195,0.007,-0.005,0.020,-3.839,17.171,-10.008
19:23:37:608,50.216,0.003,-0.007,0.018,-3.858,17.123,-10.007
19:23:37:663,50.272,0.003,-0.007,0.014,-3.915,17.049,-10.027
19:23:37:687,50.295,0.004,-0.007,0.008,-3.937,17.026,-10.033
19:23:37:742,50.350,0.005,-0.007,0.014,-3.974,17.005,-10.029
19:23:37:742,50.351,0.002,-0.007,0.010,-4.015,16.998,-10.031
19:23:37:765,50.373,0.006,-0.006,0.018,-4.035,17.005,-10.027
19:23:37:821,50.429,0.006,-0.010,0.008,-4.064,17.013,-10.034
19:23:37:821,50.429,-0.001,-0.007,0.023,-4.074,17.018,-10.020
19:23:37:843,50.452,-0.003,-0.004,0.010,-4.085,17.018,-10.001
19:23:37:87,50.479,0.012,-0.010,0.020,-4.097,16.985,-10.025
19:23:37:896,50.505,-0.003,-0.009,0.014,-4.089,16.960,-10.029
19:23:37:924,50.532,0.003,-0.008,0.017,-4.075,16.944,-10.032
19:23:37:949,50.557,0.004,-0.015,0.015,-4.072,16.924,-10.041
19:23:37:975,50.583,0.005,-0.010,0.022,-4.071,16.870,-10.054
19:23:38:03,50.639,0.002,-0.007,0.018,-4.062,16.854,-10.048
19:23:38:031,50.639,0.005,-0.011,0.023,-4.072,16.860,-10.044
19:23:38:055,50.664,0.005,-0.009,0.012,-4.091,16.866,-10.050
19:23:38:109,50.718,0.006,-0.010,0.018,-4.101,16.867,-10.050
19:23:38:11,50.718,0.005,-0.001,0.012,-4.126,16.875,-10.047
19:23:38:132,50.741,0.012,0.008,0.010,-4.143,16.856,-10.047
19:23:38:188,50.796,0.005,-0.015,0.025,-4.149,16.769,-10.103
19:23:38:189,50.797,0.007,-0.002,0.021,-4.158,16.702,-10.141
19:23:38:211,50.820,0.001,-0.007,0.019,-4.152,16.653,-10.169
19:23:38:266,50.875,0.002,-0.007,0.016,-4.157,16.585,-10.196
19:23:38:267,50.876,0.005,-0.012,0.014,-4.169,16.556,-10.206
19:23:38:291,50.899,-0.001,-0.006,0.020,-4.168,16.507,-10.213
19:23:38:316,50.925,0.001,-0.012,0.024,-4.182,16.473,-10.208
19:23:38:342,50.951,-0.001,-0.008,0.024,-4.184,16.448,-10.202
19:23:38:398,51.006,0.006,-0.004,0.018,-4.201,16.424,-10.197
19:23:38:398,51.007,0.009,-0.011,0.012,-4.208,16.410,-10.202
19:23:38:45,51.059,0.007,-0.009,0.017,-4.203,16.405,-10.206
19:23:38:451,51.060,0.000,-0.006,0.012,-4.208,16.406,-10.206
19:23:38:474,51.082,0.006,-0.008,0.019,-4.217,16.416,-10.207
19:23:38:558,51.167,0.003,-0.005,0.008,-4.222,16.416,-10.197
19:23:38:559,51.167,0.006,-0.010,0.021,-4.217,16.416,-10.197
19:23:38:56,51.168,0.001,-0.009,0.010,-4.197,16.419,-10.192
19:23:38:579,51.187,0.005,-0.010,0.020,-4.207,16.420,-10.192
