Time,Second,AccelerationX,AccelerationY,AccelerationZ,EulerAnglesX,EulerAnglesY,EulerAnglesZ
19:17:01:425,0.000,-0.011,-0.003,0.007,-0.204,-12.236,14.735
19:17:01:426,0.000,-0.010,-0.003,0.006,-0.178,-12.327,14.738
19:17:01:448,0.023,-0.015,-0.004,0.006,-0.142,-12.410,14.729
19:17:01:533,0.108,-0.015,-0.002,-0.005,-0.107,-12.504,14.744
19:17:01:534,0.109,-0.011,0.002,0.002,-0.074,-12.745,14.774
19:17:01:534,0.109,-0.004,-0.003,-0.004,-0.027,-13.024,14.780
19:17:01:553,0.128,-0.001,0.002,0.006,-0.005,-13.231,14.771
19:17:01:579,0.154,0.001,0.000,-0.005,0.044,-13.456,14.754
19:17:01:664,0.239,0.008,-0.003,0.001,0.059,-13.601,14.757
19:17:01:665,0.240,0.008,-0.009,-0.001,0.077,-13.675,14.805
19:17:01:666,0.241,0.005,-0.008,0.005,0.039,-13.710,14.879
19:17:01:684,0.259,0.009,-0.007,0.002,-0.007,-13.693,14.906
19:17:01:711,0.286,0.005,-0.001,0.003,-0.041,-13.579,14.905
19:17:01:737,0.312,-0.006,-0.001,0.002,-0.062,-13.472,14.904
19:17:01:764,0.339,-0.004,0.001,0.000,-0.098,-13.303,14.894
19:17:01:79,0.365,-0.002,0.002,0.004,-0.134,-13.175,14.893
19:17:01:816,0.391,-0.004,0.006,0.004,-0.145,-13.096,14.929
19:17:01:842,0.417,0.001,-0.003,0.006,-0.134,-12.951,15.005
19:17:01:868,0.443,0.003,0.006,-0.006,-0.135,-12.842,15.072
19:17:01:924,0.499,0.017,0.002,0.003,-0.148,-12.696,15.139
19:17:01:925,0.500,0.010,-0.001,-0.010,-0.109,-12.482,15.244
19:17:01:947,0.522,0.009,0.003,-0.004,-0.087,-12.296,15.298
19:17:01:973,0.548,0.010,-0.002,-0.003,-0.091,-11.991,15.386
19:17:02:,0.574,0.004,0.001,0.001,-0.131,-11.755,15.414
19:17:02:026,0.601,0.003,0.008,-0.003,-0.201,-11.304,15.393
19:17:02:054,0.629,-0.010,0.006,0.004,-0.203,-10.939,15.364
19:17:02:079,0.654,-0.006,0.000,-0.004,-0.169,-10.369,15.331
19:17:02:105,0.680,-0.026,0.000,0.002,-0.178,-9.769,15.345
19:17:02:131,0.706,-0.032,0.000,-0.005,-0.201,-9.432,15.383
19:17:02:157,0.732,-0.028,0.003,-0.008,-0.240,-9.085,15.458
19:17:02:212,0.787,-0.025,0.001,-0.005,-0.242,-8.951,15.506
19:17:02:213,0.788,-0.022,0.005,0.001,-0.255,-8.817,15.583
19:17:02:236,0.811,-0.013,0.004,0.000,-0.261,-8.813,15.685
19:17:02:262,0.837,-0.006,0.005,0.005,-0.246,-8.842,15.742
19:17:02:288,0.863,-0.004,0.005,0.000,-0.230,-8.881,15.818
19:17:02:316,0.891,-0.002,0.003,0.007,-0.187,-8.871,15.833
19:17:02:341,0.916,-0.001,0.000,0.002,-0.134,-8.777,15.813
19:17:02:399,0.974,-0.006,0.004,-0.002,-0.105,-8.640,15.785
19:17:02:4,0.975,-0.008,-0.003,0.001,-0.079,-8.552,15.769
19:17:02:401,0.976,-0.010,-0.017,0.005,-0.036,-8.452,15.783
19:17:02:477,1.052,-0.009,0.001,-0.002,-0.051,-8.401,15.811
19:17:02:477,1.052,-0.006,0.005,0.002,-0.071,-8.348,15.841
19:17:02:499,1.074,-0.003,0.009,0.000,-0.074,-8.326,15.841
19:17:02:527,1.102,-0.004,0.004,0.002,-0.045,-8.322,15.870
19:17:02:528,1.103,-0.001,0.000,0.003,0.004,-8.307,15.876
19:17:02:581,1.156,-0.003,-0.005,0.009,0.025,-8.299,15.852
19:17:02:581,1.156,-0.002,-0.007,0.001,0.023,-8.301,15.779
19:17:02:603,1.178,-0.007,-0.006,-0.005,0.014,-8.280,15.729
19:17:02:63,1.205,-0.013,0.002,-0.003,-0.007,-8.229,15.686
19:17:02:657,1.232,-0.013,0.002,-0.003,-0.010,-8.208,15.657
19:17:02:683,1.258,-0.007,-0.001,0.002,-0.019,-8.236,15.635
19:17:02:708,1.283,-0.008,-0.003,-0.005,-0.029,-8.261,15.672
19:17:02:734,1.309,0.000,-0.005,0.002,-0.027,-8.263,15.706
19:17:02:761,1.336,0.003,-0.002,-0.001,-0.027,-8.263,15.706
19:17:02:787,1.362,-0.006,-0.006,0.005,-0.053,-8.176,15.662
19:17:02:84,1.415,-0.014,0.004,0.001,-0.118,-7.981,15.630
19:17:02:896,1.470,-0.011,0.003,-0.002,-0.129,-7.936,15.632
19:17:02:896,1.471,-0.013,-0.003,0.006,-0.134,-7.925,15.657
19:17:02:918,1.493,-0.003,0.001,-0.008,-0.131,-7.927,15.690
19:17:02:945,1.520,-0.006,-0.009,0.010,-0.110,-7.903,15.752
19:17:02:971,1.546,-0.001,-0.005,-0.002,-0.127,-7.845,15.808
19:17:02:997,1.572,0.005,0.014,-0.003,-0.151,-7.786,15.822
19:17:03:024,1.598,-0.002,0.006,-0.004,-0.163,-7.647,15.846
19:17:03:049,1.624,-0.003,0.002,0.001,-0.159,-7.541,15.847
19:17:03:076,1.651,-0.008,-0.006,0.003,-0.144,-7.374,15.854
19:17:03:102,1.677,-0.004,0.004,0.002,-0.145,-7.238,15.855
19:17:03:129,1.704,-0.005,0.006,-0.002,-0.140,-7.145,15.856
19:17:03:155,1.730,-0.009,0.008,0.003,-0.115,-7.017,15.890
19:17:03:181,1.756,-0.006,-0.001,-0.002,-0.103,-6.941,15.917
19:17:03:209,1.783,-0.008,0.002,-0.005,-0.098,-6.816,15.957
19:17:03:233,1.808,-0.007,-0.004,-0.001,-0.096,-6.742,15.990
19:17:03:26,1.835,-0.005,-0.004,0.000,-0.112,-6.655,16.025
19:17:03:286,1.861,-0.002,-0.002,0.006,-0.126,-6.561,16.054
19:17:03:312,1.887,-0.003,0.003,0.008,-0.150,-6.479,16.055
19:17:03:338,1.913,-0.007,0.005,0.004,-0.165,-6.354,16.030
19:17:03:365,1.940,-0.011,0.003,-0.002,-0.176,-6.293,16.026
19:17:03:391,1.966,-0.011,0.003,0.003,-0.185,-6.254,16.021
19:17:03:417,1.992,-0.008,-0.004,-0.002,-0.185,-6.254,16.021
19:17:03:443,2.018,-0.010,-0.002,0.007,-0.185,-6.254,16.021
19:17:03:469,2.044,-0.009,-0.002,-0.001,-0.207,-6.257,16.022
19:17:03:496,2.071,-0.009,0.004,-0.001,-0.228,-6.279,16.011
19:17:03:522,2.097,-0.016,-0.012,0.000,-0.245,-6.295,16.000
19:17:03:548,2.123,-0.010,0.003,0.002,-0.296,-6.351,15.980
19:17:03:576,2.151,-0.002,0.018,-0.009,-0.351,-6.390,15.955
19:17:03:601,2.176,-0.009,0.006,0.009,-0.375,-6.462,15.929
19:17:03:627,2.202,-0.011,-0.005,0.014,-0.404,-6.571,15.901
19:17:03:653,2.228,-0.009,-0.017,0.015,-0.449,-6.798,15.881
19:17:03:681,2.256,-0.004,-0.018,0.005,-0.508,-6.951,15.875
19:17:03:707,2.281,-0.003,-0.007,0.009,-0.588,-7.127,15.859
19:17:03:732,2.307,-0.001,-0.004,-0.001,-0.641,-7.257,15.829
19:17:03:788,2.363,-0.002,-0.004,0.000,-0.681,-7.325,15.805
19:17:03:788,2.363,-0.001,0.013,-0.005,-0.757,-7.397,15.801
19:17:03:811,2.386,-0.001,0.003,-0.002,-0.799,-7.443,15.800
19:17:03:837,2.412,0.010,-0.010,-0.003,-0.855,-7.513,15.830
19:17:03:865,2.440,0.009,-0.012,0.000,-0.903,-7.532,15.875
19:17:03:919,2.494,0.013,-0.002,-0.006,-0.986,-7.564,15.940
19:17:03:919,2.494,0.015,0.012,0.002,-1.056,-7.580,15.929
19:17:03:942,2.517,0.006,0.006,-0.004,-1.089,-7.559,15.888
19:17:03:968,2.543,0.004,0.003,-0.003,-1.113,-7.495,15.843
19:17:03:995,2.570,0.009,0.004,0.001,-1.143,-7.382,15.838
19:17:04:021,2.596,0.006,0.007,0.000,-1.177,-7.273,15.836
19:17:04:049,2.624,0.000,0.001,0.005,-1.239,-7.073,15.829
19:17:04:074,2.649,-0.001,-0.004,-0.003,-1.275,-6.937,15.831
19:17:04:1,2.675,-0.002,-0.007,0.000,-1.306,-6.740,15.824
19:17:04:155,2.730,-0.006,-0.002,-0.009,-1.300,-6.589,15.819
19:17:04:156,2.731,-0.001,0.014,-0.012,-1.341,-6.385,15.818
19:17:04:18,2.755,-0.005,0.012,-0.011,-1.352,-6.162,15.810
19:17:04:205,2.780,-0.007,0.006,-0.003,-1.363,-6.035,15.821
19:17:04:231,2.806,-0.002,-0.004,-0.003,-1.379,-5.871,15.832
19:17:04:257,2.832,-0.005,-0.009,0.004,-1.406,-5.750,15.836
19:17:04:283,2.858,-0.008,0.004,-0.007,-1.469,-5.541,15.828
19:17:04:31,2.885,-0.005,0.003,0.003,-1.496,-5.353,15.826
19:17:04:336,2.911,-0.007,-0.003,-0.004,-1.490,-5.238,15.812
19:17:04:391,2.966,-0.018,0.005,0.002,-1.537,-5.065,15.771
19:17:04:392,2.967,-0.018,0.010,-0.002,-1.561,-4.978,15.747
19:17:04:415,2.990,-0.013,0.009,0.003,-1.577,-4.922,15.735
19:17:04:441,3.016,-0.016,0.005,-0.001,-1.593,-4.859,15.731
19:17:04:467,3.042,-0.015,0.005,0.001,-1.612,-4.802,15.742
19:17:04:493,3.068,-0.009,0.015,0.000,-1.648,-4.774,15.758
19:17:04:519,3.094,-0.007,0.004,0.009,-1.675,-4.780,15.762
19:17:04:546,3.121,-0.008,0.010,0.007,-1.727,-4.788,15.760
19:17:04:573,3.148,-0.006,0.006,0.007,-1.756,-4.766,15.757
19:17:04:598,3.173,-0.006,0.015,0.003,-1.808,-4.728,15.758
19:17:04:625,3.200,-0.004,0.032,0.006,-1.891,-4.703,15.742
19:17:04:651,3.226,-0.005,0.020,0.015,-1.949,-4.688,15.725
19:17:04:677,3.252,0.004,0.005,0.008,-2.036,-4.699,15.715
19:17:04:703,3.278,0.017,-0.016,0.048,-2.099,-4.728,15.733
19:17:04:732,3.307,0.029,-0.004,0.045,-2.099,-4.828,15.793
19:17:04:733,3.308,0.050,-0.034,0.052,-2.119,-4.820,16.050
19:17:04:785,3.360,0.043,-0.059,0.034,-2.099,-4.577,16.203
19:17:04:786,3.361,0.043,-0.075,0.025,-2.076,-3.770,16.235
19:17:04:809,3.384,0.005,-0.080,0.008,-2.081,-2.994,16.173
19:17:04:834,3.409,-0.033,-0.069,-0.005,-2.127,-1.680,16.027
19:17:04:861,3.436,-0.050,-0.026,-0.023,-2.233,-0.504,15.826
19:17:04:887,3.462,-0.057,0.003,-0.026,-2.315,0.136,15.621
19:17:04:914,3.489,-0.060,0.075,-0.040,-2.480,0.778,15.193
19:17:04:941,3.516,-0.075,0.078,-0.026,-2.584,1.351,14.814
19:17:04:966,3.541,-0.112,0.050,0.003,-2.796,2.205,14.179
19:17:04:992,3.567,-0.129,0.060,0.026,-2.982,2.706,13.764
19:17:05:018,3.593,-0.142,0.027,0.033,-3.119,3.220,13.675
19:17:05:045,3.620,-0.122,-0.016,0.052,-3.253,3.044,13.145
19:17:05:072,3.647,-0.099,-0.019,0.050,-3.410,2.991,12.871
19:17:05:098,3.673,-0.106,-0.024,0.054,-3.671,2.966,12.560
19:17:05:124,3.699,-0.115,-0.010,0.041,-3.764,3.228,12.559
19:17:05:149,3.724,-0.126,-0.006,0.040,-3.741,3.595,12.859
19:17:05:176,3.751,-0.121,-0.016,0.024,-3.731,3.724,13.088
19:17:05:202,3.777,-0.116,-0.025,0.021,-3.718,3.647,13.202
19:17:05:23,3.805,-0.103,0.000,-0.002,-3.767,3.469,13.331
19:17:05:256,3.830,-0.102,0.019,-0.004,-3.757,3.067,13.029
19:17:05:31,3.885,-0.122,-0.019,0.005,-3.664,2.999,12.858
19:17:05:311,3.886,-0.096,-0.008,-0.007,-3.645,2.377,13.059
19:17:05:333,3.908,-0.103,-0.020,-0.001,-3.683,2.345,13.415
19:17:05:36,3.935,-0.093,0.019,0.000,-3.714,2.161,13.848
19:17:05:386,3.961,-0.091,0.025,0.003,-3.671,2.158,13.818
19:17:05:412,3.987,-0.061,0.074,-0.022,-3.490,1.836,13.813
19:17:05:438,4.013,-0.030,0.159,-0.060,-3.335,1.943,13.832
19:17:05:465,4.040,-0.041,0.180,-0.059,-3.086,2.217,13.959
19:17:05:491,4.066,-0.019,0.243,-0.075,-3.030,2.889,14.151
19:17:05:517,4.092,-0.030,0.173,-0.031,-3.114,2.854,14.370
19:17:05:543,4.118,-0.097,-0.093,0.043,-3.393,2.906,15.059
19:17:05:57,4.145,-0.064,-0.118,0.054,-3.666,2.165,15.721
19:17:05:596,4.171,0.008,-0.080,0.064,-3.555,0.189,17.116
19:17:05:622,4.197,0.200,-0.031,0.060,-2.438,-2.762,18.534
19:17:05:648,4.223,0.296,0.106,0.062,-1.498,-4.040,19.488
19:17:05:675,4.250,0.370,0.025,0.008,-0.214,-4.765,20.980
19:17:05:701,4.276,0.351,0.018,-0.031,0.187,-3.619,22.069
19:17:05:727,4.302,0.285,-0.065,-0.053,0.313,-0.762,23.779
19:17:05:753,4.328,0.232,-0.052,-0.027,0.112,2.032,25.488
19:17:05:78,4.355,0.217,-0.075,-0.021,0.185,3.212,26.458
19:17:05:806,4.381,0.275,-0.142,0.026,0.878,3.818,27.515
19:17:05:862,4.437,0.231,-0.151,0.042,1.416,4.357,28.078
19:17:05:862,4.437,0.165,-0.103,0.068,1.848,5.923,28.764
19:17:05:914,4.489,0.086,-0.056,0.061,1.822,7.740,29.038
19:17:05:914,4.489,0.063,-0.038,0.068,1.395,10.679,28.999
19:17:05:938,4.513,0.013,-0.029,0.065,0.836,13.275,28.455
19:17:05:963,4.538,-0.010,-0.046,0.128,0.635,14.356,27.979
19:17:05:99,4.565,0.021,-0.073,0.077,0.523,14.984,26.930
19:17:06:016,4.591,0.053,-0.054,0.060,0.606,14.589,26.210
19:17:06:042,4.617,0.010,-0.016,0.086,0.921,13.721,25.387
19:17:06:07,4.644,0.097,-0.015,0.079,1.074,12.571,24.783
19:17:06:095,4.670,0.028,0.055,0.103,1.079,12.269,23.886
19:17:06:121,4.696,0.064,0.016,0.123,1.061,12.344,23.067
19:17:06:147,4.722,0.024,0.028,0.097,0.934,12.626,22.377
19:17:06:173,4.748,0.076,0.096,0.078,0.607,12.581,21.100
19:17:06:2,4.775,-0.032,0.199,0.122,-0.068,13.099,20.342
19:17:06:226,4.801,0.049,0.224,0.098,-0.923,13.085,19.201
19:17:06:253,4.828,-0.060,0.304,0.062,-1.539,12.444,18.047
19:17:06:278,4.853,-0.019,0.205,0.059,-1.662,11.180,17.313
19:17:06:305,4.880,-0.087,-0.030,0.023,-1.144,9.648,16.520
19:17:06:36,4.935,-0.009,-0.190,-0.043,-0.498,8.604,16.242
19:17:06:361,4.936,0.059,-0.070,-0.076,0.549,7.206,16.549
19:17:06:384,4.959,0.072,0.012,-0.101,1.272,6.882,17.697
19:17:06:409,4.984,0.023,0.030,-0.100,1.657,7.155,18.799
19:17:06:436,5.011,0.004,0.042,-0.121,2.018,7.341,20.247
19:17:06:462,5.037,-0.003,0.018,-0.124,2.268,6.955,20.830
19:17:06:488,5.063,0.046,-0.061,-0.155,2.709,5.520,21.087
19:17:06:544,5.119,0.062,-0.108,-0.133,3.183,3.260,21.084
19:17:06:545,5.120,0.083,-0.115,-0.135,3.476,1.879,21.165
19:17:06:567,5.142,0.104,-0.085,-0.118,3.733,0.007,21.453
19:17:06:622,5.197,0.110,-0.059,-0.119,3.747,-0.719,21.743
19:17:06:623,5.198,0.107,-0.032,-0.111,3.540,-1.293,22.261
19:17:06:647,5.222,0.107,-0.039,-0.103,3.245,-1.565,22.807
19:17:06:701,5.276,0.125,-0.051,-0.101,2.846,-1.685,23.002
19:17:06:702,5.277,0.130,-0.045,-0.084,1.973,-1.661,23.017
19:17:06:754,5.329,0.122,-0.065,-0.059,1.473,-1.527,23.043
19:17:06:755,5.330,0.131,-0.089,-0.037,1.101,-1.278,23.726
19:17:06:777,5.352,0.140,-0.100,-0.017,0.763,-1.099,24.072
19:17:06:804,5.379,0.147,-0.070,0.026,0.035,-0.723,24.295
19:17:06:83,5.404,0.123,-0.015,0.101,-0.980,-0.187,23.920
19:17:06:856,5.431,0.106,0.017,0.120,-1.792,0.326,23.258
19:17:06:882,5.457,-0.007,0.010,0.171,-3.085,1.629,21.720
19:17:06:908,5.483,0.037,0.080,0.121,-4.006,2.949,20.238
19:17:06:936,5.511,0.030,0.206,0.056,-5.270,5.330,18.228
19:17:06:993,5.567,-0.037,0.286,-0.010,-5.496,7.545,16.909
19:17:06:994,5.568,-0.057,0.416,-0.003,-4.946,8.486,16.149
19:17:06:995,5.569,-0.144,0.195,0.073,-3.021,8.906,15.042
19:17:07:043,5.618,-0.161,-0.084,0.111,-1.586,8.326,14.223
19:17:07:044,5.619,-0.077,-0.131,0.068,0.110,5.997,13.062
19:17:07:066,5.641,0.038,0.002,-0.036,0.709,4.447,12.712
19:17:07:093,5.668,0.059,-0.010,-0.055,1.316,3.353,13.271
19:17:07:149,5.724,0.074,-0.006,-0.121,1.706,4.667,14.995
19:17:07:149,5.724,0.089,-0.018,-0.139,1.804,6.374,16.657
19:17:07:171,5.746,0.095,-0.069,-0.152,1.602,9.670,19.681
19:17:07:224,5.799,0.059,-0.105,-0.120,1.196,11.832,21.780
19:17:07:252,5.827,0.049,-0.095,-0.095,0.328,14.433,24.495
19:17:07:253,5.828,0.063,-0.021,0.023,-0.005,15.170,26.258
19:17:07:336,5.911,0.107,-0.053,0.103,0.917,14.011,26.772
19:17:07:336,5.911,0.308,-0.123,0.239,3.412,10.249,26.666
19:17:07:336,5.911,0.261,-0.106,0.283,4.741,7.729,26.473
19:17:07:384,5.959,0.245,-0.089,0.276,5.576,5.272,26.188
19:17:07:385,5.960,0.173,-0.113,0.165,5.310,4.942,25.954
19:17:07:407,5.982,0.139,-0.123,0.091,4.658,5.513,25.708
19:17:07:491,6.065,0.110,-0.115,0.036,3.552,6.818,25.285
19:17:07:491,6.066,0.066,-0.068,0.021,2.810,7.832,24.937
19:17:07:515,6.090,0.023,-0.055,0.054,1.972,9.216,24.262
19:17:07:516,6.091,0.015,-0.008,0.078,1.653,10.042,23.727
19:17:07:538,6.113,0.005,0.067,0.132,1.529,11.115,23.006
19:17:07:564,6.139,-0.017,0.127,0.182,1.494,12.453,22.483
19:17:07:62,6.195,-0.030,0.138,0.234,1.456,13.274,22.254
19:17:07:62,6.195,0.028,0.166,0.287,1.235,14.531,22.146
19:17:07:702,6.277,0.066,0.262,0.208,0.859,15.401,22.287
19:17:07:703,6.278,-0.006,0.309,0.197,0.047,16.668,22.727
19:17:07:704,6.279,0.155,0.265,0.069,0.049,16.809,22.506
19:17:07:781,6.356,0.145,0.124,0.047,0.815,16.247,22.740
19:17:07:782,6.357,0.074,-0.041,0.009,2.099,15.031,23.140
19:17:07:782,6.357,0.105,-0.222,-0.076,2.846,14.133,23.352
19:17:07:801,6.376,0.134,-0.228,-0.152,3.463,13.292,23.965
19:17:07:857,6.432,0.122,-0.063,-0.227,3.401,13.656,25.109
19:17:07:858,6.433,0.181,-0.040,-0.245,3.475,14.139,25.848
19:17:07:88,6.455,0.119,-0.021,-0.213,3.597,15.449,26.645
19:17:08:018,6.593,0.091,-0.046,-0.231,3.883,16.955,26.713
19:17:08:018,6.593,0.075,-0.112,-0.204,3.984,17.235,26.344
19:17:08:019,6.594,0.064,-0.151,-0.181,3.929,17.490,25.629
19:17:08:04,6.615,0.064,-0.117,-0.164,3.536,17.689,24.988
19:17:08:041,6.616,0.054,-0.099,-0.168,3.116,17.842,24.633
19:17:08:063,6.638,0.062,-0.082,-0.144,2.122,18.111,24.015
19:17:08:09,6.665,0.068,-0.054,-0.100,1.568,18.278,23.730
19:17:08:116,6.691,0.076,-0.034,-0.065,0.711,18.613,23.274
19:17:08:142,6.717,0.096,0.040,-0.011,-0.324,18.840,22.545
19:17:08:17,6.745,0.081,0.055,0.067,-1.155,19.099,21.873
19:17:08:195,6.770,0.099,0.014,0.367,-2.711,19.720,20.522
19:17:08:251,6.826,0.183,-0.005,0.420,-4.206,20.232,19.414
19:17:08:251,6.826,-0.075,0.231,0.255,-6.318,23.057,18.412
19:17:08:273,6.848,-0.167,0.014,0.178,-6.760,25.396,18.281
19:17:08:3,6.874,-0.019,-0.017,-0.012,-5.439,27.883,18.380
19:17:08:353,6.928,-0.130,-0.019,-0.011,-3.561,30.894,17.472
19:17:08:381,6.956,-0.139,-0.049,-0.013,-2.199,32.520,17.286
19:17:08:382,6.957,-0.111,-0.064,0.020,-0.226,34.304,16.674
19:17:08:435,7.010,-0.098,0.008,0.051,0.628,35.405,15.985
19:17:08:435,7.010,-0.079,0.099,0.053,0.896,36.797,14.592
19:17:08:488,7.063,-0.153,0.210,0.080,0.071,37.722,13.086
19:17:08:488,7.063,-0.164,0.320,0.079,-0.752,37.710,12.123
19:17:08:51,7.084,-0.182,0.305,0.172,-1.975,36.442,10.783
19:17:08:536,7.111,-0.120,0.085,0.193,-2.576,34.285,10.123
19:17:08:562,7.137,-0.061,-0.137,0.138,-3.091,30.382,9.811
19:17:08:588,7.163,0.018,-0.061,0.032,-2.992,26.834,10.631
19:17:08:615,7.190,0.029,0.097,-0.015,-2.347,25.173,11.617
19:17:08:641,7.216,0.239,0.094,-0.112,-0.330,23.613,13.338
19:17:08:667,7.242,0.255,0.073,-0.142,1.136,24.133,14.964
19:17:08:722,7.297,0.223,-0.006,-0.123,3.081,26.561,17.961
19:17:08:723,7.298,0.213,-0.145,-0.099,3.994,29.065,19.929
19:17:08:804,7.379,0.208,-0.207,-0.120,4.670,32.982,22.561
19:17:08:805,7.380,0.184,-0.202,-0.108,5.016,36.057,24.431
19:17:08:806,7.381,0.199,-0.185,-0.118,5.262,37.162,25.155
19:17:08:825,7.400,0.231,-0.120,-0.110,5.427,37.432,25.512
19:17:08:88,7.455,0.247,-0.068,-0.064,5.355,37.166,25.346
19:17:08:881,7.456,0.311,-0.097,0.064,5.252,36.380,24.797
19:17:08:903,7.478,0.240,-0.099,0.207,5.012,36.461,24.480
19:17:08:959,7.534,0.216,-0.121,0.213,4.685,37.016,24.323
19:17:08:96,7.535,0.140,-0.128,0.137,3.672,38.786,23.906
19:17:08:983,7.558,0.086,-0.099,0.085,2.671,40.367,23.392
19:17:09:009,7.584,0.045,-0.085,0.074,1.231,42.716,22.359
19:17:09:034,7.609,0.045,0.028,0.086,0.475,43.965,21.638
19:17:09:061,7.636,0.025,0.117,0.149,-0.087,45.560,20.787
19:17:09:087,7.662,0.041,0.149,0.181,0.049,46.232,20.250
19:17:09:115,7.690,0.058,0.141,0.227,0.313,47.051,20.184
19:17:09:14,7.715,0.161,0.099,0.307,0.545,48.427,20.475
19:17:09:224,7.799,0.117,0.219,0.296,0.137,49.870,20.717
19:17:09:225,7.800,0.160,0.193,0.197,-0.532,51.418,21.306
19:17:09:248,7.823,0.171,0.296,-0.054,-0.742,51.621,21.638
19:17:09:248,7.823,0.113,0.187,-0.037,-0.012,50.784,21.617
19:17:09:3,7.875,0.014,-0.015,-0.048,0.509,49.824,21.577
19:17:09:301,7.876,0.021,-0.204,-0.089,1.308,48.369,21.611
19:17:09:324,7.899,0.035,-0.213,-0.181,1.764,47.358,22.081
19:17:09:35,7.924,0.034,-0.145,-0.225,1.906,47.267,22.853
19:17:09:376,7.951,0.037,-0.092,-0.253,2.151,47.923,24.201
19:17:09:402,7.977,0.021,-0.079,-0.228,2.266,48.842,24.949
19:17:09:43,8.005,-0.032,-0.012,-0.221,2.368,50.288,25.455
19:17:09:456,8.031,-0.037,-0.072,-0.145,2.478,51.058,25.254
19:17:09:481,8.056,-0.028,-0.073,-0.156,2.668,51.577,24.272
19:17:09:507,8.082,-0.030,-0.073,-0.140,2.644,51.475,22.971
19:17:09:534,8.108,-0.030,-0.064,-0.145,2.009,51.437,21.835
19:17:09:559,8.134,-0.015,-0.063,-0.102,0.961,51.694,20.460
19:17:09:586,8.161,0.005,-0.067,-0.065,0.257,52.121,19.803
19:17:09:612,8.187,0.020,-0.057,-0.028,-0.559,52.982,19.426
19:17:09:64,8.215,0.031,-0.041,-0.012,-1.509,53.966,19.077
19:17:09:665,8.240,0.037,-0.031,0.003,-2.162,54.860,18.714
19:17:09:691,8.266,0.045,-0.038,0.050,-2.983,56.435,17.907
19:17:09:717,8.292,0.191,-0.067,0.191,-3.470,57.684,17.226
19:17:09:743,8.318,0.378,-0.006,0.356,-4.648,59.875,15.572
19:17:09:77,8.345,0.243,0.086,0.168,-6.859,63.872,13.558
19:17:09:796,8.371,-0.055,0.306,0.400,-8.145,68.106,12.685
19:17:09:852,8.427,-0.059,0.097,0.377,-7.977,72.251,12.223
19:17:09:852,8.427,-0.081,-0.006,0.128,-6.627,72.809,12.203
19:17:09:875,8.450,-0.081,-0.066,0.187,-3.876,72.885,11.969
19:17:09:901,8.476,-0.003,-0.033,0.083,-1.872,72.211,11.850
19:17:09:927,8.502,-0.012,0.030,0.083,0.487,71.665,10.894
19:17:09:954,8.529,-0.039,0.174,0.112,1.520,72.735,9.768
19:17:09:98,8.555,-0.053,0.306,0.138,1.373,73.928,9.002
19:17:10:006,8.581,-0.030,0.208,0.355,0.428,75.349,8.112
19:17:10:032,8.607,-0.027,-0.052,0.360,-0.447,75.505,7.558
19:17:10:059,8.634,-0.058,-0.202,0.234,-1.666,73.497,7.147
19:17:10:114,8.689,-0.058,0.014,0.065,-2.439,69.639,7.905
19:17:10:114,8.689,-0.011,0.147,-0.073,-2.432,67.122,9.056
19:17:10:137,8.712,0.028,0.103,-0.160,-1.329,64.924,11.675
19:17:10:163,8.738,0.084,0.055,-0.249,-0.205,64.972,13.610
19:17:10:19,8.765,0.108,-0.109,-0.181,1.234,67.178,16.887
19:17:10:216,8.791,0.132,-0.171,-0.093,1.781,69.323,19.066
19:17:10:242,8.817,0.156,-0.151,-0.042,1.971,72.247,21.306
19:17:10:269,8.844,0.271,-0.147,-0.161,2.524,73.233,21.910
19:17:10:295,8.870,0.286,-0.127,-0.134,3.124,72.554,21.924
19:17:10:321,8.896,0.265,-0.086,-0.106,3.747,71.795,21.860
19:17:10:347,8.922,0.205,-0.120,-0.105,3.843,71.806,21.582
19:17:10:376,8.951,0.158,-0.150,-0.067,3.504,72.997,21.055
19:17:10:401,8.975,0.106,-0.130,-0.031,2.825,74.992,20.332
19:17:10:426,9.001,0.099,-0.124,-0.005,2.182,76.841,19.638
19:17:10:453,9.028,0.083,-0.100,0.049,1.158,79.054,18.321
19:17:10:478,9.053,0.091,-0.081,0.084,0.504,80.242,17.236
19:17:10:505,9.080,0.108,-0.032,0.142,-0.226,81.394,15.489
19:17:10:531,9.106,0.146,0.092,0.153,-0.601,82.170,13.670
19:17:10:557,9.132,0.165,0.112,0.277,-0.586,82.768,12.621
19:17:10:584,9.159,0.235,0.082,0.186,-0.498,83.391,11.151
19:17:10:609,9.184,0.214,0.069,0.239,-0.810,84.956,10.429
19:17:10:636,9.211,0.178,0.078,0.174,-1.714,88.553,9.956
19:17:10:662,9.237,0.112,0.266,0.304,-2.630,91.139,9.896
19:17:10:688,9.263,0.124,0.260,0.288,-3.628,94.072,10.406
19:17:10:715,9.289,0.114,0.422,0.229,-4.024,94.149,11.114
19:17:10:742,9.317,0.103,0.198,0.128,-3.407,93.257,11.607
19:17:10:768,9.343,0.031,-0.201,0.042,-1.523,90.568,12.719
19:17:10:823,9.398,-0.033,-0.102,-0.001,-0.501,88.978,13.713
19:17:10:823,9.398,-0.038,0.005,-0.094,0.708,87.046,15.565
19:17:10:846,9.421,-0.080,0.079,-0.101,1.656,86.156,17.495
19:17:10:872,9.447,-0.102,0.106,-0.096,2.102,85.961,18.558
19:17:10:899,9.474,-0.121,-0.008,-0.093,2.516,86.149,19.742
19:17:10:925,9.500,-0.138,-0.068,-0.101,2.653,86.427,20.347
19:17:10:951,9.526,-0.129,-0.188,-0.082,2.791,87.029,21.305
19:17:10:978,9.553,-0.115,-0.196,-0.099,2.812,87.396,22.062
19:17:11:004,9.579,-0.139,-0.160,-0.124,2.592,88.233,23.215
19:17:11:03,9.605,-0.111,-0.134,-0.113,1.264,89.315,23.351
19:17:11:085,9.660,-0.108,-0.104,-0.113,0.820,89.790,23.638
19:17:11:085,9.660,-0.099,-0.083,-0.100,0.154,90.311,23.604
19:17:11:108,9.683,-0.043,-0.122,-0.076,-0.302,90.367,23.254
19:17:11:134,9.709,0.020,-0.133,-0.045,-1.141,90.368,22.303
19:17:11:161,9.736,0.181,-0.127,-0.019,-2.372,90.240,21.003
19:17:11:189,9.764,0.712,-0.118,0.093,-3.738,90.402,19.776
19:17:11:243,9.818,0.379,0.026,0.084,-7.548,91.074,17.171
19:17:11:243,9.818,0.174,0.142,-0.044,-9.825,93.206,15.598
19:17:11:266,9.841,0.185,0.287,0.486,-9.943,97.157,14.919
19:17:11:292,9.867,0.024,-0.011,0.106,-6.972,99.308,14.733
19:17:11:345,9.920,0.012,-0.026,-0.008,-4.494,100.080,13.719
19:17:11:378,9.953,0.090,0.029,0.243,-1.037,100.379,12.752
19:17:11:378,9.953,0.067,0.159,0.054,0.636,99.083,11.867
19:17:11:379,9.953,0.004,0.268,0.103,1.442,97.723,9.948
19:17:11:424,9.999,-0.008,0.416,0.168,1.041,97.464,8.634
19:17:11:452,10.027,0.069,0.219,0.264,-0.227,97.457,6.836
19:17:11:453,10.028,0.076,-0.118,0.278,-1.555,96.890,5.481
19:17:11:506,10.081,0.053,-0.212,0.245,-2.241,95.920,5.059
19:17:11:506,10.081,0.006,0.007,0.163,-3.009,93.807,5.329
19:17:11:531,10.106,-0.043,0.060,0.051,-3.052,92.349,6.098
19:17:11:555,10.130,-0.033,0.092,0.021,-2.244,91.041,7.965
19:17:11:639,10.214,-0.013,0.036,-0.046,-0.952,91.368,10.353
19:17:11:64,10.215,-0.001,-0.061,-0.043,-0.185,92.300,12.302
19:17:11:64,10.215,0.015,-0.105,-0.049,0.797,93.931,15.199
19:17:11:687,10.262,0.086,-0.133,-0.130,1.705,94.480,16.722
19:17:11:986,10.561,0.162,-0.178,-0.232,3.542,94.349,18.318
19:17:11:986,10.561,0.163,-0.169,-0.243,4.590,93.675,19.096
19:17:11:986,10.561,0.145,-0.122,-0.156,5.204,92.959,19.866
19:17:11:987,10.562,0.185,-0.142,-0.221,5.085,92.411,19.772
19:17:12:012,10.587,0.204,-0.162,-0.166,4.781,92.642,19.540
19:17:12:013,10.588,0.172,-0.139,-0.055,3.906,94.311,19.228
19:17:12:014,10.589,0.139,-0.103,-0.004,3.091,95.861,18.843
19:17:12:014,10.589,0.165,-0.108,0.016,1.799,98.311,18.044
19:17:12:063,10.638,0.173,-0.061,0.077,0.576,100.529,16.768
19:17:12:064,10.639,0.175,0.034,0.067,0.084,101.927,15.960
19:17:12:065,10.639,0.205,0.089,0.118,0.214,103.319,15.465
19:17:12:065,10.640,0.207,0.106,0.103,0.576,104.118,15.247
19:17:12:117,10.692,0.257,0.158,0.106,0.964,105.032,14.543
19:17:12:117,10.692,0.279,0.066,0.030,1.228,106.279,14.245
19:17:12:117,10.692,0.286,0.090,0.061,1.259,108.440,14.189
19:17:12:118,10.693,0.348,0.222,0.174,0.698,111.507,14.875
19:17:12:265,10.840,0.227,0.162,-0.004,0.330,112.773,15.353
19:17:12:326,10.901,0.147,0.268,-0.062,0.108,112.883,15.770
19:17:12:327,10.902,0.083,0.120,-0.027,-0.008,112.090,15.703
19:17:12:327,10.902,-0.027,-0.021,-0.045,0.615,110.974,15.858
19:17:12:327,10.902,-0.080,-0.231,0.026,1.150,109.993,16.444
19:17:12:378,10.952,-0.120,-0.190,0.018,1.458,110.068,17.013
19:17:12:379,10.953,-0.188,-0.066,-0.053,1.910,110.835,17.987
19:17:12:38,10.954,-0.209,-0.017,-0.043,2.356,111.735,18.653
19:17:12:38,10.955,-0.210,0.010,-0.016,3.099,113.412,19.441
19:17:12:397,10.972,-0.185,0.005,0.059,3.613,115.311,19.779
19:17:12:448,11.023,-0.143,-0.051,0.055,3.746,115.767,19.540
19:17:12:606,11.181,-0.108,-0.082,0.028,3.566,115.625,19.026
19:17:12:798,11.373,-0.089,-0.108,0.012,3.241,114.855,18.743
19:17:12:799,11.374,-0.107,-0.086,-0.019,2.520,113.405,18.417
19:17:12:799,11.374,-0.098,-0.096,-0.053,1.970,112.614,18.233
19:17:12:8,11.375,-0.095,-0.100,-0.063,1.063,112.358,17.963
19:17:12:824,11.399,0.013,-0.027,0.015,0.029,113.584,17.575
19:17:12:825,11.400,0.046,-0.003,0.065,-0.735,114.931,17.154
19:17:12:825,11.400,0.093,0.110,0.122,-2.077,117.999,16.605
19:17:12:826,11.401,0.625,0.163,0.238,-2.906,120.834,16.889
19:17:12:85,11.425,0.818,0.204,0.242,-4.359,125.272,18.887
19:17:12:851,11.426,0.515,0.319,0.344,-6.590,129.280,22.550
19:17:12:852,11.427,0.603,0.487,0.468,-7.578,131.701,26.580
19:17:12:853,11.428,0.580,0.487,0.327,-7.270,134.130,34.564
19:17:12:903,11.478,0.653,0.602,0.418,-7.793,134.822,40.848
19:17:12:904,11.479,0.494,0.677,0.361,-10.853,135.772,47.898
19:17:12:928,11.503,-0.198,0.711,-0.041,-15.854,129.483,73.456
19:17:12:929,11.504,-0.410,0.234,-0.156,-6.553,127.329,79.700
19:17:12:93,11.505,-0.354,0.162,-0.111,76.375,126.006,89.195
19:17:12:931,11.506,-0.431,0.013,-0.180,134.731,125.521,95.464
19:17:12:947,11.522,-0.411,-0.404,-0.196,151.512,124.366,105.180
19:17:12:972,11.547,-0.352,-0.550,-0.232,158.147,122.712,115.572
19:17:12:998,11.573,-0.211,-0.570,-0.209,161.241,121.128,122.483
19:17:13:025,11.600,-0.105,-0.689,-0.089,163.442,118.364,131.910
19:17:13:051,11.626,0.004,-0.617,-0.054,164.191,116.465,137.315
19:17:13:078,11.653,0.031,-0.489,-0.056,165.703,113.795,144.296
19:17:13:104,11.679,0.096,-0.649,-0.098,166.272,111.743,149.802
19:17:13:131,11.705,0.169,-0.633,-0.121,166.926,110.207,152.865
19:17:13:185,11.760,0.137,-0.499,-0.228,168.669,106.997,156.337
19:17:13:186,11.761,0.113,-0.439,-0.245,169.503,104.924,158.126
19:17:13:238,11.813,0.108,-0.359,-0.231,170.271,102.777,160.327
19:17:13:238,11.813,0.161,-0.288,-0.119,171.323,101.358,161.711
19:17:13:261,11.836,0.184,-0.119,-0.116,172.643,100.257,162.346
19:17:13:316,11.891,0.178,0.010,-0.069,174.359,98.927,163.249
19:17:13:317,11.892,0.073,-0.015,0.021,175.143,98.383,163.670
19:17:13:34,11.915,-0.015,-0.036,-0.047,176.260,97.166,164.008
19:17:13:426,12.001,0.066,0.105,-0.067,177.703,95.828,164.302
19:17:13:426,12.001,0.112,0.085,-0.096,177.989,95.108,164.338
19:17:13:426,12.001,0.051,-0.045,-0.056,177.404,94.512,164.693
19:17:13:446,12.021,0.033,-0.027,-0.190,177.297,93.639,164.738
19:17:13:471,12.046,0.043,0.045,-0.178,177.220,92.797,164.746
19:17:13:497,12.072,0.073,0.053,-0.118,176.879,92.490,164.935
19:17:13:523,12.098,0.071,0.078,-0.109,176.375,92.375,165.294
19:17:13:55,12.125,0.013,-0.177,-0.063,175.904,92.335,165.553
19:17:13:576,12.151,-0.034,0.072,-0.090,176.415,92.570,165.437
19:17:13:602,12.177,-0.066,-0.024,-0.141,177.000,93.161,163.150
19:17:13:629,12.203,0.016,0.143,0.007,176.960,94.242,160.741
19:17:13:656,12.231,0.085,0.120,0.168,176.905,96.263,157.922
19:17:13:682,12.257,0.088,-0.291,0.010,175.053,97.920,157.533
19:17:13:71,12.285,0.112,-0.153,0.056,174.424,98.471,157.433
19:17:13:711,12.286,0.069,-0.088,0.154,174.214,98.794,156.391
19:17:13:763,12.338,-0.068,-0.133,0.104,174.510,98.686,156.001
19:17:13:763,12.338,-0.059,0.211,0.194,176.898,99.584,155.408
19:17:13:786,12.361,-0.015,0.063,0.086,178.032,100.130,154.918
19:17:13:812,12.387,0.038,-0.187,-0.118,177.911,100.172,154.632
19:17:13:868,12.443,0.073,-0.124,-0.069,178.134,100.367,154.805
19:17:13:868,12.443,0.080,-0.145,-0.086,178.349,100.538,154.747
19:17:13:891,12.466,0.057,-0.101,-0.041,178.654,101.056,154.568
19:17:13:917,12.492,0.052,-0.088,-0.008,179.077,101.916,154.450
19:17:13:972,12.547,0.032,-0.052,-0.019,179.713,103.386,154.277
19:17:13:973,12.548,0.033,-0.042,0.012,-179.789,105.031,154.092
19:17:13:997,12.572,0.046,-0.044,0.025,-179.640,106.200,153.999
19:17:14:023,12.598,0.113,-0.029,0.053,-179.544,108.112,153.939
19:17:14:049,12.624,0.161,-0.040,0.089,-179.513,109.474,153.939
19:17:14:104,12.679,0.223,-0.037,0.126,-179.558,111.324,153.918
19:17:14:104,12.679,0.218,-0.039,0.048,-179.552,112.402,153.725
19:17:14:128,12.703,0.182,-0.065,0.037,-179.789,112.773,153.481
19:17:14:154,12.729,0.134,-0.044,0.064,179.807,113.648,153.153
19:17:14:18,12.755,0.122,-0.064,0.030,179.646,114.179,152.950
19:17:14:265,12.839,0.132,-0.003,0.092,179.756,115.308,152.383
19:17:14:266,12.840,0.115,0.022,0.147,179.774,115.737,151.562
19:17:14:266,12.841,0.142,0.009,0.186,179.550,116.054,149.965
19:17:14:285,12.860,0.176,-0.001,0.154,178.707,115.869,148.184
19:17:14:341,12.916,0.077,0.003,0.145,178.289,115.447,147.142
19:17:14:341,12.916,0.164,0.251,0.255,178.513,114.488,145.902
19:17:14:363,12.938,0.079,0.277,0.118,178.505,113.566,145.950
19:17:14:39,12.965,0.032,0.217,0.046,178.280,110.715,145.784
19:17:14:417,12.992,-0.023,0.045,-0.090,177.830,107.801,145.394
19:17:14:443,13.018,-0.068,-0.053,-0.182,177.216,105.749,144.929
19:17:14:469,13.044,-0.080,-0.201,-0.143,176.136,103.809,143.970
19:17:14:495,13.070,-0.044,-0.326,-0.002,175.566,102.830,143.106
19:17:14:55,13.125,0.010,-0.336,-0.055,175.743,101.233,142.083
19:17:14:551,13.126,-0.026,-0.201,-0.173,177.358,99.044,141.456
19:17:14:574,13.148,-0.035,-0.098,-0.159,178.720,98.049,140.958
19:17:14:601,13.176,-0.044,-0.014,-0.080,-179.104,97.152,140.617
19:17:14:627,13.202,-0.028,0.017,-0.061,-177.856,97.314,140.825
19:17:14:653,13.228,0.011,-0.014,-0.012,-176.503,97.999,141.583
19:17:14:679,13.254,0.056,-0.029,0.004,-175.898,98.871,142.098
19:17:14:705,13.280,0.028,-0.052,-0.022,-175.299,99.879,142.688
19:17:14:761,13.335,0.045,-0.135,-0.055,-174.762,100.229,143.094
19:17:14:761,13.336,0.022,-0.072,-0.191,-174.270,100.114,143.325
19:17:14:783,13.358,0.060,-0.022,-0.207,-173.509,99.710,143.414
19:17:14:812,13.387,0.055,-0.019,-0.213,-173.199,99.838,143.481
19:17:14:837,13.412,-0.031,0.016,-0.235,-173.226,100.089,143.762
19:17:14:863,13.438,0.002,-0.062,-0.140,-174.048,100.875,143.995
19:17:14:918,13.493,0.139,-0.181,-0.003,-174.612,101.433,143.956
19:17:14:918,13.493,0.083,-0.104,-0.139,-175.028,101.826,144.110
19:17:14:941,13.516,0.041,-0.049,-0.214,-175.471,101.918,143.964
19:17:14:967,13.542,0.032,-0.059,-0.188,-176.904,103.775,143.447
19:17:14:993,13.568,0.122,-0.210,-0.226,-178.152,105.475,143.122
19:17:15:02,13.595,0.096,-0.298,-0.263,-179.677,107.364,142.380
19:17:15:046,13.621,-0.010,-0.295,-0.302,-179.824,108.668,141.025
19:17:15:073,13.648,-0.010,-0.256,-0.284,-178.940,110.070,140.006
19:17:15:099,13.674,-0.018,-0.273,-0.228,-176.320,113.249,137.871
19:17:15:125,13.700,-0.156,-0.211,-0.209,-173.368,115.796,135.746
19:17:15:151,13.726,-0.388,0.010,-0.131,-166.853,120.722,131.642
19:17:15:179,13.754,-0.217,0.082,0.107,-157.464,128.021,125.896
19:17:15:204,13.779,-0.036,-0.034,0.189,-150.404,133.882,121.114
19:17:15:259,13.834,-0.066,-0.176,0.270,-139.198,142.383,113.828
19:17:15:259,13.834,-0.018,-0.150,0.185,-130.601,147.160,109.202
19:17:15:282,13.857,0.246,-0.268,0.190,-113.301,155.765,100.407
19:17:15:309,13.883,0.031,0.021,0.576,-94.611,164.206,91.814
19:17:15:335,13.910,0.064,0.005,0.499,-81.973,168.855,86.999
19:17:15:39,13.965,0.285,-0.161,0.315,-58.710,175.009,78.868
19:17:15:391,13.966,0.370,0.097,0.424,-45.439,178.047,74.372
19:17:15:414,13.989,0.513,0.369,0.482,-34.779,179.203,69.642
19:17:15:439,14.014,0.346,0.129,0.322,-31.531,177.621,67.779
19:17:15:466,14.041,-0.418,0.394,0.093,-26.695,172.119,68.564
19:17:15:493,14.067,0.598,0.542,0.149,-10.384,169.271,68.737
19:17:15:519,14.094,0.555,0.345,0.302,7.256,164.545,65.403
19:17:15:574,14.149,-0.068,-0.160,0.186,26.174,152.081,58.004
19:17:15:575,14.150,0.105,-0.417,-0.247,34.923,143.850,53.960
19:17:15:597,14.172,-0.001,-0.056,-0.391,39.368,134.112,48.126
19:17:15:623,14.198,-0.004,-0.114,-0.354,37.991,129.964,45.078
19:17:15:65,14.225,-0.029,-0.195,-0.218,35.687,130.402,44.955
19:17:15:676,14.251,0.071,0.148,-0.091,31.121,133.207,45.719
19:17:15:703,14.278,0.095,0.141,-0.119,28.236,135.329,46.145
19:17:15:729,14.304,0.058,-0.049,-0.169,25.057,137.867,45.724
19:17:15:755,14.330,-0.009,-0.145,-0.224,23.711,139.426,45.190
19:17:15:81,14.385,-0.030,-0.237,-0.256,21.491,141.663,43.357
19:17:15:811,14.386,-0.143,-0.183,-0.218,17.743,145.562,41.309
19:17:15:833,14.408,-0.209,-0.091,-0.155,14.342,149.122,39.406
19:17:15:861,14.436,-0.277,0.282,0.000,7.429,157.157,34.915
19:17:15:886,14.461,-0.317,0.738,0.061,4.386,162.102,29.964
19:17:15:917,14.492,0.017,0.864,0.087,4.510,168.131,24.086
19:17:15:917,14.492,0.420,0.577,0.135,5.901,174.220,19.256
19:17:15:968,14.543,0.519,0.300,0.084,6.511,177.095,14.339
19:17:15:969,14.544,0.324,-0.067,0.241,8.254,177.118,9.090
19:17:16:02,14.595,0.268,-0.062,0.207,9.699,174.888,6.966
19:17:16:021,14.596,0.207,-0.092,0.192,11.382,171.168,5.165
19:17:16:044,14.619,0.045,-0.065,0.226,12.757,169.666,5.521
19:17:16:069,14.644,0.071,-0.022,0.285,13.408,170.619,7.096
19:17:16:096,14.671,0.039,-0.087,0.312,14.044,174.351,10.890
19:17:16:124,14.699,0.057,-0.137,0.313,14.133,177.650,13.770
19:17:16:149,14.724,0.090,-0.214,0.319,13.667,-177.195,17.907
19:17:16:175,14.750,0.093,-0.213,0.305,13.102,-174.353,19.942
19:17:16:201,14.776,0.121,-0.217,0.256,12.222,-171.780,21.386
19:17:16:227,14.802,0.091,-0.245,0.195,11.504,-171.473,21.145
19:17:16:255,14.830,0.069,-0.208,0.188,10.933,-172.397,20.322
19:17:16:28,14.855,0.065,-0.148,0.069,9.559,-174.868,18.501
19:17:16:306,14.881,0.343,-0.065,-1.182,8.005,-176.987,17.060
19:17:16:332,14.907,1.186,0.286,-0.945,4.705,176.919,14.625
19:17:16:36,14.935,-0.401,0.041,-0.340,4.759,170.163,12.700
19:17:16:414,14.989,0.045,-0.265,-0.227,5.779,168.234,12.424
19:17:16:415,14.990,-0.019,0.001,-0.102,6.141,166.041,13.562
19:17:16:437,15.012,0.001,-0.026,-0.092,5.773,165.170,13.531
19:17:16:463,15.038,0.078,0.169,-0.014,4.983,164.470,14.245
19:17:16:49,15.065,-0.013,0.144,0.015,4.083,163.584,15.332
19:17:16:545,15.120,0.000,0.169,0.028,3.798,163.397,15.911
19:17:16:546,15.121,-0.005,0.084,0.029,4.272,163.340,17.375
19:17:16:598,15.173,-0.078,0.075,0.023,4.829,163.639,18.102
19:17:16:598,15.173,-0.049,0.035,0.008,5.704,164.855,18.700
19:17:16:621,15.196,-0.053,0.042,0.007,6.112,165.915,18.853
19:17:16:648,15.223,0.002,0.126,0.025,6.257,168.308,18.524
19:17:16:674,15.249,0.134,0.057,0.012,6.519,171.137,17.737
19:17:16:729,15.304,0.165,-0.062,0.040,6.760,172.988,16.715
19:17:16:729,15.304,0.121,-0.215,0.179,7.243,174.419,14.725
19:17:16:752,15.327,-0.013,-0.114,0.250,7.719,175.317,13.570
19:17:16:778,15.353,0.060,-0.041,0.250,8.421,177.570,12.796
19:17:16:865,15.440,0.136,0.052,0.241,9.041,-179.258,12.880
19:17:16:865,15.440,0.158,0.112,0.251,9.188,-177.199,12.967
19:17:16:865,15.440,0.226,0.164,0.254,9.015,-174.536,12.900
19:17:16:884,15.458,0.272,0.033,0.202,8.747,-173.594,12.651
19:17:16:91,15.485,0.250,-0.090,0.182,8.150,-173.761,12.043
19:17:16:966,15.541,0.206,-0.117,0.147,7.651,-174.876,11.703
19:17:16:966,15.541,0.169,-0.088,0.113,6.759,-177.364,11.557
19:17:17:017,15.592,0.119,-0.047,0.066,5.731,179.719,11.853
19:17:17:071,15.646,0.092,-0.049,0.069,5.002,177.827,12.256
19:17:17:072,15.647,0.033,-0.065,0.058,3.982,175.394,13.048
19:17:17:096,15.671,0.010,-0.065,0.032,3.369,174.266,13.633
19:17:17:097,15.672,0.020,-0.070,-0.035,2.623,173.347,14.489
19:17:17:12,15.695,0.019,-0.068,-0.135,1.839,172.981,15.000
19:17:17:203,15.778,0.030,-0.099,-0.204,1.345,172.658,15.198
19:17:17:203,15.778,-0.003,0.057,-0.112,0.511,172.757,15.118
19:17:17:229,15.804,-0.017,-0.004,-0.053,0.453,173.849,14.463
19:17:17:229,15.804,0.106,0.019,0.018,0.667,175.772,13.718
19:17:17:251,15.826,0.163,-0.003,0.069,1.555,177.640,13.074
19:17:17:364,15.939,0.226,0.022,0.084,2.178,178.825,12.210
19:17:17:365,15.940,0.270,-0.005,0.051,3.244,179.719,10.957
19:17:17:365,15.940,0.259,0.051,0.083,3.842,179.410,9.920
19:17:17:385,15.960,0.257,0.123,0.130,4.338,178.144,8.054
19:17:17:386,15.961,0.262,0.157,0.168,4.551,177.219,6.798
19:17:17:467,16.042,0.269,0.237,0.220,4.879,176.442,5.117
19:17:17:467,16.042,0.334,0.314,0.198,5.208,176.759,3.857
19:17:17:468,16.043,0.372,0.018,0.090,5.587,177.395,3.402
19:17:17:487,16.062,0.390,-0.269,-0.020,5.817,178.311,3.288
19:17:17:571,16.146,0.358,-0.298,-0.024,5.564,178.550,3.535
19:17:17:572,16.147,0.334,-0.115,0.037,4.686,177.426,4.787
19:17:17:573,16.148,0.292,0.034,0.195,4.195,174.578,6.833
19:17:17:623,16.198,0.056,0.113,0.109,4.467,171.505,7.886
19:17:17:623,16.198,-0.119,0.205,0.057,5.939,166.881,9.374
19:17:17:674,16.249,-0.169,0.049,-0.064,7.439,164.105,10.670
19:17:17:675,16.250,-0.173,0.023,-0.020,9.756,160.719,12.922
19:17:17:699,16.274,-0.179,-0.069,0.045,11.131,159.845,14.268
19:17:17:724,16.299,-0.170,-0.126,0.064,12.381,160.655,16.618
19:17:17:781,16.356,-0.077,-0.146,0.098,12.636,163.538,19.323
19:17:17:781,16.356,-0.103,-0.159,0.097,12.296,165.673,20.991
19:17:17:803,16.378,-0.060,-0.114,0.047,11.314,168.146,22.933
19:17:17:828,16.403,-0.068,-0.096,-0.020,10.756,168.551,23.731
19:17:17:855,16.430,-0.084,-0.100,-0.078,10.545,166.944,24.081
19:17:17:881,16.456,-0.116,-0.109,-0.206,10.892,163.693,23.674
19:17:17:966,16.541,-0.026,-0.049,-0.270,11.069,161.988,23.533
19:17:17:966,16.541,0.149,0.010,-0.311,11.000,161.478,23.691
19:17:17:967,16.542,0.199,0.034,-0.309,10.665,162.676,23.785
19:17:18:016,16.591,0.224,-0.013,-0.129,9.725,166.979,24.572
19:17:18:038,16.613,0.090,-0.077,-0.019,7.621,175.109,25.562
19:17:18:066,16.641,0.083,-0.023,-0.008,6.840,178.776,25.764
19:17:18:091,16.666,0.223,0.095,-0.015,6.884,-179.692,26.096
19:17:18:117,16.692,0.128,0.085,-0.067,6.926,-177.869,25.611
19:17:18:176,16.751,0.189,0.094,-0.116,7.077,-177.059,25.387
19:17:18:176,16.751,0.222,0.110,-0.122,7.134,-175.708,24.885
19:17:18:177,16.752,0.221,0.135,-0.146,6.918,-175.290,24.171
19:17:18:226,16.801,0.233,0.097,-0.111,6.613,-175.805,23.298
19:17:18:227,16.802,0.144,0.102,-0.079,6.621,-177.386,21.560
19:17:18:248,16.823,0.082,0.281,-0.008,6.840,-178.546,20.792
19:17:18:275,16.850,0.097,0.514,0.163,5.980,179.231,18.030
19:17:18:359,16.934,-0.093,0.019,0.064,7.728,176.439,16.334
19:17:18:36,16.935,-0.037,0.118,0.305,8.608,174.583,17.618
19:17:18:361,16.936,-0.152,-0.029,0.332,9.877,173.610,16.741
19:17:18:409,16.984,-0.154,-0.011,0.338,10.772,174.144,17.529
19:17:18:41,16.985,-0.087,-0.127,0.311,11.719,176.772,18.849
19:17:18:434,17.009,-0.033,-0.066,0.315,11.778,178.808,19.803
19:17:18:517,17.092,0.061,-0.129,0.266,11.283,-178.638,20.632
19:17:18:518,17.093,0.116,-0.153,0.216,10.220,-177.617,20.312
19:17:18:518,17.093,0.114,-0.183,0.183,9.533,-178.132,19.574
19:17:18:538,17.113,0.054,-0.111,0.182,8.676,179.421,18.160
19:17:18:593,17.168,0.058,-0.054,0.177,8.289,177.006,17.245
19:17:18:594,17.169,-0.010,-0.017,0.198,7.910,172.976,15.968
19:17:18:645,17.220,-0.078,-0.004,0.211,7.672,169.923,14.981
19:17:18:646,17.221,-0.102,-0.025,0.187,7.603,168.946,14.641
19:17:18:698,17.272,-0.076,-0.026,0.173,7.418,169.611,14.824
19:17:18:699,17.273,-0.013,-0.053,0.133,7.128,171.092,15.277
19:17:18:721,17.296,0.023,-0.034,0.098,6.207,173.625,15.924
19:17:18:749,17.324,0.061,-0.052,0.016,4.927,175.523,16.136
19:17:18:774,17.349,0.087,-0.007,-0.019,4.054,176.065,15.899
19:17:18:829,17.404,0.105,-0.035,-0.145,3.145,175.979,15.059
19:17:18:83,17.405,0.104,-0.036,-0.292,2.661,175.567,14.199
19:17:18:852,17.427,0.021,0.141,-0.525,2.069,175.402,12.468
19:17:18:907,17.482,0.252,0.079,0.009,2.304,178.857,12.220
19:17:18:908,17.483,0.332,0.177,0.084,2.328,-173.062,12.000
19:17:18:958,17.533,0.458,0.083,-0.120,2.880,-171.138,11.143
19:17:19:072,17.647,0.303,0.060,0.077,3.991,-169.982,9.445
19:17:19:073,17.648,0.391,-0.110,-0.035,6.181,-169.688,7.698
19:17:19:073,17.648,0.279,0.096,0.118,7.132,-170.705,6.054
19:17:19:177,17.752,0.381,0.207,0.190,8.280,-172.313,1.552
19:17:19:177,17.752,0.436,0.316,0.215,8.305,-172.032,0.602
19:17:19:178,17.753,0.446,0.091,0.128,8.425,-171.571,-0.006
19:17:19:179,17.754,0.442,-0.023,0.064,8.465,-171.515,0.058
19:17:19:197,17.772,0.395,-0.254,0.011,8.419,-172.132,0.651
19:17:19:197,17.772,0.308,-0.270,0.050,8.309,-172.975,1.372
19:17:19:278,17.853,0.275,-0.111,0.095,8.074,-174.287,3.096
19:17:19:278,17.853,0.219,0.017,0.118,7.920,-175.047,5.728
19:17:19:279,17.854,0.135,0.099,0.174,7.730,-175.192,7.835
19:17:19:298,17.873,0.061,0.139,0.217,7.264,-175.253,11.458
19:17:19:325,17.900,-0.015,0.137,0.192,6.870,-175.458,14.095
19:17:19:351,17.926,-0.085,0.116,0.082,6.426,-176.373,18.098
19:17:19:464,18.039,-0.348,-0.022,-0.043,6.567,-178.307,21.776
19:17:19:466,18.041,-0.505,-0.209,-0.195,7.304,179.876,23.972
19:17:19:466,18.041,-0.666,-0.467,-0.273,9.388,177.208,26.449
19:17:19:467,18.042,-0.572,-0.316,-0.372,11.150,176.249,27.054
19:17:19:57,18.145,-0.570,-0.134,-0.454,13.868,175.435,25.678
19:17:19:57,18.145,-0.466,-0.006,-0.326,15.995,174.524,23.302
19:17:19:571,18.146,-0.412,0.045,-0.107,16.473,174.728,21.666
19:17:19:572,18.147,-0.262,0.048,-0.033,16.216,176.913,19.506
19:17:19:667,18.242,-0.117,-0.001,0.050,15.742,179.088,18.172
19:17:19:701,18.276,-0.062,-0.057,0.102,14.808,-176.890,16.062
19:17:19:702,18.277,0.032,-0.047,0.188,14.155,-173.862,14.696
19:17:19:702,18.277,0.113,-0.036,0.242,13.124,-168.598,12.888
19:17:19:719,18.294,0.361,0.024,0.266,11.840,-158.894,10.423
19:17:19:745,18.320,0.448,0.029,0.142,11.693,-154.629,8.543
19:17:19:771,18.346,0.470,0.086,0.052,11.614,-153.069,7.068
19:17:19:797,18.372,0.466,0.211,0.013,10.974,-152.408,4.549
19:17:19:853,18.428,0.498,0.307,-0.049,9.664,-152.018,2.397
19:17:19:853,18.428,0.500,0.293,-0.090,8.535,-151.152,1.473
19:17:19:876,18.451,0.451,-0.063,-0.113,7.087,-148.762,1.155
19:17:19:902,18.477,0.415,-0.230,-0.137,6.400,-146.506,1.687
19:17:19:958,18.533,0.405,-0.306,-0.126,5.622,-142.682,3.665
19:17:19:958,18.533,0.401,-0.040,-0.150,4.460,-139.500,6.673
19:17:19:981,18.556,0.383,0.037,-0.161,3.657,-138.164,8.868
19:17:20:036,18.611,0.328,0.244,-0.147,2.611,-137.817,11.771
19:17:20:037,18.612,0.262,0.297,-0.179,2.186,-139.307,13.322
19:17:20:06,18.635,-0.136,0.217,0.056,3.400,-147.566,13.697
19:17:20:086,18.661,-0.195,-0.094,0.131,5.245,-154.419,15.031
19:17:20:112,18.687,0.158,-0.041,-0.033,5.989,-157.969,16.399
19:17:20:139,18.714,-0.201,-0.065,0.207,6.528,-162.307,18.293
19:17:20:164,18.739,-0.132,-0.093,0.165,6.573,-162.934,19.788
19:17:20:22,18.795,-0.092,-0.051,0.159,6.386,-162.192,22.209
19:17:20:221,18.796,-0.102,-0.099,0.157,6.301,-161.342,23.805
19:17:20:244,18.819,-0.086,-0.110,0.161,6.346,-159.981,25.792
19:17:20:27,18.845,-0.072,-0.145,0.156,6.741,-158.906,27.013
19:17:20:354,18.929,-0.103,-0.156,0.091,7.129,-158.307,27.399
19:17:20:355,18.930,-0.196,-0.126,0.104,7.696,-157.497,27.397
19:17:20:356,18.931,-0.122,-0.060,0.080,8.356,-157.008,27.353
19:17:20:378,18.953,-0.061,-0.108,0.031,9.729,-156.080,27.523
19:17:20:378,18.953,-0.065,-0.027,-0.019,10.563,-154.361,26.753
19:17:20:43,19.005,-0.105,0.015,-0.014,10.574,-152.873,25.688
19:17:20:431,19.006,-0.024,0.059,-0.002,10.286,-151.045,23.566
19:17:20:483,19.058,0.065,0.114,0.026,10.131,-150.109,21.690
19:17:20:483,19.058,0.082,0.144,0.058,10.109,-149.715,18.032
19:17:20:506,19.081,0.156,0.324,0.177,10.324,-149.281,13.922
19:17:20:532,19.107,0.203,0.396,0.229,10.673,-148.772,11.285
19:17:20:559,19.134,0.317,0.394,0.263,12.012,-146.733,8.393
19:17:20:586,19.161,0.455,0.241,0.100,13.428,-144.287,7.608
19:17:20:611,19.186,0.368,-0.079,0.003,15.736,-138.912,7.515
19:17:20:637,19.212,0.327,-0.188,-0.034,16.996,-134.565,8.309
19:17:20:664,19.239,0.296,-0.300,-0.055,18.175,-127.792,10.727
19:17:20:69,19.265,0.319,-0.151,-0.079,18.253,-121.638,13.806
19:17:20:717,19.292,0.323,-0.070,-0.082,17.867,-118.700,15.838
19:17:20:743,19.318,0.317,-0.009,-0.041,17.002,-115.303,18.710
19:17:20:769,19.344,0.300,0.185,-0.088,16.313,-113.845,20.809
19:17:20:795,19.370,0.245,0.253,-0.085,14.788,-111.359,24.838
19:17:20:821,19.396,0.147,0.272,-0.039,11.906,-108.510,29.950
19:17:20:847,19.422,0.142,0.283,-0.110,8.934,-106.630,33.683
19:17:20:902,19.477,0.149,0.288,-0.213,3.890,-105.702,39.101
19:17:20:903,19.478,0.148,0.259,-0.103,0.902,-106.675,42.382
19:17:20:926,19.501,0.063,0.146,-0.028,-2.790,-109.268,47.379
19:17:20:952,19.527,0.095,0.156,-0.106,-5.431,-111.089,50.866
19:17:20:979,19.554,0.094,0.123,-0.006,-10.489,-114.130,56.150
19:17:21:005,19.580,0.084,0.025,0.079,-18.531,-117.495,61.887
19:17:21:031,19.606,0.049,0.106,-0.055,-26.844,-119.713,66.118
19:17:21:057,19.632,0.005,0.013,-0.034,-42.137,-124.384,72.935
19:17:21:084,19.658,0.011,-0.142,0.137,-54.478,-128.335,77.832
19:17:21:11,19.685,-0.053,-0.203,0.036,-77.554,-134.457,85.604
19:17:21:138,19.713,-0.109,-0.406,0.023,-98.889,-140.857,93.479
19:17:21:164,19.739,-0.200,-0.303,0.105,-109.998,-145.326,98.613
19:17:21:217,19.792,-0.300,-0.235,-0.027,-121.651,-151.681,105.698
19:17:21:218,19.793,-0.356,-0.297,-0.035,-127.608,-155.468,109.626
19:17:21:241,19.816,-0.355,-0.292,0.015,-134.387,-159.687,113.725
19:17:21:267,19.842,-0.322,-0.213,-0.062,-138.698,-161.132,115.467
19:17:21:353,19.928,-0.303,-0.247,-0.093,-141.645,-160.790,115.865
19:17:21:353,19.928,-0.099,-0.172,-0.007,-144.720,-159.585,116.154
19:17:21:353,19.928,0.031,0.099,0.013,-145.399,-158.908,116.397
19:17:21:373,19.948,0.176,0.221,0.017,-146.290,-157.832,116.480
19:17:21:399,19.973,0.196,0.218,0.121,-147.438,-157.103,116.087
19:17:21:425,20.000,0.126,0.242,0.190,-149.764,-156.162,115.010
19:17:21:451,20.026,0.051,-0.047,0.120,-152.923,-155.647,114.321
19:17:21:477,20.052,-0.011,-0.196,0.116,-154.832,-155.701,114.432
19:17:21:506,20.081,-0.062,-0.284,0.076,-156.531,-155.923,115.202
19:17:21:53,20.105,0.064,-0.141,0.095,-157.301,-155.677,115.518
19:17:21:557,20.132,0.177,-0.163,0.141,-158.897,-154.608,115.592
19:17:21:582,20.157,0.265,-0.128,0.108,-159.613,-153.801,115.602
19:17:21:638,20.213,0.258,-0.112,0.109,-159.430,-153.548,115.641
19:17:21:639,20.214,0.180,0.036,0.140,-158.231,-153.408,115.662
19:17:21:662,20.237,0.123,0.080,0.097,-157.365,-153.389,115.732
19:17:21:687,20.262,0.030,-0.027,0.043,-156.458,-153.392,115.925
19:17:21:714,20.289,-0.018,-0.085,0.004,-156.051,-152.842,116.142
19:17:21:74,20.315,-0.032,-0.091,-0.038,-155.230,-152.855,116.716
19:17:21:768,20.343,0.021,-0.072,-0.040,-154.739,-152.039,117.335
19:17:21:792,20.367,0.080,-0.065,-0.028,-154.785,-151.706,117.729
19:17:21:819,20.394,0.130,-0.084,-0.083,-154.914,-150.789,118.506
19:17:21:874,20.449,0.169,-0.037,-0.053,-154.631,-150.816,119.397
19:17:21:875,20.450,0.102,0.100,-0.057,-153.091,-151.057,121.656
19:17:21:897,20.472,0.169,-0.084,-0.089,-152.324,-151.765,124.095
19:17:21:924,20.499,0.115,-0.074,-0.071,-152.116,-152.056,125.769
19:17:21:979,20.554,0.054,-0.034,-0.111,-151.893,-152.694,128.167
19:17:21:98,20.555,0.041,-0.023,-0.058,-152.336,-152.627,129.481
19:17:22:002,20.577,0.053,0.029,-0.020,-153.432,-152.292,130.681
19:17:22:029,20.604,0.169,0.006,-0.021,-155.546,-150.532,131.036
19:17:22:055,20.630,0.181,-0.008,-0.027,-157.199,-149.474,130.943
19:17:22:081,20.656,0.154,0.002,-0.048,-159.819,-147.953,130.780
19:17:22:107,20.682,0.170,-0.002,-0.070,-161.536,-147.281,130.740
19:17:22:133,20.708,0.247,0.163,-0.021,-163.380,-146.438,130.747
19:17:22:161,20.735,0.338,0.249,-0.003,-164.410,-146.024,130.727
19:17:22:186,20.761,0.358,0.281,0.093,-165.800,-145.387,130.702
19:17:22:213,20.788,0.240,0.228,0.166,-166.953,-145.230,130.781
19:17:22:238,20.813,-0.013,-0.062,0.099,-168.004,-145.591,130.945
19:17:22:267,20.842,-0.222,-0.437,0.049,-169.505,-146.322,131.675
19:17:22:292,20.867,-0.173,-0.113,0.136,-169.188,-148.278,133.189
19:17:22:317,20.892,-0.144,-0.172,0.146,-169.490,-149.040,134.134
19:17:22:344,20.919,-0.096,-0.109,0.241,-170.783,-149.743,134.675
19:17:22:372,20.947,-0.017,-0.171,0.261,-172.268,-149.153,134.475
19:17:22:396,20.971,0.090,-0.169,0.223,-174.298,-148.010,134.099
19:17:22:425,21.000,0.167,-0.207,0.167,-175.148,-146.791,133.989
19:17:22:449,21.024,0.165,-0.205,0.160,-175.250,-145.914,134.013
19:17:22:477,21.052,0.117,-0.187,0.083,-174.256,-144.953,134.182
19:17:22:53,21.105,0.064,-0.153,0.033,-173.243,-144.701,134.377
19:17:22:531,21.106,0.019,-0.082,0.053,-171.282,-144.382,134.679
19:17:22:553,21.128,-0.010,-0.011,0.068,-169.873,-144.399,134.926
19:17:22:609,21.184,-0.031,0.050,0.101,-168.009,-144.200,135.350
19:17:22:609,21.184,-0.048,0.019,0.047,-166.802,-144.045,135.704
19:17:22:633,21.208,-0.096,0.000,0.024,-166.322,-143.868,135.878
19:17:22:659,21.234,-0.210,-0.030,-0.020,-166.152,-143.635,135.999
19:17:22:685,21.260,-0.139,-0.128,-0.041,-166.533,-143.273,136.010
19:17:22:712,21.287,-0.094,-0.146,-0.024,-167.208,-142.467,136.177
19:17:22:739,21.314,-0.120,-0.086,0.016,-167.342,-141.526,136.454
19:17:22:796,21.371,-0.156,-0.060,0.046,-167.027,-140.728,136.684
19:17:22:796,21.371,-0.151,-0.039,0.074,-166.166,-138.923,136.949
19:17:22:797,21.372,-0.125,-0.070,0.084,-165.557,-137.224,137.019
19:17:22:845,21.420,-0.082,0.093,0.305,-164.554,-133.697,136.593
19:17:22:846,21.421,-0.034,0.106,0.252,-164.052,-130.433,135.707
19:17:22:898,21.473,-0.015,-0.081,0.055,-164.498,-124.264,133.418
19:17:22:898,21.473,0.020,-0.324,-0.188,-166.876,-116.811,129.939
19:17:22:95,21.525,0.165,-0.186,-0.007,-169.211,-111.622,126.960
19:17:22:951,21.526,0.165,-0.221,-0.041,-172.126,-104.427,121.269
19:17:22:974,21.549,0.160,-0.465,-0.217,-174.584,-99.768,116.866
19:17:23:,21.575,0.197,-0.368,0.184,178.470,-94.457,110.612
19:17:23:026,21.601,0.180,-0.244,0.293,173.199,-90.247,104.401
19:17:23:052,21.627,0.076,-0.492,0.096,170.026,-87.080,100.273
19:17:23:079,21.654,0.316,-0.070,0.140,156.002,-82.192,94.914
19:17:23:106,21.681,0.586,0.569,0.462,120.782,-79.817,91.276
19:17:23:132,21.707,0.358,0.049,0.190,8.915,-74.719,84.270
19:17:23:157,21.732,0.125,-0.400,0.279,-6.007,-68.661,77.734
19:17:23:183,21.758,0.077,-0.305,0.232,-11.954,-65.226,74.282
19:17:23:21,21.785,0.372,0.304,0.305,-17.998,-61.616,69.829
19:17:23:236,21.811,0.440,0.077,0.196,-21.134,-59.267,66.443
19:17:23:262,21.837,0.355,0.125,0.127,-23.899,-54.719,61.113
19:17:23:29,21.865,0.175,0.263,-0.025,-22.528,-51.976,57.676
19:17:23:316,21.891,0.221,0.282,0.073,-16.326,-49.755,52.888
19:17:23:341,21.916,0.139,0.090,0.101,-8.657,-49.291,48.614
19:17:23:367,21.942,0.143,0.102,0.045,-3.826,-49.923,46.148
19:17:23:394,21.969,0.122,0.101,0.017,2.437,-52.170,42.630
19:17:23:42,21.995,0.122,0.093,-0.107,5.650,-54.102,40.107
19:17:23:476,22.050,0.041,0.104,-0.148,8.477,-56.299,35.677
19:17:23:476,22.051,-0.029,0.228,-0.177,9.190,-57.300,30.652
19:17:23:498,22.073,-0.007,0.288,-0.292,9.181,-57.493,27.387
19:17:23:526,22.101,-0.045,0.233,-0.438,9.431,-57.498,23.261
19:17:23:581,22.156,-0.068,0.130,-0.446,9.951,-57.770,21.197
19:17:23:581,22.156,-0.057,0.031,-0.374,10.863,-59.050,19.052
19:17:23:604,22.178,0.005,0.003,-0.283,11.591,-61.690,17.981
19:17:23:63,22.205,0.052,-0.013,-0.277,11.925,-63.859,17.753
19:17:23:685,22.260,0.061,0.079,-0.236,12.206,-67.139,17.655
19:17:23:686,22.261,0.097,0.184,-0.189,12.124,-68.913,17.724
19:17:23:709,22.284,0.122,0.317,-0.110,11.662,-70.285,18.167
19:17:23:735,22.310,0.254,0.569,-0.071,11.099,-70.307,18.708
19:17:23:761,22.336,0.171,0.447,-0.096,10.170,-69.313,19.904
19:17:23:787,22.362,0.004,-0.007,-0.199,9.843,-68.181,21.613
19:17:23:841,22.416,0.025,-0.199,-0.124,10.072,-68.634,23.036
19:17:23:869,22.444,0.132,-0.216,0.155,11.037,-70.832,25.783
19:17:23:869,22.444,0.185,-0.246,0.349,12.014,-72.257,27.849
19:17:23:892,22.467,0.248,-0.209,0.408,13.555,-72.700,30.896
19:17:23:975,22.549,0.330,-0.132,0.401,14.819,-71.101,32.980
19:17:23:975,22.550,0.348,-0.146,0.381,15.384,-69.119,33.743
19:17:24:,22.575,0.242,-0.113,0.270,15.695,-65.953,34.370
19:17:24:001,22.576,0.096,-0.084,0.210,15.695,-64.669,34.337
19:17:24:024,22.599,0.114,-0.133,0.230,15.564,-64.804,33.485
19:17:24:079,22.654,0.178,-0.087,0.188,15.441,-65.828,32.585
19:17:24:08,22.655,0.145,-0.041,0.178,15.468,-67.683,30.878
19:17:24:104,22.679,0.116,-0.003,0.160,15.615,-68.904,28.837
19:17:24:129,22.704,0.108,0.005,0.140,15.611,-69.058,27.591
19:17:24:155,22.730,-0.053,0.028,-0.032,15.542,-66.977,26.600
19:17:24:24,22.815,-0.071,-0.084,0.024,15.501,-65.139,26.256
19:17:24:24,22.815,-0.074,-0.072,0.002,15.034,-62.565,25.931
19:17:24:241,22.816,-0.013,-0.058,-0.055,14.338,-60.763,25.606
19:17:24:289,22.864,0.038,-0.059,-0.038,13.932,-60.288,25.230
19:17:24:289,22.864,0.076,0.006,-0.092,13.473,-59.757,24.529
19:17:24:312,22.887,0.073,-0.020,-0.098,13.388,-59.610,23.932
19:17:24:339,22.914,0.027,-0.031,-0.123,13.386,-59.461,22.933
19:17:24:365,22.940,0.037,-0.017,-0.078,13.140,-59.228,22.430
19:17:24:42,22.995,0.054,-0.015,-0.077,12.288,-58.655,21.853
19:17:24:477,23.051,-0.009,0.033,-0.019,11.135,-56.667,21.796
19:17:24:477,23.052,-0.021,0.113,0.044,10.043,-53.801,22.266
19:17:24:477,23.052,-0.292,0.374,-0.075,8.311,-47.606,23.569
19:17:24:525,23.100,-0.385,0.635,0.037,6.882,-44.542,23.710
19:17:24:526,23.101,-0.007,0.530,0.040,4.348,-43.958,21.581
19:17:24:549,23.124,-0.070,-0.024,-0.105,6.213,-45.514,19.575
19:17:24:604,23.179,-0.012,-0.156,-0.170,7.933,-48.193,20.472
19:17:24:605,23.180,0.170,-0.263,-0.031,10.064,-53.090,20.660
19:17:24:627,23.202,0.217,-0.214,0.001,11.007,-55.651,21.633
19:17:24:654,23.229,0.331,-0.037,0.053,11.959,-57.518,23.889
19:17:24:709,23.284,0.339,0.005,0.040,12.537,-57.501,26.284
19:17:24:71,23.285,0.342,0.005,0.025,12.837,-57.067,27.715
19:17:24:733,23.308,0.334,0.015,-0.057,13.018,-56.254,29.013
19:17:24:759,23.334,0.320,-0.078,-0.047,13.135,-55.986,29.304
19:17:24:785,23.360,0.290,-0.116,-0.037,13.297,-55.933,29.192
19:17:24:811,23.386,0.279,-0.129,-0.024,13.340,-56.129,29.102
19:17:24:837,23.412,0.277,-0.132,-0.006,13.275,-56.578,29.135
19:17:24:865,23.440,0.267,-0.102,0.010,12.389,-56.972,29.181
19:17:24:89,23.465,0.282,-0.089,0.035,11.979,-57.018,29.572
19:17:24:916,23.491,0.225,-0.104,0.043,11.144,-56.770,30.259
19:17:24:943,23.518,0.234,-0.080,0.069,10.479,-56.603,30.700
19:17:24:971,23.546,0.212,-0.067,0.107,9.480,-56.663,31.148
19:17:24:972,23.547,0.178,-0.056,0.155,8.539,-57.114,31.277
19:17:24:995,23.570,0.139,-0.043,0.183,7.785,-57.358,31.098
19:17:25:021,23.596,0.044,-0.037,0.196,6.125,-56.944,30.400
19:17:25:047,23.622,-0.152,-0.029,0.239,4.577,-55.884,29.655
19:17:25:103,23.678,-0.268,0.012,0.241,1.954,-53.345,28.319
19:17:25:103,23.678,-0.145,0.114,0.083,-0.520,-49.014,27.381
19:17:25:157,23.732,-0.206,0.181,-0.193,-1.297,-45.272,27.359
19:17:25:157,23.732,0.063,-0.005,-0.050,-0.203,-41.107,27.652
19:17:25:178,23.753,0.155,-0.015,-0.083,1.122,-38.993,27.492
19:17:25:234,23.809,-0.003,-0.003,-0.154,3.939,-36.028,27.424
19:17:25:235,23.810,0.070,-0.054,-0.070,6.187,-35.392,27.058
19:17:25:26,23.835,0.065,-0.012,-0.089,8.872,-35.359,25.479
19:17:25:285,23.860,0.118,0.118,-0.119,9.867,-35.017,23.245
19:17:25:31,23.885,0.108,0.164,-0.146,9.803,-34.624,21.689
19:17:25:336,23.911,0.135,0.445,-0.276,8.996,-33.938,19.459
19:17:25:391,23.966,0.020,0.419,-0.286,8.351,-33.591,18.052
19:17:25:393,23.968,-0.141,0.062,-0.244,7.658,-33.534,16.242
19:17:25:415,23.990,-0.201,-0.204,-0.166,7.251,-34.431,15.058
19:17:25:441,24.016,-0.130,-0.272,-0.120,7.017,-35.564,14.875
19:17:25:468,24.043,0.034,-0.091,-0.084,6.580,-37.881,15.811
19:17:25:493,24.068,0.132,0.038,-0.082,6.459,-39.126,17.232
19:17:25:52,24.095,0.197,0.084,-0.061,6.702,-39.802,20.200
19:17:25:546,24.121,0.175,0.080,-0.046,7.171,-39.252,22.475
19:17:25:572,24.147,0.215,0.053,0.012,8.250,-37.586,25.810
19:17:25:6,24.175,0.197,0.004,0.116,10.173,-36.136,28.678
19:17:25:625,24.200,0.098,-0.036,0.180,11.897,-35.217,30.232
19:17:25:651,24.226,0.169,-0.125,0.256,14.440,-35.436,31.503
19:17:25:678,24.253,0.281,-0.227,0.290,15.887,-36.246,31.751
19:17:25:703,24.278,0.255,-0.197,0.301,17.124,-37.904,31.680
19:17:25:73,24.305,0.281,-0.207,0.328,17.489,-38.612,31.192
19:17:25:756,24.331,0.248,-0.177,0.283,17.209,-37.906,30.927
19:17:25:782,24.357,0.161,-0.097,0.185,16.084,-35.173,30.591
19:17:25:809,24.384,0.117,-0.068,0.167,15.051,-32.987,30.191
19:17:25:836,24.411,0.089,-0.042,0.114,13.286,-29.740,29.323
19:17:25:862,24.437,0.069,-0.014,0.073,12.062,-27.590,28.633
19:17:25:888,24.462,-0.010,0.016,0.033,10.514,-24.299,27.608
19:17:25:914,24.489,-0.022,0.030,0.018,9.670,-21.856,26.455
19:17:25:94,24.515,0.047,0.013,0.005,9.536,-21.033,25.542
19:17:25:966,24.541,0.025,0.061,0.035,9.489,-20.124,24.305
19:17:25:992,24.567,-0.041,0.055,-0.002,9.407,-19.486,23.612
19:17:26:02,24.595,0.035,0.050,0.042,8.978,-18.288,22.716
19:17:26:045,24.620,-0.029,0.002,0.077,7.806,-15.185,22.585
19:17:26:101,24.676,-0.018,-0.017,0.100,6.659,-12.321,22.647
19:17:26:101,24.676,-0.075,0.045,0.086,4.621,-7.457,23.165
19:17:26:124,24.699,-0.153,0.090,0.053,3.411,-4.604,23.393
19:17:26:151,24.726,-0.022,0.230,0.039,2.234,-2.284,23.459
19:17:26:176,24.751,-0.077,0.422,-0.016,1.699,-1.640,22.898
19:17:26:202,24.777,-0.143,0.050,-0.041,2.547,-2.321,22.770
19:17:26:228,24.803,-0.025,-0.118,-0.112,4.294,-5.001,22.400
19:17:26:255,24.830,0.057,-0.152,-0.080,5.602,-6.908,22.393
19:17:26:281,24.856,0.188,-0.046,-0.079,7.255,-9.625,22.959
19:17:26:307,24.882,0.152,0.030,-0.112,8.132,-10.553,23.901
19:17:26:335,24.910,0.153,0.063,-0.109,8.910,-11.313,25.556
19:17:26:36,24.935,0.125,0.036,-0.101,9.210,-11.812,26.760
19:17:26:386,24.961,0.120,0.015,-0.140,9.149,-12.352,27.175
19:17:26:412,24.987,0.166,-0.039,-0.128,9.044,-13.556,27.374
19:17:26:439,25.014,0.160,-0.052,-0.116,9.032,-14.576,27.463
19:17:26:465,25.040,0.193,-0.070,-0.096,9.118,-15.967,27.814
19:17:26:492,25.067,0.193,-0.084,-0.076,9.246,-17.160,28.454
19:17:26:518,25.093,0.212,-0.092,-0.056,9.231,-17.510,29.013
19:17:26:544,25.119,0.197,-0.099,-0.030,8.141,-17.653,28.910
19:17:26:599,25.174,0.168,-0.103,-0.007,7.527,-17.430,29.243
19:17:26:6,25.175,0.154,-0.114,0.040,6.750,-17.214,30.043
19:17:26:622,25.197,0.165,-0.104,0.064,5.984,-17.513,30.444
19:17:26:649,25.224,0.137,-0.107,0.090,5.562,-17.852,30.080
19:17:26:675,25.250,0.071,-0.050,0.237,4.674,-18.162,29.380
19:17:26:701,25.276,0.036,-0.014,0.305,3.744,-18.132,28.516
19:17:26:727,25.302,0.045,0.049,0.200,1.694,-17.242,26.862
19:17:26:755,25.330,0.030,0.060,0.092,-0.254,-14.949,25.128
19:17:26:781,25.356,-0.123,0.092,-0.008,-0.776,-13.082,24.280
19:17:26:806,25.381,-0.038,0.026,-0.056,-0.038,-11.324,23.181
19:17:26:833,25.408,-0.075,0.032,-0.070,1.192,-10.955,22.573
19:17:26:858,25.433,-0.069,0.025,-0.042,3.649,-11.212,21.576
19:17:26:885,25.460,-0.032,0.071,-0.032,5.993,-11.989,20.413
19:17:26:911,25.486,-0.008,0.107,-0.063,7.069,-12.161,19.678
19:17:26:938,25.513,0.057,0.242,-0.146,7.829,-11.238,18.983
19:17:26:964,25.539,0.030,0.367,-0.196,7.779,-9.780,18.866
19:17:26:99,25.565,-0.038,0.215,-0.142,7.473,-6.938,19.194
19:17:27:016,25.591,-0.103,-0.022,-0.061,6.912,-4.186,19.964
19:17:27:042,25.617,-0.130,-0.178,-0.011,6.508,-2.720,20.642
19:17:27:069,25.644,-0.049,-0.128,-0.032,5.793,-1.488,21.889
19:17:27:095,25.670,0.026,-0.069,-0.057,5.388,-1.253,22.854
19:17:27:122,25.697,0.096,-0.013,-0.071,5.083,-1.283,24.391
19:17:27:148,25.723,0.160,-0.040,-0.068,5.144,-1.492,25.415
19:17:27:173,25.748,0.177,-0.022,-0.047,5.397,-1.451,26.848
19:17:27:2,25.775,0.193,0.046,0.001,5.575,-1.314,28.010
19:17:27:226,25.801,0.182,0.048,0.094,5.973,-1.517,28.602
19:17:27:254,25.829,0.274,-0.009,0.265,7.734,-3.274,28.936
19:17:27:279,25.854,0.320,-0.095,0.333,9.354,-5.022,29.053
19:17:27:335,25.909,0.212,-0.103,0.198,10.945,-6.250,29.552
19:17:27:335,25.910,0.187,-0.101,0.096,11.122,-4.994,30.175
19:17:27:36,25.935,0.168,-0.123,0.024,10.604,-3.260,30.410
19:17:27:361,25.936,0.105,-0.093,-0.009,9.263,0.097,30.459
19:17:27:413,25.988,0.041,-0.074,0.000,8.320,2.272,30.337
19:17:27:413,25.988,-0.003,-0.076,0.014,7.167,4.790,29.965
19:17:27:436,26.011,-0.004,-0.043,0.047,6.606,5.856,29.566
19:17:27:463,26.037,0.010,-0.024,0.088,6.098,6.385,28.681
19:17:27:489,26.064,-0.089,0.005,0.139,6.037,6.103,27.755
19:17:27:515,26.090,0.061,-0.032,0.136,6.226,5.091,26.906
19:17:27:541,26.116,-0.061,0.019,0.152,6.383,3.474,25.512
19:17:27:567,26.142,0.077,-0.025,0.134,6.240,2.923,24.914
19:17:27:623,26.198,-0.066,0.051,0.082,5.676,3.903,24.388
19:17:27:623,26.198,-0.082,0.044,0.034,5.136,5.598,24.383
19:17:27:646,26.221,0.009,0.023,0.058,4.836,6.391,24.496
19:17:27:672,26.247,-0.002,0.024,0.060,4.457,7.410,24.851
19:17:27:728,26.303,0.033,0.094,0.117,4.170,8.262,25.147
19:17:27:728,26.303,0.061,0.119,0.134,3.631,9.848,25.647
19:17:27:751,26.326,0.150,0.350,0.162,2.712,11.879,26.016
19:17:27:777,26.352,0.064,0.256,0.101,2.170,13.091,26.030
19:17:27:805,26.380,0.038,0.098,0.006,2.444,14.110,25.926
19:17:27:83,26.405,0.011,-0.109,-0.029,3.121,13.856,25.962
19:17:27:856,26.431,0.079,-0.163,-0.079,4.196,12.830,26.159
19:17:27:883,26.458,0.136,-0.095,-0.125,4.663,11.786,26.524
19:17:27:909,26.483,0.109,-0.078,-0.123,4.954,11.141,27.504
19:17:27:935,26.510,0.073,0.003,-0.130,4.836,10.416,28.182
19:17:27:961,26.536,0.073,0.015,-0.127,4.769,10.048,28.237
19:17:28:014,26.589,0.113,0.019,-0.163,5.019,8.176,27.303
19:17:28:041,26.616,0.114,-0.007,-0.160,5.240,7.117,26.720
19:17:28:066,26.641,0.094,-0.064,-0.132,5.198,6.848,26.408
19:17:28:093,26.667,0.082,-0.100,-0.103,4.913,7.091,26.366
19:17:28:119,26.694,0.049,-0.123,-0.050,4.066,7.632,26.485
19:17:28:145,26.720,0.057,-0.077,-0.053,3.321,7.925,26.600
19:17:28:2,26.775,0.059,-0.047,-0.025,2.266,7.873,26.679
19:17:28:201,26.776,0.062,-0.026,0.022,1.499,7.439,26.440
19:17:28:223,26.798,0.079,-0.014,0.034,1.096,6.814,26.051
19:17:28:25,26.825,0.097,0.001,0.056,0.431,6.996,25.314
19:17:28:277,26.851,0.062,0.020,0.094,-0.135,7.766,24.813
19:17:28:302,26.877,0.044,0.032,0.146,-1.007,10.379,24.320
19:17:28:329,26.904,-0.104,0.001,0.170,-1.427,12.925,24.103
19:17:28:357,26.932,-0.166,0.018,0.085,-1.833,15.706,23.803
19:17:28:381,26.956,-0.109,0.015,0.052,-1.353,16.181,23.548
19:17:28:407,26.982,-0.129,-0.033,0.026,-0.702,15.889,23.313
19:17:28:434,27.009,-0.041,-0.010,-0.023,0.370,14.616,22.809
19:17:28:461,27.035,-0.059,0.012,-0.006,1.031,14.076,22.396
19:17:28:486,27.061,-0.079,0.015,-0.001,1.741,13.630,21.736
19:17:28:513,27.088,-0.101,0.092,-0.009,2.076,13.898,21.075
19:17:28:539,27.114,-0.110,0.145,-0.018,2.183,13.949,20.641
19:17:28:566,27.141,-0.109,0.171,-0.023,2.360,14.156,20.059
19:17:28:592,27.167,-0.071,0.330,-0.037,2.463,14.184,19.779
19:17:28:617,27.192,-0.043,0.273,0.031,2.581,14.428,19.620
19:17:28:644,27.219,-0.075,0.138,0.093,2.640,14.890,19.803
19:17:28:699,27.274,-0.061,-0.027,0.146,2.823,16.059,20.370
19:17:28:7,27.275,-0.032,-0.218,0.094,2.524,15.713,21.837
19:17:28:722,27.297,0.051,-0.193,0.050,2.719,14.830,22.832
19:17:28:75,27.325,0.182,-0.054,-0.062,3.308,12.685,24.152
19:17:28:776,27.350,0.236,-0.039,-0.082,3.996,11.466,24.822
19:17:28:801,27.376,0.259,-0.015,-0.113,5.238,9.986,25.545
19:17:28:886,27.461,0.263,-0.030,-0.091,6.302,9.587,26.091
19:17:28:887,27.462,0.230,-0.048,-0.047,6.723,9.693,26.489
19:17:28:887,27.462,0.227,-0.040,-0.026,6.971,9.637,26.927
19:17:28:906,27.481,0.193,-0.089,0.026,7.154,9.439,27.091
19:17:28:932,27.507,0.210,-0.098,0.051,7.710,8.761,27.098
19:17:28:96,27.535,0.229,-0.101,0.047,8.324,8.245,26.730
19:17:28:985,27.560,0.160,-0.071,0.063,8.344,8.542,26.470
19:17:29:041,27.616,0.048,-0.043,0.085,7.731,10.265,26.200
19:17:29:041,27.616,0.019,-0.057,0.078,7.026,11.656,25.971
19:17:29:064,27.639,-0.043,-0.069,0.075,5.909,13.472,25.535
19:17:29:09,27.665,-0.060,-0.048,0.086,5.362,14.012,25.179
19:17:29:116,27.691,-0.031,-0.044,0.079,5.059,13.488,24.392
19:17:29:143,27.717,-0.025,-0.064,0.089,5.039,11.618,23.282
19:17:29:169,27.744,-0.017,-0.094,0.092,5.036,10.200,22.429
19:17:29:196,27.771,-0.045,-0.056,0.081,4.773,8.041,21.179
19:17:29:222,27.797,-0.005,0.030,0.096,4.515,6.763,20.416
19:17:29:277,27.851,-0.032,0.057,0.127,4.174,5.161,19.658
19:17:29:277,27.852,-0.034,0.082,0.135,3.919,5.019,19.291
19:17:29:3,27.875,-0.048,0.108,0.146,3.829,5.318,19.310
19:17:29:326,27.901,-0.013,0.118,0.161,3.738,6.245,19.655
19:17:29:382,27.957,-0.011,0.122,0.144,3.674,7.039,20.102
19:17:29:382,27.957,0.018,0.155,0.140,4.018,8.593,20.954
19:17:29:406,27.981,0.012,0.109,0.118,3.896,9.738,21.521
19:17:29:431,28.006,0.030,0.160,0.092,3.832,11.305,22.310
19:17:29:458,28.032,-0.006,0.158,0.047,3.716,12.068,22.920
19:17:29:484,28.059,0.007,0.083,0.012,4.017,11.924,23.042
19:17:29:51,28.085,0.004,-0.046,-0.069,5.049,10.494,23.161
19:17:29:537,28.112,0.056,-0.164,-0.071,5.972,9.343,23.523
19:17:29:565,28.140,0.148,-0.115,-0.100,7.032,8.220,24.453
19:17:29:566,28.141,0.096,-0.040,-0.124,7.475,8.175,25.811
19:17:29:618,28.193,0.129,0.006,-0.163,7.568,8.305,26.526
19:17:29:619,28.194,0.114,0.044,-0.171,7.556,8.371,27.202
19:17:29:669,28.244,0.118,0.028,-0.200,7.563,8.308,27.341
19:17:29:697,28.272,0.112,-0.031,-0.183,7.671,7.971,27.299
19:17:29:697,28.272,0.086,-0.072,-0.167,7.657,7.710,27.264
19:17:29:721,28.296,0.088,-0.086,-0.138,7.481,7.492,27.285
19:17:29:777,28.352,0.063,-0.112,-0.102,6.950,7.297,27.390
19:17:29:778,28.353,0.072,-0.112,-0.086,6.475,6.817,27.457
19:17:29:799,28.374,0.081,-0.115,-0.054,5.727,6.192,27.491
19:17:29:825,28.400,0.087,-0.101,-0.018,5.262,5.531,27.419
19:17:29:852,28.427,0.095,-0.067,0.003,4.656,4.607,27.040
19:17:29:878,28.453,0.100,-0.064,0.005,4.134,3.770,26.371
19:17:29:903,28.478,0.089,-0.052,-0.006,3.809,3.871,25.827
19:17:29:93,28.505,0.030,-0.009,0.051,3.312,4.560,24.811
19:17:29:956,28.531,-0.011,0.026,0.068,2.949,5.410,24.213
19:17:29:984,28.559,-0.035,0.056,0.070,2.352,6.629,23.225
19:17:30:009,28.584,-0.097,0.089,0.105,1.913,7.824,22.078
19:17:30:035,28.610,-0.114,0.098,0.110,1.752,8.257,21.232
19:17:30:061,28.636,-0.113,0.103,0.073,1.777,8.483,19.974
19:17:30:087,28.662,-0.105,0.120,0.029,1.989,8.395,19.226
19:17:30:114,28.689,-0.101,0.108,0.018,2.566,8.245,18.310
19:17:30:142,28.716,-0.097,0.198,-0.018,3.038,8.111,17.848
19:17:30:167,28.742,-0.085,0.158,-0.030,3.821,8.504,17.385
19:17:30:193,28.768,-0.076,0.292,-0.063,4.389,9.086,17.270
19:17:30:219,28.794,-0.066,0.185,-0.042,4.659,9.737,17.391
19:17:30:245,28.820,-0.099,-0.021,0.004,4.827,10.671,17.908
19:17:30:272,28.847,-0.091,-0.169,0.058,4.851,11.232,18.430
19:17:30:299,28.874,-0.020,-0.178,0.064,4.675,11.250,19.405
19:17:30:324,28.899,0.082,-0.078,-0.019,4.440,10.163,20.459
19:17:30:35,28.925,0.094,-0.061,-0.058,4.535,9.422,21.144
19:17:30:376,28.951,0.210,-0.030,-0.068,5.064,8.433,21.933
19:17:30:402,28.977,0.234,-0.041,-0.058,5.493,8.069,22.440
19:17:30:429,29.004,0.250,-0.061,-0.047,5.920,7.650,23.291
19:17:30:455,29.030,0.209,-0.094,-0.026,5.913,7.803,24.023
19:17:30:482,29.057,0.225,-0.084,-0.008,5.777,7.695,24.294
19:17:30:508,29.083,0.212,-0.075,0.041,5.862,7.319,24.413
19:17:30:534,29.109,0.243,-0.091,0.098,6.203,6.865,24.372
19:17:30:56,29.135,0.194,-0.126,0.147,6.699,6.789,24.357
19:17:30:615,29.190,0.118,-0.122,0.143,6.671,7.537,24.390
19:17:30:616,29.191,0.054,-0.120,0.126,5.946,9.503,24.268
19:17:30:641,29.215,0.000,-0.092,0.145,4.786,11.369,23.643
19:17:30:665,29.240,-0.051,-0.068,0.139,4.087,12.070,23.041
19:17:30:693,29.268,-0.032,-0.060,0.124,3.380,11.700,21.861
19:17:30:717,29.292,-0.032,-0.018,0.083,3.114,10.990,20.942
19:17:30:744,29.319,-0.028,0.086,0.048,2.793,8.816,19.352
19:17:30:77,29.345,-0.056,0.120,0.066,2.612,6.863,17.802
19:17:30:796,29.371,-0.022,0.106,0.090,2.567,5.519,16.921
19:17:30:824,29.398,-0.041,0.085,0.089,2.487,4.769,16.016
19:17:30:849,29.424,-0.050,0.159,0.104,2.420,4.863,15.771
19:17:30:875,29.450,-0.077,0.192,0.142,2.349,6.156,16.038
19:17:30:901,29.476,-0.053,0.280,0.150,2.124,7.249,16.459
19:17:30:927,29.502,-0.046,0.355,0.171,1.556,8.973,17.288
19:17:30:954,29.529,0.016,0.131,0.137,1.082,10.591,18.370
19:17:30:982,29.557,0.051,-0.069,0.070,1.246,11.440,19.057
19:17:31:006,29.581,0.097,-0.159,-0.030,2.334,11.756,20.081
19:17:31:062,29.637,0.180,-0.076,-0.087,3.446,11.361,20.812
19:17:31:062,29.637,0.048,-0.038,-0.093,4.981,11.878,22.442
19:17:31:085,29.660,0.112,0.056,-0.168,5.840,13.354,24.294
19:17:31:111,29.686,0.125,0.088,-0.213,6.120,13.980,25.221
19:17:31:137,29.712,0.026,0.038,-0.188,6.023,14.912,26.364
19:17:31:163,29.738,0.087,-0.054,-0.209,5.892,14.913,26.762
19:17:31:19,29.765,0.093,-0.112,-0.190,5.846,14.066,27.146
19:17:31:217,29.792,0.117,-0.154,-0.155,5.828,12.855,27.674
19:17:31:243,29.818,0.138,-0.152,-0.134,5.771,11.836,28.076
19:17:31:269,29.844,0.166,-0.138,-0.145,5.588,10.573,28.610
19:17:31:326,29.901,0.124,-0.144,-0.086,5.225,9.674,28.520
19:17:31:326,29.901,0.137,-0.129,-0.076,4.943,8.363,28.483
19:17:31:347,29.922,0.125,-0.118,-0.051,4.750,7.232,28.217
19:17:31:374,29.949,0.111,-0.076,-0.029,4.333,5.690,27.250
19:17:31:401,29.976,0.076,-0.054,0.032,3.917,4.264,26.196
19:17:31:427,30.002,0.067,-0.017,0.036,3.500,3.613,25.299
19:17:31:483,30.057,0.042,0.016,0.039,2.652,3.060,23.777
19:17:31:483,30.057,-0.019,0.059,0.036,2.046,3.126,22.732
19:17:31:505,30.080,-0.054,0.076,0.054,1.363,3.183,21.217
19:17:31:56,30.135,-0.080,0.088,0.073,0.936,2.810,19.774
19:17:31:561,30.136,-0.092,0.078,0.098,0.756,2.331,18.896
19:17:31:585,30.160,-0.078,0.031,0.068,0.922,1.476,18.072
19:17:31:61,30.185,-0.046,0.039,0.007,0.964,1.039,17.466
19:17:31:724,30.299,-0.029,0.122,-0.021,1.194,1.154,16.833
19:17:31:725,30.300,-0.037,0.202,-0.075,1.579,2.323,16.439
19:17:31:726,30.301,-0.029,0.328,-0.100,1.779,3.564,16.259
19:17:31:727,30.302,-0.129,0.315,-0.053,2.050,5.753,15.975
19:17:31:774,30.349,-0.170,0.078,0.015,2.143,7.025,15.836
19:17:31:774,30.349,-0.217,-0.216,0.096,2.082,8.398,15.828
19:17:31:775,30.350,-0.214,-0.288,0.110,1.841,8.507,16.089
19:17:31:823,30.398,-0.093,-0.012,0.017,1.636,6.575,16.998
19:17:31:824,30.399,0.223,0.001,0.001,2.787,2.035,18.128
19:17:31:875,30.450,0.248,0.043,-0.020,4.020,-1.040,18.999
19:17:31:876,30.451,0.409,-0.011,-0.026,6.145,-4.939,20.392
19:17:31:957,30.532,0.336,-0.023,-0.016,7.401,-6.230,21.195
19:17:31:957,30.532,0.287,-0.046,0.002,8.897,-5.885,22.398
19:17:31:958,30.533,0.277,-0.136,0.065,9.855,-4.176,23.527
19:17:31:977,30.552,0.200,-0.136,0.061,10.139,-2.321,24.168
19:17:32:004,30.579,0.202,-0.138,0.027,10.198,-0.155,24.909
19:17:32:111,30.686,0.154,-0.076,0.016,10.029,1.417,25.246
19:17:32:144,30.719,0.110,-0.052,-0.005,9.497,3.819,25.572
19:17:32:144,30.719,0.075,-0.031,0.016,8.896,5.624,25.586
19:17:32:145,30.720,0.044,-0.074,0.031,8.099,7.647,25.550
19:17:32:161,30.736,-0.006,-0.072,0.104,7.177,9.643,25.525
19:17:32:188,30.762,-0.010,-0.074,0.115,6.776,9.958,25.309
19:17:32:214,30.789,-0.021,-0.049,0.178,6.829,10.127,25.217
19:17:32:298,30.873,-0.034,0.010,0.191,6.520,10.714,24.999
19:17:32:298,30.873,-0.067,0.073,0.152,6.286,11.481,24.853
19:17:32:322,30.897,-0.117,0.089,0.199,6.283,11.660,24.833
19:17:32:322,30.897,-0.068,0.102,0.213,6.365,11.049,25.034
19:17:32:4,30.975,0.008,0.102,0.231,6.436,10.462,25.329
19:17:32:458,31.033,0.036,0.182,0.268,6.489,10.011,25.988
19:17:32:459,31.034,0.124,0.232,0.237,6.519,9.332,26.456
19:17:32:46,31.035,0.172,0.247,0.200,6.538,8.737,26.521
19:17:32:461,31.036,0.206,0.389,-0.051,6.174,7.684,26.002
19:17:32:534,31.109,0.178,0.174,-0.060,6.810,7.255,26.075
19:17:32:535,31.110,0.006,-0.186,-0.109,8.163,7.268,27.321
19:17:32:536,31.111,0.140,-0.345,-0.200,8.855,7.347,27.939
19:17:32:582,31.157,0.122,-0.149,-0.270,9.517,8.332,29.770
19:17:32:611,31.186,0.135,-0.105,-0.222,10.167,9.606,31.700
19:17:32:611,31.186,0.133,-0.058,-0.195,10.536,10.188,32.606
19:17:32:634,31.209,0.143,0.038,-0.218,10.606,10.481,33.013
19:17:32:69,31.265,0.130,-0.011,-0.211,10.324,10.336,32.679
19:17:32:69,31.265,0.133,-0.027,-0.203,9.817,9.611,31.695
19:17:32:713,31.288,0.112,-0.056,-0.179,9.323,8.499,30.635
19:17:32:766,31.341,0.113,-0.063,-0.177,8.991,7.677,30.127
19:17:32:823,31.398,0.152,-0.110,-0.156,8.491,6.793,29.884
19:17:32:824,31.399,0.156,-0.082,-0.127,8.115,6.415,30.143
19:17:32:824,31.399,0.208,-0.084,-0.101,7.510,6.017,30.818
19:17:32:844,31.419,0.192,-0.106,-0.028,6.931,6.010,31.270
19:17:32:899,31.474,0.195,-0.128,-0.001,5.632,6.537,31.599
19:17:32:9,31.475,0.171,-0.100,0.084,3.636,7.990,31.324
19:17:32:923,31.498,0.166,-0.054,0.195,2.011,9.514,30.713
19:17:32:98,31.555,0.154,0.035,0.315,-0.905,12.372,29.077
19:17:32:98,31.555,0.051,0.098,0.121,-3.091,14.824,27.571
19:17:33:002,31.576,-0.112,0.196,0.146,-5.317,19.959,25.811
19:17:33:057,31.632,-0.152,0.102,0.073,-4.979,24.343,24.998
19:17:33:058,31.633,-0.043,0.042,-0.020,-3.915,26.545,24.428
19:17:33:08,31.655,-0.074,0.030,-0.012,-1.715,28.965,23.623
19:17:33:107,31.682,-0.054,0.002,0.001,-0.012,29.844,23.259
19:17:33:133,31.708,-0.053,-0.052,0.029,2.328,30.376,22.299
19:17:33:16,31.735,-0.056,-0.059,-0.012,3.644,31.281,20.915
19:17:33:186,31.761,-0.049,0.064,-0.056,3.775,32.411,19.969
19:17:33:211,31.786,-0.135,0.278,-0.064,3.270,34.608,18.766
19:17:33:237,31.812,-0.169,0.433,-0.056,2.715,36.091,18.044
19:17:33:293,31.868,-0.196,0.333,0.035,1.977,37.553,16.901
19:17:33:294,31.869,-0.154,-0.089,0.189,1.701,38.228,16.269
19:17:33:317,31.892,-0.109,-0.232,0.226,1.361,38.175,15.704
19:17:33:342,31.917,0.011,-0.106,0.197,0.580,36.987,15.914
19:17:33:369,31.944,0.042,-0.014,0.103,-0.054,36.092,16.615
19:17:33:395,31.970,0.057,0.053,0.061,0.285,33.718,18.050
19:17:33:479,32.054,0.372,-0.006,-0.091,1.659,31.435,18.617
19:17:33:48,32.055,0.300,-0.037,-0.069,4.136,28.507,20.627
19:17:33:481,32.056,0.329,-0.083,-0.132,6.552,27.393,22.271
19:17:33:502,32.076,0.173,-0.030,-0.082,7.554,28.755,23.443
19:17:33:526,32.101,0.219,-0.124,-0.088,8.160,31.878,25.241
19:17:33:553,32.128,0.130,-0.110,-0.066,8.016,34.269,26.262
19:17:33:579,32.154,0.113,-0.114,-0.027,7.842,36.861,27.244
19:17:33:605,32.180,0.199,-0.147,-0.078,8.099,37.142,27.352
19:17:33:632,32.207,0.211,-0.167,-0.064,8.558,37.082,27.177
19:17:33:714,32.289,0.254,-0.188,-0.016,8.331,37.627,26.728
19:17:33:715,32.290,0.214,-0.144,0.076,7.594,39.032,26.451
19:17:33:739,32.314,0.148,-0.114,0.103,6.008,41.922,26.057
19:17:33:765,32.340,0.067,-0.122,0.135,4.965,44.359,25.646
19:17:33:766,32.341,0.066,-0.110,0.138,3.729,47.935,24.738
19:17:33:789,32.364,0.036,-0.007,0.145,2.594,51.373,23.514
19:17:33:815,32.390,0.037,0.067,0.169,1.913,53.397,22.613
19:17:33:841,32.416,-0.047,0.140,0.368,1.319,56.708,21.438
19:17:33:868,32.443,0.073,0.053,0.240,1.084,58.631,20.603
19:17:33:895,32.470,0.049,0.131,0.339,0.242,62.554,19.679
19:17:33:921,32.496,0.130,0.309,0.299,-1.698,66.529,19.307
19:17:33:978,32.553,0.142,0.710,0.533,-4.117,68.260,18.635
19:17:33:979,32.554,0.001,0.567,-0.053,-7.283,67.184,12.914
19:17:33:98,32.555,0.011,0.055,-0.028,-5.106,64.020,10.763
19:17:34:054,32.629,-0.070,-0.316,-0.024,0.152,57.626,14.321
19:17:34:055,32.630,-0.061,-0.198,-0.068,2.320,53.822,15.896
19:17:34:08,32.655,0.087,-0.195,-0.265,4.534,49.154,16.857
19:17:34:081,32.656,0.029,-0.030,-0.280,5.249,47.427,19.470
19:17:34:162,32.737,0.015,0.001,-0.222,4.917,48.431,21.216
19:17:34:163,32.738,0.019,0.047,-0.193,3.376,50.719,23.523
19:17:34:164,32.739,-0.065,-0.011,-0.153,2.141,52.135,24.523
19:17:34:208,32.783,-0.054,-0.093,-0.181,1.254,51.935,25.910
19:17:34:236,32.811,0.014,-0.105,-0.182,1.684,50.810,25.761
19:17:34:261,32.836,0.053,-0.168,-0.208,2.454,49.125,25.604
19:17:34:287,32.862,0.073,-0.172,-0.185,2.765,48.087,25.587
19:17:34:314,32.889,0.065,-0.140,-0.168,2.663,47.513,25.680
19:17:34:34,32.915,0.080,-0.094,-0.137,1.983,47.176,25.683
19:17:34:367,32.942,0.105,-0.100,-0.091,1.348,46.889,25.535
19:17:34:392,32.967,0.171,-0.116,0.009,0.062,46.378,24.950
19:17:34:419,32.994,0.356,-0.060,0.172,-1.038,46.188,24.333
19:17:34:445,33.020,0.485,0.023,0.368,-3.038,46.751,23.459
19:17:34:471,33.046,0.442,0.088,0.224,-5.185,48.331,22.724
19:17:34:498,33.073,0.011,0.384,0.211,-7.902,54.170,21.837
19:17:34:524,33.098,-0.091,0.062,0.166,-6.905,58.583,22.478
19:17:34:55,33.125,0.009,0.015,-0.037,-4.950,60.315,22.482
19:17:34:576,33.151,-0.025,-0.026,0.071,-1.379,63.281,22.213
19:17:34:603,33.178,0.019,0.030,-0.046,0.995,64.579,22.064
19:17:34:629,33.204,0.014,0.046,-0.114,3.995,65.680,21.344
19:17:34:685,33.260,-0.124,0.198,-0.139,5.238,68.145,20.173
19:17:34:685,33.260,-0.178,0.293,-0.147,5.258,70.280,19.288
19:17:34:708,33.282,-0.177,0.228,0.035,4.760,73.657,17.935
19:17:34:734,33.309,-0.122,0.001,0.187,4.299,75.562,16.918
19:17:34:76,33.335,-0.099,-0.207,0.200,3.600,77.343,15.350
19:17:34:786,33.361,-0.079,-0.153,0.135,2.831,77.735,14.274
19:17:34:814,33.389,-0.095,-0.098,0.075,2.361,77.421,14.091
19:17:34:839,33.414,-0.089,-0.025,0.011,1.945,76.749,14.836
19:17:34:865,33.440,-0.045,0.026,-0.051,1.836,76.561,15.869
19:17:34:891,33.466,-0.023,0.074,-0.058,1.658,77.039,17.811
19:17:34:917,33.492,0.418,0.210,0.087,1.566,77.494,19.218
19:17:34:944,33.519,0.665,0.052,-0.179,2.137,74.542,21.169
19:17:34:97,33.545,0.424,-0.225,-0.328,4.349,70.406,20.940
19:17:34:996,33.571,0.223,-0.161,-0.097,6.238,70.012,20.890
19:17:35:081,33.655,0.128,-0.187,-0.067,7.387,72.067,21.456
19:17:35:082,33.656,0.062,-0.128,-0.031,6.970,74.780,21.744
19:17:35:083,33.657,-0.014,-0.137,-0.029,5.445,79.587,21.537
19:17:35:101,33.676,0.003,-0.067,0.037,4.032,84.357,20.878
19:17:35:128,33.703,0.062,-0.054,0.124,3.455,87.028,20.524
19:17:35:154,33.729,0.184,-0.047,0.175,3.038,90.118,19.773
19:17:35:181,33.756,0.234,-0.032,0.175,2.890,91.171,19.099
19:17:35:207,33.781,0.284,-0.011,0.148,2.402,92.480,17.923
19:17:35:232,33.807,0.231,0.002,0.186,1.935,93.025,17.756
19:17:35:259,33.834,0.193,0.108,0.207,1.237,94.591,17.624
19:17:35:285,33.860,0.212,0.123,0.200,0.929,96.185,17.673
19:17:35:313,33.888,0.240,0.104,0.208,0.952,97.490,17.690
19:17:35:337,33.912,0.275,0.108,0.132,0.681,99.102,17.807
19:17:35:364,33.939,0.260,0.248,0.213,-0.046,100.605,17.815
19:17:35:39,33.965,0.226,0.323,0.223,-1.495,101.892,17.745
19:17:35:417,33.992,-0.077,0.386,0.063,-2.428,100.397,16.029
19:17:35:443,34.018,-0.217,0.273,-0.132,-1.915,97.529,14.361
19:17:35:469,34.044,-0.032,-0.332,-0.105,1.618,94.293,16.756
19:17:35:495,34.070,-0.166,-0.060,0.030,2.692,92.524,18.453
19:17:35:523,34.098,-0.239,-0.113,-0.247,3.926,90.803,19.954
19:17:35:548,34.123,-0.226,-0.104,-0.196,4.293,90.598,21.655
19:17:35:575,34.149,-0.195,-0.051,-0.151,4.195,90.945,23.732
19:17:35:6,34.175,-0.117,-0.081,-0.101,3.507,91.110,24.919
19:17:35:626,34.201,-0.090,-0.102,-0.093,2.824,90.676,25.054
19:17:35:652,34.227,-0.074,-0.119,-0.097,1.833,89.279,24.466
19:17:35:679,34.254,-0.098,-0.104,-0.129,1.303,87.862,23.852
19:17:35:705,34.280,-0.080,-0.084,-0.125,0.752,85.451,22.821
19:17:35:732,34.307,-0.037,-0.073,-0.116,0.380,83.206,21.763
19:17:35:758,34.333,0.005,-0.062,-0.122,0.103,81.937,21.097
19:17:35:784,34.359,0.057,-0.064,-0.086,-0.499,80.576,20.158
19:17:35:81,34.385,0.122,-0.039,-0.086,-1.138,80.089,19.536
19:17:35:865,34.440,0.231,-0.025,-0.051,-2.472,80.352,18.583
19:17:35:866,34.441,0.340,0.034,-0.069,-4.225,82.330,17.890
19:17:35:889,34.463,0.287,0.037,0.088,-5.231,85.445,17.350
19:17:35:915,34.490,0.123,0.037,0.228,-5.568,90.327,16.926
19:17:35:97,34.545,0.009,-0.006,0.121,-4.968,92.370,16.547
19:17:35:971,34.546,-0.017,0.041,0.141,-3.550,94.693,15.503
19:17:35:994,34.569,-0.044,0.055,0.182,-1.518,95.064,14.518
19:17:36:02,34.595,-0.031,0.043,0.139,-0.133,94.549,13.593
19:17:36:046,34.621,-0.010,0.009,0.128,1.505,93.581,11.872
19:17:36:074,34.648,-0.051,0.103,0.104,2.064,93.334,10.721
19:17:36:099,34.674,-0.072,0.188,0.138,2.249,93.828,9.359
19:17:36:126,34.701,-0.117,0.300,0.212,2.162,94.684,8.752
19:17:36:154,34.729,-0.138,0.371,0.237,1.901,96.249,8.045
19:17:36:155,34.730,-0.018,0.029,0.259,1.921,98.160,7.722
19:17:36:177,34.752,0.061,-0.150,0.243,1.906,99.242,7.819
19:17:36:205,34.780,0.154,-0.255,0.200,1.388,100.768,8.653
19:17:36:231,34.806,0.129,-0.095,0.148,0.540,101.375,9.681
19:17:36:314,34.889,0.071,-0.001,0.137,-0.549,101.282,11.853
19:17:36:314,34.889,0.178,0.114,-0.307,0.167,98.168,13.730
19:17:36:339,34.914,0.190,-0.028,-0.413,1.477,94.069,15.722
19:17:36:339,34.914,-0.029,-0.058,-0.292,3.780,89.738,17.297
19:17:36:361,34.936,0.010,-0.062,-0.198,5.528,88.662,17.279
19:17:36:388,34.962,0.000,-0.066,-0.110,7.072,89.697,17.732
19:17:36:443,35.018,-0.007,-0.095,-0.070,7.083,91.789,18.386
19:17:36:444,35.019,-0.022,-0.053,0.000,6.413,95.723,19.400
19:17:36:467,35.042,-0.028,-0.098,-0.071,5.944,97.721,19.847
19:17:36:493,35.068,0.000,-0.114,-0.064,5.979,98.269,19.954
19:17:36:518,35.093,0.049,-0.121,-0.144,6.330,97.059,19.764
19:17:36:545,35.120,0.151,-0.080,-0.137,6.347,96.461,19.538
19:17:36:602,35.177,0.189,-0.047,-0.053,5.702,97.246,19.288
19:17:36:602,35.177,0.182,-0.033,0.005,4.746,99.768,19.391
19:17:36:713,35.287,0.169,-0.076,0.074,4.285,101.577,19.545
19:17:36:714,35.288,0.118,-0.061,0.064,3.822,103.463,19.696
19:17:36:714,35.289,0.124,-0.009,0.069,3.598,104.295,19.660
19:17:36:73,35.305,0.187,0.096,0.029,3.246,107.299,19.514
19:17:36:756,35.331,0.235,0.091,0.062,2.930,108.956,19.451
19:17:36:781,35.356,0.281,0.075,0.054,2.110,112.109,19.405
19:17:36:808,35.383,0.283,0.054,0.080,1.495,114.607,19.461
19:17:36:834,35.409,0.228,0.101,0.006,0.839,117.360,19.615
19:17:36:889,35.464,0.197,0.133,-0.022,0.566,118.992,19.723
19:17:36:89,35.465,0.169,0.304,-0.055,0.199,119.789,19.763
19:17:36:941,35.516,-0.050,0.280,-0.093,-0.744,119.538,18.300
19:17:36:942,35.517,-0.193,0.303,-0.064,-1.190,118.627,16.446
19:17:37:044,35.619,-0.057,-0.264,0.073,0.717,117.901,16.358
19:17:37:079,35.654,-0.038,-0.239,0.054,1.904,117.534,17.959
19:17:37:079,35.654,-0.162,-0.200,-0.041,2.663,117.037,18.831
19:17:37:08,35.655,-0.200,-0.063,-0.046,2.787,116.785,20.160
19:17:37:081,35.656,-0.164,0.006,0.014,2.685,117.046,21.006
19:17:37:096,35.671,-0.135,0.025,0.008,2.467,117.128,21.560
19:17:37:15,35.725,-0.168,0.042,-0.007,2.289,116.776,21.282
19:17:37:202,35.777,-0.119,-0.021,-0.009,2.053,116.016,20.190
19:17:37:234,35.809,-0.112,-0.038,-0.010,1.884,115.406,19.342
19:17:37:234,35.809,-0.084,-0.041,-0.022,1.530,114.457,18.181
19:17:37:235,35.810,-0.042,-0.062,-0.024,1.034,113.783,17.406
19:17:37:253,35.828,-0.020,-0.061,-0.046,0.606,113.480,17.097
19:17:37:28,35.855,0.019,-0.062,-0.046,-0.194,113.262,16.843
19:17:37:365,35.939,0.021,-0.046,-0.056,-0.779,113.297,16.711
19:17:37:365,35.940,0.029,-0.025,-0.051,-1.548,113.659,16.292
19:17:37:366,35.941,0.060,-0.021,-0.043,-2.169,114.954,15.548
19:17:37:385,35.960,0.089,-0.028,-0.021,-2.412,116.290,14.889
19:17:37:413,35.988,0.117,0.034,-0.054,-2.638,119.473,13.842
19:17:37:438,36.013,0.149,-0.004,0.130,-2.635,123.089,13.311
19:17:37:465,36.040,0.146,-0.005,0.233,-2.541,127.578,12.483
19:17:37:49,36.065,0.123,0.009,0.182,-1.824,128.995,11.312
19:17:37:546,36.121,0.178,-0.024,0.260,-1.176,129.607,10.602
19:17:37:547,36.122,0.100,-0.027,0.171,-0.264,129.133,9.296
19:17:37:569,36.144,0.099,-0.033,0.174,0.267,128.726,8.446
19:17:37:655,36.230,0.091,-0.003,0.188,0.780,128.539,7.372
19:17:37:655,36.230,0.065,0.141,0.222,0.998,128.997,6.811
19:17:37:655,36.230,0.049,0.220,0.263,1.297,130.092,6.280
19:17:37:675,36.250,0.022,0.399,0.291,1.552,131.526,6.090
19:17:37:759,36.334,0.084,0.250,0.273,1.826,132.635,6.152
19:17:37:759,36.334,0.153,-0.032,0.226,1.994,134.363,6.590
19:17:37:76,36.335,0.215,-0.189,0.165,1.930,135.269,7.165
19:17:37:779,36.354,0.176,-0.165,0.000,1.464,135.750,8.438
19:17:37:861,36.436,0.062,0.044,-0.173,1.102,134.931,10.344
19:17:37:862,36.437,-0.143,0.213,-0.427,1.700,132.440,12.413
19:17:37:886,36.461,-0.304,-0.206,-0.833,3.985,125.760,15.150
19:17:37:887,36.462,-0.126,0.059,0.023,4.929,123.948,15.596
19:17:38:,36.575,-0.216,-0.100,-0.129,6.708,124.987,16.093
19:17:38:,36.575,-0.166,-0.137,-0.136,7.340,126.980,16.605
19:17:38:,36.575,-0.041,-0.099,-0.029,7.240,132.317,17.604
19:17:38:001,36.576,0.013,-0.073,0.023,6.688,137.030,18.553
19:17:38:073,36.648,-0.014,-0.059,-0.001,6.652,139.307,18.767
19:17:38:074,36.649,-0.003,-0.077,-0.051,7.238,140.380,18.874
19:17:38:075,36.650,0.028,-0.066,-0.121,7.724,140.572,18.847
19:17:38:094,36.669,0.064,-0.054,-0.217,7.893,140.789,18.757
19:17:38:204,36.779,0.149,-0.093,-0.041,6.870,145.487,19.468
19:17:38:205,36.780,0.133,-0.071,0.004,6.076,148.934,19.609
19:17:38:206,36.781,0.115,-0.101,0.005,5.710,150.076,19.541
19:17:38:225,36.800,0.070,-0.103,-0.031,5.328,151.584,19.223
19:17:38:251,36.826,0.173,-0.011,-0.038,4.749,153.836,19.260
19:17:38:277,36.852,0.191,0.019,-0.056,4.250,156.119,19.425
19:17:38:337,36.912,0.275,0.100,-0.076,3.333,160.117,19.562
19:17:38:337,36.912,0.281,0.109,-0.091,2.673,162.802,19.523
19:17:38:337,36.912,0.271,0.107,-0.128,1.775,166.378,19.474
19:17:38:444,37.019,0.295,0.183,-0.124,1.195,168.537,19.605
19:17:38:444,37.019,0.245,0.181,-0.153,0.605,171.323,19.983
19:17:38:445,37.020,0.199,0.220,-0.136,0.273,173.216,20.428
19:17:38:461,37.036,-0.069,0.059,0.105,0.029,171.970,19.989
19:17:38:514,37.089,-0.033,-0.045,0.100,1.262,169.903,20.349
19:17:38:543,37.118,-0.057,-0.197,0.103,3.573,166.286,21.480
19:17:38:544,37.119,-0.154,-0.093,0.093,4.940,163.434,22.050
19:17:38:624,37.199,-0.176,-0.087,0.086,5.438,162.006,22.412
19:17:38:625,37.200,-0.212,-0.021,0.086,5.831,160.379,22.765
19:17:38:626,37.201,-0.157,-0.026,0.113,5.887,159.750,22.810
19:17:38:645,37.220,-0.170,-0.012,0.107,5.835,159.158,22.434
19:17:38:673,37.248,-0.114,-0.053,0.085,5.371,158.894,21.515
19:17:38:7,37.275,-0.085,-0.033,0.065,5.197,158.872,20.994
19:17:38:753,37.328,-0.046,-0.051,0.046,4.828,158.386,20.167
19:17:38:754,37.329,-0.041,-0.049,-0.006,4.499,157.829,19.626
19:17:38:776,37.351,-0.029,-0.060,-0.049,3.870,156.699,18.832
19:17:38:833,37.408,-0.017,-0.061,-0.079,3.369,155.951,18.283
19:17:38:833,37.408,-0.002,-0.040,-0.065,2.494,155.544,17.149
19:17:38:855,37.430,0.042,-0.012,-0.043,1.622,156.552,15.731
19:17:38:91,37.485,0.052,-0.006,-0.011,1.200,157.945,14.849
19:17:38:911,37.486,0.151,-0.027,0.018,1.029,160.503,13.881
19:17:38:934,37.509,0.216,0.009,0.018,1.120,162.303,13.243
19:17:38:989,37.564,0.220,0.022,0.031,1.331,164.567,12.392
19:17:38:99,37.565,0.241,-0.030,0.050,1.736,165.613,11.969
19:17:39:071,37.646,0.242,-0.013,0.049,2.110,165.746,11.711
19:17:39:072,37.647,0.189,0.015,0.051,2.566,165.851,10.872
19:17:39:073,37.648,0.196,0.013,0.070,2.868,166.032,10.446
19:17:39:091,37.666,0.205,-0.013,0.075,3.313,166.734,9.957
19:17:39:119,37.694,0.193,0.001,0.102,3.498,167.510,10.543
19:17:39:143,37.718,0.181,0.043,0.103,3.710,168.835,11.173
19:17:39:17,37.745,0.153,0.134,0.144,4.032,170.122,11.293
19:17:39:198,37.773,0.124,0.180,0.155,4.243,171.006,11.494
19:17:39:222,37.797,0.110,0.335,0.174,4.424,172.497,11.938
19:17:39:249,37.824,0.146,0.198,0.091,4.495,173.507,12.356
19:17:39:275,37.850,0.182,0.032,-0.017,4.227,174.540,13.160
19:17:39:301,37.876,0.130,-0.146,-0.103,3.745,174.444,14.292
19:17:39:327,37.902,0.084,-0.087,-0.063,3.474,173.617,15.355
19:17:39:354,37.929,-0.095,-0.032,-0.081,4.109,170.092,16.980
19:17:39:438,38.013,-0.362,-0.009,-0.138,5.125,166.884,17.934
19:17:39:439,38.014,-0.177,0.023,-0.090,6.585,162.828,19.897
19:17:39:44,38.015,-0.378,-0.046,-0.079,7.741,161.277,20.945
19:17:39:515,38.090,-0.290,-0.029,-0.059,8.174,162.025,21.466
19:17:39:516,38.091,-0.224,-0.080,-0.069,8.617,165.399,21.874
19:17:39:54,38.115,-0.157,-0.120,-0.062,8.835,168.378,22.191
19:17:39:541,38.116,-0.064,-0.082,-0.019,9.008,173.001,22.681
19:17:39:593,38.168,-0.026,-0.095,-0.022,9.036,175.597,23.008
19:17:39:593,38.168,-0.035,-0.080,-0.037,8.823,178.540,22.984
19:17:39:616,38.191,0.017,-0.094,-0.070,8.361,-178.420,22.483
19:17:39:672,38.247,0.073,-0.076,-0.080,7.924,-175.893,22.023
19:17:39:672,38.247,0.186,-0.072,-0.130,7.186,-172.065,21.387
19:17:39:724,38.299,0.179,-0.063,-0.092,6.651,-170.326,20.734
19:17:39:725,38.300,0.238,-0.070,-0.090,6.138,-169.566,20.316
19:17:39:748,38.323,0.200,-0.060,-0.078,5.962,-170.197,19.789
19:17:39:774,38.349,0.103,0.017,-0.111,5.694,-170.763,19.272
19:17:39:8,38.375,0.199,0.127,-0.177,5.014,-169.690,19.005
19:17:39:828,38.403,0.276,0.138,-0.201,4.445,-168.269,19.175
19:17:39:853,38.428,0.279,0.126,-0.223,3.645,-166.060,19.456
19:17:39:88,38.455,0.240,0.112,-0.212,3.019,-164.423,19.944
19:17:39:905,38.480,0.230,0.057,-0.238,2.874,-163.749,20.354
19:17:39:96,38.535,0.098,0.066,-0.174,2.840,-163.871,20.963
19:17:39:961,38.536,0.075,0.054,-0.151,2.775,-164.239,21.268
19:17:39:985,38.560,0.038,0.283,-0.100,1.837,-165.929,20.945
19:17:40:011,38.586,-0.105,0.250,0.074,0.941,-168.250,20.079
19:17:40:036,38.611,-0.005,-0.078,0.091,2.489,-172.670,18.331
19:17:40:063,38.638,-0.109,-0.036,0.259,5.702,-177.400,19.091
19:17:40:089,38.664,-0.091,-0.124,0.225,7.216,-179.363,19.133
19:17:40:116,38.691,-0.209,-0.143,0.233,8.197,178.896,19.321
19:17:40:141,38.716,-0.168,-0.065,0.269,8.373,178.647,19.901
19:17:40:168,38.743,-0.112,-0.018,0.257,7.825,178.848,20.649
19:17:40:223,38.798,-0.064,0.017,0.204,6.799,178.407,20.748
19:17:40:224,38.799,-0.067,-0.004,0.165,5.993,177.264,20.227
19:17:40:247,38.822,-0.122,-0.038,0.141,4.780,174.574,19.138
19:17:40:273,38.848,-0.124,-0.083,0.095,4.005,172.260,18.456
19:17:40:299,38.874,-0.130,-0.092,0.051,2.822,169.178,17.631
19:17:40:327,38.901,-0.116,-0.092,-0.057,1.967,167.201,17.182
19:17:40:352,38.927,-0.095,-0.087,-0.099,0.498,165.555,16.610
19:17:40:378,38.953,-0.024,-0.045,-0.251,-0.966,165.179,15.877
19:17:40:404,38.979,0.023,0.009,-0.230,-1.811,166.545,14.708
19:17:40:43,39.005,0.085,0.000,-0.117,-2.653,170.639,13.107
19:17:40:456,39.031,0.205,-0.044,0.033,-2.783,173.785,12.441
19:17:40:512,39.087,0.243,-0.042,0.032,-2.237,176.435,11.884
19:17:40:513,39.088,0.265,0.048,0.068,-1.364,176.299,11.058
19:17:40:535,39.110,0.237,0.081,0.078,-1.004,175.776,9.550
19:17:40:561,39.136,0.223,0.038,0.052,-0.511,174.031,7.514
19:17:40:62,39.195,0.225,0.016,0.045,-0.336,172.774,6.159
19:17:40:621,39.196,0.228,-0.009,0.012,-0.350,171.254,4.672
19:17:40:621,39.196,0.228,0.015,-0.007,-0.581,170.540,3.885
19:17:40:641,39.216,0.236,0.064,-0.012,-0.734,170.896,3.781
19:17:40:666,39.241,0.243,0.171,0.020,-0.735,172.411,4.148
19:17:40:693,39.268,0.264,0.182,0.034,-0.468,174.326,4.696
19:17:40:719,39.294,0.309,0.429,0.102,0.155,177.855,5.745
19:17:40:745,39.320,0.382,0.138,-0.010,0.881,-179.913,6.411
19:17:40:83,39.405,0.287,0.100,-0.094,2.889,-179.051,6.551
19:17:40:831,39.406,0.158,-0.165,-0.043,3.996,177.475,9.002
19:17:40:832,39.407,-0.077,-0.025,-0.015,4.285,173.291,11.225
19:17:40:851,39.426,-0.116,-0.176,0.055,3.866,168.571,12.308
19:17:40:878,39.453,-0.494,0.005,0.094,4.583,165.528,13.513
19:17:40:961,39.536,-0.317,-0.121,0.126,6.143,163.550,15.566
19:17:40:962,39.536,-0.253,-0.192,0.236,7.423,164.366,17.884
19:17:40:963,39.537,-0.263,-0.185,0.165,8.438,164.624,18.503
19:17:40:981,39.556,-0.284,-0.034,-0.046,10.138,163.189,18.538
19:17:41:036,39.611,-0.277,0.043,-0.339,11.184,161.372,18.369
19:17:41:037,39.612,-0.041,0.003,-0.268,11.358,160.318,18.992
19:17:41:061,39.636,-0.111,-0.030,-0.170,10.915,160.664,19.307
19:17:41:087,39.661,-0.087,-0.123,-0.079,10.217,163.182,19.549
19:17:41:113,39.688,-0.026,-0.129,-0.054,9.668,167.323,19.554
19:17:41:139,39.714,0.049,-0.151,-0.021,9.393,170.465,19.110
19:17:41:165,39.740,0.056,-0.097,-0.007,8.566,173.700,17.712
19:17:41:193,39.768,0.060,-0.072,-0.094,7.890,174.848,16.706
19:17:41:218,39.793,0.135,-0.015,-0.139,6.861,177.236,15.773
19:17:41:245,39.820,0.210,0.027,-0.134,6.118,-179.523,15.940
19:17:41:297,39.872,0.240,0.070,-0.084,5.687,-178.175,16.024
19:17:41:325,39.900,0.158,0.143,-0.054,5.108,-176.191,15.755
19:17:41:326,39.901,0.219,0.131,-0.212,4.596,-173.579,16.011
19:17:41:379,39.954,0.289,0.166,-0.298,3.445,-167.920,17.158
19:17:41:379,39.954,0.260,0.223,-0.255,2.203,-162.928,18.233
19:17:41:461,40.035,0.215,0.251,-0.183,1.576,-161.235,18.804
19:17:41:461,40.035,0.165,0.335,-0.080,0.869,-161.501,19.396
19:17:41:461,40.036,0.054,0.334,0.066,0.700,-163.774,19.361
19:17:41:48,40.055,-0.003,-0.052,0.168,2.897,-169.724,19.917
19:17:41:506,40.081,0.016,-0.110,0.268,4.916,-174.077,20.107
19:17:41:533,40.108,-0.160,-0.201,0.253,7.951,-179.876,20.299
19:17:41:64,40.215,-0.287,-0.191,0.230,9.636,176.617,20.259
19:17:41:691,40.266,-0.193,-0.148,0.235,10.219,175.665,20.746
19:17:41:727,40.301,-0.126,-0.066,0.249,10.178,175.661,21.101
19:17:41:728,40.302,-0.064,-0.026,0.255,9.719,175.851,20.931
19:17:41:728,40.303,-0.016,-0.003,0.182,8.780,175.260,20.067
19:17:41:729,40.304,-0.012,-0.007,0.175,7.733,172.886,18.857
19:17:41:775,40.350,-0.026,-0.023,0.155,7.012,170.664,17.983
19:17:41:776,40.351,-0.042,-0.059,0.138,5.936,167.342,16.953
19:17:41:824,40.399,-0.050,-0.048,0.037,4.130,163.043,16.249
19:17:41:825,40.400,-0.005,-0.072,-0.075,3.050,161.515,16.323
19:17:41:906,40.481,0.035,-0.073,-0.112,2.248,160.805,16.353
19:17:41:907,40.482,0.028,-0.062,-0.162,0.958,159.983,16.211
19:17:41:908,40.483,-0.009,0.011,-0.375,0.336,159.924,15.835
19:17:41:955,40.530,0.070,0.017,-0.169,-0.063,162.237,15.389
19:17:41:956,40.531,0.193,0.023,-0.005,0.044,164.558,15.138
19:17:42:037,40.612,0.109,0.064,0.005,0.411,166.376,14.819
19:17:42:038,40.613,0.141,0.068,0.077,1.431,167.480,13.979
19:17:42:039,40.614,0.100,0.019,0.084,2.186,167.796,13.470
19:17:42:057,40.632,0.129,0.030,0.112,3.128,167.928,12.609
19:17:42:085,40.660,0.129,0.041,0.102,3.357,167.910,12.239
19:17:42:111,40.686,0.132,0.075,0.105,3.435,167.825,11.472
19:17:42:137,40.712,0.127,0.204,0.167,3.505,167.660,10.570
19:17:42:162,40.737,0.144,0.222,0.174,3.781,167.598,10.188
19:17:42:19,40.765,0.114,0.310,0.198,4.300,167.896,9.665
19:17:42:215,40.790,0.155,0.112,0.111,4.666,168.409,9.457
19:17:42:3,40.875,0.171,-0.113,-0.016,4.873,169.634,9.672
19:17:42:301,40.876,0.197,-0.193,-0.151,5.086,171.232,10.367
19:17:42:301,40.876,0.245,-0.070,-0.067,5.524,173.098,11.988
19:17:42:35,40.924,0.025,-0.026,0.022,6.120,171.565,13.994
19:17:42:35,40.925,-0.086,0.003,0.028,6.710,169.982,15.232
19:17:42:46,41.035,-0.283,0.019,0.008,7.833,168.113,17.053
19:17:42:461,41.036,-0.299,-0.043,0.011,8.512,167.709,18.489
19:17:42:462,41.037,-0.283,-0.066,-0.027,9.559,168.020,20.381
19:17:42:463,41.038,-0.284,-0.095,-0.053,10.775,168.905,21.705
19:17:42:478,41.053,-0.284,-0.113,-0.085,11.626,169.762,22.168
19:17:42:504,41.079,-0.191,-0.120,-0.105,12.495,171.257,22.825
19:17:42:53,41.105,-0.134,-0.109,-0.115,12.648,173.025,23.166
19:17:42:585,41.160,-0.132,-0.130,-0.081,12.409,175.500,22.957
19:17:42:586,41.161,-0.055,-0.128,-0.059,12.087,177.591,22.606
19:17:42:609,41.184,-0.016,-0.118,-0.061,11.496,-179.284,21.945
19:17:42:635,41.210,0.086,-0.120,-0.131,11.021,-176.314,21.475
19:17:42:662,41.236,0.118,-0.010,-0.096,10.587,-174.358,20.804
19:17:42:688,41.263,0.148,0.023,-0.108,10.041,-171.236,20.265
19:17:42:714,41.289,0.182,0.069,-0.121,9.755,-169.240,19.922
19:17:42:795,41.370,0.172,0.081,-0.113,9.617,-166.642,19.624
19:17:42:826,41.401,0.156,0.058,-0.114,9.754,-164.340,19.480
19:17:42:827,41.402,0.128,0.046,-0.099,9.822,-163.099,19.406
19:17:42:827,41.402,0.150,0.118,-0.086,9.776,-162.164,19.216
19:17:42:906,41.481,0.056,0.263,-0.172,9.644,-161.765,18.658
19:17:42:907,41.482,0.029,0.401,-0.229,8.733,-159.632,17.184
19:17:42:908,41.483,0.293,0.380,-0.085,6.555,-157.105,18.190
19:17:42:909,41.483,0.231,0.054,-0.070,6.375,-156.908,19.043
19:17:42:951,41.526,0.161,-0.205,-0.095,8.376,-158.790,20.354
19:17:43:038,41.613,0.023,-0.188,0.054,9.871,-161.387,20.941
19:17:43:039,41.613,0.028,-0.057,0.139,11.408,-164.712,21.179
19:17:43:039,41.614,-0.025,0.008,0.147,11.894,-166.464,21.506
19:17:43:04,41.615,-0.005,0.056,0.146,11.983,-168.666,22.197
19:17:43:055,41.630,-0.003,0.082,0.167,11.512,-170.906,22.245
19:17:43:081,41.656,-0.004,0.036,0.171,11.167,-172.671,21.985
19:17:43:107,41.682,-0.034,-0.027,0.179,10.856,-175.363,21.680
19:17:43:134,41.709,-0.108,-0.050,0.208,10.698,-176.776,21.817
19:17:43:16,41.735,-0.095,-0.054,0.222,10.694,-178.158,22.749
19:17:43:186,41.761,-0.103,-0.115,0.164,10.994,-178.723,24.193
19:17:43:213,41.788,-0.144,-0.128,0.117,11.031,-178.691,25.281
19:17:43:268,41.843,-0.165,-0.138,0.103,10.884,-178.644,26.825
19:17:43:269,41.844,-0.166,-0.118,0.140,9.878,-178.671,27.043
19:17:43:293,41.868,-0.150,-0.146,0.119,9.263,-178.579,28.005
19:17:43:319,41.894,-0.126,-0.164,0.053,8.854,-178.742,28.387
19:17:43:345,41.920,-0.143,-0.158,0.043,8.032,-179.497,28.235
19:17:43:401,41.976,-0.165,-0.108,0.009,7.064,179.433,27.412
19:17:43:401,41.976,-0.132,-0.081,-0.069,6.591,178.971,26.585
19:17:43:482,42.057,-0.102,-0.073,-0.149,6.075,179.165,24.994
19:17:43:482,42.057,-0.013,0.003,-0.265,5.488,-179.999,23.669
19:17:43:482,42.057,0.054,0.111,-0.288,4.144,-178.244,21.276
19:17:43:501,42.076,0.143,0.169,-0.293,2.906,-176.322,18.439
19:17:43:615,42.190,0.201,0.266,-0.233,2.578,-175.284,16.495
19:17:43:615,42.190,0.248,0.276,-0.166,3.184,-174.895,13.654
19:17:43:616,42.191,0.197,0.360,-0.017,3.927,-175.403,11.801
19:17:43:617,42.192,0.195,0.317,-0.017,5.022,-175.861,9.277
19:17:43:664,42.239,0.268,0.384,0.078,5.794,-174.707,7.620
19:17:43:664,42.239,0.305,0.321,0.058,6.209,-173.117,7.041
19:17:43:685,42.260,0.361,-0.034,-0.036,6.822,-170.831,6.818
19:17:43:741,42.316,0.331,-0.224,-0.048,7.284,-170.032,7.041
19:17:43:742,42.317,0.280,-0.223,-0.028,8.056,-169.785,7.918
19:17:43:793,42.368,0.202,-0.129,0.005,8.540,-169.991,8.915
19:17:43:794,42.369,0.053,-0.024,0.086,9.313,-170.858,10.941
19:17:43:816,42.391,-0.165,-0.013,0.162,10.226,-171.399,13.285
19:17:43:844,42.419,-0.249,-0.044,0.208,10.875,-171.235,14.930
19:17:43:87,42.445,-0.298,-0.155,0.182,11.704,-170.073,17.288
19:17:43:896,42.471,-0.251,-0.187,0.163,12.004,-168.852,18.492
19:17:43:923,42.497,-0.232,-0.182,0.147,12.106,-167.197,19.502
19:17:43:977,42.552,-0.198,-0.141,0.104,11.821,-165.996,19.757
19:17:43:978,42.553,-0.165,-0.127,0.047,11.453,-165.756,19.615
19:17:44:,42.575,-0.111,-0.095,-0.028,10.738,-165.911,18.841
19:17:44:027,42.602,-0.099,-0.046,-0.090,10.221,-166.800,17.922
19:17:44:052,42.627,-0.179,0.005,-0.203,9.494,-168.695,16.278
19:17:44:167,42.741,0.009,0.002,-0.283,9.052,-168.735,15.593
19:17:44:167,42.742,0.056,-0.034,-0.264,8.409,-165.531,14.786
19:17:44:168,42.742,0.156,-0.069,-0.198,8.052,-163.216,13.898
19:17:44:169,42.743,0.050,-0.003,-0.163,7.938,-163.191,13.080
19:17:44:243,42.818,0.075,0.034,-0.166,7.802,-164.122,11.821
19:17:44:243,42.818,0.070,0.090,-0.136,7.779,-164.645,11.073
19:17:44:244,42.819,0.097,0.103,-0.104,7.883,-164.697,10.207
19:17:44:263,42.838,0.132,0.054,-0.103,8.130,-163.077,9.921
19:17:44:289,42.864,0.160,0.049,-0.100,8.305,-161.384,10.117
19:17:44:401,42.976,0.183,0.169,-0.091,8.396,-158.647,10.778
19:17:44:402,42.977,0.185,0.227,-0.095,8.325,-156.972,11.295
19:17:44:403,42.978,0.184,0.317,-0.102,8.066,-155.262,11.968
19:17:44:451,43.026,0.176,0.057,-0.085,7.853,-154.186,12.651
19:17:44:452,43.027,0.160,-0.066,-0.045,7.958,-153.620,13.368
19:17:44:535,43.110,0.130,-0.101,0.010,8.439,-152.383,15.041
19:17:44:535,43.110,0.105,-0.042,0.023,8.646,-151.403,16.449
19:17:44:536,43.111,0.100,0.001,0.060,8.494,-150.226,18.598
19:17:44:536,43.111,0.065,0.043,0.068,8.055,-150.383,20.312
19:17:44:551,43.126,0.036,0.051,0.097,7.865,-151.438,21.117
19:17:44:577,43.152,0.010,-0.003,0.089,7.963,-154.368,21.819
19:17:44:604,43.179,-0.016,-0.024,0.101,8.281,-156.952,21.986
19:17:44:631,43.206,-0.056,-0.070,0.096,8.889,-160.965,22.199
19:17:44:657,43.232,-0.073,-0.059,0.117,9.231,-163.243,22.484
19:17:44:736,43.311,-0.073,-0.069,0.101,9.540,-165.815,23.197
19:17:44:767,43.342,-0.106,-0.080,0.096,9.285,-167.597,23.492
19:17:44:768,43.343,-0.105,-0.085,0.077,9.092,-168.455,23.656
19:17:44:769,43.344,-0.111,-0.112,0.057,9.084,-169.203,24.359
19:17:44:877,43.452,-0.127,-0.111,0.055,9.103,-169.382,24.919
19:17:44:877,43.452,-0.120,-0.112,0.043,8.869,-169.447,25.054
19:17:44:878,43.453,-0.126,-0.093,0.037,8.609,-169.427,24.746
19:17:44:879,43.454,-0.112,-0.092,0.033,8.118,-169.365,23.871
19:17:44:893,43.468,-0.094,-0.073,-0.008,7.525,-169.072,22.507
19:17:44:919,43.494,-0.044,-0.016,-0.036,7.006,-168.579,21.753
19:17:44:945,43.520,-0.023,0.002,-0.054,6.151,-167.526,20.285
19:17:44:972,43.547,0.027,0.015,-0.101,5.696,-166.855,19.053
19:17:45:,43.575,0.039,0.027,-0.121,5.327,-166.173,16.900
19:17:45:001,43.576,0.049,0.121,-0.090,5.114,-165.360,14.503
19:17:45:053,43.628,0.086,0.258,-0.011,5.085,-164.343,12.926
19:17:45:053,43.628,0.173,0.312,-0.001,5.520,-162.190,10.732
19:17:45:076,43.651,0.227,0.410,0.031,5.992,-160.413,9.332
19:17:45:132,43.707,0.252,0.255,-0.047,6.696,-157.120,7.601
19:17:45:132,43.707,0.299,0.001,-0.102,7.243,-153.682,6.643
19:17:45:155,43.730,0.283,-0.157,-0.128,7.642,-151.717,6.442
19:17:45:262,43.837,0.246,-0.201,-0.120,8.337,-149.369,6.932
19:17:45:347,43.922,0.214,-0.093,-0.080,8.827,-148.163,7.637
19:17:45:348,43.923,0.149,-0.073,0.032,9.645,-146.537,9.110
19:17:45:349,43.924,0.079,-0.045,0.137,10.188,-145.476,10.313
19:17:45:374,43.949,0.038,-0.055,0.144,10.961,-143.469,12.283
19:17:45:375,43.950,0.007,-0.091,0.119,11.411,-141.362,13.951
19:17:45:375,43.950,-0.034,-0.122,0.111,11.587,-140.409,14.653
19:17:45:376,43.951,-0.126,-0.105,0.038,11.809,-139.730,15.062
19:17:45:473,44.048,-0.183,-0.011,-0.067,11.831,-139.510,15.074
19:17:45:524,44.099,-0.252,0.016,-0.192,11.826,-138.561,15.032
19:17:45:559,44.134,-0.259,0.004,-0.153,11.738,-137.077,14.771
19:17:45:56,44.135,-0.139,-0.035,-0.118,11.963,-135.100,14.769
19:17:45:56,44.135,0.012,-0.090,-0.136,12.520,-132.214,14.876
19:17:45:561,44.136,0.017,-0.084,-0.092,12.846,-130.675,14.655
19:17:45:609,44.184,0.051,-0.093,-0.101,13.358,-129.332,14.219
19:17:45:609,44.184,0.037,-0.103,-0.093,13.695,-128.258,13.583
19:17:45:609,44.184,0.034,-0.067,-0.111,13.803,-127.805,13.487
19:17:45:657,44.232,0.054,0.017,-0.144,13.577,-127.272,12.835
19:17:45:658,44.233,0.068,0.066,-0.152,13.329,-126.970,12.274
19:17:45:794,44.369,0.076,0.084,-0.152,13.066,-126.021,11.552
19:17:45:795,44.370,0.081,0.068,-0.176,13.014,-125.229,11.295
19:17:45:796,44.370,0.055,0.095,-0.167,12.999,-123.211,11.512
19:17:45:797,44.371,0.061,0.168,-0.207,12.713,-121.425,11.775
19:17:45:814,44.389,0.042,0.225,-0.215,12.464,-120.127,12.029
19:17:45:815,44.390,-0.009,0.287,-0.189,11.945,-118.604,12.475
19:17:45:838,44.413,-0.048,0.107,-0.110,11.645,-117.260,13.049
19:17:45:92,44.495,-0.079,-0.101,-0.085,11.891,-116.220,14.220
19:17:45:921,44.496,-0.068,-0.197,0.030,12.920,-116.057,15.509
19:17:45:976,44.551,-0.009,-0.106,0.116,13.572,-115.871,16.155
19:17:45:976,44.551,0.110,0.005,0.061,13.924,-113.512,16.981
19:17:45:976,44.551,0.100,0.031,0.092,13.920,-112.337,17.460
19:17:46:024,44.599,0.208,0.046,0.046,13.606,-111.148,18.206
19:17:46:025,44.600,0.195,0.015,0.066,13.462,-111.278,18.257
19:17:46:048,44.623,0.171,-0.030,0.055,13.477,-112.102,18.023
19:17:46:103,44.678,0.167,-0.050,0.048,13.549,-113.139,17.861
19:17:46:104,44.679,0.161,-0.084,0.057,13.573,-113.915,17.908
19:17:46:126,44.701,0.136,-0.098,0.045,13.523,-114.106,18.327
19:17:46:182,44.757,0.134,-0.095,0.052,13.362,-114.063,18.753
19:17:46:183,44.758,0.105,-0.091,0.029,12.441,-113.264,19.582
19:17:46:477,45.052,0.089,-0.077,0.058,11.322,-113.107,20.285
19:17:46:478,45.053,0.069,-0.076,0.038,10.731,-113.134,20.582
19:17:46:479,45.054,0.029,-0.058,0.064,10.107,-113.842,20.669
19:17:46:479,45.054,0.005,-0.046,0.056,9.852,-114.348,20.578
19:17:46:532,45.107,-0.020,-0.034,0.050,9.526,-115.027,20.264
19:17:46:532,45.107,-0.118,-0.030,-0.028,9.007,-114.686,19.751
19:17:46:533,45.108,-0.198,-0.011,-0.096,8.454,-114.043,19.248
19:17:46:534,45.109,-0.177,0.037,-0.170,7.219,-112.326,18.260
19:17:46:547,45.122,-0.089,0.074,-0.121,6.434,-111.162,17.463
19:17:46:608,45.183,0.007,0.071,-0.145,5.841,-108.897,16.227
19:17:46:609,45.184,0.068,0.009,-0.143,6.143,-107.750,15.619
19:17:46:61,45.185,0.076,0.000,-0.117,7.283,-106.558,14.554
19:17:46:61,45.185,0.091,0.108,-0.095,8.394,-106.551,13.230
19:17:46:633,45.208,0.139,0.190,-0.081,8.811,-106.034,12.266
19:17:46:633,45.208,0.177,0.239,-0.136,9.195,-104.669,10.983
19:17:46:634,45.209,0.239,0.300,-0.133,9.355,-103.065,10.282
19:17:46:654,45.229,0.156,0.098,-0.234,9.704,-100.952,9.650
19:17:46:655,45.230,0.111,-0.074,-0.230,10.007,-99.009,9.539
19:17:46:68,45.255,0.039,-0.247,-0.250,10.393,-97.336,9.775
19:17:46:733,45.308,0.014,-0.194,-0.218,10.724,-95.478,10.734
19:17:46:734,45.309,0.049,-0.082,-0.144,10.783,-95.120,11.626
19:17:46:785,45.360,0.103,-0.001,-0.060,10.816,-94.355,13.374
19:17:46:786,45.361,0.092,0.006,0.034,10.903,-94.178,14.626
19:17:46:864,45.439,0.088,0.010,0.120,11.163,-93.404,16.572
19:17:46:893,45.468,0.008,-0.036,0.158,11.306,-92.734,18.368
19:17:46:894,45.469,-0.024,-0.079,0.199,11.271,-92.587,19.358
19:17:46:895,45.470,-0.125,-0.093,0.187,11.157,-93.073,20.129
19:17:46:943,45.518,-0.166,-0.057,0.210,11.225,-93.808,20.326
19:17:46:944,45.519,-0.215,-0.035,0.202,11.537,-94.605,20.191
19:17:46:993,45.568,-0.138,-0.014,0.123,11.735,-94.391,20.013
19:17:47:186,45.761,-0.111,-0.050,0.079,11.873,-93.375,19.747
19:17:47:187,45.761,-0.039,-0.111,0.035,11.947,-91.527,19.232
19:17:47:188,45.762,-0.035,-0.142,-0.008,11.833,-89.977,18.819
19:17:47:188,45.763,-0.017,-0.141,-0.048,11.438,-87.870,17.992
19:17:47:212,45.787,-0.018,-0.097,-0.099,11.033,-86.208,17.359
19:17:47:213,45.788,-0.034,-0.037,-0.100,10.420,-84.226,16.356
19:17:47:214,45.789,-0.067,0.034,-0.151,9.941,-81.645,15.536
19:17:47:214,45.789,-0.061,0.105,-0.156,9.703,-79.723,15.060
19:17:47:418,45.993,-0.075,0.102,-0.175,9.415,-75.978,14.618
19:17:47:419,45.994,-0.070,0.075,-0.208,9.250,-73.353,14.544
19:17:47:501,46.075,-0.094,0.056,-0.212,9.044,-69.518,14.670
19:17:47:502,46.076,-0.124,0.100,-0.195,8.763,-67.290,14.851
19:17:47:502,46.077,-0.119,0.161,-0.160,8.382,-65.931,14.753
19:17:47:503,46.078,-0.233,0.142,-0.083,7.595,-64.290,14.801
19:17:47:581,46.156,-0.264,0.279,-0.128,6.535,-61.785,14.814
19:17:47:581,46.156,-0.109,0.283,-0.189,4.477,-59.561,15.876
19:17:47:582,46.157,-0.075,0.069,-0.262,5.074,-60.204,17.003
19:17:47:583,46.158,-0.030,-0.105,-0.200,6.353,-62.480,17.227
19:17:47:606,46.181,0.096,-0.123,0.005,8.794,-66.314,16.869
19:17:47:607,46.182,0.113,-0.090,0.019,9.737,-67.950,17.188
19:17:47:608,46.183,0.175,0.007,-0.015,10.281,-68.905,18.472
19:17:47:608,46.183,0.205,0.047,-0.041,10.178,-68.810,19.807
19:17:47:705,46.280,0.239,0.069,-0.050,9.994,-68.779,20.483
19:17:47:706,46.281,0.227,-0.015,-0.033,9.911,-69.425,20.925
19:17:47:733,46.308,0.230,-0.073,-0.033,10.024,-70.269,21.022
19:17:47:734,46.309,0.215,-0.112,-0.012,10.217,-71.631,21.000
19:17:47:763,46.338,0.205,-0.115,-0.007,10.210,-72.358,21.012
19:17:47:764,46.339,0.177,-0.124,-0.006,9.875,-73.062,21.144
19:17:47:765,46.340,0.148,-0.103,0.006,8.959,-73.520,21.366
19:17:47:766,46.341,0.138,-0.075,0.014,8.516,-73.810,21.633
19:17:47:841,46.416,0.120,-0.065,0.029,7.941,-74.258,22.031
19:17:47:842,46.417,0.105,-0.061,0.041,7.638,-74.581,22.206
19:17:47:917,46.492,-0.046,-0.045,0.062,6.313,-74.864,21.464
19:17:47:918,46.493,-0.261,-0.005,0.083,5.357,-73.841,20.553
19:17:47:919,46.494,-0.270,0.063,0.007,4.343,-72.680,19.728
19:17:47:997,46.572,-0.084,0.088,-0.047,2.664,-69.912,18.218
19:17:47:997,46.572,-0.049,0.085,-0.191,2.126,-67.430,17.360
19:17:47:998,46.573,-0.046,0.068,-0.242,2.858,-63.971,16.681
19:17:48:017,46.592,-0.006,0.017,-0.208,4.919,-62.636,15.747
19:17:48:102,46.677,0.017,0.063,-0.192,6.331,-62.757,14.673
19:17:48:102,46.677,0.083,0.172,-0.210,7.729,-63.606,12.616
19:17:48:103,46.678,0.116,0.377,-0.287,8.146,-64.029,11.174
19:17:48:147,46.722,-0.040,0.065,-0.314,8.050,-64.547,7.886
19:17:48:288,46.863,-0.123,-0.158,-0.264,8.034,-64.734,7.608
19:17:48:289,46.864,-0.139,-0.233,-0.230,8.142,-65.028,8.199
19:17:48:29,46.865,-0.063,-0.061,-0.200,8.128,-65.076,9.207
19:17:48:29,46.865,0.059,0.072,-0.136,8.312,-65.178,11.424
19:17:48:308,46.883,0.119,0.022,-0.013,8.689,-65.085,13.220
19:17:48:309,46.884,0.152,0.005,0.036,9.362,-64.814,16.067
19:17:48:333,46.908,0.120,-0.060,0.083,9.805,-64.028,18.843
19:17:48:357,46.932,0.103,-0.060,0.087,9.841,-63.543,20.472
19:17:48:413,46.988,0.086,-0.053,0.100,9.750,-63.444,22.380
19:17:48:414,46.989,0.038,-0.038,0.144,9.860,-63.761,23.336
19:17:48:466,47.041,0.016,-0.062,0.205,10.584,-65.366,24.352
19:17:48:467,47.041,0.020,-0.081,0.239,11.885,-68.179,24.911
19:17:48:547,47.122,0.027,-0.133,0.298,12.747,-70.132,24.964
19:17:48:548,47.123,0.003,-0.181,0.255,13.425,-71.750,24.900
19:17:48:549,47.124,-0.037,-0.126,0.153,13.251,-71.387,24.844
19:17:48:568,47.143,-0.036,-0.130,0.125,12.295,-69.455,24.408
19:17:48:623,47.198,-0.030,-0.066,0.036,11.088,-66.928,23.608
19:17:48:624,47.199,-0.044,-0.056,-0.005,10.412,-65.184,22.961
19:17:48:733,47.308,-0.088,-0.030,-0.030,9.775,-63.028,21.779
19:17:48:733,47.308,-0.047,0.015,-0.020,9.580,-62.289,20.633
19:17:48:733,47.308,-0.034,0.088,0.017,9.295,-62.598,18.634
19:17:48:755,47.330,-0.103,0.122,-0.096,9.059,-62.026,17.479
19:17:48:755,47.330,-0.101,0.090,-0.172,8.820,-60.114,15.919
19:17:48:778,47.352,-0.074,0.089,-0.155,8.858,-59.545,14.432
19:17:48:833,47.408,-0.068,0.123,-0.122,8.850,-60.340,13.637
19:17:48:834,47.409,-0.081,0.186,-0.112,8.665,-60.873,12.809
19:17:48:856,47.431,-0.040,0.338,-0.109,8.427,-60.979,12.490
19:17:48:972,47.547,-0.059,0.267,-0.130,8.102,-59.899,12.455
19:17:48:973,47.548,-0.055,0.017,-0.158,8.206,-58.503,12.994
19:17:48:974,47.549,-0.069,-0.089,-0.140,8.528,-57.370,13.717
19:17:49:178,47.753,0.022,-0.056,-0.037,9.341,-55.535,16.124
19:17:49:178,47.753,0.078,-0.008,-0.125,9.685,-55.227,17.622
19:17:49:25,47.825,0.107,-0.013,-0.098,10.019,-55.567,18.577
19:17:49:287,47.862,0.156,-0.003,-0.091,10.223,-55.954,18.912
19:17:49:287,47.862,0.175,0.014,-0.091,10.568,-57.054,19.254
19:17:49:288,47.863,0.181,-0.011,-0.077,10.790,-57.484,19.454
19:17:49:288,47.863,0.170,-0.038,-0.070,10.286,-58.199,19.723
19:17:49:303,47.878,0.184,-0.064,-0.052,10.281,-58.321,20.274
19:17:49:339,47.914,0.161,-0.096,-0.044,10.127,-58.159,20.839
19:17:49:339,47.914,0.136,-0.097,-0.042,9.669,-57.793,21.862
19:17:49:34,47.915,0.103,-0.111,-0.019,9.333,-57.751,22.548
19:17:49:341,47.916,0.102,-0.120,0.031,8.894,-58.208,23.369
19:17:49:391,47.966,0.071,-0.123,0.071,8.697,-58.959,23.691
19:17:49:392,47.967,0.051,-0.102,0.115,8.448,-59.751,23.740
19:17:49:393,47.968,-0.020,-0.079,0.162,7.952,-59.746,23.276
19:17:49:409,47.984,-0.081,0.047,0.122,5.814,-56.244,21.220
19:17:49:434,48.009,0.015,0.099,-0.006,4.904,-53.643,20.244
19:17:49:461,48.036,-0.091,0.057,-0.097,4.881,-49.823,20.074
19:17:49:487,48.062,-0.070,0.043,-0.162,5.625,-46.701,19.347
19:17:49:516,48.091,-0.016,-0.001,-0.140,6.418,-45.559,18.606
19:17:49:517,48.092,-0.050,-0.020,-0.161,7.688,-44.711,17.357
19:17:49:568,48.143,0.007,0.015,-0.170,8.305,-44.450,16.316
19:17:49:569,48.144,-0.006,0.044,-0.205,8.897,-43.787,14.766
19:17:49:592,48.167,0.050,0.177,-0.247,9.208,-42.457,13.477
19:17:49:647,48.222,0.045,0.168,-0.256,9.476,-41.224,12.991
19:17:49:647,48.222,0.071,0.416,-0.298,9.813,-39.154,12.794
19:17:49:67,48.245,0.030,0.300,-0.261,10.007,-37.544,12.922
19:17:49:751,48.326,-0.021,0.029,-0.203,10.065,-35.090,13.546
19:17:49:837,48.412,-0.092,-0.196,-0.099,9.979,-33.506,14.249
19:17:49:838,48.413,-0.101,-0.159,-0.023,9.497,-31.765,15.636
19:17:49:859,48.434,0.134,-0.012,0.049,8.567,-31.672,18.397
19:17:49:859,48.434,0.136,-0.006,0.078,8.680,-31.444,18.735
19:17:49:91,48.485,0.118,0.000,0.148,8.701,-30.787,19.293
19:17:49:91,48.485,0.127,0.055,0.353,8.581,-29.590,19.944
19:17:49:933,48.508,0.059,0.021,0.325,8.393,-28.269,20.956
19:17:49:988,48.563,-0.012,-0.094,0.134,8.792,-25.647,21.961
19:17:49:989,48.564,0.002,-0.094,0.057,9.214,-24.077,22.103
19:17:50:042,48.617,0.005,-0.095,-0.016,9.445,-22.132,22.031
19:17:50:042,48.617,0.040,-0.101,-0.036,9.428,-21.458,21.726
19:17:50:094,48.669,0.014,-0.095,-0.031,9.332,-20.900,20.942
19:17:50:094,48.669,-0.052,-0.099,-0.018,9.123,-20.309,20.004
19:17:50:116,48.691,-0.064,-0.079,-0.011,8.889,-20.036,19.274
19:17:50:143,48.718,-0.093,-0.042,0.009,8.513,-20.009,18.118
19:17:50:169,48.744,-0.080,-0.019,0.026,8.225,-20.217,17.319
19:17:50:224,48.799,-0.110,-0.007,0.026,7.742,-20.294,16.246
19:17:50:225,48.800,-0.151,-0.017,0.051,7.250,-19.705,15.357
19:17:50:248,48.823,-0.180,-0.026,0.050,6.964,-19.208,14.901
19:17:50:274,48.849,-0.202,-0.004,0.049,6.647,-18.200,14.446
19:17:50:3,48.875,-0.186,0.071,0.030,6.497,-17.543,14.285
19:17:50:326,48.901,-0.171,0.143,0.030,6.369,-16.347,14.196
19:17:50:354,48.929,-0.135,0.187,0.026,6.337,-15.044,14.391
19:17:50:408,48.983,-0.146,0.209,0.003,6.349,-13.955,14.753
19:17:50:409,48.984,-0.104,0.389,0.001,6.305,-12.161,15.541
19:17:50:491,49.066,-0.126,0.316,0.000,6.230,-11.025,16.095
19:17:50:491,49.066,-0.067,0.024,-0.040,6.438,-9.865,17.183
19:17:50:492,49.067,-0.037,-0.094,-0.021,6.870,-9.339,18.207
19:17:50:512,49.087,0.022,-0.055,-0.022,7.657,-8.704,20.003
19:17:50:564,49.139,0.074,-0.023,-0.060,8.300,-8.419,21.689
19:17:50:65,49.225,0.108,-0.007,-0.101,8.647,-8.468,22.577
19:17:50:651,49.226,0.139,-0.030,-0.118,9.058,-8.563,23.481
19:17:50:652,49.227,0.093,-0.026,-0.159,9.315,-8.403,23.965
19:17:50:653,49.228,0.081,-0.052,-0.146,9.744,-8.112,24.519
19:17:50:697,49.272,0.088,-0.095,-0.114,10.080,-8.256,24.900
19:17:50:698,49.273,0.089,-0.094,-0.102,10.136,-8.715,25.073
19:17:50:749,49.324,0.072,-0.119,-0.084,10.076,-9.321,25.401
19:17:50:75,49.325,0.075,-0.125,-0.053,10.004,-9.781,25.622
19:17:50:831,49.406,0.070,-0.121,-0.018,9.919,-10.431,25.842
19:17:50:832,49.407,0.088,-0.094,0.005,9.901,-10.825,25.858
19:17:50:833,49.408,0.082,-0.067,0.008,9.924,-11.052,25.721
19:17:50:879,49.454,0.077,-0.042,0.016,9.942,-10.772,25.345
19:17:50:965,49.540,0.048,-0.035,0.018,9.974,-10.342,24.983
19:17:50:965,49.540,0.014,-0.023,0.038,10.015,-9.495,24.317
19:17:50:966,49.541,-0.023,0.018,0.030,9.999,-8.684,23.841
19:17:50:967,49.542,-0.032,0.038,0.007,9.976,-7.497,22.981
19:17:51:014,49.589,-0.020,0.027,-0.019,10.345,-6.630,22.014
19:17:51:014,49.589,-0.015,0.029,-0.018,10.774,-6.063,21.304
19:17:51:035,49.610,0.001,0.007,-0.066,11.367,-4.935,20.368
19:17:51:091,49.666,0.005,0.161,-0.147,11.677,-3.784,19.911
19:17:51:091,49.666,0.009,0.193,-0.154,12.133,-1.466,19.413
19:17:51:144,49.719,0.024,0.392,-0.263,12.561,1.080,19.055
19:17:51:144,49.719,-0.002,0.147,-0.206,12.809,2.982,18.891
19:17:51:167,49.742,-0.094,-0.115,-0.097,12.923,6.166,19.064
19:17:51:193,49.768,-0.137,-0.175,0.009,12.804,8.240,19.449
19:17:51:219,49.794,-0.075,-0.079,-0.001,12.333,10.084,20.059
19:17:51:245,49.820,0.004,-0.019,-0.057,12.061,10.362,20.477
19:17:51:273,49.848,0.089,0.021,-0.102,11.915,10.620,21.145
19:17:51:298,49.873,0.105,-0.073,-0.059,11.706,11.510,21.664
19:17:51:324,49.899,0.057,-0.133,-0.038,11.395,12.533,21.932
19:17:51:35,49.925,0.047,-0.148,-0.002,10.834,13.815,22.079
19:17:51:376,49.951,0.064,-0.086,0.045,10.452,14.769,22.081
19:17:51:403,49.978,0.118,-0.027,0.106,9.866,16.576,22.086
19:17:51:43,50.005,0.097,0.000,0.183,9.120,19.535,22.365
19:17:51:456,50.031,-0.001,-0.031,0.184,8.603,21.349,22.589
19:17:51:481,50.056,-0.014,-0.062,0.157,8.057,22.803,22.257
19:17:51:508,50.083,-0.044,-0.039,0.177,7.778,23.120,21.786
19:17:51:534,50.109,-0.007,-0.058,0.127,7.913,22.621,21.128
19:17:51:562,50.137,-0.039,-0.074,0.113,7.904,21.835,20.551
19:17:51:588,50.163,-0.038,-0.041,0.086,8.065,21.399,19.582
19:17:51:613,50.188,-0.058,0.041,0.059,8.296,21.090,18.590
19:17:51:642,50.217,-0.055,0.081,0.026,8.451,21.129,17.971
19:17:51:643,50.218,-0.101,0.086,0.035,8.573,21.473,17.243
19:17:51:692,50.267,-0.128,0.091,0.056,8.574,22.215,16.929
19:17:51:721,50.296,-0.126,0.090,0.073,8.508,23.229,16.717
19:17:51:721,50.296,-0.100,0.151,0.093,8.313,24.236,16.749
19:17:51:774,50.349,-0.093,0.167,0.086,8.100,24.875,16.902
19:17:51:774,50.349,-0.103,0.283,0.062,7.819,25.890,17.267
19:17:51:797,50.372,-0.096,0.184,0.078,7.710,26.232,17.487
19:17:51:823,50.398,-0.093,0.075,0.040,7.822,26.705,17.867
19:17:51:849,50.424,-0.090,-0.022,-0.001,8.301,26.813,18.732
19:17:51:875,50.450,-0.067,-0.014,-0.035,8.721,26.625,19.475
19:17:51:902,50.477,-0.027,-0.018,-0.089,9.371,25.387,20.551
19:17:51:928,50.503,-0.006,-0.004,-0.126,9.745,24.267,21.166
19:17:51:983,50.558,0.001,-0.011,-0.141,10.262,22.295,21.905
19:17:51:984,50.559,-0.004,0.013,-0.138,10.359,20.997,22.209
19:17:52:007,50.582,0.007,-0.034,-0.173,10.254,18.940,22.616
19:17:52:034,50.609,-0.029,-0.071,-0.172,10.684,17.371,23.330
19:17:52:059,50.634,0.006,-0.103,-0.187,10.964,16.441,23.807
19:17:52:086,50.661,0.018,-0.137,-0.159,11.263,14.906,24.537
19:17:52:113,50.688,0.031,-0.129,-0.149,11.324,13.982,25.042
19:17:52:138,50.713,0.038,-0.142,-0.118,10.997,12.462,25.524
19:17:52:165,50.740,0.031,-0.156,-0.094,10.987,10.969,25.893
19:17:52:191,50.766,0.065,-0.153,-0.084,11.059,9.764,25.936
19:17:52:217,50.791,0.091,-0.082,-0.101,11.249,7.990,25.794
19:17:52:243,50.818,0.118,-0.052,-0.101,11.413,6.931,25.583
19:17:52:269,50.844,0.084,-0.041,-0.076,11.593,6.190,25.126
19:17:52:295,50.870,0.065,0.001,-0.056,11.662,6.102,24.500
19:17:52:322,50.897,0.067,0.022,-0.041,11.595,6.190,24.003
19:17:52:347,50.922,0.091,0.046,-0.016,11.525,6.246,23.120
19:17:52:374,50.949,-0.021,0.103,-0.017,11.476,6.291,22.562
19:17:52:401,50.975,0.050,0.101,-0.003,11.462,6.418,21.650
19:17:52:428,51.003,0.053,0.200,-0.088,11.408,6.680,21.169
19:17:52:454,51.029,0.063,0.244,-0.146,11.304,7.858,20.632
19:17:52:479,51.054,-0.005,0.262,-0.153,11.354,9.891,20.268
19:17:52:505,51.080,-0.035,0.115,-0.101,11.436,11.232,19.920
19:17:52:531,51.106,-0.099,-0.060,-0.004,11.352,13.124,19.464
19:17:52:558,51.133,-0.119,-0.106,0.055,11.089,14.040,19.350
19:17:52:586,51.160,-0.096,-0.085,0.037,10.612,14.355,19.332
19:17:52:611,51.186,0.003,-0.026,-0.045,10.546,13.646,19.593
19:17:52:637,51.212,0.073,0.011,-0.053,10.668,13.282,19.905
19:17:52:663,51.238,0.091,-0.042,-0.065,10.735,13.410,20.501
19:17:52:689,51.264,0.066,-0.065,-0.088,10.611,13.895,20.944
19:17:52:715,51.290,0.130,-0.116,-0.047,10.464,14.982,21.632
19:17:52:742,51.317,0.094,-0.110,0.005,10.329,16.282,22.181
19:17:52:768,51.343,0.097,-0.123,0.028,9.928,18.396,22.923
19:17:52:794,51.369,0.098,-0.054,0.068,9.214,20.265,23.450
19:17:52:82,51.395,0.082,-0.045,0.075,8.695,21.146,23.537
19:17:52:848,51.423,0.052,-0.054,0.104,7.991,21.687,23.296
19:17:52:873,51.448,-0.016,-0.033,0.109,7.483,21.862,22.929
19:17:52:899,51.474,-0.027,-0.060,0.110,6.929,21.828,22.102
19:17:52:925,51.500,-0.069,-0.079,0.091,6.768,21.076,21.243
19:17:52:952,51.527,-0.049,-0.077,0.076,6.858,20.059,20.584
19:17:52:978,51.553,-0.054,-0.047,0.071,7.066,18.394,19.503
19:17:53:004,51.579,-0.051,-0.003,0.057,7.170,17.181,18.733
19:17:53:03,51.605,-0.070,0.049,0.035,7.217,16.138,17.695
19:17:53:056,51.631,-0.103,0.064,0.046,7.207,15.826,17.182
19:17:53:083,51.657,-0.087,0.071,0.054,7.130,16.122,16.759
19:17:53:11,51.685,-0.082,0.080,0.076,7.087,17.269,17.458
19:17:53:136,51.711,-0.065,0.101,0.101,6.896,18.552,18.068
19:17:53:161,51.736,-0.074,0.141,0.131,6.186,20.857,19.115
19:17:53:188,51.763,-0.002,0.218,0.128,5.537,22.554,19.750
19:17:53:214,51.789,0.052,0.399,0.103,4.213,24.762,20.687
19:17:53:24,51.815,-0.023,0.238,0.065,3.201,26.190,21.442
19:17:53:267,51.842,-0.034,0.035,-0.044,3.523,26.505,21.319
19:17:53:293,51.868,-0.043,-0.188,0.005,5.045,25.101,21.595
19:17:53:319,51.894,0.036,-0.130,-0.118,6.049,22.744,21.842
19:17:53:347,51.922,0.048,-0.133,-0.144,7.020,19.658,22.020
19:17:53:372,51.947,0.087,-0.011,-0.194,7.240,17.347,22.165
19:17:53:398,51.973,0.074,0.018,-0.175,7.217,16.412,22.278
19:17:53:424,51.999,0.035,0.068,-0.204,7.214,14.803,22.169
19:17:53:45,52.025,0.050,0.003,-0.203,7.407,13.517,21.916
