Time,Second,AccelerationX,AccelerationY,AccelerationZ,EulerAnglesX,EulerAnglesY,EulerAnglesZ
19:09:32:11,0.000,0.016,-0.095,0.092,7.712,-18.071,-11.356
19:09:32:111,0.001,0.058,-0.071,0.108,7.727,-21.535,-10.392
19:09:32:111,0.001,0.145,-0.088,0.106,7.887,-22.463,-9.756
19:09:32:189,0.080,0.175,-0.108,0.117,8.078,-20.788,-8.218
19:09:32:19,0.080,0.175,-0.035,0.116,8.104,-18.954,-6.926
19:09:32:191,0.081,0.231,0.003,0.100,7.756,-15.652,-4.507
19:09:32:3,0.190,0.257,0.011,0.142,6.955,-11.997,-1.650
19:09:32:3,0.190,0.271,0.022,0.211,6.134,-9.595,0.107
19:09:32:3,0.190,0.253,0.050,0.225,4.900,-6.638,2.362
19:09:32:3,0.190,0.258,0.101,0.233,4.203,-5.309,3.492
19:09:32:314,0.205,0.257,0.155,0.242,3.574,-4.708,4.494
19:09:32:341,0.231,0.272,0.202,0.259,3.427,-5.535,4.684
19:09:32:367,0.257,0.238,0.284,0.206,3.519,-6.392,4.399
19:09:32:452,0.342,0.275,0.167,0.159,4.166,-8.094,2.784
19:09:32:452,0.343,0.185,-0.079,0.151,4.889,-9.257,1.018
19:09:32:453,0.344,0.185,-0.134,0.173,6.135,-10.401,-2.158
19:09:32:5,0.391,-0.087,-0.028,-0.004,7.586,-7.192,-5.258
19:09:32:528,0.418,-0.136,-0.066,-0.008,8.573,-4.870,-7.320
19:09:32:528,0.418,-0.002,-0.050,-0.152,10.166,-3.101,-9.931
19:09:32:55,0.440,-0.054,-0.061,-0.044,10.639,-3.868,-11.159
19:09:32:576,0.467,0.150,-0.108,-0.069,11.069,-6.554,-12.539
19:09:32:603,0.493,0.127,-0.053,-0.096,11.192,-8.993,-14.493
19:09:32:656,0.546,0.077,-0.082,-0.124,11.294,-10.310,-15.333
19:09:32:684,0.574,0.030,-0.162,-0.180,11.791,-10.794,-16.244
19:09:32:709,0.600,-0.039,-0.153,-0.211,12.371,-9.963,-17.025
19:09:32:737,0.627,-0.062,-0.136,-0.220,13.485,-7.742,-18.049
19:09:32:738,0.628,-0.126,-0.063,-0.210,14.559,-5.586,-18.976
19:09:32:76,0.651,-0.164,-0.019,-0.217,15.114,-4.761,-19.692
19:09:32:787,0.677,-0.182,0.002,-0.193,15.452,-4.255,-20.773
19:09:32:842,0.732,-0.195,0.045,-0.177,15.276,-4.554,-21.474
19:09:32:842,0.733,-0.229,0.148,-0.189,14.649,-5.507,-22.599
19:09:32:865,0.755,-0.278,0.289,-0.102,13.725,-7.083,-23.732
19:09:32:891,0.782,-0.359,0.272,-0.066,13.003,-8.285,-24.140
19:09:32:918,0.808,-0.415,0.004,-0.147,11.712,-11.044,-24.022
19:09:32:973,0.863,-0.442,0.321,-0.086,10.639,-13.616,-23.639
19:09:32:974,0.864,-0.216,0.026,0.280,8.853,-18.898,-22.252
19:09:32:997,0.887,0.038,-0.250,0.563,7.764,-22.028,-21.170
19:09:33:084,0.974,-0.044,-0.268,0.465,6.997,-24.028,-19.072
19:09:33:085,0.975,-0.143,-0.086,0.150,7.701,-22.771,-16.434
19:09:33:085,0.976,-0.240,-0.005,-0.179,8.251,-21.628,-14.422
19:09:33:086,0.977,-0.135,0.106,-0.246,9.379,-21.972,-12.268
19:09:33:104,0.994,-0.061,-0.028,-0.171,10.407,-22.869,-11.513
19:09:33:128,1.019,-0.009,-0.032,-0.134,12.301,-25.009,-11.561
19:09:33:154,1.045,0.077,0.006,-0.017,14.164,-27.216,-11.980
19:09:33:209,1.100,0.099,-0.031,0.032,14.867,-29.176,-11.505
19:09:33:21,1.101,0.112,-0.121,0.117,15.313,-32.089,-10.744
19:09:33:233,1.123,0.067,-0.131,0.178,15.232,-33.903,-10.655
19:09:33:317,1.208,0.038,-0.226,0.218,14.849,-35.610,-10.098
19:09:33:318,1.208,0.106,-0.404,0.208,14.690,-36.158,-9.175
19:09:33:319,1.209,0.070,-0.404,0.245,14.593,-35.567,-8.464
19:09:33:338,1.228,0.100,-0.350,0.212,15.048,-33.819,-6.779
19:09:33:391,1.282,0.086,-0.266,0.114,15.291,-32.343,-5.114
19:09:33:42,1.310,0.087,-0.236,0.041,16.216,-30.452,-2.696
19:09:33:443,1.334,0.340,0.704,-0.038,17.227,-29.638,-0.337
19:09:33:531,1.421,0.714,1.370,-0.525,17.658,-28.958,1.651
19:09:33:532,1.422,0.182,0.114,0.114,20.247,-27.136,1.943
19:09:33:532,1.422,0.136,0.393,-0.127,21.232,-26.004,0.979
19:09:33:548,1.438,0.117,0.205,-0.004,21.931,-23.074,-3.346
19:09:33:574,1.464,0.155,0.077,-0.056,21.531,-21.728,-5.157
19:09:33:6,1.491,0.162,-0.089,-0.138,21.082,-19.766,-7.563
19:09:33:654,1.544,0.069,-0.126,-0.247,21.070,-18.420,-9.369
19:09:33:68,1.571,-0.153,-0.216,-0.318,21.551,-15.573,-11.860
19:09:33:706,1.596,-0.124,-0.273,-0.252,22.040,-13.251,-13.380
19:09:33:764,1.654,-0.114,-0.296,-0.245,22.891,-9.363,-16.129
19:09:33:764,1.654,-0.228,-0.147,-0.283,23.975,-5.328,-19.271
19:09:33:765,1.655,-0.320,0.070,-0.337,24.961,-2.901,-21.702
19:09:33:873,1.763,-0.259,-0.065,-0.273,26.298,-0.377,-25.694
19:09:33:873,1.763,-0.266,-0.156,-0.302,26.384,1.175,-28.627
19:09:33:874,1.764,-0.352,-0.128,-0.317,26.236,1.613,-30.627
19:09:33:875,1.765,-0.367,-0.140,-0.300,25.366,1.435,-33.735
19:09:33:918,1.808,-0.342,-0.185,-0.287,24.334,1.334,-35.064
19:09:33:919,1.809,-0.222,-0.298,-0.214,22.243,1.295,-36.248
19:09:33:943,1.834,-0.174,-0.314,-0.162,20.423,1.397,-36.673
19:09:33:997,1.887,-0.124,-0.240,-0.119,17.510,2.272,-36.762
19:09:33:998,1.888,-0.083,-0.067,-0.016,15.051,4.289,-36.257
19:09:34:02,1.911,-0.099,0.009,-0.087,13.922,6.341,-35.632
19:09:34:047,1.937,-0.222,0.071,-0.126,13.126,10.370,-34.586
19:09:34:132,2.022,-0.326,0.181,-0.134,12.826,13.269,-33.872
19:09:34:133,2.023,-0.230,0.209,-0.017,11.926,17.403,-31.536
19:09:34:133,2.024,-0.079,0.112,0.051,11.417,21.647,-29.910
19:09:34:266,2.156,0.000,0.024,0.158,11.121,24.837,-29.183
19:09:34:266,2.157,0.130,0.038,0.197,10.422,29.527,-28.777
19:09:34:267,2.158,0.092,0.032,0.211,10.057,32.544,-28.946
19:09:34:268,2.158,0.038,0.013,0.243,9.523,36.065,-29.535
19:09:34:287,2.178,0.093,0.056,0.201,8.622,37.754,-30.600
19:09:34:287,2.178,0.159,0.072,0.195,8.035,38.276,-31.448
19:09:34:309,2.199,0.129,0.030,0.153,7.588,39.175,-32.817
19:09:34:365,2.255,0.120,-0.038,0.148,7.593,39.635,-33.748
19:09:34:365,2.255,0.127,-0.025,0.110,7.743,40.206,-35.147
19:09:34:388,2.278,0.094,-0.026,0.084,8.117,40.752,-36.329
19:09:34:581,2.471,0.093,-0.035,0.073,8.461,41.033,-36.972
19:09:34:581,2.472,0.087,-0.018,0.100,9.472,41.791,-37.672
19:09:34:602,2.492,-0.122,0.047,0.159,11.536,42.361,-37.797
19:09:34:603,2.493,-0.137,0.071,0.183,11.614,41.802,-37.490
19:09:34:659,2.549,-0.216,0.093,0.193,11.538,40.343,-36.797
19:09:34:659,2.550,-0.275,0.062,0.184,11.355,38.864,-36.145
19:09:34:66,2.551,-0.265,0.043,0.134,10.788,35.715,-34.978
19:09:34:661,2.552,-0.127,-0.016,0.074,10.172,31.827,-33.422
19:09:34:764,2.654,-0.013,-0.168,0.038,9.943,29.200,-32.264
19:09:34:764,2.655,0.005,-0.186,0.022,9.731,25.708,-29.961
19:09:34:765,2.656,-0.098,-0.108,0.005,10.032,23.878,-28.240
19:09:34:766,2.657,-0.165,0.006,-0.069,11.067,21.699,-25.851
19:09:34:811,2.701,-0.239,0.104,-0.146,11.981,20.620,-24.018
19:09:34:811,2.701,-0.216,0.072,-0.183,13.658,19.243,-21.188
19:09:34:834,2.725,-0.105,-0.045,-0.197,15.110,17.967,-18.466
19:09:34:975,2.865,-0.036,-0.165,-0.188,15.875,17.277,-16.463
19:09:34:975,2.866,-0.008,-0.178,-0.192,16.766,16.611,-13.615
19:09:34:976,2.867,0.016,-0.162,-0.231,17.176,16.094,-11.893
19:09:34:977,2.868,0.027,-0.151,-0.220,17.102,15.532,-9.585
19:09:34:996,2.886,0.059,-0.125,-0.182,16.566,14.776,-7.542
19:09:34:996,2.886,0.069,-0.085,-0.200,16.287,14.040,-6.239
19:09:35:047,2.937,0.176,-0.064,-0.201,15.761,11.975,-4.751
19:09:35:048,2.938,0.280,-0.085,-0.129,15.315,10.471,-3.717
19:09:35:158,3.049,0.356,-0.130,-0.022,14.520,8.956,-1.823
19:09:35:159,3.049,0.588,0.006,0.111,13.655,8.393,0.000
19:09:35:16,3.050,0.628,0.009,0.081,12.933,9.020,1.807
19:09:35:161,3.051,0.693,0.054,0.076,11.742,11.674,4.619
19:09:35:175,3.065,0.736,0.232,-0.027,10.850,14.774,6.188
19:09:35:234,3.124,0.629,0.367,-0.147,9.266,21.282,7.761
19:09:35:235,3.125,0.262,0.594,-0.288,8.115,28.902,7.680
19:09:35:236,3.126,0.073,0.296,-0.143,8.464,33.658,6.604
19:09:35:308,3.198,-0.047,0.189,-0.333,10.163,39.145,3.380
19:09:35:393,3.283,-0.327,0.053,-0.209,11.630,42.157,0.746
19:09:35:393,3.284,-0.215,0.047,-0.092,14.857,45.320,-2.698
19:09:35:394,3.285,-0.007,-0.142,-0.308,17.821,45.585,-3.965
19:09:35:418,3.308,0.075,-0.231,-0.411,19.412,43.915,-4.480
19:09:35:418,3.308,0.044,-0.164,-0.412,21.295,41.258,-6.722
19:09:35:419,3.309,-0.223,-0.184,-0.316,22.281,40.625,-8.238
19:09:35:497,3.387,-0.300,-0.194,-0.307,23.422,41.172,-9.903
19:09:35:498,3.388,-0.378,-0.113,-0.321,24.377,43.289,-12.263
19:09:35:498,3.388,-0.454,-0.033,-0.311,25.050,45.669,-14.101
19:09:35:517,3.407,-0.562,0.002,-0.221,26.203,49.882,-16.647
19:09:35:543,3.433,-0.611,-0.033,-0.103,27.127,52.405,-18.477
19:09:35:569,3.459,-0.603,-0.088,-0.005,28.561,55.164,-21.953
19:09:35:595,3.485,-0.576,-0.171,0.072,29.560,56.619,-25.906
19:09:35:622,3.512,-0.541,-0.209,0.095,29.701,56.820,-28.569
19:09:35:648,3.539,-0.493,-0.189,0.122,28.949,56.710,-32.272
19:09:35:704,3.594,-0.471,-0.160,0.149,27.784,56.250,-34.465
19:09:35:704,3.594,-0.425,-0.069,0.173,25.007,55.614,-36.942
19:09:35:727,3.617,-0.175,0.141,0.247,22.751,55.381,-37.802
19:09:35:753,3.643,-0.195,0.166,0.287,20.069,55.920,-38.054
19:09:35:78,3.670,-0.396,0.011,0.420,19.605,57.873,-37.836
19:09:35:805,3.696,-0.322,-0.261,0.479,19.334,59.350,-36.588
19:09:35:862,3.752,-0.075,-0.369,0.487,17.941,60.466,-33.060
19:09:35:862,3.752,-0.006,-0.076,0.349,16.535,60.209,-30.744
19:09:35:971,3.862,0.066,0.166,0.287,14.549,59.047,-27.606
19:09:35:972,3.863,0.141,0.211,0.174,13.581,59.008,-23.764
19:09:35:973,3.863,0.114,0.147,0.114,13.440,60.162,-21.052
19:09:35:989,3.879,0.032,-0.159,0.198,13.654,63.765,-14.635
19:09:36:074,3.964,0.145,-0.140,-0.096,13.727,61.980,-12.351
19:09:36:074,3.965,0.012,-0.064,-0.044,13.622,60.030,-10.604
19:09:36:075,3.965,0.019,-0.020,-0.093,13.759,57.984,-9.245
19:09:36:152,4.043,0.100,0.001,-0.284,13.989,54.735,-7.520
19:09:36:153,4.043,0.127,-0.066,-0.341,14.402,53.300,-6.076
19:09:36:154,4.044,0.157,-0.143,-0.360,15.252,52.682,-3.378
19:09:36:229,4.119,0.161,-0.086,-0.383,16.095,54.144,-0.522
19:09:36:23,4.120,0.145,-0.071,-0.393,16.447,56.681,1.480
19:09:36:255,4.145,0.119,0.064,-0.423,16.476,60.670,4.326
19:09:36:255,4.146,0.135,0.123,-0.423,16.209,63.942,5.894
19:09:36:336,4.227,0.122,0.060,-0.396,15.417,67.646,7.595
19:09:36:337,4.228,0.123,0.037,-0.329,14.451,70.173,8.037
19:09:36:338,4.228,0.114,0.204,-0.371,13.786,71.156,7.761
19:09:36:41,4.301,0.069,0.294,-0.357,13.001,71.885,6.361
19:09:36:463,4.353,0.014,0.222,-0.374,12.747,71.993,4.675
19:09:36:523,4.414,-0.071,0.105,-0.320,12.843,72.150,1.181
19:09:36:524,4.415,-0.183,0.257,-0.228,13.022,72.522,-1.483
19:09:36:525,4.415,-0.252,0.207,-0.130,13.693,74.071,-5.763
19:09:36:526,4.416,-0.184,0.028,-0.024,14.804,76.692,-10.063
19:09:36:573,4.463,-0.121,-0.147,-0.031,15.433,78.351,-12.160
19:09:36:573,4.463,-0.169,-0.184,-0.033,16.353,80.791,-15.010
19:09:36:574,4.464,-0.213,-0.195,0.035,17.407,82.824,-18.385
19:09:36:709,4.599,-0.278,-0.131,0.106,18.014,83.990,-20.593
19:09:36:709,4.600,-0.324,-0.077,0.213,18.925,85.763,-23.318
19:09:36:71,4.600,-0.347,-0.021,0.243,19.533,86.705,-24.997
19:09:36:71,4.601,-0.368,-0.068,0.296,20.520,88.051,-27.361
19:09:36:725,4.615,-0.352,-0.135,0.371,21.290,88.977,-28.695
19:09:36:783,4.673,-0.263,-0.257,0.361,23.119,90.637,-32.796
19:09:36:784,4.674,-0.197,-0.253,0.380,23.246,90.850,-34.169
19:09:36:832,4.723,-0.172,-0.174,0.402,22.722,91.027,-36.205
19:09:36:833,4.723,-0.046,0.001,0.380,21.957,91.266,-37.401
19:09:36:855,4.745,-0.005,0.063,0.358,20.618,92.219,-38.519
19:09:36:911,4.801,-0.021,0.157,0.468,20.055,94.074,-38.941
19:09:36:911,4.802,-0.039,0.183,0.629,20.282,95.918,-38.637
19:09:36:934,4.824,0.008,0.034,0.544,20.320,98.522,-36.691
19:09:36:96,4.851,0.042,-0.134,0.233,19.721,99.799,-34.378
19:09:36:987,4.877,0.172,-0.272,0.163,18.259,100.390,-30.094
19:09:37:043,4.933,0.144,-0.132,0.192,16.582,100.142,-25.709
19:09:37:043,4.933,0.100,-0.047,0.197,15.911,99.415,-23.171
19:09:37:094,4.985,-0.058,0.061,0.184,15.333,98.486,-19.347
19:09:37:095,4.986,-0.175,0.171,0.196,15.060,97.841,-16.588
19:09:37:118,5.008,-0.161,0.167,0.094,15.017,95.868,-12.933
19:09:37:174,5.064,-0.144,-0.057,-0.112,15.318,92.475,-10.418
19:09:37:175,5.065,-0.094,-0.142,-0.090,15.353,90.314,-8.662
19:09:37:196,5.087,-0.019,-0.122,-0.212,15.597,86.853,-6.028
19:09:37:223,5.113,-0.064,-0.047,-0.310,15.679,85.087,-4.670
19:09:37:337,5.227,-0.079,-0.054,-0.343,15.815,83.363,-2.334
19:09:37:338,5.228,-0.030,-0.133,-0.381,15.873,83.142,0.452
19:09:37:339,5.229,-0.007,-0.173,-0.394,15.883,83.818,2.287
19:09:37:339,5.230,0.031,-0.206,-0.394,15.756,85.581,5.062
19:09:37:442,5.332,0.051,-0.170,-0.422,15.554,86.939,6.815
19:09:37:443,5.333,0.050,0.062,-0.565,15.134,88.782,9.191
19:09:37:444,5.334,-0.056,0.224,-0.584,14.620,90.816,11.528
19:09:37:485,5.376,-0.113,0.207,-0.469,13.305,96.258,11.943
19:09:37:541,5.431,-0.164,0.179,-0.416,12.922,99.084,9.847
19:09:37:542,5.432,-0.189,0.127,-0.304,12.985,101.537,6.578
19:09:37:567,5.457,-0.265,0.118,-0.211,13.344,103.042,3.972
19:09:37:568,5.458,-0.441,0.210,-0.054,14.279,105.409,-0.295
19:09:37:62,5.510,-0.329,0.137,-0.214,15.187,106.966,-3.086
19:09:37:62,5.510,-0.293,0.066,-0.133,16.645,111.744,-5.680
19:09:37:73,5.621,-0.370,-0.073,-0.005,17.773,117.027,-6.275
19:09:37:731,5.621,-0.361,-0.113,0.065,19.742,125.303,-6.944
19:09:37:732,5.622,-0.375,-0.195,0.233,21.699,132.373,-7.468
19:09:37:733,5.623,-0.326,-0.235,0.360,22.870,136.599,-7.403
19:09:37:748,5.638,-0.301,-0.181,0.445,24.725,140.844,-7.583
19:09:37:803,5.693,-0.311,-0.123,0.461,26.009,142.050,-8.402
19:09:37:804,5.694,-0.316,-0.111,0.474,27.852,142.355,-10.404
19:09:37:886,5.776,-0.259,-0.134,0.482,29.481,141.860,-12.903
19:09:37:886,5.776,-0.227,-0.169,0.483,30.336,141.369,-14.953
19:09:37:887,5.777,-0.136,-0.259,0.426,30.973,140.599,-18.358
19:09:37:906,5.797,-0.081,-0.199,0.438,30.840,140.025,-20.812
19:09:37:933,5.823,-0.045,-0.125,0.474,29.990,139.038,-25.058
19:09:37:959,5.849,0.055,0.048,0.567,28.168,138.072,-29.490
19:09:37:984,5.875,0.111,0.156,0.483,26.285,137.541,-32.012
19:09:38:011,5.901,0.141,0.339,0.332,22.707,137.272,-34.548
19:09:38:066,5.956,0.303,0.335,0.344,20.899,137.927,-35.217
19:09:38:067,5.957,0.364,-0.175,0.193,19.424,140.384,-34.103
19:09:38:089,5.979,0.367,-0.344,-0.056,18.211,142.773,-30.831
19:09:38:116,6.006,0.360,-0.402,0.054,17.563,144.651,-28.483
19:09:38:142,6.032,0.461,-0.073,0.217,17.129,146.445,-24.680
19:09:38:168,6.058,0.360,0.065,0.197,16.917,147.155,-22.355
19:09:38:194,6.084,0.255,0.112,0.154,16.476,147.607,-18.775
19:09:38:25,6.140,0.093,0.130,0.167,15.981,146.639,-15.619
19:09:38:25,6.140,0.000,-0.015,0.094,15.594,145.120,-13.656
19:09:38:327,6.217,-0.095,-0.111,-0.011,15.064,142.559,-10.909
19:09:38:358,6.249,-0.154,-0.118,-0.083,14.808,141.326,-9.052
19:09:38:359,6.249,-0.152,-0.070,-0.037,14.440,139.780,-6.249
19:09:38:359,6.249,-0.242,-0.038,-0.059,14.163,139.494,-3.852
19:09:38:379,6.269,-0.246,-0.046,-0.101,14.003,139.426,-2.172
19:09:38:405,6.295,-0.274,-0.079,-0.140,13.736,139.956,0.618
19:09:38:43,6.321,-0.284,-0.105,-0.185,13.531,140.073,1.985
19:09:38:457,6.347,-0.296,-0.147,-0.264,13.349,140.942,4.769
19:09:38:51,6.400,-0.293,-0.107,-0.345,13.207,141.170,6.583
19:09:38:565,6.455,-0.387,0.067,-0.452,12.807,142.406,9.049
19:09:38:593,6.484,-0.493,0.243,-0.498,12.000,144.350,11.870
19:09:38:594,6.485,-0.488,0.046,-0.474,11.239,145.973,13.123
19:09:38:595,6.485,-0.342,-0.002,-0.493,10.135,148.934,13.825
19:09:38:673,6.563,-0.343,0.235,-0.310,9.173,150.994,13.572
19:09:38:674,6.564,-0.263,0.283,-0.144,8.407,153.660,11.878
19:09:38:674,6.565,-0.273,0.093,-0.021,9.242,154.549,8.526
19:09:38:722,6.612,-0.274,0.094,0.037,10.363,154.244,5.642
19:09:38:722,6.613,-0.396,0.364,0.251,12.257,153.707,0.702
19:09:38:747,6.637,-0.252,0.217,0.197,14.029,154.278,-2.831
19:09:38:859,6.749,-0.187,0.151,0.135,16.556,156.104,-6.759
19:09:38:86,6.750,-0.148,-0.139,0.091,18.309,158.583,-8.538
19:09:38:86,6.751,-0.146,-0.280,0.154,19.190,160.196,-10.441
19:09:38:861,6.752,-0.065,-0.310,0.216,20.247,162.315,-13.878
19:09:38:877,6.767,0.065,-0.312,0.321,20.702,163.488,-15.891
19:09:38:904,6.794,0.089,-0.223,0.382,21.198,164.389,-19.207
19:09:38:929,6.819,0.112,-0.045,0.445,21.624,164.606,-22.949
19:09:38:956,6.846,0.159,0.006,0.472,21.965,164.855,-25.147
19:09:38:982,6.872,0.205,-0.038,0.417,22.709,165.623,-27.938
19:09:39:036,6.927,0.215,-0.157,0.350,23.365,166.565,-29.497
19:09:39:064,6.954,0.257,-0.196,0.325,24.744,168.361,-31.593
19:09:39:064,6.954,0.359,-0.173,0.350,26.182,169.976,-33.967
19:09:39:087,6.977,0.420,-0.147,0.328,26.820,170.753,-35.480
19:09:39:114,7.005,0.483,-0.118,0.294,26.749,171.453,-37.221
19:09:39:139,7.029,0.490,-0.090,0.181,25.986,171.533,-37.964
19:09:39:165,7.056,0.457,-0.024,0.160,23.676,171.359,-37.692
19:09:39:192,7.082,0.474,0.115,0.201,21.002,170.949,-35.720
19:09:39:218,7.108,0.412,0.118,0.204,19.088,170.568,-33.462
19:09:39:244,7.135,0.160,0.053,-0.049,16.627,170.314,-28.667
19:09:39:329,7.219,0.106,-0.087,-0.100,15.337,171.422,-23.137
19:09:39:329,7.219,0.172,-0.053,0.013,15.061,173.053,-19.697
19:09:39:33,7.220,0.168,0.031,0.106,14.534,175.146,-14.818
19:09:39:349,7.240,0.113,0.065,0.058,13.955,175.815,-11.564
19:09:39:405,7.295,0.067,0.158,0.076,13.247,175.395,-7.378
19:09:39:405,7.295,-0.047,0.099,0.096,13.013,173.932,-5.280
19:09:39:428,7.318,-0.145,0.008,0.063,13.060,170.161,-3.250
19:09:39:455,7.345,-0.215,-0.082,0.000,13.264,165.473,-1.822
19:09:39:48,7.371,-0.269,-0.138,-0.048,13.409,162.236,-0.959
19:09:39:507,7.397,-0.336,-0.112,-0.081,13.586,157.707,-0.221
19:09:39:563,7.453,-0.342,-0.113,-0.094,13.661,155.169,0.221
19:09:39:563,7.453,-0.353,-0.141,-0.114,13.664,152.546,1.185
19:09:39:644,7.535,-0.373,-0.216,-0.170,13.631,151.437,2.441
19:09:39:645,7.535,-0.383,-0.234,-0.203,13.570,151.521,3.528
19:09:39:646,7.536,-0.412,-0.147,-0.202,13.381,152.766,5.425
19:09:39:693,7.584,-0.454,-0.023,-0.230,13.197,153.594,6.824
19:09:39:694,7.584,-0.505,0.053,-0.246,12.761,156.250,8.861
19:09:39:749,7.639,-0.525,0.091,-0.240,11.987,158.910,10.773
19:09:39:75,7.640,-0.445,0.050,-0.226,11.304,161.313,11.492
19:09:39:75,7.641,-0.440,0.270,-0.166,10.020,164.828,11.520
19:09:39:854,7.744,-0.398,0.381,-0.109,9.227,167.165,10.713
19:09:39:855,7.745,-0.322,0.181,-0.040,8.956,169.612,8.058
19:09:39:855,7.745,-0.247,0.153,0.107,9.732,171.098,4.024
19:09:39:877,7.767,-0.153,0.319,0.207,10.428,171.707,0.827
19:09:39:878,7.768,0.014,0.343,0.256,11.872,172.560,-4.837
19:09:39:929,7.820,0.029,0.140,0.145,13.031,173.102,-8.958
19:09:39:93,7.821,0.017,0.022,0.110,14.195,172.997,-13.722
19:09:39:954,7.844,-0.051,-0.214,0.134,14.596,172.752,-17.601
19:09:39:979,7.870,-0.033,-0.270,0.094,14.679,172.447,-20.304
19:09:40:035,7.926,0.071,-0.269,0.139,14.612,172.545,-24.009
19:09:40:035,7.926,0.127,-0.249,0.163,14.739,173.192,-25.897
19:09:40:117,8.007,0.187,-0.140,0.221,15.502,174.830,-28.460
19:09:40:117,8.007,0.302,-0.072,0.283,17.246,177.236,-30.757
19:09:40:118,8.008,0.379,-0.053,0.310,18.907,179.021,-32.033
19:09:40:137,8.028,0.416,-0.152,0.274,21.624,-178.498,-33.458
19:09:40:163,8.054,0.411,-0.255,0.174,23.261,-177.156,-34.014
19:09:40:216,8.106,0.425,-0.256,0.149,25.098,-175.974,-34.975
19:09:40:245,8.135,0.447,-0.198,0.143,25.872,-175.990,-36.252
19:09:40:245,8.135,0.433,-0.180,0.148,25.594,-176.465,-36.903
19:09:40:296,8.186,0.488,-0.046,0.123,24.127,-177.675,-37.423
19:09:40:324,8.214,0.498,0.029,0.058,22.659,-178.563,-37.293
19:09:40:324,8.215,0.491,0.101,0.076,20.054,-179.495,-35.598
19:09:40:347,8.237,0.403,0.232,0.064,17.713,179.874,-32.413
19:09:40:373,8.263,0.298,0.183,0.082,16.533,179.583,-29.580
19:09:40:428,8.318,0.170,-0.072,0.056,15.332,179.394,-24.525
19:09:40:429,8.319,0.154,-0.094,0.033,14.780,179.197,-21.007
19:09:40:509,8.400,0.154,0.057,0.046,14.140,178.491,-16.074
19:09:40:51,8.401,-0.004,0.145,-0.018,13.798,177.666,-13.021
19:09:40:511,8.402,-0.075,0.173,-0.007,13.424,176.232,-8.690
19:09:40:53,8.421,-0.114,0.069,0.065,13.273,174.337,-4.995
19:09:40:557,8.448,-0.140,-0.076,0.096,13.368,172.545,-3.145
19:09:40:613,8.504,-0.151,-0.224,0.091,13.691,169.397,-1.169
19:09:40:613,8.504,-0.206,-0.184,0.019,13.867,167.135,-0.118
19:09:40:724,8.614,-0.298,-0.115,-0.044,14.051,163.559,1.031
19:09:40:724,8.614,-0.364,-0.091,-0.076,14.252,160.056,1.803
19:09:40:725,8.615,-0.379,-0.113,-0.101,14.314,158.111,2.393
19:09:40:725,8.615,-0.371,-0.237,-0.178,14.401,156.030,3.713
19:09:40:828,8.718,-0.383,-0.262,-0.204,14.397,155.409,4.729
19:09:40:828,8.718,-0.410,-0.221,-0.203,14.308,155.526,6.451
19:09:40:849,8.739,-0.539,0.221,-0.219,12.923,161.189,11.490
19:09:40:901,8.791,-0.468,0.079,-0.206,12.274,162.842,11.986
19:09:40:902,8.792,-0.430,0.200,-0.200,11.008,165.161,11.923
19:09:40:925,8.815,-0.391,0.242,-0.189,9.717,167.189,10.459
19:09:40:951,8.841,-0.371,0.198,-0.149,8.990,168.336,8.592
19:09:40:976,8.867,-0.289,0.114,-0.011,8.735,169.648,4.670
19:09:41:032,8.922,-0.149,0.345,0.179,8.814,170.290,1.541
19:09:41:033,8.923,-0.032,0.342,0.172,9.529,171.528,-3.936
19:09:41:057,8.947,0.104,0.225,0.242,11.120,173.281,-9.939
19:09:41:111,9.001,0.052,0.147,0.138,12.381,173.862,-13.274
19:09:41:111,9.002,-0.053,-0.089,0.138,13.680,174.311,-16.571
19:09:41:164,9.054,-0.025,-0.223,0.132,14.264,174.421,-18.422
19:09:41:164,9.054,0.075,-0.166,0.198,15.260,174.691,-21.866
19:09:41:186,9.077,0.186,-0.169,0.284,16.191,175.592,-24.453
19:09:41:273,9.163,0.213,-0.136,0.344,16.875,176.432,-25.569
19:09:41:273,9.163,0.280,-0.060,0.359,18.248,177.648,-27.629
19:09:41:273,9.163,0.309,-0.084,0.315,19.243,178.476,-29.001
19:09:41:321,9.211,0.354,-0.127,0.298,20.781,-179.986,-30.388
19:09:41:321,9.212,0.375,-0.150,0.273,21.962,-178.834,-31.406
19:09:41:373,9.264,0.333,-0.219,0.212,23.613,-177.340,-33.406
19:09:41:374,9.265,0.289,-0.340,0.108,24.537,-175.868,-35.149
19:09:41:427,9.317,0.343,-0.248,0.091,24.946,-174.907,-36.523
19:09:41:427,9.317,0.398,-0.156,0.108,25.331,-173.728,-38.985
19:09:41:535,9.425,0.367,-0.179,0.027,25.110,-172.957,-40.072
19:09:41:536,9.426,0.373,-0.146,-0.008,24.271,-171.626,-40.591
19:09:41:536,9.426,0.594,-0.059,0.029,23.322,-170.171,-39.666
19:09:41:615,9.505,0.704,-0.001,0.063,22.414,-169.557,-38.055
19:09:41:616,9.506,0.548,0.108,0.103,19.965,-169.992,-34.224
19:09:41:617,9.507,0.200,0.157,-0.072,17.812,-171.086,-30.706
19:09:41:618,9.508,0.000,0.065,-0.167,15.056,-172.758,-24.315
19:09:41:66,9.550,-0.050,0.145,-0.095,13.549,-172.974,-17.562
19:09:41:687,9.577,-0.059,0.241,-0.079,13.224,-172.060,-13.239
19:09:41:771,9.661,-0.006,0.281,0.057,12.676,-169.464,-6.561
19:09:41:772,9.662,0.050,0.242,0.100,12.221,-167.537,-2.501
19:09:41:773,9.663,0.044,0.118,0.056,11.942,-166.464,1.905
19:09:41:822,9.713,-0.007,-0.124,0.001,12.446,-168.286,3.930
19:09:41:823,9.714,-0.078,-0.182,0.017,13.020,-170.924,4.074
19:09:41:824,9.714,-0.197,-0.150,0.088,14.006,-176.596,3.298
19:09:41:843,9.733,-0.267,-0.113,0.062,14.654,179.022,2.539
19:09:41:931,9.821,-0.414,-0.086,0.029,15.630,172.150,1.334
19:09:41:931,9.821,-0.488,-0.152,-0.076,16.544,166.359,0.523
19:09:41:932,9.822,-0.495,-0.247,-0.112,17.142,163.789,0.709
19:09:41:933,9.823,-0.522,-0.278,-0.171,18.005,162.390,1.975
19:09:41:98,9.871,-0.510,-0.238,-0.167,18.498,163.336,3.413
19:09:41:98,9.871,-0.480,-0.230,-0.098,18.784,167.467,6.383
19:09:42:054,9.944,-0.403,-0.161,0.003,18.240,173.479,9.569
19:09:42:086,9.977,-0.385,-0.107,0.068,17.517,177.633,11.500
19:09:42:086,9.977,-0.386,0.123,0.111,16.355,-177.187,13.627
19:09:42:086,9.977,-0.432,0.157,0.108,15.701,-174.693,14.444
19:09:42:135,10.025,-0.505,0.048,0.127,15.313,-172.444,14.349
19:09:42:136,10.026,-0.563,0.226,0.251,15.389,-171.371,13.144
19:09:42:245,10.135,-0.505,0.224,0.233,15.429,-170.759,11.764
19:09:42:246,10.136,-0.381,0.311,0.193,15.344,-169.674,8.172
19:09:42:247,10.137,-0.177,0.393,0.192,15.152,-168.564,5.162
19:09:42:293,10.183,0.164,0.391,0.390,15.417,-166.614,-5.593
19:09:42:293,10.184,0.310,0.247,0.316,16.111,-167.193,-13.465
19:09:42:315,10.206,0.234,0.164,0.330,16.814,-168.854,-21.422
19:09:42:342,10.232,0.194,-0.060,0.294,17.289,-169.197,-25.628
19:09:42:368,10.258,0.199,-0.186,0.320,19.069,-166.871,-29.807
19:09:42:394,10.284,0.290,-0.335,0.321,20.983,-163.541,-31.160
19:09:42:509,10.400,0.367,-0.375,0.255,24.023,-158.047,-32.236
19:09:42:51,10.400,0.421,-0.285,0.243,26.533,-152.656,-32.499
19:09:42:511,10.401,0.475,-0.176,0.255,27.724,-149.140,-32.224
19:09:42:512,10.402,0.566,-0.157,0.272,29.023,-143.663,-31.396
19:09:42:525,10.416,0.618,-0.191,0.234,29.511,-139.948,-30.663
19:09:42:552,10.442,0.663,-0.294,0.108,29.831,-135.019,-29.755
19:09:42:579,10.469,0.639,-0.331,-0.032,29.755,-131.302,-29.783
19:09:42:634,10.524,0.613,-0.290,-0.073,29.383,-129.459,-30.409
19:09:42:634,10.525,0.366,-0.224,-0.130,28.032,-127.250,-31.452
19:09:42:657,10.547,0.123,-0.082,-0.240,26.336,-125.963,-31.874
19:09:42:741,10.631,0.043,0.021,-0.211,23.506,-125.000,-33.242
19:09:42:742,10.632,-0.080,0.085,-0.151,20.670,-123.828,-34.043
19:09:42:743,10.633,-0.042,0.158,-0.354,19.242,-122.162,-33.097
19:09:42:762,10.652,0.099,0.045,-0.498,18.076,-119.648,-30.059
19:09:42:788,10.678,0.249,0.342,-0.604,16.969,-119.032,-27.211
19:09:42:845,10.735,-0.370,0.326,-0.490,15.604,-119.860,-22.835
19:09:42:845,10.735,-0.746,0.095,-0.361,14.303,-120.940,-18.734
19:09:42:866,10.757,-0.520,0.006,-0.268,13.553,-121.976,-15.617
19:09:42:922,10.812,-0.083,0.034,-0.176,13.086,-124.668,-10.558
19:09:42:922,10.813,0.104,0.102,0.020,13.395,-127.426,-7.841
19:09:42:947,10.838,0.163,0.151,0.183,14.862,-132.019,-4.904
19:09:43:03,10.920,0.140,0.118,0.303,17.174,-136.030,-3.500
19:09:43:031,10.921,0.125,-0.095,0.313,18.980,-138.167,-3.672
19:09:43:032,10.922,0.049,-0.116,0.325,21.215,-140.986,-4.243
19:09:43:05,10.941,-0.095,-0.165,0.258,22.236,-142.578,-3.950
19:09:43:105,10.996,-0.112,-0.185,0.278,23.161,-145.146,-3.834
19:09:43:106,10.997,-0.098,-0.181,0.344,23.429,-147.621,-4.617
19:09:43:13,11.020,-0.046,-0.203,0.327,23.258,-149.255,-4.636
19:09:43:185,11.076,-0.025,-0.198,0.326,22.747,-150.532,-3.698
19:09:43:185,11.076,-0.062,-0.174,0.358,22.485,-151.172,-2.895
19:09:43:208,11.098,-0.176,-0.151,0.424,22.094,-150.757,-1.261
19:09:43:234,11.124,-0.264,-0.204,0.365,21.733,-149.505,0.472
19:09:43:29,11.180,-0.273,-0.274,0.332,20.831,-145.719,3.424
19:09:43:29,11.181,-0.305,-0.317,0.299,19.162,-140.349,5.885
19:09:43:313,11.203,-0.327,-0.194,0.300,17.430,-136.015,7.080
19:09:43:339,11.229,-0.275,-0.052,0.332,14.405,-128.685,8.021
19:09:43:393,11.283,-0.224,0.062,0.318,12.464,-123.548,7.679
19:09:43:421,11.311,-0.128,0.179,0.200,9.743,-116.062,6.211
19:09:43:421,11.312,-0.075,0.254,0.000,7.952,-109.773,3.299
19:09:43:445,11.335,0.033,0.188,-0.399,6.960,-106.755,-0.061
19:09:43:471,11.361,-0.373,0.577,-0.398,7.100,-101.864,-5.042
19:09:43:585,11.475,-0.003,0.304,0.269,7.716,-94.578,-6.762
19:09:43:585,11.475,0.210,0.043,-0.147,9.332,-80.350,-8.441
19:09:43:586,11.476,0.123,0.258,-0.221,11.979,-71.986,-5.881
19:09:43:587,11.477,-0.232,-0.075,-0.743,13.902,-73.160,-2.989
19:09:43:691,11.581,0.304,0.082,-0.273,15.491,-81.930,-5.954
19:09:43:691,11.581,0.402,-0.091,-0.034,16.179,-90.534,-8.812
19:09:43:691,11.582,0.435,-0.152,0.203,16.257,-103.915,-12.904
19:09:43:691,11.582,0.366,0.008,0.545,15.636,-113.509,-15.701
19:09:43:736,11.626,0.245,-0.007,0.578,15.950,-116.309,-15.770
19:09:43:737,11.627,0.205,-0.116,0.572,17.236,-115.613,-14.220
19:09:43:759,11.650,0.253,-0.237,0.205,18.731,-112.793,-13.400
19:09:43:786,11.676,0.325,-0.187,0.083,20.553,-105.537,-12.921
19:09:43:812,11.702,0.371,-0.151,-0.124,20.989,-99.566,-12.704
19:09:43:838,11.728,0.337,-0.136,-0.268,20.730,-91.075,-13.177
19:09:43:864,11.754,0.325,-0.055,-0.330,19.797,-84.869,-15.849
19:09:43:89,11.781,0.235,-0.029,-0.346,18.761,-82.852,-18.544
19:09:43:918,11.808,0.013,-0.034,-0.175,16.167,-83.201,-23.377
19:09:43:972,11.862,-0.140,-0.001,-0.043,12.335,-86.385,-28.810
19:09:43:973,11.863,-0.030,0.101,-0.053,8.884,-88.911,-31.427
19:09:43:996,11.886,-0.283,-0.031,0.253,3.602,-91.590,-34.014
19:09:44:022,11.912,-0.225,0.116,0.428,1.750,-91.091,-35.346
19:09:44:048,11.938,-0.100,0.000,0.173,4.272,-84.039,-36.327
19:09:44:074,11.965,-0.060,-0.163,-0.070,9.374,-74.401,-35.947
19:09:44:1,11.990,-0.194,-0.188,-0.084,12.135,-68.632,-34.768
19:09:44:214,12.104,-0.338,-0.145,-0.238,14.520,-61.920,-32.016
19:09:44:215,12.105,-0.290,-0.032,-0.374,14.868,-59.367,-29.980
19:09:44:215,12.105,-0.222,0.328,-0.445,13.789,-58.729,-26.942
19:09:44:235,12.125,-0.232,0.304,0.012,11.396,-63.961,-22.834
19:09:44:235,12.125,-0.179,-0.159,0.043,10.605,-68.182,-21.136
19:09:44:287,12.177,-0.172,-0.338,-0.104,10.446,-71.463,-20.625
19:09:44:288,12.178,0.035,-0.335,-0.402,10.148,-77.612,-20.026
19:09:44:366,12.256,0.191,0.038,-0.440,9.592,-82.671,-19.799
19:09:44:367,12.257,0.292,0.093,-0.332,8.958,-91.191,-20.392
19:09:44:45,12.341,0.361,0.126,-0.084,9.060,-100.363,-21.691
19:09:44:451,12.341,0.258,0.079,0.129,9.220,-106.609,-22.101
19:09:44:452,12.342,0.083,-0.110,0.267,9.271,-114.857,-20.597
19:09:44:453,12.343,0.009,-0.260,0.140,9.759,-118.665,-19.035
19:09:44:524,12.414,0.055,-0.197,0.054,11.144,-121.763,-17.451
19:09:44:553,12.443,0.152,-0.120,0.060,12.900,-122.724,-15.740
19:09:44:553,12.443,0.197,-0.084,0.115,13.869,-122.392,-13.987
19:09:44:574,12.464,0.075,-0.088,0.288,14.745,-119.299,-7.739
19:09:44:628,12.518,-0.086,-0.141,0.357,14.377,-116.227,-3.081
19:09:44:629,12.519,0.000,-0.178,0.321,13.785,-111.824,0.871
19:09:44:681,12.571,0.029,-0.174,0.296,13.023,-108.449,2.907
19:09:44:682,12.572,-0.171,-0.055,0.368,11.091,-103.887,6.157
19:09:44:704,12.595,-0.348,0.152,0.441,9.455,-101.114,8.353
19:09:44:789,12.679,-0.320,0.202,0.420,6.984,-97.090,10.765
19:09:44:79,12.680,-0.379,0.082,0.381,4.976,-94.243,11.584
19:09:44:79,12.680,-0.394,0.118,0.379,4.138,-93.210,11.407
19:09:44:809,12.700,-0.244,0.269,0.310,3.340,-92.250,10.245
19:09:44:865,12.755,-0.222,0.256,0.268,3.422,-91.817,8.743
19:09:44:889,12.780,-0.124,0.264,0.330,4.289,-91.312,5.497
19:09:44:916,12.806,-0.086,0.109,0.204,5.799,-90.403,1.423
19:09:44:943,12.834,-0.058,-0.002,0.148,7.062,-89.686,-1.857
19:09:44:944,12.834,0.106,0.214,0.003,9.080,-88.067,-6.571
19:09:44:967,12.857,0.050,0.011,-0.064,10.474,-87.384,-9.089
19:09:45:052,12.942,0.105,-0.041,0.023,12.060,-87.579,-12.169
19:09:45:053,12.943,0.203,-0.071,0.106,12.905,-87.994,-13.657
19:09:45:053,12.943,0.276,-0.099,0.107,14.376,-88.075,-15.118
19:09:45:13,13.020,0.338,-0.139,0.058,15.964,-87.193,-15.338
19:09:45:13,13.021,0.388,-0.121,0.013,17.236,-85.660,-14.826
19:09:45:131,13.022,0.420,-0.067,-0.024,19.571,-81.603,-13.993
19:09:45:151,13.041,0.516,-0.080,-0.164,21.244,-77.726,-13.586
19:09:45:178,13.068,0.466,-0.152,-0.311,23.774,-70.620,-13.058
19:09:45:204,13.095,0.352,-0.194,-0.456,25.838,-63.673,-13.226
19:09:45:23,13.120,0.234,-0.225,-0.499,26.947,-60.060,-14.144
19:09:45:255,13.146,0.144,-0.268,-0.488,27.972,-56.958,-16.987
19:09:45:311,13.201,0.119,-0.219,-0.455,27.973,-56.764,-19.744
19:09:45:311,13.202,0.127,-0.110,-0.406,26.790,-58.894,-24.936
19:09:45:334,13.225,0.106,-0.087,-0.296,23.298,-62.287,-29.916
19:09:45:475,13.365,0.073,-0.034,-0.239,19.623,-64.592,-32.257
19:09:45:476,13.366,-0.107,0.087,-0.078,13.742,-67.636,-34.689
19:09:45:476,13.366,-0.200,0.056,-0.194,10.721,-68.651,-35.668
19:09:45:477,13.367,-0.171,0.126,-0.245,8.707,-68.031,-36.392
19:09:45:573,13.464,-0.273,0.218,-0.539,8.020,-65.571,-34.573
19:09:45:574,13.465,-0.360,0.340,-0.468,7.655,-64.512,-32.753
19:09:45:607,13.497,-0.614,-0.223,0.238,8.208,-63.752,-29.785
19:09:45:607,13.497,-0.656,-0.151,0.339,8.287,-63.188,-27.599
19:09:45:607,13.497,-0.575,-0.023,-0.057,8.034,-61.988,-23.164
19:09:45:608,13.498,-0.268,0.028,-0.298,7.579,-62.581,-18.622
19:09:45:623,13.513,-0.240,0.175,-0.485,7.337,-64.968,-15.966
19:09:45:759,13.649,0.160,0.323,0.283,8.227,-72.643,-14.112
19:09:45:759,13.650,0.010,-0.013,0.132,9.472,-77.298,-14.297
19:09:45:789,13.679,0.101,-0.137,0.032,11.429,-83.034,-13.212
19:09:45:79,13.680,0.081,-0.236,0.086,13.128,-88.271,-11.642
19:09:45:791,13.681,0.122,-0.136,0.117,14.119,-90.980,-11.604
19:09:45:791,13.681,0.184,-0.098,0.116,15.544,-93.534,-11.352
19:09:45:837,13.727,0.195,-0.141,0.135,16.147,-94.417,-10.625
19:09:45:837,13.728,0.221,-0.135,0.128,16.683,-94.588,-9.221
19:09:45:887,13.778,0.258,-0.161,0.156,17.013,-93.878,-7.372
19:09:45:914,13.804,0.250,-0.166,0.218,17.104,-93.258,-5.822
19:09:45:915,13.805,0.209,-0.179,0.254,17.128,-91.969,-3.002
19:09:45:938,13.828,0.199,-0.153,0.279,17.027,-90.798,-0.911
19:09:45:964,13.855,0.192,-0.060,0.387,16.694,-88.697,2.144
19:09:46:049,13.939,0.150,-0.060,0.499,15.860,-85.841,5.076
19:09:46:05,13.940,0.172,-0.082,0.536,14.852,-83.222,6.919
19:09:46:05,13.940,0.148,-0.055,0.568,12.556,-78.062,8.838
19:09:46:126,14.016,0.028,0.155,0.643,10.315,-73.625,9.253
19:09:46:127,14.017,-0.026,0.363,0.691,5.895,-64.802,8.983
19:09:46:151,14.041,-0.020,0.731,0.164,1.780,-54.442,5.447
19:09:46:151,14.042,-0.379,0.502,0.163,0.900,-48.658,1.839
19:09:46:203,14.094,-0.142,0.308,-0.610,1.668,-35.443,-2.972
19:09:46:204,14.094,-0.054,-0.105,-0.876,4.182,-21.280,-3.554
19:09:46:227,14.117,-1.176,-0.623,-0.431,8.465,-5.192,-1.546
19:09:46:253,14.143,-0.463,-0.001,-0.214,10.522,-7.448,-3.164
19:09:46:281,14.171,-0.291,-0.051,-0.014,12.310,-14.166,-3.274
19:09:46:306,14.196,0.174,-0.033,-0.088,14.157,-25.999,-5.776
19:09:46:332,14.222,0.594,0.050,0.055,14.342,-34.638,-7.419
19:09:46:358,14.248,0.670,0.156,0.088,13.875,-47.350,-9.636
19:09:46:412,14.302,0.586,0.109,-0.074,14.231,-56.541,-12.733
19:09:46:471,14.361,0.404,-0.120,-0.234,15.170,-59.543,-13.845
19:09:46:472,14.362,0.384,-0.187,-0.272,18.264,-59.583,-14.608
19:09:46:473,14.363,0.507,-0.111,-0.309,20.785,-57.380,-15.168
19:09:46:474,14.364,0.423,-0.201,-0.354,24.758,-51.993,-14.480
19:09:46:595,14.485,0.417,-0.336,-0.280,26.615,-47.910,-12.416
19:09:46:621,14.511,0.440,-0.373,-0.227,27.683,-42.554,-8.876
19:09:46:683,14.573,0.204,-0.330,-0.243,26.692,-38.188,-7.688
19:09:46:683,14.573,0.049,-0.305,-0.251,25.579,-35.880,-8.364
19:09:46:685,14.575,0.168,-0.152,-0.196,23.229,-32.971,-10.567
19:09:46:685,14.575,0.338,0.036,-0.085,20.861,-30.748,-11.869
19:09:46:705,14.595,0.306,0.197,-0.275,16.953,-27.133,-14.270
19:09:46:727,14.617,-0.226,0.358,-0.194,9.430,-17.110,-21.364
19:09:46:778,14.668,-0.321,0.220,0.051,7.567,-11.614,-25.408
19:09:46:804,14.694,-0.137,0.179,0.508,6.389,-9.509,-27.121
19:09:46:83,14.721,0.025,0.163,0.890,5.503,-7.398,-27.795
19:09:46:857,14.747,-0.146,-0.045,0.574,5.528,-1.760,-28.842
19:09:46:884,14.774,-0.563,-0.338,0.185,6.151,1.541,-29.403
19:09:46:91,14.800,-0.661,-0.269,0.029,6.305,2.962,-30.334
19:09:46:935,14.826,-0.718,-0.254,-0.108,5.151,-1.280,-30.649
19:09:47:016,14.906,-0.488,-0.108,-0.152,4.377,-5.749,-31.119
19:09:47:042,14.932,-0.266,-0.020,-0.094,3.917,-12.520,-32.208
19:09:47:072,14.963,-0.139,-0.050,-0.026,4.269,-16.834,-32.766
19:09:47:073,14.964,-0.071,-0.144,0.050,4.424,-22.855,-31.858
19:09:47:074,14.965,-0.148,-0.255,0.064,4.845,-27.691,-30.574
19:09:47:093,14.983,-0.190,-0.219,0.007,5.220,-30.225,-30.220
19:09:47:148,15.039,-0.178,-0.181,-0.117,5.848,-33.272,-29.239
19:09:47:149,15.039,-0.101,-0.143,-0.194,6.304,-34.090,-27.971
19:09:47:172,15.062,-0.053,-0.116,-0.182,7.213,-34.663,-25.298
19:09:47:254,15.144,0.047,-0.112,-0.128,8.235,-33.778,-21.837
19:09:47:254,15.145,0.056,-0.075,-0.047,9.059,-32.736,-19.120
19:09:47:279,15.169,0.077,-0.080,-0.139,10.577,-30.358,-15.014
19:09:47:36,15.250,0.087,-0.113,-0.242,11.450,-28.814,-12.377
19:09:47:36,15.250,0.117,-0.004,-0.224,12.200,-27.440,-7.993
19:09:47:417,15.307,0.177,0.225,-0.029,12.516,-27.464,-5.084
19:09:47:418,15.308,0.310,0.258,0.092,12.812,-28.396,-1.283
19:09:47:419,15.309,0.446,0.257,0.163,12.664,-29.590,2.384
19:09:47:419,15.309,0.483,0.284,0.279,12.314,-30.231,4.692
19:09:47:434,15.324,0.503,0.307,0.404,11.295,-30.479,7.376
19:09:47:461,15.352,0.318,0.318,0.348,10.139,-30.159,9.006
19:09:47:545,15.435,0.458,0.201,0.414,8.281,-29.129,10.098
19:09:47:546,15.436,0.258,-0.105,0.221,6.890,-28.024,8.931
19:09:47:547,15.437,0.180,-0.141,0.111,6.263,-26.912,7.338
19:09:47:625,15.516,0.147,0.018,0.049,5.566,-26.562,4.037
19:09:47:626,15.516,0.130,0.005,0.109,5.527,-26.311,1.244
19:09:47:626,15.516,0.218,0.008,0.270,5.694,-26.424,-3.404
19:09:47:644,15.534,0.161,-0.040,0.174,6.402,-23.837,-7.392
19:09:47:7,15.590,0.159,-0.132,0.090,7.259,-20.231,-8.718
19:09:47:7,15.590,0.163,-0.159,0.023,8.758,-15.043,-9.921
19:09:47:724,15.614,0.097,-0.028,-0.019,9.990,-11.813,-11.018
19:09:47:779,15.669,0.077,-0.009,-0.122,12.042,-6.148,-12.609
19:09:47:779,15.669,-0.065,0.015,-0.268,14.125,-0.865,-13.741
19:09:47:802,15.692,-0.185,0.024,-0.342,15.625,1.735,-14.586
19:09:47:886,15.776,-0.298,-0.081,-0.359,17.892,3.756,-16.309
19:09:47:887,15.777,-0.331,-0.193,-0.350,19.287,3.761,-17.776
19:09:47:888,15.778,-0.281,-0.254,-0.306,20.967,1.657,-20.907
19:09:47:908,15.798,-0.276,-0.227,-0.320,21.854,-2.083,-25.014
19:09:47:963,15.853,-0.287,-0.189,-0.331,21.874,-4.970,-27.841
19:09:47:963,15.853,-0.282,-0.061,-0.342,20.729,-9.465,-31.719
19:09:47:985,15.876,-0.280,0.001,-0.312,19.133,-12.235,-33.823
19:09:48:012,15.902,-0.339,0.143,-0.240,15.849,-15.408,-35.691
19:09:48:039,15.929,-0.377,0.287,-0.188,13.475,-16.805,-35.983
19:09:48:064,15.954,-0.354,0.385,-0.074,10.558,-18.020,-35.181
19:09:48:091,15.981,-0.124,0.161,0.097,9.097,-17.574,-32.734
19:09:48:117,16.007,-0.268,-0.309,0.258,8.955,-16.117,-30.439
19:09:48:143,16.033,-0.270,-0.454,0.123,9.481,-12.649,-27.238
19:09:48:171,16.061,-0.433,0.030,0.116,9.427,-10.855,-24.284
19:09:48:225,16.115,-0.449,-0.011,0.214,8.842,-10.197,-21.440
19:09:48:225,16.116,-0.328,0.247,0.010,8.082,-10.774,-18.163
19:09:48:248,16.138,-0.313,0.163,-0.136,7.844,-12.394,-16.007
19:09:48:335,16.225,-0.044,-0.032,0.062,8.310,-17.633,-14.163
19:09:48:335,16.225,0.266,-0.183,0.202,8.593,-21.854,-13.604
19:09:48:335,16.225,0.091,-0.176,0.102,9.414,-26.387,-12.082
19:09:48:411,16.301,0.088,-0.151,0.105,10.137,-30.741,-10.710
19:09:48:412,16.302,0.141,-0.135,0.104,10.407,-33.147,-10.428
19:09:48:412,16.303,0.129,-0.151,0.019,10.815,-35.261,-9.600
19:09:48:432,16.322,0.205,-0.167,0.018,10.991,-35.756,-8.749
19:09:48:487,16.377,0.221,-0.187,0.081,11.294,-36.273,-7.434
19:09:48:488,16.378,0.195,-0.165,0.040,11.654,-35.719,-5.768
19:09:48:538,16.428,0.204,-0.152,0.050,11.899,-35.406,-4.543
19:09:48:568,16.458,0.277,0.045,0.090,12.225,-34.920,-2.486
19:09:48:568,16.458,0.340,0.292,0.103,12.431,-34.951,-0.929
19:09:48:589,16.479,0.382,0.283,0.184,12.592,-34.584,1.525
19:09:48:615,16.506,0.428,0.164,0.235,12.283,-34.584,3.837
19:09:48:698,16.588,0.406,0.188,0.233,11.871,-34.164,4.923
19:09:48:698,16.588,0.386,0.177,0.255,10.658,-33.026,5.800
19:09:48:75,16.640,0.338,0.219,0.274,9.563,-31.555,5.747
19:09:48:751,16.641,0.314,0.121,0.236,7.896,-28.791,4.293
19:09:48:8,16.691,0.221,0.093,0.046,6.749,-25.440,0.930
19:09:48:861,16.751,0.164,0.182,-0.090,6.233,-23.069,-1.921
19:09:48:861,16.752,0.001,0.176,-0.108,6.238,-19.378,-7.268
19:09:48:862,16.753,-0.189,0.044,-0.045,6.970,-16.526,-11.141
19:09:48:863,16.754,-0.188,-0.040,-0.044,8.499,-11.635,-15.499
19:09:48:881,16.771,-0.023,-0.179,0.025,9.682,-8.530,-18.677
19:09:48:882,16.772,0.000,-0.174,0.028,10.301,-7.168,-20.938
19:09:48:905,16.796,-0.075,-0.124,-0.127,11.330,-4.772,-24.279
19:09:48:93,16.821,-0.233,-0.119,-0.182,11.886,-3.360,-26.013
19:09:49:045,16.936,-0.257,-0.094,-0.224,12.584,-1.883,-28.018
19:09:49:045,16.936,-0.257,-0.141,-0.242,13.400,-0.581,-29.349
19:09:49:046,16.936,-0.269,-0.175,-0.235,14.265,0.427,-29.784
19:09:49:046,16.937,-0.273,-0.229,-0.203,15.836,1.821,-30.124
19:09:49:09,16.981,-0.322,-0.276,-0.205,17.008,2.679,-30.249
19:09:49:091,16.982,-0.371,-0.237,-0.182,18.599,3.510,-30.465
19:09:49:115,17.006,-0.477,0.007,-0.015,19.440,3.123,-30.969
19:09:49:141,17.031,-0.542,0.086,0.007,19.561,1.749,-31.453
19:09:49:167,17.057,-0.723,0.082,-0.283,18.661,-2.881,-32.699
19:09:49:193,17.083,-0.680,0.126,-0.605,16.489,-8.486,-33.371
19:09:49:22,17.110,-0.327,0.208,-0.371,10.528,-20.753,-33.693
19:09:49:246,17.136,-0.079,0.237,0.227,5.711,-29.789,-33.315
19:09:49:272,17.162,0.092,-0.044,0.640,0.095,-40.761,-30.336
19:09:49:298,17.188,0.106,-0.221,0.651,-0.860,-45.571,-25.978
19:09:49:354,17.244,0.070,-0.087,0.441,0.742,-45.054,-23.476
19:09:49:354,17.244,0.015,0.302,0.123,4.712,-40.762,-20.007
19:09:49:376,17.267,-0.107,0.096,-0.228,6.985,-35.873,-16.708
19:09:49:404,17.294,-0.138,0.090,-0.307,10.063,-28.299,-12.186
19:09:49:429,17.319,-0.241,-0.046,-0.273,12.415,-23.491,-8.948
19:09:49:456,17.346,-0.203,-0.216,-0.252,13.656,-22.834,-7.813
19:09:49:482,17.372,0.013,-0.183,-0.126,15.028,-26.142,-7.604
19:09:49:508,17.398,0.151,-0.163,-0.020,15.624,-30.394,-7.650
19:09:49:534,17.424,0.231,-0.143,0.124,16.059,-38.408,-8.403
19:09:49:56,17.451,0.288,-0.093,0.191,15.921,-46.487,-9.450
19:09:49:589,17.479,0.279,-0.134,0.238,15.795,-50.821,-9.596
19:09:49:613,17.503,0.292,-0.226,0.307,16.053,-54.464,-8.646
19:09:49:642,17.532,0.305,-0.251,0.317,16.675,-54.547,-7.392
19:09:49:666,17.556,0.341,-0.208,0.255,17.830,-51.738,-4.701
19:09:49:692,17.582,0.414,0.043,0.116,18.730,-46.715,-0.921
19:09:49:718,17.608,0.492,0.227,0.031,19.051,-43.082,1.966
19:09:49:744,17.634,0.474,0.178,0.099,19.275,-38.763,5.936
19:09:49:799,17.690,0.376,0.021,0.048,19.240,-36.841,7.423
19:09:49:8,17.691,0.324,0.076,0.057,18.686,-35.568,7.763
19:09:49:823,17.714,0.278,0.085,0.130,17.571,-35.416,6.186
19:09:49:85,17.740,0.336,0.111,0.111,16.555,-35.710,4.203
19:09:49:905,17.795,0.543,0.250,-0.103,14.968,-36.710,0.471
19:09:49:905,17.795,0.538,0.146,-0.436,14.117,-37.554,-2.324
19:09:49:929,17.819,0.391,0.123,-0.302,13.517,-38.553,-7.062
19:09:49:984,17.874,0.344,0.145,-0.193,13.065,-36.391,-11.024
19:09:49:984,17.874,0.216,0.083,-0.083,13.009,-31.136,-12.338
19:09:50:035,17.925,0.139,0.103,-0.281,13.472,-18.122,-13.223
19:09:50:091,17.981,-0.003,0.038,-0.275,14.414,-7.797,-14.092
19:09:50:092,17.982,-0.330,-0.001,-0.604,16.676,8.475,-16.840
19:09:50:093,17.983,-0.761,-0.051,-0.555,19.184,21.253,-20.873
19:09:50:138,18.028,-0.623,-0.200,-0.187,20.752,25.551,-30.171
19:09:50:164,18.054,-0.422,-0.103,-0.049,19.625,24.079,-34.234
19:09:50:191,18.081,-0.309,-0.116,-0.002,16.972,22.869,-39.125
19:09:50:246,18.136,-0.296,-0.193,-0.016,15.542,23.799,-41.387
19:09:50:246,18.137,-0.366,-0.222,0.005,14.660,26.645,-44.292
19:09:50:272,18.162,-0.551,-0.211,0.119,14.574,29.604,-47.145
19:09:50:325,18.215,-0.656,-0.192,0.215,14.895,31.540,-48.687
19:09:50:325,18.216,-0.596,-0.082,0.384,14.894,34.209,-49.968
19:09:50:349,18.239,-0.279,0.004,0.584,14.265,35.877,-50.041
19:09:50:374,18.265,0.016,0.048,0.892,13.466,38.695,-48.874
19:09:50:4,18.291,-0.583,0.036,0.938,15.264,42.356,-46.160
19:09:50:427,18.317,-0.197,-0.144,1.046,15.476,45.056,-42.443
19:09:50:454,18.344,-0.073,-0.231,0.819,12.554,43.366,-36.308
19:09:50:585,18.475,-0.389,-0.212,0.465,9.527,36.145,-29.399
19:09:50:614,18.504,-0.524,-0.002,0.147,8.948,29.991,-24.968
19:09:50:615,18.505,-0.450,0.330,-0.208,10.271,21.006,-19.885
19:09:50:638,18.528,-0.237,0.722,-0.462,12.408,15.386,-17.660
19:09:50:725,18.615,0.132,0.537,-0.559,17.476,7.080,-15.809
19:09:50:726,18.616,0.349,0.070,-0.260,20.614,0.699,-14.814
19:09:50:726,18.616,0.126,-0.144,-0.218,23.853,-8.241,-13.616
19:09:50:727,18.617,-0.116,-0.171,-0.318,26.448,-14.601,-15.143
19:09:50:824,18.715,-0.092,-0.160,-0.371,27.567,-18.145,-16.404
19:09:50:824,18.715,0.038,-0.185,-0.466,28.474,-22.170,-16.713
19:09:50:85,18.740,0.115,-0.163,-0.514,28.533,-24.265,-17.000
19:09:50:851,18.741,0.235,-0.182,-0.553,28.246,-26.916,-17.143
19:09:50:877,18.767,0.270,-0.306,-0.399,27.902,-28.592,-15.296
19:09:50:878,18.768,0.278,-0.386,-0.246,27.764,-28.780,-13.380
19:09:50:903,18.794,0.320,-0.323,-0.131,27.672,-27.505,-10.000
19:09:50:904,18.794,0.436,-0.215,-0.006,27.654,-25.537,-7.350
19:09:50:952,18.843,0.435,-0.225,-0.085,27.422,-20.652,-2.675
19:09:51:066,18.956,0.458,-0.178,-0.114,26.268,-14.483,2.247
19:09:51:067,18.957,0.550,-0.158,0.082,24.809,-10.563,5.333
19:09:51:068,18.958,0.646,-0.099,0.194,21.567,-4.281,9.637
19:09:51:068,18.958,0.618,0.207,0.053,19.089,0.080,11.856
19:09:51:092,18.983,0.638,0.324,-0.063,15.067,5.415,13.980
19:09:51:093,18.984,0.586,0.607,-0.283,12.287,9.294,14.140
19:09:51:094,18.984,0.482,0.585,-0.303,11.483,11.537,12.941
19:09:51:095,18.985,0.265,0.130,-0.049,11.854,15.065,9.260
19:09:51:243,19.133,0.166,0.116,-0.220,12.367,17.538,5.711
19:09:51:299,19.189,-0.045,0.420,-0.455,13.583,22.023,-0.001
19:09:51:299,19.189,-0.225,0.354,-0.231,16.057,27.765,-5.593
19:09:51:324,19.214,-0.216,0.218,-0.013,18.368,31.061,-8.974
19:09:51:324,19.214,-0.263,0.152,-0.166,21.832,33.548,-13.846
19:09:51:356,19.246,-0.420,0.086,-0.471,23.958,33.974,-17.401
19:09:51:356,19.246,-0.859,-0.178,-0.671,27.100,34.612,-22.811
19:09:51:357,19.247,-0.787,-0.210,-0.286,29.488,36.365,-25.970
19:09:51:358,19.248,-0.659,-0.196,-0.240,30.427,37.869,-26.867
19:09:51:402,19.292,-0.660,-0.268,-0.242,31.810,42.301,-27.945
19:09:51:403,19.293,-0.697,-0.277,-0.205,33.186,46.621,-28.498
19:09:51:427,19.317,-0.836,-0.281,-0.146,34.307,52.685,-29.155
19:09:51:428,19.318,-0.795,-0.320,-0.075,34.104,57.147,-30.226
19:09:51:479,19.369,-0.653,-0.400,0.004,33.454,60.111,-31.017
19:09:51:48,19.370,-0.517,-0.348,0.124,31.322,64.669,-31.772
19:09:51:59,19.481,-0.307,-0.056,0.204,29.327,67.340,-32.501
19:09:51:591,19.481,-0.133,0.307,-0.038,25.212,72.064,-33.576
19:09:51:592,19.482,-0.199,0.236,0.050,23.268,76.028,-33.826
19:09:51:592,19.483,-0.389,0.201,0.281,22.345,84.204,-35.097
19:09:51:608,19.498,-0.275,0.384,0.677,22.634,93.462,-36.634
19:09:51:636,19.526,-0.222,0.329,0.607,22.960,99.350,-36.920
19:09:51:661,19.551,0.194,0.021,0.607,24.689,106.773,-37.541
19:09:51:716,19.606,0.350,-0.081,0.795,25.871,110.783,-38.220
19:09:51:717,19.607,0.549,-0.257,0.663,26.557,114.269,-39.572
19:09:51:739,19.630,0.579,-0.346,0.318,25.226,114.456,-41.463
19:09:51:765,19.656,0.588,-0.339,0.174,23.465,113.574,-42.740
19:09:51:792,19.682,0.414,-0.383,0.380,20.779,112.423,-43.645
19:09:51:848,19.738,0.271,-0.323,0.598,19.031,111.544,-43.523
19:09:51:849,19.739,0.197,-0.230,0.661,16.616,109.360,-42.613
19:09:51:87,19.761,0.134,0.018,0.566,14.826,106.247,-40.456
19:09:51:926,19.816,0.069,0.103,0.509,13.744,103.711,-37.989
19:09:51:926,19.817,-0.025,0.108,0.320,12.796,99.102,-33.450
19:09:52:005,19.896,-0.082,0.048,0.279,12.690,95.832,-29.856
19:09:52:006,19.897,-0.200,0.038,0.299,12.888,90.223,-24.225
19:09:52:195,20.085,-0.619,0.100,0.591,12.939,82.351,-19.152
19:09:52:195,20.086,-0.414,0.219,-0.017,12.650,73.424,-15.863
19:09:52:196,20.087,0.256,0.201,-0.853,11.986,56.020,-13.423
19:09:52:197,20.087,0.058,0.134,-0.406,12.890,48.630,-13.214
19:09:52:221,20.111,-0.135,0.004,-0.143,16.369,41.379,-10.423
19:09:52:222,20.112,0.012,-0.026,-0.369,18.730,36.639,-7.643
19:09:52:223,20.113,0.032,-0.087,-0.445,20.721,37.051,-5.486
19:09:52:223,20.113,-0.054,-0.139,-0.534,23.183,41.586,-1.691
19:09:52:319,20.210,-0.031,-0.071,-0.531,24.045,45.632,1.208
19:09:52:373,20.264,-0.028,-0.013,-0.503,24.342,52.176,5.865
19:09:52:374,20.265,-0.031,0.013,-0.440,23.428,57.943,9.249
19:09:52:406,20.296,-0.047,-0.021,-0.386,22.391,60.016,10.496
19:09:52:406,20.296,0.021,0.041,-0.331,20.986,60.372,10.844
19:09:52:407,20.297,0.057,0.061,-0.325,20.188,58.713,10.323
19:09:52:476,20.366,0.230,0.119,-0.416,17.300,49.602,5.376
19:09:52:51,20.401,0.267,0.012,-0.413,16.187,47.540,3.362
19:09:52:511,20.402,0.149,-0.016,-0.399,14.588,46.680,0.226
19:09:52:512,20.403,0.090,0.056,-0.324,13.689,47.604,-1.843
19:09:52:513,20.404,0.061,0.065,-0.264,12.926,51.212,-4.927
19:09:52:583,20.473,0.047,0.064,-0.216,12.869,54.979,-6.966
19:09:52:584,20.474,-0.008,0.086,-0.168,13.369,62.560,-9.351
19:09:52:669,20.559,-0.143,0.035,-0.092,14.565,71.360,-10.667
19:09:52:669,20.559,-0.246,0.036,-0.026,15.703,77.110,-11.314
19:09:52:669,20.559,-0.327,0.066,0.102,17.656,84.273,-12.271
19:09:52:67,20.560,-0.471,-0.070,0.202,19.061,87.512,-12.926
19:09:52:684,20.575,-0.498,-0.128,0.171,21.097,88.672,-14.482
19:09:52:739,20.630,-0.507,-0.149,0.125,22.905,85.881,-17.108
19:09:52:74,20.631,-0.581,-0.129,0.146,23.902,83.193,-19.331
19:09:52:764,20.654,-0.557,-0.115,0.043,25.170,79.602,-23.005
19:09:52:789,20.680,-0.375,-0.096,0.115,25.953,79.326,-25.754
19:09:52:816,20.706,-0.339,-0.099,0.255,26.431,81.162,-27.277
19:09:52:841,20.732,-0.319,-0.109,0.342,27.053,85.007,-30.526
19:09:52:927,20.818,-0.363,-0.115,0.408,27.311,88.212,-32.948
19:09:52:927,20.818,-0.335,-0.086,0.573,27.336,93.455,-36.444
19:09:52:928,20.818,-0.202,-0.091,0.571,26.247,98.310,-39.708
19:09:52:975,20.865,0.015,-0.030,0.414,24.459,101.564,-41.193
19:09:53:003,20.894,0.338,0.026,0.392,21.946,106.260,-42.632
19:09:53:004,20.894,0.385,-0.140,0.552,21.412,109.393,-43.343
19:09:53:026,20.916,0.405,-0.339,0.437,20.483,112.942,-42.325
19:09:53:079,20.969,0.482,-0.045,0.273,18.249,113.193,-40.682
19:09:53:105,20.995,0.725,0.007,-0.063,13.736,111.642,-35.428
19:09:53:187,21.077,0.802,0.180,-0.358,13.165,113.363,-29.720
19:09:53:188,21.078,0.457,0.062,0.468,14.089,116.960,-25.523
19:09:53:298,21.188,0.325,0.011,0.740,15.067,120.008,-18.868
19:09:53:299,21.189,0.058,0.051,0.532,15.799,118.880,-15.319
19:09:53:299,21.189,-0.158,0.161,0.386,17.351,114.044,-12.080
19:09:53:32,21.210,-0.357,-0.017,0.054,21.245,100.348,-10.973
19:09:53:32,21.210,-0.251,-0.200,-0.098,22.058,90.047,-12.634
19:09:53:376,21.266,-0.232,-0.159,-0.107,22.404,83.200,-14.098
19:09:53:377,21.267,-0.267,-0.125,-0.076,22.096,73.784,-16.709
19:09:53:377,21.267,-0.321,-0.160,-0.039,21.339,66.476,-18.568
19:09:53:378,21.268,-0.334,-0.188,-0.041,20.805,63.105,-18.984
19:09:53:421,21.311,-0.310,-0.207,-0.109,20.342,60.264,-18.524
19:09:53:446,21.336,-0.256,-0.204,-0.158,20.351,59.812,-17.464
19:09:53:476,21.367,-0.163,-0.181,-0.194,20.691,60.447,-14.686
19:09:53:476,21.367,0.008,-0.148,-0.245,21.070,63.346,-10.481
19:09:53:581,21.472,0.009,-0.125,-0.306,21.266,66.222,-7.113
19:09:53:582,21.472,-0.150,0.084,-0.330,21.119,71.651,-1.761
19:09:53:69,21.580,-0.119,0.252,-0.394,20.550,75.272,1.873
19:09:53:69,21.580,-0.066,0.197,-0.414,19.018,79.606,7.191
19:09:53:691,21.581,0.026,0.213,-0.361,17.018,82.348,11.351
19:09:53:744,21.634,0.249,0.071,-0.436,15.694,82.792,12.865
19:09:53:745,21.635,0.375,0.090,-0.505,13.227,84.052,13.398
19:09:53:746,21.636,0.307,0.260,-0.421,11.317,85.319,12.686
19:09:53:747,21.637,0.167,0.304,-0.176,8.964,87.691,10.517
19:09:53:791,21.681,0.167,0.101,-0.147,8.307,88.352,7.502
19:09:53:792,21.682,0.039,0.180,-0.166,8.509,87.861,2.030
19:09:53:816,21.706,0.030,0.177,-0.037,9.429,87.017,-3.739
19:09:53:817,21.707,0.139,0.067,-0.024,10.619,86.952,-7.858
19:09:53:895,21.786,0.033,0.058,0.047,13.124,88.447,-12.951
19:09:53:896,21.786,0.010,-0.127,-0.044,14.611,89.770,-15.032
19:09:53:981,21.871,0.036,-0.148,-0.082,16.417,91.328,-17.921
19:09:53:981,21.871,-0.095,-0.124,0.010,18.401,93.371,-19.508
19:09:53:981,21.871,-0.277,-0.040,0.162,19.747,95.250,-20.104
19:09:53:981,21.872,-0.352,-0.007,0.207,21.534,98.326,-20.398
19:09:53:997,21.887,-0.440,0.050,0.240,22.760,100.411,-20.276
19:09:54:138,22.028,-0.476,0.024,0.305,24.995,103.806,-19.553
19:09:54:138,22.028,-0.461,-0.175,0.367,27.638,107.468,-18.022
19:09:54:139,22.029,-0.415,-0.270,0.367,29.487,109.793,-16.812
19:09:54:139,22.030,-0.340,-0.356,0.398,32.099,112.514,-15.733
19:09:54:157,22.047,-0.316,-0.305,0.399,33.498,113.442,-15.940
19:09:54:158,22.048,-0.317,-0.227,0.406,34.823,113.521,-17.404
19:09:54:239,22.129,-0.305,-0.127,0.388,34.871,111.538,-19.716
19:09:54:239,22.129,-0.322,-0.094,0.331,34.044,109.805,-21.622
19:09:54:24,22.130,-0.306,-0.008,0.354,31.431,106.509,-24.367
19:09:54:347,22.237,-0.283,0.177,0.424,28.981,104.922,-25.744
19:09:54:347,22.238,-0.252,0.372,0.353,24.389,103.025,-27.183
19:09:54:348,22.239,-0.010,0.090,-0.061,19.961,103.166,-27.189
19:09:54:349,22.240,0.111,-0.116,-0.267,17.681,104.386,-25.783
19:09:54:393,22.284,0.221,-0.183,-0.398,15.985,110.297,-23.558
19:09:54:394,22.284,0.247,-0.088,-0.154,16.522,116.186,-22.541
19:09:54:417,22.307,0.441,-0.065,0.520,17.662,126.559,-20.046
19:09:54:443,22.333,0.772,-0.084,0.461,18.625,132.301,-17.798
19:09:54:499,22.389,0.424,0.238,0.254,18.436,130.538,-17.476
19:09:54:5,22.390,0.348,0.305,0.092,17.498,123.615,-17.452
19:09:54:523,22.413,0.153,0.165,-0.156,16.894,117.913,-17.682
19:09:54:548,22.438,0.135,0.044,-0.175,16.285,110.141,-17.383
19:09:54:574,22.464,0.102,-0.014,-0.109,16.552,105.445,-16.393
19:09:54:601,22.491,0.041,-0.060,-0.018,17.277,104.171,-15.665
19:09:54:685,22.575,-0.060,-0.146,0.074,18.868,104.145,-14.200
19:09:54:686,22.576,-0.177,-0.085,0.108,20.050,104.747,-13.037
19:09:54:686,22.576,-0.206,-0.022,0.091,21.823,106.023,-10.996
19:09:54:706,22.596,-0.270,0.045,-0.034,23.495,107.557,-8.327
19:09:54:763,22.653,-0.287,0.002,-0.082,24.525,108.999,-6.230
19:09:54:763,22.653,-0.311,-0.137,-0.071,25.552,112.071,-2.706
19:09:54:784,22.674,-0.257,-0.238,-0.039,25.918,114.483,-0.316
19:09:54:84,22.730,-0.241,-0.300,0.062,26.161,118.177,3.068
19:09:54:841,22.731,-0.247,-0.277,0.042,25.823,120.539,5.033
19:09:54:942,22.832,-0.239,-0.225,0.021,25.411,121.238,5.565
19:09:54:97,22.860,-0.177,-0.145,0.002,24.479,120.849,5.423
19:09:54:996,22.886,-0.136,-0.076,-0.119,23.661,119.965,4.960
19:09:55:025,22.915,-0.144,-0.055,-0.223,21.904,118.261,4.172
19:09:55:026,22.916,-0.066,-0.002,-0.469,20.586,117.436,3.850
19:09:55:05,22.941,-0.046,0.038,-0.593,18.420,118.055,3.831
19:09:55:051,22.942,-0.042,0.059,-0.720,16.414,122.027,4.810
19:09:55:134,23.025,-0.171,0.201,-0.529,14.589,126.405,6.292
19:09:55:135,23.025,-0.234,0.361,-0.345,12.167,133.737,7.540
19:09:55:136,23.026,-0.185,0.444,-0.152,11.220,138.381,7.914
19:09:55:152,23.042,0.002,-0.156,-0.096,12.647,149.284,6.323
19:09:55:207,23.097,-0.065,-0.195,-0.025,14.107,151.839,4.808
19:09:55:208,23.098,-0.143,0.279,0.387,16.407,155.767,2.547
19:09:55:231,23.121,-0.060,0.264,0.488,18.555,157.621,0.828
19:09:55:257,23.147,-0.143,0.127,0.356,22.504,156.494,-2.065
19:09:55:312,23.203,-0.449,-0.014,0.222,24.831,151.358,-5.157
19:09:55:313,23.204,-0.399,-0.075,0.130,25.884,147.326,-7.648
19:09:55:337,23.227,-0.217,-0.154,0.204,25.975,143.018,-11.423
19:09:55:362,23.252,-0.123,-0.253,0.267,25.471,141.622,-13.505
19:09:55:388,23.278,-0.142,-0.218,0.326,24.522,141.604,-16.370
19:09:55:415,23.305,-0.109,-0.122,0.412,23.692,143.655,-19.302
19:09:55:441,23.331,-0.068,-0.037,0.486,23.300,145.739,-21.166
19:09:55:47,23.360,0.033,-0.057,0.508,22.918,149.411,-23.662
19:09:55:47,23.360,0.071,-0.124,0.431,22.820,151.859,-25.022
19:09:55:522,23.412,0.115,-0.203,0.323,22.723,155.381,-26.560
19:09:55:523,23.413,0.157,-0.221,0.251,22.668,158.572,-28.019
19:09:55:576,23.466,0.174,-0.230,0.249,22.449,160.445,-28.831
19:09:55:576,23.467,0.240,-0.168,0.251,21.709,162.804,-29.653
19:09:55:657,23.547,0.258,-0.045,0.207,20.888,164.091,-29.876
19:09:55:657,23.547,0.248,0.034,0.114,19.260,165.930,-29.477
19:09:55:658,23.548,0.218,0.067,0.043,17.578,168.137,-28.204
19:09:55:677,23.567,0.283,0.181,0.055,16.641,169.939,-27.052
19:09:55:703,23.593,0.331,0.267,0.020,15.553,172.771,-24.947
19:09:55:729,23.619,0.369,0.341,0.054,14.958,174.499,-23.099
19:09:55:755,23.646,0.385,0.308,-0.086,13.817,176.094,-19.456
19:09:55:782,23.672,0.137,-0.084,-0.487,12.844,176.191,-17.263
19:09:55:837,23.727,0.080,-0.175,-0.505,11.403,175.023,-13.893
19:09:55:838,23.728,0.265,-0.231,-0.048,10.312,171.533,-10.486
19:09:56:08,23.970,-0.054,-0.008,0.004,10.093,166.156,-8.800
19:09:56:081,23.971,-0.443,0.197,-0.006,10.720,155.835,-8.716
19:09:56:082,23.972,-0.399,0.206,0.033,12.254,150.936,-9.138
19:09:56:082,23.973,-0.169,0.099,0.162,15.405,145.860,-8.644
19:09:56:101,23.991,-0.257,-0.069,0.081,17.782,141.824,-8.404
19:09:56:102,23.992,-0.233,-0.153,0.015,19.424,140.201,-8.217
19:09:56:134,24.025,-0.149,-0.184,0.095,21.155,139.951,-8.012
19:09:56:134,24.025,-0.164,-0.238,0.190,21.997,140.126,-7.817
19:09:56:135,24.025,-0.168,-0.229,0.227,22.520,140.243,-7.668
19:09:56:135,24.026,-0.223,-0.201,0.261,22.362,139.541,-7.751
19:09:56:181,24.072,-0.243,-0.184,0.241,21.971,138.860,-7.700
19:09:56:182,24.072,-0.281,-0.157,0.201,21.160,137.907,-7.026
19:09:56:183,24.073,-0.294,-0.184,0.111,20.494,137.764,-6.170
19:09:56:202,24.092,-0.307,-0.247,0.016,19.312,138.195,-4.159
19:09:56:37,24.260,-0.294,-0.213,-0.015,17.952,140.477,-1.521
19:09:56:37,24.260,-0.314,-0.088,-0.073,16.874,142.862,0.350
19:09:56:37,24.260,-0.419,0.050,-0.180,14.809,147.518,3.178
19:09:56:371,24.261,-0.437,0.202,-0.151,13.062,151.305,4.737
19:09:56:391,24.282,-0.454,0.197,-0.255,10.071,157.264,6.502
19:09:56:392,24.282,-0.162,0.134,-0.825,6.493,163.358,7.463
19:09:56:392,24.283,1.182,0.635,-0.845,3.048,165.566,6.314
19:09:56:412,24.302,0.544,0.574,-0.725,0.370,167.255,1.489
19:09:56:438,24.328,-0.132,0.370,-0.089,-0.033,170.780,-0.692
19:09:56:464,24.355,-0.033,0.346,0.120,3.050,176.270,-2.276
19:09:56:631,24.522,-0.256,-0.016,0.081,8.778,174.683,1.536
19:09:56:632,24.522,0.007,-0.018,-0.042,11.895,174.956,0.595
19:09:56:632,24.523,0.081,0.047,0.018,15.705,175.818,-2.418
19:09:56:633,24.524,0.068,-0.087,-0.024,18.349,175.085,-3.101
19:09:56:652,24.542,-0.059,-0.155,0.135,20.755,172.981,-4.241
19:09:56:653,24.543,-0.300,-0.165,0.247,21.979,168.931,-7.584
19:09:56:704,24.595,-0.319,-0.155,0.270,22.046,165.324,-10.160
19:09:56:705,24.595,-0.154,-0.146,0.277,21.740,160.787,-13.304
19:09:56:788,24.678,-0.054,-0.154,0.305,21.709,158.880,-15.081
19:09:56:789,24.679,-0.037,-0.141,0.358,22.180,158.117,-17.644
19:09:56:791,24.681,0.020,-0.118,0.482,23.445,159.733,-19.790
19:09:56:792,24.682,0.063,-0.128,0.474,24.568,161.323,-20.916
19:09:56:808,24.698,0.127,-0.225,0.392,26.181,163.348,-22.281
19:09:56:833,24.724,0.151,-0.291,0.309,26.922,164.214,-23.142
19:09:56:885,24.775,0.208,-0.189,0.356,27.234,163.871,-26.444
19:09:56:91,24.801,0.219,-0.070,0.385,25.880,162.162,-28.403
19:09:56:993,24.883,0.197,0.026,0.226,23.221,160.161,-29.235
19:09:56:994,24.884,0.139,0.097,0.088,21.036,159.035,-29.100
19:09:57:072,24.962,0.174,0.128,0.138,18.239,158.154,-28.559
19:09:57:073,24.963,0.221,0.184,0.123,17.039,158.281,-28.043
19:09:57:096,24.987,0.317,0.268,-0.054,15.422,158.662,-25.676
19:09:57:156,25.047,0.375,0.150,0.016,14.534,160.547,-22.587
19:09:57:156,25.047,0.311,-0.183,-0.134,14.393,161.250,-20.526
19:09:57:157,25.047,0.208,-0.199,-0.257,13.770,160.379,-17.221
19:09:57:158,25.048,0.225,-0.013,-0.213,12.906,158.363,-14.983
19:09:57:173,25.063,0.069,0.155,-0.154,12.068,154.644,-11.603
19:09:57:199,25.089,-0.116,0.263,-0.018,12.225,150.980,-8.503
19:09:57:225,25.116,-0.198,0.086,-0.025,12.905,149.181,-6.687
19:09:57:28,25.170,-0.191,-0.050,-0.073,14.717,146.349,-4.877
19:09:57:367,25.257,-0.210,-0.301,-0.046,16.554,144.269,-4.146
19:09:57:367,25.257,-0.434,-0.210,-0.179,17.177,142.147,-4.766
19:09:57:367,25.257,-0.970,0.047,-0.538,17.949,142.443,-5.603
19:09:57:368,25.258,-0.500,-0.031,-0.516,18.095,146.237,-5.619
19:09:57:383,25.273,-0.933,0.201,-0.367,17.617,155.672,-5.974
19:09:57:439,25.329,-0.909,0.170,-0.205,17.622,163.227,-7.152
19:09:57:439,25.329,-0.627,0.170,0.101,19.064,175.580,-8.936
19:09:57:516,25.407,-0.465,0.146,0.098,22.516,-174.429,-10.889
19:09:57:547,25.437,-0.413,0.213,0.188,25.875,-168.551,-13.110
19:09:57:547,25.437,-0.140,0.318,0.250,32.484,-158.259,-15.294
19:09:57:548,25.438,0.111,0.407,0.115,37.635,-150.647,-15.901
19:09:57:567,25.458,0.135,0.413,0.209,45.625,-140.031,-16.310
19:09:57:594,25.484,0.228,0.498,0.371,53.467,-130.837,-16.818
19:09:57:62,25.510,0.431,0.434,0.164,58.540,-124.490,-16.665
19:09:57:674,25.564,0.533,0.191,0.183,65.694,-115.780,-16.591
19:09:57:726,25.616,0.482,0.063,0.259,70.170,-110.743,-16.828
19:09:57:778,25.668,0.518,0.028,0.161,76.086,-99.877,-13.440
19:09:57:812,25.702,0.390,-0.173,0.058,80.911,-77.340,2.208
19:09:57:813,25.703,0.328,-0.279,0.057,83.633,-54.452,20.957
19:09:57:814,25.704,0.231,-0.392,-0.038,86.901,-10.096,59.488
19:09:57:858,25.749,0.080,-0.399,0.079,90.184,30.545,91.090
19:09:57:859,25.750,-0.004,-0.324,0.065,91.021,39.050,95.001
19:09:57:886,25.776,-0.027,-0.250,0.027,91.237,42.230,95.533
19:09:57:886,25.776,0.049,-0.245,0.034,91.172,44.775,94.671
19:09:57:908,25.798,0.025,-0.156,-0.006,91.190,46.639,94.558
19:09:57:964,25.854,0.041,-0.117,-0.014,91.598,50.598,96.182
19:09:57:964,25.855,0.080,-0.135,0.029,92.580,56.392,100.318
19:09:58:016,25.906,0.038,-0.104,0.026,93.535,61.036,104.090
19:09:58:017,25.907,-0.064,-0.057,-0.028,95.267,67.789,109.904
19:09:58:04,25.931,0.020,-0.085,0.062,96.475,72.117,113.846
19:09:58:066,25.956,0.025,-0.064,0.076,98.110,78.364,119.634
19:09:58:092,25.982,0.030,-0.051,0.071,99.534,83.362,124.337
19:09:58:118,26.009,0.034,-0.059,0.073,100.387,85.877,126.702
19:09:58:144,26.035,-0.026,-0.017,0.045,101.421,88.021,128.462
19:09:58:17,26.060,-0.082,0.019,0.012,101.910,88.630,128.784
19:09:58:197,26.087,-0.028,-0.005,0.066,102.341,89.642,129.320
19:09:58:224,26.114,-0.027,-0.004,0.062,102.564,90.362,129.744
19:09:58:278,26.169,-0.067,-0.020,0.057,102.868,90.433,129.333
19:09:58:279,26.170,-0.099,0.002,0.031,103.072,89.868,128.137
19:09:58:302,26.192,-0.044,-0.022,0.055,103.171,89.718,127.539
19:09:58:329,26.220,-0.036,-0.020,0.061,103.250,90.025,127.048
19:09:58:355,26.245,-0.091,-0.032,0.055,103.292,90.040,126.493
19:09:58:38,26.271,-0.062,0.016,0.076,103.261,89.297,125.581
19:09:58:407,26.297,0.064,0.066,0.074,103.178,89.525,125.319
19:09:58:464,26.354,0.056,0.069,0.046,103.197,89.520,125.538
19:09:58:464,26.354,-0.003,0.037,0.006,103.099,90.085,125.474
19:09:58:486,26.376,-0.017,0.013,-0.019,102.941,89.834,125.087
19:09:58:512,26.402,0.029,-0.043,0.003,102.726,90.321,124.463
19:09:58:538,26.428,0.039,-0.059,0.010,102.795,91.026,124.387
19:09:58:566,26.456,-0.007,-0.071,0.008,102.995,91.636,124.474
19:09:58:59,26.481,-0.034,-0.053,-0.018,103.442,92.594,124.904
19:09:58:647,26.537,0.057,-0.023,0.012,103.781,93.721,125.742
19:09:58:647,26.538,0.097,0.018,0.057,104.280,96.152,128.089
19:09:58:669,26.559,0.074,0.037,0.043,104.543,98.123,129.592
19:09:58:696,26.586,0.035,0.044,-0.002,104.575,98.489,129.571
19:09:58:724,26.614,0.057,0.062,-0.005,104.479,99.425,129.851
19:09:58:749,26.639,0.080,0.037,0.017,104.389,100.430,130.414
19:09:58:774,26.665,0.021,0.018,-0.029,104.258,101.530,130.742
19:09:58:801,26.691,-0.016,-0.002,-0.048,104.179,102.380,130.834
19:09:58:827,26.717,0.004,0.000,-0.007,104.146,103.109,131.020
19:09:58:853,26.743,0.023,0.000,0.008,104.057,103.942,131.105
19:09:58:879,26.770,0.028,-0.004,0.011,104.007,104.419,131.058
19:09:58:906,26.796,0.024,-0.011,0.039,103.969,105.270,131.137
19:09:58:932,26.823,0.051,-0.011,0.026,103.993,105.928,131.351
19:09:58:958,26.849,0.056,-0.004,0.004,104.030,106.646,131.449
19:09:58:984,26.874,0.031,0.031,-0.030,104.105,107.323,131.377
19:09:59:01,26.901,-0.038,-0.014,-0.027,104.173,108.292,131.775
19:09:59:097,26.987,-0.042,0.020,-0.006,104.247,110.389,132.946
19:09:59:097,26.987,-0.024,0.064,0.016,104.199,112.693,134.114
19:09:59:097,26.987,0.003,0.038,0.018,104.128,113.757,134.476
19:09:59:115,27.006,-0.034,0.003,-0.024,104.139,114.424,134.398
19:09:59:143,27.034,-0.077,0.011,-0.054,104.308,114.736,134.420
19:09:59:168,27.058,0.046,-0.009,-0.024,104.646,115.599,134.862
19:09:59:194,27.085,0.061,-0.015,0.007,104.938,116.536,135.516
19:09:59:221,27.111,0.028,-0.012,0.003,105.397,118.011,136.546
19:09:59:247,27.137,-0.060,-0.034,0.015,105.660,119.289,137.395
19:09:59:275,27.165,-0.029,-0.040,0.004,105.705,119.968,137.715
19:09:59:353,27.243,-0.027,-0.015,0.000,105.714,120.765,137.916
19:09:59:383,27.273,-0.052,0.018,0.008,105.701,121.289,138.110
19:09:59:383,27.273,-0.045,0.015,0.017,105.656,121.756,138.402
19:09:59:431,27.321,-0.033,0.019,0.015,105.752,121.867,138.230
19:09:59:463,27.353,-0.028,0.032,0.013,105.881,121.947,138.100
19:09:59:463,27.353,-0.048,0.033,0.046,106.151,122.445,138.303
19:09:59:512,27.403,-0.047,-0.024,0.048,106.537,124.117,139.498
19:09:59:513,27.403,-0.052,-0.011,0.037,106.699,124.475,139.431
19:09:59:536,27.426,-0.061,-0.002,0.046,106.957,124.990,139.650
19:09:59:562,27.452,-0.045,0.001,0.017,107.211,126.381,140.584
19:09:59:618,27.508,-0.040,0.004,-0.005,107.252,127.586,141.521
19:09:59:618,27.508,-0.055,-0.010,-0.010,107.311,129.550,143.143
19:09:59:641,27.531,-0.054,0.029,-0.021,107.420,131.781,145.175
19:09:59:667,27.557,-0.014,0.024,-0.025,107.479,134.168,147.535
19:09:59:722,27.612,0.044,0.013,0.005,107.584,137.331,150.711
19:09:59:723,27.613,0.038,-0.006,0.004,107.686,138.135,151.621
19:09:59:747,27.637,0.010,0.017,-0.001,107.877,137.782,151.465
19:09:59:772,27.663,-0.019,0.016,0.009,108.011,137.468,151.182
19:09:59:798,27.689,-0.017,0.006,0.016,108.074,137.948,151.625
19:09:59:825,27.715,-0.032,-0.011,0.022,108.170,139.381,152.958
19:09:59:851,27.741,-0.002,0.015,0.021,108.209,140.423,153.856
19:09:59:879,27.769,0.013,0.014,0.024,108.244,141.591,154.737
19:09:59:904,27.795,-0.032,-0.002,0.007,108.340,142.059,154.956
19:09:59:93,27.820,-0.055,-0.001,0.014,108.408,142.374,155.122
19:09:59:956,27.846,-0.027,0.007,0.016,108.473,143.361,155.846
19:09:59:984,27.875,-0.024,0.002,0.010,108.542,144.013,156.341
19:09:59:985,27.876,-0.041,0.006,0.015,108.648,144.777,156.870
19:10:00:008,27.898,-0.036,0.004,0.018,108.745,145.168,157.091
19:10:00:034,27.925,-0.017,0.007,0.016,108.867,146.048,157.687
19:10:00:061,27.951,-0.023,0.007,0.010,108.989,146.906,158.353
19:10:00:116,28.006,-0.066,-0.014,0.015,109.050,147.329,158.655
19:10:00:116,28.006,-0.055,-0.008,0.017,109.084,148.864,159.918
19:10:00:139,28.029,-0.020,0.010,0.010,109.075,150.976,161.765
19:10:00:167,28.057,0.005,0.011,-0.006,109.022,154.217,164.696
19:10:00:192,28.082,-0.028,0.001,-0.003,108.950,156.192,166.314
19:10:00:219,28.109,-0.035,0.001,-0.012,108.936,156.811,166.740
19:10:00:246,28.136,-0.051,-0.002,-0.018,108.941,157.465,167.088
19:10:00:271,28.161,-0.058,0.006,-0.012,108.946,158.010,167.456
19:10:00:297,28.187,-0.040,-0.003,0.001,108.971,160.176,169.401
19:10:00:323,28.213,0.011,0.008,-0.010,109.009,163.409,172.491
19:10:00:349,28.240,0.023,-0.001,-0.006,109.054,164.387,173.398
19:10:00:376,28.266,-0.007,0.008,-0.004,109.189,164.027,172.933
19:10:00:402,28.292,-0.037,-0.008,-0.012,109.312,163.579,172.472
19:10:00:428,28.319,-0.014,0.005,-0.009,109.452,163.709,172.567
19:10:00:455,28.345,-0.009,-0.011,-0.001,109.513,163.909,172.754
19:10:00:511,28.401,-0.017,-0.016,0.001,109.558,163.724,172.498
19:10:00:512,28.402,-0.044,-0.004,0.009,109.609,163.292,172.010
19:10:00:533,28.423,-0.048,-0.002,-0.003,109.593,163.705,172.351
19:10:00:559,28.450,-0.054,-0.019,0.003,109.563,165.695,174.283
19:10:00:587,28.477,-0.003,-0.008,0.019,109.639,168.362,176.865
19:10:00:612,28.502,0.011,0.002,0.017,109.700,169.431,177.914
19:10:00:638,28.528,-0.065,-0.003,-0.002,109.739,170.167,178.543
19:10:00:664,28.555,-0.035,-0.016,0.023,109.767,171.666,-179.929
19:10:00:691,28.581,0.012,0.010,0.030,109.772,175.013,-176.596
19:10:00:717,28.608,0.038,0.030,0.003,109.689,176.717,-174.950
19:10:00:743,28.634,0.018,0.018,0.003,109.644,176.436,-175.309
19:10:00:769,28.659,-0.038,0.008,0.013,109.624,175.072,-176.639
19:10:00:796,28.686,-0.036,0.022,0.008,109.624,174.529,-177.202
19:10:00:822,28.712,-0.012,0.016,-0.002,109.630,174.729,-177.074
19:10:00:849,28.740,-0.045,-0.015,-0.012,109.584,174.977,-176.868
19:10:00:874,28.765,-0.065,-0.036,0.023,109.608,174.739,-177.042
19:10:00:901,28.791,-0.021,-0.002,0.000,109.675,175.198,-176.647
19:10:00:927,28.818,-0.009,0.000,0.016,109.693,176.091,-175.790
19:10:00:953,28.843,-0.025,-0.005,0.011,109.708,178.286,-173.686
19:10:00:98,28.870,0.010,0.002,0.010,109.736,179.967,-172.075
19:10:01:006,28.896,-0.024,-0.015,0.009,109.741,-178.533,-170.696
19:10:01:032,28.922,-0.037,-0.011,0.015,109.700,-177.323,-169.564
19:10:01:058,28.949,-0.002,-0.011,0.016,109.694,-175.944,-168.283
19:10:01:084,28.974,-0.001,0.007,0.017,109.641,-174.117,-166.634
19:10:01:11,29.001,-0.015,-0.017,0.025,109.571,-173.620,-166.187
19:10:01:137,29.027,-0.024,-0.030,0.025,109.511,-173.894,-166.547
19:10:01:163,29.053,-0.020,-0.023,0.012,109.430,-175.505,-168.060
19:10:01:189,29.080,-0.077,0.004,0.018,109.350,-176.429,-168.984
19:10:01:217,29.107,-0.020,-0.008,0.021,109.251,-175.055,-167.646
19:10:01:242,29.133,0.036,0.010,0.015,109.227,-173.364,-166.068
19:10:01:268,29.158,-0.011,0.001,0.013,109.187,-172.695,-165.491
19:10:01:294,29.184,-0.067,0.011,0.006,109.154,-172.603,-165.499
19:10:01:321,29.211,-0.036,0.009,0.004,109.171,-171.416,-164.447
19:10:01:348,29.238,-0.018,0.010,0.022,109.206,-168.459,-161.801
19:10:01:374,29.265,-0.049,-0.030,0.025,109.236,-166.759,-160.235
19:10:01:4,29.290,-0.086,-0.065,0.027,109.261,-165.079,-158.667
19:10:01:426,29.316,-0.033,-0.055,0.017,109.223,-164.042,-157.644
19:10:01:452,29.342,-0.024,-0.019,0.010,109.225,-163.369,-157.070
19:10:01:478,29.368,-0.010,-0.013,-0.029,109.202,-162.539,-156.261
19:10:01:504,29.395,-0.054,-0.079,0.007,109.192,-162.338,-156.110
19:10:01:531,29.421,-0.062,-0.085,0.013,109.156,-162.469,-156.263
19:10:01:557,29.447,-0.066,-0.043,0.035,109.020,-162.126,-155.984
19:10:01:584,29.474,-0.023,0.009,0.079,108.814,-161.597,-155.456
19:10:01:609,29.499,0.000,0.016,0.130,108.289,-160.623,-154.519
19:10:01:635,29.526,-0.011,0.009,0.119,107.757,-160.607,-154.292
19:10:01:662,29.552,0.009,-0.022,0.028,106.767,-162.707,-156.078
19:10:01:69,29.580,-0.030,0.018,-0.026,106.142,-165.472,-158.699
19:10:01:716,29.606,-0.047,0.017,-0.030,105.451,-169.654,-162.714
19:10:01:741,29.631,-0.084,0.025,-0.013,105.004,-171.047,-163.919
19:10:01:767,29.657,-0.126,-0.042,-0.003,104.747,-169.780,-162.512
19:10:01:793,29.683,-0.053,-0.038,0.005,104.383,-165.912,-158.418
19:10:01:819,29.710,0.004,-0.009,0.000,104.065,-161.926,-154.551
19:10:01:846,29.736,-0.038,-0.012,0.028,103.889,-159.623,-152.369
19:10:01:872,29.762,-0.015,-0.015,0.043,103.609,-156.485,-149.364
19:10:01:899,29.789,-0.017,-0.013,0.048,103.421,-154.824,-147.872
19:10:01:924,29.815,-0.025,-0.006,0.087,103.175,-152.638,-145.940
19:10:01:95,29.840,0.002,0.011,0.104,103.004,-150.860,-144.416
19:10:02:006,29.896,0.025,0.027,0.091,102.673,-148.262,-142.264
19:10:02:007,29.897,-0.020,-0.015,0.077,102.274,-145.661,-140.178
19:10:02:057,29.948,-0.005,-0.018,0.079,102.017,-143.941,-138.805
19:10:02:085,29.975,0.010,0.000,0.060,101.680,-141.394,-136.992
19:10:02:086,29.976,-0.023,0.002,0.032,101.385,-139.694,-135.821
19:10:02:11,30.000,-0.007,0.016,0.035,101.002,-137.183,-134.185
19:10:02:166,30.057,0.023,0.032,0.022,100.722,-134.589,-132.566
19:10:02:167,30.057,0.011,0.048,-0.003,100.572,-132.917,-131.614
19:10:02:167,30.058,-0.021,0.028,-0.010,100.446,-131.225,-130.862
19:10:02:217,30.107,-0.005,0.015,-0.005,100.445,-130.358,-130.652
19:10:02:217,30.107,-0.004,0.018,-0.018,100.520,-129.419,-130.668
19:10:02:239,30.130,-0.010,0.019,-0.022,100.643,-129.178,-131.296
19:10:02:266,30.156,-0.012,0.019,-0.027,100.750,-129.312,-132.016
19:10:02:293,30.184,-0.033,-0.029,-0.027,100.958,-129.663,-133.160
19:10:02:345,30.235,-0.033,-0.036,-0.029,101.128,-129.862,-133.826
19:10:02:432,30.322,-0.018,-0.028,-0.025,101.333,-129.769,-134.484
19:10:02:433,30.323,-0.028,-0.011,-0.035,101.361,-129.703,-134.963
19:10:02:433,30.324,-0.043,0.002,-0.063,101.295,-129.771,-135.270
19:10:02:434,30.325,0.008,0.024,-0.093,101.256,-130.411,-136.106
19:10:02:478,30.369,0.047,0.043,-0.102,101.299,-132.012,-137.738
19:10:02:479,30.369,0.009,0.064,-0.132,101.500,-137.890,-143.451
19:10:02:502,30.392,-0.112,0.015,-0.150,101.878,-148.864,-153.814
19:10:02:528,30.418,-0.095,-0.004,-0.134,102.303,-157.508,-162.039
19:10:02:583,30.473,0.011,0.008,-0.108,103.084,-170.968,-174.782
19:10:02:584,30.474,-0.067,-0.005,-0.107,103.640,179.177,176.086
19:10:02:607,30.497,-0.125,-0.023,-0.081,104.455,166.463,164.578
19:10:02:633,30.523,-0.111,-0.057,-0.028,105.131,160.328,159.728
19:10:02:66,30.550,0.017,-0.073,-0.033,105.453,158.799,159.004
19:10:02:686,30.576,0.032,-0.053,0.007,105.762,156.159,157.741
19:10:02:712,30.602,-0.060,-0.027,0.010,105.881,153.504,156.061
19:10:02:738,30.628,-0.133,-0.033,0.040,105.940,149.417,153.552
19:10:02:765,30.655,-0.032,-0.067,0.058,105.926,147.749,153.611
19:10:02:79,30.681,-0.045,-0.055,0.063,105.930,147.090,154.240
19:10:02:817,30.707,-0.079,-0.026,0.053,105.864,144.805,154.038
19:10:02:843,30.733,-0.076,-0.048,0.057,105.761,143.417,154.094
19:10:02:869,30.760,-0.022,-0.062,0.059,105.554,142.956,155.869
19:10:02:896,30.786,-0.059,-0.106,0.051,105.364,142.609,157.100
19:10:02:924,30.814,-0.122,-0.193,0.054,104.832,141.351,158.056
19:10:02:949,30.839,-0.120,-0.374,0.063,103.797,143.160,161.832
19:10:02:975,30.866,-0.181,-0.546,0.063,102.728,147.622,167.556
19:10:03:001,30.891,-0.276,-0.793,-0.064,100.408,164.460,-173.177
19:10:03:054,30.945,-0.179,-0.873,-0.147,98.274,-169.453,-144.858
19:10:03:142,31.032,0.154,-0.971,-0.198,94.110,-133.361,-104.099
19:10:03:143,31.033,0.555,-0.784,-0.076,88.327,-123.114,-86.883
19:10:03:16,31.051,0.400,-0.123,-0.553,63.939,-122.733,-62.984
19:10:03:186,31.076,0.691,0.391,-0.621,50.588,-123.303,-50.693
19:10:03:24,31.130,0.759,1.272,-0.128,38.671,-126.305,-40.146
19:10:03:241,31.131,0.660,1.393,0.179,33.017,-128.723,-33.740
19:10:03:403,31.294,0.150,0.970,0.052,27.743,-130.838,-21.824
19:10:03:404,31.295,-0.111,0.708,0.302,25.844,-132.027,-14.195
19:10:03:405,31.295,-0.327,0.434,0.305,23.916,-133.524,-6.075
19:10:03:406,31.296,-0.426,0.098,0.263,22.554,-135.747,-1.558
19:10:03:456,31.346,-0.375,-0.046,0.230,21.858,-137.640,0.114
19:10:03:456,31.346,-0.216,-0.086,0.213,21.320,-141.392,0.383
19:10:03:457,31.347,-0.256,0.040,0.331,21.125,-145.039,-0.457
19:10:03:5,31.390,-0.226,0.089,0.298,20.604,-155.279,-3.086
19:10:03:528,31.419,-0.197,0.022,0.268,20.399,-158.200,-3.251
19:10:03:529,31.419,-0.161,-0.084,0.204,20.215,-162.569,-2.904
19:10:03:581,31.471,-0.144,-0.144,0.245,20.186,-165.517,-2.446
19:10:03:582,31.472,-0.215,-0.152,0.270,20.240,-171.011,-1.926
19:10:03:663,31.553,-0.352,-0.221,0.184,20.344,-176.639,-1.575
19:10:03:664,31.554,-0.382,-0.204,0.136,20.276,-179.713,-1.261
19:10:03:664,31.555,-0.383,-0.111,0.105,19.835,176.712,-1.096
19:10:03:683,31.574,-0.268,-0.089,0.074,19.167,175.035,-1.260
19:10:03:71,31.600,-0.242,-0.064,0.037,17.527,173.645,-2.105
19:10:03:794,31.684,-0.436,0.068,-0.030,16.082,173.181,-3.133
19:10:03:794,31.685,-0.360,0.088,-0.161,14.061,174.533,-4.888
19:10:03:872,31.762,0.222,0.119,-0.670,13.284,-174.557,-7.515
19:10:03:873,31.763,0.565,-0.118,-0.549,14.744,-162.254,-7.053
19:10:03:874,31.764,0.403,-0.169,-0.311,15.382,-159.914,-6.809
19:10:03:92,31.811,0.355,-0.029,-0.176,15.246,-163.016,-8.997
19:10:03:948,31.838,0.349,-0.021,-0.050,13.985,-171.309,-11.433
19:10:03:975,31.865,0.299,-0.040,-0.057,12.685,-178.050,-11.932
19:10:03:976,31.866,0.226,0.079,-0.027,10.919,172.047,-12.444
19:10:04:028,31.918,-0.032,0.201,-0.092,10.118,165.980,-12.594
19:10:04:028,31.919,-0.204,0.295,-0.213,9.288,158.735,-12.441
19:10:04:05,31.941,-0.297,0.275,-0.272,9.278,154.712,-11.693
19:10:04:106,31.996,-0.190,0.164,-0.152,9.947,154.573,-10.835
19:10:04:107,31.997,-0.189,0.023,-0.052,10.872,156.743,-8.833
19:10:04:131,32.021,-0.285,0.002,0.104,11.957,161.298,-6.732
19:10:04:156,32.046,-0.317,-0.091,0.174,12.630,164.955,-5.101
19:10:04:211,32.101,-0.338,-0.179,0.179,13.547,170.678,-2.119
19:10:04:212,32.102,-0.404,-0.016,0.178,13.943,174.433,-0.034
19:10:04:234,32.125,-0.432,-0.034,0.162,14.640,179.976,2.901
19:10:04:261,32.151,-0.489,-0.090,0.211,15.385,-174.615,5.270
19:10:04:287,32.177,-0.515,-0.087,0.250,15.756,-171.187,6.440
19:10:04:313,32.203,-0.408,-0.086,0.313,16.146,-166.106,7.242
19:10:04:43,32.320,-0.285,-0.094,0.263,16.356,-163.182,6.919
19:10:04:43,32.320,-0.124,-0.053,0.240,16.724,-159.772,4.915
19:10:04:43,32.320,-0.020,0.033,0.240,17.049,-158.596,2.642
19:10:04:43,32.321,0.005,0.058,0.259,17.739,-158.751,-2.173
19:10:04:476,32.367,0.022,0.050,0.274,18.491,-160.839,-8.143
19:10:04:477,32.367,0.042,0.065,0.275,18.750,-162.844,-12.295
19:10:04:478,32.368,0.050,0.062,0.221,18.664,-165.872,-18.081
19:10:04:557,32.447,-0.045,0.047,0.199,18.410,-167.270,-21.668
19:10:04:557,32.447,-0.133,0.054,0.162,18.354,-166.846,-26.586
19:10:04:557,32.447,-0.131,0.292,0.311,20.575,-161.893,-31.339
19:10:04:635,32.525,0.055,0.517,0.109,23.776,-156.447,-34.439
19:10:04:635,32.525,0.257,0.464,0.297,28.566,-146.993,-37.294
19:10:04:636,32.526,0.128,0.350,0.195,32.161,-141.734,-39.474
19:10:04:712,32.603,0.252,0.293,0.107,38.088,-134.894,-42.314
19:10:04:713,32.604,0.267,0.179,0.013,45.214,-128.360,-44.830
19:10:04:714,32.604,0.335,0.170,0.108,49.677,-124.865,-46.678
19:10:04:733,32.624,0.073,0.047,-0.031,55.844,-119.904,-48.421
19:10:04:761,32.651,0.110,-0.309,-0.191,59.832,-115.715,-48.492
19:10:04:844,32.734,0.218,-0.464,-0.252,65.270,-108.870,-47.962
19:10:04:844,32.735,0.247,-0.685,-0.335,69.561,-103.233,-47.352
19:10:04:845,32.736,0.186,-0.790,-0.306,71.794,-101.308,-47.453
19:10:04:924,32.814,0.163,-0.860,-0.236,74.233,-102.344,-49.720
19:10:04:924,32.815,0.266,-0.737,-0.142,75.085,-105.031,-52.619
19:10:04:924,32.815,0.204,-0.690,-0.129,74.895,-107.973,-54.770
19:10:04:943,32.833,0.162,-0.652,-0.095,72.594,-110.684,-55.285
19:10:05:027,32.917,0.162,-0.526,-0.096,69.908,-112.549,-55.077
19:10:05:027,32.917,0.209,-0.459,-0.288,64.721,-113.694,-52.877
19:10:05:081,32.971,0.265,-0.464,-0.372,60.457,-113.455,-49.857
19:10:05:082,32.972,0.413,-0.375,-0.433,53.127,-114.253,-45.067
19:10:05:082,32.972,0.528,-0.063,-0.479,44.566,-117.214,-40.320
19:10:05:267,33.157,0.543,0.114,-0.467,38.235,-119.908,-36.100
19:10:05:268,33.158,0.589,0.437,-0.330,29.893,-125.115,-29.428
19:10:05:269,33.159,0.592,0.575,0.010,25.499,-129.272,-24.837
19:10:05:373,33.264,0.139,0.528,0.246,19.467,-141.833,-12.726
19:10:05:374,33.264,-0.094,0.535,0.286,18.217,-150.174,-6.420
19:10:05:374,33.265,-0.253,0.506,0.212,18.271,-157.817,-0.514
19:10:05:375,33.265,-0.367,0.481,0.235,18.493,-162.143,2.834
19:10:05:399,33.289,-0.442,0.385,0.304,18.837,-167.597,7.095
19:10:05:399,33.289,-0.629,0.382,0.350,19.120,-170.706,9.516
19:10:05:399,33.289,-0.739,0.253,0.307,19.741,-174.508,12.576
19:10:05:4,33.290,-0.717,0.095,0.292,20.680,-177.017,15.207
19:10:05:416,33.306,-0.679,-0.058,0.239,21.474,-178.272,16.651
19:10:05:442,33.332,-0.637,-0.266,0.112,23.089,179.706,17.790
19:10:05:468,33.358,-0.683,-0.319,0.177,24.105,178.594,18.037
19:10:05:524,33.414,-0.722,-0.285,0.219,25.149,177.707,18.079
19:10:05:524,33.414,-0.778,-0.381,0.159,25.696,178.675,17.725
19:10:05:547,33.437,-0.784,-0.374,0.231,25.555,-179.246,17.509
19:10:05:603,33.493,-0.599,-0.306,0.377,24.570,-173.776,17.416
19:10:05:603,33.493,-0.419,-0.224,0.447,23.561,-168.961,17.081
19:10:05:655,33.545,-0.271,-0.126,0.516,21.958,-161.105,15.755
19:10:05:655,33.545,-0.049,-0.010,0.501,21.013,-153.868,13.153
19:10:05:68,33.570,-0.037,0.044,0.429,21.031,-150.175,10.601
19:10:05:705,33.595,0.028,0.124,0.410,21.734,-146.825,5.730
19:10:05:73,33.621,0.091,0.203,0.420,22.425,-145.770,1.780
19:10:05:787,33.677,0.206,0.214,0.418,23.400,-145.616,-5.024
19:10:05:788,33.678,0.304,0.171,0.341,23.954,-146.526,-12.067
19:10:05:81,33.701,0.384,0.135,0.283,24.028,-147.240,-16.702
19:10:05:836,33.726,0.485,0.157,0.167,23.879,-147.993,-23.564
19:10:05:892,33.782,0.556,0.139,0.085,23.672,-148.127,-27.933
19:10:05:892,33.782,0.591,0.087,0.018,23.270,-147.774,-33.791
19:10:05:915,33.805,0.579,0.048,-0.101,22.833,-146.739,-38.574
19:10:05:999,33.889,0.525,0.019,-0.229,22.514,-145.584,-41.014
19:10:05:999,33.890,0.463,-0.153,-0.456,22.091,-143.566,-43.108
19:10:06:,33.891,0.346,-0.304,-0.548,21.830,-141.608,-43.343
19:10:06:078,33.968,0.292,-0.204,-0.476,20.790,-139.336,-42.190
19:10:06:078,33.968,0.071,-0.316,-0.426,19.920,-137.850,-40.883
19:10:06:079,33.969,0.094,-0.428,-0.464,19.188,-136.151,-37.661
19:10:06:098,33.988,0.319,-0.239,-0.515,19.137,-133.821,-33.982
19:10:06:154,34.044,0.396,-0.140,-0.433,18.789,-132.839,-31.192
19:10:06:155,34.045,0.427,0.021,-0.379,18.257,-132.252,-27.022
19:10:06:177,34.067,0.409,0.139,-0.236,18.047,-133.065,-23.366
19:10:06:263,34.153,0.329,0.120,-0.153,18.138,-134.472,-21.171
19:10:06:263,34.153,0.173,0.040,-0.001,18.470,-137.284,-18.069
19:10:06:263,34.153,0.093,0.011,0.116,18.587,-139.320,-15.992
19:10:06:311,34.201,0.057,0.016,0.142,18.939,-142.303,-12.245
19:10:06:311,34.202,0.018,0.054,0.188,19.393,-144.757,-8.617
19:10:06:335,34.226,-0.068,0.055,0.206,19.679,-145.930,-6.150
19:10:06:361,34.251,-0.202,0.003,0.275,19.957,-146.823,-2.053
19:10:06:387,34.277,-0.264,-0.034,0.308,20.121,-146.799,0.880
19:10:06:44,34.330,-0.355,-0.078,0.333,20.339,-145.686,5.768
19:10:06:52,34.410,-0.399,-0.041,0.359,20.347,-143.772,10.987
19:10:06:553,34.443,-0.442,-0.028,0.395,20.224,-142.485,14.379
19:10:06:554,34.444,-0.522,-0.034,0.459,19.994,-140.242,18.710
19:10:06:555,34.445,-0.483,-0.071,0.424,19.627,-139.031,20.904
19:10:06:571,34.461,-0.398,0.027,0.357,18.152,-135.968,22.572
19:10:06:597,34.487,-0.371,0.164,0.420,16.966,-134.681,21.113
19:10:06:684,34.575,-0.359,0.174,0.447,16.401,-135.327,17.838
19:10:06:685,34.575,-0.366,0.030,0.365,16.396,-136.058,14.802
19:10:06:686,34.576,-0.279,-0.020,0.362,16.551,-137.785,9.415
19:10:06:687,34.577,-0.071,0.210,0.428,16.533,-138.692,5.601
19:10:06:757,34.647,0.081,0.215,0.393,16.578,-139.258,-0.355
19:10:06:758,34.648,0.141,0.094,0.255,17.180,-138.798,-6.467
19:10:06:785,34.675,0.147,0.094,0.249,17.830,-138.125,-10.013
19:10:06:785,34.675,0.171,0.034,0.235,18.701,-135.883,-13.882
19:10:06:833,34.723,0.263,-0.041,0.245,19.517,-134.320,-16.060
19:10:06:864,34.754,0.407,-0.057,0.234,21.159,-130.489,-18.874
19:10:06:864,34.755,0.597,-0.041,0.180,23.347,-125.528,-20.830
19:10:06:944,34.834,0.694,-0.056,0.122,24.848,-122.040,-22.015
19:10:06:945,34.835,0.714,-0.136,-0.120,27.052,-116.176,-26.034
19:10:06:965,34.855,0.617,-0.164,-0.143,26.870,-115.202,-30.013
19:10:06:991,34.881,0.504,-0.214,-0.087,25.649,-114.080,-33.968
19:10:07:019,34.909,0.457,-0.226,-0.101,24.461,-112.664,-36.180
19:10:07:043,34.934,0.416,-0.157,-0.177,22.553,-109.857,-39.391
19:10:07:069,34.960,0.404,-0.058,-0.280,21.305,-107.574,-41.431
19:10:07:096,34.986,0.328,0.002,-0.422,19.323,-103.625,-43.708
19:10:07:123,35.013,0.095,0.011,-0.406,16.862,-99.299,-44.577
19:10:07:148,35.039,-0.080,0.073,-0.326,15.109,-96.281,-44.460
19:10:07:175,35.065,-0.114,0.072,-0.441,13.681,-90.836,-44.043
19:10:07:202,35.092,-0.215,-0.054,-0.417,13.759,-86.631,-43.437
19:10:07:285,35.175,-0.318,-0.193,-0.570,14.186,-79.707,-40.651
19:10:07:286,35.176,-0.436,-0.283,-0.506,14.339,-74.145,-36.287
19:10:07:287,35.177,-0.509,-0.220,-0.421,13.229,-71.833,-33.899
19:10:07:306,35.196,-0.583,0.000,-0.284,10.740,-71.122,-29.721
19:10:07:332,35.222,-0.531,0.045,-0.236,9.527,-70.986,-26.755
19:10:07:385,35.276,-0.346,0.128,-0.248,8.642,-71.563,-22.304
19:10:07:414,35.304,-0.164,0.190,-0.256,8.554,-72.500,-19.231
19:10:07:414,35.304,-0.042,0.249,-0.672,9.145,-75.260,-14.783
19:10:07:466,35.357,-0.001,0.156,-0.034,10.496,-82.811,-11.954
19:10:07:467,35.357,0.228,0.060,0.672,11.553,-90.192,-11.893
19:10:07:489,35.379,0.058,-0.067,0.273,13.436,-97.803,-11.442
19:10:07:516,35.406,-0.042,-0.132,0.023,14.863,-101.372,-10.546
19:10:07:542,35.432,0.033,-0.144,0.118,16.442,-105.419,-9.534
19:10:07:569,35.459,0.123,-0.156,0.154,17.902,-106.471,-8.420
19:10:07:594,35.485,0.204,-0.161,0.241,18.672,-105.978,-6.949
19:10:07:622,35.512,0.169,-0.167,0.289,19.532,-104.691,-4.213
19:10:07:647,35.537,0.108,-0.112,0.356,20.069,-103.485,-2.208
19:10:07:673,35.563,0.167,-0.067,0.370,20.682,-100.788,1.020
19:10:07:728,35.618,0.220,-0.032,0.378,21.052,-97.784,4.473
19:10:07:729,35.619,0.233,0.099,0.402,21.073,-96.101,6.778
19:10:07:754,35.644,0.134,0.022,0.382,20.936,-94.501,9.709
19:10:07:779,35.669,0.076,-0.054,0.387,20.767,-94.173,10.790
19:10:07:804,35.694,0.052,-0.006,0.442,20.095,-94.678,11.104
19:10:07:83,35.721,0.000,0.068,0.460,18.924,-95.770,10.187
19:10:07:857,35.747,-0.012,0.109,0.483,17.912,-96.563,8.906
19:10:07:883,35.773,-0.040,0.119,0.442,16.237,-97.356,6.276
19:10:07:91,35.801,0.053,0.073,0.353,15.206,-97.380,4.048
19:10:07:965,35.856,0.140,0.191,0.286,13.732,-96.435,0.165
19:10:07:966,35.856,0.184,0.199,0.092,12.952,-94.476,-4.304
19:10:08:017,35.907,0.204,0.104,0.002,12.864,-92.732,-7.420
19:10:08:018,35.908,0.093,0.044,-0.022,13.072,-89.810,-11.474
19:10:08:041,35.931,0.060,-0.030,0.022,13.151,-87.504,-13.312
19:10:08:068,35.958,0.096,-0.160,0.010,13.418,-83.629,-15.511
19:10:08:093,35.983,0.172,-0.142,-0.054,14.119,-79.630,-17.903
19:10:08:119,36.009,0.184,-0.105,-0.123,14.628,-77.033,-19.159
19:10:08:145,36.036,0.261,-0.093,-0.245,15.613,-73.397,-20.156
19:10:08:201,36.091,0.294,-0.072,-0.299,16.205,-71.679,-20.928
19:10:08:201,36.092,0.256,-0.091,-0.305,17.113,-69.928,-22.061
19:10:08:282,36.173,0.194,-0.114,-0.297,17.748,-68.478,-22.965
19:10:08:283,36.173,0.166,-0.139,-0.305,18.125,-67.455,-23.799
19:10:08:304,36.195,0.102,-0.145,-0.345,18.329,-64.542,-26.285
19:10:08:33,36.220,0.063,-0.088,-0.341,16.403,-63.012,-26.806
19:10:08:355,36.246,-0.058,-0.011,-0.304,14.872,-62.126,-28.325
19:10:08:382,36.272,-0.162,0.022,-0.268,13.505,-61.370,-28.884
19:10:08:437,36.327,-0.187,0.140,-0.119,11.384,-60.262,-29.492
19:10:08:438,36.328,-0.204,0.226,-0.124,10.434,-59.144,-29.562
19:10:08:461,36.351,-0.288,0.210,-0.073,9.673,-56.770,-27.822
19:10:08:516,36.406,-0.336,0.078,-0.103,9.735,-54.997,-25.890
19:10:08:517,36.407,-0.438,-0.175,0.088,10.117,-52.986,-21.927
19:10:08:539,36.430,-0.385,-0.202,0.220,10.301,-53.030,-17.691
19:10:08:624,36.514,-0.312,-0.057,0.094,10.235,-53.226,-14.874
19:10:08:625,36.515,-0.144,0.078,-0.010,10.427,-55.222,-11.067
19:10:08:625,36.515,0.004,0.123,-0.007,10.981,-56.631,-9.192
19:10:08:645,36.535,0.055,0.097,-0.006,12.411,-59.396,-7.199
19:10:08:697,36.587,0.090,-0.037,0.025,14.365,-61.630,-6.397
19:10:08:724,36.615,0.125,-0.127,-0.027,15.526,-63.354,-6.446
19:10:08:776,36.666,0.120,-0.192,-0.031,16.816,-65.634,-6.804
19:10:08:808,36.698,0.147,-0.157,0.005,17.499,-67.717,-6.849
19:10:08:808,36.698,0.178,-0.167,0.017,18.074,-70.607,-7.249
19:10:08:809,36.699,0.173,-0.142,0.037,18.113,-73.877,-7.686
19:10:08:828,36.718,0.160,-0.154,0.078,17.858,-75.528,-7.538
19:10:08:917,36.808,0.144,-0.158,0.154,17.322,-77.275,-6.532
19:10:08:917,36.808,0.135,-0.172,0.218,16.990,-77.187,-5.429
19:10:08:918,36.808,0.151,-0.102,0.266,16.538,-75.667,-3.207
19:10:08:919,36.809,0.136,-0.096,0.310,16.069,-72.307,-0.382
19:10:08:963,36.853,0.113,-0.105,0.327,15.591,-69.442,1.772
19:10:08:964,36.854,0.109,0.044,0.377,14.411,-64.885,4.960
19:10:09:015,36.906,0.111,0.121,0.314,13.303,-61.948,7.033
19:10:09:016,36.906,0.101,0.103,0.252,11.740,-58.297,9.199
19:10:09:067,36.958,0.081,0.085,0.238,10.599,-56.144,9.933
19:10:09:068,36.959,0.100,0.241,0.250,10.006,-55.690,9.688
19:10:09:091,36.981,0.044,0.292,0.266,9.545,-56.290,8.115
19:10:09:175,37.066,0.066,0.297,0.317,9.452,-57.410,6.279
19:10:09:176,37.066,0.075,0.099,0.286,9.519,-59.399,2.782
19:10:09:177,37.067,0.121,0.140,0.157,9.614,-60.566,0.091
19:10:09:254,37.145,0.139,0.249,0.049,9.690,-61.629,-4.113
19:10:09:255,37.145,0.109,0.153,-0.032,10.096,-61.626,-8.380
19:10:09:256,37.146,0.108,0.028,0.017,10.599,-61.243,-11.124
19:10:09:274,37.164,0.108,-0.023,0.057,11.362,-59.829,-13.609
19:10:09:302,37.192,0.139,-0.178,0.068,12.167,-56.970,-14.631
19:10:09:327,37.218,0.166,-0.229,-0.034,12.923,-53.954,-15.309
19:10:09:353,37.243,0.164,-0.210,-0.228,14.418,-48.735,-15.924
19:10:09:467,37.357,0.179,-0.104,-0.353,15.535,-45.463,-16.203
19:10:09:468,37.358,0.344,0.011,-0.387,17.215,-41.470,-16.878
19:10:09:468,37.358,0.378,0.056,-0.433,18.473,-38.840,-17.229
19:10:09:469,37.359,0.336,0.055,-0.530,20.779,-34.507,-18.297
19:10:09:486,37.376,0.254,-0.088,-0.649,23.189,-29.773,-20.695
19:10:09:541,37.431,0.045,-0.157,-0.666,24.778,-26.389,-22.801
19:10:09:542,37.432,-0.213,-0.225,-0.568,26.530,-22.893,-27.329
19:10:09:593,37.483,-0.171,-0.287,-0.487,26.877,-22.210,-31.112
19:10:09:593,37.483,-0.178,-0.296,-0.448,25.420,-23.056,-36.915
19:10:09:617,37.507,-0.081,-0.146,-0.318,20.917,-24.816,-42.032
19:10:09:671,37.561,-0.065,-0.050,-0.118,16.459,-25.355,-44.471
19:10:09:671,37.562,-0.223,-0.023,0.056,9.756,-23.683,-46.215
19:10:09:694,37.584,-0.280,-0.012,0.256,6.172,-21.444,-46.595
19:10:09:721,37.611,-0.264,-0.055,0.317,3.605,-16.602,-46.624
19:10:09:747,37.637,-0.355,-0.040,0.541,4.604,-9.530,-44.012
19:10:09:775,37.665,-0.373,-0.025,0.593,6.400,-4.056,-40.849
19:10:09:8,37.691,-0.401,0.239,0.776,8.548,4.061,-35.590
19:10:09:856,37.746,-0.460,0.113,0.803,9.265,8.702,-30.787
19:10:09:856,37.747,-0.366,-0.032,0.620,9.758,13.153,-23.441
19:10:09:878,37.768,-0.324,0.047,0.229,9.978,13.199,-17.079
19:10:09:963,37.853,-0.203,0.141,0.028,10.476,11.240,-13.638
19:10:09:963,37.853,-0.063,0.155,-0.078,12.110,6.787,-10.171
19:10:09:964,37.854,-0.138,0.054,-0.180,13.695,3.379,-9.197
19:10:09:983,37.873,-0.113,0.080,-0.183,15.692,-2.458,-10.367
19:10:10:04,37.931,-0.063,-0.072,-0.068,16.965,-8.792,-12.789
19:10:10:041,37.931,-0.042,-0.119,-0.160,17.015,-12.846,-14.521
19:10:10:115,38.005,0.049,-0.155,-0.236,16.414,-19.115,-17.615
19:10:10:141,38.031,0.075,-0.138,-0.246,15.549,-23.171,-19.520
19:10:10:299,38.190,0.096,-0.155,-0.233,14.068,-28.509,-21.279
19:10:10:412,38.303,0.084,-0.202,-0.181,13.389,-31.068,-21.658
19:10:10:413,38.304,0.088,-0.231,-0.146,13.196,-33.067,-20.837
19:10:10:414,38.304,0.119,-0.244,-0.118,13.807,-33.083,-18.425
19:10:10:415,38.305,0.166,-0.283,-0.040,14.445,-32.378,-16.109
19:10:10:614,38.504,0.151,-0.251,-0.003,15.186,-30.438,-11.507
19:10:10:646,38.536,0.185,0.024,0.096,15.461,-28.896,-7.956
19:10:10:646,38.537,0.297,0.139,0.082,15.414,-26.444,-2.591
19:10:10:647,38.538,0.432,0.326,0.104,14.581,-23.670,2.845
19:10:10:675,38.565,0.458,0.315,0.114,13.527,-21.750,6.737
19:10:10:676,38.566,0.432,0.271,0.150,11.256,-18.776,11.815
19:10:10:677,38.567,0.392,0.228,0.212,9.485,-16.943,13.852
19:10:10:678,38.568,0.238,0.196,0.253,6.764,-14.998,14.444
19:10:10:728,38.618,0.065,0.087,0.313,4.559,-14.299,12.579
19:10:10:728,38.618,0.032,-0.079,0.373,3.713,-15.152,10.227
19:10:10:729,38.619,0.137,-0.084,0.288,3.135,-18.328,5.609
19:10:10:73,38.620,0.142,0.098,0.371,2.648,-22.646,0.487
19:10:10:78,38.670,0.304,0.313,0.649,2.741,-23.350,-2.130
19:10:10:781,38.671,-0.195,0.032,-0.513,5.321,-9.319,-5.088
19:10:10:782,38.672,-0.812,-0.279,0.039,7.393,3.471,-5.218
19:10:10:807,38.698,0.085,-0.085,0.139,10.774,11.945,-2.626
19:10:10:807,38.698,0.257,-0.079,0.042,12.327,5.587,-3.380
19:10:10:808,38.699,0.208,-0.094,-0.181,13.187,0.078,-4.233
19:10:10:809,38.700,0.098,-0.069,-0.213,13.764,-4.177,-5.340
19:10:10:829,38.719,0.187,-0.070,-0.272,14.162,-10.850,-7.591
19:10:10:83,38.720,0.121,-0.117,-0.259,14.502,-13.764,-9.414
19:10:10:83,38.721,0.056,-0.125,-0.257,15.264,-15.428,-12.306
19:10:10:849,38.739,-0.053,-0.119,-0.250,16.191,-15.465,-15.167
19:10:10:935,38.825,-0.138,-0.047,-0.249,16.706,-15.400,-17.057
19:10:10:935,38.825,-0.153,0.015,-0.241,17.076,-15.901,-20.256
19:10:10:936,38.826,-0.153,0.056,-0.203,16.879,-16.639,-22.319
19:10:11:013,38.903,-0.183,0.072,-0.180,15.671,-17.903,-24.613
19:10:11:013,38.903,-0.217,0.153,-0.061,13.626,-18.955,-26.082
19:10:11:014,38.904,-0.221,0.256,-0.019,12.062,-19.412,-26.599
19:10:11:033,38.923,-0.250,0.333,-0.008,10.220,-19.255,-26.632
19:10:11:089,38.979,-0.218,0.140,-0.019,9.349,-18.540,-25.577
19:10:11:089,38.979,0.032,-0.252,0.127,8.752,-17.467,-23.085
19:10:11:141,39.031,-0.113,-0.452,0.367,8.650,-16.435,-20.257
19:10:11:142,39.032,-0.018,-0.188,0.414,8.310,-15.960,-18.178
19:10:11:194,39.084,-0.131,0.064,0.237,7.527,-14.633,-14.893
19:10:11:194,39.084,-0.141,0.082,0.121,7.325,-13.564,-13.072
19:10:11:22,39.110,-0.145,0.063,-0.050,7.556,-12.410,-11.055
19:10:11:22,39.110,-0.064,-0.140,0.025,8.576,-12.923,-9.913
19:10:11:273,39.163,-0.054,-0.212,0.018,9.289,-13.874,-9.823
19:10:11:273,39.163,-0.067,-0.236,0.006,10.390,-15.988,-10.298
19:10:11:384,39.275,0.003,-0.132,0.026,10.777,-17.969,-10.966
19:10:11:385,39.275,0.056,-0.080,0.036,10.879,-21.623,-11.830
19:10:11:385,39.275,0.110,-0.116,0.044,10.553,-25.598,-12.539
19:10:11:462,39.352,0.129,-0.133,0.072,10.179,-27.977,-12.718
19:10:11:463,39.353,0.115,-0.141,0.069,9.636,-30.514,-12.332
19:10:11:463,39.353,0.112,-0.136,0.067,9.423,-31.363,-12.076
19:10:11:464,39.354,0.104,-0.097,0.071,9.314,-31.329,-11.456
19:10:11:48,39.370,0.078,0.027,0.063,9.306,-30.052,-9.786
19:10:11:535,39.425,0.097,0.127,0.058,9.292,-28.942,-8.493
19:10:11:536,39.426,0.149,0.276,0.134,9.013,-27.793,-6.068
19:10:11:558,39.448,0.179,0.175,0.222,8.739,-26.784,-4.306
19:10:11:586,39.476,0.176,0.237,0.224,8.063,-25.363,-1.955
19:10:11:698,39.588,0.160,0.265,0.243,7.443,-23.981,-0.696
19:10:11:698,39.589,0.162,0.251,0.245,6.513,-22.406,0.204
19:10:11:699,39.590,0.166,0.030,0.191,6.021,-20.561,-0.145
19:10:11:7,39.591,0.078,0.031,0.073,5.990,-19.345,-1.091
19:10:11:717,39.607,-0.012,0.098,-0.044,6.292,-17.598,-3.204
19:10:11:742,39.632,-0.032,0.052,-0.059,6.896,-17.265,-5.237
19:10:11:768,39.659,-0.073,0.038,-0.104,8.135,-17.333,-8.905
19:10:11:796,39.686,-0.045,-0.066,-0.074,9.335,-18.237,-12.908
19:10:11:821,39.711,0.045,-0.170,0.041,9.851,-19.013,-14.981
19:10:11:847,39.737,0.078,-0.283,0.005,10.108,-19.668,-16.955
19:10:11:873,39.764,0.058,-0.267,-0.003,10.217,-19.736,-18.505
19:10:11:899,39.790,-0.023,-0.158,-0.096,10.476,-19.043,-20.755
19:10:11:984,39.874,-0.091,-0.118,-0.169,11.026,-17.070,-21.934
19:10:11:985,39.875,-0.096,-0.112,-0.196,11.608,-15.347,-22.449
19:10:11:986,39.876,-0.109,-0.090,-0.234,12.688,-12.773,-22.911
19:10:12:005,39.895,-0.171,-0.172,-0.242,13.565,-10.854,-22.836
19:10:12:031,39.921,-0.195,-0.218,-0.217,14.778,-8.452,-22.511
19:10:12:057,39.947,-0.223,-0.177,-0.190,15.446,-6.995,-22.385
19:10:12:142,40.033,-0.223,-0.070,-0.162,15.503,-6.654,-22.460
19:10:12:142,40.033,-0.193,-0.001,-0.121,14.920,-6.541,-22.382
19:10:12:143,40.033,-0.169,0.087,-0.080,14.117,-6.807,-22.142
19:10:12:191,40.081,-0.130,0.222,-0.008,12.569,-7.038,-21.492
19:10:12:192,40.082,-0.157,0.305,0.010,11.008,-7.112,-20.293
19:10:12:244,40.134,-0.180,0.393,0.016,10.010,-6.705,-19.051
19:10:12:244,40.134,-0.150,0.303,0.055,8.899,-6.323,-16.864
19:10:12:267,40.157,-0.015,-0.269,0.169,8.499,-5.857,-15.436
19:10:12:32,40.210,-0.098,-0.255,0.272,8.170,-5.623,-13.698
19:10:12:348,40.238,-0.105,-0.129,0.171,7.630,-5.528,-12.188
19:10:12:349,40.239,-0.124,-0.002,0.116,7.161,-6.204,-11.335
19:10:12:373,40.264,-0.148,0.100,0.064,7.116,-7.588,-10.999
19:10:12:429,40.319,-0.020,0.016,0.089,7.614,-9.314,-11.421
19:10:12:429,40.319,-0.038,-0.125,0.070,8.680,-11.696,-12.354
19:10:12:504,40.395,-0.070,-0.220,-0.028,9.105,-13.651,-12.813
19:10:12:536,40.426,-0.021,-0.232,0.039,9.286,-17.030,-13.135
19:10:12:536,40.426,0.036,-0.125,0.065,9.099,-20.675,-13.640
19:10:12:537,40.427,0.042,-0.118,0.066,8.967,-22.272,-13.785
19:10:12:612,40.502,0.051,-0.125,0.033,8.816,-23.822,-13.399
19:10:12:613,40.503,0.084,-0.105,0.019,8.880,-23.900,-12.955
19:10:12:667,40.557,0.104,-0.133,0.018,9.192,-23.126,-11.895
19:10:12:667,40.558,0.068,-0.185,0.070,9.592,-21.737,-10.429
19:10:12:668,40.558,0.049,-0.174,0.042,9.810,-20.442,-9.496
19:10:12:687,40.577,0.049,-0.005,0.029,9.880,-19.304,-8.317
19:10:12:771,40.662,0.082,0.225,0.039,9.739,-18.766,-7.452
19:10:12:772,40.662,0.131,0.245,0.098,9.399,-18.638,-6.120
19:10:12:773,40.663,0.146,0.086,0.109,9.159,-18.584,-5.129
19:10:12:878,40.768,0.127,0.105,0.104,8.903,-18.698,-4.745
19:10:12:879,40.769,0.105,0.331,0.151,8.284,-18.354,-4.715
19:10:12:88,40.770,0.105,0.401,0.162,7.853,-18.152,-5.124
19:10:12:9,40.790,0.115,0.171,0.097,7.636,-17.449,-6.547
19:10:12:9,40.791,0.064,0.127,-0.084,7.769,-16.325,-7.876
19:10:12:952,40.843,-0.050,0.066,-0.129,8.534,-14.046,-10.095
19:10:12:953,40.843,-0.103,-0.017,-0.119,9.801,-11.855,-12.697
19:10:13:034,40.924,-0.066,-0.020,-0.032,10.637,-10.604,-14.423
19:10:13:035,40.925,0.025,-0.171,0.018,11.636,-8.769,-16.200
19:10:13:035,40.926,0.045,-0.289,-0.001,12.140,-6.938,-17.195
19:10:13:161,41.051,0.007,-0.284,-0.061,12.498,-5.732,-18.114
19:10:13:193,41.083,-0.080,-0.220,-0.135,13.081,-3.808,-19.472
19:10:13:194,41.084,-0.132,-0.156,-0.181,13.586,-2.399,-20.030
19:10:13:194,41.085,-0.153,-0.086,-0.198,14.443,-0.407,-20.917
19:10:13:218,41.108,-0.172,-0.090,-0.227,15.622,1.458,-21.523
19:10:13:218,41.109,-0.191,-0.142,-0.212,16.425,2.441,-21.598
19:10:13:219,41.110,-0.241,-0.118,-0.226,17.470,3.268,-21.857
19:10:13:292,41.182,-0.211,-0.107,-0.199,17.951,3.388,-22.214
19:10:13:326,41.217,-0.224,-0.056,-0.186,18.106,3.251,-22.465
19:10:13:326,41.217,-0.208,0.043,-0.156,17.584,2.680,-22.730
19:10:13:327,41.217,-0.132,0.063,-0.084,16.845,2.193,-22.709
19:10:13:328,41.218,-0.132,0.017,-0.033,15.378,1.589,-22.064
19:10:13:404,41.295,-0.158,0.121,-0.070,14.428,1.237,-21.643
19:10:13:404,41.295,-0.176,0.361,-0.062,12.944,0.780,-20.511
19:10:13:405,41.296,-0.088,0.385,0.080,12.085,0.738,-19.297
19:10:13:422,41.312,0.028,0.081,0.146,11.438,1.328,-17.331
19:10:13:644,41.534,0.007,-0.242,0.259,11.238,2.345,-15.469
19:10:13:644,41.534,0.094,-0.222,0.211,11.058,2.577,-14.293
19:10:13:644,41.534,-0.013,-0.005,0.119,10.453,3.220,-12.609
19:10:13:645,41.535,-0.059,0.115,0.015,10.287,3.861,-11.924
19:10:13:668,41.558,-0.108,0.135,-0.068,10.648,5.202,-11.685
19:10:13:668,41.558,-0.115,-0.062,-0.015,11.742,5.994,-12.308
19:10:13:669,41.559,-0.132,-0.139,-0.013,12.575,6.030,-13.101
19:10:13:685,41.575,-0.045,-0.172,0.015,13.612,3.469,-15.843
19:10:13:743,41.633,0.014,-0.152,0.033,13.095,0.411,-17.177
19:10:13:744,41.634,0.065,-0.125,0.032,12.200,-2.346,-18.252
19:10:13:744,41.634,0.025,-0.086,-0.001,11.637,-3.454,-18.547
19:10:13:822,41.712,0.041,-0.069,-0.003,11.118,-3.691,-18.251
19:10:13:822,41.712,0.105,-0.107,0.010,11.055,-2.858,-17.596
19:10:13:845,41.735,0.094,-0.136,0.029,11.346,-0.209,-15.936
19:10:13:845,41.736,0.071,-0.104,0.023,11.790,3.319,-13.901
19:10:13:868,41.758,0.054,0.006,0.013,11.997,6.057,-12.500
19:10:13:894,41.785,0.018,0.133,-0.017,11.974,9.994,-10.061
19:10:13:921,41.811,0.034,0.204,-0.020,11.868,12.234,-8.587
19:10:13:947,41.837,0.055,0.137,-0.012,11.812,15.012,-6.918
19:10:14:002,41.892,0.030,0.075,0.012,11.811,17.007,-6.031
19:10:14:003,41.893,0.020,0.153,0.016,11.695,17.669,-5.929
19:10:14:112,42.002,0.044,0.180,0.063,11.438,17.614,-6.643
19:10:14:112,42.002,0.055,0.358,-0.012,11.132,17.013,-7.545
19:10:14:113,42.003,0.107,0.058,0.012,10.757,15.457,-9.283
19:10:14:134,42.024,0.079,-0.092,-0.053,10.860,14.424,-11.455
19:10:14:134,42.024,-0.017,0.005,-0.155,10.958,14.277,-12.709
19:10:14:157,42.048,-0.040,-0.043,-0.120,11.445,14.659,-14.413
19:10:14:213,42.103,-0.012,-0.031,-0.126,11.974,15.183,-15.515
19:10:14:213,42.103,0.009,-0.017,-0.129,12.868,16.708,-16.474
19:10:14:264,42.155,-0.012,-0.134,-0.156,13.458,18.106,-16.589
19:10:14:265,42.156,-0.050,-0.171,-0.166,14.330,20.580,-16.849
19:10:14:373,42.263,-0.156,-0.177,-0.167,15.062,23.324,-17.489
19:10:14:374,42.264,-0.239,-0.130,-0.150,15.512,25.302,-18.021
19:10:14:374,42.265,-0.272,-0.084,-0.135,16.098,28.063,-19.136
19:10:14:396,42.286,-0.273,-0.060,-0.150,16.474,29.757,-20.082
19:10:14:397,42.287,-0.290,-0.106,-0.132,16.929,31.806,-21.405
19:10:14:42,42.310,-0.271,-0.164,-0.097,17.138,33.126,-22.634
19:10:14:476,42.366,-0.253,-0.162,-0.117,17.034,33.510,-23.457
19:10:14:476,42.366,-0.161,-0.156,-0.105,16.549,34.265,-24.640
19:10:14:527,42.417,-0.143,-0.076,-0.110,16.050,34.861,-25.200
19:10:14:528,42.418,-0.175,0.034,-0.083,15.402,36.635,-25.689
19:10:14:55,42.441,-0.233,0.235,-0.085,14.882,38.797,-26.124
19:10:14:662,42.552,-0.136,0.135,-0.071,14.491,40.476,-25.767
19:10:14:662,42.552,-0.079,0.101,-0.080,14.140,43.229,-25.039
19:10:14:663,42.553,-0.134,0.169,-0.037,13.986,45.487,-24.408
19:10:14:823,42.713,-0.105,0.135,0.020,13.882,49.274,-23.361
19:10:14:823,42.714,-0.093,0.204,0.059,13.819,53.086,-22.465
19:10:14:824,42.715,0.058,-0.028,0.045,13.858,55.527,-21.973
19:10:14:825,42.716,0.159,-0.250,0.069,13.984,58.695,-21.757
19:10:14:843,42.733,-0.024,-0.082,0.098,13.845,60.389,-21.824
19:10:14:844,42.734,-0.094,-0.017,0.110,13.486,62.500,-22.100
19:10:14:9,42.790,-0.194,0.138,0.070,13.465,64.146,-23.125
19:10:14:901,42.791,-0.224,0.257,0.003,13.807,65.226,-24.115
19:10:14:902,42.792,0.045,0.147,-0.196,15.464,67.442,-25.873
19:10:14:903,42.793,0.018,0.202,-0.428,17.130,70.139,-27.193
19:10:14:919,42.809,0.013,0.111,-0.203,20.765,77.071,-28.712
19:10:14:945,42.835,0.021,0.051,-0.093,25.442,85.561,-30.182
19:10:15:027,42.917,-0.128,0.171,-0.191,28.896,90.777,-31.695
19:10:15:028,42.918,-0.180,0.105,-0.056,34.482,97.007,-34.609
19:10:15:054,42.945,-0.080,-0.011,0.042,38.297,99.678,-37.148
19:10:15:054,42.945,-0.036,-0.009,0.027,43.941,101.475,-41.907
19:10:15:076,42.966,-0.025,-0.135,0.127,47.832,102.083,-45.218
19:10:15:102,42.992,0.037,-0.252,0.168,53.923,102.821,-50.079
19:10:15:128,43.019,0.019,-0.201,0.143,59.436,102.784,-54.991
19:10:15:154,43.044,-0.227,0.012,0.204,62.570,102.489,-58.221
19:10:15:181,43.071,-0.158,-0.003,0.194,67.230,102.905,-62.126
19:10:15:236,43.126,-0.101,-0.071,0.255,71.555,104.985,-64.400
19:10:15:237,43.127,-0.110,-0.061,0.270,73.842,106.341,-65.534
19:10:15:26,43.150,-0.192,0.170,0.173,76.797,107.897,-67.580
19:10:15:286,43.176,-0.115,0.219,0.166,78.740,109.475,-68.721
19:10:15:312,43.202,0.056,0.142,0.114,81.612,112.638,-70.106
19:10:15:338,43.228,0.025,0.218,0.072,83.434,113.735,-71.938
19:10:15:364,43.255,-0.016,0.239,0.157,85.917,113.894,-76.017
19:10:15:42,43.310,0.012,0.087,0.096,88.644,110.864,-83.611
19:10:15:42,43.311,-0.121,0.026,-0.007,90.542,104.317,-93.351
19:10:15:443,43.334,-0.160,-0.006,0.085,93.091,82.331,-119.979
19:10:15:469,43.359,-0.060,-0.191,0.006,94.547,55.474,-149.860
19:10:15:554,43.444,-0.089,-0.226,-0.117,96.523,25.706,176.158
19:10:15:554,43.445,-0.102,-0.261,-0.003,97.667,14.187,160.789
19:10:15:555,43.446,-0.048,-0.231,0.001,98.202,9.383,153.598
19:10:15:574,43.465,0.004,-0.276,-0.027,98.970,6.349,147.263
19:10:15:601,43.491,-0.081,-0.269,-0.011,99.526,7.438,146.466
19:10:15:627,43.517,-0.104,-0.238,0.011,100.373,9.390,146.256
19:10:15:685,43.575,-0.081,-0.204,-0.015,101.131,8.548,143.704
19:10:15:686,43.576,-0.006,-0.204,-0.073,101.562,7.405,141.663
19:10:15:686,43.577,-0.042,-0.155,-0.084,102.147,8.403,141.732
19:10:15:765,43.656,-0.104,-0.079,-0.007,102.443,9.537,142.333
19:10:15:766,43.656,-0.029,-0.069,-0.092,102.799,8.389,140.429
19:10:15:766,43.656,-0.040,-0.010,-0.155,103.092,7.910,139.070
19:10:15:813,43.704,-0.107,0.004,-0.096,103.201,8.372,138.981
19:10:15:814,43.705,-0.113,0.068,-0.034,103.260,8.234,137.938
19:10:15:837,43.727,-0.034,0.076,-0.088,103.322,7.504,136.842
19:10:15:864,43.754,-0.038,0.067,-0.071,103.506,8.348,136.780
19:10:15:889,43.780,-0.076,0.046,-0.015,103.681,9.973,137.458
19:10:15:916,43.806,-0.066,0.071,-0.010,103.742,10.470,137.200
19:10:15:943,43.833,0.000,0.089,-0.093,103.740,10.964,136.605
19:10:15:968,43.858,-0.029,0.076,-0.087,103.611,12.262,137.058
19:10:15:994,43.884,-0.025,-0.019,0.097,103.277,15.230,139.343
19:10:16:021,43.911,0.003,-0.044,0.090,103.021,16.424,139.666
19:10:16:049,43.939,-0.031,-0.028,0.040,102.885,16.101,138.413
19:10:16:074,43.964,0.031,-0.050,0.080,102.702,16.066,137.446
19:10:16:1,43.990,-0.005,-0.106,0.168,102.743,17.655,138.532
19:10:16:127,44.017,-0.034,-0.075,0.154,103.151,20.694,141.377
19:10:16:21,44.100,0.050,-0.065,0.025,103.678,23.278,143.775
19:10:16:211,44.101,0.044,-0.043,-0.007,104.021,25.971,146.571
19:10:16:211,44.102,-0.036,-0.046,0.083,104.456,32.451,152.772
19:10:16:231,44.121,0.001,-0.054,0.022,104.720,35.384,155.723
19:10:16:258,44.148,0.062,-0.076,-0.071,105.129,38.047,158.001
19:10:16:283,44.173,0.049,-0.041,-0.024,105.433,40.609,160.474
19:10:16:31,44.200,0.019,-0.033,0.066,105.840,45.736,165.233
19:10:16:335,44.226,0.071,-0.051,-0.026,106.212,47.294,166.739
19:10:16:391,44.281,0.078,-0.041,-0.073,106.462,47.671,166.786
19:10:16:392,44.282,0.053,-0.017,-0.057,106.734,48.691,167.352
19:10:16:416,44.306,0.071,-0.005,-0.056,106.810,49.447,167.593
19:10:16:441,44.331,0.077,0.003,-0.046,106.759,49.531,167.053
19:10:16:467,44.357,0.039,0.029,0.034,106.693,49.358,166.145
19:10:16:494,44.384,0.058,0.054,0.016,106.721,48.374,164.817
19:10:16:52,44.410,0.056,0.063,-0.023,106.823,46.315,162.264
19:10:16:547,44.437,0.054,0.063,-0.056,106.920,45.588,161.322
19:10:16:572,44.462,0.026,0.117,-0.019,107.030,46.104,161.302
19:10:16:598,44.488,-0.002,0.167,0.040,107.046,47.028,161.959
19:10:16:624,44.514,-0.056,0.176,0.073,107.009,47.591,162.281
19:10:16:681,44.571,-0.059,0.103,0.066,106.942,48.160,162.913
19:10:16:681,44.571,-0.036,0.072,-0.027,106.852,48.121,162.840
19:10:16:732,44.622,-0.141,0.016,-0.118,106.626,50.029,164.149
19:10:16:788,44.678,-0.244,-0.093,-0.001,106.315,56.076,169.153
19:10:16:788,44.678,-0.308,-0.094,-0.006,106.136,60.097,172.477
19:10:16:789,44.679,-0.319,-0.119,0.054,105.732,63.548,175.078
19:10:16:808,44.698,-0.191,-0.136,0.063,105.414,64.869,175.872
19:10:16:863,44.754,-0.131,-0.117,0.076,105.032,65.820,176.416
19:10:16:864,44.755,-0.097,-0.123,0.045,104.965,68.650,178.388
19:10:16:914,44.804,-0.077,-0.115,0.040,105.005,71.551,-179.033
19:10:16:942,44.833,-0.073,-0.075,0.108,105.065,77.701,-174.068
19:10:16:943,44.834,-0.062,-0.073,0.078,105.100,81.091,-171.219
19:10:16:996,44.887,-0.009,-0.019,-0.100,104.957,89.337,-164.779
19:10:17:018,44.908,-0.012,-0.011,-0.096,104.837,93.140,-161.600
19:10:17:044,44.935,-0.092,0.030,-0.098,104.684,98.672,-156.852
19:10:17:072,44.962,-0.155,0.009,-0.140,104.554,101.064,-154.876
19:10:17:184,45.075,-0.150,0.037,-0.134,104.359,102.424,-153.847
19:10:17:185,45.075,-0.175,0.067,-0.110,104.182,103.174,-153.430
19:10:17:186,45.076,-0.165,0.011,-0.134,104.062,103.969,-152.936
19:10:17:187,45.077,-0.132,0.020,-0.100,103.812,106.039,-151.292
19:10:17:231,45.121,-0.055,0.025,-0.042,103.675,107.898,-149.833
19:10:17:232,45.122,0.046,-0.086,-0.022,103.425,111.735,-146.514
19:10:17:255,45.145,0.129,-0.328,-0.040,103.314,115.540,-142.834
19:10:17:281,45.171,0.110,-0.313,0.004,103.205,124.600,-133.377
19:10:17:307,45.197,0.146,-0.282,0.086,102.707,136.178,-121.015
19:10:17:334,45.224,0.142,-0.278,0.122,102.165,142.614,-113.875
19:10:17:388,45.278,0.023,-0.131,0.123,100.877,149.246,-105.635
19:10:17:389,45.279,-0.050,0.061,0.123,99.734,151.765,-101.692
19:10:17:413,45.303,-0.003,-0.074,0.129,97.934,153.371,-97.915
19:10:17:439,45.329,-0.174,-0.238,0.062,94.970,153.483,-94.096
19:10:17:465,45.355,-0.216,-0.005,0.156,91.997,153.447,-91.330
19:10:17:491,45.381,-0.127,0.336,0.214,87.140,152.499,-88.780
19:10:17:518,45.408,-0.089,0.196,-0.051,79.099,151.126,-86.894
19:10:17:543,45.433,-0.061,0.046,-0.133,70.675,150.553,-85.229
19:10:17:569,45.460,0.042,-0.103,-0.143,60.024,149.742,-82.996
19:10:17:596,45.486,0.086,-0.194,-0.128,56.674,149.305,-81.856
19:10:17:622,45.512,0.153,-0.394,-0.099,52.859,148.877,-79.538
19:10:17:65,45.540,0.196,-0.442,-0.073,49.128,148.794,-77.479
19:10:17:703,45.593,0.226,-0.473,-0.001,41.591,148.461,-73.689
19:10:17:704,45.594,0.291,-0.437,0.004,34.644,148.334,-68.378
19:10:17:728,45.618,0.249,-0.086,0.097,31.852,148.572,-63.972
19:10:17:754,45.645,0.252,-0.036,0.090,30.690,149.896,-56.807
19:10:17:779,45.669,0.321,-0.134,0.276,30.638,151.874,-50.847
19:10:17:806,45.697,0.563,0.132,0.411,29.825,156.463,-39.693
19:10:17:832,45.722,0.332,0.661,0.339,27.643,160.510,-28.307
19:10:17:887,45.777,0.164,0.927,0.340,25.458,161.642,-20.878
19:10:17:888,45.778,-0.144,1.215,0.356,23.165,161.517,-10.058
19:10:17:968,45.858,-0.477,0.720,0.132,22.654,161.139,-3.494
19:10:17:969,45.859,-0.420,0.263,0.129,21.927,160.690,4.869
19:10:17:995,45.885,-0.136,-0.343,-0.307,21.097,158.230,10.627
19:10:17:996,45.886,-0.286,-0.106,-0.194,20.718,155.176,11.276
19:10:17:996,45.887,-0.477,0.116,-0.049,21.037,149.706,9.489
19:10:18:016,45.906,-0.528,0.120,0.019,21.298,145.919,8.210
19:10:18:071,45.962,-0.522,-0.043,-0.085,22.001,140.213,6.831
19:10:18:072,45.963,-0.569,-0.153,-0.172,22.938,135.832,6.382
19:10:18:151,46.041,-0.594,-0.225,-0.185,23.486,133.995,6.596
19:10:18:152,46.042,-0.480,-0.322,-0.204,24.477,132.569,7.817
19:10:18:175,46.065,-0.461,-0.300,-0.201,25.039,132.423,8.828
19:10:18:232,46.122,-0.453,-0.266,-0.175,25.439,133.774,10.098
19:10:18:232,46.122,-0.487,-0.208,-0.090,25.041,136.177,10.868
19:10:18:234,46.124,-0.501,-0.193,-0.019,24.471,138.026,11.148
19:10:18:252,46.142,-0.455,-0.183,0.045,23.278,140.691,10.985
19:10:18:278,46.169,-0.400,-0.181,0.029,22.370,142.063,10.324
19:10:18:335,46.225,-0.401,-0.094,0.014,20.940,143.261,8.343
19:10:18:335,46.226,-0.375,0.014,0.053,19.982,144.791,6.413
19:10:18:357,46.247,-0.344,0.109,0.083,18.439,145.368,3.067
19:10:18:412,46.302,-0.290,0.279,0.075,16.788,146.694,-0.801
19:10:18:413,46.303,-0.231,0.332,0.045,15.648,147.075,-3.431
19:10:18:465,46.355,-0.159,0.302,0.044,13.892,148.947,-6.853
19:10:18:465,46.355,-0.047,0.302,0.090,12.293,150.936,-9.486
19:10:18:517,46.408,0.060,0.335,-0.079,11.451,153.058,-10.992
19:10:18:518,46.408,0.080,0.152,-0.025,10.008,157.972,-11.163
19:10:18:541,46.431,0.125,0.106,-0.220,9.745,161.708,-10.907
19:10:18:567,46.457,0.152,-0.065,-0.202,10.414,166.314,-13.579
19:10:18:593,46.483,0.492,-0.185,-0.095,9.773,168.139,-12.971
19:10:18:678,46.568,0.641,-0.282,0.088,10.167,169.563,-13.043
19:10:18:679,46.569,0.694,-0.092,0.323,10.662,169.476,-13.463
19:10:18:679,46.569,0.620,-0.012,0.326,11.030,166.673,-14.049
19:10:18:699,46.589,0.352,0.035,0.244,11.570,159.563,-15.793
19:10:18:724,46.614,0.191,-0.068,0.113,11.610,154.031,-16.551
19:10:18:75,46.641,0.091,-0.117,0.057,10.884,146.444,-16.528
19:10:18:863,46.753,0.110,-0.199,0.007,10.914,140.810,-15.781
19:10:18:864,46.754,0.087,-0.168,0.053,11.157,138.511,-15.282
19:10:18:864,46.754,0.033,-0.137,0.065,11.985,137.344,-13.881
19:10:18:885,46.775,-0.034,-0.107,0.044,12.623,137.984,-12.453
19:10:18:886,46.776,-0.085,-0.121,0.036,13.498,140.508,-9.930
19:10:18:936,46.826,-0.133,-0.123,0.027,14.073,144.017,-6.997
19:10:18:963,46.853,-0.165,-0.121,-0.005,14.264,146.516,-4.932
19:10:18:964,46.854,-0.204,-0.053,-0.049,14.300,150.262,-1.833
19:10:19:014,46.905,-0.255,0.114,-0.071,14.073,152.552,0.285
19:10:19:042,46.932,-0.305,0.178,-0.093,13.431,155.101,3.484
19:10:19:043,46.933,-0.331,0.256,-0.125,12.744,156.255,6.373
19:10:19:066,46.956,-0.293,0.149,-0.138,12.468,156.218,7.826
19:10:19:122,47.012,-0.314,0.084,-0.195,12.292,154.883,9.043
19:10:19:122,47.012,-0.357,0.174,-0.198,12.162,153.401,9.179
19:10:19:199,47.089,-0.352,0.184,-0.232,11.891,151.005,8.389
19:10:19:229,47.119,-0.327,0.011,-0.207,11.591,148.525,6.452
19:10:19:23,47.120,-0.309,-0.085,-0.228,11.521,146.909,4.647
19:10:19:23,47.120,-0.328,0.055,0.055,11.406,145.376,1.465
19:10:19:279,47.170,-0.186,0.085,0.120,11.351,144.971,-0.768
19:10:19:28,47.170,-0.141,0.024,0.064,11.760,144.938,-4.552
19:10:19:302,47.192,-0.146,0.000,0.016,12.385,145.937,-8.086
19:10:19:328,47.219,-0.123,-0.094,0.002,12.601,146.921,-9.521
19:10:19:383,47.274,-0.130,-0.165,0.009,12.854,149.024,-11.370
19:10:19:384,47.274,-0.106,-0.139,0.095,13.060,150.713,-12.764
19:10:19:407,47.297,-0.021,-0.105,0.203,13.354,153.499,-14.807
19:10:19:433,47.323,0.016,-0.077,0.221,13.409,155.256,-15.907
19:10:19:459,47.350,0.049,-0.078,0.242,13.614,157.987,-17.380
19:10:19:486,47.376,0.114,-0.088,0.271,14.044,160.616,-19.107
19:10:19:512,47.402,0.132,-0.156,0.273,14.431,162.008,-20.185
19:10:19:539,47.429,0.154,-0.180,0.249,14.926,163.297,-21.630
19:10:19:564,47.454,0.165,-0.201,0.170,15.097,163.636,-22.535
19:10:19:591,47.481,0.158,-0.161,0.139,14.911,163.599,-23.599
19:10:19:646,47.536,0.162,-0.010,0.142,14.418,163.333,-24.255
19:10:19:647,47.537,0.183,0.137,0.126,14.013,163.266,-24.279
19:10:19:669,47.559,0.142,0.188,0.065,13.381,163.548,-23.433
19:10:19:696,47.587,0.147,0.151,0.028,12.905,164.443,-21.457
19:10:19:722,47.612,0.238,0.216,0.034,12.767,165.247,-19.887
19:10:19:748,47.638,0.217,0.277,0.083,12.475,166.165,-16.933
19:10:19:774,47.665,0.151,0.198,0.086,12.321,166.137,-14.745
19:10:19:801,47.691,0.073,0.025,-0.009,12.404,164.763,-11.580
19:10:19:827,47.717,0.022,-0.238,-0.139,12.583,163.219,-9.757
19:10:19:854,47.744,-0.058,-0.323,-0.111,12.749,160.398,-7.147
19:10:19:879,47.770,-0.081,-0.202,-0.081,13.074,157.535,-5.399
19:10:19:936,47.826,-0.129,-0.004,-0.026,13.352,155.979,-4.763
19:10:19:936,47.826,-0.129,0.077,0.054,13.685,154.473,-3.923
19:10:19:958,47.848,-0.103,0.030,0.121,14.100,153.772,-3.730
19:10:19:984,47.875,-0.095,-0.066,0.134,14.882,152.609,-3.733
19:10:20:011,47.901,-0.112,-0.174,0.080,15.576,150.338,-3.523
19:10:20:037,47.927,-0.140,-0.182,0.029,15.838,148.683,-3.149
19:10:20:063,47.954,-0.182,-0.190,-0.062,16.102,145.747,-2.805
19:10:20:09,47.980,-0.188,-0.197,-0.092,16.124,144.327,-2.514
19:10:20:116,48.006,-0.176,-0.216,-0.084,15.929,142.780,-1.634
19:10:20:142,48.032,-0.199,-0.157,-0.100,15.469,142.402,-1.053
19:10:20:198,48.088,-0.231,-0.130,-0.117,15.171,142.926,-0.345
19:10:20:199,48.089,-0.218,-0.080,-0.108,14.594,144.319,0.868
19:10:20:222,48.112,-0.246,0.151,-0.098,14.120,145.501,1.587
19:10:20:279,48.169,-0.244,0.247,-0.107,13.166,147.168,2.730
19:10:20:28,48.170,-0.233,0.243,-0.163,12.242,148.505,3.468
19:10:20:281,48.171,-0.209,0.190,-0.174,11.687,149.108,3.634
19:10:20:3,48.190,-0.184,0.265,-0.163,10.836,149.435,3.477
19:10:20:384,48.275,-0.186,0.245,-0.191,10.351,149.266,3.039
19:10:20:385,48.275,-0.194,0.165,-0.225,9.816,148.603,2.022
19:10:20:385,48.276,-0.153,-0.087,-0.219,9.634,147.934,0.578
19:10:20:434,48.324,-0.130,-0.115,-0.134,9.621,147.996,-0.688
19:10:20:435,48.325,-0.095,0.121,0.005,9.621,148.912,-2.721
19:10:20:457,48.347,-0.034,0.133,0.069,9.986,149.922,-4.181
19:10:20:512,48.402,-0.104,0.056,0.071,11.134,151.722,-6.471
19:10:20:513,48.403,-0.082,0.037,0.047,12.357,153.131,-8.291
19:10:20:564,48.455,-0.094,-0.127,0.028,13.022,154.255,-8.918
19:10:20:565,48.456,-0.074,-0.279,0.062,13.775,155.778,-9.857
19:10:20:618,48.508,-0.054,-0.251,0.123,14.109,156.551,-10.951
19:10:20:618,48.508,-0.015,-0.209,0.150,14.463,157.884,-12.868
19:10:20:641,48.531,0.039,-0.164,0.221,14.877,159.506,-14.623
19:10:20:667,48.557,0.031,-0.118,0.235,15.106,160.343,-15.936
19:10:20:722,48.612,0.059,-0.106,0.221,15.580,161.363,-17.686
19:10:20:723,48.613,0.089,-0.112,0.203,15.880,161.846,-18.540
19:10:20:746,48.636,0.071,-0.103,0.200,16.246,162.161,-19.581
19:10:20:886,48.776,0.099,-0.052,0.192,16.420,162.256,-20.063
19:10:20:887,48.777,0.145,0.113,0.231,16.558,162.474,-20.439
19:10:20:887,48.778,0.145,0.219,0.190,16.622,162.742,-20.477
19:10:20:888,48.779,0.105,0.152,0.135,16.497,163.001,-19.913
19:10:20:906,48.796,0.161,0.183,0.129,16.172,163.497,-18.429
19:10:20:907,48.797,0.176,0.177,0.133,15.941,163.773,-17.356
19:10:20:988,48.878,0.148,0.111,0.094,15.539,163.605,-15.522
19:10:20:989,48.879,0.073,-0.094,0.000,15.181,162.566,-13.677
19:10:20:989,48.879,0.049,-0.229,-0.038,14.968,161.609,-12.452
19:10:21:088,48.979,0.044,-0.162,-0.012,14.509,160.157,-10.769
19:10:21:15,49.040,0.021,-0.015,-0.065,14.210,159.227,-10.027
19:10:21:15,49.041,0.042,0.055,-0.048,13.646,158.258,-9.096
19:10:21:151,49.041,0.098,0.017,0.014,13.153,157.650,-8.589
19:10:21:151,49.042,0.101,-0.080,0.023,12.977,157.076,-8.586
19:10:21:197,49.088,0.077,-0.198,0.018,12.866,155.482,-8.668
19:10:21:198,49.089,-0.008,-0.184,-0.049,12.785,153.906,-8.470
19:10:21:199,49.090,-0.045,-0.140,-0.077,12.659,151.130,-7.934
19:10:21:248,49.138,-0.071,-0.075,-0.114,12.642,148.731,-7.243
19:10:21:248,49.139,-0.078,-0.054,-0.121,12.663,147.887,-6.589
19:10:21:271,49.161,-0.113,-0.095,-0.134,12.706,147.836,-5.209
19:10:21:326,49.217,-0.158,-0.117,-0.131,12.716,148.303,-4.077
19:10:21:327,49.217,-0.150,-0.071,-0.127,12.735,149.473,-2.311
19:10:21:378,49.269,-0.148,-0.038,-0.143,12.664,150.813,-0.509
19:10:21:379,49.270,-0.176,0.053,-0.138,12.520,151.492,0.663
19:10:21:46,49.351,-0.259,0.194,-0.136,12.307,152.738,2.114
19:10:21:461,49.351,-0.258,0.200,-0.148,12.231,152.753,2.855
19:10:21:462,49.352,-0.236,0.047,-0.142,12.280,152.781,3.429
19:10:21:54,49.430,-0.275,0.154,-0.142,12.250,152.115,3.342
19:10:21:54,49.430,-0.264,0.194,-0.146,12.150,151.322,2.957
19:10:21:54,49.430,-0.266,0.228,-0.162,11.970,150.124,1.802
19:10:21:618,49.508,-0.250,0.078,-0.167,11.863,149.306,0.772
19:10:21:619,49.509,-0.215,-0.035,-0.105,11.889,148.672,-1.173
19:10:21:619,49.509,-0.208,0.030,0.020,11.956,148.839,-2.724
19:10:21:638,49.528,-0.148,0.072,0.106,12.168,149.932,-5.341
19:10:21:665,49.555,-0.070,0.016,0.153,12.764,151.799,-8.380
19:10:21:692,49.582,-0.048,0.026,0.153,13.259,153.233,-10.415
19:10:21:717,49.607,-0.067,-0.082,0.100,13.919,155.251,-12.734
19:10:21:772,49.663,-0.077,-0.161,0.116,14.272,156.736,-13.900
19:10:21:773,49.663,-0.044,-0.160,0.138,14.803,159.176,-15.596
19:10:21:796,49.686,0.035,-0.135,0.234,15.314,161.621,-17.230
19:10:21:852,49.742,0.056,-0.145,0.276,15.629,163.162,-18.130
19:10:21:852,49.743,0.091,-0.135,0.282,16.005,165.129,-19.286
19:10:21:875,49.765,0.112,-0.113,0.273,16.258,166.257,-20.090
19:10:21:902,49.793,0.121,-0.148,0.261,16.591,167.805,-21.301
19:10:21:956,49.847,0.127,-0.218,0.215,16.818,169.391,-22.406
19:10:21:957,49.847,0.122,-0.230,0.182,16.812,170.458,-23.169
19:10:22:037,49.928,0.167,-0.166,0.153,16.573,172.282,-24.258
19:10:22:038,49.929,0.202,-0.026,0.061,16.135,174.254,-25.282
19:10:22:039,49.930,0.200,0.053,0.029,15.689,175.562,-25.846
19:10:22:059,49.949,0.230,0.103,0.048,15.089,177.636,-26.337
19:10:22:173,50.064,0.263,0.117,0.015,14.745,178.943,-26.199
19:10:22:173,50.064,0.277,0.096,-0.055,14.134,-179.527,-24.988
19:10:22:174,50.064,0.302,0.178,-0.119,13.655,-178.858,-23.579
19:10:22:174,50.065,0.299,0.213,-0.071,12.862,-178.695,-20.816
19:10:22:218,50.109,0.259,0.277,-0.072,12.127,179.943,-17.534
19:10:22:219,50.110,0.129,0.184,-0.140,11.769,178.150,-15.143
19:10:22:269,50.159,-0.060,-0.113,-0.205,11.605,174.635,-11.628
19:10:22:383,50.273,-0.202,-0.170,-0.143,11.885,171.893,-9.284
19:10:22:383,50.273,-0.227,-0.081,-0.122,12.621,168.429,-5.717
19:10:22:431,50.322,-0.182,0.104,0.140,15.985,167.010,0.913
19:10:22:432,50.323,-0.118,-0.010,0.139,16.920,167.839,1.523
19:10:22:433,50.323,-0.097,-0.160,0.147,18.271,168.503,1.608
19:10:22:516,50.406,-0.114,-0.181,0.103,19.285,167.422,1.268
19:10:22:517,50.407,-0.154,-0.220,0.065,19.705,165.783,0.857
19:10:22:518,50.408,-0.226,-0.171,0.059,19.979,162.615,-0.261
19:10:22:559,50.449,-0.282,-0.140,-0.029,19.528,158.676,-1.485
19:10:22:584,50.474,-0.349,-0.137,-0.064,18.951,159.000,-1.051
19:10:22:612,50.503,-0.369,-0.145,-0.080,18.528,160.436,-0.347
19:10:22:613,50.503,-0.352,-0.154,-0.085,17.746,164.352,1.194
19:10:22:666,50.556,-0.310,-0.140,-0.056,17.068,167.733,2.325
19:10:22:666,50.557,-0.267,-0.094,-0.007,15.753,173.275,3.809
19:10:22:688,50.579,-0.207,0.051,0.047,14.377,178.312,4.761
19:10:22:743,50.634,-0.166,0.144,0.059,13.628,-179.128,4.807
19:10:22:744,50.635,-0.136,0.180,0.051,12.942,-176.495,3.863
19:10:22:768,50.658,-0.150,0.251,0.062,12.718,-175.786,2.578
19:10:22:934,50.825,-0.169,0.326,0.025,12.550,-175.830,-0.032
19:10:22:935,50.826,-0.156,0.342,-0.007,12.444,-176.221,-2.111
19:10:22:936,50.826,-0.145,0.317,-0.026,12.056,-176.712,-5.571
19:10:22:937,50.827,-0.072,0.006,0.005,11.653,-176.488,-9.142
19:10:22:953,50.843,0.123,-0.018,0.118,11.522,-175.688,-11.471
19:10:23:012,50.902,0.217,-0.086,0.092,11.970,-173.256,-14.247
19:10:23:013,50.903,0.156,-0.125,0.105,12.343,-171.767,-16.079
19:10:23:013,50.903,0.124,-0.130,0.155,12.956,-169.792,-18.375
19:10:23:117,51.007,0.054,-0.135,0.126,13.740,-166.538,-20.008
19:10:23:117,51.008,0.078,-0.155,0.169,14.051,-164.295,-19.545
19:10:23:118,51.009,0.113,-0.160,0.181,14.354,-162.172,-18.909
19:10:23:119,51.010,0.136,-0.126,0.188,14.850,-158.523,-17.743
19:10:23:135,51.025,0.172,-0.103,0.164,15.337,-153.948,-16.380
19:10:23:161,51.051,0.194,-0.088,0.161,15.658,-150.811,-15.607
19:10:23:217,51.107,0.228,-0.069,0.153,16.133,-146.146,-14.701
19:10:23:217,51.107,0.212,-0.098,0.113,16.392,-143.421,-14.152
19:10:23:268,51.159,0.158,-0.105,0.057,16.616,-139.794,-13.494
19:10:23:269,51.160,0.132,-0.051,0.034,16.532,-137.882,-13.315
19:10:23:38,51.270,0.144,0.068,0.044,16.271,-137.159,-13.526
19:10:23:38,51.270,0.100,0.186,0.037,15.643,-137.168,-13.908
19:10:23:381,51.271,0.072,0.232,-0.017,15.080,-137.325,-13.985
19:10:23:382,51.272,0.051,0.240,-0.020,14.171,-137.953,-13.608
19:10:23:398,51.288,0.091,0.299,0.007,13.330,-138.718,-12.715
