Time,Second,AccelerationX,AccelerationY,AccelerationZ,EulerAnglesX,EulerAnglesY,EulerAnglesZ
16:58:22:207,0.000,-0.067,-0.010,-0.016,-0.291,0.413,13.831
16:58:22:234,0.027,-0.071,-0.014,-0.013,-0.319,0.349,13.638
16:58:22:261,0.054,-0.061,-0.012,-0.018,-0.359,0.195,13.537
16:58:22:288,0.081,-0.061,-0.008,-0.006,-0.396,-0.177,13.413
16:58:22:315,0.109,-0.066,-0.012,-0.016,-0.451,-0.536,13.369
16:58:22:343,0.136,-0.066,-0.012,-0.016,-0.451,-0.536,13.369
16:58:22:369,0.163,-0.078,-0.013,-0.006,-0.510,-0.822,13.456
16:58:22:397,0.190,-0.073,-0.008,-0.001,-0.607,-1.289,13.661
16:58:22:423,0.217,-0.073,-0.008,-0.001,-0.607,-1.289,13.661
16:58:22:451,0.245,-0.016,0.009,0.007,-0.690,-3.120,14.620
16:58:22:478,0.271,-0.001,0.005,0.006,-0.672,-3.447,15.005
16:58:22:506,0.299,0.020,0.004,0.008,-0.664,-3.947,15.715
16:58:22:533,0.326,0.029,0.002,0.013,-0.659,-4.160,16.219
16:58:22:56,0.353,0.049,0.003,0.006,-0.611,-4.680,16.899
16:58:22:587,0.381,0.073,-0.019,0.008,-0.505,-5.173,17.348
16:58:22:615,0.408,0.068,-0.023,0.012,-0.280,-5.896,17.859
16:58:22:642,0.436,0.058,-0.028,0.006,-0.185,-6.194,18.043
16:58:22:669,0.462,0.058,-0.028,0.006,-0.185,-6.194,18.043
16:58:22:696,0.490,0.058,-0.002,-0.007,-0.111,-6.657,18.245
16:58:22:723,0.516,0.058,-0.002,-0.007,-0.111,-6.657,18.245
16:58:22:75,0.544,0.058,-0.002,-0.007,-0.111,-6.657,18.245
16:58:22:777,0.571,0.049,-0.007,-0.010,0.263,-8.881,18.584
16:58:22:805,0.598,0.047,-0.012,-0.002,0.446,-10.472,18.558
16:58:22:832,0.625,0.048,-0.017,0.011,0.504,-11.004,18.498
16:58:22:859,0.652,0.043,-0.018,0.006,0.546,-11.550,18.370
16:58:22:886,0.679,0.017,-0.004,0.015,0.541,-11.749,18.292
16:58:22:913,0.707,0.017,-0.004,0.015,0.541,-11.749,18.292
16:58:22:94,0.733,0.000,-0.008,0.025,0.485,-11.778,18.181
16:58:22:967,0.761,-0.014,0.002,0.021,0.460,-11.641,18.165
16:58:22:994,0.788,-0.025,-0.002,0.020,0.420,-11.365,18.179
16:58:23:021,0.814,-0.025,-0.002,0.020,0.420,-11.365,18.179
16:58:23:049,0.842,-0.034,0.001,0.009,0.463,-11.080,18.223
16:58:23:076,0.869,-0.030,0.003,-0.005,0.559,-11.125,18.251
16:58:23:103,0.897,-0.030,0.003,-0.005,0.559,-11.125,18.251
16:58:23:13,0.923,-0.016,-0.010,-0.013,0.751,-11.412,18.291
16:58:23:157,0.951,-0.014,-0.001,-0.012,0.787,-11.487,18.313
16:58:23:184,0.978,-0.014,-0.001,-0.012,0.787,-11.487,18.313
16:58:23:212,1.005,-0.014,-0.001,-0.012,0.787,-11.487,18.313
16:58:23:239,1.032,0.003,0.002,-0.013,0.880,-11.847,18.513
16:58:23:266,1.059,0.005,-0.013,-0.004,0.891,-11.970,18.583
16:58:23:293,1.087,0.009,-0.011,0.010,0.884,-12.058,18.621
16:58:23:32,1.114,0.014,-0.012,0.019,0.860,-12.144,18.671
16:58:23:347,1.141,0.013,-0.008,0.024,0.843,-12.181,18.682
16:58:23:376,1.169,0.003,-0.002,0.013,0.790,-12.122,18.690
16:58:23:403,1.196,-0.001,-0.005,0.010,0.771,-11.999,18.696
16:58:23:43,1.223,-0.003,-0.004,0.010,0.770,-11.911,18.712
16:58:23:457,1.250,-0.003,-0.009,0.005,0.797,-11.799,18.737
16:58:23:484,1.278,-0.003,-0.009,0.005,0.797,-11.799,18.737
16:58:23:511,1.304,-0.004,-0.008,0.001,0.815,-11.630,18.739
16:58:23:538,1.332,-0.001,-0.010,0.000,0.798,-11.492,18.741
16:58:23:566,1.359,-0.001,-0.010,0.000,0.798,-11.492,18.741
16:58:23:592,1.386,-0.006,-0.002,-0.001,0.735,-11.159,18.746
16:58:23:62,1.413,-0.009,-0.002,-0.003,0.695,-10.862,18.759
16:58:23:647,1.440,-0.007,-0.006,-0.001,0.693,-10.797,18.767
16:58:23:674,1.467,0.000,-0.003,-0.004,0.699,-10.736,18.765
16:58:23:701,1.494,0.001,-0.024,0.001,0.718,-10.672,18.769
16:58:23:728,1.521,0.008,0.005,-0.005,0.712,-10.622,18.762
16:58:23:756,1.550,0.000,-0.001,0.001,0.679,-10.483,18.745
16:58:23:783,1.576,0.000,-0.001,0.001,0.679,-10.483,18.745
16:58:23:811,1.604,-0.009,-0.001,0.008,0.604,-10.130,18.731
16:58:23:838,1.631,-0.006,-0.006,0.004,0.565,-9.920,18.727
16:58:23:865,1.658,-0.013,-0.007,0.014,0.571,-9.803,18.732
16:58:23:893,1.686,-0.008,-0.005,0.004,0.571,-9.637,18.721
16:58:23:92,1.713,-0.008,-0.005,0.004,0.571,-9.637,18.721
16:58:23:947,1.740,-0.009,-0.006,-0.001,0.585,-9.236,18.633
16:58:23:974,1.768,-0.009,-0.006,-0.001,0.585,-9.236,18.633
16:58:24:001,1.794,-0.012,-0.006,0.003,0.580,-8.964,18.599
16:58:24:028,1.822,-0.012,-0.006,0.003,0.580,-8.964,18.599
16:58:24:055,1.848,-0.004,-0.009,0.008,0.588,-8.749,18.587
16:58:24:082,1.876,-0.001,-0.004,0.006,0.579,-8.630,18.562
16:58:24:109,1.903,-0.006,-0.003,0.002,0.594,-8.433,18.558
16:58:24:137,1.930,-0.002,-0.006,0.006,0.604,-8.250,18.536
16:58:24:164,1.957,-0.002,-0.006,0.006,0.604,-8.250,18.536
16:58:24:191,1.985,0.002,-0.009,-0.010,0.598,-7.796,18.482
16:58:24:218,2.012,0.002,-0.009,-0.010,0.598,-7.796,18.482
16:58:24:246,2.039,0.002,-0.009,-0.010,0.598,-7.796,18.482
16:58:24:273,2.066,0.003,-0.014,0.007,0.583,-7.333,18.321
16:58:24:3,2.094,0.003,-0.014,0.007,0.583,-7.333,18.321
16:58:24:328,2.121,0.003,-0.014,0.007,0.583,-7.333,18.321
16:58:24:355,2.149,-0.007,-0.014,0.008,0.516,-6.998,18.185
16:58:24:382,2.175,0.005,-0.006,0.007,0.444,-6.718,18.055
16:58:24:409,2.203,0.001,-0.010,0.000,0.432,-6.593,18.035
16:58:24:437,2.230,0.003,-0.004,0.007,0.386,-6.338,18.016
16:58:24:464,2.257,-0.001,-0.004,-0.004,0.361,-6.140,18.008
16:58:24:491,2.285,0.024,-0.012,0.009,0.315,-5.875,17.966
16:58:24:518,2.311,0.008,-0.011,0.003,0.277,-5.625,17.949
16:58:24:545,2.339,0.010,-0.003,0.008,0.192,-5.244,17.872
16:58:24:573,2.366,0.013,-0.001,0.001,0.113,-4.848,17.759
16:58:24:599,2.393,0.042,0.000,0.014,0.072,-4.600,17.651
16:58:24:627,2.420,0.025,-0.002,0.009,0.015,-4.141,17.489
16:58:24:654,2.447,0.047,-0.008,0.020,-0.017,-3.809,17.336
16:58:24:681,2.474,0.068,-0.003,0.013,-0.075,-3.226,17.018
16:58:24:708,2.501,0.049,-0.022,0.022,-0.170,-2.459,16.879
16:58:24:735,2.528,0.045,-0.026,0.015,-0.198,-1.949,16.637
16:58:24:763,2.556,0.044,-0.015,0.007,-0.260,-1.207,16.170
16:58:24:791,2.584,0.048,-0.036,0.002,-0.279,-0.710,15.869
16:58:24:818,2.611,0.048,-0.036,0.002,-0.279,-0.710,15.869
16:58:24:845,2.638,0.015,0.001,0.000,-0.459,0.777,14.961
16:58:24:871,2.665,0.001,-0.013,0.010,-0.651,1.689,14.428
16:58:24:899,2.692,-0.043,0.001,0.015,-0.907,2.407,13.680
16:58:24:926,2.719,-0.074,-0.033,0.028,-1.056,2.643,13.103
16:58:24:953,2.746,-0.129,-0.026,0.049,-1.436,2.464,11.499
16:58:24:98,2.773,-0.129,-0.026,0.049,-1.436,2.464,11.499
16:58:25:007,2.801,-0.180,-0.019,0.061,-1.581,2.182,10.802
16:58:25:036,2.829,-0.190,-0.089,0.077,-1.844,1.217,9.594
16:58:25:063,2.856,-0.199,-0.145,0.041,-1.923,0.614,9.302
16:58:25:091,2.884,-0.226,-0.069,0.030,-1.984,0.146,9.192
16:58:25:118,2.911,-0.205,0.069,0.018,-2.105,-0.882,8.893
16:58:25:144,2.938,-0.184,0.129,0.004,-2.121,-1.669,8.592
16:58:25:172,2.965,-0.232,0.168,0.002,-2.068,-2.611,8.045
16:58:25:199,2.992,-0.232,0.168,0.002,-2.068,-2.611,8.045
16:58:25:226,3.020,-0.287,0.077,0.052,-1.865,-3.933,7.341
16:58:25:253,3.046,-0.267,0.030,0.069,-1.744,-4.904,7.312
16:58:25:28,3.074,-0.275,-0.064,0.080,-1.617,-5.545,7.521
16:58:25:307,3.100,-0.265,-0.094,0.079,-1.298,-6.456,8.113
16:58:25:334,3.128,-0.229,-0.122,0.052,-0.869,-7.497,8.836
16:58:25:362,3.155,-0.203,-0.121,0.037,-0.495,-8.141,9.367
16:58:25:388,3.182,-0.160,-0.057,-0.005,0.136,-9.169,10.153
16:58:25:416,3.209,-0.136,-0.031,-0.027,0.606,-9.745,10.675
16:58:25:442,3.236,-0.136,-0.031,-0.027,0.606,-9.745,10.675
16:58:25:47,3.263,-0.050,-0.033,-0.088,2.178,-10.634,12.458
16:58:25:497,3.290,-0.050,-0.033,-0.088,2.178,-10.634,12.458
16:58:25:524,3.318,-0.014,-0.003,-0.123,3.240,-10.124,14.373
16:58:25:552,3.345,0.016,0.006,-0.107,3.124,-9.753,15.234
16:58:25:579,3.373,0.072,0.088,-0.078,3.499,-8.494,16.922
16:58:25:607,3.400,0.072,0.088,-0.078,3.499,-8.494,16.922
16:58:25:635,3.428,0.143,0.106,-0.105,3.227,-5.696,17.811
16:58:25:662,3.455,0.148,0.212,-0.065,3.046,-4.422,17.779
16:58:25:689,3.482,0.193,0.247,-0.094,2.581,-2.213,17.226
16:58:25:716,3.510,0.193,0.247,-0.094,2.581,-2.213,17.226
16:58:25:744,3.537,0.067,0.007,-0.072,2.342,-0.507,16.711
16:58:25:771,3.565,0.067,0.007,-0.072,2.342,-0.507,16.711
16:58:25:798,3.592,0.084,-0.100,0.044,1.171,3.639,13.778
16:58:25:825,3.619,0.094,-0.019,0.033,0.634,4.211,12.728
16:58:25:853,3.646,0.094,-0.019,0.033,0.634,4.211,12.728
16:58:25:88,3.673,0.073,0.025,0.063,0.003,6.419,11.767
16:58:25:907,3.700,0.018,-0.045,0.083,-0.162,8.409,11.681
16:58:25:934,3.727,0.007,-0.016,0.044,-0.234,9.589,11.553
16:58:25:961,3.754,0.000,-0.085,0.040,-0.280,11.213,11.243
16:58:25:988,3.782,0.000,-0.085,0.040,-0.280,11.213,11.243
16:58:26:016,3.809,-0.085,-0.188,0.046,-0.095,13.846,10.877
16:58:26:043,3.836,-0.131,-0.211,0.064,-0.027,15.055,10.507
16:58:26:07,3.863,-0.131,-0.211,0.064,-0.027,15.055,10.507
16:58:26:097,3.891,-0.131,-0.211,0.064,-0.027,15.055,10.507
16:58:26:124,3.917,-0.172,-0.196,0.044,-0.133,16.583,8.911
16:58:26:151,3.945,-0.180,-0.191,0.078,-0.216,17.496,8.285
16:58:26:179,3.972,-0.180,-0.191,0.078,-0.216,17.496,8.285
16:58:26:206,3.999,-0.209,-0.076,0.071,-0.721,18.148,7.087
16:58:26:233,4.026,-0.211,0.065,0.083,-1.219,18.307,6.178
16:58:26:26,4.054,-0.231,0.289,0.086,-1.629,18.672,5.479
16:58:26:288,4.081,-0.231,0.289,0.086,-1.629,18.672,5.479
16:58:26:315,4.108,-0.285,0.178,0.191,-2.405,20.367,3.968
16:58:26:342,4.135,-0.292,0.100,0.257,-3.361,22.046,3.440
16:58:26:369,4.162,-0.292,0.100,0.257,-3.361,22.046,3.440
16:58:26:396,4.189,-0.317,0.181,0.268,-3.906,22.316,3.606
16:58:26:424,4.217,-0.206,0.046,0.247,-3.723,19.940,5.363
16:58:26:45,4.244,-0.206,0.046,0.247,-3.723,19.940,5.363
16:58:26:478,4.271,-0.117,0.081,0.149,-3.539,17.314,7.696
16:58:26:505,4.298,-0.031,0.103,0.018,-2.362,11.954,12.330
16:58:26:532,4.325,-0.017,0.145,-0.015,-1.555,10.293,14.021
16:58:26:559,4.353,-0.017,0.145,-0.015,-1.555,10.293,14.021
16:58:26:586,4.380,0.109,0.094,-0.105,0.955,6.443,18.457
16:58:26:614,4.407,0.087,-0.152,-0.139,2.813,4.974,21.563
16:58:26:64,4.434,0.079,-0.243,-0.108,4.686,4.026,24.822
16:58:26:668,4.461,0.183,-0.148,-0.176,5.801,3.359,26.931
16:58:26:695,4.489,0.232,-0.188,-0.204,7.562,2.340,29.900
16:58:26:723,4.517,0.255,-0.240,-0.210,8.797,1.843,31.833
16:58:26:751,4.544,0.306,-0.213,-0.203,10.359,1.508,34.376
16:58:26:777,4.571,0.329,-0.256,-0.214,11.514,1.699,36.530
16:58:26:804,4.598,0.329,-0.264,-0.214,11.918,2.196,37.698
16:58:26:831,4.625,0.369,-0.127,-0.207,11.773,3.160,38.718
16:58:26:859,4.652,0.398,-0.063,-0.175,11.294,3.806,38.845
16:58:26:885,4.679,0.405,-0.066,-0.190,10.306,4.842,38.283
16:58:26:913,4.706,0.401,-0.041,-0.141,9.130,6.187,37.084
16:58:26:94,4.733,0.473,0.115,-0.202,7.910,7.369,35.737
16:58:26:967,4.761,0.379,0.106,-0.189,5.983,9.928,33.296
16:58:26:994,4.787,0.216,0.114,-0.008,4.707,12.147,31.333
16:58:27:021,4.815,0.161,0.167,0.061,2.715,15.436,27.298
16:58:27:049,4.842,0.026,0.209,0.189,1.588,17.216,24.111
16:58:27:076,4.869,0.026,0.209,0.189,1.588,17.216,24.111
16:58:27:103,4.896,-0.104,0.212,0.113,-0.459,19.470,14.315
16:58:27:13,4.923,-0.083,0.113,0.083,-0.563,19.587,12.073
16:58:27:157,4.950,-0.053,0.018,0.100,-0.420,20.188,10.190
16:58:27:184,4.977,-0.097,-0.148,0.098,0.362,23.335,10.703
16:58:27:211,5.004,-0.103,-0.149,0.015,0.780,26.600,12.042
16:58:27:238,5.032,-0.131,-0.129,0.012,1.004,29.175,13.089
16:58:27:265,5.059,-0.162,-0.142,0.001,1.318,33.243,14.551
16:58:27:293,5.086,-0.177,-0.186,0.042,1.535,35.647,15.354
16:58:27:32,5.114,-0.142,-0.212,0.033,1.719,38.495,16.014
16:58:27:348,5.141,-0.109,-0.191,0.061,1.695,40.401,16.062
16:58:27:375,5.169,-0.109,-0.191,0.061,1.695,40.401,16.062
16:58:27:403,5.196,-0.109,-0.191,0.061,1.695,40.401,16.062
16:58:27:43,5.224,-0.109,-0.191,0.061,1.695,40.401,16.062
16:58:27:458,5.251,-0.086,0.122,0.141,-0.354,41.267,12.169
16:58:27:485,5.278,-0.086,0.122,0.141,-0.354,41.267,12.169
16:58:27:512,5.305,-0.086,0.122,0.141,-0.354,41.267,12.169
16:58:27:539,5.333,-0.144,0.054,0.265,-2.238,41.141,7.446
16:58:27:567,5.360,-0.153,0.158,0.297,-2.714,41.390,6.450
16:58:27:593,5.387,-0.191,0.171,0.325,-3.368,41.822,5.294
16:58:27:621,5.414,-0.214,0.232,0.386,-3.790,42.035,4.707
16:58:27:648,5.441,-0.225,0.175,0.431,-4.309,41.950,4.146
16:58:27:675,5.469,-0.225,0.175,0.431,-4.309,41.950,4.146
16:58:27:703,5.496,-0.182,0.156,0.356,-4.838,40.609,4.866
16:58:27:729,5.523,-0.057,0.214,0.252,-5.039,38.928,6.880
16:58:27:757,5.551,-0.057,0.214,0.252,-5.039,38.928,6.880
16:58:27:784,5.578,0.026,0.162,0.094,-4.094,34.693,13.339
16:58:27:811,5.605,0.087,0.197,0.009,-3.195,32.798,16.281
16:58:27:839,5.632,0.087,0.197,0.009,-3.195,32.798,16.281
16:58:27:865,5.659,0.230,0.047,-0.083,1.245,28.377,25.483
16:58:27:893,5.686,0.259,0.048,-0.150,2.927,27.527,28.464
16:58:27:919,5.713,0.259,0.048,-0.150,2.927,27.527,28.464
16:58:27:947,5.740,0.259,0.048,-0.150,2.927,27.527,28.464
16:58:27:974,5.767,0.257,-0.250,-0.304,10.834,28.573,42.100
16:58:28:001,5.794,0.257,-0.250,-0.304,10.834,28.573,42.100
16:58:28:028,5.821,0.259,-0.290,-0.303,12.833,29.584,45.119
16:58:28:055,5.848,0.263,-0.414,-0.310,15.437,31.218,48.362
16:58:28:082,5.876,0.271,-0.399,-0.301,15.531,32.535,49.142
16:58:28:11,5.903,0.270,-0.399,-0.303,14.660,33.992,49.051
16:58:28:139,5.933,0.274,-0.357,-0.344,13.502,35.197,48.430
16:58:28:167,5.960,0.281,-0.248,-0.344,11.088,37.251,46.553
16:58:28:194,5.988,0.286,-0.154,-0.328,9.276,38.724,44.583
16:58:28:221,6.015,0.286,-0.154,-0.328,9.276,38.724,44.583
16:58:28:249,6.042,0.286,-0.154,-0.328,9.276,38.724,44.583
16:58:28:276,6.070,0.224,0.395,-0.326,2.125,45.692,29.914
16:58:28:303,6.096,0.133,0.641,-0.014,0.250,49.186,22.082
16:58:28:33,6.124,0.057,0.749,0.202,-0.626,51.342,16.389
16:58:28:357,6.151,-0.173,0.417,0.413,-1.104,54.222,8.284
16:58:28:385,6.178,-0.294,0.009,0.459,-0.963,55.951,3.722
16:58:28:412,6.205,-0.209,-0.031,0.369,-0.403,58.071,-0.966
16:58:28:44,6.233,-0.108,-0.011,0.177,0.601,60.024,-2.696
16:58:28:467,6.260,-0.114,0.009,0.142,1.540,62.237,-2.086
16:58:28:495,6.288,-0.297,-0.015,0.189,3.983,71.055,4.008
16:58:28:522,6.315,-0.299,-0.062,0.232,4.959,78.216,9.224
16:58:28:549,6.342,-0.299,-0.062,0.232,4.959,78.216,9.224
16:58:28:577,6.370,-0.240,-0.151,0.263,5.396,84.941,14.087
16:58:28:604,6.397,-0.161,-0.260,0.124,5.553,92.288,19.244
16:58:28:631,6.425,-0.116,-0.229,-0.027,5.266,95.710,21.445
16:58:28:658,6.451,-0.116,-0.328,0.012,4.678,97.382,21.999
16:58:28:685,6.479,-0.032,-0.256,0.053,3.974,98.414,21.938
16:58:28:712,6.505,-0.022,-0.161,0.032,2.653,99.505,21.033
16:58:28:739,6.533,0.009,-0.126,0.046,1.725,99.813,19.950
16:58:28:766,6.560,0.009,-0.126,0.046,1.725,99.813,19.950
16:58:28:793,6.586,0.153,0.156,0.107,-0.948,99.296,15.289
16:58:28:821,6.614,0.153,0.156,0.107,-0.948,99.296,15.289
16:58:28:848,6.641,0.264,0.279,0.314,-4.800,97.875,7.273
16:58:28:875,6.668,0.264,0.279,0.314,-4.800,97.875,7.273
16:58:28:902,6.696,0.262,0.186,0.418,-7.395,95.346,1.636
16:58:28:93,6.723,0.247,0.130,0.431,-8.089,93.585,0.130
16:58:28:957,6.750,0.268,0.141,0.405,-8.760,90.698,-1.455
16:58:28:984,6.777,0.285,0.089,0.419,-8.609,88.941,-2.071
16:58:29:011,6.804,0.268,-0.004,0.465,-8.061,88.456,-1.984
16:58:29:038,6.831,0.207,0.041,0.326,-6.941,87.872,-0.862
16:58:29:065,6.858,0.140,0.082,0.294,-6.117,87.170,0.541
16:58:29:093,6.886,0.080,0.128,0.202,-4.637,85.530,3.565
16:58:29:119,6.913,-0.016,0.146,0.198,-3.446,84.434,5.948
16:58:29:146,6.940,-0.032,0.194,0.091,-1.373,82.804,9.531
16:58:29:173,6.967,-0.032,0.194,0.091,-1.373,82.804,9.531
16:58:29:201,6.995,-0.074,0.079,-0.058,2.540,81.085,15.777
16:58:29:229,7.022,-0.124,-0.108,-0.104,4.884,80.520,19.732
16:58:29:256,7.049,-0.124,-0.108,-0.104,4.884,80.520,19.732
16:58:29:283,7.077,-0.195,-0.195,-0.260,9.778,81.328,30.699
16:58:29:31,7.103,-0.201,-0.221,-0.283,10.795,81.727,33.260
16:58:29:337,7.131,-0.201,-0.221,-0.283,10.795,81.727,33.260
16:58:29:364,7.158,-0.207,-0.197,-0.337,12.133,82.231,36.611
16:58:29:392,7.185,-0.162,-0.293,-0.327,12.068,82.378,38.971
16:58:29:418,7.212,-0.162,-0.293,-0.327,12.068,82.378,38.971
16:58:29:446,7.239,-0.162,-0.293,-0.327,12.068,82.378,38.971
16:58:29:472,7.266,-0.162,-0.293,-0.327,12.068,82.378,38.971
16:58:29:5,7.293,-0.162,-0.293,-0.327,12.068,82.378,38.971
16:58:29:528,7.321,-0.012,-0.083,-0.350,9.159,82.438,37.185
16:58:29:555,7.348,-0.006,0.006,-0.367,7.820,82.484,35.202
16:58:29:582,7.375,-0.025,0.152,-0.364,5.620,82.737,31.311
16:58:29:609,7.402,0.038,0.299,-0.211,3.296,83.535,26.317
16:58:29:636,7.429,0.132,0.341,-0.073,1.829,84.331,22.385
16:58:29:663,7.456,0.377,0.344,0.252,-0.143,85.301,15.832
16:58:29:69,7.483,0.328,0.244,0.426,-1.409,85.365,11.326
16:58:29:717,7.510,0.158,0.083,0.352,-3.142,84.062,5.442
16:58:29:744,7.537,0.080,0.088,0.268,-4.519,81.324,1.460
16:58:29:771,7.564,0.085,0.070,0.067,-4.996,79.404,0.215
16:58:29:798,7.591,0.080,0.005,-0.003,-4.546,78.190,0.223
16:58:29:825,7.618,0.036,-0.022,0.036,-3.550,79.409,1.182
16:58:29:852,7.646,0.004,-0.124,0.088,-1.338,84.049,3.795
16:58:29:879,7.673,-0.031,-0.194,0.246,0.262,88.757,6.240
16:58:29:906,7.700,-0.031,-0.194,0.246,0.262,88.757,6.240
16:58:29:934,7.727,0.015,-0.180,0.315,2.993,104.967,14.216
16:58:29:961,7.754,0.024,-0.189,0.255,3.107,108.733,15.782
16:58:29:988,7.781,0.012,-0.262,0.177,3.109,112.206,16.994
16:58:30:015,7.808,0.002,-0.261,0.154,3.014,113.243,17.062
16:58:30:043,7.836,0.016,-0.255,0.146,2.776,113.281,16.269
16:58:30:07,7.863,0.064,-0.150,0.159,2.288,112.207,14.650
16:58:30:097,7.890,0.060,-0.077,0.149,1.784,111.100,13.172
16:58:30:124,7.917,0.134,0.234,0.194,-0.019,108.424,8.795
16:58:30:151,7.944,0.195,0.292,0.249,-1.456,107.679,5.961
16:58:30:178,7.972,0.195,0.292,0.249,-1.456,107.679,5.961
16:58:30:206,7.999,0.209,0.229,0.303,-2.759,107.514,3.476
16:58:30:233,8.026,0.248,0.133,0.315,-4.420,107.367,1.012
16:58:30:26,8.053,0.264,0.177,0.360,-4.901,107.134,0.764
16:58:30:289,8.083,0.292,0.134,0.399,-5.226,106.430,1.081
16:58:30:315,8.108,0.292,0.134,0.399,-5.226,106.430,1.081
16:58:30:341,8.135,0.203,0.131,0.269,-4.896,104.511,3.337
16:58:30:369,8.162,0.133,0.147,0.146,-4.277,102.302,5.904
16:58:30:396,8.189,0.058,0.141,0.072,-3.668,100.670,8.010
16:58:30:424,8.217,0.029,0.107,0.031,-2.387,98.765,11.422
16:58:30:45,8.244,-0.009,0.104,0.030,-1.381,97.566,13.791
16:58:30:478,8.271,-0.006,0.050,-0.031,0.388,95.800,17.252
16:58:30:505,8.298,-0.062,-0.018,-0.091,2.194,94.464,20.546
16:58:30:532,8.325,-0.077,-0.153,-0.134,3.405,93.898,22.792
16:58:30:559,8.352,-0.099,-0.206,-0.150,5.017,93.557,26.270
16:58:30:586,8.380,-0.138,-0.173,-0.224,5.932,93.483,28.584
16:58:30:615,8.408,-0.138,-0.173,-0.224,5.932,93.483,28.584
16:58:30:642,8.436,-0.138,-0.173,-0.224,5.932,93.483,28.584
16:58:30:67,8.463,-0.191,-0.232,-0.281,9.230,93.977,36.552
16:58:30:696,8.490,-0.151,-0.301,-0.244,9.148,94.854,37.148
16:58:30:724,8.517,-0.151,-0.301,-0.244,9.148,94.854,37.148
16:58:30:75,8.544,-0.111,-0.171,-0.308,8.510,97.024,37.613
16:58:30:778,8.571,-0.111,-0.171,-0.308,8.510,97.024,37.613
16:58:30:805,8.598,-0.122,0.003,-0.320,6.294,98.868,33.980
16:58:30:832,8.626,-0.122,0.003,-0.320,6.294,98.868,33.980
16:58:30:86,8.653,-0.122,0.003,-0.320,6.294,98.868,33.980
16:58:30:887,8.680,-0.122,0.003,-0.320,6.294,98.868,33.980
16:58:30:914,8.708,-0.122,0.003,-0.320,6.294,98.868,33.980
16:58:30:941,8.735,0.015,0.401,-0.043,1.472,108.021,18.631
16:58:30:968,8.762,0.330,0.410,0.306,0.215,115.212,8.286
16:58:30:996,8.789,0.228,0.003,0.417,0.493,119.584,-0.626
16:58:31:023,8.816,0.228,0.003,0.417,0.493,119.584,-0.626
16:58:31:05,8.844,0.228,0.003,0.417,0.493,119.584,-0.626
16:58:31:077,8.870,0.228,0.003,0.417,0.493,119.584,-0.626
16:58:31:104,8.898,0.044,-0.069,0.249,4.326,129.078,0.272
16:58:31:131,8.924,0.078,-0.159,0.303,5.220,132.283,3.163
16:58:31:158,8.952,0.121,-0.192,0.338,6.193,137.483,7.800
16:58:31:185,8.979,0.095,-0.245,0.302,6.586,140.626,10.567
16:58:31:214,9.008,0.094,-0.238,0.250,6.874,144.696,13.692
16:58:31:242,9.035,0.063,-0.243,0.171,6.925,146.841,15.434
16:58:31:269,9.062,0.048,-0.249,0.124,6.873,147.933,15.868
16:58:31:296,9.089,0.061,-0.291,0.129,6.546,148.147,15.570
16:58:31:323,9.116,0.112,-0.281,0.123,6.094,148.105,14.849
16:58:31:35,9.143,0.183,-0.195,0.084,5.049,147.608,13.081
16:58:31:377,9.170,0.183,-0.195,0.084,5.049,147.608,13.081
16:58:31:404,9.197,0.179,-0.058,0.058,2.556,145.939,9.214
16:58:31:431,9.224,0.240,0.148,0.107,0.768,145.351,6.779
16:58:31:459,9.252,0.402,0.274,0.157,-1.750,144.499,3.124
16:58:31:485,9.279,0.402,0.274,0.157,-1.750,144.499,3.124
16:58:31:512,9.306,0.444,0.251,0.092,-2.658,143.634,1.527
16:58:31:54,9.333,0.418,0.143,0.083,-3.791,142.003,0.354
16:58:31:567,9.360,0.418,0.143,0.083,-3.791,142.003,0.354
16:58:31:594,9.387,0.414,0.087,0.153,-4.237,140.915,0.747
16:58:31:621,9.415,0.414,0.087,0.153,-4.237,140.915,0.747
16:58:31:648,9.441,0.414,0.087,0.153,-4.237,140.915,0.747
16:58:31:676,9.469,0.264,0.024,0.117,-3.541,138.162,2.653
16:58:31:703,9.496,0.090,0.240,0.059,-2.136,134.605,6.898
16:58:31:73,9.524,0.090,0.240,0.059,-2.136,134.605,6.898
16:58:31:758,9.551,-0.097,0.217,0.007,0.306,132.978,13.356
16:58:31:785,9.579,-0.097,0.217,0.007,0.306,132.978,13.356
16:58:31:812,9.606,-0.217,-0.035,-0.084,3.533,133.710,22.582
16:58:31:84,9.633,-0.236,-0.155,-0.125,4.531,134.145,25.692
16:58:31:867,9.660,-0.249,-0.224,-0.129,5.863,134.828,29.987
16:58:31:894,9.687,-0.275,-0.238,-0.123,6.655,135.270,32.438
16:58:31:921,9.714,-0.278,-0.287,-0.111,7.733,135.997,35.356
16:58:31:948,9.742,-0.261,-0.383,-0.117,8.377,136.524,36.795
16:58:31:975,9.769,-0.240,-0.390,-0.119,9.095,137.383,38.241
16:58:32:003,9.796,-0.264,-0.341,-0.118,9.289,138.272,38.698
16:58:32:03,9.823,-0.256,-0.351,-0.107,9.192,138.948,38.501
16:58:32:057,9.851,-0.249,-0.295,-0.095,8.644,140.115,37.361
16:58:32:084,9.877,-0.265,-0.163,-0.120,8.073,140.960,36.010
16:58:32:111,9.905,-0.293,-0.076,-0.097,6.979,142.383,33.052
16:58:32:138,9.932,-0.294,0.086,-0.044,5.779,144.807,29.058
16:58:32:166,9.959,-0.251,0.191,0.002,5.039,146.445,25.827
16:58:32:193,9.987,-0.201,0.405,0.071,4.070,149.404,20.166
16:58:32:22,10.014,0.154,0.491,0.227,3.441,155.582,9.649
16:58:32:247,10.041,0.154,0.491,0.227,3.441,155.582,9.649
16:58:32:275,10.068,0.468,0.232,0.275,4.356,161.700,-0.276
16:58:32:302,10.095,0.481,-0.093,0.259,5.454,164.879,-4.401
16:58:32:329,10.122,0.481,-0.093,0.259,5.454,164.879,-4.401
16:58:32:357,10.150,0.481,-0.093,0.259,5.454,164.879,-4.401
16:58:32:383,10.177,0.481,-0.093,0.259,5.454,164.879,-4.401
16:58:32:41,10.204,0.368,-0.087,0.202,7.210,171.993,-5.899
16:58:32:438,10.231,0.365,-0.012,0.184,7.120,177.988,0.133
16:58:32:464,10.258,0.340,-0.121,0.149,6.930,179.804,2.645
16:58:32:492,10.285,0.271,-0.183,0.111,6.562,-177.906,6.163
16:58:32:519,10.313,0.233,-0.185,0.068,6.261,-176.710,8.171
16:58:32:546,10.340,0.233,-0.185,0.068,6.261,-176.710,8.171
16:58:32:574,10.367,0.109,-0.147,0.002,5.291,-174.488,12.669
16:58:32:601,10.395,0.109,-0.147,0.002,5.291,-174.488,12.669
16:58:32:628,10.421,0.076,-0.150,0.018,4.971,-174.143,13.660
16:58:32:655,10.449,0.090,-0.153,-0.092,4.141,-174.071,15.237
16:58:32:682,10.475,0.036,-0.111,-0.223,3.525,-174.985,15.216
16:58:32:709,10.503,0.016,0.013,-0.277,2.812,-175.327,14.936
16:58:32:736,10.530,0.016,0.013,-0.277,2.812,-175.327,14.936
16:58:32:763,10.557,0.179,0.186,-0.021,0.583,-172.972,13.425
16:58:32:79,10.584,0.180,0.229,-0.001,0.491,-172.437,12.452
16:58:32:818,10.611,0.180,0.229,-0.001,0.491,-172.437,12.452
16:58:32:846,10.639,0.197,0.176,-0.007,1.225,-174.032,9.950
16:58:32:873,10.667,0.197,0.176,-0.007,1.225,-174.032,9.950
16:58:32:9,10.694,0.156,0.081,-0.009,1.925,-175.929,8.415
16:58:32:928,10.722,0.226,0.235,-0.005,2.491,-177.514,6.335
16:58:32:955,10.748,0.283,0.108,0.013,2.882,-177.278,5.854
16:58:32:983,10.776,0.283,0.108,0.013,2.882,-177.278,5.854
16:58:33:01,10.804,0.129,0.051,0.089,4.381,-177.230,8.558
16:58:33:037,10.830,0.092,0.052,0.116,4.860,-177.678,10.237
16:58:33:064,10.858,0.092,0.052,0.116,4.860,-177.678,10.237
16:58:33:091,10.884,0.028,0.057,0.165,5.810,-178.282,13.242
16:58:33:118,10.912,-0.067,0.023,0.167,7.695,-179.088,18.476
16:58:33:145,10.939,-0.067,0.023,0.167,7.695,-179.088,18.476
16:58:33:173,10.966,-0.153,-0.196,0.140,10.286,-179.332,25.885
16:58:33:2,10.993,-0.165,-0.209,0.129,10.728,-179.360,27.391
16:58:33:227,11.020,-0.176,-0.259,0.150,11.315,-179.601,29.262
16:58:33:254,11.047,-0.179,-0.278,0.145,11.710,-179.691,30.235
16:58:33:281,11.075,-0.179,-0.278,0.145,11.710,-179.691,30.235
16:58:33:308,11.102,-0.179,-0.278,0.145,11.710,-179.691,30.235
16:58:33:335,11.129,-0.180,-0.231,0.136,11.957,-179.274,30.590
16:58:33:363,11.156,-0.180,-0.231,0.136,11.957,-179.274,30.590
16:58:33:392,11.186,-0.180,-0.231,0.136,11.957,-179.274,30.590
16:58:33:42,11.213,-0.180,-0.231,0.136,11.957,-179.274,30.590
16:58:33:447,11.240,-0.180,-0.231,0.136,11.957,-179.274,30.590
16:58:33:474,11.267,-0.180,-0.231,0.136,11.957,-179.274,30.590
16:58:33:5,11.294,-0.180,-0.231,0.136,11.957,-179.274,30.590
16:58:33:528,11.321,-0.123,0.078,0.223,9.967,-175.876,25.120
16:58:33:555,11.348,0.199,0.407,0.199,7.436,-167.937,11.836
16:58:33:582,11.376,0.320,0.477,0.139,7.136,-165.796,9.100
16:58:33:61,11.403,0.445,0.196,-0.029,7.059,-162.726,5.201
16:58:33:637,11.430,0.485,-0.177,-0.210,7.344,-160.442,2.096
16:58:33:664,11.457,0.451,-0.214,-0.205,7.343,-159.558,0.483
16:58:33:691,11.484,0.367,-0.172,-0.138,6.977,-159.086,-0.779
16:58:33:718,11.512,0.367,-0.172,-0.138,6.977,-159.086,-0.779
16:58:33:746,11.539,0.279,-0.062,-0.022,6.759,-158.893,-0.302
16:58:33:773,11.566,0.183,0.090,0.092,6.884,-156.863,5.861
16:58:33:8,11.593,0.154,0.079,0.092,7.187,-155.659,8.974
16:58:33:827,11.621,0.154,0.079,0.092,7.187,-155.659,8.974
16:58:33:855,11.649,0.154,0.079,0.092,7.187,-155.659,8.974
16:58:33:882,11.676,0.094,-0.126,0.033,8.056,-152.735,16.992
16:58:33:909,11.703,0.094,-0.126,0.033,8.056,-152.735,16.992
16:58:33:937,11.730,0.094,-0.126,0.033,8.056,-152.735,16.992
16:58:33:963,11.757,-0.062,-0.208,0.072,8.799,-150.982,25.657
16:58:33:99,11.784,-0.056,-0.214,0.057,8.669,-151.446,24.831
16:58:34:018,11.812,-0.056,-0.214,0.057,8.669,-151.446,24.831
16:58:34:045,11.838,0.017,-0.142,0.038,8.206,-152.390,21.838
16:58:34:072,11.866,0.017,-0.142,0.038,8.206,-152.390,21.838
16:58:34:1,11.893,0.069,0.027,0.098,7.612,-153.712,17.510
16:58:34:127,11.921,0.069,0.027,0.098,7.612,-153.712,17.510
16:58:34:155,11.948,0.204,0.214,0.029,7.021,-154.841,12.209
16:58:34:182,11.975,0.248,0.168,-0.007,6.762,-155.369,9.045
16:58:34:21,12.003,0.295,0.166,-0.012,6.535,-155.543,7.062
16:58:34:237,12.030,0.319,0.226,-0.032,5.983,-155.789,4.945
16:58:34:264,12.058,0.400,0.315,-0.071,5.480,-156.322,2.944
16:58:34:292,12.085,0.438,0.233,-0.114,5.262,-157.013,1.998
16:58:34:319,12.112,0.416,-0.036,-0.137,5.220,-158.194,1.282
16:58:34:346,12.139,0.416,-0.036,-0.137,5.220,-158.194,1.282
16:58:34:373,12.166,0.265,-0.006,-0.059,5.245,-160.657,2.451
16:58:34:4,12.194,0.265,-0.006,-0.059,5.245,-160.657,2.451
16:58:34:427,12.221,0.238,0.082,0.089,5.834,-163.905,6.746
16:58:34:455,12.248,0.238,0.082,0.089,5.834,-163.905,6.746
16:58:34:481,12.275,0.238,0.082,0.089,5.834,-163.905,6.746
16:58:34:509,12.302,0.068,0.101,0.152,7.711,-167.437,12.088
16:58:34:536,12.329,-0.070,-0.117,0.189,11.748,-171.153,21.616
16:58:34:563,12.356,-0.116,-0.105,0.235,13.043,-172.153,25.082
16:58:34:59,12.384,-0.116,-0.105,0.235,13.043,-172.153,25.082
16:58:34:617,12.411,-0.178,-0.183,0.277,15.269,-173.670,29.866
16:58:34:645,12.438,-0.195,-0.271,0.238,16.227,-174.099,31.423
16:58:34:671,12.465,-0.212,-0.268,0.215,17.470,-174.501,33.381
16:58:34:698,12.492,-0.232,-0.305,0.228,18.339,-174.645,34.931
16:58:34:726,12.519,-0.232,-0.278,0.232,18.006,-174.742,35.126
16:58:34:753,12.546,-0.249,-0.234,0.262,17.477,-174.648,35.172
16:58:34:78,12.574,-0.291,-0.157,0.280,17.336,-174.453,35.146
16:58:34:808,12.601,-0.269,-0.136,0.258,16.786,-174.089,34.366
16:58:34:835,12.629,-0.221,-0.150,0.199,15.849,-173.320,32.742
16:58:34:863,12.656,-0.243,-0.031,0.233,14.831,-172.642,31.017
16:58:34:889,12.683,-0.193,0.128,0.261,12.998,-171.258,27.592
16:58:34:917,12.710,-0.117,0.321,0.253,11.746,-170.168,24.759
16:58:34:944,12.737,-0.012,0.415,0.202,9.975,-168.380,19.681
16:58:34:971,12.764,0.215,0.271,-0.044,9.055,-167.130,16.019
16:58:34:998,12.791,0.328,0.189,-0.160,7.995,-165.728,10.484
16:58:35:025,12.818,0.404,0.070,-0.197,6.861,-165.492,5.302
16:58:35:052,12.846,0.400,0.033,-0.166,6.088,-166.079,2.552
16:58:35:079,12.873,0.228,0.044,-0.080,5.006,-167.985,0.008
16:58:35:106,12.900,0.119,0.032,-0.034,4.571,-169.443,-0.385
16:58:35:133,12.927,0.115,0.027,-0.001,4.657,-170.105,0.879
16:58:35:161,12.954,0.128,-0.082,0.032,5.626,-168.571,3.765
16:58:35:188,12.982,0.121,-0.123,0.052,6.574,-166.142,6.295
16:58:35:216,13.009,0.212,-0.145,0.039,7.880,-160.970,10.542
16:58:35:243,13.036,0.220,-0.143,-0.005,8.904,-152.152,17.043
16:58:35:27,13.063,0.220,-0.143,-0.005,8.904,-152.152,17.043
16:58:35:297,13.090,0.220,-0.143,-0.005,8.904,-152.152,17.043
16:58:35:324,13.118,0.138,-0.260,-0.029,8.840,-148.400,19.388
16:58:35:352,13.145,0.138,-0.260,-0.029,8.840,-148.400,19.388
16:58:35:379,13.172,0.138,-0.260,-0.029,8.840,-148.400,19.388
16:58:35:406,13.200,0.180,0.055,0.077,7.013,-155.672,12.070
16:58:35:433,13.226,0.180,0.055,0.077,7.013,-155.672,12.070
16:58:35:461,13.254,0.281,0.202,0.058,5.820,-158.459,7.570
16:58:35:488,13.282,0.314,0.192,0.010,5.285,-159.532,5.427
16:58:35:515,13.308,0.314,0.192,0.010,5.285,-159.532,5.427
16:58:35:542,13.335,0.276,0.227,-0.014,4.820,-160.205,4.386
16:58:35:57,13.363,0.342,0.227,-0.108,3.015,-162.093,3.626
16:58:35:597,13.390,0.342,0.227,-0.108,3.015,-162.093,3.626
16:58:35:624,13.418,0.355,0.040,-0.133,1.725,-164.460,4.182
16:58:35:652,13.445,0.275,-0.077,-0.115,1.525,-165.992,4.742
16:58:35:678,13.472,0.180,0.020,-0.066,1.431,-168.831,5.989
16:58:35:706,13.499,0.034,0.124,0.022,1.930,-172.130,7.900
16:58:35:733,13.526,0.031,0.159,0.082,2.620,-173.841,9.509
16:58:35:76,13.553,0.065,0.121,0.158,4.176,-175.498,12.252
16:58:35:787,13.581,0.065,0.121,0.158,4.176,-175.498,12.252
16:58:35:814,13.608,-0.046,0.099,0.204,7.373,-176.946,17.176
16:58:35:841,13.635,-0.089,-0.072,0.197,8.650,-177.093,19.424
16:58:35:869,13.662,-0.103,-0.125,0.193,10.337,-177.071,22.904
16:58:35:896,13.689,-0.161,-0.127,0.244,11.630,-176.961,26.361
16:58:35:923,13.716,-0.201,-0.258,0.265,13.518,-176.792,31.899
16:58:35:951,13.744,-0.201,-0.258,0.265,13.518,-176.792,31.899
16:58:35:977,13.771,-0.236,-0.247,0.257,14.180,-176.802,33.783
16:58:36:005,13.799,-0.245,-0.352,0.231,15.972,-177.050,37.655
16:58:36:033,13.826,-0.264,-0.304,0.221,16.189,-177.007,38.220
16:58:36:06,13.854,-0.264,-0.304,0.221,16.189,-177.007,38.220
16:58:36:087,13.881,-0.300,-0.237,0.246,15.401,-176.361,37.782
16:58:36:114,13.907,-0.317,-0.150,0.260,14.045,-175.447,36.302
16:58:36:142,13.935,-0.264,-0.071,0.224,12.280,-174.217,33.815
16:58:36:169,13.963,-0.229,0.011,0.159,11.044,-173.415,31.524
16:58:36:196,13.989,-0.227,0.257,0.229,9.086,-172.276,26.914
16:58:36:223,14.017,-0.182,0.385,0.244,7.802,-171.405,23.181
16:58:36:251,14.044,0.028,0.575,0.128,6.137,-169.506,16.898
16:58:36:278,14.071,0.028,0.575,0.128,6.137,-169.506,16.898
16:58:36:305,14.098,0.421,0.376,-0.308,4.385,-165.783,5.647
16:58:36:332,14.125,0.619,-0.014,-0.280,3.871,-164.907,-0.029
16:58:36:359,14.153,0.541,-0.062,-0.142,3.504,-165.641,-3.108
16:58:36:387,14.180,0.442,-0.069,-0.043,3.169,-167.683,-5.862
16:58:36:414,14.207,0.237,-0.040,-0.003,3.316,-169.219,-6.307
16:58:36:441,14.234,0.204,-0.011,-0.002,4.443,-170.203,-4.868
16:58:36:468,14.261,0.166,0.025,0.081,6.409,-168.350,-1.208
16:58:36:495,14.289,0.166,0.025,0.081,6.409,-168.350,-1.208
16:58:36:522,14.316,0.166,0.025,0.081,6.409,-168.350,-1.208
16:58:36:549,14.343,0.293,-0.140,0.109,9.845,-159.322,8.694
16:58:36:577,14.370,0.302,-0.148,0.085,10.692,-148.966,18.821
16:58:36:604,14.397,0.175,-0.141,0.078,10.368,-146.375,21.582
16:58:36:631,14.424,0.128,-0.163,0.103,9.828,-144.932,24.128
16:58:36:658,14.451,0.080,-0.242,0.105,9.574,-146.096,25.054
16:58:36:685,14.479,0.070,-0.261,0.062,9.478,-147.854,25.010
16:58:36:712,14.505,0.016,-0.219,0.068,9.130,-154.539,23.157
16:58:36:739,14.533,-0.004,-0.160,0.092,8.738,-159.025,21.307
16:58:36:767,14.560,-0.042,-0.008,0.138,7.997,-162.563,19.230
16:58:36:794,14.587,-0.038,0.023,0.120,7.406,-164.364,17.883
16:58:36:821,14.614,-0.038,0.023,0.120,7.406,-164.364,17.883
16:58:36:848,14.641,0.039,0.083,0.062,6.480,-165.666,15.943
16:58:36:875,14.668,0.118,0.165,-0.003,5.842,-166.146,14.589
16:58:36:902,14.696,0.191,0.247,-0.026,4.233,-167.376,10.933
16:58:36:929,14.722,0.191,0.247,-0.026,4.233,-167.376,10.933
16:58:36:956,14.749,0.292,0.219,-0.060,2.561,-169.481,6.602
16:58:36:983,14.777,0.320,0.285,-0.074,2.079,-170.101,5.425
16:58:37:01,14.803,0.373,0.194,-0.053,1.635,-171.384,4.275
16:58:37:037,14.831,0.313,0.066,-0.008,1.798,-172.452,3.983
16:58:37:064,14.857,0.114,0.017,0.027,2.317,-174.390,4.573
16:58:37:092,14.885,0.101,0.094,0.061,3.053,-175.595,6.591
16:58:37:119,14.912,0.042,0.052,0.117,3.815,-176.116,8.717
16:58:37:146,14.939,0.031,0.065,0.148,5.112,-176.359,12.403
16:58:37:173,14.966,0.025,0.071,0.206,5.962,-175.952,15.093
16:58:37:2,14.993,-0.006,-0.007,0.188,7.161,-175.195,19.073
16:58:37:227,15.020,-0.032,-0.080,0.140,8.252,-174.690,22.717
16:58:37:254,15.047,-0.064,-0.129,0.129,8.871,-174.839,24.820
16:58:37:281,15.075,-0.117,-0.225,0.145,9.774,-175.634,27.529
16:58:37:308,15.102,-0.117,-0.225,0.145,9.774,-175.634,27.529
16:58:37:336,15.129,-0.211,-0.193,0.200,11.088,-177.752,30.898
16:58:37:364,15.158,-0.248,-0.213,0.211,11.838,-178.908,32.275
16:58:37:392,15.185,-0.239,-0.260,0.201,12.302,-179.227,32.958
16:58:37:418,15.212,-0.209,-0.312,0.139,12.688,-179.283,33.582
16:58:37:446,15.239,-0.202,-0.296,0.127,12.671,-179.115,33.700
16:58:37:473,15.266,-0.229,-0.216,0.153,12.193,-178.622,33.288
16:58:37:501,15.294,-0.229,-0.216,0.153,12.193,-178.622,33.288
16:58:37:528,15.321,-0.232,-0.074,0.187,10.514,-176.975,30.861
16:58:37:555,15.349,-0.232,-0.074,0.187,10.514,-176.975,30.861
16:58:37:582,15.375,-0.153,0.188,0.125,8.298,-174.252,25.965
16:58:37:609,15.403,-0.093,0.334,0.117,6.789,-172.321,21.623
16:58:37:637,15.430,0.091,0.486,-0.028,5.397,-170.126,16.459
16:58:37:664,15.458,0.378,0.396,-0.015,3.692,-166.676,7.545
16:58:37:691,15.485,0.378,0.396,-0.015,3.692,-166.676,7.545
16:58:37:718,15.512,0.354,-0.112,-0.080,4.055,-165.909,1.214
16:58:37:746,15.539,0.387,-0.176,-0.084,4.433,-165.625,-0.029
16:58:37:773,15.566,0.241,0.018,0.033,6.308,-162.596,1.206
16:58:37:8,15.594,0.241,0.018,0.033,6.308,-162.596,1.206
16:58:37:827,15.620,0.189,0.062,0.129,8.052,-155.749,7.864
16:58:37:854,15.648,0.189,0.062,0.129,8.052,-155.749,7.864
16:58:37:882,15.675,0.182,-0.066,0.091,8.439,-147.638,16.760
16:58:37:909,15.702,0.155,-0.134,0.087,8.055,-144.173,21.288
16:58:37:936,15.729,0.104,-0.193,0.082,7.791,-142.691,23.689
16:58:37:963,15.756,0.104,-0.193,0.082,7.791,-142.691,23.689
16:58:37:99,15.783,-0.039,-0.216,0.085,7.366,-141.585,27.369
16:58:38:017,15.810,-0.081,-0.250,0.061,7.271,-141.976,28.306
16:58:38:045,15.838,-0.115,-0.231,0.028,7.154,-142.560,28.427
16:58:38:071,15.865,-0.171,-0.252,-0.058,6.724,-143.456,27.730
16:58:38:099,15.892,-0.211,-0.022,-0.132,5.465,-143.543,26.202
16:58:38:126,15.919,-0.174,-0.049,-0.117,4.865,-143.071,25.498
16:58:38:153,15.946,-0.184,-0.014,-0.029,3.965,-141.408,24.443
16:58:38:181,15.974,-0.184,-0.014,-0.029,3.965,-141.408,24.443
16:58:38:207,16.001,0.266,0.333,-0.165,0.860,-132.283,23.860
16:58:38:235,16.028,0.363,0.283,-0.256,0.819,-128.665,22.293
16:58:38:261,16.055,0.363,0.283,-0.256,0.819,-128.665,22.293
16:58:38:288,16.082,0.155,0.144,-0.036,3.138,-130.781,16.503
16:58:38:316,16.109,0.155,0.144,-0.036,3.138,-130.781,16.503
16:58:38:343,16.137,0.149,0.255,-0.024,4.257,-136.274,11.526
16:58:38:371,16.164,0.197,-0.021,-0.117,4.429,-138.089,8.860
16:58:38:398,16.191,0.197,-0.021,-0.117,4.429,-138.089,8.860
16:58:38:425,16.218,0.166,-0.034,-0.049,4.533,-137.844,8.700
16:58:38:452,16.245,0.192,0.057,-0.016,4.572,-137.788,9.881
16:58:38:48,16.274,0.185,0.067,0.004,4.778,-138.020,11.144
16:58:38:507,16.300,0.185,0.067,0.004,4.778,-138.020,11.144
16:58:38:534,16.328,0.108,0.119,0.130,6.057,-138.780,15.669
16:58:38:561,16.355,0.076,0.015,0.137,6.624,-138.760,17.426
16:58:38:588,16.382,0.028,-0.067,0.136,7.353,-138.466,20.315
16:58:38:615,16.409,-0.010,-0.085,0.170,7.704,-138.200,22.382
16:58:38:643,16.436,-0.035,-0.092,0.212,8.025,-137.799,25.561
16:58:38:67,16.463,-0.048,-0.125,0.244,8.259,-137.491,28.647
16:58:38:697,16.490,-0.048,-0.125,0.244,8.259,-137.491,28.647
16:58:38:724,16.517,-0.083,-0.182,0.248,8.023,-137.016,32.211
16:58:38:751,16.544,-0.104,-0.231,0.219,8.270,-136.700,33.612
16:58:38:778,16.571,-0.134,-0.284,0.185,8.589,-136.341,35.168
16:58:38:805,16.599,-0.156,-0.287,0.212,8.703,-135.943,35.778
16:58:38:833,16.627,-0.157,-0.259,0.235,8.574,-135.401,35.962
16:58:38:86,16.653,-0.157,-0.259,0.235,8.574,-135.401,35.962
16:58:38:888,16.681,-0.132,-0.088,0.232,7.218,-133.140,34.148
16:58:38:915,16.709,-0.111,0.030,0.210,6.114,-131.026,31.574
16:58:38:942,16.736,-0.111,0.030,0.210,6.114,-131.026,31.574
16:58:38:97,16.763,-0.056,0.289,0.175,4.581,-127.130,24.819
16:58:38:997,16.790,-0.056,0.289,0.175,4.581,-127.130,24.819
16:58:39:023,16.817,0.154,0.483,0.010,3.666,-122.102,16.340
16:58:39:051,16.844,0.154,0.483,0.010,3.666,-122.102,16.340
16:58:39:078,16.871,0.154,0.483,0.010,3.666,-122.102,16.340
16:58:39:105,16.898,0.171,-0.089,-0.270,5.744,-114.121,6.688
16:58:39:132,16.925,0.171,-0.089,-0.270,5.744,-114.121,6.688
16:58:39:159,16.952,0.171,-0.089,-0.270,5.744,-114.121,6.688
16:58:39:186,16.980,0.230,-0.007,-0.054,8.062,-103.017,10.447
16:58:39:214,17.007,0.230,-0.007,-0.054,8.062,-103.017,10.447
16:58:39:24,17.034,0.263,0.071,0.028,8.067,-98.951,14.658
16:58:39:268,17.062,0.174,-0.106,0.027,7.689,-93.438,22.332
16:58:39:296,17.089,0.174,-0.106,0.027,7.689,-93.438,22.332
16:58:39:323,17.116,0.074,-0.243,0.043,7.287,-90.246,28.168
16:58:39:35,17.143,0.074,-0.243,0.043,7.287,-90.246,28.168
16:58:39:377,17.171,0.008,-0.261,0.136,6.799,-88.831,30.850
16:58:39:404,17.198,0.008,-0.261,0.136,6.799,-88.831,30.850
16:58:39:432,17.225,-0.074,-0.279,0.125,6.047,-87.821,30.593
16:58:39:459,17.252,-0.129,-0.230,0.110,5.462,-87.103,29.690
16:58:39:487,17.280,-0.144,-0.117,0.053,3.740,-85.697,27.400
16:58:39:514,17.307,-0.186,-0.088,0.117,2.634,-84.564,26.099
16:58:39:541,17.334,-0.092,0.059,-0.124,1.504,-82.838,24.049
16:58:39:568,17.362,0.003,0.194,0.044,1.258,-81.861,22.030
16:58:39:596,17.390,0.046,0.277,-0.079,1.314,-81.620,18.737
16:58:39:623,17.416,0.047,0.286,-0.098,1.667,-81.572,15.272
16:58:39:651,17.444,0.025,0.302,-0.129,1.871,-81.782,13.025
16:58:39:678,17.472,0.003,0.225,-0.112,2.085,-81.398,10.294
16:58:39:705,17.499,0.031,0.290,-0.197,2.041,-81.100,8.932
16:58:39:733,17.526,-0.023,0.104,-0.332,1.939,-79.109,6.864
16:58:39:759,17.553,-0.023,0.104,-0.332,1.939,-79.109,6.864
16:58:39:787,17.580,-0.101,-0.170,-0.295,2.237,-78.327,7.040
16:58:39:814,17.607,-0.050,-0.028,-0.240,2.198,-78.360,7.587
16:58:39:841,17.635,0.012,0.059,-0.214,2.160,-79.453,8.905
16:58:39:869,17.662,0.078,0.064,-0.157,2.570,-80.533,10.845
16:58:39:896,17.689,0.078,0.064,-0.157,2.570,-80.533,10.845
16:58:39:924,17.717,0.128,0.095,-0.024,4.046,-82.699,14.669
16:58:39:95,17.744,0.136,0.028,0.006,4.837,-83.489,16.427
16:58:39:978,17.771,0.142,-0.093,0.015,6.059,-84.332,19.229
16:58:40:004,17.798,0.140,-0.104,0.056,7.153,-85.067,22.047
16:58:40:032,17.825,0.140,-0.104,0.056,7.153,-85.067,22.047
16:58:40:059,17.852,0.161,-0.172,0.108,8.898,-87.051,26.386
16:58:40:086,17.879,0.199,-0.124,0.192,9.555,-87.968,27.811
16:58:40:113,17.906,0.199,-0.124,0.192,9.555,-87.968,27.811
16:58:40:14,17.933,0.176,-0.214,0.199,10.519,-89.074,29.694
16:58:40:167,17.960,0.176,-0.214,0.199,10.519,-89.074,29.694
16:58:40:194,17.987,0.233,-0.052,0.366,12.010,-89.683,34.117
16:58:40:221,18.014,0.224,-0.050,0.351,11.744,-88.968,34.519
16:58:40:248,18.042,0.183,-0.084,0.321,11.413,-88.108,34.472
16:58:40:275,18.068,0.183,-0.084,0.321,11.413,-88.108,34.472
16:58:40:302,18.096,0.173,0.092,0.294,9.030,-85.197,31.912
16:58:40:329,18.122,0.173,0.092,0.294,9.030,-85.197,31.912
16:58:40:356,18.150,0.029,0.187,0.116,6.728,-82.723,26.647
16:58:40:383,18.176,0.029,0.187,0.116,6.728,-82.723,26.647
16:58:40:41,18.204,-0.126,0.079,-0.088,5.131,-81.656,19.553
16:58:40:438,18.231,-0.032,0.057,-0.094,4.606,-81.795,16.793
16:58:40:464,18.258,-0.032,0.057,-0.094,4.606,-81.795,16.793
16:58:40:493,18.286,0.043,0.043,0.019,4.223,-82.082,11.288
16:58:40:52,18.313,0.043,0.043,0.019,4.223,-82.082,11.288
16:58:40:547,18.340,0.042,-0.018,0.027,4.904,-80.630,12.504
16:58:40:575,18.368,0.042,-0.018,0.027,4.904,-80.630,12.504
16:58:40:602,18.395,0.061,-0.145,-0.077,6.145,-70.742,20.158
16:58:40:629,18.422,0.061,-0.145,-0.077,6.145,-70.742,20.158
16:58:40:656,18.449,0.046,-0.168,-0.053,5.931,-64.767,23.993
16:58:40:684,18.477,0.033,-0.175,-0.017,5.800,-63.281,24.786
16:58:40:711,18.504,0.076,-0.218,0.012,5.678,-61.938,25.273
16:58:40:738,18.531,0.046,-0.241,0.005,5.600,-61.457,25.240
16:58:40:765,18.558,0.045,-0.220,0.002,5.283,-60.954,24.728
16:58:40:792,18.586,0.045,-0.220,0.002,5.283,-60.954,24.728
16:58:40:819,18.613,0.048,-0.003,0.015,4.208,-60.646,22.714
16:58:40:846,18.640,0.037,0.142,0.012,3.305,-60.788,20.807
16:58:40:874,18.667,0.040,0.281,-0.007,2.681,-60.980,19.267
16:58:40:901,18.694,-0.057,0.208,-0.043,1.809,-61.244,16.786
16:58:40:928,18.721,-0.143,0.206,-0.073,0.978,-61.612,14.459
16:58:40:955,18.748,-0.144,0.193,-0.069,0.360,-62.100,12.982
16:58:40:983,18.776,-0.113,0.221,-0.126,-0.444,-62.808,11.272
16:58:41:011,18.804,-0.129,0.258,-0.153,-0.856,-63.114,10.440
16:58:41:038,18.831,-0.163,0.201,-0.183,-1.072,-63.441,9.702
16:58:41:065,18.858,-0.155,0.027,-0.203,-0.810,-63.707,9.830
16:58:41:092,18.885,-0.094,-0.012,-0.115,-0.133,-64.759,10.790
16:58:41:119,18.913,-0.030,0.078,-0.070,0.699,-66.301,12.636
16:58:41:146,18.939,0.059,0.081,-0.024,1.452,-67.198,14.310
16:58:41:173,18.966,0.161,0.154,0.017,3.776,-68.782,19.104
16:58:41:2,18.994,0.161,0.154,0.017,3.776,-68.782,19.104
16:58:41:228,19.021,0.161,0.154,0.017,3.776,-68.782,19.104
16:58:41:254,19.048,0.197,-0.099,0.111,7.915,-70.476,26.934
16:58:41:282,19.075,0.197,-0.099,0.111,7.915,-70.476,26.934
16:58:41:308,19.102,0.197,-0.099,0.111,7.915,-70.476,26.934
16:58:41:336,19.129,0.197,-0.099,0.111,7.915,-70.476,26.934
16:58:41:363,19.156,0.292,-0.232,0.217,12.360,-72.340,37.291
16:58:41:39,19.183,0.277,-0.234,0.265,13.158,-72.570,38.789
16:58:41:417,19.210,0.297,-0.266,0.294,14.115,-72.657,40.698
16:58:41:444,19.237,0.297,-0.266,0.294,14.115,-72.657,40.698
16:58:41:471,19.265,0.297,-0.266,0.294,14.115,-72.657,40.698
16:58:41:499,19.292,0.297,-0.266,0.294,14.115,-72.657,40.698
16:58:41:526,19.319,0.297,-0.266,0.294,14.115,-72.657,40.698
16:58:41:553,19.346,0.297,-0.266,0.294,14.115,-72.657,40.698
16:58:41:58,19.374,0.320,-0.202,0.356,13.343,-70.638,43.118
16:58:41:608,19.401,0.320,-0.202,0.356,13.343,-70.638,43.118
16:58:41:635,19.429,0.320,-0.202,0.356,13.343,-70.638,43.118
16:58:41:663,19.456,0.257,0.008,0.337,8.692,-68.194,37.690
16:58:41:69,19.483,0.060,0.430,0.103,3.775,-61.910,24.403
16:58:41:717,19.511,0.060,0.430,0.103,3.775,-61.910,24.403
16:58:41:745,19.538,-0.185,0.179,-0.214,2.429,-58.170,14.594
16:58:41:772,19.565,-0.245,0.009,-0.246,2.395,-57.546,11.316
16:58:41:799,19.592,-0.108,0.002,-0.204,2.375,-56.909,7.621
16:58:41:826,19.620,-0.012,0.048,-0.118,2.643,-56.462,6.118
16:58:41:854,19.647,0.008,0.039,-0.123,3.027,-55.361,6.451
16:58:41:881,19.674,0.026,0.033,-0.117,3.746,-52.829,8.704
16:58:41:908,19.701,0.039,0.011,-0.117,4.179,-50.256,10.979
16:58:41:935,19.728,0.002,-0.054,-0.159,4.527,-45.673,15.059
16:58:41:963,19.756,-0.047,-0.143,-0.172,4.514,-42.621,17.779
16:58:41:99,19.783,-0.036,-0.153,-0.137,4.215,-38.962,21.160
16:58:42:017,19.810,0.013,-0.186,-0.067,3.798,-36.670,23.457
16:58:42:045,19.838,0.013,-0.186,-0.067,3.798,-36.670,23.457
16:58:42:072,19.865,0.047,-0.199,0.005,3.168,-35.986,25.090
16:58:42:099,19.892,-0.035,-0.191,0.042,2.241,-36.330,24.768
16:58:42:126,19.920,-0.064,-0.206,0.084,1.578,-37.310,23.991
16:58:42:153,19.947,-0.080,-0.096,0.108,1.069,-38.212,23.274
16:58:42:181,19.974,-0.030,0.072,0.142,0.043,-39.708,21.947
16:58:42:208,20.001,-0.009,0.175,0.166,-0.693,-40.572,21.026
16:58:42:235,20.029,-0.034,0.260,0.144,-1.793,-41.127,19.671
16:58:42:263,20.056,-0.093,0.202,0.141,-2.377,-40.952,18.835
16:58:42:29,20.083,-0.093,0.202,0.141,-2.377,-40.952,18.835
16:58:42:317,20.110,-0.122,0.175,0.068,-3.189,-40.006,17.172
16:58:42:344,20.138,-0.105,0.191,0.029,-2.680,-40.299,16.402
16:58:42:371,20.165,-0.115,0.103,0.010,-2.321,-40.295,16.131
16:58:42:399,20.193,-0.141,0.034,-0.034,-1.644,-40.119,15.922
16:58:42:428,20.221,-0.097,-0.053,-0.029,-0.895,-40.194,16.196
16:58:42:454,20.248,-0.048,0.015,-0.001,-0.440,-40.812,16.676
16:58:42:482,20.275,0.032,0.061,-0.017,0.289,-41.667,17.965
16:58:42:509,20.302,0.054,0.047,-0.020,0.914,-42.530,19.141
16:58:42:536,20.330,0.148,0.136,-0.007,1.880,-43.462,21.032
16:58:42:563,20.356,0.174,0.097,0.001,2.609,-44.003,22.391
16:58:42:59,20.383,0.191,-0.079,0.083,5.010,-45.684,27.164
16:58:42:617,20.411,0.191,-0.079,0.083,5.010,-45.684,27.164
16:58:42:644,20.437,0.226,-0.120,0.103,5.704,-46.090,28.971
16:58:42:671,20.465,0.239,-0.150,0.111,6.548,-46.583,31.776
16:58:42:698,20.492,0.257,-0.183,0.111,7.038,-46.702,33.640
16:58:42:725,20.519,0.259,-0.183,0.146,7.717,-46.810,36.226
16:58:42:752,20.546,0.282,-0.235,0.165,7.729,-46.955,37.596
16:58:42:78,20.573,0.282,-0.223,0.191,8.049,-46.459,39.049
16:58:42:807,20.601,0.297,-0.201,0.218,7.996,-45.935,39.626
16:58:42:834,20.627,0.297,-0.201,0.218,7.996,-45.935,39.626
16:58:42:861,20.655,0.297,-0.201,0.218,7.996,-45.935,39.626
16:58:42:889,20.682,0.306,-0.087,0.225,6.178,-42.708,38.587
16:58:42:917,20.710,0.294,-0.041,0.208,5.069,-40.993,36.476
16:58:42:944,20.737,0.287,0.005,0.176,4.281,-39.660,34.539
16:58:42:971,20.765,0.260,0.107,0.125,3.121,-37.266,30.842
16:58:42:998,20.792,0.260,0.107,0.125,3.121,-37.266,30.842
16:58:43:025,20.819,0.082,0.323,0.046,1.580,-32.490,22.940
16:58:43:053,20.846,-0.072,0.413,-0.007,1.039,-29.680,17.651
16:58:43:079,20.873,-0.192,0.291,-0.084,1.005,-27.956,14.339
16:58:43:107,20.901,-0.290,-0.014,-0.098,1.310,-25.882,10.065
16:58:43:134,20.927,-0.254,-0.102,-0.098,1.510,-24.617,7.887
16:58:43:161,20.955,-0.180,-0.063,-0.087,1.725,-22.575,6.182
16:58:43:188,20.981,-0.105,-0.018,-0.109,1.960,-20.033,6.682
16:58:43:215,21.009,-0.106,-0.005,-0.101,2.103,-18.150,8.109
16:58:43:243,21.037,-0.077,0.027,-0.094,2.105,-15.141,11.177
16:58:43:27,21.063,-0.114,-0.016,-0.069,1.981,-13.071,13.584
16:58:43:297,21.091,-0.121,-0.105,-0.059,1.634,-10.319,17.147
16:58:43:324,21.117,-0.064,-0.139,-0.022,1.148,-8.184,20.047
16:58:43:351,21.145,0.044,-0.159,0.055,0.159,-5.799,23.284
16:58:43:378,21.171,0.044,-0.159,0.055,0.159,-5.799,23.284
16:58:43:405,21.199,0.057,-0.188,0.084,-0.860,-4.149,24.809
16:58:43:432,21.226,0.057,-0.188,0.084,-0.860,-4.149,24.809
16:58:43:46,21.253,0.021,-0.224,0.189,-1.321,-3.799,25.069
16:58:43:487,21.281,0.021,-0.224,0.189,-1.321,-3.799,25.069
16:58:43:514,21.307,-0.017,0.016,0.285,-4.148,-3.385,23.203
16:58:43:541,21.335,0.001,0.065,0.202,-4.455,-3.065,21.646
16:58:43:569,21.362,-0.042,0.194,0.114,-4.371,-2.947,20.364
16:58:43:595,21.389,-0.050,0.210,0.091,-4.214,-3.168,18.062
16:58:43:623,21.417,-0.074,0.139,0.076,-3.997,-3.784,15.908
16:58:43:65,21.443,-0.069,0.160,0.116,-3.917,-4.325,14.563
16:58:43:678,21.471,-0.090,0.117,0.112,-3.948,-4.852,12.856
16:58:43:705,21.498,-0.162,0.166,0.104,-4.071,-4.783,12.026
16:58:43:732,21.525,-0.215,0.251,0.072,-4.368,-4.195,10.854
16:58:43:759,21.553,-0.261,0.100,0.094,-4.339,-3.856,10.389
16:58:43:787,21.580,-0.284,0.044,0.086,-4.134,-3.559,10.030
16:58:43:814,21.607,-0.189,-0.006,0.080,-3.800,-3.789,10.479
16:58:43:841,21.634,-0.115,0.080,0.047,-3.582,-4.166,11.275
16:58:43:868,21.662,-0.115,0.080,0.047,-3.582,-4.166,11.275
16:58:43:895,21.688,-0.115,0.080,0.047,-3.582,-4.166,11.275
16:58:43:923,21.716,0.056,0.097,-0.011,-1.595,-6.315,18.558
16:58:43:95,21.744,0.131,0.086,-0.024,-0.873,-6.929,20.785
16:58:43:977,21.771,0.159,0.024,-0.025,0.367,-7.535,24.116
16:58:44:004,21.798,0.204,-0.075,-0.034,1.514,-7.911,27.394
16:58:44:031,21.825,0.218,-0.134,-0.015,2.168,-7.978,29.545
16:58:44:059,21.852,0.252,-0.179,-0.009,2.979,-8.100,32.695
16:58:44:086,21.879,0.291,-0.194,-0.015,3.625,-8.202,35.580
16:58:44:113,21.906,0.303,-0.229,-0.029,4.017,-8.251,37.258
16:58:44:14,21.933,0.301,-0.276,-0.027,4.615,-8.039,39.348
16:58:44:167,21.960,0.318,-0.307,-0.012,4.942,-7.841,40.366
16:58:44:194,21.987,0.329,-0.259,0.004,4.676,-6.580,40.109
16:58:44:221,22.014,0.338,-0.216,0.000,4.321,-5.784,39.826
16:58:44:248,22.042,0.338,-0.216,0.000,4.321,-5.784,39.826
16:58:44:276,22.069,0.349,-0.063,-0.039,2.858,-3.551,37.334
16:58:44:303,22.096,0.309,-0.005,-0.036,1.831,-1.842,34.496
16:58:44:33,22.124,0.284,0.134,-0.039,1.163,-0.621,31.985
16:58:44:357,22.150,0.278,0.349,-0.061,0.138,1.362,27.228
16:58:44:384,22.178,0.109,0.488,-0.055,-0.781,3.719,21.457
16:58:44:412,22.205,-0.062,0.468,-0.004,-1.131,5.580,17.366
16:58:44:439,22.232,-0.300,0.343,0.101,-1.260,8.285,11.176
16:58:44:466,22.259,-0.375,0.175,0.130,-1.163,9.765,7.374
16:58:44:493,22.286,-0.375,0.175,0.130,-1.163,9.765,7.374
16:58:44:52,22.314,-0.327,-0.117,0.124,-0.645,12.974,0.199
16:58:44:547,22.341,-0.298,-0.025,0.057,-0.516,15.690,0.585
16:58:44:574,22.367,-0.298,-0.025,0.057,-0.516,15.690,0.585
16:58:44:602,22.395,-0.236,0.090,0.049,-0.364,19.197,5.777
16:58:44:629,22.422,-0.185,0.012,0.041,-0.420,20.569,8.474
16:58:44:656,22.449,-0.172,-0.106,0.078,-0.517,22.135,12.560
16:58:44:683,22.476,-0.103,-0.175,0.079,-0.751,22.909,15.992
16:58:44:71,22.503,-0.037,-0.184,0.080,-0.998,23.052,17.781
16:58:44:737,22.531,0.029,-0.171,0.046,-1.487,22.959,19.861
16:58:44:764,22.557,0.052,-0.150,0.058,-1.852,22.738,20.850
16:58:44:792,22.585,0.052,-0.150,0.058,-1.852,22.738,20.850
16:58:44:819,22.612,0.048,-0.167,0.122,-2.728,20.901,22.152
16:58:44:847,22.640,0.110,-0.222,0.150,-2.881,19.724,22.047
16:58:44:873,22.667,0.053,-0.108,0.211,-3.338,18.126,21.351
16:58:44:901,22.694,0.269,-0.071,0.137,-3.428,17.221,20.638
16:58:44:927,22.721,0.109,0.134,0.135,-3.593,16.998,19.411
16:58:44:955,22.748,0.025,0.197,0.102,-4.235,18.068,17.005
16:58:44:982,22.775,-0.062,0.207,0.116,-4.681,18.691,15.292
16:58:45:009,22.802,-0.062,0.207,0.116,-4.681,18.691,15.292
16:58:45:036,22.829,-0.099,0.272,0.141,-4.980,18.319,12.348
16:58:45:063,22.857,-0.167,0.234,0.139,-4.963,18.040,11.208
16:58:45:09,22.884,-0.167,0.234,0.139,-4.963,18.040,11.208
16:58:45:117,22.911,-0.252,-0.032,0.150,-4.170,17.368,8.952
16:58:45:145,22.938,-0.149,-0.089,0.120,-3.804,16.756,8.977
16:58:45:172,22.965,-0.101,-0.025,0.053,-3.300,15.586,9.830
16:58:45:2,22.993,-0.126,-0.011,0.044,-2.907,14.790,10.980
16:58:45:227,23.020,-0.073,0.021,-0.004,-2.163,13.386,13.066
16:58:45:254,23.048,-0.055,0.051,-0.049,-1.577,12.500,14.528
16:58:45:281,23.074,-0.026,0.048,-0.087,-0.575,11.236,16.682
16:58:45:309,23.102,0.017,-0.047,-0.080,0.506,10.071,18.766
16:58:45:338,23.131,0.062,-0.103,-0.095,1.150,9.379,20.156
16:58:45:364,23.157,0.088,-0.122,-0.106,1.921,8.336,22.240
16:58:45:392,23.185,0.111,-0.120,-0.136,2.301,7.812,23.638
16:58:45:418,23.212,0.115,-0.150,-0.133,2.445,6.966,25.326
16:58:45:446,23.240,0.127,-0.186,-0.123,2.517,6.312,26.817
16:58:45:473,23.266,0.147,-0.187,-0.100,2.702,5.844,27.783
16:58:45:5,23.294,0.147,-0.187,-0.100,2.702,5.844,27.783
16:58:45:527,23.321,0.189,-0.172,-0.086,2.831,4.807,29.343
16:58:45:555,23.348,0.194,-0.129,-0.072,2.255,4.619,28.836
16:58:45:582,23.376,0.233,-0.031,-0.063,1.789,4.786,28.568
16:58:45:609,23.403,0.230,0.006,-0.056,1.418,5.095,28.094
16:58:45:636,23.430,0.191,0.031,-0.033,0.793,5.862,26.866
16:58:45:664,23.458,0.140,0.080,0.029,0.342,6.573,25.640
16:58:45:691,23.484,0.078,0.280,0.080,-1.174,9.002,19.755
16:58:45:719,23.512,-0.041,0.306,0.190,-1.668,10.037,17.253
16:58:45:746,23.539,-0.152,0.240,0.262,-2.340,11.544,13.324
16:58:45:773,23.566,-0.266,-0.046,0.199,-2.656,12.319,10.899
16:58:45:8,23.594,-0.255,-0.129,0.172,-2.683,12.808,8.189
16:58:45:828,23.621,-0.220,-0.061,0.079,-2.600,12.614,6.891
16:58:45:855,23.648,-0.183,-0.011,0.043,-2.252,12.286,6.080
16:58:45:883,23.676,-0.115,0.064,0.026,-1.514,12.439,6.848
16:58:45:91,23.703,-0.115,0.064,0.026,-1.514,12.439,6.848
16:58:45:937,23.730,-0.106,-0.059,0.046,-0.082,14.882,10.755
16:58:45:964,23.758,-0.131,-0.103,0.065,0.301,16.253,12.869
16:58:45:992,23.785,-0.131,-0.155,0.063,0.484,18.085,15.879
16:58:46:019,23.812,-0.065,-0.138,0.012,0.399,18.867,17.573
16:58:46:046,23.839,-0.031,-0.121,-0.020,0.105,19.549,19.501
16:58:46:073,23.866,0.010,-0.144,-0.006,-0.190,19.550,20.842
16:58:46:1,23.893,0.032,-0.192,0.004,-0.389,19.418,21.474
16:58:46:127,23.920,0.032,-0.192,0.004,-0.389,19.418,21.474
16:58:46:154,23.948,0.018,-0.229,0.063,-1.119,18.674,22.344
16:58:46:182,23.975,0.026,-0.207,0.083,-1.406,18.130,22.237
16:58:46:209,24.002,0.055,-0.103,0.086,-1.937,17.167,21.616
16:58:46:236,24.030,0.070,-0.011,0.099,-2.371,16.465,20.891
16:58:46:263,24.057,0.065,0.103,0.125,-3.056,15.629,19.457
16:58:46:291,24.084,0.004,0.236,0.159,-3.842,15.099,17.458
16:58:46:318,24.111,0.007,0.203,0.203,-4.302,15.029,15.935
16:58:46:345,24.138,-0.048,0.235,0.267,-4.991,15.235,13.705
16:58:46:372,24.165,-0.152,0.240,0.217,-5.494,15.748,12.190
16:58:46:399,24.193,-0.206,0.222,0.212,-5.945,16.172,10.206
16:58:46:426,24.220,-0.239,0.212,0.188,-6.009,15.824,8.648
16:58:46:453,24.246,-0.239,-0.046,0.186,-5.012,14.229,7.258
16:58:46:481,24.274,-0.190,-0.098,0.139,-4.391,13.564,7.238
16:58:46:508,24.301,-0.171,-0.018,0.113,-3.651,12.858,7.901
16:58:46:536,24.329,-0.171,-0.018,0.113,-3.651,12.858,7.901
16:58:46:563,24.356,-0.145,0.055,0.002,-2.327,11.290,10.769
16:58:46:59,24.383,-0.145,0.055,0.002,-2.327,11.290,10.769
16:58:46:617,24.410,-0.074,0.129,-0.084,-0.565,9.201,14.237
16:58:46:644,24.437,-0.074,0.129,-0.084,-0.565,9.201,14.237
16:58:46:671,24.464,0.026,-0.082,-0.093,1.431,7.489,18.130
16:58:46:698,24.491,0.057,-0.145,-0.086,2.298,6.810,20.833
16:58:46:726,24.519,0.057,-0.145,-0.086,2.298,6.810,20.833
16:58:46:753,24.546,0.113,-0.152,-0.139,3.088,5.921,25.433
16:58:46:781,24.574,0.133,-0.174,-0.128,3.049,5.442,27.551
16:58:46:808,24.601,0.183,-0.178,-0.138,3.206,5.176,28.959
16:58:46:835,24.628,0.183,-0.178,-0.138,3.206,5.176,28.959
16:58:46:862,24.656,0.197,-0.212,-0.063,2.059,5.034,31.286
16:58:46:89,24.683,0.197,-0.212,-0.063,2.059,5.034,31.286
16:58:46:917,24.710,0.223,-0.130,-0.059,0.817,5.617,31.055
16:58:46:945,24.738,0.223,-0.130,-0.059,0.817,5.617,31.055
16:58:46:972,24.765,0.235,-0.024,-0.064,-0.199,6.242,29.745
16:58:46:999,24.792,0.204,0.029,-0.003,-0.911,6.764,28.344
16:58:47:027,24.820,0.127,0.240,0.109,-3.088,8.470,21.404
16:58:47:054,24.847,0.127,0.240,0.109,-3.088,8.470,21.404
16:58:47:081,24.874,-0.137,0.398,0.410,-5.031,10.790,12.892
16:58:47:108,24.901,-0.137,0.398,0.410,-5.031,10.790,12.892
16:58:47:136,24.929,-0.353,0.407,0.263,-5.846,12.338,9.087
16:58:47:163,24.956,-0.374,-0.129,0.146,-5.918,13.402,1.457
16:58:47:19,24.983,-0.231,-0.068,0.135,-4.535,11.052,-0.245
16:58:47:217,25.011,-0.144,-0.058,0.111,-3.762,10.898,0.390
16:58:47:244,25.038,-0.146,-0.006,0.100,-2.514,12.231,2.581
16:58:47:272,25.065,-0.156,0.017,0.068,-1.823,14.032,4.694
16:58:47:299,25.092,-0.209,-0.025,0.079,-1.212,17.511,8.420
16:58:47:326,25.120,-0.225,-0.104,0.058,-1.197,20.767,12.020
16:58:47:354,25.147,-0.180,-0.148,0.040,-1.356,22.168,14.072
16:58:47:381,25.174,-0.101,-0.161,0.010,-1.665,23.201,16.499
16:58:47:408,25.202,-0.101,-0.161,0.010,-1.665,23.201,16.499
16:58:47:436,25.229,0.013,-0.129,0.023,-2.034,22.503,19.199
16:58:47:463,25.256,0.018,-0.196,0.048,-2.194,21.654,20.113
16:58:47:49,25.283,0.021,-0.220,0.058,-2.325,21.050,20.374
16:58:47:517,25.310,0.038,-0.226,0.094,-2.610,19.930,20.325
16:58:47:544,25.338,0.065,-0.156,0.124,-2.876,19.194,20.082
16:58:47:571,25.364,0.067,-0.027,0.142,-3.476,18.205,19.240
16:58:47:598,25.392,0.069,0.125,0.164,-3.993,17.804,18.412
16:58:47:626,25.419,-0.037,0.190,0.189,-4.696,17.793,16.894
16:58:47:653,25.447,0.039,0.161,0.184,-5.163,18.207,14.939
16:58:47:681,25.474,-0.056,0.170,0.238,-5.534,18.472,13.612
16:58:47:708,25.501,-0.056,0.170,0.238,-5.534,18.472,13.612
16:58:47:735,25.528,-0.142,0.145,0.194,-6.302,19.557,10.507
16:58:47:762,25.555,-0.200,0.220,0.194,-6.417,19.507,8.787
16:58:47:789,25.582,-0.231,0.158,0.212,-6.199,19.173,7.291
16:58:47:816,25.609,-0.257,0.064,0.190,-5.906,18.858,6.450
16:58:47:843,25.636,-0.184,-0.102,0.126,-4.764,17.550,5.786
16:58:47:87,25.663,-0.184,-0.102,0.126,-4.764,17.550,5.786
16:58:47:897,25.690,-0.184,-0.102,0.126,-4.764,17.550,5.786
16:58:47:925,25.718,-0.165,0.007,0.103,-4.304,16.218,6.434
16:58:47:951,25.745,-0.165,0.007,0.103,-4.304,16.218,6.434
16:58:47:979,25.772,-0.165,0.007,0.103,-4.304,16.218,6.434
16:58:48:006,25.799,-0.144,0.081,0.045,-3.845,14.801,7.973
16:58:48:032,25.826,-0.144,0.081,0.045,-3.845,14.801,7.973
16:58:48:061,25.854,-0.144,0.081,0.045,-3.845,14.801,7.973
16:58:48:088,25.881,0.026,-0.033,-0.029,-1.768,11.952,15.779
16:58:48:116,25.909,0.113,-0.188,-0.041,-0.777,10.924,24.388
16:58:48:142,25.936,0.129,-0.220,-0.036,-0.604,10.675,26.069
16:58:48:169,25.963,0.141,-0.229,-0.028,-0.518,10.561,26.852
16:58:48:197,25.990,0.147,-0.261,-0.029,-0.446,10.557,27.574
16:58:48:224,26.017,0.147,-0.212,-0.024,-0.469,10.784,27.801
16:58:48:251,26.044,0.155,-0.162,-0.029,-0.583,11.087,27.587
16:58:48:278,26.071,0.186,-0.036,-0.060,-0.875,11.793,26.695
16:58:48:305,26.099,0.161,0.094,-0.073,-1.168,12.478,25.658
16:58:48:333,26.126,0.112,0.107,-0.021,-1.585,13.773,23.358
16:58:48:359,26.153,0.062,0.142,0.013,-1.840,14.718,21.355
16:58:48:386,26.180,0.054,0.305,0.001,-2.440,16.284,17.513
16:58:48:414,26.207,-0.076,0.402,0.032,-2.986,18.333,13.295
16:58:48:441,26.234,-0.076,0.402,0.032,-2.986,18.333,13.295
16:58:48:468,26.261,-0.269,0.233,0.205,-3.310,22.017,6.450
16:58:48:495,26.289,-0.322,0.072,0.312,-3.341,23.042,4.153
16:58:48:522,26.315,-0.294,-0.155,0.237,-3.740,23.979,0.043
16:58:48:55,26.343,-0.294,-0.155,0.237,-3.740,23.979,0.043
16:58:48:577,26.370,-0.149,-0.084,0.150,-3.890,23.980,-0.028
16:58:48:604,26.398,-0.069,-0.005,0.127,-3.900,24.702,1.325
16:58:48:631,26.425,-0.005,-0.013,0.057,-3.743,25.785,3.077
16:58:48:659,26.452,-0.038,-0.087,0.092,-3.045,30.653,9.653
16:58:48:687,26.480,-0.075,-0.123,0.115,-2.787,32.264,11.497
16:58:48:714,26.507,-0.008,-0.187,0.089,-2.432,33.710,13.271
16:58:48:741,26.534,-0.008,-0.187,0.089,-2.432,33.710,13.271
16:58:48:768,26.561,0.127,-0.175,0.032,-2.234,34.318,14.488
16:58:48:795,26.588,0.048,-0.123,0.049,-2.388,34.341,14.609
16:58:48:822,26.615,0.040,-0.157,0.073,-2.539,34.506,14.411
16:58:48:85,26.643,0.013,-0.154,0.115,-2.832,35.091,13.783
16:58:48:877,26.671,-0.009,-0.151,0.145,-3.041,35.466,13.186
16:58:48:905,26.698,-0.051,-0.154,0.182,-3.332,35.906,12.191
16:58:48:932,26.726,-0.046,-0.086,0.196,-3.580,36.015,11.408
16:58:48:959,26.753,-0.051,0.079,0.207,-4.091,36.333,10.153
16:58:48:987,26.780,-0.070,0.176,0.181,-4.582,36.604,8.992
16:58:49:014,26.807,-0.072,0.166,0.192,-4.824,36.913,8.384
16:58:49:042,26.835,-0.056,0.186,0.230,-5.201,37.585,7.730
16:58:49:07,26.863,-0.064,0.182,0.222,-5.466,38.061,7.478
16:58:49:096,26.890,-0.064,0.182,0.222,-5.466,38.061,7.478
16:58:49:124,26.917,-0.076,0.142,0.212,-5.897,39.351,7.306
16:58:49:15,26.944,-0.043,0.121,0.221,-5.891,39.725,7.273
16:58:49:177,26.971,-0.057,-0.043,0.211,-5.722,40.264,7.332
16:58:49:205,26.998,-0.034,-0.114,0.165,-5.455,40.493,7.577
16:58:49:232,27.025,0.032,0.074,-0.015,-4.942,40.278,8.907
16:58:49:259,27.052,0.032,0.074,-0.015,-4.942,40.278,8.907
16:58:49:286,27.079,0.026,0.062,-0.077,-3.820,40.290,11.159
16:58:49:313,27.107,0.026,0.062,-0.077,-3.820,40.290,11.159
16:58:49:341,27.134,0.026,0.062,-0.077,-3.820,40.290,11.159
16:58:49:368,27.162,0.026,0.062,-0.077,-3.820,40.290,11.159
16:58:49:395,27.189,0.026,0.062,-0.077,-3.820,40.290,11.159
16:58:49:423,27.216,0.104,-0.167,-0.102,-2.663,42.685,16.629
16:58:49:45,27.243,0.104,-0.167,-0.102,-2.663,42.685,16.629
16:58:49:477,27.271,0.036,-0.154,-0.049,-2.833,43.660,17.703
16:58:49:504,27.298,0.036,-0.154,-0.049,-2.833,43.660,17.703
16:58:49:532,27.325,-0.019,-0.039,-0.015,-2.501,44.910,16.957
16:58:49:558,27.352,-0.019,-0.039,-0.015,-2.501,44.910,16.957
16:58:49:586,27.379,-0.050,-0.020,0.036,-2.268,46.254,15.446
16:58:49:613,27.406,-0.062,0.021,0.038,-2.226,46.971,14.696
16:58:49:641,27.435,-0.062,0.021,0.038,-2.226,46.971,14.696
16:58:49:668,27.461,-0.103,0.186,0.073,-2.269,49.142,12.671
16:58:49:695,27.489,-0.119,0.135,0.106,-2.203,50.598,11.443
16:58:49:723,27.516,-0.119,0.135,0.106,-2.203,50.598,11.443
16:58:49:749,27.543,-0.116,0.147,0.158,-2.093,53.074,9.294
16:58:49:777,27.570,-0.120,0.143,0.217,-2.115,54.834,8.004
16:58:49:804,27.597,-0.113,0.130,0.215,-2.127,56.203,7.229
16:58:49:831,27.625,-0.086,0.143,0.216,-2.130,58.366,6.697
16:58:49:859,27.652,-0.063,0.021,0.207,-2.151,60.550,6.297
16:58:49:886,27.679,-0.035,-0.134,0.196,-2.028,61.859,6.433
16:58:49:913,27.707,-0.012,-0.180,0.137,-1.823,63.589,7.006
16:58:49:94,27.734,0.007,0.039,-0.085,-1.642,66.506,8.784
16:58:49:968,27.761,0.007,0.039,-0.085,-1.642,66.506,8.784
16:58:49:994,27.788,0.036,0.019,-0.167,-1.511,68.096,9.859
16:58:50:022,27.815,0.115,-0.069,-0.080,-1.161,73.648,13.860
16:58:50:049,27.842,0.115,-0.069,-0.080,-1.161,73.648,13.860
16:58:50:076,27.869,0.138,-0.149,-0.094,-1.133,75.019,14.933
16:58:50:104,27.897,0.082,-0.165,-0.010,-1.369,78.572,15.574
16:58:50:131,27.924,0.082,-0.165,-0.010,-1.369,78.572,15.574
16:58:50:158,27.952,0.004,-0.037,0.070,-1.422,84.242,13.748
16:58:50:186,27.980,-0.003,-0.075,0.099,-1.143,85.611,12.946
16:58:50:213,28.006,0.001,-0.100,0.137,-0.634,87.136,11.608
16:58:50:24,28.034,0.007,-0.162,0.177,-0.319,87.947,10.678
16:58:50:267,28.061,0.017,-0.171,0.199,-0.037,89.066,9.137
16:58:50:294,28.088,0.019,-0.081,0.271,-0.065,90.176,7.432
16:58:50:322,28.115,0.039,0.010,0.304,-0.241,90.808,6.203
16:58:50:349,28.143,0.022,0.089,0.338,-0.551,91.598,4.378
16:58:50:376,28.170,0.043,0.109,0.371,-0.739,92.056,3.227
16:58:50:404,28.197,0.043,0.097,0.413,-0.967,92.507,1.778
16:58:50:432,28.226,0.059,0.110,0.397,-1.115,92.800,1.131
16:58:50:46,28.253,0.085,0.185,0.353,-1.379,93.148,0.704
16:58:50:487,28.280,0.095,0.160,0.341,-1.570,93.527,1.042
16:58:50:514,28.308,0.076,0.190,0.351,-1.721,93.856,1.429
16:58:50:541,28.334,0.073,0.193,0.303,-1.843,94.197,2.156
16:58:50:568,28.362,0.054,0.027,0.195,-1.802,94.352,2.792
16:58:50:596,28.390,0.067,-0.056,0.147,-1.593,94.330,4.218
16:58:50:624,28.417,0.062,-0.126,0.057,-1.441,93.973,6.203
16:58:50:651,28.444,0.062,-0.126,0.057,-1.441,93.973,6.203
16:58:50:678,28.471,-0.038,-0.029,-0.093,-1.194,92.686,10.092
16:58:50:705,28.498,-0.073,0.009,-0.107,-0.906,92.210,11.628
16:58:50:732,28.526,-0.113,0.089,-0.174,-0.357,91.787,13.664
16:58:50:759,28.553,-0.090,0.061,-0.177,0.304,91.638,15.426
16:58:50:786,28.579,-0.087,-0.041,-0.164,0.744,91.567,16.510
16:58:50:813,28.607,-0.059,-0.194,-0.191,1.402,91.557,18.891
16:58:50:841,28.634,-0.074,-0.140,-0.144,1.489,91.394,19.851
16:58:50:868,28.661,-0.099,-0.187,-0.148,1.546,91.288,20.207
16:58:50:895,28.689,-0.099,-0.187,-0.148,1.546,91.288,20.207
16:58:50:923,28.716,-0.039,-0.159,-0.046,2.000,91.250,20.035
16:58:50:949,28.743,-0.044,-0.108,-0.039,2.096,91.213,19.459
16:58:50:977,28.770,-0.062,-0.086,-0.007,2.153,91.342,18.206
16:58:51:004,28.797,-0.056,-0.038,0.041,2.132,91.745,17.241
16:58:51:031,28.825,-0.050,0.020,0.072,2.029,92.491,15.613
16:58:51:058,28.851,-0.074,0.114,0.111,1.903,93.336,13.827
16:58:51:085,28.879,-0.065,0.137,0.146,1.837,93.844,12.576
16:58:51:113,28.906,-0.038,0.116,0.187,1.859,94.495,10.721
16:58:51:14,28.933,-0.023,0.105,0.196,1.829,94.926,9.831
16:58:51:167,28.960,-0.046,0.209,0.218,1.762,95.689,8.441
16:58:51:194,28.987,-0.041,0.240,0.238,1.791,96.359,7.423
16:58:51:221,29.015,-0.037,0.123,0.261,2.025,97.706,6.364
16:58:51:249,29.042,-0.004,0.130,0.275,2.286,99.299,5.799
16:58:51:276,29.069,0.002,0.055,0.243,2.429,100.364,5.752
16:58:51:303,29.096,0.000,-0.082,0.128,2.636,101.748,6.332
16:58:51:33,29.123,-0.004,-0.117,0.046,2.698,102.459,7.049
16:58:51:357,29.151,-0.034,-0.071,-0.064,2.660,103.281,8.441
16:58:51:385,29.178,-0.093,-0.023,-0.172,2.609,104.082,10.041
16:58:51:412,29.206,-0.027,-0.101,-0.198,2.676,108.147,13.890
16:58:51:439,29.232,-0.027,-0.101,-0.198,2.676,108.147,13.890
16:58:51:467,29.260,-0.027,-0.101,-0.198,2.676,108.147,13.890
16:58:51:494,29.287,-0.008,-0.159,-0.095,2.509,110.817,14.771
16:58:51:521,29.315,-0.006,-0.102,-0.016,2.032,112.943,13.384
16:58:51:549,29.342,-0.006,-0.102,-0.016,2.032,112.943,13.384
16:58:51:576,29.369,0.017,-0.087,0.032,1.880,113.439,12.622
16:58:51:603,29.396,0.090,-0.085,0.141,1.523,114.256,10.160
16:58:51:63,29.423,0.090,-0.085,0.141,1.523,114.256,10.160
16:58:51:657,29.451,0.151,-0.129,0.215,0.924,114.514,6.691
16:58:51:684,29.478,0.168,-0.084,0.229,0.635,114.460,5.545
16:58:51:711,29.504,0.194,0.030,0.279,0.074,114.124,3.887
16:58:51:738,29.532,0.168,0.126,0.320,-0.316,113.786,2.874
16:58:51:766,29.559,0.184,0.148,0.335,-0.771,113.182,1.588
16:58:51:793,29.586,0.195,0.108,0.319,-0.986,112.569,0.787
16:58:51:82,29.614,0.216,0.128,0.292,-1.076,112.228,0.616
16:58:51:848,29.641,0.189,0.169,0.279,-1.257,111.856,0.817
16:58:51:875,29.669,0.179,0.129,0.276,-1.315,111.638,1.274
16:58:51:902,29.695,0.127,0.206,0.227,-1.289,111.337,2.534
16:58:51:929,29.723,0.108,0.209,0.188,-1.248,111.042,3.193
16:58:51:957,29.750,0.108,0.209,0.188,-1.248,111.042,3.193
16:58:51:984,29.777,-0.009,-0.019,0.059,-0.462,110.141,6.114
16:58:52:011,29.805,-0.053,-0.098,-0.003,-0.017,109.720,7.540
16:58:52:039,29.832,-0.106,-0.049,-0.093,0.648,108.806,9.900
16:58:52:066,29.860,-0.173,0.014,-0.145,1.154,108.013,11.479
16:58:52:093,29.886,-0.224,0.074,-0.163,2.035,106.903,13.638
16:58:52:12,29.913,-0.276,0.047,-0.253,2.950,106.390,15.588
16:58:52:147,29.941,-0.198,-0.167,-0.219,4.048,107.006,18.714
16:58:52:174,29.968,-0.135,-0.236,-0.171,4.249,107.216,19.740
16:58:52:201,29.995,-0.135,-0.236,-0.171,4.249,107.216,19.740
16:58:52:228,30.022,-0.141,-0.241,-0.127,4.327,107.073,20.665
16:58:52:256,30.049,-0.166,-0.196,-0.133,4.285,106.231,20.746
16:58:52:284,30.077,-0.166,-0.196,-0.133,4.285,106.231,20.746
16:58:52:31,30.104,-0.112,-0.136,-0.033,4.220,105.773,19.668
16:58:52:338,30.131,-0.081,-0.095,0.011,4.069,105.707,18.403
16:58:52:365,30.159,-0.033,-0.061,0.050,3.918,105.566,17.370
16:58:52:393,30.186,-0.014,-0.034,0.074,3.656,105.323,15.614
16:58:52:42,30.213,-0.046,0.070,0.076,3.328,105.087,13.610
16:58:52:448,30.241,-0.061,0.160,0.097,3.068,105.283,12.151
16:58:52:475,30.268,-0.035,0.193,0.162,2.841,105.918,10.023
16:58:52:503,30.297,0.025,0.114,0.231,2.829,106.605,8.665
16:58:52:53,30.324,0.045,0.178,0.271,2.803,107.791,6.685
16:58:52:557,30.351,0.046,0.268,0.306,2.692,108.991,4.799
16:58:52:584,30.378,0.039,0.183,0.295,2.724,109.721,3.818
16:58:52:611,30.405,0.045,0.106,0.293,2.809,110.936,2.778
16:58:52:639,30.433,0.060,0.100,0.259,2.826,111.670,2.440
16:58:52:666,30.459,0.061,-0.115,0.166,2.949,112.684,2.734
16:58:52:693,30.486,0.065,-0.187,0.102,2.976,113.097,3.330
16:58:52:721,30.514,-0.009,-0.123,-0.009,2.847,113.420,4.507
16:58:52:748,30.541,-0.009,-0.123,-0.009,2.847,113.420,4.507
16:58:52:775,30.568,-0.127,0.008,-0.179,2.642,115.130,7.414
16:58:52:802,30.595,-0.089,-0.018,-0.183,2.629,117.304,9.697
16:58:52:829,30.622,-0.065,-0.087,-0.170,2.563,118.856,11.144
16:58:52:857,30.650,-0.025,-0.147,-0.124,2.406,120.929,12.941
16:58:52:884,30.677,-0.043,-0.177,-0.106,2.055,123.785,14.464
16:58:52:911,30.704,-0.009,-0.129,-0.097,1.818,125.251,14.718
16:58:52:938,30.731,-0.013,-0.088,-0.113,1.608,126.674,14.679
16:58:52:965,30.759,0.032,-0.070,-0.006,1.248,128.619,14.409
16:58:52:993,30.786,0.097,-0.109,0.010,1.026,130.119,14.044
16:58:53:02,30.813,0.128,-0.182,0.066,0.801,131.790,13.302
16:58:53:047,30.840,0.145,-0.117,0.072,0.626,132.877,12.156
16:58:53:074,30.867,0.155,-0.054,0.094,0.540,132.941,11.221
16:58:53:101,30.895,0.117,0.058,0.094,0.387,132.769,9.661
16:58:53:128,30.921,0.141,0.140,0.117,0.261,132.683,8.554
16:58:53:155,30.949,0.181,0.157,0.141,0.065,132.849,7.015
16:58:53:183,30.976,0.188,0.131,0.160,-0.138,133.232,5.730
16:58:53:209,31.003,0.199,0.178,0.159,-0.284,133.523,5.433
16:58:53:237,31.030,0.176,0.242,0.140,-0.654,133.785,4.678
16:58:53:263,31.057,0.136,0.170,0.130,-0.818,134.242,4.486
16:58:53:291,31.085,0.141,0.144,0.123,-0.942,134.776,4.568
16:58:53:319,31.112,0.141,0.171,0.113,-0.987,135.477,4.908
16:58:53:346,31.139,0.124,0.081,0.088,-0.937,135.926,5.252
16:58:53:373,31.166,0.124,0.081,0.088,-0.937,135.926,5.252
16:58:53:4,31.193,0.124,0.081,0.088,-0.937,135.926,5.252
16:58:53:427,31.221,0.009,-0.084,-0.017,-0.511,135.058,7.918
16:58:53:454,31.247,-0.050,-0.045,-0.046,-0.412,133.980,8.693
16:58:53:481,31.275,-0.149,0.050,-0.014,-0.026,132.299,9.822
16:58:53:509,31.302,-0.224,0.063,-0.043,0.701,131.084,10.950
16:58:53:536,31.329,-0.211,-0.020,-0.073,1.279,130.650,11.744
16:58:53:563,31.357,-0.141,-0.081,-0.060,2.152,130.485,13.233
16:58:53:59,31.383,-0.141,-0.081,-0.060,2.152,130.485,13.233
16:58:53:617,31.411,-0.134,-0.217,-0.073,2.851,130.774,15.742
16:58:53:644,31.437,-0.134,-0.217,-0.073,2.851,130.774,15.742
16:58:53:672,31.465,-0.134,-0.217,-0.073,2.851,130.774,15.742
16:58:53:699,31.492,-0.162,-0.110,-0.061,2.911,131.585,19.116
16:58:53:726,31.519,-0.162,-0.110,-0.061,2.911,131.585,19.116
16:58:53:753,31.546,-0.086,-0.071,-0.025,3.322,132.615,19.096
16:58:53:78,31.574,-0.086,-0.071,-0.025,3.322,132.615,19.096
16:58:53:808,31.601,-0.128,0.032,0.007,3.179,134.594,18.199
16:58:53:835,31.629,-0.070,0.087,0.054,3.012,135.919,17.832
16:58:53:863,31.656,-0.070,0.087,0.054,3.012,135.919,17.832
16:58:53:89,31.684,-0.067,0.126,0.071,2.630,139.616,16.632
16:58:53:918,31.712,-0.036,0.241,0.122,2.388,144.546,14.060
16:58:53:946,31.739,0.023,0.206,0.126,2.424,146.354,12.982
16:58:53:972,31.766,0.094,0.166,0.132,2.443,149.023,11.212
16:58:54:,31.793,0.094,0.166,0.132,2.443,149.023,11.212
16:58:54:026,31.820,0.195,0.003,0.116,2.384,153.250,8.691
16:58:54:054,31.847,0.228,-0.169,0.091,2.348,155.479,7.886
16:58:54:081,31.874,0.156,-0.183,0.050,2.234,156.246,7.681
16:58:54:109,31.902,0.057,-0.125,0.034,1.989,157.328,8.052
16:58:54:136,31.929,0.020,-0.029,0.044,1.853,158.154,8.791
16:58:54:163,31.956,0.020,-0.029,0.044,1.853,158.154,8.791
16:58:54:19,31.983,-0.136,0.011,-0.019,1.688,161.242,12.050
16:58:54:217,32.010,-0.047,-0.005,-0.039,1.589,163.488,14.382
16:58:54:244,32.037,-0.047,-0.005,-0.039,1.589,163.488,14.382
16:58:54:272,32.065,-0.065,-0.099,-0.091,1.465,165.104,16.325
16:58:54:299,32.092,-0.088,-0.188,-0.100,1.405,166.370,18.323
16:58:54:327,32.120,-0.088,-0.188,-0.100,1.405,166.370,18.323
16:58:54:354,32.147,-0.088,-0.188,-0.100,1.405,166.370,18.323
16:58:54:382,32.175,0.001,-0.101,-0.029,0.856,170.766,18.667
16:58:54:409,32.203,0.001,-0.101,-0.029,0.856,170.766,18.667
16:58:54:437,32.230,0.112,-0.143,0.006,0.754,173.295,17.538
16:58:54:463,32.257,0.112,-0.143,0.006,0.754,173.295,17.538
16:58:54:491,32.284,0.112,-0.143,0.006,0.754,173.295,17.538
16:58:54:517,32.311,0.105,-0.116,-0.027,0.849,173.439,16.281
16:58:54:545,32.339,0.105,-0.116,-0.027,0.849,173.439,16.281
16:58:54:572,32.365,0.132,0.209,-0.003,-0.039,172.238,10.358
16:58:54:6,32.393,0.132,0.209,-0.003,-0.039,172.238,10.358
16:58:54:627,32.420,0.132,0.209,-0.003,-0.039,172.238,10.358
16:58:54:655,32.448,0.197,0.169,-0.031,-1.202,175.038,8.453
16:58:54:682,32.475,0.197,0.169,-0.031,-1.202,175.038,8.453
16:58:54:709,32.502,0.196,0.153,-0.070,-1.669,176.457,8.576
16:58:54:736,32.529,0.192,-0.004,-0.070,-1.650,176.906,8.904
16:58:54:763,32.556,0.077,-0.092,-0.063,-1.531,176.864,9.349
16:58:54:79,32.583,0.077,-0.092,-0.063,-1.531,176.864,9.349
16:58:54:818,32.611,-0.030,-0.002,-0.023,-0.978,175.658,11.827
16:58:54:844,32.638,-0.063,0.031,0.000,-0.647,174.916,12.815
16:58:54:871,32.665,-0.110,0.068,0.055,0.113,173.743,14.326
16:58:54:899,32.692,-0.182,0.100,0.071,0.725,173.197,15.307
16:58:54:926,32.719,-0.212,-0.010,0.085,1.766,172.606,16.850
16:58:54:953,32.746,-0.215,-0.105,0.052,2.435,172.613,18.007
16:58:54:979,32.773,-0.132,-0.199,0.045,3.738,172.992,21.533
16:58:55:007,32.800,-0.132,-0.199,0.045,3.738,172.992,21.533
16:58:55:034,32.827,-0.176,-0.183,0.072,3.939,173.016,22.390
16:58:55:061,32.854,-0.182,-0.183,0.083,4.381,172.803,23.777
16:58:55:088,32.881,-0.182,-0.183,0.083,4.381,172.803,23.777
16:58:55:115,32.908,-0.131,-0.191,0.070,4.648,173.604,24.205
16:58:55:142,32.936,-0.133,-0.120,0.065,4.584,173.815,23.941
16:58:55:169,32.963,-0.133,-0.120,0.065,4.584,173.815,23.941
16:58:55:197,32.990,-0.136,-0.025,0.078,4.307,174.387,23.122
16:58:55:224,33.017,-0.102,0.093,0.095,3.649,175.945,21.053
16:58:55:251,33.044,-0.063,0.153,0.079,3.184,177.257,19.377
16:58:55:278,33.071,-0.063,0.153,0.079,3.184,177.257,19.377
16:58:55:305,33.098,-0.017,0.245,0.097,2.522,179.930,16.124
16:58:55:332,33.125,0.057,0.245,0.087,2.213,-178.629,14.659
16:58:55:359,33.152,0.129,0.214,0.048,1.953,-176.231,12.597
16:58:55:387,33.180,0.129,0.214,0.048,1.953,-176.231,12.597
16:58:55:414,33.207,0.208,0.012,-0.045,1.580,-172.597,9.464
16:58:55:441,33.234,0.235,-0.156,-0.081,1.523,-171.266,8.367
16:58:55:468,33.261,0.163,-0.138,-0.071,1.400,-170.928,7.971
16:58:55:495,33.289,0.082,-0.041,-0.033,1.099,-170.717,7.970
16:58:55:522,33.316,0.018,0.020,0.007,0.925,-170.395,8.920
16:58:55:549,33.343,0.018,0.020,0.007,0.925,-170.395,8.920
16:58:55:577,33.370,-0.048,0.031,0.023,1.042,-168.696,12.435
16:58:55:604,33.398,-0.048,0.031,0.023,1.042,-168.696,12.435
16:58:55:632,33.425,-0.070,-0.111,0.011,1.348,-166.721,16.600
16:58:55:658,33.452,-0.091,-0.142,0.010,1.545,-166.304,17.987
16:58:55:686,33.479,-0.111,-0.179,0.019,1.832,-166.298,19.544
16:58:55:713,33.506,-0.111,-0.179,0.019,1.832,-166.298,19.544
16:58:55:74,33.533,-0.111,-0.134,0.039,1.977,-166.392,20.698
16:58:55:767,33.561,-0.111,-0.134,0.039,1.977,-166.392,20.698
16:58:55:794,33.587,-0.044,-0.133,0.034,1.760,-166.542,20.505
16:58:55:821,33.615,-0.044,-0.133,0.034,1.760,-166.542,20.505
16:58:55:848,33.642,0.015,-0.122,-0.024,1.330,-167.575,19.071
16:58:55:875,33.669,0.013,-0.113,-0.035,1.131,-168.295,18.361
16:58:55:902,33.696,0.013,-0.113,-0.035,1.131,-168.295,18.361
16:58:55:93,33.723,0.026,0.052,-0.037,0.390,-169.207,16.289
16:58:55:957,33.750,0.120,0.181,-0.057,-0.477,-168.900,14.075
16:58:55:984,33.777,0.102,0.174,-0.107,-1.371,-167.983,12.187
16:58:56:011,33.804,0.102,0.174,-0.107,-1.371,-167.983,12.187
16:58:56:038,33.831,0.118,0.221,-0.079,-2.007,-167.867,11.668
16:58:56:065,33.859,0.118,0.221,-0.079,-2.007,-167.867,11.668
16:58:56:093,33.886,0.118,0.221,-0.079,-2.007,-167.867,11.668
16:58:56:12,33.913,0.118,0.221,-0.079,-2.007,-167.867,11.668
16:58:56:147,33.940,0.118,0.221,-0.079,-2.007,-167.867,11.668
16:58:56:174,33.968,0.119,0.247,-0.063,-2.135,-167.762,11.657
16:58:56:201,33.994,-0.007,-0.064,-0.036,-0.332,-169.957,14.261
16:58:56:228,34.022,-0.020,0.044,0.064,0.714,-171.890,16.555
16:58:56:256,34.049,-0.021,0.059,0.114,1.286,-172.805,17.442
16:58:56:285,34.078,-0.021,0.059,0.114,1.286,-172.805,17.442
16:58:56:312,34.105,-0.061,-0.054,0.156,3.290,-174.568,20.172
16:58:56:341,34.134,-0.067,-0.094,0.148,3.914,-174.863,21.282
16:58:56:368,34.161,-0.065,-0.166,0.125,4.747,-175.547,23.134
16:58:56:395,34.188,-0.092,-0.151,0.125,5.177,-175.967,24.388
16:58:56:422,34.216,-0.092,-0.151,0.125,5.177,-175.967,24.388
16:58:56:449,34.243,-0.092,-0.151,0.125,5.177,-175.967,24.388
16:58:56:477,34.270,-0.092,-0.151,0.125,5.177,-175.967,24.388
16:58:56:504,34.297,-0.151,-0.209,0.112,4.279,-178.729,27.187
16:58:56:531,34.325,-0.129,-0.216,0.099,4.359,-178.630,27.638
16:58:56:559,34.352,-0.152,-0.155,0.087,4.285,-178.629,27.819
16:58:56:586,34.380,-0.172,-0.105,0.106,3.989,-178.283,27.413
16:58:56:614,34.407,-0.195,-0.008,0.104,3.669,-178.273,26.813
16:58:56:641,34.434,-0.139,0.076,0.086,2.655,-176.742,24.205
16:58:56:668,34.461,-0.077,0.115,0.019,2.038,-175.409,21.835
16:58:56:695,34.488,-0.077,0.115,0.019,2.038,-175.409,21.835
16:58:56:722,34.516,0.026,0.328,0.008,0.714,-172.774,16.336
16:58:56:75,34.543,0.186,0.319,-0.084,0.157,-170.778,12.630
16:58:56:776,34.570,0.265,0.296,-0.176,-0.144,-169.546,10.134
16:58:56:804,34.597,0.265,0.296,-0.176,-0.144,-169.546,10.134
16:58:56:831,34.624,0.359,-0.202,-0.192,-0.369,-167.597,5.498
16:58:56:858,34.651,0.359,-0.202,-0.192,-0.369,-167.597,5.498
16:58:56:885,34.678,0.198,-0.063,-0.057,-0.304,-168.335,4.669
16:58:56:912,34.706,0.178,-0.006,-0.023,-0.057,-168.787,5.807
16:58:56:94,34.733,0.086,0.084,0.035,0.521,-168.364,8.595
16:58:56:966,34.760,0.039,0.071,0.032,0.989,-167.845,11.026
16:58:56:994,34.788,0.029,0.006,0.021,1.673,-166.507,15.182
16:58:57:022,34.815,0.043,-0.121,0.017,2.007,-165.713,17.972
16:58:57:05,34.843,0.024,-0.174,0.019,2.259,-164.803,21.650
16:58:57:078,34.871,-0.039,-0.195,0.038,2.313,-164.946,24.392
16:58:57:105,34.898,-0.094,-0.170,0.038,2.264,-165.250,25.643
16:58:57:132,34.925,-0.094,-0.170,0.038,2.264,-165.250,25.643
16:58:57:159,34.953,-0.135,-0.181,0.038,1.929,-166.644,27.173
16:58:57:187,34.980,-0.096,-0.202,-0.004,1.666,-167.522,26.565
16:58:57:214,35.008,-0.078,-0.224,-0.069,0.871,-168.997,24.961
16:58:57:241,35.034,-0.075,-0.040,-0.086,-0.031,-169.391,23.188
16:58:57:268,35.062,-0.075,-0.040,-0.086,-0.031,-169.391,23.188
16:58:57:295,35.088,0.027,0.103,-0.145,-0.514,-169.474,21.979
16:58:57:322,35.116,-0.010,0.134,-0.123,-0.796,-169.340,19.998
16:58:57:35,35.143,-0.010,0.134,-0.123,-0.796,-169.340,19.998
16:58:57:377,35.171,0.092,0.206,-0.074,-1.813,-169.727,12.825
16:58:57:404,35.198,0.092,0.206,-0.074,-1.813,-169.727,12.825
16:58:57:431,35.224,0.092,0.206,-0.074,-1.813,-169.727,12.825
16:58:57:458,35.252,0.185,0.158,-0.052,-2.252,-168.984,8.726
16:58:57:486,35.279,0.260,0.146,-0.071,-2.040,-167.920,7.934
16:58:57:512,35.306,0.260,0.016,-0.069,-1.539,-167.082,7.669
16:58:57:54,35.333,0.250,-0.028,-0.072,-1.228,-166.685,7.730
16:58:57:567,35.360,0.221,-0.048,-0.066,-0.904,-166.545,8.344
16:58:57:594,35.387,0.202,0.019,-0.017,-0.802,-166.840,9.061
16:58:57:621,35.414,0.172,0.058,0.029,-0.626,-168.090,10.484
16:58:57:648,35.442,0.095,0.112,0.077,-0.277,-169.779,12.064
16:58:57:675,35.468,0.049,0.103,0.096,0.060,-170.959,13.186
16:58:57:702,35.496,0.049,0.103,0.096,0.060,-170.959,13.186
16:58:57:729,35.522,-0.009,-0.072,0.085,1.007,-172.812,16.679
16:58:57:756,35.550,-0.027,-0.094,0.079,1.358,-173.624,19.171
16:58:57:784,35.577,-0.068,-0.095,0.102,1.554,-174.370,20.896
16:58:57:811,35.604,-0.097,-0.096,0.104,1.861,-175.584,23.352
16:58:57:838,35.631,-0.135,-0.149,0.091,2.144,-176.973,25.335
16:58:57:865,35.658,-0.135,-0.149,0.091,2.144,-176.973,25.335
16:58:57:892,35.685,-0.171,-0.209,0.068,2.821,-178.913,27.923
16:58:57:919,35.712,-0.176,-0.227,0.051,2.956,-179.268,28.533
16:58:57:946,35.739,-0.173,-0.230,0.050,2.952,-179.432,29.023
16:58:57:974,35.767,-0.185,-0.131,0.031,2.527,-179.113,28.481
16:58:58:,35.794,-0.205,-0.054,0.041,2.196,-178.761,28.002
16:58:58:028,35.821,-0.172,0.025,0.035,1.625,-177.962,26.631
16:58:58:055,35.848,-0.094,0.052,-0.025,1.220,-177.301,25.270
16:58:58:082,35.875,-0.033,0.248,-0.067,-0.107,-175.293,19.020
16:58:58:109,35.903,0.039,0.332,-0.054,-0.540,-174.422,16.394
16:58:58:136,35.930,0.039,0.332,-0.054,-0.540,-174.422,16.394
16:58:58:164,35.957,0.039,0.332,-0.054,-0.540,-174.422,16.394
16:58:58:192,35.985,0.317,-0.016,-0.123,-0.556,-171.545,6.108
16:58:58:219,36.012,0.330,-0.117,-0.106,-0.251,-171.448,4.572
16:58:58:246,36.039,0.135,-0.028,-0.020,0.407,-171.454,4.020
16:58:58:274,36.067,0.135,-0.028,-0.020,0.407,-171.454,4.020
16:58:58:301,36.094,0.040,0.051,0.008,1.054,-169.032,8.821
16:58:58:328,36.121,-0.010,-0.012,0.013,1.211,-167.626,11.534
16:58:58:355,36.148,-0.010,-0.012,0.013,1.211,-167.626,11.534
16:58:58:382,36.176,-0.020,-0.145,0.033,1.351,-163.762,19.303
16:58:58:41,36.203,-0.020,-0.145,0.033,1.351,-163.762,19.303
16:58:58:437,36.230,-0.096,-0.195,0.008,1.448,-162.017,22.810
16:58:58:465,36.258,-0.110,-0.179,-0.007,1.398,-161.626,23.359
16:58:58:491,36.285,-0.135,-0.199,-0.024,1.146,-161.358,23.464
16:58:58:519,36.312,-0.040,-0.158,-0.068,0.817,-161.255,23.084
16:58:58:545,36.339,-0.005,-0.137,-0.082,0.076,-160.971,21.980
16:58:58:572,36.366,0.012,-0.136,-0.075,-0.583,-161.044,20.447
16:58:58:6,36.393,0.045,-0.117,-0.072,-0.914,-161.289,19.237
16:58:58:627,36.420,0.053,-0.136,-0.083,-1.134,-162.131,17.238
16:58:58:654,36.447,0.053,-0.136,-0.083,-1.134,-162.131,17.238
16:58:58:681,36.475,0.072,0.098,-0.087,-1.389,-164.013,13.380
16:58:58:708,36.501,0.072,0.098,-0.087,-1.389,-164.013,13.380
16:58:58:736,36.530,0.072,0.098,-0.087,-1.389,-164.013,13.380
16:58:58:764,36.557,0.269,0.251,-0.159,-2.319,-163.969,5.669
16:58:58:791,36.585,0.315,0.286,-0.181,-2.812,-163.744,3.844
16:58:58:818,36.612,0.352,0.265,-0.170,-3.168,-163.752,2.443
16:58:58:845,36.639,0.358,0.210,-0.204,-3.339,-163.873,1.674
16:58:58:872,36.665,0.369,0.081,-0.175,-3.342,-163.838,1.179
16:58:58:9,36.694,0.351,-0.069,-0.129,-3.184,-163.998,1.379
16:58:58:928,36.721,0.237,-0.013,-0.098,-2.958,-164.550,2.617
16:58:58:954,36.748,0.217,0.022,-0.077,-2.850,-165.244,4.066
16:58:58:982,36.776,0.111,0.053,-0.022,-2.535,-166.688,7.105
16:58:59:009,36.802,0.046,0.085,0.001,-1.982,-168.773,10.469
16:58:59:036,36.830,0.014,0.107,0.038,-1.440,-170.111,12.696
16:58:59:063,36.857,0.014,0.107,0.038,-1.440,-170.111,12.696
16:58:59:09,36.884,0.014,0.107,0.038,-1.440,-170.111,12.696
16:58:59:117,36.911,0.014,0.107,0.038,-1.440,-170.111,12.696
16:58:59:145,36.938,-0.212,-0.169,0.118,2.706,-174.739,22.489
16:58:59:171,36.965,-0.189,-0.188,0.120,3.220,-174.921,24.248
16:58:59:199,36.992,-0.203,-0.162,0.142,3.822,-175.196,26.618
16:58:59:225,37.019,-0.243,-0.229,0.142,4.242,-175.615,27.957
16:58:59:253,37.046,-0.235,-0.248,0.122,4.967,-176.135,29.565
16:58:59:281,37.074,-0.235,-0.248,0.122,4.967,-176.135,29.565
16:58:59:307,37.101,-0.224,-0.236,0.099,5.741,-176.553,30.915
16:58:59:335,37.128,-0.216,-0.218,0.096,5.797,-176.301,30.910
16:58:59:361,37.155,-0.197,-0.176,0.095,5.467,-175.976,30.140
16:58:59:389,37.182,-0.197,-0.176,0.095,5.467,-175.976,30.140
16:58:59:416,37.209,-0.192,0.017,0.114,4.669,-174.354,28.072
16:58:59:443,37.237,-0.125,0.050,0.087,3.997,-173.035,25.713
16:58:59:471,37.264,-0.125,0.050,0.087,3.997,-173.035,25.713
16:58:59:498,37.292,-0.024,0.195,0.075,2.801,-170.756,19.733
16:58:59:525,37.319,0.162,0.347,0.062,1.603,-167.863,12.568
16:58:59:553,37.346,0.162,0.347,0.062,1.603,-167.863,12.568
16:58:59:58,37.373,0.162,0.347,0.062,1.603,-167.863,12.568
16:58:59:607,37.400,0.321,-0.035,-0.155,1.173,-161.519,4.279
16:58:59:634,37.428,0.334,-0.149,-0.154,0.987,-159.867,3.096
16:58:59:662,37.455,0.269,-0.115,-0.130,0.794,-159.076,2.875
16:58:59:69,37.483,0.201,-0.039,-0.098,0.491,-157.887,3.338
16:58:59:717,37.510,0.156,-0.015,-0.097,0.338,-156.853,4.158
16:58:59:744,37.537,0.125,0.026,-0.086,0.118,-155.227,5.893
16:58:59:771,37.564,0.125,0.026,-0.086,0.118,-155.227,5.893
16:58:59:798,37.592,0.003,-0.046,-0.070,-0.245,-153.025,9.438
16:58:59:825,37.619,0.003,-0.046,-0.070,-0.245,-153.025,9.438
16:58:59:853,37.646,0.003,-0.046,-0.070,-0.245,-153.025,9.438
16:58:59:88,37.673,-0.097,-0.131,-0.063,-0.623,-152.481,13.654
16:58:59:907,37.700,-0.138,-0.123,-0.083,-0.679,-152.718,14.245
16:58:59:934,37.727,-0.136,-0.086,-0.102,-0.783,-153.137,14.769
16:58:59:961,37.754,-0.092,-0.155,-0.076,-0.797,-153.074,14.814
16:58:59:988,37.781,0.003,-0.187,-0.067,-0.747,-152.442,14.547
16:59:00:015,37.809,0.021,-0.186,-0.094,-0.654,-151.679,14.003
16:59:00:043,37.836,0.063,-0.112,-0.083,-0.610,-151.037,13.530
16:59:00:069,37.863,0.082,-0.024,-0.068,-0.692,-150.683,12.622
16:59:00:097,37.890,0.104,0.110,-0.069,-0.977,-150.377,11.573
16:59:00:123,37.917,0.104,0.110,-0.069,-0.977,-150.377,11.573
16:59:00:151,37.944,0.105,0.082,-0.099,-1.551,-149.865,10.034
16:59:00:178,37.971,0.042,0.171,-0.110,-2.479,-148.851,9.271
16:59:00:205,37.999,0.042,0.171,-0.110,-2.479,-148.851,9.271
16:59:00:233,38.027,0.086,0.193,-0.144,-3.088,-147.674,9.156
16:59:00:261,38.054,0.078,0.212,-0.148,-3.440,-146.973,9.053
16:59:00:288,38.081,0.078,0.212,-0.148,-3.440,-146.973,9.053
16:59:00:316,38.109,0.078,0.212,-0.148,-3.440,-146.973,9.053
16:59:00:342,38.136,0.078,0.212,-0.148,-3.440,-146.973,9.053
16:59:00:37,38.163,-0.073,-0.119,-0.071,-3.136,-145.617,9.353
16:59:00:397,38.190,-0.073,-0.119,-0.071,-3.136,-145.617,9.353
16:59:00:424,38.218,-0.037,0.081,0.142,-1.923,-145.028,12.589
16:59:00:452,38.245,-0.037,0.081,0.142,-1.923,-145.028,12.589
16:59:00:479,38.272,-0.032,0.043,0.146,-1.426,-144.393,13.628
16:59:00:506,38.299,-0.076,-0.123,0.127,-0.136,-142.652,16.694
16:59:00:533,38.326,-0.076,-0.123,0.127,-0.136,-142.652,16.694
16:59:00:56,38.353,-0.076,-0.123,0.127,-0.136,-142.652,16.694
16:59:00:587,38.380,-0.063,-0.171,0.119,0.144,-141.286,18.908
16:59:00:614,38.408,-0.063,-0.171,0.119,0.144,-141.286,18.908
16:59:00:642,38.435,-0.053,-0.146,0.083,-0.310,-139.015,19.945
16:59:00:669,38.462,-0.050,-0.118,0.078,-0.366,-138.296,19.809
16:59:00:697,38.491,-0.031,-0.087,0.070,-0.446,-137.311,19.232
16:59:00:724,38.517,-0.014,-0.048,0.044,-0.507,-136.379,18.680
16:59:00:751,38.545,0.007,-0.008,0.003,-0.681,-135.004,17.623
16:59:00:779,38.572,0.024,0.038,-0.005,-0.812,-133.859,16.791
16:59:00:806,38.600,0.024,0.038,-0.005,-0.812,-133.859,16.791
16:59:00:833,38.626,0.024,0.038,-0.005,-0.812,-133.859,16.791
16:59:00:86,38.654,0.074,0.119,-0.108,-1.215,-129.775,12.282
16:59:00:887,38.680,0.074,0.119,-0.108,-1.215,-129.775,12.282
16:59:00:914,38.708,0.074,0.119,-0.108,-1.215,-129.775,12.282
16:59:00:941,38.735,0.158,0.217,-0.197,-1.034,-124.759,6.586
16:59:00:969,38.762,0.165,0.237,-0.230,-0.850,-123.486,5.301
16:59:00:996,38.789,0.165,0.237,-0.230,-0.850,-123.486,5.301
16:59:01:024,38.817,0.165,0.237,-0.230,-0.850,-123.486,5.301
16:59:01:05,38.844,0.165,0.237,-0.230,-0.850,-123.486,5.301
16:59:01:078,38.871,0.022,-0.035,0.033,0.126,-116.083,4.944
16:59:01:105,38.898,0.022,-0.035,0.033,0.126,-116.083,4.944
16:59:01:132,38.926,0.022,-0.035,0.033,0.126,-116.083,4.944
16:59:01:159,38.952,-0.016,-0.016,0.091,0.579,-112.064,10.120
16:59:01:186,38.980,-0.016,-0.016,0.091,0.579,-112.064,10.120
16:59:01:214,39.007,-0.031,-0.098,0.037,0.835,-109.940,12.892
16:59:01:24,39.034,-0.031,-0.098,0.037,0.835,-109.940,12.892
16:59:01:268,39.061,-0.041,-0.107,0.089,0.656,-108.481,14.241
16:59:01:295,39.088,-0.041,-0.107,0.089,0.656,-108.481,14.241
16:59:01:322,39.116,-0.041,-0.107,0.089,0.656,-108.481,14.241
16:59:01:35,39.143,-0.179,-0.074,0.038,0.192,-106.089,14.397
16:59:01:377,39.171,-0.101,-0.145,-0.065,-0.286,-102.886,14.413
16:59:01:405,39.198,-0.101,-0.145,-0.065,-0.286,-102.886,14.413
16:59:01:432,39.225,-0.055,-0.117,-0.175,-0.468,-98.196,13.460
16:59:01:459,39.253,-0.022,-0.084,-0.190,-0.254,-97.779,12.639
16:59:01:486,39.279,-0.009,0.004,-0.150,-0.142,-97.904,12.051
16:59:01:513,39.307,-0.025,0.070,-0.123,-0.100,-98.568,11.058
16:59:01:541,39.334,-0.014,0.155,-0.101,-0.178,-98.474,10.482
16:59:01:567,39.361,-0.024,0.112,-0.107,-0.299,-97.882,9.974
16:59:01:595,39.388,-0.007,0.184,-0.153,-0.549,-96.282,9.941
16:59:01:622,39.415,-0.024,0.124,-0.191,-0.721,-95.273,9.923
16:59:01:649,39.442,-0.030,0.136,-0.207,-0.996,-93.650,9.816
16:59:01:676,39.469,-0.039,0.190,-0.203,-1.204,-93.075,9.590
16:59:01:703,39.496,-0.041,0.054,-0.187,-1.353,-91.802,9.098
16:59:01:73,39.523,-0.029,-0.053,-0.181,-1.139,-90.842,9.359
16:59:01:757,39.550,-0.059,-0.113,-0.105,-0.915,-90.650,10.222
16:59:01:785,39.578,0.000,-0.021,-0.041,-0.816,-90.782,11.038
16:59:01:812,39.605,0.031,-0.002,0.041,-0.558,-90.912,12.472
16:59:01:839,39.632,0.031,-0.002,0.041,-0.558,-90.912,12.472
16:59:01:867,39.660,0.031,-0.002,0.041,-0.558,-90.912,12.472
16:59:01:894,39.687,0.097,0.094,0.104,0.224,-90.854,14.841
16:59:01:921,39.714,0.105,0.011,0.149,0.856,-90.901,16.187
16:59:01:948,39.742,0.076,-0.150,0.147,1.733,-90.611,18.615
16:59:01:975,39.768,0.071,-0.189,0.156,1.895,-90.343,19.562
16:59:02:003,39.796,0.076,-0.208,0.136,2.044,-90.139,20.777
16:59:02:03,39.824,0.081,-0.204,0.115,2.143,-89.964,21.548
16:59:02:057,39.850,0.081,-0.204,0.115,2.143,-89.964,21.548
16:59:02:084,39.878,0.057,-0.172,0.113,1.953,-89.903,21.182
16:59:02:111,39.904,0.057,-0.172,0.113,1.953,-89.903,21.182
16:59:02:138,39.932,0.038,-0.060,0.037,1.782,-89.216,19.959
16:59:02:165,39.958,0.038,-0.060,0.037,1.782,-89.216,19.959
16:59:02:193,39.986,0.038,-0.060,0.037,1.782,-89.216,19.959
16:59:02:221,40.014,0.038,-0.060,0.037,1.782,-89.216,19.959
16:59:02:247,40.041,0.038,-0.060,0.037,1.782,-89.216,19.959
16:59:02:275,40.068,0.001,0.048,-0.067,1.085,-86.835,15.949
16:59:02:302,40.095,0.001,0.048,-0.067,1.085,-86.835,15.949
16:59:02:329,40.122,-0.017,0.181,-0.181,0.499,-83.990,9.505
16:59:02:356,40.149,-0.014,0.319,-0.189,0.477,-82.589,7.654
16:59:02:383,40.176,-0.034,0.245,-0.265,0.819,-79.594,5.543
16:59:02:41,40.203,-0.034,0.245,-0.265,0.819,-78.399,5.128
16:59:02:437,40.231,-0.087,0.097,-0.303,1.124,-78.399,5.128
16:59:02:464,40.258,-0.056,-0.132,-0.145,2.049,-76.841,5.486
16:59:02:491,40.285,-0.056,-0.132,-0.145,2.049,-76.841,5.486
16:59:02:519,40.313,0.016,-0.090,-0.079,2.247,-76.826,6.153
16:59:02:547,40.340,0.129,-0.002,0.082,2.726,-76.163,8.012
16:59:02:574,40.367,0.149,-0.056,0.090,3.826,-72.598,12.721
16:59:02:601,40.394,0.066,-0.191,0.009,4.487,-68.612,17.104
16:59:02:627,40.421,0.073,-0.240,0.044,4.566,-67.716,18.354
16:59:02:655,40.448,0.090,-0.242,0.093,4.519,-67.696,18.587
16:59:02:683,40.476,0.123,-0.179,0.106,4.208,-68.135,18.383
16:59:02:71,40.503,0.106,-0.153,0.083,3.907,-68.401,18.037
16:59:02:737,40.530,0.106,-0.153,0.083,3.907,-68.401,18.037
16:59:02:764,40.557,-0.024,-0.110,-0.020,2.669,-68.499,15.980
16:59:02:791,40.585,-0.024,-0.110,-0.020,2.669,-68.499,15.980
16:59:02:818,40.611,-0.137,-0.140,-0.092,1.402,-68.971,13.244
16:59:02:846,40.639,-0.154,-0.053,-0.126,0.826,-69.435,12.017
16:59:02:873,40.666,-0.144,0.048,-0.121,-0.101,-70.385,10.124
16:59:02:9,40.693,-0.127,0.162,-0.166,-0.969,-71.071,8.370
16:59:02:927,40.720,-0.144,0.226,-0.207,-1.444,-71.389,7.318
16:59:02:954,40.747,-0.168,0.175,-0.185,-1.814,-71.939,6.146
16:59:02:981,40.774,-0.166,0.230,-0.157,-1.989,-72.095,5.631
16:59:03:008,40.801,-0.164,0.185,-0.149,-2.178,-71.923,5.323
16:59:03:035,40.828,-0.121,0.221,-0.201,-2.233,-71.491,5.460
16:59:03:062,40.855,-0.117,0.239,-0.192,-2.244,-70.542,5.819
16:59:03:09,40.883,-0.068,0.124,-0.168,-2.009,-69.810,6.416
16:59:03:117,40.910,-0.041,-0.014,-0.141,-1.698,-69.294,6.984
16:59:03:144,40.937,-0.016,-0.112,-0.099,-1.117,-68.910,8.192
16:59:03:171,40.964,0.010,-0.098,-0.058,-0.784,-69.020,9.147
16:59:03:199,40.992,0.048,-0.039,-0.023,-0.230,-69.768,10.665
16:59:03:226,41.019,0.149,0.079,0.022,0.442,-71.026,12.025
16:59:03:253,41.046,0.205,0.073,0.083,0.995,-71.840,12.866
16:59:03:28,41.074,0.204,0.035,0.126,1.858,-72.476,14.205
16:59:03:307,41.101,0.169,-0.163,0.125,3.012,-72.441,16.787
16:59:03:334,41.128,0.164,-0.206,0.086,3.259,-72.276,17.686
16:59:03:362,41.155,0.156,-0.209,0.057,3.464,-72.153,18.667
16:59:03:389,41.182,0.183,-0.226,0.090,3.626,-72.434,19.096
16:59:03:417,41.210,0.129,-0.226,0.052,3.450,-72.821,18.852
16:59:03:444,41.237,0.129,-0.226,0.052,3.450,-72.821,18.852
16:59:03:471,41.264,0.114,-0.110,0.013,3.415,-73.799,17.771
16:59:03:498,41.291,0.098,-0.085,-0.007,3.266,-74.126,16.741
16:59:03:525,41.318,0.098,-0.085,-0.007,3.266,-74.126,16.741
16:59:03:553,41.346,0.095,0.022,-0.021,2.877,-74.371,14.650
16:59:03:581,41.374,0.117,0.165,-0.027,2.518,-73.925,13.240
16:59:03:607,41.401,0.117,0.165,-0.027,2.518,-73.925,13.240
16:59:03:634,41.428,0.004,0.110,-0.135,2.098,-72.751,10.899
16:59:03:662,41.455,-0.044,0.107,-0.153,1.835,-72.112,9.340
16:59:03:689,41.483,-0.024,0.246,-0.172,1.547,-71.812,8.150
16:59:03:716,41.510,-0.043,0.211,-0.188,1.221,-70.971,6.399
16:59:03:744,41.537,-0.089,0.153,-0.239,1.114,-70.633,5.390
16:59:03:771,41.564,-0.098,0.147,-0.217,0.954,-69.293,4.191
16:59:03:798,41.591,-0.152,-0.024,-0.221,0.886,-68.628,3.754
16:59:03:825,41.618,-0.162,-0.096,-0.202,0.849,-68.090,3.817
16:59:03:853,41.647,-0.162,-0.096,-0.202,0.849,-68.090,3.817
00:00:00:,41.673,0.070,0.022,0.124,1.035,-68.426,7.161
16:59:03:907,41.701,0.070,0.022,0.124,1.035,-68.426,7.161
16:59:03:934,41.728,0.032,-0.063,0.093,1.605,-65.731,11.905
16:59:03:962,41.755,0.032,-0.063,0.093,1.605,-65.731,11.905
16:59:03:989,41.783,0.031,-0.089,0.114,1.887,-64.519,14.582
16:59:04:017,41.810,0.014,-0.205,0.096,2.372,-63.720,17.600
16:59:04:043,41.837,0.045,-0.194,0.127,2.522,-63.462,18.278
16:59:04:071,41.864,0.045,-0.194,0.127,2.522,-63.462,18.278
16:59:04:097,41.891,0.011,-0.096,0.128,2.626,-62.553,19.101
16:59:04:125,41.918,-0.018,-0.103,0.055,2.258,-60.501,19.262
16:59:04:152,41.945,-0.018,-0.103,0.055,2.258,-60.501,19.262
16:59:04:179,41.972,-0.066,-0.101,-0.079,1.677,-56.208,18.293
16:59:04:207,42.000,-0.082,-0.152,-0.063,1.585,-54.907,17.282
16:59:04:234,42.027,-0.095,-0.107,-0.088,1.500,-54.758,16.454
16:59:04:261,42.054,-0.056,0.017,-0.059,1.243,-54.800,15.225
16:59:04:288,42.082,-0.056,0.017,-0.059,1.243,-54.800,15.225
16:59:04:316,42.109,-0.046,0.180,-0.095,0.307,-55.223,12.267
16:59:04:343,42.136,-0.092,0.111,-0.096,-0.125,-54.962,10.653
16:59:04:37,42.164,-0.119,0.268,-0.096,-0.558,-54.134,9.730
16:59:04:397,42.190,-0.157,0.261,-0.118,-1.211,-52.736,8.772
16:59:04:424,42.218,-0.215,0.219,-0.179,-1.712,-51.460,8.198
16:59:04:451,42.244,-0.250,0.210,-0.175,-1.978,-50.877,7.860
16:59:04:478,42.272,-0.254,0.109,-0.156,-2.183,-50.362,7.496
16:59:04:506,42.299,-0.222,-0.134,-0.138,-2.034,-50.412,7.501
16:59:04:533,42.326,-0.146,-0.091,-0.040,-1.827,-50.850,8.105
16:59:04:561,42.354,-0.093,0.045,-0.062,-1.581,-51.634,9.302
16:59:04:588,42.381,-0.048,0.081,-0.003,-1.290,-52.294,10.449
16:59:04:615,42.408,0.060,0.110,-0.008,-0.564,-53.126,12.303
16:59:04:642,42.435,0.141,0.049,0.071,1.240,-53.893,15.852
16:59:04:669,42.462,0.141,0.049,0.071,1.240,-53.893,15.852
16:59:04:696,42.490,0.173,-0.145,0.100,2.931,-53.590,19.593
16:59:04:723,42.516,0.158,-0.169,0.092,3.555,-52.728,21.848
16:59:04:751,42.544,0.158,-0.169,0.092,3.555,-52.728,21.848
16:59:04:778,42.571,0.174,-0.164,0.081,3.798,-52.165,23.172
16:59:04:805,42.598,0.201,-0.154,0.082,4.070,-51.496,24.806
16:59:04:832,42.625,0.173,-0.189,0.096,4.688,-49.850,27.002
16:59:04:859,42.652,0.173,-0.189,0.096,4.688,-49.850,27.002
16:59:04:886,42.679,0.194,-0.116,0.075,4.525,-47.960,26.561
16:59:04:913,42.706,0.179,-0.074,0.054,4.321,-46.856,26.047
16:59:04:94,42.733,0.179,-0.074,0.054,4.321,-46.856,26.047
16:59:04:967,42.760,0.141,0.097,0.017,3.510,-42.992,23.011
16:59:04:995,42.789,0.141,0.097,0.017,3.510,-42.992,23.011
16:59:05:023,42.816,0.087,0.211,-0.058,2.869,-39.750,18.461
16:59:05:05,42.843,0.087,0.211,-0.058,2.869,-39.750,18.461
16:59:05:077,42.870,-0.062,0.305,-0.143,2.366,-35.798,12.839
16:59:05:104,42.897,-0.174,0.296,-0.170,2.287,-34.146,10.589
16:59:05:131,42.924,-0.174,0.296,-0.170,2.287,-34.146,10.589
16:59:05:158,42.952,-0.303,-0.153,-0.123,2.453,-29.510,5.833
16:59:05:185,42.978,-0.237,-0.190,-0.104,2.407,-28.070,5.244
16:59:05:212,43.006,-0.108,-0.072,-0.077,2.157,-26.242,5.545
16:59:05:24,43.033,-0.009,0.051,-0.073,2.007,-24.773,6.632
16:59:05:267,43.060,0.090,0.075,-0.039,1.823,-22.325,9.377
16:59:05:294,43.088,0.087,0.053,-0.010,1.739,-19.713,12.768
16:59:05:321,43.114,0.084,-0.021,0.037,1.712,-18.070,14.983
16:59:05:348,43.142,0.084,-0.021,0.037,1.712,-18.070,14.983
16:59:05:376,43.169,0.086,-0.179,0.064,1.690,-14.688,18.972
16:59:05:403,43.196,0.133,-0.226,0.114,1.582,-13.119,20.041
16:59:05:43,43.223,0.103,-0.139,0.144,0.944,-10.760,20.068
16:59:05:457,43.250,0.103,-0.139,0.144,0.944,-10.760,20.068
16:59:05:484,43.277,-0.011,-0.135,0.073,0.052,-7.395,18.661
16:59:05:511,43.305,-0.121,-0.126,0.024,-0.186,-5.591,17.624
16:59:05:538,43.331,-0.121,-0.126,0.024,-0.186,-5.591,17.624
16:59:05:566,43.359,-0.107,-0.063,0.032,0.298,-5.283,15.335
16:59:05:593,43.386,-0.081,0.086,0.018,0.314,-5.731,13.428
16:59:05:62,43.413,-0.088,0.137,0.021,0.208,-5.925,12.041
16:59:05:647,43.440,-0.187,0.203,-0.016,-0.110,-5.316,9.977
16:59:05:674,43.468,-0.214,0.193,0.016,-0.330,-4.591,8.782
16:59:05:702,43.495,-0.245,0.240,0.031,-0.800,-3.310,7.306
16:59:05:728,43.522,-0.261,0.161,0.046,-1.083,-2.582,6.706
16:59:05:755,43.549,-0.296,0.168,0.027,-1.536,-1.803,6.258
16:59:05:783,43.576,-0.280,0.198,0.060,-1.922,-1.357,6.294
16:59:05:81,43.603,-0.273,0.094,0.073,-2.029,-1.208,6.622
16:59:05:836,43.630,-0.210,-0.107,0.069,-1.940,-1.318,7.657
16:59:05:864,43.657,-0.144,-0.104,0.077,-1.813,-1.839,8.640
16:59:05:891,43.684,-0.144,-0.104,0.077,-1.813,-1.839,8.640
16:59:05:919,43.712,0.045,0.067,-0.012,-1.272,-4.663,12.267
16:59:05:946,43.739,0.078,0.108,-0.057,-0.835,-5.534,13.557
16:59:05:973,43.766,0.127,0.128,-0.079,0.127,-6.550,15.498
16:59:06:001,43.794,0.183,0.047,-0.068,0.921,-7.064,16.817
16:59:06:028,43.821,0.210,-0.049,-0.053,2.065,-7.781,18.858
16:59:06:055,43.848,0.202,-0.159,-0.057,3.001,-8.119,21.073
16:59:06:082,43.875,0.212,-0.162,-0.056,3.434,-8.295,22.525
16:59:06:109,43.902,0.236,-0.137,-0.103,3.885,-8.527,24.467
16:59:06:136,43.929,0.236,-0.137,-0.103,3.885,-8.527,24.467
16:59:06:163,43.956,0.311,-0.189,-0.093,4.628,-8.917,27.020
16:59:06:19,43.984,0.311,-0.189,-0.093,4.628,-8.917,27.020
16:59:06:217,44.011,0.260,-0.243,-0.068,5.146,-8.623,28.720
16:59:06:244,44.037,0.260,-0.243,-0.068,5.146,-8.623,28.720
16:59:06:271,44.065,0.246,-0.075,-0.088,4.431,-6.541,28.343
16:59:06:298,44.091,0.222,0.029,-0.087,4.035,-5.699,27.720
16:59:06:325,44.119,0.182,0.106,-0.063,3.396,-4.431,26.297
16:59:06:352,44.146,0.131,0.118,-0.001,2.775,-3.304,24.176
16:59:06:38,44.173,0.131,0.118,-0.001,2.775,-3.304,24.176
16:59:06:406,44.200,0.068,0.234,-0.053,1.696,-1.053,19.258
16:59:06:434,44.228,0.013,0.290,-0.042,1.266,0.214,16.935
16:59:06:461,44.254,-0.125,0.366,-0.013,0.874,2.358,13.347
16:59:06:489,44.283,-0.245,0.197,0.022,0.834,4.409,9.948
16:59:06:517,44.310,-0.279,0.053,0.051,1.016,5.570,8.001
16:59:06:543,44.337,-0.284,-0.158,0.077,1.344,6.885,5.892
16:59:06:571,44.364,-0.284,-0.158,0.077,1.344,6.885,5.892
16:59:06:598,44.392,-0.102,-0.051,-0.025,1.559,8.083,4.848
16:59:06:626,44.419,-0.054,-0.029,-0.046,1.695,9.593,6.030
16:59:06:652,44.446,-0.009,-0.001,-0.038,1.769,11.054,7.439
16:59:06:68,44.473,0.008,0.000,-0.029,1.752,13.410,10.090
16:59:06:707,44.500,-0.032,-0.057,-0.017,1.669,14.921,11.927
16:59:06:734,44.527,-0.052,-0.124,0.001,1.557,16.504,14.352
16:59:06:762,44.555,0.064,-0.187,-0.013,1.501,17.159,15.519
16:59:06:788,44.582,0.107,-0.195,-0.004,1.384,17.475,16.692
16:59:06:816,44.609,0.107,-0.195,-0.004,1.384,17.475,16.692
16:59:06:843,44.636,0.075,-0.094,0.001,0.943,17.549,17.773
16:59:06:871,44.664,0.078,-0.117,0.026,0.625,17.344,17.988
16:59:06:897,44.691,0.055,-0.142,0.080,0.378,17.225,17.965
16:59:06:925,44.718,-0.026,-0.116,0.114,-0.551,16.851,17.194
16:59:06:953,44.746,-0.023,-0.025,0.100,-0.902,16.690,16.721
16:59:06:979,44.773,-0.023,-0.025,0.100,-0.902,16.690,16.721
16:59:07:007,44.800,-0.066,0.190,0.060,-1.579,16.037,15.243
16:59:07:034,44.827,-0.085,0.174,0.073,-1.693,15.656,14.194
16:59:07:061,44.855,-0.089,0.106,0.096,-1.719,15.460,13.531
16:59:07:088,44.881,-0.089,0.106,0.096,-1.719,15.460,13.531
16:59:07:116,44.910,-0.079,0.207,0.076,-2.285,14.759,11.920
16:59:07:144,44.937,-0.126,0.214,0.077,-2.424,14.492,11.499
16:59:07:171,44.964,-0.133,0.144,0.080,-2.412,13.669,10.516
16:59:07:198,44.991,-0.133,0.144,0.080,-2.412,13.669,10.516
16:59:07:225,45.018,-0.068,-0.049,0.019,-1.496,11.832,10.901
16:59:07:252,45.046,-0.068,-0.049,0.019,-1.496,11.832,10.901
16:59:07:279,45.072,0.005,-0.026,-0.022,-1.164,11.137,11.669
16:59:07:306,45.100,0.131,0.017,-0.094,-0.041,9.287,14.662
16:59:07:333,45.126,0.103,-0.005,-0.105,0.959,8.286,16.672
16:59:07:361,45.154,0.147,-0.005,-0.153,1.973,7.619,18.384
16:59:07:388,45.181,0.147,-0.005,-0.153,1.973,7.619,18.384
16:59:07:415,45.208,0.191,-0.094,-0.145,3.458,6.807,21.073
16:59:07:442,45.235,0.183,-0.148,-0.148,3.893,6.524,22.138
16:59:07:469,45.262,0.176,-0.146,-0.143,4.340,6.146,23.613
16:59:07:496,45.289,0.176,-0.144,-0.153,4.533,5.718,24.378
16:59:07:523,45.317,0.164,-0.177,-0.133,4.884,5.046,25.150
16:59:07:551,45.344,0.140,-0.190,-0.106,5.163,4.090,25.393
16:59:07:578,45.372,0.132,-0.196,-0.089,5.275,3.700,25.286
16:59:07:605,45.399,0.090,-0.179,-0.085,5.300,3.129,24.837
16:59:07:633,45.426,0.080,-0.141,-0.064,5.243,2.943,24.351
16:59:07:66,45.454,0.083,-0.053,-0.081,5.059,2.700,23.343
16:59:07:688,45.481,0.082,0.000,-0.090,4.886,2.707,22.522
16:59:07:714,45.508,0.082,0.068,-0.112,4.554,2.971,21.101
16:59:07:742,45.535,0.006,0.154,-0.041,3.894,3.727,18.264
16:59:07:768,45.562,0.006,0.154,-0.041,3.894,3.727,18.264
16:59:07:795,45.589,-0.040,0.254,-0.054,3.208,4.532,14.627
16:59:07:823,45.616,-0.098,0.216,-0.029,2.883,5.034,12.300
16:59:07:849,45.643,-0.108,0.177,-0.028,2.695,6.100,10.194
16:59:07:877,45.671,-0.107,0.228,-0.036,2.548,6.769,9.016
16:59:07:904,45.697,-0.138,-0.046,0.024,2.579,7.988,7.986
16:59:07:931,45.725,-0.140,-0.161,0.061,2.700,8.566,7.817
16:59:07:959,45.752,-0.057,-0.183,0.032,2.734,9.205,7.945
16:59:07:985,45.779,0.018,-0.052,-0.006,2.565,9.683,8.448
16:59:08:013,45.806,0.052,0.005,-0.041,2.425,10.259,9.110
16:59:08:039,45.833,0.083,0.011,-0.036,2.303,11.203,10.519
16:59:08:067,45.860,0.083,0.011,-0.036,2.303,11.203,10.519
16:59:08:093,45.887,0.133,-0.063,-0.005,2.223,12.421,13.356
16:59:08:121,45.915,0.094,-0.167,0.017,2.213,12.664,14.798
16:59:08:148,45.941,0.105,-0.185,0.005,2.165,12.634,15.492
16:59:08:175,45.969,0.120,-0.198,0.002,2.068,12.719,16.083
16:59:08:203,45.996,0.082,-0.118,-0.008,1.979,12.731,16.201
16:59:08:231,46.024,0.061,-0.087,0.002,1.805,12.906,16.020
16:59:08:258,46.051,0.027,-0.086,0.012,1.697,12.616,15.715
16:59:08:285,46.078,0.017,-0.109,0.031,1.561,12.573,15.125
16:59:08:312,46.106,-0.018,-0.112,0.040,1.402,12.168,14.398
16:59:08:34,46.133,-0.005,-0.087,0.048,1.236,11.924,13.824
16:59:08:367,46.160,-0.047,-0.029,0.044,0.949,11.321,12.882
16:59:08:395,46.188,-0.056,0.058,0.039,0.725,11.224,12.164
16:59:08:421,46.215,-0.070,0.116,0.038,0.388,11.127,11.043
16:59:08:449,46.242,-0.108,0.161,0.061,0.067,10.951,9.994
16:59:08:476,46.269,-0.097,0.144,0.075,-0.429,11.347,8.736
16:59:08:503,46.296,-0.126,0.149,0.058,-0.717,11.589,8.392
16:59:08:53,46.323,-0.126,0.149,0.058,-0.717,11.589,8.392
16:59:08:557,46.350,-0.166,0.076,0.076,-0.984,11.882,8.142
16:59:08:584,46.378,-0.143,0.132,0.098,-1.275,11.715,7.651
16:59:08:612,46.405,-0.137,0.033,0.066,-1.263,11.304,7.613
16:59:08:639,46.433,-0.134,-0.047,0.054,-1.173,11.116,7.846
16:59:08:667,46.460,-0.097,-0.028,0.026,-0.954,10.506,8.677
16:59:08:694,46.487,-0.041,0.055,0.003,-0.778,9.715,9.468
16:59:08:721,46.514,-0.041,0.055,0.003,-0.778,9.715,9.468
16:59:08:749,46.542,0.024,0.104,-0.082,-0.314,8.324,10.890
16:59:08:776,46.569,0.024,0.104,-0.082,-0.314,8.324,10.890
16:59:08:803,46.596,0.104,-0.090,-0.105,2.336,5.132,14.967
16:59:08:83,46.623,0.104,-0.090,-0.105,2.336,5.132,14.967
16:59:08:858,46.651,0.132,-0.200,-0.111,3.645,3.969,17.841
16:59:08:885,46.679,0.143,-0.172,-0.130,3.989,3.541,18.892
16:59:08:912,46.706,0.143,-0.172,-0.130,3.989,3.541,18.892
16:59:08:939,46.733,0.149,-0.148,-0.148,4.763,2.063,20.942
16:59:08:967,46.760,0.149,-0.148,-0.148,4.763,2.063,20.942
16:59:08:994,46.787,0.140,-0.155,-0.123,5.091,1.216,21.548
16:59:09:021,46.815,0.118,-0.184,-0.126,5.095,1.008,21.557
16:59:09:048,46.842,0.115,-0.098,-0.126,4.919,0.916,21.162
16:59:09:075,46.868,0.114,0.080,-0.135,4.545,0.765,20.429
16:59:09:103,46.896,0.114,0.080,-0.135,4.545,0.765,20.429
16:59:09:13,46.923,0.094,0.133,-0.142,3.733,1.041,18.794
16:59:09:157,46.950,0.094,0.133,-0.142,3.733,1.041,18.794
16:59:09:184,46.977,-0.017,0.297,-0.055,1.799,3.464,15.236
16:59:09:211,47.004,-0.083,0.280,0.000,1.338,4.423,14.134
16:59:09:237,47.031,-0.083,0.280,0.000,1.338,4.423,14.134
16:59:09:265,47.059,-0.205,0.014,0.161,0.402,6.573,11.531
16:59:09:292,47.085,-0.205,0.014,0.161,0.402,6.573,11.531
16:59:09:319,47.113,-0.205,0.014,0.161,0.402,6.573,11.531
16:59:09:347,47.140,-0.205,0.014,0.161,0.402,6.573,11.531
16:59:09:374,47.167,0.198,-0.008,-0.037,0.574,6.903,14.437
16:59:09:401,47.194,0.203,-0.038,-0.029,1.335,8.226,17.423
16:59:09:428,47.221,0.161,-0.094,0.009,1.795,9.373,19.466
16:59:09:455,47.248,0.161,-0.094,0.009,1.795,9.373,19.466
16:59:09:482,47.275,0.137,-0.211,-0.006,2.710,12.070,23.556
16:59:09:509,47.303,0.137,-0.211,-0.006,2.710,12.070,23.556
16:59:09:537,47.330,0.155,-0.191,-0.046,2.800,13.112,23.838
16:59:09:564,47.358,0.087,-0.147,-0.033,2.627,13.609,23.485
16:59:09:591,47.384,0.087,-0.147,-0.033,2.627,13.609,23.485
16:59:09:618,47.412,0.087,-0.147,-0.033,2.627,13.609,23.485
16:59:09:645,47.439,-0.032,-0.132,0.029,1.824,14.735,20.130
16:59:09:673,47.466,-0.040,-0.110,0.041,1.491,14.801,18.349
16:59:09:7,47.494,-0.057,-0.014,0.035,1.231,14.766,17.135
16:59:09:727,47.520,-0.057,-0.014,0.035,1.231,14.766,17.135
16:59:09:754,47.548,-0.126,0.187,0.073,0.279,14.851,13.855
16:59:09:781,47.574,-0.165,0.231,0.108,-0.339,15.294,11.880
16:59:09:808,47.602,-0.165,0.231,0.108,-0.339,15.294,11.880
16:59:09:835,47.628,-0.171,0.108,0.148,-1.157,15.671,9.396
16:59:09:862,47.656,-0.162,0.210,0.115,-1.761,15.789,8.534
16:59:09:89,47.683,-0.209,0.205,0.108,-2.032,16.047,8.368
16:59:09:916,47.710,-0.240,0.200,0.115,-2.170,15.904,8.370
16:59:09:944,47.737,-0.193,-0.009,0.106,-1.746,15.059,9.095
16:59:09:971,47.764,-0.125,-0.001,0.058,-1.386,13.849,10.121
16:59:09:998,47.791,-0.125,-0.001,0.058,-1.386,13.849,10.121
16:59:10:025,47.818,0.010,0.122,-0.070,-0.530,10.806,12.867
16:59:10:052,47.845,0.080,0.093,-0.135,0.055,9.475,14.142
16:59:10:08,47.873,0.080,0.093,-0.135,0.055,9.475,14.142
16:59:10:106,47.900,0.142,-0.047,-0.099,2.427,6.576,18.543
16:59:10:134,47.927,0.142,-0.047,-0.099,2.427,6.576,18.543
16:59:10:161,47.955,0.219,-0.202,-0.117,4.023,5.499,22.630
16:59:10:189,47.982,0.206,-0.184,-0.101,4.396,5.373,24.260
16:59:10:217,48.010,0.233,-0.107,-0.153,4.725,5.142,26.388
16:59:10:244,48.037,0.272,-0.193,-0.160,5.037,5.011,28.104
16:59:10:272,48.065,0.264,-0.248,-0.133,5.279,5.017,29.079
16:59:10:298,48.092,0.241,-0.216,-0.091,5.470,5.197,30.155
16:59:10:326,48.120,0.220,-0.240,-0.075,5.486,5.385,30.535
16:59:10:353,48.147,0.220,-0.240,-0.075,5.486,5.385,30.535
16:59:10:38,48.174,0.264,0.012,-0.109,4.756,6.564,29.855
16:59:10:408,48.201,0.264,0.012,-0.109,4.756,6.564,29.855
16:59:10:435,48.228,0.242,0.090,-0.105,3.833,8.377,27.712
16:59:10:462,48.256,0.242,0.090,-0.105,3.833,8.377,27.712
16:59:10:489,48.282,0.173,0.219,-0.109,2.785,11.483,24.394
16:59:10:516,48.310,0.075,0.244,-0.083,2.340,13.072,22.695
16:59:10:543,48.336,-0.005,0.200,-0.023,1.913,15.547,19.848
16:59:10:571,48.364,-0.005,0.200,-0.023,1.913,15.547,19.848
16:59:10:598,48.391,-0.167,0.045,0.135,1.524,18.898,14.581
16:59:10:625,48.419,-0.209,-0.127,0.118,1.450,19.962,11.905
16:59:10:652,48.446,-0.209,-0.127,0.118,1.450,19.962,11.905
16:59:10:68,48.473,-0.110,0.023,-0.013,1.144,21.132,9.431
16:59:10:707,48.500,-0.066,0.063,-0.029,1.134,21.924,9.571
16:59:10:734,48.527,0.048,0.008,0.006,0.931,25.475,12.978
16:59:10:762,48.555,0.048,0.008,0.006,0.931,25.475,12.978
16:59:10:789,48.583,0.048,0.008,0.006,0.931,25.475,12.978
16:59:10:817,48.610,0.090,-0.183,0.006,0.105,28.755,17.616
16:59:10:844,48.637,0.090,-0.183,0.006,0.105,28.755,17.616
16:59:10:871,48.664,0.090,-0.183,0.006,0.105,28.755,17.616
16:59:10:898,48.691,0.119,-0.146,0.072,-1.006,29.913,18.799
16:59:10:925,48.718,0.119,-0.146,0.072,-1.006,29.913,18.799
16:59:10:952,48.746,0.033,-0.171,0.086,-1.737,30.457,17.756
16:59:10:979,48.773,0.033,-0.171,0.086,-1.737,30.457,17.756
16:59:11:006,48.800,-0.001,-0.061,0.110,-2.190,30.050,15.712
16:59:11:034,48.827,0.000,0.019,0.093,-2.348,29.885,14.954
16:59:11:061,48.854,-0.034,0.059,0.099,-2.589,29.961,13.886
16:59:11:088,48.881,-0.039,0.148,0.110,-2.817,30.253,13.285
16:59:11:115,48.909,-0.040,0.130,0.116,-3.178,30.896,12.667
16:59:11:142,48.936,0.020,0.158,0.116,-3.627,31.456,12.502
16:59:11:17,48.963,0.027,0.278,0.115,-4.038,31.652,12.472
16:59:11:197,48.990,-0.014,0.253,0.160,-4.523,32.139,12.546
16:59:11:224,49.018,-0.018,0.247,0.165,-4.779,32.439,12.464
16:59:11:251,49.044,-0.030,0.229,0.180,-5.034,32.682,12.322
16:59:11:278,49.072,0.008,-0.004,0.143,-4.846,32.399,12.319
16:59:11:305,49.099,0.008,-0.004,0.143,-4.846,32.399,12.319
16:59:11:333,49.126,0.106,-0.073,0.042,-3.966,30.767,13.965
16:59:11:36,49.153,0.133,-0.010,-0.019,-3.654,30.514,15.051
16:59:11:386,49.180,0.133,-0.010,-0.019,-3.654,30.514,15.051
16:59:11:417,49.210,0.119,0.046,-0.121,-2.422,30.564,18.142
16:59:11:443,49.237,0.136,0.030,-0.165,-1.441,30.960,19.958
16:59:11:471,49.264,0.200,-0.082,-0.182,-0.072,31.820,22.929
16:59:11:498,49.291,0.200,-0.082,-0.182,-0.072,31.820,22.929
16:59:11:525,49.318,0.180,-0.199,-0.194,0.320,33.262,26.027
16:59:11:552,49.345,0.180,-0.199,-0.194,0.320,33.262,26.027
16:59:11:579,49.372,0.180,-0.199,-0.194,0.320,33.262,26.027
16:59:11:606,49.399,0.180,-0.199,-0.194,0.320,33.262,26.027
16:59:11:633,49.426,0.180,-0.199,-0.194,0.320,33.262,26.027
16:59:11:66,49.454,0.180,-0.199,-0.194,0.320,33.262,26.027
16:59:11:688,49.482,0.180,-0.199,-0.194,0.320,33.262,26.027
16:59:11:716,49.509,0.174,-0.204,-0.171,-0.018,35.319,27.665
16:59:11:743,49.537,0.130,-0.164,-0.122,-0.473,37.087,26.374
16:59:11:77,49.563,0.101,-0.070,-0.087,-0.985,39.107,24.735
16:59:11:797,49.591,0.002,0.161,0.036,-2.194,44.490,17.277
16:59:11:824,49.618,0.002,0.161,0.036,-2.194,44.490,17.277
16:59:11:852,49.645,-0.069,0.261,0.060,-2.356,47.354,12.743
16:59:11:879,49.672,-0.105,0.352,0.115,-2.405,49.666,9.955
16:59:11:905,49.699,-0.138,0.260,0.176,-2.273,51.376,8.315
16:59:11:933,49.726,-0.152,0.267,0.257,-2.064,54.099,6.201
16:59:11:96,49.753,-0.124,0.097,0.263,-1.871,55.808,5.200
16:59:11:988,49.781,-0.078,-0.199,0.199,-1.494,57.968,4.686
16:59:12:015,49.808,-0.048,-0.231,0.110,-1.338,59.154,4.903
16:59:12:042,49.835,-0.030,-0.018,-0.016,-1.339,63.035,7.592
16:59:12:069,49.863,-0.030,-0.018,-0.016,-1.339,63.035,7.592
16:59:12:096,49.889,-0.006,-0.002,-0.022,-1.381,64.777,9.035
16:59:12:123,49.917,0.046,-0.045,-0.017,-1.555,68.686,12.982
16:59:12:15,49.944,0.046,-0.045,-0.017,-1.555,68.686,12.982
16:59:12:177,49.970,0.067,-0.160,0.003,-1.761,70.234,15.008
16:59:12:204,49.998,0.116,-0.151,-0.041,-2.254,71.157,17.106
16:59:12:232,50.026,0.116,-0.151,-0.041,-2.254,71.157,17.106
16:59:12:259,50.052,0.116,-0.151,-0.041,-2.254,71.157,17.106
16:59:12:286,50.080,0.204,-0.130,0.023,-3.435,73.075,18.003
16:59:12:314,50.107,0.017,-0.115,0.150,-3.822,75.064,17.878
16:59:12:341,50.135,0.017,-0.115,0.150,-3.822,75.064,17.878
16:59:12:369,50.162,0.017,-0.115,0.150,-3.822,75.064,17.878
16:59:12:396,50.189,0.007,-0.080,0.108,-2.862,78.033,16.611
16:59:12:423,50.217,0.033,0.027,0.051,-2.515,76.987,15.622
16:59:12:451,50.244,0.025,0.081,0.044,-2.570,76.392,14.662
16:59:12:477,50.271,0.030,0.145,0.096,-2.961,76.222,13.061
16:59:12:505,50.298,0.043,0.112,0.149,-3.613,76.939,11.607
16:59:12:531,50.325,0.058,0.130,0.117,-4.157,77.640,10.840
16:59:12:559,50.352,0.100,0.215,0.158,-5.023,78.726,10.024
16:59:12:586,50.379,0.111,0.203,0.198,-5.491,79.271,9.689
16:59:12:613,50.406,0.111,0.203,0.198,-5.491,79.271,9.689
16:59:12:64,50.433,0.154,0.214,0.230,-6.432,80.863,8.863
16:59:12:667,50.460,0.146,-0.017,0.231,-6.201,80.926,8.783
16:59:12:694,50.488,0.149,-0.118,0.070,-5.590,80.156,9.039
16:59:12:722,50.515,0.134,-0.144,0.034,-5.152,79.437,9.698
16:59:12:748,50.542,0.090,-0.009,-0.051,-4.541,78.693,10.867
16:59:12:776,50.569,-0.003,0.065,-0.029,-4.075,78.606,11.831
16:59:12:802,50.596,-0.018,0.068,-0.091,-3.126,78.413,13.318
16:59:12:83,50.624,-0.068,0.083,-0.068,-2.124,78.388,14.763
16:59:12:857,50.651,-0.068,0.083,-0.068,-2.124,78.388,14.763
16:59:12:885,50.678,-0.034,-0.051,-0.129,-0.573,78.030,17.218
16:59:12:912,50.705,-0.053,-0.150,-0.130,0.183,77.858,20.076
16:59:12:939,50.733,-0.055,-0.151,-0.131,0.423,77.813,21.645
16:59:12:967,50.760,-0.055,-0.151,-0.131,0.423,77.813,21.645
16:59:12:994,50.787,-0.046,-0.180,-0.156,1.077,77.205,23.326
16:59:13:021,50.814,-0.035,-0.161,-0.120,0.944,76.993,23.118
16:59:13:047,50.841,-0.011,-0.155,-0.095,0.989,76.958,23.097
16:59:13:075,50.868,-0.012,-0.128,-0.071,1.009,77.025,23.049
16:59:13:101,50.895,0.001,-0.096,-0.063,0.886,77.619,22.657
16:59:13:129,50.923,-0.001,-0.016,-0.055,0.679,78.136,21.935
16:59:13:156,50.949,-0.003,0.049,-0.066,0.523,78.808,21.248
16:59:13:184,50.977,-0.014,0.106,-0.058,0.233,79.858,19.979
16:59:13:211,51.004,0.007,0.121,-0.017,0.013,80.792,19.040
16:59:13:238,51.031,0.015,0.150,0.016,-0.345,82.358,17.562
16:59:13:266,51.059,0.012,0.242,0.047,-0.814,84.214,15.885
16:59:13:293,51.086,0.015,0.220,0.086,-1.069,85.371,14.750
16:59:13:32,51.113,0.027,0.196,0.114,-1.392,87.231,13.012
16:59:13:347,51.140,0.064,0.121,0.132,-1.518,88.294,12.124
16:59:13:374,51.168,0.077,0.035,0.156,-1.647,89.951,10.842
16:59:13:402,51.195,0.055,-0.119,0.128,-1.685,91.214,10.049
16:59:13:429,51.222,0.048,-0.132,0.088,-1.677,92.150,9.857
16:59:13:456,51.249,0.021,-0.032,-0.005,-1.722,93.284,10.007
16:59:13:483,51.276,-0.005,-0.012,-0.080,-1.713,94.307,10.449
16:59:13:51,51.303,0.005,-0.033,-0.095,-1.640,96.117,11.620
16:59:13:537,51.331,0.017,-0.020,-0.113,-1.703,98.293,12.944
16:59:13:565,51.359,0.050,-0.089,-0.058,-1.771,99.585,13.750
16:59:13:592,51.385,0.049,-0.180,-0.055,-2.036,102.305,14.658
16:59:13:619,51.413,0.038,-0.140,-0.055,-2.276,103.639,14.381
16:59:13:647,51.441,0.038,-0.140,-0.055,-2.276,103.639,14.381
16:59:13:674,51.467,0.072,-0.090,0.021,-2.675,105.214,13.091
16:59:13:701,51.495,0.103,-0.117,0.041,-2.974,106.208,12.109
16:59:13:728,51.521,0.103,-0.117,0.041,-2.974,106.208,12.109
16:59:13:756,51.549,0.151,-0.156,0.111,-3.502,106.885,10.251
16:59:13:783,51.576,0.181,-0.106,0.153,-3.722,106.964,9.423
16:59:13:81,51.603,0.197,0.012,0.167,-4.195,107.103,8.042
16:59:13:837,51.631,0.197,0.100,0.180,-4.704,107.107,6.664
16:59:13:864,51.658,0.211,0.149,0.226,-5.367,107.021,4.860
16:59:13:892,51.685,0.230,0.146,0.227,-5.539,106.908,4.408
16:59:13:919,51.712,0.230,0.146,0.227,-5.539,106.908,4.408
16:59:13:946,51.739,0.230,0.103,0.200,-5.843,106.553,4.110
16:59:13:973,51.766,0.230,0.103,0.200,-5.843,106.553,4.110
16:59:14:001,51.794,0.171,0.209,0.187,-5.783,106.487,5.071
16:59:14:028,51.821,0.171,0.209,0.187,-5.783,106.487,5.071
16:59:14:055,51.849,0.061,-0.028,0.072,-4.769,106.676,7.502
16:59:14:082,51.875,0.024,-0.051,-0.011,-4.286,106.784,9.034
16:59:14:11,51.903,0.024,-0.051,-0.011,-4.286,106.784,9.034
16:59:14:137,51.930,-0.078,0.006,-0.090,-3.035,106.310,14.282
16:59:14:164,51.957,-0.105,0.034,-0.109,-2.489,105.792,15.951
16:59:14:191,51.984,-0.161,0.086,-0.204,-1.615,104.921,18.084
16:59:14:218,52.011,-0.191,-0.009,-0.288,-1.023,104.463,19.395
16:59:14:245,52.038,-0.167,-0.078,-0.271,-0.327,104.353,21.375
16:59:14:272,52.065,-0.154,-0.185,-0.235,0.006,104.758,23.362
16:59:14:299,52.092,-0.138,-0.256,-0.230,0.088,104.914,24.542
16:59:14:326,52.120,-0.138,-0.256,-0.230,0.088,104.914,24.542
16:59:14:354,52.147,-0.136,-0.235,-0.234,0.247,104.968,26.220
16:59:14:381,52.175,-0.114,-0.214,-0.195,0.332,105.126,25.944
16:59:14:409,52.202,-0.114,-0.214,-0.195,0.332,105.126,25.944
16:59:14:436,52.229,-0.044,-0.056,-0.072,-0.309,106.698,21.772
16:59:14:463,52.256,-0.044,-0.019,-0.039,-0.531,107.144,20.317
16:59:14:49,52.283,-0.044,-0.019,-0.039,-0.531,107.144,20.317
16:59:14:517,52.310,-0.002,0.146,0.044,-1.005,108.291,16.317
16:59:14:544,52.337,-0.002,0.146,0.044,-1.005,108.291,16.317
16:59:14:571,52.364,-0.002,0.146,0.044,-1.005,108.291,16.317
16:59:14:598,52.391,0.109,0.127,0.202,-1.324,110.194,9.140
16:59:14:625,52.418,0.122,0.280,0.252,-1.457,111.079,6.345
16:59:14:652,52.446,0.137,0.300,0.291,-1.458,111.866,4.662
16:59:14:679,52.473,0.140,0.185,0.319,-1.215,113.243,2.669
16:59:14:707,52.500,0.170,0.143,0.316,-1.018,114.475,1.778
16:59:14:734,52.527,0.180,0.008,0.276,-0.667,116.125,1.348
16:59:14:761,52.554,0.165,-0.159,0.205,-0.380,117.349,2.034
16:59:14:788,52.581,0.067,-0.096,0.062,-0.340,117.781,2.886
16:59:14:815,52.609,-0.042,-0.026,-0.064,-0.366,118.444,4.733
16:59:14:843,52.636,-0.106,-0.015,-0.175,-0.332,119.007,6.346
16:59:14:87,52.663,-0.095,-0.033,-0.185,-0.178,120.463,9.040
16:59:14:897,52.690,-0.063,-0.067,-0.188,-0.061,122.279,11.505
16:59:14:924,52.717,-0.034,-0.104,-0.182,-0.039,123.485,12.750
16:59:14:951,52.744,-0.017,-0.178,-0.191,-0.160,124.685,13.819
16:59:14:978,52.771,-0.046,-0.184,-0.165,-0.355,125.655,14.024
16:59:15:005,52.799,-0.034,-0.181,-0.145,-0.713,126.326,13.796
16:59:15:033,52.826,-0.017,-0.103,-0.103,-1.141,127.117,13.137
16:59:15:06,52.854,0.004,-0.061,-0.094,-1.445,127.718,12.542
16:59:15:087,52.881,0.042,-0.069,-0.033,-1.824,128.649,11.540
16:59:15:114,52.908,0.090,-0.107,-0.002,-2.036,129.157,10.789
16:59:15:141,52.935,0.090,-0.107,-0.002,-2.036,129.157,10.789
16:59:15:169,52.962,0.203,-0.125,0.017,-2.660,130.078,8.567
16:59:15:197,52.990,0.226,-0.082,0.048,-3.169,130.460,7.118
16:59:15:224,53.017,0.246,0.166,0.092,-4.262,131.038,4.581
16:59:15:251,53.044,0.214,0.232,0.090,-4.768,131.729,3.377
16:59:15:278,53.072,0.252,0.126,0.093,-4.893,132.285,2.976
16:59:15:305,53.098,0.305,0.136,0.090,-5.104,133.209,2.733
16:59:15:332,53.126,0.305,0.136,0.090,-5.104,133.209,2.733
16:59:15:359,53.152,0.301,0.117,0.099,-5.415,134.020,2.849
16:59:15:387,53.180,0.301,0.117,0.099,-5.415,134.020,2.849
16:59:15:415,53.208,0.248,0.085,0.073,-5.399,134.089,3.043
16:59:15:442,53.235,0.176,-0.031,0.065,-5.041,134.272,3.791
16:59:15:47,53.263,0.101,-0.045,0.012,-4.743,134.375,4.730
16:59:15:496,53.290,0.023,-0.034,-0.037,-4.321,134.351,6.702
16:59:15:524,53.317,0.023,-0.034,-0.037,-4.321,134.351,6.702
16:59:15:55,53.344,-0.116,0.075,-0.033,-3.390,134.196,10.509
16:59:15:578,53.371,-0.136,0.088,-0.047,-2.616,134.252,12.557
16:59:15:605,53.399,-0.180,0.015,-0.129,-2.096,134.381,13.802
16:59:15:632,53.426,-0.180,0.015,-0.129,-2.096,134.381,13.802
16:59:15:66,53.453,-0.148,-0.171,-0.127,-0.990,135.007,17.391
16:59:15:687,53.480,-0.148,-0.171,-0.127,-0.990,135.007,17.391
16:59:15:715,53.508,-0.224,-0.161,-0.110,-0.853,135.719,19.604
16:59:15:742,53.535,-0.196,-0.158,-0.068,-0.796,136.040,20.125
16:59:15:769,53.563,-0.175,-0.140,-0.074,-0.627,136.658,20.491
16:59:15:796,53.589,-0.138,-0.120,-0.053,-0.501,137.507,20.261
16:59:15:823,53.617,-0.105,-0.118,-0.030,-0.501,138.070,19.871
16:59:15:85,53.643,-0.008,-0.038,0.012,-0.807,139.346,18.081
16:59:15:877,53.671,-0.008,-0.038,0.012,-0.807,139.346,18.081
16:59:15:905,53.698,-0.007,0.012,0.025,-1.104,139.993,16.576
16:59:15:932,53.725,0.005,0.063,0.028,-1.336,140.439,15.476
16:59:15:959,53.752,0.094,0.141,0.079,-1.887,142.600,11.997
16:59:15:987,53.780,0.094,0.141,0.079,-1.887,142.600,11.997
16:59:16:014,53.807,0.138,0.247,0.102,-2.035,144.839,8.974
16:59:16:041,53.835,0.197,0.183,0.120,-2.052,145.906,7.783
16:59:16:068,53.861,0.197,0.183,0.120,-2.052,145.906,7.783
16:59:16:096,53.889,0.197,0.183,0.120,-2.052,145.906,7.783
16:59:16:123,53.917,0.195,-0.177,0.020,-1.937,152.013,4.361
16:59:16:15,53.944,0.124,-0.190,-0.031,-1.964,152.416,4.745
16:59:16:178,53.971,0.124,-0.190,-0.031,-1.964,152.416,4.745
16:59:16:205,53.998,0.124,-0.190,-0.031,-1.964,152.416,4.745
16:59:16:231,54.025,-0.200,0.017,-0.114,-2.126,153.499,6.725
16:59:16:259,54.053,-0.169,-0.039,-0.119,-1.638,158.085,10.625
16:59:16:287,54.080,-0.169,-0.039,-0.119,-1.638,158.085,10.625
16:59:16:314,54.107,-0.169,-0.039,-0.119,-1.638,158.085,10.625
16:59:16:341,54.134,-0.169,-0.039,-0.119,-1.638,158.085,10.625
16:59:16:368,54.161,-0.169,-0.039,-0.119,-1.638,158.085,10.625
16:59:16:396,54.189,-0.028,-0.081,-0.095,-1.607,168.633,12.273
16:59:16:423,54.216,0.038,-0.048,-0.054,-1.724,170.374,11.683
16:59:16:45,54.243,0.122,-0.102,0.008,-1.687,172.780,10.600
16:59:16:477,54.271,0.122,-0.102,0.008,-1.687,172.780,10.600
16:59:16:504,54.297,0.122,-0.102,0.008,-1.687,172.780,10.600
