Time,Second,AccelerationX,AccelerationY,AccelerationZ,EulerAnglesX,EulerAnglesY,EulerAnglesZ
16:36:37:035,0.000,-0.008,-0.016,-0.003,6.950,-32.640,-20.594
16:36:37:063,0.027,-0.008,-0.016,-0.003,6.950,-32.640,-20.594
16:36:37:09,0.055,-0.012,-0.015,0.009,7.018,-32.814,-20.446
16:36:37:117,0.081,-0.018,-0.018,-0.001,7.043,-32.899,-20.174
16:36:37:144,0.109,-0.017,-0.015,0.004,7.034,-32.767,-20.050
16:36:37:171,0.136,-0.017,-0.015,0.004,7.034,-32.767,-20.050
16:36:37:198,0.163,-0.017,-0.015,0.004,7.034,-32.767,-20.050
16:36:37:226,0.190,-0.017,-0.015,0.004,7.034,-32.767,-20.050
16:36:37:253,0.218,-0.011,-0.012,0.003,6.992,-32.117,-19.570
16:36:37:28,0.244,-0.011,-0.012,0.003,6.992,-32.117,-19.570
16:36:37:307,0.272,-0.010,-0.001,0.002,6.937,-31.584,-19.329
16:36:37:334,0.299,-0.006,-0.011,0.006,6.927,-31.370,-19.181
16:36:37:361,0.326,-0.008,-0.021,-0.002,6.930,-30.911,-18.975
16:36:37:388,0.353,-0.007,-0.020,0.001,6.928,-30.682,-18.868
16:36:37:415,0.380,-0.007,-0.020,0.001,6.928,-30.682,-18.868
16:36:37:443,0.408,-0.010,0.005,-0.007,6.894,-30.163,-18.613
16:36:37:47,0.435,-0.009,-0.005,0.000,6.894,-30.045,-18.514
16:36:37:499,0.463,-0.006,-0.008,-0.004,6.842,-29.953,-18.396
16:36:37:525,0.490,0.003,-0.007,-0.005,6.804,-29.896,-18.312
16:36:37:553,0.517,-0.022,-0.015,-0.011,6.712,-29.455,-18.043
16:36:37:58,0.545,-0.019,-0.004,0.000,6.643,-29.415,-17.988
16:36:37:607,0.572,-0.021,-0.006,-0.004,6.555,-29.431,-17.904
16:36:37:634,0.598,-0.021,-0.006,-0.004,6.555,-29.431,-17.904
16:36:37:661,0.626,-0.027,-0.014,-0.002,6.524,-29.509,-17.861
16:36:37:688,0.653,0.002,-0.002,0.013,6.316,-30.285,-17.873
16:36:37:716,0.680,0.002,-0.002,0.013,6.316,-30.285,-17.873
16:36:37:745,0.710,0.008,-0.007,0.020,6.122,-31.219,-17.975
16:36:37:772,0.737,0.008,-0.007,0.020,6.122,-31.219,-17.975
16:36:37:8,0.764,0.016,0.006,0.017,5.971,-32.143,-18.347
16:36:37:826,0.791,0.000,-0.004,0.026,6.011,-32.114,-18.431
16:36:37:854,0.818,-0.007,-0.015,0.013,6.109,-31.949,-18.527
16:36:37:881,0.846,-0.007,-0.015,0.013,6.109,-31.949,-18.527
16:36:37:908,0.872,-0.007,-0.015,0.013,6.109,-31.949,-18.527
16:36:37:935,0.900,-0.011,-0.005,-0.001,6.363,-31.255,-18.786
16:36:37:962,0.927,-0.007,-0.011,-0.003,6.463,-31.087,-18.821
16:36:37:989,0.954,-0.016,-0.012,-0.008,6.593,-30.868,-18.862
16:36:38:016,0.981,-0.016,-0.012,-0.008,6.593,-30.868,-18.862
16:36:38:044,1.008,-0.016,-0.012,-0.008,6.593,-30.868,-18.862
16:36:38:071,1.035,-0.015,-0.012,-0.001,6.706,-30.696,-19.023
16:36:38:098,1.063,-0.011,-0.004,-0.001,6.715,-30.677,-19.088
16:36:38:126,1.091,-0.011,-0.004,-0.001,6.715,-30.677,-19.088
16:36:38:153,1.118,-0.015,-0.005,0.003,6.765,-30.651,-19.192
16:36:38:181,1.146,-0.016,-0.013,0.005,6.894,-30.648,-19.353
16:36:38:208,1.173,-0.009,-0.010,-0.001,6.957,-30.637,-19.471
16:36:38:237,1.202,-0.015,-0.008,-0.002,6.993,-30.613,-19.548
16:36:38:264,1.229,-0.013,-0.010,-0.013,7.057,-30.576,-19.658
16:36:38:291,1.256,-0.017,-0.010,-0.009,7.076,-30.564,-19.730
16:36:38:319,1.283,-0.014,-0.010,-0.008,7.102,-30.578,-19.855
16:36:38:345,1.310,-0.014,-0.010,-0.008,7.102,-30.578,-19.855
16:36:38:373,1.337,-0.020,-0.003,0.000,7.075,-30.732,-20.171
16:36:38:399,1.364,-0.018,-0.003,-0.006,7.053,-30.824,-20.246
16:36:38:427,1.391,-0.015,-0.009,-0.002,7.059,-31.019,-20.337
16:36:38:454,1.419,-0.015,-0.009,-0.002,7.059,-31.019,-20.337
16:36:38:481,1.445,-0.006,-0.005,0.009,7.035,-31.463,-20.510
16:36:38:509,1.473,-0.006,-0.005,0.009,7.035,-31.463,-20.510
16:36:38:536,1.501,-0.007,-0.008,0.005,6.999,-31.831,-20.721
16:36:38:563,1.528,-0.005,0.001,-0.003,6.952,-31.978,-20.834
16:36:38:591,1.555,-0.005,0.001,-0.003,6.952,-31.978,-20.834
16:36:38:619,1.583,-0.004,-0.004,0.003,6.900,-32.037,-20.932
16:36:38:646,1.610,-0.013,-0.001,0.005,6.907,-31.937,-20.945
16:36:38:673,1.638,-0.006,-0.005,0.006,6.935,-31.850,-20.932
16:36:38:701,1.666,-0.007,-0.012,0.006,7.010,-31.664,-20.911
16:36:38:728,1.693,-0.007,-0.012,0.006,7.010,-31.664,-20.911
16:36:38:756,1.721,-0.007,-0.012,0.006,7.010,-31.664,-20.911
16:36:38:783,1.747,-0.024,-0.008,-0.013,7.221,-30.923,-20.994
16:36:38:811,1.776,-0.021,-0.006,-0.011,7.282,-30.785,-21.040
16:36:38:839,1.803,-0.020,-0.019,-0.004,7.353,-30.620,-21.106
16:36:38:867,1.831,-0.020,-0.019,-0.004,7.353,-30.620,-21.106
16:36:38:893,1.858,-0.016,-0.007,-0.006,7.385,-30.491,-21.265
16:36:38:921,1.886,-0.013,0.022,-0.023,7.378,-30.497,-21.366
16:36:38:948,1.913,-0.016,-0.011,-0.009,7.546,-30.525,-21.468
16:36:38:975,1.940,-0.016,-0.011,-0.009,7.546,-30.525,-21.468
16:36:39:003,1.967,-0.016,-0.011,-0.009,7.546,-30.525,-21.468
16:36:39:03,1.995,-0.017,-0.003,-0.009,7.653,-30.436,-21.514
16:36:39:058,2.022,-0.010,-0.009,-0.013,7.673,-30.454,-21.493
16:36:39:085,2.049,-0.011,-0.013,-0.003,7.690,-30.455,-21.465
16:36:39:112,2.077,-0.016,-0.006,-0.008,7.702,-30.426,-21.454
16:36:39:139,2.104,-0.021,-0.006,-0.008,7.724,-30.377,-21.432
16:36:39:168,2.132,-0.021,-0.006,-0.008,7.724,-30.377,-21.432
16:36:39:194,2.159,-0.020,-0.015,-0.011,7.738,-30.487,-21.372
16:36:39:222,2.186,-0.011,-0.013,-0.002,7.684,-30.718,-21.345
16:36:39:249,2.214,-0.011,-0.013,-0.002,7.684,-30.718,-21.345
16:36:39:276,2.241,-0.003,-0.005,0.009,7.540,-31.170,-21.300
16:36:39:303,2.268,-0.003,-0.005,0.009,7.540,-31.170,-21.300
16:36:39:33,2.295,-0.003,-0.004,0.000,7.438,-31.492,-21.234
16:36:39:357,2.322,0.003,0.000,0.005,7.374,-31.644,-21.192
16:36:39:384,2.349,0.000,-0.003,0.007,7.357,-31.694,-21.149
16:36:39:411,2.376,0.000,-0.009,0.006,7.362,-31.745,-21.088
16:36:39:438,2.403,0.000,-0.009,0.006,7.362,-31.745,-21.088
16:36:39:465,2.430,-0.006,0.000,0.006,7.393,-31.721,-21.025
16:36:39:492,2.457,-0.008,-0.007,0.011,7.481,-31.673,-20.982
16:36:39:52,2.485,0.000,-0.015,0.007,7.542,-31.600,-20.943
16:36:39:547,2.511,-0.008,-0.017,0.004,7.603,-31.426,-20.916
16:36:39:575,2.540,-0.008,-0.017,0.004,7.603,-31.426,-20.916
16:36:39:602,2.566,0.006,-0.007,0.007,7.649,-31.246,-20.901
16:36:39:63,2.594,0.010,-0.012,-0.003,7.678,-31.098,-20.882
16:36:39:657,2.621,0.010,-0.012,-0.003,7.678,-31.098,-20.882
16:36:39:684,2.649,-0.004,-0.007,-0.007,7.728,-30.782,-20.872
16:36:39:711,2.676,-0.004,-0.007,-0.007,7.728,-30.782,-20.872
16:36:39:738,2.703,-0.014,-0.010,-0.011,7.800,-30.598,-20.890
16:36:39:765,2.730,-0.014,-0.010,-0.011,7.800,-30.598,-20.890
16:36:39:792,2.757,-0.008,-0.007,-0.004,7.725,-30.775,-20.856
16:36:39:82,2.784,-0.008,-0.007,-0.004,7.725,-30.775,-20.856
16:36:39:846,2.811,-0.008,-0.007,-0.004,7.725,-30.775,-20.856
16:36:39:874,2.838,-0.008,-0.007,-0.004,7.725,-30.775,-20.856
16:36:39:901,2.865,0.004,-0.012,0.004,7.533,-31.410,-20.800
16:36:39:928,2.892,0.007,0.000,0.015,7.412,-31.691,-20.768
16:36:39:956,2.920,0.007,0.000,0.015,7.412,-31.691,-20.768
16:36:39:982,2.947,0.007,0.000,0.015,7.412,-31.691,-20.768
16:36:40:01,2.974,-0.002,-0.007,-0.006,7.515,-31.232,-20.688
16:36:40:036,3.001,0.001,-0.006,0.004,7.553,-31.120,-20.668
16:36:40:063,3.028,-0.006,-0.014,-0.001,7.584,-31.019,-20.658
16:36:40:091,3.056,-0.006,-0.014,-0.001,7.584,-31.019,-20.658
16:36:40:118,3.082,-0.008,-0.006,0.006,7.609,-30.782,-20.617
16:36:40:145,3.110,-0.010,-0.011,0.000,7.637,-30.724,-20.594
16:36:40:172,3.136,-0.007,0.000,-0.001,7.654,-30.666,-20.582
16:36:40:199,3.164,-0.004,-0.011,-0.007,7.675,-30.648,-20.562
16:36:40:226,3.191,-0.010,-0.013,-0.004,7.710,-30.664,-20.558
16:36:40:254,3.218,0.004,-0.008,-0.002,7.679,-30.740,-20.570
16:36:40:281,3.246,0.004,-0.008,-0.002,7.679,-30.740,-20.570
16:36:40:308,3.272,0.007,-0.008,0.002,7.635,-30.785,-20.533
16:36:40:335,3.300,0.007,-0.008,0.002,7.635,-30.785,-20.533
16:36:40:362,3.326,0.008,0.001,0.005,7.618,-30.567,-20.504
16:36:40:389,3.354,-0.002,-0.018,0.018,7.684,-30.347,-20.448
16:36:40:416,3.381,-0.002,-0.018,0.018,7.684,-30.347,-20.448
16:36:40:444,3.408,-0.002,-0.018,0.018,7.684,-30.347,-20.448
16:36:40:471,3.436,0.040,-0.015,0.058,7.888,-29.559,-20.461
16:36:40:498,3.463,0.058,0.028,0.033,8.483,-27.516,-20.270
16:36:40:526,3.491,0.058,0.028,0.033,8.483,-27.516,-20.270
16:36:40:553,3.518,0.058,0.028,0.033,8.483,-27.516,-20.270
16:36:40:58,3.545,0.058,0.028,0.033,8.483,-27.516,-20.270
16:36:40:607,3.572,-0.020,0.001,-0.020,9.642,-24.432,-20.282
16:36:40:635,3.599,0.029,-0.003,-0.025,9.898,-24.230,-20.855
16:36:40:662,3.626,0.029,-0.003,-0.025,9.898,-24.230,-20.855
16:36:40:689,3.654,-0.019,-0.026,-0.049,9.976,-24.105,-21.708
16:36:40:716,3.681,-0.014,-0.027,-0.045,10.004,-24.019,-21.898
16:36:40:743,3.708,-0.040,-0.017,-0.072,9.999,-23.521,-22.004
16:36:40:771,3.735,-0.079,-0.043,-0.077,10.026,-23.044,-21.988
16:36:40:798,3.763,-0.079,-0.043,-0.077,10.026,-23.044,-21.988
16:36:40:825,3.790,-0.069,-0.034,-0.044,9.693,-23.066,-21.954
16:36:40:852,3.816,-0.053,-0.014,-0.024,9.356,-23.330,-21.715
16:36:40:879,3.844,-0.047,-0.004,0.005,8.752,-24.164,-21.560
16:36:40:906,3.871,-0.024,0.001,0.033,8.315,-24.832,-21.544
16:36:40:933,3.898,-0.024,0.001,0.033,8.315,-24.832,-21.544
16:36:40:96,3.925,-0.009,0.009,0.035,7.136,-27.179,-21.381
16:36:40:987,3.952,0.009,0.000,0.064,6.957,-27.940,-21.300
16:36:41:014,3.979,0.070,0.003,0.099,6.750,-28.655,-21.116
16:36:41:041,4.006,0.073,0.012,0.069,6.768,-28.540,-20.857
16:36:41:068,4.033,0.073,0.012,0.069,6.768,-28.540,-20.857
16:36:41:096,4.060,0.060,0.004,0.029,7.484,-26.448,-20.100
16:36:41:123,4.088,0.060,0.004,0.029,7.484,-26.448,-20.100
16:36:41:151,4.115,0.031,-0.013,-0.011,8.147,-24.837,-19.656
16:36:41:178,4.142,0.034,-0.013,-0.005,8.288,-24.528,-19.587
16:36:41:206,4.171,0.034,-0.013,-0.005,8.288,-24.528,-19.587
16:36:41:234,4.198,-0.006,-0.034,-0.043,8.538,-23.515,-19.559
16:36:41:26,4.225,-0.042,-0.036,-0.045,8.729,-22.943,-19.424
16:36:41:288,4.253,-0.042,-0.036,-0.045,8.729,-22.943,-19.424
16:36:41:315,4.280,-0.065,-0.028,-0.060,8.752,-22.740,-19.273
16:36:41:342,4.307,-0.166,-0.072,-0.082,8.310,-24.782,-19.007
16:36:41:37,4.334,-0.209,0.024,-0.170,7.880,-26.653,-19.110
16:36:41:397,4.362,-0.257,-0.048,-0.241,7.570,-30.751,-18.602
16:36:41:424,4.389,-0.322,-0.046,-0.180,7.204,-34.268,-18.269
16:36:41:451,4.416,-0.338,0.024,-0.190,6.388,-40.191,-17.672
16:36:41:478,4.443,-0.272,0.003,-0.179,6.573,-44.980,-15.956
16:36:41:506,4.471,-0.272,0.003,-0.179,6.573,-44.980,-15.956
16:36:41:533,4.498,-0.329,0.005,-0.162,7.298,-47.837,-14.677
16:36:41:56,4.525,-0.209,0.274,-0.333,8.753,-51.767,-9.951
16:36:41:587,4.552,0.073,0.191,-0.011,10.502,-54.434,-6.258
16:36:41:614,4.579,0.205,0.243,0.092,11.611,-56.883,-3.779
16:36:41:641,4.606,0.330,0.189,0.150,13.885,-60.053,0.357
16:36:41:668,4.633,0.330,0.189,0.150,13.885,-60.053,0.357
16:36:41:695,4.660,0.499,-0.031,0.305,18.668,-65.693,6.358
16:36:41:722,4.687,0.612,-0.174,0.470,21.876,-69.042,9.237
16:36:41:749,4.714,0.622,-0.308,0.555,25.016,-72.211,11.424
16:36:41:777,4.742,0.622,-0.308,0.555,25.016,-72.211,11.424
16:36:41:804,4.768,0.579,-0.396,0.595,29.098,-76.518,13.572
16:36:41:831,4.796,0.515,-0.449,0.662,30.180,-77.752,14.094
16:36:41:858,4.822,0.457,-0.458,0.711,31.051,-79.306,14.612
16:36:41:885,4.850,0.457,-0.380,0.628,31.032,-79.703,14.792
16:36:41:912,4.877,0.457,-0.380,0.628,31.032,-79.703,14.792
16:36:41:94,4.904,0.465,-0.120,0.812,27.721,-81.016,12.695
16:36:41:967,4.931,0.473,0.035,0.724,24.907,-80.666,10.895
16:36:41:994,4.959,0.473,0.035,0.724,24.907,-80.666,10.895
16:36:42:021,4.986,0.430,0.065,0.704,22.852,-80.061,9.464
16:36:42:048,5.013,0.436,0.216,0.513,16.595,-74.732,4.605
16:36:42:076,5.040,0.436,0.216,0.513,16.595,-74.732,4.605
16:36:42:103,5.067,0.408,0.497,0.046,11.213,-57.389,-3.180
16:36:42:13,5.095,0.408,0.497,0.046,11.213,-57.389,-3.180
16:36:42:157,5.121,0.247,0.838,-0.424,11.954,-35.812,-15.033
16:36:42:184,5.149,0.247,0.838,-0.424,11.954,-35.812,-15.033
16:36:42:211,5.176,0.247,0.838,-0.424,11.954,-35.812,-15.033
16:36:42:239,5.203,0.247,0.838,-0.424,11.954,-35.812,-15.033
16:36:42:265,5.230,-0.152,0.479,-0.430,12.400,-32.746,-19.793
16:36:42:293,5.257,-0.152,0.479,-0.430,12.400,-32.746,-19.793
16:36:42:32,5.284,-0.284,-0.264,-0.567,22.970,-25.540,-43.575
16:36:42:347,5.311,-0.284,-0.264,-0.567,22.970,-25.540,-43.575
16:36:42:374,5.339,-0.284,-0.264,-0.567,22.970,-25.540,-43.575
16:36:42:401,5.366,-0.335,-0.554,-0.416,30.442,-27.571,-63.801
16:36:42:429,5.394,-0.335,-0.554,-0.416,30.442,-27.571,-63.801
16:36:42:456,5.421,-0.421,-0.512,-0.497,34.071,-27.478,-70.020
16:36:42:483,5.448,-0.479,-0.498,-0.456,35.782,-27.040,-71.559
16:36:42:51,5.475,-0.500,-0.439,-0.400,35.565,-26.716,-71.583
16:36:42:537,5.502,-0.489,-0.396,-0.356,32.944,-26.294,-69.998
16:36:42:564,5.529,-0.489,-0.396,-0.356,32.944,-26.294,-69.998
16:36:42:591,5.556,-0.676,0.180,0.063,25.128,-24.819,-62.811
16:36:42:618,5.583,-0.755,0.027,0.038,24.058,-22.555,-56.724
16:36:42:646,5.611,-0.755,0.027,0.038,24.058,-22.555,-56.724
16:36:42:674,5.638,-0.755,0.027,0.038,24.058,-22.555,-56.724
16:36:42:702,5.666,-0.755,0.027,0.038,24.058,-22.555,-56.724
16:36:42:729,5.693,-0.567,0.642,-0.213,13.203,-24.381,-37.359
16:36:42:756,5.720,-0.567,0.642,-0.213,13.203,-24.381,-37.359
16:36:42:783,5.747,0.194,0.268,0.126,9.118,-38.975,-19.231
16:36:42:81,5.775,0.458,0.155,0.232,12.441,-45.615,-8.341
16:36:42:838,5.802,0.551,0.106,0.213,15.306,-47.278,-2.969
16:36:42:865,5.830,0.702,-0.015,0.268,18.303,-47.703,1.893
16:36:42:893,5.857,0.702,-0.015,0.268,18.303,-47.703,1.893
16:36:42:92,5.885,0.739,-0.336,0.329,22.726,-46.539,8.640
16:36:42:947,5.912,0.739,-0.336,0.329,22.726,-46.539,8.640
16:36:42:975,5.939,0.739,-0.336,0.329,22.726,-46.539,8.640
16:36:43:002,5.967,0.691,-0.354,0.273,23.830,-45.220,10.661
16:36:43:029,5.994,0.691,-0.354,0.273,23.830,-45.220,10.661
16:36:43:056,6.021,0.817,-0.120,0.249,25.082,-41.383,13.963
16:36:43:083,6.048,0.817,-0.120,0.249,25.082,-41.383,13.963
16:36:43:111,6.075,0.823,-0.191,0.273,24.842,-41.689,11.654
16:36:43:138,6.103,0.742,-0.009,0.076,21.654,-39.715,6.340
16:36:43:165,6.130,0.742,-0.009,0.076,21.654,-39.715,6.340
16:36:43:193,6.158,0.649,0.316,-0.125,17.267,-32.967,0.224
16:36:43:22,6.185,0.530,0.505,-0.349,15.557,-28.982,-2.673
16:36:43:247,6.212,0.530,0.505,-0.349,15.557,-28.982,-2.673
16:36:43:274,6.239,0.530,0.505,-0.349,15.557,-28.982,-2.673
16:36:43:302,6.266,-0.241,0.325,-0.559,14.447,-6.604,-15.474
16:36:43:329,6.294,-0.241,0.325,-0.559,14.447,-6.604,-15.474
16:36:43:356,6.321,-0.485,-0.119,-0.410,19.374,1.742,-31.339
16:36:43:384,6.348,-0.485,-0.119,-0.410,19.374,1.742,-31.339
16:36:43:411,6.376,-0.485,-0.119,-0.410,19.374,1.742,-31.339
16:36:43:439,6.403,-0.501,-0.196,-0.323,20.928,2.019,-41.915
16:36:43:466,6.431,-0.501,-0.196,-0.323,20.928,2.019,-41.915
16:36:43:494,6.458,-0.714,-0.422,-0.333,25.027,3.987,-55.742
16:36:43:521,6.486,-0.714,-0.422,-0.333,25.027,3.987,-55.742
16:36:43:548,6.512,-0.773,-0.233,-0.165,24.846,5.394,-61.409
16:36:43:575,6.540,-0.535,-0.238,-0.027,24.883,7.109,-63.174
16:36:43:602,6.567,-0.535,-0.238,-0.027,24.883,7.109,-63.174
16:36:43:63,6.595,-0.603,-0.369,0.141,28.650,11.815,-63.898
16:36:43:657,6.622,-0.603,-0.369,0.141,28.650,11.815,-63.898
16:36:43:684,6.649,-0.516,-0.217,0.237,28.085,16.983,-60.575
16:36:43:711,6.676,-0.516,-0.217,0.237,28.085,16.983,-60.575
16:36:43:738,6.703,-0.516,-0.217,0.237,28.085,16.983,-60.575
16:36:43:766,6.730,-0.527,0.067,0.291,19.872,20.107,-53.131
16:36:43:793,6.757,-0.527,0.067,0.291,19.872,20.107,-53.131
16:36:43:82,6.784,-0.527,0.067,0.291,19.872,20.107,-53.131
16:36:43:847,6.812,-0.527,0.067,0.291,19.872,20.107,-53.131
16:36:43:875,6.839,-0.527,0.067,0.291,19.872,20.107,-53.131
16:36:43:902,6.867,-0.193,0.167,0.299,14.167,22.165,-42.650
16:36:43:93,6.894,-0.193,0.167,0.299,14.167,22.165,-42.650
16:36:43:957,6.922,0.395,0.145,-0.078,10.519,15.893,-9.752
16:36:43:984,6.949,0.395,0.145,-0.078,10.519,15.893,-9.752
16:36:44:012,6.976,0.731,0.142,-0.279,14.474,12.372,6.391
16:36:44:039,7.004,0.676,-0.138,-0.298,16.435,13.651,11.919
16:36:44:067,7.032,0.676,-0.138,-0.298,16.435,13.651,11.919
16:36:44:094,7.059,0.676,-0.138,-0.298,16.435,13.651,11.919
16:36:44:122,7.086,0.676,-0.138,-0.298,16.435,13.651,11.919
16:36:44:148,7.113,0.961,0.065,-0.527,22.338,8.436,14.942
16:36:44:176,7.140,0.961,0.065,-0.527,22.338,8.436,14.942
16:36:44:202,7.167,0.653,-0.104,-0.503,20.492,10.047,9.993
16:36:44:23,7.194,0.473,-0.264,-0.392,17.937,13.763,7.195
16:36:44:257,7.222,0.473,-0.264,-0.392,17.937,13.763,7.195
16:36:44:285,7.249,0.473,-0.264,-0.392,17.937,13.763,7.195
16:36:44:312,7.277,0.473,-0.264,-0.392,17.937,13.763,7.195
16:36:44:339,7.304,0.473,-0.264,-0.392,17.937,13.763,7.195
16:36:44:366,7.331,0.354,-0.062,-0.413,16.010,17.202,4.844
16:36:44:393,7.357,-0.257,0.242,-0.268,12.104,37.663,-13.327
16:36:44:42,7.385,-0.257,0.242,-0.268,12.104,37.663,-13.327
16:36:44:447,7.412,-0.823,-0.084,0.499,15.846,48.451,-23.076
16:36:44:475,7.440,-0.823,-0.084,0.499,15.846,48.451,-23.076
16:36:44:502,7.467,-0.756,-0.095,0.195,21.498,47.151,-46.483
16:36:44:529,7.494,-0.821,0.049,0.284,22.408,46.060,-52.716
16:36:44:557,7.521,-0.821,0.049,0.284,22.408,46.060,-52.716
16:36:44:584,7.549,-0.791,-0.366,0.490,26.232,46.380,-59.562
16:36:44:612,7.576,-0.791,-0.366,0.490,26.232,46.380,-59.562
16:36:44:639,7.604,-0.614,-0.446,0.480,27.649,47.037,-62.136
16:36:44:666,7.631,-0.462,-0.320,0.409,26.699,48.167,-60.816
16:36:44:693,7.657,-0.462,-0.320,0.409,26.699,48.167,-60.816
16:36:44:72,7.685,-0.462,-0.320,0.409,26.699,48.167,-60.816
16:36:44:747,7.712,-0.462,-0.320,0.409,26.699,48.167,-60.816
16:36:44:774,7.739,-0.462,-0.320,0.409,26.699,48.167,-60.816
16:36:44:802,7.766,-0.426,0.065,0.569,20.340,54.870,-47.962
16:36:44:829,7.793,-0.426,0.065,0.569,20.340,54.870,-47.962
16:36:44:856,7.820,0.061,-0.125,0.148,12.215,55.349,-30.784
16:36:44:883,7.848,0.068,-0.021,0.048,10.395,53.603,-23.750
16:36:44:91,7.874,0.068,-0.021,0.048,10.395,53.603,-23.750
16:36:44:938,7.902,0.068,-0.021,0.048,10.395,53.603,-23.750
16:36:44:964,7.929,0.068,-0.021,0.048,10.395,53.603,-23.750
16:36:44:992,7.957,0.582,0.143,-0.610,14.156,44.981,6.055
16:36:45:019,7.984,0.582,0.143,-0.610,14.156,44.981,6.055
16:36:45:047,8.011,0.638,0.214,-1.075,18.226,48.183,14.843
16:36:45:074,8.038,0.638,0.214,-1.075,18.226,48.183,14.843
16:36:45:101,8.065,0.449,-0.103,-0.855,21.431,51.264,18.508
16:36:45:128,8.093,0.449,-0.103,-0.855,21.431,51.264,18.508
16:36:45:155,8.120,0.449,-0.103,-0.855,21.431,51.264,18.508
16:36:45:182,8.147,0.208,0.016,-0.896,22.114,50.635,9.871
16:36:45:209,8.174,0.208,0.016,-0.896,22.114,50.635,9.871
16:36:45:237,8.201,-0.194,0.254,-0.825,19.547,57.938,3.113
16:36:45:264,8.229,-0.194,0.254,-0.825,19.547,57.938,3.113
16:36:45:291,8.256,-0.194,0.254,-0.825,19.547,57.938,3.113
16:36:45:319,8.283,-0.540,0.064,-0.007,19.210,75.692,-9.593
16:36:45:346,8.311,-0.473,-0.052,0.057,20.114,78.178,-13.753
16:36:45:373,8.337,-0.585,0.022,0.182,21.848,80.504,-20.311
16:36:45:401,8.365,-0.585,0.022,0.182,21.848,80.504,-20.311
16:36:45:428,8.393,-0.603,-0.041,0.393,25.092,81.759,-31.817
16:36:45:455,8.420,-0.603,-0.041,0.393,25.092,81.759,-31.817
16:36:45:482,8.447,-0.627,-0.085,0.549,26.941,81.698,-39.000
16:36:45:51,8.474,-0.687,0.104,0.983,29.348,80.905,-50.106
16:36:45:537,8.501,-0.337,-0.356,0.927,31.205,81.775,-58.275
16:36:45:564,8.529,-0.337,-0.356,0.927,31.205,81.775,-58.275
16:36:45:591,8.556,-0.239,-0.331,0.791,32.762,83.600,-60.324
16:36:45:618,8.583,0.107,-0.577,0.619,34.928,88.684,-59.029
16:36:45:646,8.610,0.081,-0.286,0.715,34.610,91.060,-57.233
16:36:45:673,8.637,0.101,-0.046,0.851,33.085,94.567,-53.373
16:36:45:7,8.664,0.118,-0.101,0.807,30.307,98.079,-48.734
16:36:45:727,8.692,0.118,-0.101,0.807,30.307,98.079,-48.734
16:36:45:754,8.719,0.104,0.132,0.282,19.649,98.556,-39.354
16:36:45:781,8.746,0.192,-0.019,0.217,16.442,97.446,-35.434
16:36:45:809,8.773,0.393,0.083,-0.054,12.972,96.096,-28.756
16:36:45:836,8.801,0.393,0.083,-0.054,12.972,96.096,-28.756
16:36:45:863,8.827,0.393,0.083,-0.054,12.972,96.096,-28.756
16:36:45:89,8.854,0.189,0.130,-0.362,12.177,94.314,-10.978
16:36:45:917,8.882,0.049,0.279,-0.507,12.797,93.400,-6.654
16:36:45:944,8.909,0.049,0.279,-0.507,12.797,93.400,-6.654
16:36:45:971,8.936,-0.308,0.551,-0.981,17.732,91.016,6.573
16:36:45:998,8.963,-0.308,0.551,-0.981,17.732,91.016,6.573
16:36:46:026,8.990,-0.359,0.398,-1.030,20.100,90.352,10.412
16:36:46:053,9.018,-0.219,-0.217,-0.779,25.127,88.742,15.258
16:36:46:08,9.045,-0.207,-0.004,-0.843,26.838,85.211,13.472
16:36:46:108,9.072,-0.207,-0.004,-0.843,26.838,85.211,13.472
16:36:46:135,9.099,-0.207,-0.004,-0.843,26.838,85.211,13.472
16:36:46:162,9.127,-0.482,0.055,-0.860,25.463,82.557,4.453
16:36:46:189,9.153,-0.482,0.055,-0.860,25.463,82.557,4.453
16:36:46:216,9.180,-0.617,0.241,-0.336,20.506,92.471,-0.852
16:36:46:243,9.208,-0.543,0.260,-0.118,18.711,98.032,-3.428
16:36:46:27,9.234,-0.413,0.091,0.100,16.974,106.241,-8.191
16:36:46:297,9.262,-0.209,-0.018,0.320,16.462,116.705,-18.841
16:36:46:324,9.289,-0.209,-0.018,0.320,16.462,116.705,-18.841
16:36:46:351,9.316,-0.129,0.108,0.617,17.855,123.346,-30.843
16:36:46:379,9.343,-0.061,0.054,0.741,19.728,125.712,-38.176
16:36:46:406,9.371,0.066,0.016,0.867,22.304,127.441,-44.930
16:36:46:433,9.398,0.066,0.016,0.867,22.304,127.441,-44.930
16:36:46:46,9.425,0.408,-0.212,1.012,27.722,129.124,-53.731
16:36:46:488,9.453,0.444,-0.420,0.931,29.736,129.603,-56.167
16:36:46:515,9.480,0.444,-0.420,0.931,29.736,129.603,-56.167
16:36:46:543,9.507,0.487,-0.352,0.770,31.403,130.922,-58.817
16:36:46:57,9.534,0.569,-0.176,0.509,28.278,133.238,-54.981
16:36:46:597,9.562,0.569,-0.176,0.509,28.278,133.238,-54.981
16:36:46:624,9.589,0.569,-0.176,0.509,28.278,133.238,-54.981
16:36:46:651,9.616,0.438,0.190,0.527,20.982,137.364,-43.274
16:36:46:679,9.643,0.438,0.190,0.527,20.982,137.364,-43.274
16:36:46:706,9.671,0.269,0.044,0.151,14.688,136.948,-33.006
16:36:46:733,9.698,0.171,0.017,0.045,11.943,135.430,-28.378
16:36:46:76,9.725,0.171,0.017,0.045,11.943,135.430,-28.378
16:36:46:787,9.752,-0.119,0.038,-0.335,7.388,125.591,-12.726
16:36:46:814,9.779,-0.119,0.038,-0.335,7.388,125.591,-12.726
16:36:46:842,9.806,-0.348,0.062,-0.512,8.694,125.254,-0.142
16:36:46:868,9.833,-0.337,-0.149,-0.588,9.728,126.709,4.682
16:36:46:895,9.860,-0.337,-0.149,-0.588,9.728,126.709,4.682
16:36:46:923,9.887,-0.544,0.164,-0.694,12.104,128.998,15.294
16:36:46:95,9.915,-0.690,0.181,-0.752,12.736,129.199,17.395
16:36:46:978,9.943,-0.690,0.181,-0.752,12.736,129.199,17.395
16:36:47:006,9.970,-0.690,0.181,-0.752,12.736,129.199,17.395
16:36:47:032,9.997,-0.657,-0.090,-0.737,14.097,128.592,19.264
16:36:47:059,10.024,-0.574,-0.130,-0.517,16.180,124.227,15.666
16:36:47:087,10.051,-0.574,-0.130,-0.517,16.180,124.227,15.666
16:36:47:114,10.078,-0.574,-0.130,-0.517,16.180,124.227,15.666
16:36:47:141,10.105,-0.574,-0.130,-0.517,16.180,124.227,15.666
16:36:47:168,10.133,-0.574,-0.130,-0.517,16.180,124.227,15.666
16:36:47:195,10.160,-0.494,0.271,-0.316,13.155,122.716,2.712
16:36:47:223,10.187,-0.494,0.271,-0.316,13.155,122.716,2.712
16:36:47:25,10.214,0.848,-0.051,0.525,17.211,155.959,-25.974
16:36:47:277,10.242,-0.064,-0.081,0.461,22.870,159.658,-31.921
16:36:47:304,10.269,0.201,0.173,0.416,24.443,157.540,-38.016
16:36:47:331,10.296,0.851,-0.565,0.542,29.480,157.899,-46.416
16:36:47:359,10.323,0.484,-0.433,0.548,34.052,156.791,-52.055
16:36:47:386,10.350,0.428,-0.251,0.559,34.446,154.092,-56.472
16:36:47:412,10.377,0.527,-0.252,0.619,34.436,151.062,-61.115
16:36:47:44,10.404,0.610,-0.482,0.440,35.884,150.336,-62.828
16:36:47:467,10.432,0.610,-0.482,0.440,35.884,150.336,-62.828
16:36:47:494,10.459,0.610,-0.482,0.440,35.884,150.336,-62.828
16:36:47:522,10.486,0.703,-0.269,0.555,36.684,148.898,-62.135
16:36:47:548,10.513,0.703,-0.269,0.555,36.684,148.898,-62.135
16:36:47:576,10.540,0.703,-0.269,0.555,36.684,148.898,-62.135
16:36:47:602,10.567,0.706,0.126,0.586,24.298,147.162,-48.870
16:36:47:63,10.594,0.558,0.180,0.411,18.596,145.761,-41.604
16:36:47:657,10.622,0.344,0.078,0.212,15.772,143.279,-36.496
16:36:47:685,10.649,0.095,0.208,0.035,12.539,139.400,-28.774
16:36:47:713,10.678,-0.086,0.159,-0.066,11.622,136.930,-23.343
16:36:47:74,10.704,-0.172,0.132,-0.103,11.624,133.667,-14.899
00:00:00:,10.732,-0.498,0.346,-0.300,14.211,129.433,-1.541
16:36:47:794,10.759,-0.498,0.346,-0.300,14.211,129.433,-1.541
16:36:47:822,10.786,-0.498,0.346,-0.300,14.211,129.433,-1.541
16:36:47:849,10.814,-0.578,-0.114,-0.399,21.477,126.161,14.247
16:36:47:876,10.840,-0.730,-0.038,-0.527,24.243,123.873,16.997
16:36:47:903,10.867,-0.864,-0.033,-0.584,26.061,122.164,18.168
16:36:47:93,10.895,-0.891,-0.067,-0.746,28.463,119.483,19.117
16:36:47:957,10.921,-0.805,-0.321,-0.751,29.689,118.218,19.595
16:36:47:984,10.949,-0.737,-0.435,-0.760,30.742,117.512,20.255
16:36:48:012,10.976,-0.630,-0.554,-0.749,30.649,118.105,20.635
16:36:48:039,11.003,-0.605,-0.484,-0.703,29.778,119.132,20.172
16:36:48:066,11.030,-0.711,-0.290,-0.485,27.489,120.982,17.716
16:36:48:093,11.058,-0.711,-0.290,-0.485,27.489,120.982,17.716
16:36:48:12,11.084,-0.698,0.664,-0.175,21.454,122.980,7.554
16:36:48:147,11.112,-0.479,0.782,-0.052,18.600,123.683,1.347
16:36:48:174,11.139,-0.479,0.782,-0.052,18.600,123.683,1.347
16:36:48:201,11.166,-0.479,0.782,-0.052,18.600,123.683,1.347
16:36:48:229,11.193,0.098,0.413,0.622,10.295,134.823,-27.124
16:36:48:256,11.221,0.098,0.413,0.622,10.295,134.823,-27.124
16:36:48:283,11.247,0.098,0.413,0.622,10.295,134.823,-27.124
16:36:48:31,11.275,0.098,0.413,0.622,10.295,134.823,-27.124
16:36:48:337,11.302,0.098,0.413,0.622,10.295,134.823,-27.124
16:36:48:364,11.329,0.805,-0.103,0.821,10.440,145.717,-56.049
16:36:48:392,11.356,0.755,-0.335,0.713,21.563,150.879,-70.179
16:36:48:419,11.384,0.638,-0.773,0.447,45.470,154.203,-80.232
16:36:48:447,11.412,0.638,-0.773,0.447,45.470,154.203,-80.232
16:36:48:474,11.439,0.709,-0.803,0.343,78.366,157.920,-87.043
16:36:48:501,11.466,0.670,-0.753,0.344,82.046,158.977,-87.688
16:36:48:529,11.493,0.676,-0.561,0.396,76.557,161.624,-84.428
16:36:48:556,11.521,0.676,-0.561,0.396,76.557,161.624,-84.428
16:36:48:583,11.548,0.676,-0.561,0.396,76.557,161.624,-84.428
16:36:48:611,11.575,0.691,-0.186,0.252,51.449,169.082,-65.057
16:36:48:637,11.602,0.914,0.005,0.325,42.594,172.196,-54.808
16:36:48:665,11.629,0.914,0.005,0.325,42.594,172.196,-54.808
16:36:48:692,11.656,0.914,0.005,0.325,42.594,172.196,-54.808
16:36:48:719,11.684,0.914,0.005,0.325,42.594,172.196,-54.808
16:36:48:746,11.711,-0.625,0.680,0.097,16.903,158.970,-6.434
16:36:48:773,11.738,-0.625,0.680,0.097,16.903,158.970,-6.434
16:36:48:801,11.765,-0.841,0.471,-0.005,17.890,156.982,0.139
16:36:48:829,11.793,-0.841,0.471,-0.005,17.890,156.982,0.139
16:36:48:856,11.821,-0.681,-0.372,-0.680,20.748,155.551,13.571
16:36:48:883,11.847,-0.681,-0.372,-0.680,20.748,155.551,13.571
16:36:48:911,11.875,-0.681,-0.372,-0.680,20.748,155.551,13.571
16:36:48:938,11.902,-1.110,-0.259,-0.356,24.171,153.351,17.778
16:36:48:965,11.929,-1.192,-0.156,-0.238,28.427,148.225,14.243
16:36:48:992,11.957,-1.192,-0.156,-0.238,28.427,148.225,14.243
16:36:49:019,11.983,-1.192,-0.156,-0.238,28.427,148.225,14.243
16:36:49:046,12.011,-1.192,-0.156,-0.238,28.427,148.225,14.243
16:36:49:074,12.039,-1.192,-0.156,-0.238,28.427,148.225,14.243
16:36:49:101,12.066,-1.192,-0.156,-0.238,28.427,148.225,14.243
16:36:49:129,12.093,-1.192,-0.156,-0.238,28.427,148.225,14.243
16:36:49:156,12.121,-1.192,-0.156,-0.238,28.427,148.225,14.243
16:36:49:184,12.148,-0.745,0.535,0.592,26.990,151.629,-0.932
16:36:49:211,12.176,0.214,0.113,0.724,25.045,170.868,-20.028
16:36:49:238,12.203,0.828,0.138,0.760,29.487,179.733,-41.994
16:36:49:265,12.230,0.913,-0.073,0.590,30.624,-179.129,-50.557
16:36:49:292,12.257,1.095,-0.104,0.404,31.904,-177.692,-55.881
16:36:49:32,12.284,1.241,-0.066,0.224,35.508,-174.667,-62.921
16:36:49:347,12.312,1.241,-0.066,0.224,35.508,-174.667,-62.921
16:36:49:374,12.338,1.241,-0.066,0.224,35.508,-174.667,-62.921
16:36:49:401,12.366,1.150,-0.564,0.047,50.451,-168.053,-72.261
16:36:49:428,12.393,1.150,-0.564,0.047,50.451,-168.053,-72.261
16:36:49:455,12.420,0.612,-0.680,-0.328,65.691,-157.873,-76.640
16:36:49:482,12.447,0.356,-0.535,-0.311,64.639,-155.436,-75.404
16:36:49:51,12.474,0.438,-0.465,-0.331,60.794,-151.601,-71.898
16:36:49:537,12.502,0.438,-0.465,-0.331,60.794,-151.601,-71.898
16:36:49:564,12.528,0.438,-0.465,-0.331,60.794,-151.601,-71.898
16:36:49:591,12.556,0.438,-0.465,-0.331,60.794,-151.601,-71.898
16:36:49:618,12.583,0.438,-0.465,-0.331,60.794,-151.601,-71.898
16:36:49:646,12.611,0.438,-0.465,-0.331,60.794,-151.601,-71.898
16:36:49:673,12.638,-0.101,0.365,-0.310,22.221,-137.776,-32.322
16:36:49:702,12.666,-0.356,0.287,-0.188,19.214,-138.478,-26.646
16:36:49:73,12.694,-0.130,0.083,0.030,17.283,-138.708,-18.440
16:36:49:756,12.721,-0.130,0.083,0.030,17.283,-138.708,-18.440
16:36:49:783,12.748,-0.328,0.353,0.272,16.499,-140.857,-5.487
16:36:49:811,12.775,-0.523,0.257,0.406,17.472,-144.634,0.698
16:36:49:838,12.803,-0.619,0.179,0.469,18.628,-147.737,3.762
16:36:49:865,12.829,-0.595,0.173,0.511,20.605,-152.101,6.625
16:36:49:892,12.857,-0.595,0.173,0.511,20.605,-152.101,6.625
16:36:49:919,12.884,-0.595,0.173,0.511,20.605,-152.101,6.625
16:36:49:946,12.911,-0.595,0.173,0.511,20.605,-152.101,6.625
16:36:49:974,12.938,-0.538,-0.003,0.600,23.697,-163.437,4.440
16:36:50:,12.965,-0.538,-0.003,0.600,23.697,-163.437,4.440
16:36:50:028,12.993,-0.538,-0.003,0.600,23.697,-163.437,4.440
16:36:50:056,13.021,-0.538,-0.003,0.600,23.697,-163.437,4.440
16:36:50:083,13.048,-0.417,0.096,0.504,21.406,-164.407,-1.971
16:36:50:111,13.075,-0.203,0.028,0.464,19.765,-160.691,-4.577
16:36:50:137,13.102,0.224,0.062,0.248,16.858,-146.900,-13.301
16:36:50:165,13.129,0.224,0.062,0.248,16.858,-146.900,-13.301
16:36:50:192,13.156,0.362,-0.085,0.049,17.093,-138.020,-25.080
16:36:50:219,13.183,0.389,-0.086,-0.002,17.401,-136.164,-29.588
16:36:50:246,13.210,0.468,-0.041,-0.094,17.984,-133.925,-36.400
16:36:50:274,13.239,0.468,-0.041,-0.094,17.984,-133.925,-36.400
16:36:50:301,13.266,0.531,-0.150,-0.186,20.020,-131.113,-46.970
16:36:50:329,13.294,0.531,-0.150,-0.186,20.020,-131.113,-46.970
16:36:50:356,13.320,0.716,-0.074,-0.477,24.181,-128.359,-54.777
16:36:50:383,13.348,0.716,-0.074,-0.477,24.181,-128.359,-54.777
16:36:50:41,13.375,0.509,-0.264,-0.518,29.385,-125.354,-57.985
16:36:50:438,13.402,0.552,-0.278,-0.545,32.000,-123.487,-57.463
16:36:50:465,13.430,0.412,-0.332,-0.431,32.771,-122.290,-55.982
16:36:50:492,13.456,0.302,-0.332,-0.431,31.907,-120.904,-52.787
16:36:50:519,13.484,0.302,-0.332,-0.431,31.907,-120.904,-52.787
16:36:50:547,13.512,0.302,-0.332,-0.431,31.907,-120.904,-52.787
16:36:50:574,13.538,0.324,0.186,-0.263,20.689,-122.123,-40.403
16:36:50:601,13.566,0.293,0.126,-0.197,18.044,-123.067,-36.253
16:36:50:628,13.593,0.127,0.043,-0.032,15.174,-125.237,-29.247
16:36:50:655,13.620,0.127,0.043,-0.032,15.174,-125.237,-29.247
16:36:50:682,13.647,-0.265,-0.012,0.320,13.361,-130.665,-9.748
16:36:50:709,13.674,-0.265,-0.012,0.320,13.361,-130.665,-9.748
16:36:50:736,13.701,-0.265,-0.012,0.320,13.361,-130.665,-9.748
16:36:50:764,13.728,-0.265,-0.012,0.320,13.361,-130.665,-9.748
16:36:50:791,13.755,-0.372,0.063,0.443,14.809,-129.896,0.769
16:36:50:818,13.782,-0.496,-0.014,0.630,17.144,-129.760,8.882
16:36:50:845,13.809,-0.496,-0.014,0.630,17.144,-129.760,8.882
16:36:50:872,13.837,-0.446,-0.018,0.749,18.594,-131.041,9.354
16:36:50:9,13.864,-0.446,-0.018,0.749,18.594,-131.041,9.354
16:36:50:927,13.891,-0.167,0.093,0.708,19.139,-128.195,6.979
16:36:50:954,13.918,-0.167,0.093,0.708,19.139,-128.195,6.979
16:36:50:981,13.945,-0.167,0.093,0.708,19.139,-128.195,6.979
16:36:51:008,13.973,0.236,0.210,0.523,18.124,-117.636,-0.796
16:36:51:035,13.999,0.236,0.210,0.523,18.124,-117.636,-0.796
16:36:51:062,14.027,0.492,0.224,0.272,18.710,-108.234,-7.265
16:36:51:089,14.054,0.492,0.224,0.272,18.710,-108.234,-7.265
16:36:51:117,14.081,0.583,0.088,0.078,19.519,-104.562,-10.105
16:36:51:144,14.108,0.522,-0.196,-0.107,23.201,-97.909,-20.215
16:36:51:171,14.135,0.538,-0.201,-0.197,24.416,-96.935,-24.058
16:36:51:198,14.163,0.595,-0.192,-0.349,26.238,-96.020,-29.968
16:36:51:226,14.191,0.595,-0.192,-0.349,26.238,-96.020,-29.968
16:36:51:253,14.218,0.595,-0.192,-0.349,26.238,-96.020,-29.968
16:36:51:281,14.246,0.595,-0.192,-0.349,26.238,-96.020,-29.968
16:36:51:309,14.273,0.549,-0.262,-0.754,33.646,-94.280,-51.844
16:36:51:336,14.300,0.549,-0.262,-0.754,33.646,-94.280,-51.844
16:36:51:363,14.327,0.549,-0.262,-0.754,33.646,-94.280,-51.844
16:36:51:39,14.355,0.188,-0.192,-0.505,30.881,-92.778,-56.146
16:36:51:417,14.382,0.090,-0.196,-0.422,29.337,-90.467,-55.404
16:36:51:444,14.409,0.090,-0.196,-0.422,29.337,-90.467,-55.404
16:36:51:471,14.436,-0.146,-0.117,-0.304,28.412,-87.000,-53.047
16:36:51:498,14.463,-0.164,0.098,-0.617,26.703,-79.039,-45.400
16:36:51:525,14.490,-0.164,0.098,-0.617,26.703,-79.039,-45.400
16:36:51:552,14.517,-0.160,0.193,-0.503,24.136,-77.256,-41.563
16:36:51:58,14.544,-0.137,0.091,-0.116,15.834,-77.831,-29.371
16:36:51:607,14.572,-0.327,0.070,0.184,13.803,-78.708,-25.089
16:36:51:634,14.599,-0.151,-0.070,0.293,12.460,-79.163,-18.730
16:36:51:662,14.626,-0.095,-0.048,0.235,12.394,-78.320,-14.791
16:36:51:689,14.653,-0.095,-0.048,0.235,12.394,-78.320,-14.791
16:36:51:716,14.680,-0.066,0.197,0.556,12.897,-76.845,-2.752
16:36:51:743,14.707,-0.066,0.197,0.556,12.897,-76.845,-2.752
16:36:51:77,14.735,-0.066,0.197,0.556,12.897,-76.845,-2.752
16:36:51:797,14.762,0.202,-0.078,0.656,15.946,-75.758,8.380
16:36:51:824,14.789,0.202,-0.078,0.656,15.946,-75.758,8.380
16:36:51:851,14.816,0.202,-0.078,0.656,15.946,-75.758,8.380
16:36:51:878,14.843,0.202,-0.078,0.656,15.946,-75.758,8.380
16:36:51:906,14.870,0.454,0.173,0.702,19.144,-75.032,10.612
16:36:51:933,14.898,0.454,0.173,0.702,19.144,-75.032,10.612
16:36:51:96,14.924,0.454,0.173,0.702,19.144,-75.032,10.612
16:36:51:987,14.952,0.423,0.061,0.637,19.367,-75.826,9.160
16:36:52:014,14.978,0.423,0.061,0.637,19.367,-75.826,9.160
16:36:52:042,15.006,0.573,0.211,0.467,19.087,-75.742,4.092
16:36:52:068,15.033,0.573,0.211,0.467,19.087,-75.742,4.092
16:36:52:096,15.060,0.522,0.086,0.239,17.814,-71.529,-1.178
16:36:52:122,15.087,0.522,0.086,0.239,17.814,-71.529,-1.178
16:36:52:15,15.114,0.196,-0.168,-0.281,17.409,-55.834,-15.745
16:36:52:176,15.141,0.196,-0.168,-0.281,17.409,-55.834,-15.745
16:36:52:203,15.168,0.196,-0.168,-0.281,17.409,-55.834,-15.745
16:36:52:231,15.196,0.196,-0.168,-0.281,17.409,-55.834,-15.745
16:36:52:258,15.223,0.196,-0.168,-0.281,17.409,-55.834,-15.745
16:36:52:286,15.250,-0.027,-0.059,-0.561,19.745,-50.583,-39.983
16:36:52:313,15.277,-0.272,0.018,-0.780,22.131,-48.483,-49.052
16:36:52:34,15.304,-0.291,-0.215,-0.717,25.943,-45.578,-53.819
16:36:52:367,15.331,-0.291,-0.215,-0.717,25.943,-45.578,-53.819
16:36:52:394,15.358,-0.291,-0.215,-0.717,25.943,-45.578,-53.819
16:36:52:421,15.386,-0.291,-0.215,-0.717,25.943,-45.578,-53.819
16:36:52:448,15.412,-0.336,-0.190,-0.614,26.922,-44.486,-54.458
16:36:52:475,15.440,-0.461,-0.094,-0.307,22.964,-38.326,-45.765
16:36:52:502,15.467,-0.345,0.089,-0.335,20.933,-37.762,-42.730
16:36:52:529,15.494,-0.345,0.089,-0.335,20.933,-37.762,-42.730
16:36:52:556,15.521,-0.345,0.089,-0.335,20.933,-37.762,-42.730
16:36:52:583,15.548,-0.345,0.089,-0.335,20.933,-37.762,-42.730
16:36:52:61,15.575,-0.345,0.089,-0.335,20.933,-37.762,-42.730
16:36:52:638,15.603,-0.106,0.012,0.188,9.446,-44.566,-21.093
16:36:52:666,15.630,-0.106,0.012,0.188,9.446,-44.566,-21.093
16:36:52:693,15.658,-0.106,0.012,0.188,9.446,-44.566,-21.093
16:36:52:72,15.685,-0.106,0.012,0.188,9.446,-44.566,-21.093
16:36:52:747,15.712,-0.106,0.012,0.188,9.446,-44.566,-21.093
16:36:52:775,15.739,0.311,0.069,0.380,10.663,-54.960,1.019
16:36:52:802,15.767,0.311,0.069,0.380,10.663,-54.960,1.019
16:36:52:829,15.794,0.311,0.069,0.380,10.663,-54.960,1.019
16:36:52:856,15.821,0.311,0.069,0.380,10.663,-54.960,1.019
16:36:52:883,15.848,0.311,0.069,0.380,10.663,-54.960,1.019
16:36:52:911,15.875,0.658,0.175,0.651,18.705,-60.411,14.859
16:36:52:938,15.903,0.658,0.175,0.651,18.705,-60.411,14.859
16:36:52:965,15.930,0.573,-0.080,0.660,21.254,-68.004,13.518
16:36:52:993,15.957,0.573,-0.080,0.660,21.254,-68.004,13.518
16:36:53:019,15.984,0.495,0.025,0.441,16.865,-65.548,8.326
16:36:53:047,16.012,0.495,0.025,0.441,16.865,-65.548,8.326
16:36:53:074,16.038,0.495,0.025,0.441,16.865,-65.548,8.326
16:36:53:101,16.066,0.230,0.170,0.107,10.578,-58.524,-4.347
16:36:53:128,16.093,0.230,0.170,0.107,10.578,-58.524,-4.347
16:36:53:156,16.120,0.230,0.170,0.107,10.578,-58.524,-4.347
16:36:53:183,16.148,0.230,0.170,0.107,10.578,-58.524,-4.347
16:36:53:21,16.174,0.114,0.167,-0.133,15.256,-32.299,-35.834
16:36:53:237,16.202,0.114,0.167,-0.133,15.256,-32.299,-35.834
16:36:53:264,16.229,-0.548,-0.238,-0.537,19.794,-30.635,-44.494
16:36:53:292,16.256,-0.309,-0.033,-0.567,19.931,-32.039,-48.647
16:36:53:319,16.284,-0.311,0.018,-0.510,19.089,-33.492,-50.198
16:36:53:346,16.311,-0.311,0.018,-0.510,19.089,-33.492,-50.198
16:36:53:374,16.338,-0.395,-0.243,-0.491,18.122,-35.529,-50.467
16:36:53:401,16.366,-0.329,-0.211,-0.413,16.785,-36.386,-49.196
16:36:53:428,16.392,-0.279,-0.011,-0.237,14.001,-37.939,-46.162
16:36:53:455,16.420,-0.339,0.066,-0.144,12.454,-38.911,-43.520
16:36:53:482,16.446,-0.315,0.164,-0.127,10.822,-39.928,-38.892
16:36:53:509,16.474,-0.315,0.164,-0.127,10.822,-39.928,-38.892
16:36:53:536,16.500,-0.240,0.071,-0.003,8.910,-40.528,-28.818
16:36:53:563,16.528,-0.170,0.029,0.153,8.345,-41.622,-22.846
16:36:53:59,16.555,-0.028,-0.051,0.295,8.193,-43.022,-18.969
16:36:53:617,16.582,0.172,-0.146,0.334,8.748,-45.880,-13.583
16:36:53:645,16.609,0.172,-0.146,0.334,8.748,-45.880,-13.583
16:36:53:672,16.637,0.172,-0.146,0.334,8.748,-45.880,-13.583
16:36:53:699,16.663,0.324,-0.151,0.307,14.190,-55.884,-1.360
16:36:53:726,16.690,0.324,-0.151,0.307,14.190,-55.884,-1.360
16:36:53:753,16.718,0.368,-0.152,0.337,16.102,-58.460,-0.111
16:36:53:78,16.744,0.429,0.005,0.291,17.647,-60.975,0.302
16:36:53:807,16.772,0.582,0.263,0.285,19.196,-64.560,-0.039
16:36:53:834,16.798,0.582,0.263,0.285,19.196,-64.560,-0.039
16:36:53:861,16.826,0.585,0.281,0.369,19.728,-67.438,-0.428
16:36:53:888,16.853,0.585,0.281,0.369,19.728,-67.438,-0.428
16:36:53:916,16.880,0.389,-0.061,0.253,18.994,-67.201,-0.819
16:36:53:943,16.907,0.391,0.065,0.182,17.974,-66.092,-1.901
16:36:53:97,16.935,0.402,0.170,0.235,17.066,-65.498,-3.091
16:36:53:998,16.962,0.348,0.053,0.269,15.524,-63.643,-5.188
16:36:54:025,16.990,0.242,-0.038,0.136,14.390,-61.693,-6.813
16:36:54:053,17.017,0.205,-0.051,0.093,12.660,-57.957,-9.690
16:36:54:079,17.044,0.130,-0.122,0.048,11.103,-53.745,-13.217
16:36:54:107,17.071,0.055,-0.195,-0.088,10.277,-50.694,-16.011
16:36:54:134,17.098,0.055,-0.195,-0.088,10.277,-50.694,-16.011
16:36:54:162,17.126,0.055,-0.195,-0.088,10.277,-50.694,-16.011
16:36:54:189,17.154,-0.088,-0.087,-0.218,8.492,-40.211,-29.367
16:36:54:216,17.180,-0.134,-0.087,-0.265,8.503,-37.205,-34.417
16:36:54:244,17.209,-0.192,-0.069,-0.305,8.841,-35.349,-37.557
16:36:54:271,17.236,-0.329,-0.029,-0.371,9.909,-32.966,-41.605
16:36:54:298,17.263,-0.417,0.044,-0.444,10.988,-31.560,-43.630
16:36:54:326,17.290,-0.430,0.018,-0.433,12.641,-30.054,-45.413
16:36:54:354,17.318,-0.430,0.018,-0.433,12.641,-30.054,-45.413
16:36:54:381,17.345,-0.509,0.058,-0.360,14.722,-28.482,-45.587
16:36:54:408,17.373,-0.509,0.058,-0.360,14.722,-28.482,-45.587
16:36:54:435,17.399,-0.302,-0.105,-0.102,14.990,-28.504,-41.563
16:36:54:462,17.427,-0.361,-0.018,-0.022,13.897,-29.780,-37.906
16:36:54:489,17.454,-0.305,0.305,0.014,12.212,-31.551,-33.746
16:36:54:516,17.481,-0.305,0.305,0.014,12.212,-31.551,-33.746
16:36:54:543,17.508,-0.305,0.305,0.014,12.212,-31.551,-33.746
16:36:54:571,17.535,0.124,-0.039,0.121,10.143,-35.888,-21.963
16:36:54:597,17.562,0.124,-0.039,0.121,10.143,-35.888,-21.963
16:36:54:624,17.589,0.124,-0.039,0.121,10.143,-35.888,-21.963
16:36:54:652,17.616,0.305,-0.096,0.226,12.389,-42.455,-5.222
16:36:54:68,17.644,0.332,-0.073,0.123,13.219,-42.213,-2.931
16:36:54:706,17.671,0.332,-0.073,0.123,13.219,-42.213,-2.931
16:36:54:734,17.698,0.332,-0.073,0.123,13.219,-42.213,-2.931
16:36:54:761,17.725,0.332,-0.073,0.123,13.219,-42.213,-2.931
16:36:54:788,17.753,0.332,-0.073,0.123,13.219,-42.213,-2.931
16:36:54:815,17.779,0.622,0.204,0.262,16.150,-41.369,4.504
16:36:54:843,17.807,0.622,0.204,0.262,16.150,-41.369,4.504
16:36:54:869,17.834,0.678,0.309,0.257,16.021,-39.811,5.415
16:36:54:897,17.861,0.645,0.204,0.268,15.656,-38.970,4.948
16:36:54:924,17.888,0.557,-0.121,0.202,15.046,-37.367,4.002
16:36:54:951,17.915,0.566,-0.035,0.173,14.405,-35.381,2.993
16:36:54:978,17.942,0.612,0.225,0.069,13.189,-31.057,1.148
16:36:55:005,17.969,0.506,0.262,-0.102,12.241,-24.533,-0.929
16:36:55:033,17.997,0.336,0.235,-0.283,11.941,-19.464,-2.567
16:36:55:059,18.024,0.336,0.235,-0.283,11.941,-19.464,-2.567
16:36:55:087,18.051,0.031,-0.068,-0.313,12.528,-8.550,-8.291
16:36:55:113,18.078,0.031,-0.068,-0.313,12.528,-8.550,-8.291
16:36:55:14,18.105,0.031,-0.068,-0.313,12.528,-8.550,-8.291
16:36:55:168,18.133,-0.283,-0.131,-0.357,15.847,1.842,-21.602
16:36:55:196,18.160,-0.472,-0.075,-0.498,18.424,2.524,-31.338
16:36:55:222,18.187,-0.472,-0.075,-0.498,18.424,2.524,-31.338
16:36:55:249,18.214,-0.472,-0.075,-0.498,18.424,2.524,-31.338
16:36:55:277,18.242,-0.653,-0.044,-0.384,19.476,-0.422,-45.020
16:36:55:305,18.269,-0.653,-0.044,-0.384,19.476,-0.422,-45.020
16:36:55:332,18.296,-0.546,-0.081,-0.200,19.146,-0.374,-49.435
16:36:55:359,18.323,-0.546,-0.081,-0.200,19.146,-0.374,-49.435
16:36:55:386,18.351,-0.503,-0.141,-0.145,19.483,0.497,-48.834
16:36:55:413,18.378,-0.503,-0.141,-0.145,19.483,0.497,-48.834
16:36:55:44,18.404,-0.503,-0.141,-0.145,19.483,0.497,-48.834
16:36:55:467,18.432,-0.256,-0.168,0.049,17.974,5.668,-40.112
16:36:55:494,18.459,-0.121,0.307,0.102,13.773,8.263,-31.488
16:36:55:522,18.486,0.046,0.189,0.069,11.342,10.206,-25.171
16:36:55:549,18.514,0.023,0.081,0.052,10.123,12.139,-19.091
16:36:55:576,18.541,0.023,0.081,0.052,10.123,12.139,-19.091
16:36:55:604,18.568,0.023,0.081,0.052,10.123,12.139,-19.091
16:36:55:63,18.595,0.023,0.081,0.052,10.123,12.139,-19.091
16:36:55:658,18.622,0.023,0.081,0.052,10.123,12.139,-19.091
16:36:55:684,18.649,0.466,-0.222,0.251,7.470,14.237,-3.490
16:36:55:712,18.676,0.466,-0.222,0.251,7.470,14.237,-3.490
16:36:55:738,18.703,0.542,0.078,-0.022,6.690,16.179,0.029
16:36:55:766,18.730,0.542,0.078,-0.022,6.690,16.179,0.029
16:36:55:793,18.758,0.570,0.223,-0.138,7.408,18.769,0.979
16:36:55:82,18.785,0.570,0.223,-0.138,7.408,18.769,0.979
16:36:55:847,18.812,0.570,0.223,-0.138,7.408,18.769,0.979
16:36:55:874,18.838,0.555,0.298,-0.260,9.363,22.306,1.968
16:36:55:902,18.866,0.452,0.223,-0.300,9.772,22.989,1.519
16:36:55:929,18.894,0.260,0.013,-0.319,10.469,24.761,0.466
16:36:55:956,18.921,0.150,0.176,-0.354,10.995,26.615,-1.734
16:36:55:984,18.948,0.150,0.176,-0.354,10.995,26.615,-1.734
16:36:56:01,18.975,0.150,0.176,-0.354,10.995,26.615,-1.734
16:36:56:038,19.002,-0.196,0.115,-0.243,11.845,33.679,-15.198
16:36:56:065,19.030,-0.196,0.115,-0.243,11.845,33.679,-15.198
16:36:56:093,19.057,-0.336,-0.236,-0.076,12.705,37.543,-23.859
16:36:56:12,19.084,-0.357,-0.186,-0.001,12.931,38.975,-29.699
16:36:56:147,19.112,-0.357,-0.186,-0.001,12.931,38.975,-29.699
16:36:56:175,19.139,-0.464,-0.228,0.072,12.998,40.601,-39.581
16:36:56:201,19.166,-0.464,-0.228,0.072,12.998,40.601,-39.581
16:36:56:229,19.194,-0.507,-0.262,0.230,12.645,42.317,-48.781
16:36:56:256,19.221,-0.507,-0.262,0.230,12.645,42.317,-48.781
16:36:56:283,19.248,-0.603,-0.184,0.358,13.319,43.841,-53.103
16:36:56:311,19.275,-0.603,-0.184,0.358,13.319,43.841,-53.103
16:36:56:338,19.303,-0.603,-0.184,0.358,13.319,43.841,-53.103
16:36:56:366,19.330,-0.603,-0.184,0.358,13.319,43.841,-53.103
16:36:56:393,19.358,-0.585,-0.054,0.366,16.978,46.618,-56.372
16:36:56:42,19.385,-0.198,-0.272,0.488,21.742,54.531,-47.313
16:36:56:448,19.412,-0.162,-0.005,0.462,17.739,54.630,-41.766
16:36:56:477,19.442,-0.162,-0.005,0.462,17.739,54.630,-41.766
16:36:56:504,19.469,0.073,0.345,0.258,10.070,51.280,-31.084
16:36:56:531,19.496,0.156,0.317,0.092,7.891,49.719,-23.530
16:36:56:558,19.523,0.250,0.289,0.024,7.307,49.035,-18.440
16:36:56:586,19.550,0.301,0.057,-0.087,7.443,48.968,-11.563
16:36:56:613,19.577,0.242,-0.164,-0.126,7.849,49.357,-7.555
16:36:56:639,19.604,0.242,-0.164,-0.126,7.849,49.357,-7.555
16:36:56:667,19.631,0.394,-0.121,-0.249,9.014,48.850,1.615
16:36:56:694,19.659,0.426,-0.116,-0.282,9.602,48.198,3.656
16:36:56:721,19.686,0.428,-0.178,-0.374,11.465,45.985,6.922
16:36:56:749,19.713,0.457,-0.035,-0.507,12.561,44.652,7.849
16:36:56:776,19.741,0.457,-0.035,-0.507,12.561,44.652,7.849
16:36:56:804,19.768,0.457,-0.035,-0.507,12.561,44.652,7.849
16:36:56:832,19.796,0.353,0.119,-0.582,14.640,43.107,8.064
16:36:56:859,19.823,0.378,0.202,-0.590,14.725,42.810,7.071
16:36:56:885,19.850,0.302,0.076,-0.524,14.517,43.141,4.916
16:36:56:913,19.878,0.302,0.076,-0.524,14.517,43.141,4.916
16:36:56:94,19.905,0.302,0.076,-0.524,14.517,43.141,4.916
16:36:56:968,19.933,0.165,0.052,-0.460,13.761,44.132,1.765
16:36:56:996,19.960,0.165,0.052,-0.460,13.761,44.132,1.765
16:36:57:023,19.988,-0.211,0.287,-0.145,10.453,54.739,-13.279
16:36:57:05,20.015,-0.211,0.287,-0.145,10.453,54.739,-13.279
16:36:57:077,20.042,-0.269,0.106,-0.004,10.865,62.306,-22.393
16:36:57:105,20.070,-0.409,-0.006,0.188,12.403,66.978,-28.043
16:36:57:132,20.097,-0.431,-0.178,0.289,13.784,69.480,-31.986
16:36:57:159,20.124,-0.399,-0.219,0.317,15.967,72.052,-38.005
16:36:57:186,20.151,-0.399,-0.219,0.317,15.967,72.052,-38.005
16:36:57:214,20.178,-0.406,-0.250,0.447,20.068,74.473,-47.596
16:36:57:24,20.205,-0.417,-0.259,0.508,22.896,75.346,-52.825
16:36:57:268,20.232,-0.514,-0.136,0.765,24.917,75.798,-55.853
16:36:57:295,20.259,-0.498,-0.237,0.793,27.908,76.412,-59.447
16:36:57:322,20.287,-0.498,-0.237,0.793,27.908,76.412,-59.447
16:36:57:349,20.314,-0.283,-0.327,0.632,30.110,79.174,-61.714
16:36:57:377,20.342,-0.283,-0.327,0.632,30.110,79.174,-61.714
16:36:57:404,20.369,-0.283,-0.327,0.632,30.110,79.174,-61.714
16:36:57:432,20.397,-0.283,-0.327,0.632,30.110,79.174,-61.714
16:36:57:459,20.424,-0.283,-0.327,0.632,30.110,79.174,-61.714
16:36:57:487,20.451,-0.283,-0.327,0.632,30.110,79.174,-61.714
16:36:57:515,20.480,0.109,0.136,0.360,17.201,89.312,-38.076
16:36:57:542,20.506,0.109,0.136,0.360,17.201,89.312,-38.076
16:36:57:57,20.534,0.327,0.074,-0.248,9.985,90.647,-19.641
16:36:57:596,20.561,0.327,0.074,-0.248,9.985,90.647,-19.641
16:36:57:624,20.588,0.242,-0.079,-0.422,9.123,92.933,-9.468
16:36:57:651,20.616,0.296,-0.137,-0.353,9.162,95.911,-4.486
16:36:57:678,20.642,0.296,-0.137,-0.353,9.162,95.911,-4.486
16:36:57:705,20.670,0.296,-0.137,-0.353,9.162,95.911,-4.486
16:36:57:732,20.696,0.026,0.029,-0.513,9.897,99.071,1.684
16:36:57:759,20.724,0.026,0.029,-0.513,9.897,99.071,1.684
16:36:57:786,20.751,-0.160,0.246,-0.545,11.735,98.922,3.025
16:36:57:814,20.778,-0.160,0.246,-0.545,11.735,98.922,3.025
16:36:57:841,20.805,-0.160,0.246,-0.545,11.735,98.922,3.025
16:36:57:868,20.832,-0.200,0.210,-0.484,13.853,96.585,-0.362
16:36:57:895,20.860,-0.200,0.210,-0.484,13.853,96.585,-0.362
16:36:57:922,20.887,-0.344,0.319,-0.302,14.434,96.587,-4.960
16:36:57:95,20.915,-0.344,0.319,-0.302,14.434,96.587,-4.960
16:36:57:977,20.942,-0.344,0.319,-0.302,14.434,96.587,-4.960
16:36:58:004,20.969,-0.358,0.173,-0.190,14.716,99.463,-10.273
16:36:58:031,20.996,-0.358,0.173,-0.190,14.716,99.463,-10.273
16:36:58:058,21.023,-0.223,-0.216,0.299,19.336,115.357,-21.762
16:36:58:086,21.050,-0.223,-0.216,0.299,19.336,115.357,-21.762
16:36:58:113,21.078,-0.168,-0.220,0.383,21.764,119.471,-26.267
16:36:58:14,21.104,-0.137,-0.139,0.508,23.503,121.551,-29.543
16:36:58:167,21.132,-0.137,-0.139,0.508,23.503,121.551,-29.543
16:36:58:194,21.159,-0.086,-0.190,0.607,29.070,124.307,-40.616
16:36:58:221,21.185,0.034,-0.032,0.891,33.599,124.219,-49.705
16:36:58:248,21.213,0.134,-0.092,1.025,35.427,124.192,-52.700
16:36:58:275,21.240,0.140,-0.233,0.930,37.379,124.302,-56.126
16:36:58:303,21.268,0.140,-0.233,0.930,37.379,124.302,-56.126
16:36:58:331,21.295,0.213,-0.256,0.716,36.810,124.486,-59.048
16:36:58:358,21.322,0.213,-0.256,0.716,36.810,124.486,-59.048
16:36:58:385,21.350,0.206,-0.266,0.276,32.004,125.366,-57.505
16:36:58:412,21.377,0.268,-0.231,0.351,28.717,126.464,-55.077
16:36:58:44,21.404,0.340,0.075,0.477,25.242,128.524,-51.392
16:36:58:467,21.431,0.310,0.070,0.378,23.083,129.979,-48.420
16:36:58:494,21.458,0.331,0.046,0.140,20.674,132.440,-43.463
16:36:58:521,21.485,0.302,-0.039,0.016,18.870,133.909,-39.738
16:36:58:548,21.513,0.275,-0.100,-0.040,16.256,135.382,-34.165
16:36:58:575,21.539,0.222,-0.157,-0.135,13.331,135.370,-28.410
16:36:58:602,21.567,0.274,-0.164,-0.194,11.492,133.970,-24.461
16:36:58:629,21.594,0.274,-0.164,-0.194,11.492,133.970,-24.461
16:36:58:656,21.621,-0.035,0.039,-0.334,9.223,130.100,-18.993
16:36:58:683,21.648,-0.035,0.039,-0.334,9.223,130.100,-18.993
16:36:58:71,21.675,-0.160,0.209,-0.241,10.355,131.563,-6.486
16:36:58:737,21.702,-0.160,0.209,-0.241,10.355,131.563,-6.486
16:36:58:764,21.729,-0.160,0.209,-0.241,10.355,131.563,-6.486
16:36:58:791,21.756,-0.160,0.209,-0.241,10.355,131.563,-6.486
16:36:58:819,21.783,-0.160,0.209,-0.241,10.355,131.563,-6.486
16:36:58:846,21.810,-0.160,0.209,-0.241,10.355,131.563,-6.486
16:36:58:873,21.837,-0.160,0.209,-0.241,10.355,131.563,-6.486
16:36:58:9,21.864,-0.160,0.209,-0.241,10.355,131.563,-6.486
16:36:58:927,21.892,-0.373,0.354,-0.288,12.305,132.120,-0.400
16:36:58:955,21.919,-0.373,0.354,-0.288,12.305,132.120,-0.400
16:36:58:982,21.946,-0.383,-0.052,-0.167,14.775,123.266,-1.979
16:36:59:009,21.973,-0.373,0.032,-0.178,14.534,122.324,-4.341
16:36:59:036,22.000,-0.218,0.074,0.029,12.557,128.203,-13.305
16:36:59:063,22.028,-0.025,-0.046,0.233,12.594,136.028,-21.052
16:36:59:09,22.055,0.068,-0.176,0.271,13.485,140.249,-26.758
16:36:59:117,22.082,0.110,-0.187,0.275,14.306,142.546,-30.841
16:36:59:144,22.109,0.166,-0.175,0.322,15.919,145.364,-37.092
16:36:59:171,22.136,0.238,-0.181,0.403,17.341,146.918,-41.236
16:36:59:198,22.163,0.299,-0.177,0.420,19.804,148.736,-47.122
16:36:59:225,22.190,0.424,-0.083,0.507,22.556,150.124,-52.148
16:36:59:252,22.217,0.449,-0.104,0.494,24.800,150.902,-54.843
16:36:59:28,22.245,0.449,-0.104,0.494,24.800,150.902,-54.843
16:36:59:308,22.272,0.522,-0.171,0.487,30.231,152.921,-57.920
16:36:59:335,22.300,0.563,-0.287,0.403,32.175,154.161,-57.447
16:36:59:362,22.326,0.563,-0.287,0.403,32.175,154.161,-57.447
16:36:59:39,22.354,0.563,-0.287,0.403,32.175,154.161,-57.447
16:36:59:416,22.381,0.532,-0.282,0.399,30.797,154.932,-53.695
16:36:59:444,22.408,0.440,-0.021,0.180,23.875,153.252,-46.786
16:36:59:471,22.435,0.476,0.199,0.339,20.378,151.757,-42.029
16:36:59:497,22.462,0.372,0.160,0.311,18.266,150.577,-38.506
16:36:59:525,22.489,0.372,0.160,0.311,18.266,150.577,-38.506
16:36:59:552,22.516,0.108,0.011,0.085,13.288,145.485,-27.399
16:36:59:579,22.544,-0.137,-0.204,-0.172,11.715,141.118,-18.338
16:36:59:607,22.572,-0.137,-0.204,-0.172,11.715,141.118,-18.338
16:36:59:634,22.598,-0.137,-0.204,-0.172,11.715,141.118,-18.338
16:36:59:662,22.626,-0.241,-0.122,-0.206,12.000,139.498,-9.862
16:36:59:688,22.653,-0.241,-0.122,-0.206,12.000,139.498,-9.862
16:36:59:716,22.680,-0.241,-0.122,-0.206,12.000,139.498,-9.862
16:36:59:743,22.708,-0.361,-0.112,-0.221,13.588,139.905,1.555
16:36:59:77,22.734,-0.565,0.285,-0.353,14.609,137.698,5.319
16:36:59:797,22.762,-0.542,0.134,-0.297,15.137,136.119,6.190
16:36:59:824,22.789,-0.542,0.134,-0.297,15.137,136.119,6.190
16:36:59:851,22.816,-0.606,0.356,-0.407,15.366,132.789,5.146
16:36:59:879,22.843,-0.436,0.098,-0.274,15.064,131.823,3.915
16:36:59:906,22.871,-0.436,0.098,-0.274,15.064,131.823,3.915
16:36:59:934,22.899,-0.350,0.344,-0.224,13.397,130.317,-2.784
16:36:59:961,22.925,-0.350,0.344,-0.224,13.397,130.317,-2.784
16:36:59:988,22.953,-0.062,0.299,0.065,10.578,134.032,-15.237
16:37:00:015,22.980,0.051,0.242,0.127,10.087,137.652,-21.398
16:37:00:042,23.007,0.251,-0.074,0.477,12.466,145.199,-26.954
16:37:00:07,23.035,0.374,-0.251,0.446,15.317,150.546,-31.068
16:37:00:097,23.062,-0.200,-0.089,0.053,18.542,153.552,-35.786
16:37:00:124,23.089,0.628,-0.430,0.460,22.105,156.396,-39.681
16:37:00:151,23.116,0.628,-0.430,0.460,22.105,156.396,-39.681
16:37:00:179,23.143,0.356,-0.342,0.410,26.214,154.593,-50.813
16:37:00:206,23.171,0.356,-0.342,0.410,26.214,154.593,-50.813
16:37:00:234,23.198,0.296,-0.386,0.366,27.752,152.384,-57.711
16:37:00:26,23.225,0.449,-0.141,0.518,27.706,151.520,-59.629
16:37:00:288,23.252,0.502,-0.145,0.573,28.460,150.845,-60.465
16:37:00:315,23.279,0.502,-0.145,0.573,28.460,150.845,-60.465
16:37:00:342,23.307,0.483,-0.188,0.396,29.043,150.284,-57.970
16:37:00:369,23.334,0.483,-0.188,0.396,29.043,150.284,-57.970
16:37:00:397,23.361,0.334,0.166,0.377,21.657,146.863,-46.032
16:37:00:424,23.389,0.378,0.433,0.284,17.283,144.564,-39.331
16:37:00:451,23.415,0.378,0.433,0.284,17.283,144.564,-39.331
16:37:00:478,23.443,0.378,0.433,0.284,17.283,144.564,-39.331
16:37:00:505,23.470,0.378,0.433,0.284,17.283,144.564,-39.331
16:37:00:532,23.497,-0.099,-0.008,-0.199,12.679,141.145,-18.772
16:37:00:559,23.524,-0.166,-0.156,-0.242,12.694,142.601,-13.943
16:37:00:586,23.551,-0.174,-0.253,-0.273,12.799,143.748,-11.029
16:37:00:614,23.579,-0.193,-0.311,-0.275,12.983,145.026,-7.202
16:37:00:641,23.605,-0.271,-0.143,-0.268,13.114,145.516,-5.055
16:37:00:668,23.633,-0.271,-0.143,-0.268,13.114,145.516,-5.055
16:37:00:696,23.661,-0.306,-0.071,-0.297,13.348,145.895,-2.383
16:37:00:723,23.688,-0.357,-0.155,-0.279,14.497,146.184,0.775
16:37:00:75,23.715,-0.357,-0.155,-0.279,14.497,146.184,0.775
16:37:00:777,23.742,-0.567,0.260,-0.264,15.621,145.793,1.945
16:37:00:805,23.770,-0.567,0.260,-0.264,15.621,145.793,1.945
16:37:00:832,23.797,-0.567,0.260,-0.264,15.621,145.793,1.945
16:37:00:859,23.823,-0.559,0.424,-0.113,16.921,145.321,-0.090
16:37:00:886,23.851,-0.559,0.424,-0.113,16.921,145.321,-0.090
16:37:00:913,23.878,-0.430,0.110,0.019,17.349,145.294,-3.998
16:37:00:941,23.905,-0.430,0.110,0.019,17.349,145.294,-3.998
16:37:00:968,23.932,-0.414,0.409,0.154,17.243,145.949,-7.554
16:37:00:995,23.960,-0.211,0.086,0.345,17.454,149.042,-14.114
16:37:01:023,23.987,-0.211,0.086,0.345,17.454,149.042,-14.114
16:37:01:05,24.015,0.025,-0.009,0.402,17.896,153.963,-22.025
16:37:01:078,24.042,0.148,-0.189,0.373,19.615,159.970,-30.461
16:37:01:105,24.070,0.148,-0.189,0.373,19.615,159.970,-30.461
16:37:01:132,24.097,0.148,-0.189,0.373,19.615,159.970,-30.461
16:37:01:16,24.125,0.261,-0.277,0.440,21.586,163.435,-35.691
16:37:01:187,24.152,0.407,-0.188,0.511,24.093,166.249,-41.015
16:37:01:215,24.179,0.407,-0.188,0.511,24.093,166.249,-41.015
16:37:01:241,24.206,0.742,-0.251,0.585,33.472,169.892,-55.925
16:37:01:269,24.234,0.674,-0.355,0.553,34.917,169.877,-58.137
16:37:01:296,24.261,0.674,-0.355,0.553,34.917,169.877,-58.137
16:37:01:323,24.288,0.540,-0.248,0.354,32.610,169.246,-58.648
16:37:01:35,24.315,0.444,-0.239,0.256,30.704,169.298,-57.387
16:37:01:378,24.342,0.389,-0.161,0.130,27.683,169.952,-54.423
16:37:01:405,24.370,0.480,-0.041,0.181,25.171,171.234,-50.514
16:37:01:432,24.397,0.494,0.071,0.202,23.962,172.704,-47.347
16:37:01:46,24.424,0.494,0.071,0.202,23.962,172.704,-47.347
16:37:01:487,24.451,0.230,0.369,-0.014,21.527,179.137,-37.122
16:37:01:514,24.479,0.155,0.112,-0.108,20.773,-176.123,-30.694
16:37:01:542,24.506,0.025,-0.042,-0.102,19.041,-172.823,-24.658
16:37:01:568,24.533,-0.124,-0.045,-0.089,17.638,-171.747,-21.066
16:37:01:596,24.560,-0.285,-0.009,-0.220,15.920,-170.158,-15.826
16:37:01:623,24.588,-0.285,-0.009,-0.220,15.920,-170.158,-15.826
16:37:01:65,24.615,-0.222,-0.205,-0.151,15.510,-167.140,-8.892
16:37:01:678,24.642,-0.222,-0.205,-0.151,15.510,-167.140,-8.892
16:37:01:705,24.669,-0.541,-0.053,-0.205,15.762,-163.017,-3.927
16:37:01:732,24.697,-0.587,0.094,0.032,16.434,-162.645,-1.992
16:37:01:759,24.724,-0.587,0.094,0.032,16.434,-162.645,-1.992
16:37:01:786,24.751,-0.550,0.341,0.366,18.935,-165.652,-1.929
16:37:01:813,24.778,-0.550,0.341,0.366,18.935,-165.652,-1.929
16:37:01:84,24.805,-0.964,0.337,0.638,21.410,-168.929,-5.694
16:37:01:867,24.832,-0.051,0.180,0.575,22.778,-162.404,-11.163
16:37:01:894,24.859,-0.051,0.180,0.575,22.778,-162.404,-11.163
16:37:01:921,24.886,-0.051,0.180,0.575,22.778,-162.404,-11.163
16:37:01:949,24.913,-0.051,0.180,0.575,22.778,-162.404,-11.163
16:37:01:975,24.940,0.390,0.483,0.803,25.998,-155.395,-35.627
16:37:02:003,24.967,0.799,0.161,0.497,33.165,-146.783,-47.188
16:37:02:03,24.995,0.799,0.161,0.497,33.165,-146.783,-47.188
16:37:02:057,25.022,0.959,0.054,0.280,44.880,-139.094,-60.239
16:37:02:084,25.049,1.039,-0.021,0.203,55.733,-134.028,-67.988
16:37:02:111,25.075,1.039,-0.021,0.203,55.733,-134.028,-67.988
16:37:02:139,25.104,1.008,-0.180,-0.061,77.008,-124.875,-80.273
16:37:02:166,25.131,1.008,-0.180,-0.061,77.008,-124.875,-80.273
16:37:02:194,25.159,1.008,-0.180,-0.061,77.008,-124.875,-80.273
16:37:02:223,25.188,1.008,-0.180,-0.061,77.008,-124.875,-80.273
16:37:02:25,25.215,0.620,-0.493,-0.524,95.540,-112.770,-98.699
16:37:02:278,25.242,0.620,-0.493,-0.524,95.540,-112.770,-98.699
16:37:02:304,25.269,0.620,-0.493,-0.524,95.540,-112.770,-98.699
16:37:02:332,25.296,-0.035,-0.118,-0.255,98.349,-141.766,-153.184
16:37:02:358,25.323,-0.157,-0.143,-0.199,96.953,166.382,148.927
16:37:02:386,25.350,-0.232,-0.177,-0.141,95.498,140.930,119.659
16:37:02:413,25.378,-0.126,-0.104,-0.171,92.969,126.350,100.470
16:37:02:44,25.404,-0.126,-0.104,-0.171,92.969,126.350,100.470
16:37:02:467,25.432,-0.075,-0.169,-0.061,86.806,117.182,81.888
16:37:02:494,25.459,-0.075,-0.169,-0.061,86.806,117.182,81.888
16:37:02:522,25.486,-0.001,-0.188,-0.007,83.990,114.881,75.393
16:37:02:549,25.513,-0.028,-0.211,0.037,83.165,114.843,73.798
16:37:02:576,25.541,-0.053,-0.223,0.095,82.409,115.938,72.759
16:37:02:603,25.568,-0.075,-0.182,0.130,82.212,117.116,72.632
16:37:02:631,25.595,-0.075,-0.182,0.130,82.212,117.116,72.632
16:37:02:657,25.622,-0.019,-0.094,0.125,82.929,122.356,74.424
16:37:02:685,25.650,0.004,0.004,0.180,83.517,124.964,75.942
16:37:02:712,25.677,-0.006,0.116,0.162,84.389,129.078,78.369
16:37:02:739,25.704,-0.016,0.182,0.180,84.980,132.368,80.030
16:37:02:767,25.732,0.014,0.239,0.228,86.052,136.577,82.534
16:37:02:794,25.758,0.044,0.257,0.262,87.061,140.367,84.537
16:37:02:821,25.786,0.044,0.257,0.262,87.061,140.367,84.537
16:37:02:848,25.813,0.147,0.212,0.086,87.683,144.386,85.687
16:37:02:875,25.840,0.147,0.212,0.086,87.683,144.386,85.687
16:37:02:902,25.867,0.235,0.038,0.120,87.427,146.358,85.165
16:37:02:929,25.894,0.266,-0.003,0.065,87.244,147.067,84.717
16:37:02:956,25.921,0.266,-0.003,0.065,87.244,147.067,84.717
16:37:02:983,25.948,0.255,-0.064,0.005,87.200,147.573,84.485
16:37:03:011,25.976,0.255,-0.064,0.005,87.200,147.573,84.485
16:37:03:038,26.003,0.170,-0.112,-0.071,87.679,151.063,84.862
16:37:03:066,26.030,0.128,-0.146,0.004,87.919,152.925,85.312
16:37:03:093,26.057,0.128,-0.146,0.004,87.919,152.925,85.312
16:37:03:12,26.085,0.083,-0.204,0.023,88.431,156.147,86.293
16:37:03:148,26.112,0.083,-0.204,0.023,88.431,156.147,86.293
16:37:03:174,26.139,0.083,-0.204,0.023,88.431,156.147,86.293
16:37:03:202,26.166,0.127,-0.086,-0.041,89.190,160.336,87.988
16:37:03:229,26.193,0.202,-0.023,-0.006,89.236,161.023,88.170
16:37:03:256,26.220,0.114,0.027,0.068,89.329,161.888,88.504
16:37:03:283,26.247,0.114,0.027,0.068,89.329,161.888,88.504
16:37:03:311,26.276,0.112,0.175,0.041,89.741,164.416,89.441
16:37:03:338,26.303,0.130,0.204,0.077,89.582,164.666,89.107
16:37:03:366,26.330,0.195,0.250,0.139,89.199,164.949,88.331
16:37:03:393,26.357,0.126,0.154,-0.014,88.860,164.971,87.641
16:37:03:421,26.386,0.126,0.154,-0.014,88.860,164.971,87.641
16:37:03:448,26.413,0.126,0.154,-0.014,88.860,164.971,87.641
16:37:03:476,26.441,0.010,0.034,-0.079,88.212,165.509,86.252
16:37:03:504,26.469,0.010,0.034,-0.079,88.212,165.509,86.252
16:37:03:531,26.496,0.010,0.034,-0.079,88.212,165.509,86.252
16:37:03:559,26.523,0.059,0.007,-0.010,89.213,168.130,88.308
16:37:03:586,26.551,0.059,0.007,-0.010,89.213,168.130,88.308
16:37:03:613,26.578,0.104,-0.193,0.025,90.584,173.370,91.430
16:37:03:64,26.605,0.104,-0.193,0.025,90.584,173.370,91.430
16:37:03:668,26.632,0.077,-0.193,0.110,90.763,175.990,91.881
16:37:03:696,26.660,0.077,-0.193,0.110,90.763,175.990,91.881
16:37:03:722,26.687,0.139,-0.076,0.135,91.234,-179.905,92.936
16:37:03:75,26.714,0.139,-0.076,0.135,91.234,-179.905,92.936
16:37:03:777,26.741,0.073,0.050,0.104,91.502,-176.672,93.329
16:37:03:804,26.768,0.139,0.124,0.155,91.719,-174.916,93.654
16:37:03:831,26.796,0.153,0.163,0.149,92.157,-172.747,94.401
16:37:03:858,26.823,0.153,0.163,0.149,92.157,-172.747,94.401
16:37:03:886,26.850,0.153,0.163,0.149,92.157,-172.747,94.401
16:37:03:912,26.877,0.216,0.184,0.048,92.390,-166.596,94.701
16:37:03:94,26.905,0.259,0.104,-0.041,91.809,-164.195,93.535
16:37:03:967,26.932,0.259,0.104,-0.041,91.809,-164.195,93.535
16:37:03:994,26.959,0.257,0.002,-0.032,91.521,-162.600,92.983
16:37:04:021,26.986,0.199,-0.094,-0.145,91.468,-159.022,92.995
16:37:04:048,27.013,0.110,-0.095,-0.128,91.477,-157.178,93.073
16:37:04:076,27.040,0.123,-0.098,-0.133,91.529,-155.095,93.239
16:37:04:103,27.067,0.168,-0.140,-0.081,91.624,-152.923,93.470
16:37:04:13,27.095,0.073,-0.165,-0.092,91.762,-150.668,93.820
16:37:04:157,27.122,0.013,-0.212,-0.070,91.958,-147.881,94.287
16:37:04:184,27.149,0.023,-0.226,0.001,92.147,-146.413,94.698
16:37:04:212,27.176,0.056,-0.177,0.043,92.553,-143.583,95.579
16:37:04:239,27.204,0.056,-0.177,0.043,92.553,-143.583,95.579
16:37:04:267,27.231,0.119,0.016,0.005,93.071,-138.399,96.520
16:37:04:294,27.258,0.119,0.016,0.005,93.071,-138.399,96.520
16:37:04:321,27.285,0.115,0.072,0.070,93.024,-138.206,96.228
16:37:04:347,27.312,0.247,0.196,0.090,93.100,-136.932,96.140
16:37:04:375,27.339,0.247,0.196,0.090,93.100,-136.932,96.140
16:37:04:402,27.367,0.219,0.191,0.073,93.252,-134.337,96.513
16:37:04:43,27.395,0.184,0.155,0.055,93.180,-133.501,96.331
16:37:04:458,27.422,0.184,0.155,0.055,93.180,-133.501,96.331
16:37:04:485,27.449,0.046,0.011,-0.029,92.967,-132.410,95.940
16:37:04:512,27.476,0.046,0.011,-0.029,92.967,-132.410,95.940
16:37:04:54,27.504,-0.140,-0.036,0.071,93.081,-131.774,96.241
16:37:04:567,27.532,-0.140,-0.036,0.071,93.081,-131.774,96.241
16:37:04:594,27.559,-0.017,-0.033,0.064,93.514,-130.513,97.252
16:37:04:621,27.586,-0.007,-0.079,0.007,93.889,-129.556,98.235
16:37:04:648,27.613,-0.013,-0.124,0.004,94.254,-128.083,99.453
16:37:04:675,27.640,0.077,-0.188,0.040,94.390,-127.415,99.896
16:37:04:703,27.667,0.084,-0.184,0.052,94.550,-125.967,100.485
16:37:04:73,27.694,0.125,-0.162,0.060,94.722,-125.077,100.894
16:37:04:757,27.722,0.143,-0.099,0.025,94.815,-124.070,101.141
16:37:04:784,27.749,0.139,0.002,0.032,94.858,-123.231,100.983
16:37:04:811,27.776,0.139,0.002,0.032,94.858,-123.231,100.983
16:37:04:839,27.803,0.188,0.148,0.162,95.005,-122.003,100.405
16:37:04:865,27.830,0.143,0.213,0.109,95.186,-121.104,100.637
16:37:04:893,27.857,0.176,0.233,0.046,95.487,-119.358,101.181
16:37:04:92,27.884,0.217,0.242,0.003,95.605,-118.361,101.316
16:37:04:947,27.911,0.217,0.242,0.003,95.605,-118.361,101.316
16:37:04:974,27.939,0.054,0.192,-0.051,95.298,-116.809,100.542
16:37:05:001,27.966,0.156,0.092,-0.013,95.028,-116.709,99.927
16:37:05:028,27.993,0.144,0.047,-0.058,94.667,-116.137,99.268
16:37:05:055,28.020,0.007,-0.099,-0.081,94.424,-115.532,98.981
16:37:05:082,28.047,-0.006,-0.134,-0.089,94.101,-114.696,98.649
16:37:05:11,28.074,0.032,-0.108,-0.082,93.818,-114.082,98.222
16:37:05:137,28.101,0.028,-0.101,-0.013,93.667,-113.922,97.978
16:37:05:164,28.129,-0.017,-0.173,0.063,93.447,-113.442,97.740
16:37:05:191,28.156,-0.055,-0.201,0.059,93.398,-112.977,97.783
16:37:05:219,28.183,-0.026,-0.239,0.111,93.418,-112.277,97.938
16:37:05:245,28.210,0.026,-0.199,0.100,93.468,-111.715,98.075
16:37:05:272,28.237,0.052,-0.127,0.052,93.438,-111.491,98.039
16:37:05:3,28.264,0.039,-0.078,0.014,93.241,-111.853,97.562
16:37:05:326,28.291,0.022,-0.002,0.027,93.108,-112.466,97.143
16:37:05:354,28.318,0.078,0.120,0.116,93.108,-113.796,96.848
16:37:05:381,28.346,0.092,0.284,0.100,93.229,-114.364,96.890
16:37:05:409,28.373,0.018,0.248,0.196,92.824,-116.543,95.785
16:37:05:436,28.401,0.000,0.195,0.253,92.916,-116.814,95.925
16:37:05:463,28.428,0.000,0.195,0.253,92.916,-116.814,95.925
16:37:05:49,28.455,-0.029,0.073,-0.014,93.934,-116.423,98.464
16:37:05:518,28.482,-0.171,0.024,0.024,94.242,-116.684,99.440
16:37:05:545,28.510,-0.195,-0.060,0.177,94.822,-117.537,101.192
16:37:05:572,28.537,-0.244,-0.175,0.237,95.380,-117.344,102.985
16:37:05:6,28.564,-0.230,-0.242,0.297,96.715,-115.207,107.945
16:37:05:627,28.592,-0.157,-0.355,0.250,98.403,-109.532,116.592
16:37:05:655,28.619,-0.157,-0.355,0.250,98.403,-109.532,116.592
16:37:05:681,28.646,-0.091,-0.438,0.220,100.992,-91.833,139.636
16:37:05:709,28.673,-0.005,-0.473,0.233,102.130,-80.984,152.987
16:37:05:735,28.700,0.027,-0.494,0.236,103.866,-61.366,176.754
16:37:05:763,28.727,0.027,-0.494,0.236,103.866,-61.366,176.754
16:37:05:79,28.755,0.027,-0.494,0.236,103.866,-61.366,176.754
16:37:05:817,28.782,0.027,-0.494,0.236,103.866,-61.366,176.754
16:37:05:844,28.809,0.155,-0.402,-0.016,106.906,-16.226,-120.196
16:37:05:872,28.836,0.060,-0.371,-0.202,105.922,-12.398,-109.537
16:37:05:898,28.863,0.123,-0.071,-0.299,102.393,-11.355,-100.574
16:37:05:926,28.890,0.123,-0.071,-0.299,102.393,-11.355,-100.574
16:37:05:953,28.917,0.143,-0.094,-0.298,85.125,-12.367,-87.065
16:37:05:98,28.945,-0.060,0.108,-0.620,73.437,-12.546,-80.276
16:37:06:007,28.972,-0.060,0.108,-0.620,73.437,-12.546,-80.276
16:37:06:034,28.999,-0.060,0.108,-0.620,73.437,-12.546,-80.276
16:37:06:062,29.027,-0.079,0.291,-0.209,26.486,-15.884,-53.732
16:37:06:089,29.054,0.077,0.579,-0.249,16.628,-18.607,-43.389
16:37:06:116,29.081,0.085,0.828,-0.191,11.684,-21.689,-37.492
16:37:06:143,29.108,0.085,0.828,-0.191,11.684,-21.689,-37.492
16:37:06:17,29.135,0.422,0.436,0.335,5.495,-32.742,-18.552
16:37:06:197,29.162,0.366,-0.089,0.253,7.217,-37.777,-8.377
16:37:06:224,29.189,0.366,-0.089,0.253,7.217,-37.777,-8.377
16:37:06:251,29.216,0.360,-0.380,0.489,8.493,-41.645,-3.381
16:37:06:278,29.243,0.333,-0.357,0.557,8.494,-44.445,-2.849
16:37:06:306,29.270,0.402,-0.222,0.473,7.993,-44.318,-3.339
16:37:06:333,29.297,0.352,0.069,0.306,6.848,-42.333,-3.896
16:37:06:36,29.325,0.352,0.069,0.306,6.848,-42.333,-3.896
16:37:06:387,29.352,0.352,0.069,0.306,6.848,-42.333,-3.896
16:37:06:415,29.379,0.227,0.269,0.070,6.753,-36.786,-5.783
16:37:06:442,29.406,0.152,0.138,0.065,7.404,-37.132,-6.056
16:37:06:469,29.433,0.184,0.277,-0.037,8.258,-38.691,-6.510
16:37:06:496,29.460,0.184,0.277,-0.037,8.258,-38.691,-6.510
16:37:06:523,29.488,0.082,-0.148,0.019,9.435,-42.432,-7.191
16:37:06:55,29.515,-0.011,-0.050,0.057,9.259,-44.099,-8.004
16:37:06:577,29.542,-0.033,0.165,-0.131,7.843,-43.248,-10.252
16:37:06:604,29.568,-0.033,0.165,-0.131,7.843,-43.248,-10.252
16:37:06:631,29.596,-0.044,-0.127,-0.095,7.667,-42.784,-11.191
16:37:06:659,29.623,0.000,-0.406,0.210,6.922,-43.841,-12.841
16:37:06:686,29.650,0.000,-0.406,0.210,6.922,-43.841,-12.841
16:37:06:713,29.678,0.027,-0.504,0.085,5.994,-41.664,-13.655
16:37:06:74,29.705,0.027,-0.504,0.085,5.994,-41.664,-13.655
16:37:06:767,29.732,0.139,-0.227,0.140,5.269,-39.897,-13.551
16:37:06:795,29.760,0.107,-0.032,0.116,4.981,-39.206,-13.459
16:37:06:822,29.787,0.113,0.065,0.103,4.689,-37.452,-13.241
16:37:06:85,29.815,0.184,0.283,0.120,4.754,-35.314,-11.593
16:37:06:877,29.842,0.184,0.283,0.120,4.754,-35.314,-11.593
16:37:06:904,29.869,0.184,0.283,0.120,4.754,-35.314,-11.593
16:37:06:932,29.896,0.304,0.383,0.153,5.793,-34.607,-6.772
16:37:06:96,29.925,0.329,0.142,0.173,6.318,-34.886,-5.519
16:37:06:987,29.952,0.312,0.104,0.135,6.548,-34.772,-5.172
16:37:07:014,29.979,0.312,0.104,0.135,6.548,-34.772,-5.172
16:37:07:042,30.006,0.312,0.104,0.135,6.548,-34.772,-5.172
16:37:07:068,30.033,0.312,0.104,0.135,6.548,-34.772,-5.172
16:37:07:096,30.060,0.344,-0.024,0.072,6.759,-28.910,-5.480
16:37:07:123,30.088,0.344,-0.024,0.072,6.759,-28.910,-5.480
16:37:07:15,30.114,0.344,-0.024,0.072,6.759,-28.910,-5.480
16:37:07:177,30.142,-0.022,-0.293,-0.198,8.737,-14.122,-8.065
16:37:07:204,30.169,-0.073,-0.317,-0.209,9.603,-11.656,-9.813
16:37:07:232,30.197,-0.073,-0.317,-0.209,9.603,-11.656,-9.813
16:37:07:259,30.224,0.054,-0.375,-0.140,10.668,-11.250,-13.670
16:37:07:286,30.251,0.054,-0.375,-0.140,10.668,-11.250,-13.670
16:37:07:313,30.278,-0.052,0.000,-0.297,11.264,-11.891,-17.068
16:37:07:34,30.305,-0.142,0.236,-0.469,11.996,-11.948,-18.530
16:37:07:367,30.332,-0.371,0.398,-0.602,12.704,-12.831,-19.679
16:37:07:395,30.359,-0.357,0.231,-0.553,12.824,-14.265,-20.300
16:37:07:421,30.386,-0.064,0.131,-0.377,12.212,-17.703,-21.103
16:37:07:45,30.414,0.034,0.170,-0.259,11.538,-20.080,-21.032
16:37:07:477,30.442,0.104,0.058,-0.160,10.449,-22.592,-20.079
16:37:07:504,30.469,0.104,0.058,-0.160,10.449,-22.592,-20.079
16:37:07:531,30.496,0.104,0.058,-0.160,10.449,-22.592,-20.079
16:37:07:558,30.523,0.104,0.058,-0.160,10.449,-22.592,-20.079
16:37:07:587,30.551,0.108,0.343,0.064,7.388,-18.677,-14.758
16:37:07:614,30.578,0.108,0.343,0.064,7.388,-18.677,-14.758
16:37:07:641,30.605,0.105,-0.296,0.354,4.556,-13.194,-12.885
16:37:07:668,30.632,0.105,-0.296,0.354,4.556,-13.194,-12.885
16:37:07:695,30.660,0.105,-0.296,0.354,4.556,-13.194,-12.885
16:37:07:722,30.686,0.105,-0.296,0.354,4.556,-13.194,-12.885
16:37:07:749,30.714,0.105,-0.296,0.354,4.556,-13.194,-12.885
16:37:07:776,30.741,0.146,-0.139,-0.077,4.787,-6.231,-14.151
16:37:07:804,30.769,0.006,-0.130,-0.070,5.988,-0.743,-14.560
16:37:07:831,30.796,0.030,0.024,-0.058,6.603,2.346,-14.550
16:37:07:859,30.824,0.030,0.024,-0.058,6.603,2.346,-14.550
16:37:07:887,30.851,0.016,0.281,-0.143,7.716,6.853,-13.704
16:37:07:915,30.879,0.200,0.161,-0.163,7.906,6.907,-12.356
16:37:07:941,30.906,0.326,0.326,-0.117,7.809,5.163,-10.639
16:37:07:969,30.934,0.326,0.326,-0.117,7.809,5.163,-10.639
16:37:07:997,30.961,0.326,0.326,-0.117,7.809,5.163,-10.639
16:37:08:023,30.988,0.303,0.142,-0.242,7.873,3.403,-7.032
16:37:08:051,31.015,0.318,0.156,-0.249,7.730,4.857,-6.199
16:37:08:077,31.042,0.318,0.156,-0.249,7.730,4.857,-6.199
16:37:08:105,31.069,0.318,0.156,-0.249,7.730,4.857,-6.199
16:37:08:132,31.096,0.318,0.156,-0.249,7.730,4.857,-6.199
16:37:08:159,31.123,0.386,0.061,-0.222,7.397,8.529,-5.793
16:37:08:186,31.150,0.109,-0.195,-0.241,6.766,23.511,-6.778
16:37:08:213,31.178,0.109,-0.195,-0.241,6.766,23.511,-6.778
16:37:08:24,31.204,0.109,-0.195,-0.241,6.766,23.511,-6.778
16:37:08:267,31.232,0.109,-0.195,-0.241,6.766,23.511,-6.778
16:37:08:295,31.259,-0.130,-0.292,-0.088,7.899,39.114,-12.874
16:37:08:322,31.286,-0.353,-0.019,-0.095,9.918,42.013,-22.925
16:37:08:349,31.314,-0.353,-0.019,-0.095,9.918,42.013,-22.925
16:37:08:376,31.341,-0.353,-0.019,-0.095,9.918,42.013,-22.925
16:37:08:404,31.368,-0.514,0.195,0.048,10.388,37.435,-31.301
16:37:08:431,31.396,-0.379,0.131,-0.015,9.519,34.536,-33.000
16:37:08:458,31.422,-0.325,0.145,0.032,9.017,33.798,-32.781
16:37:08:485,31.450,-0.200,-0.001,0.070,8.268,33.715,-31.425
16:37:08:512,31.477,-0.200,-0.001,0.070,8.268,33.715,-31.425
16:37:08:539,31.504,-0.049,-0.067,0.154,6.906,35.914,-27.790
16:37:08:566,31.531,-0.101,0.098,0.115,6.000,38.504,-25.520
16:37:08:593,31.558,0.019,0.219,0.137,5.196,40.796,-24.099
16:37:08:621,31.585,0.019,0.219,0.137,5.196,40.796,-24.099
16:37:08:648,31.612,0.019,0.219,0.137,5.196,40.796,-24.099
16:37:08:675,31.639,0.062,0.051,0.133,4.709,44.834,-22.097
16:37:08:702,31.667,0.062,0.051,0.133,4.709,44.834,-22.097
16:37:08:729,31.693,0.479,-0.346,0.615,2.495,50.045,-18.835
16:37:08:756,31.721,0.613,-0.283,-0.188,-2.604,31.668,-17.388
16:37:08:783,31.748,0.613,-0.283,-0.188,-2.604,31.668,-17.388
16:37:08:81,31.775,0.613,-0.283,-0.188,-2.604,31.668,-17.388
16:37:08:837,31.802,0.613,-0.283,-0.188,-2.604,31.668,-17.388
16:37:08:865,31.829,0.613,-0.283,-0.188,-2.604,31.668,-17.388
16:37:08:891,31.856,0.097,-0.039,-0.102,0.269,30.262,-16.877
16:37:08:918,31.883,0.097,-0.039,-0.102,0.269,30.262,-16.877
16:37:08:945,31.910,0.088,0.270,-0.133,5.801,50.773,-10.773
16:37:08:972,31.937,0.128,0.449,-0.232,5.813,50.461,-9.727
16:37:09:,31.965,0.128,0.449,-0.232,5.813,50.461,-9.727
16:37:09:027,31.992,0.112,0.056,-0.307,6.342,47.498,-7.338
16:37:09:055,32.020,0.112,0.056,-0.307,6.342,47.498,-7.338
16:37:09:082,32.047,0.085,0.093,-0.290,5.952,46.619,-8.209
16:37:09:109,32.074,0.085,0.093,-0.290,5.952,46.619,-8.209
16:37:09:136,32.101,0.085,0.093,-0.290,5.952,46.619,-8.209
16:37:09:163,32.128,-0.005,-0.197,-0.137,4.951,54.331,-12.997
16:37:09:19,32.155,-0.005,-0.197,-0.137,4.951,54.331,-12.997
16:37:09:217,32.182,-0.005,-0.197,-0.137,4.951,54.331,-12.997
16:37:09:244,32.209,-0.005,-0.197,-0.137,4.951,54.331,-12.997
16:37:09:272,32.236,-0.028,-0.319,-0.023,4.707,60.961,-18.424
16:37:09:299,32.264,-0.138,-0.169,0.132,5.028,68.468,-29.230
16:37:09:327,32.291,-0.138,-0.169,0.132,5.028,68.468,-29.230
16:37:09:354,32.318,-0.228,0.042,0.294,5.942,70.632,-35.569
16:37:09:381,32.345,-0.228,0.042,0.294,5.942,70.632,-35.569
16:37:09:408,32.373,-0.228,0.042,0.294,5.942,70.632,-35.569
16:37:09:436,32.400,-0.228,0.042,0.294,5.942,70.632,-35.569
16:37:09:463,32.427,-0.228,0.042,0.294,5.942,70.632,-35.569
16:37:09:49,32.454,-0.266,0.156,0.450,7.117,69.520,-39.729
16:37:09:517,32.481,0.063,-0.112,0.158,5.406,67.037,-34.597
16:37:09:545,32.509,0.063,-0.112,0.158,5.406,67.037,-34.597
16:37:09:572,32.537,0.063,-0.112,0.158,5.406,67.037,-34.597
16:37:09:599,32.564,-0.022,0.009,0.144,4.450,68.974,-27.416
16:37:09:626,32.591,-0.022,0.009,0.144,4.450,68.974,-27.416
16:37:09:654,32.618,-0.022,0.009,0.144,4.450,68.974,-27.416
16:37:09:68,32.645,-0.022,0.009,0.144,4.450,68.974,-27.416
16:37:09:708,32.672,-0.022,0.009,0.144,4.450,68.974,-27.416
16:37:09:735,32.699,0.118,-0.201,-0.027,4.501,71.157,-23.226
16:37:09:762,32.726,0.203,-0.140,-0.240,3.736,73.643,-16.006
16:37:09:789,32.753,0.203,-0.128,-0.264,3.843,75.972,-12.552
16:37:09:816,32.781,0.203,-0.128,-0.264,3.843,75.972,-12.552
16:37:09:844,32.808,0.177,-0.130,-0.255,4.029,78.120,-10.780
16:37:09:871,32.836,0.177,-0.130,-0.255,4.029,78.120,-10.780
16:37:09:898,32.862,0.036,0.333,-0.255,4.249,84.916,-7.704
16:37:09:925,32.890,0.056,0.233,-0.240,4.473,85.926,-7.224
16:37:09:952,32.917,0.056,0.233,-0.240,4.473,85.926,-7.224
16:37:09:979,32.944,0.028,0.227,-0.289,4.929,86.883,-7.950
16:37:10:006,32.971,0.028,0.227,-0.289,4.929,86.883,-7.950
16:37:10:033,32.998,-0.087,0.289,-0.195,5.491,88.426,-10.603
16:37:10:061,33.025,-0.087,0.289,-0.195,5.491,88.426,-10.603
16:37:10:087,33.052,-0.087,0.289,-0.195,5.491,88.426,-10.603
16:37:10:115,33.079,-0.156,0.009,0.039,6.950,93.636,-16.745
16:37:10:142,33.106,-0.144,-0.057,0.101,7.523,95.250,-18.533
16:37:10:169,33.134,-0.153,-0.250,0.141,8.764,97.758,-21.324
16:37:10:197,33.162,-0.153,-0.250,0.141,8.764,97.758,-21.324
16:37:10:224,33.189,-0.186,-0.409,0.170,11.056,101.229,-26.325
16:37:10:251,33.216,-0.186,-0.409,0.170,11.056,101.229,-26.325
16:37:10:278,33.243,-0.159,-0.226,0.405,12.766,103.163,-31.537
16:37:10:306,33.270,-0.159,-0.226,0.405,12.766,103.163,-31.537
16:37:10:333,33.298,-0.214,-0.166,0.319,14.247,103.740,-35.731
16:37:10:361,33.325,-0.214,-0.166,0.319,14.247,103.740,-35.731
16:37:10:388,33.353,-0.209,-0.163,0.426,15.220,104.149,-37.569
16:37:10:416,33.380,-0.209,-0.163,0.426,15.220,104.149,-37.569
16:37:10:443,33.407,-0.209,-0.163,0.426,15.220,104.149,-37.569
16:37:10:47,33.434,-0.209,-0.163,0.426,15.220,104.149,-37.569
16:37:10:496,33.461,-0.187,0.096,0.563,16.383,104.033,-38.829
16:37:10:524,33.488,-0.036,-0.046,0.236,14.072,103.309,-36.057
16:37:10:551,33.516,-0.036,-0.046,0.236,14.072,103.309,-36.057
16:37:10:578,33.543,0.135,-0.046,0.072,10.534,104.107,-31.525
16:37:10:605,33.570,0.135,-0.046,0.072,10.534,104.107,-31.525
16:37:10:633,33.597,0.175,0.106,0.049,8.121,110.025,-25.886
16:37:10:66,33.624,0.205,-0.049,-0.022,7.499,112.989,-24.006
16:37:10:687,33.652,0.203,-0.200,-0.112,6.783,114.661,-22.599
16:37:10:714,33.679,0.174,-0.289,-0.189,6.023,114.428,-21.642
16:37:10:741,33.706,0.099,-0.233,-0.313,5.076,113.995,-20.601
16:37:10:769,33.733,0.078,-0.145,-0.241,4.625,114.396,-19.860
16:37:10:796,33.761,0.052,-0.117,-0.267,4.818,115.659,-19.057
16:37:10:823,33.788,0.014,-0.111,-0.224,5.725,117.740,-18.256
16:37:10:85,33.815,-0.011,-0.067,-0.220,6.386,119.129,-17.882
16:37:10:878,33.842,-0.054,0.050,-0.206,7.584,121.040,-17.303
16:37:10:905,33.870,-0.097,0.244,-0.090,8.401,122.333,-16.833
16:37:10:932,33.897,-0.134,0.334,-0.062,9.599,123.839,-15.987
16:37:10:959,33.924,-0.174,0.214,-0.009,10.781,124.332,-15.219
16:37:10:987,33.952,-0.216,0.406,-0.092,11.756,122.453,-15.333
16:37:11:014,33.979,-0.222,0.300,-0.054,12.061,121.776,-15.698
16:37:11:041,34.006,-0.222,0.300,-0.054,12.061,121.776,-15.698
16:37:11:068,34.033,-0.222,0.300,-0.054,12.061,121.776,-15.698
16:37:11:096,34.060,-0.206,0.180,0.066,12.551,120.648,-18.656
16:37:11:123,34.087,-0.194,0.039,0.103,12.567,123.773,-22.169
16:37:11:149,34.114,-0.175,0.011,0.139,12.821,126.140,-23.507
16:37:11:177,34.141,-0.148,0.022,0.173,13.438,130.354,-25.373
16:37:11:204,34.169,-0.085,-0.107,0.233,14.476,134.867,-27.285
16:37:11:231,34.196,-0.012,-0.248,0.246,15.288,137.751,-28.776
16:37:11:258,34.223,0.031,-0.350,0.242,16.522,141.697,-31.474
16:37:11:285,34.250,0.027,-0.378,0.226,17.368,144.001,-33.534
16:37:11:312,34.277,0.027,-0.378,0.226,17.368,144.001,-33.534
16:37:11:34,34.305,0.127,-0.252,0.343,19.634,149.000,-38.905
16:37:11:367,34.331,0.164,-0.243,0.351,21.126,151.352,-41.914
16:37:11:394,34.359,0.253,-0.153,0.396,22.593,153.192,-44.631
16:37:11:421,34.386,0.344,-0.028,0.460,23.384,154.253,-46.114
16:37:11:449,34.414,0.578,0.292,0.677,24.441,155.545,-47.684
16:37:11:477,34.441,0.486,-0.099,0.525,25.061,156.048,-48.308
16:37:11:503,34.468,0.486,-0.099,0.525,25.061,156.048,-48.308
16:37:11:531,34.495,0.559,0.055,0.307,20.659,154.721,-47.924
16:37:11:559,34.523,0.352,-0.033,0.014,18.269,154.192,-45.787
16:37:11:585,34.550,0.352,-0.033,0.014,18.269,154.192,-45.787
16:37:11:613,34.577,0.352,-0.033,0.014,18.269,154.192,-45.787
16:37:11:64,34.605,0.539,0.040,0.000,14.258,153.794,-37.985
16:37:11:667,34.632,0.198,0.141,-0.083,12.601,152.383,-35.546
16:37:11:694,34.659,0.283,-0.023,-0.137,10.495,149.418,-32.759
16:37:11:722,34.686,0.283,-0.023,-0.137,10.495,149.418,-32.759
16:37:11:749,34.714,0.037,-0.026,-0.282,8.287,145.212,-30.294
16:37:11:776,34.740,0.037,-0.026,-0.282,8.287,145.212,-30.294
16:37:11:803,34.768,-0.642,-0.178,-0.480,6.954,131.232,-21.810
16:37:11:83,34.794,-0.409,0.020,-0.491,8.473,132.499,-20.428
16:37:11:857,34.822,-0.418,-0.067,-0.423,9.920,134.819,-20.406
16:37:11:884,34.849,-0.692,-0.030,-0.568,11.446,137.190,-21.065
16:37:11:911,34.876,-1.285,0.525,-0.916,11.484,136.312,-24.358
16:37:11:938,34.903,-1.359,0.796,-0.750,11.702,137.170,-27.759
16:37:11:966,34.930,-1.068,1.010,-0.331,14.932,143.553,-33.309
16:37:11:992,34.957,-0.759,1.028,0.049,19.388,149.917,-37.571
16:37:12:02,34.985,-0.759,1.028,0.049,19.388,149.917,-37.571
16:37:12:048,35.012,-0.088,1.378,1.027,42.785,164.767,-54.349
16:37:12:074,35.039,0.309,0.996,1.273,54.405,169.627,-60.161
16:37:12:102,35.066,0.864,0.470,1.332,71.556,177.701,-67.995
16:37:12:129,35.093,0.999,-0.082,1.082,79.740,-177.577,-72.424
16:37:12:156,35.120,0.986,-0.526,0.579,87.698,-175.151,-81.201
16:37:12:183,35.147,0.885,-0.767,0.201,92.540,114.609,-160.597
16:37:12:21,35.175,0.428,-0.789,-0.042,97.013,39.370,112.630
16:37:12:237,35.201,0.359,-0.928,-0.037,98.187,40.773,110.229
16:37:12:264,35.229,0.359,-0.928,-0.037,98.187,40.773,110.229
16:37:12:291,35.256,0.141,-0.721,-0.230,100.696,45.436,107.492
16:37:12:318,35.283,0.153,-0.658,-0.147,101.952,48.815,107.440
16:37:12:345,35.310,0.107,-0.496,-0.051,102.908,52.320,108.016
16:37:12:373,35.338,0.057,-0.399,-0.115,103.326,54.082,108.007
16:37:12:401,35.365,0.031,-0.257,-0.086,103.538,55.655,107.269
16:37:12:428,35.393,0.126,-0.202,-0.001,103.357,56.273,106.688
16:37:12:455,35.420,0.126,-0.202,-0.001,103.357,56.273,106.688
16:37:12:482,35.447,0.093,0.113,-0.027,102.094,57.163,104.733
16:37:12:509,35.474,0.128,0.111,-0.014,101.166,57.015,103.649
16:37:12:536,35.501,0.246,0.157,-0.030,99.589,56.306,101.815
16:37:12:563,35.528,0.281,0.113,-0.033,98.720,55.952,100.779
16:37:12:591,35.555,0.281,0.113,-0.033,98.720,55.952,100.779
16:37:12:618,35.582,0.152,0.105,0.000,96.833,55.256,98.195
16:37:12:645,35.610,0.179,0.089,0.039,96.561,55.275,97.946
16:37:12:672,35.637,0.179,0.089,0.039,96.561,55.275,97.946
16:37:12:699,35.664,0.205,-0.146,0.013,96.940,56.291,99.175
16:37:12:726,35.691,0.204,-0.087,0.039,97.600,56.989,100.328
16:37:12:754,35.719,0.185,-0.093,-0.001,98.050,57.456,101.093
16:37:12:782,35.746,0.185,-0.093,-0.001,98.050,57.456,101.093
16:37:12:809,35.773,-0.018,-0.233,-0.013,99.270,58.633,103.135
16:37:12:836,35.801,0.020,-0.245,-0.004,99.751,59.085,103.917
16:37:12:863,35.828,0.060,-0.208,0.020,100.634,60.132,105.416
16:37:12:89,35.855,0.016,-0.157,-0.096,102.480,62.281,107.934
16:37:12:917,35.882,0.075,-0.039,-0.040,103.513,63.059,108.769
16:37:12:945,35.909,0.075,-0.039,-0.040,103.513,63.059,108.769
16:37:12:972,35.936,-0.018,0.164,-0.036,105.247,64.253,110.086
16:37:12:999,35.964,0.061,0.179,-0.008,106.217,65.062,111.278
16:37:13:026,35.991,0.086,0.240,0.082,106.564,65.684,111.627
16:37:13:054,36.019,0.018,0.336,0.081,106.760,65.635,111.639
16:37:13:081,36.045,0.026,0.325,0.126,106.611,66.040,111.616
16:37:13:108,36.072,0.026,0.325,0.126,106.611,66.040,111.616
16:37:13:135,36.099,0.001,0.126,0.278,104.232,64.989,109.234
16:37:13:162,36.127,0.005,0.038,0.306,103.169,64.448,107.957
16:37:13:189,36.154,0.005,0.038,0.306,103.169,64.448,107.957
16:37:13:216,36.181,0.170,-0.184,0.135,99.756,63.291,103.990
16:37:13:243,36.208,0.165,-0.255,0.057,99.271,63.717,103.541
16:37:13:271,36.235,0.152,-0.331,0.027,98.749,64.925,103.406
16:37:13:298,36.263,0.121,-0.367,0.036,98.466,66.606,103.869
16:37:13:325,36.290,0.118,-0.358,0.064,98.394,67.703,104.429
16:37:13:353,36.317,0.115,-0.310,0.083,98.377,69.274,105.330
16:37:13:381,36.345,0.115,-0.310,0.083,98.377,69.274,105.330
16:37:13:408,36.372,0.115,-0.310,0.083,98.377,69.274,105.330
16:37:13:435,36.400,0.117,0.056,0.093,98.365,68.431,105.171
16:37:13:462,36.427,0.117,0.056,0.093,98.365,68.431,105.171
16:37:13:489,36.454,0.012,0.211,-0.031,98.191,65.348,103.583
16:37:13:516,36.481,0.022,0.307,0.022,98.170,64.396,103.373
16:37:13:544,36.509,0.099,0.246,0.070,97.626,62.334,102.780
16:37:13:572,36.536,0.099,0.246,0.070,97.626,62.334,102.780
16:37:13:599,36.563,0.157,0.151,0.016,96.155,57.374,101.285
16:37:13:626,36.591,0.157,0.151,0.016,96.155,57.374,101.285
16:37:13:653,36.618,0.157,0.151,0.016,96.155,57.374,101.285
16:37:13:68,36.645,0.325,-0.097,0.024,96.050,55.345,102.790
16:37:13:707,36.672,0.325,-0.097,0.024,96.050,55.345,102.790
16:37:13:734,36.699,0.199,-0.703,-0.043,99.608,78.262,135.079
16:37:13:762,36.726,0.199,-0.703,-0.043,99.608,78.262,135.079
16:37:13:789,36.754,0.199,-0.703,-0.043,99.608,78.262,135.079
16:37:13:816,36.780,0.199,-0.703,-0.043,99.608,78.262,135.079
16:37:13:843,36.808,0.221,-0.875,0.051,101.039,149.233,-146.023
16:37:13:87,36.835,0.347,-0.289,0.526,96.974,179.068,-96.784
16:37:13:897,36.862,0.347,-0.289,0.526,96.974,179.068,-96.784
16:37:13:924,36.889,0.180,-0.302,0.289,79.676,173.504,-84.660
16:37:13:951,36.916,0.180,-0.302,0.289,79.676,173.504,-84.660
16:37:13:979,36.943,-0.103,0.569,0.472,33.126,163.993,-71.692
16:37:14:005,36.970,-0.103,0.569,0.472,33.126,163.993,-71.692
16:37:14:033,36.997,-0.103,0.569,0.472,33.126,163.993,-71.692
16:37:14:059,37.024,-0.103,0.569,0.472,33.126,163.993,-71.692
16:37:14:087,37.051,-0.103,0.569,0.472,33.126,163.993,-71.692
16:37:14:114,37.079,-0.326,0.547,0.288,1.350,146.524,-49.409
16:37:14:141,37.105,-0.639,0.755,0.008,2.437,134.698,-27.241
16:37:14:168,37.133,-0.639,0.755,0.008,2.437,134.698,-27.241
16:37:14:195,37.159,-0.391,0.268,0.078,5.726,135.948,-20.916
16:37:14:222,37.187,-0.391,0.268,0.078,5.726,135.948,-20.916
16:37:14:25,37.215,-0.183,0.153,-0.069,7.981,144.090,-17.255
16:37:14:278,37.242,-0.183,0.153,-0.069,7.981,144.090,-17.255
16:37:14:306,37.270,-0.183,0.153,-0.069,7.981,144.090,-17.255
16:37:14:332,37.297,-0.273,-0.204,0.058,10.765,163.399,-13.016
16:37:14:36,37.324,-0.273,-0.204,0.058,10.765,163.399,-13.016
16:37:14:387,37.352,-0.018,-0.360,0.012,11.451,169.445,-12.444
16:37:14:414,37.379,-0.018,-0.360,0.012,11.451,169.445,-12.444
16:37:14:441,37.406,-0.018,-0.360,0.012,11.451,169.445,-12.444
16:37:14:468,37.433,0.308,-0.095,0.294,18.969,-157.478,-12.226
16:37:14:495,37.460,0.527,0.018,0.240,20.673,-157.483,-14.558
16:37:14:522,37.487,0.527,0.018,0.240,20.673,-157.483,-14.558
16:37:14:55,37.514,0.527,0.018,0.240,20.673,-157.483,-14.558
16:37:14:577,37.542,0.527,0.018,0.240,20.673,-157.483,-14.558
16:37:14:604,37.569,0.450,0.268,0.400,21.210,-173.673,-27.065
16:37:14:631,37.596,0.350,0.308,0.404,19.502,-178.168,-28.793
16:37:14:658,37.623,0.326,-0.065,0.219,18.117,179.891,-29.238
16:37:14:685,37.650,0.201,-0.264,0.073,17.504,179.801,-28.928
16:37:14:713,37.677,0.260,-0.149,0.052,16.738,-178.244,-27.508
16:37:14:739,37.704,0.342,-0.001,0.033,16.190,-175.945,-26.270
16:37:14:767,37.731,0.309,0.073,0.080,15.465,-172.389,-24.487
16:37:14:794,37.758,0.309,0.073,0.080,15.465,-172.389,-24.487
16:37:14:821,37.786,0.148,-0.114,0.031,13.116,-168.809,-22.297
16:37:14:848,37.812,0.148,-0.114,0.031,13.116,-168.809,-22.297
16:37:14:875,37.840,0.148,-0.114,0.031,13.116,-168.809,-22.297
16:37:14:902,37.866,0.148,-0.114,0.031,13.116,-168.809,-22.297
16:37:14:929,37.894,0.148,-0.114,0.031,13.116,-168.809,-22.297
16:37:14:957,37.922,-0.283,0.114,-0.183,5.910,-170.704,-18.818
16:37:14:984,37.948,-0.426,-0.147,0.045,6.186,-176.571,-19.503
16:37:15:011,37.976,-0.426,-0.147,0.045,6.186,-176.571,-19.503
16:37:15:039,38.003,0.061,-0.042,0.306,10.068,-165.246,-18.990
16:37:15:066,38.030,0.180,0.140,0.250,12.305,-157.313,-18.561
16:37:15:093,38.058,0.130,0.252,0.235,13.401,-153.247,-17.523
16:37:15:12,38.085,0.207,0.294,0.229,14.677,-149.245,-16.268
16:37:15:148,38.112,0.059,0.407,0.360,15.039,-150.056,-14.769
16:37:15:174,38.139,0.059,0.407,0.360,15.039,-150.056,-14.769
16:37:15:202,38.167,0.059,0.407,0.360,15.039,-150.056,-14.769
16:37:15:229,38.194,0.023,0.169,0.381,14.973,-152.590,-14.642
16:37:15:256,38.221,0.131,0.125,0.296,14.250,-155.143,-15.859
16:37:15:283,38.248,0.038,0.068,0.327,13.915,-154.692,-16.466
16:37:15:31,38.275,0.086,-0.077,0.279,14.404,-146.237,-17.761
16:37:15:337,38.302,0.156,-0.185,0.196,14.867,-142.246,-18.251
16:37:15:365,38.330,0.156,-0.185,0.196,14.867,-142.246,-18.251
16:37:15:392,38.356,0.248,-0.413,-0.006,16.269,-133.254,-20.466
16:37:15:419,38.384,0.240,-0.416,0.012,16.912,-129.481,-22.326
16:37:15:446,38.411,0.240,-0.416,0.012,16.912,-129.481,-22.326
16:37:15:474,38.439,0.339,-0.251,-0.045,17.789,-125.134,-28.469
16:37:15:502,38.466,0.339,-0.251,-0.045,17.789,-125.134,-28.469
16:37:15:528,38.493,0.405,-0.096,-0.042,17.967,-124.899,-29.803
16:37:15:556,38.520,0.719,0.379,-0.190,18.091,-126.017,-32.728
16:37:15:583,38.547,0.719,0.379,-0.190,18.091,-126.017,-32.728
16:37:15:61,38.575,0.460,0.175,-0.013,17.730,-128.870,-32.504
16:37:15:637,38.601,0.460,0.175,-0.013,17.730,-128.870,-32.504
16:37:15:664,38.629,0.242,0.131,0.051,16.273,-132.059,-29.764
16:37:15:691,38.656,0.023,-0.107,0.152,15.647,-132.994,-28.235
16:37:15:719,38.683,0.023,-0.107,0.152,15.647,-132.994,-28.235
16:37:15:746,38.711,0.058,0.183,0.064,13.916,-133.877,-23.796
16:37:15:773,38.738,0.030,0.183,0.160,13.493,-132.982,-22.376
16:37:15:801,38.765,0.040,-0.010,0.145,13.463,-130.107,-20.358
16:37:15:828,38.792,0.040,-0.010,0.145,13.463,-130.107,-20.358
16:37:15:855,38.819,0.040,-0.010,0.145,13.463,-130.107,-20.358
16:37:15:882,38.846,-0.125,-0.213,-0.065,11.248,-127.236,-19.209
16:37:15:909,38.874,-0.125,-0.213,-0.065,11.248,-127.236,-19.209
16:37:15:936,38.901,-0.108,-0.225,0.038,10.204,-128.965,-19.813
16:37:15:963,38.928,-0.108,-0.225,0.038,10.204,-128.965,-19.813
16:37:15:991,38.955,0.102,-0.277,0.138,11.945,-124.369,-20.428
16:37:16:018,38.983,0.102,-0.277,0.138,11.945,-124.369,-20.428
16:37:16:045,39.009,0.180,0.036,0.089,13.969,-116.880,-18.842
16:37:16:072,39.037,0.296,0.370,0.126,14.337,-114.754,-18.079
16:37:16:099,39.064,0.296,0.370,0.126,14.337,-114.754,-18.079
16:37:16:127,39.092,0.285,0.272,0.166,14.881,-113.880,-15.967
16:37:16:154,39.118,0.178,0.354,0.255,14.466,-115.310,-15.678
16:37:16:181,39.146,0.086,0.099,0.310,13.967,-117.196,-15.191
16:37:16:208,39.173,0.086,0.099,0.310,13.967,-117.196,-15.191
16:37:16:235,39.200,0.086,0.099,0.310,13.967,-117.196,-15.191
16:37:16:262,39.227,0.210,0.154,0.257,13.262,-114.449,-14.878
16:37:16:29,39.254,0.210,0.154,0.257,13.262,-114.449,-14.878
16:37:16:316,39.281,0.199,-0.082,0.141,13.704,-107.705,-14.951
16:37:16:344,39.308,0.199,-0.082,0.141,13.704,-107.705,-14.951
16:37:16:37,39.335,0.193,-0.228,0.107,13.983,-104.430,-15.020
16:37:16:398,39.362,0.193,-0.228,0.107,13.983,-104.430,-15.020
16:37:16:424,39.389,0.193,-0.228,0.107,13.983,-104.430,-15.020
16:37:16:452,39.416,0.195,-0.352,-0.040,15.579,-92.919,-16.756
16:37:16:479,39.444,0.195,-0.352,-0.040,15.579,-92.919,-16.756
16:37:16:507,39.471,0.255,-0.219,-0.067,16.435,-89.857,-18.846
16:37:16:534,39.499,0.261,-0.141,-0.122,17.154,-89.654,-21.514
16:37:16:561,39.526,0.261,-0.141,-0.122,17.154,-89.654,-21.514
16:37:16:589,39.554,0.261,-0.141,-0.122,17.154,-89.654,-21.514
16:37:16:616,39.581,0.261,-0.141,-0.122,17.154,-89.654,-21.514
16:37:16:644,39.608,0.410,0.144,-0.219,19.231,-91.066,-24.823
16:37:16:671,39.636,0.410,0.144,-0.219,19.231,-91.066,-24.823
16:37:16:699,39.664,0.241,-0.096,-0.007,18.715,-93.899,-23.234
16:37:16:726,39.691,0.241,-0.096,-0.007,18.715,-93.899,-23.234
16:37:16:753,39.718,0.116,-0.148,0.081,18.188,-94.221,-22.458
16:37:16:781,39.745,0.130,0.134,0.119,16.022,-93.018,-20.290
16:37:16:808,39.773,0.130,0.134,0.119,16.022,-93.018,-20.290
16:37:16:835,39.800,0.088,0.021,0.082,14.495,-86.758,-17.525
16:37:16:862,39.827,0.075,-0.040,0.080,14.037,-84.915,-17.193
16:37:16:889,39.854,-0.063,-0.228,0.158,13.369,-82.641,-17.162
16:37:16:916,39.881,-0.084,-0.345,0.174,12.913,-81.044,-17.237
16:37:16:943,39.908,-0.084,-0.345,0.174,12.913,-81.044,-17.237
16:37:16:97,39.935,-0.126,-0.267,-0.011,12.243,-79.202,-17.533
16:37:16:998,39.963,0.101,-0.150,0.304,10.632,-80.932,-18.214
16:37:17:025,39.990,0.101,-0.150,0.304,10.632,-80.932,-18.214
16:37:17:052,40.017,0.101,-0.150,0.304,10.632,-80.932,-18.214
16:37:17:079,40.044,0.101,-0.150,0.304,10.632,-80.932,-18.214
16:37:17:107,40.072,0.101,-0.150,0.304,10.632,-80.932,-18.214
16:37:17:134,40.099,0.140,-0.159,0.250,10.804,-80.750,-17.908
16:37:17:162,40.126,0.291,0.450,0.016,12.666,-68.029,-13.556
16:37:17:189,40.153,0.291,0.450,0.016,12.666,-68.029,-13.556
16:37:17:216,40.181,0.253,0.353,0.113,13.244,-63.506,-10.854
16:37:17:243,40.208,0.327,0.235,0.141,13.115,-64.047,-10.705
16:37:17:27,40.235,0.327,0.235,0.141,13.115,-64.047,-10.705
16:37:17:298,40.263,0.327,0.235,0.141,13.115,-64.047,-10.705
16:37:17:325,40.289,0.309,0.023,0.147,12.628,-62.717,-11.213
16:37:17:352,40.317,0.309,0.023,0.147,12.628,-62.717,-11.213
16:37:17:38,40.344,0.258,-0.231,-0.038,12.741,-52.102,-11.393
16:37:17:407,40.372,0.159,-0.359,-0.115,13.063,-47.546,-11.989
16:37:17:434,40.399,0.159,-0.359,-0.115,13.063,-47.546,-11.989
16:37:17:462,40.427,0.124,-0.387,-0.111,13.205,-44.955,-12.747
16:37:17:489,40.454,0.121,-0.229,-0.161,13.369,-39.726,-16.140
16:37:17:516,40.480,0.121,-0.229,-0.161,13.369,-39.726,-16.140
16:37:17:544,40.508,0.092,-0.142,-0.260,13.834,-37.762,-19.218
16:37:17:571,40.536,0.065,-0.054,-0.299,14.097,-37.592,-20.440
16:37:17:599,40.563,0.045,0.235,-0.370,14.209,-38.130,-22.103
16:37:17:626,40.590,0.021,0.400,-0.478,14.093,-38.783,-22.838
16:37:17:654,40.618,0.021,0.400,-0.478,14.093,-38.783,-22.838
16:37:17:68,40.645,0.021,0.400,-0.478,14.093,-38.783,-22.838
16:37:17:708,40.672,0.021,0.400,-0.478,14.093,-38.783,-22.838
16:37:17:734,40.699,0.003,0.201,-0.206,13.706,-42.414,-22.737
16:37:17:762,40.726,0.055,0.136,-0.117,12.999,-43.730,-21.624
16:37:17:789,40.754,0.055,0.136,-0.117,12.999,-43.730,-21.624
16:37:17:816,40.781,0.020,0.097,0.041,10.179,-43.826,-16.992
16:37:17:843,40.808,0.020,0.097,0.041,10.179,-43.826,-16.992
16:37:17:871,40.835,0.020,0.097,0.041,10.179,-43.826,-16.992
16:37:17:898,40.863,0.034,-0.100,0.043,9.773,-41.864,-16.219
16:37:17:925,40.890,0.034,-0.100,0.043,9.773,-41.864,-16.219
16:37:17:953,40.918,-0.024,-0.292,0.266,5.989,-44.781,-17.605
16:37:17:98,40.944,0.122,-0.315,0.231,5.295,-47.978,-18.510
16:37:18:007,40.972,0.228,-0.199,0.265,5.633,-48.722,-18.836
16:37:18:034,40.999,0.207,-0.123,0.185,6.444,-46.989,-18.984
16:37:18:061,41.026,0.207,-0.123,0.185,6.444,-46.989,-18.984
16:37:18:088,41.053,0.207,-0.123,0.185,6.444,-46.989,-18.984
16:37:18:115,41.080,0.089,0.010,-0.021,9.737,-38.794,-16.859
16:37:18:143,41.107,0.083,0.353,-0.121,10.101,-37.709,-15.741
16:37:18:17,41.134,0.083,0.353,-0.121,10.101,-37.709,-15.741
16:37:18:196,41.161,0.083,0.353,-0.121,10.101,-37.709,-15.741
16:37:18:224,41.189,0.083,0.353,-0.121,10.101,-37.709,-15.741
16:37:18:251,41.216,0.083,0.353,-0.121,10.101,-37.709,-15.741
16:37:18:279,41.244,0.083,0.353,-0.121,10.101,-37.709,-15.741
16:37:18:307,41.272,0.083,0.353,-0.121,10.101,-37.709,-15.741
16:37:18:334,41.298,0.083,0.353,-0.121,10.101,-37.709,-15.741
16:37:18:362,41.326,0.360,0.158,0.168,10.628,-44.928,-8.961
16:37:18:389,41.354,0.206,-0.068,0.106,9.821,-45.933,-7.363
16:37:18:417,41.381,0.206,-0.068,0.106,9.821,-45.933,-7.363
16:37:18:444,41.409,0.206,-0.068,0.106,9.821,-45.933,-7.363
16:37:18:472,41.437,0.206,-0.068,0.106,9.821,-45.933,-7.363
16:37:18:499,41.464,0.099,-0.146,0.004,8.953,-39.120,-8.236
16:37:18:526,41.490,0.099,-0.146,0.004,8.953,-39.120,-8.236
16:37:18:553,41.518,0.099,-0.146,0.004,8.953,-39.120,-8.236
16:37:18:581,41.546,0.001,-0.338,0.014,8.581,-36.072,-10.148
16:37:18:609,41.573,0.030,-0.232,-0.058,9.239,-26.505,-14.526
16:37:18:636,41.600,-0.063,0.234,-0.179,9.592,-24.619,-16.061
16:37:18:664,41.628,-0.063,0.234,-0.179,9.592,-24.619,-16.061
16:37:18:691,41.656,-0.063,0.234,-0.179,9.592,-24.619,-16.061
16:37:18:718,41.683,-0.063,0.234,-0.179,9.592,-24.619,-16.061
16:37:18:745,41.710,0.072,0.233,-0.171,9.600,-28.759,-15.775
16:37:18:773,41.738,0.072,0.233,-0.171,9.600,-28.759,-15.775
16:37:18:801,41.766,0.115,-0.122,0.328,8.709,-44.382,-11.464
16:37:18:828,41.793,0.080,-0.013,0.326,8.214,-44.535,-11.243
16:37:18:856,41.820,0.080,-0.013,0.326,8.214,-44.535,-11.243
16:37:18:884,41.848,0.012,0.083,0.078,7.627,-41.204,-11.040
16:37:18:911,41.876,0.041,-0.169,0.126,7.474,-35.238,-12.114
16:37:18:938,41.903,-0.184,-0.303,0.103,7.382,-33.073,-12.912
16:37:18:966,41.930,-0.107,-0.472,0.117,7.376,-33.672,-13.324
16:37:18:992,41.957,0.152,-0.454,0.184,7.085,-36.604,-13.818
16:37:19:02,41.984,0.152,-0.454,0.184,7.085,-36.604,-13.818
16:37:19:048,42.012,0.137,-0.225,0.094,7.289,-38.908,-13.812
16:37:19:075,42.040,0.137,-0.225,0.094,7.289,-38.908,-13.812
16:37:19:102,42.066,0.153,-0.062,0.156,7.918,-38.428,-12.327
16:37:19:129,42.094,0.153,-0.062,0.156,7.918,-38.428,-12.327
16:37:19:156,42.120,0.197,-0.020,0.177,8.274,-37.539,-10.906
16:37:19:183,42.148,0.328,0.391,0.170,8.889,-36.481,-7.732
16:37:19:21,42.175,0.328,0.391,0.170,8.889,-36.481,-7.732
16:37:19:237,42.202,0.387,0.329,0.183,9.712,-36.634,-4.634
16:37:19:264,42.229,0.387,0.329,0.183,9.712,-36.634,-4.634
16:37:19:291,42.256,0.411,0.090,0.251,10.463,-37.988,-2.760
16:37:19:318,42.283,0.300,0.192,0.108,10.425,-37.300,-4.117
16:37:19:346,42.311,0.300,0.192,0.108,10.425,-37.300,-4.117
16:37:19:373,42.338,0.224,0.016,0.007,10.313,-36.480,-5.204
16:37:19:401,42.365,0.224,0.016,0.007,10.313,-36.480,-5.204
16:37:19:427,42.392,0.042,-0.088,-0.083,10.249,-31.671,-10.930
16:37:19:454,42.419,0.042,-0.088,-0.083,10.249,-31.671,-10.930
16:37:19:482,42.447,-0.116,-0.353,-0.222,11.045,-28.671,-14.795
16:37:19:509,42.473,-0.116,-0.353,-0.222,11.045,-28.671,-14.795
16:37:19:536,42.501,-0.116,-0.353,-0.222,11.045,-28.671,-14.795
16:37:19:563,42.527,-0.072,-0.423,-0.158,11.270,-28.532,-17.426
16:37:19:59,42.555,-0.072,-0.423,-0.158,11.270,-28.532,-17.426
16:37:19:618,42.582,-0.121,-0.235,-0.174,11.061,-28.901,-21.304
16:37:19:644,42.609,-0.088,-0.118,-0.203,11.427,-28.418,-23.818
16:37:19:672,42.636,-0.223,0.281,-0.368,11.435,-28.061,-24.713
16:37:19:699,42.664,-0.223,0.281,-0.368,11.435,-28.061,-24.713
16:37:19:726,42.690,-0.223,0.281,-0.368,11.435,-28.061,-24.713
16:37:19:753,42.718,-0.128,0.226,-0.296,11.673,-28.275,-24.297
16:37:19:78,42.745,-0.128,0.226,-0.296,11.673,-28.275,-24.297
16:37:19:807,42.772,0.098,-0.115,0.064,12.216,-28.995,-17.396
16:37:19:835,42.799,0.141,-0.126,0.149,11.960,-29.645,-15.269
16:37:19:862,42.826,0.141,-0.126,0.149,11.960,-29.645,-15.269
16:37:19:889,42.854,0.172,0.063,-0.022,10.807,-27.691,-10.844
16:37:19:916,42.881,0.172,0.063,-0.022,10.807,-27.691,-10.844
16:37:19:943,42.908,0.172,0.063,-0.022,10.807,-27.691,-10.844
16:37:19:971,42.935,0.193,-0.348,0.196,9.514,-26.718,-10.234
16:37:19:998,42.963,0.193,-0.348,0.196,9.514,-26.718,-10.234
16:37:20:025,42.990,0.193,-0.348,0.196,9.514,-26.718,-10.234
16:37:20:052,43.017,0.226,-0.211,0.132,8.307,-24.074,-10.960
16:37:20:08,43.045,0.268,-0.159,0.164,8.169,-22.910,-10.839
16:37:20:108,43.072,0.268,-0.159,0.164,8.169,-22.910,-10.839
16:37:20:135,43.099,0.216,-0.171,0.105,8.079,-19.292,-9.860
16:37:20:162,43.127,0.353,0.067,0.105,8.136,-16.838,-9.251
16:37:20:189,43.154,0.353,0.067,0.105,8.136,-16.838,-9.251
16:37:20:216,43.181,0.353,0.067,0.105,8.136,-16.838,-9.251
16:37:20:243,43.208,0.411,0.221,0.110,8.463,-15.431,-8.692
16:37:20:271,43.236,0.411,0.221,0.110,8.463,-15.431,-8.692
16:37:20:298,43.263,0.834,0.249,-0.063,10.090,-14.281,-9.528
16:37:20:325,43.290,1.100,0.594,-0.209,9.615,-13.171,-15.878
16:37:20:353,43.317,1.100,0.594,-0.209,9.615,-13.171,-15.878
16:37:20:38,43.344,1.100,0.594,-0.209,9.615,-13.171,-15.878
16:37:20:407,43.372,1.100,0.594,-0.209,9.615,-13.171,-15.878
16:37:20:435,43.399,0.133,0.802,-1.193,18.678,14.542,-37.992
16:37:20:462,43.426,0.133,0.802,-1.193,18.678,14.542,-37.992
16:37:20:489,43.454,0.133,0.802,-1.193,18.678,14.542,-37.992
16:37:20:516,43.481,0.133,0.802,-1.193,18.678,14.542,-37.992
16:37:20:543,43.508,-1.062,0.167,-0.740,54.195,47.067,-57.574
16:37:20:57,43.535,-1.086,-0.456,-0.046,75.818,64.708,-66.865
16:37:20:598,43.562,-0.899,-0.613,0.136,82.959,74.218,-70.010
16:37:20:625,43.590,-0.899,-0.613,0.136,82.959,74.218,-70.010
16:37:20:652,43.617,-0.899,-0.613,0.136,82.959,74.218,-70.010
16:37:20:679,43.644,-0.237,-0.495,0.180,90.195,-101.340,91.421
16:37:20:706,43.671,-0.093,-0.511,0.267,91.158,-93.323,95.672
16:37:20:733,43.698,0.079,-0.354,0.290,92.668,-84.845,99.466
16:37:20:76,43.725,0.049,-0.193,0.239,93.578,-80.686,100.838
16:37:20:787,43.752,0.090,-0.098,0.191,94.543,-75.695,101.866
16:37:20:815,43.779,0.117,-0.088,0.157,95.107,-71.597,102.399
16:37:20:841,43.806,0.015,-0.131,0.176,95.169,-69.682,101.970
16:37:20:869,43.833,-0.006,-0.092,0.150,94.771,-68.193,99.956
16:37:20:895,43.860,-0.006,-0.092,0.150,94.771,-68.193,99.956
16:37:20:923,43.887,0.169,-0.009,0.143,94.425,-65.550,98.004
16:37:20:949,43.914,0.046,-0.079,0.154,95.305,-61.065,99.663
16:37:20:977,43.941,0.046,-0.079,0.154,95.305,-61.065,99.663
16:37:21:004,43.969,0.046,-0.079,0.154,95.305,-61.065,99.663
16:37:21:031,43.996,0.046,-0.079,0.154,95.305,-61.065,99.663
16:37:21:058,44.023,0.053,-0.269,-0.028,96.997,-53.786,102.943
16:37:21:086,44.050,0.053,-0.269,-0.028,96.997,-53.786,102.943
16:37:21:112,44.077,0.074,-0.275,-0.038,97.625,-51.090,104.190
16:37:21:14,44.104,0.105,-0.136,-0.062,98.496,-47.527,105.523
16:37:21:166,44.131,0.151,-0.110,-0.002,98.856,-45.992,106.280
16:37:21:194,44.158,0.151,-0.110,-0.002,98.856,-45.992,106.280
16:37:21:22,44.185,0.190,0.117,-0.027,100.344,-41.256,107.962
16:37:21:248,44.212,0.190,0.117,-0.027,100.344,-41.256,107.962
16:37:21:275,44.239,0.190,0.117,-0.027,100.344,-41.256,107.962
16:37:21:302,44.267,0.055,0.213,0.008,102.312,-36.259,110.015
16:37:21:33,44.294,0.055,0.213,0.008,102.312,-36.259,110.015
16:37:21:356,44.321,0.055,0.213,0.008,102.312,-36.259,110.015
16:37:21:384,44.348,-0.060,0.152,-0.006,102.558,-32.305,110.113
16:37:21:411,44.375,-0.060,0.152,-0.006,102.558,-32.305,110.113
16:37:21:438,44.402,-0.060,0.152,-0.006,102.558,-32.305,110.113
16:37:21:465,44.429,-0.060,0.152,-0.006,102.558,-32.305,110.113
16:37:21:492,44.457,-0.060,0.152,-0.006,102.558,-32.305,110.113
16:37:21:519,44.483,-0.185,-0.141,0.104,100.775,-29.160,108.169
16:37:21:546,44.511,-0.116,-0.107,0.175,100.725,-27.686,108.339
16:37:21:574,44.538,0.051,-0.153,0.114,101.385,-23.005,110.138
16:37:21:601,44.566,0.051,-0.153,0.114,101.385,-23.005,110.138
16:37:21:628,44.593,0.045,-0.178,0.171,101.734,-20.433,111.475
16:37:21:656,44.620,0.066,-0.184,0.104,101.953,-19.041,112.207
16:37:21:683,44.647,0.075,-0.150,0.062,102.287,-17.335,112.937
16:37:21:71,44.674,0.141,-0.117,0.064,102.565,-16.384,113.201
16:37:21:737,44.701,0.141,-0.117,0.064,102.565,-16.384,113.201
16:37:21:764,44.729,0.088,0.134,-0.041,102.812,-17.099,111.851
16:37:21:791,44.756,0.088,0.134,-0.041,102.812,-17.099,111.851
16:37:21:819,44.783,0.144,0.305,-0.044,102.750,-18.711,110.257
16:37:21:846,44.811,0.144,0.305,-0.044,102.750,-18.711,110.257
16:37:21:873,44.838,0.114,0.288,-0.006,102.211,-20.198,108.600
16:37:21:9,44.865,0.078,0.188,0.038,101.795,-20.768,107.896
16:37:21:928,44.892,-0.011,0.121,0.070,101.477,-21.125,107.434
16:37:21:954,44.919,-0.092,-0.020,0.168,100.850,-21.963,106.491
16:37:21:982,44.946,-0.017,-0.034,0.180,100.527,-22.702,106.002
16:37:22:009,44.974,0.046,-0.090,0.264,99.974,-23.870,105.410
16:37:22:036,45.001,0.108,-0.113,0.198,99.514,-24.540,105.098
16:37:22:063,45.027,0.055,-0.080,0.064,99.360,-24.674,105.050
16:37:22:09,45.055,0.049,-0.109,0.068,98.993,-24.668,105.125
16:37:22:117,45.082,0.026,-0.226,-0.001,98.852,-23.431,106.214
16:37:22:145,45.110,0.041,-0.169,0.024,99.050,-22.377,106.932
16:37:22:172,45.136,0.058,-0.140,-0.013,99.325,-22.022,107.153
16:37:22:199,45.164,0.097,-0.038,-0.076,99.777,-21.314,107.374
16:37:22:226,45.191,0.110,0.024,-0.069,100.041,-20.827,107.452
16:37:22:253,45.218,0.110,0.024,-0.069,100.041,-20.827,107.452
16:37:22:281,45.245,0.101,0.133,-0.085,100.614,-20.076,106.818
16:37:22:307,45.272,0.101,0.133,-0.085,100.614,-20.076,106.818
16:37:22:336,45.300,0.101,0.133,-0.085,100.614,-20.076,106.818
16:37:22:362,45.327,0.001,0.216,-0.082,101.244,-18.026,106.586
16:37:22:39,45.354,-0.132,0.213,-0.041,100.749,-16.579,105.274
16:37:22:417,45.381,-0.132,0.213,-0.041,100.749,-16.579,105.274
16:37:22:444,45.409,-0.132,0.213,-0.041,100.749,-16.579,105.274
16:37:22:471,45.435,-0.221,0.075,0.023,99.790,-14.894,103.494
16:37:22:498,45.463,-0.210,-0.030,0.114,99.124,-12.215,102.777
16:37:22:527,45.492,-0.210,-0.030,0.114,99.124,-12.215,102.777
16:37:22:554,45.519,-0.105,-0.107,0.151,98.998,-11.040,102.794
16:37:22:581,45.546,0.013,-0.173,0.145,99.176,-6.380,104.089
16:37:22:609,45.573,0.027,-0.174,0.112,99.253,-4.677,104.687
16:37:22:636,45.600,0.050,-0.232,0.127,99.274,-2.331,105.592
16:37:22:663,45.627,0.062,-0.263,0.138,99.240,-0.963,106.043
16:37:22:689,45.654,0.062,-0.263,0.138,99.240,-0.963,106.043
16:37:22:717,45.681,0.062,-0.263,0.138,99.240,-0.963,106.043
16:37:22:744,45.709,0.079,-0.065,0.060,98.534,0.298,104.703
16:37:22:772,45.736,0.079,-0.065,0.060,98.534,0.298,104.703
16:37:22:799,45.764,0.112,0.215,0.027,97.782,-1.076,102.235
16:37:22:826,45.791,0.112,0.215,0.027,97.782,-1.076,102.235
16:37:22:854,45.819,0.056,0.271,-0.019,98.054,-1.146,101.898
16:37:22:881,45.846,0.073,0.298,0.055,98.203,-1.092,102.044
16:37:22:908,45.873,0.014,0.306,0.030,98.225,-1.046,101.956
16:37:22:935,45.900,0.017,0.187,0.037,98.106,-1.237,101.808
16:37:22:962,45.927,-0.024,0.075,0.113,97.563,-1.347,101.174
16:37:22:989,45.954,-0.059,-0.053,0.277,96.558,-2.214,99.772
16:37:23:017,45.981,-0.059,-0.053,0.277,96.558,-2.214,99.772
16:37:23:044,46.009,0.058,-0.027,0.259,95.843,-3.029,98.640
16:37:23:071,46.036,0.058,-0.027,0.259,95.843,-3.029,98.640
16:37:23:098,46.063,0.053,0.010,0.117,94.880,-3.208,97.084
16:37:23:125,46.090,0.036,-0.089,0.096,94.866,-2.252,97.204
16:37:23:153,46.117,0.036,-0.089,0.096,94.866,-2.252,97.204
16:37:23:179,46.144,0.032,-0.132,0.050,94.905,-1.604,97.290
16:37:23:207,46.171,-0.034,-0.169,0.011,95.268,0.687,97.814
16:37:23:234,46.198,-0.007,-0.181,0.022,95.599,2.490,98.365
16:37:23:261,46.226,-0.007,-0.181,0.022,95.599,2.490,98.365
16:37:23:288,46.253,-0.007,-0.181,0.022,95.599,2.490,98.365
16:37:23:316,46.280,-0.007,-0.181,0.022,95.599,2.490,98.365
16:37:23:342,46.307,0.025,-0.025,-0.016,96.140,6.643,98.649
16:37:23:37,46.334,0.013,0.102,-0.038,97.205,10.903,99.275
16:37:23:397,46.361,0.013,0.102,-0.038,97.205,10.903,99.275
16:37:23:424,46.389,0.013,0.102,-0.038,97.205,10.903,99.275
16:37:23:451,46.415,-0.076,0.175,0.088,98.392,17.428,100.442
16:37:23:478,46.443,-0.102,0.170,0.116,98.124,19.416,99.908
16:37:23:505,46.470,-0.136,0.127,0.145,97.666,20.570,99.257
16:37:23:532,46.497,-0.227,0.041,0.187,96.748,22.340,98.058
16:37:23:559,46.524,-0.267,-0.028,0.241,95.764,24.298,96.867
16:37:23:586,46.551,-0.148,-0.043,0.259,95.234,25.753,96.286
16:37:23:613,46.578,-0.148,-0.043,0.259,95.234,25.753,96.286
16:37:23:641,46.606,0.048,-0.085,0.227,94.810,30.066,95.938
16:37:23:668,46.633,0.048,-0.085,0.227,94.810,30.066,95.938
16:37:23:695,46.660,0.191,-0.207,0.098,95.861,36.474,97.538
16:37:23:722,46.687,0.208,-0.232,0.093,96.425,38.812,98.453
16:37:23:75,46.714,0.208,-0.232,0.093,96.425,38.812,98.453
16:37:23:777,46.742,0.114,-0.181,-0.008,98.176,44.376,101.145
16:37:23:805,46.769,0.114,-0.181,-0.008,98.176,44.376,101.145
16:37:23:832,46.796,0.160,-0.040,-0.049,100.052,48.692,103.639
16:37:23:859,46.823,0.126,-0.017,-0.047,100.493,49.295,104.060
16:37:23:886,46.850,0.036,0.072,-0.128,101.004,49.640,104.216
16:37:23:913,46.878,-0.026,0.150,-0.185,101.343,49.142,104.169
16:37:23:941,46.905,-0.026,0.150,-0.185,101.343,49.142,104.169
16:37:23:967,46.932,0.154,0.112,-0.266,101.933,45.702,104.553
16:37:23:996,46.960,0.154,0.112,-0.266,101.933,45.702,104.553
16:37:24:022,46.987,0.196,-0.075,-0.342,102.359,43.636,105.648
16:37:24:05,47.014,0.198,-0.233,-0.340,103.016,42.889,107.388
16:37:24:077,47.042,0.148,-0.596,-0.168,104.995,44.683,117.717
16:37:24:104,47.069,0.246,-0.724,0.040,105.239,53.337,132.514
16:37:24:131,47.096,0.446,-0.811,0.338,104.818,84.169,170.047
16:37:24:158,47.123,0.410,-0.897,0.626,104.436,118.527,-150.696
16:37:24:186,47.150,0.410,-0.897,0.626,104.436,118.527,-150.696
16:37:24:212,47.177,0.253,-0.303,0.824,97.401,150.775,-95.430
16:37:24:239,47.204,0.253,-0.303,0.824,97.401,150.775,-95.430
16:37:24:267,47.231,0.111,-0.074,0.619,85.787,147.170,-88.236
16:37:24:294,47.258,0.033,0.026,0.788,68.545,143.667,-83.589
16:37:24:321,47.286,-0.001,0.387,0.541,-3.172,130.635,-68.187
16:37:24:348,47.313,-0.001,0.387,0.541,-3.172,130.635,-68.187
16:37:24:375,47.340,-0.001,0.387,0.541,-3.172,130.635,-68.187
16:37:24:402,47.367,-0.246,0.582,-0.103,-14.463,112.947,-48.373
16:37:24:429,47.394,-0.275,0.683,-0.160,-11.589,108.479,-40.199
16:37:24:456,47.421,-0.302,0.782,-0.343,-9.479,106.027,-34.901
16:37:24:484,47.449,-0.302,0.782,-0.343,-9.479,106.027,-34.901
16:37:24:511,47.476,-0.417,0.664,-0.343,-2.114,103.014,-21.474
16:37:24:538,47.503,-0.417,0.664,-0.343,-2.114,103.014,-21.474
16:37:24:565,47.530,-0.405,0.549,-0.374,0.433,103.909,-17.952
16:37:24:593,47.557,-0.221,0.273,-0.454,4.024,105.300,-12.001
16:37:24:619,47.584,-0.103,0.138,-0.413,4.228,104.877,-11.271
16:37:24:647,47.611,-0.103,0.138,-0.413,4.228,104.877,-11.271
16:37:24:673,47.638,-0.131,-0.038,-0.503,2.597,105.043,-12.696
16:37:24:701,47.665,-0.222,-0.063,-0.436,1.256,108.002,-14.340
16:37:24:728,47.692,-0.222,-0.063,-0.436,1.256,108.002,-14.340
16:37:24:755,47.720,-0.120,-0.040,-0.177,0.233,117.071,-18.780
16:37:24:782,47.746,-0.146,-0.202,0.017,1.793,125.875,-22.245
16:37:24:809,47.773,-0.146,-0.202,0.017,1.793,125.875,-22.245
16:37:24:836,47.801,0.008,-0.121,0.091,6.630,140.377,-30.293
16:37:24:863,47.827,0.008,-0.121,0.091,6.630,140.377,-30.293
16:37:24:89,47.854,0.188,-0.285,0.313,11.937,146.449,-36.165
16:37:24:917,47.882,0.164,-0.083,0.357,12.416,146.071,-37.836
16:37:24:944,47.908,0.229,0.081,0.526,12.725,144.816,-39.972
16:37:24:971,47.936,0.357,0.162,0.675,12.936,143.656,-40.914
16:37:24:998,47.963,0.306,0.010,0.618,12.466,141.350,-41.521
16:37:25:025,47.990,0.306,0.010,0.618,12.466,141.350,-41.521
16:37:25:052,48.017,0.314,0.091,0.495,8.885,135.713,-40.988
16:37:25:079,48.044,0.221,0.080,0.186,6.370,132.439,-38.822
16:37:25:106,48.071,0.221,0.080,0.186,6.370,132.439,-38.822
16:37:25:133,48.098,0.221,0.080,0.186,6.370,132.439,-38.822
16:37:25:16,48.125,0.170,0.016,-0.061,5.185,130.798,-36.836
16:37:25:188,48.152,0.369,-0.032,-0.099,4.972,130.596,-28.409
16:37:25:216,48.181,0.346,-0.132,0.021,5.857,131.938,-25.501
16:37:25:243,48.207,0.149,-0.154,-0.108,6.113,132.181,-23.569
16:37:25:271,48.235,0.057,-0.170,-0.192,6.202,131.261,-20.728
16:37:25:297,48.262,0.057,-0.170,-0.192,6.202,131.261,-20.728
16:37:25:325,48.290,0.057,-0.170,-0.192,6.202,131.261,-20.728
16:37:25:353,48.318,-0.005,-0.223,-0.162,6.807,130.329,-18.122
16:37:25:38,48.345,-0.135,-0.062,-0.187,9.163,129.692,-12.428
16:37:25:407,48.372,-0.195,0.048,-0.215,10.116,129.634,-10.342
16:37:25:434,48.399,-0.225,0.013,-0.247,10.738,129.457,-9.040
16:37:25:461,48.426,-0.225,0.013,-0.247,10.738,129.457,-9.040
16:37:25:489,48.453,-0.225,0.013,-0.247,10.738,129.457,-9.040
16:37:25:516,48.480,-0.225,0.013,-0.247,10.738,129.457,-9.040
16:37:25:543,48.508,-0.538,0.252,-0.421,12.360,127.063,-2.482
16:37:25:57,48.535,-0.442,0.119,-0.201,12.482,128.595,-2.147
16:37:25:597,48.562,-0.263,0.136,-0.109,12.102,130.703,-3.720
16:37:25:624,48.589,-0.263,0.136,-0.109,12.102,130.703,-3.720
16:37:25:651,48.616,-0.174,0.272,-0.027,10.716,135.297,-9.923
16:37:25:678,48.643,-0.113,0.211,0.018,10.534,137.935,-13.008
16:37:25:706,48.670,-0.113,0.211,0.018,10.534,137.935,-13.008
16:37:25:732,48.697,0.018,0.158,0.113,11.446,144.950,-23.655
16:37:25:76,48.725,0.106,0.031,0.173,12.312,146.832,-27.511
16:37:25:787,48.752,0.205,-0.136,0.198,13.917,148.918,-33.648
16:37:25:815,48.779,0.268,-0.202,0.215,15.058,149.900,-37.896
16:37:25:842,48.806,0.268,-0.202,0.215,15.058,149.900,-37.896
16:37:25:869,48.833,0.362,-0.310,0.314,19.922,152.434,-50.303
16:37:25:896,48.860,0.410,-0.349,0.310,22.508,153.202,-54.033
16:37:25:923,48.888,0.410,-0.349,0.310,22.508,153.202,-54.033
16:37:25:95,48.915,0.410,-0.349,0.310,22.508,153.202,-54.033
16:37:25:977,48.942,0.729,-0.195,0.489,30.521,155.052,-60.970
16:37:26:004,48.969,0.675,-0.566,0.363,38.858,156.195,-62.346
16:37:26:031,48.996,0.678,-0.457,0.405,39.049,155.742,-61.361
16:37:26:058,49.023,0.678,-0.457,0.405,39.049,155.742,-61.361
16:37:26:086,49.050,0.537,-0.261,0.462,32.092,152.850,-55.664
16:37:26:113,49.078,0.433,-0.051,0.445,24.928,149.336,-50.687
16:37:26:141,49.105,0.428,0.243,0.467,17.488,144.535,-44.797
16:37:26:168,49.133,0.307,0.415,0.422,13.370,140.968,-40.122
16:37:26:195,49.160,0.307,0.415,0.422,13.370,140.968,-40.122
16:37:26:222,49.187,-0.125,0.390,0.061,8.775,132.177,-26.831
16:37:26:25,49.215,-0.391,0.067,-0.245,10.723,125.625,-10.884
16:37:26:277,49.242,-0.404,-0.014,-0.211,12.146,126.034,-6.149
16:37:26:305,49.269,-0.404,-0.014,-0.211,12.146,126.034,-6.149
16:37:26:332,49.296,-0.310,-0.225,-0.349,14.403,127.780,3.743
16:37:26:359,49.323,-0.406,-0.132,-0.535,15.507,126.335,7.245
16:37:26:386,49.351,-0.406,-0.132,-0.535,15.507,126.335,7.245
16:37:26:413,49.378,-0.557,-0.140,-0.726,17.314,122.920,10.177
16:37:26:44,49.405,-0.613,-0.136,-0.682,18.228,121.958,10.951
16:37:26:467,49.432,-0.579,-0.067,-0.558,18.462,121.969,10.339
16:37:26:494,49.459,-0.579,-0.067,-0.558,18.462,121.969,10.339
16:37:26:521,49.486,-0.580,0.080,-0.581,18.061,122.432,9.288
16:37:26:549,49.514,-0.479,0.150,-0.270,15.599,126.377,3.154
16:37:26:576,49.541,-0.479,0.150,-0.270,15.599,126.377,3.154
16:37:26:603,49.568,-0.331,0.622,0.141,13.223,129.940,-6.797
16:37:26:631,49.596,-0.223,0.627,0.211,12.395,131.205,-11.616
16:37:26:658,49.623,-0.223,0.627,0.211,12.395,131.205,-11.616
16:37:26:685,49.650,-0.223,0.627,0.211,12.395,131.205,-11.616
16:37:26:712,49.677,0.053,0.456,0.582,9.815,137.976,-33.748
16:37:26:739,49.704,0.126,0.355,0.632,8.539,140.932,-42.657
16:37:26:766,49.731,0.226,0.290,0.729,7.607,143.027,-48.848
16:37:26:794,49.758,0.354,0.194,0.884,5.373,146.184,-58.261
16:37:26:822,49.786,0.407,0.103,0.768,0.898,149.413,-67.842
16:37:26:848,49.813,0.407,0.103,0.768,0.898,149.413,-67.842
16:37:26:876,49.840,0.407,0.103,0.768,0.898,149.413,-67.842
16:37:26:902,49.867,0.407,0.103,0.768,0.898,149.413,-67.842
16:37:26:93,49.895,0.407,0.103,0.768,0.898,149.413,-67.842
16:37:26:957,49.922,0.626,-0.185,0.649,-155.499,165.969,-101.894
16:37:26:984,49.949,0.626,-0.185,0.649,-155.499,165.969,-101.894
16:37:27:011,49.976,0.626,-0.185,0.649,-155.499,165.969,-101.894
16:37:27:038,50.003,0.626,-0.185,0.649,-155.499,165.969,-101.894
16:37:27:066,50.030,0.626,-0.185,0.649,-155.499,165.969,-101.894
16:37:27:092,50.057,0.626,-0.185,0.649,-155.499,165.969,-101.894
16:37:27:12,50.084,0.367,-0.328,0.125,-166.760,-168.265,-132.157
16:37:27:147,50.111,0.367,-0.328,0.125,-166.760,-168.265,-132.157
16:37:27:174,50.139,0.367,-0.328,0.125,-166.760,-168.265,-132.157
16:37:27:201,50.166,0.167,-0.157,-0.114,-177.683,-141.495,-152.688
16:37:27:229,50.193,0.010,-0.199,-0.057,171.639,-125.310,-160.188
16:37:27:256,50.220,-0.096,-0.260,-0.065,168.755,-123.430,-161.153
16:37:27:283,50.247,-0.158,-0.359,-0.081,166.999,-122.355,-161.512
16:37:27:31,50.275,-0.133,-0.397,-0.079,165.101,-120.659,-161.784
16:37:27:337,50.301,0.005,-0.324,-0.175,164.402,-119.023,-161.701
16:37:27:364,50.328,-0.008,-0.234,-0.128,163.752,-116.944,-161.792
16:37:27:392,50.356,-0.050,-0.149,0.072,162.923,-116.136,-162.637
16:37:27:418,50.383,-0.097,-0.152,0.050,162.382,-115.878,-163.145
16:37:27:447,50.411,0.008,-0.141,0.001,161.735,-115.314,-163.601
16:37:27:475,50.439,-0.011,-0.064,0.055,161.336,-115.085,-163.981
16:37:27:501,50.466,-0.011,-0.064,0.055,161.336,-115.085,-163.981
16:37:27:529,50.493,-0.002,0.069,0.025,161.358,-113.275,-164.808
16:37:27:555,50.520,-0.107,0.040,-0.167,161.824,-112.271,-164.845
16:37:27:583,50.547,-0.142,-0.395,-0.376,163.313,-112.432,-164.759
16:37:27:61,50.575,-0.076,-0.807,-0.299,164.848,-115.096,-164.228
16:37:27:637,50.601,-0.076,-0.807,-0.299,164.848,-115.096,-164.228
16:37:27:664,50.628,0.086,-0.686,0.117,170.909,-129.714,-156.342
16:37:27:691,50.655,0.086,-0.686,0.117,170.909,-129.714,-156.342
16:37:27:718,50.683,0.482,-0.522,-0.001,171.577,-143.661,-136.794
16:37:27:745,50.710,0.353,-0.528,0.021,168.906,-148.214,-126.467
16:37:27:772,50.737,0.353,-0.528,0.021,168.906,-148.214,-126.467
16:37:27:8,50.764,1.283,0.161,0.159,99.424,-153.991,-91.388
16:37:27:828,50.792,0.667,-0.482,-0.038,17.461,-154.396,-64.241
16:37:27:854,50.819,0.753,0.887,0.733,12.793,-153.297,-52.668
16:37:27:882,50.846,0.472,1.118,0.199,6.424,-154.976,-40.459
16:37:27:908,50.873,0.472,1.118,0.199,6.424,-154.976,-40.459
16:37:27:935,50.900,-0.466,1.021,0.877,5.305,-156.710,-28.490
16:37:27:963,50.927,-0.466,1.021,0.877,5.305,-156.710,-28.490
16:37:27:99,50.955,-0.466,1.021,0.877,5.305,-156.710,-28.490
16:37:28:017,50.982,-0.296,0.332,0.427,10.117,-147.371,-14.300
16:37:28:045,51.009,0.092,0.524,0.416,13.912,-145.573,-8.565
16:37:28:072,51.037,-0.151,0.405,0.462,14.574,-154.501,-9.500
16:37:28:099,51.064,-0.477,0.338,0.397,14.172,-163.032,-11.240
16:37:28:126,51.091,-0.477,0.338,0.397,14.172,-163.032,-11.240
16:37:28:154,51.118,-0.229,-0.190,0.011,13.117,-169.927,-13.234
16:37:28:181,51.145,-0.363,-0.286,-0.038,12.465,-170.548,-13.736
16:37:28:208,51.173,-0.007,0.021,-0.037,11.417,-169.156,-14.221
16:37:28:236,51.201,0.261,0.278,0.047,10.475,-165.765,-14.893
16:37:28:263,51.227,0.083,-0.006,0.038,9.986,-163.200,-15.672
16:37:28:29,51.255,0.053,-0.156,-0.019,9.809,-159.108,-17.154
16:37:28:317,51.281,0.095,-0.223,-0.172,9.642,-156.336,-17.991
16:37:28:344,51.309,0.095,-0.223,-0.172,9.642,-156.336,-17.991
16:37:28:371,51.336,0.095,-0.223,-0.172,9.642,-156.336,-17.991
16:37:28:398,51.363,0.162,-0.411,-0.144,9.943,-152.063,-18.818
16:37:28:426,51.391,0.071,-0.305,0.010,10.149,-149.360,-21.534
16:37:28:454,51.418,0.071,-0.305,0.010,10.149,-149.360,-21.534
16:37:28:482,51.446,0.102,-0.040,0.020,10.226,-148.168,-22.070
16:37:28:509,51.474,-0.026,0.118,0.147,10.526,-147.164,-21.275
16:37:28:537,51.501,0.077,0.357,0.203,11.397,-144.163,-18.862
16:37:28:564,51.528,0.077,0.357,0.203,11.397,-144.163,-18.862
16:37:28:591,51.556,0.032,0.249,0.224,11.873,-141.559,-15.984
16:37:28:618,51.582,0.032,0.249,0.224,11.873,-141.559,-15.984
16:37:28:645,51.609,0.032,0.249,0.224,11.873,-141.559,-15.984
16:37:28:673,51.638,0.017,0.034,0.273,11.726,-140.765,-14.230
16:37:28:7,51.664,-0.003,0.027,0.245,11.404,-140.151,-15.203
16:37:28:727,51.692,0.008,-0.027,0.262,11.293,-137.959,-15.952
16:37:28:754,51.719,0.008,-0.027,0.262,11.293,-137.959,-15.952
16:37:28:781,51.746,0.008,-0.027,0.262,11.293,-137.959,-15.952
16:37:28:809,51.773,0.008,-0.027,0.262,11.293,-137.959,-15.952
16:37:28:835,51.800,0.042,-0.063,0.221,11.439,-135.631,-16.443
16:37:28:863,51.827,0.245,-0.324,-0.035,13.455,-120.620,-21.816
16:37:28:89,51.854,0.245,-0.324,-0.035,13.455,-120.620,-21.816
16:37:28:918,51.882,0.245,-0.324,-0.035,13.455,-120.620,-21.816
16:37:28:944,51.909,0.327,-0.223,-0.105,14.621,-117.278,-27.651
16:37:28:972,51.936,0.327,-0.223,-0.105,14.621,-117.278,-27.651
16:37:28:999,51.964,0.362,-0.057,-0.169,15.119,-118.106,-32.581
16:37:29:026,51.991,0.362,-0.057,-0.169,15.119,-118.106,-32.581
16:37:29:054,52.019,0.418,0.059,-0.203,15.151,-118.651,-33.753
16:37:29:081,52.046,0.503,0.290,-0.287,14.890,-120.463,-35.194
16:37:29:108,52.073,0.503,0.290,-0.287,14.890,-120.463,-35.194
16:37:29:136,52.100,0.257,0.135,-0.069,14.611,-122.693,-32.683
16:37:29:163,52.128,0.257,0.135,-0.069,14.611,-122.693,-32.683
16:37:29:19,52.155,0.041,0.027,-0.040,14.585,-123.515,-29.131
16:37:29:217,52.182,0.107,0.228,-0.046,13.815,-124.065,-27.292
16:37:29:244,52.209,0.107,0.228,-0.046,13.815,-124.065,-27.292
16:37:29:271,52.236,0.113,0.124,-0.008,13.550,-124.120,-26.175
16:37:29:299,52.263,0.006,-0.123,0.060,13.066,-123.704,-23.495
16:37:29:325,52.290,0.006,-0.123,0.060,13.066,-123.704,-23.495
16:37:29:353,52.317,-0.110,-0.337,0.161,12.243,-124.305,-22.350
16:37:29:38,52.345,-0.041,-0.316,0.159,12.121,-124.024,-22.086
16:37:29:407,52.371,-0.020,-0.265,0.131,11.894,-123.030,-21.334
16:37:29:434,52.399,-0.024,-0.152,0.223,11.691,-122.035,-20.274
16:37:29:461,52.426,-0.024,-0.152,0.223,11.691,-122.035,-20.274
16:37:29:488,52.453,-0.024,-0.152,0.223,11.691,-122.035,-20.274
16:37:29:515,52.480,-0.024,-0.152,0.223,11.691,-122.035,-20.274
16:37:29:542,52.507,0.043,0.091,0.256,12.474,-117.835,-16.385
16:37:29:57,52.534,0.043,0.091,0.256,12.474,-117.835,-16.385
16:37:29:597,52.561,0.043,0.091,0.256,12.474,-117.835,-16.385
16:37:29:623,52.588,0.043,0.091,0.256,12.474,-117.835,-16.385
16:37:29:651,52.615,0.043,0.091,0.256,12.474,-117.835,-16.385
16:37:29:678,52.643,0.043,0.091,0.256,12.474,-117.835,-16.385
16:37:29:705,52.670,0.043,0.091,0.256,12.474,-117.835,-16.385
16:37:29:732,52.697,0.052,0.284,0.361,12.813,-113.678,-12.427
16:37:29:759,52.724,0.052,0.284,0.361,12.813,-113.678,-12.427
16:37:29:787,52.751,0.254,0.161,0.204,13.035,-104.044,-12.699
16:37:29:814,52.779,0.254,0.161,0.204,13.035,-104.044,-12.699
16:37:29:841,52.805,0.254,0.161,0.204,13.035,-104.044,-12.699
16:37:29:869,52.833,0.317,-0.111,-0.041,14.866,-91.170,-16.362
16:37:29:896,52.861,0.269,-0.280,-0.134,15.820,-87.414,-18.036
16:37:29:923,52.888,0.245,-0.319,-0.141,16.455,-85.358,-19.370
16:37:29:951,52.915,0.245,-0.319,-0.141,16.455,-85.358,-19.370
16:37:29:978,52.942,0.245,-0.319,-0.141,16.455,-85.358,-19.370
16:37:30:005,52.969,0.290,-0.207,-0.255,18.384,-81.223,-25.807
16:37:30:032,52.997,0.290,-0.207,-0.255,18.384,-81.223,-25.807
