Time,Second,AccelerationX,AccelerationY,AccelerationZ,EulerAnglesX,EulerAnglesY,EulerAnglesZ
20:00:01:154,0.000,0.010,-0.003,0.002,-8.352,0.980,3.860
20:00:01:181,0.028,0.005,-0.006,0.006,-8.352,0.980,3.860
20:00:01:208,0.055,0.005,-0.003,0.002,-8.352,0.980,3.860
20:00:01:234,0.080,0.008,-0.008,0.009,-8.352,0.980,3.860
20:00:01:317,0.164,0.007,-0.007,-0.001,-8.352,0.980,3.860
20:00:01:318,0.165,0.008,-0.007,0.007,-8.352,0.980,3.860
20:00:01:319,0.166,0.004,-0.006,0.000,-8.352,0.980,3.860
20:00:01:337,0.184,0.008,-0.006,0.011,-8.352,0.980,3.860
20:00:01:364,0.210,0.004,-0.008,0.002,-8.352,0.980,3.860
20:00:01:392,0.238,0.009,-0.009,0.008,-8.352,0.966,3.861
20:00:01:417,0.264,0.009,-0.008,0.000,-8.351,0.952,3.861
20:00:01:501,0.347,0.007,-0.006,0.006,-8.346,0.919,3.867
20:00:01:501,0.348,0.008,-0.006,0.007,-8.346,0.897,3.868
20:00:01:504,0.350,0.007,-0.009,0.007,-8.351,0.854,3.873
20:00:01:521,0.368,0.006,-0.005,0.000,-8.364,0.817,3.878
20:00:01:548,0.394,0.013,-0.003,0.008,-8.361,0.788,3.887
20:00:01:574,0.420,0.015,-0.003,0.002,-8.374,0.751,3.893
20:00:01:6,0.447,0.012,-0.006,0.002,-8.373,0.737,3.894
20:00:01:628,0.474,0.010,-0.004,0.002,-8.373,0.715,3.896
20:00:01:683,0.529,0.012,-0.003,0.008,-8.371,0.708,3.903
20:00:01:683,0.530,0.012,-0.006,0.002,-8.371,0.708,3.903
20:00:01:704,0.551,0.012,-0.006,0.002,-8.371,0.708,3.903
20:00:01:731,0.578,0.013,-0.008,0.002,-8.371,0.708,3.903
20:00:01:759,0.606,0.011,-0.006,0.002,-8.376,0.707,3.911
20:00:01:786,0.633,0.010,-0.004,0.008,-8.372,0.716,3.920
20:00:01:812,0.658,0.009,-0.007,0.004,-8.376,0.722,3.935
20:00:01:863,0.709,0.010,-0.009,0.004,-8.375,0.736,3.941
20:00:01:921,0.767,0.006,-0.005,-0.003,-8.375,0.736,3.941
20:00:01:921,0.768,0.004,-0.002,0.006,-8.373,0.755,3.935
20:00:01:922,0.769,0.006,-0.006,0.006,-8.376,0.772,3.938
20:00:01:941,0.788,0.016,-0.009,0.000,-8.378,0.780,3.931
20:00:01:968,0.814,0.001,-0.003,-0.003,-8.385,0.837,3.935
20:00:01:993,0.840,0.000,-0.006,0.005,-8.383,0.855,3.929
20:00:02:049,0.895,0.002,-0.005,0.001,-8.383,0.855,3.929
20:00:02:05,0.896,0.011,-0.008,0.005,-8.389,0.855,3.938
20:00:02:102,0.949,0.013,-0.005,-0.002,-8.389,0.855,3.938
20:00:02:103,0.949,0.003,-0.008,0.007,-8.386,0.873,3.932
20:00:02:125,0.972,0.002,-0.006,-0.001,-8.386,0.873,3.932
20:00:02:151,0.998,0.011,-0.006,0.007,-8.404,0.861,3.933
20:00:02:177,1.024,0.010,-0.008,0.002,-8.411,0.868,3.934
20:00:02:292,1.138,0.012,-0.010,0.008,-8.411,0.846,3.936
20:00:02:293,1.139,0.012,-0.005,0.004,-8.423,0.809,3.941
20:00:02:293,1.140,0.007,-0.006,0.009,-8.453,0.747,3.949
20:00:02:294,1.141,0.017,-0.009,0.000,-8.493,0.624,3.971
20:00:02:341,1.188,0.016,-0.010,0.000,-8.534,0.481,3.987
20:00:02:341,1.188,0.028,-0.007,0.010,-8.629,0.234,4.063
20:00:02:342,1.189,0.025,-0.006,0.014,-8.708,0.006,4.131
20:00:02:475,1.322,0.029,-0.015,0.000,-8.902,-0.479,4.300
20:00:02:476,1.323,0.010,-0.004,0.013,-9.212,-1.166,4.579
20:00:02:477,1.324,0.002,0.034,0.029,-9.379,-1.457,4.750
20:00:02:478,1.324,0.071,0.002,-0.013,-9.544,-1.599,4.897
20:00:02:497,1.343,-0.002,-0.068,-0.068,-9.542,-1.591,4.857
20:00:02:497,1.343,0.149,0.009,-0.033,-9.557,-1.895,4.853
20:00:02:519,1.365,0.055,0.013,0.022,-9.535,-2.022,4.891
20:00:02:545,1.391,-0.012,0.002,0.017,-9.468,-2.059,5.048
20:00:02:571,1.418,-0.018,0.019,-0.046,-9.423,-2.127,5.234
20:00:02:597,1.444,-0.040,-0.006,-0.061,-9.361,-2.157,5.334
20:00:02:652,1.499,-0.010,-0.003,-0.015,-9.108,-2.232,5.389
20:00:02:653,1.500,-0.015,-0.002,0.002,-8.901,-2.315,5.380
20:00:02:677,1.524,-0.059,-0.009,-0.012,-8.504,-2.343,5.286
20:00:02:703,1.549,-0.034,0.008,-0.038,-7.995,-2.070,4.965
20:00:02:729,1.575,-0.091,0.003,-0.041,-7.628,-1.738,4.715
20:00:02:755,1.601,-0.106,0.070,-0.046,-6.890,-1.205,3.807
20:00:02:781,1.628,-0.271,0.083,-0.071,-6.375,-0.926,2.836
20:00:02:835,1.682,-0.496,0.155,-0.244,-5.642,-0.577,0.349
20:00:02:888,1.734,-0.572,0.198,-0.441,-5.296,-0.482,-1.928
20:00:02:918,1.765,-1.028,-0.083,-0.493,-4.891,0.073,-4.616
20:00:02:919,1.765,-1.039,-0.235,-0.438,-5.328,0.754,-5.975
20:00:02:92,1.766,-0.999,-0.209,-0.347,-6.241,1.114,-6.032
20:00:02:939,1.785,-0.805,0.001,-0.029,-8.139,1.283,-5.138
20:00:02:965,1.811,-0.602,0.034,0.154,-9.363,1.513,-4.081
20:00:02:991,1.837,-0.520,0.021,0.238,-10.823,2.122,-1.974
20:00:03:018,1.864,-0.471,-0.044,0.321,-12.060,2.914,0.493
20:00:03:044,1.890,-0.277,-0.041,0.239,-12.836,2.350,2.126
20:00:03:128,1.975,-0.006,-0.012,0.124,-14.057,1.399,5.009
20:00:03:129,1.975,0.286,0.009,0.108,-14.877,0.574,7.263
20:00:03:13,1.976,0.864,-0.039,0.053,-16.015,-0.093,10.358
20:00:03:151,1.998,1.704,-0.132,0.059,-16.749,0.047,11.848
20:00:03:204,2.051,1.887,-0.550,0.259,-17.891,0.548,13.112
20:00:03:205,2.051,1.750,-0.872,0.425,-18.273,0.585,12.530
20:00:03:229,2.076,1.448,-0.467,-1.237,-17.843,-0.669,11.625
20:00:03:307,2.153,1.531,2.298,1.819,-17.657,-4.152,11.047
20:00:03:338,2.185,-0.188,-1.033,-0.129,-16.508,-5.744,9.109
20:00:03:339,2.185,0.478,0.173,0.402,-15.840,-6.272,7.242
20:00:03:34,2.186,0.283,-0.057,-0.321,-16.199,-6.550,5.988
20:00:03:358,2.205,-0.190,0.062,0.028,-16.423,-5.142,4.779
20:00:03:439,2.285,-0.261,-0.032,-0.124,-16.355,-3.827,2.979
20:00:03:469,2.316,-0.298,-0.068,-0.196,-16.289,-3.587,1.451
20:00:03:47,2.317,-0.118,-0.016,-0.200,-16.338,-2.667,-1.540
20:00:03:471,2.317,0.398,0.460,0.146,-16.228,-1.831,-3.654
20:00:03:49,2.336,-0.007,0.473,0.211,-15.416,-0.043,-6.868
20:00:03:516,2.362,-0.390,0.766,0.192,-13.962,1.844,-10.280
20:00:03:542,2.389,-1.094,0.833,-0.034,-12.890,3.407,-13.418
20:00:03:57,2.416,-1.707,0.393,-0.216,-10.735,6.114,-19.578
20:00:03:624,2.470,-2.229,0.293,-0.126,-9.490,8.039,-24.979
20:00:03:648,2.494,-1.885,1.276,0.298,-8.737,11.234,-35.856
20:00:03:708,2.554,-2.772,-0.885,-0.516,-6.235,14.547,-49.888
20:00:03:708,2.554,-3.027,-2.132,-0.146,-4.895,14.626,-54.043
20:00:03:708,2.554,-1.878,-2.094,0.225,-9.082,13.513,-51.738
20:00:03:728,2.574,-1.530,-2.155,0.357,-10.704,13.295,-46.890
20:00:03:753,2.599,-1.640,-0.850,0.638,-11.613,14.199,-34.215
20:00:03:779,2.625,-1.445,0.321,0.783,-12.131,14.829,-24.125
20:00:03:806,2.652,-0.561,1.515,0.364,-14.009,13.582,-6.911
20:00:03:831,2.678,3.273,2.160,-0.442,-17.118,12.408,9.183
20:00:03:858,2.704,4.932,1.236,-0.291,-19.412,11.098,18.625
20:00:03:884,2.731,4.046,-1.424,-0.796,-20.622,11.716,25.290
20:00:03:91,2.757,3.844,-1.286,-0.628,-20.862,12.877,23.400
20:00:04:026,2.872,-2.256,2.032,2.328,-19.120,11.873,18.870
20:00:04:026,2.873,1.048,0.846,0.765,-15.959,9.846,10.454
20:00:04:026,2.873,2.448,-1.950,-1.145,-14.484,8.661,4.447
20:00:04:027,2.873,0.180,0.002,-0.142,-14.128,10.510,-0.568
20:00:04:042,2.888,-0.020,0.021,0.442,-13.618,12.316,-4.363
20:00:04:068,2.914,0.212,0.262,-0.127,-13.474,13.472,-9.244
20:00:04:123,2.969,-0.426,0.689,-0.133,-13.581,14.517,-13.084
20:00:04:124,2.970,-0.752,0.951,0.033,-13.673,15.939,-15.811
20:00:04:147,2.993,-2.421,1.648,0.827,-14.576,19.075,-22.166
20:00:04:173,3.019,-2.744,0.285,0.194,-14.883,21.061,-29.371
20:00:04:198,3.045,-3.720,-1.573,0.630,-15.056,24.152,-40.356
20:00:04:225,3.072,-3.094,-1.758,0.657,-16.534,25.548,-44.142
20:00:04:251,3.098,-2.272,-2.046,0.460,-21.009,26.034,-44.096
20:00:04:277,3.124,-1.381,-1.152,0.658,-22.462,27.132,-36.889
20:00:04:303,3.150,-1.117,-0.712,1.111,-22.488,29.466,-29.850
20:00:04:33,3.176,-0.068,0.256,1.382,-22.497,33.047,-16.854
20:00:04:385,3.232,1.148,0.844,0.846,-23.015,35.375,-7.603
20:00:04:386,3.232,4.127,1.388,0.252,-26.114,38.863,5.527
20:00:04:409,3.255,3.564,-0.260,-2.384,-27.749,37.678,15.942
20:00:04:435,3.281,2.858,-0.986,-2.866,-27.203,38.021,17.321
20:00:04:461,3.308,-1.870,2.668,2.848,-26.497,40.181,11.566
20:00:04:492,3.339,0.270,-0.467,-0.726,-24.359,39.515,8.141
20:00:04:492,3.339,0.720,-0.479,-1.036,-22.361,39.530,2.291
20:00:04:514,3.360,0.156,0.285,0.098,-21.905,40.578,-0.443
20:00:04:54,3.386,0.114,0.068,-0.078,-22.094,42.093,-4.508
20:00:04:567,3.413,-0.249,0.832,-0.102,-23.117,44.403,-8.571
20:00:04:595,3.441,0.170,1.549,0.979,-24.232,47.984,-12.393
20:00:04:621,3.468,-2.011,1.187,2.664,-25.389,54.260,-21.778
20:00:04:647,3.493,-2.394,0.074,1.592,-26.251,57.194,-29.785
20:00:04:701,3.548,-2.595,-2.502,2.212,-28.272,59.245,-37.413
20:00:04:701,3.548,-1.780,-1.798,1.559,-29.741,60.397,-37.603
20:00:04:751,3.598,-1.219,-1.665,1.640,-29.140,62.217,-33.668
20:00:04:779,3.626,0.099,-0.687,1.760,-27.857,66.285,-23.971
20:00:04:78,3.626,1.366,0.929,0.832,-27.087,68.656,-15.151
20:00:04:803,3.650,2.176,1.236,-0.895,-27.585,70.626,-0.359
20:00:04:829,3.675,3.032,1.345,-3.571,-28.788,71.279,8.649
20:00:04:855,3.702,0.978,-0.617,-4.036,-28.684,69.887,17.608
20:00:04:883,3.729,0.675,0.125,-3.543,-26.925,68.821,18.060
20:00:04:936,3.783,0.114,2.289,3.401,-26.004,70.293,14.625
20:00:04:937,3.783,-0.148,-1.029,-0.210,-23.689,71.494,8.927
20:00:04:96,3.807,0.079,0.252,-0.158,-23.073,72.165,5.885
20:00:05:044,3.891,-0.143,0.149,-0.287,-22.740,73.817,2.375
20:00:05:045,3.892,0.032,0.178,0.110,-22.260,76.001,-0.994
20:00:05:046,3.892,-0.361,0.252,0.040,-21.964,77.109,-3.139
20:00:05:123,3.969,0.109,0.856,-0.234,-21.493,79.940,-7.045
20:00:05:124,3.970,0.113,0.825,0.425,-20.873,82.064,-10.011
20:00:05:124,3.971,-0.083,0.728,1.166,-19.502,85.732,-15.386
20:00:05:202,4.049,-0.183,0.029,1.665,-18.202,88.800,-20.105
20:00:05:203,4.049,0.269,0.650,2.563,-16.383,93.664,-29.508
20:00:05:204,4.050,-0.238,1.840,2.653,-16.554,99.336,-44.385
20:00:05:223,4.069,-0.539,-1.422,3.046,-14.951,102.091,-54.233
20:00:05:249,4.096,-0.186,-2.908,2.937,-13.438,102.763,-60.457
20:00:05:304,4.150,-0.019,-1.854,1.562,-16.792,100.935,-60.063
20:00:05:305,4.151,0.051,-1.610,1.193,-18.897,97.981,-52.470
20:00:05:33,4.176,0.080,-0.884,1.521,-16.859,96.719,-39.354
20:00:05:356,4.203,0.209,-0.221,1.308,-15.740,96.310,-28.402
20:00:05:382,4.229,-0.121,2.010,-0.592,-16.272,95.445,-10.359
20:00:05:407,4.254,0.187,2.514,-2.367,-17.898,95.331,1.245
20:00:05:434,4.280,0.106,0.371,-4.394,-18.788,91.972,14.638
20:00:05:46,4.306,0.164,-1.345,-4.003,-18.658,90.777,17.636
20:00:05:487,4.333,1.677,3.200,2.559,-17.744,88.192,12.119
20:00:05:54,4.387,0.106,-0.946,-1.959,-16.245,86.621,4.858
20:00:05:541,4.388,-1.426,-1.368,-1.426,-16.042,87.587,0.045
20:00:05:565,4.412,-0.323,-0.284,0.427,-16.135,90.021,-4.262
20:00:05:591,4.438,-0.107,0.292,0.088,-15.412,91.363,-7.136
20:00:05:617,4.463,-0.277,0.471,0.062,-14.956,92.910,-11.573
20:00:05:642,4.489,0.161,1.297,0.976,-13.763,95.784,-16.373
20:00:05:669,4.515,0.151,0.837,1.858,-12.824,97.794,-21.232
20:00:05:695,4.541,0.612,0.082,2.580,-10.628,100.377,-30.967
20:00:05:721,4.568,-0.154,0.737,3.614,-8.967,102.948,-38.717
20:00:05:748,4.594,-0.475,-0.464,3.229,-6.849,105.902,-52.588
20:00:05:774,4.620,0.444,-2.324,3.947,-3.445,106.318,-57.028
20:00:05:829,4.676,0.004,-2.531,3.277,-5.687,105.088,-58.174
20:00:05:83,4.676,-0.087,-1.632,1.279,-11.418,101.545,-52.686
20:00:05:852,4.699,-0.085,-1.071,0.923,-11.309,100.465,-45.690
20:00:05:879,4.725,0.000,0.048,1.245,-11.125,100.569,-31.136
20:00:05:905,4.751,0.041,0.939,1.032,-11.221,100.824,-19.913
20:00:05:991,4.837,0.211,1.852,-1.064,-13.026,101.812,-3.961
20:00:05:991,4.837,0.510,1.114,-4.111,-16.699,101.786,9.906
20:00:05:991,4.838,-0.852,-0.148,-4.257,-18.305,100.440,17.686
20:00:06:011,4.857,-0.467,-1.873,-3.870,-19.180,99.022,22.920
20:00:06:038,4.885,-1.614,0.541,-1.356,-18.403,97.451,21.841
20:00:06:065,4.912,0.555,3.312,0.818,-19.172,95.697,13.805
20:00:06:089,4.935,-1.375,-0.233,0.522,-15.350,96.366,5.511
20:00:06:117,4.964,-0.339,-1.301,-2.178,-14.014,97.532,-3.634
20:00:06:142,4.989,0.329,-0.287,-0.163,-13.716,99.769,-9.215
20:00:06:199,5.045,-0.432,-0.018,0.265,-13.658,99.845,-11.541
20:00:06:199,5.045,-0.101,0.389,-0.078,-14.471,100.829,-15.084
20:00:06:224,5.070,-0.007,0.462,0.173,-14.536,102.334,-17.403
20:00:06:246,5.093,0.126,0.941,1.263,-14.561,104.803,-21.033
20:00:06:273,5.119,0.440,1.075,2.209,-14.856,106.850,-24.799
20:00:06:354,5.201,-0.064,0.496,2.649,-13.663,114.083,-44.281
20:00:06:355,5.202,0.935,-3.619,2.786,-12.674,116.569,-49.081
20:00:06:38,5.226,-0.118,-2.653,2.296,-14.754,116.296,-50.668
20:00:06:433,5.279,0.186,-2.057,1.597,-16.934,115.450,-47.061
20:00:06:434,5.280,0.639,-0.882,1.567,-18.207,116.251,-35.801
20:00:06:456,5.303,1.028,0.474,0.568,-18.462,118.657,-20.881
20:00:06:482,5.329,0.650,1.929,-1.300,-19.323,121.312,-10.624
20:00:06:538,5.384,-0.428,2.082,-4.554,-22.028,126.010,2.543
20:00:06:539,5.385,-2.163,-0.407,-3.466,-23.255,126.130,8.962
20:00:06:59,5.437,-1.447,-0.391,-4.068,-22.586,126.963,10.039
20:00:06:591,5.438,0.386,0.841,-1.677,-19.871,125.374,4.097
20:00:06:614,5.461,-0.486,-0.283,-1.323,-18.115,123.138,0.902
20:00:06:64,5.486,0.068,0.103,-0.312,-16.246,124.282,-4.746
20:00:06:668,5.514,0.299,0.116,0.309,-15.738,125.456,-7.437
20:00:06:695,5.541,0.011,0.474,-0.045,-16.088,126.313,-11.246
20:00:06:72,5.567,1.087,1.597,1.080,-17.080,127.921,-13.923
20:00:06:774,5.621,1.939,1.634,2.022,-18.391,133.032,-20.164
20:00:06:775,5.621,1.007,-0.124,2.035,-18.947,136.748,-30.642
20:00:06:8,5.647,1.059,-0.901,2.435,-19.968,139.052,-37.651
20:00:06:801,5.647,0.945,-2.272,2.278,-22.455,141.050,-42.126
20:00:06:824,5.671,1.310,-1.969,1.515,-22.821,143.267,-40.945
20:00:06:85,5.696,1.596,-1.613,0.696,-21.242,148.502,-34.089
20:00:06:876,5.723,1.937,-0.699,-0.431,-20.265,154.940,-23.507
20:00:06:903,5.749,1.370,0.377,-1.061,-20.518,158.274,-14.975
20:00:06:931,5.777,-1.148,1.686,-2.301,-22.475,160.496,-2.017
20:00:06:956,5.802,-3.411,1.460,-3.071,-23.718,159.535,6.690
20:00:06:981,5.828,-3.554,0.450,-2.655,-22.963,156.771,12.222
20:00:07:007,5.854,2.606,-0.012,1.426,-21.742,160.394,7.716
20:00:07:034,5.880,-0.950,0.177,-0.958,-19.027,158.624,4.822
20:00:07:06,5.906,-0.377,-0.022,-0.087,-17.868,158.076,1.874
20:00:07:088,5.934,-0.016,0.164,0.084,-17.783,159.747,-0.065
20:00:07:115,5.961,-0.013,0.057,0.262,-17.775,160.424,-1.993
20:00:07:14,5.987,0.000,0.166,0.137,-17.766,161.093,-3.215
20:00:07:166,6.012,0.153,0.262,0.192,-17.390,163.153,-5.486
20:00:07:22,6.067,0.144,0.379,0.327,-16.765,165.035,-8.597
20:00:07:221,6.068,0.310,0.348,0.393,-16.277,166.458,-11.333
20:00:07:244,6.090,0.777,0.357,0.022,-15.353,169.311,-16.933
20:00:07:27,6.117,1.444,0.698,-0.292,-14.723,171.771,-21.960
20:00:07:298,6.144,2.641,0.423,0.650,-13.264,176.639,-31.683
20:00:07:323,6.169,3.178,1.684,1.336,-12.595,179.584,-39.405
20:00:07:349,6.195,1.787,-0.124,1.341,-13.109,-177.270,-51.113
20:00:07:375,6.221,1.561,-1.756,0.454,-10.148,-175.278,-53.703
20:00:07:403,6.249,1.556,-2.398,0.390,-10.830,-174.283,-52.577
20:00:07:429,6.276,0.911,-1.769,-0.169,-12.184,-172.560,-45.220
20:00:07:454,6.300,1.437,-0.915,-0.519,-13.712,-170.428,-37.968
20:00:07:48,6.327,1.161,-0.142,-0.909,-15.929,-169.103,-24.745
20:00:07:506,6.353,0.338,0.720,-0.954,-18.099,-169.644,-9.387
20:00:07:533,6.379,-0.781,1.369,-1.091,-19.914,-170.491,1.757
20:00:07:559,6.405,-3.623,1.766,-0.114,-23.062,-172.674,16.783
20:00:07:587,6.433,-4.355,-0.761,0.547,-23.295,-174.253,24.165
20:00:07:64,6.487,-3.964,-1.849,0.303,-23.102,-175.401,28.267
20:00:07:641,6.487,-1.412,1.974,0.185,-21.638,-176.285,26.930
20:00:07:664,6.511,-3.840,-2.352,-0.569,-19.569,-175.154,19.467
20:00:07:69,6.537,-1.701,-0.746,0.584,-17.516,-175.569,12.180
20:00:07:716,6.563,-1.426,0.039,-0.342,-16.910,-175.756,9.501
20:00:07:772,6.619,-0.315,0.142,-0.081,-16.831,-174.868,7.456
20:00:07:772,6.619,-0.247,-0.166,0.071,-17.736,-173.596,5.890
20:00:07:795,6.641,0.444,0.189,0.262,-18.918,-172.287,4.499
20:00:07:823,6.670,0.170,-0.050,0.261,-18.992,-171.349,2.658
20:00:07:849,6.696,0.315,0.041,0.149,-19.109,-170.219,1.111
20:00:07:874,6.721,0.285,0.259,0.221,-19.170,-168.198,-2.061
20:00:07:901,6.748,0.124,0.194,0.016,-18.996,-166.534,-4.946
20:00:07:927,6.773,0.113,0.330,-0.212,-18.499,-163.139,-10.366
20:00:07:953,6.799,0.235,0.399,-0.622,-18.064,-160.670,-14.540
20:00:07:979,6.825,0.885,0.291,-0.713,-17.151,-157.145,-21.728
20:00:08:005,6.851,1.751,0.392,-0.355,-16.478,-153.297,-30.422
20:00:08:032,6.878,2.359,0.821,-0.189,-16.367,-149.689,-37.357
20:00:08:087,6.933,3.546,1.070,-1.045,-18.044,-143.786,-49.676
20:00:08:087,6.934,2.406,-2.292,-0.885,-17.090,-143.072,-56.254
20:00:08:11,6.957,1.674,-1.533,-0.937,-14.548,-140.766,-56.800
20:00:08:137,6.983,0.708,-1.829,-0.411,-16.420,-139.310,-53.440
20:00:08:221,7.068,0.815,-1.382,-0.791,-17.950,-138.001,-48.288
20:00:08:222,7.068,0.491,-0.538,-1.299,-20.452,-137.386,-36.619
20:00:08:222,7.069,0.094,-0.009,-1.350,-21.853,-137.933,-27.193
20:00:08:242,7.088,-0.641,0.439,-1.415,-22.775,-138.987,-11.984
20:00:08:297,7.143,-1.146,1.143,-1.144,-23.208,-139.614,-1.366
20:00:08:297,7.144,-2.363,1.759,1.644,-24.076,-141.603,14.245
20:00:08:321,7.167,-3.008,-0.346,2.769,-24.528,-140.567,25.780
20:00:08:434,7.281,-3.131,-1.435,2.870,-25.463,-138.533,30.064
20:00:08:435,7.281,-1.725,-1.551,3.742,-24.236,-136.546,29.758
20:00:08:436,7.282,-3.174,-0.685,2.246,-23.775,-135.639,25.814
20:00:08:437,7.283,-0.833,-0.082,0.775,-21.203,-134.271,18.552
20:00:08:452,7.298,-1.329,-0.065,0.613,-20.094,-133.922,13.010
20:00:08:48,7.326,-0.401,-0.067,0.076,-19.973,-133.090,10.918
20:00:08:505,7.352,-0.264,0.099,0.245,-20.781,-131.735,9.039
20:00:08:561,7.407,0.158,0.201,-0.008,-21.766,-130.779,7.719
20:00:08:561,7.408,0.281,0.054,0.057,-22.598,-129.796,6.067
20:00:08:583,7.429,0.245,0.062,-0.101,-22.604,-128.121,3.709
20:00:08:667,7.514,0.268,0.093,-0.061,-22.582,-126.479,1.707
20:00:08:668,7.514,0.341,0.187,0.058,-22.336,-124.168,-2.008
20:00:08:669,7.515,0.047,0.287,0.056,-21.954,-122.487,-4.930
20:00:08:718,7.565,-0.161,0.340,-0.332,-21.103,-118.901,-10.166
20:00:08:718,7.565,-0.094,0.371,-0.797,-20.148,-114.913,-16.171
20:00:08:769,7.615,0.059,0.169,-1.095,-19.625,-112.408,-20.747
20:00:08:77,7.616,0.388,0.444,-1.416,-19.033,-107.586,-29.163
20:00:08:822,7.668,0.818,2.392,-2.247,-20.193,-102.686,-37.740
20:00:08:823,7.669,2.321,1.779,-2.725,-21.493,-97.628,-52.357
20:00:08:845,7.692,1.069,-1.238,-2.460,-17.591,-96.896,-56.468
20:00:08:9,7.747,0.659,-2.035,-1.414,-13.283,-95.139,-56.606
20:00:08:901,7.748,0.157,-1.436,-1.061,-13.727,-94.776,-51.030
20:00:08:925,7.771,-0.102,-1.311,-0.933,-14.096,-94.288,-44.378
20:00:08:95,7.797,-0.184,-0.796,-0.941,-15.253,-93.047,-32.677
20:00:08:977,7.823,-0.444,-0.238,-1.094,-16.293,-92.945,-23.757
20:00:09:003,7.849,-0.557,0.493,-0.423,-17.861,-95.024,-8.902
20:00:09:029,7.876,-0.819,1.728,0.685,-18.965,-96.667,2.212
20:00:09:058,7.904,-0.358,1.619,2.540,-21.448,-99.463,17.970
20:00:09:059,7.905,-0.115,-0.664,4.571,-23.232,-101.538,29.715
20:00:09:11,7.957,-0.428,-1.519,4.253,-24.579,-102.671,33.794
20:00:09:111,7.958,-0.410,-2.463,3.637,-21.515,-106.249,32.709
20:00:09:135,7.981,-1.870,1.503,2.377,-19.521,-108.666,28.689
20:00:09:16,8.007,-0.138,0.770,0.041,-18.137,-108.708,21.793
20:00:09:186,8.033,-0.200,0.331,1.117,-18.244,-108.216,16.911
20:00:09:213,8.059,-0.058,0.090,0.255,-18.225,-106.892,14.979
20:00:09:24,8.087,-0.318,-0.108,0.226,-17.858,-105.125,12.028
20:00:09:267,8.113,0.107,0.129,-0.094,-17.837,-104.644,10.150
20:00:09:351,8.197,0.301,0.186,0.174,-17.476,-103.519,7.161
20:00:09:351,8.197,-0.018,0.334,-0.056,-17.295,-100.733,3.432
20:00:09:351,8.198,-0.307,0.409,-0.031,-16.970,-98.924,0.620
20:00:09:372,8.219,-0.211,0.584,-0.355,-16.123,-96.150,-4.265
20:00:09:398,8.244,-0.358,0.314,-1.151,-15.525,-93.873,-8.344
20:00:09:453,8.299,-0.380,0.205,-1.402,-14.369,-90.342,-15.902
20:00:09:453,8.299,0.572,0.715,-2.467,-13.978,-88.001,-22.341
20:00:09:475,8.321,0.006,1.475,-1.530,-14.204,-83.542,-35.172
20:00:09:531,8.377,0.630,-0.123,-1.624,-11.881,-78.674,-48.416
20:00:09:531,8.378,0.087,-2.157,-3.333,-7.198,-77.852,-51.230
20:00:09:555,8.402,0.094,-1.721,-1.407,-7.072,-79.506,-49.389
20:00:09:582,8.428,0.233,-1.649,-0.796,-9.053,-81.154,-45.511
20:00:09:607,8.454,0.114,-1.244,-0.836,-11.330,-82.935,-35.462
20:00:09:633,8.480,-0.199,-0.116,-0.944,-13.794,-83.938,-21.610
20:00:09:659,8.505,-0.385,0.372,-0.583,-15.204,-85.478,-11.303
20:00:09:685,8.531,-0.648,1.561,0.487,-17.539,-88.162,5.287
20:00:09:712,8.558,-0.887,2.021,1.778,-19.964,-89.657,16.595
20:00:09:74,8.586,0.525,-0.041,4.501,-23.042,-90.945,30.222
20:00:09:764,8.610,-0.058,-1.695,4.322,-24.988,-91.210,35.910
20:00:09:79,8.637,0.907,-1.524,3.493,-24.483,-93.084,37.268
20:00:09:816,8.663,-2.306,3.875,-1.568,-20.985,-96.252,31.744
20:00:09:871,8.718,-0.247,0.154,2.193,-19.027,-95.849,25.451
20:00:09:872,8.719,0.318,-1.123,3.077,-18.484,-95.133,17.312
20:00:09:897,8.744,-0.280,0.084,0.500,-19.126,-94.842,14.656
20:00:09:923,8.769,-0.096,0.182,-0.060,-19.060,-92.774,11.534
20:00:09:978,8.825,-0.123,0.190,0.052,-19.531,-91.236,8.420
20:00:09:979,8.825,0.384,0.118,0.035,-19.719,-90.845,6.835
20:00:10:,8.847,0.041,0.202,-0.111,-19.445,-88.988,3.986
20:00:10:028,8.875,-0.013,0.188,-0.124,-19.133,-87.476,1.908
20:00:10:054,8.900,-0.181,0.265,-0.121,-18.376,-85.359,-1.740
20:00:10:079,8.926,0.017,0.513,-0.281,-17.696,-84.071,-4.624
20:00:10:105,8.952,-0.132,0.370,-0.361,-16.513,-81.768,-9.966
20:00:10:132,8.978,-0.607,0.411,-0.980,-15.478,-78.751,-16.794
20:00:10:187,9.033,-0.503,0.199,-1.463,-14.803,-76.850,-22.133
20:00:10:187,9.034,0.213,1.268,-2.287,-14.377,-73.452,-31.954
20:00:10:212,9.058,0.095,1.188,-3.175,-14.551,-70.151,-41.148
20:00:10:237,9.083,0.517,-1.570,-1.626,-11.347,-67.871,-51.895
20:00:10:263,9.109,-0.099,-1.830,-1.441,-11.150,-68.662,-53.375
20:00:10:32,9.166,0.098,-1.584,-0.997,-14.053,-69.462,-51.652
20:00:10:32,9.166,-0.189,-1.370,-0.800,-17.265,-69.769,-44.638
20:00:10:429,9.275,-0.487,-0.757,-0.813,-18.265,-69.671,-37.177
20:00:10:429,9.276,-0.816,-0.082,-0.868,-20.469,-69.839,-24.118
20:00:10:43,9.277,-0.615,0.512,-0.145,-21.421,-71.242,-14.426
20:00:10:431,9.277,-0.660,1.055,0.597,-23.158,-74.426,1.923
20:00:10:448,9.295,0.256,1.566,3.051,-26.736,-75.840,17.991
20:00:10:531,9.377,1.330,-0.252,4.433,-28.780,-75.891,26.691
20:00:10:532,9.378,0.866,-2.137,3.922,-31.250,-74.755,31.944
20:00:10:532,9.379,1.793,-1.454,2.931,-29.916,-75.575,30.415
20:00:10:581,9.428,-0.506,1.481,3.130,-27.241,-75.489,22.062
20:00:10:637,9.483,-0.900,-0.294,0.513,-24.503,-74.909,13.662
20:00:10:637,9.483,-0.323,-0.340,0.650,-23.550,-75.103,9.365
20:00:10:638,9.484,-0.065,0.174,0.288,-23.458,-73.139,4.740
20:00:10:657,9.503,0.444,0.217,0.041,-23.890,-72.614,2.343
20:00:10:683,9.529,0.051,0.056,0.168,-24.888,-71.661,-0.488
20:00:10:709,9.556,-0.019,0.137,-0.008,-25.398,-70.428,-2.310
20:00:10:766,9.613,-0.048,0.125,-0.019,-25.619,-68.645,-4.824
20:00:10:767,9.613,-0.284,0.370,-0.218,-25.593,-66.690,-7.581
20:00:10:788,9.634,-0.334,0.506,-0.259,-25.576,-65.033,-10.060
20:00:10:845,9.691,-0.546,0.762,-0.775,-25.525,-61.377,-15.821
20:00:10:845,9.691,-0.811,0.762,-1.350,-25.767,-57.821,-21.519
20:00:10:866,9.713,-0.927,0.663,-1.973,-26.953,-49.660,-32.888
20:00:10:893,9.739,-1.353,0.893,-1.805,-28.160,-41.154,-44.979
20:00:10:919,9.766,-1.148,-1.588,-1.970,-27.415,-38.454,-48.733
20:00:10:947,9.794,-0.242,-1.730,-1.058,-29.055,-37.761,-48.706
20:00:10:972,9.819,-0.513,-1.335,-0.639,-31.214,-38.166,-45.530
20:00:11:08,9.926,-1.062,-0.590,-0.391,-31.451,-37.499,-35.588
20:00:11:111,9.958,-1.688,-0.564,0.404,-30.108,-34.450,-24.244
20:00:11:112,9.959,-1.604,-0.243,0.862,-29.193,-32.641,-15.817
20:00:11:113,9.960,-0.636,0.785,1.444,-29.471,-31.613,-2.476
20:00:11:114,9.960,0.722,1.332,2.072,-30.562,-31.188,6.154
20:00:11:13,9.976,1.932,0.727,2.415,-32.912,-31.183,17.622
20:00:11:155,10.002,3.636,-0.993,2.145,-33.367,-31.728,22.645
20:00:11:181,10.028,3.125,-1.215,1.838,-32.826,-30.333,23.716
20:00:11:208,10.054,-1.900,1.079,-1.365,-31.205,-29.786,20.320
20:00:11:234,10.080,0.282,0.346,0.271,-30.015,-27.305,17.620
20:00:11:261,10.107,0.157,-0.273,0.211,-28.449,-25.759,11.456
20:00:11:289,10.135,0.609,0.036,1.227,-27.425,-25.905,8.696
20:00:11:316,10.162,0.169,0.031,0.465,-27.215,-25.725,6.587
20:00:11:316,10.163,0.172,0.183,0.206,-28.128,-24.657,5.113
20:00:11:368,10.215,-0.227,0.057,-0.040,-28.616,-23.214,3.979
20:00:11:391,10.238,-0.232,-0.051,-0.065,-28.843,-22.399,2.709
20:00:11:421,10.267,-0.146,-0.129,-0.281,-28.920,-21.993,1.554
20:00:11:421,10.268,-0.310,0.104,-0.370,-28.827,-20.477,-1.240
20:00:11:444,10.290,-0.106,-0.015,-0.182,-28.658,-19.371,-3.513
20:00:11:472,10.318,0.051,0.293,0.240,-28.070,-16.899,-7.638
20:00:11:496,10.343,-0.369,0.292,0.425,-27.257,-13.410,-12.645
20:00:11:523,10.369,-0.690,0.290,0.377,-26.571,-11.108,-16.246
20:00:11:579,10.425,-0.868,0.270,0.186,-25.524,-8.327,-22.385
20:00:11:579,10.425,-1.407,0.343,0.168,-25.014,-6.464,-27.239
20:00:11:632,10.478,-1.996,0.251,-0.265,-24.449,-3.024,-35.952
20:00:11:632,10.479,-2.734,1.216,-0.445,-25.070,2.359,-47.557
20:00:11:654,10.501,-3.389,0.411,-1.100,-27.594,5.597,-57.011
20:00:11:68,10.527,-2.208,-2.247,-0.500,-24.780,6.272,-64.096
20:00:11:71,10.557,-0.805,-2.025,0.004,-21.571,8.049,-64.043
20:00:11:733,10.579,-0.905,-1.802,0.049,-19.140,9.897,-60.174
20:00:11:759,10.606,-0.869,-1.494,0.217,-18.273,11.477,-54.777
20:00:11:815,10.661,-1.340,-0.666,0.591,-18.676,14.357,-44.156
20:00:11:815,10.662,-1.013,-0.126,0.945,-19.775,15.511,-31.749
20:00:11:838,10.684,-0.920,0.274,1.026,-20.660,15.048,-22.680
20:00:11:864,10.711,-0.061,1.434,0.983,-22.656,12.318,-7.264
20:00:11:949,10.795,2.164,2.048,-0.205,-24.288,9.888,3.156
20:00:11:949,10.796,3.182,1.054,-0.280,-26.418,7.932,16.127
20:00:11:95,10.797,3.881,-1.052,-0.456,-28.051,8.693,23.400
20:00:11:97,10.816,3.913,-1.457,-0.719,-28.180,8.732,24.452
20:00:11:996,10.842,-1.716,2.393,2.969,-26.574,7.233,21.667
20:00:12:022,10.868,3.234,0.818,0.384,-25.431,6.487,17.243
20:00:12:048,10.894,0.274,-0.659,-0.363,-23.135,6.682,9.467
20:00:12:074,10.921,0.885,0.068,0.206,-22.722,5.582,6.168
20:00:12:1,10.947,0.105,0.009,0.252,-21.971,6.913,3.018
20:00:12:129,10.975,0.110,0.035,0.321,-22.296,9.072,0.246
20:00:12:181,11.028,-0.188,0.150,0.079,-22.771,9.897,-1.077
20:00:12:182,11.029,-0.174,-0.098,-0.274,-23.200,10.795,-2.663
20:00:12:206,11.052,-0.310,-0.014,0.011,-23.046,12.153,-4.145
20:00:12:232,11.079,-0.278,0.067,0.012,-22.631,13.877,-6.588
20:00:12:259,11.106,-0.071,0.083,-0.085,-22.053,15.485,-9.695
20:00:12:286,11.133,-0.238,0.175,0.059,-21.595,16.864,-12.156
20:00:12:312,11.158,-0.248,0.116,0.352,-20.713,19.282,-16.623
20:00:12:365,11.212,-0.411,0.134,0.496,-20.094,20.950,-20.108
20:00:12:366,11.213,-0.668,0.282,0.469,-19.251,23.083,-26.228
20:00:12:449,11.296,-1.422,0.422,0.305,-18.746,24.645,-31.227
20:00:12:449,11.296,-2.281,0.281,0.179,-18.115,28.597,-40.669
20:00:12:45,11.296,-3.024,0.713,0.886,-16.784,33.824,-52.303
20:00:12:47,11.316,-2.309,0.111,0.479,-14.965,35.805,-59.261
20:00:12:495,11.341,-1.538,-1.559,0.127,-18.207,35.683,-62.892
20:00:12:52,11.367,-0.723,-1.358,0.034,-25.923,35.370,-62.643
20:00:12:546,11.393,-0.478,-1.345,0.312,-29.059,36.063,-56.502
20:00:12:573,11.420,-0.371,-0.807,1.205,-27.648,38.144,-46.388
20:00:12:599,11.446,-0.290,-0.562,1.487,-26.342,39.441,-38.346
20:00:12:627,11.474,0.079,-0.057,1.551,-25.188,40.611,-25.148
20:00:12:652,11.499,0.475,0.650,1.335,-24.972,41.319,-15.792
20:00:12:707,11.554,1.519,1.252,0.774,-25.626,42.458,-1.436
20:00:12:708,11.554,2.943,1.599,-1.202,-26.487,42.778,7.209
20:00:12:759,11.606,2.933,-0.088,-2.729,-26.491,43.471,16.736
20:00:12:76,11.606,2.849,-1.023,-2.674,-26.709,45.267,19.592
20:00:12:784,11.630,1.659,-0.013,-3.264,-26.074,45.382,18.070
20:00:12:811,11.658,2.359,-0.214,-1.235,-24.289,48.311,11.450
20:00:12:835,11.682,0.699,0.123,-0.339,-23.189,47.442,7.439
20:00:12:862,11.708,1.117,0.185,-0.392,-22.534,46.943,3.164
20:00:12:89,11.737,0.374,0.061,0.009,-22.776,47.897,1.128
20:00:12:941,11.788,0.210,0.143,0.085,-23.710,48.950,0.162
20:00:12:97,11.816,-0.112,0.141,0.086,-25.224,50.622,-1.031
20:00:12:97,11.817,-0.323,-0.058,0.083,-25.632,51.242,-1.642
20:00:12:993,11.839,-0.411,-0.114,0.202,-25.937,52.347,-3.211
20:00:13:021,11.867,-0.513,0.084,0.168,-26.627,53.797,-5.510
20:00:13:045,11.892,-0.503,0.011,0.208,-26.460,55.077,-7.583
20:00:13:074,11.920,0.037,0.295,0.056,-26.106,57.626,-11.370
20:00:13:099,11.945,0.260,0.159,0.390,-25.645,59.990,-14.539
20:00:13:182,12.029,0.225,0.190,0.645,-24.846,63.285,-19.690
20:00:13:183,12.030,-0.033,0.251,0.862,-24.400,65.116,-23.441
20:00:13:184,12.031,-0.062,0.162,1.331,-23.962,68.344,-30.233
20:00:13:232,12.078,-0.435,0.312,1.821,-23.394,73.056,-38.455
20:00:13:232,12.079,-1.166,0.683,1.807,-23.535,77.892,-45.688
20:00:13:284,12.131,-1.538,0.306,2.437,-27.773,83.373,-59.313
20:00:13:285,12.131,-1.004,-1.811,1.697,-27.373,83.828,-64.992
20:00:13:309,12.155,-0.235,-2.483,1.133,-15.914,86.780,-65.325
20:00:13:335,12.182,0.115,-1.655,0.909,-10.197,87.837,-61.310
20:00:13:389,12.236,0.224,-1.556,0.845,-9.139,88.746,-56.224
20:00:13:39,12.237,0.139,-0.939,1.075,-9.336,90.147,-46.281
20:00:13:415,12.262,0.281,-0.275,1.100,-10.389,90.365,-38.488
20:00:13:439,12.285,0.330,0.193,0.992,-11.517,89.203,-25.149
20:00:13:465,12.312,0.407,1.190,0.486,-12.003,87.660,-15.528
20:00:13:494,12.340,0.224,1.669,-0.746,-13.006,84.554,-0.574
20:00:13:52,12.366,-0.128,1.010,-3.619,-13.657,81.890,12.201
20:00:13:544,12.391,-0.018,-0.560,-4.089,-14.020,82.180,18.181
20:00:13:572,12.419,0.364,-1.364,-3.969,-15.536,83.570,21.891
20:00:13:63,12.477,1.366,-0.779,-2.722,-15.128,82.888,20.743
20:00:13:63,12.477,0.945,-0.385,-3.860,-14.309,79.869,13.354
20:00:13:631,12.477,-0.363,-0.195,0.246,-12.982,79.727,7.052
20:00:13:678,12.524,-0.077,0.578,-0.937,-12.998,78.921,4.189
20:00:13:679,12.525,0.126,0.199,0.024,-12.379,80.248,1.827
20:00:13:729,12.576,0.100,-0.051,-0.005,-12.259,81.943,0.506
20:00:13:758,12.604,-0.038,0.158,0.218,-12.594,82.874,-1.533
20:00:13:758,12.605,-0.484,0.051,-0.024,-12.628,82.821,-2.663
20:00:13:809,12.656,-0.196,0.093,0.400,-12.227,84.741,-4.940
20:00:13:81,12.657,-0.067,0.161,0.228,-11.441,87.088,-7.746
20:00:13:833,12.680,-0.164,0.063,0.226,-10.853,88.281,-9.933
20:00:13:859,12.706,-0.063,0.218,0.154,-9.559,90.017,-13.665
20:00:13:885,12.731,0.152,0.441,0.362,-8.535,91.402,-16.432
20:00:13:912,12.758,0.362,0.325,0.800,-6.683,93.868,-21.357
20:00:13:94,12.787,0.408,0.085,1.328,-4.832,95.507,-27.447
20:00:13:965,12.812,0.111,-0.022,1.819,-3.628,96.621,-32.599
20:00:13:991,12.837,-1.078,0.914,2.692,-1.892,99.999,-43.364
20:00:14:017,12.863,-1.469,0.394,3.028,0.938,101.205,-53.246
20:00:14:043,12.889,-0.554,-1.582,1.412,8.128,100.601,-61.806
20:00:14:071,12.917,-0.263,-1.916,1.284,10.847,100.162,-63.701
20:00:14:097,12.943,-0.247,-1.532,0.755,8.954,99.258,-62.067
20:00:14:122,12.969,-0.178,-1.326,0.575,4.280,98.973,-55.781
20:00:14:148,12.994,-0.081,-1.164,0.672,1.650,99.153,-49.390
20:00:14:174,13.021,-0.072,-0.602,0.731,-2.309,99.269,-38.407
20:00:14:2,13.047,0.032,-0.178,0.789,-4.386,99.053,-30.045
20:00:14:228,13.075,0.082,0.241,0.640,-6.950,97.697,-16.586
20:00:14:254,13.100,0.260,1.257,0.046,-9.855,94.891,-1.847
20:00:14:279,13.126,-0.124,1.760,-1.188,-11.786,92.302,7.556
20:00:14:306,13.152,-0.566,0.423,-3.608,-13.302,89.589,19.416
20:00:14:332,13.178,-0.308,-1.046,-4.000,-14.646,89.787,24.479
20:00:14:358,13.204,0.025,-1.646,-3.958,-15.923,89.797,26.016
20:00:14:384,13.231,2.956,3.570,2.200,-14.808,88.167,23.535
20:00:14:41,13.257,0.950,0.823,-4.017,-12.818,84.609,13.896
20:00:14:465,13.312,0.213,-0.742,-0.593,-12.176,84.230,7.238
20:00:14:466,13.313,-0.398,-0.132,-1.179,-12.263,83.675,4.333
20:00:14:491,13.337,0.070,0.188,0.379,-11.407,86.608,1.329
20:00:14:515,13.362,0.045,0.002,-0.063,-11.900,87.588,-1.030
20:00:14:541,13.388,-0.408,0.030,0.070,-12.289,87.695,-2.906
20:00:14:568,13.414,-0.277,0.075,0.221,-12.255,89.632,-4.874
20:00:14:594,13.440,-0.212,0.094,0.303,-11.738,91.073,-6.327
20:00:14:623,13.469,0.034,0.230,0.177,-11.054,92.559,-8.827
20:00:14:648,13.495,-0.091,0.281,0.157,-10.454,93.438,-10.863
20:00:14:674,13.521,-0.051,0.184,0.187,-9.334,95.016,-14.361
20:00:14:728,13.575,0.007,0.340,0.478,-8.516,96.226,-16.877
20:00:14:729,13.575,0.229,0.130,0.662,-7.062,98.571,-21.549
20:00:14:752,13.598,0.339,0.140,1.067,-5.354,100.758,-27.272
20:00:14:778,13.624,0.096,0.133,1.537,-4.081,102.164,-31.958
20:00:14:804,13.650,-0.436,1.229,2.357,-1.643,106.004,-41.175
20:00:14:83,13.677,-0.122,0.058,2.892,1.468,108.594,-49.983
20:00:14:857,13.704,-0.460,-1.457,1.242,7.811,108.084,-59.076
20:00:14:912,13.758,0.027,-1.510,1.181,7.793,106.889,-62.000
20:00:14:913,13.759,-0.204,-1.394,0.414,4.301,105.942,-61.459
20:00:14:935,13.782,-0.157,-1.295,0.394,0.098,106.324,-56.452
20:00:14:962,13.808,0.217,-1.187,0.570,-1.619,107.213,-50.788
20:00:14:99,13.837,0.422,-0.605,0.697,-4.882,108.429,-40.087
20:00:15:014,13.860,0.523,-0.228,0.681,-7.126,109.058,-32.177
20:00:15:099,13.945,0.530,0.059,0.525,-9.665,108.659,-19.213
20:00:15:1,13.946,0.511,0.927,-0.190,-12.481,107.632,-5.065
20:00:15:1,13.947,0.097,1.592,-1.326,-14.795,106.520,4.210
20:00:15:12,13.967,-1.115,0.318,-3.475,-17.556,104.914,16.279
20:00:15:202,14.048,-0.844,-1.200,-3.345,-21.150,108.701,23.613
20:00:15:202,14.049,2.728,1.718,2.203,-21.153,109.222,21.819
20:00:15:224,14.071,-0.203,1.483,-3.349,-18.928,106.466,17.618
20:00:15:279,14.126,0.089,-0.175,-0.225,-16.298,104.135,10.817
20:00:15:28,14.127,-0.160,0.055,-0.730,-15.678,101.874,8.318
20:00:15:333,14.180,0.131,0.112,-0.286,-15.417,103.205,5.971
20:00:15:333,14.180,0.006,-0.006,-0.047,-16.276,105.347,4.373
20:00:15:356,14.202,0.012,0.007,0.192,-16.983,106.221,3.702
20:00:15:412,14.258,-0.375,0.132,0.091,-18.033,106.337,3.103
20:00:15:412,14.258,-0.351,-0.100,0.623,-18.478,107.241,2.073
20:00:15:464,14.310,-0.104,0.007,0.454,-18.892,109.236,-0.056
20:00:15:464,14.311,-0.308,0.183,0.361,-19.083,110.656,-2.003
20:00:15:489,14.335,-0.124,0.198,0.126,-19.182,114.072,-5.908
20:00:15:514,14.360,0.663,0.291,-0.099,-19.283,118.947,-10.943
20:00:15:54,14.387,0.965,0.511,-0.157,-19.380,122.261,-14.668
20:00:15:566,14.413,1.165,0.499,1.084,-18.927,126.738,-21.533
20:00:15:592,14.438,0.965,1.059,2.178,-18.942,129.526,-27.572
20:00:15:62,14.467,1.443,1.589,2.542,-19.364,137.217,-40.551
20:00:15:646,14.492,-0.229,0.335,1.221,-19.320,141.647,-50.255
20:00:15:671,14.518,2.196,-2.677,2.686,-17.344,144.169,-49.872
20:00:15:697,14.544,0.850,-2.219,0.575,-15.342,147.027,-46.558
20:00:15:723,14.570,1.066,-1.276,0.206,-15.559,148.882,-41.466
20:00:15:749,14.595,1.391,-0.739,0.055,-17.419,151.672,-31.368
20:00:15:775,14.622,1.293,-0.164,-0.339,-18.447,152.277,-23.387
20:00:15:802,14.648,1.036,0.430,-0.532,-19.306,151.586,-9.825
20:00:15:828,14.674,-0.031,1.061,-1.068,-20.715,149.911,4.938
20:00:15:886,14.733,-0.794,1.139,-1.446,-22.240,149.059,14.429
20:00:15:887,14.733,-3.248,0.555,-2.028,-24.322,149.879,25.238
20:00:15:888,14.734,-3.580,-1.377,-1.613,-25.532,151.715,29.634
20:00:15:936,14.782,-3.710,-0.846,-1.350,-26.795,154.727,30.401
20:00:15:936,14.783,2.658,2.980,0.162,-25.211,157.049,24.576
20:00:15:989,14.836,-0.568,0.188,-0.431,-22.865,157.840,20.909
20:00:15:99,14.836,-1.483,-0.164,-0.448,-21.313,157.333,16.012
20:00:16:041,14.887,-0.423,0.143,-0.477,-20.578,157.490,14.539
20:00:16:041,14.888,-0.148,0.040,-0.287,-20.885,158.728,12.911
20:00:16:066,14.913,-0.178,0.098,-0.123,-21.715,159.748,11.972
20:00:16:092,14.939,0.097,0.143,0.193,-22.823,160.741,11.057
20:00:16:118,14.965,0.110,0.016,0.213,-23.175,161.813,9.507
20:00:16:144,14.991,0.184,0.096,0.272,-23.147,162.752,7.924
20:00:16:171,15.017,-0.023,0.149,0.372,-22.933,164.410,4.815
20:00:16:196,15.042,-0.078,0.157,0.085,-22.612,166.026,2.258
20:00:16:222,15.068,-0.177,0.306,-0.172,-21.806,169.039,-2.162
20:00:16:338,15.185,0.324,0.321,-0.405,-20.669,172.523,-7.193
20:00:16:338,15.185,0.490,0.441,-0.264,-19.797,174.426,-10.919
20:00:16:339,15.185,0.864,0.437,-0.230,-18.688,177.115,-17.783
20:00:16:339,15.185,1.707,0.545,0.282,-18.057,179.279,-23.348
20:00:16:379,15.226,2.661,1.682,0.823,-17.865,-172.608,-41.213
20:00:16:406,15.252,0.509,-0.308,0.950,-18.580,-169.524,-53.008
20:00:16:432,15.278,3.179,-1.552,0.330,-14.065,-167.941,-55.078
20:00:16:458,15.304,0.760,-1.797,-0.064,-12.765,-165.692,-53.611
20:00:16:513,15.359,0.814,-1.346,-0.360,-13.569,-163.999,-48.110
20:00:16:514,15.360,0.708,-1.071,-0.468,-14.118,-162.855,-42.100
20:00:16:538,15.385,1.041,-0.395,-0.850,-15.940,-161.444,-31.004
20:00:16:563,15.410,0.691,0.055,-0.955,-17.578,-161.868,-17.933
20:00:16:589,15.436,0.317,0.570,-0.978,-18.797,-163.680,-8.193
20:00:16:615,15.462,-1.085,1.546,-0.694,-20.894,-168.072,8.015
20:00:16:672,15.519,-2.513,1.712,0.254,-22.451,-170.939,18.095
20:00:16:673,15.519,-4.144,-0.757,1.180,-23.397,-172.525,30.114
20:00:16:694,15.541,-4.111,-1.653,0.999,-24.709,-171.264,34.547
20:00:16:72,15.567,-3.677,-1.955,1.444,-25.027,-169.734,34.802
20:00:16:749,15.595,1.727,3.052,-1.992,-23.433,-169.888,29.754
20:00:16:773,15.620,-2.610,1.088,0.244,-21.554,-170.040,24.547
20:00:16:799,15.646,-2.263,-0.769,0.780,-20.215,-169.855,18.012
20:00:16:855,15.702,-0.417,0.066,-0.180,-20.102,-170.082,15.630
20:00:16:855,15.702,-0.302,0.091,-0.139,-19.848,-168.441,13.062
20:00:16:878,15.724,-0.308,-0.236,0.030,-20.405,-166.963,10.434
20:00:16:904,15.751,0.133,0.213,0.065,-20.798,-166.598,9.577
20:00:16:931,15.777,0.084,0.009,0.243,-21.032,-166.074,8.094
20:00:16:957,15.803,0.215,0.056,0.118,-21.044,-164.762,6.603
20:00:16:983,15.830,0.034,0.055,0.143,-20.887,-163.069,4.271
20:00:17:009,15.856,-0.006,0.147,0.091,-20.711,-162.073,2.444
20:00:17:038,15.885,0.034,0.111,-0.013,-20.359,-160.142,-0.942
20:00:17:063,15.910,-0.043,0.135,-0.225,-19.839,-157.841,-5.345
20:00:17:09,15.936,-0.004,0.330,-0.336,-19.480,-156.303,-8.655
20:00:17:115,15.961,0.229,0.421,-0.314,-18.932,-153.901,-14.167
20:00:17:14,15.987,0.649,0.441,-0.328,-18.518,-152.079,-18.448
20:00:17:167,16.013,1.441,0.563,-0.277,-17.840,-148.546,-26.151
20:00:17:222,16.068,2.245,1.165,-0.772,-17.611,-143.484,-36.093
20:00:17:223,16.069,2.905,1.461,-1.422,-17.333,-139.800,-44.247
20:00:17:304,16.151,2.421,-2.490,-1.550,-15.516,-137.740,-52.988
20:00:17:305,16.152,0.822,-1.532,-0.263,-20.806,-136.509,-55.545
20:00:17:305,16.152,0.604,-1.172,-0.592,-29.835,-136.806,-54.362
20:00:17:324,16.170,0.016,-1.124,-0.978,-30.317,-136.359,-49.124
20:00:17:351,16.197,0.068,-0.820,-1.437,-28.314,-134.762,-38.824
20:00:17:377,16.223,-0.454,-0.249,-1.601,-26.380,-133.071,-26.877
20:00:17:403,16.249,-0.555,-0.156,-1.674,-25.191,-131.905,-18.403
20:00:17:429,16.276,-1.025,0.751,-1.164,-24.421,-130.762,-4.633
20:00:17:455,16.302,-1.470,1.066,-0.238,-24.542,-130.729,4.568
20:00:17:483,16.329,-2.685,1.075,2.202,-24.998,-129.626,16.489
20:00:17:508,16.355,-2.202,-0.916,3.583,-26.009,-124.264,23.146
20:00:17:534,16.381,-2.034,-1.321,3.349,-26.875,-120.468,23.434
20:00:17:589,16.436,-0.361,0.500,2.583,-25.995,-119.267,19.702
20:00:17:645,16.491,-1.413,-0.177,1.437,-24.511,-118.324,15.472
20:00:17:645,16.492,-0.436,-0.580,0.362,-22.061,-119.746,10.313
20:00:17:646,16.493,-0.322,-0.064,0.172,-21.721,-119.280,7.528
20:00:17:665,16.512,-0.395,0.088,0.005,-22.167,-117.267,5.383
20:00:17:691,16.538,-0.102,0.145,0.195,-23.742,-115.892,4.086
20:00:17:718,16.565,0.215,0.109,-0.080,-24.486,-114.859,3.278
20:00:17:744,16.591,0.109,0.003,-0.138,-24.850,-113.439,1.845
20:00:17:771,16.618,0.160,0.062,-0.191,-24.853,-112.485,0.589
20:00:17:826,16.672,0.318,0.107,-0.187,-24.476,-111.059,-1.800
20:00:17:827,16.673,0.260,0.150,-0.170,-23.915,-108.818,-5.171
20:00:17:938,16.784,-0.080,0.226,0.008,-23.156,-107.024,-7.768
20:00:17:938,16.784,-0.221,0.218,-0.448,-21.779,-103.805,-12.378
20:00:17:938,16.785,-0.206,0.288,-0.632,-20.703,-101.977,-15.754
20:00:17:939,16.786,-0.123,0.347,-0.900,-19.293,-99.875,-21.635
20:00:17:954,16.801,-0.081,0.307,-1.317,-18.524,-98.441,-26.244
20:00:18:011,16.858,0.463,0.082,-1.835,-17.266,-95.217,-34.448
20:00:18:011,16.858,0.526,1.375,-2.645,-18.118,-89.731,-46.775
20:00:18:033,16.879,1.625,1.082,-2.308,-18.751,-87.396,-56.164
20:00:18:059,16.906,0.593,-1.888,-1.234,-13.621,-86.555,-62.387
20:00:18:118,16.964,0.299,-1.958,-1.114,-10.005,-85.527,-61.852
20:00:18:118,16.965,0.138,-1.390,-1.001,-9.051,-85.582,-57.170
20:00:18:119,16.966,-0.039,-1.168,-0.768,-10.162,-84.706,-48.090
20:00:18:138,16.985,-0.150,-0.782,-0.882,-11.500,-84.101,-40.662
20:00:18:167,17.013,-0.328,-0.230,-0.969,-13.520,-84.204,-28.163
20:00:18:22,17.067,-0.454,0.289,-0.847,-14.735,-85.484,-19.000
20:00:18:221,17.067,-0.596,1.015,-0.186,-16.495,-89.340,-4.167
20:00:18:243,17.089,-0.127,1.882,1.239,-17.710,-92.537,6.025
20:00:18:299,17.145,0.516,1.044,3.404,-18.532,-96.598,19.314
20:00:18:299,17.146,-0.248,-0.915,3.802,-20.289,-97.343,27.900
20:00:18:322,17.168,-0.144,-1.566,4.121,-20.926,-98.038,29.843
20:00:18:348,17.194,-0.197,0.194,2.542,-20.107,-100.634,28.268
20:00:18:374,17.221,-0.463,0.683,1.710,-18.087,-102.764,24.104
20:00:18:401,17.248,0.100,0.895,0.707,-16.985,-105.507,16.895
20:00:18:427,17.273,-0.627,-0.392,1.843,-16.834,-105.993,11.329
20:00:18:453,17.300,-0.118,0.114,0.587,-16.961,-105.662,9.258
20:00:18:481,17.327,-0.196,0.105,-0.232,-16.696,-102.484,6.185
20:00:18:507,17.353,-0.481,0.126,0.077,-16.929,-101.403,4.375
20:00:18:532,17.379,0.445,0.039,0.077,-17.010,-101.434,2.482
20:00:18:558,17.405,0.146,0.125,-0.234,-17.023,-100.144,0.726
20:00:18:585,17.432,0.141,0.133,-0.250,-16.557,-97.691,-2.133
20:00:18:639,17.486,-0.087,0.101,-0.096,-15.840,-95.614,-5.628
20:00:18:641,17.487,-0.101,0.121,-0.167,-15.123,-94.150,-8.360
20:00:18:664,17.511,-0.170,0.313,-0.293,-13.884,-91.994,-12.801
20:00:18:689,17.536,-0.315,0.223,-0.743,-12.992,-90.456,-16.251
20:00:18:716,17.562,-0.404,0.165,-1.105,-11.885,-88.420,-21.993
20:00:18:742,17.588,-0.170,-0.036,-1.744,-11.137,-86.972,-29.272
20:00:18:77,17.617,0.481,0.262,-2.217,-11.282,-85.348,-35.571
20:00:18:796,17.642,0.696,1.387,-1.967,-11.284,-81.767,-48.471
20:00:18:821,17.668,0.851,-1.035,-1.177,-10.764,-79.980,-56.791
20:00:18:847,17.694,0.696,-1.533,-2.605,-4.362,-79.863,-61.782
20:00:18:873,17.720,0.228,-1.638,-0.634,-2.171,-80.117,-61.234
20:00:18:899,17.746,0.114,-1.401,-0.711,-5.189,-80.906,-56.879
20:00:18:926,17.772,-0.250,-1.046,-0.921,-7.988,-80.450,-47.911
20:00:18:953,17.800,-0.221,-0.890,-0.749,-9.392,-80.176,-40.407
20:00:18:978,17.825,-0.405,0.061,-1.063,-12.022,-80.483,-27.185
20:00:19:034,17.880,-0.422,0.479,-0.556,-13.217,-81.597,-17.559
20:00:19:034,17.881,-0.562,1.356,0.015,-15.228,-83.287,-1.567
20:00:19:057,17.903,0.432,2.282,2.246,-16.980,-84.704,8.548
20:00:19:083,17.930,0.891,0.241,3.895,-19.290,-85.654,20.368
20:00:19:109,17.956,0.484,-1.206,4.166,-21.830,-85.103,25.201
20:00:19:164,18.011,0.404,-0.396,3.161,-21.851,-86.193,24.826
20:00:19:165,18.012,-3.334,-0.592,-2.020,-21.040,-88.303,19.812
20:00:19:188,18.034,-0.431,2.245,3.033,-19.566,-92.441,16.190
20:00:19:217,18.063,-0.395,-0.988,1.341,-18.843,-93.208,7.100
20:00:19:242,18.089,0.479,0.251,1.322,-18.194,-93.872,3.064
20:00:19:27,18.116,-0.360,-0.445,-0.186,-17.913,-90.873,-0.047
20:00:19:293,18.140,-0.363,-0.157,-0.053,-18.713,-88.742,-3.317
20:00:19:32,18.167,-0.068,0.281,-0.094,-19.446,-88.970,-4.443
20:00:19:404,18.250,0.458,0.248,0.017,-20.255,-87.470,-6.660
20:00:19:405,18.251,-0.081,0.057,-0.322,-20.008,-85.124,-9.077
20:00:19:405,18.252,-0.201,0.147,-0.379,-19.891,-84.283,-10.669
20:00:19:454,18.300,0.132,0.089,-0.308,-19.415,-83.253,-13.592
20:00:19:454,18.301,0.083,0.192,-0.302,-19.065,-82.124,-15.965
20:00:19:508,18.354,-0.246,0.245,-0.340,-18.268,-79.882,-20.210
20:00:19:508,18.354,-0.420,0.218,-0.709,-17.608,-78.314,-23.582
20:00:19:529,18.376,-0.387,0.148,-0.972,-16.739,-76.139,-29.749
20:00:19:585,18.431,-0.168,0.120,-1.658,-16.252,-73.537,-37.605
20:00:19:586,18.432,0.075,-0.001,-2.375,-15.851,-70.654,-43.961
20:00:19:608,18.455,-0.526,1.147,-3.115,-15.713,-64.978,-55.920
20:00:19:663,18.510,-0.162,-2.370,-1.624,-14.561,-63.381,-62.673
20:00:19:664,18.511,-0.523,-1.873,-2.038,-10.559,-62.269,-63.728
20:00:19:688,18.534,0.033,-1.577,-0.620,-14.507,-61.640,-61.442
20:00:19:713,18.559,-0.436,-1.325,-0.712,-15.978,-60.248,-56.818
20:00:19:74,18.587,-0.728,-1.047,-0.599,-16.643,-57.936,-46.739
20:00:19:766,18.613,-1.286,-0.510,-0.490,-17.387,-56.390,-39.000
20:00:19:792,18.639,-1.411,-0.057,-0.300,-17.955,-55.257,-26.542
20:00:19:847,18.693,-1.164,0.297,0.086,-18.542,-55.525,-17.462
20:00:19:848,18.694,-0.714,1.165,0.756,-19.497,-56.119,-2.985
20:00:19:871,18.717,1.259,1.593,2.018,-20.489,-56.652,9.864
20:00:19:897,18.743,1.802,-0.028,2.855,-21.243,-55.743,16.358
20:00:19:952,18.799,1.928,-0.960,3.069,-22.941,-53.247,20.552
20:00:19:953,18.799,1.511,-0.897,2.148,-22.654,-52.810,19.999
20:00:19:976,18.823,-2.278,2.856,-2.091,-21.538,-52.914,15.516
20:00:20:003,18.849,0.019,0.443,0.714,-19.220,-52.368,8.986
20:00:20:029,18.876,0.586,-0.157,1.156,-18.279,-53.044,5.213
20:00:20:056,18.903,0.033,0.128,0.335,-17.799,-52.735,1.856
20:00:20:141,18.987,-0.218,0.131,0.017,-17.907,-51.483,0.269
20:00:20:141,18.987,0.024,0.030,0.001,-18.921,-49.808,-1.768
20:00:20:141,18.988,0.107,0.075,-0.222,-19.624,-49.148,-2.593
20:00:20:188,19.035,0.102,0.016,-0.345,-20.179,-47.954,-4.100
20:00:20:189,19.036,-0.005,-0.012,-0.329,-20.152,-45.760,-6.286
20:00:20:212,19.059,0.058,-0.090,-0.331,-19.897,-44.373,-7.973
20:00:20:238,19.085,-0.035,0.107,-0.316,-19.256,-42.193,-10.909
20:00:20:264,19.111,-0.072,0.163,-0.245,-18.730,-40.542,-13.183
20:00:20:319,19.166,-0.334,0.092,-0.087,-17.749,-37.567,-17.272
20:00:20:32,19.167,-0.539,0.284,-0.098,-16.788,-34.690,-21.777
20:00:20:346,19.192,-0.622,0.294,-0.121,-16.145,-32.969,-25.182
20:00:20:347,19.193,-0.964,0.257,-0.611,-15.034,-29.988,-31.398
20:00:20:398,19.245,-1.183,0.353,-1.387,-14.222,-27.353,-36.480
20:00:20:399,19.246,-1.736,0.982,-1.588,-12.034,-21.176,-46.006
20:00:20:422,19.269,-2.000,-0.171,-1.731,-10.254,-16.397,-54.515
20:00:20:478,19.324,0.426,-1.540,-0.512,-3.275,-13.779,-63.042
20:00:20:478,19.324,-0.947,-1.865,-0.212,3.484,-11.870,-64.011
20:00:20:503,19.349,-0.694,-1.514,-0.024,2.138,-11.101,-62.252
20:00:20:528,19.375,-0.881,-1.427,-0.017,-1.980,-8.886,-56.140
20:00:20:554,19.400,-1.052,-1.221,0.305,-4.007,-7.202,-49.903
20:00:20:61,19.456,-1.517,-0.531,0.562,-6.914,-4.873,-38.560
20:00:20:61,19.456,-1.263,0.224,0.638,-9.313,-3.868,-25.928
20:00:20:661,19.507,-0.772,0.733,0.648,-10.661,-4.465,-16.424
20:00:20:662,19.508,0.530,1.823,0.605,-12.644,-6.265,-0.985
20:00:20:743,19.589,3.020,1.750,0.110,-13.937,-7.747,8.299
20:00:20:743,19.590,3.949,-0.335,0.780,-14.333,-8.086,17.128
20:00:20:744,19.591,3.513,-1.114,0.737,-14.619,-7.693,18.429
20:00:20:764,19.610,1.272,1.110,0.158,-14.044,-8.685,13.169
20:00:20:79,19.636,1.833,-0.106,-0.263,-12.880,-7.808,5.517
20:00:20:816,19.662,0.624,0.525,0.694,-11.919,-7.763,2.887
20:00:20:871,19.718,0.292,-0.214,0.161,-10.435,-7.208,-1.186
20:00:20:872,19.719,0.052,-0.015,0.370,-10.132,-6.442,-3.137
20:00:20:924,19.770,0.195,0.078,-0.120,-10.064,-6.126,-4.791
20:00:20:924,19.771,-0.065,-0.080,-0.229,-10.200,-5.140,-5.664
20:00:20:947,19.794,-0.220,0.165,-0.304,-10.151,-4.337,-5.855
20:00:20:973,19.820,-0.160,-0.092,-0.152,-9.566,-3.153,-6.658
20:00:21:001,19.847,-0.098,-0.070,-0.143,-9.126,-2.348,-7.209
20:00:21:056,19.903,-0.114,-0.027,-0.205,-8.609,-1.126,-8.038
20:00:21:056,19.903,-0.257,-0.055,-0.222,-8.197,-0.211,-8.775
20:00:21:107,19.954,-0.221,-0.052,-0.233,-7.412,1.285,-10.268
20:00:21:108,19.954,-0.162,0.055,-0.142,-6.448,2.826,-12.236
20:00:21:16,20.006,-0.197,0.092,-0.014,-5.666,3.914,-13.826
20:00:21:16,20.007,-0.454,0.235,0.161,-4.317,5.369,-16.650
20:00:21:183,20.030,-0.525,0.338,0.109,-3.367,5.908,-19.036
20:00:21:209,20.056,-0.739,0.344,-0.113,-1.842,6.509,-23.642
20:00:21:236,20.082,-1.584,0.631,-0.645,-0.120,7.646,-29.614
20:00:21:293,20.139,-2.410,0.380,-1.279,1.240,9.356,-34.804
20:00:21:293,20.139,-1.880,0.343,-0.580,5.837,12.115,-44.816
20:00:21:314,20.161,-0.914,-0.160,-0.527,10.539,13.517,-50.957
20:00:21:341,20.187,-2.142,-1.662,0.401,15.645,15.811,-53.593
20:00:21:369,20.215,-0.764,-1.475,0.136,15.875,17.071,-52.963
20:00:21:42,20.267,-0.687,-1.486,-0.116,11.167,18.629,-49.701
20:00:21:578,20.425,-0.807,-0.947,0.251,5.090,20.373,-42.834
20:00:21:614,20.460,-0.829,-0.667,0.368,1.486,21.509,-37.156
20:00:21:614,20.461,-0.699,-0.263,0.628,-2.832,22.574,-27.795
20:00:21:614,20.461,-0.636,0.211,0.578,-5.206,22.488,-20.798
20:00:21:615,20.461,-0.221,0.760,0.274,-8.368,20.987,-9.172
20:00:21:638,20.484,0.637,1.133,-0.018,-11.121,19.406,2.846
20:00:21:638,20.485,1.977,1.333,-0.468,-12.964,19.229,9.867
20:00:21:639,20.486,3.544,-0.353,-0.526,-15.342,20.275,18.131
20:00:21:64,20.486,3.248,-0.428,-0.858,-16.353,21.184,20.348
20:00:21:656,20.503,2.564,0.435,0.385,-16.009,20.348,18.197
20:00:21:711,20.557,2.010,-0.109,-0.010,-14.743,19.015,14.119
20:00:21:712,20.558,0.751,0.207,-0.261,-12.726,17.811,9.308
20:00:21:734,20.581,0.829,0.018,-0.371,-11.850,16.109,6.125
20:00:21:79,20.636,0.210,0.015,0.030,-11.310,16.788,4.570
20:00:21:79,20.637,0.084,0.085,0.116,-11.388,18.585,2.704
20:00:21:901,20.747,-0.048,0.071,-0.165,-11.972,19.012,1.804
20:00:21:901,20.748,-0.056,0.066,-0.403,-13.043,19.142,1.034
20:00:21:902,20.749,-0.241,-0.073,-0.111,-13.406,20.495,-0.001
20:00:21:903,20.749,-0.294,-0.053,-0.017,-13.450,21.102,-0.663
20:00:21:948,20.794,-0.266,-0.059,-0.276,-13.388,21.540,-1.878
20:00:21:949,20.795,-0.362,-0.003,-0.218,-13.441,22.139,-2.962
20:00:22:054,20.900,-0.176,0.031,-0.131,-13.048,23.468,-5.133
20:00:22:054,20.901,-0.071,0.157,-0.104,-12.660,24.507,-6.875
20:00:22:084,20.930,-0.190,0.176,0.040,-11.994,26.555,-9.900
20:00:22:084,20.931,-0.255,0.288,0.128,-11.105,28.896,-13.447
20:00:22:084,20.931,-0.476,0.406,0.169,-10.401,30.393,-16.178
20:00:22:13,20.976,-0.667,0.397,0.306,-9.152,32.779,-21.182
20:00:22:157,21.003,-0.874,0.389,0.431,-8.088,34.681,-25.315
20:00:22:158,21.004,-2.059,0.668,0.231,-6.136,38.733,-33.221
20:00:22:296,21.142,-2.060,1.435,0.738,-3.958,42.869,-39.940
20:00:22:296,21.142,-1.350,-0.627,0.907,-0.059,47.530,-51.523
20:00:22:296,21.143,-1.273,-1.333,0.768,5.578,50.250,-56.138
20:00:22:297,21.144,-0.567,-1.618,0.652,4.674,52.072,-56.415
20:00:22:374,21.220,-0.473,-1.348,0.646,-0.446,54.714,-53.330
20:00:22:375,21.221,0.117,-0.773,0.955,-3.725,56.495,-49.013
20:00:22:376,21.222,0.124,-0.651,1.246,-7.426,58.977,-40.321
20:00:22:392,21.238,0.237,0.175,1.128,-11.048,60.629,-22.960
20:00:22:447,21.294,0.221,0.463,0.724,-11.661,59.616,-10.807
20:00:22:447,21.294,0.242,0.749,0.404,-11.640,58.680,-2.428
20:00:22:498,21.345,0.608,1.093,-0.913,-11.957,57.599,9.659
20:00:22:5,21.346,1.321,0.702,-2.630,-12.917,58.852,19.400
20:00:22:575,21.422,1.430,-0.584,-3.226,-13.372,60.997,23.235
20:00:22:611,21.457,1.471,-0.676,-2.867,-13.923,63.491,24.245
20:00:22:611,21.458,1.544,-0.189,-1.650,-13.008,63.141,21.652
20:00:22:611,21.458,2.572,0.622,-2.621,-11.062,61.718,16.305
20:00:22:612,21.458,0.356,-0.349,-0.574,-10.370,61.939,12.652
20:00:22:657,21.503,0.394,0.145,-1.191,-9.846,62.227,8.739
20:00:22:658,21.504,0.059,0.048,-0.058,-9.686,64.121,6.631
20:00:22:71,21.556,0.082,0.069,-0.095,-9.950,65.034,5.672
20:00:22:71,21.557,-0.224,0.082,-0.048,-10.721,65.806,4.534
20:00:22:793,21.639,-0.318,-0.054,-0.122,-10.920,66.159,3.850
20:00:22:793,21.639,-0.305,-0.053,0.061,-10.960,67.655,2.370
20:00:22:814,21.661,-0.344,-0.058,0.112,-10.712,68.967,0.764
20:00:22:815,21.662,-0.403,-0.135,-0.053,-10.374,69.803,-0.520
20:00:22:894,21.740,-0.274,-0.021,-0.066,-9.758,71.522,-2.754
20:00:22:894,21.741,-0.188,0.054,-0.043,-9.204,72.980,-4.482
20:00:22:949,21.796,-0.039,0.190,0.022,-8.110,75.235,-7.439
20:00:22:949,21.796,0.018,0.246,0.105,-7.338,76.681,-9.552
20:00:22:95,21.796,-0.001,0.379,0.347,-6.105,78.654,-13.025
20:00:23:029,21.875,-0.092,0.447,0.520,-4.725,82.452,-17.288
20:00:23:029,21.875,-0.150,0.407,0.961,-3.752,83.805,-20.903
20:00:23:029,21.875,-0.650,0.254,1.530,-1.938,86.275,-27.370
20:00:23:077,21.923,-1.359,0.328,1.563,-0.406,88.553,-32.759
20:00:23:077,21.924,-0.567,1.181,1.646,1.961,93.563,-44.493
20:00:23:099,21.946,-0.625,-0.774,0.732,7.682,95.836,-54.437
20:00:23:125,21.972,-0.115,-1.198,1.400,12.097,96.238,-56.583
20:00:23:181,22.028,0.009,-1.567,0.808,14.332,96.722,-55.500
20:00:23:182,22.029,-0.053,-1.342,0.539,13.178,96.754,-52.796
20:00:23:232,22.078,0.061,-1.206,0.653,9.952,97.552,-46.288
20:00:23:261,22.108,0.144,-0.900,0.722,6.994,98.070,-40.308
20:00:23:261,22.108,0.205,-0.498,0.865,2.497,98.574,-29.956
20:00:23:283,22.129,0.313,0.210,0.909,-1.078,97.805,-18.277
20:00:23:31,22.156,0.313,0.773,0.371,-2.800,96.095,-9.896
20:00:23:338,22.184,0.132,1.432,-0.470,-4.672,92.607,3.286
20:00:23:393,22.239,-0.964,1.424,-2.274,-5.336,90.048,11.611
20:00:23:393,22.239,-0.369,-0.450,-3.452,-5.717,88.086,21.733
20:00:23:415,22.262,0.130,-0.961,-3.479,-7.475,88.496,27.135
20:00:23:441,22.287,0.118,-1.455,-3.258,-7.118,87.252,27.304
20:00:23:467,22.313,0.535,2.088,1.247,-5.778,82.850,21.324
20:00:23:493,22.340,0.270,-0.093,-2.280,-4.987,80.922,17.321
20:00:23:519,22.366,0.557,0.041,-1.017,-5.002,80.331,13.136
20:00:23:549,22.395,-0.158,-0.141,-0.741,-4.927,80.135,11.382
20:00:23:573,22.420,-0.052,0.044,0.134,-4.647,82.043,9.661
20:00:23:599,22.446,0.001,-0.022,-0.020,-4.933,83.248,8.115
20:00:23:653,22.500,-0.222,0.090,0.044,-5.083,83.365,7.088
20:00:23:654,22.501,-0.385,-0.068,-0.020,-5.000,84.244,5.479
20:00:23:677,22.523,-0.280,-0.011,0.199,-4.838,85.413,4.251
20:00:23:704,22.550,-0.202,0.040,0.032,-4.408,86.726,2.141
20:00:23:759,22.606,-0.257,0.043,-0.065,-3.783,88.090,-0.472
20:00:23:76,22.607,-0.104,0.181,-0.088,-3.217,89.337,-2.388
20:00:23:782,22.629,0.072,0.241,0.134,-2.074,91.476,-5.412
20:00:23:81,22.657,0.098,0.396,0.360,-1.244,92.831,-7.665
20:00:23:834,22.681,0.005,0.485,0.603,0.155,94.370,-11.805
20:00:23:862,22.708,-0.007,0.604,1.011,1.194,95.343,-15.459
20:00:23:916,22.763,-0.648,0.475,1.856,3.134,97.224,-22.254
20:00:23:917,22.763,-1.212,1.398,2.639,5.353,100.616,-31.716
20:00:23:939,22.786,-0.549,0.420,1.524,8.653,102.309,-40.215
20:00:23:966,22.812,-0.629,-1.410,0.683,13.365,102.332,-48.471
20:00:23:994,22.840,-0.148,-1.542,1.661,15.181,103.053,-48.887
20:00:24:019,22.865,0.031,-1.330,0.820,14.161,102.754,-46.468
20:00:24:074,22.920,0.113,-1.208,0.742,11.978,102.951,-42.674
20:00:24:074,22.921,0.133,-0.928,0.746,8.125,103.814,-34.005
20:00:24:1,22.946,0.156,-0.293,0.825,4.129,104.494,-23.803
20:00:24:125,22.971,0.159,0.024,0.788,1.752,104.375,-16.361
20:00:24:15,22.996,0.071,0.772,0.340,-1.653,102.289,-3.591
20:00:24:205,23.051,-0.265,1.533,-0.886,-3.878,100.149,5.268
20:00:24:205,23.052,-1.027,1.397,-2.502,-6.596,96.429,17.132
20:00:24:23,23.077,-0.315,-0.915,-3.529,-7.253,94.607,22.924
20:00:24:255,23.102,0.028,-1.126,-3.913,-8.497,92.814,26.721
20:00:24:282,23.128,0.808,-1.010,-2.826,-7.425,89.550,23.918
20:00:24:338,23.184,0.454,-0.534,-2.796,-7.204,86.774,18.252
20:00:24:338,23.184,-0.713,0.291,-0.347,-6.720,85.736,11.662
20:00:24:388,23.235,-0.513,-0.032,-1.390,-6.725,84.840,9.038
20:00:24:389,23.236,0.015,-0.071,-0.420,-5.981,85.665,6.646
20:00:24:413,23.260,0.124,0.445,-0.110,-6.088,87.693,4.823
20:00:24:439,23.285,0.178,0.009,0.083,-6.211,88.035,3.526
20:00:24:496,23.343,-0.538,-0.141,-0.031,-6.346,88.525,1.980
20:00:24:496,23.343,-0.239,-0.002,0.146,-6.204,90.030,0.899
20:00:24:517,23.364,-0.158,0.018,0.199,-5.709,91.938,-0.897
20:00:24:574,23.421,-0.275,-0.169,0.028,-4.931,93.402,-3.108
20:00:24:574,23.421,-0.345,-0.143,0.153,-4.412,94.375,-4.728
20:00:24:628,23.475,-0.168,0.140,0.090,-3.589,95.970,-7.278
20:00:24:629,23.475,0.029,0.218,0.093,-2.892,97.210,-9.232
20:00:24:63,23.476,0.154,0.204,0.175,-1.648,99.564,-12.475
20:00:24:677,23.524,0.155,0.333,0.505,-0.753,100.623,-14.926
20:00:24:704,23.550,0.094,0.403,0.734,0.680,102.029,-19.447
20:00:24:704,23.551,-0.148,0.298,1.190,2.529,103.446,-25.225
20:00:24:756,23.603,-0.546,0.090,1.656,3.956,104.957,-29.788
20:00:24:757,23.603,-1.101,1.471,2.293,7.055,108.809,-39.964
20:00:24:806,23.652,-0.696,0.102,2.140,11.570,110.399,-48.009
20:00:24:834,23.681,0.324,-0.961,1.634,19.028,111.401,-54.113
20:00:24:835,23.682,0.111,-1.523,1.128,21.033,111.599,-55.580
20:00:24:887,23.734,-0.085,-1.496,0.469,18.729,111.230,-54.726
20:00:24:888,23.735,-0.017,-1.400,0.560,13.113,111.654,-50.096
20:00:24:912,23.759,0.244,-1.018,0.608,9.413,112.328,-44.977
20:00:24:997,23.844,0.411,-0.737,0.694,3.789,113.385,-35.161
20:00:24:998,23.844,0.525,-0.266,0.697,0.347,113.590,-27.866
20:00:24:998,23.844,0.578,0.307,0.614,-3.852,112.299,-16.023
20:00:25:045,23.891,0.220,1.087,-0.085,-7.174,108.925,-2.643
20:00:25:046,23.892,-0.025,1.524,-0.772,-9.083,106.512,6.734
20:00:25:07,23.916,-1.217,1.378,-2.720,-11.187,104.070,19.058
20:00:25:125,23.972,-0.688,-0.881,-3.391,-11.916,104.448,25.167
20:00:25:125,23.972,-0.730,-1.391,-3.168,-15.323,107.435,29.133
20:00:25:174,24.021,0.367,-0.310,-2.680,-15.780,109.211,26.501
20:00:25:232,24.078,0.787,2.341,0.889,-14.780,109.191,22.616
20:00:25:233,24.079,-0.527,0.169,-0.359,-12.416,108.441,16.816
20:00:25:233,24.080,-0.146,0.064,-1.006,-11.570,106.574,14.026
20:00:25:254,24.101,-0.266,-0.097,-0.633,-10.464,105.167,11.531
20:00:25:337,24.184,0.062,0.099,-0.066,-10.419,106.516,10.282
20:00:25:338,24.184,0.015,-0.003,-0.102,-11.328,108.562,8.578
20:00:25:338,24.185,-0.403,0.033,0.207,-12.443,108.905,7.599
20:00:25:357,24.204,-0.535,0.074,0.054,-13.037,109.405,6.829
20:00:25:414,24.260,-0.080,-0.020,0.268,-13.259,111.668,5.124
20:00:25:414,24.261,-0.282,-0.041,0.093,-13.248,112.608,3.978
20:00:25:466,24.313,-0.278,-0.059,0.228,-12.890,114.034,1.826
20:00:25:466,24.313,-0.296,0.137,0.106,-12.561,116.067,-0.822
20:00:25:488,24.335,-0.164,0.073,0.028,-12.224,117.733,-2.890
20:00:25:514,24.361,0.118,0.126,-0.046,-11.730,120.751,-6.247
20:00:25:541,24.387,0.257,0.200,0.062,-11.414,122.688,-8.608
20:00:25:597,24.444,0.301,0.341,0.136,-10.940,124.920,-12.446
20:00:25:597,24.444,0.298,0.370,0.276,-10.622,126.207,-15.434
20:00:25:62,24.466,0.270,0.373,0.680,-9.918,128.481,-20.891
20:00:25:647,24.493,0.385,0.521,1.644,-8.971,132.258,-27.929
20:00:25:672,24.519,0.803,0.635,2.013,-8.118,136.083,-33.682
20:00:25:73,24.577,0.652,0.489,1.240,-7.100,141.041,-43.611
20:00:25:73,24.577,0.967,-1.206,1.389,-5.500,143.134,-49.217
20:00:25:781,24.627,1.005,-1.335,0.877,-0.439,147.397,-50.205
20:00:25:781,24.627,0.873,-1.373,0.235,1.481,151.114,-47.640
20:00:25:833,24.679,0.926,-1.151,0.160,0.297,153.286,-44.098
20:00:25:834,24.680,1.005,-0.787,-0.003,-3.173,155.926,-36.752
20:00:25:885,24.732,1.155,-0.421,-0.212,-5.534,157.462,-30.402
20:00:25:886,24.733,1.151,0.057,-0.302,-8.535,158.727,-19.415
20:00:25:908,24.755,0.713,0.608,-0.464,-10.232,158.523,-11.250
20:00:25:965,24.812,0.203,0.871,-0.677,-12.315,157.286,1.979
20:00:25:966,24.812,-1.407,1.237,-0.852,-14.207,156.387,14.313
20:00:26:016,24.863,-2.635,1.118,-0.652,-14.997,156.935,20.807
20:00:26:017,24.864,-3.301,-0.750,-1.399,-16.495,159.109,25.556
20:00:26:039,24.886,-2.923,-1.157,-1.282,-16.679,159.382,24.823
20:00:26:066,24.912,1.768,1.661,-0.506,-15.244,158.464,18.716
20:00:26:092,24.938,-1.158,-0.210,-0.542,-13.027,157.111,15.675
20:00:26:148,24.994,-0.809,-0.160,-0.209,-12.789,156.885,13.701
20:00:26:148,24.995,-0.349,0.000,-0.203,-12.357,158.090,11.981
20:00:26:201,25.047,-0.078,0.149,-0.123,-12.679,159.071,11.218
20:00:26:201,25.048,-0.177,0.037,0.061,-13.435,159.754,10.230
20:00:26:223,25.070,-0.136,0.029,0.303,-13.811,160.036,9.685
20:00:26:279,25.126,-0.112,-0.037,0.184,-14.004,161.167,8.625
20:00:26:28,25.126,0.098,-0.057,0.158,-13.932,162.278,7.459
20:00:26:303,25.150,-0.074,-0.087,0.190,-13.738,162.683,6.651
20:00:26:329,25.175,0.049,-0.016,0.301,-13.585,163.712,5.059
20:00:26:443,25.289,0.061,-0.063,0.192,-13.323,164.535,3.692
20:00:26:444,25.290,-0.052,0.162,0.025,-12.068,167.482,-1.708
20:00:26:445,25.291,0.011,0.203,-0.010,-11.545,168.897,-3.991
20:00:26:461,25.307,0.180,0.446,-0.031,-10.623,170.982,-7.715
20:00:26:486,25.332,0.389,0.537,-0.010,-9.920,172.380,-10.580
20:00:26:573,25.419,0.731,0.474,0.086,-8.581,175.709,-15.861
20:00:26:573,25.419,1.424,0.730,0.862,-7.568,177.581,-20.233
20:00:26:573,25.420,1.648,0.393,1.191,-5.930,-178.853,-28.454
20:00:26:593,25.439,1.562,1.170,0.527,-3.957,-174.438,-39.875
20:00:26:618,25.465,1.103,-0.361,0.519,-2.065,-172.781,-46.442
20:00:26:673,25.520,1.594,-1.202,-0.122,1.896,-170.922,-50.047
20:00:26:674,25.520,0.611,-1.524,-0.234,3.237,-167.883,-49.314
20:00:26:696,25.542,0.694,-1.206,-0.171,2.021,-166.289,-45.483
20:00:26:722,25.568,0.859,-0.866,-0.433,-0.937,-164.680,-38.323
20:00:26:748,25.595,0.737,-0.630,-0.443,-3.140,-163.981,-32.205
20:00:26:775,25.621,0.743,-0.160,-0.641,-6.341,-163.394,-22.061
20:00:26:835,25.682,0.687,0.301,-0.719,-8.269,-163.772,-14.580
20:00:26:835,25.682,0.302,0.792,-0.634,-10.984,-166.286,-2.310
20:00:26:835,25.682,-0.563,1.304,-0.219,-12.417,-169.165,6.508
20:00:26:881,25.728,-1.301,1.041,0.046,-13.628,-173.594,19.365
20:00:26:906,25.753,-2.631,0.239,0.595,-14.523,-176.086,30.391
20:00:26:993,25.839,-2.993,-1.165,0.370,-15.123,-176.035,35.384
20:00:26:993,25.840,-3.206,-1.777,0.660,-16.371,-175.026,38.949
20:00:26:994,25.841,-2.651,-0.692,0.732,-16.209,-174.447,38.295
20:00:27:014,25.860,2.440,2.087,-1.486,-14.672,-174.048,33.174
20:00:27:014,25.861,-1.716,1.002,0.122,-14.003,-174.466,26.924
20:00:27:037,25.884,-0.244,-0.167,0.244,-13.676,-174.022,22.627
20:00:27:122,25.968,-0.894,-0.153,0.301,-12.950,-174.853,18.649
20:00:27:122,25.969,-0.513,0.183,-0.040,-12.910,-174.678,17.059
20:00:27:123,25.970,-0.302,-0.023,-0.046,-12.864,-173.476,15.102
20:00:27:173,26.019,-0.216,0.034,-0.093,-13.482,-172.215,13.550
20:00:27:173,26.019,-0.053,0.075,0.126,-13.899,-171.862,12.839
20:00:27:312,26.159,0.115,-0.040,0.264,-14.349,-171.014,11.518
20:00:27:312,26.159,0.132,0.007,0.064,-14.516,-169.767,10.352
20:00:27:312,26.159,0.028,0.080,0.096,-14.683,-168.275,8.345
20:00:27:313,26.159,-0.070,0.022,0.196,-14.569,-167.325,6.749
20:00:27:329,26.175,0.079,0.042,0.142,-14.293,-165.414,4.029
20:00:27:33,26.176,-0.074,0.029,0.036,-13.656,-163.600,0.978
20:00:27:466,26.313,-0.098,0.027,0.069,-13.199,-162.751,-1.176
20:00:27:467,26.313,-0.107,0.158,-0.098,-12.572,-161.821,-4.437
20:00:27:468,26.314,0.152,0.377,-0.171,-12.177,-159.675,-6.750
20:00:27:469,26.315,0.276,0.404,-0.181,-11.632,-158.269,-10.922
20:00:27:486,26.333,0.437,0.508,-0.112,-10.997,-154.940,-16.473
20:00:27:487,26.334,1.257,0.634,0.089,-10.338,-152.838,-21.044
20:00:27:539,26.385,2.176,1.049,-0.030,-9.311,-148.267,-29.803
20:00:27:539,26.386,1.684,1.370,-0.568,-8.227,-145.284,-37.093
20:00:27:594,26.441,0.440,-0.621,0.004,-5.421,-141.459,-46.925
20:00:27:594,26.441,1.485,-1.331,-0.490,-3.440,-140.078,-49.761
20:00:27:671,26.518,0.493,-1.453,0.022,-8.876,-138.106,-50.363
20:00:27:672,26.519,0.479,-0.840,-0.734,-14.479,-136.400,-45.142
20:00:27:727,26.573,0.037,-0.693,-0.830,-16.203,-135.330,-39.783
20:00:27:727,26.573,-0.180,-0.534,-1.303,-17.661,-133.154,-30.523
20:00:27:727,26.574,-0.390,-0.055,-1.355,-18.576,-132.073,-23.641
20:00:27:747,26.594,-0.558,0.128,-1.207,-19.505,-131.583,-12.340
20:00:27:801,26.648,-0.575,0.442,-0.903,-19.995,-132.084,-0.405
20:00:27:802,26.648,-1.069,0.669,-0.102,-20.278,-132.942,7.548
20:00:27:853,26.700,-1.552,0.741,0.843,-21.118,-133.146,18.808
20:00:27:854,26.701,-1.777,0.433,1.750,-21.715,-132.197,25.011
20:00:27:878,26.725,-1.560,-1.068,2.457,-23.350,-128.461,30.438
20:00:27:931,26.777,-1.520,-0.978,2.059,-24.831,-125.745,31.278
20:00:27:961,26.808,-1.304,-0.780,2.102,-24.232,-124.226,27.927
20:00:27:961,26.808,-1.912,0.293,1.820,-22.620,-124.450,21.937
20:00:27:982,26.828,-1.064,-0.059,0.747,-20.933,-125.109,18.938
20:00:28:008,26.855,-0.752,-0.168,1.045,-19.317,-125.266,15.764
20:00:28:095,26.942,-0.349,-0.008,0.112,-19.063,-123.915,14.018
20:00:28:095,26.942,-0.297,0.121,0.079,-19.150,-122.437,12.578
20:00:28:095,26.942,-0.127,-0.006,0.148,-19.814,-121.736,11.520
20:00:28:114,26.960,0.076,0.089,0.094,-20.100,-121.393,11.107
20:00:28:141,26.988,0.139,-0.077,0.084,-20.260,-120.189,9.986
20:00:28:166,27.013,0.093,0.000,-0.090,-20.227,-119.176,9.041
20:00:28:222,27.068,0.141,-0.018,-0.014,-19.875,-118.264,7.450
20:00:28:222,27.068,0.182,-0.032,0.066,-19.565,-117.653,6.115
20:00:28:274,27.120,0.041,0.019,0.030,-19.074,-116.069,3.481
20:00:28:275,27.121,-0.118,0.080,0.121,-18.361,-114.169,0.262
20:00:28:326,27.173,-0.198,0.122,-0.006,-17.841,-112.712,-2.108
20:00:28:327,27.174,-0.213,0.317,-0.210,-17.024,-110.586,-5.902
20:00:28:407,27.254,-0.196,0.453,-0.276,-16.595,-109.374,-8.586
20:00:28:408,27.255,-0.086,0.590,-0.439,-15.975,-107.396,-13.385
20:00:28:409,27.256,0.364,0.553,-0.880,-15.036,-104.822,-19.726
20:00:28:43,27.277,1.096,0.705,-1.463,-14.517,-102.354,-25.206
20:00:28:456,27.302,0.997,0.436,-1.878,-13.311,-96.834,-35.483
20:00:28:539,27.385,0.595,0.604,-1.634,-12.344,-93.321,-43.288
20:00:28:54,27.386,0.852,-1.087,-0.311,-9.332,-90.205,-50.310
20:00:28:54,27.387,-0.074,-1.512,-0.586,-7.568,-88.404,-50.769
20:00:28:561,27.408,0.022,-1.445,-0.608,-8.461,-86.039,-48.754
20:00:28:587,27.434,-0.269,-0.944,-0.814,-11.412,-85.019,-43.202
20:00:28:641,27.488,-0.520,-0.685,-0.760,-13.097,-84.454,-37.879
20:00:28:642,27.489,-0.902,-0.391,-0.814,-14.816,-83.542,-28.593
20:00:28:694,27.541,-0.944,-0.108,-0.632,-15.597,-83.228,-21.941
20:00:28:694,27.541,-0.957,0.245,-0.615,-16.632,-84.188,-10.661
20:00:28:746,27.593,-0.579,0.820,0.072,-17.341,-87.540,2.206
20:00:28:747,27.593,-0.046,1.115,1.710,-17.436,-90.722,10.707
20:00:28:769,27.616,0.100,0.922,2.558,-17.719,-94.966,21.750
20:00:28:828,27.674,0.599,-1.083,3.247,-17.354,-96.463,27.096
20:00:28:828,27.674,0.482,-0.954,3.216,-17.704,-95.837,31.172
20:00:28:878,27.724,-1.767,0.985,0.741,-18.635,-94.597,28.996
20:00:28:878,27.725,0.160,1.589,-1.509,-18.081,-95.428,23.693
20:00:28:901,27.747,0.640,0.205,0.326,-17.253,-95.677,18.765
20:00:28:927,27.774,0.012,0.431,0.749,-16.919,-96.329,17.101
20:00:28:955,27.801,-0.032,-0.224,0.668,-16.383,-96.683,15.327
20:00:28:979,27.826,-0.122,0.086,0.156,-15.766,-95.256,13.691
20:00:29:065,27.912,-0.256,0.030,0.068,-15.874,-94.289,12.450
20:00:29:065,27.912,-0.073,0.072,-0.026,-16.196,-93.629,10.840
20:00:29:066,27.912,0.197,0.099,0.055,-16.233,-93.685,10.116
20:00:29:085,27.932,0.014,-0.064,-0.063,-16.170,-92.309,8.379
20:00:29:111,27.958,-0.090,0.079,-0.062,-16.054,-91.250,7.310
20:00:29:166,28.013,0.072,-0.029,0.065,-15.779,-90.501,5.521
20:00:29:167,28.013,0.066,-0.046,-0.023,-15.426,-89.319,3.132
20:00:29:253,28.099,-0.014,0.090,0.144,-15.182,-88.422,1.318
20:00:29:253,28.099,-0.109,0.116,0.104,-14.572,-86.861,-1.627
20:00:29:253,28.100,-0.407,0.243,-0.061,-14.098,-85.674,-3.687
20:00:29:253,28.100,-0.418,0.336,-0.168,-13.312,-83.797,-7.053
20:00:29:268,28.115,-0.329,0.417,-0.285,-12.424,-82.408,-11.197
20:00:29:295,28.141,-0.173,0.482,-0.570,-11.693,-81.373,-14.636
20:00:29:35,28.197,0.150,0.617,-1.286,-10.402,-79.628,-20.991
20:00:29:351,28.197,0.522,0.587,-1.916,-9.614,-77.495,-26.664
20:00:29:402,28.249,0.141,0.721,-1.561,-7.839,-74.626,-37.066
20:00:29:403,28.249,0.632,-0.138,-0.013,-6.710,-73.886,-43.164
20:00:29:456,28.303,-0.142,-0.900,-1.512,-4.191,-73.034,-46.440
20:00:29:456,28.303,-0.073,-1.261,-0.478,-4.202,-73.019,-45.688
20:00:29:538,28.385,0.101,-1.055,-0.496,-5.616,-72.899,-43.585
20:00:29:538,28.385,-0.198,-0.941,-0.621,-7.931,-72.025,-37.994
20:00:29:538,28.385,-0.376,-0.606,-0.510,-9.513,-71.536,-32.922
20:00:29:559,28.406,-0.533,-0.390,-0.522,-11.896,-70.920,-24.319
20:00:29:643,28.490,-0.689,-0.030,-0.449,-13.869,-71.318,-14.397
20:00:29:643,28.490,-0.672,0.227,-0.342,-15.186,-72.784,-7.042
20:00:29:644,28.490,-0.412,0.676,0.039,-16.893,-77.128,5.243
20:00:29:662,28.509,0.161,1.147,1.048,-17.744,-80.929,13.788
20:00:29:689,28.535,0.659,0.801,2.033,-18.955,-85.464,25.170
20:00:29:774,28.620,0.701,-0.829,3.043,-19.763,-87.145,31.207
20:00:29:774,28.620,0.470,-1.286,3.058,-21.931,-87.211,36.225
20:00:29:774,28.621,0.028,-1.130,2.358,-22.504,-87.260,35.819
20:00:29:794,28.641,-2.282,1.916,-0.648,-20.850,-88.819,31.434
20:00:29:821,28.667,-0.424,0.157,1.589,-18.390,-91.644,25.075
20:00:29:848,28.694,0.906,-0.201,0.256,-17.947,-91.941,22.137
20:00:29:873,28.719,0.016,0.386,1.275,-17.918,-93.671,19.784
20:00:29:898,28.745,-0.260,-0.139,0.493,-16.776,-92.861,18.057
20:00:29:926,28.773,-0.188,0.052,0.031,-16.686,-91.480,16.818
20:00:29:951,28.798,-0.240,-0.092,0.163,-17.192,-90.484,15.016
20:00:29:977,28.823,0.140,-0.013,0.065,-17.503,-90.675,14.286
20:00:30:033,28.879,0.206,-0.008,0.209,-17.733,-90.130,12.994
20:00:30:033,28.880,-0.170,-0.007,-0.127,-17.705,-88.789,11.849
20:00:30:056,28.903,-0.184,0.047,0.049,-17.591,-87.822,10.243
20:00:30:085,28.931,0.095,-0.011,0.035,-17.297,-87.095,8.233
20:00:30:166,29.013,0.014,0.045,0.026,-17.088,-86.195,6.656
20:00:30:167,29.014,-0.091,0.053,0.164,-16.570,-84.782,3.964
20:00:30:168,29.014,-0.134,0.090,0.131,-16.101,-83.816,1.983
20:00:30:188,29.034,-0.187,0.184,0.017,-15.284,-82.195,-1.209
20:00:30:215,29.061,-0.280,0.373,-0.021,-14.420,-80.647,-4.737
20:00:30:241,29.087,-0.327,0.434,-0.148,-13.758,-79.529,-7.443
20:00:30:295,29.142,-0.268,0.473,-0.451,-12.432,-77.700,-12.437
20:00:30:296,29.143,-0.048,0.547,-1.124,-11.423,-76.276,-16.513
20:00:30:32,29.167,0.493,0.573,-1.733,-10.199,-73.811,-23.914
20:00:30:403,29.249,0.009,0.969,-1.315,-9.561,-71.702,-30.384
20:00:30:404,29.250,0.316,0.014,-1.361,-7.407,-69.030,-41.278
20:00:30:405,29.251,0.347,-0.587,-0.716,-5.129,-68.414,-46.945
20:00:30:453,29.300,0.186,-1.126,-0.878,-4.061,-68.572,-47.174
20:00:30:453,29.300,-0.001,-1.004,-0.435,-5.442,-69.576,-44.753
20:00:30:476,29.322,0.066,-0.835,-0.383,-7.193,-70.266,-41.936
20:00:30:531,29.378,-0.146,-0.829,-0.599,-9.365,-70.116,-35.690
20:00:30:532,29.378,-0.261,-0.501,-0.495,-11.671,-70.295,-27.386
20:00:30:644,29.491,-0.338,-0.347,-0.411,-13.158,-70.303,-21.337
20:00:30:644,29.491,-0.552,0.015,-0.352,-15.409,-70.841,-11.522
20:00:30:644,29.491,-0.272,0.381,-0.099,-17.111,-72.442,-4.142
20:00:30:645,29.491,0.021,0.895,0.701,-19.845,-75.946,7.701
20:00:30:747,29.593,0.322,0.978,1.822,-21.709,-78.169,15.177
20:00:30:748,29.594,0.542,0.175,2.751,-24.766,-79.437,25.185
20:00:30:749,29.595,0.575,-0.919,2.757,-28.753,-77.006,30.957
20:00:30:749,29.596,0.348,-1.189,2.729,-31.254,-75.103,31.793
20:00:30:792,29.639,-0.867,-0.592,2.071,-31.838,-73.994,29.242
20:00:30:82,29.667,-0.511,0.852,0.101,-30.017,-75.105,26.129
20:00:30:821,29.667,0.321,0.088,1.038,-26.563,-79.270,23.086
20:00:30:873,29.720,0.168,-0.185,1.241,-24.644,-82.503,20.535
20:00:30:929,29.775,0.236,-0.022,0.885,-23.612,-83.686,19.407
20:00:30:929,29.776,-0.216,0.023,0.272,-23.334,-81.950,16.870
20:00:30:929,29.776,-0.235,0.051,0.310,-23.495,-80.587,15.455
20:00:31:035,29.882,-0.094,-0.074,0.060,-23.961,-79.930,14.126
20:00:31:035,29.882,0.129,0.115,0.165,-24.313,-80.151,13.352
20:00:31:036,29.882,0.036,-0.070,0.007,-24.386,-79.239,12.257
20:00:31:056,29.903,-0.164,0.050,-0.122,-24.328,-77.736,10.596
20:00:31:057,29.904,0.045,0.025,0.090,-24.054,-77.475,9.532
20:00:31:109,29.956,0.003,0.042,-0.030,-23.707,-76.612,7.328
20:00:31:11,29.957,-0.148,0.006,0.113,-23.120,-75.196,4.368
20:00:31:161,30.008,-0.175,-0.009,0.239,-22.588,-74.283,2.053
20:00:31:162,30.009,-0.111,0.111,0.128,-21.889,-72.921,-1.610
20:00:31:215,30.062,-0.165,0.316,0.066,-21.535,-71.829,-4.199
20:00:31:216,30.062,-0.344,0.394,-0.080,-21.181,-69.654,-8.529
20:00:31:297,30.144,-0.446,0.563,-0.272,-21.015,-67.905,-11.965
20:00:31:297,30.144,-0.400,0.604,-0.435,-20.398,-64.833,-18.301
20:00:31:297,30.144,-0.209,0.772,-1.677,-19.882,-60.044,-27.124
20:00:31:316,30.163,-0.716,0.778,-2.078,-19.600,-56.006,-34.516
20:00:31:404,30.251,-0.371,-0.065,-1.478,-18.844,-51.496,-45.460
20:00:31:405,30.251,0.414,-0.578,-0.273,-17.446,-49.326,-49.271
20:00:31:406,30.252,-0.371,-1.376,-0.639,-15.361,-45.465,-50.482
20:00:31:406,30.253,-0.432,-1.390,-0.516,-16.058,-43.414,-49.358
20:00:31:447,30.293,-0.757,-1.087,-0.421,-18.767,-40.633,-44.937
20:00:31:473,30.320,-0.814,-0.815,0.003,-21.003,-38.328,-37.912
20:00:31:501,30.348,-1.303,-0.548,0.223,-22.191,-36.414,-32.383
20:00:31:587,30.434,-1.322,-0.220,0.350,-23.606,-34.005,-23.160
20:00:31:588,30.434,-1.143,0.107,0.533,-24.433,-33.147,-16.146
20:00:31:589,30.435,-0.754,0.357,0.633,-25.616,-33.159,-4.301
20:00:31:59,30.436,0.381,0.816,1.264,-27.436,-34.479,7.669
20:00:31:608,30.454,1.247,0.958,1.791,-29.169,-35.076,14.914
20:00:31:633,30.479,2.394,-0.366,1.822,-31.184,-34.136,23.071
20:00:31:683,30.530,2.543,-0.871,1.634,-32.416,-32.408,25.445
20:00:31:851,30.698,2.280,-0.950,2.042,-33.213,-30.266,24.645
20:00:31:852,30.698,-1.029,0.886,-0.033,-31.728,-30.249,19.740
20:00:31:852,30.698,0.604,0.707,1.144,-30.461,-30.660,16.632
20:00:31:852,30.699,0.727,0.080,0.689,-29.114,-31.765,13.350
20:00:31:878,30.724,0.252,0.005,0.360,-28.477,-32.083,11.928
20:00:31:878,30.724,-0.027,0.001,0.365,-27.810,-30.767,9.780
20:00:31:878,30.725,-0.052,-0.047,0.298,-27.846,-29.734,8.506
20:00:31:878,30.725,-0.031,0.042,0.192,-28.317,-28.568,6.998
20:00:32:008,30.854,-0.026,0.020,0.048,-28.513,-27.870,5.968
20:00:32:009,30.855,-0.063,-0.002,0.022,-28.530,-27.043,5.086
20:00:32:01,30.856,-0.195,-0.038,0.064,-28.240,-25.487,3.474
20:00:32:01,30.857,-0.128,-0.040,0.031,-27.958,-24.854,2.473
20:00:32:028,30.874,-0.075,0.003,-0.004,-27.479,-24.141,0.815
20:00:32:028,30.875,-0.148,-0.003,0.048,-26.958,-22.916,-1.401
20:00:32:051,30.897,-0.196,0.004,0.051,-26.506,-22.045,-3.197
20:00:32:136,30.982,-0.006,0.083,0.178,-25.750,-20.757,-6.179
20:00:32:138,30.985,-0.130,0.092,0.238,-25.256,-19.506,-8.471
20:00:32:139,30.986,-0.337,0.242,0.222,-24.564,-17.309,-12.262
20:00:32:158,31.004,-0.362,0.307,0.232,-24.090,-15.892,-15.012
20:00:32:214,31.060,-0.544,0.477,0.250,-23.412,-13.462,-19.945
20:00:32:214,31.061,-1.130,0.720,-0.324,-22.386,-10.155,-26.317
20:00:32:264,31.111,-1.605,0.805,-0.726,-21.699,-6.956,-32.113
20:00:32:264,31.111,-2.201,0.396,-0.627,-20.621,-1.612,-42.925
20:00:32:287,31.133,-0.991,-0.366,-0.547,-19.990,0.816,-50.079
20:00:32:316,31.162,-1.025,-1.017,-0.135,-17.831,2.139,-56.304
20:00:32:341,31.188,-0.626,-1.586,0.125,-14.920,5.297,-56.814
20:00:32:398,31.244,-0.563,-1.459,0.078,-15.250,6.948,-55.558
20:00:32:398,31.244,-0.676,-1.016,0.369,-17.708,9.106,-51.512
20:00:32:419,31.265,-0.581,-0.960,0.552,-18.957,10.216,-47.289
20:00:32:446,31.292,-0.761,-0.689,0.886,-19.979,11.870,-39.460
20:00:32:471,31.317,-0.731,-0.397,0.935,-20.317,12.482,-33.571
20:00:32:585,31.431,-0.623,-0.044,0.865,-20.768,12.073,-23.448
20:00:32:585,31.432,-0.347,0.385,0.545,-21.008,10.045,-12.023
20:00:32:586,31.433,0.390,0.840,0.429,-21.389,7.643,-4.257
20:00:32:587,31.433,1.729,1.177,0.064,-22.368,3.685,6.427
20:00:32:602,31.449,2.782,0.021,-0.307,-22.728,2.044,12.261
20:00:32:659,31.505,2.711,-0.154,-0.448,-23.039,2.752,17.153
20:00:32:659,31.505,2.547,-0.377,0.527,-23.633,5.106,16.537
20:00:32:708,31.554,-2.297,1.185,0.647,-23.286,4.589,12.093
20:00:32:739,31.585,1.158,0.171,-0.677,-22.219,2.789,7.900
20:00:32:739,31.585,0.654,0.160,-0.053,-21.911,1.798,6.800
20:00:32:76,31.606,0.480,0.153,0.088,-21.650,1.070,4.579
20:00:32:816,31.662,-0.059,0.061,0.304,-20.970,1.868,3.150
20:00:32:816,31.662,0.021,-0.051,0.329,-20.532,3.166,1.060
20:00:32:838,31.685,-0.080,-0.017,0.093,-20.533,3.615,-0.483
20:00:32:864,31.711,-0.029,0.016,0.011,-20.463,3.716,-1.132
20:00:32:892,31.739,-0.099,-0.029,0.063,-20.191,4.609,-2.363
20:00:32:945,31.791,-0.216,-0.066,0.195,-19.878,5.241,-3.199
20:00:32:973,31.820,-0.123,-0.041,0.139,-19.512,5.597,-4.404
20:00:32:973,31.820,-0.175,-0.025,0.045,-19.367,5.941,-5.398
20:00:32:996,31.842,-0.123,0.007,0.161,-18.982,6.780,-7.318
20:00:33:023,31.870,-0.151,0.037,0.225,-18.527,7.825,-9.751
20:00:33:107,31.953,-0.169,0.128,0.133,-18.116,8.525,-11.635
20:00:33:108,31.954,-0.140,0.162,0.123,-17.313,9.725,-14.933
20:00:33:108,31.955,-0.322,0.321,0.378,-16.605,10.846,-17.400
20:00:33:127,31.974,-0.541,0.347,0.468,-15.310,12.448,-21.518
20:00:33:156,32.003,-0.896,0.419,0.304,-13.809,13.800,-26.702
20:00:33:18,32.026,-1.327,0.408,0.103,-12.774,14.693,-30.927
20:00:33:235,32.082,-2.302,0.372,-0.525,-11.521,16.739,-39.183
20:00:33:236,32.082,-2.054,0.596,0.071,-9.975,17.917,-46.390
20:00:33:259,32.105,-1.344,-0.653,-0.174,-7.040,18.632,-55.327
20:00:33:285,32.131,-1.291,-1.377,-0.143,-6.084,18.579,-58.355
20:00:33:311,32.158,-0.661,-1.217,-0.036,-8.518,18.295,-58.429
20:00:33:368,32.215,-0.419,-1.079,-0.222,-13.321,18.322,-56.086
20:00:33:368,32.215,-0.478,-0.928,0.120,-15.662,18.742,-52.787
20:00:33:39,32.236,-0.413,-0.887,0.261,-17.590,19.620,-45.798
20:00:33:416,32.262,-0.613,-0.537,0.634,-18.669,20.554,-40.338
20:00:33:444,32.290,-0.510,-0.265,0.754,-20.256,21.315,-31.274
20:00:33:5,32.347,-0.411,0.004,0.828,-21.666,20.779,-20.949
20:00:33:5,32.347,-0.161,0.327,0.765,-22.634,19.523,-13.672
20:00:33:551,32.397,0.694,0.972,0.399,-23.890,16.795,-2.726
20:00:33:662,32.508,1.990,1.066,0.356,-24.424,15.401,3.956
20:00:33:663,32.509,2.850,0.425,-0.080,-24.513,14.861,12.165
20:00:33:663,32.510,2.767,-0.474,-0.689,-24.581,17.464,15.985
20:00:33:664,32.511,2.814,-0.459,-0.218,-24.687,19.504,15.292
20:00:33:74,32.587,-2.484,1.535,1.154,-24.343,20.859,8.501
20:00:33:74,32.587,1.527,0.014,-0.795,-23.653,20.319,5.834
20:00:33:741,32.588,0.181,-0.339,-0.372,-22.362,18.459,3.929
20:00:33:742,32.588,0.526,-0.028,0.118,-21.887,17.623,2.109
20:00:33:787,32.634,0.043,0.081,0.378,-21.149,18.502,0.246
20:00:33:787,32.634,0.103,0.015,0.135,-21.272,19.110,-1.462
20:00:33:843,32.690,-0.019,0.060,0.063,-21.448,19.481,-2.313
20:00:33:843,32.690,-0.130,-0.004,0.054,-21.424,20.137,-3.168
20:00:33:844,32.690,-0.217,-0.059,0.198,-21.300,20.792,-3.853
20:00:33:921,32.767,-0.176,-0.021,0.196,-21.132,21.452,-4.905
20:00:33:922,32.768,-0.162,-0.024,0.044,-20.953,21.863,-6.187
20:00:33:923,32.769,-0.166,-0.012,0.094,-20.799,22.294,-7.286
20:00:33:971,32.818,-0.127,-0.012,0.184,-20.443,22.949,-9.284
20:00:33:972,32.818,-0.089,-0.011,0.233,-20.172,23.461,-10.936
20:00:34:081,32.927,-0.093,0.057,0.215,-19.797,24.415,-13.852
20:00:34:082,32.928,-0.217,0.240,0.159,-19.597,25.217,-16.126
20:00:34:083,32.929,-0.218,0.297,0.285,-19.436,26.782,-20.033
20:00:34:083,32.930,-0.430,0.419,0.476,-19.375,30.320,-24.713
20:00:34:1,32.947,-0.924,0.659,0.501,-19.170,32.368,-28.417
20:00:34:126,32.972,-1.896,0.648,0.437,-18.316,36.193,-35.618
20:00:34:211,33.057,-2.730,0.827,1.075,-17.437,40.230,-42.325
20:00:34:211,33.058,-1.246,-0.499,0.632,-14.010,46.039,-53.399
20:00:34:211,33.058,-1.126,-1.683,1.035,-7.214,51.723,-58.950
20:00:34:23,33.077,-0.426,-1.638,0.646,-3.280,55.709,-59.532
20:00:34:258,33.104,-0.273,-1.398,0.968,-5.285,61.278,-58.086
20:00:34:34,33.187,0.105,-1.024,1.172,-8.910,64.191,-55.353
20:00:34:341,33.188,0.459,-0.812,1.397,-13.348,67.787,-49.266
20:00:34:342,33.188,0.545,-0.619,1.417,-15.039,70.102,-44.274
20:00:34:392,33.239,0.604,-0.319,1.347,-16.198,72.684,-35.432
20:00:34:392,33.239,0.601,0.012,1.027,-16.372,74.159,-25.271
20:00:34:528,33.374,0.499,0.295,0.680,-16.195,74.603,-18.106
20:00:34:529,33.375,0.588,1.043,-0.380,-16.615,73.858,-7.736
20:00:34:53,33.376,0.693,1.271,-1.160,-17.279,72.780,-1.261
20:00:34:53,33.377,0.908,0.402,-2.612,-17.695,71.072,6.367
20:00:34:546,33.393,0.322,0.247,-2.573,-17.532,71.456,9.040
20:00:34:633,33.480,1.261,-0.130,-2.251,-17.393,74.154,8.756
20:00:34:634,33.480,-0.149,0.505,0.807,-16.602,74.660,4.360
20:00:34:635,33.481,0.036,0.125,-0.421,-15.921,73.582,2.525
20:00:34:635,33.482,-0.073,0.013,-0.631,-15.871,72.248,0.188
20:00:34:71,33.557,0.106,-0.018,0.110,-15.523,72.589,-0.979
20:00:34:71,33.557,0.107,0.116,0.117,-15.316,74.137,-2.506
20:00:34:71,33.557,0.038,0.047,0.020,-15.815,75.113,-3.596
20:00:34:758,33.604,-0.121,0.039,0.071,-16.146,75.466,-3.937
20:00:34:758,33.605,-0.208,0.047,0.074,-16.406,76.380,-4.640
20:00:34:81,33.657,-0.135,-0.077,0.214,-16.287,77.421,-5.326
20:00:34:811,33.658,-0.077,-0.034,0.403,-16.160,78.445,-6.479
20:00:34:834,33.681,-0.298,-0.233,0.299,-16.156,78.853,-7.946
20:00:34:889,33.735,-0.207,-0.060,0.213,-16.274,79.524,-9.164
20:00:34:89,33.736,-0.086,0.035,0.278,-15.835,80.698,-11.564
20:00:34:941,33.788,0.025,0.162,0.156,-15.390,81.548,-13.486
20:00:34:942,33.788,0.030,0.210,0.257,-14.542,83.211,-16.875
20:00:35:08,33.927,0.073,0.371,0.491,-13.781,84.525,-19.430
20:00:35:08,33.927,0.129,0.468,0.647,-12.362,86.586,-23.730
20:00:35:081,33.927,0.081,0.288,1.085,-10.624,88.663,-29.216
20:00:35:081,33.928,0.018,0.201,1.436,-9.370,90.173,-33.693
20:00:35:1,33.947,-0.864,-0.265,2.125,-7.388,92.867,-41.845
20:00:35:101,33.947,-0.497,0.797,2.059,-6.452,95.659,-49.704
20:00:35:183,34.029,-0.799,-0.476,1.872,-3.869,98.369,-60.905
20:00:35:183,34.029,-0.056,-1.515,1.818,3.667,98.929,-65.361
20:00:35:183,34.029,-0.099,-1.787,1.076,7.977,100.257,-64.459
20:00:35:203,34.049,0.158,-1.346,0.511,9.161,101.719,-60.343
20:00:35:315,34.161,0.297,-1.281,0.675,7.719,102.844,-56.268
20:00:35:315,34.162,0.333,-0.993,0.694,3.602,104.214,-47.943
20:00:35:316,34.163,0.292,-0.721,0.887,0.697,104.637,-41.516
20:00:35:317,34.163,0.387,-0.209,0.867,-2.780,104.047,-30.604
20:00:35:334,34.180,0.356,0.468,0.707,-5.424,101.797,-18.549
20:00:35:36,34.207,0.224,0.921,0.306,-6.772,99.297,-9.966
20:00:35:388,34.235,-0.516,1.435,-0.913,-8.292,94.563,2.463
20:00:35:44,34.287,-0.926,0.803,-2.976,-8.773,91.954,9.712
20:00:35:441,34.287,-0.399,-0.367,-3.104,-9.289,91.598,17.264
20:00:35:493,34.339,-0.089,-0.842,-3.295,-10.386,92.070,19.452
20:00:35:493,34.340,1.941,0.805,-1.483,-10.111,90.676,16.632
20:00:35:516,34.362,0.349,0.631,-1.669,-9.810,87.160,8.389
20:00:35:542,34.389,-1.324,0.206,-1.245,-9.769,86.644,4.800
20:00:35:569,34.415,-0.692,-0.202,-0.941,-9.784,85.698,2.188
20:00:35:595,34.441,0.184,-0.120,0.206,-9.258,86.655,0.781
20:00:35:652,34.498,0.129,0.406,0.104,-9.203,88.732,-0.770
20:00:35:652,34.499,-0.316,0.099,0.203,-9.404,89.043,-2.277
20:00:35:674,34.520,-0.497,0.013,0.043,-9.475,89.203,-3.104
20:00:35:729,34.576,-0.130,-0.016,0.353,-8.884,91.110,-4.684
20:00:35:73,34.576,-0.075,0.041,0.229,-8.501,92.116,-5.831
20:00:35:753,34.599,-0.178,-0.064,0.193,-7.893,93.477,-7.931
20:00:35:781,34.627,-0.186,-0.094,0.218,-7.096,94.964,-10.532
20:00:35:866,34.712,0.020,0.143,0.033,-6.492,95.803,-12.415
20:00:35:867,34.713,0.201,0.183,0.297,-5.251,97.224,-15.365
20:00:35:867,34.714,0.191,0.312,0.424,-4.361,98.020,-17.456
20:00:35:868,34.715,0.128,0.312,0.662,-2.921,99.025,-21.097
20:00:35:942,34.789,0.113,0.411,0.962,-1.800,99.676,-24.137
20:00:35:943,34.790,-0.149,0.278,1.686,0.419,100.776,-30.111
20:00:35:944,34.790,-0.897,-0.148,2.431,3.044,102.358,-37.904
20:00:35:962,34.809,-0.884,0.791,2.322,5.264,103.648,-45.518
20:00:36:017,34.863,-0.478,-0.368,1.189,10.896,103.685,-56.955
20:00:36:042,34.889,-0.542,-1.137,0.637,14.713,103.407,-60.548
20:00:36:07,34.917,0.064,-1.393,0.541,17.126,103.797,-61.278
20:00:36:071,34.917,-0.058,-1.253,0.362,15.113,103.732,-59.754
20:00:36:125,34.972,0.224,-1.191,0.582,10.826,104.676,-54.767
20:00:36:126,34.972,0.249,-0.882,0.553,6.404,105.668,-46.974
20:00:36:146,34.993,0.392,-0.559,0.743,3.598,106.288,-40.853
20:00:36:172,35.019,0.375,-0.326,0.780,0.148,106.650,-30.404
20:00:36:199,35.045,0.357,0.209,0.647,-1.957,106.119,-22.896
20:00:36:225,35.072,0.158,0.915,0.295,-4.984,103.465,-10.998
20:00:36:282,35.128,-0.362,1.464,-0.622,-7.556,99.300,1.131
20:00:36:282,35.128,-0.954,1.445,-1.917,-8.411,96.906,8.202
20:00:36:304,35.150,-0.556,-0.417,-2.930,-9.145,95.790,15.641
20:00:36:33,35.176,-0.209,-0.371,-3.448,-10.087,95.869,17.188
20:00:36:358,35.205,0.291,-0.530,-2.186,-9.864,93.944,14.613
20:00:36:412,35.259,-1.527,0.448,-1.474,-10.053,89.102,2.486
20:00:36:435,35.281,-0.800,-0.399,-1.001,-9.973,87.734,-0.232
20:00:36:463,35.309,0.155,-0.017,0.027,-9.513,88.322,-1.778
20:00:36:488,35.335,0.201,0.268,0.331,-9.078,90.294,-3.550
20:00:36:514,35.360,-0.008,0.007,0.100,-9.230,90.499,-4.805
20:00:36:54,35.386,-0.309,-0.075,0.350,-9.384,90.564,-6.082
20:00:36:568,35.415,-0.108,-0.040,0.278,-8.957,92.143,-7.602
20:00:36:594,35.440,-0.106,-0.104,0.336,-8.620,93.014,-8.724
20:00:36:62,35.467,-0.163,-0.105,0.179,-8.008,93.991,-10.436
20:00:36:646,35.493,-0.209,-0.129,0.260,-7.641,94.762,-11.724
20:00:36:672,35.519,-0.139,-0.026,0.262,-6.989,95.888,-13.886
20:00:36:697,35.544,-0.036,0.064,0.271,-6.077,97.062,-16.446
20:00:36:724,35.570,0.223,0.158,0.287,-5.380,97.881,-18.345
20:00:36:75,35.596,0.281,0.220,0.470,-4.216,98.338,-21.616
20:00:36:829,35.675,0.123,0.321,0.553,-3.430,98.807,-24.141
20:00:36:884,35.731,0.055,0.305,0.927,-1.913,99.392,-28.816
20:00:36:916,35.763,-0.005,0.213,1.184,-0.568,99.995,-32.719
20:00:36:917,35.763,-0.741,-0.036,2.307,1.807,101.327,-39.840
20:00:36:918,35.764,-0.710,0.989,2.083,5.657,103.057,-50.793
20:00:36:919,35.765,-0.665,-0.631,1.717,11.093,104.138,-58.141
20:00:36:935,35.781,-0.090,-1.335,1.684,18.597,105.115,-62.705
20:00:36:96,35.806,0.069,-1.567,0.826,20.367,105.898,-63.251
20:00:37:016,35.862,-0.098,-1.446,0.420,15.889,106.501,-61.096
20:00:37:016,35.862,0.170,-1.234,0.624,9.441,108.509,-55.727
20:00:37:067,35.913,0.300,-1.083,0.634,5.719,109.843,-50.486
20:00:37:092,35.939,0.491,-0.718,0.790,0.766,112.166,-41.161
20:00:37:12,35.967,0.555,-0.389,0.759,-2.042,113.245,-34.261
20:00:37:121,35.967,0.527,0.127,0.670,-5.964,113.402,-23.125
20:00:37:144,35.990,0.269,0.898,0.237,-8.439,112.523,-15.102
20:00:37:17,36.016,0.010,1.311,-0.474,-11.669,110.984,-2.752
20:00:37:196,36.042,-0.655,1.349,-2.095,-14.169,110.976,7.922
20:00:37:281,36.127,-0.839,0.129,-2.833,-15.456,112.416,13.226
20:00:37:281,36.128,-0.658,-0.402,-3.111,-17.179,115.092,15.959
20:00:37:282,36.129,0.603,0.403,-1.786,-17.222,115.098,14.818
20:00:37:302,36.148,0.064,1.128,-0.417,-15.693,111.802,10.086
20:00:37:328,36.174,0.243,0.521,-0.638,-13.688,109.035,4.785
20:00:37:412,36.259,-0.242,-0.091,-0.748,-13.229,107.159,2.412
20:00:37:413,36.259,0.088,-0.018,0.018,-12.609,108.086,-0.579
20:00:37:413,36.260,0.193,0.125,-0.101,-12.398,109.619,-2.230
20:00:37:463,36.310,-0.063,-0.027,0.119,-12.752,110.539,-4.058
20:00:37:463,36.310,-0.335,0.086,0.214,-13.306,110.897,-4.853
20:00:37:514,36.360,-0.111,-0.070,0.333,-13.755,112.568,-6.181
20:00:37:515,36.361,-0.071,0.030,0.354,-13.626,114.039,-7.598
20:00:37:595,36.442,-0.191,-0.019,0.244,-13.403,114.981,-8.723
20:00:37:596,36.443,-0.144,-0.025,0.331,-12.979,116.732,-10.761
20:00:37:597,36.443,0.058,0.037,0.181,-12.523,117.997,-12.253
20:00:37:674,36.521,0.129,0.038,0.246,-11.780,119.846,-14.830
20:00:37:675,36.521,-0.021,0.058,0.257,-11.128,121.097,-17.684
20:00:37:676,36.522,-0.028,0.146,0.293,-10.766,121.764,-19.779
20:00:37:695,36.542,0.146,0.250,0.423,-10.177,123.214,-23.274
20:00:37:721,36.568,0.329,0.239,0.668,-9.603,124.700,-26.147
20:00:37:806,36.653,0.408,0.246,0.991,-8.363,127.720,-31.560
20:00:37:806,36.653,0.489,0.345,2.095,-6.660,132.040,-38.456
20:00:37:807,36.654,0.929,0.639,2.459,-5.024,136.244,-44.191
20:00:37:857,36.704,0.480,0.039,1.421,-1.745,142.201,-54.192
20:00:37:857,36.704,-1.014,-0.626,0.184,3.705,144.573,-58.799
20:00:37:879,36.725,0.936,-1.896,0.580,11.044,149.045,-56.740
20:00:37:994,36.841,0.693,-1.390,0.188,11.133,151.450,-54.056
20:00:37:994,36.841,0.941,-1.172,0.086,7.088,154.537,-47.867
20:00:37:994,36.841,0.937,-0.691,-0.028,2.050,156.833,-39.667
20:00:37:995,36.841,1.101,-0.249,-0.162,-0.948,157.821,-33.270
20:00:38:01,36.856,1.050,0.146,-0.167,-4.119,158.220,-22.370
20:00:38:036,36.882,0.508,0.749,-0.273,-5.772,157.473,-14.544
20:00:38:092,36.938,-0.151,0.944,-0.364,-7.485,154.851,-2.085
20:00:38:092,36.939,-1.424,1.267,-0.501,-8.560,153.481,9.004
20:00:38:144,36.991,-2.545,0.653,-0.928,-9.059,153.901,14.863
20:00:38:145,36.991,-2.817,-0.439,-1.266,-10.233,156.172,19.716
20:00:38:17,37.016,-2.321,-0.279,-1.448,-10.702,157.636,19.752
20:00:38:223,37.069,1.942,1.255,-0.232,-9.709,158.742,14.680
20:00:38:223,37.070,-0.472,0.322,-0.372,-7.929,157.642,10.113
20:00:38:247,37.094,-1.024,0.289,-0.141,-7.407,156.333,7.380
20:00:38:273,37.119,-0.792,0.229,-0.128,-6.672,155.218,5.110
20:00:38:299,37.145,-0.171,-0.019,-0.159,-6.303,156.064,4.187
20:00:38:354,37.201,-0.082,0.118,-0.080,-6.696,157.702,3.325
20:00:38:355,37.201,-0.028,-0.078,0.259,-7.088,158.109,3.083
20:00:38:409,37.255,-0.143,0.121,0.325,-7.804,157.839,2.894
20:00:38:409,37.255,0.323,-0.238,0.511,-7.880,159.336,2.177
20:00:38:434,37.281,0.493,-0.177,0.610,-7.760,160.310,1.369
20:00:38:435,37.281,0.112,-0.150,0.411,-7.513,160.971,-0.485
20:00:38:456,37.303,0.072,-0.033,0.360,-7.273,161.720,-2.123
20:00:38:485,37.331,0.023,0.106,0.139,-6.707,163.151,-5.078
20:00:38:538,37.384,0.006,0.178,0.026,-6.101,164.719,-8.377
20:00:38:539,37.385,0.132,0.227,0.176,-5.669,166.027,-10.752
20:00:38:59,37.437,0.280,0.487,0.318,-4.595,168.307,-14.768
20:00:38:591,37.437,0.608,0.576,0.240,-3.408,170.249,-18.028
20:00:38:643,37.489,1.306,0.504,0.328,-0.874,173.444,-24.291
20:00:38:643,37.490,2.175,0.259,1.445,1.050,175.742,-29.575
20:00:38:666,37.513,2.294,0.173,1.173,4.351,179.948,-39.314
20:00:38:78,37.626,1.723,-0.319,1.108,8.886,-176.590,-50.581
20:00:38:78,37.627,0.202,-1.535,0.579,13.411,-175.587,-54.295
20:00:38:781,37.628,1.164,-1.687,0.007,16.862,-171.739,-53.278
20:00:38:782,37.628,0.654,-1.448,-0.263,16.621,-169.910,-50.927
20:00:38:828,37.674,0.812,-1.230,-0.346,13.445,-167.575,-44.855
20:00:38:828,37.674,0.765,-0.870,-0.272,8.506,-166.138,-36.278
20:00:38:851,37.697,0.835,-0.538,-0.295,5.119,-165.719,-29.666
20:00:38:906,37.753,0.797,-0.029,-0.275,1.238,-166.037,-18.545
20:00:38:907,37.753,0.397,0.590,-0.088,-0.978,-167.143,-10.501
20:00:38:929,37.775,-0.341,1.270,0.118,-3.877,-169.871,2.559
20:00:38:955,37.801,-1.751,1.444,0.628,-5.543,-171.580,11.009
20:00:38:983,37.829,-3.155,0.579,0.729,-7.493,-171.678,21.893
20:00:39:039,37.885,-3.471,-0.728,0.525,-9.839,-169.584,28.401
20:00:39:039,37.885,-3.606,-1.118,0.185,-10.526,-169.410,28.745
20:00:39:06,37.907,2.507,2.804,-1.204,-8.717,-172.180,22.867
20:00:39:086,37.933,-1.416,0.685,0.089,-7.232,-173.267,18.955
20:00:39:112,37.959,-1.565,0.083,0.282,-6.425,-173.940,13.857
20:00:39:139,37.985,-0.392,-0.042,0.038,-5.798,-173.897,11.238
20:00:39:194,38.041,-0.081,0.035,0.124,-5.588,-172.670,10.236
20:00:39:195,38.041,-0.075,-0.019,0.073,-6.177,-171.145,8.767
20:00:39:218,38.064,0.226,-0.001,0.409,-6.599,-170.771,7.997
20:00:39:244,38.091,-0.003,-0.051,0.461,-7.058,-170.302,6.719
20:00:39:271,38.117,0.303,-0.100,0.282,-7.094,-169.068,5.561
20:00:39:327,38.173,0.152,0.032,0.225,-6.973,-167.561,3.723
20:00:39:327,38.173,0.124,-0.071,0.360,-6.637,-166.371,1.471
20:00:39:378,38.224,0.200,-0.064,0.321,-6.304,-165.216,-0.307
20:00:39:379,38.225,-0.023,0.175,0.191,-5.596,-163.299,-3.282
20:00:39:403,38.250,0.114,0.233,-0.005,-4.961,-161.870,-5.535
20:00:39:456,38.303,0.256,0.386,-0.055,-3.930,-159.754,-9.233
20:00:39:457,38.304,0.523,0.554,-0.105,-2.762,-157.781,-13.731
20:00:39:48,38.327,0.848,0.552,-0.125,-1.788,-156.223,-17.493
20:00:39:506,38.353,1.961,0.354,0.010,0.008,-153.359,-24.777
20:00:39:532,38.379,2.521,0.909,0.332,1.466,-150.580,-30.550
20:00:39:559,38.405,2.022,1.057,0.137,4.172,-146.618,-41.305
20:00:39:614,38.461,1.434,-1.542,-0.504,6.762,-145.707,-47.624
20:00:39:615,38.461,0.823,-1.399,-0.301,10.480,-143.362,-49.670
20:00:39:638,38.484,0.656,-1.439,-0.233,7.868,-142.245,-48.299
20:00:39:693,38.539,0.550,-1.190,-0.367,4.091,-141.238,-44.681
20:00:39:693,38.540,0.460,-0.643,-0.841,-1.084,-139.595,-36.500
20:00:39:775,38.621,0.211,-0.283,-1.136,-3.763,-138.802,-29.729
20:00:39:775,38.622,-0.019,0.220,-1.090,-6.937,-138.162,-18.823
20:00:39:776,38.623,-0.140,0.495,-0.927,-9.177,-138.887,-6.830
20:00:39:824,38.670,-0.456,0.899,-0.461,-10.181,-140.085,1.908
20:00:39:825,38.671,-1.332,1.193,1.109,-11.314,-141.841,14.604
20:00:39:849,38.695,-1.976,0.876,1.702,-11.865,-141.409,22.040
20:00:39:874,38.721,-2.487,-1.174,2.379,-13.333,-138.018,29.115
20:00:39:929,38.775,-1.926,-0.880,2.380,-14.616,-134.859,29.895
20:00:39:93,38.776,0.038,1.494,-0.189,-13.898,-134.368,26.438
20:00:39:954,38.800,-1.099,0.772,0.995,-12.135,-133.888,20.278
20:00:39:979,38.826,-0.976,0.031,0.617,-10.733,-134.393,16.878
20:00:40:005,38.851,-0.734,-0.094,0.812,-9.579,-134.471,13.311
20:00:40:031,38.878,-0.067,0.134,-0.006,-9.635,-132.431,10.998
20:00:40:057,38.904,-0.254,0.100,0.236,-10.289,-131.601,9.665
20:00:40:112,38.959,0.191,0.123,0.245,-11.383,-130.760,8.179
20:00:40:113,38.960,0.204,0.033,0.325,-11.792,-129.877,7.190
20:00:40:137,38.984,0.345,-0.051,0.158,-11.993,-127.964,5.532
20:00:40:163,39.009,0.211,0.002,0.193,-11.935,-126.742,4.365
20:00:40:189,39.035,0.238,-0.020,0.184,-11.678,-124.797,2.258
20:00:40:215,39.061,0.217,0.047,0.187,-11.093,-122.748,-0.157
20:00:40:243,39.089,0.197,0.103,0.150,-10.603,-121.286,-1.999
20:00:40:268,39.115,0.061,0.161,0.043,-9.698,-118.762,-5.215
20:00:40:293,39.140,0.097,0.299,-0.216,-8.980,-116.994,-7.685
20:00:40:35,39.196,0.106,0.385,-0.284,-7.725,-114.452,-12.012
20:00:40:35,39.196,0.238,0.488,-0.667,-6.389,-111.775,-17.581
20:00:40:373,39.220,0.673,0.466,-1.019,-5.359,-109.535,-21.994
20:00:40:4,39.246,1.402,0.532,-1.467,-3.720,-103.976,-30.803
20:00:40:456,39.303,1.306,1.274,-1.598,-1.991,-99.507,-39.091
20:00:40:456,39.303,0.917,-0.489,-0.873,2.615,-96.013,-48.884
20:00:40:477,39.324,0.660,-1.009,-1.829,6.355,-95.423,-50.895
20:00:40:538,39.385,0.126,-1.465,-0.728,5.570,-94.779,-49.008
20:00:40:538,39.385,0.012,-0.832,-0.417,1.667,-93.142,-43.431
20:00:40:539,39.385,-0.169,-0.870,-0.683,-0.294,-91.807,-37.877
20:00:40:643,39.490,-0.321,-0.588,-0.823,-3.439,-90.598,-27.726
20:00:40:644,39.491,-0.422,-0.110,-0.666,-5.430,-90.266,-20.544
20:00:40:645,39.491,-0.463,0.268,-0.600,-7.574,-90.252,-9.074
20:00:40:646,39.492,-0.357,0.829,-0.088,-8.943,-91.414,-0.883
20:00:40:72,39.566,-0.289,1.023,0.592,-10.910,-95.049,12.290
20:00:40:72,39.567,0.100,0.892,2.201,-12.475,-98.816,24.483
20:00:40:721,39.568,-0.110,-1.010,3.314,-13.412,-100.241,31.133
20:00:40:74,39.587,-0.318,-1.570,3.238,-15.080,-100.073,36.867
20:00:40:766,39.613,-0.459,-1.772,2.639,-15.846,-99.925,37.273
20:00:40:792,39.639,-1.130,3.212,-2.103,-13.720,-101.567,31.914
20:00:40:82,39.667,0.418,0.145,1.912,-11.175,-103.589,24.760
20:00:40:846,39.692,-0.715,0.056,0.988,-10.367,-103.963,21.963
20:00:40:872,39.718,-0.135,-0.251,1.106,-8.827,-104.776,18.974
20:00:40:898,39.744,-0.122,0.031,0.275,-8.401,-103.332,17.545
20:00:40:924,39.771,-0.145,0.003,0.230,-8.768,-101.390,15.817
20:00:40:95,39.797,0.069,-0.005,0.082,-9.153,-100.908,14.481
20:00:40:976,39.823,0.421,0.086,0.224,-9.294,-101.021,13.769
20:00:41:002,39.849,0.192,-0.068,-0.077,-9.285,-99.403,12.121
20:00:41:029,39.875,-0.033,0.097,0.151,-9.189,-98.437,11.034
20:00:41:056,39.902,0.216,-0.094,-0.021,-8.828,-97.669,9.072
20:00:41:082,39.929,0.210,0.004,0.173,-8.747,-96.850,7.465
20:00:41:107,39.954,0.106,0.168,0.204,-8.222,-95.059,4.642
20:00:41:134,39.980,-0.238,0.263,0.071,-7.500,-92.630,1.396
20:00:41:161,40.007,-0.328,0.375,-0.116,-6.958,-90.990,-1.003
20:00:41:186,40.033,-0.184,0.533,-0.274,-5.953,-89.110,-5.323
20:00:41:212,40.059,0.043,0.792,-0.697,-5.208,-87.998,-8.979
20:00:41:239,40.086,0.651,0.899,-1.554,-3.903,-85.962,-15.978
20:00:41:266,40.112,0.911,0.458,-2.436,-2.255,-82.425,-25.244
20:00:41:32,40.167,0.359,0.766,-1.430,-0.988,-80.368,-33.039
20:00:41:321,40.168,1.171,-1.043,-0.003,1.482,-79.573,-42.212
20:00:41:344,40.190,-0.185,-1.250,-2.753,3.623,-78.695,-42.950
20:00:41:37,40.216,0.148,-1.145,-0.546,3.393,-79.131,-41.384
20:00:41:396,40.243,0.140,-1.119,-0.667,1.758,-79.052,-38.454
20:00:41:424,40.271,-0.113,-0.795,-0.643,-1.242,-78.398,-31.340
20:00:41:449,40.296,-0.268,-0.300,-0.681,-4.468,-77.846,-22.055
20:00:41:476,40.322,-0.315,-0.121,-0.595,-6.524,-77.671,-15.297
20:00:41:503,40.349,-0.476,0.381,-0.461,-9.021,-78.403,-4.061
20:00:41:559,40.405,-0.344,1.106,0.321,-10.652,-80.175,4.092
20:00:41:559,40.406,-0.081,1.091,1.013,-12.610,-84.164,16.687
20:00:41:582,40.429,0.676,0.592,2.552,-13.591,-87.479,27.235
20:00:41:608,40.455,0.332,-1.133,3.151,-14.195,-88.243,31.921
20:00:41:635,40.481,0.318,-0.867,3.137,-15.009,-89.436,34.514
20:00:41:688,40.534,0.146,-1.585,3.060,-13.647,-90.924,32.521
20:00:41:689,40.535,-0.146,1.144,-0.082,-11.838,-93.601,24.568
20:00:41:712,40.558,0.629,-0.206,0.451,-11.007,-94.208,20.606
20:00:41:738,40.584,0.133,0.051,1.253,-10.394,-95.205,17.172
20:00:41:764,40.611,-0.251,-0.055,0.557,-9.968,-94.308,15.097
20:00:41:79,40.636,-0.066,0.084,0.152,-10.079,-93.129,14.262
20:00:41:818,40.665,0.000,-0.089,0.168,-10.929,-92.375,12.805
20:00:41:844,40.690,0.329,0.050,-0.034,-11.455,-92.193,12.156
20:00:41:869,40.716,0.370,-0.038,-0.018,-11.833,-91.097,10.839
20:00:41:895,40.742,0.109,-0.036,-0.162,-11.874,-89.388,9.076
20:00:41:921,40.768,0.197,0.049,-0.041,-11.773,-88.630,7.776
20:00:41:948,40.795,0.338,-0.095,-0.152,-11.359,-87.459,5.380
20:00:41:975,40.822,0.072,0.043,0.158,-11.029,-86.585,3.518
20:00:42:029,40.876,-0.055,0.268,0.213,-10.296,-84.742,0.324
20:00:42:03,40.876,-0.346,0.293,0.025,-9.578,-83.233,-2.101
20:00:42:053,40.900,-0.282,0.355,-0.262,-8.390,-81.380,-6.171
20:00:42:079,40.925,-0.054,0.610,-0.444,-7.144,-79.922,-11.102
20:00:42:135,40.981,-0.157,0.670,-0.898,-6.139,-78.557,-15.344
20:00:42:135,40.981,0.467,0.418,-2.124,-4.205,-75.752,-23.188
20:00:42:16,41.007,0.738,0.503,-2.370,-2.975,-73.739,-30.146
20:00:42:184,41.030,0.729,0.540,-1.735,-0.449,-71.199,-43.345
20:00:42:21,41.057,0.238,-1.392,-1.045,1.842,-70.966,-48.545
20:00:42:236,41.083,-0.056,-1.502,-1.131,3.371,-70.669,-50.139
20:00:42:292,41.138,-0.027,-1.225,-0.616,0.489,-71.205,-47.555
20:00:42:293,41.139,-0.219,-1.081,-0.546,-1.936,-70.910,-43.847
20:00:42:315,41.162,-0.426,-0.773,-0.768,-4.942,-70.224,-35.213
20:00:42:342,41.189,-0.506,-0.335,-0.598,-6.691,-70.075,-28.398
20:00:42:368,41.215,-0.557,-0.109,-0.583,-8.973,-70.407,-17.002
20:00:42:394,41.240,-0.488,0.452,-0.317,-10.808,-72.071,-4.384
20:00:42:42,41.266,-0.316,1.055,0.270,-12.174,-74.191,4.845
20:00:42:476,41.323,0.488,1.309,1.602,-14.363,-77.922,18.517
20:00:42:476,41.323,1.012,1.055,2.564,-15.503,-79.619,26.493
20:00:42:499,41.346,0.844,-1.590,3.277,-17.397,-79.303,34.717
20:00:42:525,41.372,0.887,-1.577,3.116,-19.859,-78.063,36.788
20:00:42:553,41.399,0.365,-1.424,2.993,-19.343,-78.253,34.419
20:00:42:579,41.425,0.032,-0.404,2.508,-16.712,-80.481,26.980
20:00:42:634,41.481,0.502,-0.294,0.607,-15.312,-80.938,22.467
20:00:42:634,41.481,0.604,-0.154,1.212,-14.048,-83.005,18.609
20:00:42:657,41.503,-0.063,-0.008,0.338,-13.464,-83.008,17.016
20:00:42:683,41.529,-0.094,0.151,0.165,-13.399,-80.629,14.708
20:00:42:71,41.556,-0.054,-0.046,0.198,-14.064,-79.027,12.518
20:00:42:736,41.583,0.186,0.065,-0.087,-14.390,-78.884,11.649
20:00:42:762,41.609,0.354,-0.015,0.063,-14.899,-78.284,10.117
20:00:42:85,41.697,-0.022,-0.068,-0.152,-14.967,-76.736,8.668
20:00:42:85,41.697,-0.038,0.123,0.023,-14.920,-75.095,6.577
20:00:42:85,41.697,0.239,-0.010,0.031,-14.572,-74.231,4.142
20:00:42:851,41.698,0.174,0.056,0.043,-14.298,-73.271,2.298
20:00:42:896,41.742,0.018,0.110,0.033,-13.759,-71.472,-0.739
20:00:42:897,41.743,-0.188,0.202,0.015,-13.398,-70.213,-2.987
20:00:42:92,41.767,-0.272,0.404,-0.046,-12.896,-68.458,-6.779
20:00:42:946,41.792,-0.267,0.479,-0.212,-12.535,-67.159,-9.883
20:00:43:001,41.847,-0.164,0.568,-0.712,-11.796,-64.663,-15.750
20:00:43:001,41.848,-0.113,0.789,-1.791,-10.989,-60.879,-23.706
20:00:43:024,41.871,-0.153,0.884,-2.270,-10.343,-57.204,-30.294
20:00:43:05,41.897,-0.321,0.954,-1.349,-8.903,-52.611,-41.240
20:00:43:079,41.925,-1.367,-1.783,-2.227,-6.956,-51.045,-46.230
20:00:43:102,41.949,-0.130,-1.521,-0.660,-7.471,-49.447,-47.150
20:00:43:158,42.005,-0.376,-1.087,-0.548,-12.421,-48.114,-44.556
20:00:43:159,42.005,-0.837,-0.818,-0.436,-14.930,-46.183,-40.029
20:00:43:181,42.028,-1.294,-0.518,-0.093,-17.228,-42.993,-31.428
20:00:43:208,42.054,-1.365,-0.452,-0.013,-18.536,-41.306,-24.836
20:00:43:234,42.080,-1.195,0.184,0.451,-20.845,-40.437,-13.921
20:00:43:26,42.107,-1.011,0.454,0.682,-22.203,-40.873,-5.756
20:00:43:286,42.133,-0.255,0.638,1.159,-23.823,-42.470,7.137
20:00:43:313,42.160,1.093,1.031,1.775,-25.496,-43.495,18.738
20:00:43:339,42.185,2.238,0.439,2.125,-25.755,-42.654,24.254
20:00:43:365,42.212,2.655,-1.038,1.898,-27.292,-38.873,28.134
20:00:43:421,42.267,2.482,-1.228,2.051,-27.872,-36.378,27.429
20:00:43:421,42.268,-2.914,2.029,-1.065,-26.224,-35.056,22.431
20:00:43:446,42.293,1.120,-0.101,0.634,-23.519,-36.298,17.693
20:00:43:497,42.344,0.367,0.225,0.682,-22.496,-37.469,14.964
20:00:43:527,42.373,0.568,0.040,0.526,-21.213,-37.808,12.234
20:00:43:527,42.373,-0.015,0.052,0.331,-20.915,-36.648,10.661
20:00:43:549,42.395,0.058,0.062,0.340,-21.304,-35.193,8.821
20:00:43:605,42.452,0.026,0.037,0.058,-21.802,-34.574,7.979
20:00:43:606,42.453,0.061,0.101,-0.091,-22.342,-33.823,7.036
20:00:43:63,42.477,-0.111,-0.071,-0.223,-22.452,-32.077,5.418
20:00:43:654,42.500,-0.204,-0.032,-0.171,-22.316,-31.078,4.262
20:00:43:709,42.556,0.084,-0.014,-0.135,-21.971,-30.068,2.352
20:00:43:71,42.556,-0.003,0.011,-0.154,-21.718,-28.975,0.716
20:00:43:733,42.579,-0.018,0.104,0.004,-21.169,-26.860,-2.331
20:00:43:76,42.606,0.000,0.122,0.110,-20.352,-24.601,-5.970
20:00:43:786,42.632,-0.132,0.195,0.301,-19.768,-23.046,-8.539
20:00:43:812,42.658,-0.426,0.358,0.260,-18.920,-20.893,-12.597
20:00:43:838,42.684,-0.579,0.480,0.068,-18.383,-19.627,-15.657
20:00:43:864,42.710,-0.779,0.474,-0.129,-17.484,-17.547,-21.413
20:00:43:89,42.736,-1.363,0.591,-0.840,-16.897,-15.765,-26.270
20:00:43:916,42.763,-1.848,0.706,-1.382,-16.337,-12.049,-35.418
20:00:43:943,42.789,-1.315,0.593,-0.926,-16.795,-8.286,-46.819
20:00:44:056,42.903,-0.278,0.027,-0.419,-16.463,-6.779,-52.697
20:00:44:057,42.904,-2.085,-1.743,-0.701,-11.526,-3.771,-54.010
20:00:44:058,42.904,-0.562,-1.517,0.013,-9.476,-2.603,-52.594
20:00:44:059,42.905,-0.744,-1.257,-0.078,-9.298,0.137,-48.014
20:00:44:076,42.923,-0.862,-0.984,0.198,-11.152,2.259,-40.683
20:00:44:102,42.948,-0.828,-0.617,0.297,-12.809,3.327,-34.818
20:00:44:129,42.975,-0.858,-0.162,0.598,-15.077,4.265,-24.799
20:00:44:154,43.001,-0.691,0.345,0.647,-16.397,3.963,-17.156
20:00:44:18,43.027,-0.303,0.744,0.587,-18.395,1.859,-4.486
20:00:44:234,43.081,0.967,1.393,0.197,-19.767,-0.255,4.309
20:00:44:235,43.081,2.190,1.126,0.037,-22.037,-2.432,16.144
20:00:44:258,43.104,3.187,-0.312,0.111,-24.624,-1.429,24.361
20:00:44:314,43.160,3.373,-0.935,0.166,-26.353,-0.172,26.805
20:00:44:314,43.160,2.761,-0.722,0.752,-26.735,0.237,25.711
20:00:44:337,43.183,1.365,0.519,0.379,-25.128,-1.275,21.864
20:00:44:363,43.209,1.352,0.014,0.233,-22.316,-4.122,16.519
20:00:44:389,43.236,1.143,0.100,0.570,-21.379,-6.042,12.938
20:00:44:415,43.262,0.741,-0.003,0.303,-20.621,-6.344,11.361
20:00:44:441,43.288,0.105,0.151,0.294,-20.208,-4.060,9.021
20:00:44:498,43.344,0.135,0.022,0.266,-20.496,-2.852,7.749
20:00:44:498,43.344,-0.076,0.006,-0.015,-21.011,-2.596,6.748
20:00:44:547,43.393,-0.271,-0.035,-0.073,-21.221,-1.058,4.295
20:00:44:575,43.422,-0.169,0.068,0.023,-20.954,0.107,2.337
20:00:44:599,43.445,-0.037,-0.006,-0.185,-20.577,0.706,0.759
20:00:44:684,43.531,0.036,0.028,0.005,-20.004,2.473,-2.242
20:00:44:684,43.531,0.073,0.101,0.155,-19.497,3.872,-4.552
20:00:44:685,43.531,-0.006,0.166,0.259,-18.521,6.015,-8.236
20:00:44:704,43.551,-0.296,0.280,0.261,-17.546,7.978,-12.066
20:00:44:73,43.577,-0.342,0.446,0.323,-16.956,9.198,-15.018
20:00:44:757,43.603,-0.726,0.671,0.258,-15.942,11.391,-20.519
20:00:44:783,43.629,-1.325,0.743,0.005,-14.958,13.291,-25.309
20:00:44:809,43.655,-2.835,0.461,-0.364,-13.427,17.787,-34.907
20:00:44:836,43.683,-1.749,0.627,-0.385,-11.810,20.470,-42.579
20:00:44:862,43.708,-0.193,-0.476,-0.570,-9.639,22.334,-52.198
20:00:44:888,43.734,-1.101,-1.713,-0.019,-6.879,25.125,-54.241
20:00:44:914,43.761,-0.698,-1.734,0.143,-7.282,26.978,-53.476
20:00:44:94,43.787,-0.725,-1.136,0.475,-10.932,29.658,-48.924
20:00:44:967,43.813,-0.546,-0.820,0.763,-13.293,31.314,-44.179
20:00:45:054,43.900,-0.483,-0.585,1.053,-16.121,33.499,-35.187
20:00:45:054,43.901,-0.370,-0.092,1.307,-18.527,35.175,-24.995
20:00:45:055,43.902,-0.208,0.223,1.183,-19.984,35.098,-17.447
20:00:45:056,43.902,0.216,0.737,0.812,-21.890,33.084,-4.686
20:00:45:101,43.947,1.325,1.270,0.002,-23.063,31.784,3.580
20:00:45:102,43.948,2.428,1.033,-0.842,-24.638,31.711,14.114
20:00:45:124,43.971,3.094,-0.480,-1.675,-25.338,33.300,18.521
20:00:45:21,44.057,2.796,-0.468,-1.839,-26.469,36.711,19.857
20:00:45:21,44.057,-0.174,1.246,1.517,-25.125,37.706,14.582
20:00:45:211,44.057,2.099,0.333,-0.105,-23.679,37.010,11.330
20:00:45:23,44.077,1.002,0.368,-0.293,-22.254,35.174,6.755
20:00:45:255,44.102,0.779,0.002,-0.461,-21.575,34.137,5.005
20:00:45:283,44.129,0.255,0.020,0.190,-20.916,35.072,2.836
20:00:45:308,44.155,0.182,0.014,0.176,-21.342,36.916,0.882
20:00:45:335,44.181,0.031,-0.002,0.115,-21.907,37.849,-0.043
20:00:45:39,44.236,-0.309,0.106,-0.005,-22.611,38.664,-1.101
20:00:45:39,44.237,-0.278,-0.039,0.018,-22.688,39.800,-2.278
20:00:45:413,44.259,-0.267,-0.063,0.221,-22.401,41.698,-4.318
20:00:45:44,44.286,-0.173,-0.044,-0.114,-22.180,42.427,-5.699
20:00:45:496,44.342,-0.232,0.045,-0.026,-21.600,43.895,-8.222
20:00:45:496,44.342,-0.160,0.085,0.077,-20.775,46.003,-11.300
20:00:45:518,44.364,-0.006,0.113,0.157,-20.119,47.417,-13.573
20:00:45:573,44.420,-0.006,0.166,0.404,-19.154,49.535,-17.132
20:00:45:574,44.420,-0.135,0.276,0.487,-18.598,50.750,-19.693
20:00:45:655,44.502,-0.242,0.365,0.601,-17.795,52.676,-24.265
20:00:45:656,44.502,-0.543,0.327,0.862,-16.708,55.235,-30.299
20:00:45:656,44.503,-1.151,0.328,1.058,-15.877,57.472,-35.438
20:00:45:676,44.522,-2.108,0.190,1.572,-14.217,62.569,-44.955
20:00:45:731,44.578,-1.964,0.537,1.719,-13.022,66.307,-52.535
20:00:45:732,44.578,-0.699,-1.142,-0.754,-8.482,69.177,-61.148
20:00:45:754,44.600,-1.045,-1.796,1.342,-3.966,71.353,-61.923
20:00:45:807,44.654,-0.148,-1.508,0.418,-4.276,74.052,-60.565
20:00:45:835,44.682,-0.078,-1.222,1.016,-7.862,77.232,-55.249
20:00:45:836,44.683,0.123,-0.982,1.090,-9.865,78.963,-49.956
20:00:45:859,44.706,0.467,-0.635,1.055,-11.489,81.299,-40.626
20:00:45:944,44.790,0.594,-0.290,1.149,-12.251,82.550,-33.775
20:00:45:944,44.791,0.535,0.150,1.072,-13.674,82.642,-22.373
20:00:45:945,44.791,0.393,0.880,0.527,-15.151,80.232,-9.337
20:00:45:993,44.840,0.376,1.240,-0.279,-16.101,77.802,-0.482
20:00:45:994,44.840,0.507,1.322,-1.999,-17.451,75.213,11.526
20:00:46:017,44.864,0.721,0.036,-3.150,-18.280,74.819,17.688
20:00:46:101,44.947,0.764,-0.704,-3.715,-19.078,75.957,22.196
20:00:46:102,44.948,0.979,-0.716,-2.799,-19.224,76.685,21.948
20:00:46:103,44.949,-0.199,2.112,3.038,-18.074,75.524,16.720
20:00:46:182,45.028,-0.059,0.262,-0.222,-16.821,74.456,10.516
20:00:46:182,45.029,-0.207,0.047,-0.760,-16.412,74.423,7.163
20:00:46:182,45.029,-0.004,0.047,-0.503,-15.630,73.822,4.505
20:00:46:23,45.076,0.072,0.049,0.045,-15.042,74.845,3.102
20:00:46:23,45.077,0.148,0.096,-0.031,-14.833,76.892,1.157
20:00:46:365,45.211,-0.035,-0.007,0.102,-14.975,78.047,-0.250
20:00:46:365,45.212,-0.216,0.080,0.130,-15.066,78.209,-0.825
20:00:46:366,45.213,-0.301,-0.129,0.111,-14.886,79.403,-2.309
20:00:46:419,45.266,-0.061,-0.053,0.292,-14.456,80.648,-3.433
20:00:46:42,45.266,-0.107,-0.026,0.117,-13.870,81.682,-5.108
20:00:46:421,45.267,-0.292,0.014,0.211,-13.419,82.234,-6.428
20:00:46:422,45.268,-0.154,0.051,0.069,-12.722,83.623,-8.873
20:00:46:466,45.312,0.103,0.145,0.166,-10.794,86.613,-13.929
20:00:46:549,45.395,0.174,0.328,0.484,-9.520,88.637,-17.294
20:00:46:549,45.395,0.152,0.488,0.523,-8.683,89.712,-19.844
20:00:46:549,45.395,-0.012,0.479,0.855,-7.188,91.304,-24.649
20:00:46:57,45.416,-0.505,0.477,1.600,-5.096,93.558,-31.034
20:00:46:623,45.470,-1.248,0.242,2.342,-3.509,95.834,-36.501
20:00:46:624,45.471,-0.491,0.789,2.028,0.554,99.525,-47.492
20:00:46:647,45.494,-0.613,-1.285,0.152,4.580,100.650,-54.870
20:00:46:673,45.519,0.316,-1.318,1.916,9.693,101.029,-59.317
20:00:46:699,45.546,0.099,-1.433,0.559,9.949,102.592,-59.327
20:00:46:725,45.572,0.014,-1.227,0.511,5.639,102.987,-56.248
20:00:46:782,45.629,0.443,-1.019,0.903,1.201,104.160,-49.806
20:00:46:782,45.629,0.565,-0.738,0.689,-1.161,104.690,-44.086
20:00:46:804,45.651,0.857,-0.311,0.867,-3.941,105.293,-34.547
20:00:46:83,45.677,0.888,0.013,0.952,-5.332,104.677,-27.272
20:00:46:856,45.703,0.731,0.497,0.751,-7.044,101.161,-15.177
20:00:46:883,45.729,0.106,1.108,0.053,-7.852,94.711,-2.647
20:00:46:966,45.812,-0.597,1.352,-1.377,-7.839,90.072,5.032
20:00:46:966,45.813,-0.398,0.513,-2.980,-7.192,85.455,13.778
20:00:46:991,45.837,-0.864,-0.672,-3.858,-6.131,84.740,17.218
20:00:46:991,45.838,-0.669,-1.020,-3.422,-6.241,86.238,18.497
20:00:47:015,45.862,1.904,0.996,1.251,-6.791,87.323,13.150
20:00:47:043,45.890,0.073,0.166,-1.957,-7.349,86.156,9.019
20:00:47:068,45.915,-0.894,0.122,-0.094,-7.904,86.779,3.912
20:00:47:095,45.941,0.165,0.703,-0.749,-8.751,85.792,2.221
20:00:47:12,45.967,0.223,-0.075,-0.240,-8.228,85.340,0.811
20:00:47:147,45.993,0.092,0.149,0.046,-7.918,86.756,-0.567
20:00:47:172,46.019,0.109,0.083,0.007,-7.939,87.662,-1.535
20:00:47:198,46.045,0.044,-0.118,0.209,-8.028,88.220,-2.505
20:00:47:224,46.071,-0.397,0.055,0.249,-8.414,88.229,-3.060
20:00:47:25,46.097,-0.246,-0.161,0.347,-8.314,89.540,-4.473
20:00:47:277,46.123,-0.046,-0.092,0.456,-7.927,90.562,-5.497
20:00:47:307,46.153,-0.053,0.006,0.231,-7.691,91.053,-7.479
20:00:47:307,46.154,-0.136,-0.016,0.298,-7.343,91.689,-9.972
20:00:47:359,46.205,-0.112,0.123,0.237,-6.868,92.229,-11.863
20:00:47:359,46.206,0.088,0.221,0.229,-5.676,93.451,-15.148
20:00:47:411,46.258,0.194,0.421,0.521,-4.597,94.587,-17.672
20:00:47:411,46.258,0.070,0.524,0.785,-2.712,96.032,-22.123
20:00:47:434,46.280,0.109,0.475,1.420,-0.421,97.593,-28.083
20:00:47:462,46.308,-0.206,0.235,2.057,1.649,98.882,-33.014
20:00:47:516,46.362,-1.211,0.318,2.966,5.661,101.279,-43.246
20:00:47:516,46.363,-0.892,0.178,1.699,11.191,102.113,-52.819
20:00:47:539,46.386,-0.598,-1.866,1.365,19.944,101.569,-61.088
20:00:47:567,46.413,-0.477,-1.299,1.168,20.793,100.996,-63.503
20:00:47:592,46.439,-0.329,-1.363,0.525,14.913,99.712,-63.401
20:00:47:618,46.464,-0.168,-1.229,0.464,6.690,99.110,-59.165
20:00:47:644,46.490,-0.076,-1.114,0.544,2.722,99.107,-54.112
20:00:47:67,46.516,0.115,-0.768,0.723,-1.342,99.307,-44.923
20:00:47:698,46.545,0.169,-0.412,0.712,-3.351,99.100,-38.034
20:00:47:753,46.600,0.188,-0.101,0.716,-5.512,98.201,-26.894
20:00:47:753,46.600,0.109,0.436,0.422,-7.683,96.107,-14.913
20:00:47:804,46.651,0.073,0.898,0.015,-9.205,94.125,-6.570
20:00:47:805,46.652,-0.234,1.324,-1.657,-11.060,90.621,5.030
20:00:47:829,46.676,-0.120,0.936,-2.559,-11.737,89.121,11.545
20:00:47:854,46.701,-0.155,-0.229,-3.152,-12.791,89.074,18.197
20:00:47:88,46.727,0.107,-0.642,-3.059,-13.521,89.350,19.589
20:00:47:937,46.783,1.424,0.329,-0.253,-13.475,88.229,17.354
20:00:47:937,46.784,0.523,0.866,-2.508,-12.939,84.867,10.751
20:00:47:959,46.806,-0.126,0.410,0.144,-12.624,84.169,6.650
20:00:47:986,46.832,0.019,0.445,-1.560,-12.347,82.015,2.934
20:00:48:011,46.858,0.324,0.170,-0.161,-12.158,81.982,1.387
20:00:48:038,46.884,0.060,0.080,0.168,-11.881,83.819,-0.623
20:00:48:064,46.910,0.195,-0.053,0.107,-12.438,85.336,-2.504
20:00:48:12,46.966,-0.215,0.074,0.241,-12.936,85.450,-3.159
20:00:48:12,46.967,-0.356,-0.076,0.181,-13.410,86.529,-4.664
20:00:48:143,46.990,-0.122,-0.082,0.403,-13.214,88.100,-5.942
20:00:48:169,47.016,-0.183,0.027,0.218,-12.852,89.390,-7.874
20:00:48:195,47.042,-0.290,-0.066,0.276,-12.532,89.516,-9.426
20:00:48:222,47.068,-0.092,0.057,0.008,-11.925,90.898,-12.192
20:00:48:306,47.153,0.048,0.086,0.217,-10.978,92.149,-15.302
20:00:48:307,47.153,0.173,0.139,0.290,-10.227,93.400,-17.551
20:00:48:308,47.154,0.208,0.263,0.499,-9.235,94.702,-21.230
20:00:48:327,47.173,0.159,0.403,0.665,-8.611,95.650,-24.133
20:00:48:382,47.229,0.045,0.523,0.879,-7.424,97.226,-29.505
20:00:48:383,47.229,-0.465,0.293,2.039,-5.173,99.851,-36.640
20:00:48:406,47.252,-0.807,-0.139,2.997,-3.165,102.471,-42.649
20:00:48:432,47.278,-0.495,0.459,1.297,0.504,104.825,-53.245
20:00:48:488,47.334,0.331,-2.076,2.309,3.714,105.682,-58.973
20:00:48:488,47.335,0.085,-1.496,0.641,8.840,108.201,-60.464
20:00:48:569,47.415,0.163,-1.499,0.616,9.195,109.983,-59.682
20:00:48:57,47.416,0.382,-1.216,0.746,5.491,113.327,-54.733
20:00:48:57,47.417,0.701,-0.779,0.722,0.858,116.645,-46.724
20:00:48:592,47.439,1.010,-0.590,0.688,-1.531,118.844,-40.019
20:00:48:615,47.462,1.073,0.013,0.618,-4.982,121.009,-29.416
20:00:48:642,47.488,1.027,0.263,0.510,-7.204,121.186,-21.693
20:00:48:671,47.517,0.695,0.925,0.003,-9.681,120.420,-9.205
20:00:48:694,47.540,-0.244,1.223,-0.950,-11.547,119.454,2.598
20:00:48:721,47.568,-1.166,1.136,-2.103,-12.676,119.770,9.456
20:00:48:747,47.594,-1.298,-0.252,-2.879,-14.322,122.803,15.864
20:00:48:773,47.620,-1.512,-0.328,-2.491,-15.036,124.767,16.894
20:00:48:858,47.705,0.476,0.944,-1.083,-14.190,125.777,13.451
20:00:48:859,47.705,-0.218,1.021,-1.146,-12.912,125.447,9.943
20:00:48:859,47.706,-0.445,-0.043,-0.104,-11.285,123.482,4.860
20:00:48:908,47.755,-0.637,0.173,-0.780,-10.208,121.846,1.747
20:00:48:908,47.755,0.099,-0.016,-0.097,-9.657,122.750,0.230
20:00:48:931,47.777,0.096,0.079,-0.045,-9.681,124.486,-1.444
20:00:48:957,47.803,-0.057,0.008,0.138,-10.129,125.329,-2.225
20:00:48:983,47.829,-0.142,0.063,0.365,-10.931,126.190,-2.884
20:00:49:037,47.883,-0.166,-0.100,0.432,-11.155,127.757,-4.056
20:00:49:064,47.911,0.068,-0.146,0.411,-11.004,128.923,-5.020
20:00:49:065,47.911,-0.006,-0.007,0.323,-10.800,129.803,-6.621
20:00:49:088,47.935,-0.156,-0.089,0.418,-10.474,130.362,-7.987
20:00:49:115,47.962,-0.111,0.044,0.286,-9.815,131.780,-10.470
20:00:49:142,47.988,-0.045,0.056,0.226,-9.151,132.921,-12.393
20:00:49:168,48.015,0.056,0.118,0.183,-8.141,134.768,-15.496
20:00:49:195,48.041,0.256,0.250,0.252,-7.218,136.637,-18.839
20:00:49:248,48.094,0.342,0.366,0.335,-6.701,137.910,-21.306
20:00:49:249,48.095,0.551,0.463,0.477,-5.840,140.102,-25.730
20:00:49:271,48.118,0.718,0.297,0.890,-4.809,141.805,-29.388
20:00:49:298,48.145,1.035,0.095,1.767,-2.656,145.066,-36.415
20:00:49:325,48.171,1.517,0.047,1.926,0.397,149.668,-45.301
20:00:49:35,48.197,1.353,0.674,1.798,2.705,152.727,-52.513
20:00:49:377,48.223,-0.792,-0.543,0.598,8.987,155.071,-60.048
20:00:49:462,48.309,1.845,-1.859,1.067,12.961,158.204,-59.483
20:00:49:463,48.309,0.715,-1.396,-0.006,13.880,161.559,-56.365
20:00:49:463,48.309,1.083,-1.116,-0.173,10.310,165.151,-50.005
20:00:49:511,48.357,1.096,-0.798,-0.224,7.108,167.067,-44.388
20:00:49:511,48.358,1.108,-0.478,-0.467,2.863,169.224,-34.609
20:00:49:566,48.413,1.096,0.015,-0.406,0.598,170.056,-27.472
20:00:49:567,48.413,0.919,0.429,-0.424,-2.217,169.631,-15.886
20:00:49:568,48.414,0.168,1.050,-0.304,-3.468,168.323,-7.420
20:00:49:617,48.463,-1.220,1.209,-0.192,-4.261,165.591,5.074
20:00:49:617,48.464,-3.290,0.600,-0.284,-4.784,163.720,15.429
20:00:49:668,48.515,-3.654,-0.807,-0.431,-4.729,164.205,20.346
20:00:49:669,48.515,-3.394,-0.962,-0.665,-5.743,166.142,22.022
20:00:49:693,48.540,2.016,1.746,0.190,-5.776,166.151,18.536
20:00:49:719,48.565,-0.988,-0.002,0.188,-4.491,164.703,13.051
20:00:49:744,48.591,-0.831,0.128,-0.162,-3.714,163.088,9.890
20:00:49:8,48.647,-0.840,0.107,0.064,-3.564,162.380,8.135
20:00:49:8,48.647,-0.016,0.077,0.080,-2.986,163.787,6.531
20:00:49:883,48.730,-0.049,0.036,-0.037,-3.161,164.885,5.519
20:00:49:883,48.730,-0.051,0.009,0.150,-3.669,165.734,4.193
20:00:49:884,48.730,-0.022,-0.012,0.414,-3.932,165.927,3.532
20:00:49:903,48.750,0.032,-0.100,0.361,-4.197,167.128,2.244
20:00:49:929,48.776,0.160,0.040,0.202,-3.957,168.621,0.683
20:00:49:985,48.831,-0.052,0.011,0.283,-3.769,169.069,-0.551
20:00:49:985,48.831,-0.006,-0.062,0.404,-3.285,170.032,-2.786
20:00:50:037,48.884,-0.025,0.108,0.211,-2.911,171.007,-4.411
20:00:50:037,48.884,0.011,0.173,0.116,-2.118,172.686,-7.180
20:00:50:059,48.906,0.212,0.304,0.045,-1.365,174.542,-10.231
20:00:50:115,48.962,0.380,0.430,0.070,-0.854,175.749,-12.575
20:00:50:116,48.962,0.656,0.531,0.180,0.192,177.598,-16.999
20:00:50:141,48.987,0.958,0.545,0.325,1.213,179.036,-20.807
20:00:50:193,49.040,2.009,0.350,1.180,3.225,-178.295,-28.242
20:00:50:194,49.040,1.769,1.505,1.084,5.001,-175.829,-34.560
20:00:50:217,49.064,1.494,-0.362,0.890,9.583,-172.658,-46.466
20:00:50:243,49.090,2.244,-1.129,-0.031,14.990,-170.815,-51.875
20:00:50:269,49.116,0.580,-1.562,-0.097,16.680,-168.967,-51.921
20:00:50:296,49.142,0.525,-1.290,-0.222,14.164,-165.606,-48.145
20:00:50:324,49.170,0.733,-1.041,-0.435,11.073,-164.109,-43.692
20:00:50:349,49.196,0.567,-0.738,-0.407,5.965,-162.612,-35.193
20:00:50:374,49.221,0.674,-0.308,-0.617,1.699,-161.503,-24.899
20:00:50:43,49.276,0.572,0.046,-0.589,-0.419,-161.276,-17.370
20:00:50:43,49.277,0.324,0.617,-0.500,-3.243,-162.268,-5.131
20:00:50:453,49.300,-0.464,1.122,0.052,-4.704,-164.020,3.618
20:00:50:508,49.355,-1.451,1.225,0.550,-6.440,-167.023,16.097
20:00:50:509,49.355,-3.005,0.240,0.938,-7.237,-167.849,22.944
20:00:50:534,49.380,-3.021,-1.188,0.852,-8.584,-167.204,29.818
20:00:50:588,49.435,-2.759,-0.782,1.018,-9.511,-166.477,30.833
20:00:50:588,49.435,-1.686,0.600,-0.948,-8.834,-166.878,27.618
20:00:50:669,49.515,-1.944,0.558,0.042,-7.454,-168.068,20.897
20:00:50:669,49.516,-0.119,-0.126,0.576,-6.693,-168.380,17.267
20:00:50:67,49.517,-1.100,-0.017,0.509,-5.769,-170.025,14.021
20:00:50:718,49.565,-0.270,-0.052,0.039,-5.495,-168.665,12.106
20:00:50:719,49.565,-0.232,0.179,0.002,-5.862,-167.463,11.192
20:00:50:744,49.591,-0.059,-0.010,0.187,-6.766,-166.366,9.971
20:00:50:8,49.646,0.149,0.036,0.387,-7.253,-166.183,9.472
20:00:50:8,49.647,0.038,-0.118,0.433,-7.772,-165.067,8.294
20:00:50:848,49.694,0.214,-0.045,0.136,-7.905,-163.682,7.342
20:00:50:876,49.722,0.131,0.060,0.152,-7.933,-162.255,5.751
20:00:50:877,49.723,0.214,-0.083,0.364,-7.747,-160.887,3.680
20:00:50:901,49.747,0.125,-0.043,0.307,-7.561,-159.662,2.033
20:00:50:983,49.830,-0.086,0.049,0.202,-7.069,-157.815,-0.810
20:00:50:984,49.831,-0.064,0.124,0.129,-6.665,-155.766,-2.841
20:00:50:985,49.831,0.060,0.282,-0.045,-6.074,-153.860,-6.084
20:00:51:033,49.880,0.295,0.486,-0.088,-5.693,-151.869,-8.528
20:00:51:034,49.881,0.343,0.623,-0.116,-4.957,-149.747,-13.092
20:00:51:058,49.904,1.035,0.560,-0.110,-3.677,-146.683,-19.180
20:00:51:112,49.958,2.291,0.872,0.064,-2.690,-143.554,-24.532
20:00:51:113,49.959,1.986,1.280,-0.649,-0.487,-137.777,-35.019
20:00:51:135,49.982,0.972,-0.633,-0.285,1.692,-134.699,-42.758
20:00:51:161,50.008,0.937,-1.516,-0.633,6.031,-131.252,-47.275
20:00:51:188,50.035,0.438,-1.503,-0.680,6.126,-127.217,-46.423
20:00:51:216,50.062,0.371,-1.219,-0.608,3.635,-124.951,-43.813
20:00:51:241,50.087,0.327,-0.727,-1.004,-1.325,-121.959,-37.009
20:00:51:296,50.143,-0.171,-0.423,-1.002,-4.446,-120.625,-31.192
20:00:51:296,50.143,-0.290,-0.114,-1.148,-8.257,-118.929,-21.012
20:00:51:319,50.166,-0.451,0.363,-1.028,-11.109,-118.325,-9.738
20:00:51:404,50.251,-0.518,0.645,-0.632,-12.540,-119.225,-1.481
20:00:51:405,50.252,-0.897,0.993,0.337,-14.364,-122.222,11.708
20:00:51:406,50.252,-1.111,1.000,1.570,-15.445,-124.016,19.726
20:00:51:424,50.271,-1.683,-0.372,2.649,-16.930,-124.687,29.487
20:00:51:45,50.297,-1.573,-1.295,2.717,-17.943,-123.876,33.352
20:00:51:506,50.353,-1.671,-1.815,2.714,-18.996,-122.521,34.494
20:00:51:507,50.353,0.830,2.518,-2.149,-17.257,-122.894,29.336
20:00:51:529,50.376,-0.247,-0.124,1.280,-15.677,-123.262,25.949
20:00:51:556,50.402,-0.442,-0.205,0.656,-13.794,-124.001,21.658
20:00:51:582,50.428,-0.467,-0.070,0.570,-12.894,-124.053,19.666
20:00:51:608,50.455,-0.247,0.077,0.203,-12.738,-122.212,17.541
20:00:51:636,50.483,-0.071,-0.034,0.267,-13.381,-121.012,16.002
20:00:51:662,50.508,-0.079,-0.008,0.283,-13.818,-120.575,15.206
20:00:51:687,50.533,0.190,0.044,0.185,-14.178,-119.788,14.147
20:00:51:713,50.559,0.131,-0.064,0.100,-14.248,-118.679,13.018
20:00:51:739,50.585,0.123,0.005,0.142,-14.058,-117.078,11.174
20:00:51:765,50.612,0.259,0.014,0.218,-13.692,-115.645,9.064
20:00:51:794,50.641,0.241,-0.074,0.060,-13.496,-114.421,7.428
20:00:51:82,50.667,-0.028,0.098,0.192,-12.947,-112.406,4.629
20:00:51:845,50.692,-0.186,0.191,0.124,-12.473,-111.016,2.537
20:00:51:87,50.717,-0.253,0.242,-0.016,-11.781,-108.824,-0.818
