Time,Second,AccelerationX,AccelerationY,AccelerationZ,EulerAnglesX,EulerAnglesY,EulerAnglesZ
20:00:01:16,0.000,-0.006,0.001,-0.004,-9.089,-2.024,1.080
20:00:01:188,0.028,-0.005,0.002,-0.004,-9.089,-2.024,1.080
20:00:01:215,0.055,-0.005,0.001,0.003,-9.089,-2.024,1.080
20:00:01:239,0.079,-0.006,0.001,-0.005,-9.089,-2.024,1.080
20:00:01:267,0.107,-0.006,0.002,-0.011,-9.089,-2.024,1.080
20:00:01:293,0.133,-0.008,0.001,-0.005,-9.089,-2.024,1.080
20:00:01:319,0.159,-0.007,0.004,-0.009,-9.089,-2.024,1.080
20:00:01:344,0.184,-0.008,0.001,-0.004,-9.089,-2.024,1.080
20:00:01:372,0.212,-0.008,0.004,-0.009,-9.090,-2.039,1.086
20:00:01:397,0.237,-0.007,0.001,0.000,-9.088,-2.038,1.076
20:00:01:423,0.263,-0.010,0.003,-0.008,-9.091,-2.043,1.061
20:00:01:449,0.289,-0.008,0.000,0.000,-9.088,-2.071,1.043
20:00:01:475,0.315,-0.008,0.001,-0.007,-9.090,-2.090,1.025
20:00:01:532,0.372,-0.006,0.003,0.003,-9.091,-2.113,1.001
20:00:01:532,0.372,-0.007,0.002,-0.004,-9.088,-2.121,0.982
20:00:01:554,0.394,-0.006,-0.001,-0.002,-9.089,-2.135,0.958
20:00:01:58,0.420,-0.004,0.002,-0.001,-9.087,-2.149,0.944
20:00:01:606,0.446,-0.004,0.002,0.001,-9.088,-2.172,0.921
20:00:01:632,0.472,-0.008,0.002,-0.008,-9.086,-2.176,0.907
20:00:01:661,0.501,-0.006,0.001,-0.003,-9.086,-2.176,0.907
20:00:01:662,0.502,-0.009,0.001,-0.005,-9.086,-2.176,0.907
20:00:01:711,0.551,-0.010,0.002,0.000,-9.086,-2.176,0.907
20:00:01:741,0.581,-0.007,0.004,-0.009,-9.086,-2.176,0.907
20:00:01:741,0.581,-0.007,0.003,0.000,-9.087,-2.171,0.911
20:00:01:793,0.633,-0.012,0.001,-0.004,-9.086,-2.156,0.905
20:00:01:794,0.634,-0.011,-0.001,-0.004,-9.086,-2.146,0.904
20:00:01:819,0.659,-0.005,0.002,0.000,-9.086,-2.146,0.904
20:00:01:843,0.683,-0.005,0.002,-0.001,-9.086,-2.146,0.904
20:00:01:869,0.709,-0.010,0.000,-0.002,-9.086,-2.146,0.904
20:00:01:925,0.765,-0.009,0.000,0.000,-9.086,-2.146,0.904
20:00:01:926,0.766,-0.005,0.002,0.001,-9.086,-2.146,0.904
20:00:01:947,0.787,-0.006,0.000,0.000,-9.085,-2.151,0.900
20:00:01:974,0.814,-0.007,0.001,0.002,-9.085,-2.151,0.900
20:00:02:,0.840,-0.016,0.001,-0.012,-9.085,-2.151,0.900
20:00:02:026,0.866,-0.010,0.001,-0.003,-9.085,-2.151,0.900
20:00:02:054,0.894,-0.007,0.004,0.000,-9.085,-2.151,0.900
20:00:02:079,0.919,-0.008,0.002,-0.001,-9.085,-2.151,0.900
20:00:02:105,0.945,-0.007,0.002,-0.007,-9.085,-2.151,0.900
20:00:02:131,0.971,-0.007,0.000,0.003,-9.085,-2.151,0.900
20:00:02:157,0.997,-0.015,0.002,-0.006,-9.085,-2.151,0.900
20:00:02:184,1.024,-0.012,0.000,0.002,-9.075,-2.155,0.896
20:00:02:21,1.050,-0.008,-0.002,-0.008,-9.070,-2.181,0.904
20:00:02:236,1.076,-0.008,0.004,0.002,-9.071,-2.206,0.911
20:00:02:262,1.102,-0.007,0.001,0.005,-9.061,-2.216,0.913
20:00:02:289,1.129,-0.008,-0.002,0.002,-9.055,-2.221,0.909
20:00:02:315,1.155,-0.008,-0.002,0.003,-9.086,-2.156,0.905
20:00:02:341,1.181,0.001,-0.010,0.001,-9.152,-1.968,0.886
20:00:02:397,1.237,-0.029,0.014,0.028,-9.180,-1.755,0.910
20:00:02:397,1.237,-0.007,0.026,0.001,-9.247,-1.591,0.867
20:00:02:449,1.289,0.076,0.081,-0.039,-9.076,-1.460,0.982
20:00:02:45,1.290,0.003,-0.005,-0.044,-8.808,-1.383,1.222
20:00:02:473,1.312,-0.025,-0.013,-0.009,-8.286,-1.146,1.694
20:00:02:499,1.339,-0.118,-0.016,0.121,-7.873,-0.883,2.216
20:00:02:525,1.365,0.005,-0.016,0.067,-7.659,-0.805,2.519
20:00:02:552,1.392,-0.031,-0.018,0.057,-7.530,-0.559,2.850
20:00:02:578,1.418,0.007,-0.023,-0.003,-7.581,-0.385,3.028
20:00:02:633,1.473,-0.046,0.020,0.018,-7.744,-0.172,3.290
20:00:02:633,1.473,0.022,-0.039,0.023,-7.919,-0.060,3.462
20:00:02:657,1.497,0.023,-0.027,0.050,-8.224,0.135,3.753
20:00:02:712,1.552,-0.005,-0.023,0.006,-8.643,0.430,4.083
20:00:02:712,1.552,0.020,-0.046,0.013,-8.965,0.639,4.298
20:00:02:735,1.575,0.017,-0.051,0.013,-9.481,0.882,4.594
20:00:02:763,1.603,-0.051,-0.018,0.042,-9.839,1.039,4.785
20:00:02:846,1.685,-0.063,-0.017,0.015,-10.484,1.305,5.085
20:00:02:847,1.687,0.012,-0.026,-0.004,-11.210,1.423,5.346
20:00:02:847,1.687,-0.005,0.101,-0.020,-11.735,1.522,5.532
20:00:02:867,1.707,-0.004,0.132,-0.102,-12.445,1.461,5.778
20:00:02:893,1.733,-0.042,0.097,0.022,-12.733,1.284,5.986
20:00:02:919,1.759,0.075,0.053,-0.093,-12.923,0.857,6.380
20:00:02:974,1.814,-0.039,0.060,0.006,-12.874,0.437,6.701
20:00:02:975,1.815,0.143,0.002,-0.077,-12.534,-0.276,7.302
20:00:02:997,1.837,-0.039,0.034,-0.108,-11.878,-1.399,8.171
20:00:03:054,1.894,0.266,0.011,-0.252,-11.256,-2.192,8.884
20:00:03:078,1.918,-0.063,0.174,-0.004,-9.267,-3.951,11.658
20:00:03:157,1.997,0.071,0.181,0.044,-7.168,-5.252,13.665
20:00:03:187,2.027,0.166,0.269,0.047,-4.379,-6.454,15.665
20:00:03:188,2.028,0.295,0.504,-0.021,-2.360,-7.348,17.007
20:00:03:188,2.028,0.536,0.557,0.018,1.018,-8.579,19.137
20:00:03:207,2.047,1.061,0.408,-0.140,3.499,-9.678,20.629
20:00:03:292,2.132,1.409,0.142,-0.431,7.668,-10.464,23.683
20:00:03:293,2.133,1.807,0.093,-0.682,11.907,-10.105,28.423
20:00:03:294,2.134,1.880,1.038,-1.184,14.775,-9.149,33.240
20:00:03:424,2.264,1.110,0.219,-1.525,20.457,-5.678,43.890
20:00:03:425,2.265,2.183,-1.660,-0.822,24.121,-4.264,48.958
20:00:03:425,2.265,1.284,-1.848,-0.571,24.233,-1.999,48.834
20:00:03:479,2.319,0.938,-1.879,-0.302,23.265,-1.006,47.120
20:00:03:48,2.320,1.211,-1.283,-0.148,18.879,-0.738,41.079
20:00:03:481,2.321,0.511,-0.600,-0.649,12.047,0.528,32.817
20:00:03:482,2.322,0.371,-0.459,-0.712,7.454,1.188,25.884
20:00:03:496,2.336,-0.136,0.497,-0.578,0.799,1.578,13.625
20:00:03:524,2.364,-1.711,1.931,0.169,-3.729,2.140,5.502
20:00:03:636,2.476,-3.127,1.423,1.213,-9.987,3.662,-4.636
20:00:03:637,2.477,-4.282,0.466,2.246,-15.378,3.451,-11.643
20:00:03:638,2.478,-3.693,-0.874,2.861,-16.503,2.679,-12.032
20:00:03:742,2.582,-1.491,1.328,2.043,-11.768,9.576,-5.937
20:00:03:743,2.583,-1.166,-0.829,-0.446,-10.384,9.562,-1.844
20:00:03:743,2.583,-0.449,0.365,-0.249,-10.065,8.155,0.138
20:00:03:744,2.584,0.370,0.276,0.177,-8.929,5.595,2.588
20:00:03:761,2.601,-0.052,0.243,-0.452,-7.536,4.836,4.815
20:00:03:786,2.626,0.181,0.312,-0.478,-5.818,4.101,6.521
20:00:03:873,2.713,0.318,0.642,0.039,-2.483,2.975,9.452
20:00:03:873,2.713,0.996,0.906,-0.463,0.278,1.877,11.769
20:00:03:874,2.714,1.412,0.458,-0.561,5.276,-0.147,16.114
20:00:03:875,2.715,2.750,-0.003,-1.244,11.313,-1.209,23.185
20:00:03:973,2.813,2.979,-0.313,-1.688,16.049,-0.740,29.716
20:00:03:973,2.813,1.069,0.114,-2.523,26.614,2.259,43.072
20:00:04:001,2.841,2.521,-2.848,-1.518,33.976,2.839,47.928
20:00:04:002,2.842,2.130,-3.078,-1.186,35.103,5.488,47.297
20:00:04:002,2.842,1.252,-2.087,-1.118,28.259,8.843,42.322
20:00:04:138,2.978,1.026,-1.540,-0.774,21.851,9.461,34.919
20:00:04:138,2.978,0.598,-0.566,-1.240,12.192,10.704,21.858
20:00:04:138,2.978,-1.188,1.163,-1.549,5.981,11.812,11.726
20:00:04:138,2.978,-2.690,2.591,1.631,-3.231,13.242,-3.951
20:00:04:156,2.996,-3.540,0.943,4.195,-8.554,15.817,-11.423
20:00:04:156,2.996,-3.049,-1.113,4.266,-12.326,19.286,-17.545
20:00:04:238,3.078,-1.993,1.092,0.795,-7.634,22.954,-11.137
20:00:04:239,3.079,-1.531,2.704,1.256,-5.252,25.454,-5.821
20:00:04:239,3.079,-0.504,-2.782,0.455,-1.771,22.935,-0.181
20:00:04:287,3.127,0.576,0.237,-0.069,-0.535,22.233,2.286
20:00:04:287,3.127,0.159,0.840,0.022,2.300,21.711,5.075
20:00:04:31,3.150,-0.076,0.302,0.037,5.221,21.854,8.378
20:00:04:336,3.176,0.332,1.076,-0.064,7.167,21.558,9.928
20:00:04:392,3.231,1.174,1.290,-1.478,11.248,21.523,14.650
20:00:04:393,3.232,1.658,0.977,-1.905,15.119,22.795,19.399
20:00:04:471,3.311,1.496,-0.180,-3.068,20.269,26.450,28.057
20:00:04:472,3.312,-0.176,-0.648,-1.587,24.887,28.727,35.029
20:00:04:497,3.337,2.418,-2.189,-3.217,27.132,30.956,35.204
20:00:04:498,3.338,1.037,-2.139,-2.489,23.846,35.528,30.582
20:00:04:601,3.441,0.300,-1.828,-2.413,18.717,39.182,25.550
20:00:04:663,3.503,-1.298,1.310,-1.896,10.669,44.064,14.386
20:00:04:663,3.503,-2.972,2.422,2.310,7.143,46.667,5.229
20:00:04:663,3.503,-2.439,1.781,3.504,1.016,49.520,-5.994
20:00:04:663,3.503,-0.505,-0.020,5.101,-4.120,49.439,-9.884
20:00:04:711,3.551,0.283,1.005,5.873,-4.043,49.359,-7.480
20:00:04:711,3.551,0.121,1.379,-0.588,0.749,52.673,-2.334
20:00:04:712,3.552,0.032,-1.227,1.198,3.173,52.503,1.558
20:00:04:758,3.598,0.119,0.241,-0.154,5.794,51.510,4.302
20:00:04:786,3.626,0.020,0.314,-0.033,7.428,52.528,5.840
20:00:04:786,3.626,0.324,0.741,-0.121,9.767,53.079,8.378
20:00:04:84,3.680,0.301,1.208,-1.122,12.644,54.177,11.927
20:00:04:84,3.680,-0.152,1.211,-1.921,14.964,55.600,15.189
20:00:04:861,3.701,-0.476,-0.178,-3.126,19.426,57.588,20.686
20:00:04:888,3.728,-0.262,0.061,-1.663,23.304,58.247,26.210
20:00:04:914,3.754,-2.239,0.136,-0.295,30.146,61.611,36.995
20:00:04:94,3.780,0.153,-1.491,-3.296,33.632,61.800,36.423
20:00:04:996,3.836,-0.340,-2.087,-1.639,33.626,64.733,34.807
20:00:04:996,3.836,-0.725,-1.647,-2.012,28.031,70.937,31.743
20:00:05:019,3.859,-1.359,-0.945,-0.927,21.178,76.917,28.683
20:00:05:045,3.885,-1.584,-0.404,-0.463,11.302,85.347,21.424
20:00:05:071,3.911,-1.208,0.882,1.014,4.790,91.443,10.252
20:00:05:126,3.966,-1.049,0.997,2.208,1.669,92.538,1.481
20:00:05:153,3.993,-0.445,1.015,3.994,-4.507,90.553,-10.510
20:00:05:154,3.994,1.376,0.455,4.413,-9.880,87.555,-15.552
20:00:05:177,4.017,2.173,-0.373,3.870,-15.142,84.554,-17.520
20:00:05:202,4.042,4.107,0.108,2.331,-15.063,84.742,-15.328
20:00:05:258,4.098,0.569,1.467,1.432,-9.168,92.954,-8.064
20:00:05:259,4.099,-1.267,-1.803,0.496,-8.020,95.284,-3.443
20:00:05:283,4.123,-0.599,0.227,1.676,-7.571,94.365,-0.443
20:00:05:309,4.149,0.697,0.626,-1.165,-6.405,91.652,2.923
20:00:05:334,4.174,-0.417,0.399,0.479,-5.106,92.120,5.206
20:00:05:362,4.202,-0.061,0.531,0.296,-2.876,91.186,8.806
20:00:05:387,4.227,0.038,0.804,-0.809,0.271,88.690,12.241
20:00:05:413,4.253,-1.139,0.959,-1.547,2.989,87.695,14.738
20:00:05:468,4.308,-1.119,0.116,-2.039,8.248,86.188,20.632
20:00:05:468,4.308,-1.358,-0.023,-3.769,12.671,84.422,26.767
20:00:05:492,4.332,-2.392,0.233,-2.132,23.772,84.498,40.376
20:00:05:632,4.472,-1.252,-3.183,-4.025,32.337,85.672,47.638
20:00:05:633,4.473,-0.825,-2.645,-1.425,34.529,89.492,50.348
20:00:05:633,4.473,-0.926,-1.845,-1.340,26.642,94.444,47.047
20:00:05:634,4.474,-0.790,-1.740,-1.083,19.597,95.981,40.685
20:00:05:65,4.490,-0.787,-0.476,-0.553,9.250,96.794,27.489
20:00:05:678,4.518,-0.429,0.723,0.347,3.974,95.688,16.709
20:00:05:678,4.518,0.394,2.282,1.605,-5.902,94.082,-1.167
20:00:05:705,4.545,2.700,1.132,4.615,-15.097,96.453,-16.755
20:00:05:728,4.568,4.038,-0.447,4.299,-18.932,99.380,-22.704
20:00:05:756,4.596,4.107,-0.534,4.044,-17.261,100.435,-20.649
20:00:05:811,4.651,2.562,1.665,4.168,-12.810,102.156,-12.203
20:00:05:811,4.651,0.099,-0.023,0.905,-9.818,99.475,-5.737
20:00:05:833,4.673,0.131,0.407,0.836,-7.807,98.917,-1.081
20:00:05:888,4.728,0.074,-0.090,-0.471,-5.433,97.573,3.012
20:00:05:889,4.729,0.016,0.363,-0.271,-2.680,96.542,6.344
20:00:05:911,4.751,-0.298,0.341,0.215,-0.653,96.448,8.833
20:00:05:939,4.779,-0.174,1.027,-0.985,2.825,95.162,12.794
20:00:05:966,4.806,-0.379,1.186,-0.851,5.806,94.997,16.803
20:00:05:991,4.831,-1.359,0.011,-2.053,11.398,94.961,22.864
20:00:06:049,4.889,-1.248,0.724,-1.412,17.064,95.377,29.639
20:00:06:049,4.889,-2.564,0.776,-0.521,23.196,96.946,38.688
20:00:06:05,4.890,-2.320,-0.272,-3.637,35.395,93.392,46.429
20:00:06:098,4.938,-0.454,-2.664,-3.244,41.916,90.840,47.449
20:00:06:099,4.939,-0.921,-2.446,-1.712,41.735,95.027,50.072
20:00:06:18,5.020,-0.371,-2.387,-0.149,33.290,98.994,47.630
20:00:06:18,5.020,-0.971,-1.748,-0.887,24.640,100.151,41.186
20:00:06:181,5.021,-1.303,-0.673,-0.031,12.248,101.687,27.065
20:00:06:23,5.070,-0.716,0.123,0.402,6.329,100.546,14.795
20:00:06:231,5.071,1.428,2.446,2.267,-3.918,98.254,-4.236
20:00:06:281,5.121,4.030,1.255,4.229,-11.195,99.519,-14.206
20:00:06:308,5.148,4.903,-0.597,3.656,-16.236,105.503,-22.701
20:00:06:308,5.148,-2.509,3.206,-2.184,-10.792,109.476,-17.320
20:00:06:332,5.172,1.540,-0.685,3.770,-7.895,110.664,-10.799
20:00:06:387,5.227,-0.148,-1.751,1.094,-6.244,109.186,-6.010
20:00:06:44,5.280,0.546,0.705,0.117,-3.026,107.309,-2.909
20:00:06:441,5.281,0.357,0.022,0.134,-1.160,107.227,-0.460
20:00:06:498,5.338,0.014,0.361,0.152,0.959,108.175,2.320
20:00:06:498,5.338,-0.174,0.593,-0.049,2.325,107.631,4.188
20:00:06:498,5.338,-0.857,1.533,-1.403,5.123,106.385,8.627
20:00:06:544,5.384,-2.565,1.492,-2.500,8.546,106.875,13.684
20:00:06:57,5.410,-2.667,-0.226,-1.828,14.132,109.975,24.118
20:00:06:597,5.437,-3.338,-2.957,-2.664,17.747,112.216,29.554
20:00:06:598,5.438,-2.413,-3.145,-1.946,19.768,114.458,28.475
20:00:06:68,5.520,-2.320,-2.149,-0.940,15.150,119.430,21.919
20:00:06:681,5.521,-2.562,-0.265,0.423,10.503,123.034,15.237
20:00:06:698,5.538,2.134,1.338,3.610,2.512,133.299,-3.470
20:00:06:864,5.704,4.134,-0.661,1.615,-2.221,134.660,-9.201
20:00:06:864,5.704,5.844,1.687,0.556,-3.668,130.702,-8.194
20:00:06:865,5.705,-3.482,2.693,-1.704,-0.340,132.623,-4.762
20:00:06:893,5.732,0.967,-0.973,1.196,3.413,134.232,-0.726
20:00:06:893,5.732,-0.208,0.321,-0.433,4.930,132.182,1.447
20:00:06:893,5.733,0.317,0.253,0.105,6.869,131.757,3.219
20:00:06:894,5.733,-0.035,0.561,-0.194,8.233,132.141,4.596
20:00:06:938,5.778,-0.297,0.899,-0.284,10.257,133.022,6.604
20:00:06:939,5.779,-0.992,0.986,-0.306,13.155,133.834,10.255
20:00:06:963,5.803,-1.912,0.784,0.026,15.611,134.856,13.431
20:00:07:075,5.915,-2.853,0.133,-0.127,20.091,136.511,19.368
20:00:07:075,5.915,-2.090,0.758,0.066,23.825,137.616,25.458
20:00:07:076,5.916,-0.522,-1.539,1.859,30.994,141.955,34.928
20:00:07:207,6.047,-1.955,-1.972,0.882,30.962,149.572,33.233
20:00:07:207,6.047,-1.428,-1.538,0.852,24.255,156.668,28.926
20:00:07:208,6.048,-1.090,-0.404,1.224,18.496,161.471,24.484
20:00:07:226,6.066,1.208,1.001,1.368,5.298,174.515,4.174
20:00:07:227,6.067,2.304,1.132,0.746,1.830,175.677,-4.292
20:00:07:391,6.231,3.706,0.218,-0.235,-4.091,176.082,-14.879
20:00:07:392,6.232,4.387,-0.166,-2.127,-7.687,176.087,-19.039
20:00:07:393,6.233,3.372,0.419,-3.906,-8.319,176.138,-17.508
20:00:07:393,6.233,3.430,1.838,-0.707,-3.575,179.193,-9.911
20:00:07:443,6.283,0.451,-1.470,0.185,-2.433,-178.101,-5.127
20:00:07:444,6.284,0.396,0.369,0.419,-1.293,-177.810,-1.325
20:00:07:444,6.284,-0.241,0.838,-0.376,-1.087,-178.890,-0.568
20:00:07:445,6.285,0.078,-0.127,0.500,0.163,-179.334,1.662
20:00:07:46,6.300,0.193,0.108,0.380,0.799,-179.287,2.837
20:00:07:486,6.326,-0.051,0.347,0.400,2.130,179.666,4.755
20:00:07:515,6.355,-0.397,0.292,0.004,4.184,178.398,6.857
20:00:07:568,6.408,-0.323,0.306,-0.023,5.958,177.585,8.711
20:00:07:569,6.409,-0.448,0.317,0.228,9.178,176.821,12.003
20:00:07:65,6.490,-1.434,0.144,0.379,11.526,176.183,14.440
20:00:07:65,6.490,-1.807,0.082,0.538,15.869,175.656,19.550
20:00:07:651,6.491,-2.174,0.529,2.089,19.449,176.100,24.825
20:00:07:699,6.539,-1.312,1.430,2.440,27.709,177.229,36.825
20:00:07:7,6.540,-0.341,-0.702,1.457,37.691,179.127,45.963
20:00:07:752,6.592,-2.383,-1.726,1.323,41.231,177.859,45.493
20:00:07:752,6.592,-1.015,-1.863,0.737,40.204,179.935,42.337
20:00:07:775,6.615,-0.475,-1.280,0.832,35.827,-176.466,39.362
20:00:07:802,6.642,-0.228,-0.811,1.058,26.684,-171.461,32.390
20:00:07:829,6.669,-0.187,-0.225,1.224,18.525,-166.966,22.881
20:00:07:885,6.725,0.230,-0.020,1.123,13.410,-162.908,15.824
20:00:07:885,6.725,1.454,1.235,0.646,6.594,-156.479,3.612
20:00:07:906,6.746,2.721,1.544,-0.686,2.696,-153.382,-4.667
20:00:07:932,6.772,2.974,0.411,-1.703,-3.042,-150.797,-16.330
20:00:07:959,6.799,2.872,-1.028,-3.152,-7.451,-149.977,-22.011
20:00:08:015,6.855,2.460,-1.387,-3.031,-12.309,-150.220,-24.632
20:00:08:015,6.855,-1.051,1.428,-2.482,-11.600,-150.528,-20.389
20:00:08:096,6.936,0.534,0.860,-0.907,-7.420,-148.186,-13.566
20:00:08:097,6.937,-1.288,2.446,-1.882,-4.870,-146.010,-5.565
20:00:08:097,6.937,2.262,-2.567,-0.063,-3.236,-144.954,-3.767
20:00:08:117,6.957,-0.520,0.413,0.738,-1.348,-145.516,-1.244
20:00:08:143,6.983,-0.154,0.156,0.226,0.114,-147.090,0.757
20:00:08:201,7.041,0.226,-0.114,0.352,1.197,-146.370,2.311
20:00:08:201,7.041,-0.193,0.189,0.078,2.616,-146.485,3.717
20:00:08:202,7.042,-0.018,0.418,0.261,3.430,-147.030,4.623
20:00:08:338,7.178,-0.250,0.268,0.237,5.217,-147.443,6.564
20:00:08:338,7.178,-0.091,0.075,0.260,6.692,-147.680,8.001
20:00:08:338,7.178,0.066,0.444,0.314,9.349,-147.772,10.577
20:00:08:338,7.178,-0.612,0.177,0.849,12.528,-148.428,13.484
20:00:08:354,7.194,-0.989,0.202,1.451,15.255,-148.983,16.031
20:00:08:411,7.251,-1.159,0.096,1.945,20.403,-148.764,22.324
20:00:08:412,7.252,-0.541,1.468,2.143,24.775,-147.735,28.399
20:00:08:413,7.253,1.185,-0.099,1.337,34.455,-144.066,40.258
20:00:08:431,7.271,-0.758,-1.395,2.325,40.871,-142.949,43.531
20:00:08:485,7.325,-0.222,-1.804,1.432,42.115,-141.811,42.951
20:00:08:542,7.382,0.189,-1.455,1.078,39.031,-136.388,40.958
20:00:08:543,7.383,0.587,-1.103,0.877,34.237,-132.149,38.486
20:00:08:543,7.383,0.931,-0.774,0.872,25.679,-126.833,32.165
20:00:08:592,7.432,0.929,-0.216,0.719,17.961,-122.033,23.785
20:00:08:592,7.432,1.116,-0.042,0.492,13.000,-118.504,17.794
20:00:08:616,7.456,1.379,1.045,-0.079,6.195,-113.809,7.978
20:00:08:641,7.481,1.424,0.855,-1.422,2.258,-111.833,1.181
20:00:08:667,7.507,1.080,0.750,-2.628,-4.053,-109.545,-9.298
20:00:08:694,7.534,-0.218,0.101,-3.345,-8.932,-109.837,-14.737
20:00:08:72,7.560,-0.590,-0.930,-3.682,-15.598,-111.529,-18.980
20:00:08:746,7.586,-2.298,0.174,-2.553,-16.626,-110.100,-17.333
20:00:08:774,7.613,-0.653,2.485,2.421,-12.937,-106.783,-12.478
20:00:08:799,7.639,0.212,1.289,-1.310,-9.024,-103.009,-4.948
20:00:08:825,7.665,0.508,-1.223,-1.711,-7.696,-101.092,-2.367
20:00:08:851,7.691,-0.243,0.117,-0.533,-6.502,-100.102,1.118
20:00:08:88,7.720,-1.013,0.134,0.433,-5.557,-103.368,2.867
20:00:08:905,7.745,-0.046,0.115,0.173,-4.742,-103.306,4.603
20:00:08:988,7.828,0.342,0.030,-0.019,-3.842,-102.739,6.585
20:00:08:989,7.829,0.435,0.189,0.488,-2.821,-104.100,7.733
20:00:08:99,7.830,0.307,0.177,0.165,-1.200,-105.000,9.704
20:00:09:038,7.878,0.029,0.236,0.183,0.197,-105.492,11.263
20:00:09:041,7.881,0.087,0.601,0.525,3.194,-106.732,13.770
20:00:09:09,7.930,-0.047,0.069,1.113,6.889,-108.242,16.877
20:00:09:091,7.931,0.313,0.217,1.686,9.777,-108.617,20.100
20:00:09:172,8.012,0.656,0.008,2.351,15.157,-108.749,27.014
20:00:09:173,8.013,1.106,1.648,1.902,19.957,-108.228,33.533
20:00:09:174,8.014,1.440,0.360,1.134,30.927,-106.245,45.610
20:00:09:362,8.202,0.532,-1.916,2.510,38.273,-105.846,48.952
20:00:09:363,8.203,0.317,-2.071,1.172,37.783,-104.030,48.821
20:00:09:363,8.203,0.471,-1.644,0.924,30.886,-100.451,45.390
20:00:09:363,8.203,0.523,-1.460,0.608,24.496,-99.396,41.176
20:00:09:385,8.225,0.544,-0.625,0.691,14.135,-98.644,32.126
20:00:09:386,8.226,0.370,0.137,0.469,4.917,-97.609,21.353
20:00:09:386,8.226,0.293,1.019,0.143,-0.661,-96.407,12.974
20:00:09:387,8.227,-0.399,1.739,-1.907,-7.871,-95.519,-0.255
20:00:09:572,8.412,-0.937,0.683,-4.047,-12.106,-95.164,-8.370
20:00:09:572,8.412,-2.135,-0.355,-4.228,-17.979,-93.470,-17.077
20:00:09:572,8.412,-1.461,-1.287,-3.491,-19.527,-92.089,-19.000
20:00:09:572,8.412,-1.058,0.738,0.447,-17.563,-90.464,-16.682
20:00:09:597,8.437,-1.525,1.568,-2.488,-13.337,-87.771,-9.176
20:00:09:597,8.437,-0.489,0.033,-1.033,-11.798,-87.864,-3.788
20:00:09:597,8.437,0.269,0.048,-0.934,-10.144,-86.820,-0.225
20:00:09:598,8.438,0.071,0.033,0.529,-8.847,-88.121,1.847
20:00:09:613,8.453,-0.028,0.329,0.732,-7.266,-91.024,3.733
20:00:09:669,8.509,0.752,0.018,-0.219,-5.570,-91.014,6.175
20:00:09:669,8.509,0.275,0.224,-0.017,-4.264,-91.649,7.532
20:00:09:75,8.590,0.056,0.405,0.306,-2.002,-93.549,10.028
20:00:09:751,8.591,-0.004,0.516,0.304,-0.023,-94.437,11.958
20:00:09:751,8.591,0.289,0.432,0.562,3.363,-95.680,15.076
20:00:09:772,8.612,0.313,0.249,1.336,6.154,-96.914,17.545
20:00:09:856,8.696,0.550,0.104,1.808,11.335,-97.926,23.046
20:00:09:856,8.696,2.019,0.278,2.377,18.046,-98.311,31.642
20:00:09:856,8.696,2.020,1.149,1.216,24.746,-97.749,39.715
20:00:09:877,8.717,0.820,-2.156,1.874,36.596,-95.510,49.036
20:00:09:903,8.743,0.557,-2.009,1.717,39.670,-94.658,49.823
20:00:09:955,8.795,0.613,-1.613,0.641,37.473,-90.726,49.014
20:00:09:983,8.823,0.626,-1.349,0.498,29.561,-87.840,44.698
20:00:09:984,8.824,0.614,-0.917,0.403,22.922,-86.783,39.485
20:00:10:008,8.848,0.650,-0.375,0.603,13.841,-86.209,29.200
20:00:10:061,8.901,0.519,0.056,0.614,8.236,-85.709,21.711
20:00:10:062,8.902,0.298,1.310,-0.151,0.101,-84.108,9.292
20:00:10:219,9.059,-0.850,2.021,-1.489,-5.040,-83.380,0.977
20:00:10:22,9.060,-1.264,1.213,-2.797,-11.583,-81.627,-10.574
20:00:10:252,9.092,-3.100,-0.812,-3.896,-16.766,-78.430,-19.050
20:00:10:253,9.093,-2.024,-1.331,-2.986,-17.947,-76.520,-20.553
20:00:10:253,9.093,-2.431,1.163,-0.912,-15.399,-76.019,-16.578
20:00:10:254,9.094,-1.007,0.391,-3.186,-11.985,-74.664,-9.574
20:00:10:273,9.113,-0.637,0.718,0.251,-10.461,-75.254,-3.816
20:00:10:273,9.113,-0.043,-0.557,-0.642,-8.404,-75.619,-0.992
20:00:10:325,9.165,-0.190,0.443,0.258,-7.919,-76.818,-0.185
20:00:10:325,9.165,-0.009,0.189,0.272,-6.679,-78.582,1.421
20:00:10:348,9.188,0.385,0.035,-0.311,-5.851,-79.036,3.061
20:00:10:374,9.214,0.220,0.354,0.238,-4.146,-80.549,4.816
20:00:10:402,9.242,0.127,0.196,0.172,-1.790,-82.072,6.913
20:00:10:428,9.268,0.160,0.017,0.305,0.103,-82.336,8.628
20:00:10:456,9.296,0.356,0.381,0.226,3.639,-82.802,11.777
20:00:10:456,9.296,0.240,0.303,0.742,6.449,-83.834,14.105
20:00:10:509,9.349,0.575,0.134,1.595,11.719,-84.556,18.910
20:00:10:51,9.350,1.586,0.236,1.639,15.718,-83.811,23.885
20:00:10:561,9.401,2.326,1.587,1.313,22.939,-83.080,34.978
20:00:10:562,9.402,1.625,-0.231,0.004,33.169,-79.109,45.814
20:00:10:614,9.454,1.995,-1.797,2.233,36.308,-78.381,46.883
20:00:10:616,9.456,0.922,-2.019,0.514,35.207,-74.474,45.195
20:00:10:667,9.507,0.788,-1.638,0.167,31.176,-72.002,42.497
20:00:10:667,9.507,0.905,-1.090,0.196,22.849,-69.215,34.627
20:00:10:688,9.528,1.264,-0.654,-0.127,14.754,-66.443,23.603
20:00:10:745,9.585,0.981,0.254,-0.600,9.530,-64.494,14.904
20:00:10:745,9.585,-0.178,1.130,-1.775,2.116,-61.659,0.224
20:00:10:768,9.608,-1.654,2.220,-2.509,-3.379,-59.938,-8.357
20:00:10:794,9.634,-4.138,0.167,-2.813,-10.578,-57.206,-17.687
20:00:10:82,9.660,-3.832,-1.646,-1.926,-12.599,-54.561,-19.571
20:00:10:846,9.686,-2.590,-0.394,-0.894,-10.373,-51.664,-16.753
20:00:10:872,9.712,-2.584,-0.147,-3.217,-6.209,-47.100,-8.968
20:00:10:928,9.768,0.922,-0.771,1.574,-5.760,-48.158,-7.712
20:00:10:929,9.769,-0.087,-1.220,-1.024,-3.386,-47.826,-3.491
20:00:10:952,9.792,-0.192,0.461,-0.256,-2.985,-47.553,-2.459
20:00:11:036,9.876,0.180,0.113,0.434,-1.194,-48.934,-0.878
20:00:11:037,9.877,-0.055,-0.074,-0.142,0.379,-47.935,0.815
20:00:11:039,9.879,-0.027,0.242,0.045,1.463,-47.904,1.937
20:00:11:115,9.955,0.243,0.204,0.009,3.291,-48.553,3.604
20:00:11:115,9.955,0.260,0.255,-0.009,4.681,-48.748,4.854
20:00:11:116,9.956,0.303,0.427,0.131,7.239,-48.880,6.868
20:00:11:165,10.005,0.767,0.278,0.347,10.496,-48.823,9.655
20:00:11:165,10.005,0.891,0.337,0.314,13.226,-48.404,12.601
20:00:11:187,10.027,1.916,0.082,0.339,18.219,-47.795,18.548
20:00:11:214,10.054,2.426,0.431,-0.287,22.179,-46.810,23.974
20:00:11:242,10.082,1.555,0.718,-1.282,30.728,-44.010,33.845
20:00:11:268,10.108,1.105,-0.745,-0.861,35.192,-41.662,38.068
20:00:11:321,10.161,1.758,-1.587,-0.170,36.867,-37.182,39.843
20:00:11:462,10.302,1.117,-1.399,-0.526,33.895,-30.874,38.936
20:00:11:462,10.302,0.994,-1.247,-0.715,29.717,-27.024,36.274
20:00:11:462,10.302,0.601,-0.659,-0.758,22.254,-22.087,29.934
20:00:11:462,10.302,0.454,-0.369,-0.803,17.567,-19.188,24.514
20:00:11:511,10.351,0.551,-0.176,-0.910,11.231,-14.414,15.423
20:00:11:512,10.352,-0.429,1.091,-1.346,5.140,-8.487,5.462
20:00:11:513,10.353,-1.148,1.035,-1.138,1.713,-5.541,-1.470
20:00:11:513,10.353,-2.450,0.962,-0.397,-3.513,-2.129,-12.134
20:00:11:584,10.424,-3.312,0.295,0.104,-7.195,-1.017,-17.853
20:00:11:585,10.425,-3.557,-0.740,1.017,-13.528,-1.801,-22.935
20:00:11:722,10.562,-3.196,-0.860,1.531,-15.618,-2.110,-22.601
20:00:11:722,10.562,-0.955,0.637,3.457,-14.190,-2.016,-17.507
20:00:11:723,10.563,-2.476,0.057,0.523,-9.223,1.278,-9.548
20:00:11:724,10.564,-0.181,2.092,1.191,-8.608,3.256,-6.498
20:00:11:747,10.587,-1.648,-1.344,-0.608,-6.460,5.521,-3.713
20:00:11:747,10.587,0.587,0.749,0.124,-6.570,3.638,-2.286
20:00:11:747,10.587,0.869,0.284,0.119,-5.614,1.312,-0.375
20:00:11:766,10.606,-0.701,0.231,-0.428,-4.605,2.666,1.331
20:00:11:822,10.662,0.052,-0.056,-0.278,-3.741,1.768,2.408
20:00:11:822,10.662,0.263,0.060,-0.177,-2.464,0.141,3.951
20:00:11:844,10.684,-0.029,0.133,0.010,-1.175,-0.184,5.465
20:00:11:873,10.713,0.009,0.101,-0.053,1.304,-0.855,8.091
20:00:11:926,10.766,0.158,0.452,-0.234,3.247,-1.398,9.946
20:00:11:926,10.766,0.303,0.379,-0.058,6.350,-2.517,12.794
20:00:12:007,10.847,1.028,0.329,-0.140,10.052,-3.448,15.988
20:00:12:008,10.848,1.267,0.274,-0.318,12.999,-3.161,19.156
20:00:12:009,10.849,1.679,-0.015,-1.205,18.131,-2.463,25.579
20:00:12:057,10.897,2.226,1.164,-2.230,22.160,-1.972,31.994
20:00:12:057,10.897,0.272,-0.473,-2.073,33.200,1.140,44.458
20:00:12:109,10.949,1.215,-1.455,-1.129,40.448,1.631,48.116
20:00:12:11,10.950,1.478,-1.784,-0.765,41.657,1.155,46.981
20:00:12:161,11.001,0.575,-1.511,-0.555,38.866,3.174,43.750
20:00:12:162,11.002,0.419,-1.133,-0.632,33.895,4.799,40.593
20:00:12:243,11.083,0.214,-0.872,-0.705,25.155,7.092,33.738
20:00:12:245,11.085,0.440,-0.272,-0.783,16.425,9.547,24.640
20:00:12:245,11.085,0.306,-0.006,-0.647,11.025,11.857,18.009
20:00:12:264,11.104,-0.207,0.798,-0.519,3.848,16.197,6.885
20:00:12:319,11.159,-0.767,1.603,-0.142,-0.444,19.142,-0.709
20:00:12:32,11.160,-2.349,1.094,0.709,-5.394,22.861,-12.024
20:00:12:343,11.183,-2.986,-0.191,2.278,-8.478,25.340,-18.396
20:00:12:427,11.267,-2.961,-0.973,3.242,-13.128,27.592,-23.561
20:00:12:428,11.268,-2.226,-1.083,2.641,-13.029,27.804,-21.861
20:00:12:429,11.269,2.920,1.597,1.910,-11.169,28.175,-17.835
20:00:12:449,11.289,-2.311,0.460,1.784,-6.779,30.021,-8.947
20:00:12:475,11.315,1.694,0.321,-0.304,-6.529,31.158,-5.866
20:00:12:529,11.369,-1.288,-0.272,0.089,-3.808,31.327,-3.428
20:00:12:53,11.370,0.091,0.769,0.316,-3.259,29.449,-1.844
20:00:12:552,11.392,0.575,0.194,-0.065,-2.205,28.639,-0.710
20:00:12:612,11.452,-0.260,-0.281,-0.037,-0.694,28.848,1.391
20:00:12:612,11.452,0.099,0.190,-0.270,0.394,28.647,2.172
20:00:12:612,11.452,0.096,0.184,-0.278,2.144,27.555,3.855
20:00:12:69,11.530,0.185,0.079,-0.081,3.483,27.344,5.103
20:00:12:69,11.530,0.050,0.118,-0.135,5.909,27.392,7.129
20:00:12:691,11.531,0.162,0.490,-0.383,8.686,27.464,9.420
20:00:12:799,11.639,0.647,0.358,-0.592,10.867,27.181,11.170
20:00:12:799,11.639,0.768,0.200,-0.849,15.123,27.444,15.056
20:00:12:8,11.640,0.987,0.362,-1.676,18.566,28.184,19.055
20:00:12:801,11.641,0.878,0.921,-2.759,24.645,30.077,27.773
20:00:12:815,11.655,-0.818,-0.397,-1.935,31.492,33.544,36.093
20:00:12:871,11.711,-0.246,-1.225,-1.519,38.164,38.925,43.243
20:00:12:872,11.712,-0.063,-1.586,-1.398,39.286,44.439,43.728
20:00:12:895,11.735,-0.450,-1.265,-0.842,37.443,48.694,42.532
20:00:12:92,11.760,-0.608,-1.031,-0.702,31.854,53.840,38.642
20:00:12:946,11.786,-0.721,-0.864,-0.741,27.316,56.772,34.489
20:00:13:003,11.843,-0.886,-0.625,-0.633,20.120,61.290,27.078
20:00:13:003,11.843,-1.034,-0.285,-0.521,13.530,66.248,18.647
20:00:13:056,11.896,-1.265,0.047,-0.289,9.431,69.828,12.471
20:00:13:056,11.896,-1.389,0.945,0.584,3.920,74.416,2.790
20:00:13:079,11.919,-1.582,0.885,2.215,0.544,77.467,-3.916
20:00:13:134,11.974,0.356,-0.508,4.137,-13.011,78.851,-18.285
20:00:13:157,11.996,1.209,-0.793,3.769,-15.843,77.224,-17.557
20:00:13:183,12.023,4.085,2.324,-2.176,-15.375,76.492,-12.862
20:00:13:211,12.051,-0.088,0.259,3.348,-11.448,81.074,-8.730
20:00:13:236,12.076,0.758,0.071,-1.389,-8.799,86.365,-4.477
20:00:13:263,12.103,-0.359,0.048,1.142,-7.458,88.355,-0.714
20:00:13:288,12.128,0.418,0.343,-0.553,-7.451,85.689,0.858
20:00:13:314,12.154,0.406,0.157,-0.356,-6.489,83.838,2.721
20:00:13:342,12.182,-0.606,0.243,0.605,-5.879,84.728,4.097
20:00:13:368,12.208,-0.180,-0.137,-0.392,-4.765,83.161,5.942
20:00:13:393,12.233,-0.245,0.045,-0.208,-4.013,81.998,6.885
20:00:13:421,12.261,-0.404,0.097,-0.281,-2.456,81.539,8.907
20:00:13:446,12.286,-0.186,0.127,-0.095,-0.366,80.580,11.250
20:00:13:471,12.311,-0.065,0.394,-0.199,1.379,79.728,12.943
20:00:13:497,12.337,0.091,0.427,-0.471,4.446,78.140,15.747
20:00:13:524,12.364,0.124,0.138,-0.943,6.791,77.264,17.821
20:00:13:579,12.419,-0.329,0.204,-1.253,10.797,77.632,22.230
20:00:13:58,12.420,-0.915,-0.011,-1.845,15.935,78.153,28.585
20:00:13:603,12.443,-1.712,0.977,-2.164,20.547,78.327,34.898
20:00:13:658,12.498,-1.908,-0.378,-1.102,32.308,80.619,46.982
20:00:13:659,12.499,-0.575,-1.463,-1.686,38.678,80.918,50.836
20:00:13:682,12.522,-0.461,-1.794,-1.451,41.562,81.499,51.755
20:00:13:761,12.601,-0.487,-1.603,-0.613,39.489,83.050,50.847
20:00:13:792,12.632,-0.470,-1.347,-0.600,31.451,84.345,46.569
20:00:13:793,12.633,-0.404,-0.905,-0.434,21.780,84.195,39.478
20:00:13:794,12.634,-0.389,-0.550,-0.671,15.604,83.844,33.546
20:00:13:9,12.740,-0.213,-0.300,-0.657,6.921,84.328,24.058
20:00:13:901,12.741,-0.242,0.238,-0.539,1.480,85.724,17.077
20:00:13:901,12.741,0.044,1.805,0.465,-6.201,89.091,5.497
20:00:13:902,12.742,0.215,1.129,1.971,-11.880,91.331,-6.163
20:00:13:918,12.758,0.847,0.596,3.254,-15.695,92.723,-13.020
20:00:13:945,12.785,2.393,-0.983,4.195,-21.720,92.772,-19.410
20:00:14:026,12.866,1.747,-0.087,3.286,-23.152,92.420,-19.574
20:00:14:027,12.867,0.975,2.934,-3.088,-19.756,93.513,-13.719
20:00:14:11,12.950,0.752,0.716,2.509,-15.573,95.944,-5.920
20:00:14:111,12.951,0.678,-0.052,-0.286,-14.107,96.606,-3.049
20:00:14:112,12.952,0.040,-0.021,0.449,-12.439,96.994,0.026
20:00:14:128,12.968,0.363,-0.201,-0.205,-10.613,92.932,3.792
20:00:14:181,13.021,-0.539,0.079,0.490,-9.871,93.148,5.383
20:00:14:209,13.049,-0.418,-0.007,0.207,-8.331,91.728,7.366
20:00:14:21,13.050,-0.028,0.224,-0.364,-6.886,88.889,9.514
20:00:14:233,13.073,-0.181,0.216,-0.361,-5.522,88.177,11.017
20:00:14:259,13.099,-0.230,0.036,-0.119,-3.133,87.339,13.307
20:00:14:285,13.125,-0.343,0.045,-0.107,-1.303,86.999,15.014
20:00:14:311,13.151,-0.134,0.377,-0.274,1.715,85.730,17.899
20:00:14:338,13.178,0.005,0.101,-1.118,4.362,83.867,19.820
20:00:14:364,13.204,-0.203,0.116,-1.270,8.875,82.738,23.904
20:00:14:42,13.260,-1.226,0.242,-1.791,14.481,82.371,29.970
20:00:14:421,13.261,-1.935,1.013,-2.397,19.069,81.868,36.214
20:00:14:443,13.283,-1.918,-0.157,-0.928,31.967,83.419,48.553
20:00:14:526,13.366,-1.080,-0.995,-1.646,38.970,83.784,52.093
20:00:14:526,13.366,-0.483,-1.660,-1.420,43.191,84.150,53.510
20:00:14:551,13.391,-0.463,-1.620,-0.403,39.929,86.783,52.279
20:00:14:553,13.393,-0.323,-1.357,-0.357,34.331,87.683,49.763
20:00:14:574,13.414,-0.341,-1.090,-0.390,24.741,88.075,43.547
20:00:14:63,13.470,-0.293,-0.703,-0.560,18.381,88.341,37.912
20:00:14:631,13.471,-0.307,-0.311,-0.702,9.598,89.160,27.895
20:00:14:682,13.522,-0.326,0.232,-0.516,2.220,91.105,16.526
20:00:14:682,13.522,-0.183,1.276,0.082,-2.580,93.305,8.349
20:00:14:736,13.576,0.389,1.448,2.041,-8.905,96.469,-3.618
20:00:14:736,13.576,1.434,0.637,3.107,-12.607,98.595,-11.190
20:00:14:758,13.598,2.547,-0.502,3.818,-17.865,100.928,-19.315
20:00:14:816,13.656,1.974,-0.123,2.228,-19.148,102.345,-20.538
20:00:14:816,13.656,0.794,1.524,-0.471,-15.999,103.820,-15.887
20:00:14:817,13.657,1.199,0.509,3.880,-12.487,105.330,-5.999
20:00:14:866,13.706,2.265,0.896,-1.452,-11.923,105.378,-3.319
20:00:14:867,13.707,0.105,-0.069,0.629,-9.666,104.705,-0.374
20:00:14:918,13.758,0.439,0.700,-0.010,-9.513,103.719,0.615
20:00:14:919,13.759,0.025,-0.202,-0.068,-8.394,102.414,2.505
20:00:14:941,13.781,-0.183,-0.087,0.230,-7.224,101.353,4.234
20:00:14:996,13.836,-0.271,0.173,-0.022,-6.353,100.092,5.017
20:00:14:997,13.837,-0.273,0.121,-0.188,-4.994,98.151,6.344
20:00:15:023,13.862,-0.184,0.066,-0.192,-3.982,97.223,7.204
20:00:15:076,13.916,-0.209,-0.009,-0.145,-1.856,96.208,8.809
20:00:15:077,13.917,-0.270,-0.007,0.003,-0.057,95.840,10.122
20:00:15:128,13.968,-0.024,0.390,-0.130,2.865,95.282,12.493
20:00:15:129,13.969,0.097,0.325,-0.993,6.536,93.889,15.281
20:00:15:152,13.992,-0.425,0.270,-1.465,9.373,93.359,17.710
20:00:15:207,14.047,-1.183,0.059,-1.541,14.068,94.172,23.290
20:00:15:207,14.047,-2.547,1.663,-2.180,16.922,95.060,28.772
20:00:15:288,14.128,-1.550,0.678,-0.595,25.050,98.350,40.283
20:00:15:289,14.129,-1.338,-1.259,-0.076,33.197,102.733,48.492
20:00:15:29,14.130,-1.183,-1.686,-1.130,35.842,102.883,47.974
20:00:15:309,14.149,-0.891,-1.609,-0.326,34.623,106.591,44.467
20:00:15:393,14.233,-0.956,-1.215,-0.126,31.071,109.643,41.257
20:00:15:394,14.234,-1.075,-1.055,0.110,24.337,113.858,34.767
20:00:15:395,14.235,-1.106,-0.639,0.338,17.117,119.186,26.843
20:00:15:414,14.254,-0.915,-0.382,0.733,12.412,123.239,20.663
20:00:15:469,14.309,-0.464,0.645,1.128,6.364,128.852,9.532
20:00:15:47,14.310,0.330,1.122,2.298,2.735,131.721,1.609
20:00:15:626,14.466,2.567,0.565,3.072,-2.515,135.977,-9.503
20:00:15:687,14.527,4.023,-0.107,1.206,-6.924,137.008,-15.461
20:00:15:687,14.527,3.492,-0.777,1.060,-11.210,137.291,-18.058
20:00:15:687,14.527,0.614,2.446,-2.712,-9.876,139.008,-14.569
20:00:15:688,14.528,2.021,0.880,1.002,-6.469,142.831,-9.221
20:00:15:712,14.552,-0.165,-0.767,0.052,-5.362,144.313,-6.408
20:00:15:713,14.553,0.498,0.240,0.545,-4.433,145.175,-4.182
20:00:15:713,14.553,-0.046,0.651,-0.032,-4.344,144.780,-3.074
20:00:15:713,14.553,-0.534,-0.071,-0.645,-3.741,143.408,-1.820
20:00:15:787,14.627,0.218,0.091,0.286,-3.311,144.518,-1.157
20:00:15:788,14.628,-0.653,-0.159,0.068,-1.991,144.301,0.459
20:00:15:789,14.629,-0.457,-0.143,0.583,-0.826,144.480,1.985
20:00:15:837,14.677,0.099,0.113,0.430,1.055,144.629,4.520
20:00:15:838,14.678,0.008,0.270,0.027,2.615,143.865,6.136
20:00:15:861,14.701,-0.396,0.494,-0.554,5.570,142.161,8.448
20:00:15:887,14.727,-0.800,0.582,-0.306,9.217,141.497,11.356
20:00:15:944,14.784,-0.909,0.748,-0.326,12.176,141.994,14.144
20:00:15:944,14.784,-2.222,0.336,-0.314,17.711,142.893,19.546
20:00:15:965,14.805,-3.020,1.404,0.887,21.968,144.060,24.476
20:00:15:991,14.831,-1.229,0.626,1.145,29.871,148.274,36.435
20:00:16:047,14.887,-1.842,-1.871,0.514,36.935,153.636,44.865
20:00:16:048,14.888,-1.711,-1.960,0.480,37.294,155.638,45.275
20:00:16:072,14.912,-1.064,-1.716,0.741,34.229,160.119,42.951
20:00:16:156,14.996,-0.898,-1.096,0.874,29.604,162.646,39.085
20:00:16:157,14.997,-0.690,-0.416,0.861,21.575,165.668,31.048
20:00:16:157,14.997,-0.517,-0.084,0.917,14.494,168.991,21.759
20:00:16:176,15.016,-0.291,0.222,1.181,10.184,172.037,15.368
20:00:16:202,15.042,0.673,1.189,1.470,4.317,177.402,5.088
20:00:16:372,15.212,1.684,0.943,0.925,0.793,-179.434,-2.019
20:00:16:372,15.212,3.034,0.719,-0.064,-4.761,-175.330,-12.776
20:00:16:373,15.213,3.634,-0.164,-1.403,-9.000,-174.872,-18.535
20:00:16:373,15.213,3.535,-1.092,-1.779,-16.016,-175.807,-23.282
20:00:16:447,15.287,2.219,0.484,-1.881,-17.725,-176.187,-21.288
20:00:16:448,15.288,-2.202,2.079,-4.307,-15.135,-174.983,-16.665
20:00:16:448,15.288,3.529,0.213,-0.856,-9.307,-170.204,-8.570
20:00:16:449,15.289,1.776,-2.017,-0.590,-8.488,-168.535,-5.629
20:00:16:467,15.307,0.694,-0.007,-0.264,-6.754,-166.028,-2.849
20:00:16:468,15.308,-0.384,0.688,0.024,-5.783,-168.833,-1.519
20:00:16:491,15.331,-0.492,-0.317,-0.274,-5.127,-170.403,0.035
20:00:16:516,15.356,0.715,0.125,0.401,-4.479,-168.968,1.783
20:00:16:543,15.383,0.219,-0.190,0.324,-4.063,-168.908,2.905
20:00:16:569,15.409,-0.470,0.250,0.072,-3.095,-171.251,4.291
20:00:16:595,15.435,0.071,0.099,0.149,-2.006,-171.377,5.521
20:00:16:622,15.462,-0.073,0.111,0.119,0.295,-172.052,7.824
20:00:16:677,15.517,-0.182,0.480,0.070,2.799,-172.975,10.520
20:00:16:677,15.517,-0.533,0.414,-0.006,4.727,-174.137,12.571
20:00:16:843,15.683,-1.051,0.453,0.326,8.385,-175.397,15.897
20:00:16:843,15.683,-1.407,0.161,0.771,11.377,-175.152,19.054
20:00:16:843,15.683,-1.702,-0.032,1.307,16.759,-174.194,25.298
20:00:16:843,15.683,-1.764,1.103,1.773,22.994,-173.247,34.258
20:00:17:019,15.859,0.449,0.170,1.887,29.751,-170.818,42.410
20:00:17:019,15.859,-1.725,-1.831,1.465,37.012,-168.860,47.303
20:00:17:051,15.891,-0.794,-1.740,0.909,38.379,-165.391,46.541
20:00:17:052,15.892,-0.420,-1.408,0.696,36.295,-163.899,43.146
20:00:17:052,15.892,-0.310,-1.093,0.682,32.279,-163.186,39.450
20:00:17:053,15.893,-0.172,-0.775,0.885,24.060,-161.422,32.290
20:00:17:079,15.919,-0.207,-0.138,1.028,15.561,-158.530,23.626
20:00:17:079,15.919,0.036,0.099,0.955,9.984,-155.754,17.249
20:00:17:08,15.920,0.570,1.399,0.410,2.524,-150.790,6.216
20:00:17:08,15.920,1.411,1.524,-0.636,-1.607,-147.806,-1.382
20:00:17:097,15.937,2.141,0.971,-1.191,-6.842,-143.607,-12.874
20:00:17:097,15.937,1.713,-0.306,-3.011,-12.172,-140.273,-21.825
20:00:17:151,15.991,1.871,-1.352,-3.374,-15.296,-138.658,-25.198
20:00:17:151,15.991,1.617,-1.118,-2.824,-15.156,-136.465,-24.420
20:00:17:201,16.041,-3.353,1.599,-0.140,-13.292,-135.161,-21.136
20:00:17:282,16.122,1.092,0.887,-1.393,-9.231,-133.494,-13.294
20:00:17:283,16.123,-0.504,2.592,-2.281,-7.238,-132.937,-5.133
20:00:17:305,16.145,1.292,-2.693,-0.969,-5.919,-132.167,-3.833
20:00:17:339,16.178,-0.251,0.540,-0.047,-4.771,-133.460,-1.462
20:00:17:34,16.179,-0.573,0.531,0.043,-4.239,-134.873,-0.539
20:00:17:34,16.180,0.067,-0.244,-0.019,-3.182,-134.830,1.324
20:00:17:341,16.181,-0.159,0.201,0.030,-2.247,-134.862,2.293
20:00:17:357,16.197,0.062,0.253,0.503,-0.726,-134.841,3.699
20:00:17:443,16.283,0.148,0.056,0.133,0.757,-134.492,5.331
20:00:17:443,16.283,0.266,-0.151,0.078,2.047,-134.421,6.617
20:00:17:443,16.283,0.131,0.116,0.145,4.313,-134.622,8.863
20:00:17:463,16.303,-0.230,0.418,0.284,5.958,-134.943,10.392
20:00:17:488,16.328,-0.515,0.193,0.640,8.962,-135.907,12.876
20:00:17:514,16.354,-0.517,0.297,1.287,12.960,-135.887,16.859
20:00:17:681,16.521,-0.387,0.254,2.003,16.115,-135.106,20.859
20:00:17:681,16.521,0.076,0.697,2.753,21.952,-132.692,29.444
20:00:17:683,16.523,1.413,0.632,1.738,27.765,-129.628,36.904
20:00:17:683,16.523,0.121,-1.443,2.065,36.175,-125.161,45.205
20:00:17:778,16.618,0.295,-1.730,1.401,38.041,-123.324,45.974
20:00:17:865,16.705,0.502,-1.440,0.926,36.905,-119.364,45.422
20:00:17:865,16.705,0.574,-1.082,0.713,30.392,-114.776,41.329
20:00:17:866,16.706,0.698,-0.843,0.504,24.871,-112.053,36.884
20:00:17:867,16.707,0.734,-0.540,0.521,17.477,-108.366,28.738
20:00:17:892,16.732,0.816,-0.200,0.493,12.965,-105.923,22.560
20:00:17:893,16.733,1.035,0.276,0.065,6.509,-101.154,12.777
20:00:17:893,16.733,1.242,1.158,-0.632,0.498,-96.999,2.355
20:00:17:893,16.733,0.961,0.840,-1.753,-3.211,-94.377,-4.982
20:00:17:996,16.836,-0.143,0.680,-3.488,-9.786,-92.167,-14.638
20:00:17:997,16.837,-1.176,-0.377,-3.809,-14.803,-93.226,-18.887
20:00:17:998,16.838,-1.573,-1.029,-3.780,-19.288,-94.227,-19.530
20:00:17:999,16.839,-4.816,1.531,0.024,-17.018,-93.391,-13.931
20:00:18:044,16.884,-0.124,0.237,-1.589,-13.261,-89.955,-9.289
20:00:18:045,16.885,0.195,0.299,-0.231,-11.518,-88.503,-4.082
20:00:18:046,16.886,-0.117,-0.825,-2.109,-10.968,-86.603,-1.586
20:00:18:065,16.905,-0.499,0.403,0.144,-10.250,-88.777,0.052
20:00:18:121,16.961,-0.376,0.674,0.376,-9.993,-90.808,1.570
20:00:18:122,16.962,-0.006,0.196,0.301,-9.835,-90.343,3.994
20:00:18:144,16.984,0.537,-0.117,-0.102,-8.953,-90.963,6.160
20:00:18:172,17.012,0.143,0.093,0.449,-8.190,-93.349,7.324
20:00:18:198,17.038,0.417,0.034,0.150,-6.751,-94.167,9.492
20:00:18:337,17.177,0.101,0.172,-0.007,-5.574,-94.964,11.074
20:00:18:338,17.178,0.189,0.148,0.171,-3.244,-96.541,13.827
20:00:18:339,17.179,-0.148,0.528,0.354,-0.235,-98.554,16.918
20:00:18:339,17.179,-0.091,0.057,0.988,2.196,-99.970,19.056
20:00:18:461,17.301,0.088,0.182,1.193,6.329,-100.545,23.284
20:00:18:522,17.362,0.585,0.052,1.704,9.604,-100.641,27.126
20:00:18:522,17.362,1.207,0.186,2.271,15.697,-100.854,35.308
20:00:18:522,17.362,1.805,0.413,1.269,22.029,-99.841,42.987
20:00:18:523,17.363,1.295,-0.106,0.731,33.296,-98.579,51.828
20:00:18:601,17.441,0.637,-1.774,1.970,39.774,-97.416,52.564
20:00:18:602,17.442,0.306,-1.806,1.123,39.148,-96.071,51.795
20:00:18:602,17.442,0.456,-1.386,0.662,31.800,-93.865,48.363
20:00:18:602,17.442,0.373,-1.079,0.364,25.371,-93.294,44.400
20:00:18:622,17.462,0.386,-0.847,0.421,15.895,-93.450,36.067
20:00:18:623,17.463,0.284,-0.343,0.692,7.144,-93.406,26.196
20:00:18:623,17.463,0.213,0.103,0.672,1.802,-92.347,19.074
20:00:18:644,17.483,0.012,1.272,0.042,-5.683,-89.099,7.457
20:00:18:756,17.596,-0.202,1.441,-1.439,-9.599,-87.033,-0.525
20:00:18:757,17.597,-0.662,0.904,-2.825,-14.626,-84.383,-11.931
20:00:18:758,17.598,-1.802,-0.680,-3.360,-20.120,-83.042,-19.564
20:00:18:759,17.599,-1.888,-1.316,-3.514,-21.880,-83.109,-20.575
20:00:18:803,17.643,-2.986,0.427,-1.182,-20.084,-83.964,-16.483
20:00:18:804,17.644,1.238,2.688,2.691,-16.600,-82.218,-10.579
20:00:18:854,17.694,-0.626,1.274,-0.614,-14.413,-82.521,-3.712
20:00:18:883,17.723,-0.207,-0.004,-0.956,-12.852,-81.959,-1.781
20:00:18:883,17.723,-0.309,0.244,-0.028,-11.562,-83.541,0.238
20:00:18:963,17.803,-0.481,0.126,0.043,-10.003,-85.705,2.434
20:00:18:964,17.804,0.489,-0.051,-0.191,-9.051,-85.956,4.209
20:00:18:965,17.805,0.486,0.193,-0.223,-7.474,-87.063,6.152
20:00:19:015,17.855,0.035,0.290,0.477,-6.256,-88.887,7.746
20:00:19:015,17.855,-0.001,0.288,0.319,-4.027,-90.264,10.081
20:00:19:037,17.877,0.050,0.063,0.201,-1.220,-90.948,12.549
20:00:19:093,17.933,0.268,0.335,0.071,0.807,-91.088,14.411
20:00:19:093,17.933,0.116,0.217,0.661,4.259,-92.172,17.615
20:00:19:115,17.955,0.127,0.134,1.304,7.014,-93.058,19.907
20:00:19:143,17.983,0.678,0.056,1.646,11.957,-93.028,25.180
20:00:19:197,18.037,1.855,0.258,1.822,17.851,-92.273,33.325
20:00:19:197,18.037,1.305,1.242,1.172,24.201,-91.262,40.833
20:00:19:222,18.062,1.222,-0.253,0.103,34.980,-89.202,50.648
20:00:19:248,18.088,1.180,-1.368,1.841,40.202,-89.958,51.462
20:00:19:273,18.113,0.323,-1.686,0.714,42.074,-87.906,50.366
20:00:19:303,18.143,0.527,-1.348,0.340,38.860,-85.948,48.405
20:00:19:326,18.166,0.528,-1.118,0.175,30.663,-83.966,43.002
20:00:19:351,18.191,0.606,-0.993,0.236,22.037,-82.932,34.916
20:00:19:382,18.222,0.735,-0.445,0.554,16.153,-82.011,28.190
20:00:19:382,18.222,0.683,-0.075,0.371,7.538,-78.832,17.777
20:00:19:462,18.302,0.485,1.126,-0.293,2.437,-75.919,9.953
20:00:19:463,18.303,-0.223,1.509,-1.004,-4.529,-71.884,-1.757
20:00:19:464,18.304,-1.109,1.105,-2.361,-10.327,-67.955,-12.931
20:00:19:486,18.326,-2.214,-0.130,-2.935,-13.857,-65.446,-18.721
20:00:19:509,18.349,-3.186,-1.565,-2.693,-17.623,-62.820,-21.757
20:00:19:594,18.434,-2.863,-0.982,-2.106,-16.478,-62.207,-19.955
20:00:19:594,18.434,1.754,1.978,2.856,-12.419,-60.168,-12.801
20:00:19:595,18.435,-2.568,2.286,-2.174,-10.776,-60.495,-7.402
20:00:19:673,18.513,1.067,0.005,0.378,-9.304,-60.391,-2.977
20:00:19:673,18.513,-0.079,0.175,-0.648,-7.685,-60.533,0.073
20:00:19:674,18.514,-0.468,0.584,0.264,-7.010,-61.468,0.940
20:00:19:693,18.533,0.207,0.166,0.191,-5.489,-62.365,2.853
20:00:19:719,18.559,0.033,0.210,-0.085,-4.379,-62.472,3.886
20:00:19:746,18.586,0.236,0.334,0.051,-3.041,-63.186,5.173
20:00:19:852,18.692,0.272,0.068,0.180,-1.585,-64.064,6.458
20:00:19:877,18.717,0.157,-0.051,0.026,-0.264,-64.464,7.599
20:00:19:912,18.752,0.348,-0.042,-0.177,2.267,-64.743,9.616
20:00:19:912,18.752,0.226,0.288,0.054,3.990,-65.017,11.152
20:00:19:913,18.753,0.219,0.229,0.644,7.146,-65.954,13.694
20:00:19:914,18.754,0.727,0.269,1.027,11.174,-66.206,17.389
20:00:19:929,18.769,1.175,0.232,0.914,14.249,-65.449,20.996
20:00:19:986,18.826,2.892,0.477,0.892,19.404,-63.920,28.737
20:00:19:986,18.826,1.700,0.411,-0.556,25.496,-62.484,36.223
20:00:20:037,18.877,1.227,-0.284,-0.520,35.066,-59.221,44.924
20:00:20:037,18.877,1.607,-1.337,0.528,38.725,-58.655,45.571
20:00:20:061,18.901,1.113,-1.589,0.316,38.959,-54.245,44.226
20:00:20:087,18.927,0.846,-1.229,-0.355,33.718,-48.227,41.639
20:00:20:142,18.981,0.749,-1.018,-0.504,28.694,-45.012,38.292
20:00:20:143,18.982,0.805,-0.783,-0.568,20.886,-40.950,31.362
20:00:20:196,19.036,0.624,-0.280,-0.616,15.935,-38.270,25.611
20:00:20:197,19.037,0.552,-0.092,-0.613,9.275,-34.358,15.989
20:00:20:247,19.087,0.060,0.884,-0.920,3.003,-30.070,5.360
20:00:20:247,19.087,-0.718,0.913,-1.274,-0.604,-27.321,-1.441
20:00:20:272,19.112,-2.473,0.746,-1.246,-5.722,-22.733,-11.669
20:00:20:303,19.143,-3.163,0.133,-0.674,-9.376,-20.652,-17.041
20:00:20:376,19.216,-3.471,-0.818,0.015,-14.259,-19.276,-21.500
20:00:20:408,19.248,-2.900,-0.670,0.553,-15.438,-18.568,-21.195
20:00:20:409,19.249,-1.229,0.865,0.913,-14.209,-17.419,-16.881
20:00:20:409,19.249,-2.134,0.528,-0.676,-10.379,-14.035,-9.509
20:00:20:457,19.297,-0.184,2.536,2.848,-9.959,-13.233,-5.261
20:00:20:457,19.297,-1.112,-2.269,-1.342,-6.678,-11.284,-2.184
20:00:20:509,19.349,0.246,0.314,0.346,-6.494,-12.765,-0.123
20:00:20:51,19.350,0.106,0.493,0.202,-4.896,-14.428,1.675
20:00:20:534,19.374,-0.244,-0.224,-0.151,-2.870,-13.684,4.014
20:00:20:559,19.399,-0.028,0.190,0.068,-1.828,-13.762,5.017
20:00:20:585,19.425,0.149,0.141,-0.053,-0.385,-13.974,6.765
20:00:20:64,19.480,0.188,0.124,0.006,0.588,-13.902,8.117
20:00:20:641,19.481,0.105,0.042,-0.192,2.101,-13.704,10.107
20:00:20:745,19.585,-0.019,0.139,-0.131,3.820,-13.641,11.966
20:00:20:797,19.637,0.279,0.089,-0.056,5.137,-14.009,13.112
20:00:20:91,19.750,0.637,0.128,0.028,7.786,-14.593,15.570
20:00:20:91,19.750,0.801,0.279,-0.106,10.166,-14.446,18.215
20:00:20:912,19.752,1.410,0.351,-0.247,14.794,-14.245,23.323
20:00:20:931,19.771,1.426,0.886,-0.788,25.499,-11.808,37.240
20:00:20:931,19.771,-0.163,-0.669,-1.131,32.700,-8.308,45.169
20:00:21:016,19.856,1.140,-0.832,-0.459,35.031,-7.506,45.787
20:00:21:017,19.857,0.519,-1.096,-0.157,35.514,-5.570,45.415
20:00:21:017,19.857,0.274,-1.032,-0.133,33.967,-3.435,44.268
20:00:21:018,19.858,0.280,-1.023,-0.227,29.516,-2.166,41.015
20:00:21:068,19.908,0.320,-0.861,-0.357,22.964,-0.757,35.976
20:00:21:068,19.908,0.380,-0.655,-0.360,17.967,0.391,31.733
20:00:21:068,19.908,0.387,-0.301,-0.303,10.584,2.529,24.354
20:00:21:068,19.908,0.455,-0.123,-0.178,6.037,4.324,18.907
20:00:21:085,19.925,0.156,0.492,-0.067,-0.001,8.044,10.025
20:00:21:168,20.008,-0.675,1.103,0.204,-3.346,11.025,3.760
20:00:21:169,20.009,-1.603,0.804,0.298,-6.733,14.563,-5.870
20:00:21:17,20.010,-2.509,-0.023,1.001,-9.747,17.416,-13.722
20:00:21:189,20.029,-2.478,-0.448,1.819,-11.900,18.125,-16.609
20:00:21:244,20.084,-1.803,0.236,1.393,-13.114,17.800,-16.523
20:00:21:245,20.085,0.625,1.147,-0.818,-11.837,17.764,-12.655
20:00:21:268,20.107,-0.780,1.881,2.214,-9.977,19.314,-6.925
20:00:21:294,20.134,-0.539,-1.113,0.071,-8.788,19.619,-4.304
20:00:21:32,20.160,-0.297,-0.032,0.413,-8.501,19.610,-2.281
20:00:21:346,20.186,-0.039,0.645,0.194,-8.971,18.926,-1.486
20:00:21:433,20.273,0.021,-0.018,0.154,-8.901,18.382,-0.467
20:00:21:433,20.273,-0.113,0.089,-0.054,-8.886,17.825,1.132
20:00:21:434,20.274,0.082,0.075,-0.112,-8.682,17.307,1.904
20:00:21:451,20.291,0.107,0.086,-0.068,-8.023,15.950,3.144
20:00:21:509,20.349,0.063,-0.007,-0.217,-6.922,14.628,4.442
20:00:21:509,20.349,-0.015,-0.022,-0.228,-5.957,13.557,5.430
20:00:21:561,20.401,-0.078,0.018,-0.241,-4.266,12.025,7.077
20:00:21:561,20.401,0.028,0.160,-0.090,-3.013,10.974,8.214
20:00:21:612,20.452,0.302,0.243,-0.012,-0.748,9.416,10.092
20:00:21:612,20.452,0.554,0.374,0.018,2.331,8.315,12.395
20:00:21:64,20.480,0.856,0.441,-0.052,4.695,7.985,14.447
20:00:21:641,20.481,1.102,0.462,-0.499,8.810,8.401,18.433
20:00:21:777,20.617,1.541,0.583,-2.051,12.254,8.761,21.630
20:00:21:778,20.618,0.999,0.619,-2.018,17.456,10.462,28.854
20:00:21:778,20.618,-0.199,0.615,-1.089,23.353,14.889,39.107
20:00:21:778,20.618,-0.769,-0.577,-0.713,28.076,17.683,44.707
20:00:21:934,20.774,0.759,-1.183,-1.075,31.362,18.216,45.318
20:00:21:935,20.775,0.256,-1.488,-0.540,32.365,19.073,43.765
20:00:21:935,20.775,0.222,-1.162,-0.480,31.213,19.925,40.406
20:00:21:936,20.776,0.201,-1.243,-0.582,28.868,21.249,37.465
20:00:21:986,20.826,0.021,-0.896,-0.700,22.959,24.178,32.087
20:00:21:986,20.826,-0.138,-0.573,-0.754,16.342,27.612,25.347
20:00:21:987,20.827,-0.026,-0.313,-0.831,12.108,30.015,20.047
20:00:21:988,20.828,-0.377,0.308,-0.562,6.062,34.961,11.363
20:00:22:064,20.904,-1.011,0.917,-0.142,2.401,38.567,5.123
20:00:22:065,20.905,-1.807,0.919,0.735,-1.849,44.064,-4.425
20:00:22:065,20.905,-2.185,0.449,2.138,-5.769,48.746,-13.190
20:00:22:11,20.950,-0.838,-0.614,2.961,-13.295,50.003,-19.333
20:00:22:111,20.951,0.336,0.525,2.178,-13.468,50.216,-17.541
20:00:22:135,20.975,-1.486,-0.303,0.618,-9.654,54.653,-10.183
20:00:22:161,21.001,-0.224,-0.404,-0.110,-9.245,56.515,-6.753
20:00:22:188,21.028,-1.334,-1.421,1.212,-6.830,58.236,-4.364
20:00:22:219,21.059,0.529,0.431,-0.011,-6.022,56.358,-1.042
20:00:22:239,21.079,-0.122,0.142,0.141,-5.269,55.754,-0.091
20:00:22:265,21.105,-0.074,0.108,0.042,-3.832,56.208,1.823
20:00:22:291,21.131,0.060,0.224,-0.067,-2.882,55.982,2.847
20:00:22:347,21.187,0.089,0.198,-0.162,-1.366,55.662,4.469
20:00:22:347,21.187,-0.003,0.051,-0.084,0.072,55.742,6.024
20:00:22:371,21.211,-0.147,-0.114,-0.081,1.194,55.714,7.167
20:00:22:397,21.236,-0.249,-0.088,-0.128,3.030,55.609,9.050
20:00:22:423,21.263,-0.264,0.007,-0.080,4.356,55.594,10.407
20:00:22:45,21.290,0.046,0.238,-0.028,6.258,55.578,12.478
20:00:22:477,21.317,0.397,0.177,-0.442,7.745,55.057,13.782
20:00:22:502,21.342,0.297,0.224,-0.703,10.352,54.610,16.089
20:00:22:528,21.368,-0.001,0.240,-1.123,13.580,55.503,19.607
20:00:22:554,21.394,-0.142,0.064,-1.587,16.364,56.011,22.776
20:00:22:58,21.420,-0.212,0.590,-1.832,21.850,56.841,29.676
20:00:22:607,21.447,-0.834,0.998,-1.205,26.811,58.542,36.009
20:00:22:633,21.473,-1.251,0.051,-0.442,34.706,61.534,43.599
20:00:22:659,21.499,-0.341,-0.981,-1.397,38.886,63.350,45.235
20:00:22:716,21.556,-0.331,-1.050,-0.746,38.745,66.075,45.357
20:00:22:716,21.556,-0.429,-1.058,-0.562,35.017,69.822,43.307
20:00:22:738,21.578,-0.364,-0.956,-0.402,31.275,71.268,40.443
20:00:22:764,21.604,-0.363,-0.749,-0.480,24.614,73.033,34.610
20:00:22:793,21.633,-0.455,-0.456,-0.436,17.586,75.314,27.530
20:00:22:846,21.686,-0.438,-0.253,-0.502,12.962,77.330,22.466
20:00:22:846,21.686,-0.634,0.309,-0.354,6.350,81.997,14.340
20:00:22:869,21.709,-0.658,0.757,0.074,2.403,85.963,8.413
20:00:22:895,21.735,-0.700,0.843,0.947,-2.075,91.777,-1.121
20:00:22:922,21.762,-0.277,0.860,2.651,-4.525,95.874,-7.953
20:00:22:95,21.790,0.492,0.172,3.037,-8.528,99.850,-16.961
20:00:23:003,21.843,1.197,-0.754,3.221,-14.468,99.073,-22.856
20:00:23:004,21.844,1.530,-0.754,2.714,-17.478,97.275,-23.382
20:00:23:029,21.869,1.927,0.483,0.506,-18.353,95.073,-19.767
20:00:23:083,21.923,0.295,0.613,1.311,-15.644,96.284,-15.234
20:00:23:109,21.949,-0.047,0.540,2.164,-12.563,99.110,-9.174
20:00:23:109,21.949,0.082,-0.530,1.121,-11.606,101.911,-5.271
20:00:23:162,22.002,0.021,-0.722,0.774,-10.588,101.882,-3.473
20:00:23:213,22.053,-0.052,0.208,0.122,-10.190,98.384,-0.150
20:00:23:214,22.054,-0.164,0.171,0.612,-9.515,99.255,1.832
20:00:23:237,22.077,-0.300,0.141,-0.177,-8.678,96.680,3.291
20:00:23:293,22.133,-0.196,0.169,-0.043,-8.062,95.502,4.037
20:00:23:293,22.133,-0.259,-0.069,0.076,-7.002,94.180,5.444
20:00:23:316,22.156,-0.362,-0.005,-0.112,-6.035,92.962,6.598
20:00:23:372,22.212,-0.027,0.114,0.143,-4.320,91.308,8.689
20:00:23:372,22.212,0.059,0.108,-0.335,-2.083,89.251,10.971
20:00:23:394,22.234,0.055,0.305,-0.419,-0.346,88.190,12.741
20:00:23:42,22.260,0.087,0.358,-0.796,2.654,87.351,15.993
20:00:23:446,22.286,-0.430,0.444,-1.188,5.052,87.352,18.736
20:00:23:473,22.313,-0.854,0.525,-1.532,9.413,88.259,24.212
20:00:23:499,22.339,-2.113,0.790,-1.921,14.721,88.096,32.047
20:00:23:527,22.367,-1.014,0.589,-0.906,20.375,88.725,39.100
20:00:23:61,22.450,-0.947,-1.608,-0.770,29.062,90.365,47.568
20:00:23:611,22.451,-0.656,-1.379,-1.533,31.702,89.620,47.429
20:00:23:611,22.451,-0.318,-1.438,-0.502,31.457,89.308,44.946
20:00:23:659,22.499,-0.228,-1.265,-0.450,28.866,88.725,42.092
20:00:23:66,22.500,-0.319,-1.006,-0.562,22.696,87.597,36.150
20:00:23:765,22.605,-0.357,-0.694,-0.632,15.147,87.202,28.991
20:00:23:766,22.606,-0.335,-0.346,-0.582,9.663,87.775,23.581
20:00:23:789,22.629,-0.341,0.188,-0.568,1.886,89.821,14.539
20:00:23:821,22.661,0.070,1.537,0.447,-3.197,92.315,7.769
20:00:23:822,22.662,0.426,1.183,1.433,-9.570,96.489,-2.796
20:00:23:823,22.663,1.123,0.631,2.781,-14.909,99.079,-12.731
20:00:23:842,22.682,2.075,-0.513,3.201,-18.407,99.821,-17.587
20:00:23:867,22.707,2.181,-0.413,3.073,-21.737,100.554,-19.488
20:00:23:893,22.733,-0.726,2.261,-2.707,-20.193,100.491,-16.642
20:00:23:919,22.759,1.647,0.502,2.934,-16.253,102.956,-9.873
20:00:23:979,22.819,0.829,0.365,-0.995,-15.079,102.835,-6.161
20:00:23:979,22.819,0.325,-0.244,0.950,-13.570,103.372,-3.346
20:00:23:979,22.819,0.240,0.415,-0.117,-12.907,102.216,-1.643
20:00:23:999,22.839,0.285,0.089,-0.098,-12.488,101.010,-0.298
20:00:24:08,22.920,-0.323,-0.059,0.126,-11.580,100.242,1.924
20:00:24:081,22.921,-0.226,0.106,0.304,-10.707,99.806,3.092
20:00:24:106,22.946,-0.200,0.089,-0.078,-9.411,97.916,5.083
20:00:24:106,22.946,-0.164,0.068,-0.038,-7.867,96.760,7.104
20:00:24:187,23.027,-0.012,0.056,0.115,-6.708,96.233,8.448
20:00:24:188,23.028,-0.013,0.155,-0.121,-4.587,95.080,10.708
20:00:24:189,23.029,-0.050,0.271,-0.254,-2.975,94.443,12.345
20:00:24:21,23.050,-0.026,0.309,-0.589,-0.364,93.538,15.294
20:00:24:234,23.074,-0.150,0.275,-0.920,3.163,93.024,19.039
20:00:24:26,23.100,-0.639,0.555,-1.183,6.067,93.310,22.325
20:00:24:287,23.127,-2.257,0.515,-1.246,11.832,93.228,28.576
20:00:24:313,23.153,-1.745,1.695,-2.231,16.038,92.138,34.350
20:00:24:339,23.179,-1.280,-0.199,0.252,26.211,94.149,44.974
20:00:24:395,23.235,-1.046,-0.919,-1.107,31.285,94.786,48.409
20:00:24:396,23.236,-0.330,-1.388,-1.000,34.430,93.417,47.358
20:00:24:448,23.288,-0.093,-1.355,-0.492,32.777,93.187,44.304
20:00:24:448,23.288,-0.183,-1.355,-0.346,29.180,93.410,41.408
20:00:24:471,23.311,-0.320,-1.080,-0.317,21.716,93.938,36.012
20:00:24:497,23.337,-0.369,-0.643,-0.534,16.094,94.641,31.504
20:00:24:523,23.363,-0.361,-0.373,-0.548,7.562,96.529,23.496
20:00:24:549,23.389,-0.192,0.204,-0.372,0.250,99.689,14.204
20:00:24:603,23.443,-0.034,1.103,-0.155,-4.097,102.289,7.114
20:00:24:63,23.470,0.416,1.271,1.120,-9.367,106.463,-4.056
20:00:24:631,23.471,0.896,0.941,2.379,-12.165,108.587,-11.577
20:00:24:654,23.494,2.390,-0.360,2.321,-17.046,111.470,-21.071
20:00:24:71,23.550,2.431,-1.297,2.750,-20.647,112.086,-24.791
20:00:24:71,23.550,1.771,0.342,1.826,-21.285,111.678,-24.531
20:00:24:791,23.631,0.444,1.322,-0.095,-17.014,112.800,-18.311
20:00:24:792,23.632,1.465,0.567,1.937,-15.767,112.032,-13.061
20:00:24:792,23.632,0.499,-0.508,0.948,-14.002,111.256,-6.920
20:00:24:814,23.654,0.672,-0.076,1.173,-12.885,111.327,-5.293
20:00:24:837,23.677,0.254,0.170,-0.210,-11.728,109.847,-3.478
20:00:24:864,23.704,0.217,0.008,-0.041,-11.218,108.696,-1.926
20:00:24:892,23.732,-0.139,-0.016,0.134,-10.784,108.332,-0.540
20:00:24:917,23.757,-0.155,-0.012,0.273,-10.015,107.080,1.039
20:00:24:944,23.784,-0.164,0.085,-0.187,-9.567,105.573,1.983
20:00:24:97,23.810,-0.097,0.068,0.061,-8.564,104.119,3.388
20:00:25:055,23.895,-0.192,-0.114,-0.008,-7.204,102.964,4.863
20:00:25:055,23.895,-0.240,-0.022,0.125,-6.150,102.068,5.929
20:00:25:055,23.895,-0.080,0.123,0.077,-4.468,100.976,7.509
20:00:25:075,23.915,0.058,0.280,-0.135,-3.053,100.147,8.707
20:00:25:102,23.942,0.188,0.439,-0.572,-0.343,98.872,11.137
20:00:25:128,23.968,-0.141,0.422,-0.757,2.018,98.501,13.358
20:00:25:267,24.107,-0.394,0.597,-0.825,6.072,98.539,17.444
20:00:25:268,24.108,-1.919,0.476,-1.750,11.175,98.454,22.935
20:00:25:269,24.109,-2.536,0.373,-1.683,14.465,98.519,28.296
20:00:25:269,24.109,-1.205,1.142,-0.582,21.661,102.460,38.371
20:00:25:287,24.127,-1.045,-1.270,0.004,26.716,105.799,43.802
20:00:25:288,24.128,-1.368,-0.993,-1.174,29.378,106.958,43.674
20:00:25:31,24.150,-0.540,-1.426,-0.202,29.372,110.126,40.137
20:00:25:337,24.177,-0.488,-1.207,-0.122,27.394,112.651,37.355
20:00:25:364,24.204,-0.807,-1.103,0.053,22.431,117.153,32.176
20:00:25:447,24.287,-0.791,-0.877,0.401,18.402,120.669,28.049
20:00:25:448,24.288,-0.781,-0.544,0.519,12.536,125.819,20.433
20:00:25:449,24.289,-0.597,-0.033,0.672,8.992,128.932,14.356
20:00:25:555,24.395,-0.387,0.807,0.764,4.128,132.693,4.105
20:00:25:556,24.396,0.364,0.885,1.607,-0.228,136.909,-5.998
20:00:25:557,24.397,1.077,0.747,2.041,-3.155,139.860,-12.408
20:00:25:557,24.397,2.279,0.106,1.262,-8.703,142.644,-20.056
20:00:25:602,24.442,2.782,-0.622,1.020,-12.034,143.626,-23.135
20:00:25:629,24.469,2.688,-0.763,0.683,-14.289,144.387,-23.515
20:00:25:63,24.470,1.349,0.745,-2.401,-12.720,145.782,-18.374
20:00:25:652,24.492,0.874,0.104,0.400,-9.767,148.059,-13.269
20:00:25:707,24.547,1.478,2.370,-0.843,-8.571,149.678,-7.817
20:00:25:708,24.548,1.059,-1.950,0.866,-6.743,150.859,-6.257
20:00:25:732,24.572,0.127,0.454,-0.096,-5.878,149.542,-2.978
20:00:25:787,24.627,-0.075,0.322,-0.151,-5.061,148.482,-1.758
20:00:25:787,24.627,0.106,0.015,0.192,-3.489,148.748,0.096
20:00:25:897,24.737,0.041,0.140,0.036,-1.903,148.209,1.609
20:00:25:898,24.738,-0.104,0.116,-0.003,-0.825,147.928,2.630
20:00:25:899,24.739,0.001,0.120,0.065,0.708,148.126,4.061
20:00:25:899,24.739,-0.035,0.018,0.087,1.695,148.125,5.066
20:00:26:002,24.842,0.014,-0.013,0.111,3.335,148.008,6.619
20:00:26:003,24.843,-0.019,-0.039,0.071,5.197,147.706,8.222
20:00:26:004,24.844,-0.219,0.078,0.082,6.554,147.551,9.334
20:00:26:005,24.845,-0.248,0.261,-0.094,8.863,147.409,11.302
20:00:26:019,24.859,-0.663,0.309,-0.141,10.719,147.541,12.910
20:00:26:126,24.966,-0.915,0.396,-0.024,14.257,150.155,16.503
20:00:26:162,25.002,-2.002,0.335,0.672,18.865,150.862,21.728
20:00:26:162,25.002,-1.953,0.852,1.084,22.813,151.919,27.048
20:00:26:162,25.002,-0.575,0.264,1.145,30.546,155.595,36.498
20:00:26:162,25.002,-1.039,-1.010,0.553,33.997,157.442,40.069
20:00:26:291,25.131,-1.046,-1.115,0.324,35.533,159.355,40.475
20:00:26:291,25.131,-0.510,-1.186,0.336,34.503,163.574,39.741
20:00:26:292,25.132,-0.430,-1.137,0.390,30.339,166.240,37.001
20:00:26:293,25.133,-0.454,-0.948,0.445,24.501,167.755,32.035
20:00:26:389,25.229,-0.463,-0.804,0.420,20.163,168.789,27.789
20:00:26:448,25.288,-0.388,-0.360,0.443,13.538,170.754,20.447
20:00:26:449,25.289,-0.437,-0.133,0.430,9.289,172.517,15.078
20:00:26:45,25.290,-0.247,0.527,0.488,3.075,176.677,6.294
20:00:26:475,25.315,1.605,0.863,0.318,-5.067,-174.449,-9.268
20:00:26:476,25.316,2.650,0.488,-0.523,-9.578,-170.001,-17.884
20:00:26:476,25.316,2.842,-0.608,-1.556,-13.105,-169.040,-22.174
20:00:26:476,25.316,2.608,-0.859,-1.792,-17.021,-167.989,-24.515
20:00:26:521,25.361,1.021,0.020,-2.437,-16.994,-168.495,-22.532
20:00:26:522,25.362,-1.761,1.106,0.617,-12.619,-166.449,-15.708
20:00:26:603,25.443,1.285,0.306,-0.067,-10.642,-165.990,-9.924
20:00:26:603,25.443,0.167,0.290,-0.254,-9.917,-164.639,-7.436
20:00:26:604,25.444,0.657,-0.124,0.264,-8.479,-163.444,-5.496
20:00:26:623,25.463,-0.090,0.411,-0.253,-8.023,-164.902,-3.930
20:00:26:702,25.542,-0.310,0.205,-0.230,-7.384,-166.515,-2.287
20:00:26:735,25.575,0.361,-0.120,0.212,-6.535,-165.793,-0.517
20:00:26:735,25.575,0.528,0.122,0.170,-5.975,-166.049,0.532
20:00:26:735,25.575,-0.202,0.082,-0.041,-5.106,-167.710,2.072
20:00:26:754,25.594,0.073,0.019,0.030,-4.351,-167.849,3.012
20:00:26:81,25.650,0.161,0.019,0.083,-3.067,-168.268,4.492
20:00:26:81,25.650,0.066,0.036,0.181,-1.972,-169.140,5.528
20:00:26:833,25.673,0.008,0.012,0.166,-0.126,-170.333,7.084
20:00:26:859,25.699,-0.098,0.119,0.151,2.048,-171.220,8.724
20:00:26:887,25.727,-0.102,0.285,0.065,3.680,-171.652,9.906
20:00:26:912,25.752,-0.402,0.398,0.106,6.543,-172.408,12.245
20:00:26:939,25.779,-0.634,0.606,0.328,8.763,-170.943,14.154
20:00:26:964,25.804,-0.708,0.526,0.560,12.989,-170.568,17.517
20:00:27:106,25.946,-1.271,0.043,1.290,18.655,-170.245,21.661
20:00:27:106,25.946,-1.153,-0.298,1.928,22.878,-169.107,25.307
20:00:27:106,25.946,-0.892,0.819,1.674,27.589,-166.305,34.714
20:00:27:107,25.947,0.758,0.304,1.285,32.626,-163.162,41.989
20:00:27:179,26.019,-0.639,-0.981,1.088,38.008,-161.238,46.565
20:00:27:179,26.019,-0.684,-1.127,0.898,39.634,-160.596,46.977
20:00:27:207,26.047,-0.202,-1.171,0.457,39.006,-157.242,45.714
20:00:27:207,26.047,-0.203,-1.102,0.497,34.853,-155.339,42.386
20:00:27:208,26.048,-0.130,-1.027,0.446,31.042,-154.622,39.220
20:00:27:256,26.096,-0.147,-0.754,0.539,24.188,-153.657,32.959
20:00:27:257,26.097,-0.142,-0.417,0.625,19.196,-152.688,28.093
20:00:27:394,26.234,-0.131,-0.179,0.642,12.071,-150.501,20.054
20:00:27:395,26.235,0.109,0.451,0.584,5.440,-146.819,11.121
20:00:27:395,26.235,0.415,0.992,0.303,1.441,-143.844,4.646
20:00:27:396,26.236,1.099,0.929,-0.532,-3.464,-140.112,-5.625
20:00:27:466,26.306,1.450,0.916,-0.912,-6.505,-138.030,-12.502
20:00:27:467,26.307,1.381,-0.133,-2.474,-11.516,-135.736,-20.659
20:00:27:495,26.335,1.055,-0.890,-3.035,-15.588,-134.590,-24.584
20:00:27:496,26.336,0.897,-0.783,-2.533,-15.186,-133.345,-23.874
20:00:27:496,26.336,-1.020,1.761,0.864,-10.471,-129.844,-17.218
20:00:27:517,26.357,1.872,-0.116,-1.470,-8.329,-128.604,-11.148
20:00:27:542,26.382,-0.419,0.732,-0.534,-7.107,-128.410,-4.908
20:00:27:568,26.408,1.139,-0.703,-0.788,-5.497,-128.343,-3.584
20:00:27:625,26.465,-0.346,0.545,-0.139,-4.276,-130.204,-0.999
20:00:27:625,26.465,0.277,0.023,0.019,-2.889,-130.699,0.589
20:00:27:646,26.486,0.353,0.068,-0.153,-1.810,-130.547,1.841
20:00:27:702,26.542,-0.117,0.156,0.052,-0.489,-131.410,3.241
20:00:27:703,26.543,0.153,0.060,0.173,0.306,-131.566,4.040
20:00:27:727,26.567,0.093,0.074,0.076,1.528,-131.161,5.465
20:00:27:752,26.592,0.086,-0.079,0.146,2.690,-131.561,6.899
20:00:27:778,26.618,0.153,-0.071,0.150,3.680,-131.908,7.937
20:00:27:804,26.644,0.111,0.005,0.113,5.359,-132.280,9.626
20:00:27:83,26.670,-0.059,0.161,0.196,6.651,-132.555,10.789
20:00:27:856,26.696,-0.218,0.200,0.280,8.940,-132.884,12.807
20:00:27:941,26.781,-0.170,0.242,0.613,11.914,-132.627,15.470
20:00:27:942,26.782,-0.106,0.370,0.975,14.420,-132.142,17.896
20:00:27:943,26.783,0.024,0.326,1.643,19.295,-131.563,22.728
20:00:27:962,26.802,0.551,0.807,2.554,23.193,-131.572,27.036
20:00:28:017,26.857,0.386,0.581,0.976,31.796,-129.470,36.834
20:00:28:018,26.858,1.085,-0.615,0.377,37.506,-126.533,42.534
20:00:28:041,26.881,0.139,-0.856,1.378,41.146,-121.167,45.193
20:00:28:096,26.936,0.210,-1.103,0.503,40.778,-116.172,45.623
20:00:28:097,26.937,0.346,-1.023,0.382,38.377,-112.680,44.832
20:00:28:121,26.961,0.391,-1.032,0.341,32.771,-108.658,41.585
20:00:28:146,26.986,0.451,-0.868,0.382,28.299,-106.518,38.200
20:00:28:229,27.069,0.491,-0.706,0.336,21.383,-103.652,31.548
20:00:28:23,27.070,0.436,-0.417,0.423,14.926,-101.151,23.485
20:00:28:253,27.093,0.592,0.689,0.147,4.766,-95.340,8.287
20:00:28:278,27.118,0.702,1.023,-0.747,1.064,-92.333,2.085
20:00:28:303,27.143,0.417,1.125,-1.919,-3.362,-87.177,-7.635
20:00:28:387,27.227,-0.518,0.075,-2.907,-7.169,-82.387,-15.797
20:00:28:388,27.228,-1.246,-0.437,-2.921,-10.071,-81.471,-19.407
20:00:28:389,27.229,-1.125,-0.532,-2.310,-12.908,-82.579,-20.280
20:00:28:411,27.251,-2.220,0.647,0.695,-12.920,-83.630,-18.090
20:00:28:411,27.251,0.551,0.426,0.447,-9.984,-82.707,-12.215
20:00:28:462,27.302,0.139,0.993,-1.489,-9.061,-82.189,-7.972
20:00:28:549,27.389,-0.640,0.539,-0.197,-8.835,-79.674,-3.994
20:00:28:549,27.389,0.064,-0.031,-0.513,-7.702,-78.668,-2.603
20:00:28:55,27.390,0.078,0.009,0.006,-7.248,-80.441,-1.359
20:00:28:55,27.390,-0.139,0.152,0.184,-6.598,-82.280,-0.152
20:00:28:566,27.406,-0.056,-0.096,0.263,-6.210,-82.278,1.053
20:00:28:701,27.541,0.218,0.118,-0.093,-5.955,-81.346,2.579
20:00:28:702,27.542,0.328,-0.158,-0.010,-5.449,-81.790,3.735
20:00:28:733,27.573,0.107,-0.013,0.170,-4.689,-83.204,5.096
20:00:28:733,27.573,0.112,0.012,0.043,-3.614,-83.658,6.363
20:00:28:733,27.573,0.056,0.183,-0.008,-2.769,-84.061,7.323
20:00:28:734,27.574,0.037,0.138,0.060,-1.144,-84.843,8.962
20:00:28:779,27.619,0.027,0.221,0.202,0.327,-85.505,10.368
20:00:28:78,27.620,0.034,0.336,0.323,2.980,-86.522,12.857
20:00:28:861,27.701,0.226,0.523,0.568,6.152,-87.024,16.093
20:00:28:861,27.701,0.403,0.584,0.736,8.829,-87.063,18.859
20:00:28:862,27.702,0.995,0.614,1.284,14.242,-86.405,23.837
20:00:28:939,27.779,2.089,-0.111,1.230,18.842,-85.384,27.800
20:00:28:939,27.779,1.658,0.326,0.928,25.550,-83.208,35.696
20:00:28:94,27.780,0.876,-0.082,-0.238,32.557,-80.024,44.785
20:00:28:959,27.799,1.020,-1.256,1.372,35.029,-79.306,47.239
20:00:28:987,27.827,0.380,-1.260,0.605,35.589,-78.046,47.956
20:00:29:092,27.932,0.429,-1.393,0.260,33.719,-77.808,47.227
20:00:29:145,27.985,0.447,-1.130,0.291,27.890,-77.343,43.474
20:00:29:17,28.010,0.374,-0.997,0.381,20.124,-78.680,37.652
20:00:29:232,28.072,0.336,-0.671,0.526,14.618,-79.649,32.742
20:00:29:232,28.072,0.246,-0.268,0.720,6.593,-80.565,24.641
20:00:29:233,28.073,0.103,0.303,0.680,1.510,-80.312,18.595
20:00:29:234,28.074,-0.235,1.211,0.165,-5.634,-78.304,8.736
20:00:29:254,28.094,-0.692,1.492,-0.917,-9.700,-76.162,1.964
20:00:29:255,28.095,-0.929,1.037,-1.573,-14.295,-72.101,-8.431
20:00:29:256,28.096,-1.911,-0.185,-2.200,-18.155,-68.923,-16.797
20:00:29:274,28.114,-2.178,-0.649,-2.411,-20.625,-68.227,-19.823
20:00:29:387,28.227,-1.577,0.003,-1.934,-20.991,-68.456,-19.435
20:00:29:388,28.228,0.356,1.457,1.721,-19.153,-68.622,-15.401
20:00:29:389,28.229,-1.654,0.649,-1.284,-16.117,-67.327,-8.363
20:00:29:39,28.230,-0.744,0.022,-0.024,-14.395,-66.203,-3.228
20:00:29:464,28.304,-0.528,0.017,-1.108,-13.483,-65.016,-1.835
20:00:29:464,28.304,-0.209,-0.121,-0.049,-12.324,-65.875,-0.091
20:00:29:465,28.305,-0.343,0.177,0.209,-12.023,-67.060,0.937
20:00:29:513,28.353,0.084,0.074,0.030,-11.599,-67.629,2.853
20:00:29:514,28.354,0.144,0.085,-0.284,-11.180,-67.432,3.922
20:00:29:539,28.379,0.123,-0.018,0.075,-10.511,-68.466,5.505
20:00:29:564,28.404,0.083,0.056,0.073,-9.767,-70.091,7.151
20:00:29:648,28.488,0.125,-0.038,-0.100,-9.019,-70.717,8.138
20:00:29:648,28.488,0.270,-0.048,-0.049,-7.823,-71.996,9.658
20:00:29:649,28.489,0.223,0.013,-0.035,-6.998,-72.844,10.602
20:00:29:726,28.566,0.103,0.045,0.013,-5.808,-73.823,12.092
20:00:29:727,28.567,-0.100,0.256,0.205,-4.154,-74.712,13.673
20:00:29:727,28.567,-0.044,0.269,0.423,-2.739,-75.524,15.100
20:00:29:805,28.645,0.179,0.343,0.434,-0.129,-76.251,17.824
20:00:29:805,28.645,0.438,0.511,0.502,2.017,-76.366,20.062
20:00:29:914,28.754,0.651,0.583,0.771,6.159,-76.485,24.447
20:00:29:914,28.754,1.819,0.515,1.333,10.015,-76.635,27.870
20:00:29:915,28.755,1.853,0.032,0.859,16.914,-76.761,34.076
20:00:29:916,28.756,0.794,0.693,0.622,23.393,-75.842,42.252
20:00:30:064,28.904,0.736,-0.162,-0.658,28.466,-74.176,47.924
20:00:30:175,29.015,0.911,-1.200,1.212,32.305,-74.809,49.786
20:00:30:176,29.016,0.129,-1.377,0.220,33.404,-75.461,48.496
20:00:30:177,29.017,0.142,-1.228,0.387,31.552,-76.680,45.018
20:00:30:178,29.018,0.247,-1.016,0.306,26.414,-77.533,40.266
20:00:30:281,29.121,0.325,-0.995,0.366,21.820,-78.124,36.351
20:00:30:282,29.122,0.397,-0.575,0.430,13.930,-78.282,29.537
20:00:30:282,29.122,0.365,-0.269,0.429,8.598,-77.955,24.458
20:00:30:283,29.123,0.324,0.241,0.454,1.017,-76.785,15.937
20:00:30:333,29.173,-0.036,1.148,0.155,-5.790,-74.288,6.666
20:00:30:334,29.174,-0.536,1.331,-0.781,-9.723,-71.630,0.342
20:00:30:335,29.175,-0.774,0.943,-1.418,-14.308,-67.597,-9.841
20:00:30:335,29.175,-2.007,-0.069,-2.108,-17.214,-65.506,-15.602
20:00:30:361,29.201,-2.260,-0.679,-1.718,-21.734,-65.489,-20.611
20:00:30:361,29.201,-1.360,0.283,-1.051,-22.610,-65.559,-20.690
20:00:30:361,29.201,-0.065,0.783,0.919,-19.906,-65.186,-16.243
20:00:30:362,29.202,-1.183,0.241,-0.930,-16.928,-63.373,-9.905
20:00:30:378,29.217,-0.279,0.207,-1.365,-15.713,-63.278,-5.898
20:00:30:464,29.304,-0.656,0.059,-0.701,-14.850,-61.790,-2.460
20:00:30:465,29.305,-0.165,-0.078,-0.245,-14.025,-61.679,-1.894
20:00:30:466,29.306,-0.026,0.060,0.214,-13.081,-63.774,-0.496
20:00:30:466,29.306,-0.027,0.007,0.141,-12.903,-64.544,0.932
20:00:30:482,29.322,0.083,-0.065,-0.138,-12.572,-64.225,2.010
20:00:30:508,29.348,0.095,-0.009,-0.283,-12.128,-64.485,3.439
20:00:30:535,29.375,0.077,-0.014,0.131,-11.783,-65.711,4.522
20:00:30:561,29.401,0.090,-0.054,-0.063,-11.197,-66.867,5.861
20:00:30:619,29.459,0.214,-0.125,-0.002,-10.669,-67.461,6.671
20:00:30:619,29.459,0.176,0.198,0.164,-9.894,-68.809,7.798
20:00:30:62,29.460,0.061,0.023,0.020,-9.018,-69.996,9.349
20:00:30:669,29.509,-0.001,0.124,0.153,-8.173,-70.772,10.499
20:00:30:669,29.509,0.131,0.248,0.210,-6.337,-72.054,12.441
20:00:30:781,29.621,0.125,0.400,0.276,-4.592,-72.953,14.071
20:00:30:782,29.621,0.234,0.499,0.464,-1.452,-73.960,16.901
20:00:30:782,29.621,0.333,0.532,0.794,2.729,-74.814,20.736
20:00:30:782,29.621,0.664,0.535,1.125,6.396,-75.374,23.789
20:00:30:797,29.637,2.002,-0.272,1.573,12.869,-75.924,29.199
20:00:30:883,29.723,1.512,0.588,1.065,16.655,-75.492,34.243
20:00:30:883,29.723,1.232,0.709,0.387,22.810,-71.812,43.668
20:00:30:883,29.723,0.941,-0.981,0.035,27.269,-68.451,49.349
20:00:30:903,29.743,0.821,-1.537,0.472,28.988,-68.174,49.499
20:00:30:928,29.768,0.370,-1.215,0.087,28.966,-66.859,45.692
20:00:30:955,29.795,0.444,-1.143,0.192,27.129,-66.492,42.384
20:00:31:01,29.850,0.536,-0.940,0.215,22.665,-65.365,36.274
20:00:31:01,29.850,0.701,-0.613,-0.023,18.658,-63.827,31.537
20:00:31:062,29.902,0.765,-0.338,-0.129,12.438,-60.806,23.791
20:00:31:063,29.903,0.827,0.153,-0.158,6.742,-57.288,15.124
20:00:31:113,29.953,0.607,0.767,-0.384,2.903,-54.112,8.827
20:00:31:141,29.981,-0.024,1.069,-0.907,-2.257,-48.713,-0.761
20:00:31:142,29.982,-1.124,1.200,-1.583,-5.243,-44.791,-7.385
20:00:31:164,30.004,-1.844,0.147,-1.678,-8.961,-39.902,-16.179
20:00:31:192,30.032,-2.711,-0.727,-1.183,-13.434,-37.867,-21.610
20:00:31:217,30.057,-2.427,-0.568,-0.545,-15.310,-37.880,-22.096
20:00:31:243,30.083,-1.253,0.535,1.646,-14.254,-37.196,-18.204
20:00:31:271,30.111,-1.237,0.206,-0.551,-11.496,-35.129,-13.134
20:00:31:326,30.165,-1.891,0.736,-1.796,-9.847,-34.755,-6.440
20:00:31:326,30.165,-0.750,-0.927,-0.252,-10.273,-33.397,-3.587
20:00:31:377,30.217,-0.391,-0.280,-0.134,-8.444,-34.138,-2.278
20:00:31:378,30.218,-0.084,0.290,0.202,-8.081,-35.810,-0.252
20:00:31:43,30.270,0.180,0.264,0.092,-7.560,-35.996,0.599
20:00:31:43,30.270,-0.158,-0.071,-0.182,-6.650,-35.660,2.326
20:00:31:453,30.293,0.177,0.109,0.112,-6.056,-36.269,3.120
20:00:31:537,30.377,0.173,-0.014,-0.032,-5.145,-37.138,4.292
20:00:31:538,30.378,0.003,-0.066,-0.132,-4.141,-37.298,5.411
20:00:31:539,30.379,0.162,-0.046,-0.105,-3.382,-37.686,6.217
20:00:31:587,30.427,0.054,0.004,-0.085,-2.124,-38.211,7.444
20:00:31:588,30.428,0.066,0.116,0.055,-1.217,-38.456,8.303
20:00:31:61,30.450,0.191,0.225,0.240,0.557,-38.835,9.738
20:00:31:638,30.478,0.299,0.258,0.243,2.037,-39.071,10.936
20:00:31:694,30.534,0.449,0.424,0.121,4.662,-38.815,13.207
20:00:31:694,30.534,0.712,0.534,0.189,8.028,-38.088,16.350
20:00:31:716,30.556,1.024,0.618,0.152,10.942,-37.466,18.977
20:00:31:742,30.582,2.373,0.320,-0.646,16.586,-36.760,24.001
20:00:31:77,30.610,1.232,0.402,-0.427,21.173,-36.058,28.551
20:00:31:824,30.664,0.773,0.146,-0.533,28.345,-32.810,37.599
20:00:31:825,30.665,0.957,-0.848,-0.400,34.203,-28.268,44.102
20:00:31:847,30.687,0.954,-0.893,-0.378,35.206,-26.294,44.955
20:00:31:873,30.713,0.390,-1.003,-0.207,34.202,-22.328,44.406
20:00:31:929,30.769,0.311,-1.057,-0.343,32.136,-19.755,43.133
20:00:31:93,30.770,0.315,-1.013,-0.398,27.490,-16.719,39.590
20:00:31:952,30.792,0.260,-0.800,-0.460,21.519,-14.144,34.166
20:00:32:008,30.848,0.340,-0.577,-0.525,17.327,-12.488,29.610
20:00:32:008,30.848,0.397,-0.284,-0.522,11.024,-9.843,21.849
20:00:32:03,30.870,0.336,0.073,-0.563,6.926,-7.527,16.244
20:00:32:085,30.925,-0.179,0.969,-0.665,0.803,-2.889,7.465
20:00:32:112,30.952,-1.096,1.022,-0.495,-2.891,0.747,1.526
20:00:32:112,30.952,-2.177,1.066,0.233,-7.690,6.683,-7.920
20:00:32:194,31.034,-2.429,-0.067,1.048,-12.038,9.910,-15.497
20:00:32:194,31.034,-2.485,-0.714,1.362,-14.751,10.130,-18.056
20:00:32:195,31.035,-0.932,0.116,1.767,-15.748,10.113,-16.715
20:00:32:214,31.054,1.181,0.957,-0.489,-13.633,11.174,-12.606
20:00:32:271,31.111,-2.066,0.328,1.012,-12.129,12.145,-6.824
20:00:32:271,31.111,-0.005,0.106,0.206,-11.070,13.877,-4.284
20:00:32:352,31.192,-0.566,-0.193,0.096,-10.336,14.655,-3.050
20:00:32:352,31.192,0.116,0.269,0.077,-10.443,13.511,-1.413
20:00:32:353,31.193,0.123,0.174,0.247,-10.466,12.748,-0.317
20:00:32:373,31.213,-0.101,-0.035,-0.109,-10.334,12.673,1.284
20:00:32:429,31.269,-0.192,0.018,-0.106,-9.935,12.154,2.645
20:00:32:429,31.269,0.147,-0.058,-0.061,-9.521,11.227,3.554
20:00:32:451,31.291,-0.016,-0.033,-0.081,-8.886,10.453,4.828
20:00:32:531,31.371,-0.033,-0.045,-0.249,-8.357,9.939,5.648
20:00:32:617,31.457,0.013,0.021,-0.284,-7.482,9.004,6.976
20:00:32:618,31.458,0.071,0.087,-0.024,-6.214,8.284,8.393
20:00:32:619,31.459,0.130,0.162,0.083,-5.026,7.750,9.398
20:00:32:62,31.460,0.197,0.257,-0.023,-2.699,6.935,11.270
20:00:32:637,31.477,0.352,0.280,-0.120,-0.755,6.538,12.846
20:00:32:638,31.478,0.418,0.357,-0.170,2.495,6.391,15.708
20:00:32:798,31.638,0.676,0.475,-0.338,6.393,6.804,19.550
20:00:32:799,31.639,0.922,0.590,-0.611,9.684,7.275,22.567
20:00:32:799,31.639,1.369,0.279,-2.000,15.643,8.577,28.088
20:00:32:826,31.666,1.030,0.624,-1.577,19.847,9.876,33.085
20:00:32:827,31.667,0.464,0.227,-0.724,25.871,12.910,41.633
20:00:32:828,31.668,-0.197,-0.960,-0.837,30.743,14.050,46.228
20:00:32:829,31.669,0.635,-1.340,-0.504,31.786,13.824,46.152
20:00:32:844,31.684,0.363,-1.183,-0.288,29.777,14.035,44.349
20:00:33:011,31.851,0.210,-1.150,-0.290,26.776,14.107,42.074
20:00:33:011,31.851,0.303,-0.876,-0.314,20.368,13.545,37.096
20:00:33:012,31.852,0.452,-0.719,-0.285,15.618,13.106,32.756
20:00:33:013,31.853,0.488,-0.371,-0.273,8.174,12.938,25.296
20:00:33:036,31.876,0.549,0.019,-0.238,1.034,13.969,16.962
20:00:33:037,31.877,0.436,0.468,-0.029,-3.357,15.594,10.975
20:00:33:038,31.878,-0.211,1.257,0.275,-9.110,19.330,1.820
20:00:33:084,31.924,-1.613,0.503,1.062,-15.802,26.621,-14.164
20:00:33:084,31.924,-1.884,-0.516,1.732,-19.582,27.646,-20.348
20:00:33:136,31.976,-1.762,-0.833,2.217,-21.672,27.028,-21.859
20:00:33:137,31.977,-0.667,0.283,1.810,-21.013,26.030,-19.105
20:00:33:19,32.030,1.070,0.956,-0.544,-18.087,26.946,-14.446
20:00:33:19,32.030,-1.733,-0.076,0.567,-16.373,27.189,-8.376
20:00:33:241,32.081,-0.024,0.103,0.914,-15.114,27.813,-4.615
20:00:33:264,32.104,0.225,0.286,0.205,-13.312,25.425,-1.987
20:00:33:32,32.160,0.064,0.238,0.197,-12.949,24.755,-1.201
20:00:33:32,32.160,-0.099,0.003,-0.076,-12.328,24.789,0.345
20:00:33:343,32.183,-0.136,-0.013,-0.068,-11.901,24.454,1.265
20:00:33:369,32.209,0.108,-0.037,-0.121,-11.312,22.803,2.577
20:00:33:395,32.235,-0.058,-0.056,-0.118,-10.558,22.040,3.583
20:00:33:422,32.262,-0.135,-0.057,-0.133,-9.943,21.591,4.272
20:00:33:449,32.289,-0.032,-0.018,-0.220,-8.846,20.831,5.235
20:00:33:501,32.341,0.061,0.062,-0.064,-7.979,20.455,5.878
20:00:33:531,32.371,0.141,0.183,0.048,-6.508,19.981,7.118
20:00:33:531,32.371,0.140,0.158,0.053,-4.459,19.288,8.901
20:00:33:553,32.393,0.266,0.262,-0.052,-2.914,18.776,10.458
20:00:33:608,32.448,0.400,0.456,-0.180,-0.041,18.216,13.330
20:00:33:609,32.449,0.595,0.549,-0.329,2.359,18.125,15.863
20:00:33:633,32.473,0.891,0.849,-0.811,6.941,18.164,20.786
20:00:33:658,32.498,0.930,0.723,-2.274,10.995,18.343,24.672
20:00:33:764,32.604,1.104,0.127,-2.067,18.254,18.204,31.731
20:00:33:797,32.637,0.145,-0.221,-0.889,25.553,21.246,40.131
20:00:33:798,32.638,-0.820,-0.970,-0.613,28.591,23.025,43.130
20:00:33:799,32.639,0.456,-1.209,-0.556,29.951,24.013,43.116
20:00:33:8,32.640,0.291,-1.308,-0.367,29.026,25.576,41.886
20:00:33:818,32.658,0.037,-1.265,-0.502,24.542,28.470,38.816
20:00:33:843,32.683,-0.087,-0.961,-0.625,17.736,31.675,33.891
20:00:33:869,32.709,-0.122,-0.647,-0.612,13.161,33.776,29.307
20:00:33:895,32.735,0.060,-0.276,-0.581,7.173,36.484,21.001
20:00:33:951,32.791,0.101,0.242,-0.501,3.670,38.580,14.799
20:00:33:951,32.791,-0.349,1.053,-0.163,-1.275,43.259,5.009
20:00:33:973,32.813,-1.027,1.154,0.475,-4.068,47.224,-1.425
20:00:34:028,32.868,-1.413,0.940,1.463,-7.363,54.600,-10.916
20:00:34:029,32.869,-1.200,-0.231,2.596,-9.254,61.644,-18.049
20:00:34:052,32.892,-0.889,-0.801,3.077,-10.211,64.549,-20.356
20:00:34:08,32.920,-0.326,0.088,2.185,-10.130,66.006,-19.544
20:00:34:106,32.946,0.877,0.516,1.188,-8.691,66.629,-15.973
20:00:34:131,32.971,-0.375,0.239,1.577,-6.846,66.970,-9.665
20:00:34:156,32.996,0.159,0.756,-0.108,-6.826,66.948,-5.793
20:00:34:183,33.023,-0.393,-0.507,0.453,-6.037,66.516,-4.657
20:00:34:211,33.051,0.073,0.486,-0.043,-5.980,65.700,-2.302
20:00:34:237,33.077,-0.045,0.054,0.028,-5.570,65.430,-1.187
20:00:34:263,33.103,-0.024,0.012,0.106,-4.858,65.589,0.475
20:00:34:289,33.129,0.155,0.091,-0.005,-3.951,65.192,1.853
20:00:34:344,33.184,-0.054,0.012,-0.110,-3.199,65.074,2.759
20:00:34:344,33.184,-0.220,-0.043,0.074,-2.028,65.209,4.031
20:00:34:367,33.207,-0.240,-0.111,-0.020,-1.260,64.926,4.942
20:00:34:393,33.233,-0.108,0.009,-0.112,-0.076,64.282,6.239
20:00:34:42,33.260,0.152,0.161,-0.011,0.781,64.004,7.120
20:00:34:446,33.286,0.134,0.190,-0.180,2.477,63.678,8.590
20:00:34:501,33.341,0.075,0.356,-0.338,4.694,63.656,10.499
20:00:34:502,33.342,0.087,0.261,-0.307,6.390,64.035,11.998
20:00:34:524,33.364,-0.028,0.323,-0.604,9.457,65.019,14.794
20:00:34:581,33.421,-0.159,0.402,-0.892,12.014,65.761,17.166
20:00:34:582,33.422,-0.512,0.251,-1.492,17.014,67.012,21.404
20:00:34:603,33.443,-1.048,0.442,-1.727,22.580,69.131,27.861
20:00:34:689,33.529,-1.060,0.602,-0.476,26.725,71.481,34.029
20:00:34:689,33.529,-0.921,-0.659,-0.188,32.808,76.716,40.989
20:00:34:689,33.529,-0.584,-0.977,-1.010,34.295,78.377,42.558
20:00:34:711,33.551,-0.500,-1.066,-0.565,33.240,83.831,43.236
20:00:34:734,33.574,-0.581,-1.080,-0.333,29.320,87.263,41.887
20:00:34:789,33.629,-0.514,-0.982,-0.270,25.513,89.008,39.660
20:00:34:79,33.630,-0.507,-0.717,-0.244,18.998,91.120,34.290
20:00:34:814,33.654,-0.483,-0.572,-0.304,14.754,92.130,29.612
20:00:34:839,33.679,-0.511,-0.347,-0.339,8.924,93.584,21.676
20:00:34:894,33.734,-0.588,0.184,-0.192,3.132,96.177,13.042
20:00:34:895,33.735,-0.594,0.637,0.051,-0.806,98.855,6.917
20:00:34:918,33.758,-0.231,0.827,0.998,-6.178,103.395,-2.426
20:00:34:945,33.785,0.369,1.032,1.955,-9.507,106.610,-9.030
20:00:34:972,33.811,1.411,0.139,2.747,-14.557,109.764,-17.363
20:00:34:997,33.837,2.186,-0.606,2.681,-18.387,109.364,-20.944
20:00:35:023,33.863,2.156,-0.687,2.096,-22.044,108.345,-21.397
20:00:35:049,33.889,2.132,0.769,-1.598,-20.089,108.173,-16.411
20:00:35:105,33.945,0.567,0.178,0.811,-17.096,110.900,-12.601
20:00:35:105,33.945,0.440,0.814,0.601,-15.126,112.755,-7.355
20:00:35:129,33.969,0.548,-0.424,1.790,-14.128,115.306,-5.723
20:00:35:183,34.023,0.059,-0.275,-0.154,-12.857,114.499,-3.463
20:00:35:184,34.024,0.527,0.253,-0.396,-12.491,111.358,-1.138
20:00:35:207,34.047,0.067,0.155,-0.428,-12.027,111.342,0.373
20:00:35:263,34.103,-0.156,0.152,0.623,-11.003,111.935,2.212
20:00:35:263,34.103,-0.149,-0.126,-0.268,-10.336,110.146,3.703
20:00:35:285,34.125,-0.103,0.069,-0.051,-9.122,108.716,5.454
20:00:35:344,34.184,-0.396,-0.098,0.086,-8.047,108.014,6.733
20:00:35:344,34.184,-0.315,0.010,0.132,-6.349,106.853,8.684
20:00:35:345,34.185,0.048,0.145,-0.003,-4.551,105.772,10.737
20:00:35:393,34.233,0.089,0.217,-0.333,-3.030,104.767,12.331
20:00:35:394,34.234,0.036,0.212,-0.400,-0.421,103.831,15.108
20:00:35:475,34.315,-0.269,0.369,-0.560,1.498,103.514,17.217
20:00:35:475,34.315,-0.529,0.425,-0.697,4.958,103.490,21.016
20:00:35:476,34.316,-1.252,0.451,-1.076,9.495,103.816,26.078
20:00:35:495,34.335,-2.236,0.238,-0.959,13.309,103.731,30.271
20:00:35:522,34.362,-1.090,1.085,-1.180,20.160,103.696,39.262
20:00:35:741,34.581,-1.406,0.043,0.058,26.721,105.089,45.733
20:00:35:742,34.582,-1.125,-1.074,-1.234,32.525,104.703,48.687
20:00:35:743,34.583,-0.344,-1.490,-0.479,33.558,103.799,47.673
20:00:35:744,34.584,-0.225,-1.264,-0.441,31.275,102.831,44.692
20:00:35:767,34.607,-0.272,-1.177,-0.474,25.648,101.370,39.969
20:00:35:768,34.608,-0.252,-0.947,-0.554,20.803,100.370,36.034
20:00:35:769,34.609,-0.319,-0.638,-0.559,12.657,99.861,29.252
20:00:35:77,34.610,-0.251,-0.225,-0.627,7.150,100.345,24.059
20:00:35:787,34.627,-0.224,0.171,-0.553,-0.541,102.530,15.109
20:00:35:788,34.628,0.203,1.313,-0.150,-7.527,106.530,4.752
20:00:35:812,34.652,0.569,1.318,0.977,-10.996,109.544,-2.534
20:00:35:838,34.678,1.112,0.819,2.433,-15.422,113.252,-13.493
20:00:35:864,34.704,2.369,-0.504,2.637,-18.677,114.948,-19.282
20:00:35:921,34.761,2.550,-0.804,2.731,-23.827,114.972,-23.040
20:00:35:921,34.761,0.880,1.936,-2.661,-22.167,113.276,-17.903
20:00:35:942,34.782,0.373,0.681,0.113,-18.401,115.478,-12.879
20:00:35:997,34.837,0.813,0.196,0.915,-16.293,116.212,-6.891
20:00:35:998,34.838,0.003,0.109,0.781,-15.454,117.445,-4.706
20:00:36:022,34.862,0.046,-0.440,-0.278,-13.729,116.230,-2.674
20:00:36:047,34.887,0.537,0.319,-0.512,-13.254,114.411,-1.342
20:00:36:073,34.913,0.005,0.123,0.116,-12.251,114.392,0.760
20:00:36:099,34.939,-0.059,-0.025,0.147,-11.166,113.522,2.586
20:00:36:126,34.966,-0.069,0.192,-0.101,-10.726,112.121,3.731
20:00:36:152,34.992,-0.079,0.044,-0.007,-9.656,111.212,5.277
20:00:36:178,35.018,-0.107,0.031,0.064,-8.891,110.533,6.387
20:00:36:204,35.044,-0.198,0.034,0.018,-7.606,109.119,8.327
20:00:36:23,35.070,0.020,0.056,0.033,-6.142,107.893,10.264
20:00:36:256,35.096,0.026,0.100,-0.067,-4.966,106.927,11.700
20:00:36:283,35.123,-0.069,0.131,-0.330,-2.828,105.482,14.077
20:00:36:339,35.179,-0.104,0.283,-0.406,-1.168,104.897,15.942
20:00:36:339,35.179,-0.257,0.437,-0.675,2.057,104.557,19.494
20:00:36:362,35.202,-0.885,0.797,-0.880,4.873,104.675,22.542
20:00:36:388,35.228,-1.894,0.792,-0.988,10.744,104.270,28.384
20:00:36:443,35.283,-1.715,1.135,-1.513,19.026,102.254,36.770
20:00:36:444,35.284,-1.214,-0.308,-0.070,26.697,103.318,43.220
20:00:36:496,35.336,-0.941,-0.817,-0.699,33.293,105.005,47.721
20:00:36:497,35.337,-0.382,-1.204,-0.435,34.708,105.514,48.353
20:00:36:52,35.360,-0.157,-1.225,-0.281,32.951,105.650,46.496
20:00:36:574,35.414,-0.135,-1.222,-0.337,27.584,105.201,42.660
20:00:36:575,35.415,-0.190,-1.072,-0.350,22.840,104.923,39.125
20:00:36:627,35.467,-0.312,-0.735,-0.575,15.020,104.874,32.271
20:00:36:628,35.468,-0.229,-0.433,-0.456,9.814,105.294,27.148
20:00:36:709,35.549,-0.209,-0.146,-0.446,2.820,106.622,18.450
20:00:36:709,35.549,-0.022,0.495,-0.217,-3.357,108.588,8.855
20:00:36:71,35.550,0.319,0.890,0.204,-7.036,110.445,2.597
20:00:36:729,35.569,1.012,0.958,1.263,-11.625,114.401,-6.993
20:00:36:755,35.595,1.471,0.576,1.733,-13.948,117.228,-13.200
20:00:36:783,35.623,1.894,-0.345,2.291,-16.865,119.885,-19.949
20:00:36:808,35.648,2.277,-0.855,2.162,-18.234,121.205,-21.993
20:00:36:925,35.765,2.485,0.486,0.861,-17.183,121.250,-19.263
20:00:36:925,35.765,1.647,0.644,0.703,-14.255,121.994,-12.288
20:00:36:925,35.765,0.281,0.346,0.401,-13.373,121.453,-8.874
20:00:36:926,35.766,0.537,0.010,1.099,-12.332,122.204,-6.276
20:00:36:97,35.810,0.203,0.049,-0.215,-11.910,121.538,-4.846
20:00:36:97,35.810,0.322,0.245,-0.134,-11.651,119.730,-3.223
20:00:36:993,35.833,-0.068,0.039,0.202,-11.192,119.223,-1.245
20:00:37:018,35.858,-0.103,0.036,0.351,-10.721,118.810,-0.205
20:00:37:073,35.913,-0.066,0.101,-0.136,-9.993,116.894,1.482
20:00:37:074,35.914,-0.092,0.019,0.020,-9.290,116.073,2.487
20:00:37:098,35.938,-0.094,-0.027,0.108,-8.050,114.895,4.097
20:00:37:153,35.993,-0.157,-0.001,0.078,-7.053,113.640,5.235
20:00:37:153,35.993,-0.143,0.045,0.065,-5.406,112.117,7.014
20:00:37:176,36.016,-0.041,0.182,-0.099,-3.474,110.803,8.862
20:00:37:202,36.042,0.055,0.248,-0.214,-1.875,110.281,10.206
20:00:37:255,36.095,-0.091,0.373,-0.536,0.922,109.356,12.744
20:00:37:286,36.126,-0.255,0.549,-0.836,3.141,109.042,14.951
20:00:37:286,36.126,-0.767,0.824,-1.093,7.356,109.066,19.324
20:00:37:421,36.261,-2.251,0.011,-1.361,12.852,108.811,25.258
20:00:37:422,36.261,-2.128,0.858,-1.051,16.358,109.202,30.911
20:00:37:443,36.283,-0.807,-1.438,-0.269,30.434,116.915,44.751
20:00:37:443,36.283,-0.353,-1.024,-0.153,30.673,118.016,42.140
20:00:37:464,36.304,-0.494,-1.050,-0.091,28.337,120.279,37.938
20:00:37:519,36.359,-0.706,-0.875,0.234,23.494,124.099,32.743
20:00:37:549,36.389,-0.723,-0.704,0.363,19.446,126.959,28.500
20:00:37:55,36.390,-0.836,-0.403,0.466,13.521,131.319,21.181
20:00:37:55,36.390,-0.642,-0.083,0.658,9.680,134.739,15.832
20:00:37:683,36.523,-0.355,0.731,0.970,4.189,140.404,7.050
20:00:37:685,36.524,0.283,0.734,1.523,-0.191,146.222,-2.105
20:00:37:685,36.525,1.186,0.627,2.024,-2.720,149.780,-8.722
20:00:37:686,36.525,2.356,-0.034,0.696,-8.280,152.744,-17.235
20:00:37:734,36.574,2.958,-0.210,-0.183,-13.194,152.547,-21.218
20:00:37:734,36.574,2.661,-0.943,-0.231,-17.036,152.933,-23.149
20:00:37:734,36.574,-0.274,1.782,-1.862,-14.511,156.795,-19.922
20:00:37:782,36.622,0.728,0.433,0.207,-10.985,160.035,-15.074
20:00:37:783,36.623,0.359,0.976,0.179,-9.715,160.034,-9.480
20:00:37:806,36.646,1.039,-0.637,0.138,-8.703,160.978,-7.781
20:00:37:832,36.672,0.239,0.209,-0.229,-7.841,160.999,-5.912
20:00:37:858,36.698,-0.125,0.333,-0.383,-7.705,159.941,-5.018
20:00:37:885,36.725,-0.037,0.052,-0.078,-7.603,159.685,-3.370
20:00:37:913,36.753,-0.187,0.023,0.165,-6.983,159.570,-2.083
20:00:37:938,36.778,-0.373,0.145,0.058,-6.279,158.660,-1.159
20:00:37:963,36.803,-0.025,-0.045,0.348,-4.945,158.610,0.528
20:00:37:99,36.830,0.064,-0.114,0.553,-3.894,158.320,1.811
20:00:38:045,36.885,0.028,-0.087,0.309,-2.354,156.912,3.791
20:00:38:046,36.886,-0.054,0.016,0.035,-0.755,155.571,5.738
20:00:38:069,36.909,-0.080,0.317,-0.333,0.509,154.827,6.965
20:00:38:094,36.934,-0.444,0.309,-0.343,2.965,153.950,9.115
20:00:38:15,36.990,-0.578,0.346,-0.123,4.975,154.136,10.888
20:00:38:15,36.990,-0.586,0.442,0.031,8.289,155.198,14.215
20:00:38:229,37.069,-1.562,0.380,0.342,10.905,155.659,16.855
20:00:38:23,37.070,-2.195,0.245,1.146,15.428,155.864,22.094
20:00:38:283,37.123,-1.266,0.613,0.695,21.376,157.721,30.944
20:00:38:285,37.125,-0.355,0.317,1.263,26.470,160.893,37.791
20:00:38:308,37.148,-0.497,-1.134,0.997,31.764,164.604,44.108
20:00:38:308,37.148,-1.483,-1.359,0.567,32.491,165.508,43.419
20:00:38:387,37.227,-0.396,-1.240,0.292,30.954,169.435,40.394
20:00:38:387,37.227,-0.446,-1.218,0.474,26.506,172.239,36.267
20:00:38:414,37.254,-0.448,-0.969,0.678,22.338,174.272,32.605
20:00:38:414,37.254,-0.254,-0.548,0.686,15.464,177.590,25.676
20:00:38:435,37.275,-0.264,-0.264,0.644,11.448,179.681,20.243
20:00:38:674,37.514,-0.212,0.453,0.730,5.818,-176.627,11.168
20:00:38:708,37.548,0.854,0.897,0.621,2.205,-173.364,4.657
20:00:38:709,37.549,1.392,0.790,0.361,-2.224,-168.574,-5.176
20:00:38:709,37.549,2.810,0.476,-0.767,-6.439,-164.117,-14.518
20:00:38:71,37.550,2.590,-0.153,-1.255,-9.921,-162.744,-19.331
20:00:38:76,37.600,2.911,-0.313,-2.200,-14.658,-162.597,-22.716
20:00:38:76,37.600,0.977,0.329,-3.230,-15.296,-162.177,-21.370
20:00:38:761,37.601,-0.650,0.821,0.575,-10.841,-159.519,-14.032
20:00:38:762,37.602,0.911,0.564,-0.008,-9.104,-158.745,-9.033
20:00:38:785,37.625,1.501,-0.651,-0.433,-8.303,-157.063,-7.156
20:00:38:786,37.626,0.260,-0.175,-0.160,-7.452,-156.371,-4.979
20:00:38:787,37.627,-0.247,0.208,-0.366,-7.306,-158.112,-3.739
20:00:38:788,37.628,-0.202,-0.017,0.024,-6.912,-159.584,-1.793
20:00:38:857,37.697,0.727,0.214,0.139,-6.307,-158.899,-0.001
20:00:38:917,37.757,-0.152,-0.013,0.194,-5.632,-160.343,1.170
20:00:38:917,37.757,0.041,0.061,0.132,-4.502,-161.878,2.724
20:00:38:918,37.758,0.136,-0.006,0.285,-3.520,-162.261,3.863
20:00:38:919,37.759,0.039,0.051,0.300,-1.600,-163.641,5.687
20:00:38:935,37.775,-0.025,0.208,0.016,-0.173,-164.528,6.977
20:00:38:989,37.829,-0.144,0.252,-0.060,2.353,-165.564,9.121
20:00:38:99,37.830,-0.488,0.330,0.121,5.402,-166.489,11.594
20:00:39:071,37.911,-0.579,0.293,0.373,7.667,-166.531,13.565
20:00:39:072,37.912,-0.885,0.566,0.563,11.483,-165.965,17.780
20:00:39:073,37.913,-1.287,0.352,1.435,14.921,-165.750,21.249
20:00:39:121,37.961,-1.424,0.812,2.437,21.107,-165.405,28.056
20:00:39:122,37.962,-0.080,0.321,1.304,25.802,-164.268,35.339
20:00:39:203,38.043,0.762,-1.153,0.772,34.356,-160.400,45.448
20:00:39:203,38.043,-0.783,-1.462,1.036,37.186,-158.896,45.566
20:00:39:204,38.044,-0.272,-1.290,0.449,36.823,-157.853,43.645
20:00:39:223,38.063,-0.148,-1.151,0.490,33.158,-156.459,39.620
20:00:39:251,38.091,-0.133,-0.950,0.622,29.360,-155.448,35.951
20:00:39:306,38.146,-0.057,-0.759,0.699,22.337,-153.638,29.157
20:00:39:306,38.146,-0.025,-0.369,0.749,15.177,-151.225,21.240
20:00:39:357,38.197,0.036,-0.099,0.730,10.621,-149.129,15.484
20:00:39:384,38.224,0.444,1.031,0.441,4.011,-144.354,6.070
20:00:39:384,38.224,1.109,1.070,-0.345,0.134,-140.872,-0.389
20:00:39:408,38.248,1.726,0.897,-0.944,-4.349,-136.297,-10.742
20:00:39:491,38.331,1.751,-0.122,-2.420,-8.506,-132.205,-19.400
20:00:39:492,38.332,1.396,-0.791,-3.228,-12.082,-130.745,-23.224
20:00:39:493,38.333,0.950,-0.919,-2.924,-14.616,-130.014,-23.759
20:00:39:541,38.381,-2.763,2.553,0.986,-13.461,-129.447,-20.736
20:00:39:567,38.407,1.506,0.088,-2.123,-8.613,-125.700,-12.204
20:00:39:568,38.407,-0.057,0.516,-0.351,-7.823,-124.430,-5.393
20:00:39:62,38.460,1.488,-0.978,-0.545,-5.589,-124.112,-5.003
20:00:39:622,38.462,-0.392,0.511,-0.149,-4.808,-126.271,-2.651
20:00:39:673,38.513,-0.494,0.475,0.146,-4.088,-127.026,-1.715
20:00:39:673,38.513,0.467,-0.401,-0.240,-2.348,-126.940,0.225
20:00:39:727,38.567,0.067,0.192,0.141,-1.551,-127.837,0.969
20:00:39:728,38.568,0.087,0.190,0.147,-0.397,-128.774,2.278
20:00:39:729,38.569,0.067,0.099,0.097,0.829,-129.406,3.724
20:00:39:806,38.646,0.079,0.017,0.195,1.891,-130.010,4.890
20:00:39:807,38.647,0.084,0.049,0.102,3.915,-130.933,6.912
20:00:39:808,38.648,-0.040,0.199,0.220,5.492,-131.485,8.381
20:00:39:856,38.696,-0.124,0.243,0.437,8.250,-132.092,10.943
20:00:39:857,38.697,-0.271,0.252,0.541,10.398,-132.221,13.040
20:00:39:908,38.748,-0.317,0.359,1.031,14.385,-131.650,17.364
20:00:39:909,38.749,0.092,0.372,2.497,19.421,-131.560,23.322
20:00:39:961,38.801,0.295,0.925,2.395,23.836,-131.346,29.562
20:00:39:962,38.802,1.089,-0.163,1.176,33.341,-127.984,40.325
20:00:40:015,38.855,0.232,-1.160,1.461,37.730,-126.183,43.974
20:00:40:015,38.855,0.220,-1.148,1.387,40.433,-125.294,43.125
20:00:40:037,38.877,0.202,-1.213,0.479,38.916,-120.982,41.185
20:00:40:091,38.931,0.275,-1.101,0.502,35.786,-117.875,39.264
20:00:40:177,39.017,0.595,-0.954,0.434,29.500,-113.704,34.454
20:00:40:178,39.018,0.744,-0.733,0.334,24.899,-111.185,30.251
20:00:40:178,39.018,0.790,-0.355,0.309,18.007,-107.600,22.646
20:00:40:179,39.019,0.777,-0.036,0.234,11.562,-103.992,13.868
20:00:40:194,39.034,0.718,0.616,-0.098,7.454,-101.274,7.804
20:00:40:22,39.060,0.767,0.717,-0.760,1.972,-96.429,-0.969
20:00:40:248,39.088,0.705,0.774,-2.041,-1.018,-92.517,-7.072
20:00:40:333,39.173,-0.158,0.239,-2.641,-5.587,-88.674,-15.245
20:00:40:334,39.174,-0.952,-0.509,-2.866,-8.945,-87.913,-19.272
20:00:40:334,39.174,-1.274,-0.772,-2.818,-12.640,-87.259,-20.967
20:00:40:353,39.193,-1.237,0.780,-1.357,-12.911,-86.872,-17.874
20:00:40:379,39.219,-1.402,1.609,2.744,-10.546,-84.702,-13.244
20:00:40:405,39.245,-0.532,0.046,-3.746,-8.358,-81.705,-5.817
20:00:40:431,39.271,0.020,-1.902,-1.342,-7.814,-79.362,-4.254
20:00:40:457,39.297,0.376,-0.645,-1.020,-6.049,-80.293,-1.595
20:00:40:483,39.323,-0.373,0.574,-0.024,-5.895,-82.856,0.227
20:00:40:509,39.349,-0.069,0.152,0.062,-5.297,-83.032,1.656
20:00:40:594,39.434,0.098,0.013,-0.284,-4.248,-82.935,3.593
20:00:40:594,39.434,0.158,-0.042,0.138,-3.532,-84.176,4.737
20:00:40:595,39.435,0.226,0.034,0.171,-2.567,-85.580,6.419
20:00:40:644,39.484,0.202,-0.028,0.028,-1.759,-86.048,7.533
20:00:40:645,39.485,0.413,-0.053,-0.066,-0.174,-86.862,9.450
20:00:40:694,39.534,0.186,0.138,-0.019,1.662,-87.907,11.492
20:00:40:72,39.560,0.066,0.138,0.175,3.159,-88.762,12.945
20:00:40:777,39.617,-0.042,0.240,0.566,5.965,-89.826,15.434
20:00:40:778,39.618,0.165,0.362,0.786,8.097,-89.842,17.585
20:00:40:779,39.619,0.338,0.341,0.896,11.935,-89.215,21.771
20:00:40:856,39.696,1.308,0.285,1.556,17.022,-88.720,27.132
20:00:40:857,39.697,2.158,0.792,1.431,20.836,-88.680,32.468
20:00:40:857,39.697,1.004,0.732,0.720,30.025,-86.475,43.079
20:00:40:936,39.776,1.111,-0.444,0.040,36.020,-84.907,48.708
20:00:40:937,39.777,1.067,-1.162,1.086,39.716,-84.946,49.534
20:00:40:937,39.777,0.293,-1.584,0.485,38.517,-83.364,46.980
20:00:41:043,39.883,0.265,-1.207,0.371,35.330,-83.151,44.511
20:00:41:044,39.884,0.422,-1.065,0.349,28.507,-83.193,39.224
20:00:41:044,39.884,0.441,-0.914,0.349,23.038,-83.089,34.859
20:00:41:045,39.885,0.485,-0.484,0.452,14.251,-82.040,27.174
20:00:41:091,39.931,0.373,-0.042,0.418,8.713,-80.681,21.528
20:00:41:091,39.931,0.297,0.470,0.159,1.037,-77.507,12.219
20:00:41:113,39.953,-0.256,1.201,-0.573,-5.337,-74.023,2.119
20:00:41:254,40.094,-0.488,1.052,-1.421,-8.437,-72.088,-4.944
20:00:41:255,40.095,-1.470,0.267,-2.514,-12.936,-69.650,-14.066
20:00:41:256,40.096,-2.908,-0.399,-2.572,-16.468,-68.670,-18.087
20:00:41:256,40.096,-2.322,-0.318,-2.112,-17.663,-67.360,-18.568
20:00:41:273,40.113,0.639,1.970,2.251,-13.628,-65.353,-12.048
20:00:41:274,40.114,-1.585,0.495,-1.537,-11.995,-64.630,-7.777
20:00:41:355,40.195,-0.444,0.140,-0.137,-10.607,-63.155,-3.852
20:00:41:356,40.196,-0.418,-0.181,-1.308,-9.871,-62.105,-2.252
20:00:41:357,40.197,0.040,0.383,0.253,-9.343,-63.957,-0.606
20:00:41:404,40.244,-0.003,0.077,0.185,-9.064,-65.483,1.535
20:00:41:405,40.245,0.288,-0.003,-0.148,-8.690,-65.549,2.884
20:00:41:43,40.270,0.229,0.018,0.038,-7.752,-67.058,4.714
20:00:41:456,40.296,0.340,0.028,0.107,-6.976,-68.699,5.854
20:00:41:482,40.322,0.204,0.045,-0.022,-5.549,-70.200,7.631
20:00:41:536,40.376,0.455,-0.107,-0.061,-3.773,-71.895,9.553
20:00:41:537,40.377,0.403,-0.016,-0.124,-2.513,-72.793,10.921
20:00:41:56,40.400,-0.017,0.159,-0.093,-0.471,-73.703,13.107
20:00:41:588,40.428,-0.051,0.257,0.422,1.237,-74.564,14.680
20:00:41:611,40.451,0.092,0.341,0.687,4.247,-75.819,17.581
20:00:41:64,40.480,0.297,0.363,0.815,8.055,-75.805,21.527
20:00:41:752,40.592,0.890,0.392,0.972,11.011,-75.392,24.847
20:00:41:752,40.592,2.383,0.166,1.225,16.355,-75.365,30.750
20:00:41:753,40.593,1.830,1.119,1.485,20.644,-75.678,36.222
20:00:41:754,40.594,1.165,0.196,-0.334,29.925,-73.651,46.496
20:00:41:798,40.638,1.059,-1.294,0.208,36.520,-73.671,50.356
20:00:41:799,40.639,0.671,-1.442,0.799,37.990,-74.922,48.807
20:00:41:824,40.664,0.263,-1.312,0.427,35.909,-75.011,45.223
20:00:41:849,40.689,0.333,-1.236,0.344,32.219,-74.298,42.403
20:00:41:935,40.775,0.456,-0.910,0.268,24.876,-73.654,36.789
20:00:41:935,40.775,0.473,-0.718,0.248,19.547,-73.253,32.222
20:00:41:935,40.775,0.431,-0.380,0.423,11.606,-72.562,24.023
20:00:41:955,40.795,0.383,0.067,0.420,4.279,-70.907,15.040
20:00:42:009,40.849,0.240,0.493,0.326,-0.325,-68.813,8.469
20:00:42:01,40.850,-0.334,1.168,-0.745,-6.163,-64.780,-1.634
20:00:42:09,40.930,-0.678,1.054,-1.715,-9.234,-62.692,-8.682
20:00:42:09,40.930,-2.071,-0.108,-2.288,-14.152,-59.769,-17.637
20:00:42:092,40.931,-3.112,-1.057,-2.594,-19.225,-59.146,-21.880
20:00:42:14,40.980,-2.354,0.218,-1.535,-19.788,-60.135,-20.518
20:00:42:141,40.981,0.664,1.624,1.416,-15.329,-58.152,-13.361
20:00:42:165,41.005,-1.079,-0.008,-1.600,-13.243,-56.997,-8.826
20:00:42:189,41.029,-0.728,0.072,-0.149,-11.840,-55.711,-3.799
20:00:42:215,41.055,-0.118,-0.212,-0.400,-10.351,-54.630,-2.021
20:00:42:246,41.086,0.089,0.224,0.399,-9.638,-56.689,-0.714
20:00:42:246,41.086,0.016,0.017,0.327,-8.793,-58.488,1.406
20:00:42:268,41.108,0.214,-0.007,-0.117,-8.066,-58.239,2.796
20:00:42:294,41.134,0.213,-0.023,-0.136,-6.832,-59.376,4.481
20:00:42:321,41.161,0.135,0.105,0.088,-6.024,-60.997,5.622
20:00:42:376,41.216,0.242,0.052,-0.008,-4.546,-62.031,7.275
20:00:42:377,41.217,0.278,-0.045,-0.132,-2.732,-63.143,9.155
20:00:42:428,41.268,0.150,0.038,-0.056,-1.474,-63.863,10.419
20:00:42:429,41.269,0.077,0.188,0.062,0.835,-64.955,12.432
20:00:42:453,41.293,0.150,0.219,0.430,2.677,-65.850,14.133
20:00:42:508,41.348,0.370,0.291,0.598,5.965,-66.793,17.155
20:00:42:508,41.348,0.503,0.475,0.801,9.737,-66.749,21.245
20:00:42:533,41.373,1.175,0.522,1.012,13.121,-66.621,24.679
20:00:42:558,41.398,2.692,0.292,0.565,19.639,-67.155,30.893
20:00:42:641,41.481,1.572,1.225,1.094,24.817,-67.345,37.305
20:00:42:642,41.482,1.015,-0.455,-0.839,34.831,-63.332,48.196
20:00:42:642,41.482,1.569,-1.157,0.937,38.146,-62.949,50.086
20:00:42:716,41.556,0.632,-1.604,0.394,39.183,-62.993,47.775
20:00:42:777,41.617,0.535,-1.157,0.123,35.818,-61.674,43.516
20:00:42:777,41.617,0.514,-1.093,0.051,31.852,-60.586,39.999
20:00:42:777,41.617,0.675,-0.805,0.018,24.444,-59.183,33.204
20:00:42:778,41.618,0.742,-0.662,-0.066,19.219,-57.999,28.048
20:00:42:793,41.633,0.793,-0.096,0.001,11.407,-55.670,19.222
20:00:42:819,41.659,0.442,0.537,-0.310,4.055,-51.884,9.602
20:00:42:846,41.686,-0.153,1.302,-0.491,-0.502,-49.022,2.958
20:00:42:902,41.742,-1.146,1.145,-1.420,-5.787,-45.135,-7.344
20:00:42:902,41.742,-2.244,0.186,-1.800,-8.551,-42.541,-13.667
20:00:42:925,41.765,-3.172,-0.446,-0.995,-13.080,-39.227,-20.300
20:00:42:981,41.821,-2.802,-0.780,-0.786,-14.556,-36.852,-21.310
20:00:42:981,41.821,-2.310,0.456,-0.582,-13.063,-35.486,-19.081
20:00:43:033,41.873,-0.368,0.705,-0.198,-8.960,-32.256,-11.781
20:00:43:033,41.873,-2.169,-0.021,-1.587,-7.578,-32.321,-6.797
20:00:43:058,41.898,-0.600,-0.409,-0.117,-7.008,-31.132,-3.105
20:00:43:083,41.923,0.240,0.167,-0.056,-5.750,-31.814,-1.789
20:00:43:109,41.949,-0.336,0.422,0.179,-5.078,-34.259,0.660
20:00:43:217,42.057,0.090,-0.077,-0.140,-3.606,-34.220,2.536
20:00:43:217,42.057,-0.047,0.179,-0.008,-2.519,-34.123,3.525
20:00:43:275,42.115,0.194,0.071,0.120,-1.127,-35.008,4.934
20:00:43:276,42.116,0.180,0.045,-0.047,-0.248,-35.053,5.882
20:00:43:277,42.117,0.120,-0.029,-0.155,1.191,-34.933,7.471
20:00:43:277,42.117,0.052,-0.108,-0.207,2.925,-35.156,9.201
20:00:43:322,42.162,0.409,0.247,0.119,6.389,-35.828,12.282
20:00:43:344,42.184,0.392,0.289,0.210,8.134,-35.852,13.852
20:00:43:4,42.240,0.692,0.271,0.285,11.284,-35.380,16.803
20:00:43:401,42.241,1.218,0.426,0.093,13.856,-34.731,19.410
20:00:43:423,42.263,2.151,0.246,-0.252,18.659,-33.920,24.446
20:00:43:451,42.291,2.074,0.795,-0.530,25.516,-32.828,33.004
20:00:43:476,42.316,0.687,0.044,-1.213,31.885,-30.468,40.206
20:00:43:502,42.342,0.446,-0.571,-0.826,39.108,-26.459,47.322
20:00:43:528,42.368,1.189,-1.002,-0.508,41.079,-24.775,48.160
20:00:43:554,42.394,0.358,-1.177,-0.246,39.985,-20.640,47.549
20:00:43:61,42.450,0.302,-1.113,-0.394,34.823,-15.759,45.245
20:00:43:66,42.500,0.298,-1.017,-0.502,30.199,-13.188,42.344
20:00:43:773,42.613,0.227,-0.835,-0.557,22.929,-9.972,36.431
20:00:43:774,42.614,0.331,-0.591,-0.557,18.374,-8.106,31.220
20:00:43:775,42.615,0.441,-0.310,-0.601,11.996,-5.439,22.538
20:00:43:797,42.637,-0.287,1.098,-0.775,2.164,1.411,7.011
20:00:43:797,42.637,-1.313,0.799,-0.563,-2.870,5.853,-2.674
20:00:43:798,42.638,-2.293,1.104,0.051,-6.170,9.010,-9.129
20:00:43:817,42.657,-2.503,-0.041,0.916,-11.246,11.158,-16.486
20:00:43:843,42.683,-2.724,-0.669,1.359,-14.587,10.765,-19.191
20:00:43:869,42.709,-1.208,0.181,2.058,-16.731,9.775,-17.886
20:00:44:063,42.903,0.890,0.827,-0.402,-12.562,12.084,-10.275
20:00:44:063,42.903,-1.699,0.414,0.818,-11.322,12.420,-6.040
20:00:44:064,42.904,-0.187,-0.008,0.221,-10.169,14.785,-2.925
20:00:44:065,42.905,-0.307,-0.133,0.067,-9.261,16.104,-1.443
20:00:44:136,42.976,0.209,0.695,0.302,-9.080,14.185,0.684
20:00:44:136,42.976,0.486,0.093,0.149,-8.445,12.716,2.965
20:00:44:168,43.008,-0.433,-0.070,-0.235,-8.006,13.090,4.225
20:00:44:169,43.009,0.280,-0.113,-0.144,-6.885,11.705,6.014
20:00:44:169,43.009,0.131,0.064,-0.126,-6.051,10.426,6.993
20:00:44:17,43.010,-0.023,0.051,-0.099,-4.752,9.846,8.598
20:00:44:218,43.058,0.029,0.001,-0.283,-3.728,9.251,9.736
20:00:44:218,43.058,-0.017,0.021,-0.216,-2.126,8.280,11.591
20:00:44:218,43.058,0.115,0.153,-0.053,-0.278,7.678,13.538
20:00:44:238,43.078,0.338,0.266,0.135,1.273,7.207,14.950
20:00:44:263,43.103,0.644,0.298,-0.024,4.044,6.663,17.335
20:00:44:32,43.160,0.722,0.386,-0.228,6.275,6.955,19.376
20:00:44:323,43.162,1.022,0.349,-0.636,10.019,7.843,23.426
20:00:44:342,43.182,1.605,0.246,-1.868,15.018,8.300,28.931
20:00:44:368,43.208,1.634,0.929,-2.031,18.995,8.486,34.342
20:00:44:448,43.288,-0.019,-0.198,-1.206,27.765,11.496,44.978
20:00:44:5,43.340,-0.282,-1.169,-0.833,33.020,13.843,50.733
20:00:44:535,43.375,0.960,-1.267,-1.075,36.104,14.871,51.587
20:00:44:536,43.376,0.252,-1.198,-0.340,35.585,16.093,49.918
20:00:44:537,43.377,0.235,-1.158,-0.455,31.317,17.849,46.087
20:00:44:537,43.377,0.194,-1.040,-0.517,24.843,19.084,40.344
20:00:44:553,43.393,0.181,-0.791,-0.551,19.916,19.821,35.583
20:00:44:581,43.421,0.161,-0.528,-0.565,12.853,20.813,27.214
20:00:44:582,43.422,0.336,-0.067,-0.549,8.432,21.621,21.006
20:00:44:633,43.473,0.050,0.457,-0.432,1.850,24.442,11.190
20:00:44:634,43.474,-0.689,1.184,0.305,-4.298,28.408,1.177
20:00:44:686,43.526,-1.527,1.246,0.886,-7.614,30.959,-5.809
20:00:44:686,43.526,-2.203,0.161,1.901,-11.737,35.450,-14.900
20:00:44:74,43.580,-1.955,-0.691,3.254,-14.481,37.606,-18.890
20:00:44:74,43.580,-0.635,-0.021,2.765,-15.978,39.165,-19.428
20:00:44:762,43.602,0.486,1.452,-0.225,-13.501,39.924,-15.210
20:00:44:788,43.628,-1.818,0.354,1.931,-10.690,41.057,-7.396
20:00:44:844,43.684,-0.655,-0.588,0.488,-9.621,41.877,-3.715
20:00:44:845,43.685,-0.814,-0.298,0.290,-8.313,42.117,-1.911
20:00:44:867,43.707,0.215,0.547,0.360,-7.690,40.762,0.397
20:00:44:893,43.733,0.002,0.142,-0.017,-7.005,40.098,1.722
20:00:44:919,43.759,-0.151,-0.067,0.076,-6.095,40.132,3.552
20:00:44:975,43.815,0.184,0.112,-0.087,-4.985,39.120,4.980
20:00:44:975,43.815,0.019,0.063,-0.167,-4.181,38.468,5.885
20:00:44:998,43.838,-0.060,0.005,-0.141,-2.807,38.039,7.243
20:00:45:024,43.864,-0.144,-0.032,-0.138,-1.832,37.522,8.275
20:00:45:05,43.890,-0.072,0.057,-0.161,-0.144,36.551,9.898
20:00:45:191,44.031,0.176,0.220,-0.156,1.169,35.994,11.016
20:00:45:192,44.032,0.335,0.366,-0.230,3.591,35.315,12.971
20:00:45:192,44.032,0.562,0.420,-0.373,6.474,35.236,15.430
20:00:45:193,44.033,0.628,0.348,-0.589,8.902,35.755,17.484
20:00:45:24,44.080,0.784,0.493,-1.521,13.429,36.801,21.940
20:00:45:24,44.080,0.040,0.860,-3.026,16.870,37.526,26.336
20:00:45:241,44.081,0.356,0.769,-1.799,23.466,39.812,35.796
20:00:45:32,44.160,-0.987,-0.428,-0.570,32.146,45.062,45.598
20:00:45:32,44.160,-0.025,-1.115,-1.485,35.012,47.152,47.866
20:00:45:32,44.160,-0.098,-1.419,-0.739,35.554,50.131,47.382
20:00:45:34,44.180,-0.228,-1.139,-0.480,33.957,52.804,45.814
20:00:45:367,44.207,-0.297,-1.200,-0.483,29.211,55.953,42.072
20:00:45:45,44.290,-0.458,-0.877,-0.516,22.507,59.124,36.581
20:00:45:45,44.290,-0.503,-0.679,-0.505,17.771,61.368,31.850
20:00:45:476,44.316,-0.512,-0.317,-0.639,11.309,64.494,23.385
20:00:45:476,44.316,-0.640,0.257,-0.452,7.310,66.838,17.152
20:00:45:497,44.337,-0.832,1.145,0.006,1.521,71.390,7.178
20:00:45:55,44.390,-1.124,1.041,1.111,-2.022,74.624,0.514
20:00:45:579,44.419,-0.851,1.091,2.423,-6.738,79.978,-9.974
20:00:45:581,44.421,0.205,-0.135,2.979,-11.898,83.348,-18.273
20:00:45:716,44.556,0.510,-0.766,3.540,-15.603,84.067,-21.628
20:00:45:717,44.557,0.938,-0.210,2.751,-18.011,84.275,-21.444
20:00:45:718,44.558,0.690,1.779,-1.746,-16.585,85.149,-17.681
20:00:45:719,44.559,0.511,0.047,2.075,-12.516,88.618,-10.644
20:00:45:765,44.605,0.701,0.984,-0.153,-11.857,90.351,-5.279
20:00:45:766,44.606,-0.870,-0.563,1.447,-10.258,91.737,-4.230
20:00:45:766,44.606,0.498,0.528,-0.309,-9.730,89.329,-1.136
20:00:45:787,44.627,0.351,0.313,-0.557,-9.277,88.153,0.063
20:00:45:813,44.653,-0.065,0.053,0.601,-8.268,89.064,2.220
20:00:45:838,44.678,0.070,-0.047,-0.280,-7.614,88.441,3.491
20:00:45:864,44.704,-0.170,0.118,-0.185,-6.419,86.987,5.170
20:00:45:891,44.731,-0.218,-0.072,0.135,-4.976,86.619,6.801
20:00:45:947,44.787,-0.286,-0.092,0.031,-4.043,86.200,7.959
20:00:45:947,44.787,-0.071,0.037,0.049,-2.596,85.300,9.775
20:00:45:969,44.809,0.168,0.189,-0.223,-1.504,84.744,10.986
20:00:45:997,44.837,0.172,0.290,-0.361,0.661,83.913,12.997
20:00:46:023,44.863,0.083,0.398,-0.522,3.323,83.682,15.576
20:00:46:105,44.945,-0.061,0.383,-0.675,5.490,84.063,17.588
20:00:46:106,44.946,-0.294,0.276,-0.990,9.272,84.929,21.540
20:00:46:188,45.028,-1.071,0.561,-1.684,12.244,85.398,24.981
20:00:46:189,45.029,-1.403,0.933,-1.743,18.212,85.920,31.818
20:00:46:189,45.029,-1.076,0.060,-0.305,25.886,88.338,42.022
20:00:46:19,45.030,-0.887,-0.785,0.326,31.157,90.333,47.695
20:00:46:264,45.104,-0.652,-1.189,-0.868,34.769,90.847,48.740
20:00:46:264,45.104,-0.260,-1.123,-0.258,34.711,91.932,47.645
20:00:46:265,45.105,-0.328,-1.102,-0.231,31.075,93.928,44.851
20:00:46:284,45.124,-0.421,-1.015,-0.216,27.299,95.042,42.086
20:00:46:313,45.153,-0.497,-0.880,-0.232,20.156,96.287,36.423
20:00:46:338,45.178,-0.529,-0.472,-0.283,12.438,97.721,29.057
20:00:46:364,45.204,-0.468,-0.267,-0.339,7.449,98.753,23.470
20:00:46:389,45.229,-0.319,0.156,-0.288,0.512,100.956,14.484
20:00:46:416,45.256,-0.130,1.340,-0.006,-4.019,103.251,8.014
20:00:46:442,45.282,0.385,1.313,0.886,-10.043,107.473,-2.277
20:00:46:522,45.362,0.898,1.006,1.918,-14.850,110.956,-13.051
20:00:46:554,45.394,2.213,-0.261,2.391,-17.995,113.347,-18.989
20:00:46:554,45.394,2.744,-1.124,2.470,-22.965,114.405,-24.065
20:00:46:554,45.394,1.928,0.101,1.540,-23.229,114.016,-23.357
20:00:46:576,45.416,-0.507,1.780,-1.883,-18.818,114.777,-16.987
20:00:46:601,45.441,0.974,-0.273,1.446,-16.793,115.545,-12.359
20:00:46:627,45.467,0.783,0.020,0.753,-15.032,116.862,-7.428
20:00:46:653,45.493,0.093,-0.331,0.518,-13.740,117.769,-5.414
20:00:46:678,45.518,0.077,0.297,-0.138,-13.149,116.820,-4.199
20:00:46:704,45.544,0.324,0.167,-0.199,-12.960,115.156,-2.410
20:00:46:733,45.573,-0.153,-0.088,0.220,-12.672,114.835,-1.103
20:00:46:734,45.574,-0.041,0.166,0.427,-11.968,114.294,0.408
20:00:46:757,45.597,-0.178,-0.032,-0.193,-11.148,112.406,1.963
20:00:46:783,45.623,-0.155,0.002,0.038,-10.580,111.882,2.894
20:00:46:84,45.680,-0.221,-0.168,0.206,-9.478,111.193,4.242
20:00:46:84,45.680,-0.194,0.032,0.055,-8.855,110.760,5.137
20:00:46:919,45.759,0.103,0.161,-0.098,-7.790,110.371,6.610
20:00:46:919,45.759,0.281,0.329,-0.125,-6.018,109.782,8.525
20:00:46:944,45.784,0.096,0.249,-0.331,-4.392,109.019,10.260
20:00:46:944,45.784,-0.222,0.502,-0.302,-1.368,108.311,13.386
20:00:46:967,45.807,-0.410,0.681,-0.545,1.009,107.986,16.129
20:00:47:022,45.862,-0.779,0.731,-0.852,5.785,107.610,21.380
20:00:47:023,45.863,-2.306,0.296,-0.982,12.403,107.860,27.178
20:00:47:045,45.885,-2.075,0.048,-1.047,16.735,108.482,32.236
20:00:47:071,45.911,-1.147,0.018,-0.258,23.677,110.985,41.623
20:00:47:127,45.967,-1.509,-1.301,-1.114,27.282,111.453,44.864
20:00:47:127,45.967,-0.795,-1.247,-0.692,28.996,110.284,44.871
20:00:47:18,46.020,-0.391,-1.447,-0.400,27.919,109.229,43.689
20:00:47:181,46.021,-0.450,-1.265,-0.347,23.115,107.618,39.586
20:00:47:204,46.044,-0.405,-0.863,-0.478,16.107,105.871,33.979
20:00:47:263,46.103,-0.376,-0.693,-0.572,10.860,105.157,29.505
20:00:47:263,46.103,-0.217,-0.215,-0.632,2.993,104.930,21.960
20:00:47:34,46.180,-0.129,0.010,-0.647,-1.830,105.695,16.297
20:00:47:341,46.181,0.051,0.802,-0.385,-8.600,108.669,6.535
20:00:47:342,46.182,0.632,1.158,0.624,-12.406,111.210,-0.523
20:00:47:391,46.231,1.095,1.001,1.405,-17.528,113.872,-11.157
20:00:47:391,46.231,2.015,-0.290,2.447,-22.708,116.276,-20.163
20:00:47:413,46.253,2.826,-1.255,2.692,-26.626,116.257,-23.666
20:00:47:468,46.308,2.753,-0.543,2.349,-28.595,114.750,-22.621
20:00:47:469,46.309,-1.436,2.228,-2.782,-25.660,114.451,-17.714
20:00:47:493,46.333,2.490,0.365,1.652,-21.956,116.922,-11.872
20:00:47:577,46.417,0.648,0.037,0.424,-20.203,117.103,-6.634
20:00:47:577,46.417,0.611,-0.012,1.059,-19.401,118.062,-5.558
20:00:47:578,46.418,0.368,-0.104,0.156,-17.945,116.334,-4.201
20:00:47:655,46.495,0.414,0.401,-0.175,-17.526,114.732,-3.424
20:00:47:656,46.496,0.080,-0.090,-0.251,-16.958,113.588,-1.413
20:00:47:656,46.496,-0.157,0.045,0.242,-16.222,114.039,-0.035
20:00:47:763,46.603,-0.301,-0.140,0.399,-15.704,113.015,1.239
20:00:47:764,46.604,0.038,0.067,-0.226,-15.225,110.581,2.975
20:00:47:764,46.604,-0.077,0.030,0.065,-14.637,109.886,3.967
20:00:47:765,46.605,-0.293,0.020,0.129,-13.357,108.603,5.586
20:00:47:781,46.621,-0.029,0.200,0.150,-11.941,107.004,7.526
20:00:47:921,46.761,0.084,0.180,0.004,-10.646,105.715,9.161
20:00:47:924,46.764,0.102,0.286,-0.534,-8.205,103.252,12.112
20:00:47:924,46.764,0.008,0.374,-0.491,-6.111,102.204,14.293
20:00:47:924,46.764,-0.187,0.546,-0.600,-2.195,100.958,18.409
20:00:47:97,46.810,-0.628,0.736,-1.289,1.265,99.909,21.675
20:00:47:971,46.811,-1.815,0.673,-1.726,7.888,98.685,27.620
20:00:47:971,46.811,-1.953,1.139,-1.613,14.306,98.720,36.653
20:00:48:021,46.861,-1.325,-0.179,-0.594,20.472,100.719,43.585
20:00:48:021,46.861,-1.105,-1.073,0.111,26.611,101.566,48.119
20:00:48:102,46.942,-1.144,-1.227,-0.947,28.631,100.389,47.363
20:00:48:102,46.942,-0.115,-1.435,-0.309,28.492,99.810,43.907
20:00:48:103,46.943,-0.346,-1.277,-0.237,25.747,99.629,40.940
20:00:48:151,46.991,-0.472,-1.010,-0.271,19.376,99.965,35.175
20:00:48:152,46.992,-0.541,-0.774,-0.261,11.778,101.165,28.160
20:00:48:205,47.045,-0.494,-0.255,-0.375,6.653,102.359,22.656
20:00:48:205,47.045,-0.427,0.026,-0.326,-0.472,105.197,13.433
20:00:48:286,47.126,0.048,1.282,-0.018,-4.972,108.057,6.539
20:00:48:286,47.126,0.555,1.191,0.670,-10.541,113.127,-4.230
20:00:48:286,47.126,1.217,0.863,2.092,-14.632,118.157,-15.076
20:00:48:364,47.204,2.066,-0.334,2.279,-17.134,121.682,-21.047
20:00:48:365,47.205,3.171,-1.250,2.248,-20.013,126.280,-25.509
20:00:48:366,47.206,2.462,0.115,1.561,-19.054,127.511,-24.605
20:00:48:414,47.254,-0.420,1.921,-0.769,-13.844,130.721,-16.683
20:00:48:414,47.254,1.392,0.195,1.713,-11.933,130.299,-9.765
20:00:48:466,47.306,0.354,-0.332,0.411,-11.306,130.443,-7.661
20:00:48:467,47.307,0.058,-0.353,0.068,-9.848,129.377,-4.877
20:00:48:548,47.387,0.396,0.587,-0.208,-9.654,128.559,-3.599
20:00:48:549,47.389,0.103,0.025,0.124,-8.566,128.380,-1.630
20:00:48:549,47.389,0.108,-0.002,0.037,-7.881,128.089,-0.369
20:00:48:598,47.438,-0.025,0.171,-0.135,-6.815,126.583,0.987
20:00:48:598,47.438,-0.084,0.004,0.086,-5.331,125.822,2.264
20:00:48:62,47.460,-0.067,0.004,0.087,-4.401,125.478,3.107
20:00:48:647,47.487,-0.148,-0.064,0.100,-2.947,124.590,4.471
20:00:48:673,47.513,-0.033,0.028,0.025,-1.955,124.020,5.493
20:00:48:699,47.539,-0.084,0.089,0.032,-0.101,123.296,7.139
20:00:48:727,47.567,-0.171,0.316,-0.151,2.168,122.925,9.154
20:00:48:752,47.592,-0.127,0.364,-0.465,4.019,122.696,10.792
20:00:48:778,47.618,-0.654,0.613,-0.734,7.700,122.378,14.142
20:00:48:863,47.703,-1.032,0.540,-0.749,10.765,122.585,17.127
20:00:48:863,47.703,-3.010,0.475,-0.193,15.529,123.282,23.278
20:00:48:864,47.704,-1.049,0.387,-0.247,19.648,124.656,29.646
20:00:48:966,47.806,-0.448,0.446,1.512,26.439,129.338,39.614
20:00:48:966,47.806,-1.635,-1.042,-0.298,30.516,131.633,41.725
20:00:48:996,47.836,-0.520,-1.275,0.076,31.352,132.330,40.227
20:00:48:997,47.837,-0.547,-1.068,0.112,29.810,135.183,36.796
20:00:48:997,47.837,-0.614,-1.039,0.151,27.170,137.527,34.065
20:00:49:068,47.908,-0.643,-0.831,0.379,21.526,142.000,29.013
20:00:49:104,47.944,-0.559,-0.573,0.602,15.349,146.979,22.742
20:00:49:104,47.944,-0.559,-0.273,0.633,11.558,150.179,17.658
20:00:49:104,47.944,-0.352,0.048,0.684,6.361,155.447,9.319
20:00:49:105,47.945,-0.023,0.666,0.865,3.153,159.539,3.243
20:00:49:18,48.020,0.913,0.698,1.184,-0.845,165.414,-6.256
20:00:49:18,48.020,2.093,0.520,1.241,-4.591,170.266,-15.986
20:00:49:18,48.020,2.718,-0.037,0.287,-8.189,172.255,-21.379
20:00:49:202,48.042,3.070,-0.915,-0.345,-14.433,172.517,-26.556
20:00:49:225,48.065,2.601,-0.784,-0.807,-16.928,172.341,-26.998
20:00:49:359,48.199,0.158,0.675,-2.997,-15.914,173.642,-22.914
20:00:49:36,48.200,1.826,-0.509,-0.381,-11.867,176.871,-18.086
20:00:49:469,48.309,1.969,0.153,0.171,-8.996,178.849,-11.888
20:00:49:47,48.310,1.747,-1.109,-0.097,-7.166,-177.516,-9.238
20:00:49:471,48.311,1.155,-0.542,0.731,-6.306,-177.646,-7.399
20:00:49:472,48.312,-0.053,0.697,-0.651,-6.088,179.229,-5.579
20:00:49:52,48.360,-0.115,0.023,0.001,-5.484,178.711,-4.226
20:00:49:52,48.360,0.684,0.162,0.291,-4.441,179.704,-2.374
20:00:49:548,48.388,-0.298,0.011,0.021,-3.428,177.720,-0.919
20:00:49:549,48.389,0.002,0.038,0.178,-2.592,177.344,0.002
20:00:49:549,48.389,0.136,-0.009,0.227,-1.164,177.217,1.498
20:00:49:55,48.390,0.021,0.026,0.188,-0.195,176.442,2.618
20:00:49:566,48.406,0.014,0.162,-0.045,1.320,175.151,4.285
20:00:49:592,48.432,-0.252,0.225,-0.068,2.532,174.331,5.423
20:00:49:699,48.539,-0.332,0.243,0.005,4.823,173.638,7.375
20:00:49:724,48.564,-0.387,0.469,0.233,7.745,173.886,10.030
20:00:49:777,48.617,-0.567,0.478,0.332,10.132,174.233,12.334
20:00:49:838,48.678,-1.250,0.625,0.745,14.719,174.557,16.763
20:00:49:839,48.678,-1.638,0.475,2.077,18.343,174.856,20.986
20:00:49:84,48.680,-0.607,0.670,1.614,24.841,176.534,29.997
20:00:49:841,48.681,0.351,-0.376,1.105,31.267,179.719,38.154
20:00:49:934,48.774,-1.237,-0.895,1.010,33.386,-178.371,39.568
20:00:49:965,48.805,-0.560,-1.320,0.524,33.264,-175.920,39.878
20:00:49:965,48.805,-0.306,-1.218,0.517,31.081,-173.684,38.724
20:00:50:048,48.888,-0.283,-1.055,0.414,25.926,-172.846,34.908
20:00:50:049,48.889,-0.351,-0.865,0.353,19.470,-172.348,29.390
20:00:50:049,48.889,-0.393,-0.607,0.391,14.932,-171.842,24.636
20:00:50:05,48.890,-0.450,-0.201,0.424,8.309,-170.431,16.478
20:00:50:179,49.019,-0.239,0.271,0.388,4.009,-168.317,10.552
20:00:50:18,49.020,0.489,1.423,0.038,-2.272,-163.589,0.719
20:00:50:181,49.021,1.544,1.143,-0.405,-5.625,-160.421,-6.008
20:00:50:181,49.021,2.280,0.740,-1.156,-9.995,-155.359,-16.004
20:00:50:202,49.042,2.310,-0.545,-2.217,-14.373,-152.017,-23.156
20:00:50:202,49.042,2.270,-1.117,-2.432,-16.576,-150.660,-24.853
20:00:50:203,49.043,0.831,-0.039,-2.874,-15.211,-149.869,-21.470
20:00:50:228,49.068,1.273,0.175,-2.023,-11.781,-147.356,-15.823
20:00:50:228,49.068,0.923,0.450,-0.793,-9.639,-146.590,-9.664
20:00:50:229,49.069,1.214,-0.727,-0.511,-8.040,-145.769,-6.719
20:00:50:248,49.088,-0.082,-0.105,-0.046,-7.241,-146.636,-4.854
20:00:50:274,49.114,-0.251,0.166,-0.109,-6.524,-148.343,-3.144
20:00:50:301,49.141,0.197,0.131,0.050,-5.708,-148.548,-1.755
20:00:50:385,49.225,0.161,-0.016,0.017,-4.351,-149.362,-0.031
20:00:50:386,49.226,0.002,0.169,0.144,-3.611,-150.624,0.875
20:00:50:386,49.226,0.042,-0.002,0.109,-2.303,-151.606,2.207
20:00:50:491,49.331,0.119,-0.007,0.140,-1.028,-152.468,3.616
20:00:50:491,49.331,0.115,-0.046,0.237,-0.054,-153.214,4.654
20:00:50:514,49.354,0.025,0.060,0.089,1.663,-154.188,6.395
20:00:50:515,49.355,-0.105,0.190,0.022,3.020,-154.737,7.643
20:00:50:54,49.380,-0.322,0.178,0.130,5.377,-155.618,9.798
20:00:50:567,49.407,-0.455,0.372,0.389,8.437,-155.834,12.448
20:00:50:567,49.407,-0.530,0.470,0.568,10.834,-155.607,14.871
20:00:50:62,49.460,-0.728,0.381,1.221,15.220,-155.181,19.451
20:00:50:62,49.460,-0.693,0.369,2.836,18.459,-155.120,23.573
20:00:50:702,49.542,-0.143,0.836,1.100,24.991,-153.848,32.895
20:00:50:702,49.542,1.173,0.160,0.889,30.411,-151.399,39.594
20:00:50:703,49.543,-0.314,-1.050,1.235,36.095,-149.207,44.314
20:00:50:75,49.590,-0.230,-1.362,0.517,37.653,-147.874,43.009
20:00:50:75,49.590,-0.037,-1.190,0.359,36.665,-146.377,41.276
20:00:50:831,49.671,-0.065,-1.153,0.448,32.717,-143.914,37.676
20:00:50:832,49.672,0.106,-0.960,0.530,28.825,-142.025,34.564
20:00:50:833,49.673,0.174,-0.819,0.533,22.098,-139.037,28.674
20:00:50:88,49.720,0.270,-0.430,0.611,15.551,-136.267,20.808
20:00:50:907,49.747,0.104,-0.232,0.706,11.392,-134.346,14.876
20:00:50:908,49.748,0.391,0.422,0.391,5.384,-129.911,5.543
20:00:50:931,49.771,1.024,1.212,-0.362,1.584,-126.276,-0.823
20:00:51:017,49.857,1.449,0.986,-1.422,-2.896,-120.935,-10.680
20:00:51:017,49.857,1.287,0.143,-2.582,-6.839,-115.732,-19.507
20:00:51:017,49.857,0.457,-0.783,-3.389,-9.804,-113.421,-23.316
20:00:51:065,49.905,0.048,-0.767,-2.891,-12.206,-112.414,-24.001
20:00:51:066,49.906,-1.539,0.815,-1.095,-11.092,-111.894,-20.777
20:00:51:088,49.928,-0.039,0.530,-2.027,-7.222,-109.072,-12.919
20:00:51:114,49.954,1.184,-0.003,-2.359,-6.198,-109.214,-8.243
20:00:51:145,49.985,0.338,-1.162,-0.684,-4.875,-108.185,-5.066
20:00:51:145,49.985,-0.094,0.410,0.051,-3.712,-109.329,-2.197
20:00:51:196,50.036,-0.288,0.441,0.047,-3.162,-110.382,-0.934
20:00:51:197,50.037,0.176,0.131,-0.093,-1.691,-110.486,1.085
20:00:51:278,50.118,0.064,0.085,0.002,-0.537,-110.904,2.314
20:00:51:279,50.119,0.109,0.123,0.190,1.012,-111.674,3.687
20:00:51:279,50.119,0.138,0.012,0.048,2.518,-111.590,5.295
20:00:51:298,50.138,0.177,-0.004,0.033,3.403,-111.617,6.385
20:00:51:324,50.164,0.169,0.003,0.012,4.810,-112.072,7.962
20:00:51:352,50.192,0.066,0.067,0.066,5.873,-112.427,9.039
20:00:51:435,50.275,0.058,0.208,0.313,7.808,-112.885,10.695
20:00:51:436,50.276,-0.114,0.183,0.500,9.320,-113.069,11.993
20:00:51:437,50.277,-0.091,0.214,0.630,12.096,-112.903,14.566
20:00:51:544,50.384,0.214,0.381,1.121,15.799,-112.086,18.593
20:00:51:544,50.384,0.548,0.303,1.715,18.980,-111.814,22.022
20:00:51:545,50.385,1.355,0.850,2.423,24.541,-111.503,29.415
20:00:51:545,50.385,1.393,-0.067,0.282,30.377,-109.397,36.583
20:00:51:561,50.400,1.074,-0.682,-0.109,37.713,-105.418,45.008
20:00:51:587,50.427,0.548,-1.158,1.119,39.976,-103.841,45.118
20:00:51:613,50.453,0.375,-1.200,0.359,39.220,-100.410,44.050
20:00:51:669,50.509,0.451,-1.131,0.274,35.292,-97.300,41.211
20:00:51:67,50.510,0.502,-0.983,0.295,31.414,-95.807,38.089
20:00:51:722,50.562,0.608,-0.741,0.281,24.543,-93.660,32.142
20:00:51:722,50.562,0.642,-0.525,0.269,17.629,-91.525,24.825
20:00:51:804,50.644,0.634,-0.245,0.263,13.097,-89.921,19.512
20:00:51:805,50.645,0.751,0.564,0.082,6.349,-86.370,10.966
20:00:51:805,50.645,0.645,1.097,-0.353,2.046,-83.354,5.085
20:00:51:823,50.663,0.092,0.871,-1.480,-3.325,-78.749,-4.036
20:00:51:852,50.692,-0.348,0.790,-2.229,-6.596,-75.932,-10.248
20:00:52:089,50.929,-1.358,-0.022,-2.331,-12.045,-74.510,-17.349
20:00:52:09,50.930,-2.215,-0.068,-2.572,-16.326,-74.213,-19.854
20:00:52:124,50.964,-2.914,0.094,-1.497,-15.852,-73.845,-17.595
20:00:52:124,50.964,-1.090,0.646,-0.607,-11.588,-70.748,-10.133
20:00:52:124,50.964,-0.180,0.163,-0.244,-10.458,-71.013,-6.215
20:00:52:124,50.964,-0.487,-0.507,-1.588,-9.062,-69.148,-3.127
20:00:52:2,51.040,-0.286,0.126,0.009,-8.303,-69.446,-1.274
20:00:52:201,51.041,-0.273,0.261,0.224,-8.181,-70.989,-0.372
20:00:52:202,51.042,0.158,0.016,-0.055,-7.961,-71.829,1.778
20:00:52:203,51.043,0.285,0.113,-0.521,-7.515,-71.635,2.817
20:00:52:305,51.145,0.122,0.054,0.283,-6.783,-73.535,4.426
20:00:52:305,51.145,0.261,0.030,0.046,-6.222,-74.607,5.425
20:00:52:306,51.146,0.204,0.007,-0.160,-4.999,-75.468,7.064
20:00:52:307,51.147,0.377,-0.067,-0.026,-3.372,-76.996,8.895
20:00:52:56,51.400,0.252,0.046,-0.037,-2.268,-77.894,10.142
20:00:52:585,51.425,-0.014,0.222,0.089,-0.367,-78.911,12.132
20:00:52:67,51.510,-0.051,0.313,0.449,1.241,-79.723,13.631
20:00:52:67,51.510,0.150,0.276,0.568,4.290,-80.798,16.364
20:00:52:69,51.530,0.425,0.443,0.754,8.003,-81.027,19.805
20:00:52:726,51.566,0.784,0.535,0.874,10.990,-80.670,22.730
20:00:52:726,51.566,2.278,0.114,1.554,17.038,-80.280,28.036
20:00:52:726,51.566,1.999,1.139,1.419,21.303,-79.641,33.285
20:00:52:727,51.567,1.120,0.369,-0.038,28.610,-76.882,43.648
20:00:52:821,51.661,1.028,-1.281,-0.125,34.128,-74.912,49.508
20:00:52:857,51.697,0.883,-1.368,0.902,37.104,-75.304,50.156
20:00:52:858,51.698,0.224,-1.353,0.477,36.359,-75.168,47.741
20:00:52:859,51.699,0.264,-1.314,0.298,33.500,-75.501,45.111
20:00:52:86,51.700,0.386,-1.036,0.326,26.773,-75.950,39.593
20:00:52:882,51.722,0.404,-0.972,0.388,21.317,-76.038,35.201
20:00:52:883,51.723,0.500,-0.532,0.448,12.637,-75.256,27.516
20:00:52:884,51.724,0.430,0.010,0.385,4.477,-73.237,18.762
20:00:52:884,51.724,0.106,1.236,0.049,-0.516,-71.066,12.255
20:00:52:909,51.749,-0.418,1.213,-0.689,-6.796,-67.702,1.886
20:00:52:909,51.749,-1.045,1.268,-1.959,-9.952,-66.036,-5.265
20:00:52:91,51.750,-1.959,-0.025,-2.176,-14.497,-64.222,-14.593
