Time,Second,AccelerationX,AccelerationY,AccelerationZ,EulerAnglesX,EulerAnglesY,EulerAnglesZ
20:07:39:179,0.000,0.006,-0.001,0.006,-8.920,-1.149,0.841
20:07:39:179,0.000,0.006,0.002,0.006,-8.920,-1.149,0.841
20:07:39:202,0.023,0.007,0.000,0.005,-8.920,-1.149,0.841
20:07:39:229,0.050,0.006,-0.001,0.004,-8.920,-1.149,0.841
20:07:39:255,0.076,0.007,0.001,0.001,-8.920,-1.149,0.841
20:07:39:281,0.101,0.007,0.000,0.001,-8.920,-1.149,0.841
20:07:39:366,0.186,0.003,-0.001,0.003,-8.920,-1.149,0.841
20:07:39:367,0.187,0.007,-0.001,0.003,-8.920,-1.149,0.841
20:07:39:368,0.189,0.007,0.000,0.002,-8.920,-1.149,0.841
20:07:39:413,0.234,0.004,0.000,0.001,-8.920,-1.149,0.841
20:07:39:441,0.262,0.009,0.000,-0.001,-8.920,-1.149,0.841
20:07:39:442,0.263,0.004,0.002,0.004,-8.920,-1.149,0.841
20:07:39:464,0.285,0.005,0.000,-0.004,-8.920,-1.149,0.841
20:07:39:494,0.314,0.005,-0.002,0.005,-8.920,-1.149,0.841
20:07:39:517,0.338,0.008,0.000,-0.001,-8.920,-1.149,0.841
20:07:39:543,0.364,0.005,-0.001,0.004,-8.920,-1.149,0.841
20:07:39:57,0.391,0.007,0.002,-0.005,-8.920,-1.149,0.841
20:07:39:654,0.475,0.006,-0.001,0.005,-8.920,-1.149,0.841
20:07:39:655,0.475,0.010,0.001,-0.005,-8.920,-1.149,0.841
20:07:39:656,0.476,0.005,-0.003,0.009,-8.920,-1.149,0.841
20:07:39:703,0.524,0.011,0.003,-0.001,-8.920,-1.149,0.841
20:07:39:705,0.525,0.009,-0.003,0.010,-8.920,-1.149,0.841
20:07:39:728,0.549,0.003,-0.002,0.005,-8.920,-1.149,0.841
20:07:39:784,0.605,0.007,-0.001,0.007,-8.920,-1.149,0.841
20:07:39:784,0.605,0.007,0.000,0.000,-8.920,-1.149,0.841
20:07:39:805,0.626,0.009,0.003,0.003,-8.920,-1.149,0.841
20:07:39:832,0.653,0.010,0.002,0.001,-8.920,-1.149,0.841
20:07:39:86,0.681,0.002,-0.002,0.002,-8.920,-1.149,0.841
20:07:39:885,0.706,0.010,0.000,0.000,-8.920,-1.149,0.841
20:07:39:94,0.761,0.009,0.002,0.009,-8.920,-1.149,0.841
20:07:39:94,0.761,0.007,0.000,0.002,-8.920,-1.149,0.841
20:07:39:963,0.784,0.011,-0.002,0.005,-8.920,-1.149,0.841
20:07:39:991,0.812,0.009,0.000,0.002,-8.920,-1.149,0.841
20:07:40:045,0.865,0.010,0.000,0.002,-8.920,-1.149,0.841
20:07:40:046,0.866,0.008,-0.001,0.005,-8.916,-1.155,0.847
20:07:40:069,0.889,0.007,-0.001,0.007,-8.916,-1.155,0.847
20:07:40:094,0.915,0.005,0.000,0.004,-8.916,-1.155,0.847
20:07:40:122,0.942,0.013,0.004,-0.001,-8.911,-1.164,0.849
20:07:40:177,0.998,0.006,0.003,0.007,-8.890,-1.190,0.849
20:07:40:177,0.998,0.012,0.003,0.001,-8.866,-1.210,0.854
20:07:40:229,1.049,0.008,-0.001,0.007,-8.846,-1.230,0.858
20:07:40:23,1.050,0.011,0.001,-0.005,-8.846,-1.230,0.858
20:07:40:254,1.075,0.005,-0.002,0.008,-8.842,-1.226,0.864
20:07:40:309,1.130,0.006,0.003,0.002,-8.822,-1.226,0.867
20:07:40:31,1.130,0.014,0.001,0.005,-8.791,-1.229,0.892
20:07:40:36,1.181,0.012,0.003,0.001,-8.773,-1.225,0.909
20:07:40:36,1.181,0.010,-0.001,0.010,-8.744,-1.227,0.944
20:07:40:412,1.233,0.009,-0.003,-0.002,-8.723,-1.224,0.972
20:07:40:413,1.234,0.021,0.004,0.005,-8.699,-1.242,1.012
20:07:40:437,1.257,0.007,0.003,0.005,-8.673,-1.242,1.071
20:07:40:492,1.312,0.002,-0.001,0.004,-8.658,-1.250,1.109
20:07:40:492,1.312,0.008,-0.002,0.003,-8.660,-1.288,1.157
20:07:40:544,1.365,0.007,-0.002,0.015,-8.658,-1.320,1.179
20:07:40:545,1.366,0.003,-0.003,0.006,-8.656,-1.367,1.208
20:07:40:568,1.389,-0.001,0.003,0.016,-8.656,-1.433,1.218
20:07:40:623,1.444,0.007,0.008,0.009,-8.646,-1.519,1.231
20:07:40:623,1.444,0.013,-0.004,0.010,-8.646,-1.626,1.244
20:07:40:645,1.466,0.009,-0.006,0.001,-8.643,-1.662,1.262
20:07:40:672,1.493,0.017,0.008,0.016,-8.642,-1.705,1.295
20:07:40:7,1.520,0.009,-0.006,-0.001,-8.631,-1.728,1.329
20:07:40:754,1.575,0.014,-0.012,0.008,-8.624,-1.757,1.387
20:07:40:784,1.605,0.011,0.005,0.004,-8.628,-1.761,1.447
20:07:40:784,1.605,0.006,-0.002,0.003,-8.616,-1.745,1.498
20:07:40:785,1.606,0.008,0.000,0.000,-8.585,-1.734,1.557
20:07:40:831,1.652,0.010,0.000,-0.002,-8.550,-1.737,1.592
20:07:40:856,1.677,0.003,0.006,0.010,-8.506,-1.795,1.638
20:07:40:886,1.706,0.004,0.001,0.006,-8.432,-1.932,1.673
20:07:40:886,1.707,-0.005,0.008,0.003,-8.377,-2.059,1.695
20:07:40:908,1.729,0.020,0.011,-0.008,-8.257,-2.388,1.750
20:07:40:937,1.758,0.027,0.004,0.008,-8.163,-2.637,1.806
20:07:40:989,1.810,-0.048,0.021,-0.016,-7.939,-3.072,1.895
20:07:41:013,1.834,0.012,-0.002,-0.037,-7.720,-3.640,1.967
20:07:41:043,1.864,0.109,0.006,0.013,-7.385,-4.399,2.082
20:07:41:043,1.864,0.018,0.000,0.018,-7.050,-4.558,2.227
20:07:41:068,1.889,0.004,0.021,-0.028,-6.809,-4.613,2.349
20:07:41:15,1.971,0.046,-0.003,0.006,-6.432,-4.806,2.609
20:07:41:151,1.972,0.020,0.019,-0.009,-6.163,-4.851,2.792
20:07:41:151,1.972,0.011,0.013,-0.006,-5.699,-4.767,3.092
20:07:41:171,1.992,0.024,0.012,0.005,-5.204,-4.670,3.416
20:07:41:197,2.018,0.029,0.006,0.029,-4.877,-4.530,3.629
20:07:41:223,2.044,-0.003,0.004,0.029,-4.399,-4.284,3.922
20:07:41:279,2.099,-0.021,-0.005,0.024,-4.078,-4.219,4.089
20:07:41:28,2.100,0.009,-0.018,0.017,-3.680,-4.136,4.271
20:07:41:303,2.124,0.000,-0.026,0.016,-3.448,-4.026,4.332
20:07:41:328,2.149,-0.012,-0.027,0.008,-3.156,-3.837,4.374
20:07:41:384,2.205,-0.022,-0.026,0.018,-2.917,-3.694,4.376
20:07:41:385,2.206,-0.004,-0.038,0.003,-2.799,-3.669,4.350
20:07:41:409,2.230,0.011,-0.010,-0.003,-2.696,-3.684,4.254
20:07:41:462,2.283,0.034,0.006,0.025,-2.656,-3.711,4.190
20:07:41:463,2.284,0.031,0.022,0.012,-2.575,-3.747,4.121
20:07:41:544,2.365,0.037,0.013,0.009,-2.466,-3.833,4.116
20:07:41:545,2.366,0.015,0.036,-0.025,-2.399,-3.906,4.121
20:07:41:545,2.366,0.034,0.022,0.003,-2.250,-4.022,4.241
20:07:41:564,2.385,0.038,0.021,0.007,-2.127,-4.100,4.357
20:07:41:591,2.412,0.041,0.005,0.005,-1.906,-4.234,4.586
20:07:41:62,2.441,0.037,0.016,-0.002,-1.645,-4.316,4.768
20:07:41:643,2.464,0.048,0.019,0.007,-1.429,-4.383,4.940
20:07:41:67,2.491,0.063,0.055,0.009,-1.015,-4.496,5.240
20:07:41:725,2.545,0.064,0.053,-0.003,-0.617,-4.544,5.642
20:07:41:726,2.546,0.167,0.070,-0.069,0.158,-4.564,6.459
20:07:41:748,2.569,0.131,0.161,-0.132,0.786,-4.513,7.179
20:07:41:774,2.595,0.156,0.189,-0.122,2.017,-4.395,8.553
20:07:41:8,2.621,0.132,0.090,-0.093,3.523,-4.402,10.246
20:07:41:827,2.648,0.147,0.138,-0.073,4.573,-4.244,11.483
20:07:41:854,2.674,0.150,0.054,-0.107,6.407,-3.715,13.570
20:07:41:88,2.700,0.091,0.091,-0.165,7.616,-3.220,15.016
20:07:41:906,2.726,0.109,0.043,-0.200,9.000,-2.032,17.118
20:07:42:117,2.938,0.027,0.064,-0.184,10.323,-0.696,19.435
20:07:42:177,2.998,0.146,-0.212,-0.166,11.177,-0.136,20.786
20:07:42:178,2.999,0.414,-0.453,-0.201,12.159,0.386,21.926
20:07:42:179,3.000,0.393,-0.530,-0.212,12.279,0.837,22.348
20:07:42:18,3.001,0.308,-0.414,-0.229,11.334,1.902,22.414
20:07:42:248,3.069,0.286,-0.277,-0.159,10.299,2.012,21.953
20:07:42:309,3.130,0.260,-0.176,-0.112,8.422,1.915,20.596
20:07:42:31,3.131,0.279,-0.026,-0.049,6.332,0.511,18.567
20:07:42:311,3.132,0.272,0.046,0.017,4.922,-0.646,16.978
20:07:42:312,3.133,0.182,0.077,0.077,2.684,-2.550,14.500
20:07:42:361,3.182,0.043,0.146,0.170,1.053,-3.759,12.862
20:07:42:362,3.183,-0.054,0.051,0.221,-1.402,-5.267,10.556
20:07:42:363,3.184,-0.244,0.043,0.272,-3.977,-6.013,8.418
20:07:42:365,3.186,-0.373,0.040,0.292,-5.618,-6.191,7.085
20:07:42:382,3.203,-0.643,0.041,0.348,-7.851,-6.068,5.358
20:07:42:383,3.204,-0.707,-0.022,0.353,-9.080,-6.007,4.500
20:07:42:442,3.262,-0.785,-0.069,0.372,-10.198,-6.615,3.965
20:07:42:442,3.262,-1.240,-0.228,0.138,-10.377,-7.852,4.355
20:07:42:442,3.262,-0.284,-0.160,0.426,-10.519,-9.810,5.749
20:07:42:442,3.262,0.697,-0.029,-1.015,-11.362,-9.825,6.271
20:07:42:457,3.277,0.087,0.929,0.066,-11.798,-8.269,6.098
20:07:42:593,3.414,0.031,-0.185,0.181,-9.956,-6.685,8.141
20:07:42:593,3.414,-0.116,-0.079,0.246,-8.629,-6.364,10.108
20:07:42:624,3.444,-0.061,0.007,0.049,-6.812,-6.139,13.144
20:07:42:625,3.445,0.014,0.028,0.182,-5.437,-6.447,15.957
20:07:42:625,3.446,-0.034,0.019,-0.026,-4.664,-6.640,17.766
20:07:42:626,3.446,-0.148,-0.044,-0.034,-3.660,-7.067,20.134
20:07:42:67,3.491,0.105,0.164,0.022,-3.067,-7.444,21.329
20:07:42:8,3.621,0.065,0.206,-0.067,-1.920,-7.809,22.789
20:07:42:912,3.733,0.200,0.237,0.028,-0.374,-8.108,24.192
20:07:42:913,3.734,0.279,0.528,-0.071,1.041,-8.064,25.010
20:07:42:914,3.735,0.569,0.494,0.142,3.291,-7.506,26.616
20:07:42:915,3.736,0.664,0.463,0.019,4.608,-6.752,28.257
20:07:42:941,3.761,0.754,0.279,-0.293,6.444,-5.826,30.598
20:07:42:941,3.761,0.801,-0.083,-0.420,7.571,-5.605,31.371
20:07:42:941,3.761,0.644,-0.595,-0.226,10.380,-5.953,33.011
20:07:42:942,3.762,0.266,-0.052,0.093,13.150,-6.240,37.131
20:07:42:961,3.782,0.105,-0.047,-0.291,15.453,-5.422,40.801
20:07:42:962,3.783,0.292,0.233,-0.397,19.961,-2.973,46.103
20:07:42:963,3.784,0.667,-0.296,-0.798,24.569,-1.133,49.228
20:07:43:011,3.832,1.654,-0.366,-0.740,30.875,-0.181,53.108
20:07:43:011,3.832,1.718,-0.567,-0.901,34.808,1.198,56.136
20:07:43:067,3.888,1.246,-0.896,-0.648,36.324,3.267,56.713
20:07:43:067,3.888,0.647,-0.997,-0.431,37.396,5.490,57.295
20:07:43:069,3.889,0.561,-1.001,-0.347,35.659,5.900,55.652
20:07:43:117,3.938,0.471,-0.615,-0.358,30.210,5.952,50.696
20:07:43:118,3.938,0.440,-0.282,-0.415,25.634,5.433,45.778
20:07:43:197,4.018,0.437,0.021,-0.406,18.139,4.478,36.574
20:07:43:198,4.019,0.302,0.438,-0.199,11.241,3.571,26.261
20:07:43:199,4.020,0.150,0.573,-0.129,7.076,3.183,19.480
20:07:43:218,4.039,-0.106,0.961,-0.098,1.001,4.203,9.962
20:07:43:246,4.067,-0.686,0.910,0.035,-2.683,6.396,4.251
20:07:43:271,4.092,-1.519,0.713,0.484,-7.443,10.328,-3.967
20:07:43:357,4.178,-1.775,0.196,0.875,-11.530,12.166,-11.560
20:07:43:357,4.178,-1.827,-0.514,0.753,-13.698,11.640,-15.055
20:07:43:357,4.178,-1.231,-0.923,1.213,-16.652,9.971,-17.490
20:07:43:376,4.197,-0.872,-0.917,1.014,-17.624,9.124,-17.409
20:07:43:431,4.252,-0.590,-0.860,0.776,-17.139,9.196,-15.801
20:07:43:432,4.252,-1.267,-0.476,-0.528,-15.313,10.836,-13.077
20:07:43:541,4.362,1.601,2.995,0.148,-13.521,12.500,-9.144
20:07:43:541,4.362,-2.146,1.011,3.464,-10.869,11.689,-0.703
20:07:43:541,4.362,-0.821,-1.721,0.513,-9.620,10.113,3.860
20:07:43:615,4.435,0.240,0.236,0.191,-7.644,6.667,8.753
20:07:43:64,4.460,-0.344,0.232,0.020,-5.729,5.542,10.957
20:07:43:675,4.495,-0.150,-0.238,0.111,-2.999,3.872,15.099
20:07:43:675,4.496,-0.069,0.042,0.071,-0.618,2.616,17.920
20:07:43:675,4.496,-0.136,0.157,0.014,0.735,1.966,19.301
20:07:43:675,4.496,0.155,0.347,-0.046,2.841,1.303,20.529
20:07:43:72,4.541,0.345,0.459,-0.087,4.376,1.252,21.309
20:07:43:72,4.541,0.721,0.730,-0.067,7.012,1.640,23.167
20:07:43:802,4.623,1.071,0.654,-0.235,10.013,2.175,26.005
20:07:43:803,4.623,1.385,0.049,-0.501,11.742,2.459,27.316
20:07:43:803,4.624,0.732,-0.237,-0.279,14.494,2.171,29.674
20:07:43:824,4.644,0.035,0.594,-0.108,16.826,2.626,31.509
20:07:43:906,4.727,-0.868,-0.380,-0.604,20.108,5.642,36.575
20:07:43:907,4.728,0.693,-0.639,-0.835,23.134,6.343,38.177
20:07:43:908,4.729,1.133,-0.562,-0.814,28.449,5.060,37.729
20:07:43:956,4.777,0.938,-0.338,-0.911,33.090,6.138,40.377
20:07:43:979,4.800,1.412,-0.373,-1.639,42.376,9.979,47.080
20:07:44:008,4.828,1.036,-1.000,-1.213,43.127,13.854,47.847
20:07:44:061,4.882,-0.183,-0.843,-0.857,42.528,20.880,50.355
20:07:44:062,4.883,-0.082,-0.785,-1.138,40.230,24.100,49.256
20:07:44:085,4.906,-0.412,-0.379,-0.794,35.078,27.803,45.088
20:07:44:169,4.990,-0.520,-0.233,-1.145,28.375,30.920,38.170
20:07:44:17,4.990,-0.684,0.394,-0.843,23.608,32.996,32.392
20:07:44:171,4.991,-0.722,0.432,-0.660,16.892,35.961,23.051
20:07:44:191,5.012,-0.849,0.597,-0.328,12.766,38.311,16.915
20:07:44:269,5.090,-1.024,0.526,-0.126,6.897,43.560,8.204
20:07:44:301,5.122,-1.389,0.563,0.673,1.806,50.063,-0.369
20:07:44:301,5.122,-1.469,0.585,1.398,-1.205,53.924,-6.308
20:07:44:323,5.144,-1.321,-0.169,2.340,-5.464,56.949,-14.440
20:07:44:324,5.145,-1.020,-0.771,2.470,-8.337,57.307,-17.962
20:07:44:434,5.255,-0.221,-0.947,2.507,-11.877,56.958,-19.435
20:07:44:435,5.256,0.657,0.164,1.415,-12.171,56.700,-17.005
20:07:44:436,5.257,0.466,3.005,-1.447,-9.563,57.634,-12.781
20:07:44:437,5.258,-0.892,2.121,3.144,-6.740,61.553,-4.545
20:07:44:452,5.273,-1.091,-1.768,1.258,-5.030,60.934,-0.910
20:07:44:48,5.301,0.690,0.321,-0.529,-3.353,58.222,4.823
20:07:44:506,5.327,-0.119,-0.033,0.151,-0.703,57.059,7.763
20:07:44:535,5.355,-0.109,-0.359,0.371,1.503,57.362,10.599
20:07:44:557,5.377,0.049,0.170,-0.084,3.753,57.345,13.687
20:07:44:584,5.404,-0.207,-0.097,0.042,5.363,57.173,15.323
20:07:44:612,5.432,0.039,0.200,0.174,7.414,57.857,17.441
20:07:44:636,5.457,0.074,0.276,-0.092,8.648,58.527,18.619
20:07:44:662,5.483,0.049,0.461,-0.220,10.409,60.023,20.143
20:07:44:689,5.510,0.231,0.722,-0.622,12.065,61.272,21.996
20:07:44:715,5.535,0.225,0.600,-1.246,13.088,62.030,22.978
20:07:44:77,5.591,0.021,-0.030,-1.249,14.530,62.774,24.544
20:07:44:77,5.591,0.333,-0.570,-0.557,15.927,61.970,25.244
20:07:44:793,5.614,-1.040,0.318,0.585,17.305,62.212,28.389
20:07:44:821,5.641,-0.637,-0.126,0.592,19.862,64.600,31.953
20:07:44:846,5.666,-0.341,-0.497,-0.608,22.839,65.823,33.182
20:07:44:872,5.692,-0.531,-0.455,-0.925,27.721,68.115,35.656
20:07:44:955,5.776,-0.488,-0.302,-1.218,30.933,70.695,38.592
20:07:44:956,5.777,-0.326,-0.166,-1.703,36.357,74.026,44.160
20:07:45:092,5.913,-0.770,-0.729,-1.667,40.195,76.378,48.252
20:07:45:093,5.914,-0.499,-0.706,-1.072,43.220,81.828,52.305
20:07:45:094,5.915,-0.660,-0.860,-0.455,44.088,86.769,55.296
20:07:45:094,5.915,-0.562,-1.084,-0.457,42.622,88.759,54.848
20:07:45:143,5.964,-0.455,-0.607,-0.244,37.201,90.803,51.355
20:07:45:143,5.964,-0.506,-0.555,-0.278,32.258,91.456,47.283
20:07:45:144,5.965,-0.530,0.036,-0.247,23.887,92.331,39.297
20:07:45:145,5.966,-0.546,0.288,-0.230,15.780,92.840,29.717
20:07:45:163,5.984,-0.407,0.471,0.003,11.029,93.275,23.209
20:07:45:216,6.037,-0.331,0.639,0.141,4.513,94.543,13.483
20:07:45:217,6.037,-0.100,0.783,0.402,0.466,95.636,7.071
20:07:45:27,6.091,0.201,0.965,1.298,-5.122,98.330,-1.931
20:07:45:27,6.091,0.814,0.661,1.993,-8.563,100.234,-7.656
20:07:45:296,6.117,1.061,-0.019,2.363,-13.503,101.793,-15.354
20:07:45:296,6.117,1.255,-0.978,2.000,-17.948,100.000,-19.110
20:07:45:35,6.171,1.306,-1.101,1.751,-19.951,97.966,-19.186
20:07:45:35,6.171,1.008,-0.962,1.049,-20.555,95.085,-16.337
20:07:45:371,6.192,0.267,1.218,-2.547,-19.782,94.025,-13.600
20:07:45:397,6.218,-0.181,3.082,0.963,-16.962,96.873,-6.988
20:07:45:425,6.245,0.801,1.008,-0.888,-13.644,98.030,-1.146
20:07:45:479,6.300,-0.036,-0.402,0.574,-11.089,97.043,4.137
20:07:45:479,6.300,0.375,0.139,-0.710,-8.714,91.902,8.875
20:07:45:533,6.354,-0.230,0.118,0.327,-6.449,91.296,11.570
20:07:45:533,6.354,0.107,0.064,0.052,-3.871,90.731,16.163
20:07:45:555,6.376,-0.026,0.249,0.155,-2.583,90.025,18.558
20:07:45:612,6.432,0.047,0.049,0.157,-0.608,88.991,21.500
20:07:45:612,6.432,-0.029,0.321,-0.150,1.468,88.612,23.586
20:07:45:633,6.454,-0.085,0.588,-0.265,2.873,88.703,24.702
20:07:45:75,6.570,-0.120,0.680,-0.542,4.907,89.196,26.646
20:07:45:75,6.570,-0.234,0.653,-0.999,6.399,89.682,28.597
20:07:45:75,6.570,-0.441,0.370,-1.325,8.671,89.956,31.764
20:07:45:75,6.571,-0.212,0.077,-0.992,10.833,88.817,33.643
20:07:45:765,6.585,0.069,-0.761,-0.282,13.016,87.683,35.065
20:07:45:791,6.611,-0.824,0.327,0.775,17.038,87.626,40.120
20:07:45:817,6.637,-0.874,-0.093,0.797,20.417,87.606,42.651
20:07:45:843,6.664,-0.533,-0.387,-1.378,27.049,85.284,42.661
20:07:45:869,6.690,-0.771,-0.090,-1.153,33.572,85.493,45.775
20:07:45:896,6.717,-0.622,-0.375,-1.535,38.594,87.476,49.813
20:07:45:922,6.743,-1.046,-0.576,-1.386,44.655,91.433,55.703
20:07:45:978,6.798,-0.484,-1.089,-0.160,46.447,99.566,60.128
20:07:46:001,6.822,-0.225,-0.845,-0.079,44.238,101.080,59.553
20:07:46:086,6.907,-0.177,-0.614,-0.204,37.267,101.647,55.355
20:07:46:086,6.907,-0.169,-0.556,-0.427,28.773,100.468,47.667
20:07:46:086,6.907,-0.169,-0.322,-0.583,22.993,99.370,41.330
20:07:46:162,6.982,-0.184,0.204,-0.364,14.764,98.158,30.842
20:07:46:162,6.983,-0.064,0.574,-0.420,9.986,97.632,23.407
20:07:46:218,7.039,0.005,0.728,-0.128,3.591,98.028,12.974
20:07:46:218,7.039,0.145,0.811,0.417,-2.014,100.722,3.678
20:07:46:218,7.039,0.321,0.901,1.252,-5.071,103.579,-2.299
20:07:46:239,7.060,0.710,0.486,2.074,-9.128,107.937,-11.722
20:07:46:265,7.086,1.206,-0.058,2.129,-12.055,109.865,-17.338
20:07:46:319,7.139,1.440,-1.062,1.903,-16.267,109.627,-22.489
20:07:46:319,7.140,1.450,-1.224,1.461,-18.430,108.197,-23.601
20:07:46:342,7.163,1.224,-0.913,1.163,-19.599,105.948,-22.011
20:07:46:368,7.189,-1.272,1.018,-2.294,-18.008,104.768,-18.145
20:07:46:452,7.273,0.378,2.861,1.126,-16.114,106.220,-13.919
20:07:46:453,7.274,2.304,0.093,3.197,-11.842,104.850,-5.046
20:07:46:454,7.275,-0.072,0.091,-0.264,-11.461,103.495,-1.039
20:07:46:473,7.294,0.504,-0.233,-0.531,-8.980,98.874,4.932
20:07:46:529,7.350,0.137,0.083,0.152,-6.523,97.118,8.666
20:07:46:53,7.350,0.173,-0.095,0.256,-4.614,96.302,11.386
20:07:46:581,7.402,-0.075,0.129,0.176,-2.059,95.211,14.821
20:07:46:582,7.403,0.139,-0.037,0.124,-0.764,94.132,16.676
20:07:46:606,7.427,0.137,0.207,-0.080,0.864,92.787,18.877
20:07:46:632,7.453,-0.125,0.298,-0.006,2.805,92.861,20.490
20:07:46:658,7.479,-0.173,0.508,-0.337,4.141,93.110,21.416
20:07:46:715,7.536,-0.295,0.515,-0.596,6.374,93.646,23.292
20:07:46:716,7.536,-0.374,0.470,-0.740,8.295,94.039,25.307
20:07:46:736,7.556,-0.471,-0.075,-1.028,11.198,94.335,27.786
20:07:46:762,7.583,-0.081,-0.157,-0.914,12.991,94.130,29.257
20:07:46:818,7.639,0.066,-0.052,-0.467,16.648,96.090,32.880
20:07:46:818,7.639,-0.626,-0.316,0.417,22.446,98.477,38.903
20:07:46:84,7.661,-1.077,-0.505,-1.422,26.702,99.554,41.631
20:07:46:867,7.688,-1.090,0.069,-1.414,31.572,97.908,43.829
20:07:46:893,7.714,-1.338,-0.520,-1.536,35.048,99.068,45.565
20:07:46:92,7.740,-0.899,-0.555,-0.605,37.486,102.354,46.082
20:07:46:973,7.794,-0.804,-0.756,0.005,38.827,108.538,46.800
20:07:47:001,7.822,-0.728,-1.021,-0.124,38.318,111.254,45.621
20:07:47:002,7.823,-0.767,-0.499,0.242,34.716,115.108,41.701
20:07:47:025,7.846,-0.937,-0.566,0.253,31.171,117.312,37.657
20:07:47:051,7.871,-0.919,0.031,0.374,24.717,120.894,30.243
20:07:47:165,7.986,-0.787,0.148,0.567,18.446,124.855,21.895
20:07:47:166,7.987,-0.543,0.483,0.766,14.764,127.913,16.112
20:07:47:166,7.987,-0.105,0.572,1.241,9.847,133.234,7.662
20:07:47:167,7.988,0.299,0.559,1.496,7.199,136.657,2.043
20:07:47:242,8.063,0.921,0.522,1.504,3.022,141.808,-6.218
20:07:47:243,8.063,1.607,0.436,1.116,0.115,144.835,-11.540
20:07:47:243,8.063,1.640,-0.167,0.911,-4.083,146.657,-17.783
20:07:47:292,8.112,1.902,-0.799,0.545,-7.644,147.934,-21.355
20:07:47:292,8.112,1.757,-0.750,0.119,-8.792,148.386,-21.072
20:07:47:313,8.134,1.378,-0.635,-0.159,-8.525,148.750,-17.804
20:07:47:428,8.249,0.304,0.074,-0.972,-7.454,149.039,-14.391
20:07:47:428,8.249,2.644,1.150,3.106,-5.220,151.931,-7.192
20:07:47:429,8.250,-2.064,-0.771,0.359,-2.577,151.683,-2.080
20:07:47:43,8.251,1.363,-0.654,0.190,-1.265,150.363,2.044
20:07:47:475,8.295,-0.286,0.470,-0.239,0.322,147.674,4.566
20:07:47:475,8.295,0.262,-0.132,0.226,2.016,147.625,6.845
20:07:47:526,8.347,0.102,-0.125,0.015,4.606,147.409,10.223
20:07:47:527,8.348,0.164,-0.102,-0.002,6.761,147.234,12.400
20:07:47:611,8.432,0.205,-0.056,0.158,8.043,147.049,13.401
20:07:47:612,8.432,-0.064,0.306,-0.010,9.861,147.327,14.207
20:07:47:613,8.433,-0.196,0.418,0.007,11.032,147.954,14.795
20:07:47:656,8.476,-0.742,0.888,-0.233,13.436,150.473,16.983
20:07:47:713,8.534,-1.164,0.521,-0.020,14.918,152.081,18.369
20:07:47:714,8.535,-1.319,-0.084,0.253,16.712,152.725,20.047
20:07:47:715,8.536,-0.739,-0.836,-0.010,17.946,152.168,21.096
20:07:47:821,8.641,0.613,0.154,0.758,19.437,152.341,24.410
20:07:47:822,8.642,0.371,-0.139,0.805,21.238,152.730,26.731
20:07:47:823,8.643,-0.481,-0.349,0.288,26.062,156.332,29.433
20:07:47:823,8.644,-0.640,-0.603,0.686,31.042,161.810,32.986
20:07:47:866,8.687,-0.824,-0.309,0.808,33.752,165.047,36.212
20:07:47:893,8.714,-1.860,-0.177,0.945,37.721,171.092,42.093
20:07:47:894,8.715,-0.838,-0.527,0.716,39.514,174.639,45.140
20:07:47:947,8.768,-0.866,-0.366,0.893,41.706,-178.086,48.910
20:07:47:998,8.818,-0.571,-0.923,0.536,42.160,-175.809,49.594
20:07:48:058,8.879,-0.390,-0.887,0.398,39.968,-171.335,47.715
20:07:48:059,8.879,-0.292,-0.726,0.441,34.725,-170.102,42.637
20:07:48:059,8.879,-0.366,-0.455,0.465,30.149,-169.453,38.166
20:07:48:059,8.880,-0.163,-0.022,0.449,22.532,-168.448,30.165
20:07:48:189,9.009,-0.316,0.193,0.462,17.623,-168.019,24.010
20:07:48:19,9.010,-0.053,0.461,0.381,10.815,-166.588,14.717
20:07:48:19,9.011,0.434,0.813,0.198,4.824,-163.765,5.814
20:07:48:294,9.115,1.648,0.869,-0.413,-3.187,-156.755,-9.140
20:07:48:295,9.116,2.118,0.187,-0.979,-6.013,-154.023,-14.935
20:07:48:297,9.118,1.998,-0.536,-1.208,-10.506,-152.303,-21.312
20:07:48:297,9.118,1.302,-0.978,-1.790,-13.708,-152.584,-23.435
20:07:48:5,9.321,1.082,-1.090,-1.582,-16.285,-154.426,-23.351
20:07:48:501,9.322,0.442,-0.004,-1.151,-15.818,-155.476,-19.757
20:07:48:531,9.352,-1.889,1.975,0.874,-13.195,-155.227,-15.728
20:07:48:531,9.352,2.548,0.834,-0.417,-9.775,-154.350,-5.794
20:07:48:531,9.352,0.770,-0.563,-1.252,-9.036,-153.581,-3.763
20:07:48:532,9.353,0.024,-0.377,0.081,-5.739,-156.810,2.448
20:07:48:557,9.378,-0.699,0.226,-0.364,-3.688,-159.941,5.847
20:07:48:558,9.378,-0.043,-0.019,-0.351,-2.071,-160.222,8.108
20:07:48:558,9.378,0.199,-0.078,0.141,0.353,-161.211,11.561
20:07:48:559,9.379,0.305,0.062,0.026,1.734,-162.128,13.134
20:07:48:578,9.399,-0.015,0.177,0.053,3.661,-163.266,14.788
20:07:48:578,9.399,0.099,0.228,0.142,5.086,-163.544,15.602
20:07:48:656,9.476,-0.078,0.329,0.133,7.331,-163.788,16.644
20:07:48:657,9.477,-0.482,0.672,0.359,9.574,-163.466,17.762
20:07:48:71,9.531,-0.473,0.670,0.438,11.271,-162.856,19.099
20:07:48:711,9.532,-0.757,0.282,0.686,13.813,-161.948,21.125
20:07:48:712,9.533,-0.745,-0.002,0.913,15.583,-161.481,22.573
20:07:48:76,9.581,-0.549,-0.150,0.565,18.640,-161.269,25.629
20:07:48:761,9.582,-0.366,-0.051,0.534,23.766,-159.151,30.544
20:07:48:786,9.606,0.544,-0.131,0.688,27.703,-156.171,35.227
20:07:48:81,9.630,-0.036,-0.509,1.106,33.541,-154.293,40.065
20:07:48:838,9.658,-0.908,-0.200,1.538,37.561,-154.530,41.426
20:07:48:864,9.685,-1.001,-0.554,2.082,42.320,-152.415,44.047
20:07:48:919,9.740,0.074,-0.732,1.283,44.000,-145.310,46.197
20:07:48:919,9.740,0.280,-0.773,0.970,44.018,-141.472,47.386
20:07:48:94,9.761,0.059,-1.038,0.934,41.564,-136.930,45.849
20:07:49:025,9.846,0.489,-0.627,0.747,38.044,-133.772,43.685
20:07:49:026,9.846,0.552,-0.523,0.940,31.473,-129.758,37.855
20:07:49:027,9.847,0.830,-0.041,0.798,26.664,-127.123,32.656
20:07:49:075,9.896,0.989,0.207,0.603,20.049,-123.572,23.695
20:07:49:132,9.953,0.938,0.326,0.441,14.057,-119.754,14.152
20:07:49:132,9.953,1.272,0.588,0.067,10.160,-116.617,7.831
20:07:49:132,9.953,1.312,0.610,-0.934,4.938,-112.056,-1.246
20:07:49:18,10.001,0.777,0.778,-2.384,1.172,-109.822,-7.502
20:07:49:181,10.001,0.383,0.030,-2.616,-4.569,-109.914,-15.570
20:07:49:231,10.051,-0.069,-0.791,-2.600,-7.786,-110.809,-18.660
20:07:49:259,10.080,-0.771,-1.005,-2.446,-10.160,-110.449,-18.999
20:07:49:259,10.080,-1.324,0.303,-0.542,-8.894,-108.558,-15.603
20:07:49:282,10.103,-1.439,1.451,1.778,-5.901,-106.191,-11.566
20:07:49:368,10.189,-0.247,2.634,-3.918,-4.296,-103.293,-3.118
20:07:49:368,10.189,-0.210,-3.995,-2.678,-1.454,-103.871,0.664
20:07:49:369,10.189,0.285,-0.026,0.283,1.206,-107.632,5.721
20:07:49:418,10.238,-0.050,0.534,-0.217,4.000,-108.500,8.446
20:07:49:418,10.238,0.200,-0.023,-0.136,6.245,-108.353,11.302
20:07:49:468,10.289,0.035,0.207,-0.081,8.626,-108.520,14.176
20:07:49:469,10.290,0.027,0.242,-0.022,10.121,-108.765,15.504
20:07:49:492,10.313,-0.047,0.554,0.228,12.048,-108.641,16.985
20:07:49:518,10.339,0.065,0.609,0.547,14.110,-107.383,18.880
20:07:49:545,10.365,0.210,0.845,0.874,15.480,-106.338,20.312
20:07:49:632,10.453,0.485,0.271,1.389,17.599,-105.068,22.454
20:07:49:633,10.454,0.628,-0.242,1.442,19.345,-104.790,24.198
20:07:49:634,10.455,0.373,-0.261,0.345,22.239,-104.925,27.435
20:07:49:679,10.500,0.764,-0.223,0.688,30.762,-102.437,35.236
20:07:49:68,10.501,0.741,-0.708,1.323,36.313,-99.830,39.718
20:07:49:762,10.582,0.744,-0.436,1.467,39.662,-97.215,43.655
20:07:49:762,10.583,1.046,-0.870,1.851,42.568,-90.733,48.376
20:07:49:762,10.583,0.620,-0.831,0.662,43.334,-86.118,50.600
20:07:50:079,10.900,0.678,-0.976,0.501,41.946,-79.871,52.191
20:07:50:08,10.901,0.535,-0.916,0.261,37.845,-77.521,49.288
20:07:50:081,10.902,0.576,-0.489,0.218,33.413,-76.806,45.414
20:07:50:082,10.903,0.585,-0.409,0.297,25.936,-76.924,36.757
20:07:50:158,10.978,0.629,0.209,0.251,20.605,-77.215,30.111
20:07:50:158,10.979,0.525,0.444,0.303,13.013,-77.458,20.035
20:07:50:159,10.980,0.245,0.930,-0.206,5.616,-76.024,10.413
20:07:50:16,10.981,0.104,0.986,-0.439,1.093,-74.154,4.097
20:07:50:42,11.241,-0.594,1.070,-1.678,-4.564,-70.312,-5.288
20:07:50:421,11.242,-1.169,0.634,-2.250,-7.798,-68.030,-11.470
20:07:50:421,11.242,-1.523,-0.580,-2.041,-12.610,-66.682,-18.287
20:07:50:422,11.243,-1.786,-1.198,-1.745,-14.947,-66.950,-20.475
20:07:50:472,11.293,-1.658,-1.265,-1.483,-16.383,-67.774,-20.302
20:07:50:473,11.294,-1.051,-0.725,-0.825,-15.973,-68.837,-17.440
20:07:50:474,11.295,0.132,2.039,2.038,-14.257,-69.303,-14.297
20:07:50:475,11.296,-1.794,1.792,-2.465,-10.858,-67.569,-5.146
20:07:50:551,11.372,-1.073,-2.403,-2.668,-8.467,-66.322,-1.128
20:07:50:552,11.372,-0.216,0.095,0.051,-6.914,-69.597,5.163
20:07:50:553,11.373,0.106,0.211,0.374,-4.613,-72.902,8.569
20:07:50:554,11.374,0.011,-0.037,0.084,-3.444,-73.605,11.350
20:07:50:605,11.426,0.010,0.251,0.133,-0.924,-74.359,14.988
20:07:50:605,11.426,0.267,0.297,-0.392,1.032,-75.177,16.874
20:07:50:605,11.426,0.084,0.338,-0.096,3.561,-76.041,19.138
20:07:50:606,11.427,0.200,0.768,0.359,5.074,-76.146,20.344
20:07:50:657,11.478,0.244,1.017,0.925,6.700,-76.202,22.664
20:07:50:657,11.478,0.684,0.628,1.061,9.158,-75.866,26.479
20:07:50:658,11.479,1.213,0.494,1.057,10.944,-75.725,28.427
20:07:50:659,11.480,0.807,-0.642,0.516,15.295,-76.101,30.864
20:07:50:735,11.556,0.725,0.434,0.524,17.399,-76.953,34.818
20:07:50:736,11.556,1.153,-0.044,-0.827,25.139,-75.791,43.011
20:07:50:737,11.557,1.167,-0.682,1.706,34.595,-78.335,46.388
20:07:50:738,11.558,0.894,-0.915,1.844,40.524,-79.930,47.644
20:07:50:787,11.608,1.117,-0.930,1.340,46.029,-78.241,51.320
20:07:50:788,11.609,0.722,-1.268,0.884,46.413,-74.773,52.341
20:07:50:789,11.610,0.512,-1.204,0.011,44.490,-69.506,54.026
20:07:50:919,11.740,0.466,-0.724,-0.009,32.470,-67.145,46.497
20:07:50:92,11.740,0.606,-0.331,0.376,24.015,-69.164,36.377
20:07:50:92,11.741,0.598,0.132,0.281,18.577,-70.529,29.191
20:07:50:921,11.742,0.542,0.485,0.479,10.946,-72.413,18.105
20:07:50:963,11.784,0.362,0.882,0.092,5.773,-72.275,11.141
20:07:50:995,11.816,-0.210,1.253,-0.623,-1.634,-70.002,1.098
20:07:50:996,11.817,-1.171,1.128,-1.541,-7.869,-66.208,-8.599
20:07:50:996,11.817,-1.869,0.045,-2.312,-11.450,-63.721,-14.594
20:07:51:021,11.842,-2.252,-0.911,-1.906,-15.757,-63.180,-20.099
20:07:51:022,11.843,-2.560,-1.244,-1.398,-17.287,-62.929,-20.916
20:07:51:023,11.844,-1.632,0.318,-0.633,-15.859,-62.102,-18.118
20:07:51:046,11.866,1.950,3.206,1.628,-11.505,-59.299,-10.568
20:07:51:046,11.867,-1.173,0.115,-3.410,-9.455,-59.709,-2.932
20:07:51:261,12.082,-1.562,-2.112,-1.564,-6.928,-60.502,1.393
20:07:51:262,12.082,-0.313,0.233,0.352,-5.287,-63.850,4.498
20:07:51:262,12.082,-0.001,0.165,-0.010,-2.211,-66.276,7.592
20:07:51:263,12.083,0.042,-0.261,-0.426,-0.185,-66.154,10.003
20:07:51:313,12.134,-0.055,0.195,-0.179,2.697,-67.001,13.292
20:07:51:313,12.134,0.097,0.140,-0.169,5.465,-67.978,15.216
20:07:51:314,12.135,0.153,0.401,0.000,7.317,-68.164,16.049
20:07:51:315,12.136,0.280,0.527,0.406,10.001,-68.120,17.726
20:07:51:336,12.157,0.605,1.021,0.760,11.689,-67.666,19.202
20:07:51:336,12.157,0.801,0.469,0.810,14.759,-66.421,22.328
20:07:51:337,12.158,0.985,-0.335,0.844,16.792,-65.459,24.239
20:07:51:385,12.206,0.821,0.302,0.617,19.998,-64.819,27.503
20:07:51:386,12.207,0.592,0.309,-0.008,24.953,-62.959,32.729
20:07:51:438,12.258,0.790,-0.071,-0.788,29.050,-60.562,37.737
20:07:51:439,12.259,1.549,-0.535,0.629,35.399,-59.750,41.485
20:07:51:49,12.310,1.622,-0.306,0.807,39.766,-60.987,42.310
20:07:51:491,12.311,1.912,-0.541,0.577,46.040,-59.300,46.355
20:07:51:541,12.362,1.474,-0.998,0.299,47.876,-54.099,49.170
20:07:51:568,12.389,0.988,-0.947,-0.167,48.412,-49.697,51.006
20:07:51:569,12.390,0.577,-1.255,-0.435,46.488,-44.937,50.970
20:07:51:623,12.444,0.524,-0.869,-0.513,42.506,-42.797,48.183
20:07:51:623,12.444,0.636,-0.708,-0.616,34.781,-40.633,40.717
20:07:51:645,12.465,0.851,-0.230,-0.566,26.299,-38.934,30.926
20:07:51:7,12.521,0.827,0.189,-0.638,20.680,-37.083,24.146
20:07:51:701,12.522,0.300,0.537,-0.950,12.649,-32.320,14.163
20:07:51:811,12.632,-0.676,1.263,-1.321,7.620,-28.342,7.490
20:07:51:812,12.633,-1.841,1.236,-1.094,1.548,-22.407,-2.752
20:07:51:813,12.634,-2.552,0.204,-0.801,-3.368,-18.585,-12.108
20:07:51:814,12.634,-2.673,-0.338,-0.423,-6.429,-18.217,-16.522
20:07:51:829,12.649,-2.330,-0.737,0.499,-10.604,-17.953,-19.173
20:07:51:888,12.709,-1.993,-0.929,0.582,-11.344,-17.531,-18.417
20:07:51:888,12.709,0.060,0.719,2.756,-9.795,-15.934,-14.164
20:07:51:888,12.709,-4.059,0.951,-0.970,-6.376,-12.077,-7.678
20:07:52:016,12.837,1.517,0.919,-0.313,-4.485,-10.286,-1.914
20:07:52:017,12.838,-1.063,-0.384,-0.313,-1.057,-12.751,4.818
20:07:52:041,12.862,0.544,0.605,0.373,-0.411,-14.635,6.631
20:07:52:1,12.921,-0.362,0.380,0.043,1.960,-14.028,8.922
20:07:52:101,12.921,-0.248,0.056,0.096,3.603,-13.703,11.378
20:07:52:102,12.922,-0.055,0.080,0.013,5.294,-13.714,13.273
20:07:52:102,12.923,0.202,0.343,0.062,6.624,-14.072,14.363
20:07:52:149,12.970,0.460,0.540,0.074,7.450,-13.789,15.156
20:07:52:15,12.971,0.420,0.472,-0.049,9.008,-12.512,16.810
20:07:52:151,12.972,0.572,0.183,-0.225,10.228,-11.692,17.851
20:07:52:284,13.105,0.584,0.040,-0.359,12.096,-10.779,19.701
20:07:52:285,13.106,0.539,-0.213,-0.355,13.563,-10.476,21.347
20:07:52:286,13.107,0.563,-0.134,-0.313,16.361,-10.162,24.457
20:07:52:287,13.107,0.539,-0.079,-0.318,20.275,-8.493,29.412
20:07:52:333,13.154,0.523,-0.030,-0.499,23.798,-6.396,33.868
20:07:52:333,13.154,0.615,0.120,-0.852,30.500,-3.524,40.379
20:07:52:334,13.155,1.904,-0.153,-1.108,34.718,-1.692,43.856
20:07:52:494,13.315,0.937,-0.689,-0.729,37.857,3.054,46.077
20:07:52:495,13.316,0.583,-0.857,-0.685,38.731,8.266,48.826
20:07:52:495,13.316,0.341,-1.014,-0.508,37.780,10.990,49.133
20:07:52:496,13.317,0.067,-0.772,-0.453,34.152,13.951,47.370
20:07:52:545,13.366,0.210,-0.712,-0.523,30.475,15.073,44.326
20:07:52:546,13.367,0.193,-0.319,-0.535,24.158,15.707,37.556
20:07:52:547,13.368,0.190,0.065,-0.582,19.738,15.831,31.984
20:07:52:548,13.369,0.134,0.196,-0.491,13.458,15.749,23.194
20:07:52:563,13.384,-0.060,0.486,-0.463,7.262,16.602,14.440
20:07:52:62,13.440,-0.240,0.666,-0.307,3.265,17.819,8.934
20:07:52:62,13.441,-0.929,0.764,0.342,-2.143,20.480,1.228
20:07:52:643,13.463,-1.649,0.698,0.847,-5.352,22.456,-4.094
20:07:52:671,13.491,-1.765,0.158,1.368,-9.796,23.584,-10.976
20:07:52:723,13.544,-1.625,-0.587,1.831,-13.741,22.460,-14.376
20:07:52:724,13.545,-1.414,-0.777,1.917,-15.240,21.433,-14.052
20:07:52:805,13.626,0.313,-0.062,1.546,-14.730,19.986,-10.469
20:07:52:806,13.627,-2.040,0.405,0.154,-12.701,20.662,-6.209
20:07:52:807,13.627,0.971,0.770,0.823,-11.076,23.596,-1.867
20:07:52:94,13.761,-1.165,-1.476,-0.263,-8.119,23.597,3.843
20:07:52:94,13.761,0.662,0.348,0.124,-7.929,21.880,5.435
20:07:52:942,13.763,0.068,-0.032,0.163,-6.860,19.745,8.132
20:07:52:942,13.763,-0.270,0.045,0.124,-5.924,19.161,10.289
20:07:52:96,13.781,-0.246,0.297,-0.279,-4.481,18.435,12.604
20:07:52:96,13.781,0.086,0.264,-0.105,-3.159,17.584,13.669
20:07:52:984,13.804,0.179,0.452,-0.121,-0.920,16.487,15.341
20:07:53:068,13.889,0.719,0.633,-0.214,1.486,16.063,17.672
20:07:53:068,13.889,0.880,0.870,-0.401,3.193,16.363,19.306
20:07:53:069,13.890,0.932,0.127,-0.731,6.088,17.059,21.974
20:07:53:117,13.938,0.811,-0.220,-0.947,8.083,17.776,24.091
20:07:53:118,13.939,0.465,0.474,-1.075,11.423,20.224,29.184
20:07:53:171,13.992,0.454,-0.434,-1.177,15.768,23.867,36.911
20:07:53:172,13.992,1.309,-0.276,-1.735,19.404,24.405,39.564
20:07:53:222,14.043,0.863,-1.690,-1.062,24.890,25.579,40.942
20:07:53:223,14.044,0.151,-1.164,-0.764,25.556,27.846,41.487
20:07:53:247,14.068,0.164,-1.339,-0.803,23.142,31.381,39.512
20:07:53:272,14.093,-0.221,-0.846,-0.694,20.315,33.217,36.142
20:07:53:298,14.119,-0.319,-0.550,-0.757,14.407,35.671,28.692
20:07:53:325,14.146,-0.274,0.142,-0.549,8.671,36.465,19.084
20:07:53:409,14.230,-0.648,0.702,0.031,4.573,37.392,12.506
20:07:53:41,14.230,-1.341,1.440,2.089,-1.410,39.843,3.474
20:07:53:411,14.231,-1.625,0.483,3.397,-4.101,41.283,-1.084
20:07:53:459,14.280,-1.509,-0.871,3.358,-6.160,42.812,-3.285
20:07:53:46,14.281,-0.521,0.853,2.931,-6.160,43.229,-1.666
20:07:53:511,14.332,-0.009,2.664,-3.274,-3.973,45.580,1.599
20:07:53:512,14.333,-0.003,-1.602,0.616,-2.956,47.180,5.257
20:07:53:535,14.356,0.039,0.488,0.007,-1.722,45.569,8.069
20:07:53:562,14.383,0.135,0.699,-0.036,-0.548,44.773,9.297
20:07:53:587,14.408,0.556,0.830,-0.331,2.035,44.952,11.852
20:07:53:614,14.434,0.582,0.977,-0.775,3.585,45.530,13.315
20:07:53:64,14.461,0.139,0.195,-0.999,6.396,46.901,15.696
20:07:53:666,14.487,-0.171,-0.129,-1.078,8.408,47.942,17.790
20:07:53:78,14.600,0.063,0.091,-1.191,11.475,49.663,22.679
20:07:53:78,14.601,-0.501,-0.611,-1.060,15.539,53.055,29.720
20:07:53:781,14.602,-0.110,-0.846,-1.794,18.719,54.318,32.603
20:07:53:782,14.602,0.245,-0.798,-2.065,23.515,53.722,33.972
20:07:53:826,14.647,0.239,-1.481,-1.433,25.536,53.857,33.573
20:07:53:827,14.648,-0.520,-1.060,-0.847,24.225,57.827,32.490
20:07:53:908,14.729,-0.767,-1.035,-0.819,21.508,60.575,30.282
20:07:53:909,14.729,-1.019,-0.118,-0.424,15.580,64.768,24.178
20:07:53:91,14.730,-0.924,0.036,0.114,8.993,67.979,15.792
20:07:53:928,14.749,-0.667,1.334,1.292,4.674,69.886,9.657
20:07:53:984,14.804,-0.264,1.157,2.925,-1.721,73.353,1.360
20:07:53:984,14.805,0.441,0.304,3.398,-4.854,75.141,-3.058
20:07:54:008,14.829,1.012,-0.654,2.358,-7.874,77.009,-5.875
20:07:54:033,14.854,0.502,-1.297,3.704,-7.690,78.853,-3.402
20:07:54:059,14.880,1.671,2.544,-2.292,-7.441,81.935,-0.603
20:07:54:086,14.907,0.328,-1.000,0.070,-5.947,84.510,3.740
20:07:54:114,14.935,0.083,0.493,0.067,-4.256,83.353,6.924
20:07:54:142,14.963,-0.018,0.644,-0.107,-3.083,81.739,8.699
20:07:54:165,14.985,0.194,0.451,-0.218,-0.696,81.687,10.998
20:07:54:247,15.068,0.226,0.903,-0.559,0.725,82.221,12.466
20:07:54:248,15.069,-0.221,0.575,-0.974,3.031,83.305,14.429
20:07:54:302,15.122,-0.727,-0.161,-0.745,4.931,83.849,15.839
20:07:54:302,15.123,-0.767,-0.152,-0.760,8.032,85.160,19.426
20:07:54:303,15.124,-0.658,0.260,-0.927,10.164,86.328,23.075
20:07:54:353,15.174,-0.839,0.029,-0.281,14.627,89.702,31.293
20:07:54:354,15.174,-1.040,-0.291,-1.747,20.299,91.094,36.765
20:07:54:379,15.200,-1.086,-0.520,-1.794,23.558,90.840,38.175
20:07:54:38,15.201,-0.503,-1.257,-0.896,24.201,93.106,38.718
20:07:54:43,15.251,-0.546,-1.198,-0.386,22.389,94.662,37.691
20:07:54:431,15.252,-0.603,-1.037,-0.181,18.015,96.175,32.949
20:07:54:484,15.304,-0.699,-0.583,-0.032,11.654,96.971,24.984
20:07:54:484,15.305,-0.655,-0.236,0.200,7.435,96.554,18.509
20:07:54:535,15.356,-0.104,0.456,0.690,0.321,95.967,8.368
20:07:54:536,15.356,0.884,1.723,1.735,-4.772,96.776,2.509
20:07:54:558,15.379,1.936,0.414,2.730,-10.879,98.342,-4.080
20:07:54:614,15.435,2.315,-0.745,2.501,-13.350,99.394,-5.958
20:07:54:614,15.435,1.517,-0.845,1.611,-13.652,99.035,-4.219
20:07:54:637,15.458,0.957,0.813,-0.331,-13.556,101.580,-0.392
20:07:54:665,15.486,0.461,-1.857,0.440,-10.926,103.261,2.492
20:07:54:692,15.513,-0.201,-0.617,0.701,-8.396,102.039,7.182
20:07:54:745,15.565,-0.009,0.362,0.052,-7.698,100.658,8.730
20:07:54:746,15.566,0.097,0.309,0.002,-5.700,100.265,11.088
20:07:54:77,15.591,0.084,0.693,-0.394,-4.197,100.200,13.723
20:07:54:824,15.645,0.002,0.856,-0.592,-3.112,100.494,15.325
20:07:54:824,15.645,-0.590,0.327,-0.795,-0.633,100.777,17.721
20:07:54:848,15.669,-0.798,-0.121,-0.647,1.394,100.978,19.327
20:07:54:903,15.723,-0.891,-0.160,-0.383,4.591,101.534,23.174
20:07:54:903,15.724,-0.752,0.397,-0.680,8.446,103.238,30.044
20:07:54:926,15.747,-0.902,-0.061,0.025,12.102,105.146,35.554
20:07:54:982,15.803,-1.414,-0.464,-1.371,19.100,103.989,40.301
20:07:54:982,15.803,-1.370,-1.183,-1.781,24.108,102.498,41.518
20:07:55:092,15.913,-0.440,-1.250,-0.735,26.605,104.036,42.067
20:07:55:093,15.913,-0.725,-1.310,-0.368,24.840,105.684,41.607
20:07:55:094,15.914,-0.613,-1.261,0.013,19.489,107.180,37.445
20:07:55:094,15.915,-0.722,-0.597,-0.079,11.555,107.001,29.591
20:07:55:111,15.931,-0.661,-0.423,-0.038,6.555,105.827,22.806
20:07:55:136,15.957,-0.028,0.572,-0.025,-1.214,102.795,12.307
20:07:55:221,16.042,2.328,0.516,2.197,-13.851,99.697,-1.695
20:07:55:222,16.043,2.903,-0.728,2.086,-18.445,101.126,-5.724
20:07:55:33,16.151,2.172,-1.100,1.469,-18.030,101.601,-5.225
20:07:55:33,16.151,2.115,2.428,-0.361,-17.087,104.285,-1.084
20:07:55:33,16.151,1.052,-2.007,0.662,-13.609,104.607,2.288
20:07:55:33,16.151,-0.692,-0.884,0.910,-10.671,102.998,6.785
20:07:55:404,16.225,-0.073,0.347,0.429,-9.057,102.098,8.948
20:07:55:404,16.225,0.091,0.268,0.050,-7.853,101.659,10.686
20:07:55:405,16.226,0.043,0.475,-0.258,-6.393,101.246,13.220
20:07:55:455,16.275,-0.089,0.790,-0.581,-5.430,101.212,14.947
20:07:55:455,16.275,-0.550,0.324,-0.732,-3.017,101.627,17.434
20:07:55:507,16.328,-0.790,-0.030,-0.481,-1.027,102.024,19.272
20:07:55:507,16.328,-0.940,-0.184,-0.552,2.669,102.139,23.200
20:07:55:662,16.482,-0.801,0.344,-0.778,6.882,102.648,29.398
20:07:55:723,16.544,-0.884,0.218,-0.549,10.847,104.135,34.812
20:07:55:723,16.544,-1.375,-0.702,-1.186,17.806,103.928,39.870
20:07:55:724,16.545,-1.246,-0.979,-1.506,22.293,102.462,40.786
20:07:55:725,16.546,-0.674,-1.553,-1.145,24.770,103.160,40.600
20:07:55:775,16.596,-0.503,-1.219,-0.434,21.665,104.562,38.754
20:07:55:776,16.597,-0.576,-1.166,-0.213,17.993,104.968,35.443
20:07:55:776,16.597,-0.594,-0.533,-0.129,10.439,104.727,27.749
20:07:55:777,16.598,-0.380,0.090,0.000,5.582,103.486,21.337
20:07:55:795,16.616,0.455,0.563,0.070,-2.023,100.545,11.218
20:07:55:795,16.616,1.929,1.923,1.450,-9.767,100.981,2.222
20:07:55:818,16.639,2.405,0.720,2.160,-13.715,101.920,-2.515
20:07:55:846,16.666,2.445,-0.847,2.088,-16.265,104.523,-5.922
20:07:55:9,16.721,1.462,-0.937,3.552,-15.561,105.354,-4.786
20:07:55:901,16.722,-0.199,2.778,-3.661,-15.065,107.443,0.375
20:07:55:981,16.802,0.555,-0.268,0.274,-12.117,107.076,3.579
20:07:55:982,16.803,-0.003,-0.368,0.688,-9.564,105.778,7.657
20:07:55:983,16.804,-0.047,0.223,0.153,-7.745,104.763,10.310
20:07:56:031,16.852,0.199,0.243,0.146,-6.495,104.283,12.087
20:07:56:056,16.876,0.057,0.906,-0.679,-3.813,102.785,16.519
20:07:56:112,16.933,-0.289,0.502,-0.743,-1.318,102.672,19.096
20:07:56:112,16.933,-0.901,0.061,-0.713,1.447,102.875,21.553
20:07:56:133,16.954,-0.985,-0.168,-0.540,3.810,102.519,23.717
20:07:56:189,17.010,-0.980,0.677,-0.069,7.964,103.060,30.270
20:07:56:19,17.010,-1.537,0.279,-0.945,12.135,103.105,34.842
20:07:56:214,17.035,-1.147,-0.262,-1.501,21.779,99.832,38.374
20:07:56:24,17.061,-0.731,-1.399,-1.559,29.730,99.149,40.671
20:07:56:51,17.331,-0.613,-1.663,-0.776,30.765,102.338,42.065
20:07:56:511,17.332,-0.551,-1.796,-0.290,27.716,107.043,42.170
20:07:56:512,17.333,-0.689,-1.363,-0.184,22.860,109.759,39.616
20:07:56:512,17.333,-0.639,-0.882,0.111,14.945,112.555,32.421
20:07:56:563,17.384,-0.529,-0.326,-0.119,10.457,113.040,25.766
20:07:56:564,17.384,-0.285,0.302,-0.090,4.217,112.140,14.691
20:07:56:565,17.385,0.884,1.557,1.014,-2.188,112.689,3.755
20:07:56:566,17.386,1.986,0.845,1.650,-5.899,114.054,-1.722
20:07:56:59,17.410,3.179,0.450,2.007,-9.894,118.079,-8.493
20:07:56:59,17.410,2.905,-1.487,2.861,-9.387,119.867,-8.926
20:07:56:591,17.411,-1.252,3.130,-1.408,-8.355,121.790,-3.778
20:07:56:694,17.515,-0.256,-0.428,0.600,-4.050,118.966,3.801
20:07:56:694,17.515,0.129,0.320,0.087,-2.519,118.369,5.738
20:07:56:695,17.516,0.003,0.128,0.019,-1.154,118.659,7.062
20:07:56:696,17.517,0.134,0.600,-0.339,0.886,118.744,9.339
20:07:56:715,17.536,-0.468,0.611,-0.565,2.345,118.872,10.596
20:07:56:715,17.536,-0.654,0.221,-0.438,4.892,119.937,12.388
20:07:56:74,17.561,-0.971,-0.068,-0.078,7.850,121.362,14.614
20:07:56:741,17.561,-1.031,-0.175,0.068,9.861,122.375,16.993
20:07:56:792,17.613,-1.014,0.226,-0.169,13.120,124.487,23.181
20:07:56:956,17.777,-0.852,0.128,0.533,16.467,126.460,28.317
20:07:56:957,17.778,-1.998,-0.426,-0.942,22.366,126.075,32.950
20:07:56:958,17.779,-2.081,-0.832,-0.929,27.289,125.728,34.033
20:07:56:959,17.779,-1.330,-1.533,-0.260,27.671,128.677,33.843
20:07:57:035,17.856,-0.913,-1.172,0.339,24.900,133.565,33.021
20:07:57:036,17.857,-0.820,-0.911,0.432,22.104,136.077,29.658
20:07:57:036,17.857,-0.539,-0.439,0.659,16.302,139.267,22.202
20:07:57:141,17.962,0.049,0.373,0.987,6.033,141.019,5.211
20:07:57:142,17.963,2.607,1.519,0.627,-1.483,144.420,-3.784
20:07:57:143,17.963,2.874,0.508,0.328,-4.969,146.760,-8.839
20:07:57:144,17.964,2.957,-0.895,0.181,-6.818,150.309,-11.807
20:07:57:212,18.033,2.089,-1.143,-0.621,-6.245,153.316,-10.388
20:07:57:297,18.118,3.608,-0.309,-0.565,-5.061,158.220,-6.271
20:07:57:299,18.119,1.307,-1.380,-0.820,-2.499,160.352,-1.362
20:07:57:299,18.120,0.562,-1.135,0.678,-0.665,159.319,2.354
20:07:57:3,18.121,-0.093,0.386,0.198,0.660,157.866,4.185
20:07:57:35,18.171,0.189,0.205,0.176,2.160,157.552,5.280
20:07:57:351,18.171,-0.179,0.684,-0.285,4.535,157.582,7.358
20:07:57:352,18.172,-0.534,0.954,-0.153,7.039,158.490,9.390
20:07:57:353,18.173,-0.894,0.534,0.014,8.806,159.269,10.665
20:07:57:535,18.356,-0.851,-0.147,0.757,11.893,161.132,12.995
20:07:57:536,18.356,-0.957,-0.224,0.850,14.250,162.501,15.532
20:07:57:536,18.356,-1.088,0.156,0.668,17.960,164.794,21.454
20:07:57:536,18.357,-0.342,-0.013,1.056,21.754,166.939,26.944
20:07:57:556,18.376,-1.509,-0.355,1.195,28.237,168.493,33.516
20:07:57:556,18.376,-1.696,-1.199,0.580,32.658,169.393,35.120
20:07:57:631,18.452,-1.015,-1.116,0.456,33.526,171.429,35.929
20:07:57:667,18.488,-0.771,-1.254,0.529,31.384,174.876,36.056
20:07:57:667,18.488,-0.369,-1.288,0.549,28.068,177.156,34.161
20:07:57:667,18.488,-0.059,-0.714,0.805,21.053,179.797,28.321
20:07:57:667,18.488,-0.103,-0.309,0.767,13.640,-179.719,18.941
20:07:57:69,18.510,0.022,0.350,0.604,8.593,-179.894,11.853
20:07:57:69,18.510,1.542,1.938,-0.227,0.667,-178.253,1.595
20:07:57:71,18.531,2.981,0.597,-1.118,-3.498,-175.295,-3.813
20:07:57:818,18.639,3.360,-0.170,-1.979,-8.485,-171.142,-10.061
20:07:57:818,18.639,2.066,-0.584,-1.268,-9.857,-169.553,-10.645
20:07:57:928,18.748,2.941,-0.697,-2.162,-9.292,-168.066,-7.224
20:07:57:928,18.749,-0.136,0.908,-1.204,-7.592,-165.806,-1.021
20:07:57:929,18.750,0.961,-1.050,-0.707,-4.681,-164.369,2.152
20:07:57:93,18.751,0.263,0.595,-0.127,-2.703,-165.685,6.155
20:07:57:981,18.802,-0.071,0.249,-0.257,-1.408,-166.910,7.655
20:07:57:982,18.803,0.268,0.146,0.092,0.735,-167.212,10.200
20:07:57:982,18.803,-0.106,0.479,0.002,2.608,-167.397,12.285
20:07:57:983,18.804,-0.534,0.723,0.072,3.874,-167.476,13.791
20:07:58:106,18.927,-0.579,0.520,0.418,6.248,-166.761,16.265
20:07:58:107,18.928,-0.483,0.110,0.942,7.931,-165.878,17.951
20:07:58:244,19.064,-0.530,-0.075,1.004,10.892,-165.067,20.884
20:07:58:244,19.064,-0.655,0.250,0.915,14.428,-165.012,25.540
20:07:58:245,19.065,-0.557,0.440,0.872,17.842,-164.373,30.573
20:07:58:245,19.066,-0.776,-0.426,1.402,25.095,-164.048,37.305
20:07:58:321,19.142,-1.584,-0.397,1.512,29.765,-165.900,38.813
20:07:58:322,19.143,-1.249,-1.409,0.876,33.585,-164.926,38.570
20:07:58:323,19.143,-0.437,-1.218,0.539,33.325,-162.465,39.329
20:07:58:324,19.144,-0.295,-1.359,0.626,29.597,-158.598,37.649
20:07:58:377,19.198,0.143,-0.853,0.647,22.951,-155.778,32.349
20:07:58:377,19.198,0.181,-0.645,0.733,18.160,-154.983,26.911
20:07:58:378,19.199,0.175,0.019,0.651,11.287,-155.729,16.778
20:07:58:378,19.199,0.397,0.700,0.078,6.399,-156.422,9.625
20:07:58:397,19.218,1.577,1.731,-1.783,-1.258,-155.441,0.037
20:07:58:397,19.218,1.736,0.958,-2.157,-5.187,-154.080,-5.431
20:07:58:398,19.219,1.907,-0.598,-2.817,-8.607,-151.554,-9.830
20:07:58:417,19.238,1.958,-1.062,-1.604,-8.398,-150.472,-8.192
20:07:58:475,19.296,0.544,0.729,-0.458,-7.311,-149.577,-5.738
20:07:58:475,19.296,0.678,0.358,-2.423,-6.982,-147.285,-0.033
20:07:58:526,19.347,1.143,-1.227,-0.247,-3.893,-146.847,2.811
20:07:58:526,19.347,-0.149,0.564,-0.272,-1.690,-147.646,6.384
20:07:58:577,19.398,-0.121,0.370,-0.180,0.498,-148.745,8.483
20:07:58:604,19.425,0.123,0.145,-0.082,1.866,-149.026,10.111
20:07:58:604,19.425,-0.240,0.576,0.240,3.651,-149.310,12.176
20:07:58:628,19.449,-0.447,0.774,0.400,4.926,-149.226,13.733
20:07:58:654,19.475,-0.475,0.137,0.800,7.610,-148.567,16.346
20:07:58:712,19.533,-0.251,0.062,0.983,10.641,-147.629,18.978
20:07:58:712,19.533,-0.385,-0.163,1.263,13.120,-147.409,21.349
20:07:58:713,19.534,-0.355,0.428,1.169,17.200,-146.621,27.175
20:07:58:759,19.580,0.537,-0.166,0.963,21.302,-144.476,32.876
20:07:58:814,19.635,-0.466,-0.567,1.943,28.615,-144.019,38.907
20:07:58:814,19.635,-0.917,-1.529,1.601,32.675,-145.324,39.685
20:07:58:84,19.661,-0.331,-1.366,1.146,34.919,-141.716,39.149
20:07:58:864,19.684,0.117,-1.320,0.757,32.358,-135.987,39.236
20:07:58:893,19.713,0.346,-1.235,0.767,29.102,-132.834,36.747
20:07:58:893,19.714,0.526,-0.743,0.625,22.703,-129.521,30.359
20:07:58:947,19.768,0.688,-0.118,0.713,18.280,-128.264,24.254
20:07:58:947,19.768,0.624,0.309,0.634,11.587,-127.775,13.561
20:07:58:97,19.791,0.821,1.979,-0.990,4.287,-126.093,2.704
20:07:59:137,19.958,0.587,1.078,-2.526,0.184,-123.728,-3.081
20:07:59:138,19.959,0.824,0.343,-3.394,-4.301,-120.184,-9.547
20:07:59:138,19.959,0.184,-0.871,-3.220,-4.864,-118.131,-10.405
20:07:59:138,19.959,0.825,-0.419,-2.794,-3.751,-115.983,-7.180
20:07:59:158,19.979,-2.145,3.115,3.110,-2.807,-113.908,-3.524
20:07:59:159,19.980,-0.548,-2.117,0.174,-1.116,-112.721,1.576
20:07:59:159,19.980,-0.408,0.271,-0.458,1.800,-113.776,5.954
20:07:59:178,19.999,-0.184,0.622,0.038,2.611,-114.446,7.423
20:07:59:204,20.025,0.000,0.119,-0.032,4.905,-114.607,9.520
20:07:59:233,20.053,-0.273,0.720,0.433,6.388,-114.468,11.050
20:07:59:339,20.160,-0.044,0.747,0.692,8.702,-113.293,13.482
20:07:59:34,20.161,0.256,0.133,0.937,11.355,-111.584,16.067
20:07:59:474,20.295,0.603,-0.152,0.842,13.352,-110.276,17.996
20:07:59:475,20.296,0.566,-0.167,1.051,16.830,-108.844,21.867
20:07:59:476,20.296,0.477,0.070,1.219,19.447,-107.894,25.729
20:07:59:555,20.376,0.955,-0.115,0.355,24.871,-104.610,33.967
20:07:59:556,20.377,0.871,-0.560,1.761,31.685,-103.827,39.610
20:07:59:557,20.378,0.566,-1.116,1.910,35.026,-103.983,40.399
20:07:59:557,20.378,0.368,-1.116,0.880,36.269,-100.660,40.739
20:07:59:58,20.401,0.492,-1.289,0.624,34.552,-97.856,40.900
20:07:59:581,20.402,0.717,-1.182,0.268,29.199,-94.038,37.751
20:07:59:581,20.402,0.942,-0.632,0.066,24.070,-92.103,33.669
20:07:59:601,20.422,0.952,-0.317,-0.011,16.320,-91.050,24.682
20:07:59:602,20.423,0.486,0.470,-0.515,8.832,-92.175,14.182
20:07:59:627,20.447,-0.047,1.365,-1.295,3.430,-92.425,7.379
20:07:59:682,20.502,-1.274,0.946,-2.830,-3.525,-91.085,-0.015
20:07:59:682,20.503,-1.856,-0.210,-2.681,-7.029,-89.811,-3.206
20:07:59:733,20.554,-1.339,-0.290,-2.021,-8.462,-88.431,-3.170
20:07:59:734,20.555,-0.722,2.365,1.869,-7.413,-84.501,1.255
20:07:59:756,20.577,-1.219,0.039,-0.648,-6.364,-82.362,4.139
20:07:59:871,20.692,0.537,-0.641,-0.863,-3.480,-82.808,8.903
20:07:59:871,20.692,-0.025,0.318,0.113,-2.373,-84.115,10.682
20:07:59:871,20.692,0.059,0.270,-0.080,-0.032,-84.915,12.903
20:07:59:872,20.692,0.052,0.399,0.122,1.401,-84.911,14.634
20:07:59:945,20.766,0.068,0.843,0.621,3.335,-84.734,17.163
20:07:59:946,20.767,0.559,0.347,0.797,5.838,-84.015,19.981
20:07:59:947,20.768,0.834,-0.032,0.779,7.785,-83.349,21.886
20:08:00:264,21.085,1.060,-0.210,0.678,11.188,-82.595,25.359
20:08:00:265,21.086,0.861,0.364,1.077,13.897,-82.452,28.786
20:08:00:266,21.087,0.981,0.309,0.641,19.327,-80.945,36.776
20:08:00:266,21.087,1.173,-0.597,0.893,27.281,-79.669,44.649
20:08:00:284,21.105,1.327,-1.110,1.696,31.545,-80.396,46.580
20:08:00:369,21.190,0.671,-1.473,1.154,33.264,-79.040,46.316
20:08:00:37,21.190,0.479,-1.254,0.492,31.652,-77.704,46.630
20:08:00:371,21.191,0.507,-1.320,0.221,26.073,-76.446,43.317
20:08:00:371,21.192,0.615,-0.714,0.134,17.896,-76.457,36.273
20:08:00:449,21.270,0.674,-0.482,0.092,12.509,-77.343,29.818
20:08:00:45,21.270,-0.018,0.480,-0.110,5.065,-80.553,19.037
20:08:00:45,21.270,-1.053,1.783,-0.950,0.011,-82.508,11.986
20:08:00:45,21.271,-2.129,0.718,-2.087,-7.400,-82.665,3.938
20:08:00:477,21.298,-2.416,0.105,-2.090,-11.554,-81.908,0.060
20:08:00:477,21.298,-2.157,-0.740,-2.118,-12.855,-80.148,-1.347
20:08:00:477,21.298,-0.992,2.448,3.719,-11.847,-76.146,2.670
20:08:00:477,21.298,-1.418,0.041,-1.042,-10.653,-74.320,6.185
20:08:00:492,21.313,0.276,-0.286,-0.612,-7.582,-75.847,10.533
20:08:00:526,21.347,0.060,0.376,-0.248,-6.207,-76.548,12.434
20:08:00:527,21.348,-0.013,0.282,0.022,-3.623,-77.278,15.182
20:08:00:528,21.349,0.145,0.593,0.381,-2.028,-77.786,17.088
20:08:00:528,21.349,0.179,0.836,0.846,0.202,-78.377,20.071
20:08:00:543,21.364,0.827,0.320,0.846,3.206,-77.962,22.960
20:08:00:57,21.390,1.081,0.034,0.808,5.290,-77.513,24.845
20:08:00:709,21.530,1.014,-0.336,0.745,9.022,-77.426,28.456
20:08:00:709,21.530,0.869,0.374,0.821,11.512,-77.246,32.375
20:08:00:71,21.531,1.169,-0.184,-0.102,18.185,-75.621,41.035
20:08:00:842,21.663,1.221,-0.826,1.858,27.363,-77.903,45.848
20:08:00:842,21.663,1.325,-1.126,1.790,32.959,-79.938,46.344
20:08:00:843,21.664,0.273,-1.505,0.932,35.040,-78.860,46.016
20:08:00:844,21.665,0.484,-1.527,0.436,32.702,-77.177,45.813
20:08:00:894,21.715,0.528,-1.411,0.271,26.148,-76.079,41.640
20:08:00:895,21.716,0.727,-0.523,0.126,17.325,-76.449,33.524
20:08:00:896,21.717,0.707,-0.072,0.193,11.784,-77.962,26.302
20:08:00:897,21.718,0.065,0.759,0.188,3.967,-81.855,14.628
20:08:01:025,21.846,-0.956,2.637,-1.000,-1.728,-82.818,7.317
20:08:01:026,21.846,-2.539,1.410,-1.970,-9.086,-80.548,-1.010
20:08:01:026,21.846,-2.530,-0.179,-2.617,-13.343,-76.291,-5.519
20:08:01:053,21.874,-2.169,-0.590,-2.511,-12.717,-74.697,-4.963
20:08:01:053,21.874,-0.325,2.625,3.584,-10.023,-72.121,1.620
20:08:01:053,21.874,-1.848,-1.513,-1.463,-9.180,-71.302,5.033
20:08:01:054,21.875,-0.309,-0.243,-0.680,-5.581,-72.220,9.571
20:08:01:157,21.977,0.018,0.275,-0.141,-3.836,-72.939,11.511
20:08:01:157,21.978,-0.046,0.377,-0.150,-0.780,-73.354,14.351
20:08:01:158,21.979,0.101,0.646,0.514,1.584,-74.024,17.270
20:08:01:159,21.979,0.346,0.938,0.944,3.128,-74.373,19.166
20:08:01:176,21.997,0.701,0.275,0.818,6.218,-73.470,22.363
20:08:01:177,21.998,1.250,-0.007,0.644,8.406,-72.637,24.313
20:08:01:201,22.021,1.098,-0.354,0.746,12.262,-72.129,27.864
20:08:01:284,22.105,0.894,0.544,0.676,16.675,-71.141,34.486
20:08:01:285,22.106,1.194,-0.330,-0.397,21.535,-69.407,40.487
20:08:01:285,22.106,1.470,-1.005,1.780,30.293,-71.074,45.075
20:08:01:304,22.125,1.502,-1.216,1.670,35.705,-73.492,45.590
20:08:01:361,22.182,0.728,-1.564,0.805,38.145,-71.661,45.137
20:08:01:362,22.182,0.676,-1.353,0.212,35.948,-68.578,44.887
20:08:01:383,22.204,0.853,-1.286,-0.026,29.801,-64.777,41.172
20:08:01:41,22.231,0.857,-0.478,-0.177,21.284,-62.815,32.977
20:08:01:465,22.286,0.838,-0.434,-0.177,15.822,-62.550,25.899
20:08:01:466,22.287,0.338,0.769,-0.388,7.497,-62.974,14.169
20:08:01:547,22.367,-1.817,2.711,-1.346,1.567,-62.704,6.517
20:08:01:548,22.368,-2.741,1.023,-1.626,-5.610,-60.288,-2.826
20:08:01:548,22.369,-3.309,-0.701,-1.825,-9.815,-57.561,-8.607
20:08:01:624,22.445,-2.664,-0.998,-0.844,-9.764,-56.279,-8.621
20:08:01:625,22.446,-0.153,-0.245,-4.809,-6.766,-53.984,-3.997
20:08:01:705,22.526,-0.034,2.902,-0.565,-7.490,-52.186,2.921
20:08:01:705,22.526,-0.106,-0.097,-0.882,-3.228,-53.456,6.108
20:08:01:813,22.634,-0.197,0.425,0.282,-1.400,-53.854,8.245
20:08:01:814,22.635,-0.065,0.643,0.118,1.367,-53.942,10.368
20:08:01:814,22.635,0.079,0.537,0.284,3.741,-53.828,12.994
20:08:01:815,22.636,0.386,0.864,0.609,5.155,-53.569,14.382
20:08:01:865,22.686,0.767,0.445,0.466,7.863,-52.121,17.251
20:08:01:866,22.687,1.221,-0.024,0.160,9.835,-50.929,19.156
20:08:01:867,22.688,1.291,-0.257,0.221,12.982,-49.375,22.786
20:08:01:868,22.689,1.246,0.208,0.473,17.294,-47.465,29.211
20:08:01:882,22.703,0.763,-0.401,-0.515,21.505,-44.622,34.760
20:08:01:909,22.729,1.894,-0.890,0.305,26.980,-42.816,39.240
20:08:02:05,22.871,2.073,-1.127,0.169,29.921,-41.606,41.148
20:08:02:051,22.872,1.501,-1.476,-0.036,29.520,-36.475,41.039
20:08:02:051,22.872,0.832,-1.102,-0.817,24.934,-30.809,40.025
20:08:02:051,22.872,0.600,-1.015,-0.874,21.475,-28.511,36.491
20:08:02:18,23.001,0.378,-0.562,-0.851,15.885,-27.273,28.176
20:08:02:181,23.002,0.353,-0.349,-0.758,12.238,-27.846,20.811
20:08:02:182,23.003,0.063,0.392,-0.879,5.651,-29.293,9.666
20:08:02:183,23.004,-1.087,1.489,-0.799,-0.125,-28.496,3.070
20:08:02:203,23.024,-2.979,0.902,0.537,-7.046,-24.773,-4.515
20:08:02:203,23.024,-3.401,-0.613,0.173,-9.475,-21.088,-7.673
20:08:02:204,23.025,-2.715,-0.791,0.737,-8.968,-19.260,-6.769
20:08:02:223,23.044,-3.041,-0.475,-0.432,-7.051,-15.163,-2.848
20:08:02:251,23.072,-1.157,2.711,0.264,-8.164,-13.028,1.089
20:08:02:334,23.155,0.034,-2.595,0.369,-3.802,-12.501,4.956
20:08:02:335,23.155,-0.181,0.454,0.103,-2.543,-13.974,7.672
20:08:02:336,23.156,0.025,0.586,0.064,-1.410,-14.644,8.842
20:08:02:385,23.206,0.097,0.339,0.093,0.453,-14.864,11.193
20:08:02:385,23.206,0.452,0.700,0.168,1.852,-14.474,12.627
20:08:02:467,23.288,0.890,0.727,-0.023,4.238,-13.643,14.759
20:08:02:468,23.288,1.167,0.012,-0.443,6.086,-13.132,16.285
20:08:02:468,23.288,0.943,-0.231,-0.890,9.332,-11.923,19.691
20:08:02:515,23.336,1.115,0.038,-0.556,13.389,-10.795,25.446
20:08:02:516,23.336,1.022,0.311,-0.481,17.213,-9.063,31.098
20:08:02:568,23.389,0.344,-0.473,-1.097,24.771,-7.512,38.649
20:08:02:568,23.389,2.047,-0.718,-0.893,29.439,-8.640,40.317
20:08:02:645,23.466,1.811,-1.371,-0.702,32.835,-7.087,40.367
20:08:02:676,23.496,0.791,-1.133,-0.448,31.027,-3.015,40.335
20:08:02:676,23.497,0.437,-1.357,-0.641,27.602,-0.271,38.423
20:08:02:677,23.497,0.167,-0.786,-0.811,20.158,2.749,32.392
20:08:02:696,23.517,-0.124,-0.441,-0.952,14.894,3.775,26.383
20:08:02:784,23.605,-0.361,0.389,-0.652,7.623,2.462,15.237
20:08:02:784,23.605,-0.966,0.943,0.146,2.676,0.732,7.815
20:08:02:784,23.605,-2.511,1.833,1.447,-5.331,1.792,-0.314
20:08:02:917,23.738,-3.338,0.393,2.516,-11.374,6.000,-5.607
20:08:02:917,23.738,-2.592,-0.573,2.190,-12.413,8.304,-6.363
20:08:02:917,23.738,-2.323,-0.456,0.793,-11.339,10.162,-3.653
20:08:02:919,23.740,-3.053,-0.267,-0.127,-10.656,12.456,-0.764
20:08:03:02,23.841,-1.741,-2.414,1.856,-8.153,15.836,4.075
20:08:03:021,23.841,-0.456,-0.356,0.232,-6.247,14.773,8.664
20:08:03:022,23.842,0.164,0.226,0.085,-5.016,13.404,10.355
20:08:03:04,23.861,0.392,0.649,-0.029,-1.621,12.622,14.605
20:08:03:041,23.861,0.731,0.960,-0.016,0.736,12.419,17.266
20:08:03:095,23.916,0.902,0.409,-0.589,3.536,12.821,20.025
20:08:03:096,23.917,0.844,0.013,-0.999,5.426,13.333,21.862
20:08:03:097,23.918,0.785,-0.232,-1.032,8.827,13.697,25.830
20:08:03:201,24.022,0.923,0.322,-1.009,11.443,14.434,30.323
20:08:03:202,24.022,-0.092,0.004,-1.233,18.541,16.466,39.395
20:08:03:202,24.023,1.608,-1.122,-1.464,24.622,15.460,42.835
20:08:03:224,24.044,1.627,-0.981,-1.254,32.532,11.973,42.914
20:08:03:225,24.045,1.262,-1.457,-0.711,34.587,13.329,41.733
20:08:03:277,24.097,0.654,-1.338,-0.441,32.937,16.338,41.430
20:08:03:277,24.098,0.118,-1.269,-0.896,26.451,21.068,38.120
20:08:03:301,24.122,-0.201,-0.551,-1.010,20.511,23.865,33.504
20:08:03:383,24.204,-0.481,-0.291,-0.996,11.642,26.859,23.721
20:08:03:383,24.204,-0.735,0.750,-0.312,4.111,27.035,11.694
20:08:03:465,24.285,-1.101,1.563,1.039,-0.934,27.323,3.563
20:08:03:466,24.286,-2.071,0.873,2.882,-7.823,27.803,-5.176
20:08:03:467,24.287,-2.137,-0.337,3.405,-11.472,28.900,-9.111
20:08:03:544,24.365,-0.930,-1.123,2.734,-11.310,32.933,-9.559
20:08:03:545,24.366,-3.678,-1.933,1.298,-9.308,35.323,-6.867
20:08:03:546,24.367,0.644,3.106,-1.657,-9.535,38.430,0.189
20:08:03:547,24.368,-0.502,0.001,0.201,-5.382,36.773,3.490
20:08:03:562,24.383,0.093,-0.090,0.647,-4.100,36.362,5.123
20:08:03:619,24.439,0.007,0.744,0.069,-2.342,36.237,6.866
20:08:03:619,24.440,0.111,0.058,0.086,-1.092,35.828,8.695
20:08:03:641,24.461,0.606,0.913,-0.080,0.621,35.666,10.650
20:08:03:667,24.488,0.657,0.398,-0.711,2.784,35.971,12.609
20:08:03:752,24.573,0.194,0.013,-0.832,4.557,36.483,14.092
20:08:03:752,24.573,0.068,-0.149,-1.012,7.783,37.041,17.488
20:08:03:753,24.574,0.444,0.073,-1.212,10.206,37.375,20.854
20:08:03:804,24.625,0.145,0.383,-1.016,14.449,40.301,28.420
20:08:03:804,24.625,-0.660,-0.368,-0.950,21.062,42.982,36.200
20:08:03:939,24.760,0.654,-0.547,-2.238,26.036,41.500,38.381
20:08:03:94,24.761,0.632,-1.855,-1.955,30.805,42.331,38.198
20:08:03:94,24.761,0.101,-1.281,-1.316,30.477,46.434,37.877
20:08:03:941,24.762,-0.345,-1.366,-1.147,27.111,52.902,35.988
20:08:03:983,24.804,-0.776,-0.752,-0.796,23.234,56.743,32.163
20:08:04:01,24.830,-1.053,-0.422,-0.625,16.207,61.918,24.072
20:08:04:071,24.892,-1.298,0.166,0.031,9.750,64.604,13.420
20:08:04:071,24.892,-1.271,0.436,0.522,5.359,65.497,5.700
20:08:04:071,24.892,-0.190,1.631,3.211,-2.003,67.403,-3.752
20:08:04:072,24.893,0.132,0.194,3.501,-6.144,67.696,-8.847
20:08:04:087,24.908,0.502,-0.878,2.979,-8.539,69.734,-11.032
20:08:04:113,24.934,0.934,-1.118,2.151,-7.536,72.100,-7.703
20:08:04:2,25.020,0.369,1.857,1.008,-6.740,74.331,-4.710
20:08:04:2,25.020,2.421,-0.614,2.865,-4.384,75.290,0.172
20:08:04:2,25.020,-0.430,-1.115,0.623,-2.911,74.460,4.315
20:08:04:219,25.039,-0.009,0.442,0.135,-1.461,73.064,6.372
20:08:04:274,25.095,0.020,0.242,0.114,0.138,73.103,7.733
20:08:04:274,25.095,0.326,0.735,-0.399,2.537,73.699,10.207
20:08:04:299,25.120,-0.004,0.742,-0.759,5.138,75.223,12.473
20:08:04:324,25.145,-0.294,0.250,-0.933,6.907,76.250,13.932
20:08:04:351,25.171,-0.913,-0.242,-0.734,9.738,77.991,16.779
20:08:04:377,25.197,-0.691,-0.198,-0.634,11.761,79.113,19.517
20:08:04:404,25.224,-0.391,0.070,-0.770,15.890,80.991,25.751
20:08:04:428,25.249,-0.906,-0.182,-0.319,22.225,83.361,33.209
20:08:04:455,25.276,-0.903,-0.209,-1.877,26.699,83.334,36.301
20:08:04:482,25.303,-1.057,-0.952,-1.930,31.888,83.518,38.554
20:08:04:509,25.330,-0.595,-1.141,-0.860,32.951,85.713,39.002
20:08:04:536,25.356,-0.632,-1.312,-0.667,30.861,89.511,39.519
20:08:04:589,25.409,-0.649,-1.274,-0.236,27.246,91.996,37.840
20:08:04:59,25.410,-0.808,-0.735,-0.045,19.371,94.943,32.101
20:08:04:64,25.461,-0.856,-0.092,0.167,11.464,95.284,22.963
20:08:04:667,25.488,-0.521,0.260,0.221,6.202,94.005,16.051
20:08:04:668,25.489,0.584,1.712,1.051,-2.290,93.003,5.713
20:08:04:72,25.541,1.708,1.645,2.565,-7.324,94.265,0.964
20:08:04:721,25.541,2.562,0.363,3.170,-12.606,96.592,-4.505
20:08:04:831,25.652,1.943,-1.064,1.543,-13.140,98.336,-4.011
20:08:04:832,25.653,0.589,-0.460,1.454,-12.194,99.243,-1.480
20:08:04:832,25.653,-0.922,2.935,-3.197,-12.328,102.018,2.002
20:08:04:833,25.654,0.041,-0.773,0.864,-8.788,103.120,5.692
20:08:04:848,25.669,0.468,0.287,0.232,-6.906,101.794,9.786
20:08:04:876,25.697,0.082,0.285,-0.079,-4.832,100.403,12.147
20:08:04:902,25.722,-0.019,0.483,-0.019,-3.465,100.098,13.749
20:08:04:927,25.748,-0.033,0.761,-0.514,-1.456,99.937,16.253
20:08:04:983,25.804,-0.129,0.735,-0.710,0.233,100.230,18.175
20:08:04:984,25.805,-0.873,0.181,-0.823,2.918,100.860,21.041
20:08:05:006,25.827,-1.219,-0.125,-0.562,4.675,101.434,23.160
20:08:05:034,25.855,-0.795,-0.046,-0.608,7.940,101.527,27.655
20:08:05:09,25.910,-1.025,0.432,-0.550,13.236,102.001,35.489
20:08:05:09,25.910,-1.051,-0.098,-0.038,18.778,102.166,41.268
20:08:05:141,25.962,-1.039,-0.914,-1.884,27.521,99.184,44.734
20:08:05:142,25.962,-1.180,-1.053,-2.032,31.656,98.046,45.558
20:08:05:164,25.985,-0.341,-1.386,-0.788,31.868,100.466,45.335
20:08:05:218,26.039,-0.366,-1.426,-0.256,26.917,102.874,43.826
20:08:05:245,26.066,-0.608,-1.071,-0.045,22.102,103.540,40.100
20:08:05:246,26.067,-0.599,-0.606,-0.153,13.408,102.964,31.758
20:08:05:298,26.119,-0.488,0.032,-0.096,8.009,101.664,24.626
20:08:05:298,26.119,0.185,0.765,0.188,-0.173,98.712,13.685
20:08:05:321,26.141,1.388,2.494,1.419,-5.909,97.840,6.874
20:08:05:35,26.171,2.295,0.376,2.311,-13.136,98.270,-0.701
20:08:05:351,26.172,2.655,-0.715,2.597,-17.791,99.868,-4.963
20:08:05:435,26.256,2.096,-0.995,1.709,-17.794,100.196,-4.518
20:08:05:435,26.256,-0.211,0.446,0.851,-15.794,102.462,-0.936
20:08:05:435,26.256,0.183,-2.287,0.637,-16.044,103.456,1.644
20:08:05:481,26.302,-0.177,-0.160,0.736,-11.656,103.240,7.080
20:08:05:482,26.303,0.036,0.278,-0.008,-9.326,101.595,10.013
20:08:05:534,26.354,0.081,0.294,0.028,-7.612,100.892,11.694
20:08:05:534,26.355,-0.142,0.455,-0.076,-5.477,100.266,14.392
20:08:05:557,26.378,0.045,0.913,-0.672,-4.102,99.916,16.130
20:08:05:614,26.435,-0.074,0.743,-0.755,-1.615,99.789,19.451
20:08:05:614,26.435,-0.814,0.296,-0.823,1.056,100.302,22.162
20:08:05:692,26.513,-1.225,-0.025,-0.751,2.784,100.470,24.114
20:08:05:693,26.514,-0.658,-0.005,-0.734,6.236,99.575,28.350
20:08:05:718,26.538,-0.870,0.621,-0.610,9.397,99.557,33.199
20:08:05:718,26.539,-1.025,0.188,-0.099,16.909,100.626,41.843
20:08:05:743,26.564,-1.126,-0.488,-1.440,23.176,100.024,45.800
20:08:05:768,26.589,-1.138,-0.757,-2.038,32.336,98.221,49.158
20:08:05:794,26.615,-0.630,-1.550,-1.087,34.743,101.410,50.388
20:08:05:82,26.641,-0.450,-1.195,-0.621,32.611,104.247,50.784
20:08:05:846,26.667,-0.399,-1.535,0.209,26.564,106.965,48.127
20:08:05:872,26.693,-0.550,-1.052,-0.156,21.437,107.091,42.853
20:08:05:898,26.719,-0.563,-0.766,-0.185,13.320,105.786,32.534
20:08:05:925,26.746,-0.432,0.004,-0.341,5.680,103.676,20.066
20:08:05:981,26.802,0.122,0.944,0.303,0.387,102.969,11.935
20:08:06:037,26.857,1.559,1.945,1.490,-7.819,103.878,0.996
20:08:06:037,26.857,3.013,1.450,2.585,-12.540,105.547,-5.560
20:08:06:037,26.858,2.887,-0.852,2.839,-16.493,108.608,-11.227
20:08:06:111,26.932,-2.867,0.932,1.812,-12.795,110.335,-7.241
20:08:06:112,26.933,-0.005,-2.666,-0.067,-11.514,110.911,-1.063
20:08:06:135,26.956,0.076,-0.875,0.801,-9.158,108.547,3.247
20:08:06:161,26.982,0.334,0.645,-0.199,-7.278,106.520,6.356
20:08:06:217,27.037,-0.184,0.520,0.224,-5.141,106.265,7.852
20:08:06:217,27.038,0.147,0.129,0.176,-2.147,105.429,11.081
20:08:06:242,27.063,-0.013,0.674,-0.433,0.471,104.574,13.009
20:08:06:268,27.088,-0.106,0.858,-0.681,2.290,104.504,14.768
20:08:06:323,27.144,-0.500,0.445,-0.751,5.268,105.867,17.489
20:08:06:323,27.144,-1.051,0.096,-0.538,7.056,107.306,19.151
20:08:06:344,27.165,-0.983,-0.098,-0.608,9.755,109.615,22.589
20:08:06:4,27.221,-0.862,0.381,-0.651,13.526,111.927,28.526
20:08:06:401,27.222,-1.108,-0.083,0.144,17.401,114.415,34.311
20:08:06:424,27.245,-1.631,-0.253,-1.326,23.931,114.965,39.736
20:08:06:45,27.270,-2.158,-1.068,-1.407,28.830,114.083,41.662
20:08:06:505,27.326,-1.023,-1.562,-0.736,31.578,116.889,42.166
20:08:06:506,27.326,-0.865,-1.402,-0.046,30.210,119.940,42.780
20:08:06:531,27.352,-0.874,-1.431,0.016,25.786,123.366,39.379
20:08:06:613,27.434,-0.811,-0.662,0.299,18.947,125.879,31.810
20:08:06:614,27.434,-0.739,-0.533,0.544,14.402,126.673,24.831
20:08:06:615,27.435,-0.562,0.415,0.454,7.931,125.585,12.618
20:08:06:634,27.454,0.644,1.444,0.944,3.053,125.480,4.410
20:08:06:66,27.481,2.850,1.176,1.560,-4.092,128.403,-4.946
20:08:06:688,27.509,4.131,-0.431,1.816,-8.563,132.677,-11.102
20:08:06:713,27.534,2.660,-1.222,0.522,-8.482,135.122,-11.505
20:08:06:77,27.590,3.109,-1.481,2.023,-6.110,138.092,-7.750
20:08:06:77,27.590,2.509,0.686,-0.377,-7.135,140.284,-1.527
20:08:06:791,27.612,0.583,-0.081,0.815,-2.258,137.975,1.408
20:08:06:847,27.668,0.195,0.312,-0.428,-1.082,137.451,3.960
20:08:06:847,27.668,-0.161,0.783,-0.177,1.155,136.744,5.522
20:08:06:87,27.691,-0.014,0.442,-0.148,3.778,136.737,8.004
20:08:06:954,27.775,-0.294,0.989,-0.539,5.515,136.841,9.274
20:08:06:955,27.776,-0.887,0.527,-0.470,8.090,137.786,11.431
20:08:06:956,27.777,-1.128,-0.082,0.093,9.877,138.954,12.877
20:08:07:033,27.854,-1.241,-0.131,0.141,12.990,141.080,16.237
20:08:07:034,27.855,-1.299,0.010,0.036,16.781,144.316,22.566
20:08:07:034,27.855,-0.890,0.043,0.823,20.261,147.786,28.793
20:08:07:112,27.933,-0.886,-0.449,0.936,26.644,151.045,36.931
20:08:07:112,27.933,-2.248,-0.417,0.234,31.079,149.607,38.786
20:08:07:113,27.934,-1.676,-1.784,-0.248,35.411,149.250,38.912
20:08:07:132,27.953,-0.755,-0.896,0.261,34.996,153.950,38.879
20:08:07:188,28.008,-0.710,-1.355,0.623,32.512,157.023,37.668
20:08:07:188,28.009,-0.422,-0.879,0.950,26.314,161.129,32.361
20:08:07:316,28.137,-0.366,-0.464,1.074,20.935,163.340,26.951
20:08:07:345,28.165,-0.113,0.271,1.139,13.405,165.184,16.384
20:08:07:37,28.191,1.515,1.611,0.720,5.451,166.811,5.168
20:08:07:43,28.251,2.833,1.591,0.032,0.419,168.508,-1.283
20:08:07:431,28.252,3.609,0.375,-0.918,-6.064,170.683,-8.663
20:08:07:432,28.253,3.300,-0.751,-1.417,-8.415,172.467,-10.508
20:08:07:433,28.254,1.639,-1.015,-1.560,-8.588,175.319,-8.826
20:08:07:482,28.303,1.189,-1.135,-0.368,-7.303,176.881,-6.038
20:08:07:483,28.304,-1.499,3.119,1.347,-8.025,-179.436,-0.720
20:08:07:501,28.322,-0.211,0.541,-0.002,0.284,178.012,7.786
20:08:07:557,28.377,-0.154,0.457,-0.045,1.957,177.927,9.480
20:08:07:557,28.377,-0.572,1.161,-0.070,4.390,178.060,11.683
20:08:07:579,28.400,-1.018,0.518,0.272,7.017,178.246,14.114
20:08:07:605,28.426,-1.044,0.045,0.852,8.814,178.798,15.723
20:08:07:657,28.478,-0.804,-0.297,1.142,12.075,-179.954,19.496
20:08:07:718,28.538,-0.890,0.101,0.939,14.842,-179.557,23.354
20:08:07:718,28.538,-0.236,0.065,1.141,20.926,-177.618,31.997
20:08:07:737,28.558,-1.584,-0.810,1.125,33.954,-179.967,39.506
20:08:07:792,28.613,-1.027,-1.368,0.531,36.479,-176.985,39.778
20:08:07:793,28.614,-0.476,-1.113,0.608,35.411,-173.352,40.624
20:08:07:878,28.699,-0.242,-1.373,0.677,30.723,-168.480,39.035
20:08:07:878,28.699,0.154,-0.773,0.793,25.808,-165.712,35.716
20:08:07:879,28.700,0.209,-0.553,0.995,17.496,-163.035,27.737
20:08:07:879,28.700,0.434,0.227,0.668,9.738,-162.748,16.917
20:08:07:894,28.714,0.899,0.959,-0.048,4.401,-163.319,9.379
20:08:07:951,28.771,2.467,1.565,-1.960,-3.590,-162.595,-0.342
20:08:07:951,28.771,2.341,0.838,-2.765,-8.025,-161.550,-5.222
20:08:08:029,28.850,1.903,-0.784,-2.722,-11.698,-159.064,-8.130
20:08:08:029,28.850,2.404,-0.329,-0.775,-10.601,-157.442,-5.545
20:08:08:084,28.904,2.572,-0.751,-0.061,-9.012,-155.408,-3.146
20:08:08:084,28.904,-0.645,-2.904,-1.822,-8.536,-152.656,1.980
20:08:08:217,29.038,1.157,-0.226,0.058,-5.428,-152.747,5.703
20:08:08:218,29.039,0.146,0.329,0.104,-3.241,-154.529,8.851
20:08:08:219,29.040,-0.153,0.389,-0.077,-1.691,-155.181,10.348
20:08:08:22,29.041,-0.033,0.405,0.181,0.296,-155.946,12.800
20:08:08:244,29.065,-0.462,1.010,0.295,2.374,-156.570,15.196
20:08:08:244,29.065,-0.675,0.475,0.406,4.349,-157.057,16.954
20:08:08:245,29.065,-0.645,0.034,0.976,7.409,-157.647,19.283
20:08:08:349,29.170,-0.379,-0.102,1.201,9.381,-157.492,21.029
20:08:08:349,29.170,-0.431,0.004,0.972,12.915,-157.293,25.250
20:08:08:35,29.171,0.340,0.316,1.103,17.780,-155.248,32.628
20:08:08:35,29.171,0.645,-0.256,1.069,22.892,-154.242,37.852
20:08:08:366,29.187,-1.552,-0.668,1.684,31.365,-157.459,40.332
20:08:08:392,29.213,-1.626,-0.958,1.980,35.528,-158.006,40.977
20:08:08:42,29.240,-0.380,-1.255,0.684,36.238,-152.245,41.598
20:08:08:531,29.352,0.043,-1.429,0.679,33.839,-148.213,41.878
20:08:08:531,29.352,0.238,-1.120,0.732,28.011,-144.014,38.007
20:08:08:532,29.353,0.283,-0.685,0.726,20.167,-141.340,30.381
20:08:08:552,29.373,0.449,-0.107,0.812,15.195,-140.330,23.437
20:08:08:553,29.374,0.383,0.603,0.313,7.925,-139.882,11.895
20:08:08:577,29.398,1.138,2.456,-1.336,2.797,-138.561,4.263
20:08:08:603,29.423,1.067,0.970,-2.650,-3.541,-133.791,-4.028
20:08:08:658,29.478,1.350,-0.070,-3.763,-7.656,-128.117,-10.237
20:08:08:658,29.479,0.527,-1.012,-2.860,-7.569,-125.201,-10.757
20:08:08:682,29.502,-0.008,-0.345,-2.059,-5.740,-123.389,-7.335
20:08:08:738,29.559,-2.839,3.101,2.545,-4.154,-123.894,-3.740
20:08:08:738,29.559,0.050,-4.943,-0.598,-3.164,-123.562,1.792
20:08:08:76,29.581,0.001,0.279,0.039,-0.752,-124.390,6.282
20:08:08:786,29.607,0.039,0.422,-0.161,0.555,-125.286,7.447
20:08:08:842,29.663,0.065,0.113,-0.039,2.831,-125.331,9.708
20:08:08:842,29.663,-0.207,0.567,0.142,4.406,-125.436,11.165
20:08:08:924,29.745,-0.380,0.878,0.677,6.954,-125.243,13.067
20:08:08:924,29.745,-0.290,0.448,0.804,8.662,-124.529,14.759
20:08:08:924,29.745,0.282,-0.017,1.005,11.209,-122.654,17.423
20:08:09:002,29.822,0.334,-0.101,1.288,14.256,-121.010,20.925
20:08:09:003,29.823,0.243,0.004,1.239,16.941,-120.320,24.571
20:08:09:003,29.824,1.109,0.008,0.697,22.374,-117.176,32.913
20:08:09:051,29.872,0.760,-0.480,1.662,27.487,-115.894,38.024
20:08:09:052,29.873,0.285,-0.781,2.222,35.544,-117.832,40.459
20:08:09:102,29.923,0.129,-1.350,1.155,39.009,-114.385,41.008
20:08:09:13,29.951,0.369,-1.086,0.904,38.533,-109.700,42.345
20:08:09:131,29.951,0.844,-1.379,0.509,33.993,-102.959,41.897
20:08:09:154,29.975,1.036,-1.084,0.277,29.005,-99.120,39.112
20:08:09:18,30.001,1.222,-0.462,0.173,20.338,-95.050,31.522
20:08:09:321,30.142,1.054,0.243,0.055,15.190,-93.913,24.471
20:08:09:322,30.142,0.833,0.795,-0.577,7.706,-93.585,12.841
20:08:09:323,30.143,-0.231,1.707,-2.213,-0.104,-92.697,2.630
20:08:09:323,30.144,-1.147,0.899,-3.040,-4.679,-91.564,-2.427
20:08:09:371,30.192,-1.853,-0.056,-3.413,-10.092,-89.699,-7.054
20:08:09:371,30.192,-1.423,-1.015,-1.630,-11.089,-89.475,-7.103
20:08:09:371,30.192,0.364,-0.393,-0.795,-10.279,-88.871,-3.788
20:08:09:531,30.352,-2.309,2.428,4.135,-10.208,-85.468,1.003
20:08:09:531,30.352,0.450,-3.929,-0.822,-7.107,-84.185,4.479
20:08:09:532,30.353,-0.207,0.836,0.027,-5.243,-85.076,9.201
20:08:09:533,30.354,-0.105,0.091,0.035,-4.093,-86.436,10.541
20:08:09:636,30.457,0.143,0.347,-0.089,-2.126,-86.948,13.263
20:08:09:637,30.457,0.023,0.597,0.290,-0.108,-87.175,15.464
20:08:09:637,30.457,-0.091,0.976,0.664,1.390,-87.252,17.042
20:08:09:638,30.458,0.323,0.354,1.004,3.988,-86.862,19.710
20:08:09:866,30.687,0.957,0.105,0.784,5.359,-85.994,21.266
20:08:09:867,30.688,1.097,-0.060,0.659,7.726,-85.093,24.244
20:08:09:952,30.773,0.589,-0.040,0.794,9.915,-85.165,27.259
20:08:09:952,30.773,1.087,0.344,0.472,15.338,-83.845,35.116
20:08:09:952,30.773,1.027,-0.403,0.645,23.274,-83.214,42.642
20:08:09:953,30.774,1.081,-0.710,1.826,28.786,-84.299,45.365
20:08:09:977,30.798,0.582,-1.715,1.236,32.974,-82.728,47.551
20:08:09:978,30.799,0.834,-1.168,0.545,31.195,-79.842,47.820
20:08:09:979,30.800,0.642,-1.390,0.068,24.997,-76.869,45.497
20:08:09:979,30.800,0.634,-0.729,0.165,17.672,-76.123,38.833
20:08:10:03,30.850,0.623,-0.602,0.250,12.940,-76.870,32.246
20:08:10:031,30.851,0.670,0.088,0.067,6.145,-78.801,20.616
20:08:10:031,30.852,0.473,0.701,-0.336,1.017,-80.222,12.936
20:08:10:032,30.853,-0.861,1.936,-1.574,-7.331,-81.213,3.004
20:08:10:056,30.876,-2.828,0.955,-2.522,-12.319,-80.819,-2.176
20:08:10:056,30.877,-3.186,0.145,-3.079,-16.851,-80.322,-6.328
20:08:10:057,30.878,-2.025,-1.183,-1.444,-16.364,-80.428,-4.923
20:08:10:058,30.879,1.251,0.328,-0.737,-14.312,-78.884,-1.853
20:08:10:075,30.896,-0.026,1.909,0.287,-13.516,-75.979,2.753
20:08:10:076,30.897,0.272,-0.517,-0.565,-10.147,-76.822,7.332
20:08:10:181,31.002,-0.162,0.579,0.266,-7.518,-79.320,10.537
20:08:10:234,31.054,-0.129,0.139,-0.254,-4.508,-79.926,13.246
20:08:10:235,31.055,-0.192,0.208,-0.035,-3.130,-80.427,15.088
20:08:10:258,31.079,0.083,0.421,0.182,-1.235,-80.838,17.056
20:08:10:291,31.112,0.102,0.584,0.668,-0.058,-81.083,18.586
20:08:10:291,31.112,0.276,0.460,0.638,2.226,-80.707,21.536
20:08:10:293,31.114,0.897,0.222,0.529,3.869,-80.114,23.379
20:08:10:367,31.188,1.269,-0.128,1.141,11.201,-80.746,31.169
20:08:10:367,31.188,1.159,0.416,1.076,15.177,-80.675,36.546
20:08:10:368,31.189,1.151,-0.028,0.144,24.690,-80.882,45.215
20:08:10:475,31.296,1.574,-0.779,1.885,30.737,-82.446,47.603
20:08:10:476,31.297,0.473,-1.633,1.242,34.317,-81.102,47.447
20:08:10:477,31.298,0.509,-1.142,0.530,31.647,-78.158,47.738
20:08:10:477,31.298,0.437,-1.436,0.288,27.490,-77.089,45.410
20:08:10:55,31.371,0.460,-0.941,0.215,19.589,-77.226,38.995
20:08:10:551,31.372,0.521,-0.650,0.353,14.140,-78.150,32.948
20:08:10:552,31.373,0.479,0.005,0.409,6.149,-80.064,22.223
20:08:10:571,31.392,-0.112,1.138,-0.193,-1.858,-81.907,11.406
20:08:10:656,31.477,-0.769,1.598,-0.774,-7.376,-82.082,5.276
20:08:10:676,31.497,-2.133,-1.146,-2.293,-17.408,-77.322,-6.004
20:08:10:702,31.523,2.296,0.261,0.234,-15.955,-78.099,-2.674
20:08:10:728,31.549,-1.329,2.553,1.004,-15.273,-75.957,2.889
20:08:10:754,31.575,0.166,-1.523,-0.713,-10.822,-74.754,7.551
20:08:10:782,31.603,-0.485,0.399,0.085,-9.128,-76.167,9.483
20:08:10:807,31.628,-0.176,0.278,-0.121,-5.961,-77.693,12.043
20:08:10:833,31.654,-0.011,0.201,-0.099,-4.399,-78.129,13.877
20:08:10:86,31.681,0.129,0.359,0.019,-2.388,-78.713,15.967
20:08:10:888,31.709,0.167,0.620,0.623,-0.435,-79.607,18.338
20:08:10:913,31.734,0.387,0.562,0.640,1.222,-79.715,20.190
20:08:10:938,31.759,0.853,0.318,0.664,4.053,-79.384,22.983
20:08:10:965,31.785,1.157,-0.046,1.180,6.574,-79.799,25.213
20:08:10:991,31.812,1.466,-0.279,1.342,11.466,-80.725,30.368
20:08:11:017,31.838,1.198,0.562,0.575,15.774,-80.701,36.329
20:08:11:043,31.864,1.244,-0.121,0.298,26.004,-80.948,45.379
20:08:11:071,31.892,1.099,-1.396,2.266,33.340,-82.358,47.042
20:08:11:096,31.917,0.570,-1.577,1.163,33.999,-80.217,46.410
20:08:11:152,31.972,0.445,-1.274,0.389,30.324,-76.366,45.717
20:08:11:152,31.973,0.472,-1.398,0.219,25.910,-74.706,42.770
20:08:11:177,31.998,0.501,-0.917,0.132,18.364,-74.043,35.394
20:08:11:231,32.051,0.573,-0.646,0.252,11.039,-75.012,25.227
20:08:11:231,32.052,0.347,0.107,0.249,6.204,-76.018,17.858
20:08:11:256,32.077,-0.518,1.411,-0.399,-1.563,-75.845,6.992
20:08:11:282,32.103,-1.658,0.834,-1.963,-6.634,-72.817,1.205
20:08:11:492,32.313,-2.605,1.290,-2.724,-11.795,-66.017,-6.633
20:08:11:526,32.346,-2.463,-1.090,-2.363,-11.533,-62.162,-7.965
20:08:11:526,32.347,-1.966,0.039,-3.543,-10.962,-62.350,-5.233
20:08:11:527,32.347,2.577,3.302,0.310,-10.840,-61.768,2.016
20:08:11:528,32.348,-0.554,-0.468,-0.022,-7.416,-60.825,2.935
20:08:11:544,32.364,0.009,-0.763,-0.250,-4.875,-62.141,7.413
20:08:11:578,32.398,-0.321,0.164,0.005,-3.495,-63.051,8.818
20:08:11:58,32.401,-0.030,0.177,0.008,-1.363,-63.794,10.633
20:08:11:58,32.401,0.060,0.435,0.311,0.474,-64.056,12.335
20:08:11:581,32.401,0.323,0.644,0.573,1.850,-64.052,13.578
20:08:11:597,32.418,0.614,0.291,0.549,4.151,-63.406,15.793
20:08:11:598,32.419,0.678,0.194,0.565,5.949,-62.791,17.501
20:08:11:621,32.442,1.081,0.004,0.753,9.562,-62.877,21.211
20:08:11:707,32.528,1.498,0.563,0.451,12.337,-62.456,25.330
20:08:11:707,32.528,1.399,0.071,-0.057,18.580,-58.068,34.392
20:08:11:707,32.528,1.428,-0.578,-0.035,25.719,-55.413,41.100
20:08:11:727,32.548,1.227,-1.521,0.762,29.482,-55.323,42.069
20:08:11:811,32.632,1.246,-1.534,0.074,30.934,-50.157,40.468
20:08:11:811,32.632,0.751,-1.232,-0.332,28.979,-46.220,39.363
20:08:11:812,32.633,0.841,-1.194,-0.419,24.510,-41.834,34.235
20:08:11:832,32.653,0.530,-0.824,-0.760,18.291,-38.948,26.296
20:08:11:917,32.738,0.359,-0.096,-0.991,13.883,-38.247,19.540
20:08:11:918,32.738,-0.135,0.230,-0.688,6.893,-37.561,8.938
20:08:11:918,32.738,-1.645,1.949,-0.738,1.741,-34.721,2.983
20:08:11:965,32.786,-3.046,0.913,-0.447,-3.667,-29.314,-3.581
20:08:11:966,32.786,-3.158,-0.706,-0.033,-5.185,-25.377,-5.568
20:08:11:989,32.810,-2.416,-0.866,0.564,-4.587,-23.845,-3.869
20:08:12:076,32.897,-0.293,0.237,1.117,-3.074,-21.557,-0.404
20:08:12:076,32.897,-0.700,2.491,-0.854,-3.649,-19.378,1.453
20:08:12:077,32.898,-0.586,-2.831,0.039,-0.048,-18.687,7.236
20:08:12:078,32.899,0.354,-0.015,-0.099,1.848,-20.227,10.089
20:08:12:094,32.914,0.173,0.517,0.184,3.572,-20.408,11.084
20:08:12:149,32.970,-0.099,0.253,0.051,6.452,-19.564,13.208
20:08:12:15,32.970,0.340,0.740,0.136,8.144,-18.622,14.496
20:08:12:175,32.996,0.856,0.998,-0.004,10.569,-17.259,16.624
20:08:12:199,33.020,1.069,-0.032,-0.386,12.308,-16.277,18.377
20:08:12:282,33.102,0.931,-0.072,-0.924,14.914,-14.169,21.336
20:08:12:283,33.103,1.041,-0.363,-0.728,18.680,-12.986,25.687
20:08:12:306,33.127,0.845,0.175,-0.697,22.262,-11.897,30.228
20:08:12:307,33.128,0.887,-0.097,-1.126,29.343,-9.162,37.830
20:08:12:332,33.152,2.027,-0.759,-1.040,33.603,-7.853,41.047
20:08:12:357,33.177,1.291,-1.354,-0.762,35.946,-3.231,43.692
20:08:12:414,33.235,0.902,-1.092,-0.795,34.189,2.006,45.735
20:08:12:414,33.235,0.581,-1.163,-0.690,30.705,4.581,44.992
20:08:12:493,33.314,0.062,-0.917,-0.576,23.996,6.538,40.780
20:08:12:494,33.314,0.278,-0.725,-0.644,18.949,6.365,35.608
20:08:12:495,33.315,0.344,-0.309,-0.661,11.348,4.621,25.310
20:08:12:514,33.334,-0.124,0.651,-0.306,6.090,3.262,18.111
20:08:12:54,33.360,-0.788,1.571,0.553,-2.485,2.121,8.089
20:08:12:595,33.416,-2.493,1.414,1.720,-9.485,4.418,0.404
20:08:12:596,33.417,-3.759,0.495,2.200,-12.741,6.833,-3.753
20:08:12:649,33.470,-2.395,-1.087,1.893,-14.482,8.491,-5.303
20:08:12:649,33.470,-1.400,-1.112,1.478,-14.514,8.680,-3.489
20:08:12:671,33.492,2.117,2.256,1.545,-13.407,10.695,0.617
20:08:12:697,33.518,-1.245,-2.438,0.018,-9.495,13.270,4.641
20:08:12:725,33.545,-0.828,0.084,0.433,-8.123,13.294,7.889
20:08:12:75,33.571,0.126,0.103,0.317,-5.419,11.185,10.597
20:08:12:776,33.597,-0.111,0.158,0.035,-3.887,10.783,12.594
20:08:12:802,33.623,-0.116,0.227,-0.075,-1.788,10.918,14.926
20:08:12:888,33.708,0.315,0.562,-0.066,-0.539,10.822,16.125
20:08:12:888,33.708,0.663,0.791,-0.245,0.946,10.683,18.404
20:08:12:889,33.709,0.742,0.681,-0.628,3.078,10.980,22.092
20:08:12:936,33.757,1.343,0.074,-0.828,5.303,11.098,24.628
20:08:12:937,33.758,1.637,-0.325,-1.278,9.807,10.888,29.502
20:08:12:96,33.781,0.797,0.815,-1.248,13.403,11.407,34.647
20:08:13:074,33.894,-0.203,-0.679,-1.156,22.665,12.932,43.987
20:08:13:074,33.895,1.988,-1.286,-1.266,29.802,11.625,46.750
20:08:13:075,33.895,1.068,-1.592,-0.527,31.619,13.501,46.459
20:08:13:076,33.896,0.534,-1.234,-0.536,28.492,18.075,46.018
20:08:13:091,33.912,0.006,-1.012,-0.526,24.462,20.991,43.751
20:08:13:204,34.025,-0.018,-0.828,-0.572,17.957,23.179,36.565
20:08:13:205,34.026,0.210,-0.377,-0.675,11.727,23.334,26.148
20:08:13:206,34.027,0.091,0.219,-0.529,7.571,22.855,18.383
20:08:13:223,34.044,-1.948,1.186,1.802,-3.442,26.302,0.699
20:08:13:249,34.069,-1.800,1.184,2.653,-8.413,31.638,-7.801
20:08:13:333,34.154,-2.707,-0.964,2.751,-9.464,35.567,-10.386
20:08:13:334,34.155,-1.348,-1.081,1.990,-8.752,36.578,-9.759
20:08:13:334,34.155,-1.221,-0.016,1.086,-7.040,35.133,-4.576
20:08:13:353,34.174,2.828,2.910,-1.149,-8.118,35.121,-1.142
20:08:13:467,34.288,-0.760,-2.147,0.089,-3.208,35.134,3.757
20:08:13:468,34.289,-0.377,0.175,0.582,-3.256,34.612,5.953
20:08:13:469,34.289,0.221,0.494,0.364,-1.621,33.574,7.940
20:08:13:47,34.290,-0.184,0.246,-0.024,-0.127,33.464,10.174
20:08:13:487,34.307,-0.054,0.363,0.036,0.902,33.361,11.278
20:08:13:512,34.333,-0.297,0.557,0.223,2.911,32.665,12.960
20:08:13:566,34.387,0.577,0.662,-0.354,4.316,32.105,14.395
20:08:13:567,34.388,0.767,0.536,-0.795,6.502,32.742,17.009
20:08:13:648,34.469,0.745,-0.002,-1.182,8.407,33.174,18.897
20:08:13:649,34.469,0.858,-0.058,-1.609,12.091,33.421,23.891
20:08:13:65,34.470,0.523,0.675,-1.482,17.357,35.897,33.272
20:08:13:669,34.489,-0.982,-0.318,-1.253,23.549,37.555,39.956
20:08:13:695,34.516,1.044,-0.848,-2.541,31.873,36.311,43.180
20:08:13:78,34.600,0.399,-1.552,-1.526,34.511,40.710,42.437
20:08:13:78,34.601,-0.158,-1.147,-0.895,33.274,45.234,42.397
20:08:13:781,34.601,-0.889,-1.277,-0.870,28.865,51.947,39.594
20:08:13:829,34.649,-1.070,-0.977,-0.528,24.534,55.471,35.773
20:08:13:83,34.650,-1.336,-0.572,-0.495,17.072,59.324,27.107
20:08:13:94,34.761,-1.173,0.378,0.027,9.863,60.168,15.719
20:08:13:94,34.761,-0.830,0.930,0.780,4.724,60.097,8.009
20:08:13:941,34.762,-0.456,1.229,2.831,-2.882,60.949,-1.392
20:08:13:942,34.763,-0.023,0.492,3.723,-7.424,61.932,-6.297
20:08:13:96,34.781,0.463,-0.636,3.193,-10.629,65.070,-9.097
20:08:13:985,34.806,1.057,-1.109,1.815,-10.353,66.652,-8.233
20:08:14:012,34.832,-0.450,-0.451,2.059,-7.972,69.696,-4.504
20:08:14:037,34.857,0.118,2.078,1.483,-8.563,72.296,0.636
20:08:14:12,34.941,-0.545,0.033,1.027,-4.294,71.623,4.653
20:08:14:121,34.942,0.242,0.387,-0.045,-3.087,70.055,7.433
20:08:14:122,34.943,0.223,0.610,-0.067,-1.734,69.650,8.422
20:08:14:172,34.992,0.178,0.512,-0.135,0.322,69.736,10.474
20:08:14:172,34.993,0.338,0.810,-0.353,2.821,70.194,12.271
20:08:14:194,35.014,0.100,0.929,-0.917,4.381,70.633,13.534
20:08:14:22,35.040,-0.554,0.046,-1.048,6.594,71.826,15.361
20:08:14:275,35.096,-0.900,-0.099,-0.859,8.335,72.538,16.989
20:08:14:276,35.097,-0.545,-0.256,-0.943,11.911,73.126,21.565
20:08:14:301,35.122,-1.015,0.174,-0.720,17.332,75.536,29.490
20:08:14:357,35.177,-0.989,0.097,-0.824,21.955,77.639,35.355
20:08:14:358,35.178,-0.792,-0.427,-1.977,29.750,78.155,40.999
20:08:14:358,35.179,-0.768,-1.252,-1.913,33.515,78.695,43.019
20:08:14:404,35.224,-0.396,-1.289,-1.013,35.190,83.701,44.348
20:08:14:43,35.251,-0.708,-1.228,-0.465,32.946,87.732,44.868
20:08:14:485,35.306,-0.859,-1.230,-0.004,26.615,92.805,42.128
20:08:14:486,35.307,-0.997,-0.608,-0.023,18.300,95.921,34.785
20:08:14:511,35.332,-1.001,-0.390,0.106,13.216,96.607,28.130
20:08:14:512,35.333,-0.545,0.505,0.459,5.754,95.819,16.752
20:08:14:592,35.412,0.099,1.291,1.233,0.343,94.916,9.542
20:08:14:592,35.413,1.661,1.316,2.505,-7.822,94.630,0.930
20:08:14:614,35.434,2.658,0.262,3.260,-14.493,95.637,-5.304
20:08:14:643,35.464,2.329,-0.746,2.486,-16.049,96.080,-6.264
20:08:14:643,35.464,1.227,-0.703,0.865,-15.579,95.564,-3.777
20:08:14:666,35.487,1.690,2.597,-4.053,-13.949,97.117,-1.559
20:08:14:692,35.513,1.151,-3.974,2.272,-11.828,100.209,3.407
20:08:14:719,35.539,0.544,0.229,0.257,-9.636,99.647,7.708
20:08:14:774,35.594,0.218,0.192,-0.208,-7.596,97.582,10.367
20:08:14:775,35.595,0.003,0.194,0.224,-5.362,96.764,13.190
20:08:14:799,35.619,-0.035,0.489,-0.071,-4.012,96.383,14.816
20:08:14:993,35.813,0.084,0.821,-0.573,-1.796,96.068,17.138
20:08:14:993,35.813,-0.129,0.716,-0.780,0.011,96.159,18.937
20:08:14:993,35.814,-1.050,0.314,-0.935,2.574,96.965,21.584
20:08:14:994,35.814,-1.292,-0.068,-0.814,5.091,97.646,24.580
20:08:15:015,35.836,-0.789,-0.057,-0.888,7.639,97.218,27.728
20:08:15:016,35.837,-1.219,0.363,-0.669,13.886,97.504,35.988
20:08:15:016,35.837,-1.346,-0.481,-0.881,20.081,97.732,42.051
20:08:15:065,35.886,-1.017,-0.703,-1.333,30.566,95.939,46.787
20:08:15:066,35.887,-0.855,-1.531,-1.951,35.426,95.263,48.297
20:08:15:067,35.888,-0.240,-1.609,-0.924,36.909,99.624,48.648
20:08:15:144,35.965,-0.440,-1.244,-0.194,31.958,103.839,48.532
20:08:15:145,35.966,-0.394,-1.550,0.303,26.925,105.770,45.559
20:08:15:146,35.966,-0.823,-0.584,-0.115,16.843,106.392,36.381
20:08:15:194,36.015,-0.661,-0.265,-0.007,10.779,105.762,28.824
20:08:15:195,36.016,-0.181,0.717,0.233,2.070,103.615,16.548
20:08:15:217,36.038,0.747,1.943,1.036,-7.191,103.108,4.618
20:08:15:245,36.066,2.208,1.012,2.838,-12.554,104.079,-1.103
20:08:15:271,36.092,3.240,-0.105,3.142,-19.764,104.162,-8.218
20:08:15:297,36.117,2.319,-1.402,2.040,-21.358,104.065,-8.934
20:08:15:322,36.143,0.605,-0.174,1.414,-20.403,101.497,-5.038
20:08:15:348,36.169,2.471,2.144,-2.426,-19.004,101.979,-0.492
20:08:15:405,36.226,0.935,-3.006,0.838,-15.844,103.634,2.399
20:08:15:406,36.227,0.677,-0.383,0.437,-12.437,102.593,8.119
20:08:15:515,36.335,0.266,0.293,0.070,-10.931,101.183,10.077
20:08:15:516,36.336,0.170,0.152,0.023,-8.208,100.032,12.985
20:08:15:516,36.337,-0.099,0.547,-0.111,-6.872,99.591,14.924
20:08:15:517,36.338,0.035,0.759,-0.559,-5.028,99.073,17.633
20:08:15:532,36.353,-0.218,0.639,-0.751,-2.732,99.199,21.139
20:08:15:588,36.409,-0.777,0.235,-0.821,-0.909,99.694,23.369
20:08:15:588,36.409,-1.052,0.006,-0.908,2.030,99.931,26.598
20:08:15:611,36.432,-0.888,0.099,-0.784,4.565,99.284,29.436
20:08:15:638,36.458,-1.082,0.459,-0.572,9.927,99.361,37.351
20:08:15:664,36.484,-1.524,-0.426,-1.285,15.721,99.396,43.005
20:08:15:719,36.539,-1.014,-0.637,-1.659,25.718,95.840,46.104
20:08:15:72,36.540,-0.506,-1.445,-1.620,32.092,94.895,46.038
20:08:15:745,36.566,-0.253,-1.283,-0.785,32.116,96.826,46.116
20:08:15:769,36.590,-0.367,-1.630,-0.063,27.563,99.637,44.612
20:08:15:855,36.676,-0.463,-0.932,-0.176,22.758,100.677,40.961
20:08:15:855,36.676,-0.572,-0.873,-0.248,13.939,100.653,32.594
20:08:15:856,36.676,-0.505,-0.185,-0.214,5.755,99.682,21.931
20:08:15:876,36.696,-0.191,0.711,-0.094,0.405,98.637,14.166
20:08:15:901,36.721,0.979,2.045,0.687,-8.065,97.649,3.104
20:08:15:955,36.776,1.979,1.026,2.463,-13.013,98.842,-2.834
20:08:15:956,36.777,2.863,-0.412,3.394,-18.774,102.661,-10.605
20:08:15:978,36.799,2.183,-1.138,2.151,-18.737,104.954,-12.351
20:08:16:034,36.855,-1.248,1.108,1.284,-16.550,105.363,-9.055
20:08:16:035,36.855,0.315,1.964,0.057,-15.259,106.542,-1.342
20:08:16:057,36.878,-0.259,-1.018,0.464,-12.035,106.939,-0.167
20:08:16:142,36.963,0.422,0.259,-0.076,-10.002,105.425,4.176
20:08:16:143,36.964,0.112,0.017,0.351,-7.190,104.125,6.401
20:08:16:145,36.966,0.229,0.041,-0.018,-5.494,103.410,8.335
20:08:16:163,36.984,-0.018,0.318,0.120,-2.994,102.403,10.254
20:08:16:271,37.092,-0.157,0.852,-0.789,0.975,100.954,13.308
20:08:16:299,37.120,-0.756,0.447,-0.700,2.704,101.566,14.869
20:08:16:3,37.121,-0.954,-0.022,-0.914,5.868,102.011,17.486
20:08:16:301,37.122,-1.324,0.165,-1.302,9.963,101.697,22.007
20:08:16:378,37.199,-1.099,0.516,-0.463,13.183,102.733,27.401
20:08:16:379,37.200,-1.323,-0.691,-0.122,20.394,104.560,35.840
20:08:16:379,37.200,-1.741,-0.685,-1.613,25.395,103.537,38.276
20:08:16:399,37.219,-1.167,-1.646,-1.258,30.088,104.528,38.407
20:08:16:425,37.245,-0.880,-1.240,-0.032,28.710,111.101,38.216
20:08:16:481,37.301,-0.941,-1.297,0.127,25.935,115.415,36.797
20:08:16:556,37.377,-0.717,-0.819,0.343,20.014,120.255,31.249
20:08:16:618,37.439,-0.981,0.024,0.452,15.602,122.747,25.552
20:08:16:619,37.439,-0.568,0.253,0.640,8.936,123.957,14.630
20:08:16:62,37.441,0.426,1.813,1.337,4.882,124.705,6.584
20:08:16:621,37.441,1.853,2.210,1.827,-2.562,128.007,-3.414
20:08:16:692,37.513,3.383,0.533,1.606,-8.226,133.789,-11.076
20:08:16:693,37.514,3.245,-1.115,1.230,-9.575,136.539,-12.923
20:08:16:722,37.543,2.423,-1.084,0.307,-8.658,139.338,-10.992
20:08:16:723,37.544,-0.275,-0.642,1.025,-7.192,140.326,-7.554
20:08:16:724,37.545,0.620,2.754,0.077,-7.726,142.841,-2.438
20:08:16:724,37.545,0.314,-0.944,0.629,-2.949,143.130,2.000
20:08:16:794,37.614,0.361,0.362,0.200,-2.022,142.619,4.226
20:08:16:88,37.701,0.037,0.479,-0.131,0.265,141.275,5.995
20:08:16:881,37.702,-0.074,0.552,-0.121,1.961,141.167,7.325
20:08:16:882,37.703,-0.240,0.790,-0.273,4.634,141.479,9.051
20:08:16:904,37.725,-1.150,0.205,-0.065,8.956,143.062,12.358
20:08:16:904,37.725,-1.147,-0.068,0.534,11.785,144.601,15.075
20:08:16:925,37.746,-0.958,-0.101,0.309,14.038,145.209,17.979
20:08:17:091,37.912,-0.892,0.330,0.344,18.725,147.023,24.733
20:08:17:091,37.912,-1.201,-0.238,0.649,23.034,149.291,30.381
20:08:17:091,37.912,-2.065,-0.437,0.329,29.840,150.754,36.053
20:08:17:092,37.913,-1.855,-1.508,0.208,33.716,153.694,38.522
20:08:17:197,38.018,-1.002,-1.160,0.466,33.875,157.676,39.571
20:08:17:197,38.018,-0.698,-1.331,0.694,30.780,162.911,39.515
20:08:17:198,38.018,-0.377,-1.188,0.810,27.053,165.750,36.953
20:08:17:199,38.019,-0.292,-0.625,1.126,20.026,168.789,29.880
20:08:17:218,38.038,-0.213,-0.275,1.129,15.184,169.774,23.091
20:08:17:218,38.038,0.499,0.663,0.964,7.789,169.959,11.689
20:08:17:3,38.121,2.268,1.617,-0.177,-0.547,170.657,1.465
20:08:17:301,38.122,3.729,0.877,-1.151,-5.489,172.457,-3.816
20:08:17:302,38.123,3.447,-0.560,-1.537,-10.981,176.435,-8.936
20:08:17:303,38.124,1.719,-1.144,-1.599,-12.034,177.076,-9.241
20:08:17:319,38.140,0.919,-0.457,-0.096,-11.149,179.740,-5.972
20:08:17:344,38.164,-1.730,3.145,0.751,-10.958,-175.733,-1.376
20:08:17:399,38.220,0.991,-1.758,0.315,-6.979,-173.795,1.756
20:08:17:4,38.220,0.353,0.599,-0.200,-5.581,-175.356,6.080
20:08:17:422,38.243,0.053,0.328,-0.147,-4.230,-176.745,7.408
20:08:17:448,38.269,0.005,0.432,0.249,-2.075,-177.463,9.574
20:08:17:475,38.296,-0.394,0.951,-0.132,0.249,-177.878,11.845
20:08:17:53,38.351,-0.778,0.874,-0.009,2.058,-178.120,13.388
20:08:17:531,38.352,-1.060,0.220,0.743,4.648,-178.044,15.681
20:08:17:583,38.404,-0.606,-0.082,1.197,6.385,-177.380,17.289
20:08:17:584,38.405,-0.867,-0.070,0.824,9.826,-176.828,21.960
20:08:17:606,38.427,-0.529,0.324,1.054,12.760,-176.085,26.718
20:08:17:66,38.481,-0.015,-0.094,1.171,19.917,-174.692,35.331
20:08:17:688,38.509,-1.729,-0.773,0.943,28.203,-176.549,39.133
20:08:17:688,38.509,-1.952,-1.190,1.158,32.135,-177.048,39.803
20:08:17:74,38.561,-0.822,-1.292,0.504,31.685,-172.896,40.175
20:08:17:741,38.561,-0.319,-1.371,0.545,29.239,-169.757,40.139
20:08:17:823,38.644,-0.004,-1.136,0.708,22.480,-166.366,35.089
20:08:17:824,38.645,-0.003,-0.459,0.805,14.475,-164.652,26.390
20:08:17:825,38.646,0.031,-0.132,0.704,9.734,-164.587,19.109
20:08:17:873,38.694,0.464,0.874,0.145,2.440,-164.716,7.686
20:08:17:873,38.694,1.207,1.826,-0.636,-2.694,-163.225,0.694
20:08:18:027,38.848,2.055,0.519,-2.326,-8.818,-159.467,-7.535
20:08:18:062,38.882,2.134,-0.809,-2.608,-11.339,-156.096,-10.810
20:08:18:063,38.883,1.524,-1.200,-2.179,-10.786,-153.390,-10.876
20:08:18:063,38.884,2.661,-0.975,-0.905,-8.252,-152.283,-6.464
20:08:18:064,38.885,-2.512,2.108,-1.347,-10.134,-150.827,-0.545
20:08:18:087,38.907,0.325,-3.546,0.000,-5.209,-151.929,3.832
20:08:18:087,38.907,-0.204,0.418,-0.224,-3.876,-152.708,5.941
20:08:18:087,38.907,0.008,0.588,-0.062,-1.379,-153.400,7.894
20:08:18:164,38.985,0.099,0.220,0.078,0.944,-153.669,10.334
20:08:18:164,38.985,-0.302,0.649,0.074,2.518,-153.900,11.673
20:08:18:165,38.986,-0.738,0.759,0.340,5.078,-153.852,14.166
20:08:18:241,39.062,-0.699,0.278,0.962,6.845,-153.291,15.781
20:08:18:242,39.063,-0.312,-0.031,1.297,9.539,-152.169,18.353
20:08:18:243,39.064,-0.490,-0.038,1.102,12.982,-151.964,23.080
20:08:18:263,39.083,-0.489,0.221,0.922,16.184,-150.450,28.356
20:08:18:291,39.111,0.581,-0.138,1.042,23.227,-148.018,36.450
20:08:18:316,39.137,-1.182,-0.635,1.812,28.690,-149.450,38.461
20:08:18:341,39.162,-1.299,-1.034,1.957,35.394,-150.390,40.098
20:08:18:397,39.218,-0.171,-1.495,1.181,35.694,-143.431,41.107
20:08:18:398,39.219,0.314,-1.150,1.051,32.959,-138.658,41.654
20:08:18:42,39.241,0.836,-1.260,0.713,27.173,-133.332,37.992
20:08:18:505,39.326,0.714,-0.579,0.750,22.042,-131.388,32.788
20:08:18:506,39.327,0.787,-0.524,0.600,15.301,-130.306,22.353
20:08:18:507,39.327,1.007,0.611,0.442,8.316,-130.944,10.469
20:08:18:525,39.346,1.266,1.454,-0.783,2.903,-130.433,3.020
20:08:18:551,39.372,0.594,1.225,-2.933,-5.022,-128.476,-5.425
20:08:18:577,39.398,0.289,0.727,-3.509,-9.386,-126.383,-9.768
20:08:18:633,39.453,0.027,-1.105,-3.029,-10.469,-123.247,-11.474
20:08:18:634,39.454,-0.828,-0.814,-1.831,-9.756,-122.154,-9.676
20:08:18:657,39.478,3.201,-0.860,-2.477,-6.587,-121.104,-4.388
20:08:18:683,39.504,-0.917,-3.156,-2.037,-4.803,-119.248,1.046
20:08:18:709,39.529,0.117,0.168,-0.490,-2.801,-120.057,4.862
20:08:18:765,39.586,-0.451,0.138,0.111,0.101,-121.387,6.793
20:08:18:765,39.586,0.076,0.339,-0.154,1.994,-121.203,8.264
20:08:18:787,39.608,-0.126,0.447,0.118,4.859,-120.719,10.596
20:08:18:842,39.663,-0.136,1.082,0.760,7.660,-119.588,12.711
20:08:18:869,39.689,-0.080,0.446,0.976,9.592,-118.525,14.425
20:08:18:87,39.690,0.461,-0.194,1.134,12.464,-116.561,17.136
20:08:18:894,39.714,0.594,-0.129,1.134,14.579,-115.216,19.650
20:08:18:949,39.770,0.254,0.079,0.990,18.811,-112.766,25.946
20:08:18:949,39.770,1.193,0.070,0.572,25.217,-108.808,34.400
20:08:18:998,39.819,0.918,-0.716,1.688,30.104,-107.801,38.123
20:08:19:026,39.847,0.707,-0.871,2.198,36.223,-107.838,41.627
20:08:19:085,39.905,0.243,-1.520,1.554,37.856,-105.755,42.536
20:08:19:085,39.905,0.540,-1.101,0.749,36.353,-100.639,43.564
20:08:19:085,39.906,0.590,-1.367,0.396,33.001,-98.050,42.251
20:08:19:136,39.957,0.781,-0.971,0.172,25.544,-95.186,36.425
20:08:19:136,39.957,1.044,-0.480,0.245,16.908,-94.090,26.708
20:08:19:136,39.957,0.986,-0.077,0.102,11.419,-94.354,18.846
20:08:19:261,40.082,0.416,0.944,-0.662,2.696,-94.980,7.252
20:08:19:348,40.169,-1.181,1.784,-2.744,-3.083,-94.647,1.201
20:08:19:349,40.170,-1.800,0.379,-3.367,-10.580,-92.950,-6.048
20:08:19:349,40.170,-1.731,-0.781,-2.861,-13.278,-90.791,-8.519
20:08:19:35,40.171,-1.813,-0.955,-1.990,-12.786,-89.334,-7.175
20:08:19:471,40.292,-0.533,1.284,-1.026,-10.627,-86.023,-2.076
20:08:19:602,40.423,0.277,2.747,-0.049,-10.514,-84.341,1.626
20:08:19:768,40.589,0.296,-0.455,-0.926,-6.437,-84.930,6.911
20:08:19:768,40.589,0.033,0.129,-0.222,-4.956,-86.345,8.750
20:08:19:769,40.590,-0.095,0.498,0.119,-2.421,-87.049,11.011
20:08:19:77,40.591,0.066,0.473,0.212,-0.152,-87.498,13.799
20:08:19:822,40.643,0.024,0.784,0.697,1.551,-87.521,15.335
20:08:19:823,40.643,0.290,0.480,0.761,4.225,-87.082,17.945
20:08:19:823,40.643,1.103,0.075,0.705,5.775,-86.419,19.468
20:08:19:823,40.643,1.269,-0.110,0.548,8.278,-85.647,22.397
20:08:19:847,40.668,0.795,-0.012,0.768,12.061,-85.808,27.428
20:08:19:848,40.668,1.080,0.349,0.542,16.302,-85.396,32.779
20:08:19:848,40.669,1.279,-0.267,0.567,24.967,-85.692,40.091
20:08:19:849,40.669,1.190,-0.277,1.833,30.504,-87.221,42.500
20:08:19:873,40.693,0.859,-1.503,1.738,35.191,-86.656,44.112
20:08:19:874,40.694,0.326,-1.275,0.536,35.047,-83.549,45.947
20:08:19:875,40.695,0.434,-1.578,0.317,31.843,-82.062,45.122
20:08:19:875,40.696,0.485,-1.096,-0.030,23.772,-81.031,40.594
20:08:19:899,40.720,0.663,-0.867,0.171,17.364,-81.391,35.248
20:08:19:9,40.721,0.622,-0.303,0.216,8.366,-83.165,25.037
20:08:19:901,40.722,-0.169,0.834,-0.120,2.578,-84.940,17.795
20:08:19:901,40.722,-0.899,1.623,-0.920,-6.298,-86.573,7.752
20:08:19:92,40.741,-2.142,0.517,-2.496,-13.592,-85.713,0.058
20:08:19:921,40.742,-2.858,-0.163,-2.671,-16.949,-83.986,-3.115
20:08:19:945,40.766,-2.182,-0.925,-1.858,-17.166,-82.428,-3.287
20:08:19:946,40.767,1.440,0.097,-3.261,-15.684,-81.420,-0.965
20:08:19:999,40.820,-0.695,1.745,0.110,-15.320,-79.699,2.983
20:08:19:999,40.820,0.031,-0.089,-0.757,-10.487,-80.539,9.090
20:08:20:021,40.842,-0.676,0.593,0.237,-8.710,-81.672,10.987
20:08:20:05,40.870,0.070,0.250,0.003,-5.801,-82.456,13.723
20:08:20:074,40.895,-0.024,0.334,0.007,-4.271,-83.039,15.780
20:08:20:101,40.922,-0.085,0.797,0.561,-2.146,-83.850,18.470
20:08:20:184,41.005,0.255,0.550,0.730,0.611,-83.839,21.668
20:08:20:185,41.006,0.694,0.259,0.807,2.608,-83.373,23.624
20:08:20:186,41.007,1.146,-0.088,0.812,5.543,-82.850,26.524
20:08:20:263,41.084,1.002,-0.218,0.959,7.839,-83.075,29.041
20:08:20:264,41.085,0.791,0.541,0.743,12.818,-82.883,35.975
20:08:20:265,41.085,1.209,-0.384,0.420,18.246,-82.263,41.859
20:08:20:343,41.163,1.272,-0.761,1.637,27.993,-84.475,46.172
20:08:20:343,41.163,1.159,-1.356,1.998,35.162,-85.809,47.037
20:08:20:343,41.164,0.357,-1.382,0.877,35.738,-83.958,46.806
20:08:20:452,41.272,0.411,-1.290,0.486,32.230,-81.167,46.201
20:08:20:452,41.272,0.425,-1.364,0.104,27.931,-80.102,43.275
20:08:20:452,41.272,0.665,-0.734,0.304,19.221,-79.918,35.575
20:08:20:452,41.273,0.698,-0.501,0.389,10.677,-80.778,25.129
20:08:20:556,41.377,0.660,0.367,0.319,5.070,-81.421,17.633
20:08:20:556,41.377,-0.387,1.894,-0.627,-3.555,-81.674,6.585
20:08:20:557,41.378,-2.174,1.264,-2.312,-8.892,-80.647,0.487
20:08:20:558,41.379,-2.617,1.170,-2.768,-15.204,-78.076,-7.751
20:08:20:572,41.393,-2.423,-1.262,-2.121,-16.240,-75.502,-10.099
20:08:20:6,41.421,-1.947,-0.344,-1.333,-14.733,-73.474,-8.249
20:08:20:626,41.447,0.390,0.738,-1.188,-11.877,-73.090,-0.571
20:08:20:712,41.532,-1.425,-2.341,-0.717,-11.217,-72.828,2.011
20:08:20:712,41.532,-0.249,0.290,-0.385,-7.603,-74.271,6.833
20:08:20:712,41.533,-0.072,0.194,-0.013,-5.457,-75.263,8.469
20:08:20:759,41.580,-0.126,0.096,-0.191,-2.618,-75.839,11.356
20:08:20:76,41.581,0.088,0.270,0.004,-0.267,-76.758,13.895
20:08:20:783,41.604,0.048,0.755,0.576,1.163,-77.324,15.194
20:08:20:839,41.660,0.351,0.861,0.752,3.714,-77.044,18.159
20:08:20:839,41.660,0.824,0.109,0.757,5.881,-76.386,20.123
20:08:20:861,41.682,1.127,-0.002,0.752,9.263,-76.173,22.773
20:08:20:887,41.708,1.176,-0.326,1.031,11.890,-76.848,25.423
20:08:20:914,41.735,0.949,0.529,0.618,16.744,-75.470,32.927
20:08:20:969,41.790,1.415,-0.618,0.348,24.462,-74.054,39.943
20:08:20:97,41.791,1.464,-0.892,1.412,29.923,-75.899,41.449
20:08:20:994,41.815,1.731,-1.054,1.866,35.953,-76.335,42.302
20:08:21:02,41.840,0.576,-1.307,0.205,36.378,-71.724,42.659
20:08:21:045,41.866,0.923,-1.297,-0.025,32.679,-64.231,42.856
20:08:21:072,41.893,0.922,-1.052,-0.602,26.365,-58.898,38.234
20:08:21:098,41.919,0.807,-0.749,-0.565,21.531,-56.848,33.174
20:08:21:181,42.002,0.817,-0.140,-0.637,14.446,-55.422,22.596
20:08:21:181,42.002,0.588,0.431,-0.711,9.738,-55.638,14.691
20:08:21:207,42.028,-0.786,2.017,-1.194,1.853,-54.855,3.318
20:08:21:263,42.083,-2.455,1.183,-1.230,-3.177,-52.647,-2.168
20:08:21:263,42.083,-3.161,0.762,-1.393,-9.246,-48.540,-8.757
20:08:21:263,42.084,-2.952,-1.087,-0.813,-9.760,-44.824,-9.418
20:08:21:284,42.105,-2.105,-0.981,-0.137,-8.766,-43.814,-7.213
20:08:21:285,42.106,-0.917,1.472,-1.244,-7.283,-41.966,-2.091
20:08:21:31,42.131,0.137,-4.146,0.640,-7.411,-41.897,1.253
20:08:21:363,42.184,-0.588,0.110,-0.535,-3.230,-42.757,5.683
20:08:21:363,42.184,-0.032,0.237,-0.209,-1.035,-43.719,7.526
20:08:21:416,42.237,-0.037,0.313,-0.082,0.403,-44.077,8.765
20:08:21:416,42.237,0.061,0.413,0.104,2.722,-44.407,10.902
20:08:21:439,42.259,0.586,0.957,0.414,4.280,-44.298,12.100
20:08:21:465,42.286,0.777,0.450,0.486,6.682,-43.759,14.370
20:08:21:491,42.312,1.046,0.000,0.085,9.368,-42.643,16.840
20:08:21:546,42.367,1.226,-0.141,-0.106,11.475,-42.010,19.106
20:08:21:547,42.368,1.167,-0.083,-0.041,15.502,-40.802,24.617
20:08:21:599,42.420,0.992,0.465,-0.211,19.078,-38.502,30.179
20:08:21:6,42.420,1.143,-0.398,-0.673,26.435,-35.598,37.897
20:08:21:623,42.443,2.075,-0.478,0.183,31.642,-36.166,40.083
20:08:21:678,42.498,2.048,-1.369,0.054,36.588,-34.171,41.579
20:08:21:679,42.499,0.841,-1.160,-0.327,36.672,-27.531,43.265
20:08:21:816,42.636,0.621,-1.375,-0.579,34.086,-23.320,43.146
20:08:21:816,42.637,0.229,-1.136,-0.791,27.176,-18.100,39.636
20:08:21:837,42.658,-0.335,0.705,-0.531,5.056,-14.005,14.180
20:08:21:837,42.658,-1.374,1.801,-0.163,-0.066,-14.188,6.851
20:08:21:859,42.679,-2.768,0.918,0.795,-6.908,-13.470,-1.643
20:08:21:943,42.764,-3.203,0.634,1.181,-10.821,-11.845,-5.685
20:08:21:944,42.765,-2.252,-0.884,1.226,-12.233,-8.840,-7.125
20:08:21:945,42.766,-1.221,0.241,-0.474,-11.273,-6.910,-5.443
20:08:21:993,42.814,-2.460,-0.392,-3.828,-8.899,-4.141,-1.486
20:08:21:994,42.815,-0.356,-4.634,1.116,-8.772,-2.292,3.764
20:08:22:044,42.864,-0.908,0.500,-0.417,-6.864,-3.519,7.258
20:08:22:072,42.893,0.092,-0.126,0.000,-4.500,-5.154,9.804
20:08:22:072,42.893,-0.147,0.248,0.045,-3.165,-5.429,11.179
20:08:22:153,42.974,0.035,0.299,-0.143,-1.030,-6.080,13.584
20:08:22:154,42.975,0.483,0.751,0.162,1.299,-6.658,15.467
20:08:22:154,42.975,0.708,0.450,0.069,2.957,-6.818,16.967
20:08:22:173,42.994,0.841,0.124,-0.585,5.230,-6.115,19.031
20:08:22:26,43.080,0.766,-0.006,-0.879,6.839,-5.353,20.561
20:08:22:26,43.081,0.966,-0.189,-0.704,10.045,-4.846,24.348
20:08:22:26,43.081,0.883,0.502,-0.827,12.979,-4.217,28.636
20:08:22:28,43.101,0.358,0.138,-1.208,19.648,-2.328,37.246
20:08:22:419,43.240,1.977,-0.554,-1.260,28.734,-3.474,42.553
20:08:22:42,43.241,1.759,-1.122,-0.869,33.164,-3.612,43.235
20:08:22:421,43.242,0.810,-1.073,-0.482,34.431,0.863,44.244
20:08:22:422,43.242,0.445,-1.308,-0.590,32.584,4.342,44.917
20:08:22:469,43.290,0.045,-1.166,-0.657,26.394,8.404,42.475
20:08:22:469,43.290,0.008,-0.778,-0.703,18.443,10.509,36.077
20:08:22:47,43.291,0.084,-0.447,-0.777,13.258,10.715,29.794
20:08:22:491,43.312,0.012,0.089,-0.553,6.361,9.441,18.943
20:08:22:516,43.337,-0.512,1.115,0.073,1.548,8.016,11.737
20:08:22:57,43.391,-1.544,1.818,1.343,-6.484,7.647,2.882
20:08:22:571,43.392,-2.206,0.772,2.428,-13.397,10.520,-4.178
20:08:22:654,43.475,-2.254,-0.240,2.299,-15.703,13.105,-6.647
20:08:22:654,43.475,-1.498,-0.199,1.414,-15.118,15.733,-6.552
20:08:22:654,43.475,-1.262,-0.229,0.266,-13.572,17.594,-3.752
20:08:22:674,43.495,0.783,2.762,-0.411,-13.654,20.483,1.917
20:08:22:699,43.520,-0.549,0.078,-0.022,-9.609,21.216,4.605
20:08:22:725,43.546,0.133,0.297,0.272,-7.647,19.363,8.580
20:08:22:783,43.604,-0.223,0.161,0.201,-4.882,18.258,11.219
20:08:22:804,43.625,-0.019,0.282,-0.018,-1.827,17.690,15.063
20:08:22:83,43.651,0.502,0.638,-0.048,-0.642,17.404,16.174
20:08:22:856,43.677,0.661,0.666,-0.188,1.252,17.370,18.321
20:08:22:912,43.732,0.527,0.339,-0.561,3.543,18.132,20.812
20:08:22:913,43.733,0.556,0.099,-0.790,5.219,18.511,22.371
20:08:23:021,43.842,0.898,-0.198,-1.017,8.344,17.993,25.304
20:08:23:022,43.843,0.869,0.185,-1.040,10.905,17.513,28.566
20:08:23:022,43.843,0.256,0.051,-1.072,16.339,19.103,36.781
20:08:23:043,43.864,0.656,-0.026,-1.273,21.642,19.991,42.473
20:08:23:043,43.864,1.725,-0.856,-1.474,30.505,19.861,47.194
20:08:23:125,43.945,0.684,-1.477,-0.835,33.534,23.719,47.925
20:08:23:126,43.946,0.195,-1.205,-0.999,31.433,27.832,48.235
20:08:23:126,43.947,-0.378,-1.208,-0.671,25.305,33.067,46.512
20:08:23:145,43.966,-0.337,-0.898,-0.615,20.742,35.430,43.023
20:08:23:174,43.994,-0.231,-0.718,-0.626,14.402,36.717,34.983
20:08:23:199,44.020,-0.055,-0.109,-0.635,9.244,36.241,24.141
20:08:23:224,44.045,-0.140,0.414,-0.408,5.544,35.364,16.497
20:08:23:25,44.071,-0.818,1.346,0.559,-1.215,35.633,5.926
20:08:23:276,44.097,-1.177,1.268,2.621,-5.766,37.809,0.339
20:08:23:303,44.123,-1.693,0.236,3.881,-10.577,43.187,-6.614
20:08:23:329,44.150,-1.069,-1.026,2.707,-10.765,45.843,-8.154
20:08:23:357,44.178,-1.029,-0.863,1.891,-9.174,47.760,-5.916
20:08:23:382,44.203,-0.611,3.306,-2.684,-9.459,50.141,0.451
20:08:23:41,44.231,-0.672,-4.927,1.074,-6.116,49.722,2.462
20:08:23:411,44.232,0.321,0.037,0.348,-4.318,48.558,6.365
20:08:23:493,44.314,-0.089,0.384,0.178,-3.032,48.184,7.546
20:08:23:494,44.314,0.020,0.142,0.119,-1.206,48.396,9.642
20:08:23:494,44.314,0.187,0.380,0.009,0.673,48.203,11.186
20:08:23:566,44.387,0.363,0.789,-0.389,1.920,48.032,12.095
20:08:23:626,44.447,0.414,0.538,-0.586,3.648,48.072,13.821
20:08:23:627,44.448,0.023,0.090,-0.919,4.972,48.440,15.030
20:08:23:627,44.448,-0.026,-0.134,-1.026,7.490,48.945,17.437
20:08:23:629,44.450,0.111,0.021,-1.374,11.072,49.233,22.104
20:08:23:733,44.554,-0.060,0.264,-1.096,14.229,50.795,27.244
20:08:23:733,44.554,-0.709,0.158,-0.796,20.774,53.679,35.915
20:08:23:734,44.554,-0.214,-0.512,-1.968,26.294,54.349,40.221
20:08:23:734,44.555,0.047,-1.374,-1.394,31.668,56.307,41.654
20:08:23:748,44.569,-0.314,-1.023,-0.735,31.771,60.528,41.619
20:08:23:775,44.596,-0.447,-1.242,-0.507,29.353,66.568,41.497
20:08:23:801,44.622,-0.797,-1.050,-0.261,23.970,71.361,37.751
20:08:23:827,44.648,-0.781,-0.930,-0.187,19.587,73.616,33.767
20:08:23:853,44.674,-0.941,-0.310,-0.079,12.512,75.747,25.492
20:08:23:881,44.702,-0.706,0.282,0.104,7.807,76.153,19.010
20:08:23:906,44.727,-0.105,0.895,0.933,0.407,76.492,9.078
20:08:23:933,44.753,0.545,1.005,2.581,-4.233,77.455,3.876
20:08:23:959,44.780,1.123,0.615,3.089,-9.390,79.258,-2.123
20:08:23:985,44.806,1.283,-0.610,1.817,-11.544,80.370,-4.029
20:08:24:013,44.834,0.300,-0.276,0.749,-11.215,80.738,-3.265
20:08:24:038,44.859,1.675,2.740,-2.028,-10.070,83.578,-0.673
20:08:24:065,44.885,-0.122,-1.974,-0.160,-10.862,84.811,2.242
20:08:24:09,44.911,-0.198,-0.345,0.563,-6.974,83.062,7.307
20:08:24:116,44.937,0.024,0.295,0.174,-4.934,81.580,9.321
20:08:24:143,44.964,0.020,0.082,0.126,-3.374,81.403,10.802
20:08:24:169,44.990,0.128,0.405,-0.154,-1.143,81.323,12.553
20:08:24:224,45.045,0.176,0.860,-0.583,0.432,81.668,13.541
20:08:24:225,45.046,-0.007,0.692,-0.745,2.572,82.750,15.234
20:08:24:248,45.068,-0.679,0.085,-0.777,4.514,84.253,17.107
20:08:24:33,45.151,-0.908,-0.129,-0.510,6.035,85.104,18.588
20:08:24:331,45.152,-0.676,-0.183,-0.675,9.006,85.800,22.311
20:08:24:385,45.206,-0.792,0.375,-0.584,11.930,86.376,26.394
20:08:24:385,45.206,-0.970,-0.056,-0.156,18.365,88.242,34.389
20:08:24:386,45.207,-1.061,-0.296,-1.833,26.103,88.103,39.632
20:08:24:463,45.284,-1.021,-0.980,-1.799,29.978,88.416,41.218
20:08:24:464,45.284,-0.529,-1.130,-0.793,31.472,92.282,42.215
20:08:24:465,45.285,-0.549,-1.330,-0.442,29.827,95.100,42.693
20:08:24:484,45.304,-0.680,-1.093,0.045,23.781,98.027,39.881
20:08:24:51,45.330,-0.814,-0.779,-0.030,18.512,98.827,35.956
20:08:24:539,45.360,-0.806,-0.351,-0.008,10.023,98.656,27.087
20:08:24:563,45.384,-0.238,0.641,0.269,1.877,96.698,16.698
20:08:24:649,45.469,0.593,1.413,0.932,-3.654,95.061,10.252
20:08:24:649,45.469,1.892,1.152,2.354,-11.694,95.032,2.486
20:08:24:649,45.469,2.670,0.691,2.925,-16.346,96.290,-1.867
20:08:24:669,45.489,2.085,-0.865,1.881,-19.359,98.710,-4.138
20:08:24:696,45.517,1.501,-1.113,0.717,-18.760,99.517,-1.757
20:08:24:721,45.542,-2.330,-0.682,-0.007,-17.572,99.230,1.040
20:08:24:747,45.568,1.351,0.727,2.594,-19.410,102.796,1.775
20:08:24:772,45.593,0.176,0.561,1.073,-15.209,104.616,5.794
20:08:24:829,45.650,0.296,0.234,0.000,-13.766,102.191,9.684
20:08:24:83,45.650,0.085,0.250,-0.043,-12.192,100.867,11.534
20:08:24:851,45.672,0.130,0.324,-0.136,-10.090,99.723,13.954
20:08:24:88,45.701,0.067,0.596,-0.435,-8.130,99.031,16.423
20:08:24:906,45.727,0.032,0.765,-0.668,-6.722,98.626,18.166
20:08:24:933,45.754,-0.572,0.452,-0.819,-4.252,98.483,20.650
20:08:24:956,45.777,-0.910,-0.057,-0.809,-2.472,98.427,22.405
20:08:24:984,45.805,-0.926,-0.133,-0.706,0.659,97.990,25.906
20:08:25:011,45.831,-0.813,0.534,-0.702,5.190,97.919,32.851
20:08:25:037,45.857,-1.010,0.242,-0.191,9.669,98.468,38.689
20:08:25:063,45.883,-1.237,-0.728,-1.189,18.641,97.047,44.332
20:08:25:088,45.909,-0.832,-0.763,-1.912,24.821,95.226,45.667
20:08:25:113,45.934,-0.243,-1.509,-1.065,29.099,95.920,46.500
20:08:25:17,45.991,-0.337,-1.153,-0.635,25.333,98.677,45.858
20:08:25:17,45.991,-0.354,-1.550,0.138,21.681,100.184,43.566
20:08:25:219,46.040,-0.483,-0.586,-0.130,13.224,99.703,35.868
20:08:25:249,46.069,-0.402,-0.364,-0.196,7.981,98.456,29.128
20:08:25:249,46.070,-0.182,0.279,-0.144,0.337,95.530,18.002
20:08:25:273,46.094,0.675,1.545,0.881,-7.781,94.128,7.579
20:08:25:354,46.175,1.544,1.792,1.950,-12.742,94.653,2.639
20:08:25:355,46.176,2.635,0.718,3.064,-18.871,96.941,-3.565
20:08:25:57,46.390,2.100,-0.729,2.418,-19.909,97.542,-4.751
20:08:25:57,46.391,1.555,-0.984,1.368,-19.050,96.337,-2.431
20:08:25:571,46.392,-1.564,-0.353,-0.092,-17.509,96.101,-0.029
20:08:25:572,46.392,1.097,0.856,0.564,-17.414,97.521,2.603
20:08:25:596,46.416,-0.339,-0.218,0.689,-13.777,96.590,7.520
20:08:25:596,46.417,0.291,0.307,-0.082,-12.375,94.936,9.226
20:08:25:597,46.417,-0.009,0.293,0.060,-10.145,93.928,11.711
20:08:25:598,46.418,0.043,0.313,-0.100,-8.919,93.185,13.342
20:08:25:648,46.469,-0.025,0.518,-0.292,-7.112,92.116,15.729
20:08:25:649,46.470,-0.003,0.741,-0.724,-4.971,91.409,18.376
20:08:25:65,46.471,-0.233,0.518,-0.785,-3.139,91.364,20.049
20:08:25:65,46.471,-0.800,0.045,-0.955,-0.130,91.193,22.719
20:08:25:697,46.518,-0.948,-0.108,-0.943,2.396,90.779,25.425
20:08:25:698,46.519,-1.060,0.433,-0.901,7.109,90.540,32.164
20:08:25:698,46.519,-1.110,0.347,-0.096,12.017,91.009,38.181
20:08:25:749,46.569,-1.169,-0.336,-1.197,21.841,89.651,43.978
20:08:25:749,46.569,-0.801,-0.617,-2.307,29.674,89.493,45.947
20:08:25:797,46.617,-0.201,-1.458,-0.963,31.200,92.809,46.943
20:08:25:826,46.647,-0.399,-1.558,-0.264,28.503,98.035,47.660
20:08:25:826,46.647,-0.403,-1.333,0.147,24.513,100.528,45.708
20:08:25:878,46.699,-0.481,-1.148,0.040,16.757,102.140,39.138
20:08:25:879,46.700,-0.479,-0.786,-0.019,9.540,101.467,29.043
20:08:25:96,46.780,-0.365,-0.374,-0.123,5.286,99.649,21.414
20:08:25:96,46.781,0.432,0.528,0.325,-1.702,97.227,10.424
20:08:25:961,46.782,1.413,2.093,1.351,-7.084,97.318,4.050
20:08:26:009,46.830,2.340,1.341,2.255,-13.993,101.774,-3.691
20:08:26:01,46.830,2.422,-0.642,2.641,-15.446,107.052,-8.300
20:08:26:09,46.911,1.810,-1.061,1.916,-14.574,108.420,-7.962
20:08:26:091,46.912,-2.563,0.112,4.282,-12.455,108.799,-3.225
20:08:26:092,46.913,0.183,1.893,0.144,-14.001,109.344,1.152
20:08:26:111,46.932,0.337,0.753,0.375,-10.107,107.070,6.221
20:08:26:137,46.958,0.446,0.192,-0.228,-8.421,105.993,7.856
20:08:26:193,47.014,0.003,0.229,0.333,-6.015,105.925,9.931
20:08:26:194,47.014,0.174,0.262,0.166,-4.084,105.438,12.209
20:08:26:332,47.153,-0.022,0.868,-0.640,-0.716,104.305,15.347
20:08:26:332,47.153,-0.280,0.524,-0.747,0.999,104.496,16.893
20:08:26:332,47.153,-0.738,0.196,-0.636,3.449,105.305,18.862
20:08:26:332,47.153,-0.975,-0.137,-0.675,6.311,104.975,21.577
20:08:26:348,47.169,-1.094,-0.093,-1.139,8.629,104.818,24.931
20:08:26:432,47.252,-1.082,0.478,-0.334,13.770,107.592,33.060
20:08:26:433,47.253,-1.139,-0.020,0.232,18.572,108.982,38.441
20:08:26:433,47.254,-1.678,-0.415,-1.310,27.282,106.881,41.667
20:08:26:482,47.303,-1.375,-1.520,-1.340,31.000,107.406,41.480
20:08:26:482,47.303,-0.662,-1.000,-0.131,31.852,113.066,41.936
20:08:26:505,47.326,-0.831,-1.265,-0.051,28.930,118.358,40.897
20:08:26:531,47.352,-0.750,-1.341,0.362,25.305,121.590,38.189
20:08:26:56,47.381,-0.777,-0.704,0.518,18.071,125.316,31.550
20:08:26:672,47.493,-0.894,-0.497,0.533,13.370,126.808,25.286
20:08:26:672,47.493,-0.726,0.369,0.529,6.362,127.893,14.148
20:08:26:673,47.494,0.748,1.837,0.977,-1.212,129.683,2.760
20:08:26:673,47.494,2.187,1.739,1.303,-5.917,131.840,-3.280
20:08:26:718,47.539,3.190,0.688,1.016,-11.811,135.557,-10.665
20:08:26:718,47.539,2.641,-0.950,0.443,-12.924,138.165,-12.359
20:08:26:8,47.620,2.161,-0.948,0.093,-11.665,141.151,-11.066
20:08:26:8,47.621,0.903,-0.934,5.170,-9.344,142.543,-7.493
20:08:26:801,47.622,-1.874,3.190,0.012,-9.783,143.079,-1.027
20:08:26:82,47.640,0.568,0.498,0.263,-5.028,141.640,3.490
20:08:26:875,47.696,-0.076,0.143,-0.098,-3.572,140.880,4.914
20:08:26:876,47.697,0.107,0.545,0.039,-1.499,140.864,6.622
20:08:26:928,47.749,0.016,0.178,0.092,-0.042,140.772,8.050
20:08:26:928,47.749,-0.110,0.557,-0.167,2.269,140.753,9.458
20:08:27:008,47.828,-0.652,0.905,-0.410,4.566,141.300,11.144
20:08:27:062,47.883,-1.012,-0.006,0.399,8.623,143.562,14.560
20:08:27:063,47.884,-1.033,-0.177,0.292,10.655,144.027,16.753
20:08:27:063,47.884,-1.000,-0.073,0.231,14.717,145.305,22.191
20:08:27:14,47.961,-0.744,-0.011,0.918,20.921,147.960,29.958
20:08:27:14,47.961,-1.267,-0.155,0.656,25.781,148.660,33.618
20:08:27:164,47.985,-1.891,-0.550,0.368,31.602,149.348,36.666
20:08:27:165,47.985,-1.408,-1.287,0.237,33.416,152.406,37.591
20:08:27:277,48.098,-0.814,-1.030,0.430,33.200,158.487,39.631
20:08:27:277,48.098,-0.409,-1.284,0.612,30.718,162.176,39.363
20:08:27:277,48.098,-0.156,-1.037,0.809,24.394,166.927,35.825
20:08:27:277,48.098,-0.020,-0.601,0.939,16.975,169.275,28.241
20:08:27:322,48.143,-0.189,-0.259,0.911,12.320,169.050,21.268
20:08:27:323,48.144,0.318,0.583,0.592,5.196,167.260,10.196
20:08:27:345,48.166,1.253,1.574,0.091,-0.264,166.698,3.727
20:08:27:371,48.192,2.688,0.739,-1.058,-8.250,168.922,-2.735
20:08:27:397,48.218,2.874,0.087,-1.778,-14.054,172.100,-7.152
20:08:27:453,48.274,2.020,-0.676,-1.392,-14.578,174.489,-7.977
20:08:27:454,48.275,2.158,-0.945,-0.252,-13.271,176.823,-6.120
20:08:27:505,48.326,-1.396,3.390,1.477,-12.992,179.788,-2.544
20:08:27:506,48.327,0.804,-3.487,0.275,-8.514,-178.773,2.506
20:08:27:531,48.352,0.173,0.248,-0.264,-7.255,-179.937,5.765
20:08:27:584,48.405,0.304,0.220,-0.164,-4.786,178.442,8.085
20:08:27:585,48.406,0.214,0.138,-0.091,-2.618,178.032,10.405
20:08:27:608,48.429,0.012,0.464,0.062,-1.303,177.719,11.634
20:08:27:663,48.483,-0.516,0.894,-0.098,1.037,177.314,13.513
20:08:27:664,48.484,-0.792,0.818,-0.009,2.829,177.407,15.000
20:08:27:686,48.507,-0.844,0.195,0.408,5.336,178.496,17.241
20:08:27:712,48.533,-0.763,-0.072,1.067,7.920,179.360,19.773
20:08:27:768,48.589,-0.948,-0.098,0.833,10.207,179.392,22.563
20:08:27:768,48.589,-0.587,0.650,0.856,15.143,-179.158,29.805
20:08:27:794,48.615,-0.246,0.041,1.361,20.116,-177.903,35.518
20:08:27:817,48.638,-1.553,-0.494,1.369,29.497,-179.800,39.910
20:08:27:931,48.751,-1.862,-1.213,1.123,35.876,-179.858,40.810
20:08:27:931,48.752,-1.172,-1.418,0.719,37.100,-176.179,41.375
20:08:27:932,48.752,-0.302,-1.226,0.591,35.058,-170.557,42.247
20:08:28:037,48.858,-0.059,-1.294,0.728,31.388,-167.715,40.477
20:08:28:037,48.858,0.178,-1.042,0.632,23.825,-164.915,34.141
20:08:28:038,48.859,0.106,-0.590,0.884,18.396,-164.437,27.837
20:08:28:039,48.860,-0.088,0.119,0.669,10.607,-165.141,16.955
20:08:28:063,48.883,0.515,0.880,-0.021,2.259,-164.752,6.147
20:08:28:063,48.883,1.401,1.964,-1.112,-3.435,-162.718,0.263
20:08:28:063,48.883,1.997,0.763,-2.491,-9.995,-158.008,-7.807
20:08:28:08,48.901,1.929,-0.839,-2.398,-12.308,-154.471,-10.761
20:08:28:194,49.015,1.373,-1.116,-2.253,-11.868,-151.625,-10.885
20:08:28:195,49.016,3.831,-0.897,-0.244,-9.143,-150.378,-6.125
20:08:28:196,49.017,-4.743,2.412,-0.964,-10.882,-149.006,-0.951
20:08:28:196,49.017,0.166,-0.744,-0.436,-5.412,-149.620,4.356
20:08:28:211,49.032,-0.375,0.285,-0.122,-4.101,-150.425,6.170
20:08:28:238,49.059,0.305,0.581,-0.127,-1.642,-151.116,8.124
20:08:28:264,49.085,0.030,0.283,0.052,-0.279,-151.379,10.064
20:08:28:29,49.110,-0.297,0.614,0.077,1.842,-151.924,12.098
20:08:28:316,49.137,-0.752,0.994,0.372,4.300,-152.058,14.361
20:08:28:401,49.222,-0.743,0.436,0.661,6.179,-151.468,16.233
20:08:28:402,49.223,-0.238,0.010,1.170,8.716,-149.968,18.758
20:08:28:403,49.224,-0.198,-0.075,1.221,10.683,-149.728,21.043
20:08:28:421,49.242,-0.441,-0.038,1.000,14.560,-149.027,26.904
20:08:28:448,49.268,0.776,0.337,1.002,21.093,-147.170,35.176
20:08:28:474,49.295,0.058,-0.361,1.680,27.486,-149.077,37.735
20:08:28:531,49.352,-1.311,-0.568,1.781,36.868,-154.720,37.246
20:08:28:531,49.352,-0.819,-1.399,0.861,40.242,-154.136,36.930
20:08:28:553,49.374,-0.143,-1.215,0.822,41.913,-147.255,38.705
20:08:28:691,49.511,0.390,-1.608,0.762,39.871,-142.198,39.584
20:08:28:692,49.513,0.847,-1.477,0.604,32.992,-134.696,37.618
20:08:28:692,49.513,0.852,-0.545,0.789,23.370,-130.054,30.351
20:08:28:716,49.537,0.781,-0.373,0.842,17.873,-128.663,23.473
20:08:28:717,49.538,0.872,0.915,0.251,10.186,-127.314,11.971
20:08:28:718,49.539,1.296,1.890,-0.924,5.057,-125.937,4.489
20:08:28:795,49.615,0.891,0.823,-2.648,-2.011,-122.745,-4.260
20:08:28:795,49.616,0.471,-0.118,-3.938,-7.517,-117.641,-10.575
20:08:28:796,49.617,-0.078,-1.036,-3.150,-8.387,-114.997,-11.547
20:08:28:815,49.636,-0.694,-0.954,-1.699,-7.470,-113.739,-8.959
20:08:28:871,49.692,-3.333,2.891,0.923,-5.968,-113.642,-5.841
20:08:28:872,49.692,-0.468,1.316,-1.917,-6.146,-112.438,0.328
20:08:28:923,49.744,0.203,-0.077,-0.959,-1.508,-113.151,5.294
20:08:28:923,49.744,-0.199,0.062,0.261,0.044,-114.313,6.827
20:08:28:975,49.796,0.061,0.395,-0.161,2.222,-114.541,8.812
20:08:28:976,49.797,-0.051,0.547,0.150,3.704,-114.562,10.350
20:08:28:999,49.819,-0.244,1.025,0.457,6.158,-114.176,12.285
20:08:29:025,49.846,-0.189,0.555,0.935,7.880,-113.666,14.004
20:08:29:051,49.872,0.321,-0.012,1.024,10.327,-112.093,16.555
20:08:29:107,49.927,0.681,-0.221,1.053,12.999,-110.670,19.649
20:08:29:107,49.928,0.501,-0.192,0.711,15.294,-110.001,22.816
20:08:29:218,50.038,1.115,0.152,0.419,20.273,-107.783,30.108
20:08:29:218,50.039,1.206,0.021,0.525,25.075,-106.506,34.896
20:08:29:219,50.040,0.605,-0.396,1.706,33.209,-108.065,38.310
20:08:29:22,50.041,0.404,-1.245,1.902,37.251,-108.340,39.755
20:08:29:346,50.167,0.335,-1.265,0.899,39.925,-103.583,41.477
20:08:29:346,50.167,0.595,-1.304,0.614,37.811,-98.452,42.773
20:08:29:509,50.330,0.644,-1.275,-0.033,34.034,-95.695,41.445
20:08:29:509,50.330,0.806,-0.840,0.054,25.668,-92.836,35.943
20:08:29:509,50.330,0.877,-0.568,0.260,19.694,-92.404,30.010
20:08:29:509,50.330,0.696,0.135,0.168,11.083,-92.977,19.373
20:08:29:588,50.408,0.259,0.979,-0.618,2.115,-93.079,8.704
20:08:29:588,50.409,-0.766,1.924,-2.029,-3.822,-91.989,2.994
20:08:29:588,50.409,-1.825,1.055,-3.150,-10.694,-88.567,-4.456
20:08:29:589,50.409,-2.123,-0.400,-3.053,-13.424,-86.228,-6.772
20:08:29:614,50.435,-1.725,-0.849,-1.622,-13.939,-85.384,-5.921
20:08:29:614,50.435,-2.293,2.325,0.915,-12.238,-84.651,-1.103
20:08:29:615,50.435,-0.721,0.796,-0.002,-11.722,-83.706,2.194
20:08:29:615,50.435,0.296,-0.678,-0.880,-7.827,-84.183,8.125
20:08:29:661,50.482,-0.025,0.228,-0.240,-6.317,-85.658,9.840
20:08:29:662,50.483,-0.072,0.105,-0.040,-3.687,-86.441,12.518
20:08:29:663,50.483,0.028,0.538,0.112,-1.696,-86.895,15.204
20:08:29:867,50.688,-0.106,0.722,0.476,-0.351,-87.146,16.837
20:08:29:922,50.743,0.205,0.697,0.811,2.159,-86.848,19.781
20:08:29:923,50.744,0.801,0.285,0.861,3.893,-86.085,21.856
20:08:29:975,50.796,1.212,-0.157,0.730,6.414,-85.296,24.830
20:08:29:975,50.796,0.736,0.058,0.741,8.613,-85.641,27.464
20:08:30:032,50.853,0.903,0.529,0.542,13.757,-85.836,34.333
20:08:30:032,50.853,1.188,-0.256,0.480,22.006,-85.377,42.050
20:08:30:033,50.854,0.892,-0.479,1.864,27.665,-86.646,44.481
20:08:30:034,50.855,0.984,-1.106,1.983,34.231,-87.129,46.693
20:08:30:052,50.873,0.258,-1.486,1.166,35.467,-84.777,47.645
20:08:30:053,50.874,0.368,-1.333,0.318,32.652,-81.494,48.327
20:08:30:128,50.949,0.345,-1.353,-0.024,28.756,-80.228,46.416
20:08:30:162,50.983,0.516,-0.922,0.199,20.226,-80.085,39.517
20:08:30:163,50.983,0.621,-0.538,0.248,11.884,-81.450,29.337
20:08:30:163,50.983,0.311,0.477,0.141,6.772,-83.319,21.615
20:08:30:294,51.115,-0.282,0.924,-0.453,-1.188,-86.075,10.450
20:08:30:295,51.116,-1.688,1.635,-2.295,-6.747,-86.603,4.258
20:08:30:296,51.117,-2.787,1.298,-2.945,-13.801,-85.496,-3.208
20:08:30:427,51.248,-0.921,-0.427,-1.481,-15.470,-81.978,-4.763
20:08:30:427,51.248,-1.025,2.639,2.652,-14.692,-79.673,0.260
20:08:30:428,51.249,-0.063,-1.997,-0.643,-11.625,-79.417,2.946
20:08:30:429,51.250,-0.390,-0.033,-0.209,-9.372,-81.670,7.509
20:08:30:504,51.325,0.216,0.373,-0.351,-7.264,-82.894,9.485
20:08:30:505,51.326,0.042,0.091,-0.023,-5.875,-83.355,11.139
20:08:30:506,51.327,0.025,0.436,0.033,-4.049,-84.494,13.380
20:08:30:507,51.328,0.063,0.862,0.646,-2.819,-85.275,15.004
20:08:30:524,51.344,0.253,0.898,0.833,-0.707,-85.736,17.333
20:08:30:58,51.400,0.924,0.168,0.900,1.099,-85.745,18.997
20:08:30:58,51.400,0.990,-0.217,0.879,4.414,-86.313,21.777
20:08:30:609,51.430,0.953,0.140,1.016,8.797,-87.388,27.110
20:08:30:61,51.431,0.976,0.361,0.844,12.714,-86.751,32.800
20:08:30:611,51.432,1.292,-0.592,0.793,21.422,-86.303,41.142
20:08:30:611,51.432,0.927,-0.857,1.731,27.967,-88.525,43.204
20:08:30:635,51.456,0.692,-1.390,1.844,34.358,-89.350,43.964
20:08:30:636,51.457,0.446,-1.280,0.511,33.975,-84.338,44.564
20:08:30:636,51.457,0.467,-1.485,0.314,30.886,-81.406,43.893
20:08:30:652,51.473,0.688,-0.717,0.050,18.269,-77.833,33.780
20:08:30:679,51.500,0.705,-0.183,0.231,10.504,-78.106,23.369
20:08:30:705,51.526,0.175,0.905,-0.164,5.333,-78.581,15.767
20:08:30:791,51.611,-0.461,1.950,-0.888,-2.746,-77.831,4.829
20:08:30:791,51.612,-2.178,0.773,-2.189,-9.468,-74.426,-3.742
20:08:30:791,51.612,-2.455,-0.557,-2.567,-13.049,-71.288,-8.499
20:08:30:81,51.631,-2.222,-1.188,-1.954,-13.221,-67.682,-10.044
20:08:30:865,51.686,-0.316,-0.085,-0.568,-12.170,-67.016,-7.902
20:08:30:866,51.687,-2.815,2.087,2.385,-9.375,-67.913,-2.104
20:08:30:889,51.710,0.021,-4.938,-0.324,-7.007,-67.491,3.240
20:08:31:029,51.850,-0.553,0.345,-0.504,-6.054,-68.667,6.640
20:08:31:03,51.851,-0.275,0.468,0.012,-3.241,-69.950,8.966
20:08:31:031,51.852,-0.094,0.117,-0.258,-1.446,-70.044,10.742
20:08:31:032,51.853,-0.055,0.325,0.005,0.893,-70.380,13.051
20:08:31:05,51.871,0.165,0.726,0.501,2.899,-70.865,14.833
20:08:31:05,51.871,0.261,1.041,0.797,4.238,-70.841,16.209
20:08:31:073,51.894,0.830,0.267,0.737,6.823,-70.104,18.875
20:08:31:101,51.922,1.190,-0.064,0.619,8.618,-69.588,20.541
20:08:31:125,51.946,1.307,-0.210,0.797,12.077,-69.786,24.268
20:08:31:153,51.974,0.930,0.547,0.302,15.154,-69.643,28.833
20:08:31:318,52.139,1.261,-0.215,-0.627,22.151,-67.767,37.564
