Time,Second,AccelerationX,AccelerationY,AccelerationZ,EulerAnglesX,EulerAnglesY,EulerAnglesZ
10:42:59:043,0.000,-0.003,-0.004,-0.002,-7.467,-72.311,3.424
10:42:59:044,0.001,-0.012,-0.005,0.001,-7.467,-72.311,3.424
10:42:59:044,0.001,-0.002,-0.004,-0.003,-7.467,-72.311,3.424
10:42:59:044,0.001,-0.009,-0.007,0.001,-7.467,-72.311,3.424
10:42:59:147,0.104,-0.005,-0.006,0.003,-7.467,-72.311,3.424
10:42:59:148,0.105,-0.008,-0.007,-0.002,-7.467,-72.311,3.424
10:42:59:149,0.106,-0.010,-0.006,0.000,-7.467,-72.311,3.424
10:42:59:15,0.107,-0.014,-0.011,0.002,-7.447,-72.311,3.424
10:42:59:174,0.131,0.000,-0.010,-0.005,-7.447,-72.311,3.424
10:42:59:174,0.131,-0.014,-0.008,0.002,-7.447,-72.311,3.424
10:42:59:175,0.132,-0.011,-0.009,0.002,-7.428,-72.310,3.425
10:42:59:176,0.133,-0.007,-0.012,-0.001,-7.428,-72.310,3.425
10:42:59:278,0.235,-0.007,-0.010,0.002,-7.428,-72.310,3.425
10:42:59:279,0.236,-0.013,-0.006,0.001,-7.412,-72.330,3.426
10:42:59:463,0.420,-0.008,-0.010,0.002,-7.392,-72.334,3.431
10:42:59:463,0.420,-0.008,-0.008,0.002,-7.392,-72.354,3.433
10:42:59:464,0.421,-0.012,-0.007,0.003,-7.391,-72.369,3.429
10:42:59:465,0.422,-0.017,-0.009,0.001,-7.381,-72.368,3.429
10:42:59:56,0.517,-0.008,-0.008,0.000,-7.381,-72.368,3.429
10:42:59:595,0.551,-0.004,-0.007,-0.001,-7.381,-72.368,3.429
10:42:59:595,0.551,-0.013,-0.009,0.004,-7.381,-72.394,3.435
10:42:59:595,0.551,-0.008,-0.009,-0.002,-7.381,-72.394,3.435
10:42:59:596,0.552,-0.011,-0.006,0.003,-7.381,-72.394,3.435
10:42:59:7,0.657,-0.006,-0.010,-0.002,-7.381,-72.394,3.435
10:42:59:7,0.657,-0.014,-0.008,0.001,-7.381,-72.394,3.435
10:42:59:701,0.658,-0.001,-0.007,-0.001,-7.381,-72.394,3.435
10:42:59:702,0.659,-0.015,-0.008,0.004,-7.381,-72.394,3.435
10:42:59:728,0.685,-0.005,-0.003,-0.003,-7.381,-72.394,3.435
10:42:59:728,0.685,-0.014,-0.007,0.003,-7.381,-72.394,3.435
10:42:59:729,0.686,-0.005,-0.008,-0.006,-7.381,-72.394,3.435
10:42:59:73,0.687,-0.013,-0.009,0.004,-7.381,-72.394,3.435
10:42:59:831,0.788,-0.008,-0.008,0.002,-7.381,-72.394,3.435
10:42:59:831,0.788,-0.020,-0.007,0.005,-7.381,-72.394,3.435
10:42:59:832,0.789,-0.008,-0.005,0.000,-7.381,-72.394,3.435
10:42:59:833,0.790,-0.014,-0.006,0.001,-7.381,-72.394,3.435
10:42:59:884,0.841,-0.004,-0.011,0.001,-7.381,-72.394,3.435
10:42:59:884,0.841,-0.014,-0.009,0.005,-7.381,-72.394,3.435
10:42:59:885,0.842,-0.010,-0.008,0.001,-7.381,-72.394,3.435
10:42:59:886,0.843,-0.014,-0.008,0.002,-7.381,-72.394,3.435
10:43:00:014,0.971,-0.011,-0.006,0.003,-7.381,-72.394,3.435
10:43:00:015,0.972,-0.012,-0.007,0.000,-7.381,-72.394,3.435
10:43:00:016,0.973,-0.005,-0.010,0.001,-7.381,-72.394,3.435
10:43:00:017,0.974,-0.008,-0.008,0.000,-7.381,-72.394,3.435
10:43:00:119,1.076,-0.013,-0.003,0.008,-7.381,-72.394,3.435
10:43:00:146,1.103,-0.001,-0.011,-0.004,-7.364,-72.311,3.475
10:43:00:146,1.103,-0.001,-0.002,0.003,-7.364,-72.318,3.500
10:43:00:146,1.103,-0.011,-0.012,0.000,-7.365,-72.309,3.509
10:43:00:147,1.104,-0.009,-0.010,0.000,-7.354,-72.339,3.521
10:43:00:25,1.207,-0.001,-0.002,-0.003,-7.354,-72.349,3.522
10:43:00:251,1.208,0.003,-0.002,-0.003,-7.333,-72.398,3.525
10:43:00:252,1.209,-0.014,-0.005,0.002,-7.276,-72.461,3.535
10:43:00:252,1.209,0.008,-0.008,0.001,-7.235,-72.505,3.543
10:43:00:272,1.229,0.011,0.000,0.013,-7.159,-72.599,3.574
10:43:00:273,1.230,-0.003,-0.007,0.013,-7.039,-72.671,3.679
10:43:00:408,1.365,-0.010,-0.008,0.005,-6.950,-72.699,3.775
10:43:00:409,1.366,-0.018,-0.014,-0.003,-6.808,-72.717,3.911
10:43:00:409,1.366,-0.021,-0.002,-0.020,-6.719,-72.754,3.998
10:43:00:433,1.390,-0.004,-0.013,-0.001,-6.502,-72.887,4.111
10:43:00:434,1.391,-0.009,-0.013,-0.003,-6.387,-72.933,4.124
10:43:00:435,1.392,-0.021,-0.007,-0.008,-6.252,-72.953,4.131
10:43:00:565,1.522,-0.007,0.007,0.008,-6.075,-73.014,4.085
10:43:00:566,1.523,-0.009,-0.014,0.015,-5.989,-73.051,4.087
10:43:00:567,1.524,-0.006,-0.012,0.016,-5.845,-73.081,4.104
10:43:00:568,1.525,-0.014,-0.002,0.006,-5.702,-73.059,4.163
10:43:00:802,1.759,-0.005,-0.013,0.005,-5.599,-73.038,4.202
10:43:00:803,1.760,-0.007,-0.008,-0.019,-5.459,-72.941,4.253
10:43:00:824,1.781,-0.035,-0.001,-0.016,-4.998,-72.966,4.316
10:43:00:854,1.811,-0.002,-0.012,-0.001,-4.833,-73.091,4.257
10:43:00:855,1.812,-0.008,-0.024,0.002,-4.750,-73.160,4.196
10:43:00:856,1.813,0.002,-0.013,0.003,-4.647,-73.238,4.125
10:43:00:856,1.813,-0.011,-0.015,-0.001,-4.585,-73.294,4.098
10:43:00:952,1.908,-0.011,-0.004,0.009,-4.482,-73.372,4.046
10:43:01:093,2.050,0.001,0.003,-0.012,-4.397,-73.377,3.997
10:43:01:093,2.050,0.013,0.006,0.007,-4.335,-73.438,3.955
10:43:01:093,2.050,-0.001,0.000,0.025,-4.207,-73.551,3.930
10:43:01:093,2.050,-0.002,-0.003,0.012,-4.121,-73.605,3.976
10:43:01:118,2.075,-0.012,-0.006,0.007,-4.004,-73.596,4.134
10:43:01:118,2.075,0.000,-0.001,0.001,-3.901,-73.589,4.332
10:43:01:118,2.075,-0.016,-0.008,0.005,-3.818,-73.586,4.466
10:43:01:119,2.076,-0.001,-0.017,0.000,-3.716,-73.574,4.678
10:43:01:215,2.172,-0.014,-0.010,-0.009,-3.653,-73.561,4.821
10:43:01:216,2.173,-0.009,-0.013,-0.007,-3.550,-73.563,5.039
10:43:01:402,2.359,-0.012,-0.005,0.009,-3.496,-73.575,5.178
10:43:01:403,2.360,-0.011,-0.005,0.006,-3.419,-73.564,5.421
10:43:01:404,2.361,-0.021,-0.001,0.006,-3.335,-73.598,5.729
10:43:01:51,2.467,-0.013,0.009,0.012,-3.277,-73.702,5.989
10:43:01:511,2.468,0.030,0.012,0.084,-3.203,-74.021,6.553
10:43:01:512,2.469,-0.010,0.047,0.017,-3.196,-74.182,7.033
10:43:01:513,2.470,-0.002,0.012,0.034,-3.147,-74.437,7.783
10:43:01:611,2.567,0.060,-0.011,-0.048,-3.077,-74.931,8.447
10:43:01:611,2.567,0.052,0.030,-0.027,-3.113,-75.238,9.051
10:43:01:642,2.598,0.031,-0.037,0.021,-3.444,-76.344,10.764
10:43:01:643,2.599,-0.036,-0.094,0.067,-3.759,-76.812,11.663
10:43:01:644,2.600,0.010,-0.127,0.088,-4.139,-77.013,12.175
10:43:01:686,2.643,-0.041,-0.114,0.065,-4.393,-76.964,12.260
10:43:01:772,2.729,-0.046,-0.093,-0.005,-4.712,-76.757,12.098
10:43:01:773,2.730,-0.066,-0.058,-0.016,-4.933,-76.601,11.868
10:43:01:774,2.731,-0.143,0.067,-0.037,-5.276,-76.439,11.492
10:43:01:775,2.732,-0.162,0.203,-0.533,-5.502,-75.956,11.410
10:43:01:923,2.880,0.103,-0.136,0.103,-5.992,-74.939,11.512
10:43:02:113,3.070,-0.084,0.153,-0.099,-6.603,-74.002,11.195
10:43:02:113,3.070,0.003,-0.021,0.132,-6.966,-73.736,10.908
10:43:02:113,3.070,-0.034,0.012,0.061,-7.543,-73.280,10.619
10:43:02:133,3.090,-0.007,-0.037,-0.025,-8.013,-72.697,10.500
10:43:02:245,3.202,-0.004,0.008,0.078,-8.820,-71.758,10.494
10:43:02:246,3.203,0.023,0.088,0.067,-9.494,-71.110,10.744
10:43:02:247,3.204,0.033,0.111,0.062,-9.782,-70.849,11.028
10:43:02:247,3.204,-0.025,0.060,-0.054,-9.857,-70.600,11.456
10:43:02:688,3.645,0.074,0.015,0.061,-9.772,-70.629,11.745
10:43:02:688,3.645,0.045,-0.014,-0.035,-9.593,-70.522,12.204
10:43:02:953,3.910,0.000,-0.036,0.015,-9.461,-70.672,12.593
10:43:02:953,3.910,0.017,-0.038,0.034,-9.255,-70.884,13.267
10:43:02:954,3.911,-0.022,-0.039,-0.008,-9.195,-70.867,13.967
10:43:03:076,4.033,-0.046,-0.018,-0.017,-9.272,-70.846,14.470
10:43:03:217,4.174,-0.023,0.067,-0.003,-9.498,-70.872,15.280
10:43:03:218,4.175,-0.047,0.052,0.036,-9.619,-71.020,15.882
10:43:03:219,4.176,0.003,0.051,0.056,-9.743,-71.322,16.842
10:43:03:22,4.177,-0.009,0.096,0.076,-9.831,-71.743,18.061
10:43:03:348,4.305,0.006,0.109,0.147,-9.855,-72.115,19.081
10:43:03:348,4.305,-0.016,0.184,0.168,-9.884,-72.715,20.983
10:43:03:349,4.306,-0.027,0.240,0.291,-9.855,-73.255,22.555
10:43:03:35,4.307,0.202,0.231,0.607,-9.114,-74.661,30.899
10:43:03:584,4.541,0.464,0.407,1.051,-6.205,-80.303,43.895
10:43:03:585,4.542,0.595,0.085,1.095,-4.703,-81.702,47.835
10:43:03:585,4.542,0.304,-0.443,0.614,-4.459,-82.687,52.567
10:43:03:635,4.592,0.059,-1.251,0.629,-5.403,-85.678,53.179
10:43:03:636,4.593,-0.102,-0.617,0.342,-6.651,-85.329,50.730
10:43:03:637,4.594,-0.082,-0.612,0.373,-8.791,-83.944,45.667
10:43:03:929,4.886,-0.026,-0.398,0.500,-9.885,-82.333,38.778
10:43:03:929,4.886,0.157,-0.143,-0.238,-6.829,-64.430,-4.237
10:43:03:929,4.886,-0.116,0.076,-0.269,-7.724,-63.772,-2.278
10:43:03:93,4.887,-0.041,0.067,0.037,-11.153,-66.667,5.547
10:43:03:996,4.952,0.002,-0.018,0.123,-11.321,-67.313,7.147
10:43:04:057,5.014,0.038,0.148,0.114,-11.317,-68.368,13.949
10:43:04:057,5.014,0.220,0.473,0.783,-11.399,-70.720,30.177
10:43:04:058,5.015,0.130,0.520,1.109,-10.538,-72.976,35.592
10:43:04:059,5.016,0.532,0.251,1.245,-7.747,-77.588,41.650
10:43:04:164,5.121,0.830,0.403,0.954,-5.834,-80.049,46.074
10:43:04:164,5.121,0.501,-0.407,1.031,-5.774,-81.378,51.928
10:43:04:165,5.122,0.478,-0.180,-0.019,-6.743,-81.052,56.321
10:43:04:166,5.123,0.222,-1.288,0.441,-6.272,-81.717,55.609
10:43:04:294,5.251,0.021,-1.131,0.340,-5.945,-81.635,53.805
10:43:04:294,5.251,0.053,-0.791,0.284,-6.794,-80.088,49.918
10:43:04:295,5.252,0.103,0.920,-0.254,-6.038,-63.135,7.679
10:43:04:296,5.253,-0.058,1.370,-1.477,-4.420,-58.969,-2.268
10:43:04:607,5.564,-0.316,0.917,-1.851,-2.851,-56.275,-8.396
10:43:04:608,5.565,-0.666,-0.432,-2.519,-0.769,-53.059,-15.676
10:43:04:609,5.566,-1.373,-0.431,-1.376,-0.938,-52.451,-18.863
10:43:04:61,5.567,-0.484,-0.301,-1.353,-1.782,-52.385,-18.146
10:43:04:686,5.643,0.412,1.211,1.861,-2.044,-49.846,-14.742
10:43:04:687,5.644,-0.052,0.057,-0.052,-6.232,-44.071,0.205
10:43:04:687,5.644,0.003,-0.047,0.004,-6.553,-44.365,0.879
10:43:04:691,5.648,-0.045,-0.018,-0.050,-7.053,-44.218,1.668
10:43:04:757,5.714,-0.049,-0.022,-0.036,-7.395,-44.314,2.436
10:43:05:002,5.959,-0.007,-0.034,0.005,-7.893,-45.496,3.698
10:43:05:002,5.959,-0.002,0.096,-0.001,-8.162,-45.776,4.270
10:43:05:003,5.960,0.061,0.036,0.026,-8.330,-46.304,5.210
10:43:05:004,5.961,0.078,-0.061,0.118,-8.386,-46.814,6.444
10:43:05:019,5.976,0.120,0.021,0.131,-8.584,-46.946,7.591
10:43:05:231,6.187,0.032,0.071,0.067,-8.843,-46.763,9.843
10:43:05:289,6.246,-0.031,0.163,0.086,-8.931,-46.684,11.652
10:43:05:29,6.247,0.027,0.123,0.137,-8.910,-46.810,14.646
10:43:05:291,6.248,0.015,0.187,0.247,-8.821,-47.035,18.095
10:43:05:292,6.249,0.068,0.352,0.304,-8.924,-47.136,20.741
10:43:05:36,6.317,0.420,0.439,0.357,-8.932,-47.335,25.084
10:43:05:386,6.343,0.595,0.563,0.550,-8.677,-47.767,28.365
10:43:05:421,6.378,0.659,0.621,1.202,-7.584,-49.660,33.896
10:43:05:422,6.379,0.509,-0.551,0.021,-8.912,-39.183,41.635
10:43:05:422,6.379,0.607,-0.437,0.011,-8.363,-36.123,36.618
10:43:05:423,6.380,0.493,-0.060,-0.106,-7.459,-33.013,31.085
10:43:05:579,6.535,0.466,0.263,-0.248,-5.759,-28.262,22.095
10:43:05:58,6.537,0.289,0.658,-0.409,-3.868,-23.999,12.148
10:43:05:58,6.537,0.107,1.090,-0.749,-2.684,-21.291,5.293
10:43:05:581,6.537,-1.000,1.112,-1.143,-1.076,-16.420,-4.571
10:43:05:65,6.607,-1.877,0.014,-1.744,-0.026,-14.379,-10.313
10:43:05:896,6.853,-1.214,-0.196,-0.686,-0.945,-11.884,-18.416
10:43:05:896,6.853,-0.292,0.115,0.094,-3.550,2.217,-1.370
10:43:05:897,6.854,-0.071,0.097,-0.065,-4.122,2.334,-0.366
10:43:05:898,6.855,-0.040,-0.030,0.021,-4.695,2.279,0.779
10:43:05:941,6.898,-0.145,0.024,0.014,-5.126,2.412,1.217
10:43:05:942,6.899,-0.009,-0.017,-0.014,-6.349,1.747,2.057
10:43:05:973,6.929,0.130,0.009,0.022,-8.804,-0.394,6.941
10:43:05:973,6.929,0.025,0.122,0.059,-9.274,-0.310,9.219
10:43:05:974,6.930,0.008,0.138,0.057,-9.514,-0.312,11.051
10:43:06:,6.956,0.188,0.234,0.231,-9.664,-0.973,16.287
10:43:06:,6.956,0.308,0.342,0.080,-9.577,-1.503,20.093
10:43:06:077,7.034,1.328,0.333,0.446,-7.098,-6.013,33.417
10:43:06:078,7.035,0.883,0.483,-0.123,-5.473,-8.324,37.368
10:43:06:078,7.035,0.845,0.316,-0.609,-3.923,-9.747,44.073
10:43:06:079,7.036,0.863,-0.358,-0.097,-6.025,-9.420,49.732
10:43:06:101,7.058,0.740,-0.797,0.180,-7.107,-9.250,52.326
10:43:06:101,7.058,0.533,-0.765,-0.205,-7.885,-8.535,53.856
10:43:06:102,7.059,0.548,-1.376,-0.059,-8.150,-8.761,53.388
10:43:06:149,7.106,0.357,-0.320,-0.088,-6.933,-2.974,35.022
10:43:06:21,7.167,-1.403,1.179,-0.478,-2.604,9.642,-2.964
10:43:06:21,7.167,-2.015,0.169,-0.562,-0.867,12.210,-11.537
10:43:06:21,7.167,-2.105,-0.523,0.171,-1.319,11.948,-17.187
10:43:06:211,7.168,-1.515,-0.431,-0.143,-2.031,11.395,-18.791
10:43:06:255,7.212,-1.400,-0.153,0.076,-3.050,12.140,-16.584
10:43:06:28,7.237,2.287,1.238,1.233,-3.279,13.999,-14.046
10:43:06:367,7.323,-0.739,-0.151,0.360,-2.370,17.090,-10.840
10:43:06:367,7.323,-0.539,0.229,0.542,-2.808,20.052,-6.661
10:43:06:368,7.324,-0.589,-0.020,-0.114,-3.639,20.373,-4.093
10:43:06:369,7.325,-0.291,-0.199,-0.138,-4.949,20.900,-1.110
10:43:06:412,7.369,-0.177,0.024,0.146,-5.708,21.321,0.324
10:43:06:49,7.447,0.005,0.024,-0.054,-6.414,21.200,2.124
10:43:06:523,7.480,-0.016,0.024,-0.016,-6.966,21.688,3.433
10:43:06:524,7.481,-0.041,0.031,0.097,-7.359,22.047,4.099
10:43:06:525,7.482,-0.077,0.020,-0.005,-7.722,22.125,5.043
10:43:06:551,7.507,0.044,-0.027,0.028,-8.070,21.421,6.516
10:43:06:551,7.507,0.024,0.013,-0.052,-8.342,21.188,7.443
10:43:06:552,7.508,0.009,0.016,-0.015,-8.413,20.932,8.141
10:43:06:553,7.509,0.084,0.041,-0.005,-8.427,20.362,9.364
10:43:06:569,7.525,0.101,-0.010,-0.029,-8.431,20.076,10.350
10:43:06:681,7.638,0.072,0.060,0.014,-8.751,19.851,12.193
10:43:06:681,7.638,0.090,0.071,0.042,-8.909,19.649,13.615
10:43:06:682,7.639,0.174,0.096,-0.037,-8.944,19.174,16.092
10:43:06:683,7.640,0.198,0.121,0.048,-9.093,18.816,19.114
10:43:06:779,7.736,0.255,0.224,0.092,-9.261,18.718,21.394
10:43:06:815,7.772,0.338,0.254,-0.169,-9.453,18.641,25.184
10:43:06:816,7.773,0.385,0.264,-0.230,-9.455,18.475,28.012
10:43:06:816,7.773,0.760,0.452,-0.341,-9.056,17.501,32.768
10:43:06:817,7.774,1.333,0.381,-0.260,-7.466,14.860,38.054
10:43:07:145,8.102,1.309,0.158,-0.367,-5.274,12.094,41.753
10:43:07:175,8.132,0.842,0.100,-0.738,-2.543,9.001,47.980
10:43:07:175,8.132,0.968,-0.466,-0.435,-2.779,8.074,51.406
10:43:07:197,8.154,0.644,-0.781,0.006,-2.298,6.965,54.754
10:43:07:232,8.189,0.223,-0.469,-0.284,-2.194,6.555,55.719
10:43:07:233,8.190,0.477,-0.967,-0.013,-2.367,5.313,55.260
10:43:07:234,8.191,0.352,-1.108,-0.012,-2.979,4.887,52.727
10:43:07:235,8.192,0.227,-0.814,-0.011,-4.507,5.646,50.227
10:43:07:336,8.293,0.230,-0.682,-0.075,-6.802,7.518,44.802
10:43:07:337,8.294,0.314,-0.478,-0.100,-7.785,8.984,40.241
10:43:07:338,8.295,0.352,-0.233,-0.126,-8.363,11.181,32.270
10:43:07:339,8.296,0.292,0.044,-0.030,-8.271,13.329,23.101
10:43:07:365,8.322,0.279,0.409,0.090,-8.095,14.841,16.475
10:43:07:365,8.322,-0.126,0.956,0.165,-7.767,17.304,6.297
10:43:07:365,8.322,-1.266,1.428,-0.072,-7.437,19.042,-0.227
10:43:07:366,8.323,-1.755,1.073,0.184,-6.112,22.185,-9.964
10:43:07:381,8.338,-2.632,-0.573,0.627,-4.840,24.221,-17.546
10:43:07:468,8.425,-1.949,-0.772,0.650,-5.694,23.123,-19.719
10:43:07:469,8.426,-1.076,-0.131,0.084,-7.150,22.678,-18.892
10:43:07:47,8.427,1.194,0.731,-0.561,-7.292,23.776,-16.499
10:43:07:471,8.428,0.982,0.481,0.928,-7.743,24.419,-13.718
10:43:07:495,8.452,-0.758,0.366,0.435,-7.055,26.700,-11.199
10:43:07:496,8.453,-0.347,0.042,0.120,-7.121,28.147,-7.575
10:43:07:496,8.453,-0.588,0.234,0.418,-7.999,29.335,-4.473
10:43:07:497,8.454,-0.270,-0.144,-0.078,-8.595,29.287,-2.920
10:43:07:593,8.550,-0.111,0.092,0.039,-9.249,29.192,-1.199
10:43:07:594,8.551,-0.111,0.013,0.083,-9.455,28.674,-0.268
10:43:07:626,8.583,-0.064,-0.029,0.061,-9.987,28.394,0.535
10:43:07:627,8.584,-0.058,0.032,-0.003,-10.586,28.185,1.085
10:43:07:627,8.584,-0.048,-0.007,-0.070,-10.910,27.779,1.485
10:43:07:628,8.585,0.017,-0.008,-0.028,-11.331,26.895,2.176
10:43:07:652,8.609,0.059,-0.007,-0.015,-11.592,26.369,2.717
10:43:07:653,8.610,0.066,-0.006,-0.005,-11.972,25.776,3.700
10:43:07:654,8.611,0.013,0.045,-0.028,-12.198,25.435,4.488
10:43:07:655,8.612,0.035,0.054,0.024,-12.357,24.682,5.874
10:43:07:67,8.627,0.134,-0.045,-0.021,-12.369,23.749,7.527
10:43:07:704,8.661,0.087,-0.004,-0.021,-12.490,23.412,8.824
10:43:07:705,8.662,0.066,0.093,-0.007,-12.803,23.129,11.099
10:43:07:706,8.663,0.090,0.119,-0.105,-12.906,22.899,12.874
10:43:07:706,8.663,0.164,0.134,0.138,-12.999,22.470,15.886
10:43:07:722,8.679,0.239,0.221,0.042,-13.133,22.032,19.263
10:43:07:777,8.734,0.241,0.265,-0.042,-13.292,21.658,21.762
10:43:07:778,8.735,0.480,0.384,-0.127,-13.309,20.557,26.038
10:43:07:801,8.758,0.901,0.582,-0.345,-13.016,19.296,29.398
10:43:07:911,8.867,1.182,0.491,-0.013,-11.893,16.249,34.885
10:43:07:912,8.868,0.986,0.205,-0.349,-9.176,11.592,41.148
10:43:08:072,9.029,0.798,0.245,-0.663,-7.060,9.260,45.655
10:43:08:073,9.030,0.995,-0.412,-0.488,-7.597,7.748,51.200
10:43:08:074,9.031,0.421,-0.543,0.139,-8.182,6.872,53.616
10:43:08:074,9.031,-0.028,-0.166,-0.345,-7.858,5.963,55.471
10:43:08:092,9.049,0.354,-1.129,-0.057,-7.646,5.093,55.438
10:43:08:208,9.165,0.283,-0.794,0.042,-7.188,3.939,49.095
10:43:08:208,9.165,0.262,-0.680,0.000,-8.042,4.863,45.610
10:43:08:209,9.166,0.364,-0.542,-0.074,-8.843,6.703,38.997
10:43:08:231,9.188,0.348,-0.396,-0.097,-9.016,8.166,33.776
10:43:08:232,9.189,0.337,-0.024,-0.112,-8.957,10.640,24.919
10:43:08:233,9.190,0.314,0.495,-0.059,-8.693,12.436,18.397
10:43:08:233,9.190,0.024,0.835,0.084,-8.148,15.119,8.115
10:43:08:361,9.318,-1.404,1.303,0.061,-7.396,18.226,-1.589
10:43:08:362,9.319,-1.963,0.624,0.331,-6.816,19.396,-7.867
10:43:08:362,9.319,-2.220,-0.494,0.073,-4.802,21.312,-15.339
10:43:08:364,9.321,-1.829,-0.703,0.671,-4.736,22.169,-18.095
10:43:08:494,9.451,-1.245,-0.399,0.821,-5.820,22.805,-17.986
10:43:08:494,9.451,0.759,0.668,-0.847,-6.299,24.843,-14.997
10:43:08:494,9.451,-0.424,0.038,0.714,-6.050,26.236,-13.700
10:43:08:494,9.451,-1.033,0.485,0.437,-5.622,29.498,-9.624
10:43:08:511,9.468,-0.720,-0.182,0.230,-6.066,29.815,-7.043
10:43:08:589,9.546,-0.299,-0.262,-0.064,-6.711,30.616,-3.557
10:43:08:624,9.580,-0.257,0.149,0.088,-8.110,31.596,-1.381
10:43:08:625,9.581,0.025,0.085,0.117,-8.628,31.616,-0.292
10:43:08:626,9.582,-0.093,-0.009,0.101,-9.262,31.478,1.008
10:43:08:627,9.583,-0.051,-0.014,0.042,-9.686,31.363,1.666
10:43:08:728,9.685,-0.091,0.034,0.052,-10.300,31.241,2.359
10:43:08:729,9.686,-0.041,-0.023,-0.019,-10.714,30.656,3.014
10:43:08:73,9.687,0.000,-0.028,0.007,-10.939,30.144,3.435
10:43:08:751,9.708,-0.013,-0.005,-0.030,-11.554,28.976,4.625
10:43:08:752,9.709,-0.008,0.037,0.035,-11.824,28.195,5.503
10:43:08:752,9.709,0.116,0.013,-0.023,-11.969,27.429,6.182
10:43:08:801,9.758,0.161,-0.023,-0.089,-11.945,26.550,7.448
10:43:08:802,9.759,0.100,0.019,-0.055,-12.189,26.234,9.242
10:43:08:854,9.811,0.123,0.080,-0.027,-12.481,26.009,10.836
10:43:08:855,9.812,0.103,0.158,-0.007,-12.665,25.740,13.683
10:43:08:877,9.833,0.135,0.121,0.108,-12.710,25.525,15.808
10:43:08:983,9.940,0.150,0.235,0.063,-12.930,25.079,19.279
10:43:09:015,9.972,0.265,0.279,-0.037,-13.134,24.538,21.748
10:43:09:015,9.972,0.405,0.322,-0.074,-13.068,23.399,25.768
10:43:09:016,9.973,0.754,0.401,-0.246,-12.506,21.806,30.281
10:43:09:063,10.020,1.352,0.420,-0.229,-11.810,20.054,33.636
10:43:09:324,10.281,1.296,0.145,-0.356,-9.731,16.208,39.246
10:43:09:413,10.370,0.504,0.378,-0.578,-8.598,14.421,43.434
10:43:09:413,10.370,0.861,-0.076,-0.648,-7.923,12.542,49.227
10:43:09:414,10.371,0.804,-0.924,-0.396,-9.114,12.208,52.941
10:43:09:414,10.371,-0.090,-0.283,-0.475,-9.946,12.629,54.085
10:43:09:438,10.395,0.477,-1.097,-0.084,-10.286,12.504,53.828
10:43:09:438,10.395,0.446,-1.251,-0.234,-9.602,12.483,51.986
10:43:09:439,10.396,0.288,-0.793,-0.099,-9.141,13.593,48.019
10:43:09:44,10.397,0.308,-0.600,-0.113,-8.981,15.674,42.381
10:43:09:543,10.499,0.425,-0.430,-0.171,-8.839,17.528,37.663
10:43:09:544,10.500,0.326,-0.149,-0.202,-7.882,20.537,29.427
10:43:09:545,10.501,0.284,0.149,-0.223,-7.018,22.661,23.370
10:43:09:546,10.502,0.074,0.601,-0.201,-5.700,26.287,13.556
10:43:09:594,10.551,-0.764,1.063,-0.109,-4.681,29.031,6.825
10:43:09:595,10.552,-1.326,1.221,-0.026,-2.792,33.653,-2.567
10:43:09:596,10.553,-2.092,0.298,0.371,0.023,38.690,-10.433
10:43:09:621,10.578,-1.380,-0.614,1.553,0.879,42.436,-17.114
10:43:09:622,10.579,-1.320,-0.127,0.389,0.542,43.303,-16.251
10:43:09:623,10.580,2.236,1.296,-0.125,0.350,46.264,-12.576
10:43:10:146,11.103,-0.420,0.041,0.855,1.077,52.815,-6.235
10:43:10:147,11.104,-0.272,0.054,0.621,-0.131,53.503,-2.989
10:43:10:148,11.105,-0.315,-0.096,-0.056,-0.790,54.133,-1.612
10:43:10:148,11.105,0.029,0.217,0.036,-1.863,54.865,-0.266
10:43:10:304,11.261,-0.127,-0.022,0.042,-2.471,55.204,0.600
10:43:10:305,11.262,-0.077,-0.027,0.009,-3.064,55.737,1.671
10:43:10:305,11.262,0.084,0.023,0.106,-3.573,56.004,2.409
10:43:10:306,11.263,-0.025,-0.025,0.054,-3.814,56.023,2.761
10:43:10:425,11.382,0.002,-0.045,-0.007,-4.225,55.729,3.225
10:43:10:569,11.526,0.009,-0.095,-0.045,-4.520,55.651,3.532
10:43:10:569,11.526,-0.007,-0.028,-0.055,-4.961,55.812,4.085
10:43:10:569,11.526,0.025,0.025,0.047,-5.102,55.864,4.705
10:43:10:57,11.527,0.088,0.023,-0.152,-5.149,55.430,5.175
10:43:10:698,11.655,0.070,-0.027,-0.258,-5.212,55.119,6.472
10:43:10:698,11.655,0.058,-0.002,-0.161,-5.118,55.159,7.894
10:43:10:699,11.656,0.054,0.152,0.097,-4.909,55.427,10.737
10:43:10:699,11.656,0.140,0.148,0.083,-4.570,55.317,13.749
10:43:11:057,12.014,0.128,0.143,-0.069,-4.184,55.342,15.727
10:43:11:092,12.049,0.125,0.269,-0.176,-3.796,55.642,18.985
10:43:11:092,12.049,0.219,0.350,-0.272,-3.596,55.814,21.418
10:43:11:093,12.050,-0.373,0.522,-0.509,-2.978,113.525,25.386
10:43:11:093,12.050,-0.431,0.451,-0.877,-1.703,112.944,29.810
10:43:11:117,12.074,-0.985,0.060,-0.470,3.062,108.645,38.415
10:43:11:118,12.075,-1.127,0.063,-0.950,3.176,108.510,42.357
10:43:11:119,12.076,-0.272,-0.317,-0.651,1.047,110.161,47.431
10:43:11:224,12.181,-0.325,-0.657,-0.213,-4.763,116.094,43.585
10:43:11:224,12.181,-0.382,-0.547,-0.289,-5.701,118.287,39.635
10:43:11:225,12.182,-0.359,-0.217,-0.129,-6.387,121.777,32.623
10:43:11:349,12.306,0.838,0.061,2.035,-2.403,139.971,-12.612
10:43:11:35,12.307,1.156,-0.451,1.842,-1.590,141.794,-18.708
10:43:11:424,12.381,1.586,-0.758,1.147,-2.242,142.311,-20.987
10:43:11:477,12.434,0.947,-0.140,1.094,-3.386,142.339,-20.023
10:43:11:764,12.721,-0.743,0.786,-0.573,-3.350,144.662,-16.790
10:43:11:792,12.749,0.669,0.312,0.226,-2.129,149.517,-11.418
10:43:11:905,12.861,0.218,-0.100,0.499,-2.735,150.397,-8.082
10:43:11:906,12.862,0.372,0.082,0.158,-3.429,151.294,-6.121
10:43:11:907,12.863,0.231,0.031,0.182,-4.318,152.225,-3.852
10:43:11:908,12.864,-0.060,0.100,-0.024,-6.031,153.955,7.770
10:43:12:028,12.985,-0.051,0.134,-0.033,-6.071,154.073,9.547
10:43:12:369,13.326,-0.059,0.159,-0.061,-5.942,153.903,12.580
10:43:12:404,13.361,-0.071,0.320,-0.168,-5.721,153.625,16.032
10:43:12:405,13.362,-0.257,0.355,-0.293,-5.550,153.171,18.604
10:43:12:406,13.363,-0.423,0.362,-0.190,-5.187,152.636,22.908
10:43:12:406,13.363,-0.809,0.425,-0.195,-4.888,152.315,26.132
10:43:12:43,13.387,-0.986,0.352,-0.301,-3.890,151.235,31.379
10:43:12:43,13.387,-0.869,0.427,-0.428,-2.014,148.324,37.096
10:43:12:431,13.388,-1.201,0.220,0.029,1.181,145.283,41.073
10:43:12:432,13.389,-1.039,-0.293,-0.172,2.235,144.081,46.751
10:43:12:509,13.466,-0.307,-0.607,-0.201,1.894,144.301,49.490
10:43:12:509,13.466,-0.409,-0.534,-0.184,0.952,144.593,51.687
10:43:12:51,13.467,-0.514,-1.287,-0.262,-0.618,144.729,51.119
10:43:12:511,13.468,-0.252,-0.845,-0.163,-2.123,145.710,49.616
10:43:12:641,13.597,-0.331,-0.550,-0.106,-6.146,149.842,42.418
10:43:12:641,13.597,-0.317,-0.350,-0.114,-7.068,152.442,35.657
10:43:12:642,13.598,0.289,0.136,-0.393,-1.098,174.717,-14.739
10:43:12:643,13.599,0.849,0.047,0.214,-0.381,177.910,-10.828
10:43:12:895,13.852,0.139,0.099,0.054,-3.314,-179.472,-2.413
10:43:12:931,13.888,0.098,0.091,0.079,-3.889,-179.338,-1.242
10:43:12:931,13.888,0.079,0.029,-0.002,-4.399,-179.207,0.073
10:43:12:931,13.888,0.032,0.023,-0.001,-4.748,-179.098,0.787
10:43:12:931,13.888,-0.056,0.016,0.056,-6.129,-179.756,5.609
10:43:12:955,13.912,-1.071,0.489,-0.188,-4.124,177.465,32.752
10:43:12:955,13.912,-1.063,0.429,0.205,-2.376,175.232,36.478
10:43:13:,13.957,-0.704,-0.677,0.106,-0.956,173.365,50.983
10:43:13:027,13.984,-0.306,-0.548,0.305,-1.458,174.361,52.753
10:43:13:349,14.306,-0.588,-1.258,0.149,-1.982,174.335,52.532
10:43:13:349,14.306,-0.401,-0.993,-0.030,-2.912,175.295,50.195
10:43:13:35,14.307,-0.193,-0.746,0.102,-3.831,176.931,47.923
10:43:13:351,14.308,-0.336,-0.613,0.175,-4.986,179.821,42.922
10:43:13:612,14.569,-0.367,-0.363,0.194,-5.783,-176.662,36.231
10:43:13:613,14.570,-0.267,-0.121,0.237,-5.697,-174.109,31.059
10:43:13:614,14.571,-0.218,0.160,0.275,-5.033,-170.015,22.486
10:43:13:615,14.572,-0.052,0.693,0.320,-4.334,-167.235,16.230
10:43:13:717,14.674,0.461,0.922,0.317,-2.857,-163.070,6.530
10:43:13:717,14.674,1.290,1.150,0.375,-0.902,-158.973,-2.950
10:43:13:717,14.674,1.654,0.738,0.249,0.476,-156.653,-8.542
10:43:13:718,14.675,0.705,-0.194,-0.262,-0.027,-152.326,-16.851
10:43:14:189,15.146,-1.909,1.011,-0.779,-0.367,-150.504,-14.520
10:43:14:19,15.147,1.288,-0.059,-0.890,0.842,-147.468,-11.475
10:43:14:19,15.147,0.732,0.272,-0.471,0.418,-145.554,-8.821
10:43:14:206,15.163,0.256,0.015,0.106,-2.499,-143.055,-2.833
10:43:14:495,15.452,0.216,-0.031,0.026,-3.292,-142.810,-1.439
10:43:14:522,15.479,-0.055,0.026,-0.069,-3.614,-143.373,0.098
10:43:14:689,15.646,0.021,-0.015,-0.078,-3.945,-143.530,0.805
10:43:14:689,15.646,0.132,0.037,-0.035,-4.589,-143.181,1.634
10:43:14:69,15.647,0.106,-0.014,0.092,-4.984,-143.309,2.155
10:43:14:691,15.648,-0.071,-0.026,0.088,-6.263,-146.048,7.723
10:43:14:819,15.775,-0.023,0.089,-0.005,-6.507,-145.945,9.800
10:43:14:82,15.776,-0.048,0.109,0.031,-6.575,-145.857,11.463
10:43:14:821,15.777,-0.091,0.113,0.017,-6.412,-145.001,14.254
10:43:14:821,15.777,-0.413,0.365,0.997,-0.143,-150.067,40.466
10:43:14:862,15.819,-0.403,-0.212,0.848,0.681,-150.183,46.835
10:43:14:994,15.951,-0.633,-0.700,0.309,-1.359,-149.263,51.538
10:43:15:267,16.224,0.034,-0.329,0.325,-1.894,-148.373,53.037
10:43:15:267,16.224,-0.418,-1.063,0.448,-2.744,-147.427,53.807
10:43:15:267,16.224,-0.214,-1.030,0.263,-3.313,-146.844,52.658
10:43:15:268,16.225,-0.152,-0.774,0.268,-4.373,-144.585,49.648
10:43:15:365,16.322,-0.141,-0.631,0.313,-5.037,-142.595,46.809
10:43:15:366,16.323,0.331,-0.188,-0.231,-3.152,-107.535,0.721
10:43:15:547,16.503,0.029,-0.045,0.187,-3.771,-107.782,2.108
10:43:15:685,16.642,0.059,0.028,-0.060,-4.396,-107.595,3.619
10:43:15:685,16.642,0.016,-0.010,-0.016,-5.041,-107.341,4.876
10:43:15:686,16.643,0.107,0.066,-0.004,-5.557,-107.097,5.522
10:43:15:713,16.670,-0.065,0.137,0.163,-8.055,-106.781,17.334
10:43:15:713,16.670,-0.268,0.391,0.958,-7.398,-105.775,34.539
10:43:15:713,16.670,-0.487,0.316,1.224,-5.992,-108.111,38.168
10:43:15:714,16.671,-0.111,0.297,1.213,-3.102,-112.202,44.123
10:43:15:843,16.800,0.059,-0.151,0.961,-2.164,-112.903,50.195
10:43:15:844,16.801,0.043,-0.357,0.111,-2.982,-112.420,55.668
10:43:15:844,16.801,-0.157,-1.000,0.471,-3.116,-112.714,56.250
10:43:15:844,16.801,-0.039,-1.196,0.541,-3.219,-112.346,54.554
10:43:16:176,17.133,-0.044,-0.886,0.268,-4.192,-111.503,51.201
10:43:16:263,17.219,0.011,-0.407,0.431,-7.217,-105.647,36.974
10:43:16:263,17.219,0.647,1.110,-1.506,-3.777,-92.267,-3.461
10:43:16:264,17.220,-0.343,-0.007,-1.292,-3.452,-85.240,-10.184
10:43:16:265,17.221,-0.242,0.215,-0.452,-3.427,-82.927,-7.739
10:43:16:283,17.239,0.114,0.027,-0.577,-4.413,-81.909,-4.514
10:43:16:312,17.269,0.377,-0.194,-0.299,-5.553,-81.605,-1.939
10:43:16:313,17.270,0.096,0.006,-0.078,-6.271,-81.650,-0.651
10:43:16:314,17.271,0.009,0.103,-0.054,-6.778,-81.841,0.831
10:43:16:343,17.300,0.010,0.080,0.089,-9.498,-81.440,10.612
10:43:16:343,17.300,0.010,0.083,0.050,-9.689,-80.842,11.983
10:43:16:343,17.300,0.084,0.039,0.144,-9.889,-81.265,14.355
10:43:16:344,17.301,-0.037,0.098,0.125,-9.999,-80.941,16.233
10:43:16:413,17.370,-0.072,0.244,0.198,-10.229,-81.245,19.254
10:43:16:474,17.431,0.064,0.222,0.248,-10.457,-81.173,22.582
10:43:16:475,17.432,0.088,0.239,0.322,-10.564,-81.651,25.095
10:43:16:476,17.433,0.067,0.413,0.682,-10.454,-82.838,29.481
10:43:16:476,17.433,0.024,0.435,0.988,-10.071,-84.262,32.806
10:43:16:499,17.456,-0.109,0.372,1.210,-8.308,-87.756,38.266
10:43:16:5,17.457,0.552,0.323,0.961,-3.904,-93.016,44.327
10:43:16:5,17.457,0.536,-0.231,1.377,-2.196,-94.851,48.710
10:43:16:501,17.458,-0.098,-0.345,0.496,-5.270,-94.745,53.653
10:43:16:525,17.482,0.208,1.252,-1.302,-6.115,-83.980,1.187
10:43:16:526,17.483,0.262,0.701,-2.006,-4.849,-82.075,-7.590
10:43:16:527,17.484,0.166,-0.346,-2.487,-3.947,-80.595,-14.088
10:43:16:527,17.484,-0.498,-1.148,-2.290,-3.597,-80.531,-16.372
10:43:16:602,17.558,0.045,-0.105,-1.210,-5.164,-80.735,-16.338
10:43:16:603,17.559,-0.312,1.120,1.824,-5.579,-79.669,-14.479
10:43:16:604,17.560,-0.209,0.001,-1.450,-5.116,-77.286,-11.721
10:43:16:63,17.586,-0.132,0.158,-0.055,-5.342,-75.199,-7.576
10:43:16:634,17.590,-0.007,-0.241,-0.525,-5.592,-75.182,-5.179
10:43:16:635,17.591,0.091,0.041,-0.210,-6.694,-74.507,-2.375
10:43:16:635,17.591,-0.021,0.022,0.036,-7.313,-74.490,-1.045
10:43:16:683,17.640,-0.053,0.064,-0.079,-7.959,-74.914,0.565
10:43:16:684,17.641,0.045,-0.004,-0.068,-8.637,-74.855,1.570
10:43:16:726,17.683,0.040,-0.003,0.007,-10.129,-75.597,3.421
10:43:16:814,17.771,-0.007,0.012,0.005,-10.588,-76.233,4.234
10:43:16:815,17.772,0.073,0.031,0.027,-11.037,-76.991,5.105
10:43:16:816,17.773,0.064,-0.039,0.017,-11.218,-77.515,5.735
10:43:16:816,17.773,0.031,0.033,0.059,-11.494,-78.363,6.787
10:43:17:051,18.008,0.043,-0.017,0.089,-11.553,-78.904,7.572
10:43:17:051,18.008,0.075,-0.026,0.155,-11.620,-79.619,9.154
10:43:17:051,18.008,0.016,0.080,0.095,-11.856,-79.957,10.535
10:43:17:052,18.009,0.004,0.061,0.105,-12.125,-80.989,12.905
10:43:17:076,18.033,0.016,0.098,0.163,-12.235,-81.989,15.649
10:43:17:077,18.034,-0.096,0.135,0.146,-12.292,-82.327,17.744
10:43:17:078,18.035,-0.029,0.235,0.221,-12.413,-83.308,21.180
10:43:17:078,18.035,0.043,0.271,0.334,-12.499,-83.880,23.652
10:43:17:095,18.052,-0.030,0.310,0.486,-12.292,-85.673,27.853
10:43:17:175,18.131,0.075,0.395,0.942,-11.355,-87.938,32.745
10:43:17:208,18.164,-0.241,0.508,1.307,-10.197,-90.315,36.323
10:43:17:208,18.164,0.080,0.157,1.145,-7.192,-94.416,42.282
10:43:17:209,18.165,0.618,0.132,0.969,-4.590,-96.261,46.639
10:43:17:21,18.166,0.000,-0.315,0.444,-6.148,-96.917,51.939
10:43:17:231,18.188,0.146,-0.822,0.810,-7.016,-97.904,54.019
10:43:17:232,18.189,0.434,-0.491,0.266,-6.457,-98.695,55.443
10:43:17:233,18.190,0.037,-1.259,0.597,-5.336,-100.338,54.028
10:43:17:367,18.323,-0.019,-1.103,0.418,-4.779,-100.687,51.936
10:43:17:367,18.323,-0.035,-0.703,0.311,-5.620,-99.831,47.727
10:43:17:368,18.324,-0.049,-0.481,0.329,-6.337,-98.613,43.925
10:43:17:369,18.325,0.011,-0.392,0.342,-6.677,-96.356,37.027
10:43:17:471,18.428,0.089,-0.142,0.394,-6.396,-94.095,28.938
10:43:17:471,18.428,0.073,0.055,0.327,-6.197,-92.267,22.955
10:43:17:471,18.428,0.019,0.559,0.103,-5.678,-89.261,13.294
10:43:17:472,18.429,0.258,0.981,-0.690,-5.113,-86.705,6.735
10:43:17:566,18.523,0.437,1.057,-1.336,-3.765,-81.993,-2.550
10:43:17:621,18.578,0.333,0.343,-1.697,-1.664,-78.372,-10.164
10:43:17:733,18.689,0.257,-0.184,-2.126,-0.696,-76.312,-14.024
10:43:17:733,18.689,-0.660,-0.615,-1.874,-0.449,-74.741,-16.498
10:43:17:734,18.690,0.055,-0.276,-1.539,-1.161,-74.089,-15.799
10:43:17:735,18.691,0.001,1.133,2.339,-1.695,-72.239,-12.840
10:43:17:861,18.818,-0.237,0.057,-0.070,-1.151,-70.545,-11.350
10:43:17:862,18.819,-0.303,0.353,-0.711,-1.140,-67.457,-7.487
10:43:17:862,18.819,-0.036,0.014,-0.205,-2.399,-67.185,-3.937
10:43:17:916,18.873,0.134,-0.514,-0.151,-2.872,-67.032,-2.110
10:43:17:917,18.874,0.040,0.111,-0.171,-4.173,-66.456,-0.086
10:43:17:918,18.875,-0.047,0.056,-0.078,-4.628,-66.350,0.888
10:43:17:918,18.875,0.025,0.118,-0.118,-5.167,-66.130,2.124
10:43:18:046,19.003,-0.032,-0.008,0.012,-5.640,-66.136,3.042
10:43:18:047,19.004,0.103,0.009,-0.068,-5.983,-66.263,3.642
10:43:18:047,19.004,0.054,-0.033,-0.039,-6.312,-66.685,4.488
10:43:18:074,19.031,0.000,0.019,0.043,-6.538,-67.081,4.969
10:43:18:075,19.032,0.103,-0.016,0.032,-6.809,-67.522,5.809
10:43:18:076,19.033,0.048,0.022,0.026,-7.028,-67.391,6.467
10:43:18:076,19.033,0.073,-0.003,0.030,-7.044,-67.565,7.591
10:43:18:199,19.156,0.027,0.029,0.061,-6.972,-67.305,8.819
10:43:18:199,19.156,0.027,0.023,0.063,-6.982,-67.458,9.785
10:43:18:571,19.528,0.033,0.047,0.074,-7.100,-67.355,11.485
10:43:18:571,19.528,0.025,0.076,0.104,-7.178,-67.569,12.753
10:43:18:572,19.529,0.043,0.111,0.146,-7.090,-67.641,15.164
10:43:18:617,19.574,-0.053,0.187,0.275,-6.856,-68.074,18.099
10:43:18:704,19.660,-0.025,0.218,0.288,-6.733,-67.926,20.355
10:43:18:705,19.661,0.173,0.263,0.329,-6.561,-67.934,24.156
10:43:18:706,19.662,0.303,0.437,0.598,-6.278,-68.100,27.006
10:43:18:706,19.662,0.424,0.431,0.766,-5.410,-68.967,31.800
10:43:19:176,20.133,0.431,0.350,1.304,-3.396,-71.556,37.055
10:43:19:177,20.134,0.602,0.154,0.996,-1.333,-73.627,40.835
10:43:19:177,20.134,0.846,-0.060,0.704,0.569,-74.059,46.993
10:43:19:178,20.135,0.581,-0.328,0.643,-0.614,-73.228,50.401
10:43:19:252,20.209,0.133,-0.509,0.208,-1.468,-71.836,53.501
10:43:19:253,20.210,0.530,-0.373,-0.095,-2.242,-70.734,54.373
10:43:19:254,20.211,0.454,-1.222,0.372,-3.467,-69.153,53.544
10:43:19:273,20.230,0.239,-0.800,0.200,-4.433,-66.859,50.826
10:43:19:405,20.362,0.304,-0.707,0.157,-5.239,-64.509,48.123
10:43:20:095,21.052,0.511,-0.569,0.214,-6.242,-60.398,42.757
10:43:20:096,21.053,0.531,-0.305,0.128,-6.703,-57.183,38.371
10:43:20:097,21.054,0.518,-0.128,0.053,-6.639,-52.019,30.779
10:43:20:224,21.181,0.481,0.584,-0.272,-4.956,-43.575,15.822
10:43:20:225,21.182,0.288,0.949,-0.650,-3.382,-39.505,6.093
10:43:20:226,21.183,-0.475,1.027,-1.224,-2.435,-37.210,-0.370
10:43:20:517,21.474,-0.834,0.155,-1.759,-1.326,-36.012,-8.968
10:43:20:517,21.474,-1.484,-0.371,-1.527,-1.611,-36.290,-15.492
10:43:20:518,21.475,-0.954,-0.091,-0.762,-3.775,-36.959,-17.276
10:43:20:519,21.476,0.426,0.474,0.149,-3.720,-35.072,-15.586
10:43:20:535,21.492,-0.304,0.194,0.449,-3.440,-31.772,-12.871
10:43:20:56,21.517,-0.598,0.476,-0.825,-2.977,-27.758,-9.328
10:43:20:638,21.594,0.150,0.001,0.038,-8.588,-27.947,12.089
10:43:21:38,22.337,0.051,0.128,0.070,-8.578,-27.939,14.781
10:43:21:381,22.338,0.052,0.141,0.139,-8.526,-28.684,16.795
10:43:21:381,22.338,0.144,0.226,0.209,-8.370,-28.872,20.051
10:43:21:478,22.435,0.310,0.237,0.090,-8.123,-29.331,22.367
10:43:21:512,22.469,0.382,0.324,0.150,-7.702,-29.596,26.315
10:43:21:513,22.470,0.765,0.430,0.495,-6.983,-30.959,30.939
10:43:21:514,22.471,0.950,0.480,0.810,-6.291,-32.113,34.321
10:43:21:514,22.471,0.656,-1.325,0.089,-6.606,-32.871,54.175
10:43:21:617,22.574,-0.042,-0.022,-0.029,-8.388,5.413,0.688
10:43:21:618,22.575,-0.044,0.072,-0.109,-8.917,5.596,1.186
10:43:21:619,22.576,-0.024,-0.012,-0.146,-9.389,5.291,2.031
10:43:21:62,22.577,0.010,-0.024,0.040,-9.574,4.921,2.595
10:43:21:67,22.627,0.017,0.014,-0.056,-10.090,4.165,4.257
10:43:21:671,22.628,0.085,0.006,-0.046,-10.243,3.782,4.913
10:43:21:671,22.628,0.055,-0.032,0.022,-10.381,3.199,8.577
10:43:21:688,22.645,1.065,0.450,0.091,-9.836,4.511,32.056
10:43:22:037,22.994,1.225,0.388,0.200,-8.514,2.444,35.678
10:43:22:038,22.995,0.983,0.030,-0.300,-4.464,-1.556,41.549
10:43:22:039,22.996,0.823,-0.175,-0.388,-2.949,-2.692,45.875
10:43:22:04,22.997,0.393,-0.397,-0.094,-5.939,-1.968,50.908
10:43:22:064,23.021,0.398,-0.984,-0.058,-9.207,-0.900,50.405
10:43:22:065,23.022,0.007,-0.005,-0.037,-9.216,31.513,3.218
10:43:22:066,23.023,0.018,-0.012,-0.052,-9.439,31.042,3.765
10:43:22:066,23.023,0.129,-0.067,-0.087,-9.541,29.899,6.062
10:43:22:086,23.043,0.082,0.071,0.064,-10.039,30.291,9.377
10:43:22:086,23.043,0.075,0.090,0.018,-10.160,30.694,10.977
10:43:22:588,23.545,0.082,0.119,-0.013,-10.159,30.846,13.639
10:43:22:589,23.546,0.180,0.117,0.077,-10.195,30.985,15.690
10:43:22:59,23.547,0.186,0.252,-0.024,-10.480,30.772,19.170
10:43:22:591,23.548,0.299,0.344,-0.166,-10.649,30.683,23.031
10:43:22:712,23.669,0.627,0.547,-0.290,-10.485,30.075,25.892
10:43:22:896,23.853,0.927,0.510,-0.281,-9.815,28.573,30.733
10:43:23:01,23.967,1.380,0.275,-0.487,-8.000,25.439,36.291
10:43:23:01,23.967,0.786,0.313,-0.523,-6.222,23.395,40.208
10:43:23:011,23.968,0.724,-0.270,-0.799,-5.025,23.136,46.681
10:43:23:012,23.969,0.415,-0.671,-0.535,-6.860,24.315,50.190
10:43:23:14,24.096,0.046,-0.467,-0.030,-8.623,25.830,52.811
10:43:23:141,24.097,0.476,-1.147,-0.249,-9.592,27.264,53.552
10:43:23:142,24.098,-0.246,0.428,-0.376,-5.333,50.029,17.980
10:43:23:163,24.119,-0.885,0.814,0.352,-2.706,55.893,2.809
10:43:23:163,24.119,-1.280,0.707,0.819,-1.712,57.948,-2.795
10:43:23:323,24.280,-1.278,0.122,1.071,0.099,60.959,-9.581
10:43:23:324,24.281,-1.471,-0.409,1.162,0.799,62.269,-12.796
10:43:23:325,24.282,-1.145,-0.460,1.446,1.502,64.897,-15.101
10:43:23:326,24.283,-0.872,-0.199,1.039,0.144,65.542,-14.365
10:43:23:351,24.308,-0.227,0.150,0.498,-0.497,66.225,-12.605
10:43:23:352,24.309,0.033,0.198,-0.291,-0.240,68.881,-9.633
10:43:23:352,24.309,0.012,-0.019,-0.054,-7.617,73.303,5.753
10:43:23:353,24.310,-0.007,0.032,-0.018,-7.846,73.156,6.518
10:43:23:369,24.326,0.000,-0.049,-0.053,-7.736,72.862,7.834
10:43:23:423,24.380,0.030,0.022,-0.037,-7.972,72.638,9.466
10:43:23:424,24.381,0.047,0.299,-0.353,-8.235,71.923,23.454
10:43:23:457,24.414,-0.121,-0.390,-0.166,-7.687,66.886,53.372
10:43:23:457,24.414,0.131,-1.093,-0.566,-8.336,67.079,54.150
10:43:23:457,24.414,0.084,-1.006,-0.308,-8.422,67.196,52.852
10:43:23:458,24.415,0.006,-0.769,-0.333,-8.675,68.625,49.569
10:43:23:478,24.435,0.014,-0.629,-0.380,-8.860,71.019,44.546
10:43:23:479,24.436,-0.002,-0.378,-0.340,-8.700,72.756,40.252
10:43:23:479,24.436,-0.027,-0.268,-0.359,-7.845,75.403,32.705
10:43:23:56,24.517,-0.088,0.103,-0.377,-7.214,77.197,27.059
10:43:23:561,24.518,-0.104,0.370,-0.251,-6.317,80.206,17.703
10:43:23:562,24.519,-0.149,0.917,0.202,-5.469,83.515,7.718
10:43:23:588,24.545,-0.801,-0.380,2.071,-0.618,94.136,-12.930
10:43:23:588,24.545,-0.486,-0.596,1.981,-0.369,95.053,-15.187
10:43:23:588,24.545,-0.161,-0.297,1.483,-0.516,96.954,-15.489
10:43:23:589,24.546,-0.221,-0.114,1.161,-1.462,97.161,-13.938
10:43:23:614,24.571,0.823,0.756,-1.847,-2.034,98.879,-10.543
10:43:23:614,24.571,0.215,0.014,1.430,-1.623,101.156,-8.025
10:43:23:615,24.572,-0.090,0.172,0.803,-2.074,102.460,-5.957
10:43:23:616,24.573,-0.302,-0.276,0.206,-2.961,103.974,-3.464
10:43:23:686,24.642,-0.071,0.111,0.085,-3.572,104.627,-2.195
10:43:23:686,24.642,-0.098,0.009,0.111,-4.849,104.620,-0.637
10:43:23:719,24.676,-0.016,-0.012,0.053,-5.679,104.566,0.433
10:43:23:719,24.676,0.103,-0.017,0.104,-6.226,104.548,0.992
10:43:23:719,24.676,-0.051,-0.009,0.079,-7.045,104.248,1.791
10:43:23:72,24.677,-0.035,-0.011,0.039,-7.451,103.757,2.292
10:43:23:737,24.694,-0.009,-0.029,0.038,-8.010,103.051,2.990
10:43:23:738,24.695,-0.030,-0.001,0.011,-8.384,102.576,3.503
10:43:23:895,24.851,-0.033,-0.008,-0.014,-8.863,101.919,4.336
10:43:23:896,24.852,-0.021,0.002,0.023,-9.173,101.348,5.403
10:43:24:076,25.033,-0.068,-0.012,-0.055,-9.282,100.911,6.234
10:43:24:111,25.068,-0.036,0.004,-0.062,-9.673,100.353,7.770
10:43:24:112,25.069,0.063,0.086,-0.008,-10.113,99.993,9.723
10:43:24:113,25.070,0.023,0.081,-0.058,-10.240,99.694,11.189
10:43:24:366,25.323,0.143,0.141,-0.208,-10.318,99.047,15.692
10:43:24:426,25.383,-0.041,0.257,-0.209,-10.375,99.176,19.059
10:43:24:427,25.384,-0.109,0.358,-0.343,-10.468,98.921,21.612
10:43:24:445,25.402,0.178,0.500,-1.315,-8.874,93.064,35.350
10:43:24:471,25.428,-0.259,0.347,-0.971,-7.389,89.650,41.772
10:43:24:558,25.515,-0.428,0.111,-0.891,-6.582,88.460,46.082
10:43:24:558,25.515,-0.111,-0.311,-0.384,-7.774,87.669,50.955
10:43:24:559,25.516,0.217,-0.489,0.004,-7.378,86.903,52.884
10:43:24:585,25.542,-0.093,-1.181,-0.333,-7.159,85.873,50.824
10:43:24:585,25.542,-0.018,-0.884,-0.274,-7.304,85.999,48.298
10:43:24:586,25.543,-0.025,-0.725,-0.282,-8.259,87.701,43.134
10:43:24:586,25.543,-0.064,-0.492,-0.373,-8.843,89.971,36.395
10:43:24:847,25.803,-0.059,-0.300,-0.304,-8.887,91.819,31.139
10:43:24:848,25.804,-0.129,0.018,-0.321,-8.487,94.592,22.290
10:43:24:849,25.805,-0.096,0.266,-0.206,-8.037,96.624,15.817
10:43:24:952,25.909,-0.081,1.148,1.357,-6.400,101.792,-3.878
10:43:24:953,25.910,-0.111,0.930,1.679,-5.710,102.325,-9.706
10:43:24:954,25.911,0.056,-0.250,1.936,-4.752,102.435,-16.510
10:43:24:955,25.912,0.017,-0.760,2.038,-4.804,102.488,-19.164
10:43:24:978,25.935,0.622,-0.623,1.627,-5.385,102.652,-19.800
10:43:24:979,25.936,0.037,0.287,0.420,-6.050,103.027,-18.163
10:43:24:979,25.936,0.460,0.462,-1.015,-6.242,104.708,-15.447
10:43:24:98,25.937,0.714,0.175,1.576,-5.559,107.743,-12.188
10:43:25:004,25.961,0.282,0.154,0.265,-5.781,108.612,-9.769
10:43:25:004,25.961,0.011,-0.250,0.201,-6.270,109.118,-6.548
10:43:25:005,25.962,-0.016,0.055,0.198,-6.911,109.305,-5.015
10:43:25:006,25.963,0.029,-0.008,0.217,-7.585,109.442,-3.263
10:43:25:076,26.033,0.014,-0.019,0.064,-8.200,109.204,-1.969
10:43:25:135,26.092,-0.005,-0.023,0.153,-8.654,109.279,-1.347
10:43:25:136,26.093,0.000,0.052,0.089,-9.422,109.014,-0.586
10:43:25:214,26.170,-0.020,-0.005,0.031,-10.736,107.247,1.188
10:43:25:215,26.171,-0.038,0.026,0.021,-11.093,106.694,1.736
10:43:25:216,26.172,-0.002,-0.003,0.022,-11.457,106.016,2.643
10:43:25:217,26.173,-0.049,0.015,-0.027,-11.690,105.559,3.357
10:43:25:389,26.346,-0.029,-0.021,-0.039,-11.829,104.942,4.621
10:43:25:577,26.533,0.008,0.005,-0.036,-11.939,104.692,5.689
10:43:25:578,26.534,0.016,0.033,-0.016,-12.366,104.478,7.583
10:43:25:651,26.608,-0.037,0.016,-0.077,-12.724,104.189,9.783
10:43:25:817,26.774,-0.100,0.116,-0.056,-12.938,103.992,11.508
10:43:25:818,26.775,0.114,0.176,-0.113,-13.205,103.486,14.550
10:43:25:819,26.776,0.075,0.255,-0.125,-13.396,103.083,16.804
10:43:25:82,26.777,0.001,0.306,-0.248,-13.523,102.244,20.520
10:43:25:923,26.880,-0.016,0.459,-0.460,-13.444,101.085,24.789
10:43:25:923,26.880,-0.089,0.484,-0.680,-13.249,99.698,28.024
10:43:25:924,26.881,0.122,0.545,-1.203,-12.435,96.060,33.501
10:43:25:925,26.882,-0.217,0.215,-1.005,-11.118,92.431,37.573
10:43:25:95,26.906,-0.342,0.411,-0.807,-8.685,87.647,44.002
10:43:25:95,26.906,-0.183,-0.236,-0.501,-8.121,86.041,47.888
10:43:25:951,26.907,0.017,-0.874,-0.677,-8.064,84.027,51.353
10:43:25:951,26.907,-0.633,-0.224,0.138,-8.397,82.905,52.406
10:43:25:976,26.932,0.240,-1.146,-0.408,-8.146,81.710,51.671
10:43:25:976,26.932,0.145,-1.059,-0.439,-7.030,80.057,48.310
10:43:25:977,26.933,0.156,-0.707,-0.262,-7.334,79.924,45.333
10:43:25:978,26.934,0.174,-0.604,-0.308,-8.276,80.818,39.677
10:43:26:001,26.958,0.100,-0.377,-0.333,-8.987,82.557,32.592
10:43:26:002,26.959,0.066,-0.258,-0.275,-9.124,83.986,27.158
10:43:26:003,26.960,0.023,0.150,-0.126,-9.052,86.078,18.174
10:43:26:004,26.961,-0.060,0.712,0.775,-8.292,88.987,2.327
10:43:26:054,27.011,-0.387,0.877,1.646,-7.178,91.240,-6.152
10:43:26:058,27.015,0.492,-0.097,1.728,-3.701,103.701,-12.719
10:43:26:058,27.015,-0.043,-0.326,0.188,-4.997,105.564,-6.908
10:43:26:058,27.015,-0.053,0.147,0.330,-6.023,106.215,-4.508
10:43:26:08,27.037,0.070,0.118,0.093,-6.596,105.955,-3.384
10:43:26:081,27.038,0.040,0.019,0.018,-7.131,105.774,-1.974
10:43:26:081,27.038,-0.010,-0.013,0.094,-7.703,106.192,-0.820
10:43:26:082,27.039,0.007,0.051,0.105,-8.083,106.346,-0.147
10:43:26:106,27.063,0.005,-0.015,0.071,-8.364,106.005,0.860
10:43:26:107,27.064,0.004,-0.030,0.016,-8.621,105.823,1.797
10:43:26:108,27.065,0.022,-0.007,0.045,-8.840,106.020,2.408
10:43:26:109,27.066,0.017,-0.029,0.026,-9.093,106.107,3.375
10:43:26:126,27.083,-0.022,0.046,0.048,-9.294,106.094,4.017
10:43:26:127,27.084,-0.018,0.031,0.018,-9.726,105.961,5.053
10:43:26:15,27.107,-0.030,0.035,0.029,-9.931,105.893,5.801
10:43:26:206,27.162,0.001,0.066,0.003,-10.142,105.695,7.153
10:43:26:207,27.163,-0.045,0.012,-0.056,-10.293,105.216,8.804
10:43:26:229,27.185,-0.017,0.073,-0.079,-10.465,104.815,10.148
10:43:26:254,27.211,0.012,0.113,-0.086,-10.709,104.035,12.645
10:43:26:369,27.326,0.059,0.124,-0.075,-10.736,103.574,14.536
10:43:26:369,27.326,0.035,0.259,-0.140,-10.729,102.892,17.729
10:43:26:37,27.327,-0.016,0.346,-0.324,-10.451,102.052,21.325
10:43:26:37,27.327,-0.135,0.441,-0.470,-10.155,101.546,23.944
10:43:26:385,27.342,-0.108,0.519,-0.786,-9.528,100.154,28.435
10:43:26:472,27.429,-0.034,0.315,-0.994,-8.775,98.335,31.769
10:43:26:472,27.429,-0.104,0.108,-0.715,-6.574,93.968,37.210
10:43:26:472,27.429,-0.620,0.086,-0.843,-4.258,90.782,41.032
10:43:26:599,27.556,-0.276,-0.119,-0.977,-4.505,88.584,46.202
10:43:26:599,27.556,-0.031,-0.685,-0.593,-4.625,87.323,49.313
10:43:26:79,27.746,-0.555,-0.485,-0.111,-4.227,86.464,50.354
10:43:26:791,27.748,0.103,-1.010,-0.529,-4.392,85.226,49.981
10:43:26:791,27.748,0.123,-0.999,-0.399,-4.409,84.696,48.339
10:43:26:792,27.748,0.012,-0.711,-0.226,-4.991,85.132,44.963
10:43:26:808,27.764,-0.039,-0.613,-0.232,-6.190,86.862,40.064
10:43:26:893,27.850,-0.029,-0.445,-0.416,-7.178,88.589,35.862
10:43:26:894,27.851,-0.101,-0.209,-0.327,-7.724,91.766,28.401
10:43:26:895,27.852,-0.115,0.084,-0.236,-7.688,94.079,22.828
10:43:26:896,27.853,-0.097,0.431,-0.085,-7.213,97.402,13.680
10:43:26:92,27.877,-0.055,0.902,0.297,-6.418,100.641,4.196
10:43:26:92,27.877,-0.099,1.090,1.049,-5.746,103.059,-1.636
10:43:26:921,27.878,-0.149,0.440,1.739,-3.962,105.826,-10.107
10:43:26:922,27.879,-0.022,-0.352,1.988,-2.964,107.330,-14.361
10:43:26:944,27.901,0.121,-0.815,2.039,-2.830,108.436,-18.060
10:43:26:945,27.902,0.338,-0.317,1.418,-2.961,109.586,-18.541
10:43:26:945,27.902,0.072,0.386,-0.218,-3.601,111.268,-16.224
10:43:26:993,27.950,0.062,0.278,-0.533,-2.771,114.449,-13.573
10:43:26:994,27.951,0.932,-0.009,1.249,-2.082,117.544,-11.506
10:43:27:022,27.979,0.254,0.082,0.355,-2.654,118.939,-8.111
10:43:27:022,27.979,-0.004,-0.072,0.148,-3.398,118.808,-6.132
10:43:27:07,28.027,-0.043,0.000,0.180,-4.169,119.427,-4.360
10:43:27:095,28.052,0.002,0.048,0.076,-5.044,119.647,-3.072
10:43:27:122,28.079,0.072,0.044,0.122,-5.502,119.642,-2.373
10:43:27:175,28.131,-0.002,0.002,0.080,-6.157,119.602,-1.606
10:43:27:206,28.162,-0.008,-0.002,0.086,-6.611,119.537,-1.217
10:43:27:206,28.162,0.001,0.031,0.087,-7.211,119.082,-0.714
10:43:27:207,28.163,-0.032,-0.050,0.048,-7.534,118.582,-0.393
10:43:27:225,28.182,-0.010,-0.009,0.038,-7.945,117.926,0.142
10:43:27:251,28.208,-0.012,-0.006,0.016,-8.324,117.267,0.814
10:43:27:337,28.294,-0.015,0.013,0.042,-8.573,116.919,1.334
10:43:27:337,28.294,-0.057,0.043,0.016,-8.785,116.230,2.144
10:43:27:338,28.295,-0.033,-0.008,-0.067,-8.883,115.658,2.837
10:43:27:384,28.341,-0.066,-0.013,-0.078,-9.053,115.290,4.227
10:43:27:44,28.397,-0.021,0.022,0.010,-9.325,115.407,6.093
10:43:27:441,28.398,-0.086,0.013,-0.044,-9.483,115.401,7.565
10:43:27:516,28.473,0.040,0.146,-0.033,-9.552,115.464,10.148
10:43:27:627,28.584,0.072,0.152,-0.085,-9.525,115.411,12.061
10:43:27:627,28.584,0.039,0.200,-0.104,-9.442,115.127,15.235
10:43:27:628,28.585,-0.059,0.291,-0.230,-9.351,114.489,18.828
10:43:27:782,28.739,-0.176,0.420,-0.335,-9.154,113.800,21.489
10:43:27:782,28.739,-0.180,0.577,-0.682,-8.548,112.059,26.025
10:43:27:996,28.953,-0.094,0.443,-1.374,-7.620,110.015,29.427
10:43:27:996,28.953,-0.142,0.068,-1.100,-5.121,106.580,34.960
10:43:27:997,28.954,-0.777,0.196,-0.396,-2.806,105.102,39.109
10:43:27:998,28.955,-0.850,-0.059,-0.690,-4.345,106.307,44.835
10:43:28:066,29.023,-0.353,-0.656,-0.529,-6.949,108.585,48.514
10:43:28:153,29.109,-0.438,-0.325,0.079,-7.401,110.070,49.862
10:43:28:153,29.109,-0.468,-1.084,-0.349,-8.054,112.194,50.330
10:43:28:153,29.109,-0.500,-1.125,-0.277,-8.274,113.980,49.035
10:43:28:206,29.163,-0.375,-0.703,-0.134,-8.363,117.289,46.146
10:43:28:206,29.163,-0.439,-0.566,-0.090,-7.802,121.340,41.788
10:43:28:207,29.164,-0.543,-0.513,-0.132,-7.065,124.097,37.909
10:43:28:208,29.165,-0.512,-0.235,-0.098,-5.442,128.138,30.897
10:43:28:233,29.190,-0.534,-0.004,0.004,-4.203,130.646,25.738
10:43:28:234,29.191,-0.516,0.239,0.055,-2.498,134.361,17.162
10:43:28:234,29.191,-0.361,0.826,0.283,-1.545,136.758,10.986
10:43:28:313,29.270,0.865,0.800,1.475,1.125,146.134,-7.419
10:43:28:314,29.271,0.866,-0.015,1.727,2.072,148.100,-12.435
10:43:28:314,29.271,1.642,-0.744,1.618,3.010,150.025,-17.914
10:43:28:315,29.272,1.332,-0.630,0.943,2.853,150.043,-19.052
10:43:28:337,29.294,0.998,-0.064,0.805,1.610,151.237,-17.586
10:43:28:338,29.295,-1.083,1.144,-1.779,1.525,153.754,-14.336
10:43:28:339,29.296,1.322,-0.159,0.727,2.291,155.614,-12.469
10:43:28:34,29.297,0.477,0.334,-0.033,1.268,157.565,-8.503
10:43:28:356,29.313,0.025,-0.342,0.262,0.518,157.654,-6.402
10:43:28:383,29.340,0.393,-0.086,0.278,-0.197,159.192,-4.037
10:43:28:417,29.374,0.156,0.028,0.048,-1.237,159.774,-2.550
10:43:28:418,29.375,0.113,0.131,0.112,-1.694,159.651,-1.764
10:43:28:418,29.375,0.021,-0.006,0.068,-2.291,159.212,-0.914
10:43:28:419,29.376,0.034,0.019,0.109,-2.810,159.262,-0.527
10:43:28:461,29.418,-0.018,0.004,0.162,-3.349,159.003,0.019
10:43:28:486,29.443,-0.029,-0.017,0.020,-3.623,158.570,0.333
10:43:28:568,29.525,0.022,-0.014,0.007,-3.957,157.997,0.826
10:43:28:568,29.525,-0.004,-0.011,0.033,-4.364,157.623,1.428
10:43:28:592,29.549,-0.058,-0.018,0.068,-4.640,157.373,1.892
10:43:28:705,29.662,-0.039,-0.045,0.071,-4.879,157.310,2.643
10:43:28:705,29.662,-0.064,-0.023,0.022,-5.036,157.254,3.225
10:43:28:706,29.663,-0.215,-0.060,-0.003,-5.351,156.997,4.519
10:43:28:707,29.664,-0.115,0.008,-0.007,-5.605,157.142,5.790
10:43:28:864,29.821,-0.030,0.115,0.000,-5.893,157.669,8.374
10:43:28:864,29.821,-0.036,0.205,0.001,-5.890,157.978,11.340
10:43:28:865,29.822,-0.173,0.203,-0.162,-5.675,157.809,13.497
10:43:28:968,29.925,-0.488,0.445,-0.086,-4.758,157.341,21.750
10:43:28:969,29.926,-0.741,0.571,-0.132,-4.351,156.670,25.052
10:43:28:97,29.927,-1.062,0.666,-0.737,-3.440,155.032,30.504
10:43:28:97,29.927,-1.210,0.285,-0.617,-2.083,153.000,34.505
10:43:29:091,30.048,-1.131,0.124,-0.026,1.269,150.386,40.848
10:43:29:126,30.083,-0.839,-0.191,0.109,0.683,151.445,45.046
10:43:29:126,30.083,-0.457,-0.705,-0.358,-1.593,152.993,49.647
10:43:29:127,30.084,-0.107,-0.419,0.616,-2.948,155.018,51.181
10:43:29:128,30.085,-0.755,-1.229,-0.008,-4.340,156.094,51.040
10:43:29:151,30.108,-0.363,-0.947,0.034,-5.640,158.519,48.237
10:43:29:152,30.109,-0.269,-0.695,0.211,-6.713,160.791,45.717
10:43:29:153,30.110,-0.393,-0.627,0.170,-6.932,164.720,40.396
10:43:29:154,30.111,-0.488,-0.326,0.169,-6.510,168.719,33.373
10:43:29:178,30.135,-0.381,-0.144,0.262,-5.874,171.497,28.120
10:43:29:179,30.136,-0.271,0.224,0.361,-4.421,175.591,19.399
10:43:29:179,30.136,-0.102,0.699,0.344,-3.315,177.911,13.019
10:43:29:18,30.137,0.232,0.908,0.540,-1.779,-179.490,2.980
10:43:29:199,30.156,1.392,1.057,0.595,-1.090,-177.527,-3.568
10:43:29:199,30.156,1.424,0.700,0.459,-0.920,-177.407,-12.411
10:43:29:253,30.209,2.080,-0.482,0.585,-0.554,-177.483,-18.647
10:43:29:254,30.210,2.247,-0.952,0.084,-0.656,-177.724,-20.434
10:43:29:255,30.211,1.226,-0.062,0.061,-1.677,-176.288,-19.629
10:43:29:274,30.230,-0.386,0.719,-0.602,-1.970,-175.076,-17.225
10:43:29:387,30.344,0.731,0.393,-0.018,-1.704,-172.959,-13.661
10:43:29:388,30.345,0.814,0.334,-0.294,-1.567,-169.656,-9.488
10:43:29:571,30.528,0.212,0.040,0.126,-3.412,-168.202,-2.786
10:43:29:572,30.529,0.032,0.067,-0.087,-4.098,-168.402,-1.131
10:43:29:573,30.530,0.027,-0.041,0.092,-4.756,-168.705,0.138
10:43:29:574,30.531,0.162,0.013,0.134,-5.269,-168.546,0.689
10:43:29:703,30.660,0.052,0.007,0.117,-5.789,-168.688,1.328
10:43:29:703,30.660,0.011,0.010,0.095,-5.958,-168.965,1.743
10:43:29:704,30.661,0.022,-0.040,0.032,-6.189,-169.294,2.371
10:43:29:705,30.662,-0.001,0.017,0.077,-6.396,-169.543,2.838
10:43:29:827,30.784,0.003,-0.011,0.088,-6.680,-170.112,3.606
10:43:29:991,30.948,0.012,-0.006,0.026,-6.941,-170.549,4.490
10:43:29:992,30.949,-0.057,0.009,0.077,-7.093,-170.851,5.105
10:43:29:993,30.950,-0.112,-0.058,0.070,-6.985,-171.120,6.211
10:43:29:993,30.950,-0.142,-0.028,0.042,-6.950,-171.151,7.187
10:43:30:009,30.966,-0.069,0.068,0.048,-7.147,-170.794,9.180
10:43:30:255,31.212,-0.034,0.148,0.123,-7.427,-170.501,11.705
10:43:30:255,31.212,-0.006,0.146,0.043,-7.514,-170.558,13.635
10:43:30:281,31.237,-0.452,0.434,0.177,-7.286,-172.385,23.448
10:43:30:281,31.237,-0.769,0.506,0.102,-6.919,-173.096,26.565
10:43:30:282,31.238,-1.013,0.410,0.024,-5.714,-175.015,31.689
10:43:30:283,31.239,-1.355,0.223,0.193,-3.392,-178.581,37.223
10:43:30:352,31.309,-0.960,0.334,0.694,-1.086,178.859,41.330
10:43:30:483,31.440,-0.954,-0.259,0.556,-0.051,177.976,47.494
10:43:30:777,31.734,-0.558,-0.596,0.210,-1.268,178.294,50.856
10:43:30:777,31.734,0.014,-0.295,0.586,-2.394,179.452,53.115
10:43:30:778,31.735,-0.589,-1.172,0.057,-3.715,179.721,53.219
10:43:30:823,31.780,-0.458,-1.235,0.112,-3.679,179.942,51.580
10:43:30:98,31.937,-0.247,-0.676,0.125,-4.731,-178.068,48.107
10:43:31:084,32.041,-0.334,-0.647,0.151,-5.628,-176.122,44.775
10:43:31:117,32.074,-0.320,-0.383,0.130,-6.736,-172.817,38.274
10:43:31:117,32.074,-0.269,-0.164,0.194,-6.549,-169.431,30.537
10:43:31:377,32.333,-0.268,0.008,0.212,-6.120,-167.342,24.874
10:43:31:378,32.334,-0.042,0.469,0.127,-5.311,-163.805,15.620
10:43:31:429,32.386,0.161,0.809,0.075,-4.346,-161.748,9.075
10:43:31:43,32.387,1.129,0.992,0.224,-2.361,-158.985,-0.738
10:43:31:48,32.437,1.692,0.702,0.139,-1.031,-157.414,-6.785
10:43:31:514,32.471,2.502,-0.324,0.203,1.222,-155.332,-14.187
10:43:31:515,32.472,2.246,-1.150,-1.012,1.754,-153.908,-18.580
10:43:31:515,32.472,1.530,-0.500,-0.521,1.090,-153.447,-19.084
10:43:31:776,32.733,-1.091,0.613,-0.282,0.201,-150.045,-14.033
10:43:31:803,32.760,0.192,0.017,0.044,-2.079,-143.020,-0.842
10:43:31:804,32.761,0.010,-0.026,0.066,-5.250,-144.564,4.732
10:43:31:805,32.762,-0.010,0.031,0.166,-5.520,-145.113,5.674
10:43:31:805,32.762,-0.092,-0.047,0.153,-5.502,-145.487,6.457
10:43:31:82,32.777,-0.111,0.022,0.061,-5.636,-145.683,8.171
10:43:32:301,33.258,-1.273,0.562,0.586,-3.700,-148.186,33.874
10:43:32:302,33.259,-0.531,-0.248,1.113,2.713,-153.275,46.293
10:43:32:303,33.260,0.054,-0.347,-0.077,-0.209,-151.087,49.948
10:43:32:33,33.286,0.160,0.405,0.408,-4.283,-127.339,21.425
10:43:32:33,33.286,0.225,0.642,0.244,-3.116,-123.497,12.120
10:43:32:331,33.287,0.965,1.047,-0.488,-1.666,-119.796,2.584
10:43:32:332,33.288,1.167,0.967,-0.678,-0.548,-117.925,-3.435
10:43:32:582,33.539,1.492,-0.138,-1.048,1.660,-113.486,-14.380
10:43:32:714,33.670,0.912,-0.492,-1.501,1.994,-111.853,-16.817
10:43:32:749,33.706,0.842,-0.131,-0.896,0.606,-111.606,-15.383
10:43:32:749,33.706,-0.937,1.005,1.567,0.502,-110.019,-13.033
10:43:32:75,33.707,0.287,-0.125,-1.651,0.797,-107.783,-10.496
10:43:32:75,33.707,0.014,0.087,-0.068,-3.451,-103.205,1.722
10:43:33:826,34.782,0.032,-0.007,0.011,-4.092,-103.457,2.633
10:43:33:826,34.782,0.116,0.007,-0.015,-4.625,-103.312,3.192
10:43:33:826,34.782,0.114,-0.023,0.029,-5.109,-103.587,4.056
10:43:33:827,34.783,-0.020,-0.082,0.084,-5.539,-104.007,4.835
10:43:33:981,34.938,0.013,-0.007,0.058,-5.758,-103.921,5.412
10:43:33:982,34.939,0.043,0.000,-0.014,-5.983,-103.570,6.355
10:43:33:983,34.940,-0.003,-0.024,0.067,-6.135,-103.635,7.070
10:43:33:983,34.940,0.036,0.005,0.087,-6.262,-103.699,8.218
10:43:34:009,34.966,0.032,-0.218,1.198,0.346,-115.145,46.244
10:43:34:009,34.966,-0.076,-0.287,0.658,-0.530,-115.120,50.137
10:43:34:009,34.966,-0.135,-0.550,0.380,-1.846,-114.503,53.774
10:43:34:01,34.967,0.076,-0.805,0.451,-2.834,-113.468,54.604
10:43:34:109,35.066,0.000,-1.386,0.631,-3.710,-113.476,54.124
10:43:34:109,35.066,-0.160,-0.880,0.235,-5.180,-112.123,50.546
10:43:34:134,35.091,0.022,-0.610,0.294,-6.464,-109.906,45.462
10:43:34:134,35.091,0.026,-0.544,0.341,-7.104,-108.193,41.137
10:43:34:241,35.198,0.553,-0.184,-1.561,-1.056,-90.543,-15.406
10:43:34:242,35.199,0.480,-0.137,-0.980,-2.357,-90.002,-14.516
10:43:34:242,35.199,-1.155,1.228,1.807,-3.073,-89.006,-12.085
10:43:34:262,35.219,-0.201,-0.006,-1.799,-2.545,-86.980,-9.841
10:43:34:55,35.506,-0.181,0.228,-0.329,-3.578,-86.247,-6.028
10:43:34:692,35.648,0.115,-0.232,-0.105,-4.071,-85.837,-3.839
10:43:34:692,35.648,0.363,0.282,-1.945,-3.312,-86.017,-12.562
10:43:34:693,35.649,0.373,-0.408,-1.971,-3.293,-86.364,-16.440
10:43:34:694,35.650,-0.283,-0.626,-1.744,-4.025,-87.103,-18.258
10:43:35:084,36.041,0.040,-0.102,-1.357,-4.954,-87.112,-17.141
10:43:35:084,36.041,-0.600,-0.166,-1.188,-4.925,-82.050,-8.298
10:43:35:085,36.042,0.028,0.083,-0.902,-4.817,-79.478,-5.251
10:43:35:086,36.043,-0.428,0.472,-0.475,-5.706,-79.166,-3.288
10:43:35:216,36.172,0.130,-0.252,-0.282,-6.222,-78.862,-1.192
10:43:35:216,36.172,0.088,0.045,-0.150,-7.058,-78.931,0.358
10:43:35:217,36.173,-0.010,0.021,-0.052,-7.461,-79.315,1.175
10:43:35:241,36.198,0.018,0.003,0.012,-8.362,-79.722,2.223
10:43:35:242,36.199,0.079,0.010,0.021,-8.841,-80.171,2.676
10:43:35:242,36.199,0.056,-0.032,0.017,-9.140,-80.598,2.992
10:43:35:243,36.200,0.017,-0.003,0.022,-9.626,-81.258,3.501
10:43:35:391,36.348,0.116,-0.005,0.090,-10.106,-81.859,4.180
10:43:35:452,36.409,0.130,0.026,0.056,-10.421,-82.158,4.734
10:43:35:453,36.410,0.030,-0.008,0.150,-10.658,-82.743,5.825
10:43:35:454,36.411,0.031,-0.042,0.156,-10.769,-83.234,6.818
10:43:35:454,36.411,-0.010,0.018,0.092,-11.185,-83.452,8.801
10:43:35:497,36.454,0.346,0.138,1.047,-5.735,-97.461,47.458
10:43:35:531,36.488,0.159,-0.311,0.985,-6.634,-98.567,52.896
10:43:35:532,36.489,-0.013,-0.345,0.087,-7.204,-98.643,55.744
10:43:35:532,36.489,0.609,-0.471,0.349,-7.737,-99.005,56.456
10:43:35:559,36.515,0.238,-0.493,-1.587,-2.575,-83.096,-18.636
10:43:35:559,36.515,0.178,0.008,-1.143,-3.493,-82.511,-16.595
10:43:35:559,36.515,-0.290,1.187,2.488,-3.438,-79.401,-12.526
10:43:35:559,36.515,-0.531,0.140,-1.148,-2.441,-76.526,-9.884
10:43:35:707,36.664,-0.061,-0.073,-0.135,-4.353,-71.571,-2.472
10:43:35:766,36.723,0.006,0.127,-0.168,-5.420,-71.385,-0.461
10:43:35:767,36.724,0.051,0.009,0.000,-5.854,-71.658,0.559
10:43:35:768,36.725,-0.120,-0.042,-0.036,-6.351,-72.058,1.663
10:43:35:769,36.726,0.029,-0.028,-0.015,-7.006,-72.105,2.460
10:43:35:784,36.741,0.134,0.011,-0.028,-7.454,-72.121,3.020
10:43:35:95,36.906,0.004,0.010,0.041,-7.870,-72.519,3.970
10:43:35:951,36.907,-0.023,0.009,0.057,-8.033,-72.922,4.627
10:43:35:952,36.908,0.073,0.034,0.030,-8.714,-74.601,6.723
10:43:35:953,36.909,0.070,0.004,0.063,-8.810,-75.539,7.472
10:43:36:08,37.037,0.046,-0.015,0.168,-8.815,-76.056,8.775
10:43:36:081,37.038,0.049,-0.052,0.119,-8.954,-76.871,9.972
10:43:36:081,37.038,0.036,0.025,0.130,-9.328,-77.012,12.208
10:43:36:186,37.143,0.027,0.144,0.085,-9.526,-77.519,13.959
10:43:36:186,37.143,-0.022,0.113,0.090,-9.704,-77.620,16.824
10:43:36:23,37.187,0.173,0.377,0.441,-9.515,-79.105,26.419
10:43:36:317,37.274,0.140,0.494,0.813,-9.018,-79.946,29.505
10:43:36:317,37.274,-0.100,0.549,1.268,-7.625,-82.434,34.530
10:43:36:317,37.274,0.155,0.038,1.299,-4.324,-86.678,40.193
10:43:36:363,37.320,0.584,0.192,1.110,-1.282,-89.253,44.332
10:43:36:399,37.356,0.402,-0.368,0.941,-2.235,-88.548,50.507
10:43:36:399,37.356,0.220,-0.730,0.722,-4.077,-88.147,53.505
10:43:36:399,37.356,0.373,-0.322,-0.045,-5.058,-86.774,55.302
10:43:36:4,37.357,0.211,-1.195,0.536,-6.387,-86.285,55.223
10:43:36:467,37.424,0.286,-1.286,0.382,-6.622,-85.380,53.428
10:43:36:528,37.485,0.132,-0.719,0.226,-7.604,-82.997,49.803
10:43:36:528,37.485,0.169,-0.676,0.208,-7.998,-80.783,46.442
10:43:36:529,37.486,0.345,-0.480,0.341,-8.005,-77.242,40.050
10:43:36:53,37.487,0.344,-0.303,0.329,-7.553,-74.752,34.980
10:43:36:659,37.616,0.389,-0.044,0.271,-6.652,-70.915,26.610
10:43:36:659,37.616,0.351,0.408,0.182,-5.566,-66.822,17.327
10:43:36:66,37.617,0.325,0.864,-0.058,-4.764,-64.147,10.812
10:43:36:661,37.618,-0.406,-0.181,-2.426,-1.099,-56.644,-12.487
10:43:36:74,37.697,-1.633,-0.932,-1.981,-1.057,-56.705,-16.858
10:43:36:74,37.697,-0.414,-0.349,-1.207,-2.278,-56.939,-17.226
10:43:36:741,37.698,0.283,0.560,0.351,-3.245,-55.992,-14.625
10:43:36:741,37.698,-0.325,0.716,1.758,-3.083,-54.463,-12.474
10:43:36:765,37.722,-0.593,0.185,-0.911,-2.857,-50.722,-8.678
10:43:36:766,37.723,-0.185,-0.128,-0.620,-3.838,-49.386,-5.011
10:43:36:766,37.723,-0.250,-0.028,-0.481,-4.549,-48.684,-2.874
10:43:36:766,37.723,0.140,0.013,-0.043,-5.707,-48.769,-0.801
10:43:36:791,37.747,-0.010,0.096,0.092,-6.330,-48.683,0.203
10:43:36:791,37.747,0.041,0.008,0.011,-7.074,-48.966,1.430
10:43:36:792,37.748,0.027,0.024,-0.021,-7.665,-48.835,2.030
10:43:36:793,37.749,0.013,0.051,-0.062,-8.148,-48.911,2.692
10:43:37:048,38.005,0.052,-0.009,0.003,-8.324,-49.550,3.342
10:43:37:048,38.005,0.021,-0.021,0.036,-8.460,-49.096,3.735
10:43:37:071,38.028,0.039,-0.019,-0.004,-8.821,-49.637,4.276
10:43:37:342,38.299,0.064,-0.017,0.035,-9.035,-49.446,4.676
10:43:37:342,38.299,0.066,0.052,0.018,-9.248,-50.077,5.415
10:43:37:343,38.300,0.143,0.001,0.106,-9.299,-49.997,6.035
10:43:37:344,38.301,0.207,-0.045,0.177,-9.299,-50.627,7.339
10:43:37:7,38.657,0.009,0.048,0.090,-9.549,-50.162,9.255
10:43:38:418,39.374,0.026,0.085,0.067,-9.768,-49.948,10.808
10:43:38:419,39.375,0.097,0.077,0.078,-9.896,-49.279,13.315
10:43:38:42,39.376,0.059,0.111,0.141,-9.854,-49.137,15.121
10:43:38:42,39.376,-0.002,0.132,0.233,-9.761,-48.754,18.246
10:43:38:541,39.498,0.173,0.275,0.224,-9.755,-48.624,21.831
10:43:38:676,39.633,0.373,0.302,0.219,-9.643,-48.653,24.412
10:43:38:677,39.634,0.424,0.447,0.456,-9.074,-49.002,28.727
10:43:39:016,39.973,0.548,0.418,0.859,-8.335,-49.758,31.977
10:43:39:017,39.974,0.733,0.278,1.154,-6.347,-52.082,37.184
10:43:39:153,40.109,0.799,-0.001,0.746,-2.781,-55.294,42.916
10:43:39:154,40.110,0.905,0.063,0.336,-1.458,-55.777,47.154
10:43:39:155,40.111,0.218,-0.199,0.166,-3.720,-54.817,52.321
10:43:39:155,40.111,0.260,-0.717,0.605,-4.862,-53.981,54.384
10:43:39:18,40.136,0.544,-0.769,0.153,-6.235,-52.487,55.596
10:43:39:181,40.137,0.581,-1.271,0.235,-7.623,-51.274,54.065
10:43:39:182,40.138,0.362,-0.883,0.143,-8.353,-49.650,52.095
10:43:39:284,40.241,-0.903,1.132,-0.993,-3.849,-23.093,-4.333
10:43:39:284,40.241,-1.424,-0.058,-1.560,-2.435,-20.763,-12.480
10:43:39:285,40.242,-1.811,-0.476,-1.289,-2.101,-19.557,-16.424
10:43:39:286,40.243,-1.525,-0.599,-0.660,-2.427,-18.547,-18.298
10:43:39:312,40.269,0.051,0.013,-0.001,-10.834,-9.912,4.954
10:43:39:313,40.270,0.372,0.054,-0.221,-8.832,-3.726,24.291
10:43:39:314,40.271,0.354,0.453,-0.164,-7.861,-1.288,17.740
10:43:39:314,40.271,-0.016,0.986,-0.225,-6.522,2.372,7.460
10:43:39:441,40.398,-1.331,1.351,-0.414,-5.413,6.446,-2.398
10:43:39:442,40.399,0.506,0.052,0.326,-5.240,11.784,-12.460
10:43:39:443,40.400,-0.892,0.143,0.092,-4.670,14.327,-9.330
10:43:39:519,40.476,0.069,-0.005,0.007,-12.048,13.852,5.746
10:43:39:519,40.476,0.108,-0.035,0.005,-12.114,13.950,7.124
10:43:39:52,40.477,0.126,0.105,0.002,-13.111,14.033,14.352
10:43:39:594,40.551,0.274,0.199,0.147,-13.201,13.868,17.397
10:43:39:595,40.552,0.234,0.237,-0.122,-13.141,14.502,19.645
10:43:39:652,40.608,0.290,0.312,-0.107,-13.307,14.376,23.480
10:43:39:653,40.609,0.694,0.534,-0.173,-13.368,13.710,26.454
10:43:39:654,40.610,1.122,0.536,0.109,-13.118,11.776,31.532
10:43:39:655,40.611,1.322,0.217,-0.056,-11.702,8.287,37.342
10:43:39:827,40.784,0.639,0.392,-0.401,-10.289,5.758,41.509
10:43:40:168,41.125,0.957,-0.202,-0.454,-8.623,3.493,47.848
10:43:40:386,41.343,0.585,-0.604,-0.281,-9.230,3.030,51.274
10:43:40:387,41.344,0.017,-0.391,0.108,-9.389,2.815,53.852
10:43:40:387,41.344,0.443,-1.016,0.060,-10.281,3.296,54.556
10:43:40:388,41.345,0.385,-1.268,-0.180,-10.019,3.451,53.187
10:43:40:518,41.475,0.330,-0.801,0.078,-9.929,4.361,49.774
10:43:40:519,41.476,0.226,-0.567,-0.165,-10.388,6.326,46.686
10:43:40:52,41.477,0.367,-0.545,-0.271,-10.695,10.005,40.809
10:43:40:52,41.477,0.429,-0.276,-0.272,-10.818,14.637,33.269
10:43:40:537,41.494,0.283,0.020,-0.280,-10.304,18.173,27.670
10:43:40:644,41.601,0.154,0.358,-0.318,-8.742,23.615,18.576
10:43:40:645,41.602,0.033,0.782,-0.318,-7.338,26.885,12.177
10:43:40:67,41.627,-1.246,1.124,-0.228,-4.975,31.886,2.538
10:43:40:671,41.628,-1.469,0.967,-0.062,-3.474,34.569,-3.428
10:43:40:778,41.735,-2.454,-0.192,0.258,-1.073,37.859,-11.100
10:43:40:779,41.736,-1.508,-0.350,0.626,-1.194,38.529,-16.478
10:43:40:78,41.737,-1.447,-0.488,0.465,-1.763,38.141,-17.759
10:43:40:807,41.763,-1.132,-0.252,0.491,-3.324,37.820,-16.657
10:43:40:807,41.763,2.189,1.067,0.427,-3.172,39.570,-14.410
10:43:40:808,41.764,-0.005,-0.036,0.239,-2.605,43.002,-11.299
10:43:40:809,41.765,-1.080,0.074,0.556,-2.230,46.846,-8.034
10:43:40:912,41.869,-0.465,-0.275,0.192,-4.239,50.114,-3.346
10:43:40:912,41.869,0.014,0.090,-0.006,-9.482,48.789,8.603
10:43:40:913,41.870,0.137,0.311,-0.203,-8.936,50.067,19.988
10:43:40:914,41.871,0.306,0.474,-0.474,-8.943,50.358,23.970
10:43:40:937,41.894,0.525,0.522,-0.670,-8.702,49.879,27.070
10:43:40:938,41.895,1.002,0.470,-0.792,-7.834,48.226,32.253
10:43:40:939,41.896,0.406,-0.257,-0.761,-4.879,43.803,48.153
10:43:40:959,41.916,0.050,-0.479,-0.289,-5.676,44.007,51.125
10:43:40:96,41.917,-0.105,-0.569,-0.431,-7.053,45.427,52.728
10:43:41:043,42.000,0.134,-0.996,-0.252,-10.081,48.114,50.537
10:43:41:043,42.000,0.013,-0.740,-0.267,-11.472,51.478,46.758
10:43:41:044,42.001,0.046,-0.601,-0.445,-11.854,53.987,42.967
10:43:41:044,42.001,0.014,-0.390,-0.431,-11.696,58.110,35.881
10:43:41:069,42.026,-0.003,-0.102,-0.433,-10.568,62.374,27.363
10:43:41:069,42.026,-0.051,0.197,-0.377,-9.576,65.171,21.069
10:43:41:07,42.027,-0.129,0.557,-0.210,-7.947,69.134,10.990
10:43:41:071,42.028,-0.581,1.044,0.569,-6.779,71.593,4.098
10:43:41:175,42.131,-0.944,1.323,1.096,-5.228,74.107,-5.545
10:43:41:176,42.132,-1.219,0.535,1.529,-3.014,76.341,-13.205
10:43:41:177,42.133,-1.463,-0.774,1.937,-2.169,77.470,-16.737
10:43:41:177,42.133,-0.223,-0.668,2.294,-2.771,78.239,-18.481
10:43:41:199,42.155,-0.787,-0.068,1.136,-3.788,78.051,-17.320
10:43:41:199,42.155,1.599,1.273,-1.972,-4.261,79.266,-14.120
10:43:41:2,42.156,-0.093,0.075,1.699,-3.295,81.495,-12.216
10:43:41:229,42.185,0.190,0.288,0.777,-3.595,84.199,-8.394
10:43:41:229,42.185,-0.299,-0.181,0.298,-4.647,84.141,-5.158
10:43:41:229,42.185,-0.090,-0.301,0.281,-5.409,84.632,-3.615
10:43:41:229,42.185,0.052,0.089,0.174,-6.508,85.040,-1.797
10:43:41:278,42.235,0.004,0.046,0.045,-6.978,84.862,-0.780
10:43:41:279,42.236,0.055,-0.017,-0.040,-7.630,84.733,0.360
10:43:41:279,42.236,-0.004,0.024,0.007,-8.463,84.826,1.274
10:43:41:299,42.256,-0.116,0.037,0.010,-8.893,84.641,1.870
10:43:41:357,42.314,-0.062,-0.033,-0.030,-9.330,84.101,2.717
10:43:41:357,42.314,0.031,-0.040,-0.051,-9.693,84.002,3.212
10:43:41:358,42.315,-0.019,0.000,0.055,-10.179,84.299,4.017
10:43:41:359,42.316,0.027,0.029,0.061,-10.351,84.216,4.609
10:43:41:428,42.385,-0.026,0.165,0.003,-10.505,83.692,5.520
10:43:41:458,42.415,-0.001,-0.030,-0.108,-10.417,82.828,6.518
10:43:41:458,42.415,0.022,-0.090,-0.216,-10.548,82.556,7.529
10:43:41:483,42.440,0.053,0.075,-0.060,-10.980,82.491,9.624
10:43:41:484,42.441,0.045,0.112,-0.029,-11.143,82.687,11.283
10:43:41:648,42.605,0.044,0.130,-0.108,-11.163,82.296,14.056
10:43:41:648,42.605,0.244,0.165,-0.083,-11.127,81.958,17.167
10:43:41:648,42.605,0.174,0.313,-0.258,-11.131,81.768,19.455
10:43:41:648,42.605,-0.067,0.312,-0.364,-10.925,81.946,23.150
10:43:41:744,42.701,0.078,0.408,-0.609,-10.624,81.522,25.924
10:43:41:875,42.832,0.181,0.305,-0.804,-9.648,80.131,30.654
10:43:41:909,42.866,0.393,0.326,-1.174,-8.024,77.363,35.934
10:43:41:91,42.867,0.133,0.071,-1.126,-6.459,74.933,39.926
10:43:41:911,42.868,-0.127,0.070,-0.921,-5.465,73.683,46.292
10:43:41:937,42.893,0.292,-0.658,-0.469,-8.463,73.802,53.465
10:43:41:938,42.894,-0.160,-0.691,-0.423,-8.763,74.054,54.448
10:43:41:939,42.895,0.036,-1.133,-0.630,-9.756,73.758,53.946
10:43:41:94,42.896,0.112,-0.989,-0.357,-10.237,74.596,51.133
10:43:42:066,43.023,0.083,-0.708,-0.235,-10.938,75.981,48.364
10:43:42:067,43.024,0.018,-0.625,-0.337,-11.334,78.011,42.650
10:43:42:068,43.025,0.022,-0.478,-0.407,-11.090,79.393,37.840
10:43:42:069,43.026,0.058,-0.239,-0.356,-10.179,81.401,29.356
10:43:42:093,43.050,0.088,0.139,-0.322,-9.249,83.392,19.811
10:43:42:094,43.051,0.145,0.537,-0.178,-8.857,84.807,12.927
10:43:42:095,43.052,0.095,0.900,0.464,-8.446,87.880,2.305
10:43:42:095,43.052,-0.405,1.372,1.417,-7.853,90.269,-4.294
10:43:42:114,43.070,-0.470,0.528,1.911,-5.730,93.363,-13.073
10:43:42:114,43.070,-0.814,-0.544,2.458,-4.330,95.532,-19.008
10:43:42:136,43.092,-0.281,-0.547,1.884,-4.890,94.718,-20.284
10:43:42:162,43.119,-0.475,-0.071,1.327,-6.112,94.868,-18.625
10:43:42:188,43.145,-0.334,0.503,-0.629,-6.292,96.001,-16.116
10:43:42:302,43.259,0.420,-0.346,1.142,-5.389,98.331,-13.419
10:43:42:303,43.260,0.116,0.142,0.536,-5.528,101.042,-9.366
10:43:42:304,43.261,-0.029,0.101,0.905,-6.431,101.580,-7.039
10:43:42:304,43.261,-0.145,-0.272,0.368,-7.386,102.413,-4.184
10:43:42:32,43.277,-0.006,0.141,0.157,-8.083,102.759,-2.741
10:43:42:346,43.303,0.069,0.040,0.068,-8.623,102.761,-1.083
10:43:42:43,43.387,0.041,-0.061,-0.039,-8.836,102.773,-0.184
10:43:42:431,43.388,0.042,0.001,0.062,-9.444,103.103,0.795
10:43:42:432,43.389,-0.098,0.028,0.058,-10.013,103.483,1.776
10:43:42:451,43.408,-0.025,-0.015,0.037,-10.185,103.454,2.464
10:43:42:531,43.488,0.094,0.003,0.024,-10.391,103.305,3.442
10:43:42:562,43.519,-0.018,-0.007,0.031,-10.658,103.160,4.104
10:43:42:562,43.519,-0.012,0.017,-0.025,-11.069,102.827,5.168
10:43:42:749,43.706,-0.008,0.033,-0.063,-11.526,102.166,7.252
10:43:42:75,43.707,0.011,-0.024,-0.070,-11.781,101.969,8.862
10:43:42:88,43.837,0.122,0.148,-0.150,-12.474,99.694,14.962
10:43:42:88,43.837,0.162,0.144,-0.206,-12.591,99.277,16.994
10:43:42:881,43.838,0.033,0.288,-0.243,-12.950,97.695,20.439
10:43:42:882,43.839,-0.046,0.318,-0.367,-13.127,97.226,23.002
10:43:42:986,43.943,0.020,0.330,-0.504,-13.032,95.091,27.334
10:43:42:986,43.943,0.026,0.368,-0.831,-12.704,93.886,30.594
10:43:43:003,43.960,-0.269,0.173,-1.037,-7.840,83.772,46.383
10:43:43:136,44.093,0.025,-0.230,-0.452,-9.186,82.539,51.511
10:43:43:248,44.205,0.013,-0.808,-0.780,-9.176,81.560,53.553
10:43:43:248,44.205,-0.502,-0.529,-0.253,-8.873,80.509,54.518
10:43:43:249,44.206,0.049,-1.262,-0.519,-9.112,79.326,52.671
10:43:43:25,44.207,0.242,-1.116,-0.412,-9.434,79.392,50.248
10:43:43:298,44.255,0.171,-0.750,-0.330,-10.183,80.513,45.295
10:43:43:298,44.255,0.159,-0.454,-0.306,-10.810,81.662,41.160
10:43:43:299,44.256,0.160,-0.344,-0.378,-10.849,83.383,33.597
10:43:43:318,44.275,0.174,-0.011,-0.408,-10.312,84.300,27.773
10:43:43:354,44.311,0.148,0.196,-0.325,-9.615,85.848,18.164
10:43:43:354,44.311,0.311,0.762,-0.034,-9.177,88.106,7.692
10:43:43:355,44.312,-0.038,1.264,0.768,-8.771,90.007,1.027
10:43:43:356,44.313,-0.504,1.220,1.641,-7.362,92.258,-8.600
10:43:43:372,44.329,-0.681,-0.229,2.267,-6.052,93.476,-14.171
10:43:43:45,44.407,-0.346,-0.337,1.918,-5.412,94.141,-19.978
10:43:43:528,44.485,-0.181,-0.461,1.555,-6.710,92.997,-21.116
10:43:43:669,44.626,-0.243,-0.016,1.343,-7.732,92.986,-19.668
10:43:43:67,44.627,0.570,1.104,-1.978,-7.929,94.499,-15.998
10:43:43:671,44.628,0.459,0.053,-0.354,-7.436,95.531,-14.440
10:43:43:715,44.671,-0.057,-0.004,0.812,-7.383,100.489,-8.151
10:43:43:716,44.672,0.062,-0.098,0.248,-8.089,100.973,-6.319
10:43:43:742,44.698,-0.008,0.111,0.204,-9.127,101.044,-4.341
10:43:43:743,44.699,0.092,0.060,0.086,-9.504,100.987,-3.355
10:43:43:793,44.750,0.052,-0.018,0.040,-9.907,100.834,-2.150
10:43:43:794,44.751,0.039,0.030,0.079,-10.251,100.989,-1.591
10:43:43:825,44.782,-0.001,0.008,0.041,-10.726,101.096,-0.774
10:43:43:825,44.782,-0.022,-0.021,0.058,-11.171,100.853,0.140
10:43:43:826,44.783,0.008,-0.012,0.018,-11.472,100.519,0.730
10:43:43:827,44.784,0.018,-0.012,-0.018,-11.886,99.974,1.605
10:43:43:852,44.809,0.003,-0.010,0.011,-12.183,99.672,2.187
10:43:43:852,44.809,-0.001,0.034,0.006,-12.574,99.178,3.133
10:43:43:853,44.810,-0.012,-0.004,-0.112,-12.738,98.555,4.181
10:43:43:853,44.810,-0.018,-0.019,-0.133,-12.925,98.259,5.126
10:43:43:878,44.835,0.048,0.076,-0.006,-13.328,98.115,6.998
10:43:43:878,44.835,0.023,0.085,-0.100,-13.502,97.903,8.460
10:43:43:878,44.835,-0.030,0.111,-0.106,-13.638,97.521,10.999
10:43:43:879,44.836,0.155,0.149,-0.069,-13.684,97.219,12.978
10:43:43:894,44.851,0.156,0.196,-0.166,-13.866,96.571,16.259
10:43:43:949,44.906,-0.017,0.285,-0.181,-14.112,95.913,19.870
10:43:43:95,44.907,0.004,0.336,-0.334,-14.047,95.226,22.487
10:43:44:,44.957,0.038,0.487,-0.639,-13.505,93.688,26.970
10:43:44:272,45.228,0.151,0.397,-1.022,-12.736,92.106,30.314
10:43:44:272,45.228,0.185,0.268,-1.110,-11.010,88.702,35.941
10:43:44:273,45.229,-0.278,0.318,-0.907,-9.254,85.109,42.170
10:43:44:297,45.253,-0.319,-0.565,-0.480,-9.996,83.005,51.293
10:43:44:298,45.254,-0.146,-0.515,-0.437,-10.819,82.614,53.057
10:43:44:299,45.255,0.168,-0.777,-0.464,-11.090,81.417,54.117
10:43:44:376,45.333,-0.049,-1.289,-0.595,-9.362,79.948,53.084
10:43:44:377,45.334,0.011,-0.897,-0.304,-8.309,79.652,50.033
10:43:44:378,45.335,-0.037,-0.695,-0.329,-8.818,81.003,45.277
10:43:44:378,45.335,-0.028,-0.488,-0.414,-9.362,82.572,41.011
10:43:44:429,45.386,-0.068,-0.307,-0.377,-9.629,85.398,33.263
10:43:44:43,45.387,-0.104,0.010,-0.373,-9.416,87.337,27.464
10:43:44:719,45.676,-0.059,0.945,0.693,-7.258,94.850,0.997
10:43:44:719,45.676,-0.252,0.846,1.497,-6.170,97.398,-8.410
10:43:44:719,45.676,-0.154,0.007,1.881,-4.665,99.548,-15.972
10:43:44:719,45.676,-0.306,0.001,1.746,-4.261,100.695,-19.414
10:43:45:054,46.011,0.010,-0.548,1.710,-3.982,102.256,-20.911
10:43:45:054,46.011,-0.081,-0.069,1.176,-4.927,102.596,-19.593
10:43:45:264,46.221,0.803,1.202,-2.187,-5.124,104.601,-16.470
10:43:45:264,46.221,0.381,0.065,1.292,-4.016,106.532,-14.686
10:43:45:48,46.437,0.469,0.170,0.552,-3.780,110.179,-10.871
10:43:45:481,46.438,-0.116,-0.072,0.671,-4.656,110.457,-7.592
10:43:45:481,46.438,0.112,-0.043,0.077,-5.628,110.244,-5.803
10:43:45:585,46.541,0.092,0.063,0.056,-6.948,110.053,-2.855
10:43:45:586,46.542,0.094,-0.042,-0.014,-7.501,110.005,-1.676
10:43:45:586,46.542,-0.026,0.006,0.048,-8.195,110.389,-0.794
10:43:45:587,46.543,-0.088,0.030,0.052,-8.573,110.619,-0.175
10:43:45:603,46.559,-0.008,0.012,0.068,-8.825,110.547,0.839
10:43:45:662,46.619,0.079,0.007,-0.003,-8.887,110.259,1.484
10:43:45:663,46.620,0.010,-0.003,-0.015,-9.110,109.782,2.468
10:43:45:664,46.621,-0.065,0.016,0.030,-9.231,109.602,3.139
10:43:45:665,46.622,0.007,0.010,-0.006,-9.251,109.272,4.278
10:43:46:107,47.064,-0.005,-0.017,-0.072,-8.866,109.145,5.479
10:43:46:107,47.064,-0.034,-0.054,-0.046,-8.672,109.278,6.432
10:43:46:108,47.065,0.028,0.074,0.001,-8.721,108.996,8.223
10:43:46:783,47.740,-0.009,0.093,-0.054,-8.721,108.914,9.578
10:43:46:819,47.776,-0.016,0.113,-0.132,-8.473,108.177,11.898
10:43:46:82,47.777,-0.024,0.243,-0.268,-8.116,107.074,17.229
10:43:46:821,47.778,-0.204,0.372,-0.340,-7.876,107.079,21.244
10:43:46:822,47.779,-0.397,-0.259,0.047,-4.337,101.757,51.455
10:43:46:871,47.828,-0.327,-1.185,-0.554,-4.972,102.112,52.102
10:43:46:871,47.828,-0.238,0.310,-0.084,-6.860,122.778,16.762
10:43:46:872,47.829,-0.172,0.693,0.088,-5.851,125.559,10.250
10:43:46:873,47.830,0.085,0.961,0.857,-4.054,130.153,0.378
10:43:46:897,47.854,0.266,0.988,1.372,-2.801,132.985,-5.910
10:43:46:897,47.854,0.455,-0.148,2.000,-0.814,136.172,-13.787
10:43:46:898,47.855,1.337,-0.604,1.836,-0.167,137.301,-18.014
10:43:46:899,47.856,1.431,-0.706,1.609,-1.199,135.880,-21.246
10:43:46:924,47.880,0.519,-0.133,1.080,-2.658,135.368,-20.326
10:43:46:925,47.881,0.252,0.497,-0.227,-3.145,135.911,-18.271
10:43:46:925,47.881,0.468,-0.121,0.665,-2.516,137.630,-15.048
10:43:46:95,47.906,0.267,-0.100,0.139,-3.154,141.402,-8.697
10:43:46:951,47.907,0.310,0.164,0.038,-4.359,141.980,-5.795
10:43:46:951,47.907,-0.082,0.024,-0.038,-9.643,141.109,4.457
10:43:47:028,47.985,-0.054,0.116,-0.046,-9.698,140.773,11.264
10:43:47:029,47.986,1.575,0.064,1.007,-0.777,171.216,-18.549
10:43:47:03,47.987,1.376,-0.462,0.632,-1.064,170.497,-19.938
10:43:47:031,47.988,1.361,-0.216,0.459,-2.215,170.452,-18.782
10:43:47:151,48.108,-0.952,1.209,-1.605,-3.017,171.645,-15.724
10:43:47:185,48.142,1.399,-0.207,0.307,-2.065,173.677,-13.529
10:43:47:186,48.143,0.730,0.227,-0.047,-2.193,177.665,-9.707
10:43:47:187,48.144,0.699,-0.213,0.361,-3.340,179.593,-6.440
10:43:47:188,48.145,0.127,-0.052,0.234,-3.886,-179.335,-4.980
10:43:47:317,48.273,0.211,0.133,-0.194,-4.464,-179.128,-3.338
10:43:47:318,48.274,0.106,0.020,-0.027,-4.767,-179.172,-2.444
10:43:47:318,48.274,0.057,-0.023,0.064,-5.443,-179.219,-1.428
10:43:47:319,48.275,0.153,0.036,0.086,-6.048,-178.822,-1.023
10:43:47:422,48.379,0.094,0.028,0.119,-6.774,-178.887,-0.446
10:43:47:423,48.380,-0.016,-0.050,0.005,-7.252,-179.423,0.108
10:43:47:423,48.380,0.056,-0.028,-0.029,-7.582,-179.562,0.439
10:43:47:424,48.381,0.028,-0.005,0.057,-8.110,-179.745,1.028
10:43:47:439,48.396,0.077,0.028,0.045,-8.419,-179.939,1.461
10:43:47:736,48.693,0.045,0.096,0.027,-8.793,179.703,2.156
10:43:47:737,48.694,-0.152,-0.047,0.082,-8.852,179.008,2.936
10:43:47:738,48.695,-0.181,-0.080,0.063,-8.924,178.760,3.755
10:43:47:739,48.696,-0.053,0.063,0.080,-9.071,178.756,5.571
10:43:47:995,48.952,-0.052,0.066,-0.008,-9.017,178.804,7.085
10:43:47:996,48.953,-0.050,0.129,0.024,-8.834,178.766,9.720
10:43:48:026,48.982,-0.096,0.123,-0.099,-8.637,178.533,12.769
10:43:48:026,48.982,-0.133,0.310,-0.112,-8.575,178.262,15.063
10:43:48:027,48.983,-0.225,0.329,0.041,-8.419,178.042,18.769
10:43:48:028,48.984,-0.465,0.429,-0.034,-8.212,177.624,21.496
10:43:48:053,49.009,-0.684,0.456,-0.044,-7.648,176.754,26.087
10:43:48:054,49.010,-0.997,0.497,-0.210,-7.108,175.770,29.463
10:43:48:054,49.010,-1.237,0.339,-0.153,-5.393,172.681,35.096
10:43:48:055,49.011,-1.049,0.132,0.481,-1.641,168.474,41.289
10:43:48:263,49.220,-1.092,-0.266,0.387,-1.686,168.342,45.423
10:43:48:263,49.220,-0.579,-0.663,-0.010,-4.171,169.269,50.024
10:43:48:264,49.221,-0.083,-0.460,0.447,-4.924,170.544,51.271
10:43:48:264,49.221,-0.630,-1.032,-0.054,-5.682,171.051,51.694
10:43:48:307,49.264,-0.333,-0.994,0.070,-6.088,172.091,49.130
10:43:48:393,49.350,-0.258,-0.687,0.143,-6.619,173.707,46.613
10:43:48:394,49.351,-0.335,-0.643,0.119,-7.275,176.627,41.368
10:43:48:394,49.351,-0.365,-0.400,0.194,-7.539,178.704,37.038
10:43:48:415,49.372,-0.241,0.100,0.181,-6.732,-176.016,24.043
10:43:48:519,49.476,-0.039,0.459,0.254,-5.884,-172.430,14.958
10:43:48:52,49.477,0.562,0.855,0.271,-4.712,-168.802,5.298
10:43:48:547,49.504,2.018,-0.259,0.124,-1.694,-162.986,-14.553
10:43:48:548,49.505,1.902,-0.432,0.137,-1.275,-162.617,-19.455
10:43:48:548,49.505,1.367,-0.305,-0.257,-1.640,-161.876,-20.466
10:43:48:648,49.605,1.198,-0.095,-0.092,-2.475,-161.324,-19.219
10:43:48:726,49.683,-1.507,0.915,-0.438,-2.666,-158.938,-16.483
10:43:48:761,49.718,1.475,-0.070,-1.043,-1.817,-157.275,-14.816
10:43:48:761,49.718,0.080,0.222,-0.257,-2.231,-155.545,-11.004
10:43:48:762,49.719,0.173,-0.097,-0.177,-3.172,-155.045,-7.899
10:43:48:763,49.720,0.415,-0.297,0.005,-3.872,-154.603,-6.199
10:43:48:815,49.771,0.101,0.104,0.037,-4.874,-154.172,-4.456
10:43:48:816,49.772,0.129,0.074,-0.052,-5.230,-154.322,-3.583
10:43:48:816,49.772,0.033,-0.005,0.015,-5.871,-154.547,-2.567
10:43:48:816,49.772,0.118,0.019,0.034,-6.359,-154.583,-2.011
10:43:48:841,49.797,0.109,0.011,0.092,-6.990,-154.753,-1.208
10:43:48:841,49.797,0.029,-0.016,-0.020,-7.586,-155.732,0.079
10:43:48:841,49.797,0.007,-0.007,0.055,-7.944,-156.234,0.900
10:43:48:842,49.798,0.056,0.007,0.071,-8.152,-156.576,1.505
10:43:48:865,49.822,0.030,0.069,0.057,-8.443,-157.133,2.469
10:43:48:865,49.822,-0.019,-0.007,0.035,-8.503,-157.757,3.541
10:43:48:866,49.823,-0.070,-0.045,0.055,-8.543,-158.130,4.456
10:43:48:867,49.824,-0.034,0.051,0.045,-8.840,-158.939,6.227
10:43:48:889,49.846,-0.055,0.041,0.050,-8.975,-159.023,7.682
10:43:48:89,49.847,-0.027,0.117,0.032,-9.005,-159.414,10.258
10:43:48:891,49.848,-0.113,0.159,-0.063,-8.977,-159.536,12.231
10:43:49:041,49.998,-0.092,0.256,0.004,-8.988,-160.289,15.538
10:43:49:068,50.025,-0.705,0.503,0.218,-7.902,-163.158,26.329
10:43:49:225,50.181,-1.317,0.475,0.080,-6.427,-165.793,31.390
10:43:49:26,50.217,-1.336,0.183,0.241,-4.629,-168.332,35.171
10:43:49:26,50.217,-0.705,0.178,0.844,-1.514,-170.941,41.426
10:43:49:261,50.218,-0.747,-0.160,0.781,-2.232,-169.963,45.643
10:43:49:262,50.219,-0.506,-0.639,0.324,-5.009,-168.063,50.174
10:43:49:285,50.242,0.158,-0.319,0.477,-5.935,-165.820,51.730
10:43:49:286,50.243,-0.435,-1.012,0.210,-6.507,-164.939,52.020
10:43:49:287,50.244,-0.290,-1.129,0.327,-6.237,-163.236,49.746
10:43:49:287,50.244,-0.108,-0.756,0.324,-6.009,-161.635,47.592
10:43:49:356,50.313,-0.112,-0.613,0.317,-5.850,-158.279,43.059
10:43:49:41,50.367,-0.222,-0.460,0.440,-5.738,-154.285,36.907
10:43:49:435,50.392,-0.161,-0.225,0.479,-5.375,-151.298,32.056
10:43:49:829,50.785,-0.008,0.010,0.497,-4.428,-146.698,23.956
10:43:49:968,50.925,0.036,0.445,0.446,-3.641,-143.707,17.994
10:43:49:969,50.926,0.373,0.889,0.321,-2.283,-139.325,8.546
10:43:49:97,50.927,1.151,1.100,-0.092,-1.235,-136.100,2.193
10:43:49:97,50.927,1.431,0.787,-0.440,0.483,-132.111,-6.770
10:43:49:993,50.950,2.137,-0.214,-0.908,2.375,-128.670,-13.732
10:43:49:994,50.951,1.645,-0.378,-0.953,2.625,-127.555,-16.964
10:43:49:995,50.952,1.191,-0.257,-0.742,2.142,-127.276,-18.302
10:43:50:406,51.363,-2.199,1.382,1.022,0.967,-125.146,-13.928
10:43:51:199,52.156,0.790,-0.116,-1.221,1.574,-123.651,-11.221
10:43:51:2,52.157,0.509,0.081,-0.155,0.924,-122.759,-8.638
10:43:51:201,52.158,0.210,-0.073,-0.320,-0.362,-121.358,-5.688
10:43:51:326,52.283,0.291,0.003,-0.028,-0.953,-120.083,-4.140
10:43:51:649,52.606,0.101,0.040,-0.130,-2.123,-119.197,-2.297
10:43:51:65,52.607,0.030,-0.005,-0.031,-2.446,-119.239,-1.302
10:43:51:65,52.607,0.051,-0.009,0.073,-2.973,-119.490,-0.098
10:43:51:651,52.608,0.155,0.040,-0.036,-3.695,-118.930,0.843
10:43:51:832,52.789,0.165,-0.010,-0.030,-4.041,-118.663,1.469
10:43:51:833,52.790,-0.018,-0.023,0.016,-4.410,-119.057,2.287
10:43:51:834,52.791,-0.006,-0.033,-0.018,-4.577,-119.413,2.814
10:43:52:069,53.026,-0.572,0.560,0.840,-2.242,-121.689,30.723
10:43:52:069,53.026,-0.689,0.373,1.135,-0.963,-123.466,34.258
10:43:52:07,53.027,0.106,0.097,1.142,2.797,-126.750,39.813
10:43:52:071,53.028,0.054,-0.064,1.065,3.771,-126.905,43.831
10:43:52:376,53.333,-0.077,-0.626,0.587,1.278,-124.802,48.950
10:43:52:567,53.524,0.341,-0.440,0.259,0.478,-123.090,51.354
10:43:52:567,53.524,-0.021,-0.820,0.528,0.075,-122.754,51.974
10:43:52:568,53.525,-0.080,-1.144,0.519,-0.585,-122.266,50.558
10:43:52:568,53.525,0.040,-0.699,0.249,-1.375,-121.185,48.820
10:43:52:751,53.708,-0.718,0.457,0.739,-1.139,-89.984,-10.838
10:43:52:752,53.709,0.664,0.202,0.992,-1.010,-97.067,43.262
10:43:52:753,53.710,0.227,-0.422,0.128,-0.421,-99.825,53.669
10:43:52:824,53.780,0.003,-0.498,0.487,-5.468,-98.724,39.651
10:43:52:825,53.781,-0.135,-0.284,-1.498,-3.221,-84.170,-17.541
10:43:52:859,53.815,0.108,-0.076,-1.172,-4.094,-82.939,-15.700
10:43:52:86,53.816,-0.750,1.085,1.915,-4.255,-80.484,-13.010
10:43:52:86,53.816,-0.511,-0.093,-1.614,-3.239,-77.701,-10.896
10:43:52:86,53.816,0.040,0.010,-0.127,-5.924,-75.439,-0.945
10:43:52:881,53.838,-0.005,0.063,-0.037,-6.326,-75.672,-0.074
10:43:52:882,53.839,0.076,-0.045,0.011,-6.859,-75.811,0.914
10:43:52:882,53.839,0.025,0.011,-0.037,-7.397,-75.740,1.436
10:43:52:883,53.840,0.056,0.029,-0.005,-10.023,-78.337,6.071
10:43:53:031,53.987,0.059,0.019,0.117,-10.151,-78.861,6.840
10:43:53:058,54.014,0.065,-0.012,0.095,-10.436,-79.290,8.223
10:43:53:117,54.074,0.071,0.035,0.056,-10.817,-79.638,10.110
10:43:53:118,54.075,-0.314,-0.402,0.154,-3.157,-98.644,54.032
10:43:53:119,54.076,-0.070,-1.038,0.447,-3.222,-100.513,49.061
10:43:53:12,54.077,-0.089,-0.621,0.357,-4.968,-99.005,43.721
10:43:53:144,54.101,-0.033,-0.541,0.398,-5.584,-97.669,39.198
10:43:53:145,54.102,0.090,-0.269,0.460,-5.678,-95.737,31.088
10:43:53:146,54.103,0.385,1.135,-1.241,-4.323,-86.499,-2.334
10:43:53:146,54.103,0.479,0.591,-1.808,-3.293,-84.760,-11.254
10:43:53:171,54.128,0.656,0.090,-1.784,-2.564,-83.896,-15.618
10:43:53:172,54.129,-0.195,-1.073,-2.468,-1.895,-82.150,-18.694
10:43:53:172,54.129,0.005,-0.168,-1.426,-2.556,-81.487,-18.365
10:43:53:217,54.174,-0.291,-0.070,-0.114,-2.236,-75.316,-12.545
10:43:53:218,54.175,-0.215,0.246,-1.394,-1.724,-71.577,-9.878
10:43:53:25,54.207,-0.128,0.154,-0.520,-2.371,-69.357,-5.884
10:43:53:25,54.207,0.216,-0.313,-0.163,-2.853,-69.214,-3.394
10:43:53:25,54.207,0.049,0.207,-0.156,-4.045,-69.055,-0.867
10:43:53:251,54.208,-0.014,0.047,0.042,-4.701,-69.322,0.836
10:43:53:276,54.233,-0.023,0.104,-0.015,-5.104,-69.264,1.710
10:43:53:276,54.233,0.030,-0.035,-0.060,-5.526,-68.831,2.818
10:43:53:277,54.234,0.095,0.056,-0.060,-5.890,-68.606,3.506
10:43:53:278,54.235,0.122,-0.019,0.064,-6.256,-68.868,4.601
10:43:53:302,54.259,0.050,-0.025,-0.012,-6.515,-68.826,5.294
10:43:53:303,54.260,0.053,0.010,0.014,-6.945,-68.678,6.371
10:43:53:304,54.261,0.029,-0.002,0.026,-7.257,-68.684,7.532
10:43:53:305,54.262,0.059,0.019,-0.019,-7.477,-68.758,8.354
10:43:53:32,54.277,0.084,-0.009,0.033,-7.748,-69.187,9.677
10:43:53:372,54.329,0.019,0.020,0.016,-7.966,-69.531,10.589
10:43:53:431,54.387,0.052,0.029,0.091,-8.394,-70.250,12.058
10:43:53:431,54.387,0.084,0.000,0.109,-8.701,-71.689,13.823
10:43:53:432,54.388,0.113,0.104,0.112,-8.812,-72.054,15.254
10:43:53:476,54.433,-0.007,0.128,0.172,-8.895,-73.542,17.774
10:43:53:538,54.495,-0.007,0.206,0.212,-9.002,-73.990,19.737
10:43:53:538,54.495,0.106,0.275,0.288,-9.206,-75.582,23.093
10:43:53:539,54.496,0.148,0.307,0.406,-9.118,-76.377,26.946
10:43:53:539,54.496,0.227,0.383,0.641,-8.884,-77.882,29.901
10:43:53:855,54.812,0.266,0.339,0.930,-8.181,-79.773,34.792
10:43:53:855,54.812,0.350,0.280,1.200,-7.115,-82.144,38.365
10:43:53:855,54.812,0.375,0.231,0.913,-3.810,-87.332,43.969
10:43:53:856,54.813,0.242,-0.156,1.139,-1.240,-90.171,47.793
10:43:53:959,54.915,0.271,-0.381,0.685,0.045,-92.235,52.583
10:43:53:959,54.915,-0.132,-0.616,0.436,1.139,-94.939,54.796
10:43:53:96,54.916,0.056,-0.768,0.468,1.006,-95.793,55.313
10:43:53:961,54.917,-0.028,-1.150,0.494,0.278,-97.494,53.455
10:43:54:142,55.099,-0.125,-0.889,0.412,-1.130,-97.299,51.154
10:43:54:143,55.100,0.000,-0.712,0.342,-3.538,-95.836,46.510
10:43:54:144,55.101,0.014,-0.574,0.408,-5.388,-93.617,40.113
10:43:54:144,55.101,0.023,-0.281,0.332,-5.783,-92.134,35.139
10:43:54:163,55.120,0.032,-0.040,0.359,-5.325,-90.389,26.701
10:43:54:163,55.120,0.020,0.472,0.257,-4.932,-89.195,20.540
10:43:54:429,55.385,0.035,0.741,0.003,-4.179,-87.364,10.578
10:43:54:43,55.386,0.368,1.122,-0.734,-3.590,-84.995,0.639
10:43:54:43,55.386,0.485,1.176,-1.353,-3.317,-82.892,-5.534
10:43:54:536,55.493,0.108,0.040,-2.051,-2.129,-79.993,-13.471
10:43:54:536,55.493,-0.111,-0.575,-2.387,-1.576,-78.235,-17.261
10:43:54:537,55.494,-0.980,-0.965,-2.216,-1.361,-76.791,-18.767
10:43:54:537,55.494,-0.003,0.159,-0.688,-2.103,-75.556,-17.289
10:43:54:58,55.537,-0.383,0.712,1.312,-2.256,-72.411,-13.915
10:43:54:606,55.562,-0.747,0.085,-1.447,-1.300,-68.497,-10.340
10:43:55:665,56.622,-0.401,0.217,-0.612,-1.786,-67.402,-7.612
10:43:55:666,56.623,-0.078,-0.034,-0.170,-3.199,-67.339,-4.127
10:43:55:926,56.883,0.036,-0.001,-0.097,-5.432,-68.249,0.272
10:43:55:927,56.884,0.017,-0.028,0.003,-5.782,-68.504,0.803
10:43:55:928,56.885,0.085,0.049,-0.022,-6.431,-68.643,1.456
10:43:55:929,56.886,0.141,-0.017,-0.006,-6.713,-68.942,1.957
10:43:56:261,57.218,0.106,0.010,0.004,-6.987,-69.534,2.731
10:43:56:372,57.328,0.011,0.016,0.035,-7.082,-69.970,3.265
10:43:56:372,57.328,0.073,0.006,0.061,-7.323,-70.610,4.117
10:43:56:373,57.329,0.120,0.001,0.015,-7.539,-71.108,5.117
10:43:56:506,57.463,0.062,0.037,0.071,-7.642,-71.500,5.885
10:43:56:506,57.463,0.104,-0.030,0.122,-7.484,-71.300,7.171
10:43:56:506,57.463,0.070,0.022,0.081,-7.384,-71.171,8.238
10:43:56:507,57.464,0.097,0.018,0.115,-7.303,-70.330,12.257
10:43:56:635,57.592,0.071,0.115,0.137,-7.240,-70.319,13.901
10:43:56:636,57.593,-0.082,0.187,0.193,-7.138,-69.977,16.808
10:43:56:637,57.594,0.028,0.237,0.209,-7.145,-69.959,19.002
10:43:56:637,57.594,0.183,0.282,0.315,-7.226,-70.022,22.703
10:43:57:238,58.195,0.309,0.346,0.502,-6.834,-70.720,26.945
10:43:57:238,58.195,0.424,0.435,0.740,-6.270,-71.461,30.175
10:43:57:238,58.195,0.089,0.049,0.020,-8.930,-29.125,8.000
10:43:57:32,58.276,0.131,-0.027,0.069,-8.935,-29.434,8.861
10:43:57:32,58.276,0.148,0.029,0.031,-9.087,-30.545,10.469
10:43:57:321,58.277,0.096,0.024,0.059,-9.165,-30.734,12.580
10:43:57:321,58.277,1.107,0.093,0.699,-4.597,-36.920,38.098
10:43:57:421,58.378,1.149,0.332,0.172,-1.575,-39.708,44.255
10:43:57:421,58.378,1.020,-0.159,-0.026,-1.541,-39.280,48.387
10:43:57:422,58.379,0.734,-0.638,0.357,-4.134,-38.105,53.118
10:43:58:018,58.975,-1.145,-0.065,-0.667,-2.042,-3.093,-15.920
10:43:58:388,59.345,-1.633,-0.632,-0.459,-2.764,-3.187,-17.231
10:43:58:571,59.528,-1.230,-0.154,-0.154,-3.791,-3.217,-15.860
10:43:58:572,59.529,-0.083,-0.167,-0.025,-4.070,-0.673,-9.628
10:43:59:78,60.737,-0.883,0.294,-0.245,-4.028,0.931,-7.518
10:43:59:781,60.738,-0.964,0.257,-0.348,-4.949,2.946,-4.368
10:43:59:829,60.786,-0.050,-0.237,-0.199,-5.835,3.582,-2.426
10:43:59:943,60.900,-0.152,0.090,-0.002,-6.470,3.664,-0.407
10:43:59:943,60.900,0.064,-0.049,0.090,-7.452,3.158,1.865
10:43:59:97,60.927,0.041,-0.022,-0.018,-8.973,2.796,3.740
10:43:59:97,60.927,0.648,-0.698,0.231,-10.319,-4.530,53.790
10:43:59:97,60.927,0.181,-0.609,-0.541,-10.562,-3.684,54.806
10:43:59:971,60.928,0.500,-1.218,-0.096,-11.040,-2.307,52.310
10:43:59:991,60.948,0.268,-0.697,-0.157,-11.199,0.123,48.336
10:43:59:991,60.948,0.424,-0.495,-0.175,-10.967,2.066,44.665
10:44:00:048,61.005,0.439,-0.318,-0.170,-10.626,5.549,37.622
10:44:00:049,61.006,0.439,-0.037,-0.256,-9.371,9.246,29.400
10:44:00:05,61.007,0.356,0.193,-0.267,-8.466,12.076,23.422
10:44:00:05,61.007,0.050,0.674,-0.280,-6.974,16.458,13.781
10:44:00:074,61.031,-1.194,1.093,-0.211,-4.035,22.295,-2.282
10:44:00:075,61.032,0.094,0.052,-0.045,-10.979,33.218,10.373
10:44:00:076,61.033,0.217,-1.168,-0.490,-12.014,32.092,54.018
10:44:00:077,61.034,0.161,-0.251,-0.410,-11.195,42.237,37.062
10:44:00:093,61.049,0.134,-0.025,-0.334,-9.956,46.065,29.172
10:44:00:127,61.083,-0.026,-0.530,-0.382,-11.477,75.263,39.690
10:44:00:128,61.084,-0.002,-0.273,-0.365,-10.862,78.362,32.080
10:44:00:128,61.084,-0.666,1.108,1.368,-5.417,92.185,-8.681
10:44:00:152,61.109,-0.366,-0.259,1.551,-4.852,92.351,-18.128
10:44:00:153,61.110,0.444,-0.886,1.956,-5.812,91.510,-18.526
10:44:00:177,61.134,0.374,-0.301,0.933,-6.497,96.512,-11.142
10:44:00:177,61.134,0.157,0.129,0.458,-6.826,99.465,-7.573
10:44:00:177,61.134,0.165,0.088,0.337,-7.623,100.166,-5.487
10:44:00:254,61.211,-0.130,-0.143,0.200,-8.624,100.765,-3.079
10:44:00:255,61.212,0.014,0.071,0.152,-9.441,100.840,-1.273
10:44:00:255,61.212,0.088,0.026,0.053,-9.711,100.529,-0.270
10:44:00:275,61.232,0.065,-0.083,-0.009,-10.259,100.390,0.814
10:44:00:387,61.344,0.111,0.000,0.056,-10.812,100.656,1.350
10:44:00:387,61.344,-0.056,0.003,0.044,-11.507,100.579,2.100
10:44:00:388,61.345,-0.008,-0.001,0.001,-11.885,100.183,2.559
10:44:00:521,61.478,0.055,-0.004,-0.018,-12.338,99.484,3.188
10:44:00:522,61.479,-0.014,0.000,-0.028,-12.863,98.853,3.842
10:44:00:522,61.479,-0.011,-0.009,-0.049,-13.215,98.449,4.307
10:44:00:523,61.480,-0.033,0.020,-0.034,-13.619,97.919,5.149
10:44:00:591,61.548,-0.004,0.047,-0.052,-13.852,97.499,5.824
10:44:00:627,61.584,0.009,-0.028,-0.158,-14.009,96.408,7.112
10:44:00:627,61.584,0.028,0.035,-0.089,-14.234,96.239,8.235
10:44:00:628,61.585,0.019,0.063,-0.072,-14.618,95.568,10.290
10:44:00:629,61.586,-0.015,0.078,-0.125,-14.815,95.029,12.634
10:44:00:645,61.602,0.146,0.044,-0.115,-14.837,94.734,14.408
10:44:00:646,61.603,0.178,0.112,-0.143,-14.912,94.097,17.406
10:44:00:885,61.842,0.070,0.269,-0.314,-15.084,93.032,23.174
10:44:00:886,61.843,0.020,0.381,-0.537,-14.735,92.112,27.295
10:44:00:887,61.844,0.056,0.375,-0.766,-14.368,90.847,30.460
10:44:01:151,62.107,0.313,0.421,-1.173,-13.393,88.062,35.801
10:44:01:152,62.108,0.156,0.123,-1.264,-12.167,85.386,39.761
10:44:01:153,62.110,-0.386,0.274,-0.961,-9.927,82.066,46.209
10:44:01:154,62.110,-0.309,-0.358,-0.738,-11.402,81.266,51.686
10:44:01:177,62.133,-0.112,-0.663,-0.662,-12.064,81.010,53.981
10:44:01:178,62.134,-0.504,-0.307,0.029,-12.353,81.359,55.495
10:44:01:178,62.134,-0.077,-1.199,-0.378,-13.505,81.484,55.387
10:44:01:205,62.161,-0.002,-0.709,-0.243,-14.052,83.203,48.796
10:44:01:205,62.161,0.020,-0.598,-0.285,-13.986,84.224,45.146
10:44:01:205,62.161,-0.003,-0.400,-0.383,-13.127,85.621,38.388
10:44:01:206,62.162,0.038,-0.183,-0.416,-12.245,86.379,33.179
10:44:01:23,62.187,0.044,0.025,-0.372,-11.118,87.568,24.646
10:44:01:23,62.187,0.056,0.405,-0.273,-10.654,88.720,18.483
10:44:01:23,62.187,0.031,0.739,-0.096,-10.165,90.855,8.716
10:44:01:231,62.188,-0.181,1.109,0.865,-9.949,93.228,-0.946
10:44:01:308,62.265,-0.243,1.119,1.538,-9.436,94.743,-6.951
10:44:01:309,62.266,-0.633,-0.153,2.197,-8.296,95.856,-14.327
10:44:01:31,62.267,-0.089,-0.559,2.191,-8.208,96.118,-17.573
10:44:01:311,62.268,0.188,-0.444,1.561,-8.475,96.819,-18.225
10:44:01:33,62.287,-0.142,0.348,0.141,-9.166,98.995,-15.537
10:44:01:331,62.288,0.778,1.093,-2.409,-9.503,100.209,-13.870
10:44:01:332,62.289,0.495,0.309,1.496,-8.753,103.222,-10.356
10:44:01:351,62.308,0.027,0.111,0.383,-9.031,103.995,-7.635
10:44:01:436,62.393,-0.046,-0.542,0.414,-9.374,104.613,-4.260
10:44:01:437,62.394,0.008,0.046,0.198,-10.236,105.089,-2.553
10:44:01:437,62.394,0.135,0.030,0.072,-11.184,105.113,-0.714
10:44:01:485,62.442,0.036,0.040,-0.068,-11.757,104.476,0.814
10:44:01:486,62.443,0.036,-0.049,0.039,-12.178,104.589,1.541
10:44:01:587,62.544,0.032,0.028,0.097,-12.890,104.835,2.440
10:44:01:616,62.573,0.004,0.003,0.045,-13.184,104.627,3.066
10:44:01:617,62.574,0.028,-0.019,-0.059,-13.549,103.822,4.011
10:44:01:728,62.685,0.013,-0.007,-0.020,-13.982,103.374,4.889
10:44:01:729,62.686,-0.035,0.001,-0.072,-14.300,103.064,5.531
10:44:01:73,62.687,-0.009,0.004,-0.020,-14.715,102.678,6.584
10:44:01:731,62.688,0.040,0.028,-0.018,-14.970,102.326,7.364
10:44:01:75,62.707,0.007,0.030,-0.104,-15.305,101.669,8.701
10:44:01:751,62.708,0.026,0.000,-0.113,-15.480,101.038,10.281
10:44:01:752,62.709,0.010,0.029,-0.116,-15.617,100.744,11.330
10:44:01:771,62.728,0.036,0.064,-0.132,-15.938,100.136,13.567
10:44:01:799,62.756,0.119,0.107,-0.126,-16.014,99.748,15.331
10:44:01:854,62.811,0.170,0.142,-0.174,-15.947,99.226,18.275
10:44:01:854,62.811,0.069,0.257,-0.259,-16.024,98.871,20.473
10:44:01:876,62.833,-0.011,0.287,-0.368,-16.161,98.100,24.213
10:44:01:903,62.859,-0.040,0.425,-0.622,-16.018,96.783,28.698
10:44:02:305,63.262,-0.027,0.398,-0.895,-15.692,95.294,32.135
10:44:02:306,63.263,-0.001,0.454,-1.263,-14.509,91.535,37.929
10:44:02:307,63.264,-0.084,0.118,-1.124,-12.812,87.911,42.182
10:44:02:307,63.264,-0.334,-0.039,-1.005,-10.003,84.161,48.710
10:44:02:33,63.287,0.083,-0.419,-0.337,-12.087,83.145,53.602
10:44:02:33,63.287,0.277,-0.727,-0.685,-12.092,82.278,55.271
10:44:02:331,63.288,-0.096,-0.703,-0.425,-11.682,81.121,56.350
10:44:02:481,63.438,-0.009,-1.242,-0.435,-10.985,80.060,55.361
10:44:02:595,63.552,0.107,-0.978,-0.369,-10.631,79.462,52.342
10:44:02:596,63.553,0.107,-0.643,-0.161,-11.213,80.055,49.505
10:44:02:597,63.554,0.153,-0.675,-0.421,-12.140,81.543,43.827
10:44:02:597,63.554,0.146,-0.395,-0.358,-12.968,83.903,36.647
10:44:02:725,63.682,0.139,-0.197,-0.347,-13.226,85.988,31.085
10:44:02:726,63.683,0.137,0.143,-0.352,-12.873,89.390,21.790
10:44:02:726,63.683,0.137,0.556,-0.075,-12.202,91.846,15.113
10:44:02:727,63.684,0.110,0.932,0.300,-10.708,95.160,5.032
10:44:02:857,63.814,-0.264,1.309,1.332,-8.912,97.986,-4.323
10:44:02:857,63.814,-0.357,0.808,1.677,-7.164,99.428,-9.830
10:44:02:858,63.815,-0.610,-0.049,2.073,-5.376,101.617,-15.870
10:44:02:859,63.816,0.287,-0.306,1.558,-4.881,102.012,-17.640
10:44:02:954,63.911,-0.105,-0.243,1.320,-6.169,102.052,-16.942
10:44:03:087,64.044,0.104,1.218,-2.124,-6.778,103.726,-13.725
10:44:03:087,64.044,0.299,0.126,-0.167,-6.128,104.696,-12.123
10:44:03:12,64.077,0.195,0.337,0.565,-6.065,107.738,-8.180
10:44:03:12,64.077,0.472,-0.137,0.608,-6.499,108.165,-5.785
10:44:03:121,64.078,-0.208,-0.281,0.327,-7.496,108.525,-2.773
10:44:03:122,64.079,0.147,0.129,0.041,-8.666,108.618,-1.589
10:44:03:145,64.102,-0.043,0.023,0.022,-9.733,108.997,-0.190
10:44:03:146,64.103,0.063,0.002,0.083,-10.510,109.196,0.817
10:44:03:147,64.104,0.072,0.040,-0.012,-11.124,109.170,1.262
10:44:03:147,64.104,-0.054,-0.004,0.046,-11.857,109.010,1.877
10:44:03:243,64.200,-0.030,0.007,0.008,-12.277,108.701,2.289
10:44:03:434,64.391,0.033,-0.042,-0.013,-12.786,108.216,2.902
10:44:03:434,64.391,0.034,0.006,-0.007,-13.140,107.943,3.297
10:44:03:435,64.392,-0.006,0.014,-0.014,-13.648,107.438,3.999
10:44:03:436,64.393,-0.008,0.022,-0.013,-14.100,106.837,4.834
10:44:03:585,64.541,0.015,0.048,-0.028,-14.364,106.409,5.456
10:44:03:697,64.654,0.027,-0.004,-0.086,-14.569,105.606,6.518
10:44:03:697,64.654,0.020,0.000,-0.091,-14.739,105.168,7.375
10:44:03:698,64.655,0.004,0.045,-0.085,-15.168,104.634,8.998
10:44:03:699,64.656,-0.040,0.038,-0.157,-15.460,103.986,11.128
10:44:03:723,64.680,0.052,0.080,-0.093,-15.591,103.632,12.858
10:44:03:724,64.681,0.061,0.465,-0.605,-15.686,99.587,26.053
10:44:03:725,64.682,-0.001,0.335,-0.775,-15.182,98.160,29.186
10:44:03:725,64.682,0.234,0.397,-1.162,-14.197,95.104,34.421
10:44:03:75,64.707,-0.160,0.293,-0.927,-13.186,92.295,38.338
10:44:03:751,64.708,-0.410,0.486,-0.771,-11.930,88.833,44.799
10:44:03:752,64.709,-0.356,-0.294,-0.883,-12.505,87.432,50.422
10:44:03:801,64.758,-0.317,-0.201,-0.008,-14.560,87.760,54.608
10:44:03:802,64.759,-0.035,-1.136,-0.391,-14.707,87.511,54.732
10:44:03:803,64.760,-0.151,-1.223,-0.479,-13.187,87.223,52.218
10:44:03:803,64.760,-0.048,-0.778,-0.239,-12.548,87.786,49.804
10:44:03:83,64.787,-0.022,-0.589,-0.279,-12.570,90.063,44.720
10:44:03:83,64.787,-0.147,0.050,-0.352,-10.491,98.998,23.935
10:44:03:83,64.787,-0.101,0.319,-0.268,-9.603,101.977,17.545
10:44:03:831,64.788,-0.145,0.930,0.026,-7.902,106.993,7.583
10:44:03:855,64.812,-0.289,1.354,1.234,-5.962,112.695,-2.034
10:44:03:855,64.812,0.867,-0.096,1.006,-2.839,125.732,-10.604
10:44:03:855,64.812,0.293,0.130,0.807,-3.431,127.361,-8.261
10:44:03:856,64.813,-0.084,-0.198,0.326,-4.804,128.705,-5.072
10:44:03:881,64.838,0.020,0.026,0.253,-5.482,129.424,-3.713
10:44:03:881,64.838,0.133,0.045,-0.021,-6.581,129.547,-2.103
10:44:03:881,64.838,0.104,0.039,0.011,-7.271,129.550,-0.911
10:44:03:931,64.888,0.031,-0.026,0.067,-7.740,129.534,-0.227
10:44:03:932,64.889,0.014,0.026,0.060,-8.523,129.667,0.539
10:44:03:932,64.889,-0.009,-0.019,0.041,-8.856,129.541,1.057
10:44:03:95,64.907,0.039,-0.023,0.022,-9.226,128.972,1.745
10:44:04:004,64.961,0.079,0.021,-0.014,-9.527,128.381,2.321
10:44:04:083,65.039,0.001,-0.053,0.008,-9.752,127.929,2.694
10:44:04:14,65.096,-0.034,-0.003,-0.003,-10.162,127.537,3.236
10:44:04:14,65.096,-0.029,0.029,0.024,-10.316,127.415,3.649
10:44:04:353,65.310,0.001,0.024,-0.032,-10.483,127.018,4.362
10:44:04:354,65.311,-0.078,-0.053,-0.128,-10.512,126.455,4.921
10:44:04:355,65.312,-0.048,0.020,-0.095,-10.695,126.259,6.234
10:44:04:356,65.313,-0.036,0.026,-0.071,-10.825,126.369,8.174
10:44:04:375,65.332,-0.010,0.073,-0.109,-10.835,126.480,9.711
10:44:04:376,65.333,0.077,0.061,-0.106,-10.773,126.569,12.396
10:44:04:563,65.520,0.052,0.158,-0.162,-10.730,126.612,14.420
10:44:04:563,65.520,-0.006,0.262,-0.219,-10.653,126.639,17.788
10:44:04:564,65.521,-0.166,0.403,-0.321,-10.382,126.660,21.542
10:44:04:565,65.522,-0.336,0.529,-0.407,-10.255,126.406,24.397
10:44:04:826,65.782,-0.344,0.624,-0.918,-9.794,125.188,29.120
10:44:04:826,65.782,-0.619,0.225,-0.973,-8.924,123.396,32.719
10:44:04:827,65.784,-0.588,0.127,-0.621,-6.227,120.050,38.481
10:44:04:828,65.785,-0.900,-0.058,-0.359,-4.866,119.153,42.410
10:44:04:854,65.810,-0.054,-0.237,-0.062,-7.623,120.936,47.383
10:44:04:854,65.810,-0.162,-0.521,-0.195,-8.995,122.002,49.617
10:44:04:854,65.810,-0.355,-0.613,-0.045,-9.300,122.751,50.233
10:44:04:855,65.811,-0.443,-1.144,-0.141,-9.701,124.027,49.100
10:44:04:957,65.914,-0.280,-0.918,-0.259,-9.795,125.225,47.160
10:44:04:958,65.915,-0.243,-0.576,-0.035,-9.832,128.367,43.242
10:44:04:958,65.915,-0.521,-0.451,-0.122,-10.260,132.592,37.894
10:44:04:959,65.916,-0.474,-0.271,-0.075,-10.462,135.985,33.585
10:44:04:982,65.939,-0.461,-0.004,0.042,-9.991,141.537,26.378
10:44:04:983,65.940,-0.371,0.367,0.226,-9.357,145.380,21.111
10:44:04:984,65.941,-0.236,0.493,0.389,-7.920,151.010,12.662
10:44:04:985,65.942,-0.076,0.772,0.692,-6.000,155.748,4.087
10:44:05:,65.957,0.355,0.809,1.062,-4.857,158.589,-1.618
10:44:05:079,66.036,0.773,0.403,1.011,-3.566,160.890,-9.676
10:44:05:115,66.072,1.429,-0.057,0.904,-3.397,161.363,-14.411
10:44:05:116,66.073,1.134,-0.022,0.688,-4.830,159.817,-19.459
10:44:05:116,66.073,1.132,-0.479,0.817,-5.282,159.031,-20.877
10:44:05:117,66.074,1.158,-0.271,0.377,-6.753,159.374,-20.310
10:44:05:195,66.151,0.244,0.309,-0.488,-7.150,161.399,-17.459
10:44:05:196,66.153,-1.114,0.727,-1.477,-6.874,163.468,-15.537
10:44:05:196,66.153,1.202,-0.020,0.258,-5.271,168.394,-12.977
10:44:05:196,66.153,0.656,0.223,-0.090,-5.195,171.019,-10.978
10:44:05:246,66.202,0.496,-0.069,0.369,-5.758,172.784,-7.977
10:44:05:246,66.202,0.169,-0.071,0.105,-6.595,173.127,-5.543
10:44:05:247,66.203,0.179,-0.037,0.104,-6.965,173.283,-4.231
10:44:05:248,66.204,0.144,0.135,-0.164,-7.539,173.240,-2.733
10:44:05:272,66.229,0.142,0.019,0.026,-7.948,173.372,-1.996
10:44:05:273,66.230,0.108,0.028,0.059,-8.785,173.850,-1.082
10:44:05:274,66.231,0.089,0.010,0.097,-9.116,173.838,-0.540
10:44:05:274,66.231,0.046,-0.006,0.018,-9.464,173.589,0.173
10:44:05:29,66.247,0.072,-0.003,-0.068,-9.770,173.360,0.769
10:44:05:323,66.280,0.073,0.008,-0.001,-10.066,173.111,1.185
10:44:05:323,66.280,-0.005,-0.018,0.063,-10.555,172.467,1.816
10:44:05:323,66.280,-0.011,-0.004,-0.003,-10.882,172.095,2.313
10:44:05:37,66.327,0.013,0.014,-0.015,-11.324,171.728,3.171
10:44:05:371,66.328,0.026,0.022,-0.022,-11.706,171.438,4.245
10:44:05:421,66.377,0.025,-0.011,-0.025,-11.880,171.134,5.071
10:44:05:451,66.408,0.022,0.032,0.001,-12.093,170.921,6.414
10:44:05:452,66.409,-0.028,0.016,-0.025,-12.246,170.614,7.389
10:44:05:453,66.410,-0.044,0.075,-0.007,-12.394,170.327,9.122
10:44:05:554,66.511,-0.023,0.077,-0.079,-12.528,169.942,11.289
10:44:05:788,66.744,-0.065,0.101,-0.099,-12.597,169.852,13.024
10:44:05:875,66.832,-0.115,0.221,-0.134,-12.714,169.512,16.004
10:44:05:876,66.833,-0.165,0.311,-0.129,-12.622,169.459,18.237
10:44:05:877,66.834,-0.352,0.433,-0.160,-12.476,168.942,22.091
10:44:06:033,66.990,-0.928,0.614,-0.440,-12.315,166.137,30.073
10:44:06:034,66.991,-1.008,0.260,-0.261,-10.972,161.624,35.926
10:44:06:035,66.992,-0.878,0.162,0.044,-9.034,158.174,40.049
10:44:06:036,66.993,-0.170,-0.131,0.004,-9.221,156.791,45.732
10:44:06:052,67.009,-0.663,-0.568,0.020,-10.004,156.297,48.439
10:44:06:35,67.307,0.062,-0.433,0.095,-10.032,156.381,49.996
10:44:06:35,67.307,-0.429,-1.111,-0.206,-9.976,156.296,49.849
10:44:06:351,67.308,-0.466,-1.121,-0.159,-9.981,156.222,48.027
10:44:06:352,67.309,-0.283,-0.717,-0.226,-10.292,157.184,44.246
10:44:06:479,67.436,-0.271,-0.588,-0.215,-10.568,158.587,40.944
10:44:06:48,67.437,-0.334,-0.405,-0.211,-10.666,160.948,34.740
10:44:06:481,67.438,-0.335,-0.161,-0.151,-10.294,162.653,29.841
10:44:06:946,67.902,-0.140,0.431,-0.100,-7.937,168.317,12.535
10:44:06:947,67.903,0.021,0.665,-0.061,-7.021,170.475,6.154
10:44:07:03,67.987,0.792,1.084,0.434,-5.542,174.208,-2.804
10:44:07:031,67.988,1.159,0.855,0.842,-4.084,176.534,-8.541
10:44:07:032,67.989,1.856,-0.493,1.174,-1.085,-179.817,-15.666
10:44:07:136,68.093,1.693,-0.571,0.167,-1.030,-179.215,-20.920
10:44:07:136,68.093,1.016,-0.095,0.337,-2.453,-179.546,-19.332
10:44:07:137,68.094,-1.656,1.005,-0.591,-2.237,-178.439,-17.021
10:44:07:138,68.095,0.567,-0.264,-0.014,-1.516,-175.908,-14.291
10:44:07:232,68.189,0.785,-0.004,0.173,-1.068,-171.877,-10.796
10:44:07:471,68.428,0.961,0.028,-0.283,-1.709,-170.064,-8.644
10:44:08:029,68.986,0.324,-0.363,0.064,-2.792,-168.995,-5.726
10:44:08:03,68.987,0.145,0.053,0.095,-3.713,-168.905,-4.439
10:44:08:03,68.987,0.130,0.038,-0.033,-5.263,-168.512,-2.295
10:44:08:031,68.988,0.097,-0.021,-0.027,-5.952,-168.332,-1.315
10:44:08:107,69.064,0.113,0.024,0.023,-6.713,-168.339,-0.597
10:44:08:108,69.065,0.093,0.016,0.051,-7.142,-168.556,-0.184
10:44:08:109,69.066,0.071,0.003,-0.064,-8.044,-169.354,0.608
10:44:08:11,69.067,0.035,-0.021,0.020,-8.559,-170.054,1.080
10:44:08:492,69.449,0.021,0.005,0.082,-9.069,-170.810,1.622
10:44:08:712,69.669,0.025,0.008,0.069,-9.377,-170.982,2.046
10:44:08:712,69.669,-0.647,-0.614,0.373,-8.191,176.887,46.673
10:44:08:713,69.670,-0.225,-0.483,-0.142,-9.473,177.530,48.180
10:44:08:714,69.671,-0.444,-1.107,0.135,-9.043,178.123,48.450
10:44:08:938,69.894,-0.379,-0.907,-0.062,-9.101,179.267,45.337
10:44:09:202,70.159,-0.224,-0.610,0.041,-8.963,-179.521,42.588
10:44:09:264,70.221,-0.352,-0.505,0.069,-8.784,-176.978,37.234
10:44:09:264,70.221,-0.383,-0.320,0.104,-8.371,-174.038,30.427
10:44:09:264,70.221,-0.353,-0.089,0.158,-7.747,-171.928,25.294
10:44:09:265,70.222,-0.263,0.286,0.137,-6.674,-168.217,16.862
10:44:10:496,71.453,-0.119,0.501,0.167,-5.801,-165.475,10.830
10:44:10:496,71.453,1.759,-0.388,-0.176,1.342,-151.220,-17.702
10:44:10:89,71.847,-0.338,0.437,0.184,-7.318,-148.906,19.828
10:44:10:89,71.847,-0.510,0.539,0.370,-6.802,-149.420,24.305
10:44:10:891,71.848,-0.976,0.630,0.445,-6.354,-150.244,27.603
10:44:10:892,71.849,-0.942,0.238,0.401,-4.567,-153.371,33.133
10:44:10:91,71.867,-0.488,0.076,0.908,-1.865,-156.440,37.039
10:44:10:911,71.868,-0.446,-0.213,0.774,-1.769,-156.361,43.045
10:44:11:852,72.809,-0.238,-0.490,0.233,-4.183,-154.591,47.326
10:44:12:045,73.002,1.113,-0.560,-0.798,1.850,-117.674,-20.232
10:44:12:045,73.002,0.399,0.270,-0.727,0.390,-112.951,-10.785
10:44:12:046,73.003,0.435,0.166,-0.792,-0.432,-111.657,-8.669
10:44:12:047,73.004,0.183,-0.260,-0.284,-1.633,-110.655,-6.120
10:44:12:123,73.080,0.192,0.106,0.045,-2.727,-110.626,-4.544
10:44:12:123,73.080,0.072,-0.002,-0.033,-7.593,-112.453,2.089
10:44:12:124,73.081,-0.146,0.352,0.209,-8.259,-113.360,19.686
10:44:12:125,73.082,-0.148,0.555,0.567,-8.063,-113.932,22.630
10:44:12:173,73.130,-0.460,0.599,0.684,-7.457,-115.701,27.446
10:44:12:174,73.131,-0.662,0.436,1.159,-6.473,-117.853,31.148
10:44:12:175,73.132,-0.451,0.190,0.987,-3.636,-122.058,37.089
10:44:12:245,73.202,-0.045,0.365,0.535,-8.139,-91.289,25.447
10:44:12:275,73.232,-0.040,0.513,0.950,-7.472,-93.284,30.574
10:44:12:276,73.233,-0.158,0.315,1.426,-5.715,-97.328,36.360
10:44:12:307,73.264,0.085,0.186,1.258,-3.822,-100.021,40.543
10:44:12:309,73.266,0.418,0.905,-0.739,-2.250,-87.868,-1.570
10:44:12:31,73.267,0.741,0.856,-1.275,-1.489,-85.834,-7.503
10:44:12:413,73.369,0.436,0.207,-1.646,0.479,-83.495,-15.324
10:44:12:413,73.369,0.189,-0.552,-2.035,0.708,-83.499,-20.901
10:44:12:413,73.369,-0.636,-0.985,-2.000,0.166,-84.636,-22.394
10:44:12:414,73.370,-0.028,-0.527,0.270,-4.550,-95.243,39.974
10:44:12:599,73.556,0.201,0.212,0.320,-3.386,-89.687,18.355
10:44:12:599,73.556,0.205,0.563,0.119,-3.283,-87.423,12.077
10:44:12:599,73.556,0.350,0.895,-0.468,-2.409,-83.697,2.579
10:44:12:6,73.557,0.601,0.965,-1.355,-1.650,-81.566,-3.670
10:44:12:797,73.753,0.532,0.507,-1.697,-0.147,-79.465,-11.909
10:44:12:857,73.814,0.413,-0.399,-2.171,0.494,-78.891,-18.262
10:44:12:858,73.815,0.035,-0.674,-1.938,-0.212,-80.096,-20.632
10:44:12:859,73.816,0.343,-0.427,-1.408,-1.965,-81.380,-21.011
10:44:12:86,73.817,0.014,-0.142,-1.084,-3.216,-81.826,-19.427
10:44:12:957,73.914,-0.836,0.958,1.315,-4.108,-81.142,-15.763
10:44:13:007,73.964,-0.138,-0.015,0.155,-2.736,-78.376,-13.010
10:44:13:113,74.069,0.243,0.126,-1.245,-1.994,-74.756,-10.831
10:44:13:28,74.237,-0.002,0.127,-0.903,-3.201,-71.335,-7.315
10:44:13:28,74.237,-0.072,0.015,-0.444,-3.874,-70.773,-5.263
10:44:13:281,74.238,0.136,0.052,-0.188,-4.638,-71.443,-2.790
10:44:13:281,74.238,-0.072,0.023,-0.084,-4.912,-71.675,-1.617
10:44:13:378,74.335,0.092,0.022,-0.077,-5.442,-71.624,-0.326
10:44:13:378,74.335,0.040,0.024,-0.087,-6.174,-71.433,0.581
10:44:13:514,74.471,0.147,0.012,-0.084,-6.628,-71.636,1.075
10:44:13:515,74.472,0.084,-0.034,-0.023,-7.155,-72.264,1.848
10:44:13:516,74.473,0.044,0.001,-0.049,-7.437,-72.712,2.355
10:44:13:516,74.473,0.064,-0.028,-0.022,-7.884,-73.530,3.151
10:44:13:646,74.602,0.142,-0.021,-0.007,-8.237,-74.407,4.048
10:44:13:647,74.603,0.113,0.021,-0.004,-8.456,-74.907,4.737
10:44:13:648,74.604,0.043,0.019,-0.001,-8.702,-75.526,5.949
10:44:13:648,74.604,0.074,0.014,0.062,-8.861,-76.815,6.892
10:44:13:9,74.857,0.038,0.253,0.179,-9.730,-81.281,19.963
10:44:13:937,74.894,0.060,0.356,0.347,-9.634,-81.808,22.467
10:44:13:937,74.894,0.149,0.516,0.623,-9.074,-83.626,26.849
10:44:13:937,74.894,-0.166,0.699,1.092,-7.917,-86.460,31.806
10:44:13:938,74.895,-0.001,0.317,1.247,-5.998,-89.591,35.518
10:44:13:962,74.919,0.472,-0.316,0.823,-1.422,-94.380,45.396
10:44:13:963,74.920,0.404,-0.669,0.794,-2.960,-93.655,49.916
10:44:13:963,74.920,0.201,-0.286,0.366,-4.592,-85.469,31.523
10:44:13:963,74.920,0.275,0.353,0.215,-3.352,-80.490,17.578
10:44:13:985,74.942,0.215,0.721,-0.157,-2.396,-77.186,8.334
10:44:13:985,74.942,0.313,1.010,-0.808,-1.624,-75.054,2.018
10:44:14:119,75.076,0.490,-0.113,-2.094,1.266,-69.285,-11.499
10:44:14:119,75.076,-0.252,-0.144,-1.788,2.411,-66.099,-16.828
10:44:14:12,75.077,-0.926,-0.450,-1.522,2.096,-58.973,-11.220
10:44:14:121,75.078,-0.265,0.365,-0.881,1.655,-56.400,-8.500
10:44:14:615,75.571,0.173,-0.086,-0.218,0.497,-55.180,-5.338
10:44:14:616,75.572,0.076,-0.098,-0.464,-0.109,-54.165,-3.713
10:44:14:616,75.572,-0.071,0.085,-0.036,-1.996,-54.492,-0.624
10:44:14:669,75.626,0.009,0.000,-0.050,-2.427,-54.602,0.028
10:44:14:67,75.627,0.113,0.000,-0.039,-3.432,-54.512,0.890
10:44:14:67,75.627,0.183,-0.002,-0.166,-4.221,-54.666,1.766
10:44:14:671,75.628,0.083,0.009,0.020,-6.171,-55.644,8.523
10:44:14:8,75.757,0.087,0.019,-0.003,-6.169,-55.421,9.493
10:44:14:801,75.758,0.101,0.014,0.068,-6.150,-55.773,11.147
10:44:14:801,75.758,0.095,0.058,0.054,-6.078,-55.744,12.438
10:44:14:802,75.759,0.041,0.136,0.137,-5.884,-55.918,14.749
10:44:14:872,75.828,0.102,0.202,0.185,-5.561,-55.948,17.575
10:44:14:931,75.888,0.211,0.246,0.179,-5.362,-55.808,19.797
10:44:14:932,75.889,0.325,0.415,0.346,-5.103,-55.972,23.706
10:44:14:932,75.889,0.438,0.518,0.561,-4.796,-56.323,26.724
10:44:14:933,75.890,0.431,0.570,0.889,-3.973,-57.620,31.688
10:44:15:087,76.044,0.696,0.158,0.966,-2.558,-59.833,35.313
10:44:15:088,76.045,0.956,0.080,0.668,1.836,-64.340,40.945
10:44:15:088,76.045,0.804,-0.320,0.414,2.009,-63.957,47.033
10:44:15:186,76.143,0.573,-0.622,0.402,0.581,-62.976,50.312
10:44:15:221,76.178,0.185,-0.352,-0.009,-0.606,-61.291,52.360
10:44:15:221,76.178,0.216,-1.035,0.376,-1.178,-60.275,52.920
10:44:15:222,76.179,-1.013,-0.129,-1.176,1.223,-22.364,-13.223
10:44:15:223,76.180,-1.989,-0.684,-0.657,0.860,-23.118,-16.453
10:44:15:292,76.248,-0.831,-0.095,-0.753,-0.655,-23.566,-16.008
10:44:15:325,76.282,-0.668,0.007,-0.019,-1.234,-22.677,-14.106
10:44:15:326,76.283,1.378,0.955,1.975,-1.562,-20.091,-10.834
10:44:15:327,76.284,-0.998,-0.178,-0.244,-0.769,-17.547,-9.068
10:44:15:642,76.598,-0.556,0.117,-0.422,-2.198,-12.054,-2.934
10:44:15:643,76.599,0.002,-0.258,-0.362,-2.940,-11.508,-1.380
10:44:15:644,76.600,-0.067,0.007,-0.102,-3.875,-11.443,0.359
10:44:15:645,76.601,-0.042,-0.012,0.063,-4.302,-11.676,1.230
10:44:15:925,76.882,0.043,0.053,-0.123,-5.662,-11.811,2.727
10:44:15:926,76.883,0.032,-0.014,-0.119,-6.455,-12.070,3.404
10:44:16:029,76.986,0.042,-0.016,-0.032,-7.064,-12.809,4.105
10:44:16:03,76.987,0.035,-0.047,-0.016,-7.362,-13.318,4.523
10:44:16:159,77.116,0.112,0.029,-0.037,-7.784,-13.901,5.275
10:44:16:191,77.148,0.088,0.023,-0.055,-8.440,-15.274,6.961
10:44:16:192,77.149,0.116,0.000,-0.016,-8.723,-16.462,8.191
10:44:16:193,77.150,0.047,0.032,-0.042,-9.293,-17.574,11.764
10:44:16:194,77.151,0.118,0.035,-0.007,-9.332,-18.022,13.505
10:44:16:297,77.253,0.149,0.053,0.070,-9.346,-18.334,14.836
10:44:16:298,77.254,0.124,0.125,0.089,-9.337,-18.716,17.199
10:44:16:299,77.255,0.213,0.160,0.056,-9.324,-19.317,20.037
10:44:16:299,77.255,0.269,0.210,0.085,-9.304,-19.522,22.225
10:44:16:319,77.275,0.392,0.339,0.127,-9.150,-20.060,26.005
10:44:16:319,77.276,0.754,0.529,0.269,-9.000,-20.832,28.980
10:44:16:642,77.599,0.898,0.561,0.628,-8.432,-23.036,33.947
10:44:16:642,77.599,1.110,0.136,0.466,-6.341,-26.886,39.600
10:44:16:642,77.599,0.887,0.174,0.055,-4.156,-29.510,43.519
10:44:16:643,77.600,0.210,-0.534,-0.069,-6.534,-25.253,46.024
10:44:16:744,77.701,0.569,-0.448,-0.043,-6.793,-22.059,40.013
10:44:16:744,77.701,0.523,-0.130,-0.082,-6.570,-19.774,35.192
10:44:16:744,77.701,0.477,0.051,-0.174,-5.725,-16.083,27.375
10:44:16:745,77.702,-1.164,-0.225,-0.059,-2.857,-1.122,-15.100
10:44:16:892,77.849,-0.369,0.115,0.159,-3.415,-0.831,-13.181
10:44:17:023,77.980,-0.378,0.211,0.121,-3.920,3.614,-5.850
10:44:17:498,78.455,-0.021,0.068,0.138,-5.119,4.771,-2.911
10:44:17:71,78.667,0.022,0.049,-0.121,-8.241,3.600,3.355
10:44:17:711,78.668,-0.004,0.026,-0.120,-8.705,3.297,3.978
10:44:17:82,78.777,0.030,-0.034,-0.037,-9.105,2.517,4.863
10:44:17:82,78.777,0.058,-0.003,-0.003,-9.291,2.080,5.350
10:44:17:821,78.778,0.027,-0.003,-0.064,-9.670,1.643,6.039
10:44:17:866,78.823,0.049,0.001,-0.072,-10.272,0.810,7.199
10:44:17:867,78.824,0.055,0.026,-0.029,-10.623,1.050,7.907
10:44:17:951,78.907,0.074,0.017,-0.054,-10.784,0.679,8.427
10:44:17:952,78.908,0.107,-0.005,-0.072,-11.126,0.480,9.169
10:44:17:953,78.909,0.185,0.007,-0.040,-11.214,-0.050,10.407
10:44:17:953,78.909,1.251,0.577,0.420,-10.567,-3.680,33.126
10:44:18:135,79.092,0.870,0.094,-0.011,-8.243,-7.650,38.970
10:44:18:136,79.093,1.097,0.235,-0.385,-5.131,-10.811,43.094
10:44:18:137,79.094,0.595,-0.215,-0.185,-5.011,-11.162,49.162
10:44:18:138,79.095,0.268,-0.547,0.359,-7.694,-10.537,53.038
10:44:18:179,79.136,0.010,-0.307,-0.443,-7.910,-9.967,54.177
10:44:18:266,79.223,0.413,-1.125,-0.062,-8.159,-9.665,54.573
10:44:18:267,79.224,0.301,-1.037,-0.051,-7.887,-9.112,53.104
10:44:18:283,79.240,0.091,0.028,-0.059,-9.540,30.703,8.080
10:44:18:37,79.327,0.121,0.065,-0.061,-9.330,30.091,14.682
10:44:18:371,79.328,0.216,0.098,-0.015,-9.200,29.866,17.320
10:44:18:371,79.328,0.511,0.467,-0.335,-8.594,29.249,27.326
10:44:18:397,79.354,1.288,0.388,-0.486,-6.576,26.370,35.830
10:44:18:398,79.355,0.932,0.126,-0.641,-4.569,24.159,39.640
10:44:18:399,79.356,0.627,0.022,-1.050,-2.196,22.603,45.707
10:44:18:399,79.356,0.296,-0.529,-0.528,-5.522,24.958,50.966
10:44:18:467,79.424,0.331,-0.478,-0.030,-7.504,26.558,52.741
10:44:18:519,79.476,-0.082,-0.550,-0.362,-8.403,28.419,53.920
10:44:18:546,79.503,0.236,-1.265,-0.503,-8.870,30.015,53.367
10:44:18:835,79.792,0.195,-1.033,-0.340,-9.451,32.504,50.736
10:44:18:97,79.927,0.096,-0.452,-0.503,-9.043,42.691,36.843
10:44:18:971,79.928,0.126,-0.227,-0.464,-8.453,45.617,31.829
10:44:19:105,80.062,0.014,0.138,-0.423,-7.270,50.216,23.651
10:44:19:106,80.063,-0.051,0.365,-0.381,-6.342,53.198,17.762
10:44:19:107,80.064,-0.889,0.973,0.446,-4.026,62.212,2.446
10:44:19:107,80.064,-1.068,0.804,0.740,-2.436,66.900,-5.577
10:44:19:265,80.222,-1.697,-0.321,1.595,-0.786,70.964,-11.291
10:44:19:266,80.223,-0.505,-0.569,2.018,-0.260,71.874,-13.242
10:44:19:266,80.223,-0.892,-0.338,1.055,-1.477,71.605,-13.325
10:44:19:267,80.224,0.644,0.567,-0.721,-2.491,72.289,-10.577
10:44:19:394,80.351,1.131,0.609,-0.965,-2.364,73.282,-9.081
10:44:19:395,80.352,-0.322,0.055,1.115,-2.634,75.098,-5.918
10:44:19:396,80.353,-0.300,0.054,0.238,-3.497,75.458,-3.935
10:44:19:396,80.353,-0.121,-0.061,0.308,-4.731,77.123,-1.536
10:44:19:47,80.427,-0.059,0.016,0.058,-5.733,77.924,-0.087
10:44:19:471,80.428,0.075,0.081,0.058,-6.204,78.147,0.669
10:44:19:472,80.429,0.097,0.010,0.044,-6.875,77.977,1.695
10:44:19:5,80.457,-0.026,0.027,0.064,-7.442,78.164,2.173
10:44:19:5,80.457,-0.026,0.015,0.036,-8.282,78.329,2.723
10:44:19:501,80.458,-0.059,0.022,0.018,-8.908,77.920,3.195
10:44:19:502,80.459,0.085,-0.045,-0.010,-9.241,77.546,3.435
10:44:19:526,80.483,0.042,0.107,-0.140,-12.092,75.893,13.706
10:44:19:526,80.483,0.065,0.178,-0.159,-12.076,76.010,18.336
10:44:19:527,80.484,0.130,0.244,-0.279,-11.960,76.082,21.789
10:44:19:528,80.485,0.437,0.159,-1.145,-9.271,70.501,38.072
10:44:19:599,80.555,-0.083,0.153,-0.991,-6.934,67.777,44.152
10:44:19:599,80.555,-0.255,-0.068,-0.987,-8.051,68.450,48.115
10:44:19:624,80.581,-0.117,-0.528,-0.655,-10.814,69.452,52.162
10:44:19:625,80.582,-0.092,-1.127,-0.414,-11.905,72.234,51.833
10:44:19:756,80.713,0.049,-0.826,-0.353,-11.896,73.316,49.594
10:44:19:757,80.714,-0.010,-0.569,-0.231,-11.902,76.014,45.103
10:44:19:788,80.745,-0.074,-0.436,-0.349,-11.789,78.041,41.359
10:44:19:788,80.745,-0.080,-0.041,-0.341,-9.990,84.330,27.025
10:44:19:789,80.746,-0.108,0.153,-0.302,-9.223,86.615,21.364
10:44:19:79,80.747,-0.205,0.576,-0.135,-8.192,90.159,12.350
10:44:19:815,80.772,-0.289,0.878,0.176,-7.379,92.557,6.193
10:44:19:815,80.772,-0.522,1.043,1.015,-6.570,95.561,-2.756
10:44:19:816,80.773,-0.495,0.226,1.677,-5.903,96.241,-8.118
10:44:19:884,80.841,-0.042,-0.731,1.841,-6.655,93.787,-17.801
10:44:19:919,80.876,-0.140,-0.476,1.418,-7.653,93.023,-17.862
10:44:19:92,80.877,0.253,-0.249,1.155,-8.558,94.116,-15.520
10:44:19:921,80.878,0.848,0.886,-1.869,-8.850,95.679,-13.475
10:44:19:922,80.879,0.286,-0.119,0.554,-7.741,99.385,-11.015
10:44:19:946,80.902,0.167,0.203,0.550,-7.555,102.256,-8.870
10:44:19:947,80.903,-0.099,-0.029,0.590,-7.988,104.446,-5.883
10:44:19:948,80.904,0.192,-0.009,0.256,-8.906,105.349,-3.211
10:44:20:018,80.975,0.178,0.134,0.078,-10.085,105.371,-0.266
10:44:20:041,80.998,0.003,-0.037,-0.020,-10.465,105.253,0.647
10:44:20:076,81.033,0.006,0.011,0.115,-11.124,105.822,1.602
10:44:20:077,81.034,-0.013,0.021,0.061,-11.682,105.926,2.395
10:44:20:078,81.035,0.018,0.010,0.062,-11.943,105.642,2.918
10:44:20:079,81.036,0.045,-0.010,-0.020,-12.303,105.183,3.543
10:44:20:181,81.138,0.043,-0.009,-0.001,-12.592,104.937,3.927
10:44:20:182,81.139,-0.059,-0.036,-0.042,-13.079,104.469,4.512
10:44:20:183,81.140,-0.019,0.025,-0.006,-13.520,103.685,5.137
10:44:20:208,81.165,0.001,0.014,-0.083,-14.051,102.478,6.548
10:44:20:209,81.166,-0.018,0.021,-0.088,-14.261,102.251,7.269
10:44:20:209,81.166,-0.014,0.026,-0.051,-14.451,101.605,8.602
10:44:20:21,81.167,0.023,-0.001,-0.092,-14.578,101.185,10.351
10:44:20:23,81.187,0.002,0.065,-0.078,-14.744,100.545,11.713
10:44:20:23,81.187,0.061,0.063,-0.102,-15.011,100.017,14.051
10:44:20:251,81.208,0.007,0.125,-0.159,-15.211,99.166,15.829
10:44:20:358,81.315,0.043,0.197,-0.206,-15.493,98.557,18.910
10:44:20:387,81.344,0.061,0.309,-0.289,-15.598,97.997,21.228
10:44:20:388,81.345,0.031,0.424,-0.427,-15.755,97.033,25.226
10:44:20:465,81.421,0.029,0.438,-0.742,-15.758,95.052,29.868
10:44:20:466,81.422,0.112,0.485,-0.988,-15.686,93.181,33.385
10:44:20:496,81.453,-0.011,0.263,-1.010,-14.422,88.497,39.263
10:44:20:496,81.453,-0.271,0.150,-0.822,-12.250,84.647,43.443
10:44:20:497,81.454,-0.176,-0.101,-0.759,-11.412,81.526,49.218
10:44:20:498,81.455,-0.162,-0.694,-0.596,-11.774,80.087,51.835
10:44:20:603,81.559,0.018,-0.367,0.065,-11.762,78.207,53.573
10:44:20:603,81.559,0.229,-0.942,-0.425,-11.542,76.065,53.610
10:44:20:603,81.559,0.226,-1.088,-0.371,-11.280,75.375,51.912
10:44:20:604,81.560,0.250,-0.778,-0.287,-11.374,75.166,48.184
10:44:20:619,81.575,0.221,-0.622,-0.237,-11.783,75.936,44.919
10:44:20:732,81.689,0.230,-0.460,-0.385,-12.346,77.704,38.805
10:44:20:733,81.690,0.129,-0.165,-0.369,-12.197,79.989,31.464
10:44:20:734,81.691,0.110,0.013,-0.338,-11.749,81.722,25.996
10:44:20:734,81.691,0.170,0.357,-0.222,-10.759,84.667,17.104
10:44:20:862,81.819,-0.126,1.016,0.498,-8.654,90.411,1.930
10:44:20:863,81.820,-0.528,0.827,1.179,-6.884,93.736,-6.628
10:44:20:863,81.820,-0.632,-0.093,1.619,-5.589,95.371,-11.449
10:44:20:884,81.841,-0.326,-0.190,1.464,-5.255,95.751,-16.403
10:44:20:885,81.842,-0.099,-0.479,1.371,-5.337,94.940,-17.673
10:44:20:908,81.865,-0.026,-0.291,1.079,-6.713,93.953,-16.946
10:44:20:992,81.948,0.050,0.506,-0.773,-7.292,95.090,-14.052
10:44:20:993,81.949,0.278,0.135,-0.274,-7.308,95.549,-12.707
10:44:20:994,81.950,0.154,0.468,0.522,-6.917,97.995,-9.591
10:44:21:041,81.998,0.141,0.142,0.255,-7.279,98.814,-7.349
10:44:21:042,81.999,-0.340,-0.438,0.695,-7.553,99.710,-4.606
10:44:21:066,82.023,-0.190,-0.102,0.107,-8.648,100.358,-2.948
