Time,Second,AccelerationX,AccelerationY,AccelerationZ,EulerAnglesX,EulerAnglesY,EulerAnglesZ
10:59:00:455,0.000,0.007,0.005,0.012,-4.520,-12.568,1.685
10:59:00:481,0.026,-0.013,-0.003,0.000,-4.517,-12.505,1.647
10:59:00:565,0.110,-0.013,0.001,0.020,-4.497,-12.461,1.610
10:59:00:566,0.111,0.027,-0.003,0.030,-4.487,-12.502,1.541
10:59:00:567,0.112,-0.004,-0.005,0.011,-4.482,-12.496,1.505
10:59:00:586,0.131,-0.001,-0.003,0.001,-4.481,-12.485,1.451
10:59:00:613,0.158,-0.085,0.002,-0.012,-4.502,-12.520,1.427
10:59:00:639,0.184,0.037,-0.020,0.011,-4.628,-12.820,1.540
10:59:00:665,0.209,-0.058,0.026,0.011,-4.649,-12.830,1.466
10:59:00:691,0.236,0.072,0.028,0.047,-4.689,-12.853,1.358
10:59:00:746,0.291,0.012,0.015,0.008,-4.644,-12.847,1.291
10:59:00:747,0.292,-0.098,0.048,0.019,-4.618,-12.756,1.250
10:59:00:771,0.316,-0.067,0.025,-0.004,-4.509,-12.573,1.135
10:59:00:797,0.342,0.007,0.012,0.043,-4.331,-12.531,0.956
10:59:00:823,0.368,-0.005,0.015,0.048,-3.959,-12.277,0.655
10:59:00:849,0.393,-0.005,-0.009,0.000,-3.728,-12.026,0.299
10:59:00:875,0.419,-0.004,-0.020,-0.010,-3.612,-11.901,0.065
10:59:00:902,0.446,0.030,-0.020,0.012,-3.477,-11.732,-0.248
10:59:00:961,0.505,0.045,-0.079,0.016,-3.405,-11.620,-0.415
10:59:00:961,0.505,-0.057,-0.048,-0.002,-3.358,-11.548,-0.623
10:59:00:962,0.506,0.095,0.045,0.016,-3.397,-11.577,-0.704
10:59:00:98,0.524,0.037,0.032,0.027,-3.306,-11.410,-0.583
10:59:01:006,0.551,-0.016,-0.014,0.035,-3.142,-11.107,-0.346
10:59:01:032,0.577,-0.016,-0.020,0.032,-3.075,-11.001,-0.244
10:59:01:088,0.633,-0.027,-0.019,-0.006,-3.076,-10.944,-0.219
10:59:01:088,0.633,-0.020,0.010,0.005,-3.115,-10.959,-0.241
10:59:01:14,0.685,0.022,0.006,0.029,-3.148,-11.057,-0.323
10:59:01:141,0.686,0.007,-0.009,0.028,-3.157,-11.126,-0.374
10:59:01:19,0.735,0.013,-0.005,0.016,-3.209,-11.284,-0.511
10:59:01:217,0.762,0.016,-0.002,0.007,-3.251,-11.347,-0.550
10:59:01:242,0.787,0.002,0.011,0.013,-3.303,-11.415,-0.565
10:59:01:298,0.842,0.008,-0.001,0.022,-3.330,-11.428,-0.577
10:59:01:299,0.843,0.005,-0.001,0.022,-3.348,-11.436,-0.584
10:59:01:322,0.866,0.010,-0.001,0.017,-3.391,-11.473,-0.597
10:59:01:348,0.892,0.020,-0.006,0.021,-3.414,-11.493,-0.606
10:59:01:374,0.919,0.015,-0.012,0.013,-3.452,-11.519,-0.617
10:59:01:4,0.944,0.005,-0.001,0.015,-3.483,-11.539,-0.608
10:59:01:427,0.971,0.009,-0.001,0.021,-3.519,-11.569,-0.563
10:59:01:453,0.997,0.002,-0.005,0.028,-3.540,-11.598,-0.491
10:59:01:508,1.052,0.009,-0.001,0.018,-3.576,-11.648,-0.456
10:59:01:509,1.053,0.005,-0.002,0.012,-3.635,-11.725,-0.393
10:59:01:532,1.076,0.018,0.006,0.022,-3.686,-11.779,-0.349
10:59:01:559,1.103,0.016,0.007,0.020,-3.751,-11.871,-0.272
10:59:01:584,1.129,0.007,-0.002,0.015,-3.812,-11.950,-0.155
10:59:01:61,1.155,0.001,0.003,0.013,-3.858,-12.001,-0.071
10:59:01:637,1.182,0.003,0.003,0.016,-3.924,-12.075,0.070
10:59:01:663,1.208,0.000,0.001,0.012,-3.960,-12.109,0.153
10:59:01:718,1.263,-0.003,0.002,0.015,-4.007,-12.166,0.264
10:59:01:719,1.264,0.011,0.002,0.015,-4.056,-12.233,0.342
10:59:01:741,1.286,0.005,-0.001,0.016,-4.082,-12.251,0.391
10:59:01:768,1.313,0.005,-0.001,0.006,-4.131,-12.253,0.456
10:59:01:795,1.339,0.007,0.000,0.015,-4.163,-12.259,0.480
10:59:01:822,1.366,0.005,-0.003,0.007,-4.200,-12.281,0.529
10:59:01:846,1.390,0.007,-0.001,0.017,-4.227,-12.309,0.567
10:59:01:873,1.417,0.006,0.003,0.014,-4.255,-12.355,0.610
10:59:01:9,1.444,0.006,0.000,0.020,-4.269,-12.350,0.653
10:59:01:925,1.469,0.004,-0.003,0.013,-4.279,-12.356,0.676
10:59:01:951,1.496,0.000,-0.002,0.013,-4.292,-12.352,0.708
10:59:01:977,1.522,0.007,-0.003,0.012,-4.309,-12.353,0.722
10:59:02:003,1.548,0.004,-0.004,0.018,-4.317,-12.363,0.741
10:59:02:089,1.634,0.006,-0.001,0.014,-4.329,-12.386,0.769
10:59:02:089,1.634,0.008,0.002,0.015,-4.332,-12.407,0.790
10:59:02:09,1.635,0.013,-0.001,0.015,-4.335,-12.410,0.810
10:59:02:138,1.683,0.009,-0.002,0.016,-4.330,-12.419,0.823
10:59:02:139,1.684,0.006,-0.003,0.012,-4.322,-12.416,0.854
10:59:02:191,1.735,0.007,0.002,0.017,-4.311,-12.417,0.880
10:59:02:191,1.735,0.007,0.004,0.014,-4.299,-12.413,0.901
10:59:02:214,1.758,0.002,-0.008,0.014,-4.289,-12.414,0.927
10:59:02:299,1.843,0.012,0.002,0.013,-4.289,-12.419,0.954
10:59:02:299,1.843,0.012,-0.001,0.014,-4.286,-12.436,0.983
10:59:02:301,1.845,0.006,0.001,0.016,-4.284,-12.437,1.005
10:59:02:348,1.893,0.004,-0.004,0.014,-4.267,-12.444,1.029
10:59:02:348,1.893,-0.002,-0.001,0.015,-4.265,-12.456,1.063
10:59:02:371,1.916,0.010,0.001,0.017,-4.261,-12.477,1.065
10:59:02:398,1.943,0.008,0.001,0.018,-4.256,-12.488,1.068
10:59:02:424,1.969,0.008,-0.001,0.004,-4.245,-12.492,1.067
10:59:02:508,2.053,0.004,-0.001,0.009,-4.243,-12.506,1.090
10:59:02:509,2.054,0.007,-0.001,0.010,-4.230,-12.504,1.096
10:59:02:51,2.055,0.003,0.000,0.011,-4.226,-12.534,1.125
10:59:02:529,2.073,0.006,0.000,0.003,-4.215,-12.566,1.152
10:59:02:555,2.099,0.008,0.000,0.017,-4.212,-12.571,1.170
10:59:02:581,2.125,0.012,0.000,0.011,-4.201,-12.594,1.197
10:59:02:608,2.152,0.012,-0.003,0.022,-4.194,-12.612,1.206
10:59:02:634,2.178,0.001,-0.017,-0.006,-4.185,-12.590,1.209
10:59:02:689,2.233,-0.002,-0.010,0.016,-4.178,-12.550,1.152
10:59:02:69,2.234,-0.010,0.025,-0.009,-4.217,-12.559,1.081
10:59:02:712,2.257,0.037,0.023,0.030,-4.225,-12.623,1.091
10:59:02:739,2.284,-0.017,0.006,0.008,-4.227,-12.578,1.169
10:59:02:765,2.310,0.007,-0.001,0.019,-4.217,-12.539,1.280
10:59:02:791,2.336,0.001,-0.005,0.009,-4.192,-12.517,1.333
10:59:02:818,2.363,0.002,-0.006,0.008,-4.166,-12.513,1.372
10:59:02:844,2.389,0.015,-0.009,0.020,-4.137,-12.519,1.368
10:59:02:9,2.445,0.004,-0.020,0.018,-4.118,-12.503,1.359
10:59:02:901,2.446,-0.022,-0.021,-0.042,-4.115,-12.502,1.328
10:59:02:923,2.467,0.087,-0.004,0.116,-4.272,-12.851,1.466
10:59:02:949,2.493,0.047,-0.009,0.007,-4.336,-13.151,1.637
10:59:02:975,2.519,0.017,0.004,0.024,-4.292,-13.252,1.578
10:59:03:003,2.547,0.000,0.027,0.017,-4.282,-13.389,1.500
10:59:03:028,2.572,0.013,-0.010,0.022,-4.258,-13.551,1.328
10:59:03:054,2.598,0.012,0.007,0.005,-4.257,-13.589,1.211
10:59:03:08,2.625,0.017,0.003,0.022,-4.252,-13.631,1.048
10:59:03:106,2.651,0.008,0.020,0.007,-4.243,-13.602,0.938
10:59:03:133,2.678,0.010,0.008,-0.004,-4.217,-13.566,0.797
10:59:03:158,2.703,0.002,0.015,-0.006,-4.115,-13.513,0.640
10:59:03:189,2.734,0.001,0.005,-0.005,-3.992,-13.400,0.495
10:59:03:189,2.734,-0.016,0.003,0.012,-3.742,-13.189,0.174
10:59:03:241,2.786,-0.033,-0.003,-0.012,-3.561,-13.024,-0.168
10:59:03:242,2.787,-0.055,-0.002,-0.002,-3.314,-12.727,-0.933
10:59:03:264,2.809,-0.222,-0.017,0.003,-3.189,-12.381,-2.457
10:59:03:29,2.834,-0.275,0.076,0.047,-3.344,-12.258,-4.084
10:59:03:317,2.861,-0.434,0.203,-0.017,-4.276,-12.221,-7.456
10:59:03:344,2.888,-0.437,0.699,-0.199,-5.514,-11.983,-10.031
10:59:03:4,2.944,-1.059,0.305,-0.470,-6.935,-10.858,-14.002
10:59:03:4,2.944,-1.002,-0.176,0.005,-8.178,-10.837,-16.443
10:59:03:451,2.995,-1.263,-0.624,0.055,-10.007,-11.695,-18.098
10:59:03:451,2.996,-1.063,-0.498,0.131,-11.665,-12.122,-16.923
10:59:03:473,3.018,-0.718,-0.416,0.085,-12.017,-12.161,-15.238
10:59:03:502,3.047,-0.417,-0.140,0.107,-11.478,-11.574,-11.460
10:59:03:527,3.072,-0.195,0.025,0.166,-10.654,-11.119,-8.425
10:59:03:553,3.098,-0.081,0.083,0.159,-9.243,-10.524,-3.587
10:59:03:579,3.124,0.474,0.256,0.144,-8.355,-11.662,1.410
10:59:03:605,3.150,0.654,0.264,0.080,-7.843,-13.271,4.495
10:59:03:632,3.177,0.819,0.032,0.008,-6.898,-16.111,8.380
10:59:03:658,3.203,0.974,-0.048,-0.207,-6.365,-17.808,10.275
10:59:03:686,3.230,1.196,-0.333,-0.109,-5.296,-19.601,11.520
10:59:03:711,3.255,1.147,-0.362,-0.092,-4.898,-20.171,11.769
10:59:03:737,3.281,1.081,-0.360,-0.018,-5.207,-20.733,11.370
10:59:03:763,3.307,0.058,0.237,0.283,-5.969,-21.908,10.002
10:59:03:789,3.333,-0.332,1.068,0.096,-6.853,-22.356,9.260
10:59:03:816,3.360,0.779,0.442,-0.101,-7.114,-24.286,5.752
10:59:03:841,3.386,-0.068,-0.163,0.110,-7.263,-24.914,3.773
10:59:03:867,3.412,0.419,-0.417,0.197,-8.449,-25.423,0.838
10:59:03:894,3.439,-0.040,0.168,-0.009,-10.306,-25.788,-0.975
10:59:03:92,3.465,0.225,0.107,0.121,-11.500,-26.168,-2.114
10:59:03:947,3.492,0.031,0.091,0.040,-12.838,-26.522,-3.764
10:59:04:003,3.547,0.126,0.096,0.009,-13.489,-26.637,-4.761
10:59:04:003,3.547,0.023,0.153,0.041,-14.023,-26.274,-6.079
10:59:04:084,3.629,0.071,0.154,0.039,-14.318,-24.419,-7.026
10:59:04:084,3.629,-0.027,0.181,0.026,-14.398,-23.651,-7.560
10:59:04:084,3.629,-0.069,0.138,0.012,-14.167,-21.422,-8.138
10:59:04:104,3.649,-0.055,0.107,-0.023,-13.951,-20.682,-8.473
10:59:04:13,3.675,-0.118,0.056,0.005,-13.638,-18.438,-9.113
10:59:04:156,3.701,-0.139,0.024,0.046,-13.517,-17.713,-9.751
10:59:04:212,3.756,-0.110,0.077,0.028,-13.538,-15.939,-10.936
10:59:04:213,3.757,-0.259,-0.013,0.080,-13.716,-14.390,-12.442
10:59:04:235,3.780,-0.246,-0.006,0.084,-14.000,-13.879,-13.769
10:59:04:261,3.806,-0.298,-0.063,0.100,-14.825,-12.643,-16.393
10:59:04:287,3.832,-0.417,-0.016,0.093,-15.753,-12.157,-18.648
10:59:04:314,3.859,-0.473,-0.062,0.112,-17.827,-10.859,-22.927
10:59:04:369,3.914,-0.556,0.047,0.118,-20.581,-8.992,-28.459
10:59:04:37,3.915,-0.678,0.409,0.302,-22.672,-6.792,-32.978
10:59:04:393,3.938,-1.760,0.826,0.078,-26.062,-1.606,-40.710
10:59:04:419,3.964,-1.957,0.376,-0.012,-28.835,2.004,-46.075
10:59:04:445,3.989,-0.839,-0.594,0.216,-33.312,5.103,-52.585
10:59:04:474,4.018,-1.210,-0.813,-0.079,-35.315,7.197,-54.737
10:59:04:498,4.042,-0.859,-1.276,0.315,-34.239,9.932,-53.950
10:59:04:524,4.068,-0.571,-0.923,0.097,-29.624,11.472,-49.422
10:59:04:552,4.096,-0.528,-0.828,0.170,-26.536,11.569,-44.513
10:59:04:578,4.122,-0.538,-0.353,0.271,-22.604,11.392,-35.103
10:59:04:631,4.176,-0.312,0.163,0.487,-20.007,11.543,-28.178
10:59:04:632,4.177,0.169,0.506,0.640,-16.627,11.327,-16.971
10:59:04:655,4.200,0.906,0.960,0.089,-14.079,8.807,-5.453
10:59:04:681,4.226,1.818,1.056,-0.742,-12.349,5.471,1.776
10:59:04:707,4.252,2.186,-0.118,-0.925,-9.907,0.881,10.184
10:59:04:734,4.279,2.266,-1.161,-1.125,-8.095,-1.363,12.388
10:59:04:789,4.334,1.833,-1.373,-0.600,-7.127,-3.332,12.711
10:59:04:79,4.335,-0.868,-0.425,-1.237,-8.319,-3.343,11.189
10:59:04:871,4.415,2.087,2.414,1.607,-12.049,-4.737,7.232
10:59:04:872,4.416,-0.308,0.194,-0.761,-14.308,-6.963,0.870
10:59:04:873,4.417,0.948,0.028,-0.224,-15.028,-7.575,-3.237
10:59:04:952,4.496,0.107,0.122,-0.223,-15.998,-7.427,-6.626
10:59:04:952,4.496,0.178,0.136,0.095,-17.048,-7.149,-7.870
10:59:04:953,4.497,0.135,0.325,0.121,-17.673,-6.769,-9.535
10:59:05:,4.545,-0.153,0.467,0.246,-17.806,-5.674,-10.879
10:59:05:001,4.545,-0.372,0.317,0.087,-17.758,-4.895,-11.687
10:59:05:082,4.626,-0.352,0.155,0.043,-17.832,-3.439,-13.193
10:59:05:082,4.626,-0.280,-0.144,0.058,-17.933,-2.097,-14.444
10:59:05:083,4.627,-0.318,-0.252,0.092,-18.304,0.204,-16.893
10:59:05:129,4.673,-0.349,-0.175,0.167,-19.028,1.799,-19.205
10:59:05:157,4.701,-0.325,-0.073,0.186,-21.046,4.757,-23.925
10:59:05:158,4.702,-0.489,0.079,0.307,-23.809,8.903,-30.032
10:59:05:18,4.725,-0.904,0.201,0.461,-25.858,12.788,-34.943
10:59:05:206,4.751,-1.306,0.731,0.722,-29.377,19.111,-42.900
10:59:05:232,4.777,-1.181,0.063,0.321,-31.955,22.367,-47.256
10:59:05:32,4.865,-1.360,-0.617,0.371,-34.962,26.126,-51.441
10:59:05:321,4.866,-0.600,-1.313,0.502,-34.241,29.181,-51.862
10:59:05:321,4.866,-0.471,-1.008,0.453,-32.022,30.469,-50.077
10:59:05:322,4.867,-0.472,-0.910,0.335,-28.262,31.249,-44.170
10:59:05:364,4.909,-0.346,-0.450,0.329,-26.015,30.919,-38.344
10:59:05:39,4.934,-0.129,-0.042,0.252,-22.967,30.466,-27.904
10:59:05:417,4.961,0.277,0.699,0.623,-21.128,32.265,-20.618
10:59:05:444,4.988,0.804,0.966,0.314,-18.811,34.913,-9.825
10:59:05:469,5.013,1.673,1.105,-1.116,-17.528,35.298,0.289
10:59:05:5,5.044,1.899,0.344,-1.641,-16.998,33.962,6.201
10:59:05:5,5.044,1.495,-0.823,-1.761,-15.275,31.276,10.554
10:59:05:548,5.093,1.410,-1.063,-1.242,-14.902,30.186,10.592
10:59:05:576,5.121,0.330,0.261,0.724,-16.019,30.287,8.379
10:59:05:577,5.122,0.548,-1.376,0.861,-17.867,27.401,4.198
10:59:05:601,5.146,0.132,0.168,-0.608,-19.622,26.193,1.151
10:59:05:626,5.171,0.429,-0.065,-0.143,-20.291,24.794,-3.222
10:59:05:654,5.199,-0.165,0.248,-0.325,-21.388,25.243,-4.969
10:59:05:679,5.224,0.217,0.285,-0.141,-22.401,25.355,-6.836
10:59:05:705,5.250,0.193,0.524,0.135,-23.059,26.133,-7.892
10:59:05:761,5.305,0.038,0.458,0.206,-23.467,28.019,-9.570
10:59:05:761,5.305,-0.267,0.473,0.366,-23.141,30.042,-11.128
10:59:05:843,5.387,-0.256,0.393,0.416,-23.111,31.384,-12.059
10:59:05:843,5.387,-0.178,-0.093,0.407,-23.236,34.131,-14.158
10:59:05:844,5.388,-0.289,-0.285,0.419,-23.428,36.278,-16.037
10:59:05:919,5.464,-0.134,-0.156,0.447,-24.764,39.729,-20.114
10:59:05:919,5.464,-0.021,0.261,0.568,-27.481,44.290,-26.470
10:59:05:945,5.490,-0.179,0.139,0.715,-29.514,48.362,-31.609
10:59:05:945,5.490,-0.383,0.090,1.066,-32.969,54.549,-39.919
10:59:06:026,5.571,-0.589,0.311,1.198,-36.251,58.140,-45.293
10:59:06:026,5.571,-1.025,-0.367,1.429,-40.328,63.581,-50.452
10:59:06:027,5.572,-0.313,-1.351,1.056,-41.240,68.363,-51.998
10:59:06:075,5.620,-0.252,-0.878,0.795,-39.124,71.148,-51.325
10:59:06:076,5.621,-0.033,-0.905,0.627,-34.050,72.893,-46.626
10:59:06:099,5.644,0.013,-0.566,0.656,-30.087,73.661,-41.550
10:59:06:154,5.698,0.124,-0.219,0.569,-24.799,74.554,-31.999
10:59:06:155,5.699,0.683,0.720,0.543,-22.374,75.769,-24.781
10:59:06:179,5.723,0.914,1.016,0.046,-19.448,77.034,-13.595
10:59:06:205,5.749,0.645,1.074,-1.731,-17.121,74.466,-2.487
10:59:06:231,5.775,0.299,0.364,-2.291,-15.677,71.105,4.027
10:59:06:257,5.801,0.142,-1.125,-2.506,-12.872,65.572,9.632
10:59:06:282,5.827,0.535,-1.146,-1.926,-11.831,63.006,9.924
10:59:06:367,5.911,0.049,-0.613,-0.932,-12.570,61.287,8.572
10:59:06:367,5.911,5.584,1.583,-1.449,-15.901,58.659,4.363
10:59:06:393,5.937,-1.153,-0.307,-0.312,-18.337,58.072,1.787
10:59:06:393,5.937,-0.222,0.422,-0.661,-20.508,57.023,-3.240
10:59:06:444,5.989,-0.579,0.040,-0.666,-20.992,57.120,-5.395
10:59:06:444,5.989,-0.109,0.376,0.004,-21.674,58.012,-7.854
10:59:06:466,6.011,0.207,0.407,-0.030,-21.758,58.510,-9.101
10:59:06:522,6.066,0.271,0.636,0.284,-21.272,59.856,-11.012
10:59:06:523,6.067,-0.077,0.460,0.565,-20.810,61.190,-12.862
10:59:06:576,6.120,0.018,0.260,0.568,-20.743,62.389,-14.359
10:59:06:576,6.120,0.039,-0.315,0.629,-20.612,65.073,-17.175
10:59:06:599,6.143,-0.008,-0.297,0.604,-21.234,66.837,-19.788
10:59:06:74,6.284,0.010,-0.073,0.469,-23.437,69.564,-25.323
10:59:06:74,6.284,0.087,-0.144,0.616,-26.273,73.323,-32.292
10:59:06:74,6.284,0.070,-0.014,0.648,-28.342,77.088,-37.613
10:59:06:741,6.285,0.001,0.417,1.483,-31.820,83.342,-45.509
10:59:06:757,6.301,-0.270,-0.194,1.602,-34.113,86.401,-49.915
10:59:06:785,6.329,-0.237,-0.723,1.845,-36.924,89.696,-53.969
10:59:06:786,6.330,-0.040,-1.130,0.933,-36.989,91.287,-54.570
10:59:06:807,6.352,0.025,-0.998,0.617,-34.326,92.113,-52.975
10:59:06:833,6.378,0.107,-0.756,0.679,-30.754,91.884,-47.519
10:59:06:86,6.405,0.115,-0.545,0.595,-27.924,91.141,-41.962
10:59:06:886,6.431,0.093,-0.162,0.677,-23.879,90.153,-31.780
10:59:06:942,6.487,0.362,0.340,0.494,-21.357,89.732,-24.149
10:59:06:942,6.487,0.411,1.216,-0.081,-18.235,89.952,-12.207
10:59:06:965,6.510,0.330,1.009,-1.645,-15.184,89.425,-0.657
10:59:07:021,6.565,-0.058,0.423,-2.080,-13.881,87.879,6.176
10:59:07:021,6.565,-0.406,-1.275,-2.487,-9.901,81.905,11.950
10:59:07:074,6.618,-0.390,-1.441,-2.779,-8.481,77.496,12.950
10:59:07:075,6.619,-0.575,-0.798,-1.575,-9.117,73.350,11.788
10:59:07:183,6.728,0.504,2.275,0.817,-11.283,72.843,9.584
10:59:07:184,6.729,1.795,-4.081,-0.050,-12.762,70.227,3.334
10:59:07:185,6.730,-0.267,-0.085,-1.148,-17.614,69.358,-2.195
10:59:07:231,6.776,0.174,0.217,-0.133,-19.073,69.716,-7.949
10:59:07:231,6.776,0.286,0.451,0.050,-19.217,70.270,-9.249
10:59:07:283,6.828,0.265,0.633,0.331,-18.715,71.378,-11.113
10:59:07:283,6.828,0.125,0.210,0.511,-18.181,72.918,-13.018
10:59:07:335,6.880,0.038,0.089,0.482,-17.967,74.031,-14.533
10:59:07:336,6.881,0.004,-0.165,0.476,-17.845,76.192,-17.222
10:59:07:417,6.961,0.055,-0.187,0.568,-18.101,77.961,-19.634
10:59:07:418,6.962,0.069,-0.121,0.503,-19.529,80.809,-24.749
10:59:07:419,6.963,0.256,-0.017,0.553,-21.223,82.886,-28.914
10:59:07:438,6.982,0.100,0.012,0.947,-23.907,87.026,-36.124
10:59:07:517,7.062,0.140,0.294,1.642,-27.353,91.013,-43.702
10:59:07:548,7.093,0.021,0.064,1.802,-30.039,92.853,-47.889
10:59:07:549,7.094,0.189,-0.900,1.816,-33.845,94.499,-51.591
10:59:07:55,7.095,0.067,-0.970,1.028,-34.508,95.607,-52.207
10:59:07:571,7.116,-0.038,-0.855,0.742,-32.588,96.340,-50.128
10:59:07:596,7.141,0.066,-0.626,0.720,-29.058,95.504,-43.835
10:59:07:624,7.168,0.118,-0.472,0.617,-26.482,93.993,-37.832
10:59:07:625,7.169,0.109,0.088,0.521,-23.064,91.738,-27.193
10:59:07:678,7.222,0.406,0.655,-0.003,-20.847,90.602,-19.502
10:59:07:705,7.249,0.197,0.861,-0.569,-17.296,91.127,-8.119
10:59:07:705,7.249,-0.170,0.970,-2.035,-15.392,91.195,-0.686
10:59:07:813,7.358,-0.438,0.584,-2.305,-13.340,89.211,9.603
10:59:07:814,7.359,-1.138,-1.255,-2.509,-9.999,84.040,15.148
10:59:07:815,7.360,-0.564,-1.578,-2.883,-8.619,80.239,16.115
10:59:07:816,7.361,-0.516,-0.313,-1.127,-10.122,77.823,14.922
10:59:07:831,7.376,-0.142,2.705,-2.248,-11.794,77.226,12.507
10:59:07:859,7.404,2.496,0.132,-2.876,-12.864,73.231,4.920
10:59:07:884,7.429,-0.348,0.221,-0.612,-16.659,71.886,-0.663
10:59:07:91,7.455,0.240,0.191,-0.274,-17.018,71.289,-4.273
10:59:07:937,7.482,0.204,0.175,-0.254,-18.961,72.041,-7.389
10:59:07:963,7.508,-0.044,0.462,-0.197,-20.191,72.291,-8.644
10:59:07:989,7.533,0.308,0.586,0.056,-20.725,73.063,-10.469
10:59:08:044,7.589,0.244,0.563,0.551,-20.771,74.173,-11.641
10:59:08:045,7.590,0.106,0.275,0.575,-20.972,75.936,-13.394
10:59:08:068,7.613,0.040,0.079,0.499,-21.413,78.189,-15.593
10:59:08:095,7.640,0.027,-0.207,0.445,-21.683,80.170,-17.446
10:59:08:121,7.666,0.086,-0.099,0.510,-22.858,83.533,-21.617
10:59:08:147,7.692,0.330,-0.080,0.565,-24.441,85.937,-25.418
10:59:08:174,7.718,0.499,-0.145,0.788,-27.538,91.039,-32.521
10:59:08:2,7.744,0.410,-0.026,0.954,-30.574,96.509,-40.484
10:59:08:225,7.769,0.411,-0.044,1.490,-33.271,99.919,-45.355
10:59:08:252,7.796,-0.074,-0.309,2.197,-36.959,104.328,-49.875
10:59:08:278,7.822,0.529,-1.400,1.544,-37.521,106.369,-50.153
10:59:08:304,7.848,0.397,-0.877,0.839,-36.084,108.296,-48.135
10:59:08:331,7.875,0.296,-0.933,0.687,-32.793,109.082,-41.728
10:59:08:356,7.901,0.315,-0.492,0.511,-30.424,109.101,-35.702
10:59:08:382,7.927,0.249,-0.150,0.210,-26.572,109.383,-25.046
10:59:08:41,7.955,0.662,0.756,0.065,-24.683,111.358,-17.410
10:59:08:464,8.009,0.550,1.043,-1.023,-22.341,115.326,-6.439
10:59:08:465,8.010,-0.387,0.964,-2.366,-21.463,116.777,0.660
10:59:08:488,8.033,-0.980,0.758,-2.682,-20.872,113.895,10.535
10:59:08:514,8.059,-1.429,-1.159,-1.541,-17.691,108.368,15.085
10:59:08:567,8.111,-0.769,-0.624,-0.770,-18.393,102.308,13.639
10:59:08:593,8.137,1.649,0.473,-2.189,-20.661,102.111,9.961
10:59:08:619,8.163,-0.360,0.330,-0.562,-23.620,99.488,4.638
10:59:08:704,8.248,-0.046,0.235,-0.410,-25.462,98.882,-0.200
10:59:08:705,8.249,-0.014,0.164,0.006,-26.623,99.868,-2.429
10:59:08:705,8.250,0.085,0.366,-0.191,-27.814,100.807,-5.057
10:59:08:753,8.298,0.237,0.437,-0.170,-28.084,101.727,-6.373
10:59:08:754,8.299,0.373,0.495,0.305,-28.099,103.960,-8.486
10:59:08:778,8.323,0.339,0.286,0.328,-28.164,105.471,-9.909
10:59:08:804,8.349,0.265,-0.090,0.284,-28.242,108.067,-12.407
10:59:08:829,8.374,0.376,-0.186,0.266,-28.625,111.135,-15.712
10:59:08:855,8.400,0.445,-0.127,0.316,-29.267,113.238,-18.626
10:59:08:881,8.426,0.459,-0.088,0.169,-31.141,116.695,-24.354
10:59:08:908,8.453,0.818,-0.055,0.353,-33.043,120.008,-29.194
10:59:08:934,8.478,0.971,0.301,0.779,-36.331,126.784,-37.844
10:59:08:961,8.505,1.176,-0.019,0.868,-40.625,132.390,-46.125
10:59:09:016,8.560,1.478,-0.424,1.157,-43.733,136.299,-50.585
10:59:09:017,8.561,1.415,-1.328,1.048,-46.387,141.250,-53.497
10:59:09:039,8.584,0.671,-1.108,0.506,-45.603,143.648,-53.378
10:59:09:065,8.610,0.661,-0.832,0.427,-43.016,144.393,-49.570
10:59:09:091,8.636,0.486,-0.737,0.138,-39.903,143.770,-44.204
10:59:09:118,8.663,0.565,-0.387,0.138,-34.324,142.847,-33.973
10:59:09:144,8.688,0.520,0.381,-0.305,-29.079,143.967,-22.411
10:59:09:171,8.715,0.608,0.621,-0.525,-25.785,147.213,-15.034
10:59:09:197,8.741,-0.629,1.333,-1.571,-22.343,152.251,-4.216
10:59:09:222,8.767,-1.965,1.257,-1.731,-21.357,153.547,2.761
10:59:09:307,8.852,-2.157,-1.144,-0.663,-19.372,149.633,11.747
10:59:09:308,8.853,-2.600,-1.409,-0.756,-15.798,144.021,13.924
10:59:09:308,8.853,-1.708,-1.104,-0.883,-15.969,141.588,13.615
10:59:09:328,8.873,-0.395,2.051,-2.909,-20.472,140.011,10.648
10:59:09:354,8.899,0.817,-1.447,-1.188,-20.888,138.859,6.365
10:59:09:38,8.925,-0.445,0.144,-0.141,-23.044,137.654,0.177
10:59:09:407,8.952,-0.093,0.358,0.261,-23.425,137.413,-2.581
10:59:09:434,8.978,-0.232,0.096,-0.245,-25.533,138.206,-5.255
10:59:09:461,9.005,0.009,0.247,-0.268,-26.877,138.512,-7.031
10:59:09:487,9.031,0.146,0.439,-0.209,-27.181,139.260,-8.179
10:59:09:512,9.056,0.421,0.474,-0.050,-27.067,140.860,-9.982
10:59:09:538,9.082,0.517,0.496,0.049,-26.831,141.782,-11.151
10:59:09:564,9.108,0.604,0.200,0.066,-26.751,143.603,-13.075
10:59:09:59,9.135,0.615,-0.152,0.089,-26.719,145.470,-14.889
10:59:09:616,9.161,0.710,-0.272,0.151,-26.974,148.847,-18.637
10:59:09:642,9.187,0.512,0.054,-0.117,-28.921,152.962,-24.398
10:59:09:67,9.215,0.958,0.041,0.203,-30.724,156.762,-29.455
10:59:09:696,9.241,1.277,-0.036,0.375,-33.416,164.743,-38.517
10:59:09:721,9.266,1.586,0.215,0.154,-36.451,170.091,-44.597
10:59:09:78,9.325,1.467,-0.553,0.454,-40.747,176.489,-52.142
10:59:09:78,9.325,1.773,-1.430,-0.066,-42.465,-179.528,-54.969
10:59:09:781,9.326,0.844,-1.033,-0.189,-41.130,-178.095,-54.670
10:59:09:8,9.345,0.795,-0.876,-0.048,-38.267,-177.383,-50.513
10:59:09:853,9.397,0.559,-0.477,-0.086,-35.754,-177.901,-45.328
10:59:09:883,9.427,0.390,-0.213,-0.229,-31.649,-179.471,-35.042
10:59:09:883,9.427,0.295,0.224,-0.928,-27.333,-178.592,-23.665
10:59:09:936,9.480,-0.355,0.641,-0.920,-24.675,-177.007,-16.252
10:59:09:936,9.480,-1.328,1.154,-0.753,-21.665,-176.057,-4.981
10:59:09:959,9.503,-2.545,0.560,0.209,-20.621,-178.190,2.505
10:59:10:043,9.588,-2.463,-0.214,0.766,-18.382,175.706,10.863
10:59:10:043,9.588,-2.561,-1.171,0.471,-16.583,170.700,11.949
10:59:10:044,9.589,-1.771,-0.903,0.313,-17.662,170.120,10.654
10:59:10:121,9.666,-0.383,2.611,-1.397,-21.059,170.247,6.171
10:59:10:121,9.666,-0.214,-2.091,-0.483,-21.112,167.937,2.499
10:59:10:122,9.667,-0.569,-0.319,-0.003,-24.239,167.499,-2.735
10:59:10:171,9.716,-0.067,0.376,0.060,-25.452,167.411,-5.074
10:59:10:171,9.716,-0.270,-0.078,-0.190,-26.727,167.825,-7.600
10:59:10:194,9.738,-0.038,0.214,-0.283,-27.456,168.638,-9.432
10:59:10:249,9.794,0.240,0.374,-0.245,-27.407,169.425,-10.496
10:59:10:25,9.795,0.386,0.390,-0.217,-26.998,170.459,-12.104
10:59:10:273,9.818,0.432,0.311,-0.197,-26.933,171.384,-13.323
10:59:10:299,9.844,0.547,-0.009,-0.274,-26.976,173.833,-15.746
10:59:10:325,9.870,0.689,-0.201,-0.232,-27.327,175.882,-17.925
10:59:10:38,9.925,0.781,-0.216,-0.201,-29.457,179.685,-22.992
10:59:10:381,9.926,0.604,0.193,-0.431,-32.800,-174.408,-30.743
10:59:10:404,9.949,1.094,-0.071,-0.492,-34.786,-169.152,-36.974
10:59:10:43,9.975,1.290,0.072,-0.743,-38.956,-161.106,-46.745
10:59:10:456,10.001,1.228,-0.293,-0.410,-41.982,-156.470,-52.669
10:59:10:511,10.056,1.624,-1.072,-0.686,-44.835,-150.322,-57.243
10:59:10:512,10.057,0.685,-1.482,-0.494,-43.175,-147.593,-57.239
10:59:10:535,10.080,0.693,-1.128,-0.478,-41.540,-146.081,-55.070
10:59:10:562,10.107,0.428,-0.988,-0.278,-37.535,-146.875,-47.977
10:59:10:588,10.133,0.430,-0.446,-0.363,-34.223,-147.496,-41.573
10:59:10:673,10.217,-0.003,-0.073,-0.399,-28.441,-147.063,-30.588
10:59:10:673,10.217,-0.149,0.608,-0.788,-23.685,-142.190,-19.974
10:59:10:674,10.218,-0.957,1.273,-0.283,-22.017,-140.322,-12.868
10:59:10:693,10.237,-2.001,0.845,0.935,-20.889,-141.534,-2.048
10:59:10:719,10.263,-1.543,-0.376,1.756,-20.275,-144.480,3.897
10:59:10:745,10.290,-1.313,-0.947,1.602,-17.513,-150.245,7.015
10:59:10:772,10.317,-1.202,-0.880,0.906,-17.223,-152.303,6.949
10:59:10:799,10.343,2.335,0.946,2.625,-19.454,-152.480,4.588
10:59:10:825,10.369,0.665,-2.069,0.989,-22.236,-154.543,-0.114
10:59:10:851,10.396,-0.541,0.632,-0.356,-25.245,-155.027,-3.962
10:59:10:876,10.421,-0.107,0.124,0.147,-26.420,-155.214,-8.481
10:59:10:932,10.477,-0.055,0.107,-0.010,-27.420,-154.041,-10.575
10:59:10:933,10.478,0.061,0.428,-0.079,-28.337,-153.162,-12.660
10:59:10:955,10.500,-0.015,0.347,-0.338,-28.133,-152.316,-14.264
10:59:11:063,10.607,0.253,0.390,-0.471,-27.798,-151.517,-15.298
10:59:11:095,10.639,0.457,0.304,-0.415,-27.546,-150.200,-16.887
10:59:11:096,10.640,0.334,0.121,-0.468,-27.478,-148.798,-18.265
10:59:11:097,10.641,0.393,-0.293,-0.569,-27.505,-145.912,-21.141
10:59:11:172,10.717,0.230,0.052,-0.642,-30.892,-138.838,-30.363
10:59:11:173,10.718,0.516,-0.027,-0.868,-33.628,-131.853,-38.827
10:59:11:174,10.719,0.882,-0.089,-1.181,-35.712,-126.458,-45.039
10:59:11:25,10.795,0.750,-0.018,-1.404,-40.254,-119.572,-54.036
10:59:11:251,10.796,0.407,-1.440,-1.560,-43.627,-111.200,-59.954
10:59:11:27,10.815,0.241,-1.036,-0.677,-40.504,-109.765,-58.191
10:59:11:296,10.841,0.102,-0.997,-0.543,-38.117,-109.411,-54.648
10:59:11:325,10.870,0.042,-0.483,-0.538,-33.225,-110.482,-45.815
10:59:11:349,10.894,-0.032,-0.407,-0.525,-29.393,-111.127,-38.672
10:59:11:376,10.920,-0.617,0.418,-0.560,-24.036,-110.025,-27.309
10:59:11:402,10.946,-0.642,0.968,-0.141,-20.535,-107.965,-19.907
10:59:11:428,10.972,-0.910,1.542,1.071,-17.201,-106.570,-8.968
10:59:11:455,10.999,-0.696,0.970,2.233,-15.544,-109.106,1.261
10:59:11:482,11.026,-0.165,-0.773,2.298,-13.679,-112.902,5.241
10:59:11:507,11.051,-0.423,-1.168,2.233,-11.393,-118.764,6.386
10:59:11:532,11.077,1.737,-0.242,0.587,-11.812,-121.353,5.790
10:59:11:585,11.130,-3.667,2.041,0.172,-16.257,-121.496,3.448
10:59:11:614,11.159,0.666,0.400,0.189,-15.975,-122.976,-0.932
10:59:11:615,11.160,0.091,-0.099,0.668,-19.926,-123.044,-6.448
10:59:11:638,11.183,0.145,0.394,0.205,-21.595,-122.943,-10.078
10:59:11:666,11.210,0.110,0.315,-0.006,-22.327,-122.025,-11.986
10:59:11:691,11.235,-0.135,0.563,-0.122,-23.064,-120.822,-14.131
10:59:11:717,11.261,-0.100,0.571,-0.631,-22.835,-119.861,-15.513
10:59:11:744,11.288,0.022,0.512,-0.806,-22.029,-117.921,-17.525
10:59:11:799,11.343,0.159,0.036,-0.749,-21.739,-116.034,-19.731
10:59:11:799,11.343,0.128,-0.228,-0.648,-21.756,-114.381,-21.508
10:59:11:821,11.366,-0.018,-0.334,-0.646,-22.529,-111.195,-25.224
10:59:11:848,11.393,-0.040,-0.099,-0.597,-23.738,-108.853,-28.929
10:59:11:903,11.448,-0.175,-0.158,-0.789,-26.042,-104.468,-36.068
10:59:11:904,11.449,0.129,0.060,-1.034,-29.175,-99.079,-43.951
10:59:11:928,11.473,-0.062,0.156,-1.516,-32.431,-95.779,-48.925
10:59:11:953,11.498,0.058,-0.694,-1.800,-36.987,-92.762,-54.725
10:59:11:982,11.527,0.063,-1.091,-1.812,-39.162,-90.798,-56.596
10:59:11:982,11.527,0.115,-1.234,-0.919,-37.528,-88.496,-56.337
10:59:12:005,11.550,-0.024,-0.977,-0.894,-33.050,-88.691,-51.862
10:59:12:032,11.577,-0.156,-0.787,-0.776,-29.149,-89.650,-46.494
10:59:12:058,11.602,-0.054,-0.331,-0.568,-22.867,-91.005,-36.601
10:59:12:084,11.628,-0.124,0.205,-0.365,-19.403,-91.155,-29.115
10:59:12:11,11.654,-0.364,0.630,-0.218,-15.204,-90.840,-17.154
10:59:12:139,11.683,-0.100,1.357,1.377,-13.037,-91.967,-9.211
10:59:12:194,11.738,0.234,0.854,2.363,-10.372,-95.468,1.874
10:59:12:194,11.738,0.812,-0.397,2.638,-7.744,-100.228,8.444
10:59:12:244,11.789,0.421,-1.366,2.918,-5.815,-104.307,9.527
10:59:12:27,11.815,0.145,-0.773,1.947,-6.211,-107.472,8.378
10:59:12:271,11.816,1.124,2.485,-0.166,-8.074,-108.290,6.025
10:59:12:295,11.840,-1.818,-2.719,0.801,-10.498,-111.084,-0.640
10:59:12:32,11.865,-0.776,0.132,0.255,-14.952,-112.065,-6.356
10:59:12:347,11.892,-0.403,0.190,0.060,-16.075,-112.670,-9.154
10:59:12:373,11.918,-0.351,-0.025,0.227,-17.346,-112.220,-12.362
10:59:12:399,11.944,-0.107,0.532,-0.036,-17.828,-111.723,-14.133
10:59:12:425,11.969,-0.278,0.709,-0.309,-17.612,-110.798,-16.375
10:59:12:453,11.997,0.092,0.549,-0.866,-17.223,-110.019,-17.786
10:59:12:479,12.023,0.040,0.170,-0.785,-17.241,-108.883,-20.058
10:59:12:505,12.049,0.046,-0.164,-0.732,-17.256,-106.636,-22.884
10:59:12:531,12.075,-0.014,-0.439,-0.755,-17.268,-104.637,-25.345
10:59:12:557,12.101,-0.104,-0.103,-0.527,-18.593,-101.383,-30.961
10:59:12:584,12.128,-0.161,-0.141,-0.773,-20.289,-98.531,-35.484
10:59:12:61,12.155,0.064,-0.115,-0.935,-22.430,-93.417,-42.470
10:59:12:635,12.180,-0.172,-0.584,-1.251,-25.417,-88.751,-49.085
10:59:12:661,12.206,0.389,-0.139,-1.937,-26.848,-85.853,-52.859
10:59:12:688,12.233,-0.097,-1.096,-1.448,-29.294,-82.654,-55.353
10:59:12:714,12.259,-0.011,-0.666,-0.993,-28.953,-82.199,-55.086
10:59:12:74,12.285,-0.041,-0.630,-0.712,-28.347,-81.713,-52.091
10:59:12:767,12.312,-0.110,-0.635,-0.605,-26.471,-82.755,-47.721
10:59:12:824,12.368,0.013,-0.387,-0.560,-22.727,-84.515,-38.834
10:59:12:824,12.368,-0.006,0.168,-0.494,-19.156,-85.604,-27.932
10:59:12:845,12.389,-0.357,0.542,-0.082,-16.443,-85.064,-20.179
10:59:12:871,12.416,-0.201,1.421,0.770,-13.557,-83.247,-8.713
10:59:12:898,12.443,-0.007,1.162,1.918,-12.429,-84.000,-1.293
10:59:12:924,12.469,0.639,0.608,2.286,-11.368,-87.609,7.944
10:59:12:95,12.495,0.888,-1.352,2.288,-7.868,-94.438,10.838
10:59:12:978,12.523,0.087,-1.063,2.294,-7.427,-98.025,10.783
10:59:13:004,12.548,0.506,2.501,0.232,-9.700,-99.507,8.276
10:59:13:03,12.574,-1.745,-1.769,1.042,-11.787,-100.893,4.308
10:59:13:056,12.600,0.314,0.385,0.647,-14.962,-103.076,-2.351
10:59:13:082,12.626,-0.309,0.647,0.264,-16.128,-104.491,-5.668
10:59:13:109,12.653,0.294,0.035,-0.129,-17.840,-104.156,-9.081
10:59:13:135,12.679,0.073,0.505,-0.002,-18.767,-103.655,-11.485
10:59:13:16,12.705,-0.195,0.671,-0.139,-18.852,-103.162,-12.862
10:59:13:186,12.731,-0.149,0.641,-0.721,-18.525,-101.868,-14.871
10:59:13:213,12.758,-0.095,0.164,-0.620,-18.515,-101.128,-16.173
10:59:13:239,12.784,-0.083,-0.050,-0.570,-18.660,-99.139,-18.685
10:59:13:266,12.810,-0.025,-0.357,-0.578,-18.860,-96.267,-21.849
10:59:13:292,12.837,-0.133,-0.181,-0.419,-19.528,-93.928,-24.915
10:59:13:318,12.863,-0.300,-0.203,-0.461,-21.679,-89.876,-30.910
10:59:13:344,12.889,-0.070,-0.121,-0.851,-23.355,-86.383,-35.388
10:59:13:37,12.915,-0.264,0.038,-1.085,-26.132,-81.200,-42.805
10:59:13:396,12.941,-0.432,-0.040,-1.606,-30.040,-76.934,-50.024
10:59:13:424,12.969,-0.064,0.019,-2.007,-32.800,-74.467,-54.013
10:59:13:45,12.995,-0.455,-0.951,-1.125,-35.826,-72.529,-56.372
10:59:13:475,13.020,-0.239,-0.949,-0.836,-35.413,-71.366,-56.854
10:59:13:532,13.076,-0.146,-0.975,-0.573,-32.498,-70.473,-54.183
10:59:13:532,13.076,-0.179,-0.844,-0.437,-29.971,-70.448,-50.174
10:59:13:554,13.098,-0.365,-0.537,-0.550,-26.356,-71.451,-41.005
10:59:13:581,13.125,-0.703,0.147,-0.070,-23.277,-72.808,-29.398
10:59:13:607,13.151,-0.624,0.434,0.134,-20.316,-72.326,-21.510
10:59:13:633,13.177,-0.355,1.166,0.803,-16.287,-69.595,-9.802
10:59:13:659,13.204,0.558,1.462,1.724,-14.488,-68.410,-2.207
10:59:13:685,13.230,1.245,0.194,1.965,-12.561,-69.903,7.585
10:59:13:711,13.256,1.663,-1.506,2.151,-9.401,-74.562,10.687
10:59:13:738,13.283,1.316,-1.137,1.476,-9.883,-76.201,10.210
10:59:13:764,13.309,-1.604,2.295,2.374,-13.992,-77.669,6.097
10:59:13:79,13.335,1.076,-0.571,0.516,-14.168,-78.745,1.998
10:59:13:846,13.391,0.595,0.213,-0.002,-17.971,-80.114,-3.107
10:59:13:847,13.392,0.536,0.453,-0.133,-19.589,-79.899,-6.567
10:59:13:869,13.413,0.122,0.054,0.078,-20.159,-79.499,-8.398
10:59:13:983,13.527,-0.063,0.432,0.121,-20.842,-78.871,-10.260
10:59:13:984,13.528,-0.220,0.423,-0.179,-20.651,-78.213,-11.301
10:59:13:985,13.529,-0.301,0.453,-0.448,-20.490,-76.934,-12.943
10:59:13:986,13.530,-0.260,0.174,-0.471,-20.472,-75.657,-14.269
10:59:14:001,13.545,-0.276,0.062,-0.414,-20.581,-72.947,-16.889
10:59:14:055,13.600,-0.365,-0.272,-0.518,-21.176,-69.580,-20.522
10:59:14:056,13.601,-0.333,-0.185,-0.550,-22.410,-66.997,-23.967
10:59:14:08,13.625,-0.446,0.033,-0.395,-25.417,-61.879,-30.592
10:59:14:106,13.651,-0.717,-0.073,-0.552,-27.047,-57.271,-35.987
10:59:14:132,13.677,-0.953,0.143,-1.170,-29.830,-49.340,-44.706
10:59:14:187,13.732,-1.112,0.060,-1.255,-33.228,-43.612,-51.995
10:59:14:188,13.733,-1.095,-0.587,-1.222,-34.842,-41.501,-54.226
10:59:14:211,13.756,-1.135,-1.331,-0.549,-34.738,-38.487,-54.917
10:59:14:269,13.813,-0.561,-1.043,-0.489,-33.140,-37.681,-53.313
10:59:14:269,13.813,-0.532,-0.919,-0.308,-30.234,-37.931,-47.001
10:59:14:27,13.814,-0.650,-0.346,-0.271,-28.170,-38.358,-40.915
10:59:14:319,13.863,-0.484,-0.050,0.255,-24.716,-39.249,-30.228
10:59:14:319,13.863,-0.502,0.271,0.478,-20.205,-37.331,-19.077
10:59:14:342,13.886,-0.139,1.063,0.515,-18.205,-35.839,-11.580
10:59:14:369,13.914,1.522,1.120,1.282,-15.968,-36.588,-0.627
10:59:14:421,13.966,1.771,0.294,1.378,-14.966,-38.229,6.011
10:59:14:476,14.020,2.183,-0.830,0.725,-12.681,-41.508,11.260
10:59:14:477,14.021,2.091,-1.106,0.703,-11.280,-44.793,11.966
10:59:14:532,14.076,1.863,-0.709,0.055,-12.150,-45.872,10.809
10:59:14:532,14.076,-0.136,0.532,2.197,-14.258,-47.530,5.219
10:59:14:533,14.077,0.298,0.607,0.352,-16.108,-48.103,1.441
10:59:14:611,14.156,-0.148,0.300,0.819,-17.941,-48.843,-3.137
10:59:14:611,14.156,0.183,0.023,0.285,-19.118,-48.007,-5.099
10:59:14:611,14.156,0.034,0.559,-0.088,-20.536,-47.550,-6.875
10:59:14:632,14.176,-0.184,0.424,0.037,-20.660,-46.532,-8.422
10:59:14:687,14.231,-0.329,0.563,-0.042,-20.552,-45.525,-9.331
10:59:14:688,14.232,-0.440,0.291,-0.290,-20.219,-44.070,-10.870
10:59:14:74,14.284,-0.411,0.059,-0.191,-20.212,-42.844,-12.154
10:59:14:74,14.284,-0.462,-0.138,-0.172,-20.505,-40.384,-14.728
10:59:14:762,14.306,-0.623,-0.191,-0.194,-21.832,-37.418,-18.574
10:59:14:789,14.333,-0.507,-0.106,-0.029,-23.477,-34.976,-22.369
10:59:14:814,14.359,-0.878,0.105,0.083,-26.636,-29.762,-29.681
10:59:14:842,14.387,-1.204,0.137,-0.281,-28.692,-25.119,-35.582
10:59:14:895,14.440,-1.680,0.347,-0.463,-33.250,-18.394,-44.503
10:59:14:896,14.441,-1.100,-0.863,-0.185,-36.493,-15.181,-49.254
10:59:14:919,14.464,-1.628,-1.205,-0.461,-38.696,-11.394,-52.306
10:59:14:945,14.490,-0.710,-1.276,0.016,-35.231,-9.185,-50.532
10:59:14:972,14.517,-0.762,-0.878,-0.053,-32.183,-8.429,-46.960
10:59:14:998,14.543,-0.663,-0.717,0.022,-26.546,-8.106,-37.930
10:59:15:025,14.569,-0.479,0.106,0.196,-23.313,-7.823,-30.457
10:59:15:051,14.595,-0.229,0.801,0.770,-19.462,-6.326,-18.372
10:59:15:164,14.709,0.729,1.255,0.714,-16.583,-3.226,-7.036
10:59:15:165,14.710,1.628,1.252,0.163,-15.178,-3.188,-0.033
10:59:15:166,14.711,2.993,0.160,-0.135,-13.195,-8.049,9.203
10:59:15:167,14.712,2.231,-0.986,-0.567,-10.678,-11.503,12.356
10:59:15:184,14.729,2.249,-1.279,-0.323,-9.200,-15.280,13.109
10:59:15:322,14.867,2.521,2.055,1.027,-11.610,-16.884,10.435
10:59:15:323,14.868,-0.542,-0.729,1.406,-13.742,-17.555,6.805
10:59:15:324,14.869,0.551,-0.022,0.307,-15.681,-18.636,0.670
10:59:15:325,14.870,0.238,0.440,0.176,-16.876,-19.096,-1.683
10:59:15:342,14.887,0.095,-0.062,-0.510,-18.448,-18.642,-4.323
10:59:15:368,14.913,0.163,0.367,0.101,-19.059,-18.347,-5.653
10:59:15:369,14.914,-0.294,0.518,0.074,-19.292,-17.516,-7.341
10:59:15:393,14.937,-0.316,0.488,0.128,-18.926,-16.197,-9.094
10:59:15:418,14.962,-0.432,0.400,0.030,-18.782,-15.593,-10.239
10:59:15:474,15.018,-0.466,0.030,0.069,-18.870,-14.279,-12.238
10:59:15:474,15.018,-0.437,-0.253,-0.046,-19.075,-13.007,-13.808
10:59:15:528,15.072,-0.463,-0.261,-0.028,-20.048,-10.720,-17.061
10:59:15:528,15.072,-0.399,-0.102,0.049,-22.170,-7.108,-22.351
10:59:15:579,15.123,-0.417,0.088,0.300,-24.107,-3.736,-26.831
10:59:15:58,15.124,-1.120,0.026,0.163,-26.737,3.629,-35.086
10:59:15:601,15.146,-1.310,0.539,0.397,-29.174,7.946,-40.591
10:59:15:71,15.255,-1.080,-0.106,0.159,-33.059,12.387,-46.605
10:59:15:711,15.256,-1.451,-0.915,0.335,-34.718,15.010,-48.973
10:59:15:739,15.284,-0.983,-1.189,0.365,-33.762,17.316,-49.118
10:59:15:74,15.285,-0.608,-0.852,0.201,-31.222,18.059,-45.325
10:59:15:74,15.285,-0.524,-0.891,0.266,-29.272,17.758,-40.576
10:59:15:759,15.304,-0.442,-0.365,0.253,-26.384,16.758,-31.108
10:59:15:785,15.330,-0.041,0.094,0.499,-24.415,16.418,-23.814
10:59:15:813,15.357,0.035,0.363,0.545,-21.147,18.746,-12.872
10:59:15:895,15.439,1.028,1.047,0.058,-19.027,20.634,-1.806
10:59:15:896,15.440,1.826,0.873,-0.594,-17.957,20.319,5.478
10:59:15:917,15.461,2.311,0.168,-0.909,-17.219,18.276,14.407
10:59:15:948,15.492,1.994,-1.410,-1.278,-14.806,15.634,16.726
10:59:15:948,15.492,1.880,-1.467,-0.956,-13.779,12.732,17.031
10:59:15:969,15.514,2.060,2.167,1.567,-15.422,11.436,15.221
10:59:15:996,15.541,-0.053,-1.405,2.078,-16.922,9.585,9.472
10:59:16:022,15.566,0.265,0.138,-0.711,-19.805,8.260,4.040
10:59:16:077,15.621,0.394,0.416,-0.031,-20.267,8.677,1.153
10:59:16:078,15.622,0.130,-0.048,-0.232,-21.582,9.608,-1.431
10:59:16:104,15.648,0.313,0.163,0.094,-22.289,10.136,-2.631
10:59:16:127,15.671,0.058,0.415,0.220,-22.280,11.332,-3.972
10:59:16:153,15.697,-0.184,0.274,0.184,-22.215,13.196,-5.388
10:59:16:18,15.724,-0.252,0.200,0.177,-22.235,14.522,-6.406
10:59:16:206,15.750,-0.232,-0.054,0.161,-22.361,16.735,-8.317
10:59:16:232,15.776,-0.248,-0.213,0.237,-22.682,18.340,-9.995
10:59:16:285,15.830,-0.319,-0.068,0.334,-23.996,20.815,-13.377
10:59:16:342,15.887,-0.246,-0.040,0.299,-26.358,23.919,-18.524
10:59:16:343,15.888,-0.197,0.084,0.597,-28.580,27.237,-23.227
10:59:16:344,15.889,-0.545,0.395,0.897,-32.200,34.325,-31.938
10:59:16:392,15.936,-0.880,0.422,1.206,-34.659,39.446,-38.365
10:59:16:393,15.937,-0.885,0.459,1.148,-39.521,45.379,-45.840
10:59:16:448,15.992,-1.002,-0.521,1.137,-41.337,48.350,-48.532
10:59:16:448,15.992,-0.490,-1.233,0.850,-41.120,53.222,-49.470
10:59:16:449,15.993,-0.273,-0.871,0.649,-38.000,54.640,-45.775
10:59:16:498,16.042,-0.128,-0.773,0.615,-35.223,54.654,-40.792
10:59:16:499,16.043,0.196,-0.293,0.557,-30.519,54.245,-31.310
10:59:16:549,16.094,0.443,0.022,0.396,-27.355,54.194,-24.103
10:59:16:55,16.095,0.682,0.431,0.330,-23.376,56.570,-13.169
10:59:16:572,16.117,0.889,0.923,-0.625,-20.752,58.117,-2.066
10:59:16:599,16.144,1.428,0.829,-1.965,-19.405,56.148,5.348
10:59:16:625,16.170,0.650,-0.140,-2.321,-17.515,51.590,14.360
10:59:16:652,16.197,0.659,-1.168,-2.466,-15.238,48.337,16.618
10:59:16:678,16.223,0.185,-1.274,-1.832,-13.890,45.816,16.596
10:59:16:705,16.250,2.792,2.093,0.472,-15.766,45.406,14.684
10:59:16:76,16.304,-0.410,-1.692,-0.912,-18.071,44.189,9.333
10:59:16:76,16.304,-0.024,-0.133,-0.761,-21.200,43.483,4.014
10:59:16:784,16.328,0.492,0.236,0.000,-22.505,43.109,2.107
10:59:16:836,16.380,0.456,0.023,-0.056,-23.936,43.727,-0.524
10:59:16:896,16.440,0.416,0.553,-0.052,-24.548,44.127,-1.799
10:59:16:896,16.440,0.250,0.531,0.317,-24.778,45.829,-3.743
10:59:16:897,16.441,-0.075,0.505,0.537,-24.397,48.036,-5.963
10:59:16:914,16.459,-0.018,0.252,0.496,-24.452,49.192,-7.249
10:59:16:94,16.485,-0.110,-0.168,0.499,-24.763,51.832,-9.846
10:59:16:966,16.511,0.002,-0.268,0.468,-25.305,53.872,-12.045
10:59:16:994,16.539,0.062,-0.173,0.458,-27.056,57.175,-16.740
10:59:17:02,16.565,0.265,-0.359,0.507,-28.782,59.595,-20.878
10:59:17:045,16.590,0.436,-0.285,0.475,-31.737,63.445,-28.041
10:59:17:102,16.647,0.169,0.230,0.822,-35.102,68.678,-36.421
10:59:17:102,16.647,-0.280,0.392,1.837,-38.027,72.189,-41.687
10:59:17:18,16.724,-0.247,-0.251,1.258,-42.413,74.949,-47.263
10:59:17:181,16.725,-0.616,-0.556,1.824,-44.917,76.580,-49.576
10:59:17:292,16.837,-0.263,-0.961,0.700,-44.726,78.164,-49.363
10:59:17:296,16.841,-0.028,-0.894,0.721,-42.515,77.944,-47.168
10:59:17:296,16.841,0.110,-0.781,0.695,-37.035,77.513,-40.105
10:59:17:296,16.841,0.113,-0.275,0.619,-30.517,77.829,-31.073
10:59:17:312,16.857,0.481,0.236,0.545,-27.165,78.011,-24.179
10:59:17:313,16.858,0.747,0.885,0.061,-22.940,79.248,-12.822
10:59:17:334,16.879,0.456,1.311,-1.202,-20.500,80.095,-5.367
10:59:17:419,16.964,0.309,0.553,-2.254,-17.772,77.389,5.705
10:59:17:42,16.965,-0.245,-0.695,-2.696,-14.466,73.258,13.739
10:59:17:421,16.965,-0.320,-1.643,-2.694,-11.427,70.403,15.665
10:59:17:469,17.013,-0.701,-0.818,-1.916,-10.945,68.277,15.908
10:59:17:469,17.013,2.012,2.376,-0.706,-14.428,67.711,13.770
10:59:17:493,17.037,-0.457,-2.120,-0.555,-17.653,66.286,8.052
10:59:17:519,17.063,0.022,-0.193,-0.552,-20.511,64.558,2.971
10:59:17:545,17.089,0.213,0.108,-0.159,-21.345,64.357,0.867
10:59:17:571,17.115,0.196,0.281,-0.240,-22.550,64.619,-1.722
10:59:17:627,17.172,0.255,0.586,-0.029,-22.755,65.134,-3.258
10:59:17:627,17.172,0.344,0.738,0.294,-22.540,66.460,-5.521
10:59:17:678,17.223,0.246,0.475,0.460,-22.280,67.300,-7.019
10:59:17:679,17.224,0.210,0.203,0.530,-22.196,68.943,-9.561
10:59:17:702,17.247,0.076,-0.179,0.533,-22.149,71.406,-12.439
10:59:17:729,17.274,0.032,-0.302,0.512,-22.560,73.341,-14.966
10:59:17:755,17.300,0.291,-0.179,0.340,-24.358,76.507,-20.474
10:59:17:836,17.380,0.454,-0.169,0.504,-26.214,78.517,-24.707
10:59:17:866,17.410,0.156,-0.052,0.582,-29.233,82.810,-32.225
10:59:17:866,17.410,0.229,0.353,1.399,-32.761,88.014,-40.062
10:59:17:867,17.411,0.178,0.114,1.710,-35.046,90.613,-44.377
10:59:17:886,17.430,0.064,-0.621,1.900,-38.561,92.573,-48.395
10:59:17:912,17.456,0.207,-1.005,1.164,-39.410,93.760,-49.228
10:59:17:939,17.483,0.049,-0.900,0.652,-37.866,94.410,-48.000
10:59:17:994,17.539,0.182,-0.695,0.608,-36.151,93.975,-44.802
10:59:17:994,17.539,0.171,-0.724,0.631,-32.208,92.146,-36.788
10:59:18:044,17.589,0.111,-0.172,0.322,-28.124,89.591,-26.089
10:59:18:072,17.617,0.064,0.225,0.366,-25.379,89.071,-18.384
10:59:18:073,17.618,0.196,1.068,-0.176,-22.013,90.073,-6.580
10:59:18:095,17.640,0.186,0.803,-1.917,-20.167,89.715,1.084
10:59:18:18,17.724,-0.004,0.277,-2.420,-18.505,86.491,11.906
10:59:18:181,17.725,-0.856,-1.395,-2.487,-14.999,80.409,17.573
10:59:18:182,17.726,-0.902,-1.494,-2.247,-13.276,76.653,18.621
10:59:18:23,17.774,-1.561,-0.180,-3.452,-14.430,73.876,16.641
10:59:18:23,17.774,2.031,1.255,-0.700,-17.499,72.667,12.893
10:59:18:255,17.799,-0.194,0.668,-1.201,-19.560,70.492,6.678
10:59:18:28,17.824,0.750,0.412,-0.289,-21.922,68.837,2.735
10:59:18:306,17.850,-0.119,0.182,-0.023,-22.993,69.318,0.504
10:59:18:332,17.877,0.283,0.377,-0.224,-23.930,69.804,-2.109
10:59:18:412,17.957,0.440,0.567,0.101,-24.105,70.439,-3.508
10:59:18:442,17.987,0.361,0.641,0.365,-23.794,72.125,-5.741
10:59:18:443,17.988,0.222,0.406,0.517,-23.698,73.008,-7.137
10:59:18:444,17.989,0.205,0.093,0.516,-23.743,74.620,-9.465
10:59:18:493,18.038,0.156,-0.238,0.439,-23.910,77.022,-12.392
10:59:18:494,18.039,0.203,-0.294,0.300,-24.315,78.709,-14.962
10:59:18:545,18.089,0.278,-0.250,0.364,-25.986,81.624,-20.401
10:59:18:545,18.089,0.476,-0.219,0.569,-27.894,83.669,-24.528
10:59:18:568,18.112,0.186,0.113,0.614,-31.384,88.124,-32.058
10:59:18:622,18.167,0.392,0.266,1.069,-35.217,93.915,-40.433
10:59:18:653,18.198,0.423,0.440,1.744,-37.586,97.596,-45.504
10:59:18:653,18.198,0.514,-0.889,1.756,-41.663,101.089,-50.712
10:59:18:654,18.199,0.344,-1.036,1.145,-43.353,102.539,-51.814
10:59:18:704,18.249,0.046,-0.923,0.650,-43.213,103.136,-51.518
10:59:18:704,18.249,0.239,-0.835,0.404,-41.608,102.561,-48.808
10:59:18:781,18.325,0.287,-0.699,0.433,-37.720,100.904,-41.346
10:59:18:782,18.326,0.130,-0.417,0.486,-32.744,98.983,-31.142
10:59:18:808,18.352,0.466,0.182,0.405,-30.104,98.281,-23.386
10:59:18:808,18.352,0.929,0.863,-0.257,-26.265,99.385,-11.627
10:59:18:831,18.375,0.228,1.255,-1.045,-24.276,100.415,-4.015
10:59:18:857,18.401,-0.248,0.593,-2.358,-21.806,98.488,7.445
10:59:18:884,18.428,-1.223,-0.538,-2.066,-19.753,94.182,16.282
10:59:18:911,18.455,-1.507,-1.744,-2.845,-17.041,90.292,18.582
10:59:18:936,18.481,-0.664,-0.900,-1.844,-17.354,88.079,18.666
10:59:18:991,18.536,1.538,2.354,-1.288,-19.690,87.725,15.872
10:59:18:991,18.536,-1.210,-0.793,-0.853,-20.675,85.229,9.793
10:59:19:014,18.559,0.565,-0.118,-0.823,-24.046,83.714,6.237
10:59:19:04,18.585,-0.217,0.398,-0.182,-25.742,83.245,2.158
10:59:19:067,18.612,0.079,0.387,-0.332,-26.892,83.718,-0.843
10:59:19:093,18.638,0.282,0.444,-0.260,-27.408,84.085,-2.328
10:59:19:12,18.665,0.435,0.519,0.166,-27.361,85.271,-4.230
10:59:19:146,18.690,0.420,0.352,0.320,-27.316,86.186,-5.541
10:59:19:172,18.716,0.319,0.007,0.329,-27.516,88.015,-7.822
10:59:19:199,18.743,0.196,-0.200,0.351,-27.927,90.612,-10.826
10:59:19:254,18.798,0.221,-0.179,0.424,-28.562,92.610,-13.323
10:59:19:254,18.798,0.189,-0.156,0.360,-30.438,95.720,-18.429
10:59:19:279,18.823,0.479,0.006,0.350,-32.532,98.254,-22.735
10:59:19:303,18.848,0.574,0.157,0.742,-36.103,104.371,-30.985
10:59:19:411,18.956,0.821,0.377,1.087,-38.446,109.334,-37.402
10:59:19:441,18.986,0.878,0.268,1.514,-42.422,115.414,-45.590
10:59:19:442,18.987,0.627,-0.865,1.330,-45.201,119.327,-49.923
10:59:19:443,18.988,0.925,-0.985,0.946,-45.612,121.554,-50.679
10:59:19:463,19.008,0.365,-0.993,0.552,-43.665,122.987,-48.306
10:59:19:464,19.009,0.514,-0.863,0.388,-41.813,122.762,-44.046
10:59:19:487,19.032,0.481,-0.578,0.332,-38.336,121.335,-34.495
10:59:19:514,19.058,0.779,0.015,-0.186,-34.758,120.815,-23.214
10:59:19:539,19.083,0.675,0.189,-0.334,-32.016,122.315,-15.833
10:59:19:595,19.139,0.481,0.786,-0.859,-29.153,125.701,-5.051
10:59:19:596,19.140,-0.687,1.069,-2.158,-28.198,126.391,2.203
10:59:19:619,19.163,-1.174,-0.470,-1.807,-26.703,124.539,12.633
10:59:19:645,19.189,-1.835,-1.393,-1.257,-23.301,119.660,17.845
10:59:19:67,19.215,-1.820,-1.439,-1.913,-22.381,116.704,18.925
10:59:19:697,19.242,-2.134,1.122,-0.139,-24.121,115.362,17.154
10:59:19:723,19.268,0.489,2.536,-1.600,-25.408,113.987,14.052
10:59:19:75,19.295,-0.898,1.064,-1.106,-27.133,112.074,7.965
10:59:19:776,19.321,-0.074,0.267,-0.131,-27.974,111.174,5.194
10:59:19:802,19.347,-0.524,0.050,0.135,-30.025,111.579,2.446
10:59:19:828,19.373,0.001,0.448,-0.185,-31.503,112.074,0.557
10:59:19:854,19.399,0.153,0.263,-0.350,-31.597,112.762,-0.811
10:59:19:968,19.512,0.452,0.499,-0.279,-31.799,114.254,-2.551
10:59:19:969,19.513,0.552,0.356,0.187,-31.486,115.364,-3.766
10:59:19:97,19.514,0.442,0.260,0.130,-31.469,116.917,-5.629
10:59:19:971,19.515,0.497,-0.018,0.116,-31.976,119.571,-8.386
10:59:19:988,19.532,0.547,-0.210,0.254,-32.679,121.829,-10.933
10:59:20:012,19.556,0.573,-0.226,0.058,-34.860,125.497,-16.223
10:59:20:039,19.584,0.645,-0.093,-0.107,-37.008,128.746,-21.096
10:59:20:065,19.610,1.132,0.087,0.141,-40.967,135.401,-30.378
10:59:20:09,19.635,1.467,0.530,0.345,-44.038,140.925,-37.625
10:59:20:117,19.662,1.783,0.478,0.759,-49.440,148.537,-47.761
10:59:20:143,19.688,1.127,-0.728,0.609,-53.938,153.178,-53.976
10:59:20:169,19.714,1.147,-1.229,0.459,-55.126,155.859,-55.985
10:59:20:195,19.740,0.503,-1.162,0.164,-52.614,158.642,-54.913
10:59:20:222,19.767,0.556,-0.990,0.095,-49.788,158.976,-51.791
10:59:20:248,19.793,0.552,-0.885,-0.003,-43.693,158.300,-43.198
10:59:20:274,19.819,0.493,-0.379,-0.368,-39.654,158.024,-36.320
10:59:20:3,19.845,0.605,0.131,-0.711,-34.500,158.878,-25.345
10:59:20:327,19.872,0.200,0.660,-1.006,-30.063,159.536,-13.980
10:59:20:354,19.899,-1.009,1.559,-0.727,-27.886,158.572,-6.259
10:59:20:38,19.925,-2.040,0.132,-0.666,-25.165,155.488,4.477
10:59:20:406,19.950,-2.418,-0.589,-0.125,-23.481,152.748,11.240
10:59:20:432,19.976,-2.156,-1.171,0.284,-21.427,152.154,11.885
10:59:20:459,20.003,-2.874,-0.112,-0.302,-22.171,152.248,10.271
10:59:20:485,20.029,0.035,-0.525,-1.566,-25.035,151.770,6.946
10:59:20:511,20.055,-0.396,1.056,-0.477,-26.670,149.425,2.138
10:59:20:566,20.111,-0.072,0.106,-0.532,-29.010,148.967,-2.229
10:59:20:568,20.112,0.033,0.223,0.362,-30.337,149.738,-4.580
10:59:20:589,20.134,-0.128,0.283,-0.189,-32.075,150.257,-7.019
10:59:20:616,20.161,0.283,0.414,-0.376,-32.738,151.102,-8.374
10:59:20:642,20.187,0.413,0.434,-0.315,-32.957,152.914,-10.580
10:59:20:668,20.213,0.581,0.378,-0.210,-32.946,154.446,-12.660
10:59:20:694,20.239,0.530,0.068,-0.201,-33.053,155.656,-14.101
10:59:20:721,20.266,0.520,-0.178,-0.060,-33.315,158.181,-16.940
10:59:20:747,20.292,0.552,-0.307,-0.027,-33.694,160.102,-19.221
10:59:20:773,20.318,0.520,-0.264,-0.199,-35.243,163.424,-23.908
10:59:20:8,20.344,0.485,-0.140,-0.404,-37.023,166.091,-28.191
10:59:20:827,20.371,0.803,-0.133,-0.470,-40.584,171.384,-36.150
10:59:20:852,20.396,1.134,-0.014,-0.288,-44.900,178.433,-45.572
10:59:20:879,20.423,1.764,0.348,-0.447,-48.801,-176.988,-51.793
10:59:20:905,20.449,1.420,-0.709,-0.079,-53.957,-171.889,-58.688
10:59:20:931,20.475,1.646,-0.970,-0.103,-56.155,-169.101,-61.435
10:59:20:957,20.502,0.710,-1.305,-0.112,-55.036,-166.837,-61.251
10:59:20:984,20.529,0.540,-1.116,-0.257,-52.312,-166.240,-59.073
10:59:21:009,20.554,0.532,-0.840,-0.333,-46.645,-166.605,-52.134
10:59:21:035,20.580,0.463,-0.524,-0.370,-40.193,-167.417,-42.411
10:59:21:065,20.610,0.343,0.107,-0.753,-36.175,-167.415,-35.056
10:59:21:065,20.610,0.165,0.681,-0.895,-30.485,-164.866,-23.985
10:59:21:118,20.663,-1.057,1.186,-0.458,-27.357,-163.077,-16.642
10:59:21:119,20.664,-1.939,1.336,0.156,-24.367,-163.365,-5.748
10:59:21:141,20.686,-2.546,0.354,1.150,-22.815,-167.303,3.473
10:59:21:167,20.711,-2.017,-0.776,1.170,-21.177,-171.001,5.713
10:59:21:193,20.737,-1.277,-0.664,0.817,-21.324,-174.193,6.063
10:59:21:277,20.821,0.316,-2.585,-0.569,-25.321,-175.893,-1.242
10:59:21:327,20.872,-0.250,0.200,-0.410,-29.856,-175.839,-9.546
10:59:21:383,20.928,-0.231,-0.023,-0.158,-31.199,-175.010,-12.069
10:59:21:384,20.929,0.013,0.368,-0.396,-32.049,-174.385,-13.135
10:59:21:384,20.929,0.160,0.287,-0.521,-32.025,-173.032,-14.774
10:59:21:404,20.949,0.521,0.238,-0.385,-31.858,-171.784,-15.971
10:59:21:429,20.974,0.471,0.202,-0.339,-31.763,-170.010,-17.924
10:59:21:455,21.000,0.404,-0.061,-0.426,-31.930,-167.294,-20.642
10:59:21:54,21.084,0.368,-0.302,-0.404,-32.233,-165.164,-22.864
10:59:21:541,21.085,0.506,-0.431,-0.423,-33.816,-161.994,-27.219
10:59:21:542,21.086,0.400,-0.193,-0.387,-35.815,-159.843,-31.006
10:59:21:561,21.105,0.472,-0.037,-0.646,-39.892,-155.069,-38.372
10:59:21:588,21.132,1.049,-0.168,-1.109,-44.316,-147.644,-48.012
10:59:21:615,21.159,1.428,0.224,-1.315,-47.617,-142.237,-54.604
10:59:21:641,21.185,1.157,0.021,-0.794,-53.625,-136.440,-61.957
10:59:21:666,21.210,1.230,-0.308,-0.630,-55.694,-133.763,-64.584
10:59:21:723,21.268,0.594,-1.834,-0.747,-53.420,-129.956,-64.325
10:59:21:723,21.268,0.233,-1.161,-0.528,-48.853,-128.887,-61.780
10:59:21:744,21.289,0.016,-0.904,-0.731,-41.249,-128.492,-54.763
10:59:21:77,21.315,0.078,-0.673,-0.742,-33.461,-129.931,-44.609
10:59:21:797,21.342,-0.025,-0.366,-0.416,-29.620,-130.814,-37.071
10:59:21:824,21.369,-0.173,0.955,-0.764,-25.583,-129.811,-25.335
10:59:21:85,21.395,-0.958,1.083,0.283,-22.483,-129.578,-17.712
10:59:21:876,21.421,-1.441,1.188,1.157,-19.656,-129.142,-7.584
10:59:21:931,21.475,-1.480,0.836,2.269,-17.327,-133.407,-0.713
10:59:21:932,21.476,-0.949,-0.903,1.890,-15.948,-137.322,1.266
10:59:21:955,21.499,-0.591,-0.597,1.401,-16.780,-140.995,1.085
10:59:21:981,21.525,2.655,0.529,2.525,-19.512,-141.045,-0.563
10:59:22:007,21.551,0.432,-1.737,0.053,-21.853,-142.403,-5.965
10:59:22:061,21.605,0.024,0.303,0.767,-24.828,-142.816,-10.097
10:59:22:088,21.633,0.319,0.419,0.243,-26.866,-142.606,-14.268
10:59:22:089,21.634,0.182,0.200,-0.077,-28.161,-141.463,-17.092
10:59:22:111,21.656,-0.066,0.467,-0.307,-28.950,-140.637,-18.328
10:59:22:14,21.685,0.090,0.305,-0.522,-29.018,-138.947,-20.051
10:59:22:165,21.710,0.367,0.293,-0.672,-28.957,-137.640,-21.149
10:59:22:192,21.737,0.323,0.145,-0.645,-28.841,-135.593,-23.091
10:59:22:218,21.763,0.113,-0.214,-0.639,-28.672,-132.596,-25.871
10:59:22:272,21.817,0.160,-0.327,-0.726,-28.876,-130.090,-28.282
10:59:22:273,21.818,0.191,-0.349,-0.672,-30.336,-126.569,-33.203
10:59:22:296,21.840,0.153,-0.037,-0.873,-32.648,-123.823,-37.604
10:59:22:355,21.899,0.363,-0.005,-0.974,-36.742,-118.328,-45.329
10:59:22:355,21.899,0.352,0.056,-1.472,-41.714,-112.768,-53.621
10:59:22:375,21.919,0.544,-0.224,-1.425,-45.374,-109.494,-58.866
10:59:22:43,21.975,0.930,-0.692,-1.940,-49.206,-104.721,-62.976
10:59:22:431,21.976,0.157,-1.775,-1.007,-48.056,-102.860,-63.343
10:59:22:454,21.999,0.135,-1.059,-0.724,-43.185,-101.706,-61.128
10:59:22:48,22.024,-0.101,-1.107,-0.663,-38.596,-101.484,-57.186
10:59:22:506,22.050,-0.310,-0.623,-0.627,-31.163,-102.027,-48.629
10:59:22:533,22.077,-0.417,-0.263,-0.325,-24.439,-103.263,-38.350
10:59:22:558,22.102,-0.472,0.357,-0.248,-20.454,-103.610,-30.774
10:59:22:585,22.129,-0.309,1.444,0.398,-16.445,-102.360,-19.291
10:59:22:613,22.157,-0.288,1.500,1.831,-14.002,-103.109,-12.018
10:59:22:666,22.211,0.195,0.862,2.073,-11.475,-105.592,-3.019
10:59:22:666,22.211,-0.038,-1.055,2.382,-8.869,-110.704,0.109
10:59:22:718,22.263,0.150,-0.560,2.037,-8.666,-113.191,-0.095
10:59:22:719,22.264,2.310,1.903,0.939,-11.674,-113.891,-2.513
10:59:22:742,22.287,-1.408,-1.330,0.122,-13.901,-114.060,-6.277
10:59:22:768,22.313,0.512,0.300,0.376,-17.423,-114.806,-11.891
10:59:22:794,22.339,0.196,0.324,0.158,-19.505,-115.189,-16.358
10:59:22:821,22.366,0.207,-0.023,0.033,-20.305,-114.561,-18.506
10:59:22:847,22.392,-0.066,0.538,-0.154,-21.072,-113.690,-20.941
10:59:22:873,22.417,-0.050,0.525,-0.523,-20.915,-112.983,-22.315
10:59:22:902,22.446,0.035,0.466,-0.818,-20.364,-111.772,-24.255
10:59:22:926,22.470,0.041,0.053,-0.728,-20.136,-110.853,-25.578
10:59:22:952,22.497,0.045,-0.177,-0.680,-19.647,-108.663,-27.957
10:59:22:978,22.523,0.017,-0.465,-0.606,-19.193,-105.962,-30.805
10:59:23:004,22.549,0.047,-0.301,-0.598,-19.655,-104.149,-33.605
10:59:23:031,22.576,-0.070,-0.206,-0.653,-22.345,-101.304,-39.065
10:59:23:057,22.602,0.051,-0.133,-0.827,-24.481,-98.880,-43.261
10:59:23:083,22.628,0.015,-0.002,-1.443,-27.801,-94.587,-50.424
10:59:23:109,22.654,0.243,-0.130,-1.994,-32.082,-91.567,-56.493
10:59:23:135,22.680,0.589,-0.517,-1.439,-34.645,-90.363,-58.862
10:59:23:161,22.706,-0.030,-1.385,-1.144,-34.661,-88.393,-59.679
10:59:23:188,22.733,0.091,-1.121,-0.811,-32.389,-87.962,-58.301
10:59:23:215,22.760,-0.061,-1.051,-0.787,-27.487,-88.483,-52.639
10:59:23:241,22.786,-0.138,-0.726,-0.629,-24.039,-89.665,-46.934
10:59:23:267,22.812,-0.097,-0.122,-0.650,-19.650,-91.329,-36.443
10:59:23:293,22.838,-0.301,0.732,-0.560,-15.788,-92.368,-24.510
10:59:23:322,22.867,-0.163,1.234,0.095,-13.132,-93.104,-16.502
10:59:23:323,22.868,0.203,1.219,1.794,-9.624,-95.848,-5.186
10:59:23:375,22.919,0.654,0.804,2.628,-8.222,-98.594,1.239
10:59:23:376,22.920,0.460,-1.163,2.798,-4.850,-103.727,5.326
10:59:23:4,22.944,0.050,-0.996,2.573,-4.870,-106.619,5.051
10:59:23:425,22.969,0.932,-0.283,0.328,-6.524,-106.750,3.042
10:59:23:451,22.995,-2.968,1.161,2.895,-9.792,-107.243,-2.847
10:59:23:477,23.021,0.749,-1.039,-0.343,-12.410,-107.607,-6.098
10:59:23:532,23.077,0.399,0.033,0.302,-15.248,-108.214,-11.491
10:59:23:533,23.078,0.053,0.094,-0.085,-16.520,-107.629,-14.671
10:59:23:584,23.129,0.170,0.380,-0.184,-17.075,-107.282,-16.072
10:59:23:585,23.130,-0.031,0.559,-0.199,-17.331,-106.321,-17.876
10:59:23:609,23.154,-0.094,0.391,-0.655,-16.991,-105.262,-19.093
10:59:23:634,23.179,0.002,0.325,-0.606,-16.699,-104.173,-20.976
10:59:23:666,23.211,0.015,0.039,-0.665,-16.614,-102.985,-22.418
10:59:23:687,23.232,-0.080,-0.164,-0.742,-16.568,-100.150,-25.041
10:59:23:713,23.258,-0.087,-0.395,-0.815,-17.424,-97.187,-29.111
10:59:23:74,23.284,-0.163,-0.154,-0.420,-19.008,-95.353,-33.035
10:59:23:766,23.310,-0.040,-0.005,-0.899,-21.963,-91.247,-39.911
10:59:23:792,23.336,-0.193,0.085,-1.402,-24.063,-88.108,-44.955
10:59:23:819,23.363,-0.128,0.045,-1.831,-28.884,-84.235,-52.255
10:59:23:845,23.389,-0.006,-0.521,-1.630,-33.177,-82.009,-56.639
10:59:23:871,23.415,-0.258,-1.273,-1.379,-34.245,-80.577,-57.762
10:59:23:896,23.441,-0.129,-1.043,-0.621,-31.627,-79.520,-56.483
10:59:23:923,23.468,-0.156,-1.020,-0.608,-28.765,-79.911,-53.337
10:59:23:952,23.497,-0.231,-0.647,-0.474,-23.507,-81.352,-45.829
10:59:23:975,23.520,-0.132,-0.268,-0.395,-19.778,-82.474,-39.573
10:59:24:003,23.548,-0.237,0.223,-0.339,-15.421,-83.206,-28.627
10:59:24:029,23.574,-0.074,1.094,0.149,-11.861,-83.277,-17.140
10:59:24:055,23.600,0.440,1.335,1.328,-9.688,-84.813,-9.860
10:59:24:081,23.626,0.733,0.450,2.137,-7.389,-88.080,-0.381
10:59:24:107,23.651,1.053,-1.021,2.302,-5.786,-90.831,3.022
10:59:24:135,23.679,0.687,-1.031,2.219,-3.942,-94.098,3.849
10:59:24:16,23.704,1.754,-0.609,0.235,-5.102,-95.058,2.325
10:59:24:186,23.730,-2.359,2.560,0.733,-9.333,-94.991,0.193
10:59:24:212,23.756,0.904,-0.041,-0.150,-10.978,-96.343,-6.037
10:59:24:238,23.783,0.532,-0.089,0.578,-13.683,-97.056,-9.963
10:59:24:264,23.809,0.823,0.059,-0.131,-15.357,-97.089,-13.773
10:59:24:29,23.835,0.235,0.445,-0.078,-16.177,-96.635,-15.501
10:59:24:317,23.862,-0.019,0.589,-0.087,-16.516,-95.849,-17.510
10:59:24:343,23.888,-0.186,0.547,-0.553,-15.951,-94.632,-19.418
10:59:24:369,23.914,-0.110,0.458,-0.751,-15.650,-94.063,-20.502
10:59:24:395,23.940,-0.043,0.073,-0.650,-15.660,-93.088,-22.176
10:59:24:481,24.025,-0.057,-0.257,-0.536,-15.594,-91.770,-23.601
10:59:24:481,24.025,-0.068,-0.307,-0.568,-15.913,-89.118,-26.456
10:59:24:482,24.026,-0.090,-0.194,-0.403,-17.134,-86.435,-31.044
10:59:24:501,24.045,-0.283,-0.133,-0.432,-18.531,-84.271,-34.925
10:59:24:527,24.071,0.011,-0.023,-0.749,-20.100,-79.229,-41.567
10:59:24:555,24.099,-0.358,0.266,-1.579,-22.059,-75.776,-46.224
10:59:24:58,24.124,-0.312,-0.120,-1.442,-26.039,-72.019,-53.257
10:59:24:607,24.151,-0.428,-0.884,-1.381,-28.919,-70.271,-55.847
10:59:24:631,24.176,-0.415,-1.288,-0.934,-30.029,-68.467,-57.881
10:59:24:687,24.232,-0.264,-0.948,-0.540,-27.501,-67.655,-56.325
10:59:24:688,24.233,-0.249,-0.916,-0.498,-24.974,-67.765,-52.966
10:59:24:71,24.255,-0.221,-0.703,-0.612,-20.703,-68.661,-44.914
10:59:24:737,24.282,-0.253,-0.116,-0.678,-18.233,-69.452,-37.989
10:59:24:764,24.309,-0.462,0.489,-0.394,-14.850,-69.598,-26.393
10:59:24:79,24.335,-0.124,1.254,0.250,-11.178,-67.345,-14.623
10:59:24:816,24.361,0.443,0.957,1.137,-9.055,-66.118,-7.147
10:59:24:842,24.386,1.391,1.222,1.905,-7.820,-67.656,2.614
10:59:24:868,24.412,1.486,-1.090,1.800,-5.931,-71.335,6.128
10:59:24:897,24.441,1.521,-1.045,2.037,-4.265,-76.820,7.223
10:59:24:95,24.494,-0.203,2.555,1.149,-6.321,-79.364,5.433
10:59:24:953,24.497,-1.140,-1.345,0.361,-9.410,-79.715,2.038
10:59:24:975,24.519,0.942,0.903,0.688,-11.839,-80.337,-4.528
10:59:25:,24.544,-0.179,0.039,0.126,-13.615,-80.923,-7.363
10:59:25:054,24.599,0.027,0.081,0.123,-15.379,-80.774,-10.221
10:59:25:055,24.600,-0.001,0.271,0.024,-16.375,-79.897,-12.332
10:59:25:078,24.623,-0.016,0.518,-0.129,-16.460,-79.048,-13.369
10:59:25:105,24.650,-0.174,0.501,-0.462,-16.089,-77.723,-14.881
10:59:25:131,24.676,-0.188,0.222,-0.461,-16.067,-76.822,-15.810
10:59:25:157,24.702,-0.230,0.004,-0.414,-16.049,-74.642,-17.670
10:59:25:183,24.728,-0.141,-0.320,-0.382,-16.148,-72.817,-19.246
10:59:25:21,24.755,-0.152,-0.305,-0.487,-17.118,-69.795,-22.604
10:59:25:238,24.782,-0.134,-0.142,-0.444,-19.218,-66.732,-27.530
10:59:25:263,24.807,-0.300,-0.045,-0.372,-21.089,-64.105,-31.460
10:59:25:288,24.832,-0.614,0.017,-0.683,-23.646,-58.823,-38.423
10:59:25:315,24.859,-0.890,0.324,-0.995,-25.524,-54.979,-43.517
10:59:25:341,24.885,-0.713,0.128,-1.015,-28.735,-49.600,-50.225
10:59:25:367,24.911,-1.146,-1.105,-0.935,-30.606,-45.381,-52.776
10:59:25:394,24.939,-0.941,-1.248,-0.532,-29.477,-43.915,-52.760
10:59:25:42,24.965,-0.536,-0.964,-0.475,-26.263,-43.045,-49.319
10:59:25:446,24.991,-0.538,-0.901,-0.280,-24.034,-43.245,-44.632
10:59:25:472,25.017,-0.487,-0.303,-0.223,-20.804,-43.812,-35.461
10:59:25:498,25.043,-0.404,0.046,0.304,-18.218,-43.990,-28.373
10:59:25:524,25.069,-0.338,0.399,0.188,-14.255,-41.699,-17.264
10:59:25:554,25.099,0.435,1.026,0.906,-11.834,-38.813,-6.150
10:59:25:577,25.122,1.249,1.151,1.271,-10.794,-38.664,1.004
10:59:25:603,25.147,2.090,0.377,1.240,-9.350,-40.551,9.745
10:59:25:632,25.176,1.949,-1.362,0.719,-7.062,-42.944,12.020
10:59:25:633,25.177,1.785,-1.309,0.951,-5.829,-45.556,12.062
10:59:25:655,25.200,0.438,1.729,-1.815,-9.588,-45.277,10.123
10:59:25:681,25.226,-0.038,-0.141,2.327,-9.463,-46.101,5.597
10:59:25:708,25.253,0.635,0.375,0.303,-12.368,-46.849,0.227
10:59:25:734,25.279,0.281,-0.150,0.170,-12.636,-47.573,-2.536
10:59:25:816,25.360,0.437,0.112,-0.330,-14.092,-47.269,-4.999
10:59:25:817,25.361,0.185,0.326,-0.202,-15.031,-46.626,-6.620
10:59:25:844,25.388,0.063,0.410,0.033,-15.290,-45.958,-7.429
10:59:25:844,25.388,-0.194,0.377,-0.089,-15.058,-44.552,-8.657
10:59:25:866,25.411,-0.244,0.389,-0.201,-14.786,-43.759,-9.491
10:59:25:921,25.466,-0.281,0.218,-0.188,-14.722,-42.288,-10.834
10:59:25:922,25.467,-0.471,-0.069,-0.133,-14.838,-40.655,-12.122
10:59:26:003,25.548,-0.574,-0.203,-0.219,-15.611,-37.948,-14.872
10:59:26:003,25.548,-0.490,-0.226,-0.144,-17.555,-35.180,-19.299
10:59:26:004,25.549,-0.459,0.164,0.015,-19.525,-32.729,-23.176
10:59:26:054,25.599,-0.931,0.104,-0.218,-22.536,-27.332,-30.324
10:59:26:054,25.599,-0.901,0.885,-0.197,-25.158,-23.566,-35.629
10:59:26:076,25.621,-0.762,0.119,-0.265,-29.403,-18.973,-42.770
10:59:26:102,25.647,-1.244,-0.472,-0.306,-32.080,-14.714,-46.597
10:59:26:129,25.674,-1.025,-1.470,0.019,-31.618,-12.450,-47.113
10:59:26:155,25.700,-0.663,-1.001,0.020,-28.490,-11.223,-45.069
10:59:26:181,25.725,-0.410,-0.844,0.090,-26.083,-11.117,-41.617
10:59:26:207,25.751,-0.411,-0.579,0.034,-21.978,-11.478,-33.764
10:59:26:233,25.777,-0.241,-0.414,0.021,-19.156,-11.656,-27.318
10:59:26:26,25.804,-0.068,0.458,0.125,-15.935,-10.067,-16.323
10:59:26:286,25.830,0.461,0.920,0.343,-13.347,-6.711,-5.546
10:59:26:339,25.884,1.760,0.971,0.151,-12.012,-7.010,1.441
10:59:26:391,25.936,2.252,0.268,-0.240,-10.353,-9.463,10.161
10:59:26:422,25.967,2.194,-1.092,-0.439,-8.302,-12.053,13.149
10:59:26:423,25.968,1.713,-1.210,-0.048,-5.959,-15.222,13.459
10:59:26:424,25.969,1.696,1.414,-2.831,-7.393,-16.294,11.812
10:59:26:444,25.989,0.573,1.988,1.299,-10.555,-17.039,8.901
10:59:26:47,26.015,0.605,0.934,0.266,-12.304,-18.507,3.645
10:59:26:496,26.041,0.638,-0.140,0.493,-13.458,-19.330,0.319
10:59:26:522,26.067,0.172,0.000,-0.367,-14.172,-19.066,-2.902
10:59:26:606,26.150,0.162,0.317,0.003,-14.696,-18.855,-4.287
10:59:26:606,26.150,0.089,0.516,0.052,-15.060,-18.307,-5.822
10:59:26:631,26.175,-0.186,0.422,0.082,-14.673,-17.276,-7.315
10:59:26:631,26.175,-0.288,0.400,-0.026,-14.421,-16.648,-8.256
10:59:26:654,26.198,-0.272,0.177,-0.031,-14.288,-15.322,-9.666
10:59:26:683,26.227,-0.402,-0.140,0.037,-14.291,-13.859,-10.821
10:59:26:705,26.250,-0.423,-0.299,0.023,-14.746,-11.409,-13.157
10:59:26:79,26.335,-0.243,-0.097,0.016,-16.289,-9.272,-17.043
10:59:26:791,26.336,-0.223,-0.008,0.117,-18.049,-7.613,-20.475
10:59:26:792,26.337,-0.705,0.210,0.171,-20.838,-3.490,-26.964
10:59:26:811,26.356,-1.196,0.945,0.194,-22.635,0.450,-32.067
10:59:26:837,26.382,-1.138,0.422,0.182,-26.277,5.683,-39.558
10:59:26:89,26.435,-1.184,-0.603,0.192,-28.605,8.300,-42.978
10:59:26:919,26.463,-1.287,-0.893,0.295,-29.927,11.703,-45.639
10:59:26:919,26.463,-0.530,-1.059,0.283,-27.138,13.814,-43.717
10:59:26:943,26.487,-0.551,-0.844,0.204,-25.454,14.368,-40.267
10:59:26:998,26.542,-0.422,-0.668,0.157,-22.540,14.198,-32.435
10:59:26:999,26.543,-0.324,-0.382,0.186,-20.703,13.948,-25.936
10:59:27:02,26.565,0.014,0.254,0.402,-18.346,14.826,-15.251
10:59:27:047,26.592,0.422,0.833,0.263,-16.290,17.340,-4.369
10:59:27:073,26.618,1.207,0.791,-0.171,-15.057,17.868,2.597
10:59:27:099,26.644,1.905,0.083,-0.690,-13.860,15.512,12.466
10:59:27:125,26.670,1.886,-1.120,-1.265,-12.593,13.164,16.596
10:59:27:21,26.755,1.933,-1.508,-1.064,-9.724,10.277,18.185
10:59:27:26,26.805,1.340,-0.030,-0.564,-14.288,5.491,8.903
10:59:27:26,26.805,0.322,0.038,-0.659,-15.655,4.823,5.600
10:59:27:283,26.828,-0.272,0.171,-0.621,-16.887,5.462,2.459
10:59:27:339,26.884,0.259,0.329,-0.127,-17.923,5.571,0.625
10:59:27:339,26.884,0.122,0.199,-0.112,-18.178,6.002,-0.322
10:59:27:391,26.936,0.073,0.482,0.083,-18.169,7.403,-1.765
10:59:27:392,26.937,-0.143,0.376,0.098,-17.990,8.484,-2.890
10:59:27:415,26.960,-0.188,0.208,0.124,-18.109,9.998,-4.519
10:59:27:47,27.014,-0.218,0.053,0.184,-18.296,11.443,-5.979
10:59:27:471,27.015,-0.343,-0.122,0.206,-19.008,13.968,-8.724
10:59:27:494,27.038,-0.365,-0.108,0.294,-20.766,16.871,-12.893
10:59:27:52,27.064,-0.140,0.002,0.357,-22.476,19.163,-16.758
10:59:27:576,27.120,-0.389,0.263,0.570,-25.456,24.438,-24.057
10:59:27:577,27.121,-0.750,0.433,0.760,-27.404,28.440,-29.648
10:59:27:598,27.143,-0.849,0.797,0.729,-31.779,33.814,-38.028
10:59:27:624,27.169,-0.990,-0.531,0.802,-34.843,37.983,-43.093
10:59:27:68,27.225,-0.971,-0.827,1.000,-35.490,40.541,-44.436
10:59:27:68,27.225,-0.468,-1.162,0.692,-33.245,44.018,-42.932
10:59:27:703,27.248,-0.308,-1.061,0.582,-31.342,45.081,-39.643
10:59:27:729,27.274,-0.096,-0.467,0.623,-28.714,45.590,-31.843
10:59:27:756,27.301,0.228,-0.311,0.506,-26.894,45.260,-25.152
10:59:27:811,27.355,0.369,0.216,0.535,-23.834,46.818,-14.320
10:59:27:812,27.356,0.914,0.903,-0.083,-21.300,49.895,-3.590
10:59:27:835,27.379,1.104,0.888,-0.736,-20.219,50.880,3.604
10:59:27:893,27.437,1.453,-0.356,-1.770,-18.709,49.654,13.819
10:59:27:894,27.438,0.834,-1.296,-2.362,-17.632,48.105,18.150
10:59:27:895,27.439,0.666,-1.351,-1.778,-14.784,45.767,20.060
10:59:27:914,27.458,-1.390,-0.072,-1.705,-15.496,44.667,19.328
10:59:27:968,27.513,3.075,1.850,0.676,-19.061,44.641,17.481
10:59:27:969,27.514,-0.216,0.279,-0.615,-19.331,43.299,11.695
10:59:27:992,27.537,0.034,-0.233,-0.708,-20.867,42.235,8.103
10:59:28:018,27.563,-0.430,0.278,-0.472,-21.830,42.144,4.809
10:59:28:071,27.615,0.099,0.307,-0.163,-22.287,42.355,3.236
10:59:28:101,27.645,0.338,0.405,-0.168,-22.741,42.757,1.518
10:59:28:101,27.645,0.234,0.509,0.217,-22.268,43.973,-0.327
10:59:28:124,27.668,0.138,0.502,0.343,-21.963,44.898,-1.512
10:59:28:178,27.723,0.111,0.161,0.360,-21.980,46.636,-3.464
10:59:28:179,27.724,0.080,-0.141,0.422,-22.316,48.448,-5.153
10:59:28:202,27.747,0.036,-0.265,0.449,-23.124,51.830,-8.357
10:59:28:228,27.773,0.002,-0.244,0.470,-24.939,55.430,-13.061
10:59:28:254,27.799,-0.021,0.073,0.482,-26.999,57.810,-17.077
10:59:28:311,27.856,0.004,0.255,0.720,-30.651,61.783,-24.286
10:59:28:365,27.910,0.018,0.668,1.235,-33.303,65.150,-29.946
10:59:28:366,27.910,-0.200,0.607,1.304,-37.494,69.544,-38.188
10:59:28:367,27.911,-0.464,-0.122,0.944,-39.714,71.523,-41.754
10:59:28:415,27.959,-0.039,-1.380,1.203,-41.776,74.492,-44.697
10:59:28:416,27.960,0.039,-0.920,0.639,-39.529,78.462,-44.416
10:59:28:439,27.983,0.004,-0.975,0.580,-37.132,79.818,-41.851
10:59:28:465,28.009,0.249,-0.630,0.509,-33.132,80.059,-34.463
10:59:28:521,28.065,0.500,-0.271,0.431,-30.477,79.380,-27.598
10:59:28:521,28.065,0.650,0.126,0.062,-26.927,79.059,-16.088
10:59:28:544,28.088,0.601,1.027,-0.448,-24.247,80.157,-4.408
10:59:28:57,28.114,0.614,1.229,-2.025,-22.641,79.354,3.345
10:59:28:596,28.141,0.121,0.355,-2.410,-20.449,76.654,13.865
10:59:28:622,28.167,-0.576,-1.330,-2.357,-18.496,73.993,17.871
10:59:28:648,28.193,-0.207,-1.532,-2.152,-15.189,69.710,19.299
10:59:28:674,28.219,-1.800,0.222,-0.162,-15.301,67.990,18.783
10:59:28:7,28.245,1.387,2.212,-3.109,-17.269,67.657,14.078
10:59:28:727,28.272,-0.492,-0.658,0.398,-20.502,67.079,8.183
10:59:28:756,28.301,0.164,0.002,-0.786,-21.253,65.768,4.697
10:59:28:78,28.325,-0.259,0.361,-0.347,-22.446,66.000,1.272
10:59:28:806,28.351,0.059,0.281,-0.154,-22.901,66.545,-0.513
10:59:28:861,28.406,0.375,0.418,-0.305,-23.658,67.483,-2.568
10:59:28:862,28.407,0.350,0.513,0.137,-23.656,69.333,-4.655
10:59:28:886,28.430,0.215,0.577,0.398,-23.547,70.284,-5.935
10:59:28:912,28.456,0.214,0.198,0.466,-23.626,71.976,-7.933
10:59:28:937,28.481,0.226,-0.083,0.459,-23.833,73.705,-9.653
10:59:28:964,28.508,0.234,-0.379,0.464,-24.587,76.675,-13.086
10:59:28:99,28.534,0.349,-0.146,0.371,-26.266,79.279,-18.332
10:59:29:045,28.590,0.348,-0.006,0.433,-28.320,81.322,-22.630
10:59:29:045,28.590,0.496,0.051,0.617,-31.801,84.976,-29.917
10:59:29:097,28.642,0.535,0.244,1.015,-34.574,87.502,-35.096
10:59:29:098,28.643,0.395,-0.029,1.274,-38.782,90.566,-42.018
10:59:29:121,28.666,0.122,-0.687,1.714,-41.486,92.464,-44.703
10:59:29:149,28.694,0.194,-1.239,1.280,-42.083,94.358,-46.319
10:59:29:174,28.719,0.021,-0.730,0.653,-39.849,94.103,-44.517
10:59:29:2,28.745,0.149,-0.832,0.495,-37.096,93.048,-40.783
10:59:29:257,28.801,0.257,-0.511,0.460,-31.639,90.971,-32.710
10:59:29:257,28.801,0.214,-0.349,0.313,-27.623,89.487,-26.071
10:59:29:308,28.852,0.090,0.386,0.271,-22.963,89.118,-15.069
10:59:29:308,28.852,0.103,1.099,-0.623,-19.241,89.311,-3.551
10:59:29:331,28.875,-0.022,1.165,-1.733,-16.870,88.100,3.776
10:59:29:358,28.902,-0.600,0.420,-2.121,-14.238,85.150,13.348
10:59:29:384,28.928,-0.926,-1.673,-2.491,-11.397,82.086,16.374
10:59:29:41,28.954,-0.481,-1.352,-2.159,-8.770,78.615,17.331
10:59:29:494,29.039,-0.496,-0.811,-1.167,-9.650,77.487,16.282
10:59:29:495,29.040,2.456,2.028,-2.006,-14.858,76.115,12.794
10:59:29:495,29.040,-0.119,0.712,-0.112,-16.225,73.782,6.650
10:59:29:544,29.089,-0.443,0.084,-0.820,-18.394,72.462,3.153
10:59:29:544,29.089,0.060,-0.034,-0.338,-19.762,72.442,-0.700
10:59:29:596,29.140,0.225,0.323,-0.274,-20.363,72.747,-2.524
10:59:29:622,29.167,0.278,0.523,-0.043,-20.646,73.486,-4.716
10:59:29:623,29.168,0.323,0.572,0.301,-20.324,74.561,-6.609
10:59:29:734,29.279,0.251,0.486,0.400,-20.121,75.310,-7.905
10:59:29:735,29.280,0.187,0.042,0.315,-19.968,76.778,-9.932
10:59:29:735,29.280,0.080,-0.239,0.339,-19.809,78.155,-11.348
10:59:29:735,29.280,0.088,-0.288,0.347,-20.030,80.428,-14.085
10:59:29:751,29.296,0.164,-0.114,0.263,-21.322,82.355,-18.119
10:59:29:777,29.322,0.268,-0.215,0.372,-22.705,83.220,-21.532
10:59:29:803,29.348,0.295,0.073,0.568,-25.674,85.537,-27.774
10:59:29:943,29.488,0.315,0.563,1.151,-27.689,88.271,-32.794
10:59:29:944,29.489,0.276,0.596,1.722,-31.502,92.182,-40.252
10:59:29:965,29.510,-0.144,-1.036,0.746,-38.291,95.491,-47.469
10:59:29:965,29.510,0.029,-0.903,0.446,-37.172,94.866,-45.212
10:59:29:987,29.532,0.143,-0.840,0.463,-33.587,93.461,-38.654
10:59:30:014,29.559,0.148,-0.806,0.542,-30.381,92.305,-32.684
10:59:30:04,29.585,0.302,-0.085,0.239,-26.409,90.847,-22.360
10:59:30:096,29.641,0.491,0.679,0.021,-22.792,90.671,-11.153
10:59:30:096,29.641,0.159,1.056,-0.829,-20.737,90.217,-3.423
10:59:30:151,29.695,-0.323,0.905,-2.345,-17.995,87.585,7.838
10:59:30:151,29.695,-0.892,0.369,-2.302,-16.320,85.599,13.987
10:59:30:152,29.696,-0.867,-1.638,-2.375,-13.127,81.874,18.268
10:59:30:201,29.745,-0.024,-1.116,-1.704,-12.389,80.277,18.701
10:59:30:201,29.745,-0.953,0.881,-0.712,-14.269,79.640,16.541
10:59:30:251,29.795,1.117,-2.669,0.193,-15.741,76.744,11.167
10:59:30:309,29.854,-0.367,0.498,-0.698,-19.017,75.434,7.863
10:59:30:309,29.854,-0.029,0.300,-0.213,-20.878,74.895,3.236
10:59:30:309,29.854,0.306,0.023,-0.396,-21.773,75.375,1.247
10:59:30:358,29.903,0.226,0.249,-0.423,-22.270,75.427,-0.941
10:59:30:358,29.903,0.300,0.451,0.032,-22.362,76.440,-2.530
10:59:30:408,29.953,0.264,0.377,0.157,-22.025,77.312,-3.597
10:59:30:467,30.012,0.242,0.299,0.178,-21.831,78.166,-5.064
10:59:30:467,30.012,0.249,0.037,0.241,-21.894,79.040,-6.162
10:59:30:467,30.012,0.186,-0.259,0.280,-22.131,80.888,-8.308
10:59:30:487,30.032,0.095,-0.152,0.406,-22.730,82.208,-10.139
10:59:30:512,30.056,0.092,-0.191,0.345,-24.438,84.330,-14.226
10:59:30:538,30.082,0.375,0.121,0.186,-27.210,87.948,-20.432
10:59:30:565,30.109,0.538,0.230,0.574,-29.260,91.888,-25.818
10:59:30:592,30.136,0.477,0.718,1.434,-33.303,97.295,-34.150
10:59:30:618,30.162,0.359,0.184,1.006,-36.067,99.052,-38.402
10:59:30:645,30.189,0.152,-0.551,0.845,-38.743,102.341,-43.309
10:59:30:67,30.215,0.297,-1.302,0.868,-37.924,105.840,-44.479
10:59:30:695,30.240,0.470,-0.978,0.630,-35.954,107.673,-43.225
10:59:30:751,30.296,0.287,-0.801,0.509,-32.906,108.795,-38.048
10:59:30:752,30.297,0.314,-0.531,0.458,-31.168,108.577,-32.621
10:59:30:775,30.320,0.300,-0.041,0.073,-28.610,108.012,-22.432
10:59:30:828,30.372,0.444,0.244,-0.131,-26.797,109.124,-15.361
10:59:30:887,30.431,0.397,0.644,-0.737,-24.429,111.566,-4.827
10:59:30:887,30.431,-0.425,0.871,-2.102,-23.317,110.383,5.882
10:59:30:887,30.431,-1.195,-0.027,-2.123,-22.669,107.837,12.413
10:59:30:906,30.451,-1.415,-0.668,-2.037,-21.144,103.166,17.963
10:59:30:932,30.477,-1.030,-1.299,-1.659,-20.285,101.062,18.540
10:59:30:958,30.503,0.035,1.119,0.390,-21.331,99.459,16.926
10:59:31:125,30.669,0.865,-1.904,-0.102,-21.991,96.094,12.724
10:59:31:126,30.670,-0.116,0.782,-0.715,-24.931,94.904,9.927
10:59:31:127,30.671,0.406,-0.128,-0.556,-25.989,94.436,5.475
10:59:31:128,30.672,-0.008,0.118,-0.017,-26.991,95.163,3.643
10:59:31:149,30.693,0.047,0.254,-0.447,-28.207,95.411,2.020
10:59:31:149,30.693,0.163,0.258,-0.199,-28.756,96.458,0.745
10:59:31:15,30.694,0.260,0.323,-0.074,-28.793,97.541,-0.251
10:59:31:169,30.713,0.241,0.264,0.023,-28.819,99.065,-1.799
10:59:31:224,30.768,0.328,0.154,0.054,-29.052,100.164,-2.845
10:59:31:248,30.793,0.395,0.010,0.078,-29.465,102.409,-5.024
10:59:31:277,30.822,0.419,-0.120,0.352,-30.003,104.060,-6.942
10:59:31:277,30.822,0.460,-0.042,0.305,-31.852,106.575,-10.885
10:59:31:301,30.846,0.624,0.114,0.131,-34.989,110.367,-16.805
10:59:31:355,30.900,1.335,0.753,0.647,-41.466,122.271,-32.084
10:59:31:38,30.925,0.860,0.215,0.716,-44.493,126.605,-37.946
10:59:31:431,30.976,0.568,-0.479,0.814,-48.148,133.347,-45.343
10:59:31:462,31.006,0.846,-1.297,0.647,-48.877,139.399,-49.194
10:59:31:462,31.006,0.652,-1.356,0.219,-47.148,141.984,-49.062
10:59:31:484,31.028,0.433,-0.907,0.048,-43.732,144.226,-45.534
10:59:31:51,31.054,0.455,-1.009,0.150,-41.022,143.914,-40.641
10:59:31:536,31.080,0.515,-0.592,0.170,-37.139,142.376,-30.381
10:59:31:563,31.107,0.578,0.095,-0.312,-35.200,141.812,-22.675
10:59:31:617,31.162,0.485,0.471,-0.766,-31.454,144.375,-12.044
10:59:31:618,31.163,-0.597,1.022,-1.311,-28.939,148.277,-2.726
10:59:31:641,31.186,-1.609,0.545,-1.285,-27.603,148.060,3.939
10:59:31:667,31.212,-2.490,-0.081,-1.021,-26.450,144.694,12.000
10:59:31:693,31.238,-2.037,-1.148,-0.424,-24.881,141.638,14.065
10:59:31:72,31.265,-1.002,-0.224,0.292,-24.438,138.549,13.357
10:59:31:746,31.291,-0.864,0.138,-2.668,-26.314,137.313,9.684
10:59:31:773,31.318,0.125,0.949,0.333,-28.096,136.422,7.550
10:59:31:828,31.372,-0.307,-0.581,-0.682,-27.218,136.085,1.599
10:59:31:828,31.372,0.160,0.158,-0.097,-27.975,136.335,-0.491
10:59:31:88,31.424,-0.112,-0.097,-0.568,-29.868,136.634,-2.545
10:59:31:881,31.425,0.075,0.246,-0.477,-30.864,137.160,-3.927
10:59:31:905,31.449,0.236,0.236,-0.247,-31.234,138.327,-5.122
10:59:31:93,31.474,0.255,0.264,-0.253,-31.256,140.130,-6.962
10:59:31:957,31.501,0.376,0.227,-0.197,-31.098,141.076,-7.927
10:59:31:982,31.527,0.443,0.133,-0.199,-31.333,142.435,-9.231
10:59:32:008,31.553,0.465,0.024,-0.158,-31.595,143.743,-10.476
10:59:32:034,31.579,0.462,-0.232,-0.110,-32.292,145.953,-12.931
10:59:32:061,31.606,0.628,-0.164,-0.061,-33.879,148.251,-16.497
10:59:32:087,31.632,0.610,-0.169,-0.134,-35.592,150.227,-20.011
10:59:32:114,31.659,0.765,0.008,-0.426,-38.916,155.100,-27.493
10:59:32:198,31.743,1.534,0.803,-0.200,-41.661,159.722,-33.662
10:59:32:198,31.743,1.280,0.421,-0.181,-47.080,165.549,-42.841
10:59:32:199,31.744,1.092,-0.826,0.395,-52.321,170.292,-50.183
10:59:32:218,31.763,1.395,-0.678,0.279,-54.319,172.875,-53.105
10:59:32:244,31.789,0.805,-1.437,-0.009,-52.885,176.795,-53.348
10:59:32:272,31.817,0.661,-0.966,-0.158,-49.853,177.788,-51.167
10:59:32:326,31.871,0.531,-1.042,-0.181,-43.358,177.808,-44.590
10:59:32:327,31.872,0.493,-0.489,-0.379,-36.484,177.445,-35.141
10:59:32:349,31.894,0.351,-0.065,-0.427,-32.773,177.757,-28.054
10:59:32:376,31.921,-0.123,0.793,-0.733,-28.403,178.831,-17.143
10:59:32:402,31.947,-1.597,1.203,-0.302,-25.835,178.459,-9.856
10:59:32:428,31.973,-2.171,0.835,-0.071,-23.726,174.872,0.201
10:59:32:458,32.003,-2.525,-0.241,0.615,-22.327,171.632,4.278
10:59:32:458,32.003,-2.289,-0.768,0.907,-21.028,167.895,5.785
10:59:32:482,32.026,0.449,1.810,-3.186,-24.216,167.745,2.280
10:59:32:508,32.052,-0.148,-1.002,-0.891,-24.493,167.330,-1.605
10:59:32:534,32.078,-0.279,0.077,0.317,-27.314,166.216,-6.305
10:59:32:619,32.164,-0.199,-0.178,-0.728,-28.162,166.265,-8.707
10:59:32:619,32.164,0.202,0.217,0.204,-30.093,166.923,-11.263
10:59:32:619,32.164,0.157,0.177,0.147,-31.326,167.785,-13.222
10:59:32:696,32.241,0.085,0.259,-0.387,-31.934,168.782,-14.458
10:59:32:698,32.242,0.267,0.275,-0.316,-32.214,170.633,-16.466
10:59:32:698,32.242,0.396,0.214,-0.295,-32.245,171.588,-17.575
10:59:32:717,32.261,0.454,0.139,-0.281,-32.268,172.759,-19.171
10:59:32:744,32.288,0.489,0.017,-0.304,-32.369,173.625,-20.400
10:59:32:77,32.314,0.438,-0.041,-0.299,-32.802,175.192,-22.754
10:59:32:796,32.340,0.641,-0.261,-0.276,-33.734,177.305,-26.087
10:59:32:823,32.367,0.688,-0.255,-0.334,-35.122,179.183,-29.321
10:59:32:848,32.393,0.603,-0.147,-0.533,-38.323,-176.788,-36.156
10:59:32:875,32.420,1.151,0.155,-0.614,-40.969,-172.842,-41.928
10:59:32:901,32.446,1.841,0.425,-0.712,-46.040,-166.025,-51.429
10:59:32:957,32.502,1.382,-0.283,-0.439,-52.176,-161.487,-58.566
10:59:32:957,32.502,1.154,-0.909,-0.374,-55.261,-159.706,-61.896
10:59:32:98,32.525,1.073,-1.813,-0.292,-55.643,-156.851,-62.983
10:59:33:006,32.551,0.545,-1.237,-0.394,-53.375,-156.758,-61.339
10:59:33:032,32.577,0.409,-0.937,-0.269,-47.674,-157.100,-55.419
10:59:33:059,32.603,0.522,-0.790,-0.266,-42.463,-158.230,-49.399
10:59:33:085,32.629,0.360,-0.284,-0.452,-35.330,-159.498,-38.843
10:59:33:111,32.655,-0.009,0.262,-0.727,-28.840,-158.443,-27.818
10:59:33:167,32.711,-0.315,0.923,-0.556,-25.268,-156.831,-20.653
10:59:33:167,32.711,-1.724,1.434,0.455,-22.223,-157.651,-9.889
10:59:33:19,32.734,-1.907,0.823,0.897,-20.859,-159.598,-3.205
10:59:33:245,32.790,-1.905,-0.017,1.564,-19.486,-163.441,2.443
10:59:33:246,32.791,-1.827,-0.655,1.032,-18.641,-165.841,2.855
10:59:33:268,32.813,-0.707,-0.331,0.242,-19.776,-165.576,1.154
10:59:33:295,32.840,-3.426,2.198,0.136,-22.559,-165.618,-3.214
10:59:33:321,32.866,0.847,-0.805,0.164,-24.292,-166.756,-6.208
10:59:33:347,32.892,-0.232,0.051,0.316,-26.742,-167.216,-11.658
10:59:33:373,32.918,-0.033,0.274,-0.328,-27.587,-167.119,-13.830
10:59:33:401,32.946,-0.027,0.124,-0.133,-29.607,-166.527,-16.145
10:59:33:455,32.999,0.105,0.326,-0.228,-30.755,-165.811,-17.709
10:59:33:456,33.000,0.118,0.256,-0.370,-31.076,-164.989,-18.790
10:59:33:48,33.024,0.249,0.240,-0.399,-31.163,-163.720,-20.444
10:59:33:535,33.079,0.423,0.164,-0.433,-31.289,-162.924,-21.396
10:59:33:56,33.104,0.400,0.073,-0.514,-31.536,-161.202,-23.168
10:59:33:561,33.105,0.378,-0.281,-0.481,-32.044,-158.512,-25.814
10:59:33:583,33.128,0.537,-0.398,-0.514,-32.789,-156.471,-28.165
10:59:33:609,33.154,0.483,-0.254,-0.547,-35.262,-152.953,-33.334
10:59:33:636,33.181,0.478,0.063,-0.857,-37.728,-149.516,-38.101
10:59:33:664,33.209,0.908,0.003,-0.988,-41.843,-142.273,-46.975
10:59:33:689,33.234,0.939,0.512,-1.363,-47.941,-135.115,-56.370
10:59:33:742,33.287,1.109,-0.390,-1.024,-51.741,-130.850,-61.184
10:59:33:77,33.315,1.143,-1.277,-1.012,-54.703,-125.511,-65.884
10:59:33:771,33.316,0.532,-1.840,-0.942,-52.817,-123.085,-66.126
10:59:33:794,33.338,0.276,-1.109,-0.575,-46.948,-121.497,-63.312
10:59:33:82,33.364,0.088,-0.938,-0.555,-42.024,-121.234,-59.291
10:59:33:846,33.390,0.116,-0.760,-0.641,-33.763,-121.912,-50.405
10:59:33:873,33.417,-0.323,0.124,-0.633,-27.832,-122.147,-39.546
10:59:33:899,33.443,-0.229,0.346,-0.672,-23.664,-121.158,-31.806
10:59:33:926,33.470,-0.504,1.129,0.070,-18.741,-119.537,-20.649
10:59:33:951,33.496,-1.039,1.336,1.410,-16.723,-120.612,-13.314
10:59:33:977,33.522,-0.878,0.585,1.681,-14.744,-123.531,-3.538
10:59:34:004,33.549,-0.702,-0.829,2.474,-12.632,-128.467,0.235
10:59:34:029,33.574,-0.656,-0.577,1.855,-12.146,-130.670,0.574
10:59:34:056,33.601,0.702,2.800,-1.507,-14.442,-130.404,-1.804
10:59:34:082,33.627,-2.355,1.355,0.449,-16.707,-129.961,-5.403
10:59:34:11,33.654,0.027,0.710,0.286,-19.737,-130.980,-11.248
10:59:34:136,33.680,-0.088,0.271,-0.270,-20.999,-131.338,-14.524
10:59:34:161,33.705,0.092,0.155,-0.047,-22.619,-130.541,-17.534
10:59:34:275,33.819,0.211,0.175,0.090,-23.888,-129.903,-19.401
10:59:34:276,33.820,0.149,0.462,-0.477,-24.435,-128.905,-20.387
10:59:34:276,33.820,0.202,0.371,-0.629,-23.966,-127.056,-22.040
10:59:34:292,33.836,0.173,0.160,-0.802,-23.289,-124.599,-25.271
10:59:34:318,33.863,0.129,-0.270,-0.757,-23.458,-122.512,-28.104
10:59:34:345,33.890,0.123,-0.359,-0.703,-24.123,-120.742,-30.665
10:59:34:371,33.916,0.080,-0.272,-0.698,-26.240,-117.519,-36.355
10:59:34:397,33.942,0.196,-0.077,-0.899,-28.760,-114.926,-41.112
10:59:34:424,33.968,0.226,-0.171,-1.218,-33.084,-109.611,-49.178
10:59:34:451,33.996,0.384,-0.051,-1.960,-38.946,-104.043,-57.313
10:59:34:476,34.021,0.168,-0.170,-1.396,-42.292,-101.327,-61.426
10:59:34:502,34.047,0.529,-1.343,-1.732,-44.082,-97.678,-64.012
10:59:34:528,34.073,0.108,-1.419,-0.899,-41.857,-96.992,-63.541
10:59:34:555,34.100,0.057,-1.041,-0.693,-36.458,-97.048,-59.739
10:59:34:581,34.126,-0.104,-0.851,-0.541,-31.823,-97.942,-54.975
10:59:34:637,34.182,-0.018,-0.518,-0.542,-24.044,-99.377,-45.815
10:59:34:637,34.182,-0.027,-0.001,-0.466,-18.046,-99.727,-34.702
10:59:34:661,34.206,-0.202,0.619,-0.425,-14.948,-99.172,-26.823
10:59:34:688,34.232,-0.022,1.164,0.477,-11.063,-99.997,-15.279
10:59:34:713,34.257,0.171,1.244,2.060,-9.597,-102.272,-8.010
10:59:34:742,34.286,0.520,0.541,2.202,-7.954,-106.329,0.172
10:59:34:743,34.287,-0.042,-1.248,2.838,-5.467,-111.301,2.202
10:59:34:765,34.309,-0.192,-0.737,2.223,-5.855,-112.500,1.980
10:59:34:791,34.335,1.497,-0.111,-0.404,-8.278,-112.133,-0.762
10:59:34:82,34.364,-2.001,2.705,2.350,-11.136,-112.622,-4.489
10:59:34:872,34.417,0.975,0.100,0.153,-14.858,-114.165,-10.326
10:59:34:873,34.418,-0.226,0.103,-0.016,-16.386,-114.494,-14.281
10:59:34:925,34.470,0.194,0.177,0.000,-17.952,-113.701,-17.892
10:59:34:926,34.471,-0.104,0.368,-0.118,-18.870,-112.811,-20.350
10:59:34:978,34.523,0.022,0.529,-0.348,-18.840,-112.104,-21.726
10:59:34:978,34.523,0.031,0.441,-0.754,-18.384,-111.044,-23.510
10:59:35:001,34.546,0.067,0.106,-0.719,-18.271,-110.318,-24.667
10:59:35:028,34.573,0.076,-0.095,-0.648,-18.024,-108.409,-26.755
10:59:35:083,34.627,0.021,-0.361,-0.642,-17.982,-105.520,-29.461
10:59:35:084,34.628,0.047,-0.311,-0.763,-18.537,-103.356,-32.162
10:59:35:106,34.650,-0.053,-0.124,-0.717,-20.560,-99.936,-37.825
10:59:35:133,34.677,0.080,-0.077,-1.021,-22.246,-97.006,-42.312
10:59:35:16,34.704,0.064,-0.049,-1.258,-25.313,-91.780,-49.692
10:59:35:186,34.730,0.174,-0.059,-1.922,-29.685,-87.705,-56.692
10:59:35:211,34.756,0.177,-0.467,-1.389,-32.449,-86.338,-59.797
10:59:35:238,34.782,-0.273,-1.276,-1.094,-34.319,-83.597,-61.926
10:59:35:264,34.808,-0.035,-1.199,-0.673,-32.141,-82.916,-61.771
10:59:35:29,34.834,-0.141,-1.011,-0.466,-27.990,-82.567,-58.293
10:59:35:316,34.860,-0.158,-0.787,-0.468,-25.077,-83.650,-53.990
10:59:35:343,34.887,-0.041,-0.758,-0.497,-20.410,-86.145,-45.028
10:59:35:369,34.913,-0.048,0.091,-0.414,-16.444,-87.769,-33.867
10:59:35:395,34.940,-0.193,0.638,-0.283,-13.473,-87.942,-26.123
10:59:35:422,34.966,0.337,1.188,0.798,-9.718,-88.991,-14.738
10:59:35:448,34.992,0.561,1.094,2.124,-8.137,-90.736,-7.528
10:59:35:474,35.018,0.665,0.061,1.970,-6.340,-94.128,0.911
10:59:35:5,35.044,0.820,-1.163,2.659,-4.488,-98.917,3.043
10:59:35:526,35.071,0.288,-0.643,1.667,-4.416,-100.316,2.778
10:59:35:552,35.097,2.097,0.739,-1.618,-6.964,-99.852,0.258
10:59:35:578,35.123,-1.876,1.573,3.239,-8.639,-100.627,-3.948
10:59:35:605,35.150,0.033,0.623,0.512,-12.181,-101.295,-9.323
10:59:35:631,35.176,0.141,0.207,-0.060,-13.779,-101.903,-12.507
10:59:35:657,35.202,-0.100,0.313,-0.138,-15.323,-101.382,-15.568
10:59:35:684,35.229,-0.036,0.334,-0.221,-15.701,-100.807,-17.914
10:59:35:71,35.255,-0.105,0.474,-0.326,-15.644,-100.311,-19.267
10:59:35:737,35.281,-0.009,0.379,-0.627,-15.050,-99.202,-21.205
10:59:35:762,35.307,0.030,0.096,-0.645,-14.939,-98.464,-22.373
10:59:35:788,35.333,0.003,-0.037,-0.580,-14.971,-96.871,-24.354
10:59:35:815,35.360,-0.056,-0.372,-0.563,-15.117,-94.468,-26.706
10:59:35:842,35.386,-0.166,-0.407,-0.482,-15.639,-92.399,-29.102
10:59:35:868,35.412,-0.167,-0.170,-0.488,-17.398,-88.888,-34.320
10:59:35:894,35.438,-0.114,-0.035,-0.884,-19.004,-86.276,-38.594
10:59:35:92,35.464,-0.084,0.107,-1.390,-21.149,-80.927,-45.835
10:59:35:946,35.491,-0.150,-0.046,-1.964,-23.564,-77.574,-50.733
10:59:35:972,35.517,-0.439,-0.955,-1.330,-27.531,-74.456,-56.887
10:59:35:999,35.544,-0.404,-1.264,-1.139,-30.785,-72.431,-59.980
10:59:36:025,35.570,-0.215,-1.126,-0.643,-29.885,-71.871,-59.746
10:59:36:051,35.596,-0.305,-0.983,-0.526,-26.145,-71.626,-56.599
10:59:36:136,35.681,-0.216,-0.909,-0.527,-23.143,-72.117,-52.386
10:59:36:137,35.682,-0.169,-0.456,-0.585,-18.954,-73.698,-43.432
10:59:36:137,35.682,-0.202,0.212,-0.310,-14.768,-74.845,-32.026
10:59:36:156,35.700,-0.202,0.626,-0.078,-11.952,-74.495,-24.136
10:59:36:184,35.728,0.500,1.329,0.902,-9.055,-75.086,-12.803
10:59:36:209,35.753,0.869,0.868,1.922,-7.865,-76.786,-5.960
10:59:36:235,35.779,1.402,0.194,1.786,-6.674,-80.846,0.360
10:59:36:261,35.805,1.221,-1.177,2.253,-5.483,-84.523,1.084
10:59:36:314,35.859,0.693,-0.607,1.480,-6.607,-87.158,0.283
10:59:36:343,35.888,-0.253,3.022,1.478,-9.950,-87.741,-4.565
10:59:36:343,35.888,-1.253,-2.356,0.563,-11.435,-88.986,-8.285
10:59:36:366,35.911,0.353,0.135,0.319,-15.786,-89.380,-13.519
10:59:36:421,35.966,0.419,0.200,-0.201,-16.754,-88.716,-15.992
10:59:36:422,35.967,0.206,0.227,-0.191,-17.755,-87.816,-18.729
10:59:36:445,35.990,-0.039,0.472,-0.430,-17.990,-86.875,-20.432
10:59:36:502,36.047,-0.110,0.468,-0.520,-17.582,-86.180,-21.417
10:59:36:502,36.047,-0.133,0.294,-0.620,-17.170,-85.055,-23.082
10:59:36:524,36.068,-0.149,0.000,-0.632,-17.096,-83.864,-24.306
10:59:36:55,36.094,-0.157,-0.199,-0.550,-16.960,-81.274,-26.571
10:59:36:576,36.120,-0.315,-0.408,-0.665,-17.679,-77.749,-29.897
10:59:36:603,36.147,-0.256,-0.329,-0.536,-18.759,-75.406,-33.276
10:59:36:629,36.173,-0.397,-0.137,-0.675,-21.294,-70.745,-39.593
10:59:36:655,36.199,-0.473,-0.026,-1.112,-22.902,-66.709,-44.491
10:59:36:681,36.225,-0.893,0.292,-1.560,-26.491,-60.844,-52.183
10:59:36:708,36.252,-0.518,-0.538,-1.446,-30.444,-56.497,-58.066
10:59:36:734,36.278,-0.731,-0.955,-1.472,-31.895,-53.985,-60.043
10:59:36:789,36.334,-0.666,-1.466,-0.676,-29.166,-51.357,-59.840
10:59:36:789,36.334,-0.442,-1.071,-0.505,-26.204,-50.468,-57.705
10:59:36:812,36.357,-0.417,-0.883,-0.347,-21.694,-50.331,-51.421
10:59:36:838,36.383,-0.458,-0.717,-0.392,-18.705,-50.955,-45.549
10:59:36:894,36.439,-0.406,-0.206,-0.170,-15.075,-51.965,-35.072
10:59:36:895,36.440,-0.508,0.487,-0.011,-11.182,-50.366,-23.350
10:59:36:917,36.462,-0.121,1.099,0.383,-8.975,-49.055,-15.588
10:59:36:944,36.488,1.281,1.438,1.145,-6.839,-49.935,-4.544
10:59:36:97,36.514,1.595,0.535,1.315,-5.489,-51.902,1.806
10:59:36:997,36.541,1.987,-0.998,1.097,-2.664,-55.999,6.277
10:59:37:081,36.626,1.755,-1.061,1.235,-1.669,-58.537,6.644
10:59:37:082,36.627,1.692,-0.522,0.174,-3.048,-58.284,5.306
10:59:37:083,36.628,0.449,1.340,2.660,-5.630,-58.932,-0.386
10:59:37:104,36.649,1.206,0.641,-0.140,-7.829,-59.971,-4.086
10:59:37:104,36.649,0.122,0.284,-0.002,-10.204,-60.516,-9.293
10:59:37:127,36.672,0.146,0.159,0.008,-11.535,-59.955,-11.293
10:59:37:234,36.779,0.299,0.232,-0.241,-12.904,-59.441,-13.504
10:59:37:268,36.812,-0.027,0.407,-0.194,-13.271,-58.592,-14.921
10:59:37:268,36.812,-0.142,0.434,-0.306,-13.032,-57.839,-15.748
10:59:37:269,36.813,-0.187,0.315,-0.500,-12.644,-56.805,-17.120
10:59:37:27,36.814,-0.232,0.111,-0.422,-12.674,-55.914,-18.041
10:59:37:314,36.858,-0.327,0.012,-0.382,-12.754,-53.640,-19.886
10:59:37:315,36.859,-0.482,-0.268,-0.410,-13.246,-50.646,-22.546
10:59:37:367,36.912,-0.532,-0.221,-0.360,-14.232,-48.246,-25.296
10:59:37:368,36.913,-0.538,0.010,-0.197,-16.553,-44.131,-30.853
10:59:37:39,36.935,-0.786,0.179,-0.612,-17.983,-40.271,-35.489
10:59:37:416,36.961,-1.359,0.744,-0.977,-20.340,-33.615,-43.113
10:59:37:443,36.988,-1.053,0.037,-0.959,-22.818,-29.973,-48.020
10:59:37:498,37.042,-1.180,-0.637,-0.615,-25.871,-26.107,-52.133
10:59:37:499,37.043,-0.941,-1.489,-0.194,-24.795,-23.136,-52.514
10:59:37:521,37.065,-0.659,-1.188,-0.046,-22.036,-22.015,-50.666
10:59:37:548,37.092,-0.508,-0.826,0.048,-18.132,-21.184,-44.749
10:59:37:574,37.118,-0.611,-0.641,-0.006,-15.260,-21.068,-39.029
10:59:37:6,37.145,-0.195,-0.092,0.251,-11.597,-21.359,-28.777
10:59:37:626,37.171,-0.020,0.748,0.202,-8.506,-20.026,-17.082
10:59:37:652,37.197,0.277,1.151,-0.056,-7.195,-18.422,-9.195
10:59:37:679,37.224,1.923,0.941,0.406,-5.200,-19.207,1.597
10:59:37:705,37.250,2.416,0.331,-0.261,-3.847,-20.738,7.737
10:59:37:731,37.276,2.139,-1.411,0.153,-0.418,-24.740,11.726
10:59:37:757,37.302,2.019,-1.398,0.412,1.074,-27.072,12.154
10:59:37:811,37.356,0.527,2.715,0.438,-0.655,-27.713,10.477
10:59:37:837,37.381,-0.042,-1.524,0.319,-2.974,-28.733,4.863
10:59:37:924,37.468,0.867,0.690,-0.438,-5.583,-29.229,1.045
10:59:37:925,37.469,-0.005,0.215,0.008,-7.508,-29.697,-3.889
10:59:37:926,37.470,0.255,0.237,0.005,-8.821,-29.402,-5.660
10:59:37:941,37.485,-0.020,0.432,-0.104,-10.118,-28.177,-9.263
10:59:37:996,37.541,-0.170,0.459,-0.106,-9.752,-27.382,-10.266
10:59:37:997,37.542,-0.307,0.358,-0.237,-9.473,-26.120,-11.580
10:59:38:02,37.565,-0.437,0.029,-0.219,-9.543,-24.785,-12.547
10:59:38:047,37.592,-0.525,-0.101,-0.174,-9.909,-21.984,-14.572
10:59:38:072,37.617,-0.416,-0.246,-0.041,-10.675,-20.023,-16.640
10:59:38:128,37.673,-0.215,-0.102,0.005,-12.473,-17.215,-21.220
10:59:38:128,37.673,-0.525,0.140,0.074,-14.877,-12.964,-27.140
10:59:38:261,37.805,-0.850,0.038,0.025,-16.393,-9.014,-31.744
10:59:38:261,37.805,-1.310,0.713,-0.023,-19.643,-3.808,-38.927
10:59:38:292,37.836,-1.182,-0.271,-0.150,-22.229,-1.331,-42.470
10:59:38:292,37.836,-1.162,-0.309,-0.189,-24.661,1.468,-45.938
10:59:38:293,37.837,-0.939,-1.297,0.063,-23.334,3.303,-45.483
10:59:38:294,37.838,-0.535,-0.816,0.131,-21.725,3.562,-43.354
10:59:38:31,37.854,-0.431,-0.748,0.102,-18.239,3.160,-37.194
10:59:38:335,37.879,-0.433,-0.597,0.105,-15.393,2.615,-31.569
10:59:38:361,37.906,-0.229,-0.098,0.031,-11.744,2.399,-21.523
10:59:38:388,37.932,0.060,0.579,0.172,-8.827,4.604,-10.025
10:59:38:415,37.959,0.614,1.058,-0.056,-7.599,6.125,-2.492
10:59:38:441,37.986,2.040,0.777,-0.589,-5.813,4.848,7.800
10:59:38:466,38.011,2.115,-0.091,-0.861,-4.670,3.143,13.386
10:59:38:492,38.037,1.903,-1.457,-0.942,-1.363,0.027,16.421
10:59:38:519,38.064,1.605,-1.260,-0.476,-0.308,-1.087,16.309
10:59:38:545,38.089,3.509,1.056,-2.546,-3.009,-2.110,13.492
10:59:38:571,38.115,-0.216,-2.256,-0.464,-4.681,-4.025,8.360
10:59:38:628,38.172,0.595,0.258,-0.659,-7.643,-5.718,4.605
10:59:38:628,38.172,0.110,0.121,-0.435,-8.952,-5.357,0.610
10:59:38:65,38.195,0.031,0.087,-0.339,-9.650,-4.982,-1.216
10:59:38:676,38.221,0.284,0.296,-0.165,-10.315,-4.725,-3.190
10:59:38:703,38.248,0.000,0.540,-0.047,-10.241,-3.445,-4.655
10:59:38:756,38.301,-0.236,0.453,-0.034,-10.066,-2.490,-5.667
10:59:38:784,38.328,-0.274,0.266,-0.068,-10.224,-1.234,-7.056
10:59:38:785,38.329,-0.284,0.079,-0.014,-10.350,0.077,-8.242
10:59:38:808,38.352,-0.349,-0.149,0.060,-10.914,2.452,-10.341
10:59:38:834,38.378,-0.388,-0.164,0.169,-12.305,5.236,-13.761
10:59:38:86,38.404,-0.294,0.025,0.149,-13.822,7.221,-17.099
10:59:38:887,38.431,-0.576,0.226,0.150,-16.297,11.388,-23.447
10:59:38:966,38.511,-0.727,0.341,0.373,-18.285,14.763,-28.183
10:59:38:992,38.537,-1.357,0.784,0.491,-21.970,20.108,-35.954
10:59:39:023,38.568,-1.331,-0.462,0.587,-24.122,22.874,-39.288
10:59:39:024,38.569,-1.222,-1.130,0.783,-25.460,27.056,-41.782
10:59:39:024,38.569,-0.663,-0.926,0.471,-23.116,30.324,-40.379
10:59:39:044,38.589,-0.594,-0.832,0.503,-21.461,31.659,-37.084
10:59:39:071,38.616,-0.394,-0.438,0.399,-19.049,31.924,-28.874
10:59:39:097,38.642,-0.211,-0.245,0.306,-17.407,31.717,-21.962
10:59:39:122,38.667,0.264,0.528,0.268,-15.669,32.807,-10.037
10:59:39:149,38.694,0.787,0.875,-0.140,-14.029,36.924,1.473
10:59:39:204,38.748,1.695,0.988,-1.077,-13.549,37.763,8.935
10:59:39:205,38.749,1.844,-0.127,-1.740,-12.252,35.316,19.077
10:59:39:228,38.772,0.934,-1.434,-2.016,-10.116,32.336,22.821
10:59:39:254,38.798,1.524,-1.747,-1.687,-7.180,28.326,24.530
10:59:39:281,38.825,0.652,-0.905,-0.915,-7.812,27.408,24.342
10:59:39:31,38.855,2.860,1.959,-1.159,-10.912,27.361,21.536
10:59:39:31,38.855,-0.586,-0.587,0.165,-11.938,23.144,15.911
10:59:39:332,38.877,1.117,-0.079,-0.376,-14.028,22.274,11.770
10:59:39:387,38.932,-0.416,-0.041,-0.834,-15.072,22.780,7.933
10:59:39:388,38.933,0.308,0.049,-0.240,-16.042,23.207,6.337
10:59:39:499,39.044,0.373,0.227,-0.250,-16.621,23.564,4.764
10:59:39:5,39.045,0.161,0.521,0.035,-16.355,25.009,3.531
10:59:39:543,39.087,-0.043,0.044,0.315,-17.046,29.755,-0.022
10:59:39:602,39.146,-0.178,-0.141,0.452,-18.264,32.761,-2.763
10:59:39:602,39.146,-0.119,0.007,0.348,-20.392,35.650,-7.298
10:59:39:603,39.147,0.009,0.173,0.409,-22.540,37.692,-11.230
10:59:39:622,39.166,-0.350,0.259,0.709,-26.120,42.410,-18.644
10:59:39:648,39.192,-0.081,0.511,0.841,-29.096,45.957,-24.160
10:59:39:674,39.218,-0.473,0.210,0.817,-33.590,52.134,-32.627
10:59:39:7,39.245,-0.713,-0.792,1.461,-35.900,56.314,-35.741
10:59:39:756,39.301,-0.169,-1.143,1.082,-36.289,61.825,-37.922
10:59:39:756,39.301,-0.244,-0.890,0.657,-34.137,65.647,-36.277
10:59:39:778,39.323,0.171,-0.664,0.540,-32.153,66.885,-32.711
10:59:39:807,39.352,0.392,-0.443,0.473,-28.668,67.860,-24.753
10:59:39:86,39.404,0.709,-0.396,0.115,-25.928,68.382,-18.419
10:59:39:861,39.405,0.705,0.377,0.115,-23.213,70.936,-8.029
10:59:39:885,39.429,0.480,0.779,-0.779,-21.511,71.937,-1.095
10:59:39:969,39.513,0.546,0.819,-1.847,-19.194,70.080,9.534
10:59:39:969,39.513,0.410,-0.159,-2.305,-17.348,66.964,18.190
10:59:39:97,39.514,-0.252,-1.358,-2.210,-15.038,64.887,20.390
10:59:39:989,39.533,0.267,-1.373,-1.872,-13.164,62.446,21.008
10:59:40:045,39.590,-1.026,-0.026,-1.802,-13.997,61.906,19.823
10:59:40:045,39.590,2.134,1.492,-1.823,-16.571,60.091,15.014
10:59:40:097,39.642,0.581,0.499,-0.540,-19.188,58.274,10.013
10:59:40:098,39.643,-0.175,-0.209,-0.826,-20.065,57.760,7.135
10:59:40:148,39.692,-0.245,0.294,-0.179,-21.438,58.452,4.196
10:59:40:233,39.778,0.099,0.344,-0.265,-21.801,58.588,2.752
10:59:40:234,39.779,0.322,0.393,-0.066,-21.710,59.623,0.714
10:59:40:235,39.780,0.257,0.608,0.279,-21.343,61.233,-1.368
10:59:40:251,39.796,0.206,0.152,0.423,-21.638,63.768,-4.856
10:59:40:277,39.822,0.106,-0.212,0.408,-21.970,65.231,-6.611
10:59:40:304,39.849,0.106,-0.327,0.352,-23.039,67.712,-10.122
10:59:40:384,39.928,0.133,-0.188,0.342,-24.267,69.597,-13.513
10:59:40:416,39.960,0.209,-0.086,0.386,-26.833,72.552,-19.823
10:59:40:416,39.961,0.127,0.093,0.796,-29.939,77.721,-27.687
10:59:40:416,39.961,-0.003,0.473,1.290,-32.360,82.220,-33.482
10:59:40:465,40.009,-0.166,0.292,1.585,-35.897,86.751,-40.721
10:59:40:465,40.009,-0.360,-0.223,1.655,-37.685,88.069,-43.478
10:59:40:517,40.061,0.233,-1.163,1.045,-38.893,90.523,-44.937
10:59:40:518,40.062,0.214,-0.875,0.699,-36.782,91.909,-42.672
10:59:40:542,40.086,0.271,-0.678,0.473,-34.833,91.644,-38.686
10:59:40:567,40.111,0.361,-0.650,0.548,-31.253,89.757,-29.851
10:59:40:593,40.137,0.407,-0.385,0.530,-28.967,87.925,-22.501
10:59:40:619,40.164,0.711,0.411,0.072,-26.047,86.405,-10.716
10:59:40:645,40.190,0.542,0.898,-0.699,-23.726,86.547,-3.222
10:59:40:671,40.216,-0.011,1.154,-1.728,-20.276,85.688,7.656
10:59:40:726,40.271,-0.282,0.256,-2.597,-17.533,82.388,17.397
10:59:40:727,40.272,-0.546,-1.215,-2.574,-14.531,79.925,20.458
10:59:40:75,40.295,-0.536,-1.839,-2.237,-11.545,76.783,21.564
10:59:40:776,40.321,-2.959,0.059,-1.733,-12.115,75.392,20.613
10:59:40:833,40.377,2.105,2.109,-1.618,-17.021,74.464,16.008
10:59:40:834,40.378,-0.437,0.664,-0.566,-18.541,72.635,9.369
10:59:40:855,40.399,0.503,-0.642,-0.947,-19.567,71.500,5.471
10:59:40:882,40.426,0.065,0.166,-0.228,-20.816,71.652,1.747
10:59:40:937,40.481,0.097,0.280,-0.395,-21.642,71.808,0.026
10:59:41:122,40.667,0.317,0.601,-0.096,-22.091,72.628,-2.091
10:59:41:122,40.667,0.310,0.514,0.254,-21.976,73.512,-3.391
10:59:41:18,40.725,0.327,0.405,0.369,-21.904,74.840,-5.255
10:59:41:181,40.726,0.203,0.161,0.377,-22.016,76.634,-7.404
10:59:41:182,40.727,0.170,-0.123,0.362,-22.127,78.280,-9.099
10:59:41:182,40.727,0.167,-0.162,0.382,-22.829,81.339,-12.696
10:59:41:206,40.750,0.307,-0.075,0.443,-23.937,83.481,-16.131
10:59:41:207,40.751,0.553,-0.042,0.494,-26.545,86.787,-22.448
10:59:41:207,40.751,0.290,0.091,0.801,-29.354,91.375,-30.101
10:59:41:228,40.772,0.319,-0.054,1.908,-35.427,97.608,-41.953
10:59:41:228,40.772,0.504,-0.944,1.591,-38.154,97.710,-44.199
10:59:41:249,40.793,0.228,-0.771,0.773,-40.249,96.239,-44.232
10:59:41:275,40.819,0.066,-0.695,0.530,-39.548,94.470,-42.214
10:59:41:302,40.846,0.113,-0.646,0.416,-36.040,91.419,-35.930
10:59:41:33,40.874,0.104,-0.510,0.529,-30.253,89.152,-26.970
10:59:41:355,40.899,0.223,-0.096,0.227,-26.857,88.018,-19.988
10:59:41:38,40.925,0.340,0.650,-0.137,-22.818,87.507,-8.727
10:59:41:487,41.032,-0.371,0.805,-2.358,-17.752,86.683,10.097
10:59:41:52,41.065,-0.905,-0.209,-2.443,-15.643,85.168,18.872
10:59:41:525,41.070,-0.644,-1.556,-2.218,-12.022,81.438,22.196
10:59:41:54,41.085,1.805,2.577,-0.262,-16.140,80.424,18.488
10:59:41:565,41.110,-0.577,-0.669,0.657,-16.127,75.507,11.940
10:59:41:591,41.135,0.127,-0.078,-1.438,-18.943,74.420,8.031
10:59:41:647,41.191,-0.032,0.082,-0.217,-19.388,73.008,3.979
10:59:41:647,41.191,0.223,0.196,-0.531,-21.105,72.820,2.465
10:59:41:724,41.269,0.124,0.323,-0.272,-21.998,73.463,-0.039
10:59:41:725,41.270,0.436,0.506,-0.111,-22.355,74.344,-1.294
10:59:41:749,41.294,0.450,0.608,0.204,-22.315,76.165,-3.433
10:59:41:777,41.321,0.205,0.517,0.388,-22.714,77.353,-5.365
10:59:41:778,41.322,0.253,0.270,0.357,-22.926,78.705,-6.874
10:59:41:8,41.344,0.277,-0.209,0.385,-23.395,81.694,-9.882
10:59:41:827,41.371,0.162,-0.227,0.479,-23.978,83.497,-12.585
10:59:41:853,41.397,0.183,-0.071,0.246,-26.110,85.986,-18.278
10:59:41:878,41.423,0.188,0.163,0.530,-29.403,90.330,-25.343
10:59:41:905,41.450,0.405,0.236,0.781,-32.102,93.657,-30.541
10:59:41:932,41.477,0.447,0.351,1.569,-36.347,97.927,-37.932
10:59:41:958,41.503,0.244,-0.364,1.631,-38.450,99.702,-41.225
10:59:41:984,41.528,0.545,-1.100,1.384,-40.721,102.524,-44.053
10:59:42:01,41.554,0.274,-0.743,0.722,-40.192,103.816,-43.874
10:59:42:037,41.581,0.268,-0.801,0.592,-38.124,103.934,-39.392
10:59:42:063,41.607,0.324,-0.509,0.474,-34.786,102.443,-30.821
10:59:42:09,41.635,0.298,-0.278,0.298,-32.396,101.633,-23.897
10:59:42:115,41.660,0.666,0.328,0.086,-29.675,103.422,-13.196
10:59:42:141,41.686,0.715,0.737,-0.328,-27.695,106.070,-6.302
10:59:42:167,41.712,0.218,1.066,-1.321,-25.518,109.195,3.899
10:59:42:194,41.739,-0.255,0.305,-2.247,-24.910,108.757,10.995
10:59:42:22,41.765,-1.168,-0.598,-2.190,-22.381,105.878,18.774
10:59:42:247,41.792,-1.235,-1.572,-2.160,-19.420,101.704,21.438
10:59:42:302,41.846,-0.992,-0.941,-1.130,-19.914,100.033,21.372
10:59:42:303,41.847,0.090,1.840,-0.482,-22.747,99.628,18.203
10:59:42:327,41.871,0.416,-1.910,0.385,-22.923,96.589,14.611
10:59:42:352,41.896,0.114,0.120,-1.015,-26.035,94.085,9.560
10:59:42:407,41.951,0.019,0.063,-0.162,-27.352,94.990,5.095
10:59:42:408,41.952,-0.011,0.187,-0.059,-28.245,95.567,3.263
10:59:42:43,41.974,0.158,0.306,-0.295,-28.937,96.380,1.144
10:59:42:456,42.001,0.418,0.501,0.043,-28.765,97.159,-0.138
10:59:42:511,42.056,0.513,0.475,0.061,-28.592,98.712,-2.082
10:59:42:512,42.057,0.417,0.048,0.139,-28.709,100.756,-4.517
10:59:42:566,42.111,0.310,-0.142,0.100,-28.950,102.356,-6.395
10:59:42:566,42.111,0.272,-0.267,0.147,-29.821,105.195,-9.811
10:59:42:588,42.133,0.324,-0.063,0.329,-30.884,107.413,-12.846
10:59:42:614,42.159,0.314,-0.150,0.203,-33.345,110.815,-18.770
10:59:42:64,42.185,0.658,0.308,0.468,-35.629,113.946,-23.751
10:59:42:668,42.212,1.023,0.275,0.694,-39.455,120.117,-32.693
10:59:42:694,42.238,1.120,0.390,0.956,-43.981,126.009,-41.976
10:59:42:747,42.291,0.975,-0.434,0.973,-46.830,129.337,-46.526
10:59:42:798,42.342,0.698,-1.095,0.506,-45.460,140.146,-47.923
10:59:42:823,42.368,0.777,-0.522,0.246,-42.091,140.854,-40.342
10:59:42:85,42.395,0.727,-0.359,-0.204,-39.745,140.532,-33.566
10:59:42:906,42.450,0.802,0.186,-0.605,-36.051,141.623,-22.543
10:59:42:906,42.450,0.700,0.321,-0.697,-33.400,144.002,-15.775
10:59:42:929,42.473,-0.254,0.741,-1.275,-30.842,146.464,-5.407
10:59:42:955,42.499,-1.250,0.321,-1.727,-29.598,145.730,1.833
10:59:42:983,42.527,-2.181,-0.102,-1.388,-27.728,141.461,10.835
10:59:43:009,42.553,-2.035,-0.789,-0.598,-25.269,135.934,15.140
10:59:43:034,42.579,-2.178,-0.752,-0.416,-25.105,132.885,16.162
10:59:43:09,42.635,-0.085,1.475,-2.431,-27.937,131.118,12.687
10:59:43:09,42.635,-0.885,0.669,-0.780,-27.902,129.586,9.246
10:59:43:143,42.688,-0.321,-0.221,-0.572,-30.969,127.621,4.491
10:59:43:143,42.688,-0.185,0.267,0.282,-32.267,128.390,0.834
10:59:43:165,42.710,0.053,0.186,-0.263,-33.059,128.655,-0.866
10:59:43:218,42.763,0.089,0.332,-0.410,-33.855,129.241,-2.580
10:59:43:334,42.878,0.366,0.303,-0.203,-33.929,130.177,-3.700
10:59:43:335,42.879,0.487,0.373,-0.115,-33.854,131.628,-5.464
10:59:43:335,42.879,0.523,0.181,-0.034,-34.061,133.283,-7.447
10:59:43:336,42.880,0.583,0.089,-0.080,-34.339,135.051,-9.306
10:59:43:352,42.896,0.569,-0.345,-0.124,-34.974,138.360,-12.844
10:59:43:353,42.897,0.666,-0.399,-0.202,-35.976,141.060,-16.163
10:59:43:376,42.920,0.594,-0.223,-0.265,-38.506,144.736,-22.499
10:59:43:405,42.949,0.918,0.013,-0.127,-41.095,147.564,-27.563
10:59:43:427,42.972,1.121,-0.012,0.156,-45.624,153.848,-37.040
10:59:43:454,42.999,1.240,0.429,-0.089,-51.570,160.450,-46.992
10:59:43:48,43.025,1.281,-0.138,0.446,-54.893,164.469,-52.082
10:59:43:506,43.051,1.391,-1.210,0.494,-57.162,170.776,-57.207
10:59:43:533,43.078,0.896,-1.196,0.188,-55.104,174.146,-57.870
10:59:43:588,43.133,0.795,-1.286,-0.221,-50.490,177.723,-55.672
10:59:43:589,43.134,0.596,-0.581,-0.269,-44.623,178.224,-48.284
10:59:43:611,43.156,0.442,-0.555,-0.351,-40.953,177.118,-41.017
10:59:43:638,43.182,0.389,-0.037,-0.782,-36.069,177.248,-29.362
10:59:43:697,43.241,0.291,0.722,-0.861,-32.923,178.780,-22.115
10:59:43:697,43.241,-0.776,0.914,-0.792,-28.632,179.770,-11.356
10:59:43:697,43.241,-1.887,1.300,-0.569,-27.314,179.064,-4.387
10:59:43:746,43.290,-2.222,0.414,-0.010,-25.742,175.714,3.543
10:59:43:747,43.291,-1.923,-0.921,0.321,-23.316,171.075,5.702
10:59:43:797,43.342,-1.652,-0.973,-0.137,-23.486,168.583,5.848
10:59:43:798,43.343,0.104,2.159,-1.423,-28.014,167.846,3.715
10:59:43:821,43.366,0.505,-0.630,0.940,-27.646,166.885,-0.558
10:59:43:847,43.392,-0.425,-0.006,-0.303,-31.231,166.416,-5.965
10:59:43:876,43.421,0.111,0.052,-0.387,-32.617,166.767,-9.354
10:59:43:901,43.446,-0.010,0.044,-0.446,-33.506,167.547,-11.252
10:59:43:926,43.471,0.001,0.334,-0.408,-34.229,168.593,-13.244
10:59:43:952,43.497,0.233,0.306,-0.307,-34.133,169.805,-14.597
10:59:43:979,43.524,0.549,0.283,-0.350,-33.640,171.784,-16.668
10:59:44:005,43.549,0.586,0.186,-0.344,-33.522,172.699,-17.909
10:59:44:031,43.575,0.624,-0.036,-0.383,-33.589,174.790,-20.463
10:59:44:058,43.602,0.559,-0.313,-0.359,-34.117,177.389,-23.846
10:59:44:085,43.629,0.673,-0.397,-0.335,-35.069,179.281,-26.790
10:59:44:112,43.656,0.622,-0.287,-0.335,-37.777,-177.725,-32.821
10:59:44:137,43.681,0.918,0.120,-0.486,-40.446,-174.688,-38.109
10:59:44:162,43.707,1.155,-0.164,-0.586,-45.227,-168.628,-47.375
10:59:44:189,43.734,1.518,0.194,-0.709,-52.110,-162.721,-57.116
10:59:44:215,43.760,1.451,-0.807,-0.282,-55.690,-159.263,-61.521
10:59:44:3,43.844,1.247,-1.621,-0.348,-57.645,-154.471,-65.164
10:59:44:301,43.845,0.638,-1.210,-0.277,-55.724,-151.339,-65.160
10:59:44:301,43.845,0.706,-1.196,-0.361,-50.213,-149.396,-61.633
10:59:44:32,43.864,0.357,-0.860,-0.480,-45.452,-149.105,-56.932
10:59:44:349,43.893,0.336,-0.555,-0.661,-38.136,-149.310,-47.468
10:59:44:374,43.918,0.142,-0.033,-0.937,-32.003,-149.125,-35.900
10:59:44:399,43.943,0.008,0.542,-0.959,-28.261,-148.378,-28.172
10:59:44:425,43.970,-0.750,1.513,-0.050,-24.224,-148.543,-16.704
10:59:44:481,44.026,-1.443,1.409,0.554,-22.341,-150.694,-9.031
10:59:44:481,44.026,-1.790,0.870,1.300,-20.763,-154.611,-0.265
10:59:44:533,44.078,-1.739,-0.811,1.668,-18.405,-159.363,2.428
10:59:44:534,44.079,-1.225,-0.691,1.133,-18.999,-160.829,2.376
10:59:44:556,44.101,-2.336,2.917,-0.037,-22.976,-161.338,-0.693
10:59:44:641,44.185,0.715,-0.509,0.440,-23.247,-162.605,-5.095
10:59:44:642,44.186,-0.417,-0.168,0.512,-27.630,-162.751,-10.801
10:59:44:643,44.187,0.291,0.086,0.051,-28.839,-162.441,-13.685
10:59:44:69,44.235,0.093,0.164,-0.042,-30.672,-161.409,-16.584
10:59:44:691,44.236,0.039,0.268,-0.269,-31.485,-160.666,-18.613
10:59:44:714,44.259,0.192,0.356,-0.482,-31.410,-159.957,-19.709
10:59:44:74,44.285,0.375,0.222,-0.531,-30.980,-158.867,-21.471
10:59:44:766,44.311,0.377,0.034,-0.489,-30.931,-157.916,-22.690
10:59:44:793,44.337,0.353,-0.086,-0.541,-30.988,-155.593,-24.956
10:59:44:848,44.393,0.574,-0.382,-0.617,-31.641,-152.421,-28.217
10:59:44:849,44.394,0.572,-0.283,-0.630,-33.023,-150.210,-31.354
10:59:44:901,44.445,0.533,-0.059,-0.784,-36.598,-146.330,-37.993
10:59:44:901,44.445,0.917,-0.108,-1.214,-39.465,-142.404,-43.703
10:59:44:925,44.469,0.959,0.088,-1.365,-44.672,-135.368,-53.300
10:59:44:951,44.495,0.725,-0.402,-1.010,-51.261,-129.589,-61.898
10:59:45:063,44.608,1.054,-0.651,-1.070,-53.983,-125.934,-65.189
10:59:45:064,44.609,0.315,-1.544,-0.741,-53.238,-122.130,-66.556
10:59:45:065,44.610,0.280,-1.144,-0.384,-49.769,-119.051,-65.327
10:59:45:066,44.611,0.033,-0.963,-0.488,-42.787,-118.312,-60.091
10:59:45:081,44.626,0.002,-0.665,-0.618,-37.471,-118.607,-54.495
10:59:45:166,44.711,-0.322,-0.269,-0.588,-29.617,-119.138,-44.246
10:59:45:167,44.712,-0.532,0.283,-0.749,-22.628,-118.402,-32.794
10:59:45:167,44.712,-0.419,0.575,-0.391,-18.906,-117.416,-25.112
10:59:45:186,44.731,-0.550,1.744,1.094,-15.906,-118.600,-13.662
10:59:45:213,44.758,-0.960,0.808,2.098,-14.066,-121.205,-6.576
10:59:45:24,44.784,-0.190,-0.140,2.424,-12.573,-124.244,-0.093
10:59:45:265,44.809,-0.329,-0.547,1.985,-11.634,-126.490,0.610
10:59:45:292,44.836,1.026,1.163,-1.309,-12.862,-126.809,-1.309
10:59:45:318,44.862,-1.611,-1.542,0.156,-14.763,-128.160,-6.426
10:59:45:345,44.889,-0.380,0.022,0.581,-17.366,-127.759,-9.432
10:59:45:372,44.916,0.116,0.193,-0.104,-20.066,-128.123,-14.412
10:59:45:396,44.941,0.071,0.042,-0.200,-20.967,-127.515,-16.600
10:59:45:481,45.026,0.101,0.263,-0.199,-22.140,-126.602,-19.105
10:59:45:481,45.026,0.027,0.261,-0.335,-22.489,-125.543,-21.131
10:59:45:482,45.027,0.053,0.313,-0.444,-22.421,-124.759,-22.566
10:59:45:501,45.046,0.115,0.227,-0.541,-22.514,-123.611,-24.656
10:59:45:528,45.073,0.107,0.155,-0.551,-22.711,-122.598,-26.085
10:59:45:556,45.101,0.096,-0.103,-0.566,-22.956,-120.516,-28.479
10:59:45:581,45.126,0.201,-0.295,-0.633,-23.852,-117.842,-31.388
10:59:45:606,45.150,0.226,-0.317,-0.820,-25.091,-115.658,-34.176
10:59:45:633,45.177,0.044,-0.036,-0.800,-28.059,-111.395,-40.283
10:59:45:659,45.203,0.196,0.047,-1.205,-30.329,-107.729,-45.208
10:59:45:686,45.230,0.218,0.163,-1.657,-34.719,-101.748,-53.335
10:59:45:712,45.256,0.448,-0.204,-1.569,-38.076,-98.296,-58.233
10:59:45:738,45.282,0.275,-0.747,-1.331,-41.128,-94.142,-62.638
10:59:45:764,45.309,-0.122,-1.652,-0.840,-38.773,-91.215,-63.138
10:59:45:792,45.336,-0.199,-1.215,-0.709,-34.816,-88.519,-61.433
10:59:45:818,45.362,-0.219,-1.008,-0.615,-28.295,-87.732,-55.840
10:59:45:843,45.387,-0.348,-0.733,-0.677,-24.394,-88.102,-50.207
10:59:45:869,45.413,-0.392,-0.349,-0.609,-20.166,-89.688,-39.725
10:59:45:896,45.440,-0.493,0.658,-0.184,-15.789,-90.311,-27.887
10:59:45:925,45.469,-0.317,0.756,0.033,-12.520,-89.958,-20.197
10:59:45:925,45.469,0.393,1.548,1.472,-9.381,-92.650,-9.298
10:59:45:947,45.492,0.446,0.711,2.214,-7.536,-96.591,-3.229
10:59:46:003,45.548,0.686,-0.404,2.513,-5.408,-103.032,1.225
10:59:46:004,45.549,0.462,-0.909,2.159,-4.266,-106.334,1.485
10:59:46:055,45.600,1.449,0.234,0.170,-5.819,-107.126,-0.134
10:59:46:056,45.601,-0.451,2.327,1.343,-8.540,-105.954,-5.429
10:59:46:137,45.682,0.211,0.013,0.172,-10.302,-106.638,-9.123
10:59:46:138,45.683,0.711,0.069,-0.001,-12.975,-106.732,-14.392
10:59:46:138,45.683,0.134,0.223,-0.052,-14.194,-106.469,-16.294
10:59:46:158,45.703,0.229,0.179,-0.140,-15.572,-105.487,-18.597
10:59:46:184,45.729,0.071,0.440,-0.269,-16.087,-104.366,-20.469
10:59:46:21,45.755,-0.053,0.465,-0.435,-15.713,-103.398,-21.728
10:59:46:236,45.781,-0.048,0.419,-0.692,-15.172,-102.353,-23.375
10:59:46:262,45.807,0.001,0.237,-0.783,-14.966,-101.627,-24.507
10:59:46:289,45.834,0.034,-0.125,-0.822,-14.682,-99.744,-26.577
10:59:46:315,45.860,-0.055,-0.477,-0.790,-14.681,-98.133,-28.399
10:59:46:343,45.888,-0.235,-0.351,-0.673,-15.810,-95.145,-32.813
10:59:46:368,45.913,-0.319,-0.092,-0.493,-17.941,-92.238,-38.994
10:59:46:394,45.939,-0.311,-0.117,-0.780,-19.917,-90.061,-43.621
10:59:46:42,45.965,-0.122,0.042,-1.588,-23.716,-85.839,-50.884
10:59:46:447,45.991,-0.043,-0.412,-1.405,-27.511,-83.846,-55.498
10:59:46:473,46.017,0.047,-0.540,-1.248,-32.001,-81.804,-59.907
10:59:46:499,46.043,-0.211,-1.496,-1.064,-32.380,-80.329,-61.347
10:59:46:528,46.072,-0.007,-1.195,-0.813,-29.089,-79.160,-60.596
10:59:46:553,46.097,-0.267,-0.949,-0.601,-23.693,-79.873,-56.185
10:59:46:577,46.122,-0.018,-0.665,-0.640,-19.765,-81.072,-51.417
10:59:46:605,46.150,0.015,-0.311,-0.585,-15.193,-83.655,-42.271
10:59:46:631,46.176,0.099,0.481,-0.586,-12.973,-85.496,-34.712
10:59:46:657,46.202,0.278,1.074,-0.228,-10.106,-86.286,-22.124
10:59:46:683,46.228,0.510,1.484,1.328,-6.785,-87.388,-10.541
10:59:46:709,46.254,0.716,0.538,1.789,-5.003,-88.831,-4.031
10:59:46:735,46.280,0.984,-0.372,2.160,-2.593,-93.441,1.295
10:59:46:763,46.308,0.519,-1.225,2.531,-1.160,-97.518,1.825
10:59:46:788,46.332,0.329,-0.531,1.404,-2.564,-101.193,0.734
10:59:46:814,46.358,-1.953,2.700,-0.400,-6.110,-102.406,-2.228
10:59:46:84,46.384,-1.771,0.912,2.316,-7.885,-104.017,-7.055
10:59:46:867,46.411,0.242,0.515,0.368,-12.121,-104.192,-13.188
10:59:46:893,46.437,0.233,-0.078,0.050,-13.765,-104.589,-16.049
10:59:46:919,46.463,-0.101,0.180,-0.071,-15.992,-104.178,-18.703
10:59:46:974,46.519,-0.026,0.512,-0.175,-16.622,-103.180,-21.359
10:59:46:975,46.520,-0.219,0.706,-0.487,-16.354,-102.366,-22.889
10:59:47:027,46.572,-0.020,0.538,-0.964,-15.600,-101.105,-25.042
10:59:47:027,46.572,0.000,0.106,-0.826,-15.530,-100.370,-26.390
10:59:47:05,46.595,-0.031,-0.284,-0.784,-15.223,-98.117,-28.577
10:59:47:076,46.621,-0.073,-0.514,-0.607,-14.992,-95.971,-30.449
10:59:47:103,46.647,-0.125,-0.268,-0.468,-15.645,-92.646,-34.677
10:59:47:129,46.673,-0.323,-0.278,-0.643,-17.772,-89.561,-40.256
10:59:47:155,46.700,-0.061,-0.069,-0.659,-19.324,-87.094,-44.349
10:59:47:181,46.726,-0.207,-0.028,-1.073,-22.512,-83.172,-50.828
10:59:47:208,46.753,0.181,-0.141,-1.718,-24.807,-80.747,-55.001
10:59:47:234,46.779,-0.340,-0.600,-2.018,-28.315,-77.279,-59.141
10:59:47:261,46.806,-0.184,-1.119,-0.967,-27.508,-75.506,-60.156
10:59:47:286,46.831,0.088,-0.978,-0.914,-25.500,-75.241,-58.926
10:59:47:313,46.858,-0.075,-0.862,-0.667,-22.190,-76.260,-53.933
10:59:47:339,46.884,0.086,-0.576,-0.591,-19.457,-77.512,-48.802
10:59:47:365,46.909,0.048,-0.347,-0.543,-15.587,-79.497,-39.047
10:59:47:392,46.936,-0.083,0.315,-0.480,-13.344,-80.046,-31.289
10:59:47:447,46.992,-0.041,1.003,-0.190,-9.766,-78.709,-19.457
10:59:47:448,46.993,0.465,1.280,1.273,-7.439,-79.770,-8.401
10:59:47:529,47.073,0.413,0.490,1.892,-6.444,-81.864,-1.821
10:59:47:529,47.073,1.118,-0.500,2.163,-4.641,-87.004,3.435
10:59:47:53,47.074,1.001,-1.075,2.141,-3.583,-90.495,4.405
10:59:47:55,47.094,0.629,-0.695,1.608,-4.942,-92.707,3.924
10:59:47:605,47.149,0.225,2.734,1.052,-6.761,-92.825,1.781
10:59:47:605,47.149,-1.648,-1.863,-0.120,-9.449,-95.918,-4.255
10:59:47:628,47.172,0.209,0.353,0.726,-14.017,-97.043,-9.987
10:59:47:654,47.198,0.375,0.014,-0.123,-15.266,-96.517,-12.644
10:59:47:681,47.225,0.228,0.080,-0.164,-16.947,-95.080,-15.461
10:59:47:735,47.280,0.072,0.312,-0.160,-17.707,-94.384,-16.771
10:59:47:736,47.281,-0.145,0.440,-0.385,-17.642,-93.262,-18.387
10:59:47:759,47.304,-0.134,0.446,-0.640,-17.440,-91.926,-19.905
10:59:47:785,47.330,-0.075,0.128,-0.584,-17.453,-90.852,-21.076
10:59:47:811,47.356,-0.122,-0.059,-0.519,-17.649,-88.313,-23.268
10:59:47:839,47.384,-0.153,-0.329,-0.500,-17.987,-86.034,-25.176
10:59:47:866,47.411,-0.165,-0.207,-0.706,-19.612,-82.139,-29.472
10:59:47:891,47.436,-0.221,-0.068,-0.527,-22.039,-77.225,-35.648
10:59:47:917,47.461,-0.338,0.049,-0.897,-23.861,-73.051,-40.336
10:59:47:943,47.487,-0.587,0.417,-1.694,-27.417,-67.128,-47.810
10:59:47:969,47.513,-0.409,-0.333,-1.320,-29.987,-63.896,-52.469
10:59:47:996,47.540,-0.707,-0.746,-1.418,-32.394,-59.723,-56.945
10:59:48:022,47.566,-0.524,-1.322,-0.716,-30.819,-57.478,-57.785
10:59:48:109,47.654,-0.574,-1.165,-0.561,-26.550,-55.554,-56.075
10:59:48:109,47.654,-0.504,-0.977,-0.464,-22.896,-55.300,-50.105
10:59:48:11,47.655,-0.431,-0.601,-0.522,-21.033,-56.059,-44.225
10:59:48:111,47.656,-0.401,0.200,-0.357,-18.314,-57.515,-33.168
10:59:48:156,47.701,-0.483,0.623,-0.198,-15.349,-57.154,-25.039
10:59:48:156,47.701,-0.080,1.080,0.098,-10.849,-53.878,-12.991
10:59:48:179,47.724,1.060,1.324,1.310,-8.745,-52.169,-1.712
10:59:48:205,47.750,1.512,0.987,1.477,-7.790,-53.252,4.826
10:59:48:232,47.777,1.713,-1.708,1.690,-4.413,-57.663,9.333
10:59:48:258,47.803,1.654,-1.179,1.645,-4.107,-59.713,10.307
10:59:48:284,47.828,1.663,-0.428,-0.134,-5.591,-60.396,9.351
10:59:48:311,47.855,-0.573,0.090,2.459,-7.908,-60.447,6.665
10:59:48:366,47.910,0.922,-0.458,-0.288,-9.904,-62.518,0.313
10:59:48:367,47.911,0.237,-0.177,0.286,-12.801,-63.157,-5.342
10:59:48:389,47.933,0.355,-0.085,-0.348,-14.144,-62.546,-7.624
10:59:48:416,47.960,0.272,0.328,-0.014,-15.425,-62.115,-10.004
10:59:48:441,47.986,-0.036,0.474,-0.084,-15.645,-61.799,-11.076
10:59:48:467,48.012,-0.214,0.473,-0.190,-15.295,-60.631,-12.370
10:59:48:494,48.039,-0.266,0.342,-0.422,-15.082,-59.018,-13.807
10:59:48:521,48.066,-0.251,0.199,-0.360,-15.301,-57.453,-14.798
10:59:48:546,48.091,-0.493,-0.118,-0.441,-15.884,-54.065,-16.944
10:59:48:573,48.118,-0.531,-0.241,-0.505,-16.743,-51.471,-19.224
10:59:48:599,48.144,-0.358,0.049,-0.169,-19.111,-47.391,-24.435
10:59:48:625,48.169,-0.493,0.299,-0.694,-21.015,-43.918,-28.869
10:59:48:652,48.196,-0.974,0.122,-0.778,-23.722,-37.147,-36.534
10:59:48:709,48.253,-1.028,0.418,-0.805,-27.995,-30.677,-44.508
10:59:48:709,48.253,-1.207,-0.555,-0.681,-30.449,-26.860,-48.372
10:59:48:731,48.275,-1.340,-1.136,-0.361,-30.849,-21.639,-51.147
10:59:48:759,48.303,-0.884,-0.957,-0.018,-28.597,-19.115,-50.687
10:59:48:783,48.328,-0.562,-1.004,0.238,-25.454,-18.072,-46.798
10:59:48:809,48.354,-0.679,-0.479,0.092,-22.199,-18.661,-38.769
10:59:48:835,48.380,-0.456,-0.291,0.341,-20.229,-19.590,-32.068
10:59:48:862,48.407,-0.343,0.328,0.713,-16.793,-19.996,-20.847
10:59:48:888,48.433,0.257,0.689,0.487,-13.888,-18.276,-13.493
10:59:48:914,48.459,1.140,1.316,0.308,-11.279,-14.605,-2.666
10:59:48:941,48.486,2.438,0.463,0.628,-9.718,-15.342,4.264
10:59:48:996,48.540,2.561,0.016,-0.296,-7.375,-19.135,12.436
10:59:48:997,48.541,2.010,-1.360,-0.285,-3.645,-23.939,14.295
10:59:49:05,48.595,1.884,-1.308,-0.151,-2.973,-26.185,14.071
10:59:49:05,48.595,0.891,2.471,2.050,-6.485,-26.188,12.042
10:59:49:071,48.616,-0.753,-1.842,-0.124,-7.193,-27.098,8.115
10:59:49:097,48.642,0.517,0.009,0.070,-10.222,-27.812,2.326
10:59:49:124,48.668,0.417,0.195,-0.551,-11.644,-27.628,-0.707
10:59:49:179,48.724,0.239,0.079,0.011,-12.480,-26.989,-2.078
10:59:49:179,48.724,0.256,0.412,-0.100,-13.162,-26.097,-3.628
10:59:49:317,48.861,-0.123,0.584,-0.059,-13.081,-25.005,-4.634
10:59:49:318,48.862,-0.213,0.483,0.025,-12.794,-23.311,-6.152
10:59:49:319,48.863,-0.287,0.350,-0.063,-12.896,-22.090,-7.278
10:59:49:32,48.864,-0.404,0.109,0.050,-13.220,-19.195,-9.292
10:59:49:368,48.912,-0.578,-0.347,0.126,-13.960,-15.771,-12.063
10:59:49:368,48.912,-0.439,-0.269,0.160,-15.132,-13.956,-14.952
10:59:49:368,48.912,-0.326,0.035,0.156,-17.978,-11.060,-20.532
10:59:49:443,48.988,-0.659,0.213,0.018,-20.231,-8.222,-24.926
10:59:49:444,48.989,-1.099,0.409,0.226,-24.068,-3.463,-32.325
10:59:49:468,49.013,-0.943,0.416,0.093,-28.122,0.469,-39.522
10:59:49:469,49.014,-1.469,-0.233,-0.012,-30.492,2.848,-42.124
10:59:49:493,49.038,-1.086,-1.047,0.356,-30.925,5.948,-43.731
10:59:49:519,49.064,-0.490,-0.885,0.041,-28.951,7.405,-42.962
10:59:49:575,49.120,-0.389,-0.862,0.152,-25.740,8.311,-38.538
10:59:49:575,49.120,-0.285,-0.604,0.280,-21.494,8.558,-30.673
10:59:49:597,49.142,-0.148,-0.333,0.243,-18.621,8.752,-24.229
10:59:49:623,49.167,0.107,0.248,0.429,-15.062,10.476,-13.340
10:59:49:65,49.194,0.385,0.669,0.351,-13.561,12.528,-5.727
10:59:49:676,49.220,1.463,1.152,-0.445,-12.007,12.719,5.581
10:59:49:702,49.246,2.103,-0.023,-1.145,-10.261,10.585,12.244
10:59:49:728,49.272,1.954,-0.469,-1.307,-7.294,6.109,18.691
10:59:49:755,49.299,1.612,-1.816,-1.099,-4.118,3.130,19.715
10:59:49:809,49.354,1.234,-1.154,-0.807,-4.830,2.795,19.171
10:59:49:81,49.355,1.770,2.364,1.475,-8.697,2.680,16.084
10:59:49:833,49.378,0.628,-1.406,1.368,-8.770,0.181,12.150
10:59:49:888,49.433,0.859,0.208,-0.403,-12.425,-1.946,6.852
10:59:49:889,49.434,0.178,0.067,-0.355,-13.154,-1.965,4.071
10:59:49:941,49.485,0.228,0.266,-0.296,-14.877,-1.182,1.470
10:59:49:942,49.486,0.312,0.269,-0.110,-15.721,-0.500,-0.446
10:59:49:964,49.508,0.045,0.576,0.161,-15.719,0.320,-1.494
10:59:49:992,49.536,-0.166,0.498,0.156,-15.641,1.744,-3.119
10:59:50:016,49.561,-0.220,0.215,0.188,-15.898,2.685,-4.138
10:59:50:042,49.587,-0.182,0.091,0.209,-16.462,4.845,-6.003
10:59:50:069,49.614,-0.368,-0.194,0.226,-17.395,7.634,-8.596
10:59:50:095,49.640,-0.372,-0.027,0.207,-18.689,9.430,-11.093
10:59:50:121,49.666,-0.233,0.097,0.273,-21.457,12.455,-16.486
10:59:50:148,49.693,-0.301,0.180,0.382,-23.735,15.497,-20.951
10:59:50:177,49.722,-0.588,0.499,0.676,-27.428,21.113,-28.551
10:59:50:205,49.750,-0.729,0.347,0.629,-31.177,26.596,-36.295
10:59:50:287,49.832,-1.286,-0.248,0.797,-33.500,30.181,-39.384
10:59:50:288,49.833,-0.754,-1.053,0.950,-34.448,34.843,-41.934
10:59:50:289,49.834,-0.516,-0.925,0.396,-32.865,36.987,-41.675
10:59:50:29,49.835,-0.215,-0.767,0.521,-30.087,38.441,-37.356
10:59:50:332,49.877,-0.154,-0.572,0.359,-27.517,38.646,-32.251
10:59:50:359,49.904,-0.079,-0.286,0.311,-23.687,39.259,-22.793
10:59:50:411,49.955,0.393,0.353,0.407,-21.196,41.523,-11.877
10:59:50:443,49.987,0.800,0.659,0.027,-19.641,44.002,-4.558
10:59:50:443,49.987,1.203,0.617,-0.865,-18.290,45.623,6.470
10:59:50:444,49.988,1.676,-0.013,-1.876,-17.512,44.129,13.570
10:59:50:493,50.037,0.943,-0.955,-2.120,-15.327,40.506,20.577
10:59:50:493,50.037,1.069,-1.446,-1.673,-12.745,36.478,22.535
10:59:50:516,50.060,0.704,-1.227,-1.499,-13.145,35.137,22.075
10:59:50:542,50.086,3.091,1.728,-1.396,-15.546,33.635,18.166
10:59:50:569,50.114,-0.211,-0.854,-1.023,-15.374,31.174,14.722
10:59:50:594,50.139,0.623,-0.062,-0.314,-18.677,29.329,9.976
10:59:50:62,50.165,-0.152,0.075,-0.475,-19.597,29.767,7.919
10:59:50:646,50.191,0.153,0.379,-0.328,-20.718,30.576,5.513
10:59:50:673,50.218,0.375,0.360,-0.055,-20.972,31.193,3.961
10:59:50:699,50.244,0.214,0.509,0.143,-20.768,32.143,2.883
10:59:50:727,50.272,-0.020,0.476,0.261,-20.658,33.572,1.180
10:59:50:752,50.297,-0.018,0.193,0.292,-20.877,34.481,0.001
10:59:50:778,50.322,-0.006,-0.070,0.356,-21.512,36.670,-2.237
10:59:50:805,50.349,-0.070,-0.234,0.446,-22.752,39.546,-5.433
10:59:50:86,50.404,-0.034,-0.079,0.406,-24.233,41.533,-8.553
10:59:50:86,50.404,0.074,0.162,0.396,-27.221,44.957,-14.756
10:59:50:913,50.457,-0.252,0.284,0.893,-29.761,48.771,-20.159
10:59:50:913,50.457,-0.240,0.758,1.264,-33.925,54.957,-29.055
10:59:50:935,50.480,-0.225,0.196,0.926,-36.528,58.156,-33.940
10:59:50:993,50.538,-0.536,-0.135,1.129,-39.215,63.063,-39.035
10:59:50:993,50.538,-0.037,-1.259,0.714,-38.626,67.330,-40.132
10:59:51:072,50.617,0.003,-0.926,0.753,-37.158,69.499,-38.855
10:59:51:073,50.618,0.102,-0.800,0.432,-34.395,70.729,-33.302
