Time,Second,AccelerationX,AccelerationY,AccelerationZ,EulerAnglesX,EulerAnglesY,EulerAnglesZ
09:47:37:23,0.000,0.002,0.004,0.001,2.923,-0.550,-12.826
09:47:37:263,0.033,0.002,0.006,-0.001,2.941,-0.629,-12.786
09:47:37:264,0.034,0.003,0.005,-0.004,2.952,-0.689,-12.763
09:47:37:264,0.034,0.000,-0.002,0.002,2.958,-0.753,-12.736
09:47:37:265,0.035,-0.002,0.002,0.001,2.977,-0.800,-12.698
09:47:37:394,0.164,-0.001,0.004,0.008,2.986,-0.842,-12.664
09:47:37:395,0.165,0.001,0.000,0.002,3.002,-0.916,-12.613
09:47:37:396,0.165,0.003,-0.006,0.010,3.018,-0.959,-12.572
09:47:37:396,0.166,0.002,-0.011,-0.001,3.032,-0.985,-12.533
09:47:37:946,0.715,0.000,0.000,-0.003,3.046,-0.985,-12.506
09:47:37:947,0.716,-0.003,0.008,-0.013,3.046,-0.970,-12.442
09:47:37:947,0.717,-0.004,0.002,0.001,3.052,-0.905,-12.370
09:47:37:948,0.718,-0.011,-0.006,0.006,3.042,-0.847,-12.319
09:47:38:936,1.706,-0.012,-0.008,0.013,3.020,-0.780,-12.261
09:47:39:042,1.811,-0.005,0.007,0.011,3.021,-0.790,-12.223
09:47:39:043,1.812,0.005,0.004,0.017,3.002,-0.853,-12.158
09:47:39:206,1.976,0.007,-0.001,0.012,3.008,-0.884,-12.098
09:47:39:207,1.977,0.002,-0.003,0.015,3.012,-0.873,-12.066
09:47:39:208,1.977,-0.005,0.005,0.014,3.029,-0.807,-12.026
09:47:39:208,1.978,-0.008,0.004,0.012,3.038,-0.754,-11.993
09:47:39:337,2.107,-0.004,-0.002,0.006,3.056,-0.667,-11.931
09:47:39:337,2.107,-0.007,-0.007,0.013,3.069,-0.533,-11.864
09:47:39:338,2.108,-0.006,-0.008,0.012,3.071,-0.433,-11.819
09:47:39:339,2.109,-0.004,-0.002,0.011,3.085,-0.317,-11.750
09:47:39:785,2.554,0.008,0.004,0.003,3.097,-0.261,-11.713
09:47:39:785,2.554,0.011,0.003,0.009,3.111,-0.184,-11.661
09:47:39:786,2.555,0.013,-0.004,0.005,3.104,-0.074,-11.634
09:47:39:786,2.556,0.003,-0.003,0.003,3.103,0.029,-11.628
09:47:39:831,2.600,-0.002,0.001,0.005,3.096,0.202,-11.621
09:47:39:831,2.601,-0.003,0.005,0.001,3.094,0.322,-11.596
09:47:39:857,2.627,-0.009,-0.004,0.010,3.077,0.515,-11.564
09:47:39:914,2.684,-0.007,0.003,-0.012,2.986,1.520,-11.374
09:47:39:915,2.685,-0.008,0.020,-0.006,2.955,1.604,-11.355
09:47:39:916,2.686,-0.018,0.011,0.002,2.937,1.663,-11.319
09:47:39:916,2.686,-0.015,0.000,0.016,2.887,1.784,-11.272
09:47:40:019,2.789,-0.097,-0.016,-0.016,4.702,-2.173,-9.186
09:47:40:071,2.841,-0.006,0.060,-0.037,5.334,-12.129,-4.637
09:47:40:073,2.843,0.051,0.047,-0.006,5.224,-13.843,-3.280
09:47:40:073,2.843,0.082,0.007,0.022,5.162,-14.974,-2.288
09:47:40:074,2.844,0.156,-0.036,0.075,4.974,-17.727,0.441
09:47:40:177,2.946,0.151,-0.065,0.078,4.835,-19.183,2.234
09:47:40:178,2.947,0.170,-0.068,0.107,4.826,-20.519,3.337
09:47:40:178,2.948,0.169,-0.059,0.115,4.873,-21.389,3.817
09:47:40:307,3.077,0.292,-0.134,0.144,2.882,-19.898,6.822
09:47:40:308,3.078,0.300,-0.069,0.105,2.841,-17.815,5.392
09:47:40:309,3.079,0.292,0.095,0.000,2.998,-14.046,2.963
09:47:40:31,3.080,0.271,0.255,-0.055,3.328,-11.211,1.241
09:47:40:413,3.182,0.153,0.336,-0.129,4.280,-6.653,-1.416
09:47:40:414,3.183,0.011,0.205,-0.188,5.206,-3.842,-3.252
09:47:40:414,3.184,-0.034,0.124,-0.221,6.817,-0.710,-6.227
09:47:40:415,3.185,-0.064,0.107,-0.222,8.419,1.096,-9.579
09:47:40:755,3.525,-0.107,0.145,-0.254,9.479,1.919,-11.961
09:47:40:756,3.525,-0.158,0.113,-0.285,11.182,2.932,-15.533
09:47:40:756,3.526,-0.224,0.053,-0.301,12.385,3.464,-17.822
09:47:40:756,3.526,-0.247,-0.011,-0.282,14.183,3.890,-21.098
09:47:40:781,3.550,-0.267,-0.099,-0.258,15.839,3.865,-24.253
09:47:40:781,3.551,-0.277,-0.127,-0.255,16.813,3.726,-26.293
09:47:40:782,3.552,-0.286,-0.190,-0.256,18.128,3.545,-29.232
09:47:40:783,3.552,-0.316,-0.199,-0.235,19.313,3.573,-31.921
09:47:40:859,3.629,-0.344,-0.194,-0.221,20.053,3.737,-33.507
09:47:40:86,3.630,-0.437,-0.108,-0.233,21.042,4.158,-35.370
09:47:40:86,3.630,-0.460,-0.088,-0.221,21.540,4.453,-36.157
09:47:40:861,3.631,-0.435,-0.139,-0.169,21.887,4.814,-36.623
09:47:40:886,3.656,-0.465,-0.091,-0.163,21.624,4.963,-36.356
09:47:40:887,3.657,-0.494,-0.010,-0.182,21.139,4.940,-35.765
09:47:40:888,3.658,-0.435,-0.044,-0.163,20.079,4.741,-34.314
09:47:40:889,3.659,-0.388,-0.091,-0.133,19.204,4.462,-33.097
09:47:40:938,3.707,-0.349,-0.111,-0.117,17.647,3.733,-31.069
09:47:40:939,3.708,-0.269,-0.099,-0.098,16.507,3.058,-29.640
09:47:40:939,3.709,-0.246,-0.043,-0.097,14.828,1.927,-27.437
09:47:40:964,3.734,-0.230,0.033,-0.099,12.422,-0.009,-23.397
09:47:40:965,3.735,-0.175,0.024,-0.097,11.141,-1.627,-20.851
09:47:40:966,3.735,0.145,0.019,0.114,5.269,-13.577,-4.137
09:47:40:967,3.736,0.164,-0.005,0.154,5.072,-14.015,-2.620
09:47:41:072,3.842,0.195,0.009,0.176,4.833,-14.606,-0.509
09:47:41:072,3.842,0.211,0.022,0.181,4.718,-14.980,0.732
09:47:41:072,3.842,0.251,0.031,0.192,4.621,-15.446,2.375
09:47:41:073,3.843,0.299,0.059,0.215,4.589,-15.630,3.794
09:47:41:149,3.919,0.343,0.099,0.220,4.596,-15.503,4.603
09:47:41:149,3.919,0.346,0.098,0.202,4.640,-14.967,5.549
09:47:41:15,3.919,0.356,0.096,0.183,4.683,-14.545,5.943
09:47:41:15,3.920,0.406,0.166,0.175,5.044,-14.027,4.954
09:47:41:384,4.154,0.448,0.152,0.110,5.183,-12.961,4.789
09:47:41:385,4.155,0.444,0.115,0.075,5.278,-11.866,4.467
09:47:41:673,4.442,0.323,0.036,-0.101,5.758,-4.083,1.268
09:47:41:674,4.443,0.238,0.118,-0.173,6.272,-0.235,-0.584
09:47:41:675,4.444,0.174,0.109,-0.199,6.834,2.367,-1.928
09:47:41:675,4.445,0.085,0.143,-0.261,7.970,6.009,-4.120
09:47:41:726,4.495,0.034,0.135,-0.277,8.889,8.249,-5.702
09:47:41:727,4.496,-0.067,0.102,-0.318,10.471,11.407,-8.233
09:47:41:728,4.497,-0.143,0.077,-0.310,11.650,13.343,-10.016
09:47:41:728,4.498,-0.205,0.063,-0.328,13.580,15.804,-12.879
09:47:41:755,4.525,-0.295,0.064,-0.324,15.478,17.591,-16.038
09:47:41:755,4.525,-0.344,0.019,-0.321,16.697,18.455,-18.267
09:47:41:755,4.525,-0.374,-0.037,-0.302,18.462,19.414,-21.671
09:47:41:755,4.525,-0.395,-0.137,-0.297,19.611,19.884,-23.929
09:47:41:778,4.548,-0.399,-0.209,-0.262,21.269,20.457,-27.184
09:47:41:778,4.548,-0.418,-0.254,-0.242,22.809,20.947,-30.170
09:47:41:779,4.549,-0.438,-0.250,-0.226,23.749,21.275,-31.935
09:47:41:78,4.550,-0.478,-0.216,-0.205,24.969,21.877,-34.071
09:47:41:857,4.626,-0.498,-0.228,-0.192,25.636,22.318,-35.113
09:47:41:857,4.627,-0.491,-0.215,-0.165,25.259,23.271,-35.294
09:47:41:858,4.628,-0.469,-0.156,-0.102,24.436,24.294,-34.838
09:47:41:859,4.628,-0.453,-0.131,-0.074,24.290,24.923,-34.667
09:47:41:936,4.706,-0.426,-0.059,-0.029,23.853,26.092,-33.860
09:47:41:936,4.706,-0.435,0.031,0.015,23.468,26.981,-33.012
09:47:41:937,4.707,-0.376,0.000,0.073,22.795,28.251,-31.387
09:47:41:938,4.708,-0.438,0.031,0.068,22.035,28.888,-29.649
09:47:42:014,4.784,-0.442,0.073,0.026,21.275,28.791,-28.359
09:47:42:015,4.785,-0.256,-0.019,0.030,19.734,27.977,-26.162
09:47:42:016,4.785,-0.166,-0.056,0.021,18.593,27.144,-24.642
09:47:42:017,4.786,-0.124,-0.022,0.024,16.906,25.775,-22.355
09:47:42:032,4.802,-0.073,0.019,-0.015,15.431,24.886,-19.884
09:47:42:068,4.837,-0.043,-0.031,-0.032,14.620,24.663,-18.165
09:47:42:068,4.838,-0.031,-0.141,-0.058,13.544,24.692,-15.536
09:47:42:068,4.838,-0.003,-0.122,-0.065,12.834,24.830,-13.751
09:47:42:069,4.838,0.051,0.009,-0.098,11.821,25.154,-10.913
09:47:42:192,4.962,0.129,0.116,-0.122,10.940,25.717,-7.782
09:47:42:193,4.963,0.174,0.159,-0.129,10.488,26.371,-5.516
09:47:42:224,4.994,0.205,0.119,-0.095,9.955,27.756,-2.081
09:47:42:225,4.994,0.245,0.019,-0.079,9.637,28.618,0.056
09:47:42:226,4.995,0.309,0.021,-0.072,9.168,29.797,2.925
09:47:42:251,5.020,0.260,-0.054,-0.076,8.586,31.669,6.350
09:47:42:251,5.021,0.286,-0.050,-0.103,8.405,32.447,7.596
09:47:42:251,5.021,0.321,-0.005,-0.143,8.374,32.911,8.192
09:47:42:252,5.022,0.306,0.035,-0.172,8.478,33.659,8.750
09:47:42:355,5.125,0.279,0.038,-0.190,8.697,34.515,8.952
09:47:42:355,5.125,0.255,0.002,-0.217,8.879,35.090,8.894
09:47:42:356,5.126,0.248,-0.033,-0.263,9.147,35.916,8.543
09:47:42:357,5.127,0.291,0.073,-0.380,9.283,36.551,8.203
09:47:42:618,5.387,0.290,0.150,-0.451,9.464,38.005,7.714
09:47:42:619,5.388,0.237,0.126,-0.473,9.608,39.453,7.475
09:47:42:619,5.389,0.214,0.052,-0.476,9.803,42.274,7.244
09:47:42:62,5.390,0.143,-0.052,-0.501,9.926,45.789,6.986
09:47:42:644,5.414,0.089,-0.024,-0.522,9.931,48.561,6.665
09:47:42:645,5.415,-0.004,0.072,-0.503,9.881,53.263,5.797
09:47:42:646,5.416,-0.100,0.091,-0.455,9.915,56.605,4.903
09:47:42:646,5.416,-0.178,0.130,-0.423,10.196,61.627,3.146
09:47:42:698,5.468,-0.264,0.132,-0.338,10.810,66.523,0.990
09:47:42:698,5.468,-0.300,0.088,-0.260,11.412,69.639,-0.601
09:47:42:698,5.468,-0.350,0.039,-0.179,12.582,73.853,-3.266
09:47:42:699,5.469,-0.382,0.026,-0.135,13.521,76.184,-5.203
09:47:42:804,5.574,-0.402,0.034,-0.040,14.975,78.899,-8.494
09:47:42:804,5.574,-0.434,0.029,0.018,16.447,81.018,-12.011
09:47:42:804,5.574,-0.459,0.011,0.055,17.474,82.182,-14.394
09:47:42:805,5.574,-0.428,-0.059,0.137,19.045,83.610,-17.958
09:47:42:821,5.591,-0.411,-0.127,0.205,20.101,84.289,-20.335
09:47:42:822,5.592,-0.402,-0.155,0.233,21.564,84.787,-23.960
09:47:42:875,5.645,-0.439,-0.154,0.303,22.826,84.870,-27.550
09:47:42:875,5.645,-0.451,-0.114,0.342,23.524,84.834,-29.782
09:47:42:897,5.667,-0.390,-0.122,0.395,24.351,84.825,-32.635
09:47:42:98,5.750,-0.373,-0.142,0.406,24.694,84.827,-34.188
09:47:42:981,5.750,-0.342,-0.155,0.440,24.692,84.777,-35.926
09:47:43:091,5.861,-0.318,-0.083,0.492,23.992,84.752,-36.692
09:47:43:092,5.862,-0.236,-0.111,0.522,23.214,84.853,-36.479
09:47:43:092,5.862,-0.109,-0.091,0.434,21.684,85.029,-35.012
09:47:43:093,5.863,-0.069,-0.164,0.339,20.553,84.995,-33.501
09:47:43:108,5.878,-0.054,-0.160,0.321,18.846,84.429,-30.931
09:47:43:196,5.965,-0.079,-0.091,0.330,17.787,83.726,-29.143
09:47:43:196,5.966,-0.155,0.039,0.341,16.215,82.586,-26.319
09:47:43:197,5.967,-0.174,0.123,0.278,14.670,81.309,-23.331
09:47:43:198,5.967,-0.100,0.082,0.156,13.626,80.397,-21.217
09:47:43:215,5.985,-0.048,0.036,0.069,12.105,78.925,-17.950
09:47:43:216,5.986,-0.016,-0.016,-0.030,10.824,77.573,-14.520
09:47:43:268,6.038,0.000,0.012,-0.064,10.092,76.915,-12.088
09:47:43:269,6.039,0.028,0.050,-0.151,9.196,76.365,-8.212
09:47:43:321,6.090,0.060,0.077,-0.162,8.735,76.302,-5.477
09:47:43:321,6.091,0.096,0.029,-0.238,8.266,76.311,-1.376
09:47:43:511,6.281,0.143,-0.007,-0.321,8.067,76.177,1.262
09:47:43:512,6.282,0.166,-0.024,-0.375,7.889,75.747,4.972
09:47:43:513,6.283,0.188,-0.016,-0.423,7.811,75.349,8.179
09:47:43:514,6.283,0.187,0.017,-0.470,7.779,75.122,9.961
09:47:43:591,6.361,0.194,0.021,-0.499,7.735,74.764,12.063
09:47:43:591,6.361,0.195,0.038,-0.539,7.701,74.524,13.058
09:47:43:591,6.361,0.232,0.028,-0.562,7.653,73.983,13.970
09:47:43:612,6.382,0.222,0.007,-0.578,7.535,72.899,14.027
09:47:43:613,6.383,0.231,0.175,-0.668,7.348,72.556,13.336
09:47:43:614,6.384,0.232,0.157,-0.648,7.137,72.320,12.679
09:47:43:775,6.545,0.199,0.015,-0.577,6.785,73.513,11.380
09:47:43:775,6.545,0.113,-0.081,-0.474,6.424,75.354,9.570
09:47:43:775,6.545,0.038,-0.039,-0.405,6.202,77.348,8.043
09:47:43:775,6.545,-0.039,0.040,-0.325,6.045,80.323,5.269
09:47:43:796,6.566,-0.090,0.100,-0.256,6.087,82.626,3.143
09:47:43:796,6.566,-0.142,0.187,-0.202,6.452,86.222,-0.356
09:47:43:797,6.567,-0.196,0.261,-0.070,7.290,89.909,-3.978
09:47:43:846,6.616,-0.221,0.234,0.008,8.195,92.227,-6.475
09:47:43:846,6.616,-0.222,0.177,0.134,9.880,94.987,-10.283
09:47:43:869,6.639,-0.229,0.133,0.213,11.090,96.343,-12.876
09:47:43:895,6.665,-0.249,0.102,0.267,12.778,97.298,-16.872
09:47:43:95,6.720,-0.275,-0.005,0.302,14.341,97.374,-20.912
09:47:43:951,6.720,-0.232,-0.097,0.309,15.317,97.095,-23.603
09:47:44:003,6.773,-0.214,-0.174,0.305,16.669,96.424,-27.552
09:47:44:004,6.774,-0.201,-0.198,0.303,17.527,95.987,-30.045
09:47:44:026,6.796,-0.154,-0.241,0.301,18.836,95.598,-33.432
09:47:44:054,6.823,-0.143,-0.235,0.351,20.190,95.586,-36.294
09:47:44:079,6.849,-0.161,-0.220,0.407,21.053,95.783,-37.811
09:47:44:134,6.903,-0.145,-0.228,0.462,22.055,96.261,-39.325
09:47:44:135,6.904,-0.117,-0.222,0.459,22.365,96.565,-39.772
09:47:44:187,6.957,-0.104,-0.201,0.419,22.141,96.886,-39.529
09:47:44:187,6.957,-0.154,-0.121,0.465,21.303,97.194,-38.196
09:47:44:266,7.036,-0.163,-0.045,0.499,20.515,97.403,-36.681
09:47:44:294,7.064,-0.140,0.016,0.482,19.060,97.534,-33.606
09:47:44:295,7.065,-0.140,0.062,0.479,17.883,97.297,-31.248
09:47:44:296,7.066,-0.114,0.082,0.378,15.843,96.209,-27.543
09:47:44:534,7.304,-0.074,0.097,0.262,14.482,95.135,-25.042
09:47:44:535,7.305,-0.076,0.110,0.193,12.690,93.365,-21.296
09:47:44:536,7.306,-0.120,0.117,0.120,11.254,91.519,-17.601
09:47:44:537,7.307,-0.114,0.024,0.043,10.429,90.221,-15.161
09:47:44:56,7.330,-0.094,-0.012,-0.012,9.303,87.500,-11.596
09:47:44:561,7.331,-0.044,-0.020,-0.134,8.627,85.647,-9.258
09:47:44:562,7.332,-0.011,-0.004,-0.211,7.826,82.322,-5.729
09:47:44:562,7.332,0.020,0.030,-0.311,7.343,79.874,-2.091
09:47:44:585,7.355,0.051,0.055,-0.370,7.174,78.262,0.419
09:47:44:586,7.356,0.106,-0.001,-0.416,7.067,77.128,4.169
09:47:44:586,7.356,0.142,-0.075,-0.424,7.053,76.321,6.511
09:47:44:633,7.402,0.153,-0.118,-0.418,7.067,75.419,9.496
09:47:44:634,7.403,0.165,-0.080,-0.479,7.076,74.022,11.822
09:47:44:657,7.426,0.186,-0.032,-0.510,7.058,73.258,13.009
09:47:44:711,7.481,0.208,0.036,-0.573,7.012,71.830,14.259
09:47:44:712,7.482,0.240,0.053,-0.593,6.954,71.192,14.773
09:47:44:735,7.505,0.284,0.029,-0.583,6.859,70.164,15.098
09:47:44:761,7.531,0.274,-0.043,-0.522,6.755,69.068,14.788
09:47:44:819,7.588,0.261,0.026,-0.548,6.660,68.536,14.230
09:47:44:819,7.589,0.264,0.100,-0.558,6.443,67.868,13.030
09:47:44:929,7.699,0.232,0.070,-0.551,6.252,67.790,12.017
09:47:44:929,7.699,0.255,0.007,-0.518,5.880,68.393,10.279
09:47:44:929,7.699,0.190,-0.028,-0.466,5.432,70.261,8.219
09:47:44:93,7.700,0.121,0.051,-0.425,5.173,72.122,6.640
09:47:45:003,7.773,0.045,0.144,-0.334,4.974,75.549,3.945
09:47:45:004,7.773,0.002,0.165,-0.252,5.028,78.044,1.892
09:47:45:005,7.774,-0.079,0.249,-0.147,5.410,81.796,-1.495
09:47:45:026,7.796,-0.123,0.227,-0.063,6.234,85.503,-5.084
09:47:45:053,7.822,-0.168,0.220,0.014,7.095,87.898,-7.458
09:47:45:136,7.906,-0.217,0.162,0.111,8.807,90.902,-11.081
09:47:45:137,7.907,-0.246,0.106,0.229,10.045,92.340,-13.628
09:47:45:137,7.907,-0.243,0.024,0.293,11.888,93.635,-17.632
09:47:45:213,7.983,-0.253,-0.053,0.326,13.539,93.843,-21.760
09:47:45:214,7.984,-0.254,-0.117,0.300,14.487,93.514,-24.529
09:47:45:215,7.984,-0.223,-0.220,0.283,15.721,92.752,-28.596
09:47:45:263,8.032,-0.196,-0.279,0.265,16.450,92.281,-31.160
09:47:45:263,8.033,-0.189,-0.255,0.314,17.569,92.032,-34.533
09:47:45:506,8.276,-0.201,-0.267,0.368,18.380,92.145,-36.374
09:47:45:507,8.277,-0.194,-0.273,0.380,19.448,92.488,-38.353
09:47:45:508,8.278,-0.176,-0.224,0.401,19.371,93.150,-38.474
09:47:45:508,8.278,-0.148,-0.185,0.435,19.471,93.456,-38.474
09:47:45:534,8.304,-0.130,-0.153,0.424,19.058,93.820,-37.531
09:47:45:535,8.305,-0.105,-0.104,0.413,18.461,93.984,-36.352
09:47:45:535,8.305,-0.117,0.041,0.445,17.276,94.160,-33.850
09:47:45:535,8.305,-0.073,0.118,0.406,16.060,94.197,-30.519
09:47:45:557,8.327,-0.073,0.169,0.394,15.313,93.974,-28.020
09:47:45:558,8.328,-0.058,0.111,0.289,14.278,92.803,-24.194
09:47:45:559,8.329,-0.027,0.058,0.193,13.597,91.498,-21.712
09:47:45:602,8.371,-0.124,0.090,0.025,11.367,83.178,-13.499
09:47:45:627,8.397,-0.132,0.080,-0.061,10.815,79.590,-11.091
09:47:45:68,8.450,-0.130,0.109,-0.100,10.509,77.143,-9.590
09:47:45:709,8.479,-0.067,-0.023,-0.204,10.274,73.471,-7.410
09:47:45:709,8.479,-0.033,-0.033,-0.257,10.226,70.121,-5.194
09:47:45:79,8.560,-0.005,-0.040,-0.284,10.275,68.258,-3.637
09:47:45:791,8.560,0.014,-0.086,-0.319,10.427,66.061,-1.114
09:47:45:814,8.583,0.057,-0.112,-0.368,10.554,64.946,0.672
09:47:45:815,8.584,0.089,-0.119,-0.388,10.670,63.818,3.405
09:47:45:838,8.608,0.136,-0.070,-0.403,10.681,63.227,6.004
09:47:45:894,8.664,0.163,-0.053,-0.406,10.618,63.326,7.553
09:47:45:894,8.664,0.171,-0.033,-0.416,10.493,62.953,9.448
09:47:45:916,8.686,0.222,0.019,-0.471,10.381,62.720,10.408
09:47:45:942,8.712,0.288,0.016,-0.483,10.154,62.204,11.502
09:47:45:971,8.740,0.313,-0.014,-0.493,9.899,61.823,12.187
09:47:45:996,8.766,0.338,-0.056,-0.489,9.713,61.649,12.389
09:47:46:022,8.791,0.318,-0.065,-0.477,9.372,61.685,12.291
09:47:46:077,8.847,0.312,0.006,-0.509,9.094,61.860,11.960
09:47:46:077,8.847,0.265,0.094,-0.517,8.621,62.636,11.161
09:47:46:189,8.958,0.232,0.101,-0.500,8.313,63.419,10.419
09:47:46:189,8.958,0.206,0.125,-0.485,7.863,65.013,8.981
09:47:46:189,8.959,0.139,-0.018,-0.408,7.435,67.202,7.124
09:47:46:19,8.960,0.050,0.012,-0.383,7.179,69.034,5.644
09:47:46:234,9.004,0.001,0.090,-0.351,6.900,72.432,3.140
09:47:46:235,9.005,-0.079,0.164,-0.245,6.873,75.074,1.326
09:47:46:425,9.195,-0.130,0.160,-0.176,7.195,79.090,-1.589
09:47:46:426,9.196,-0.185,0.184,-0.091,7.900,82.872,-4.632
09:47:46:426,9.196,-0.216,0.185,-0.043,8.552,85.220,-6.655
09:47:46:427,9.197,-0.256,0.131,0.028,9.788,88.479,-9.636
09:47:46:504,9.274,-0.287,0.065,0.125,10.742,90.297,-11.650
09:47:46:504,9.274,-0.294,0.030,0.193,12.192,92.688,-14.761
09:47:46:505,9.274,-0.287,-0.011,0.244,13.601,94.365,-17.933
09:47:46:507,9.277,-0.286,-0.058,0.286,14.500,95.124,-20.068
09:47:46:689,9.458,-0.264,-0.144,0.303,15.699,95.622,-23.278
09:47:46:689,9.459,-0.212,-0.221,0.315,16.353,95.656,-25.396
09:47:46:689,9.459,-0.197,-0.261,0.281,17.193,95.427,-28.356
09:47:46:689,9.459,-0.192,-0.268,0.289,17.885,95.345,-30.822
09:47:46:713,9.482,-0.210,-0.237,0.280,18.293,95.227,-32.096
09:47:46:714,9.483,-0.196,-0.196,0.319,18.742,95.551,-33.398
09:47:46:714,9.484,-0.168,-0.137,0.399,18.911,95.598,-33.846
09:47:46:715,9.485,-0.146,-0.104,0.410,18.811,95.995,-33.859
09:47:46:794,9.564,-0.139,-0.010,0.431,18.228,96.200,-33.054
09:47:46:794,9.564,-0.146,0.040,0.438,17.637,96.251,-32.051
09:47:46:794,9.564,-0.169,0.169,0.461,16.520,95.953,-29.838
09:47:46:794,9.564,-0.133,0.233,0.418,15.626,95.570,-27.879
09:47:46:811,9.581,-0.066,0.121,0.247,14.164,94.533,-24.328
09:47:46:812,9.582,0.045,-0.160,0.045,12.708,92.950,-20.569
09:47:46:893,9.663,0.038,-0.204,-0.036,11.817,91.767,-18.170
09:47:46:894,9.663,-0.028,-0.047,-0.020,10.763,90.298,-14.681
09:47:46:895,9.664,-0.110,0.125,-0.040,10.267,89.762,-12.290
09:47:46:972,9.742,-0.115,0.226,-0.072,9.699,89.301,-8.497
09:47:46:973,9.743,-0.077,0.200,-0.152,9.342,88.769,-4.645
09:47:46:973,9.743,-0.037,0.156,-0.221,9.176,88.070,-2.159
09:47:46:992,9.762,0.027,0.027,-0.332,9.001,86.689,1.369
09:47:47:045,9.815,0.064,-0.042,-0.386,8.907,85.835,3.567
09:47:47:073,9.842,0.070,-0.088,-0.439,8.786,85.112,6.555
09:47:47:211,9.981,0.064,-0.097,-0.473,8.623,84.931,9.088
09:47:47:212,9.982,0.059,-0.118,-0.476,8.489,84.873,9.630
09:47:47:213,9.983,0.057,-0.097,-0.447,8.268,84.830,8.805
09:47:47:214,9.984,0.059,-0.092,-0.415,8.111,84.920,8.088
09:47:47:399,10.169,0.051,-0.112,-0.392,7.978,85.154,6.740
09:47:47:399,10.169,0.039,-0.115,-0.408,7.819,85.648,7.134
09:47:47:4,10.170,0.020,-0.073,-0.407,7.696,86.383,6.404
09:47:47:4,10.170,-0.027,0.067,-0.424,7.476,87.316,6.120
09:47:47:45,10.220,-0.053,0.190,-0.413,7.324,88.683,5.815
09:47:47:45,10.220,-0.067,0.198,-0.376,7.128,90.458,5.235
09:47:47:451,10.220,-0.111,0.156,-0.335,7.024,92.811,4.378
09:47:47:451,10.220,-0.110,0.183,-0.329,6.963,93.987,3.610
09:47:47:476,10.245,-0.175,0.202,-0.323,6.857,96.528,2.266
09:47:47:476,10.245,-0.212,0.232,-0.336,6.799,98.205,1.345
09:47:47:476,10.245,-0.252,0.075,-0.260,6.891,102.032,0.107
09:47:47:476,10.245,-0.278,0.061,-0.107,7.112,105.088,-0.648
09:47:47:551,10.321,-0.304,0.072,-0.066,7.646,110.072,-1.769
09:47:47:551,10.321,-0.337,0.106,-0.002,8.395,115.037,-2.939
09:47:47:551,10.321,-0.384,0.067,0.088,9.048,118.410,-3.701
09:47:47:633,10.402,-0.392,0.058,0.187,10.377,123.840,-4.688
09:47:47:633,10.403,-0.395,-0.001,0.281,11.506,127.587,-5.166
09:47:47:633,10.403,-0.365,-0.042,0.335,13.538,132.969,-5.620
09:47:47:634,10.404,-0.335,-0.150,0.383,15.724,137.420,-5.935
09:47:47:758,10.528,-0.396,-0.162,0.392,17.113,139.721,-6.216
09:47:47:759,10.529,-0.458,-0.117,0.448,18.959,142.367,-6.971
09:47:47:869,10.638,-0.418,-0.058,0.531,20.108,143.967,-7.719
09:47:47:869,10.639,-0.344,-0.043,0.574,21.745,146.350,-9.167
09:47:47:87,10.640,-0.247,-0.064,0.596,23.209,149.397,-11.098
09:47:47:871,10.640,-0.189,-0.060,0.617,24.052,150.829,-12.700
09:47:47:947,10.717,-0.098,-0.005,0.624,25.121,153.487,-15.564
09:47:47:947,10.717,-0.046,0.038,0.619,25.757,154.577,-17.819
09:47:47:948,10.718,0.082,0.052,0.640,26.673,156.853,-21.443
09:47:47:949,10.719,0.300,0.002,0.638,27.464,158.291,-25.109
09:47:47:97,10.740,0.322,-0.003,0.547,27.736,158.803,-27.445
09:47:47:97,10.740,0.407,0.025,0.510,27.522,158.982,-30.491
09:47:48:022,10.791,0.458,-0.038,0.463,26.913,158.892,-31.838
09:47:48:023,10.792,0.398,-0.159,0.270,25.627,158.917,-32.804
09:47:48:024,10.793,0.300,-0.357,0.017,24.096,159.291,-32.191
09:47:48:043,10.812,0.276,-0.404,-0.022,23.218,159.620,-31.495
09:47:48:071,10.840,0.280,-0.333,0.122,22.029,160.019,-30.358
09:47:48:124,10.894,0.299,-0.232,0.190,21.220,160.304,-29.437
09:47:48:124,10.894,0.339,-0.069,0.236,19.847,160.628,-27.584
09:47:48:176,10.946,0.249,0.010,0.156,18.187,160.473,-25.098
09:47:48:177,10.947,0.136,0.002,0.071,17.071,160.254,-23.133
09:47:48:254,11.023,0.086,0.014,0.009,15.569,160.181,-19.844
09:47:48:315,11.085,0.045,0.023,-0.032,14.725,160.337,-17.512
09:47:48:315,11.085,0.029,0.034,-0.029,13.692,160.624,-13.969
09:47:48:315,11.085,-0.027,0.016,0.003,12.784,160.542,-10.562
09:47:48:335,11.105,-0.092,0.019,-0.032,12.222,160.259,-8.367
09:47:48:336,11.106,-0.160,0.022,-0.091,11.555,159.822,-5.209
09:47:48:414,11.183,-0.190,0.038,-0.115,11.217,159.593,-3.216
09:47:48:415,11.185,-0.244,0.084,-0.136,10.856,159.259,-0.436
09:47:48:439,11.209,-0.295,0.077,-0.152,10.665,158.880,2.055
09:47:48:44,11.209,-0.315,0.072,-0.174,10.637,158.598,3.503
09:47:48:465,11.235,-0.353,0.125,-0.146,10.699,158.914,4.703
09:47:48:544,11.314,-0.428,0.177,-0.147,10.713,158.519,5.637
09:47:48:545,11.315,-0.453,0.176,-0.139,10.764,158.914,6.712
09:47:48:656,11.426,-0.436,0.157,-0.139,10.829,158.743,7.242
09:47:48:657,11.427,-0.444,0.150,-0.147,10.949,159.449,7.662
09:47:48:657,11.427,-0.478,0.082,-0.115,11.067,159.180,7.582
09:47:48:658,11.428,-0.491,0.084,-0.109,11.133,160.094,7.252
09:47:48:704,11.474,-0.432,0.006,-0.109,11.236,160.575,6.342
09:47:48:705,11.475,-0.375,-0.099,-0.053,11.299,162.262,5.476
09:47:48:706,11.476,-0.352,-0.081,-0.026,11.389,163.956,3.785
09:47:48:725,11.495,-0.320,-0.001,0.041,11.533,167.138,1.707
09:47:48:753,11.523,-0.287,0.068,0.048,11.673,168.940,0.189
09:47:49:023,11.793,-0.197,0.094,0.126,12.047,172.649,-2.161
09:47:49:024,11.793,-0.157,0.130,0.183,12.442,174.799,-3.732
09:47:49:024,11.794,-0.085,0.098,0.254,13.287,177.919,-6.133
09:47:49:025,11.795,-0.026,0.023,0.254,14.388,-179.350,-8.646
09:47:49:154,11.924,0.031,-0.010,0.265,15.205,-177.812,-10.422
09:47:49:34,12.109,0.250,-0.145,0.292,20.073,-172.478,-21.050
09:47:49:34,12.109,0.254,-0.187,0.274,20.955,-171.988,-22.978
09:47:49:341,12.110,0.299,-0.191,0.268,22.224,-171.333,-25.740
09:47:49:341,12.111,0.345,-0.139,0.267,23.029,-170.925,-27.422
09:47:49:417,12.187,0.454,-0.037,0.285,24.183,-170.288,-29.480
09:47:49:417,12.187,0.524,0.012,0.283,25.095,-169.703,-30.805
09:47:49:418,12.188,0.521,0.020,0.254,25.432,-169.449,-31.211
09:47:49:419,12.189,0.459,-0.008,0.151,25.455,-169.375,-31.200
09:47:49:495,12.265,0.481,0.001,0.156,25.201,-169.529,-30.874
09:47:49:496,12.266,0.468,-0.022,0.181,24.437,-170.142,-29.952
09:47:49:497,12.267,0.387,-0.036,0.155,23.255,-171.260,-28.490
09:47:49:498,12.268,0.259,-0.124,0.068,22.317,-172.227,-27.256
09:47:49:522,12.292,0.153,-0.199,-0.007,20.908,-173.742,-25.341
09:47:49:523,12.292,0.163,-0.079,0.070,20.052,-174.666,-24.048
09:47:49:524,12.293,0.197,0.000,0.112,18.934,-175.684,-21.916
09:47:49:524,12.294,0.169,-0.009,0.131,17.946,-176.573,-19.484
09:47:49:602,12.372,0.119,-0.055,0.090,17.287,-177.379,-17.758
09:47:49:603,12.373,0.042,-0.125,0.065,16.328,-179.094,-15.157
09:47:49:604,12.374,0.000,-0.128,0.081,15.703,179.471,-13.446
09:47:49:605,12.375,-0.089,-0.028,0.115,14.807,177.306,-10.741
09:47:49:671,12.441,-0.176,0.084,0.046,14.324,176.140,-8.747
09:47:49:731,12.501,-0.228,0.084,0.026,13.909,175.075,-5.456
09:47:49:732,12.501,-0.309,0.032,-0.024,13.714,174.510,-1.949
09:47:49:732,12.501,-0.373,0.003,-0.054,13.633,174.602,0.373
09:47:49:786,12.556,-0.389,-0.018,-0.073,13.518,175.041,3.614
09:47:49:786,12.556,-0.409,-0.015,-0.067,13.421,175.520,5.496
09:47:49:787,12.557,-0.446,0.012,-0.064,13.250,175.982,7.845
09:47:49:788,12.558,-0.477,0.030,-0.060,13.032,176.781,9.643
09:47:49:811,12.581,-0.507,0.018,-0.051,12.915,177.025,10.521
09:47:49:811,12.581,-0.521,0.004,-0.045,12.789,177.845,11.399
09:47:49:812,12.582,-0.491,0.001,-0.033,12.760,177.807,9.996
09:47:49:813,12.583,-0.499,0.077,0.024,12.753,178.167,9.050
09:47:49:889,12.658,-0.563,0.243,0.081,12.764,178.340,8.420
09:47:49:89,12.659,-0.558,0.262,0.109,12.765,179.060,7.838
09:47:49:89,12.660,-0.526,0.197,0.105,12.801,-179.491,6.760
09:47:49:891,12.661,-0.408,-0.036,0.118,12.851,-177.759,5.831
09:47:50:02,12.790,-0.324,-0.018,0.189,12.944,-174.663,4.095
09:47:50:021,12.791,-0.241,0.045,0.225,13.186,-170.606,1.962
09:47:50:022,12.792,-0.158,0.085,0.267,13.497,-167.734,0.335
09:47:50:023,12.793,-0.026,0.197,0.339,14.288,-163.465,-2.336
09:47:50:126,12.896,0.069,0.162,0.348,15.073,-160.800,-4.221
09:47:50:127,12.896,0.160,0.153,0.339,16.621,-157.267,-7.223
09:47:50:128,12.897,0.294,0.106,0.327,18.461,-154.552,-10.577
09:47:50:128,12.898,0.352,0.067,0.300,19.752,-153.306,-13.061
09:47:50:391,13.161,0.419,-0.021,0.275,21.679,-152.259,-17.153
09:47:50:391,13.161,0.436,-0.090,0.252,22.904,-152.068,-20.093
09:47:50:391,13.161,0.472,-0.154,0.230,24.594,-152.381,-24.724
09:47:50:391,13.161,0.480,-0.201,0.208,26.065,-153.063,-29.386
09:47:50:414,13.184,0.494,-0.226,0.185,26.988,-153.450,-32.346
09:47:50:415,13.185,0.532,-0.238,0.135,28.381,-153.699,-36.320
09:47:50:416,13.186,0.581,-0.235,0.101,29.312,-153.630,-38.551
09:47:50:416,13.186,0.579,-0.240,0.069,28.361,-152.482,-39.152
09:47:50:467,13.237,0.531,-0.221,0.031,25.870,-150.965,-37.833
09:47:50:468,13.238,0.472,-0.226,0.001,25.716,-150.677,-38.198
09:47:50:469,13.238,0.425,-0.156,-0.058,24.870,-150.164,-37.689
09:47:50:47,13.239,0.429,-0.082,-0.076,24.004,-149.777,-36.665
09:47:50:573,13.343,0.414,-0.055,-0.048,22.375,-149.265,-34.138
09:47:50:573,13.343,0.332,-0.070,-0.022,21.103,-149.131,-31.899
09:47:50:574,13.344,0.226,-0.069,-0.035,18.961,-149.260,-27.946
09:47:50:575,13.345,0.134,0.004,-0.040,16.846,-149.713,-23.654
09:47:50:595,13.365,0.077,0.119,-0.014,15.679,-149.575,-20.640
09:47:50:596,13.366,0.077,0.126,0.022,14.295,-148.837,-16.020
09:47:50:597,13.367,0.087,0.042,0.066,13.502,-148.104,-13.034
09:47:50:864,13.634,0.058,0.022,0.080,12.263,-147.503,-8.934
09:47:50:864,13.634,-0.042,0.071,0.092,10.920,-147.752,-5.265
09:47:50:864,13.634,-0.147,0.131,0.082,10.010,-148.268,-2.935
09:47:50:865,13.634,-0.255,0.175,0.115,8.890,-149.312,0.554
09:47:50:966,13.736,-0.450,0.084,0.175,8.326,-150.192,2.934
09:47:50:966,13.736,-0.589,-0.004,0.136,7.728,-151.094,6.673
09:47:50:967,13.737,-0.617,-0.099,0.097,7.284,-150.800,10.335
09:47:50:968,13.738,-0.603,-0.139,0.092,6.974,-149.990,12.543
09:47:50:991,13.761,-0.599,-0.116,0.136,6.442,-148.326,15.396
09:47:50:991,13.761,-0.600,-0.105,0.153,6.046,-147.077,16.962
09:47:50:991,13.761,-0.578,-0.100,0.239,5.573,-145.377,18.712
09:47:51:092,13.861,-0.596,-0.059,0.300,5.384,-143.942,19.751
09:47:51:092,13.862,-0.589,-0.056,0.323,5.389,-142.992,20.095
09:47:51:335,14.105,-0.549,-0.049,0.357,5.581,-141.553,20.107
09:47:51:335,14.105,-0.529,0.075,0.429,5.825,-140.676,19.774
09:47:51:335,14.105,-0.497,0.117,0.465,6.295,-139.481,18.831
09:47:51:335,14.105,-0.539,0.283,0.536,6.776,-138.200,17.436
09:47:51:361,14.131,-0.467,0.050,0.481,7.082,-136.907,16.339
09:47:51:361,14.131,-0.292,-0.130,0.468,7.531,-134.511,14.346
09:47:51:361,14.131,-0.224,-0.050,0.474,7.838,-132.360,12.751
09:47:51:362,14.132,-0.108,0.064,0.458,8.234,-128.751,10.088
09:47:51:434,14.203,0.021,0.136,0.456,8.804,-124.716,7.280
09:47:51:434,14.204,0.086,0.181,0.460,9.377,-121.961,5.427
09:47:51:464,14.234,0.217,0.226,0.403,10.641,-117.847,2.710
09:47:51:465,14.234,0.326,0.151,0.302,11.756,-115.357,0.852
09:47:51:466,14.235,0.384,0.112,0.221,13.636,-112.333,-2.230
09:47:51:467,14.236,0.446,0.061,0.131,15.543,-110.173,-5.794
09:47:51:569,14.339,0.493,0.024,0.084,16.752,-109.155,-8.461
09:47:51:57,14.340,0.536,-0.009,0.011,18.397,-108.211,-12.852
09:47:51:571,14.341,0.524,-0.037,-0.046,19.353,-107.908,-15.992
09:47:51:572,14.342,0.501,-0.070,-0.101,20.562,-107.614,-20.810
09:47:51:649,14.418,0.506,-0.102,-0.172,21.560,-107.206,-25.539
09:47:51:65,14.419,0.476,-0.110,-0.221,22.142,-106.772,-28.525
09:47:51:65,14.420,0.441,-0.120,-0.342,22.979,-105.775,-32.638
09:47:51:651,14.421,0.429,-0.161,-0.419,23.525,-105.034,-35.111
09:47:51:718,14.488,0.416,-0.192,-0.473,24.057,-104.050,-38.178
09:47:52:414,15.184,0.321,-0.171,-0.506,23.960,-103.138,-40.227
09:47:52:414,15.184,0.309,-0.136,-0.584,23.490,-102.550,-40.949
09:47:52:415,15.184,0.257,-0.104,-0.648,21.889,-101.930,-40.834
09:47:52:415,15.184,0.033,-0.303,-0.407,20.191,-101.768,-39.797
09:47:52:621,15.391,-0.069,-0.324,-0.281,17.044,-101.973,-37.253
09:47:52:621,15.391,-0.092,-0.235,-0.232,13.891,-102.456,-34.202
09:47:52:621,15.391,-0.036,-0.099,-0.302,12.224,-102.576,-32.006
09:47:52:622,15.392,0.112,0.086,-0.402,10.389,-102.255,-28.340
09:47:52:698,15.468,0.120,0.143,-0.405,9.352,-101.877,-25.556
09:47:52:699,15.469,0.069,0.104,-0.260,7.663,-101.881,-20.935
09:47:52:699,15.469,-0.059,0.167,-0.104,5.763,-103.042,-15.948
09:47:52:803,15.573,-0.397,0.184,0.167,3.155,-105.804,-7.395
09:47:52:804,15.574,-0.254,0.135,0.174,2.746,-106.951,-4.081
09:47:52:804,15.574,-0.259,0.084,0.271,2.373,-108.697,0.664
09:47:52:829,15.599,-0.341,-0.012,0.391,2.362,-110.957,8.177
09:47:52:83,15.600,-0.325,-0.044,0.441,2.527,-111.740,12.041
09:47:52:831,15.601,-0.344,-0.006,0.534,2.644,-112.136,14.286
09:47:52:831,15.601,-0.380,0.041,0.593,2.778,-112.343,17.175
09:47:52:908,15.678,-0.404,0.056,0.650,2.820,-112.166,19.419
09:47:52:909,15.679,-0.413,0.023,0.655,2.823,-111.964,20.512
09:47:52:91,15.679,0.169,0.224,-0.078,5.448,-86.178,-7.362
09:47:52:911,15.680,0.183,0.156,-0.138,6.606,-85.300,-10.275
09:47:52:934,15.704,0.205,0.079,-0.214,8.151,-84.463,-14.821
09:47:52:935,15.705,0.225,-0.005,-0.271,9.528,-84.002,-19.418
09:47:52:936,15.705,0.144,-0.187,-0.438,14.571,-82.476,-36.274
09:47:52:937,15.706,0.139,-0.177,-0.481,15.237,-82.095,-37.834
09:47:53:014,15.784,0.124,-0.137,-0.549,15.916,-81.488,-39.307
09:47:53:014,15.784,0.054,-0.145,-0.497,16.028,-81.104,-39.642
09:47:53:015,15.785,-0.009,-0.113,-0.494,15.603,-80.587,-39.280
09:47:53:016,15.786,-0.034,-0.061,-0.483,14.558,-80.186,-37.943
09:47:53:266,16.036,-0.076,-0.006,-0.451,13.651,-80.004,-36.519
09:47:53:303,16.072,-0.095,0.006,-0.415,12.226,-80.055,-33.756
09:47:53:303,16.073,-0.108,-0.075,-0.332,11.194,-80.541,-31.634
09:47:53:304,16.074,-0.107,-0.162,-0.200,9.555,-81.859,-28.298
09:47:53:305,16.075,-0.092,-0.032,-0.220,7.976,-83.494,-24.893
09:47:53:401,16.171,-0.062,0.058,-0.203,7.054,-84.612,-22.502
09:47:53:402,16.172,-0.051,0.183,-0.149,5.905,-86.357,-18.710
09:47:53:487,16.256,-0.044,0.122,-0.047,5.288,-87.691,-16.143
09:47:53:487,16.256,-0.056,0.059,0.016,4.544,-89.984,-12.267
09:47:53:487,16.257,-0.078,-0.057,0.107,3.982,-92.590,-8.490
09:47:53:49,16.260,-0.084,-0.035,0.176,3.717,-94.380,-6.043
09:47:53:588,16.358,-0.088,0.009,0.251,3.458,-96.816,-2.433
09:47:53:589,16.359,-0.102,0.023,0.310,3.375,-98.154,-0.057
09:47:53:59,16.360,-0.130,0.024,0.387,3.353,-99.631,3.483
09:47:53:671,16.440,-0.155,0.014,0.418,3.385,-100.707,5.771
09:47:53:671,16.440,-0.185,-0.043,0.454,3.445,-101.598,8.946
09:47:53:671,16.440,-0.199,-0.039,0.450,3.789,-102.947,9.822
09:47:53:672,16.441,-0.231,0.000,0.479,4.015,-103.651,9.693
09:47:53:803,16.573,-0.272,-0.005,0.509,3.790,-104.861,11.480
09:47:53:803,16.573,-0.320,-0.011,0.555,3.560,-105.098,12.394
09:47:53:803,16.573,-0.343,-0.040,0.558,3.118,-105.649,13.335
09:47:53:803,16.573,-0.343,-0.031,0.548,2.896,-105.217,12.772
09:47:53:882,16.651,-0.341,0.078,0.561,2.856,-105.106,11.830
09:47:53:882,16.651,-0.304,0.182,0.579,2.519,-103.982,11.358
09:47:53:882,16.651,-0.307,0.332,0.594,2.382,-103.512,10.717
09:47:53:882,16.652,-0.260,0.030,0.452,2.369,-101.617,9.124
09:47:53:906,16.675,-0.121,-0.181,0.327,2.488,-99.837,6.595
09:47:53:906,16.676,-0.088,-0.118,0.289,2.623,-98.313,4.432
09:47:53:907,16.677,-0.015,0.090,0.226,3.000,-96.014,0.693
09:47:53:908,16.678,0.023,0.216,0.176,3.414,-94.246,-1.986
09:47:54:011,16.781,0.095,0.433,0.046,4.376,-91.536,-6.044
09:47:54:011,16.781,0.091,0.339,-0.039,5.342,-89.777,-8.736
09:47:54:012,16.782,0.133,0.254,-0.126,7.229,-87.632,-12.733
09:47:54:013,16.783,0.170,0.121,-0.226,9.245,-85.997,-16.715
09:47:54:09,16.859,0.197,0.045,-0.297,10.487,-85.264,-19.424
09:47:54:091,16.860,0.197,-0.040,-0.342,12.178,-84.555,-23.595
09:47:54:091,16.861,0.203,-0.139,-0.380,13.681,-84.271,-27.860
09:47:54:093,16.862,0.173,-0.185,-0.390,14.592,-84.290,-30.715
09:47:54:378,17.148,0.156,-0.254,-0.368,15.809,-84.509,-34.858
09:47:54:379,17.149,0.143,-0.249,-0.385,17.013,-84.567,-38.525
09:47:54:379,17.149,0.127,-0.268,-0.398,17.911,-84.360,-40.552
09:47:54:38,17.150,0.067,-0.271,-0.396,19.393,-83.723,-42.887
09:47:54:457,17.226,0.059,-0.254,-0.479,20.875,-82.756,-44.282
09:47:54:458,17.227,0.056,-0.240,-0.523,21.600,-82.060,-44.636
09:47:54:459,17.228,0.027,-0.200,-0.550,21.927,-81.168,-44.250
09:47:54:459,17.229,-0.011,-0.161,-0.497,21.589,-80.737,-43.436
09:47:54:561,17.331,-0.005,-0.091,-0.544,20.556,-80.233,-41.491
09:47:54:562,17.332,0.033,-0.038,-0.559,19.070,-80.030,-38.711
09:47:54:563,17.333,0.012,-0.003,-0.480,17.893,-80.205,-36.424
09:47:54:564,17.334,0.006,0.098,-0.402,16.034,-81.583,-32.452
09:47:54:588,17.358,-0.012,0.049,-0.307,14.885,-82.271,-29.520
09:47:54:589,17.359,-0.008,-0.003,-0.197,13.291,-84.453,-25.059
09:47:54:59,17.359,0.036,0.080,-0.165,11.919,-87.005,-20.775
09:47:54:591,17.360,0.076,0.127,-0.138,11.169,-88.495,-18.057
09:47:54:638,17.408,0.109,0.187,-0.080,10.224,-91.175,-14.161
09:47:54:639,17.408,0.096,0.147,0.037,9.668,-92.949,-11.714
09:47:54:64,17.409,0.045,0.067,0.119,8.943,-96.023,-8.385
09:47:54:667,17.436,0.009,-0.015,0.198,8.368,-98.850,-5.460
09:47:54:667,17.437,-0.009,-0.036,0.232,7.997,-101.056,-3.692
09:47:54:668,17.438,-0.041,-0.004,0.303,7.441,-103.045,-1.218
09:47:54:669,17.439,-0.142,-0.065,0.355,5.891,-105.693,3.697
09:47:54:771,17.541,-0.169,-0.090,0.359,5.449,-105.622,5.047
09:47:54:773,17.542,-0.229,-0.101,0.361,4.748,-105.825,6.737
09:47:54:773,17.543,-0.266,-0.037,0.387,4.269,-105.672,7.595
09:47:54:774,17.544,-0.288,-0.006,0.402,3.554,-105.761,8.492
09:47:54:851,17.620,-0.303,0.034,0.400,2.903,-105.301,8.927
09:47:54:851,17.621,-0.303,0.026,0.375,2.518,-105.055,8.920
09:47:54:852,17.622,-0.288,0.029,0.339,2.038,-104.476,8.470
09:47:54:853,17.622,-0.273,0.132,0.350,1.785,-104.328,7.909
09:47:54:983,17.752,-0.256,0.182,0.352,1.541,-103.743,6.752
09:47:54:983,17.752,-0.263,0.412,0.432,1.459,-103.232,5.823
09:47:54:983,17.753,-0.233,0.294,0.379,1.514,-101.756,4.294
09:47:54:984,17.754,-0.092,-0.118,0.248,1.784,-99.691,2.426
09:47:55:22,17.989,-0.048,-0.168,0.205,2.001,-98.081,0.907
09:47:55:22,17.989,-0.003,-0.090,0.171,2.344,-95.340,-1.719
09:47:55:22,17.990,0.049,0.074,0.094,2.688,-93.248,-3.645
09:47:55:22,17.990,0.101,0.179,0.043,3.483,-89.792,-6.637
09:47:55:246,18.016,0.153,0.284,-0.048,4.727,-86.226,-9.500
09:47:55:246,18.016,0.189,0.287,-0.099,5.881,-83.836,-11.191
09:47:55:246,18.016,0.202,0.167,-0.184,7.907,-80.603,-13.442
09:47:55:246,18.016,0.229,0.039,-0.256,9.251,-78.951,-14.918
09:47:55:323,18.093,0.226,-0.031,-0.281,11.120,-77.233,-17.241
09:47:55:324,18.094,0.249,-0.056,-0.322,12.864,-76.169,-19.772
09:47:55:325,18.095,0.254,-0.063,-0.349,13.966,-75.760,-21.582
09:47:55:325,18.095,0.246,-0.110,-0.379,15.320,-75.432,-24.271
09:47:55:349,18.119,0.226,-0.150,-0.405,16.242,-75.426,-26.204
09:47:55:35,18.120,0.228,-0.184,-0.429,17.374,-75.696,-29.086
09:47:55:351,18.121,0.204,-0.171,-0.437,18.209,-76.110,-31.756
09:47:55:352,18.121,0.199,-0.167,-0.452,18.652,-76.309,-33.302
09:47:55:401,18.170,0.164,-0.152,-0.478,19.142,-76.419,-35.152
09:47:55:401,18.171,0.115,-0.154,-0.494,19.318,-76.339,-36.029
09:47:55:402,18.171,0.077,-0.152,-0.505,19.312,-76.097,-36.833
09:47:55:559,18.329,0.047,-0.108,-0.505,18.857,-75.858,-36.950
09:47:55:56,18.330,0.030,-0.057,-0.529,18.314,-75.753,-36.589
09:47:55:561,18.331,0.038,0.079,-0.587,17.164,-75.727,-35.213
09:47:55:562,18.331,0.017,0.058,-0.384,16.108,-75.996,-33.605
09:47:55:638,18.408,-0.050,-0.073,-0.169,14.264,-76.863,-30.272
09:47:55:639,18.409,-0.146,-0.241,0.028,12.472,-77.882,-26.647
09:47:55:64,18.410,-0.144,-0.179,0.012,11.469,-78.307,-24.293
09:47:55:64,18.410,-0.052,-0.055,-0.052,10.488,-78.242,-20.917
09:47:55:717,18.486,0.025,0.092,-0.148,10.103,-77.659,-18.673
09:47:55:718,18.487,0.061,0.198,-0.146,9.595,-76.690,-15.274
09:47:55:718,18.488,0.004,0.106,-0.035,9.014,-76.461,-12.074
09:47:55:719,18.489,-0.017,0.033,0.033,8.559,-76.808,-10.132
09:47:55:743,18.513,-0.070,-0.025,0.133,7.775,-78.061,-7.552
09:47:55:744,18.513,-0.091,-0.016,0.158,7.273,-78.667,-6.076
09:47:55:745,18.514,-0.098,-0.024,0.188,6.582,-79.837,-4.141
09:47:55:745,18.515,-0.077,-0.021,0.261,6.398,-80.326,-3.298
09:47:55:824,18.594,-0.068,-0.016,0.286,5.662,-80.650,0.262
09:47:55:825,18.595,-0.086,-0.047,0.286,5.798,-80.310,0.850
09:47:55:825,18.595,-0.094,-0.088,0.298,5.767,-79.458,2.315
09:47:55:847,18.617,-0.066,-0.068,0.314,5.817,-78.795,3.143
09:47:55:848,18.618,-0.009,-0.013,0.318,6.165,-77.822,3.538
09:47:55:849,18.619,0.050,0.099,0.322,6.400,-76.889,4.132
09:47:55:85,18.620,0.071,0.141,0.317,6.575,-76.073,4.351
09:47:55:952,18.722,0.086,0.162,0.319,6.840,-75.286,4.409
09:47:55:953,18.723,0.100,0.092,0.300,7.014,-74.384,4.275
09:47:55:954,18.723,0.125,0.077,0.295,7.255,-73.378,3.795
09:47:55:955,18.724,0.178,0.190,0.320,7.453,-71.913,3.046
09:47:56:138,18.908,0.225,0.179,0.300,7.587,-71.176,2.503
09:47:56:139,18.909,0.271,0.179,0.302,7.879,-68.948,1.740
09:47:56:14,18.909,0.267,-0.002,0.268,8.141,-67.546,1.289
09:47:56:141,18.910,0.286,-0.101,0.201,8.660,-64.145,0.531
09:47:56:19,18.960,0.360,-0.007,0.099,9.252,-60.222,-0.380
09:47:56:191,18.961,0.374,0.056,0.067,9.737,-57.250,-1.020
09:47:56:192,18.962,0.371,0.151,-0.009,10.713,-52.592,-2.093
09:47:56:192,18.962,0.367,0.200,-0.091,11.519,-49.442,-2.971
09:47:56:322,19.091,0.356,0.220,-0.235,12.931,-44.803,-4.613
09:47:56:325,19.095,0.267,0.155,-0.346,14.589,-40.384,-6.616
09:47:56:325,19.095,0.234,0.062,-0.377,15.834,-37.830,-8.161
09:47:56:326,19.095,0.186,0.005,-0.414,17.703,-35.034,-11.015
09:47:56:375,19.145,0.150,-0.020,-0.470,18.920,-33.658,-13.214
09:47:56:375,19.145,0.092,-0.031,-0.518,20.641,-32.164,-16.968
09:47:56:375,19.145,0.011,-0.055,-0.566,22.259,-31.068,-21.075
09:47:56:376,19.146,-0.035,-0.078,-0.571,23.264,-30.524,-23.920
09:47:56:392,19.162,-0.109,-0.109,-0.562,24.681,-29.851,-28.203
09:47:56:475,19.244,-0.173,-0.110,-0.557,25.566,-29.437,-30.987
09:47:56:475,19.245,-0.226,-0.126,-0.567,26.850,-28.707,-34.885
09:47:56:498,19.267,-0.324,-0.132,-0.601,28.129,-27.809,-38.245
09:47:56:499,19.268,-0.365,-0.159,-0.575,28.834,-27.222,-40.093
09:47:56:521,19.291,-0.384,-0.231,-0.485,29.459,-26.410,-42.128
09:47:56:576,19.346,-0.407,-0.239,-0.427,29.461,-25.943,-42.960
09:47:56:577,19.347,-0.427,-0.216,-0.399,28.689,-25.408,-43.328
09:47:56:687,19.457,-0.434,-0.157,-0.359,26.915,-25.114,-42.492
09:47:56:688,19.458,-0.331,-0.227,-0.192,25.363,-25.068,-41.317
09:47:56:689,19.459,-0.222,-0.376,-0.020,22.852,-25.254,-39.168
09:47:56:69,19.460,-0.209,-0.329,-0.068,21.187,-25.495,-37.658
09:47:56:707,19.476,-0.251,-0.207,-0.162,18.935,-25.632,-35.127
09:47:56:789,19.559,-0.310,0.016,-0.302,16.977,-25.325,-31.931
09:47:56:79,19.560,-0.308,0.131,-0.298,15.720,-25.151,-29.401
09:47:56:791,19.561,-0.232,0.186,-0.176,13.839,-25.397,-25.182
09:47:56:81,19.580,-0.167,0.149,-0.069,12.625,-25.959,-22.311
09:47:56:867,19.637,-0.082,0.038,0.022,10.982,-27.332,-18.116
09:47:56:867,19.637,-0.044,0.019,0.058,9.636,-28.512,-14.091
09:47:57:082,19.852,-0.003,0.057,0.053,8.901,-29.363,-11.514
09:47:57:083,19.853,0.111,0.104,0.143,8.009,-30.735,-7.753
09:47:57:084,19.854,0.176,0.090,0.224,7.581,-31.529,-5.312
09:47:57:085,19.855,0.172,0.044,0.261,7.206,-32.486,-1.873
09:47:57:291,20.061,0.226,0.031,0.267,7.065,-33.456,1.199
09:47:57:292,20.062,0.261,0.045,0.289,7.133,-34.125,2.777
09:47:57:293,20.063,0.314,0.085,0.308,7.223,-34.960,5.196
09:47:57:294,20.064,0.345,0.083,0.323,7.306,-35.432,6.529
09:47:57:397,20.166,0.404,0.128,0.344,7.402,-35.876,8.101
09:47:57:398,20.167,0.435,0.176,0.375,7.460,-35.766,9.210
09:47:57:399,20.168,0.442,0.158,0.333,7.483,-35.472,9.671
09:47:57:399,20.169,0.460,0.170,0.312,7.493,-34.952,9.877
09:47:57:555,20.324,0.446,0.110,0.284,7.436,-34.560,9.650
09:47:57:555,20.325,0.462,0.127,0.277,7.249,-33.676,8.780
09:47:57:557,20.326,0.415,-0.110,0.215,6.965,-31.911,7.417
09:47:57:557,20.327,0.393,-0.203,0.153,6.767,-30.194,6.272
09:47:57:607,20.377,0.336,-0.180,0.074,6.575,-26.918,4.252
09:47:57:608,20.377,0.300,0.002,-0.012,6.583,-24.416,2.713
09:47:57:608,20.378,0.267,0.093,-0.049,6.940,-20.506,0.244
09:47:57:609,20.378,0.215,0.294,-0.150,7.746,-16.589,-2.299
09:47:57:661,20.431,0.133,0.358,-0.221,8.517,-14.022,-4.032
09:47:57:661,20.431,0.038,0.314,-0.309,9.978,-10.451,-6.709
09:47:57:661,20.431,-0.052,0.177,-0.290,11.199,-8.306,-8.564
09:47:57:662,20.432,-0.047,0.084,-0.326,13.083,-6.135,-11.623
09:47:57:686,20.456,-0.185,0.006,-0.337,14.757,-4.813,-15.431
09:47:57:687,20.457,-0.220,-0.038,-0.358,15.808,-4.230,-18.190
09:47:57:688,20.458,-0.265,-0.097,-0.362,17.296,-3.692,-22.513
09:47:57:688,20.458,-0.295,-0.148,-0.348,18.226,-3.557,-25.459
09:47:57:764,20.534,-0.310,-0.188,-0.325,19.517,-3.589,-29.771
09:47:57:765,20.535,-0.330,-0.231,-0.311,20.334,-3.620,-32.444
09:47:57:766,20.536,-0.346,-0.254,-0.289,21.551,-3.519,-35.976
09:47:57:767,20.536,-0.394,-0.254,-0.283,22.720,-3.185,-38.732
09:47:57:79,20.560,-0.443,-0.230,-0.292,23.419,-2.884,-40.054
09:47:57:791,20.560,-0.476,-0.207,-0.276,24.114,-2.376,-41.129
09:47:57:791,20.561,-0.476,-0.214,-0.230,24.244,-2.038,-41.251
09:47:57:792,20.562,-0.479,-0.185,-0.194,23.824,-1.619,-40.621
09:47:58:054,20.824,-0.508,-0.082,-0.183,22.740,-1.318,-39.042
09:47:58:054,20.824,-0.492,-0.032,-0.193,21.724,-1.257,-37.485
09:47:58:055,20.825,-0.468,0.064,-0.185,19.923,-1.484,-34.462
09:47:58:056,20.826,-0.289,0.001,-0.075,18.651,-1.906,-32.060
09:47:58:159,20.928,-0.205,-0.089,-0.027,16.913,-2.848,-28.227
09:47:58:159,20.929,-0.141,-0.116,-0.046,15.402,-4.165,-24.626
09:47:58:16,20.930,-0.170,0.008,-0.099,14.517,-5.016,-22.348
09:47:58:263,21.033,-0.087,0.197,-0.148,12.775,-6.739,-16.758
09:47:58:263,21.033,-0.016,0.127,-0.086,11.913,-7.967,-13.538
09:47:58:264,21.034,0.067,0.002,-0.032,11.087,-9.645,-10.605
09:47:58:265,21.035,0.111,-0.007,-0.010,10.557,-10.965,-8.826
09:47:58:447,21.217,0.175,-0.003,0.014,9.824,-12.917,-6.352
09:47:58:447,21.217,0.200,0.017,0.032,9.402,-14.084,-4.828
09:47:58:448,21.218,0.256,-0.014,0.039,8.874,-15.621,-2.941
09:47:58:449,21.219,0.297,-0.030,0.097,8.457,-16.639,-0.911
09:47:58:631,21.401,0.290,-0.045,0.113,8.222,-17.074,0.354
09:47:58:632,21.402,0.299,-0.053,0.143,7.916,-17.485,2.041
09:47:58:633,21.403,0.310,-0.018,0.154,7.807,-17.781,2.397
09:47:58:634,21.404,0.321,-0.003,0.161,7.574,-18.105,3.508
09:47:58:648,21.418,0.346,0.019,0.163,7.373,-18.377,4.244
09:47:58:737,21.506,0.373,0.069,0.180,7.254,-18.266,4.584
09:47:58:737,21.506,0.370,0.082,0.175,7.130,-17.990,4.879
09:47:58:737,21.507,0.352,0.068,0.160,7.102,-17.604,4.894
09:47:58:739,21.508,0.347,0.093,0.129,7.107,-17.227,4.606
09:47:58:807,21.577,0.370,0.149,0.129,7.146,-17.008,4.210
09:47:58:842,21.612,0.368,0.118,0.085,7.233,-16.568,3.353
09:47:58:843,21.613,0.387,0.175,0.069,7.310,-15.723,2.228
09:47:58:843,21.613,0.332,-0.015,0.050,7.386,-14.674,1.373
09:47:58:844,21.614,0.303,-0.065,-0.016,7.577,-12.433,-0.083
09:47:58:867,21.637,0.248,0.004,-0.076,7.748,-10.489,-1.169
09:47:58:868,21.638,0.200,0.071,-0.123,8.196,-7.126,-2.954
09:47:58:868,21.638,0.128,0.147,-0.169,8.871,-3.529,-4.884
09:47:58:869,21.639,0.092,0.183,-0.202,9.477,-1.042,-6.186
09:47:59:051,21.821,0.031,0.237,-0.261,10.672,2.866,-8.028
09:47:59:052,21.822,-0.044,0.166,-0.296,11.681,5.561,-9.177
09:47:59:053,21.823,-0.112,0.089,-0.306,13.434,9.406,-10.848
09:47:59:054,21.824,-0.201,-0.036,-0.295,15.277,12.507,-12.772
09:47:59:106,21.875,-0.237,-0.091,-0.283,16.439,13.995,-14.323
09:47:59:106,21.876,-0.286,-0.126,-0.312,18.012,15.392,-17.073
09:47:59:106,21.876,-0.317,-0.130,-0.313,18.945,15.880,-19.149
09:47:59:106,21.876,-0.351,-0.149,-0.306,20.175,16.202,-22.449
09:47:59:208,21.978,-0.369,-0.176,-0.271,21.224,16.338,-25.695
09:47:59:209,21.979,-0.383,-0.193,-0.270,21.829,16.441,-27.677
09:47:59:209,21.979,-0.369,-0.209,-0.230,22.555,16.718,-30.231
09:47:59:21,21.980,-0.410,-0.173,-0.200,22.936,17.067,-31.579
09:47:59:236,22.006,-0.437,-0.139,-0.171,23.331,17.835,-32.990
09:47:59:236,22.006,-0.482,-0.077,-0.128,23.491,18.766,-33.635
09:47:59:236,22.006,-0.472,-0.065,-0.085,23.412,19.412,-33.646
09:47:59:236,22.006,-0.461,-0.048,-0.042,22.991,20.259,-33.135
09:47:59:419,22.189,-0.457,-0.020,-0.017,22.474,20.645,-32.506
09:47:59:419,22.189,-0.430,0.066,-0.014,21.314,20.861,-31.094
09:47:59:419,22.189,-0.354,0.105,0.010,19.896,20.745,-29.008
09:47:59:42,22.190,-0.176,-0.071,0.055,18.942,20.449,-27.326
09:47:59:445,22.215,-0.039,-0.293,0.057,17.490,19.744,-24.845
09:47:59:446,22.215,-0.100,-0.163,-0.006,16.523,19.218,-23.363
09:47:59:447,22.216,-0.149,-0.013,-0.041,15.195,18.815,-21.163
09:47:59:448,22.217,-0.172,0.162,-0.089,14.156,18.997,-18.650
09:47:59:497,22.267,-0.130,0.166,-0.082,13.595,19.119,-16.818
09:47:59:498,22.267,-0.053,0.047,-0.034,12.815,18.832,-14.067
09:47:59:498,22.268,0.030,-0.048,-0.021,12.260,18.277,-12.332
09:47:59:499,22.269,0.092,-0.046,-0.025,11.388,17.126,-9.908
09:47:59:602,22.372,0.165,0.015,-0.053,10.826,16.649,-8.376
09:47:59:602,22.372,0.204,0.059,-0.058,10.097,15.930,-6.112
09:47:59:603,22.373,0.256,0.044,-0.055,9.564,16.271,-3.817
09:47:59:604,22.374,0.286,0.014,-0.035,9.298,16.544,-2.285
09:47:59:681,22.450,0.278,-0.044,-0.026,9.069,17.078,-0.643
09:47:59:682,22.451,0.300,-0.060,-0.021,8.902,17.492,0.592
09:47:59:682,22.452,0.326,-0.069,-0.036,8.688,18.120,2.119
09:47:59:683,22.452,0.326,-0.031,-0.062,8.651,18.710,2.619
09:47:59:707,22.476,0.324,0.016,-0.105,8.611,19.224,3.126
09:47:59:708,22.477,0.330,0.089,-0.140,8.622,20.092,3.626
09:47:59:708,22.478,0.315,0.176,-0.173,8.671,20.750,3.821
09:47:59:709,22.479,0.297,0.166,-0.178,8.802,21.764,3.921
09:47:59:724,22.494,0.266,0.112,-0.204,8.952,22.638,3.694
09:47:59:81,22.580,0.265,0.146,-0.212,8.984,23.134,3.335
09:47:59:81,22.580,0.262,0.075,-0.259,8.963,24.053,2.679
09:47:59:811,22.580,0.293,0.116,-0.301,8.933,24.985,2.289
09:47:59:83,22.600,0.293,0.033,-0.294,8.923,27.262,1.907
09:48:00:023,22.792,0.173,-0.143,-0.328,9.028,30.623,1.596
09:48:00:023,22.793,0.104,-0.103,-0.360,9.100,33.239,1.341
09:48:00:024,22.794,0.019,0.001,-0.358,9.337,37.500,0.853
09:48:00:025,22.794,-0.052,0.069,-0.393,9.646,40.282,0.363
09:48:00:07,22.839,-0.101,0.110,-0.389,10.256,44.254,-0.679
09:48:00:071,22.840,-0.189,0.147,-0.353,10.972,48.418,-2.050
09:48:00:101,22.871,-0.240,0.146,-0.321,11.494,51.337,-3.108
09:48:00:101,22.871,-0.288,0.086,-0.266,12.439,55.811,-4.813
09:48:00:102,22.872,-0.344,0.005,-0.191,13.235,58.602,-6.043
09:48:00:103,22.873,-0.383,-0.040,-0.139,14.493,62.004,-8.234
09:48:00:175,22.945,-0.417,-0.054,-0.115,15.713,64.232,-10.848
09:48:00:176,22.946,-0.431,-0.044,-0.077,16.475,65.240,-12.781
09:48:00:177,22.947,-0.451,-0.069,-0.023,17.589,66.255,-15.881
09:48:00:196,22.966,-0.442,-0.094,0.013,18.272,66.716,-18.017
09:48:00:282,23.052,-0.448,-0.121,0.032,19.162,67.158,-21.263
09:48:00:282,23.052,-0.453,-0.105,0.072,19.664,67.422,-23.373
09:48:00:282,23.052,-0.455,-0.089,0.127,20.349,68.105,-26.286
09:48:00:332,23.102,-0.413,-0.062,0.217,21.019,69.191,-28.712
09:48:00:359,23.129,-0.415,-0.087,0.262,21.451,69.992,-30.045
09:48:00:359,23.129,-0.390,-0.096,0.297,21.840,70.949,-31.655
09:48:00:409,23.179,-0.349,-0.071,0.342,21.916,71.456,-32.511
09:48:00:41,23.179,-0.333,-0.050,0.367,21.605,72.019,-33.103
09:48:00:463,23.233,-0.358,0.016,0.397,20.862,72.172,-32.875
09:48:00:464,23.234,-0.345,0.047,0.383,20.023,71.891,-32.124
09:48:00:485,23.255,-0.187,-0.015,0.271,18.352,71.027,-30.168
09:48:00:54,23.310,0.076,-0.230,0.113,17.214,70.345,-28.491
09:48:00:541,23.311,0.092,-0.270,0.046,15.756,69.533,-25.783
09:48:00:565,23.334,-0.053,-0.117,0.088,14.657,69.320,-23.001
09:48:00:59,23.360,-0.101,-0.017,0.097,14.047,69.440,-21.070
09:48:00:645,23.415,-0.151,0.158,0.112,13.214,69.748,-17.957
09:48:00:646,23.416,-0.069,0.139,0.065,12.736,69.780,-15.767
09:48:00:669,23.439,-0.027,0.088,0.006,12.103,69.283,-12.478
09:48:00:695,23.465,0.030,-0.010,-0.074,11.481,68.143,-9.397
09:48:00:78,23.550,0.063,-0.034,-0.111,11.076,67.225,-7.471
09:48:00:781,23.550,0.096,-0.011,-0.165,10.588,65.930,-4.749
09:48:00:782,23.551,0.107,0.024,-0.244,10.352,65.223,-2.993
09:48:00:8,23.570,0.139,0.038,-0.280,10.131,64.486,-0.403
09:48:00:97,23.740,0.152,0.002,-0.318,10.041,64.156,2.096
09:48:00:971,23.740,0.129,-0.029,-0.311,9.980,64.014,3.074
09:48:00:971,23.740,0.168,-0.062,-0.354,9.893,64.131,5.165
09:48:00:972,23.741,0.175,-0.088,-0.365,9.831,64.239,6.304
09:48:01:099,23.869,0.166,-0.099,-0.363,9.708,64.475,7.608
09:48:01:099,23.869,0.150,-0.066,-0.359,9.519,64.553,6.947
09:48:01:1,23.870,0.144,-0.034,-0.388,9.430,64.639,7.226
09:48:01:101,23.871,0.148,0.051,-0.405,9.281,64.985,7.341
09:48:01:119,23.889,0.135,0.088,-0.392,9.172,65.140,7.215
09:48:01:12,23.890,0.133,0.088,-0.390,8.970,65.686,6.711
09:48:01:147,23.917,0.144,0.181,-0.427,8.660,65.863,5.887
09:48:01:148,23.917,0.136,0.230,-0.439,8.432,66.623,5.229
09:48:01:149,23.918,0.104,0.277,-0.433,8.150,67.775,4.110
09:48:01:168,23.937,0.103,0.161,-0.368,8.028,68.996,3.252
09:48:01:223,23.993,0.050,-0.102,-0.283,7.920,71.080,1.593
09:48:01:224,23.994,-0.006,-0.091,-0.240,7.842,73.586,-0.568
09:48:01:277,24.047,-0.041,-0.022,-0.206,7.862,75.408,-2.275
09:48:01:277,24.047,-0.107,0.127,-0.128,8.094,78.417,-5.132
09:48:01:299,24.069,-0.189,0.250,-0.041,8.431,80.584,-7.107
09:48:01:384,24.153,-0.221,0.284,0.029,9.314,83.922,-9.948
09:48:01:384,24.154,-0.239,0.249,0.094,10.616,87.025,-12.501
09:48:01:385,24.155,-0.219,0.118,0.129,11.644,88.787,-14.132
09:48:01:437,24.207,-0.222,0.000,0.176,13.098,90.868,-16.613
09:48:01:437,24.207,-0.241,-0.100,0.211,13.957,91.934,-18.343
09:48:01:456,24.226,-0.264,-0.139,0.221,15.127,93.120,-21.075
09:48:01:51,24.280,-0.250,-0.177,0.265,16.333,94.106,-23.900
09:48:01:538,24.307,-0.220,-0.209,0.308,17.220,94.672,-25.820
09:48:01:539,24.308,-0.188,-0.278,0.316,18.463,95.158,-28.701
09:48:01:563,24.332,-0.174,-0.298,0.324,19.109,95.217,-30.577
09:48:01:617,24.387,-0.188,-0.294,0.331,19.732,95.043,-33.144
09:48:01:617,24.387,-0.186,-0.224,0.364,19.970,94.905,-34.544
09:48:01:64,24.410,-0.195,-0.177,0.413,20.142,94.883,-35.918
09:48:01:666,24.436,-0.168,-0.108,0.485,19.975,94.995,-36.281
09:48:01:722,24.491,-0.127,-0.063,0.448,19.576,94.998,-35.895
09:48:01:723,24.492,-0.095,-0.013,0.431,18.576,94.847,-34.447
09:48:01:745,24.515,-0.133,0.048,0.443,17.748,94.604,-32.991
09:48:01:914,24.683,-0.165,0.137,0.427,16.344,93.838,-30.139
09:48:01:914,24.684,-0.165,0.199,0.390,14.998,92.487,-26.584
09:48:01:915,24.684,-0.134,0.198,0.302,14.159,91.277,-23.951
09:48:01:916,24.685,0.048,-0.025,0.077,12.982,88.967,-19.929
09:48:01:938,24.708,0.011,-0.070,0.012,12.263,87.028,-17.457
09:48:01:939,24.708,-0.012,-0.037,-0.019,11.611,84.588,-14.401
09:48:02:123,24.892,-0.101,0.082,-0.078,10.607,78.395,-7.966
09:48:02:123,24.893,-0.037,-0.047,-0.156,10.373,76.685,-6.748
09:48:02:124,24.894,-0.003,-0.114,-0.211,10.010,73.674,-5.108
09:48:02:125,24.894,0.011,-0.109,-0.282,9.709,71.191,-3.580
09:48:02:175,24.945,0.020,-0.110,-0.293,9.580,69.569,-2.549
09:48:02:175,24.945,0.043,-0.117,-0.286,9.464,68.256,-0.937
09:48:02:176,24.946,0.061,-0.123,-0.263,9.278,67.323,-0.437
09:48:02:177,24.947,0.075,-0.141,-0.260,9.132,66.407,0.951
09:48:02:193,24.963,0.095,-0.117,-0.286,8.888,65.352,2.027
09:48:02:22,24.990,0.125,-0.063,-0.291,8.620,64.613,1.982
09:48:02:221,24.991,0.127,-0.005,-0.309,8.243,63.701,2.521
09:48:02:333,25.102,0.136,0.075,-0.317,7.950,63.241,2.743
09:48:02:333,25.102,0.167,0.155,-0.343,7.487,62.776,2.964
09:48:02:333,25.102,0.207,0.155,-0.317,7.195,62.653,3.068
09:48:02:333,25.103,0.196,0.145,-0.304,6.813,62.663,3.068
09:48:02:349,25.119,0.187,0.233,-0.304,6.445,62.700,2.801
09:48:02:404,25.174,0.175,0.263,-0.337,6.234,62.707,2.467
09:48:02:405,25.175,0.185,0.302,-0.342,5.923,63.008,1.724
09:48:02:429,25.199,0.203,-0.015,-0.277,5.673,64.130,0.701
09:48:02:511,25.280,0.141,-0.173,-0.252,5.557,65.431,-0.223
09:48:02:512,25.281,0.079,-0.134,-0.230,5.424,67.880,-2.015
09:48:02:536,25.306,0.044,-0.002,-0.188,5.419,69.901,-3.432
09:48:02:536,25.306,-0.025,0.153,-0.119,5.685,73.325,-5.711
09:48:02:586,25.356,-0.079,0.243,-0.057,6.424,77.232,-7.918
09:48:02:614,25.384,-0.126,0.248,0.012,7.205,79.839,-9.284
09:48:02:615,25.385,-0.150,0.197,0.039,8.722,83.476,-11.186
09:48:02:698,25.468,-0.203,0.082,0.087,9.875,85.460,-12.462
09:48:02:698,25.468,-0.226,0.038,0.135,11.669,87.864,-14.543
09:48:02:698,25.468,-0.255,-0.048,0.192,12.853,89.067,-16.142
09:48:02:936,25.706,-0.266,-0.099,0.223,14.542,90.176,-18.947
09:48:02:937,25.707,-0.263,-0.168,0.271,16.041,90.504,-22.256
09:48:02:938,25.707,-0.272,-0.185,0.291,16.912,90.346,-24.668
09:48:02:939,25.708,-0.268,-0.193,0.298,17.988,89.733,-28.372
09:48:02:954,25.723,-0.252,-0.213,0.308,18.580,89.277,-30.718
09:48:02:989,25.759,-0.244,-0.233,0.327,19.395,88.797,-33.782
09:48:02:99,25.760,-0.245,-0.227,0.355,19.398,88.806,-35.366
09:48:02:991,25.761,-0.228,-0.205,0.373,18.344,89.212,-34.911
09:48:02:991,25.761,-0.217,-0.176,0.425,18.530,89.243,-35.729
09:48:03:041,25.811,-0.171,-0.140,0.414,18.350,89.177,-35.711
09:48:03:041,25.811,-0.145,-0.102,0.389,17.701,89.056,-34.798
09:48:03:041,25.811,-0.168,0.020,0.432,16.738,88.842,-32.855
09:48:03:042,25.812,-0.194,0.106,0.427,15.961,88.535,-30.987
09:48:03:087,25.856,-0.172,0.199,0.368,14.717,87.708,-27.391
09:48:03:088,25.857,-0.093,0.125,0.216,13.919,86.866,-24.608
09:48:03:196,25.966,-0.004,-0.016,0.099,12.834,85.067,-20.250
09:48:03:197,25.967,-0.043,0.030,-0.007,11.907,82.770,-16.087
09:48:03:198,25.968,-0.043,0.078,0.011,11.591,81.301,-13.722
09:48:03:278,26.047,-0.089,0.155,-0.010,11.255,79.668,-10.405
09:48:03:278,26.047,-0.092,0.150,-0.046,11.073,78.663,-8.474
09:48:03:278,26.047,-0.052,0.011,-0.111,10.761,76.862,-6.048
09:48:03:279,26.048,-0.008,-0.100,-0.167,10.381,74.568,-4.176
09:48:03:324,26.094,0.009,-0.095,-0.209,10.082,72.871,-3.131
09:48:03:324,26.094,0.039,-0.075,-0.264,9.676,70.429,-1.646
09:48:03:375,26.145,0.066,-0.072,-0.323,9.473,69.039,-0.611
09:48:03:376,26.146,0.092,-0.109,-0.335,9.264,67.488,1.092
09:48:03:458,26.227,0.120,-0.134,-0.327,9.104,66.549,2.874
09:48:03:458,26.227,0.142,-0.125,-0.321,8.976,66.580,4.025
09:48:03:459,26.228,0.165,-0.103,-0.327,8.724,66.194,5.577
09:48:03:478,26.248,0.177,-0.107,-0.329,8.523,66.505,6.427
09:48:03:593,26.363,0.187,-0.087,-0.339,8.227,65.984,6.649
09:48:03:593,26.363,0.213,0.012,-0.406,7.958,66.249,7.071
09:48:03:593,26.363,0.233,0.055,-0.417,7.499,66.094,7.530
09:48:03:593,26.363,0.250,0.091,-0.429,7.051,66.571,7.852
09:48:03:609,26.379,0.265,0.063,-0.411,6.791,66.926,7.967
09:48:03:695,26.465,0.231,0.130,-0.406,6.691,67.838,6.504
09:48:03:695,26.465,0.256,0.216,-0.428,6.535,68.351,6.297
09:48:03:696,26.465,0.187,0.221,-0.434,6.424,69.755,5.667
09:48:03:714,26.483,0.172,0.196,-0.402,6.423,71.483,4.560
09:48:03:802,26.572,0.127,0.082,-0.356,6.509,72.747,3.496
09:48:03:803,26.573,0.035,-0.037,-0.271,6.737,75.080,1.272
09:48:03:803,26.573,-0.040,0.082,-0.199,6.949,76.742,-0.595
09:48:03:804,26.574,-0.084,0.155,-0.132,7.385,79.558,-3.844
09:48:03:959,26.729,-0.156,0.251,-0.039,8.143,82.531,-7.335
09:48:03:96,26.730,-0.186,0.283,0.011,8.883,84.434,-9.674
09:48:03:961,26.731,-0.218,0.230,0.090,10.359,87.054,-13.008
09:48:03:962,26.732,-0.208,0.113,0.117,11.546,88.589,-15.112
09:48:03:98,26.750,-0.225,0.000,0.162,13.392,90.660,-18.049
09:48:03:98,26.750,-0.249,-0.057,0.208,14.627,91.896,-19.898
09:48:04:091,26.860,-0.275,-0.116,0.260,16.497,93.491,-22.566
09:48:04:092,26.861,-0.295,-0.182,0.320,18.350,94.742,-25.217
09:48:04:092,26.862,-0.281,-0.227,0.356,19.526,95.285,-27.014
09:48:04:093,26.863,-0.262,-0.265,0.372,21.114,95.731,-29.749
09:48:04:109,26.879,-0.246,-0.305,0.378,22.377,95.755,-32.505
09:48:04:166,26.936,-0.249,-0.319,0.399,23.027,95.639,-34.288
09:48:04:167,26.937,-0.246,-0.282,0.417,22.726,95.698,-35.775
09:48:04:168,26.938,-0.232,-0.226,0.454,22.906,95.571,-36.992
09:48:04:245,27.014,-0.203,-0.180,0.487,22.783,95.482,-38.084
09:48:04:245,27.015,-0.187,-0.129,0.500,22.012,95.316,-38.139
09:48:04:246,27.016,-0.149,-0.079,0.481,21.115,95.148,-37.555
09:48:04:268,27.037,-0.121,0.004,0.479,19.396,94.786,-35.746
09:48:04:293,27.063,-0.119,0.077,0.476,18.138,94.463,-33.937
09:48:04:345,27.115,-0.163,0.177,0.445,16.232,93.671,-30.300
09:48:04:373,27.143,-0.046,0.012,0.211,15.001,92.833,-27.368
09:48:04:374,27.144,0.066,-0.106,0.040,13.205,90.906,-22.614
09:48:04:453,27.222,0.036,-0.137,-0.097,11.676,88.477,-18.039
09:48:04:454,27.223,-0.014,0.097,-0.025,11.101,87.371,-15.308
09:48:04:478,27.248,-0.067,0.192,-0.027,10.664,86.666,-11.199
09:48:04:479,27.249,-0.140,0.202,-0.038,10.522,86.550,-8.626
09:48:04:59,27.360,-0.106,0.105,-0.097,10.275,85.614,-5.374
09:48:04:591,27.360,-0.042,0.008,-0.184,9.941,83.689,-2.792
09:48:04:591,27.361,-0.013,0.016,-0.235,9.639,81.972,-1.465
09:48:04:592,27.361,0.017,-0.023,-0.339,9.221,79.565,0.217
09:48:04:695,27.465,0.008,-0.001,-0.379,8.952,78.396,1.182
09:48:04:695,27.465,0.019,-0.008,-0.389,8.579,77.523,2.594
09:48:04:695,27.465,0.047,-0.042,-0.350,8.067,77.065,2.719
09:48:04:696,27.466,0.074,-0.084,-0.359,7.843,77.126,3.637
09:48:04:881,27.651,0.100,-0.102,-0.380,7.524,77.499,4.957
09:48:04:881,27.651,0.115,-0.106,-0.399,7.344,77.921,5.722
09:48:04:881,27.651,0.090,-0.067,-0.385,7.192,78.617,5.138
09:48:04:882,27.652,0.068,0.036,-0.396,7.021,79.660,5.655
09:48:04:959,27.729,0.050,0.130,-0.414,6.940,80.435,5.779
09:48:04:96,27.729,0.060,0.163,-0.411,6.821,81.763,5.623
09:48:04:961,27.730,0.040,0.149,-0.354,6.752,82.835,5.235
09:48:04:961,27.731,0.030,0.175,-0.343,6.664,84.277,4.193
09:48:04:98,27.749,-0.006,0.193,-0.342,6.588,85.881,2.798
09:48:04:98,27.750,-0.030,0.179,-0.341,6.568,87.074,1.816
09:48:04:981,27.751,-0.045,0.233,-0.368,6.720,89.686,0.447
09:48:05:001,27.770,-0.053,0.020,-0.290,7.027,91.872,-0.465
09:48:05:055,27.825,-0.122,-0.117,-0.195,7.653,95.688,-1.954
09:48:05:056,27.826,-0.165,-0.029,-0.138,8.443,99.961,-3.544
09:48:05:135,27.905,-0.220,0.096,-0.100,9.131,103.025,-4.550
09:48:05:135,27.905,-0.285,0.218,-0.038,10.565,107.918,-5.770
09:48:05:16,27.930,-0.344,0.219,0.044,11.826,111.240,-6.365
09:48:05:161,27.931,-0.358,0.168,0.136,14.072,116.053,-7.058
09:48:05:325,28.095,-0.365,0.040,0.265,16.578,120.176,-7.754
09:48:05:326,28.096,-0.383,-0.009,0.333,18.308,122.232,-8.395
09:48:05:326,28.096,-0.445,-0.047,0.410,20.916,124.116,-9.861
09:48:05:326,28.096,-0.437,-0.096,0.461,22.584,124.690,-11.290
09:48:05:347,28.117,-0.435,-0.173,0.511,24.844,124.981,-13.987
09:48:05:348,28.117,-0.418,-0.188,0.505,26.728,125.398,-16.996
09:48:05:349,28.119,-0.383,-0.186,0.510,27.775,125.818,-19.088
09:48:05:427,28.197,-0.300,-0.216,0.547,29.009,126.630,-22.292
09:48:05:427,28.197,-0.253,-0.237,0.572,29.544,127.094,-24.461
09:48:05:427,28.197,-0.214,-0.225,0.586,29.978,127.960,-27.669
09:48:05:447,28.217,-0.145,-0.172,0.633,30.095,128.573,-29.651
09:48:05:561,28.330,-0.087,-0.150,0.636,30.090,129.879,-32.151
09:48:05:562,28.331,-0.012,-0.147,0.581,29.815,131.181,-34.022
09:48:05:562,28.332,0.064,-0.139,0.545,29.409,132.030,-34.959
09:48:05:563,28.333,0.117,-0.119,0.549,28.405,133.201,-35.829
09:48:05:607,28.377,0.166,-0.055,0.536,27.402,133.858,-35.923
09:48:05:608,28.378,0.233,0.043,0.414,25.452,134.687,-35.151
09:48:05:659,28.429,0.247,0.049,0.232,23.318,135.867,-33.268
09:48:05:66,28.430,0.220,-0.022,0.046,22.038,136.127,-31.616
09:48:05:714,28.484,0.189,-0.179,-0.017,20.297,136.843,-28.760
09:48:05:715,28.485,0.191,-0.118,0.143,18.539,137.866,-25.793
09:48:05:85,28.620,0.167,-0.047,0.119,17.314,138.263,-23.726
09:48:05:853,28.623,0.128,0.137,-0.029,15.660,139.198,-20.322
09:48:05:853,28.623,0.068,0.157,-0.150,13.781,141.970,-14.309
09:48:05:928,28.698,0.018,0.073,-0.239,12.930,143.714,-10.931
09:48:05:929,28.698,-0.122,0.097,-0.307,12.299,144.337,-9.045
09:48:05:93,28.699,-0.172,0.113,-0.422,11.213,144.438,-6.986
09:48:06:033,28.803,-0.482,0.009,-0.494,10.113,146.126,-4.335
09:48:06:033,28.803,-0.563,-0.033,-0.449,9.824,147.472,-3.775
09:48:06:033,28.803,-0.570,-0.051,-0.334,9.578,150.054,-3.702
09:48:06:083,28.852,-0.532,-0.061,-0.212,9.557,152.934,-4.508
09:48:06:083,28.852,-0.502,-0.050,-0.154,9.669,154.836,-5.465
09:48:06:084,28.853,-0.473,-0.047,-0.103,10.044,157.548,-7.471
09:48:06:133,28.902,-0.479,0.008,-0.022,10.371,159.227,-9.154
09:48:06:133,28.902,-0.581,0.115,0.001,10.863,161.366,-12.136
09:48:06:216,28.986,-0.664,0.295,0.043,11.864,163.952,-15.719
09:48:06:217,28.987,-0.596,0.338,0.177,12.858,166.307,-18.449
09:48:06:218,28.988,-0.458,0.415,0.325,14.447,170.270,-22.991
09:48:06:219,28.989,-0.446,0.512,0.348,15.551,172.794,-26.269
09:48:06:292,29.062,-0.395,0.607,0.411,17.957,176.731,-31.537
09:48:06:293,29.062,-0.086,0.542,0.508,21.897,-178.529,-37.055
09:48:06:294,29.063,0.089,0.449,0.496,25.394,-175.000,-40.641
09:48:06:506,29.275,0.204,0.462,0.599,31.462,-170.258,-45.996
09:48:06:506,29.276,0.258,0.247,0.531,36.645,-167.225,-49.471
09:48:06:507,29.277,0.383,0.120,0.456,45.923,-162.189,-54.480
09:48:06:508,29.277,0.536,-0.033,0.546,56.612,-156.859,-59.199
09:48:06:532,29.302,0.541,-0.227,0.359,63.390,-153.032,-61.792
09:48:06:533,29.302,0.492,-0.173,0.124,71.300,-147.993,-65.319
09:48:06:533,29.303,0.519,-0.069,0.379,75.452,-145.296,-67.739
09:48:06:534,29.304,0.459,-0.279,0.213,80.691,-140.636,-70.247
09:48:06:582,29.352,0.429,-0.306,0.031,84.573,-135.146,-71.216
09:48:06:582,29.352,0.403,-0.325,-0.061,86.657,-132.314,-72.366
09:48:06:582,29.352,0.260,-0.496,-0.082,88.941,-129.888,-75.333
09:48:06:631,29.401,0.232,-0.458,-0.116,90.092,-148.013,-96.772
09:48:06:631,29.401,0.145,-0.392,-0.120,91.503,70.973,117.719
09:48:06:796,29.566,0.083,-0.309,-0.057,92.549,71.924,114.717
09:48:06:796,29.566,0.047,-0.248,-0.073,93.113,73.737,114.278
09:48:06:796,29.566,-0.005,-0.218,-0.036,93.758,76.167,113.764
09:48:06:798,29.568,-0.055,-0.132,-0.053,93.975,76.635,112.497
09:48:06:818,29.588,-0.081,-0.091,-0.073,94.078,76.670,110.354
09:48:06:819,29.589,-0.068,-0.069,-0.035,94.062,76.944,108.858
09:48:06:819,29.589,-0.078,-0.046,-0.016,93.960,76.925,107.884
09:48:06:866,29.635,-0.106,-0.008,-0.085,93.677,76.767,106.692
09:48:06:924,29.694,-0.042,-0.018,-0.068,93.536,78.184,106.333
09:48:06:925,29.695,-0.065,-0.040,-0.003,93.391,77.883,105.819
09:48:06:925,29.695,0.013,0.054,0.072,93.268,79.045,105.742
09:48:07:058,29.828,0.032,0.106,0.108,93.213,79.467,106.501
09:48:07:059,29.828,-0.053,0.057,0.011,93.221,80.523,107.127
09:48:07:059,29.829,-0.021,0.035,-0.041,93.227,80.813,107.987
09:48:07:06,29.829,0.057,0.059,-0.011,93.047,82.468,109.445
09:48:07:079,29.848,0.145,0.069,0.072,92.895,82.783,110.124
09:48:07:079,29.848,-0.008,-0.007,0.029,92.835,83.185,110.030
09:48:07:1,29.870,-0.135,-0.084,-0.034,93.065,84.711,111.280
09:48:07:155,29.925,0.008,-0.094,0.025,93.341,86.428,113.534
09:48:07:156,29.926,0.097,0.019,0.053,93.915,90.034,117.590
09:48:07:179,29.949,0.053,0.021,0.037,94.352,92.005,120.291
09:48:07:205,29.975,0.020,0.016,0.009,94.955,95.557,124.345
09:48:07:26,30.030,0.005,-0.058,-0.025,95.353,97.094,126.860
09:48:07:261,30.031,0.026,-0.024,-0.001,95.461,97.275,127.167
09:48:07:284,30.054,0.027,-0.001,0.013,95.461,96.967,127.608
09:48:07:366,30.136,0.069,0.004,0.040,95.478,98.046,128.663
09:48:07:389,30.159,-0.038,-0.044,-0.012,95.541,98.170,129.315
09:48:07:477,30.246,-0.030,-0.049,-0.006,95.491,98.281,129.317
09:48:07:478,30.247,0.040,-0.012,0.028,95.349,97.862,129.059
09:48:07:478,30.248,0.047,0.028,0.048,95.128,97.722,128.565
09:48:07:479,30.249,-0.032,-0.009,0.023,95.020,97.452,128.176
09:48:07:498,30.268,-0.075,-0.027,-0.001,94.887,97.492,127.553
09:48:07:498,30.268,-0.009,0.046,-0.006,94.753,97.925,127.594
09:48:07:579,30.349,0.010,0.067,-0.001,94.766,99.088,128.311
09:48:07:58,30.350,-0.032,0.056,-0.007,95.033,102.005,130.857
09:48:07:581,30.351,-0.054,0.047,-0.032,95.322,104.668,133.002
09:48:07:873,30.643,-0.037,0.038,-0.030,95.791,107.800,135.620
09:48:07:873,30.643,-0.012,0.011,-0.040,96.298,110.827,137.739
09:48:07:873,30.643,-0.043,0.002,-0.060,96.630,112.524,138.907
09:48:07:873,30.643,-0.041,-0.019,-0.032,97.078,114.570,139.809
09:48:07:899,30.669,-0.005,-0.007,-0.015,97.377,115.547,140.093
09:48:07:899,30.669,-0.027,-0.028,-0.026,97.860,117.814,141.355
09:48:07:899,30.669,0.004,-0.005,0.017,98.190,120.160,143.179
09:48:07:899,30.669,0.031,0.017,0.036,98.601,124.490,146.706
09:48:07:951,30.721,0.014,0.040,0.054,98.910,128.871,150.180
09:48:07:951,30.721,-0.016,0.016,0.066,99.075,131.597,152.197
09:48:07:952,30.722,-0.025,0.013,0.067,99.256,135.648,154.899
09:48:07:952,30.722,-0.045,0.003,0.073,99.325,138.124,156.501
09:48:08:021,30.790,-0.011,0.016,0.091,99.703,142.454,159.445
09:48:08:134,30.904,-0.011,0.014,0.099,99.913,146.549,162.174
09:48:08:135,30.905,-0.027,0.000,0.094,100.056,148.416,163.103
09:48:08:135,30.905,-0.035,-0.044,0.082,100.441,150.884,164.260
09:48:08:136,30.906,-0.022,-0.031,0.079,100.629,153.041,165.420
09:48:08:16,30.929,-0.001,-0.009,0.078,101.011,156.021,167.226
09:48:08:16,30.930,0.019,0.019,0.058,101.299,157.665,167.805
09:48:08:161,30.931,-0.007,0.038,0.051,101.502,158.743,168.221
09:48:08:162,30.931,-0.020,0.075,0.013,101.780,160.720,169.283
09:48:08:181,30.950,-0.061,0.043,-0.004,102.004,161.997,170.053
09:48:08:181,30.951,-0.083,0.026,-0.019,102.387,163.848,171.428
09:48:08:232,31.001,-0.067,0.050,-0.038,102.770,165.661,172.964
09:48:08:232,31.002,-0.066,0.032,-0.025,102.966,166.027,173.321
09:48:08:255,31.025,-0.095,-0.039,0.009,103.261,166.418,173.599
09:48:08:344,31.113,-0.094,-0.077,0.026,103.430,166.659,173.916
09:48:08:344,31.114,-0.101,-0.058,0.039,103.568,166.853,174.230
09:48:08:345,31.114,-0.070,-0.043,0.057,103.531,166.740,174.376
09:48:08:345,31.115,-0.061,-0.036,0.056,103.432,166.710,174.530
09:48:08:441,31.211,-0.038,-0.006,0.068,103.180,166.509,174.792
09:48:08:47,31.240,-0.026,0.062,0.060,102.972,166.445,175.020
09:48:08:47,31.240,-0.020,0.103,0.049,102.648,165.676,174.867
09:48:08:556,31.326,-0.082,0.045,0.038,102.399,163.760,173.693
09:48:08:556,31.326,-0.117,0.059,0.076,102.248,162.726,173.087
09:48:08:557,31.326,-0.060,0.148,0.096,101.920,160.848,171.993
09:48:08:557,31.326,-0.045,0.116,0.105,101.675,159.270,170.883
09:48:08:573,31.343,-0.087,0.048,0.071,101.278,154.972,167.671
09:48:08:574,31.343,-0.055,0.036,0.045,100.787,149.487,163.107
09:48:08:653,31.423,0.029,0.075,0.039,100.478,146.441,161.074
09:48:08:654,31.424,0.109,0.096,0.017,100.189,144.551,160.722
09:48:08:764,31.534,0.047,0.060,0.012,100.025,144.203,161.773
09:48:08:765,31.534,0.070,0.033,0.000,99.544,143.190,162.128
09:48:08:766,31.535,0.054,-0.010,-0.030,99.115,140.112,160.105
09:48:08:767,31.536,-0.018,-0.066,-0.042,98.571,133.915,154.786
09:48:08:814,31.584,-0.073,-0.096,-0.030,98.353,129.272,151.599
09:48:08:814,31.584,-0.039,-0.076,0.007,98.327,127.988,150.981
09:48:08:815,31.585,-0.028,-0.068,0.019,98.452,126.044,150.561
09:48:08:835,31.605,-0.011,-0.039,0.003,98.582,125.159,150.408
09:48:08:859,31.629,0.020,-0.018,0.013,98.747,124.508,151.130
09:48:08:914,31.684,0.030,0.006,0.035,98.809,124.020,151.512
09:48:08:915,31.685,-0.032,-0.049,0.012,98.779,122.842,151.079
09:48:08:939,31.709,-0.044,-0.055,0.012,98.638,121.138,149.741
09:48:08:992,31.762,-0.072,-0.026,-0.002,98.508,119.805,148.906
09:48:09:019,31.789,-0.080,-0.023,-0.001,98.360,119.477,148.667
09:48:09:02,31.790,-0.094,-0.031,0.015,98.381,119.195,148.703
09:48:09:044,31.814,-0.099,-0.015,0.012,98.552,118.462,147.849
09:48:09:098,31.868,-0.080,-0.037,0.013,98.839,116.829,146.310
09:48:09:099,31.869,-0.070,-0.022,-0.001,98.988,116.766,146.025
09:48:09:121,31.891,-0.052,0.020,-0.017,99.150,117.331,146.481
09:48:09:148,31.917,-0.093,0.020,-0.027,99.357,118.229,146.955
09:48:09:203,31.973,-0.099,0.004,-0.020,99.532,119.108,147.398
09:48:09:204,31.974,-0.066,0.031,-0.007,99.862,120.235,148.256
09:48:09:226,31.996,-0.034,0.045,0.017,100.074,121.652,149.170
09:48:09:282,32.051,-0.026,0.048,0.013,100.328,123.301,150.192
09:48:09:283,32.052,-0.033,0.057,-0.024,100.464,124.294,150.202
09:48:09:306,32.075,-0.067,0.059,-0.031,100.461,124.448,149.827
09:48:09:331,32.101,-0.057,0.062,-0.003,100.341,125.678,149.740
09:48:09:387,32.157,-0.062,0.077,0.057,100.169,126.079,149.662
09:48:09:388,32.158,-0.038,0.101,0.078,99.860,127.499,149.680
09:48:09:41,32.180,-0.040,0.065,0.116,99.548,129.883,150.966
09:48:09:436,32.206,-0.044,0.037,0.121,99.353,131.824,151.840
09:48:09:494,32.263,-0.002,0.016,0.164,99.038,133.411,151.915
09:48:09:494,32.264,0.068,0.013,0.152,98.884,134.155,151.384
09:48:09:515,32.285,0.039,-0.013,0.121,98.809,134.287,149.960
09:48:09:541,32.311,-0.047,-0.105,0.144,98.858,135.179,148.884
09:48:09:597,32.367,-0.011,-0.094,0.186,98.884,136.518,149.106
09:48:09:598,32.368,0.057,-0.034,0.162,98.966,139.513,150.470
09:48:09:677,32.446,0.039,-0.038,0.094,99.043,141.421,151.348
09:48:09:677,32.447,0.024,-0.053,0.078,99.125,144.942,153.202
09:48:09:702,32.472,0.033,-0.044,0.072,99.165,147.464,154.739
09:48:09:703,32.473,0.020,-0.047,0.059,99.278,151.063,156.693
09:48:09:725,32.495,-0.014,-0.060,0.064,99.461,154.113,158.293
09:48:09:78,32.550,-0.021,-0.049,0.076,99.521,156.277,159.583
09:48:09:781,32.551,-0.018,-0.044,0.067,99.675,159.364,161.488
09:48:09:805,32.575,-0.063,-0.029,0.060,99.892,160.510,161.904
09:48:09:83,32.600,-0.097,-0.069,0.079,100.031,161.845,162.296
09:48:09:886,32.656,-0.083,-0.048,0.089,100.200,163.639,163.479
09:48:09:887,32.656,-0.057,-0.012,0.092,100.283,164.815,164.302
09:48:09:909,32.679,-0.017,0.055,0.079,100.345,165.443,164.577
09:48:09:994,32.764,-0.059,0.044,0.082,100.350,165.387,164.352
09:48:09:995,32.765,-0.060,0.063,0.079,100.253,165.330,164.211
09:48:09:995,32.765,-0.001,0.156,0.080,99.992,164.952,163.927
09:48:10:068,32.837,-0.011,0.183,0.076,99.704,163.801,162.852
09:48:10:098,32.868,-0.025,0.175,0.083,99.125,160.914,160.064
09:48:10:099,32.869,-0.013,0.160,0.079,98.684,158.917,158.207
09:48:10:1,32.869,-0.007,0.143,0.090,98.296,157.389,157.023
09:48:10:119,32.889,0.022,0.107,0.032,97.558,156.266,156.094
09:48:10:175,32.945,0.016,-0.003,0.077,97.032,154.161,153.836
09:48:10:175,32.945,0.023,-0.039,0.068,96.198,147.601,146.800
09:48:10:197,32.967,-0.006,-0.045,0.018,95.789,143.436,142.368
09:48:10:252,33.022,-0.022,-0.072,0.032,95.564,141.037,139.557
09:48:10:279,33.049,0.001,-0.037,0.071,95.542,142.247,140.480
09:48:10:28,33.049,0.029,-0.021,0.091,95.520,143.714,141.610
09:48:10:362,33.132,-0.004,-0.059,0.122,95.415,143.708,140.826
09:48:10:363,33.133,-0.070,-0.127,0.124,95.298,142.598,138.819
09:48:10:413,33.183,-0.070,-0.111,0.094,95.160,141.763,136.852
09:48:10:414,33.184,-0.043,-0.090,0.043,95.106,142.863,136.770
09:48:10:415,33.184,-0.030,-0.063,0.027,95.124,144.408,137.541
09:48:10:785,33.554,-0.028,-0.058,0.020,95.264,147.799,139.460
09:48:10:785,33.555,-0.074,-0.068,0.019,95.437,149.828,140.622
09:48:10:786,33.556,-0.129,-0.132,0.032,95.810,153.427,142.736
09:48:10:864,33.634,-0.086,-0.025,0.049,96.522,162.873,150.043
09:48:10:865,33.634,-0.086,-0.018,0.093,96.913,167.778,153.496
09:48:10:865,33.635,-0.063,0.016,0.095,97.129,170.542,155.452
09:48:10:866,33.636,-0.014,0.068,0.050,97.438,175.901,159.315
09:48:11:153,33.922,-0.025,0.101,0.052,97.742,-179.172,162.978
09:48:11:153,33.923,-0.038,0.097,0.140,97.905,-176.171,164.880
09:48:11:154,33.924,0.023,0.164,0.195,98.025,-171.449,167.796
09:48:11:155,33.925,0.034,0.188,0.218,98.045,-167.213,170.294
09:48:11:257,34.027,0.065,0.132,0.197,97.942,-160.281,175.208
09:48:11:258,34.028,0.088,0.098,0.185,97.665,-152.671,-179.480
09:48:11:258,34.028,0.137,0.058,0.104,97.438,-147.477,-175.634
09:48:11:26,34.030,0.138,0.012,0.006,97.120,-138.926,-169.555
09:48:11:337,34.107,0.094,-0.085,-0.007,96.938,-133.340,-165.395
09:48:11:337,34.107,0.090,-0.140,0.023,96.640,-123.875,-158.086
09:48:11:338,34.108,0.101,-0.215,0.070,96.209,-111.393,-147.651
09:48:11:388,34.158,-0.041,-0.331,0.198,94.880,-84.830,-124.005
09:48:11:389,34.158,0.022,-0.234,-0.032,94.089,-74.187,-114.140
09:48:11:39,34.159,0.012,-0.202,-0.049,92.849,-63.223,-103.450
09:48:11:391,34.160,-0.072,-0.322,0.073,91.958,-58.426,-98.500
09:48:11:494,34.264,-0.172,-0.417,0.129,90.345,-52.139,-91.359
09:48:11:494,34.264,-0.272,-0.419,0.137,88.051,-45.827,-83.465
09:48:11:494,34.264,-0.293,-0.398,0.116,85.989,-42.180,-78.272
09:48:11:495,34.265,-0.305,-0.384,0.000,82.074,-38.200,-71.103
09:48:11:541,34.310,-0.311,-0.411,-0.157,78.947,-36.434,-66.498
09:48:11:541,34.311,-0.311,-0.412,-0.288,73.426,-34.718,-59.310
09:48:11:68,34.450,-0.283,-0.336,-0.533,66.951,-34.576,-51.967
09:48:11:681,34.451,-0.184,-0.225,-0.745,62.151,-35.601,-47.068
09:48:11:681,34.451,-0.106,-0.078,-0.931,54.517,-39.084,-39.826
09:48:11:682,34.452,-0.007,0.214,-1.339,49.255,-42.926,-35.008
09:48:11:94,34.709,0.497,0.706,-1.918,41.188,-51.648,-27.745
09:48:11:941,34.710,1.449,1.065,-0.997,33.478,-66.454,-22.601
09:48:11:941,34.711,1.310,0.840,-0.275,29.334,-79.895,-20.428
09:48:11:942,34.711,0.246,0.641,0.721,23.959,-98.989,-16.263
09:48:11:966,34.735,0.067,0.235,0.310,21.925,-108.425,-13.478
09:48:11:966,34.736,0.060,0.210,0.270,20.302,-115.790,-10.078
09:48:11:967,34.737,0.140,0.170,0.534,18.945,-116.100,-6.397
09:48:11:968,34.737,0.401,0.293,0.277,17.608,-113.052,-3.756
09:48:12:045,34.815,0.426,0.239,0.300,15.902,-108.547,-0.238
09:48:12:046,34.816,0.298,0.019,0.419,15.384,-107.284,1.873
09:48:12:047,34.817,0.186,-0.052,0.454,14.786,-108.125,4.645
09:48:12:047,34.817,0.045,-0.096,0.501,14.427,-111.493,7.093
09:48:12:121,34.890,-0.234,-0.301,0.570,14.471,-114.024,8.950
09:48:12:122,34.891,-0.340,-0.233,0.609,15.116,-116.820,12.029
09:48:12:122,34.892,-0.369,-0.252,0.582,15.368,-117.567,14.108
09:48:12:15,34.920,-0.404,-0.261,0.595,15.132,-117.509,17.055
09:48:12:15,34.920,-0.379,-0.143,0.578,14.161,-116.516,19.377
09:48:12:151,34.921,-0.379,-0.160,0.628,13.406,-115.758,20.322
09:48:12:152,34.921,-0.326,-0.072,0.635,12.118,-114.669,20.849
09:48:12:23,35.000,-0.329,-0.060,0.626,11.183,-113.970,20.692
09:48:12:23,35.000,-0.297,-0.010,0.615,9.783,-112.998,19.739
09:48:12:231,35.001,-0.313,0.106,0.600,8.887,-112.393,18.620
09:48:12:231,35.001,-0.195,-0.129,0.450,4.814,-107.003,8.750
09:48:12:307,35.076,-0.092,-0.042,0.388,4.441,-104.898,6.769
09:48:12:308,35.077,-0.022,0.081,0.356,4.187,-101.048,3.622
09:48:12:309,35.079,0.047,0.229,0.259,4.247,-96.720,0.330
09:48:12:44,35.210,0.268,0.357,-0.031,5.515,-88.256,-5.130
09:48:12:44,35.210,0.268,0.322,-0.023,6.818,-84.488,-7.031
09:48:12:44,35.210,0.264,0.142,-0.106,8.869,-80.535,-9.688
09:48:12:441,35.211,0.229,0.008,-0.203,10.779,-77.971,-12.769
09:48:12:466,35.236,0.213,-0.039,-0.229,11.939,-76.595,-15.029
09:48:12:466,35.236,0.252,-0.082,-0.239,13.661,-74.987,-18.543
09:48:12:466,35.236,0.257,-0.119,-0.246,14.767,-74.176,-20.946
09:48:12:466,35.236,0.231,-0.144,-0.288,16.395,-73.280,-24.632
09:48:12:518,35.287,0.201,-0.201,-0.364,17.993,-72.634,-28.292
09:48:12:519,35.288,0.203,-0.222,-0.404,18.999,-72.293,-30.627
09:48:12:519,35.289,0.207,-0.177,-0.485,20.333,-71.909,-33.793
09:48:12:52,35.290,0.175,-0.037,-0.496,21.206,-71.674,-35.492
09:48:12:538,35.308,0.101,-0.069,-0.543,22.343,-71.151,-37.346
09:48:12:539,35.309,0.028,-0.079,-0.538,22.948,-70.779,-38.227
09:48:12:695,35.465,-0.020,-0.073,-0.548,22.769,-70.684,-38.265
09:48:12:696,35.466,-0.011,-0.044,-0.561,21.521,-70.806,-37.591
09:48:12:806,35.576,-0.069,0.044,-0.529,20.173,-71.127,-36.664
09:48:12:807,35.577,-0.033,-0.034,-0.471,17.966,-72.014,-34.613
09:48:12:808,35.578,-0.047,-0.207,-0.258,15.661,-73.768,-32.020
09:48:12:809,35.579,-0.052,-0.182,-0.215,14.155,-75.155,-30.113
09:48:12:832,35.602,-0.037,-0.011,-0.218,12.105,-77.203,-27.100
09:48:12:832,35.602,-0.011,0.048,-0.221,10.957,-78.416,-24.978
09:48:12:833,35.603,-0.012,0.035,-0.148,9.483,-80.222,-21.569
09:48:12:834,35.604,-0.037,-0.043,-0.024,8.177,-82.277,-18.054
09:48:13:007,35.777,-0.057,-0.082,0.040,7.409,-83.698,-15.700
09:48:13:199,35.969,-0.034,-0.038,0.079,6.433,-85.751,-12.198
09:48:13:2,35.970,-0.029,-0.010,0.116,5.902,-87.024,-9.874
09:48:13:201,35.971,-0.019,0.038,0.198,5.320,-88.763,-6.364
09:48:13:202,35.972,-0.043,0.033,0.272,5.082,-89.750,-4.002
09:48:13:226,35.995,-0.063,0.001,0.302,4.902,-91.004,-0.563
09:48:13:227,35.996,-0.091,0.014,0.351,4.845,-92.312,2.575
09:48:13:227,35.997,-0.087,0.081,0.393,4.842,-93.275,4.426
09:48:13:228,35.998,-0.115,0.112,0.443,4.911,-94.882,6.852
09:48:13:305,36.074,-0.145,0.160,0.499,4.984,-96.069,8.217
09:48:13:305,36.075,-0.200,0.127,0.580,5.154,-98.009,9.893
09:48:13:306,36.076,-0.264,0.057,0.585,5.276,-99.583,11.067
09:48:13:307,36.076,-0.270,0.072,0.600,5.286,-100.334,11.527
09:48:13:33,36.100,-0.298,0.203,0.662,5.194,-100.952,11.780
09:48:13:331,36.101,-0.288,0.120,0.653,5.115,-101.899,11.647
09:48:13:332,36.102,-0.278,-0.008,0.590,4.961,-101.370,10.982
09:48:13:333,36.103,-0.177,-0.205,0.496,4.668,-100.327,9.688
09:48:13:562,36.332,-0.123,-0.189,0.443,4.414,-98.555,8.458
09:48:13:563,36.333,-0.043,-0.074,0.379,4.148,-95.918,6.146
09:48:13:882,36.652,-0.020,0.007,0.339,4.146,-93.551,4.355
09:48:13:883,36.653,0.025,0.126,0.265,4.491,-89.974,1.415
09:48:13:884,36.654,0.026,0.098,0.172,5.369,-86.418,-1.708
09:48:13:885,36.655,0.092,0.143,0.087,6.262,-84.361,-3.880
09:48:14:066,36.835,0.118,0.139,-0.001,7.906,-81.911,-7.294
09:48:14:066,36.836,0.183,0.133,-0.086,9.100,-80.708,-9.684
09:48:14:067,36.837,0.196,0.092,-0.147,10.946,-79.475,-13.454
09:48:14:068,36.838,0.196,0.001,-0.222,12.734,-78.802,-17.397
09:48:14:136,36.906,0.196,-0.049,-0.259,13.855,-78.625,-20.070
09:48:14:197,36.966,0.190,-0.103,-0.277,15.332,-78.788,-24.167
09:48:14:198,36.967,0.188,-0.126,-0.313,16.183,-79.111,-26.937
09:48:14:199,36.968,0.205,-0.145,-0.359,17.305,-79.589,-30.886
09:48:14:276,37.046,0.145,-0.090,-0.407,19.164,-79.505,-36.029
09:48:14:277,37.047,0.104,-0.086,-0.476,20.321,-78.916,-37.938
09:48:14:278,37.048,0.049,-0.110,-0.480,20.933,-78.257,-38.665
09:48:14:279,37.049,-0.006,-0.116,-0.439,21.456,-77.522,-38.932
09:48:14:382,37.151,-0.009,-0.078,-0.530,21.491,-76.937,-38.643
09:48:14:383,37.152,0.013,-0.040,-0.557,20.874,-76.771,-37.546
09:48:14:383,37.153,0.016,0.031,-0.534,19.539,-76.991,-35.720
09:48:14:384,37.154,0.000,-0.054,-0.374,18.392,-77.885,-34.210
09:48:14:403,37.173,-0.020,-0.086,-0.303,16.521,-79.226,-31.835
09:48:14:404,37.174,0.075,-0.070,-0.050,9.289,-90.769,-18.536
09:48:14:46,37.230,0.018,-0.022,0.061,8.081,-93.929,-15.282
09:48:14:461,37.231,-0.024,0.027,0.166,7.221,-96.350,-11.647
09:48:14:462,37.232,-0.050,0.031,0.226,6.846,-97.184,-8.968
09:48:14:669,37.439,-0.186,0.033,0.428,6.316,-98.291,7.566
09:48:14:67,37.440,-0.169,0.033,0.465,6.291,-98.575,9.830
09:48:14:671,37.441,-0.213,0.019,0.539,6.254,-99.109,10.969
09:48:14:672,37.442,-0.217,-0.067,0.566,6.099,-99.142,12.825
09:48:14:774,37.543,-0.193,-0.073,0.556,6.080,-99.067,12.885
09:48:14:774,37.544,-0.197,0.079,0.627,6.049,-99.050,12.522
09:48:14:774,37.544,-0.180,0.125,0.669,5.986,-98.672,12.067
09:48:14:853,37.623,-0.165,0.181,0.691,5.811,-97.300,11.075
09:48:14:854,37.624,-0.117,-0.025,0.545,5.669,-94.797,9.576
09:48:14:855,37.625,-0.029,-0.087,0.450,5.608,-92.689,8.206
09:48:14:985,37.754,0.121,0.109,0.297,5.908,-84.952,2.683
09:48:14:986,37.755,0.187,0.336,0.219,6.310,-82.141,0.552
09:48:14:986,37.756,0.228,0.363,0.096,7.455,-77.953,-2.711
09:48:14:987,37.757,0.234,0.311,-0.003,8.594,-75.392,-4.930
09:48:15:037,37.807,0.238,0.175,-0.159,10.688,-72.342,-8.485
09:48:15:038,37.808,0.203,0.085,-0.242,12.904,-70.730,-12.493
09:48:15:038,37.808,0.222,0.057,-0.299,14.282,-70.360,-15.441
09:48:15:04,37.810,0.250,-0.004,-0.352,16.100,-70.502,-20.134
09:48:15:063,37.833,0.261,-0.070,-0.397,17.185,-70.776,-23.296
09:48:15:064,37.834,0.240,-0.127,-0.419,18.720,-71.146,-27.895
09:48:15:065,37.835,0.203,-0.196,-0.419,20.204,-71.279,-32.149
09:48:15:065,37.835,0.150,-0.252,-0.425,21.163,-71.192,-34.717
09:48:15:168,37.938,0.126,-0.280,-0.442,22.551,-70.791,-38.080
09:48:15:169,37.939,0.094,-0.275,-0.483,23.791,-70.135,-40.716
09:48:15:17,37.939,0.059,-0.239,-0.513,24.484,-69.561,-41.953
09:48:15:17,37.940,0.011,-0.228,-0.541,25.129,-68.574,-42.939
09:48:15:379,38.149,-0.025,-0.222,-0.509,25.114,-67.964,-43.050
09:48:15:38,38.149,-0.053,-0.178,-0.511,24.319,-67.180,-42.338
09:48:15:38,38.149,-0.092,-0.034,-0.516,22.682,-66.575,-40.525
09:48:15:38,38.150,-0.144,0.034,-0.437,21.313,-66.261,-38.690
09:48:15:667,38.437,-0.139,0.092,-0.407,19.120,-65.994,-35.163
09:48:15:667,38.437,-0.117,-0.036,-0.221,16.912,-66.257,-30.966
09:48:15:668,38.438,-0.127,-0.076,-0.159,15.482,-66.735,-28.044
09:48:15:669,38.439,-0.109,-0.016,-0.079,13.505,-67.767,-23.709
09:48:15:715,38.485,-0.037,0.198,-0.140,12.399,-68.359,-20.818
09:48:15:716,38.486,0.012,0.168,-0.095,11.123,-69.049,-16.548
09:48:15:746,38.515,0.050,0.140,-0.021,10.185,-69.768,-12.474
09:48:15:747,38.516,0.040,0.079,0.072,9.608,-70.456,-9.943
09:48:15:747,38.517,0.008,0.050,0.168,8.745,-71.948,-6.469
09:48:15:748,38.518,0.005,0.038,0.285,8.228,-73.100,-4.328
09:48:15:845,38.615,0.012,0.043,0.327,7.613,-74.704,-1.342
09:48:15:957,38.727,0.024,0.014,0.406,7.148,-75.990,1.397
09:48:15:957,38.727,0.010,-0.040,0.444,6.902,-76.524,3.093
09:48:15:957,38.727,-0.003,-0.086,0.454,6.583,-76.774,5.372
09:48:15:958,38.728,-0.021,-0.120,0.466,6.312,-76.783,7.253
09:48:16:034,38.804,-0.019,-0.133,0.477,6.156,-76.623,8.251
09:48:16:035,38.805,-0.015,-0.104,0.482,6.396,-76.611,7.665
09:48:16:036,38.806,0.016,-0.050,0.506,6.294,-76.339,8.128
09:48:16:036,38.806,0.060,0.060,0.519,6.159,-75.747,8.466
09:48:16:086,38.856,0.068,0.095,0.511,6.050,-74.670,8.433
09:48:16:086,38.856,0.070,0.094,0.484,5.993,-73.987,8.187
09:48:16:087,38.857,0.081,0.084,0.454,5.911,-72.660,7.474
09:48:16:114,38.883,0.282,0.190,0.038,8.308,-51.777,-3.209
09:48:16:115,38.884,0.293,0.300,-0.073,9.817,-47.008,-4.850
09:48:16:116,38.885,0.266,0.306,-0.233,11.796,-42.351,-6.423
09:48:16:116,38.886,0.260,0.238,-0.307,13.297,-39.604,-7.508
09:48:16:219,38.989,0.193,0.074,-0.330,15.630,-36.519,-9.517
09:48:16:219,38.989,0.155,-0.004,-0.374,17.144,-35.065,-11.229
09:48:16:22,38.990,0.138,-0.027,-0.424,19.347,-33.929,-14.387
09:48:16:245,39.015,0.079,-0.127,-0.530,22.695,-33.109,-20.866
09:48:16:245,39.015,-0.052,-0.127,-0.562,24.439,-32.879,-25.080
09:48:16:246,39.016,-0.038,-0.212,-0.550,27.203,-32.755,-31.732
09:48:16:247,39.016,-0.112,-0.234,-0.552,28.563,-32.427,-35.375
09:48:16:349,39.119,-0.205,-0.210,-0.560,29.296,-32.024,-37.545
09:48:16:35,39.120,-0.248,-0.214,-0.568,30.124,-31.303,-40.267
09:48:16:351,39.121,-0.275,-0.231,-0.534,30.448,-30.783,-41.665
09:48:16:352,39.122,-0.301,-0.209,-0.474,28.167,-29.246,-41.159
09:48:16:403,39.173,-0.363,-0.184,-0.387,27.213,-28.483,-41.833
09:48:16:404,39.174,-0.386,-0.148,-0.353,26.189,-27.958,-41.705
09:48:16:405,39.175,-0.402,-0.076,-0.348,24.098,-27.313,-40.538
09:48:16:535,39.305,-0.268,-0.105,0.032,19.249,-27.320,-35.890
09:48:16:535,39.305,-0.206,-0.104,0.176,16.512,-27.868,-32.061
09:48:16:535,39.305,-0.221,-0.101,0.167,15.053,-28.131,-29.380
09:48:16:536,39.306,-0.245,0.084,0.045,13.244,-28.185,-25.177
09:48:16:589,39.359,-0.275,0.267,-0.113,12.074,-28.040,-22.227
09:48:16:589,39.359,-0.133,0.166,-0.043,10.744,-28.459,-17.965
09:48:16:59,39.360,-0.113,0.154,0.052,9.895,-28.914,-15.229
09:48:16:59,39.360,-0.042,0.159,0.093,8.719,-30.285,-11.471
09:48:16:613,39.382,0.046,0.076,0.212,7.936,-32.283,-8.200
09:48:16:614,39.383,0.145,0.118,0.271,7.461,-33.624,-6.202
09:48:16:614,39.384,0.164,0.045,0.304,7.132,-35.224,-3.365
09:48:16:615,39.385,0.240,0.002,0.289,6.966,-35.876,-1.524
09:48:16:639,39.409,0.264,-0.061,0.288,6.774,-36.424,1.189
09:48:16:64,39.409,0.296,-0.065,0.273,6.720,-36.014,3.759
09:48:16:64,39.409,0.302,-0.066,0.270,6.706,-35.909,5.254
09:48:16:641,39.410,0.318,-0.083,0.267,6.694,-35.234,7.187
09:48:16:683,39.453,0.332,-0.105,0.279,6.694,-34.998,8.136
09:48:16:711,39.481,0.362,-0.052,0.289,6.700,-34.691,8.392
09:48:16:711,39.481,0.407,0.020,0.315,6.571,-34.202,8.907
09:48:16:792,39.562,0.432,0.051,0.312,6.436,-33.738,8.997
09:48:16:793,39.563,0.425,0.065,0.300,6.149,-32.838,8.757
09:48:16:794,39.564,0.422,0.125,0.311,5.901,-32.119,8.323
09:48:16:979,39.749,0.439,0.189,0.310,5.446,-30.676,7.301
09:48:16:98,39.750,0.453,0.243,0.278,4.977,-28.539,5.891
09:48:16:981,39.751,0.414,0.203,0.250,4.723,-26.625,4.723
09:48:16:981,39.751,0.312,-0.084,0.152,4.539,-23.168,2.512
09:48:17:006,39.775,0.242,-0.130,0.026,4.564,-20.573,0.716
09:48:17:006,39.776,0.204,-0.035,-0.020,4.859,-16.473,-2.384
09:48:17:007,39.776,0.123,0.137,-0.065,5.601,-12.190,-5.639
09:48:17:007,39.777,0.057,0.311,-0.123,6.444,-9.351,-7.714
09:48:17:11,39.880,-0.030,0.400,-0.204,8.318,-5.403,-10.528
09:48:17:111,39.881,-0.076,0.352,-0.230,9.861,-3.174,-12.228
09:48:17:111,39.881,-0.134,0.143,-0.256,12.333,-0.695,-14.755
09:48:17:112,39.882,-0.203,0.017,-0.265,14.656,0.863,-17.525
09:48:17:157,39.927,-0.217,-0.049,-0.290,16.108,1.491,-19.568
09:48:17:157,39.927,-0.259,-0.090,-0.335,18.210,2.042,-22.910
09:48:17:18,39.950,-0.331,-0.133,-0.370,19.554,2.218,-25.315
09:48:17:207,39.976,-0.362,-0.185,-0.357,21.454,2.171,-29.114
09:48:17:235,40.004,-0.383,-0.247,-0.317,23.149,1.862,-32.979
09:48:17:26,40.029,-0.393,-0.282,-0.285,24.121,1.612,-35.487
09:48:17:314,40.084,-0.412,-0.318,-0.288,25.288,1.197,-38.995
09:48:17:315,40.085,-0.426,-0.298,-0.267,25.835,0.939,-41.030
09:48:17:365,40.135,-0.460,-0.274,-0.256,26.306,0.684,-43.406
09:48:17:498,40.268,-0.507,-0.258,-0.236,26.333,0.596,-44.469
09:48:17:788,40.558,-0.508,-0.236,-0.202,25.747,0.554,-45.128
09:48:17:788,40.558,-0.494,-0.173,-0.110,24.399,0.634,-44.540
09:48:17:943,40.712,-0.503,-0.103,-0.074,23.174,0.706,-43.473
09:48:18:056,40.826,-0.520,-0.030,-0.072,20.944,0.678,-40.950
09:48:18:056,40.826,-0.493,0.083,-0.070,19.252,0.452,-38.684
09:48:18:057,40.827,-0.378,0.116,-0.009,16.632,-0.264,-34.419
09:48:18:058,40.828,-0.190,-0.015,0.108,14.420,-1.277,-29.650
09:48:18:081,40.851,-0.138,-0.024,0.112,13.212,-1.977,-26.461
09:48:18:082,40.852,-0.141,0.089,0.050,11.772,-2.935,-21.898
09:48:18:083,40.853,-0.168,0.187,-0.051,11.065,-3.473,-19.062
09:48:18:084,40.854,-0.110,0.243,-0.081,10.142,-4.355,-15.015
09:48:18:163,40.932,-0.009,0.180,-0.043,9.314,-5.857,-11.295
09:48:18:163,40.933,0.068,0.085,-0.004,8.793,-7.392,-9.063
09:48:18:163,40.933,0.181,0.063,0.020,8.042,-10.383,-6.062
09:48:18:164,40.933,0.262,0.018,0.082,7.662,-12.511,-4.199
09:48:18:293,41.063,0.367,0.019,0.136,7.299,-15.094,-1.490
09:48:18:293,41.063,0.396,-0.004,0.141,7.140,-16.433,1.198
09:48:18:293,41.063,0.422,-0.014,0.141,7.080,-16.737,2.998
09:48:18:294,41.064,0.401,-0.038,0.182,7.173,-16.608,3.348
09:48:18:468,41.237,0.386,-0.096,0.203,7.134,-16.326,4.902
09:48:18:554,41.324,0.391,-0.126,0.206,7.079,-15.971,6.770
09:48:18:555,41.325,0.433,-0.107,0.207,6.967,-15.736,8.001
09:48:18:555,41.325,0.461,-0.049,0.219,6.852,-15.577,8.484
09:48:18:582,41.351,0.473,0.026,0.184,6.638,-14.893,8.733
09:48:18:582,41.352,0.449,0.240,0.126,5.790,-12.330,5.243
09:48:18:583,41.353,0.470,0.389,0.110,5.531,-10.795,3.323
09:48:18:584,41.353,0.349,0.082,0.071,5.506,-9.027,1.932
09:48:18:627,41.397,0.279,-0.018,0.004,5.724,-5.852,-0.487
09:48:18:628,41.398,0.174,-0.008,-0.077,6.169,-2.154,-3.330
09:48:18:651,41.420,0.103,0.095,-0.116,6.622,0.423,-5.424
09:48:18:713,41.483,0.010,0.248,-0.172,7.639,4.409,-8.697
09:48:18:714,41.484,-0.079,0.334,-0.224,8.615,7.122,-10.842
09:48:18:715,41.485,-0.170,0.313,-0.253,10.633,11.156,-13.846
09:48:18:738,41.508,-0.352,0.088,-0.253,14.959,16.573,-18.679
09:48:18:739,41.509,-0.430,-0.033,-0.230,17.491,18.540,-21.905
09:48:18:739,41.509,-0.452,-0.087,-0.243,19.024,19.180,-24.280
09:48:18:74,41.510,-0.483,-0.150,-0.261,21.055,19.360,-28.123
09:48:18:817,41.586,-0.482,-0.193,-0.249,22.238,19.133,-30.786
09:48:18:818,41.587,-0.496,-0.256,-0.237,23.826,18.616,-34.702
09:48:18:819,41.588,-0.492,-0.292,-0.200,25.229,18.151,-38.302
09:48:18:87,41.640,-0.536,-0.304,-0.108,26.442,18.410,-43.648
09:48:18:871,41.641,-0.529,-0.301,-0.089,26.621,18.798,-45.022
09:48:18:872,41.642,-0.478,-0.252,-0.021,26.092,19.496,-45.258
09:48:18:872,41.642,-0.430,-0.210,0.046,25.393,20.202,-44.758
09:48:18:915,41.685,-0.383,-0.119,0.163,24.302,21.643,-43.153
09:48:19:133,41.903,-0.548,-0.088,0.120,23.634,22.626,-41.681
09:48:19:133,41.903,-0.581,-0.089,0.036,22.123,23.451,-38.995
09:48:19:135,41.904,-0.478,0.001,0.054,19.642,22.992,-35.715
09:48:19:135,41.905,-0.356,0.154,0.121,17.760,22.450,-33.019
09:48:19:158,41.928,-0.122,0.132,0.210,15.357,21.720,-28.344
09:48:19:159,41.928,-0.090,0.242,0.163,14.137,21.296,-25.079
09:48:19:16,41.929,-0.046,0.158,0.060,12.932,20.753,-20.358
09:48:19:161,41.930,-0.088,0.147,0.001,12.190,20.573,-15.993
09:48:19:238,42.008,-0.053,0.115,-0.007,11.795,20.350,-13.303
09:48:19:239,42.009,0.053,0.061,0.004,11.249,19.541,-9.710
09:48:19:239,42.009,0.179,0.034,-0.038,10.900,17.909,-7.599
09:48:19:24,42.010,0.242,0.017,-0.050,10.436,16.334,-4.763
09:48:19:264,42.034,0.325,0.012,-0.088,10.087,14.227,-2.228
09:48:19:264,42.034,0.376,0.019,-0.075,9.944,13.467,-0.642
09:48:19:264,42.034,0.429,-0.007,-0.073,9.877,12.584,1.618
09:48:19:265,42.035,0.444,-0.043,-0.067,9.888,12.789,3.052
09:48:19:313,42.083,0.436,-0.106,-0.066,9.891,13.409,4.943
09:48:19:314,42.084,0.419,-0.125,-0.065,9.871,14.109,5.932
09:48:19:315,42.085,0.409,-0.126,-0.084,9.787,15.096,6.847
09:48:19:526,42.295,0.416,-0.108,-0.108,9.664,15.952,7.173
09:48:19:527,42.296,0.426,-0.059,-0.144,9.556,16.701,7.119
09:48:19:527,42.297,0.416,-0.030,-0.161,9.360,18.022,6.727
09:48:19:528,42.298,0.396,0.060,-0.190,9.243,19.042,6.304
09:48:19:605,42.375,0.379,0.159,-0.213,9.040,20.832,5.519
09:48:19:606,42.376,0.343,0.136,-0.227,8.904,22.864,4.559
09:48:19:606,42.376,0.303,0.163,-0.234,8.837,24.290,3.744
09:48:19:607,42.377,0.255,0.218,-0.252,8.707,26.582,2.274
09:48:19:631,42.401,0.212,0.286,-0.284,8.649,28.257,1.139
09:48:19:632,42.402,0.193,0.279,-0.258,8.619,31.158,-0.737
09:48:19:633,42.403,0.086,-0.046,-0.209,8.814,34.680,-2.859
09:48:19:634,42.404,0.009,-0.106,-0.217,9.078,37.201,-4.510
09:48:19:712,42.481,-0.120,-0.029,-0.208,9.623,41.037,-7.297
09:48:19:712,42.481,-0.239,0.160,-0.208,10.113,43.591,-9.205
09:48:19:712,42.482,-0.300,0.238,-0.190,11.172,47.401,-11.828
09:48:19:713,42.482,-0.372,0.195,-0.182,12.812,51.274,-13.938
09:48:19:737,42.506,-0.397,0.063,-0.143,14.066,53.948,-15.034
09:48:19:737,42.506,-0.406,-0.070,-0.122,15.930,57.890,-16.214
09:48:19:737,42.507,-0.425,-0.141,-0.133,17.071,60.318,-16.776
09:48:19:738,42.508,-0.439,-0.159,-0.139,18.617,63.608,-17.442
09:48:19:816,42.586,-0.437,-0.139,-0.203,19.557,65.611,-17.866
09:48:19:816,42.586,-0.412,-0.140,-0.248,20.887,68.415,-18.704
09:48:19:816,42.586,-0.478,-0.015,-0.382,22.004,71.127,-20.153
09:48:19:816,42.586,-0.428,0.076,-0.357,22.591,73.230,-21.506
09:48:19:831,42.601,-0.420,0.160,-0.344,23.574,76.899,-24.143
09:48:19:886,42.656,-0.458,0.189,-0.272,24.925,80.634,-27.543
09:48:19:888,42.657,-0.491,0.239,-0.248,25.975,82.928,-30.170
09:48:19:941,42.711,-0.411,0.352,-0.143,28.041,86.572,-34.392
09:48:19:941,42.711,-0.426,0.437,0.015,29.949,89.215,-37.418
09:48:19:963,42.732,-0.416,0.440,0.055,33.835,93.260,-42.292
09:48:19:989,42.759,-0.305,0.464,0.168,38.933,97.397,-47.325
09:48:20:015,42.785,-0.275,0.434,0.282,43.084,100.164,-50.739
09:48:20:07,42.840,-0.344,0.316,0.390,50.528,104.069,-55.862
09:48:20:071,42.841,-0.267,0.199,0.442,56.020,106.627,-59.039
09:48:20:126,42.896,-0.161,0.180,0.512,64.130,110.035,-63.697
09:48:20:126,42.896,-0.051,-0.010,0.461,71.928,112.436,-68.722
09:48:20:174,42.944,-0.066,-0.268,0.502,76.788,113.751,-72.289
09:48:20:204,42.974,0.007,-0.424,0.455,83.278,114.435,-78.496
09:48:20:204,42.974,0.257,-0.431,0.291,88.584,112.191,-86.817
09:48:20:225,42.995,0.153,-0.320,0.279,91.552,108.298,-94.087
09:48:20:283,43.052,0.030,-0.409,0.197,95.636,97.381,-109.056
09:48:20:283,43.052,0.303,-0.491,-0.024,97.966,84.887,-123.842
09:48:20:363,43.133,0.175,-0.381,-0.083,100.824,61.080,-150.601
09:48:20:364,43.134,0.123,-0.322,-0.025,102.339,48.312,-165.185
09:48:20:364,43.134,0.089,-0.306,-0.037,104.112,36.511,-179.461
09:48:20:415,43.185,0.127,-0.285,-0.110,105.339,27.920,169.695
09:48:20:415,43.185,0.153,-0.234,-0.114,105.838,23.850,164.244
09:48:20:495,43.264,0.108,-0.161,-0.028,106.348,20.829,159.408
09:48:20:495,43.265,0.110,-0.167,-0.064,106.642,19.991,157.518
09:48:20:495,43.265,0.099,-0.177,-0.075,106.977,19.141,155.234
09:48:20:573,43.343,0.077,-0.095,-0.008,107.211,19.079,153.888
09:48:20:575,43.345,0.046,-0.032,0.021,107.405,19.287,153.317
09:48:20:575,43.345,0.070,-0.023,-0.061,107.797,19.927,152.873
09:48:20:592,43.362,0.087,0.064,-0.101,108.066,20.197,152.500
09:48:20:758,43.528,0.021,0.103,-0.018,108.450,21.318,152.888
09:48:20:758,43.528,-0.043,0.137,0.037,108.927,23.071,154.089
09:48:20:758,43.528,0.015,0.146,-0.055,109.152,24.117,154.705
09:48:20:785,43.555,0.087,0.125,-0.158,109.150,26.675,156.555
09:48:20:786,43.556,-0.139,0.127,0.086,109.044,28.997,158.447
09:48:20:787,43.557,-0.139,0.119,0.086,108.792,32.110,160.822
09:48:20:788,43.558,-0.067,0.032,-0.060,108.330,33.333,162.077
09:48:20:865,43.635,-0.117,-0.060,-0.023,107.951,34.261,162.095
09:48:20:866,43.635,-0.128,-0.094,0.050,107.383,33.585,161.021
09:48:20:866,43.635,-0.136,-0.074,0.038,107.038,33.949,160.455
09:48:20:867,43.636,-0.142,-0.068,-0.001,106.520,34.076,160.291
09:48:20:908,43.677,-0.139,-0.085,0.005,106.645,37.679,162.802
09:48:20:964,43.734,-0.113,-0.069,0.006,106.657,38.995,164.446
09:48:20:965,43.735,-0.085,0.005,0.046,106.095,41.713,166.019
09:48:21:076,43.845,-0.008,0.032,0.073,105.622,42.495,166.794
09:48:21:076,43.846,0.026,-0.025,0.012,105.087,44.182,167.202
09:48:21:076,43.846,0.032,-0.105,-0.050,104.701,44.597,167.477
09:48:21:077,43.846,0.002,-0.030,0.013,104.505,45.355,167.744
09:48:21:096,43.865,0.005,-0.015,0.010,104.371,45.327,167.973
09:48:21:096,43.865,0.002,-0.065,-0.010,104.369,45.597,167.996
09:48:21:176,43.946,-0.002,-0.100,-0.085,104.354,44.223,167.245
09:48:21:176,43.946,-0.016,-0.008,-0.038,104.275,43.652,166.627
09:48:21:199,43.969,-0.028,-0.007,-0.023,104.156,42.729,166.185
09:48:21:2,43.970,-0.031,0.037,-0.041,104.042,42.198,166.339
09:48:21:253,44.022,0.010,0.050,-0.087,103.912,41.555,165.757
09:48:21:253,44.023,-0.009,0.054,-0.047,103.616,39.604,164.445
09:48:21:363,44.133,-0.053,0.143,0.050,103.245,39.205,164.284
09:48:21:364,44.134,-0.092,0.222,0.069,103.039,39.025,164.359
09:48:21:364,44.134,-0.036,0.189,-0.008,102.804,37.927,163.555
09:48:21:365,44.135,0.039,0.103,-0.057,102.630,37.837,163.775
09:48:21:439,44.209,0.039,0.137,0.127,102.281,39.740,166.390
09:48:21:439,44.209,0.023,0.045,0.159,102.063,41.428,168.562
09:48:21:44,44.209,0.021,-0.031,0.110,101.708,41.934,169.549
09:48:21:459,44.229,0.027,-0.083,0.081,101.318,40.050,168.096
09:48:21:485,44.255,0.053,-0.091,0.085,101.120,38.754,167.209
09:48:21:512,44.282,0.052,-0.089,0.068,101.012,37.689,167.319
09:48:21:537,44.307,0.040,-0.043,0.081,101.030,38.230,168.574
09:48:21:564,44.334,0.029,-0.019,0.102,101.160,39.392,171.043
09:48:21:592,44.362,0.059,-0.079,0.027,101.384,40.467,173.262
09:48:21:618,44.387,0.043,-0.117,0.001,101.539,41.102,174.872
09:48:21:643,44.412,0.036,-0.078,0.009,101.702,42.689,177.383
09:48:21:669,44.439,0.060,-0.082,-0.005,101.824,43.420,178.763
09:48:21:725,44.495,0.086,-0.097,-0.058,102.052,44.390,-179.502
09:48:21:726,44.496,0.087,-0.099,-0.046,102.260,45.666,-177.455
09:48:21:749,44.519,0.077,-0.076,-0.012,102.396,46.819,-175.831
09:48:21:775,44.544,0.062,-0.070,0.006,102.673,48.437,-173.577
09:48:21:855,44.625,0.084,-0.047,-0.031,102.901,49.168,-172.542
09:48:21:913,44.683,0.117,-0.057,-0.066,103.279,50.145,-171.001
09:48:21:914,44.684,0.127,-0.057,-0.087,103.537,51.690,-169.129
09:48:21:915,44.685,0.093,-0.005,-0.096,103.909,55.364,-164.822
09:48:21:916,44.686,0.016,0.006,-0.120,104.219,60.538,-159.015
09:48:21:932,44.702,-0.039,-0.042,-0.117,104.341,64.676,-154.599
09:48:21:958,44.727,-0.024,-0.088,-0.187,104.276,71.618,-147.390
09:48:22:013,44.783,-0.086,-0.045,-0.049,103.748,80.787,-137.893
09:48:22:014,44.783,-0.157,0.066,0.019,103.314,87.514,-130.841
09:48:22:065,44.835,-0.144,0.171,0.026,102.556,95.359,-122.360
09:48:22:066,44.836,-0.117,0.160,0.017,101.986,99.224,-118.119
09:48:22:09,44.860,-0.075,0.133,-0.028,101.226,104.408,-112.836
09:48:22:144,44.914,0.033,0.198,-0.100,100.906,107.566,-110.047
09:48:22:145,44.915,0.103,0.155,-0.140,100.611,111.531,-107.039
09:48:22:168,44.937,0.163,-0.033,-0.193,100.216,114.578,-104.760
09:48:22:309,45.079,0.165,-0.271,-0.197,99.674,116.266,-103.098
09:48:22:309,45.079,0.187,-0.401,-0.153,98.162,118.641,-99.925
09:48:22:31,45.080,0.202,-0.474,-0.051,96.499,120.035,-97.319
09:48:22:311,45.081,0.207,-0.500,0.028,92.731,121.710,-92.766
09:48:22:328,45.098,0.201,-0.550,0.135,87.250,122.766,-87.414
09:48:22:33,45.099,0.192,-0.565,0.180,82.679,123.317,-83.317
09:48:22:408,45.178,0.182,-0.566,0.305,74.696,124.004,-76.314
09:48:22:409,45.178,0.088,-0.306,0.465,68.833,124.393,-71.119
09:48:22:463,45.233,-0.022,-0.155,0.494,59.904,124.808,-62.909
09:48:22:464,45.234,0.024,-0.172,0.507,51.320,125.308,-54.150
09:48:22:464,45.234,0.051,-0.124,0.645,45.879,125.381,-48.025
09:48:22:512,45.282,-0.015,0.378,0.752,38.108,124.513,-38.546
09:48:22:512,45.282,-0.084,0.690,0.709,33.518,123.118,-32.262
09:48:22:536,45.305,-0.504,0.989,0.633,27.960,119.592,-23.542
09:48:22:62,45.390,-0.691,0.710,0.465,24.095,113.977,-16.599
09:48:22:621,45.391,-0.650,0.606,0.252,22.362,109.109,-13.399
09:48:22:621,45.391,-0.401,0.494,-0.047,20.592,101.425,-10.307
09:48:22:721,45.490,-0.352,0.524,-0.039,19.625,97.110,-8.966
09:48:22:756,45.525,-0.269,0.319,-0.146,17.947,92.245,-7.544
09:48:22:756,45.526,-0.140,-0.146,-0.269,16.119,88.625,-6.634
09:48:22:756,45.526,-0.115,-0.187,-0.309,14.818,86.873,-6.112
09:48:22:757,45.526,-0.188,-0.133,-0.296,13.479,84.699,-5.583
09:48:22:801,45.571,-0.261,-0.036,-0.280,12.769,83.406,-5.266
09:48:22:801,45.571,-0.284,0.016,-0.233,11.985,81.423,-4.515
09:48:22:826,45.596,-0.243,-0.083,-0.240,11.607,78.568,-3.408
09:48:22:938,45.708,-0.194,-0.162,-0.290,11.490,75.928,-2.602
09:48:22:939,45.709,-0.072,-0.180,-0.368,11.440,71.302,-1.407
09:48:22:94,45.709,0.057,-0.202,-0.385,11.407,68.280,-0.631
09:48:22:941,45.710,0.114,-0.186,-0.381,11.203,64.519,0.549
09:48:22:984,45.753,0.175,-0.172,-0.367,10.429,62.099,1.732
09:48:23:013,45.783,0.186,-0.134,-0.352,9.540,61.312,2.503
09:48:23:014,45.784,0.192,-0.083,-0.331,7.797,61.029,3.470
09:48:23:015,45.785,0.236,0.010,-0.308,6.412,61.960,3.883
09:48:23:034,45.804,0.299,0.033,-0.236,4.514,62.280,4.147
09:48:23:09,45.859,0.336,0.085,-0.196,3.486,63.119,4.131
09:48:23:09,45.860,0.391,0.131,-0.213,2.110,62.629,3.962
09:48:23:114,45.884,0.536,0.131,-0.217,0.877,62.580,3.722
09:48:23:139,45.909,0.571,0.137,-0.180,0.175,62.428,3.456
09:48:23:195,45.965,0.580,0.237,-0.177,-0.611,62.913,2.823
09:48:23:196,45.966,0.545,0.343,-0.161,-0.919,63.526,2.241
09:48:23:306,46.076,0.494,0.354,-0.154,-0.971,65.700,1.055
09:48:23:307,46.076,0.377,0.086,-0.084,-0.586,68.125,-0.590
09:48:23:308,46.077,0.267,-0.115,-0.062,-0.143,69.717,-1.901
09:48:23:308,46.078,0.171,-0.057,0.009,0.780,73.453,-4.026
09:48:23:41,46.180,0.080,0.121,-0.043,1.727,75.985,-5.313
09:48:23:411,46.181,-0.192,-0.091,-0.185,4.289,81.953,-6.305
09:48:23:411,46.181,-0.066,0.152,0.183,6.684,89.662,-6.242
09:48:23:412,46.182,-0.011,0.217,0.102,7.861,92.865,-6.190
09:48:23:43,46.200,-0.149,0.120,-0.017,9.681,94.088,-6.118
09:48:23:483,46.253,-0.240,0.052,-0.075,10.975,94.100,-6.275
09:48:23:484,46.253,-0.297,-0.017,-0.153,13.052,93.133,-7.201
09:48:23:507,46.276,-0.322,-0.097,-0.086,15.289,92.382,-8.898
09:48:23:591,46.361,-0.336,-0.138,-0.014,16.747,92.068,-10.368
09:48:23:592,46.362,-0.321,-0.167,0.037,18.777,91.445,-13.060
09:48:23:592,46.362,-0.328,-0.185,0.087,19.973,90.859,-15.147
09:48:23:611,46.381,-0.364,-0.195,0.091,21.445,89.676,-18.549
09:48:23:697,46.466,-0.388,-0.164,0.105,22.531,88.400,-21.994
09:48:23:697,46.467,-0.384,-0.132,0.140,23.077,87.763,-24.134
09:48:23:698,46.467,-0.382,-0.084,0.240,23.746,87.262,-26.962
09:48:23:718,46.487,-0.395,-0.023,0.332,24.079,87.149,-28.523
09:48:23:772,46.542,-0.374,0.001,0.378,24.309,87.034,-30.321
09:48:23:772,46.542,-0.289,-0.039,0.368,23.977,86.772,-31.460
09:48:23:795,46.565,-0.214,-0.018,0.376,23.414,86.544,-31.794
09:48:23:821,46.591,-0.179,0.032,0.391,22.175,86.096,-31.601
09:48:23:906,46.675,-0.199,0.084,0.406,21.123,85.653,-31.024
09:48:23:907,46.676,-0.097,-0.043,0.295,19.221,84.631,-29.536
09:48:23:907,46.677,0.005,-0.171,0.219,17.864,83.700,-28.239
09:48:23:955,46.725,0.079,-0.271,0.174,15.799,82.003,-26.160
09:48:23:956,46.726,0.051,-0.074,0.120,13.917,80.290,-23.940
09:48:23:981,46.751,-0.069,0.084,0.160,12.966,79.447,-22.353
09:48:24:006,46.776,-0.103,0.146,0.158,11.907,78.745,-19.692
09:48:24:062,46.832,-0.050,0.107,0.096,11.303,78.252,-17.779
09:48:24:063,46.832,0.021,0.059,0.022,10.367,77.156,-14.795
09:48:24:114,46.884,0.087,0.028,-0.048,9.453,75.881,-11.831
09:48:24:114,46.884,0.105,0.016,-0.096,8.958,75.108,-9.886
09:48:24:195,46.965,0.114,0.010,-0.178,8.325,74.282,-7.023
09:48:24:196,46.966,0.139,0.015,-0.234,7.951,74.070,-5.126
09:48:24:197,46.967,0.152,-0.016,-0.256,7.506,74.290,-2.345
09:48:24:305,47.075,0.153,-0.015,-0.243,7.304,74.859,-0.298
09:48:24:305,47.075,0.153,-0.023,-0.262,7.109,75.264,1.236
09:48:24:305,47.075,0.170,-0.052,-0.282,6.859,75.701,3.295
09:48:24:306,47.076,0.161,-0.074,-0.318,6.909,75.795,3.874
09:48:24:35,47.120,0.161,-0.042,-0.324,7.232,75.775,3.474
09:48:24:35,47.120,0.168,0.055,-0.384,7.202,76.230,4.613
09:48:24:402,47.171,0.150,0.128,-0.404,7.243,76.780,5.205
09:48:24:403,47.172,0.122,0.150,-0.396,7.389,77.815,5.762
09:48:24:454,47.224,0.075,0.236,-0.377,7.559,78.431,5.755
09:48:24:455,47.225,0.033,0.284,-0.400,7.845,79.067,5.309
09:48:24:478,47.247,-0.006,0.367,-0.456,8.071,79.523,4.087
09:48:24:563,47.333,0.018,0.231,-0.420,8.169,80.262,3.001
09:48:24:563,47.333,-0.041,-0.143,-0.324,8.250,82.388,1.009
09:48:24:563,47.333,-0.070,-0.225,-0.282,8.252,84.101,-0.565
09:48:24:67,47.440,-0.098,-0.180,-0.225,8.272,87.227,-3.210
09:48:24:671,47.440,-0.136,-0.013,-0.184,8.421,90.973,-5.922
09:48:24:672,47.441,-0.208,0.104,-0.133,8.680,93.942,-7.525
09:48:24:672,47.442,-0.265,0.233,-0.060,9.409,99.113,-9.273
09:48:24:689,47.459,-0.328,0.261,0.004,10.281,102.851,-9.890
09:48:24:744,47.514,-0.248,0.102,0.030,12.239,108.484,-10.062
09:48:24:744,47.514,-0.287,0.016,0.044,14.569,113.729,-10.002
09:48:24:766,47.536,-0.269,-0.072,0.158,16.156,116.906,-10.067
09:48:24:795,47.564,-0.338,-0.102,0.238,18.514,120.525,-10.435
09:48:24:82,47.589,-0.367,-0.117,0.274,20.094,122.976,-10.877
09:48:24:845,47.615,-0.423,-0.128,0.345,22.462,125.020,-11.972
09:48:24:871,47.641,-0.416,-0.102,0.417,24.813,126.300,-13.703
09:48:24:927,47.697,-0.367,-0.119,0.443,26.394,126.442,-15.231
09:48:24:928,47.698,-0.344,-0.113,0.472,28.504,126.488,-17.929
09:48:24:981,47.750,-0.342,-0.036,0.478,29.622,125.905,-19.892
09:48:24:981,47.751,-0.319,-0.046,0.528,30.786,125.015,-22.999
09:48:25:061,47.831,-0.252,-0.049,0.562,31.269,124.224,-26.121
09:48:25:061,47.831,-0.191,-0.038,0.587,31.267,124.021,-28.097
09:48:25:084,47.854,-0.096,-0.028,0.552,30.858,123.636,-30.713
09:48:25:085,47.855,-0.020,-0.045,0.556,30.389,123.829,-32.060
09:48:25:275,48.045,0.004,-0.066,0.544,29.299,123.886,-33.396
09:48:25:276,48.046,0.068,-0.112,0.343,27.696,124.378,-33.692
09:48:25:277,48.047,0.138,-0.208,0.155,26.530,124.456,-33.386
09:48:25:277,48.047,0.214,-0.388,0.023,24.825,124.960,-32.627
09:48:25:381,48.150,0.181,-0.327,0.071,23.699,124.989,-31.952
09:48:25:381,48.151,0.143,-0.196,0.229,21.971,125.273,-30.549
09:48:25:381,48.151,0.113,-0.040,0.301,20.078,125.708,-28.436
09:48:25:382,48.151,0.097,0.019,0.272,18.764,125.973,-26.619
09:48:25:431,48.201,0.119,0.057,0.121,16.751,126.813,-23.453
09:48:25:431,48.201,0.133,0.072,0.012,15.533,126.888,-21.144
09:48:25:432,48.202,0.110,0.053,-0.007,14.023,127.448,-17.554
09:48:25:453,48.223,0.025,0.076,-0.042,12.727,127.460,-13.926
09:48:25:454,48.224,0.000,0.106,-0.106,11.953,127.664,-11.440
09:48:25:537,48.307,-0.022,0.142,-0.206,11.056,128.027,-7.686
09:48:25:538,48.308,-0.052,0.102,-0.241,10.628,128.451,-5.210
09:48:25:539,48.308,-0.096,0.054,-0.300,10.147,129.119,-1.665
09:48:25:54,48.309,-0.120,0.008,-0.351,9.848,129.987,1.530
09:48:25:557,48.327,-0.139,-0.013,-0.355,9.740,130.528,3.347
09:48:25:558,48.327,-0.185,-0.021,-0.354,9.701,131.612,5.545
09:48:25:661,48.431,-0.256,0.045,-0.337,9.729,132.117,6.660
09:48:25:689,48.459,-0.300,0.089,-0.339,9.847,133.013,7.863
09:48:25:72,48.490,-0.350,0.101,-0.333,10.004,133.613,8.550
09:48:25:721,48.490,-0.368,0.095,-0.325,10.129,134.392,8.726
09:48:25:722,48.491,-0.416,0.165,-0.322,10.270,134.862,8.591
09:48:25:723,48.492,-0.439,0.186,-0.305,10.302,135.704,8.277
09:48:25:818,48.588,-0.440,0.197,-0.302,10.418,136.811,7.481
09:48:25:906,48.676,-0.383,-0.041,-0.267,10.448,138.537,6.773
09:48:25:906,48.676,-0.365,-0.177,-0.165,10.405,141.137,5.375
09:48:25:906,48.676,-0.361,-0.191,-0.050,10.335,144.951,3.514
09:48:25:907,48.677,-0.361,-0.091,-0.005,10.342,147.296,2.095
09:48:25:927,48.697,-0.344,0.069,0.061,10.566,151.214,-0.060
09:48:25:928,48.698,-0.329,0.192,0.141,10.917,154.077,-1.356
09:48:25:948,48.717,-0.312,0.104,0.252,13.225,163.287,-3.599
09:48:26:002,48.772,-0.290,0.017,0.275,14.301,166.345,-3.874
09:48:26:029,48.799,-0.248,-0.046,0.320,15.948,170.618,-4.340
09:48:26:03,48.800,-0.194,-0.033,0.433,17.089,173.248,-4.889
09:48:26:053,48.823,-0.110,-0.032,0.500,18.886,176.886,-6.223
09:48:26:138,48.908,0.022,-0.051,0.563,20.776,179.921,-8.355
09:48:26:139,48.908,0.104,-0.051,0.545,22.039,-178.500,-10.234
09:48:26:14,48.909,0.195,-0.046,0.489,23.868,-177.022,-13.789
09:48:26:185,48.955,0.238,-0.044,0.465,24.929,-176.635,-16.628
09:48:26:214,48.984,0.267,-0.030,0.449,26.211,-176.680,-21.348
09:48:26:215,48.985,0.347,-0.013,0.439,27.143,-176.852,-26.146
09:48:26:236,49.006,0.392,0.015,0.407,27.658,-176.858,-29.158
09:48:26:321,49.091,0.475,-0.035,0.342,28.403,-176.568,-33.111
09:48:26:322,49.091,0.517,-0.151,0.252,28.813,-176.278,-35.276
09:48:26:323,49.092,0.549,-0.186,0.186,29.029,-175.849,-37.628
09:48:26:536,49.305,0.538,-0.182,0.077,28.517,-175.559,-38.633
09:48:26:536,49.305,0.507,-0.123,0.072,27.692,-175.513,-38.459
09:48:26:536,49.306,0.379,-0.090,0.023,25.789,-175.788,-37.121
09:48:26:537,49.306,0.249,-0.231,-0.100,24.377,-176.128,-35.750
09:48:26:642,49.412,0.223,-0.274,-0.115,22.367,-176.917,-33.464
09:48:26:642,49.412,0.294,-0.190,-0.022,20.478,-177.696,-31.022
09:48:26:642,49.412,0.325,-0.099,0.026,19.300,-177.999,-29.214
09:48:26:643,49.413,0.304,0.057,0.066,17.593,-178.191,-26.044
09:48:26:738,49.508,0.252,0.083,0.029,16.519,-178.385,-23.670
09:48:26:791,49.561,0.123,0.065,0.003,14.971,-179.355,-19.949
09:48:26:792,49.562,0.055,0.023,0.004,14.011,179.528,-17.482
09:48:26:876,49.645,-0.027,0.055,0.018,12.697,178.430,-13.695
09:48:26:877,49.646,-0.131,0.098,-0.028,11.689,177.228,-9.756
09:48:26:877,49.647,-0.231,0.100,-0.039,11.267,176.003,-7.046
09:48:26:878,49.648,-0.298,0.057,-0.053,10.961,174.897,-2.965
09:48:26:902,49.671,-0.362,0.023,-0.068,10.895,174.149,-0.325
09:48:26:903,49.672,-0.385,-0.021,-0.089,10.891,173.804,3.338
09:48:26:903,49.673,-0.430,-0.014,-0.089,10.945,173.125,6.432
09:48:26:904,49.674,-0.459,0.002,-0.093,10.992,173.355,8.113
09:48:27:165,49.935,-0.496,0.043,-0.069,11.036,172.753,10.020
09:48:27:165,49.935,-0.521,0.085,-0.054,11.045,172.879,10.887
09:48:27:166,49.936,-0.554,0.076,-0.065,11.009,172.230,11.634
09:48:27:167,49.937,-0.572,0.030,-0.095,10.907,172.096,11.793
09:48:27:191,49.961,-0.590,0.075,-0.087,10.787,171.717,11.630
09:48:27:192,49.962,-0.611,0.131,-0.080,10.565,171.660,11.058
09:48:27:193,49.963,-0.612,0.140,-0.075,10.367,171.662,10.477
09:48:27:194,49.964,-0.541,0.008,-0.079,10.023,172.629,9.296
09:48:27:323,50.093,-0.452,-0.162,-0.013,9.632,174.175,7.646
09:48:27:323,50.093,-0.413,-0.140,0.026,9.349,175.859,6.257
09:48:27:323,50.093,-0.340,-0.021,0.085,9.010,178.691,3.741
09:48:27:324,50.094,-0.261,0.154,0.145,8.909,-179.162,1.848
09:48:27:395,50.165,-0.212,0.158,0.156,9.046,-175.766,-1.183
09:48:27:48,50.249,-0.128,0.228,0.188,9.587,-172.159,-4.249
09:48:27:48,50.250,-0.058,0.217,0.181,10.195,-169.735,-6.255
09:48:27:481,50.251,0.043,0.162,0.183,11.421,-166.298,-9.176
09:48:27:482,50.251,0.100,0.108,0.215,12.395,-164.307,-11.137
09:48:27:506,50.276,0.182,0.041,0.243,13.913,-161.860,-14.194
09:48:27:507,50.277,0.258,-0.019,0.232,15.504,-159.873,-17.393
09:48:27:507,50.277,0.295,-0.070,0.203,16.629,-158.797,-19.585
09:48:27:508,50.278,0.343,-0.132,0.187,18.335,-157.601,-22.942
09:48:27:584,50.354,0.416,-0.269,0.386,19.420,-157.133,-25.226
09:48:27:585,50.355,0.411,-0.237,0.145,20.819,-156.902,-28.601
09:48:27:586,50.356,0.429,-0.110,0.179,22.282,-156.795,-31.607
09:48:27:587,50.357,0.472,-0.136,0.093,23.416,-156.562,-33.360
09:48:27:612,50.381,0.498,-0.129,0.049,24.906,-156.387,-35.393
09:48:27:612,50.382,0.511,-0.152,0.049,25.481,-156.442,-36.303
09:48:27:613,50.382,0.429,-0.152,0.018,25.454,-156.795,-36.949
09:48:27:613,50.383,0.409,-0.073,-0.059,24.620,-157.110,-36.660
09:48:27:663,50.432,0.427,0.020,-0.081,23.914,-157.211,-35.907
09:48:27:663,50.433,0.436,0.005,-0.022,22.793,-157.497,-34.018
09:48:27:664,50.434,0.350,-0.007,-0.019,21.857,-158.015,-32.312
09:48:27:665,50.434,0.180,-0.119,-0.092,20.123,-159.106,-29.145
09:48:27:767,50.537,0.100,-0.088,-0.123,18.995,-159.927,-26.816
09:48:27:768,50.538,0.111,-0.006,-0.097,17.664,-160.780,-23.155
09:48:27:769,50.539,0.151,0.113,0.037,16.580,-161.199,-19.396
09:48:27:769,50.539,0.108,0.151,0.119,15.916,-161.437,-16.923
09:48:27:875,50.645,0.052,0.073,0.102,15.028,-162.114,-13.428
09:48:27:875,50.645,-0.012,0.041,0.096,14.514,-162.776,-11.228
09:48:27:875,50.645,-0.082,0.028,0.096,13.828,-164.049,-8.092
09:48:27:875,50.645,-0.248,0.051,0.126,13.259,-165.537,-5.018
09:48:27:89,50.660,-0.318,0.028,0.125,12.990,-166.398,-2.932
09:48:28:058,50.828,-0.348,-0.010,0.073,12.680,-167.099,0.265
09:48:28:059,50.829,-0.370,-0.034,0.040,12.477,-167.127,2.483
09:48:28:059,50.829,-0.442,-0.074,0.027,12.168,-166.668,5.842
09:48:28:06,50.830,-0.456,-0.090,0.041,11.817,-166.791,8.990
09:48:28:162,50.932,-0.479,-0.130,0.070,11.660,-166.223,10.227
09:48:28:163,50.932,-0.503,-0.110,0.034,11.457,-165.980,11.563
09:48:28:164,50.933,-0.506,-0.046,0.045,11.412,-165.431,11.745
09:48:28:241,51.011,-0.534,-0.002,0.040,11.247,-164.522,12.718
09:48:28:242,51.011,-0.504,-0.042,0.044,11.280,-164.622,12.311
09:48:28:243,51.012,-0.499,0.024,0.125,11.302,-164.143,11.067
09:48:28:244,51.014,-0.511,0.140,0.174,11.307,-164.296,9.903
09:48:28:372,51.142,-0.464,0.294,0.249,11.324,-163.582,7.880
09:48:28:373,51.142,-0.411,0.246,0.208,11.457,-162.318,5.771
09:48:28:374,51.143,-0.320,0.075,0.205,11.611,-161.096,4.333
09:48:28:375,51.144,-0.256,-0.064,0.255,11.896,-158.629,2.071
09:48:28:629,51.399,-0.179,0.000,0.277,12.158,-156.499,0.478
09:48:28:74,51.509,-0.106,0.083,0.294,12.771,-152.702,-2.049
09:48:28:74,51.510,-0.001,0.147,0.299,13.664,-148.329,-4.525
09:48:28:741,51.511,0.082,0.235,0.308,14.427,-145.232,-6.061
09:48:28:742,51.512,0.198,0.215,0.287,15.866,-140.502,-8.085
09:48:28:766,51.536,0.261,0.130,0.267,17.003,-137.514,-9.314
09:48:28:767,51.536,0.331,0.059,0.236,18.821,-133.674,-11.275
09:48:28:767,51.537,0.400,0.020,0.176,20.067,-131.745,-12.867
09:48:28:768,51.538,0.407,-0.035,0.135,22.071,-129.387,-15.527
09:48:28:81,51.580,0.463,-0.108,0.128,24.109,-127.898,-18.686
09:48:28:845,51.615,0.490,-0.121,0.121,25.314,-127.302,-20.991
09:48:28:845,51.615,0.522,-0.150,0.082,26.931,-126.723,-24.542
09:48:28:846,51.616,0.482,-0.172,0.053,27.899,-126.482,-26.903
09:48:28:847,51.617,0.509,-0.223,-0.039,29.110,-126.169,-30.272
09:48:28:95,51.720,0.509,-0.172,-0.047,29.909,-125.959,-33.409
09:48:28:951,51.720,0.549,-0.159,-0.068,30.343,-125.681,-35.247
09:48:28:951,51.721,0.572,-0.199,-0.203,30.896,-124.811,-37.231
09:48:28:952,51.722,0.456,-0.173,-0.267,30.955,-124.223,-38.040
09:48:28:976,51.745,0.365,-0.140,-0.290,30.626,-123.370,-38.464
09:48:28:977,51.746,0.366,-0.096,-0.315,29.834,-122.604,-38.020
09:48:28:978,51.747,0.363,-0.108,-0.298,28.861,-122.313,-37.228
09:48:28:978,51.748,0.296,-0.065,-0.292,26.349,-122.273,-34.827
09:48:29:157,51.927,0.126,-0.091,-0.265,24.419,-122.221,-32.981
09:48:29:158,51.928,0.025,-0.089,-0.198,21.436,-122.818,-29.620
09:48:29:159,51.928,0.041,-0.032,-0.160,18.870,-122.859,-25.767
09:48:29:238,52.008,0.095,0.091,-0.118,17.460,-122.804,-22.979
09:48:29:239,52.009,0.124,0.128,-0.112,15.682,-122.525,-18.622
09:48:29:24,52.010,0.093,0.115,-0.036,14.582,-122.733,-15.671
09:48:29:24,52.010,0.011,0.119,0.020,13.066,-123.464,-11.243
09:48:29:337,52.107,-0.117,0.137,0.156,11.846,-125.002,-6.918
09:48:29:338,52.108,-0.188,0.140,0.226,11.239,-125.859,-4.097
09:48:29:449,52.219,-0.260,0.120,0.272,10.597,-127.436,0.054
09:48:29:449,52.219,-0.364,0.058,0.320,10.126,-128.022,3.971
09:48:29:45,52.220,-0.410,-0.002,0.331,9.859,-128.265,6.345
09:48:29:451,52.221,-0.454,-0.085,0.296,9.465,-127.912,9.404
09:48:29:529,52.298,-0.444,-0.083,0.275,9.189,-127.616,11.042
09:48:29:529,52.299,-0.428,-0.158,0.325,8.826,-126.663,12.888
09:48:29:53,52.299,-0.415,-0.133,0.361,8.574,-126.293,13.756
09:48:29:531,52.300,-0.357,-0.054,0.462,8.253,-125.112,14.550
09:48:29:843,52.613,-0.332,0.009,0.513,8.055,-123.743,14.834
09:48:29:843,52.613,-0.328,-0.031,0.495,7.980,-123.246,14.758
09:48:29:843,52.613,-0.316,-0.030,0.483,7.878,-121.945,14.210
09:48:29:844,52.614,-0.299,0.059,0.537,7.662,-121.086,13.177
09:48:29:921,52.690,-0.298,0.179,0.563,7.439,-120.229,12.297
09:48:29:922,52.691,-0.295,0.201,0.558,7.125,-118.307,10.780
09:48:29:922,52.692,-0.236,0.084,0.487,7.004,-116.517,9.611
09:48:29:923,52.693,-0.102,-0.091,0.425,6.883,-113.130,7.532
09:48:29:999,52.769,0.002,-0.043,0.388,6.860,-110.512,5.901
09:48:30:,52.770,0.111,0.087,0.352,7.074,-106.237,3.189
09:48:30:001,52.771,0.148,0.202,0.257,7.828,-101.728,0.442
09:48:30:002,52.772,0.195,0.245,0.205,8.705,-98.763,-1.346
09:48:30:017,52.787,0.229,0.254,0.145,10.412,-94.619,-3.992
09:48:30:131,52.901,0.264,0.209,0.048,11.687,-92.091,-5.723
09:48:30:131,52.901,0.288,0.175,0.024,13.618,-89.002,-8.459
09:48:30:132,52.902,0.334,0.090,-0.061,15.459,-86.532,-11.566
09:48:30:133,52.903,0.374,0.025,-0.104,16.731,-85.180,-13.828
09:48:30:211,52.981,0.387,-0.052,-0.194,18.746,-83.485,-17.501
09:48:30:211,52.981,0.384,-0.116,-0.295,20.124,-82.597,-20.101
09:48:30:212,52.982,0.354,-0.160,-0.351,22.157,-81.643,-24.106
09:48:30:212,52.982,0.344,-0.207,-0.382,24.005,-81.202,-28.119
09:48:30:238,53.007,0.323,-0.222,-0.366,25.110,-81.077,-30.714
09:48:30:238,53.007,0.289,-0.188,-0.416,26.570,-80.826,-34.252
09:48:30:238,53.007,0.270,-0.165,-0.470,27.403,-80.520,-36.231
09:48:30:238,53.008,0.264,-0.164,-0.532,28.244,-79.893,-38.478
09:48:30:393,53.163,0.185,-0.167,-0.546,28.390,-79.169,-39.856
09:48:30:394,53.164,0.137,-0.169,-0.563,28.054,-78.631,-40.274
09:48:30:395,53.165,0.062,-0.052,-0.617,26.840,-77.848,-40.024
09:48:30:395,53.165,0.073,0.057,-0.679,25.494,-77.471,-39.210
09:48:30:493,53.262,-0.035,0.014,-0.479,22.673,-77.464,-36.972
09:48:30:494,53.263,-0.132,-0.131,-0.292,19.718,-78.415,-33.973
09:48:30:517,53.287,-0.162,-0.254,-0.156,17.843,-79.308,-31.822
09:48:30:569,53.339,-0.101,-0.189,-0.191,15.372,-80.466,-28.673
09:48:30:677,53.446,-0.065,-0.079,-0.245,13.924,-81.026,-26.613
09:48:30:678,53.447,-0.042,0.066,-0.269,11.895,-81.869,-23.369
09:48:30:814,53.583,0.008,0.228,-0.194,9.745,-83.324,-19.760
09:48:30:814,53.584,-0.028,0.136,-0.090,8.560,-84.654,-17.211
09:48:30:815,53.585,-0.096,0.140,0.058,7.194,-87.062,-13.067
09:48:30:816,53.585,-0.131,0.045,0.151,6.595,-88.742,-10.229
09:48:31:102,53.872,-0.097,0.045,0.201,5.868,-90.978,-5.920
09:48:31:103,53.873,-0.097,0.010,0.316,5.478,-92.672,-1.628
09:48:31:104,53.874,-0.132,-0.001,0.342,5.376,-93.451,1.158
09:48:31:104,53.874,-0.126,-0.035,0.372,5.365,-94.452,5.016
09:48:31:176,53.945,-0.131,-0.020,0.476,5.388,-95.289,7.339
09:48:31:176,53.945,-0.185,-0.006,0.558,5.478,-96.712,10.396
09:48:31:208,53.978,-0.216,0.025,0.602,5.558,-97.596,12.095
09:48:31:209,53.978,-0.223,0.022,0.605,5.604,-98.606,14.125
09:48:31:209,53.978,-0.243,0.018,0.654,5.506,-99.503,15.565
09:48:31:209,53.979,-0.244,0.025,0.660,5.384,-99.871,16.121
09:48:31:254,54.023,-0.227,0.074,0.697,5.153,-100.575,16.278
09:48:31:254,54.024,-0.206,0.221,0.728,4.948,-100.677,15.941
09:48:31:286,54.056,-0.202,0.236,0.649,4.550,-100.387,14.834
09:48:31:287,54.057,-0.177,-0.119,0.488,4.206,-99.550,12.972
09:48:31:288,54.058,-0.133,-0.313,0.423,3.962,-98.753,11.241
09:48:31:366,54.135,-0.078,0.005,0.335,3.363,-95.814,5.283
09:48:31:366,54.135,-0.009,0.190,0.294,3.164,-93.252,1.040
09:48:31:367,54.136,0.047,0.306,0.210,3.470,-90.025,-3.127
09:48:31:367,54.137,0.060,0.325,0.105,4.013,-87.620,-5.713
09:48:31:393,54.162,0.065,0.217,-0.040,5.383,-84.036,-9.180
09:48:31:393,54.162,0.099,0.128,-0.049,6.528,-81.960,-11.229
09:48:31:393,54.162,0.141,-0.146,-0.384,19.699,-76.011,-31.689
09:48:31:393,54.163,0.144,-0.115,-0.433,20.765,-76.309,-33.939
09:48:31:435,54.204,0.132,-0.092,-0.479,21.202,-76.537,-35.124
09:48:31:47,54.240,0.086,-0.087,-0.464,21.298,-76.762,-36.267
09:48:31:47,54.240,0.012,-0.074,-0.429,20.723,-77.285,-36.530
09:48:31:471,54.241,-0.009,-0.029,-0.458,20.020,-77.351,-36.253
09:48:31:472,54.242,0.027,0.013,-0.514,18.594,-78.040,-35.125
09:48:31:496,54.266,0.053,0.027,-0.526,17.416,-78.409,-33.889
09:48:31:496,54.266,0.021,-0.114,-0.344,15.363,-80.091,-31.430
09:48:31:497,54.267,-0.045,-0.141,-0.229,13.247,-82.241,-28.673
09:48:31:498,54.268,-0.037,-0.087,-0.206,11.908,-83.497,-26.790
09:48:31:575,54.345,-0.005,0.043,-0.214,10.177,-85.197,-23.861
09:48:31:576,54.345,0.041,0.106,-0.164,9.208,-86.269,-21.755
09:48:31:577,54.346,0.043,0.062,-0.104,7.998,-88.064,-18.368
09:48:31:577,54.347,0.021,-0.017,-0.025,6.994,-90.319,-14.741
09:48:31:656,54.426,-0.019,-0.003,0.048,6.396,-92.213,-12.242
09:48:31:656,54.426,-0.073,0.046,0.155,5.647,-94.983,-8.407
09:48:31:656,54.426,-0.088,0.077,0.227,5.306,-96.775,-5.799
09:48:31:656,54.426,-0.115,0.054,0.335,5.000,-98.677,-1.801
09:48:31:671,54.441,-0.196,-0.011,0.369,4.852,-99.917,2.145
09:48:31:778,54.548,-0.192,-0.037,0.378,4.775,-100.254,4.585
09:48:31:83,54.600,-0.195,-0.017,0.419,4.668,-101.242,7.787
09:48:32:016,54.786,-0.240,-0.031,0.478,4.586,-101.657,9.605
09:48:32:017,54.787,-0.274,-0.050,0.495,4.403,-102.292,11.834
09:48:32:154,54.923,-0.283,-0.033,0.544,4.146,-102.500,13.435
09:48:32:154,54.924,-0.283,-0.016,0.568,3.948,-102.472,14.190
09:48:32:154,54.924,-0.268,-0.006,0.578,3.674,-102.192,14.871
09:48:32:155,54.924,-0.237,0.095,0.644,3.573,-102.002,14.993
09:48:32:18,54.949,-0.222,0.156,0.657,3.469,-101.705,14.651
09:48:32:18,54.949,-0.238,0.195,0.661,3.363,-101.108,13.643
