Time,Second,AccelerationX,AccelerationY,AccelerationZ,EulerAnglesX,EulerAnglesY,EulerAnglesZ
10:06:56:186,0.000,0.008,-0.006,0.020,2.550,7.826,-4.307
10:06:56:186,0.001,0.007,-0.003,0.006,2.563,7.791,-4.314
10:06:56:186,0.001,0.007,-0.001,0.011,2.571,7.790,-4.320
10:06:56:186,0.001,0.006,0.002,0.001,2.578,7.790,-4.327
10:06:56:262,0.076,0.002,-0.007,0.004,2.606,7.789,-4.324
10:06:56:262,0.076,-0.003,-0.010,0.002,2.621,7.788,-4.337
10:06:56:262,0.076,-0.003,-0.005,0.007,2.624,7.770,-4.334
10:06:56:369,0.183,0.004,-0.001,0.011,2.627,7.753,-4.337
10:06:56:369,0.183,0.009,0.001,0.013,2.637,7.742,-4.333
10:06:56:369,0.183,0.016,-0.003,0.034,2.660,7.790,-4.337
10:06:56:369,0.183,0.015,-0.004,0.075,2.664,7.898,-4.367
10:06:56:473,0.287,0.096,-0.022,0.206,2.644,8.241,-4.467
10:06:56:473,0.287,0.202,0.035,0.290,2.697,8.684,-4.562
10:06:56:474,0.288,0.386,0.139,0.252,3.311,9.831,-4.925
10:06:56:475,0.289,0.421,0.202,0.148,4.099,10.956,-5.492
10:06:56:573,0.387,0.372,0.231,0.101,5.732,13.289,-6.899
10:06:56:573,0.388,0.348,0.267,0.000,8.036,16.421,-9.024
10:06:56:658,0.472,0.286,0.277,-0.069,10.088,18.866,-10.785
10:06:56:658,0.472,0.202,0.355,-0.099,13.883,22.712,-13.994
10:06:56:658,0.472,0.129,0.397,-0.186,16.981,25.222,-16.396
10:06:56:659,0.473,-0.043,0.320,-0.198,22.883,29.659,-19.982
10:06:56:677,0.491,-0.271,0.188,-0.184,30.033,35.046,-22.997
10:06:56:677,0.491,-0.300,0.150,-0.196,34.910,38.225,-24.868
10:06:56:727,0.541,-0.353,-0.032,-0.117,42.164,42.251,-27.494
10:06:56:755,0.570,-0.339,-0.171,-0.079,46.584,44.427,-29.140
10:06:56:756,0.570,-0.307,-0.250,0.000,52.389,46.404,-31.876
10:06:56:78,0.594,-0.232,-0.184,-0.089,57.217,47.246,-34.864
10:06:56:834,0.648,-0.217,-0.170,-0.076,60.105,47.751,-36.645
10:06:56:86,0.674,-0.182,-0.279,0.015,63.881,48.673,-38.823
10:06:56:861,0.675,-0.149,-0.362,0.038,65.957,48.949,-40.231
10:06:56:964,0.778,-0.127,-0.315,-0.020,68.329,48.956,-42.245
10:06:57:023,0.837,-0.099,-0.164,-0.063,70.039,49.146,-43.685
10:06:57:023,0.837,-0.084,-0.228,0.031,70.929,49.668,-44.168
10:06:57:051,0.865,-0.067,-0.261,0.091,71.871,50.218,-44.833
10:06:57:052,0.866,-0.072,-0.164,0.003,72.208,50.257,-45.336
10:06:57:052,0.866,-0.062,-0.117,-0.008,72.400,50.148,-45.998
10:06:57:053,0.867,-0.047,-0.132,0.015,72.329,50.268,-46.334
10:06:57:071,0.885,-0.036,-0.101,0.017,72.129,50.468,-46.317
10:06:57:071,0.885,-0.042,-0.052,0.045,71.694,50.816,-46.056
10:06:57:181,0.995,-0.023,-0.025,0.007,71.374,50.758,-46.057
10:06:57:182,0.996,-0.031,0.011,-0.010,70.799,50.969,-45.676
10:06:57:183,0.997,-0.025,0.050,0.036,70.227,51.687,-44.857
10:06:57:183,0.997,-0.038,0.091,-0.011,69.899,52.006,-44.477
10:06:57:228,1.042,-0.021,0.047,0.030,69.548,52.361,-44.164
10:06:57:228,1.042,0.011,0.013,0.019,69.339,52.091,-44.462
10:06:57:338,1.153,0.021,-0.004,-0.004,69.007,51.368,-45.111
10:06:57:339,1.153,0.016,-0.161,0.104,68.675,51.021,-45.338
10:06:57:34,1.155,0.011,-0.291,0.204,68.262,50.071,-45.632
10:06:57:341,1.155,-0.032,-0.513,0.264,66.722,47.692,-46.722
10:06:57:358,1.172,-0.126,-0.594,0.186,64.710,45.045,-47.640
10:06:57:412,1.226,-0.205,-0.578,0.127,59.830,40.411,-48.502
10:06:57:412,1.226,-0.315,-0.436,0.011,55.214,37.053,-48.405
10:06:57:435,1.249,-0.329,-0.073,-0.233,46.628,31.821,-46.972
10:06:57:462,1.276,-0.195,0.086,-0.301,38.130,26.943,-44.072
10:06:57:514,1.329,-0.211,-0.020,-0.219,33.496,24.489,-41.387
10:06:57:541,1.356,-0.351,-0.055,-0.110,27.953,21.725,-36.208
10:06:57:627,1.441,-0.368,0.073,-0.148,24.754,20.020,-32.028
10:06:57:628,1.442,-0.358,0.273,-0.256,20.140,16.973,-25.062
10:06:57:629,1.443,-0.096,0.585,-0.264,15.787,12.674,-17.807
10:06:57:63,1.444,0.026,0.723,-0.245,13.526,9.422,-12.966
10:06:57:645,1.459,0.181,0.495,-0.269,11.375,4.924,-6.249
10:06:57:729,1.544,0.264,0.263,-0.130,10.401,2.191,-2.626
10:06:57:73,1.544,0.317,0.136,0.012,9.188,-1.118,1.329
10:06:57:731,1.545,0.164,0.079,0.028,7.903,-2.223,3.681
10:06:57:808,1.622,0.154,0.098,-0.040,6.811,-2.774,4.434
10:06:57:809,1.623,0.298,0.065,-0.018,5.057,-4.370,4.659
10:06:57:81,1.624,0.333,0.033,0.019,3.924,-5.615,4.477
10:06:57:916,1.730,0.373,-0.048,0.096,2.319,-7.227,3.993
10:06:57:917,1.731,0.114,-0.077,0.301,1.046,-8.017,3.443
10:06:57:917,1.732,0.068,-0.101,0.441,0.727,-8.409,3.252
10:06:57:918,1.732,0.077,0.015,0.502,0.616,-9.692,3.299
10:06:57:936,1.750,0.175,0.053,0.316,0.705,-10.246,3.476
10:06:57:989,1.803,0.184,0.073,0.230,0.868,-10.176,3.893
10:06:57:99,1.804,0.137,0.036,0.121,1.011,-9.438,4.045
10:06:58:043,1.857,0.060,-0.030,0.060,1.087,-8.678,3.905
10:06:58:043,1.857,-0.050,-0.039,0.004,1.284,-7.541,3.442
10:06:58:095,1.910,-0.141,0.028,-0.020,1.450,-7.157,3.126
10:06:58:095,1.910,-0.128,0.025,-0.013,1.818,-7.605,2.756
10:06:58:148,1.962,-0.080,-0.027,-0.061,2.279,-8.892,2.488
10:06:58:148,1.962,-0.113,-0.034,-0.064,2.547,-10.069,2.321
10:06:58:197,2.011,-0.128,0.019,-0.085,2.857,-12.059,2.232
10:06:58:227,2.041,-0.089,0.061,-0.085,3.021,-13.543,2.350
10:06:58:227,2.041,-0.085,0.068,-0.081,3.267,-15.892,2.768
10:06:58:279,2.093,-0.057,0.077,-0.020,3.548,-18.368,3.712
10:06:58:279,2.093,-0.029,0.012,-0.008,3.779,-19.948,4.645
10:06:58:301,2.115,-0.011,-0.066,0.002,4.146,-22.029,6.455
10:06:58:328,2.142,0.024,-0.093,0.011,4.386,-23.280,7.905
10:06:58:384,2.198,0.064,-0.039,0.012,4.769,-25.109,10.401
10:06:58:384,2.198,0.130,-0.005,0.027,5.080,-26.351,12.265
10:06:58:407,2.221,0.203,0.055,0.093,5.674,-27.940,15.458
10:06:58:435,2.249,0.283,0.054,0.174,6.411,-29.599,19.000
10:06:58:485,2.300,0.329,0.061,0.248,6.926,-30.541,21.494
10:06:58:517,2.331,0.417,0.085,0.413,7.634,-31.663,25.294
10:06:58:517,2.331,0.404,0.057,0.448,8.056,-32.149,27.736
10:06:58:596,2.410,0.481,0.035,0.479,8.790,-32.713,31.217
10:06:58:596,2.410,0.710,0.069,0.626,9.490,-33.019,34.363
10:06:58:597,2.411,0.671,0.046,0.596,9.768,-32.845,36.150
10:06:58:618,2.432,0.606,-0.110,0.619,9.983,-32.440,38.276
10:06:58:696,2.510,0.641,-0.189,0.636,9.841,-31.753,39.499
10:06:58:726,2.540,0.502,-0.302,0.481,9.420,-31.046,39.630
10:06:58:726,2.540,0.395,-0.450,0.334,8.660,-29.746,38.815
10:06:58:808,2.622,0.545,-0.357,0.283,8.085,-28.717,37.733
10:06:58:809,2.623,0.720,-0.218,0.238,7.181,-26.750,35.398
10:06:58:81,2.624,0.739,-0.011,0.110,6.325,-23.965,32.185
10:06:58:811,2.625,0.668,0.082,0.061,5.775,-21.758,29.506
10:06:58:884,2.698,0.476,0.216,0.043,5.268,-18.305,24.791
10:06:58:885,2.699,0.347,0.172,0.037,5.216,-16.096,21.394
10:06:58:886,2.700,0.305,0.059,-0.014,5.483,-13.154,16.070
10:06:58:905,2.719,0.327,0.053,-0.032,5.794,-11.332,12.335
10:06:58:961,2.775,0.262,0.116,-0.115,6.426,-8.338,6.511
10:06:58:962,2.776,0.097,0.164,-0.167,7.469,-5.201,0.413
10:06:58:984,2.798,-0.059,0.150,-0.220,8.569,-3.205,-3.686
10:06:59:011,2.825,-0.155,0.102,-0.263,10.798,-0.714,-9.818
10:06:59:067,2.881,-0.286,0.101,-0.292,13.564,0.995,-15.846
10:06:59:067,2.881,-0.389,0.118,-0.311,15.603,1.610,-19.815
10:06:59:089,2.903,-0.503,0.154,-0.377,18.777,1.885,-25.414
10:06:59:115,2.929,-0.580,0.107,-0.424,20.865,1.866,-28.626
10:06:59:172,2.986,-0.716,0.061,-0.516,23.555,1.694,-32.309
10:06:59:172,2.986,-0.661,-0.056,-0.462,25.161,1.090,-34.417
10:06:59:252,3.066,-0.495,-0.206,-0.283,25.497,0.609,-35.014
10:06:59:253,3.067,-0.387,-0.289,-0.100,25.183,0.141,-35.020
10:06:59:254,3.068,-0.516,-0.271,-0.137,24.629,0.160,-34.568
10:06:59:272,3.086,-0.756,-0.203,-0.235,23.506,0.434,-33.335
10:06:59:301,3.115,-0.780,-0.169,-0.279,21.754,0.380,-31.207
10:06:59:387,3.202,-0.632,0.042,-0.294,20.259,-0.094,-29.311
10:06:59:387,3.202,-0.490,0.091,-0.240,18.150,-0.816,-25.863
10:06:59:387,3.202,-0.419,-0.029,-0.139,16.979,-1.090,-23.097
10:06:59:388,3.203,-0.330,-0.066,-0.112,15.566,-1.262,-18.265
10:06:59:403,3.218,-0.203,0.044,-0.165,14.773,-1.284,-14.698
10:06:59:459,3.273,-0.144,0.095,-0.132,13.693,-1.248,-9.126
10:06:59:46,3.274,-0.028,0.092,-0.031,12.741,-1.099,-3.379
10:06:59:483,3.297,0.055,-0.016,0.100,12.271,-0.893,0.487
10:06:59:596,3.410,0.220,-0.169,0.123,11.841,-0.852,6.048
10:06:59:596,3.411,0.297,-0.185,0.145,11.709,-1.053,9.449
10:06:59:597,3.412,0.460,-0.053,0.108,11.681,-1.366,14.070
10:06:59:598,3.413,0.571,0.042,0.129,11.863,-1.381,18.036
10:06:59:674,3.488,0.606,-0.032,0.148,12.132,-1.262,20.338
10:06:59:674,3.488,0.675,-0.081,0.146,12.796,-1.297,23.204
10:06:59:674,3.488,0.710,-0.223,0.094,13.439,-1.568,24.715
10:06:59:694,3.508,0.703,-0.275,0.074,14.592,-2.241,26.329
10:06:59:75,3.564,0.764,-0.268,0.014,15.831,-3.217,26.977
10:06:59:75,3.564,1.089,0.147,-0.073,16.560,-3.672,26.914
10:06:59:859,3.673,1.285,0.482,-0.313,17.007,-2.860,26.285
10:06:59:859,3.673,1.276,0.605,-0.493,16.763,-1.021,25.665
10:06:59:86,3.674,1.074,0.502,-0.619,15.867,3.858,24.340
10:06:59:861,3.675,0.563,0.586,-0.600,14.505,10.880,21.947
10:06:59:877,3.691,0.265,0.387,-0.464,13.748,15.739,19.396
10:06:59:955,3.770,0.045,-0.062,-0.301,13.248,21.926,14.181
10:06:59:988,3.803,-0.021,-0.147,-0.340,13.313,25.419,10.143
10:06:59:988,3.803,-0.101,-0.121,-0.387,14.129,29.982,3.704
10:06:59:989,3.803,-0.194,-0.084,-0.473,15.851,33.994,-2.643
10:07:00:037,3.851,-0.280,-0.109,-0.473,17.524,36.636,-6.475
10:07:00:037,3.851,-0.434,-0.105,-0.424,20.797,40.397,-11.416
10:07:00:06,3.874,-0.651,0.147,-0.403,23.344,42.580,-14.204
10:07:00:088,3.902,-0.922,0.333,-0.341,27.468,45.479,-17.607
10:07:00:141,3.956,-1.268,0.232,-0.220,31.846,47.976,-20.231
10:07:00:142,3.956,-1.368,0.152,-0.132,34.606,49.103,-21.844
10:07:00:225,4.039,-1.318,-0.031,0.042,38.068,49.693,-24.365
10:07:00:226,4.040,-1.260,-0.113,0.119,39.756,49.375,-26.209
10:07:00:226,4.040,-0.865,-0.388,0.172,41.193,48.143,-28.869
10:07:00:244,4.058,-0.565,-0.608,0.311,41.333,47.321,-30.439
10:07:00:27,4.084,-0.413,-0.792,0.317,40.831,47.188,-30.641
10:07:00:326,4.140,-0.432,-0.665,0.201,39.064,46.904,-29.913
10:07:00:326,4.140,-0.641,-0.360,0.154,37.331,46.683,-28.857
10:07:00:349,4.164,-0.802,-0.105,0.141,34.043,46.747,-26.086
10:07:00:376,4.190,-0.675,0.045,0.053,30.629,47.383,-21.450
10:07:00:433,4.247,-0.470,0.057,0.008,28.556,48.438,-17.306
10:07:00:433,4.247,-0.302,0.019,0.000,25.755,51.441,-10.061
10:07:00:482,4.296,-0.245,-0.008,0.002,23.945,54.261,-5.035
10:07:00:483,4.297,-0.172,-0.055,-0.100,21.033,58.833,2.131
10:07:00:565,4.380,-0.015,-0.030,-0.081,18.819,61.629,6.392
10:07:00:565,4.380,0.024,-0.032,-0.068,15.306,64.816,11.750
10:07:00:566,4.380,0.262,0.104,-0.161,11.837,66.031,16.026
10:07:00:675,4.489,0.580,0.241,-0.283,9.672,66.231,18.449
10:07:00:675,4.489,0.821,0.244,-0.162,6.487,67.183,21.546
10:07:00:675,4.489,0.923,0.279,-0.185,4.313,68.261,23.215
10:07:00:675,4.489,0.891,0.184,-0.240,1.317,69.717,25.227
10:07:00:719,4.534,0.737,0.032,-0.383,-0.483,70.179,26.694
10:07:00:719,4.534,0.687,-0.049,-0.407,-0.937,70.076,27.299
10:07:00:83,4.644,0.695,-0.078,-0.538,-0.890,69.877,27.491
10:07:00:831,4.645,0.667,0.038,-0.742,-0.573,70.234,27.265
10:07:00:832,4.646,0.568,0.121,-0.813,0.128,72.227,26.317
10:07:00:832,4.646,0.301,0.377,-0.876,1.171,75.815,24.433
10:07:00:849,4.663,0.126,0.585,-0.745,2.052,78.927,22.636
10:07:00:903,4.718,-0.011,0.560,-0.475,3.885,83.801,19.240
10:07:00:929,4.744,0.012,0.129,-0.190,5.574,86.454,16.522
10:07:00:929,4.744,0.014,-0.188,-0.118,8.505,88.344,11.748
10:07:00:953,4.767,-0.035,-0.396,-0.175,11.559,87.900,5.828
10:07:00:979,4.793,-0.138,-0.357,-0.192,13.372,86.841,1.202
10:07:01:034,4.848,-0.316,-0.111,-0.135,15.725,85.282,-6.418
10:07:01:035,4.849,-0.462,0.177,0.069,17.281,84.828,-11.557
10:07:01:059,4.873,-0.524,0.271,0.231,20.065,85.161,-18.668
10:07:01:086,4.900,-0.628,0.300,0.478,23.658,86.280,-24.530
10:07:01:111,4.926,-0.677,0.189,0.673,26.338,86.949,-27.770
10:07:01:166,4.980,-0.667,-0.122,0.726,29.923,86.764,-32.089
10:07:01:166,4.980,-0.620,-0.289,0.767,31.376,85.816,-34.643
10:07:01:189,5.003,-0.486,-0.340,0.681,31.822,83.820,-37.598
10:07:01:217,5.031,-0.245,-0.529,0.543,30.774,82.638,-38.585
10:07:01:242,5.056,-0.074,-0.433,0.541,29.726,82.867,-37.912
10:07:01:298,5.112,-0.297,-0.247,0.900,28.111,84.344,-35.635
10:07:01:298,5.112,-0.581,-0.071,1.164,26.773,85.468,-33.663
10:07:01:32,5.134,-0.601,0.054,1.141,23.876,86.293,-30.306
10:07:01:348,5.163,-0.357,0.216,0.741,20.427,85.926,-26.478
10:07:01:402,5.216,-0.192,0.194,0.537,18.277,85.609,-23.465
10:07:01:403,5.217,-0.059,-0.068,0.359,15.609,85.614,-18.369
10:07:01:425,5.239,-0.068,-0.295,0.228,14.020,85.503,-14.770
10:07:01:54,5.355,-0.056,-0.358,0.097,11.734,84.488,-9.327
10:07:01:54,5.355,-0.029,-0.294,-0.025,9.757,82.574,-3.795
10:07:01:541,5.355,-0.022,-0.054,-0.113,8.722,81.154,-0.027
10:07:01:541,5.356,-0.040,0.352,-0.235,7.599,79.069,5.667
10:07:01:588,5.402,0.019,0.534,-0.379,7.153,77.567,9.511
10:07:01:588,5.402,0.308,0.504,-0.611,6.981,75.140,15.194
10:07:01:642,5.456,0.470,0.368,-0.707,7.129,73.653,18.798
10:07:01:642,5.456,0.522,0.312,-0.812,7.384,71.596,23.577
10:07:01:642,5.456,0.539,0.165,-0.880,7.704,69.843,27.364
10:07:01:692,5.506,0.434,-0.225,-0.681,7.945,68.930,29.248
10:07:01:693,5.507,0.467,-0.328,-0.656,8.478,67.518,30.992
10:07:01:715,5.529,0.550,-0.158,-0.927,8.723,66.776,31.717
10:07:01:799,5.613,0.532,-0.131,-1.100,8.536,67.414,31.891
10:07:01:8,5.614,0.301,0.065,-1.219,7.703,70.286,31.618
10:07:01:8,5.614,0.173,0.168,-1.154,7.173,72.961,30.726
10:07:01:874,5.688,0.040,0.245,-0.738,6.528,77.621,28.008
10:07:01:875,5.689,0.054,-0.012,-0.293,6.429,80.787,25.199
10:07:01:9,5.714,0.033,-0.127,-0.187,6.912,84.647,19.770
10:07:01:901,5.715,-0.044,-0.238,-0.188,8.026,86.838,13.341
10:07:01:923,5.738,-0.180,-0.101,-0.182,8.973,87.489,8.534
10:07:02:004,5.818,-0.296,-0.002,-0.126,10.389,87.761,0.755
10:07:02:09,5.904,-0.417,0.109,0.008,11.315,87.822,-4.511
10:07:02:091,5.905,-0.451,0.158,0.143,12.910,88.341,-12.001
10:07:02:092,5.906,-0.546,0.152,0.380,15.071,89.159,-18.664
10:07:02:093,5.907,-0.648,0.200,0.610,16.788,89.416,-22.613
10:07:02:11,5.925,-0.640,0.040,0.690,19.364,89.073,-27.752
10:07:02:111,5.925,-0.490,-0.166,0.561,20.746,88.483,-30.658
10:07:02:135,5.950,-0.358,-0.276,0.478,22.170,87.800,-34.156
10:07:02:19,6.004,-0.156,-0.258,0.727,23.152,88.086,-37.036
10:07:02:191,6.005,-0.360,0.043,1.145,23.623,88.844,-38.582
10:07:02:27,6.084,-0.433,0.195,1.203,23.130,90.387,-39.465
10:07:02:271,6.085,-0.078,0.116,0.937,22.055,91.585,-38.852
10:07:02:272,6.086,0.213,-0.062,0.812,20.143,94.014,-36.450
10:07:02:291,6.106,0.142,-0.071,0.822,18.340,96.801,-32.967
10:07:02:317,6.132,0.089,-0.243,0.701,17.286,98.515,-30.287
10:07:02:374,6.188,0.024,-0.330,0.487,15.820,100.092,-25.448
10:07:02:374,6.188,0.023,-0.212,0.330,14.787,100.714,-21.871
10:07:02:483,6.298,0.058,-0.089,0.233,13.573,101.411,-15.843
10:07:02:484,6.299,0.026,-0.051,-0.015,13.227,102.571,-9.096
10:07:02:485,6.300,-0.024,-0.065,-0.076,13.329,103.683,-4.352
10:07:02:486,6.300,-0.044,0.044,-0.281,13.667,105.583,2.934
10:07:02:503,6.318,-0.019,0.170,-0.579,14.075,107.187,7.793
10:07:02:557,6.371,0.054,0.055,-0.700,14.887,110.358,14.624
10:07:02:557,6.371,0.093,0.039,-0.621,15.379,112.222,18.535
10:07:02:58,6.394,0.007,0.011,-0.566,16.346,113.534,23.037
10:07:02:608,6.422,-0.141,-0.005,-0.605,17.587,113.293,25.841
10:07:02:66,6.474,-0.211,-0.173,-0.734,18.571,112.626,26.924
10:07:02:688,6.502,-0.520,0.022,-0.955,20.050,112.102,27.886
10:07:02:688,6.503,-0.958,0.263,-1.057,21.201,113.202,28.309
10:07:02:77,6.584,-1.037,0.301,-0.958,21.660,115.161,28.243
10:07:02:771,6.585,-1.005,0.514,-0.724,21.808,119.642,27.490
10:07:02:771,6.585,-0.688,0.520,-0.471,21.688,123.324,26.348
10:07:02:877,6.691,-0.427,0.230,-0.300,21.835,128.385,23.362
10:07:02:878,6.692,-0.284,-0.229,-0.123,21.974,131.028,20.400
10:07:02:879,6.693,-0.329,-0.283,-0.078,22.241,134.152,14.821
10:07:02:88,6.694,-0.429,-0.188,0.048,22.728,136.872,8.445
10:07:02:897,6.711,-0.534,-0.086,0.217,23.386,138.754,4.114
10:07:02:952,6.766,-0.512,-0.036,0.500,25.153,141.765,-2.095
10:07:02:952,6.766,-0.403,0.037,0.668,26.966,143.685,-5.941
10:07:03:004,6.818,-0.308,0.075,0.870,30.406,145.947,-11.331
10:07:03:004,6.818,-0.113,0.125,1.193,34.311,146.880,-16.583
10:07:03:193,7.007,0.010,-0.010,1.230,36.993,146.357,-20.328
10:07:03:194,7.008,0.107,-0.125,1.271,40.403,143.953,-26.349
10:07:03:195,7.009,0.090,-0.216,1.165,41.899,141.787,-30.285
10:07:03:196,7.010,0.107,-0.359,0.926,42.798,138.898,-35.257
10:07:03:3,7.114,0.144,-0.454,0.788,42.310,137.463,-38.445
10:07:03:3,7.114,0.175,-0.487,0.722,41.283,137.359,-39.565
10:07:03:3,7.114,0.384,-0.379,0.539,38.684,138.529,-39.682
10:07:03:301,7.115,0.505,-0.276,0.520,36.564,140.246,-38.640
10:07:03:347,7.161,0.525,-0.072,0.626,33.230,143.683,-35.540
10:07:03:347,7.161,0.358,-0.091,0.537,29.753,147.501,-30.829
10:07:03:379,7.193,0.329,-0.178,0.427,27.366,149.888,-27.105
10:07:03:379,7.193,0.439,-0.153,0.165,23.804,152.847,-21.105
10:07:03:379,7.193,0.287,-0.112,0.051,21.735,154.462,-16.916
10:07:03:38,7.194,0.252,-0.100,0.038,19.079,156.412,-10.716
10:07:03:452,7.266,0.081,0.138,-0.237,16.833,158.205,-4.285
10:07:03:452,7.267,-0.138,0.345,-0.542,15.815,160.107,0.295
10:07:03:453,7.268,-0.171,0.335,-0.592,14.626,164.697,7.223
10:07:03:588,7.402,-0.213,0.207,-0.639,13.636,167.930,11.491
10:07:03:589,7.403,-0.215,0.068,-0.662,11.965,171.712,16.892
10:07:03:589,7.403,-0.279,0.187,-0.466,10.626,173.938,20.866
10:07:03:589,7.403,-0.390,0.222,-0.412,10.230,174.546,22.980
10:07:03:77,7.584,-0.575,0.120,-0.319,10.530,174.577,25.851
10:07:03:771,7.585,-0.718,-0.099,-0.354,11.333,174.117,27.577
10:07:03:772,7.586,-1.238,-0.275,-0.360,14.750,172.646,30.056
10:07:03:851,7.665,-1.285,0.164,0.000,16.106,174.540,29.972
10:07:03:851,7.665,-1.122,0.449,0.265,16.691,179.405,28.595
10:07:03:851,7.665,-0.844,0.629,0.435,17.085,-177.710,26.893
10:07:03:852,7.666,-0.609,0.587,0.474,17.982,-173.945,22.945
10:07:03:875,7.689,-0.316,0.404,0.370,18.821,-172.111,19.334
10:07:03:876,7.690,-0.130,0.269,0.294,20.357,-170.983,12.233
10:07:03:877,7.691,-0.057,0.044,0.250,21.868,-172.482,2.838
10:07:03:922,7.736,0.168,0.101,0.415,23.367,-176.663,-15.671
10:07:03:922,7.736,0.391,0.099,0.507,24.319,-177.337,-22.933
10:07:03:948,7.762,0.547,-0.013,0.513,27.275,-177.087,-32.872
10:07:03:948,7.762,0.760,-0.123,0.465,32.580,-176.099,-41.489
10:07:04:031,7.845,0.872,-0.178,0.421,36.982,-175.495,-46.430
10:07:04:031,7.845,0.969,-0.303,0.303,43.767,-174.911,-52.495
10:07:04:031,7.845,0.920,-0.451,0.216,47.754,-174.970,-55.750
10:07:04:11,7.924,0.811,-0.572,0.164,51.793,-175.430,-59.478
10:07:04:11,7.924,0.581,-0.621,0.092,53.205,-175.802,-61.620
10:07:04:11,7.924,0.506,-0.594,0.024,53.043,-175.682,-62.092
10:07:04:13,7.944,0.402,-0.536,-0.129,51.967,-174.795,-61.502
10:07:04:209,8.023,0.550,-0.590,-0.056,50.973,-173.963,-60.473
10:07:04:239,8.053,0.632,-0.520,0.028,48.150,-172.398,-57.709
10:07:04:24,8.054,0.715,-0.381,0.110,43.282,-170.431,-52.916
10:07:04:241,8.055,0.729,-0.221,0.101,39.134,-169.122,-48.598
10:07:04:26,8.074,0.647,-0.055,0.075,32.323,-167.716,-40.919
10:07:04:34,8.154,0.534,0.028,0.057,27.942,-167.277,-35.312
10:07:04:366,8.181,0.399,0.183,0.122,22.493,-166.936,-26.286
10:07:04:426,8.240,0.210,0.488,0.269,18.811,-165.967,-16.235
10:07:04:427,8.241,0.004,0.597,0.333,17.238,-164.566,-9.015
10:07:04:428,8.242,-0.346,0.561,0.296,15.723,-161.192,2.007
10:07:04:429,8.243,-0.501,0.338,0.170,14.876,-158.331,8.945
10:07:04:503,8.317,-0.586,0.181,0.094,13.289,-153.825,17.979
10:07:04:503,8.317,-0.677,0.082,-0.074,11.160,-150.218,24.914
10:07:04:504,8.318,-0.734,-0.030,-0.150,9.691,-148.755,28.335
10:07:04:553,8.368,-0.735,-0.034,-0.057,7.619,-147.936,31.785
10:07:04:554,8.368,-0.755,0.017,0.070,6.766,-148.242,33.147
10:07:04:604,8.418,-0.733,-0.142,0.150,6.701,-149.692,34.255
10:07:04:63,8.444,-0.811,-0.261,0.242,7.904,-151.876,34.588
10:07:04:631,8.445,-0.932,-0.175,0.331,8.958,-153.094,34.525
10:07:04:741,8.555,-1.064,-0.024,0.479,10.163,-153.517,34.201
10:07:04:742,8.556,-1.117,0.099,0.657,10.630,-152.786,33.883
10:07:04:742,8.557,-1.073,0.138,0.751,10.914,-150.205,33.230
10:07:04:744,8.558,-0.832,0.305,0.783,10.740,-147.332,32.425
10:07:04:817,8.631,-0.402,0.323,0.589,9.937,-141.379,30.099
10:07:04:818,8.632,-0.059,0.152,0.374,9.789,-135.422,26.196
10:07:04:818,8.632,0.040,-0.012,0.423,10.265,-132.480,22.925
10:07:04:838,8.652,0.113,-0.024,0.491,11.676,-129.626,17.340
10:07:04:922,8.736,0.181,-0.031,0.542,12.949,-128.508,13.264
10:07:04:922,8.737,0.246,-0.007,0.543,15.122,-127.207,7.002
10:07:04:923,8.738,0.446,0.046,0.483,17.625,-125.972,0.937
10:07:04:969,8.783,0.527,0.054,0.409,19.456,-125.201,-2.905
10:07:05:,8.814,0.647,0.145,0.218,22.367,-124.194,-8.445
10:07:05:,8.814,0.821,0.122,0.150,24.330,-123.787,-12.076
10:07:05:022,8.836,1.039,0.136,0.089,27.042,-123.790,-17.468
10:07:05:047,8.861,1.085,0.082,-0.061,29.261,-124.042,-22.587
10:07:05:103,8.917,1.023,-0.143,-0.110,30.337,-124.064,-25.678
10:07:05:103,8.918,0.786,-0.350,-0.207,31.213,-123.988,-29.680
10:07:05:128,8.942,0.642,-0.466,-0.303,31.328,-123.512,-31.673
10:07:05:212,9.026,0.551,-0.487,-0.405,30.816,-121.957,-33.342
10:07:05:212,9.026,0.619,-0.374,-0.526,29.364,-120.003,-33.410
10:07:05:213,9.027,0.615,-0.328,-0.599,27.840,-118.765,-32.632
10:07:05:232,9.046,0.654,-0.081,-0.620,24.633,-117.410,-30.359
10:07:05:398,9.212,0.591,-0.003,-0.530,22.177,-116.682,-28.109
10:07:05:399,9.213,0.443,-0.027,-0.428,18.698,-115.412,-23.677
10:07:05:4,9.214,0.264,-0.078,-0.298,15.630,-113.752,-18.287
10:07:05:421,9.235,0.062,-0.169,-0.097,11.158,-110.957,-8.647
10:07:05:422,9.236,-0.023,-0.155,-0.083,9.440,-110.019,-4.864
10:07:05:422,9.236,-0.143,0.040,-0.017,6.796,-108.929,0.732
10:07:05:688,9.502,-0.414,0.358,0.198,4.144,-107.828,6.217
10:07:05:688,9.502,-0.522,0.422,0.300,2.515,-106.767,9.741
10:07:05:688,9.502,-0.643,0.536,0.462,0.091,-104.673,14.777
10:07:05:689,9.503,-0.720,0.450,0.515,-1.492,-103.087,17.908
10:07:05:731,9.545,-0.738,0.284,0.550,-3.664,-101.067,22.107
10:07:05:821,9.635,-0.679,0.106,0.584,-5.336,-99.942,25.539
10:07:05:822,9.636,-0.653,-0.044,0.637,-6.122,-99.709,27.393
10:07:05:822,9.636,-0.722,-0.074,0.825,-6.797,-99.413,29.637
10:07:05:822,9.636,-0.670,-0.067,0.911,-6.922,-98.664,30.753
10:07:05:897,9.711,-0.453,0.036,1.082,-6.347,-96.842,31.723
10:07:05:897,9.711,-0.290,0.117,1.116,-5.359,-95.311,31.788
10:07:05:898,9.712,-0.165,0.125,0.968,-3.295,-92.474,30.620
10:07:05:899,9.713,-0.173,-0.041,0.603,-0.799,-89.361,27.719
10:07:05:923,9.737,-0.153,-0.098,0.447,0.959,-87.366,25.009
10:07:05:924,9.738,-0.106,-0.183,0.336,3.880,-85.231,20.131
10:07:05:925,9.739,0.013,-0.096,0.299,6.029,-84.618,16.335
10:07:05:926,9.740,0.094,-0.001,0.246,9.333,-84.950,9.652
10:07:05:997,9.811,0.278,0.096,0.134,12.446,-86.446,1.875
10:07:05:998,9.812,0.389,0.125,0.055,14.373,-87.687,-3.656
10:07:06:081,9.896,0.505,0.262,-0.158,17.332,-89.160,-12.087
10:07:06:082,9.896,0.606,0.444,-0.458,19.474,-89.717,-17.485
10:07:06:082,9.896,0.575,0.335,-0.621,22.887,-90.632,-24.974
10:07:06:082,9.897,0.537,-0.068,-0.668,26.453,-92.486,-31.418
10:07:06:104,9.918,0.521,-0.281,-0.695,28.258,-93.941,-35.004
10:07:06:105,9.919,0.407,-0.489,-0.549,29.419,-95.960,-39.074
10:07:06:105,9.919,0.072,-0.462,-0.499,29.221,-96.674,-40.709
10:07:06:184,9.998,0.373,-0.319,-0.649,28.328,-96.102,-41.537
10:07:06:184,9.998,0.487,-0.099,-1.095,27.178,-94.382,-40.695
10:07:06:185,9.999,0.535,-0.257,-1.258,25.703,-93.151,-39.615
10:07:06:203,10.017,0.415,-0.196,-1.136,22.660,-92.626,-37.234
10:07:06:289,10.103,0.237,-0.058,-0.772,19.755,-93.118,-35.098
10:07:06:289,10.103,0.154,-0.144,-0.480,15.569,-93.871,-30.863
10:07:06:29,10.104,0.063,-0.297,-0.335,12.227,-94.649,-25.706
10:07:06:448,10.263,0.050,-0.306,-0.275,10.529,-95.105,-21.858
10:07:06:448,10.263,0.034,-0.162,-0.196,8.286,-95.690,-15.692
10:07:06:449,10.264,0.021,-0.068,-0.102,6.977,-96.377,-11.360
10:07:06:45,10.264,-0.015,0.252,0.100,5.321,-97.709,-4.461
10:07:06:553,10.367,-0.342,0.369,0.377,4.129,-98.636,2.919
10:07:06:553,10.367,-0.506,0.387,0.450,3.543,-98.614,8.013
10:07:06:554,10.368,-0.534,0.471,0.639,2.482,-97.742,15.658
10:07:06:555,10.369,-0.555,0.530,0.921,1.659,-97.055,20.669
10:07:06:66,10.474,-0.582,0.229,1.126,0.939,-96.180,27.579
10:07:06:66,10.474,-0.560,-0.090,1.202,0.796,-95.531,31.662
10:07:06:661,10.475,-0.523,-0.386,1.109,0.716,-94.194,35.705
10:07:06:661,10.475,-0.465,-0.128,1.072,0.252,-92.185,37.374
10:07:06:76,10.574,-0.379,-0.127,1.042,-0.039,-90.463,37.206
10:07:06:76,10.574,-0.108,0.009,1.181,0.115,-87.450,35.698
10:07:06:787,10.601,0.110,0.207,1.092,0.657,-85.083,33.963
10:07:06:788,10.602,0.226,0.343,0.959,2.074,-81.100,30.411
10:07:06:788,10.602,0.233,0.304,0.561,4.286,-77.196,25.803
10:07:06:842,10.656,0.177,0.094,0.345,6.202,-75.156,22.171
10:07:06:842,10.657,0.147,-0.035,0.151,9.503,-73.235,15.984
10:07:06:843,10.657,0.207,-0.042,0.072,11.701,-73.004,11.268
10:07:06:844,10.658,0.361,0.104,0.054,14.661,-74.284,3.334
10:07:06:893,10.707,0.513,0.311,-0.124,17.195,-76.271,-5.113
10:07:06:893,10.707,0.561,0.333,-0.323,18.843,-77.406,-10.809
10:07:06:894,10.708,0.582,0.234,-0.644,21.574,-78.933,-19.255
10:07:06:94,10.754,0.636,0.300,-0.876,23.645,-79.883,-24.633
10:07:06:941,10.755,0.610,0.153,-0.979,27.196,-81.133,-32.057
10:07:06:965,10.779,0.462,-0.050,-0.971,30.930,-82.129,-38.505
10:07:07:077,10.891,0.369,-0.238,-0.833,33.224,-82.715,-42.210
10:07:07:078,10.892,0.308,-0.408,-0.736,35.901,-83.503,-46.887
10:07:07:079,10.893,0.229,-0.473,-0.706,37.014,-83.829,-49.353
10:07:07:08,10.894,0.072,-0.511,-0.641,37.226,-83.637,-51.667
10:07:07:122,10.936,-0.187,-0.642,-0.487,35.689,-82.321,-52.173
10:07:07:152,10.966,-0.272,-0.614,-0.483,33.965,-80.619,-51.267
10:07:07:152,10.966,-0.134,-0.236,-0.513,30.558,-76.896,-47.866
10:07:07:173,10.988,-0.295,-0.404,-0.524,28.376,-73.827,-44.365
10:07:07:26,11.074,-0.349,-0.413,-0.507,25.271,-68.790,-37.325
10:07:07:26,11.074,-0.197,-0.249,-0.505,22.087,-64.399,-29.082
10:07:07:261,11.075,-0.079,-0.075,-0.453,20.066,-62.018,-23.343
10:07:07:337,11.151,-0.047,0.079,-0.311,17.314,-58.879,-14.396
10:07:07:338,11.152,-0.106,0.261,-0.066,15.789,-56.779,-8.226
10:07:07:338,11.152,-0.079,0.248,0.174,14.216,-53.228,0.867
10:07:07:358,11.172,-0.091,0.228,0.297,12.828,-49.350,9.507
10:07:07:443,11.257,-0.002,0.271,0.539,11.931,-47.061,14.877
10:07:07:443,11.257,0.006,0.229,0.693,10.567,-44.166,21.811
10:07:07:444,11.258,0.036,0.212,0.782,9.652,-42.773,25.516
10:07:07:463,11.277,0.095,0.161,0.790,8.529,-41.537,29.768
10:07:07:63,11.444,0.269,0.000,0.780,8.180,-41.295,31.815
10:07:07:63,11.444,0.329,-0.155,0.785,8.431,-41.754,34.194
10:07:07:631,11.445,0.692,-0.096,0.870,9.593,-42.063,35.827
10:07:07:632,11.446,0.833,-0.071,0.828,10.621,-41.947,36.260
10:07:07:736,11.551,0.887,0.042,0.682,12.146,-41.124,35.570
10:07:07:736,11.551,0.982,0.234,0.535,12.822,-40.024,34.317
10:07:07:737,11.551,0.936,0.362,0.459,13.269,-37.522,31.583
10:07:07:737,11.551,0.647,0.241,0.331,13.516,-34.613,27.725
10:07:07:814,11.628,0.484,0.090,0.281,13.910,-33.110,24.431
10:07:07:814,11.628,0.409,0.027,0.144,14.859,-31.593,18.431
10:07:07:815,11.629,0.395,0.077,0.033,15.536,-30.872,13.893
10:07:07:816,11.630,0.387,0.132,-0.152,16.520,-30.094,6.589
10:07:07:836,11.650,0.329,0.132,-0.382,17.807,-29.213,-0.915
10:07:07:836,11.650,0.254,0.154,-0.565,19.032,-28.442,-5.897
10:07:07:857,11.671,0.018,0.150,-0.685,21.478,-27.399,-13.430
10:07:07:91,11.724,-0.148,0.091,-0.749,23.407,-26.903,-18.399
10:07:07:938,11.752,-0.312,0.114,-0.919,26.642,-26.557,-25.614
10:07:07:938,11.753,-0.511,0.029,-1.045,30.071,-27.096,-32.534
10:07:08:019,11.833,-0.497,-0.128,-0.935,32.267,-27.966,-36.802
10:07:08:02,11.834,-0.461,-0.331,-0.815,34.579,-29.154,-42.358
10:07:08:021,11.835,-0.495,-0.552,-0.512,35.329,-29.686,-45.311
10:07:08:042,11.856,-0.624,-0.697,-0.384,35.144,-29.742,-48.333
10:07:08:067,11.881,-0.849,-0.716,-0.303,33.280,-28.732,-48.964
10:07:08:122,11.936,-0.789,-0.346,-0.427,30.999,-27.681,-47.911
10:07:08:122,11.937,-0.810,-0.148,-0.423,27.038,-26.026,-44.380
10:07:08:147,11.961,-0.846,-0.044,-0.472,24.451,-24.873,-40.803
10:07:08:202,12.016,-0.738,0.049,-0.453,20.840,-23.278,-34.050
10:07:08:202,12.016,-0.594,-0.034,-0.285,17.950,-22.097,-26.479
10:07:08:385,12.199,-0.380,-0.027,-0.186,16.264,-21.567,-21.280
10:07:08:417,12.231,-0.166,0.100,-0.148,14.184,-20.699,-13.707
10:07:08:417,12.231,-0.076,0.323,-0.169,12.920,-19.980,-8.734
10:07:08:418,12.232,0.110,0.378,0.002,11.017,-19.683,-1.306
10:07:08:419,12.233,0.356,0.265,0.331,9.530,-19.787,6.087
10:07:08:445,12.259,0.448,0.218,0.411,8.777,-19.579,10.853
10:07:08:445,12.259,0.506,0.156,0.425,7.696,-18.877,17.537
10:07:08:445,12.259,0.563,0.134,0.468,6.998,-18.475,21.597
10:07:08:446,12.260,0.687,0.095,0.540,6.195,-18.183,26.981
10:07:08:6,12.414,0.791,0.051,0.577,5.822,-18.210,29.950
10:07:08:601,12.415,0.826,-0.084,0.562,5.634,-18.646,33.222
10:07:08:602,12.416,0.758,-0.265,0.522,5.779,-19.465,34.851
10:07:08:603,12.417,0.810,-0.176,0.524,5.866,-19.918,35.047
10:07:08:626,12.440,0.854,-0.128,0.519,5.755,-19.943,34.355
10:07:08:627,12.441,0.967,-0.054,0.431,5.655,-19.466,33.343
10:07:08:628,12.442,1.015,0.070,0.334,5.411,-17.703,31.116
10:07:08:671,12.485,0.714,0.305,0.001,4.735,-11.391,25.086
10:07:08:701,12.515,0.410,0.260,-0.075,4.896,-6.477,19.968
10:07:08:701,12.516,0.131,0.067,-0.072,5.591,-3.686,16.046
10:07:08:724,12.539,0.117,0.056,-0.129,7.336,-0.939,9.593
10:07:08:891,12.705,0.033,0.126,-0.255,9.370,0.078,2.485
10:07:08:891,12.705,0.033,0.126,-0.255,9.370,0.078,2.485
10:07:08:891,12.705,-0.110,0.108,-0.452,12.534,-0.798,-10.171
10:07:08:891,12.706,-0.267,0.171,-0.504,13.749,-1.473,-15.192
10:07:08:913,12.727,-0.392,0.128,-0.487,15.744,-2.171,-22.344
10:07:08:914,12.729,-0.537,0.004,-0.530,18.317,-2.450,-28.771
10:07:08:915,12.729,-0.664,-0.009,-0.602,20.317,-2.563,-32.594
10:07:08:964,12.778,-0.837,-0.093,-0.599,23.290,-2.969,-37.756
10:07:08:964,12.778,-0.822,-0.257,-0.488,24.993,-3.506,-40.800
10:07:09:014,12.828,-0.702,-0.347,-0.411,26.520,-4.350,-44.487
10:07:09:015,12.829,-0.541,-0.367,-0.235,26.794,-4.755,-46.797
10:07:09:068,12.882,-0.468,-0.397,0.029,26.823,-4.384,-47.491
10:07:09:068,12.883,-0.670,-0.422,-0.027,27.147,-2.926,-47.327
10:07:09:09,12.905,-0.766,-0.272,-0.098,26.873,-1.695,-46.343
10:07:09:116,12.930,-0.705,-0.031,-0.004,25.524,0.219,-43.328
10:07:09:171,12.985,-0.634,0.061,0.107,24.061,2.416,-38.663
10:07:09:172,12.986,-0.582,0.063,0.043,23.085,3.943,-34.930
10:07:09:195,13.009,-0.440,-0.031,-0.018,21.377,6.048,-28.601
10:07:09:302,13.116,-0.256,-0.098,-0.084,20.124,7.207,-24.071
10:07:09:39,13.204,0.005,0.205,-0.097,16.862,10.591,-9.549
10:07:09:391,13.205,0.180,0.206,-0.009,16.285,12.284,-4.454
10:07:09:391,13.205,0.363,0.105,0.053,15.637,15.476,3.016
10:07:09:466,13.281,0.436,0.060,0.089,15.231,17.839,7.631
10:07:09:467,13.282,0.543,0.016,0.181,14.604,21.182,13.715
10:07:09:468,13.282,0.600,-0.026,0.161,14.269,23.100,17.200
10:07:09:469,13.283,0.606,-0.055,0.074,13.896,25.265,21.512
10:07:09:573,13.387,0.571,0.020,-0.124,13.866,26.444,24.480
10:07:09:573,13.387,0.504,0.067,-0.260,14.210,26.652,25.580
10:07:09:574,13.388,0.480,0.017,-0.296,15.200,26.292,25.953
10:07:09:574,13.388,0.417,-0.145,-0.350,15.966,25.707,25.542
10:07:09:678,13.492,0.503,-0.093,-0.506,17.105,24.321,24.346
10:07:09:678,13.492,0.649,0.045,-0.637,18.036,22.519,22.655
10:07:09:679,13.493,0.690,0.003,-0.625,18.598,21.287,21.314
10:07:09:68,13.494,0.657,0.097,-0.697,19.419,20.680,19.420
10:07:09:697,13.511,0.587,0.394,-0.830,19.625,21.486,18.386
10:07:09:698,13.512,0.484,0.334,-0.779,19.595,24.405,17.182
10:07:09:751,13.565,0.247,0.156,-0.675,18.393,29.030,15.615
10:07:09:751,13.565,0.086,0.086,-0.631,17.126,32.657,13.950
10:07:09:773,13.587,-0.169,0.130,-0.635,15.236,38.425,10.422
10:07:09:798,13.612,-0.248,0.119,-0.593,14.490,42.050,7.507
10:07:09:883,13.697,-0.313,0.066,-0.479,14.389,46.977,2.637
10:07:09:884,13.698,-0.399,0.003,-0.354,15.400,51.090,-2.623
10:07:09:885,13.699,-0.450,-0.011,-0.263,16.527,53.369,-6.266
10:07:09:933,13.747,-0.536,0.064,-0.085,18.608,56.410,-11.876
10:07:09:934,13.748,-0.735,0.173,0.058,20.172,58.174,-15.766
10:07:09:986,13.800,-0.841,0.159,0.190,22.498,60.078,-22.021
10:07:09:986,13.800,-0.972,0.128,0.294,24.578,61.190,-28.583
10:07:10:068,13.882,-1.015,0.092,0.398,25.890,61.843,-32.870
10:07:10:068,13.882,-0.909,-0.052,0.598,28.010,63.373,-38.689
10:07:10:069,13.883,-0.705,-0.224,0.611,29.339,64.659,-42.020
10:07:10:089,13.903,-0.432,-0.435,0.725,30.692,66.825,-45.964
10:07:10:144,13.958,-0.158,-0.743,0.788,30.876,69.320,-48.176
10:07:10:144,13.958,-0.086,-0.555,0.664,29.973,70.973,-48.302
10:07:10:256,14.070,-0.272,-0.176,0.678,27.052,72.894,-46.968
10:07:10:256,14.070,-0.365,-0.395,0.821,24.826,73.770,-45.391
10:07:10:256,14.070,-0.383,-0.416,0.891,21.466,74.476,-41.940
10:07:10:257,14.071,-0.266,-0.176,0.718,17.909,74.628,-37.132
10:07:10:385,14.200,-0.186,-0.096,0.607,15.975,74.795,-33.335
10:07:10:386,14.201,-0.177,-0.140,0.460,13.759,75.210,-27.134
10:07:10:387,14.201,-0.125,0.023,0.414,12.282,75.287,-22.833
10:07:10:388,14.202,0.029,0.231,0.238,10.398,74.949,-15.788
10:07:10:459,14.273,0.034,0.191,0.113,9.539,74.754,-11.106
10:07:10:459,14.273,0.106,0.275,-0.092,8.509,73.871,-4.149
10:07:10:484,14.298,0.289,0.297,-0.307,7.805,72.671,2.947
10:07:10:544,14.358,0.315,0.272,-0.410,7.551,72.269,7.605
10:07:10:544,14.358,0.258,0.264,-0.508,7.343,72.189,14.211
10:07:10:545,14.359,0.285,0.256,-0.613,7.251,72.209,18.275
10:07:10:545,14.359,0.362,0.178,-0.795,7.243,72.209,23.745
10:07:10:649,14.463,0.411,0.000,-0.937,7.397,72.101,28.138
10:07:10:65,14.464,0.407,-0.210,-0.983,7.554,71.848,30.242
10:07:10:651,14.465,0.454,-0.230,-0.931,7.668,71.408,31.887
10:07:10:652,14.466,0.410,-0.126,-0.861,7.380,71.559,32.121
10:07:10:668,14.482,0.342,-0.078,-0.949,6.654,72.422,31.486
10:07:10:669,14.483,0.239,0.134,-1.070,5.981,73.885,29.750
10:07:10:723,14.537,0.198,0.276,-0.988,5.548,75.302,27.884
10:07:10:723,14.537,0.134,0.267,-0.712,5.077,78.240,23.981
10:07:10:744,14.558,0.110,0.181,-0.540,4.995,80.489,20.593
10:07:10:77,14.584,0.055,0.084,-0.317,5.301,83.913,14.859
10:07:10:828,14.642,-0.032,0.059,-0.153,6.214,86.843,8.224
10:07:10:828,14.642,-0.072,0.089,-0.117,7.099,88.253,3.451
10:07:10:908,14.722,-0.185,0.191,0.021,8.746,89.689,-4.080
10:07:10:909,14.723,-0.254,0.219,0.151,10.066,90.382,-9.125
10:07:10:91,14.724,-0.309,0.161,0.279,12.466,91.323,-16.441
10:07:10:927,14.741,-0.337,0.071,0.439,15.400,92.027,-23.252
10:07:10:956,14.770,-0.350,0.016,0.534,17.501,92.241,-27.438
10:07:10:98,14.794,-0.383,-0.092,0.672,20.632,92.152,-33.019
10:07:11:006,14.820,-0.395,-0.237,0.804,22.481,91.822,-36.196
10:07:11:033,14.847,-0.348,-0.312,0.765,24.405,90.868,-39.983
10:07:11:061,14.875,-0.224,-0.403,0.729,25.198,90.054,-42.357
10:07:11:114,14.928,-0.104,-0.515,0.749,25.232,89.907,-43.026
10:07:11:115,14.929,-0.156,-0.366,0.841,24.301,89.992,-42.470
10:07:11:139,14.953,-0.268,-0.161,0.839,23.020,90.011,-41.272
10:07:11:222,15.036,-0.309,-0.097,0.873,20.549,89.846,-38.517
10:07:11:223,15.037,-0.236,0.061,0.891,17.776,89.422,-34.874
10:07:11:223,15.037,-0.210,0.111,0.874,16.029,89.076,-32.126
10:07:11:242,15.056,-0.180,0.048,0.604,13.558,88.423,-27.451
10:07:11:295,15.109,-0.146,-0.056,0.343,12.037,87.850,-24.007
10:07:11:325,15.139,-0.111,-0.138,0.175,9.870,86.582,-18.605
10:07:11:325,15.139,-0.082,-0.182,0.034,8.545,85.350,-14.999
10:07:11:347,15.162,-0.080,-0.127,0.008,6.774,83.094,-9.573
10:07:11:403,15.217,-0.002,0.091,-0.106,5.386,80.531,-3.961
10:07:11:404,15.218,0.045,0.150,-0.198,4.793,78.807,-0.024
10:07:11:428,15.242,0.163,0.246,-0.417,4.403,76.422,6.296
10:07:11:511,15.326,0.284,0.293,-0.590,4.440,75.206,10.715
10:07:11:512,15.326,0.326,0.291,-0.688,4.793,74.010,17.310
10:07:11:512,15.327,0.377,0.256,-0.812,5.344,73.216,23.407
10:07:11:532,15.346,0.427,0.195,-0.897,5.794,72.811,26.956
10:07:11:558,15.372,0.409,-0.028,-0.899,6.440,72.239,31.130
10:07:11:584,15.398,0.405,-0.175,-0.831,6.812,71.727,32.904
10:07:11:611,15.425,0.442,-0.074,-0.882,7.127,70.874,34.050
10:07:11:639,15.453,0.411,-0.337,-0.778,7.016,70.571,33.855
10:07:11:75,15.564,0.388,-0.369,-0.842,6.821,70.675,33.185
10:07:11:751,15.565,0.284,-0.046,-1.043,6.158,72.243,31.443
10:07:11:751,15.565,0.198,0.239,-0.995,5.670,73.903,29.651
10:07:11:752,15.566,0.116,0.344,-0.842,5.319,76.962,25.904
10:07:11:797,15.611,0.074,0.233,-0.517,5.470,80.050,21.004
10:07:11:797,15.611,0.065,0.075,-0.337,5.831,81.855,17.142
10:07:11:82,15.634,0.011,-0.029,-0.183,6.597,84.110,10.528
10:07:11:876,15.690,-0.040,0.034,-0.136,7.230,85.359,5.662
10:07:11:876,15.690,-0.171,0.152,0.008,8.401,86.733,-2.187
10:07:11:899,15.713,-0.238,0.163,0.135,9.865,87.526,-10.301
10:07:11:925,15.739,-0.290,0.136,0.230,11.041,87.849,-15.608
10:07:12:038,15.852,-0.345,0.097,0.384,13.192,88.262,-23.107
10:07:12:039,15.853,-0.402,0.050,0.571,14.921,88.455,-27.709
10:07:12:04,15.854,-0.412,-0.046,0.654,17.767,88.512,-33.826
10:07:12:041,15.855,-0.415,-0.228,0.763,20.607,88.129,-38.770
10:07:12:085,15.900,-0.368,-0.377,0.784,22.108,87.656,-41.257
10:07:12:086,15.900,-0.225,-0.512,0.697,23.157,86.810,-43.510
10:07:12:108,15.923,-0.160,-0.480,0.590,23.028,86.357,-43.932
10:07:12:164,15.978,-0.164,-0.200,0.729,22.140,86.099,-43.113
10:07:12:19,16.004,-0.227,-0.216,0.797,20.767,86.335,-40.747
10:07:12:191,16.005,-0.237,-0.189,0.791,19.583,86.558,-38.506
10:07:12:214,16.028,-0.207,0.030,0.787,17.579,86.886,-34.491
10:07:12:298,16.112,-0.239,0.182,0.797,16.287,87.125,-31.561
10:07:12:299,16.113,-0.238,0.195,0.700,14.500,87.354,-26.721
10:07:12:299,16.114,-0.170,0.070,0.378,12.733,86.988,-21.244
10:07:12:321,16.135,-0.105,-0.042,0.176,11.581,86.276,-17.445
10:07:12:374,16.188,-0.053,-0.108,0.059,10.037,84.749,-11.758
10:07:12:375,16.189,-0.050,0.018,-0.029,9.176,83.640,-7.970
10:07:12:484,16.299,-0.055,0.128,-0.122,8.227,82.150,-2.144
10:07:12:485,16.300,0.055,0.155,-0.357,7.829,81.295,1.910
10:07:12:487,16.301,0.162,0.101,-0.491,7.547,80.552,8.249
10:07:12:487,16.302,0.300,0.050,-0.675,7.512,80.845,14.670
10:07:12:503,16.317,0.335,0.041,-0.762,7.519,81.717,18.847
10:07:12:616,16.430,0.342,0.000,-0.880,7.354,83.782,24.746
10:07:12:617,16.431,0.305,-0.074,-0.920,7.125,85.303,28.257
10:07:12:618,16.432,0.237,-0.232,-0.964,6.904,87.111,32.323
10:07:12:618,16.432,0.172,-0.230,-0.897,6.781,88.243,34.267
10:07:12:661,16.476,0.090,0.075,-0.939,6.607,88.949,34.404
10:07:12:721,16.535,0.031,0.089,-0.891,6.144,90.484,33.484
10:07:12:722,16.536,-0.031,-0.007,-0.958,6.021,91.677,32.330
10:07:12:723,16.537,-0.113,0.106,-1.113,5.882,94.235,30.176
10:07:12:724,16.538,-0.212,0.246,-1.024,5.562,98.552,27.430
10:07:12:768,16.582,-0.271,0.307,-0.832,5.492,102.217,25.192
10:07:12:769,16.583,-0.289,0.233,-0.455,6.042,108.082,21.250
10:07:12:818,16.633,-0.259,0.074,-0.196,6.799,111.932,18.300
10:07:12:876,16.690,-0.311,0.091,-0.083,8.448,117.269,13.599
10:07:12:877,16.691,-0.452,0.178,0.103,10.792,121.486,8.721
10:07:12:878,16.692,-0.516,0.120,0.202,12.698,123.437,5.445
10:07:12:924,16.738,-0.544,0.018,0.296,15.925,125.346,0.773
10:07:12:981,16.795,-0.596,0.081,0.449,18.320,126.272,-2.063
10:07:12:982,16.796,-0.557,0.092,0.602,22.244,127.597,-5.856
10:07:12:982,16.796,-0.489,0.001,0.762,26.366,128.535,-9.409
10:07:13:001,16.815,-0.497,-0.002,0.869,28.849,128.640,-11.858
10:07:13:027,16.842,-0.425,0.012,1.197,31.917,127.835,-15.992
10:07:13:054,16.868,-0.229,-0.162,1.013,33.284,126.778,-18.939
10:07:13:08,16.894,-0.128,-0.263,0.904,34.208,125.219,-23.223
10:07:13:133,16.947,0.018,-0.345,0.739,34.027,124.699,-26.521
10:07:13:161,16.975,0.144,-0.355,0.655,33.523,125.228,-27.760
10:07:13:162,16.976,0.345,-0.524,0.574,32.179,127.069,-28.201
10:07:13:185,16.999,0.356,-0.479,0.597,30.725,128.462,-27.808
10:07:13:24,17.054,0.287,-0.352,0.586,27.977,130.304,-26.463
10:07:13:241,17.055,0.208,-0.106,0.731,25.951,131.477,-25.031
10:07:13:264,17.078,0.173,0.001,0.710,23.029,133.600,-21.802
10:07:13:292,17.106,0.143,-0.072,0.471,20.644,136.602,-17.374
10:07:13:376,17.190,0.141,-0.084,0.244,19.047,138.574,-14.215
10:07:13:376,17.190,0.127,-0.073,0.192,16.531,140.913,-9.474
10:07:13:376,17.191,-0.011,0.011,0.129,14.688,141.991,-6.412
10:07:13:453,17.267,-0.076,0.089,0.035,11.764,142.983,-1.872
10:07:13:454,17.268,-0.129,0.168,-0.179,8.814,143.834,2.729
10:07:13:455,17.269,-0.176,0.220,-0.350,6.826,144.620,5.831
10:07:13:474,17.288,-0.173,0.210,-0.618,3.831,146.425,10.277
10:07:13:56,17.374,-0.168,0.256,-0.773,1.729,148.189,12.917
10:07:13:56,17.374,-0.179,0.251,-0.852,-1.413,151.553,16.110
10:07:13:56,17.374,-0.158,0.213,-0.894,-4.285,155.440,18.168
10:07:13:637,17.451,-0.140,0.104,-0.873,-5.762,157.682,18.984
10:07:13:638,17.452,-0.156,0.049,-0.700,-7.078,159.572,19.644
10:07:13:639,17.453,-0.286,0.147,-0.600,-7.242,159.879,19.872
10:07:13:685,17.499,-0.378,0.064,-0.489,-5.210,160.031,19.664
10:07:13:737,17.551,-0.428,0.029,-0.424,-3.880,160.307,19.051
10:07:13:853,17.667,-0.512,0.181,-0.409,-1.693,161.312,17.687
10:07:13:853,17.667,-0.550,0.355,-0.355,-0.149,162.561,16.617
10:07:13:854,17.668,-0.481,0.336,-0.228,2.423,164.997,15.018
10:07:13:854,17.668,-0.350,0.066,-0.078,5.489,167.376,13.345
10:07:13:87,17.684,-0.267,-0.005,0.005,7.642,168.776,11.925
10:07:13:871,17.685,-0.183,-0.068,0.129,10.837,170.562,9.334
10:07:13:922,17.736,-0.191,-0.066,0.190,12.877,171.488,7.329
10:07:13:95,17.765,-0.207,-0.021,0.358,15.878,172.484,3.872
10:07:13:95,17.765,-0.121,-0.066,0.517,18.984,172.954,-0.219
10:07:13:972,17.787,-0.024,-0.106,0.552,21.096,173.039,-3.257
10:07:14:028,17.842,0.080,-0.123,0.578,24.119,172.959,-8.076
10:07:14:029,17.843,0.204,-0.023,0.696,26.007,172.719,-11.378
10:07:14:111,17.925,0.313,-0.090,0.756,28.597,171.946,-16.358
10:07:14:111,17.925,0.423,-0.133,0.847,30.810,170.353,-21.207
10:07:14:112,17.926,0.483,-0.150,0.806,31.830,168.893,-24.235
10:07:14:13,17.944,0.514,-0.345,0.544,32.555,166.618,-27.980
10:07:14:215,18.029,0.468,-0.433,0.393,32.388,165.608,-29.475
10:07:14:215,18.029,0.403,-0.303,0.300,31.537,165.163,-30.031
10:07:14:216,18.030,0.550,-0.355,0.422,30.697,165.388,-29.611
10:07:14:236,18.050,0.609,-0.342,0.478,28.760,165.564,-28.305
10:07:14:261,18.075,0.532,-0.060,0.407,25.849,165.204,-26.229
10:07:14:318,18.132,0.428,0.213,0.305,23.767,165.246,-24.235
10:07:14:508,18.322,0.349,0.141,0.246,21.066,166.439,-20.214
10:07:14:509,18.323,0.266,0.020,0.202,19.445,167.804,-16.998
10:07:14:509,18.324,0.167,-0.037,0.132,16.972,170.289,-11.679
10:07:14:51,18.325,0.001,-0.073,0.022,14.444,172.852,-6.149
10:07:14:536,18.350,-0.081,-0.045,0.010,12.707,174.491,-2.550
10:07:14:536,18.350,-0.233,0.059,-0.044,9.977,176.696,2.647
10:07:14:536,18.351,-0.336,0.037,-0.162,8.111,178.102,6.019
10:07:14:536,18.351,-0.417,0.023,-0.269,5.233,-179.392,10.922
10:07:14:611,18.425,-0.522,-0.036,-0.350,2.329,-176.411,15.296
10:07:14:612,18.426,-0.603,-0.073,-0.421,0.454,-174.482,17.749
10:07:14:613,18.427,-0.677,0.048,-0.510,-2.107,-172.091,20.543
10:07:14:614,18.428,-0.675,0.054,-0.524,-3.500,-170.733,21.739
10:07:14:683,18.497,-0.628,0.035,-0.441,-4.920,-168.918,22.527
10:07:14:929,18.743,-0.600,0.003,-0.296,-5.391,-167.760,22.324
10:07:14:929,18.744,-0.661,0.067,-0.241,-5.149,-167.485,21.835
10:07:14:93,18.745,-0.778,0.215,-0.223,-4.061,-167.088,20.735
10:07:14:931,18.745,-0.756,0.302,-0.186,-3.024,-166.325,19.715
10:07:14:954,18.768,-0.741,0.367,-0.110,-1.176,-164.170,17.694
10:07:14:954,18.768,-0.636,0.672,0.095,0.872,-160.766,15.290
10:07:14:955,18.769,-0.436,0.722,0.203,2.403,-157.933,13.606
10:07:14:955,18.769,-0.132,0.420,0.256,5.223,-153.474,11.176
10:07:15:007,18.821,-0.031,-0.004,0.257,7.403,-151.048,9.452
10:07:15:007,18.821,-0.062,-0.043,0.295,10.764,-148.603,6.337
10:07:15:007,18.821,0.080,-0.009,0.389,14.093,-146.974,2.572
10:07:15:008,18.822,0.185,-0.039,0.413,16.372,-145.840,-0.080
10:07:15:033,18.847,0.347,-0.108,0.405,20.064,-144.146,-4.086
10:07:15:033,18.847,0.443,-0.122,0.395,22.665,-143.404,-6.900
10:07:15:033,18.847,0.554,-0.130,0.410,26.430,-143.268,-11.477
10:07:15:034,18.848,0.761,-0.117,0.479,29.873,-143.826,-16.197
10:07:15:135,18.949,0.872,-0.179,0.446,32.000,-144.352,-19.258
10:07:15:136,18.950,0.898,-0.325,0.340,34.732,-145.662,-23.899
10:07:15:137,18.951,0.828,-0.370,0.290,35.844,-146.977,-26.994
10:07:15:181,18.995,0.705,-0.477,0.217,36.667,-148.652,-31.023
10:07:15:242,19.056,0.697,-0.507,0.105,36.553,-149.338,-33.635
10:07:15:242,19.056,0.796,-0.464,0.059,35.848,-149.505,-34.523
10:07:15:243,19.057,0.708,-0.428,-0.046,33.469,-149.824,-34.627
10:07:15:243,19.057,0.607,-0.274,-0.102,31.138,-149.873,-33.848
10:07:15:318,19.132,0.582,0.096,-0.112,27.469,-148.981,-31.306
10:07:15:318,19.132,0.542,0.174,-0.119,24.307,-146.596,-27.200
10:07:15:426,19.240,0.469,0.102,-0.114,22.343,-144.664,-23.978
10:07:15:426,19.240,0.284,-0.093,-0.129,19.239,-142.255,-19.067
10:07:15:427,19.241,0.085,-0.096,-0.018,17.034,-141.168,-15.869
10:07:15:428,19.242,-0.078,0.056,0.015,13.846,-139.708,-11.117
10:07:15:497,19.311,-0.160,0.077,-0.009,11.166,-137.533,-6.218
10:07:15:527,19.341,-0.255,0.052,-0.038,9.577,-135.541,-2.805
10:07:15:528,19.342,-0.463,0.043,-0.026,7.250,-132.108,2.251
10:07:15:529,19.343,-0.579,0.014,-0.040,5.712,-129.570,5.344
10:07:15:637,19.452,-0.649,0.036,-0.050,3.415,-125.696,9.222
10:07:15:638,19.452,-0.609,0.107,-0.030,1.404,-122.325,11.926
10:07:15:638,19.452,-0.571,0.173,-0.009,0.362,-120.707,13.145
10:07:15:638,19.453,-0.565,0.243,0.089,-0.438,-119.600,14.380
10:07:15:685,19.500,-0.506,0.137,0.187,-0.457,-119.697,14.906
10:07:15:685,19.500,-0.504,0.117,0.239,0.025,-120.722,15.340
10:07:15:687,19.501,-0.537,0.308,0.369,0.560,-121.570,15.335
10:07:15:872,19.686,-0.532,0.149,0.408,1.560,-122.345,15.025
10:07:15:872,19.687,-0.454,0.237,0.554,2.703,-121.939,14.431
10:07:15:873,19.688,-0.367,0.409,0.573,3.438,-120.267,13.910
10:07:15:874,19.688,-0.209,0.446,0.519,4.579,-116.342,13.044
10:07:15:9,19.714,-0.026,0.250,0.425,5.426,-113.125,12.362
10:07:15:901,19.715,0.059,0.089,0.335,6.951,-108.693,10.839
10:07:15:901,19.715,0.096,-0.096,0.269,8.755,-105.300,8.441
10:07:15:901,19.715,0.127,-0.107,0.235,10.080,-103.542,6.373
10:07:15:915,19.729,0.214,-0.108,0.195,12.220,-101.244,2.812
10:07:15:97,19.784,0.264,-0.144,0.164,13.781,-99.803,0.292
10:07:15:971,19.785,0.330,-0.216,0.084,16.317,-97.752,-3.571
10:07:15:995,19.809,0.379,-0.230,0.003,19.015,-96.030,-7.450
10:07:16:107,19.921,0.456,-0.168,-0.066,20.821,-95.092,-9.989
10:07:16:108,19.922,0.639,-0.023,-0.168,23.456,-94.110,-13.697
10:07:16:109,19.923,0.763,-0.017,-0.487,25.120,-93.818,-16.164
10:07:16:11,19.924,0.791,-0.067,-0.622,27.240,-94.312,-19.976
10:07:16:156,19.970,0.627,-0.218,-0.624,28.625,-96.169,-23.712
10:07:16:156,19.970,0.531,-0.241,-0.587,28.960,-97.748,-25.867
10:07:16:177,19.991,0.506,-0.186,-0.693,28.325,-99.568,-27.770
10:07:16:204,20.018,0.513,-0.235,-0.737,27.199,-100.358,-27.948
10:07:16:231,20.046,0.341,-0.081,-0.622,24.851,-101.170,-26.971
10:07:16:257,20.071,0.282,0.088,-0.649,22.301,-101.034,-25.108
10:07:16:284,20.098,0.366,0.113,-0.691,20.654,-100.449,-23.588
10:07:16:367,20.181,0.302,0.087,-0.557,18.112,-99.760,-20.967
10:07:16:368,20.182,0.133,-0.072,-0.400,16.265,-99.770,-18.955
10:07:16:368,20.182,-0.007,-0.188,-0.263,13.345,-100.457,-15.519
10:07:16:389,20.203,-0.039,-0.241,-0.095,10.566,-101.489,-11.655
10:07:16:472,20.286,-0.065,-0.207,-0.035,8.908,-102.279,-8.885
10:07:16:473,20.287,-0.170,-0.135,0.088,6.754,-103.556,-4.386
10:07:16:474,20.288,-0.272,-0.101,0.202,5.581,-104.369,-1.135
10:07:16:578,20.392,-0.364,-0.048,0.287,4.157,-105.473,4.086
10:07:16:579,20.393,-0.472,0.009,0.410,3.133,-106.291,9.419
10:07:16:58,20.394,-0.523,0.092,0.471,2.615,-106.561,12.893
10:07:16:602,20.416,-0.504,0.268,0.545,1.917,-106.306,17.908
10:07:16:602,20.416,-0.477,0.345,0.600,1.280,-105.391,21.097
10:07:16:789,20.604,-0.420,0.267,0.729,0.163,-103.496,25.071
10:07:16:79,20.604,-0.405,0.006,0.634,-0.272,-102.835,27.170
10:07:16:791,20.605,-0.426,-0.035,0.638,-0.019,-103.522,27.400
10:07:16:837,20.651,-0.449,0.077,0.645,0.603,-105.110,26.231
10:07:16:838,20.652,-0.380,-0.175,0.612,1.035,-106.205,24.675
10:07:16:896,20.710,-0.327,-0.047,0.663,1.604,-107.305,21.495
10:07:16:897,20.711,-0.267,0.339,0.746,1.969,-106.938,17.657
10:07:16:898,20.712,-0.180,0.562,0.615,2.238,-105.616,14.960
10:07:16:898,20.712,-0.070,0.558,0.373,2.952,-102.368,11.020
10:07:16:974,20.788,-0.038,0.238,0.189,3.702,-100.161,8.325
10:07:16:975,20.789,0.040,-0.014,0.146,5.021,-97.460,3.750
10:07:16:976,20.790,0.107,-0.026,0.091,6.466,-95.531,-1.630
10:07:16:976,20.791,0.145,0.015,0.012,7.600,-94.383,-5.568
10:07:17:082,20.896,0.171,-0.023,-0.110,9.742,-92.616,-11.697
10:07:17:083,20.897,0.218,-0.182,-0.219,11.472,-91.496,-15.776
10:07:17:083,20.897,0.257,-0.261,-0.273,14.343,-90.330,-21.777
10:07:17:083,20.897,0.285,-0.273,-0.340,17.159,-90.080,-27.623
10:07:17:16,20.974,0.284,-0.250,-0.415,18.938,-90.220,-31.276
10:07:17:16,20.974,0.333,-0.134,-0.537,21.550,-90.548,-35.863
10:07:17:16,20.975,0.438,-0.169,-0.620,23.190,-90.688,-38.076
10:07:17:161,20.975,0.451,-0.205,-0.676,25.148,-90.896,-40.083
10:07:17:449,21.263,0.398,-0.216,-0.673,25.785,-91.147,-40.589
10:07:17:45,21.264,0.249,-0.252,-0.563,25.484,-91.402,-40.060
10:07:17:45,21.264,0.115,-0.233,-0.587,24.283,-91.034,-38.187
10:07:17:451,21.265,0.152,-0.127,-0.597,23.221,-90.427,-36.263
10:07:17:491,21.305,0.268,0.068,-0.672,21.575,-89.500,-32.850
10:07:17:554,21.368,0.350,0.223,-0.822,20.401,-89.085,-30.452
10:07:17:554,21.368,0.276,0.245,-0.801,18.288,-88.974,-26.595
10:07:17:554,21.368,0.146,0.210,-0.567,15.891,-89.532,-22.565
10:07:17:554,21.369,0.088,0.138,-0.325,14.211,-90.087,-19.764
10:07:17:578,21.392,0.010,-0.083,-0.148,11.934,-90.933,-15.534
10:07:17:579,21.393,-0.017,-0.265,-0.063,10.606,-91.523,-12.708
10:07:17:58,21.394,-0.016,-0.345,0.003,8.763,-92.708,-8.464
10:07:17:581,21.395,-0.018,-0.295,0.112,7.188,-94.117,-4.192
10:07:17:631,21.445,-0.016,-0.235,0.122,6.354,-95.307,-1.302
10:07:17:632,21.446,-0.028,-0.013,0.224,5.398,-96.477,3.311
10:07:17:632,21.446,-0.091,0.098,0.344,4.961,-97.418,6.658
10:07:17:633,21.447,-0.216,0.198,0.531,4.540,-97.962,11.979
10:07:17:655,21.469,-0.326,0.222,0.689,4.311,-97.825,17.322
10:07:17:655,21.469,-0.309,0.207,0.698,4.067,-96.935,20.615
10:07:17:655,21.469,-0.321,0.177,0.768,3.450,-95.353,24.758
10:07:17:726,21.541,-0.325,0.061,0.756,3.107,-94.441,26.744
10:07:17:817,21.631,-0.309,-0.116,0.724,3.049,-94.259,28.451
10:07:17:817,21.631,-0.252,0.056,0.955,3.599,-94.773,28.632
10:07:17:817,21.631,-0.243,0.071,0.969,4.070,-95.028,28.070
10:07:17:817,21.631,-0.208,-0.185,0.853,4.623,-94.267,26.545
10:07:17:833,21.647,-0.147,0.119,0.952,4.838,-92.901,25.192
10:07:18:024,21.838,-0.038,0.333,0.898,5.035,-89.111,22.680
10:07:18:025,21.839,0.210,0.506,0.659,5.379,-83.602,19.670
10:07:18:026,21.840,0.284,0.452,0.467,5.977,-79.629,17.389
10:07:18:027,21.841,0.300,0.126,0.178,7.677,-74.498,13.403
10:07:18:05,21.864,0.275,0.040,0.052,9.189,-71.911,10.270
10:07:18:051,21.865,0.321,0.039,-0.071,11.778,-69.317,4.851
10:07:18:052,21.866,0.350,0.044,-0.140,13.601,-68.503,0.744
10:07:18:053,21.867,0.404,0.019,-0.265,16.400,-68.277,-5.954
10:07:18:099,21.914,0.463,0.010,-0.388,19.337,-68.773,-12.846
10:07:18:1,21.915,0.464,0.179,-0.631,21.402,-69.277,-17.362
10:07:18:101,21.916,0.444,0.159,-0.798,24.991,-70.281,-23.834
10:07:18:12,21.934,0.485,0.001,-0.952,27.575,-71.210,-27.867
10:07:18:315,22.130,0.482,-0.125,-1.009,31.164,-72.873,-33.331
10:07:18:315,22.130,0.364,-0.220,-0.959,33.898,-74.896,-38.051
10:07:18:315,22.130,0.274,-0.368,-0.820,35.079,-76.116,-40.618
10:07:18:316,22.130,0.113,-0.563,-0.534,35.908,-77.258,-43.301
10:07:18:334,22.148,0.005,-0.562,-0.483,35.922,-77.405,-44.229
10:07:18:334,22.148,-0.065,-0.637,-0.638,35.448,-76.731,-44.453
10:07:18:444,22.258,-0.069,-0.581,-0.692,33.705,-75.587,-42.907
10:07:18:445,22.259,-0.009,-0.305,-0.720,31.496,-74.775,-40.584
10:07:18:446,22.260,0.061,0.145,-0.658,27.420,-73.503,-35.065
10:07:18:447,22.261,0.020,0.159,-0.459,25.004,-72.267,-30.009
10:07:18:549,22.363,0.058,0.261,-0.305,22.365,-69.232,-20.833
10:07:18:55,22.364,0.080,0.154,-0.129,21.173,-64.114,-10.775
10:07:18:551,22.365,0.083,0.040,-0.174,20.708,-59.505,-4.043
10:07:18:734,22.548,-0.031,0.153,-0.168,18.238,-49.874,10.738
10:07:18:735,22.549,-0.068,0.207,0.178,16.547,-49.391,17.366
10:07:18:736,22.550,-0.032,0.128,0.843,16.057,-52.187,22.736
10:07:18:736,22.550,-0.026,0.046,1.022,16.034,-53.522,25.899
10:07:18:814,22.628,0.056,-0.014,1.027,15.730,-53.268,29.963
10:07:18:814,22.628,0.152,-0.082,0.919,15.198,-51.940,32.053
10:07:18:815,22.629,0.288,0.013,0.608,14.248,-49.703,33.942
10:07:18:816,22.630,0.287,-0.046,0.513,14.026,-48.794,34.402
10:07:18:838,22.652,0.388,-0.059,0.578,14.760,-49.030,34.259
10:07:18:839,22.653,0.612,0.057,0.597,16.025,-48.724,33.412
10:07:18:839,22.654,0.890,0.166,0.549,16.948,-48.257,32.369
10:07:18:84,22.655,1.036,0.304,0.450,18.069,-46.933,30.094
10:07:19:022,22.836,0.981,0.405,0.285,18.495,-45.468,28.025
10:07:19:023,22.837,0.854,0.601,0.142,18.864,-42.352,24.064
10:07:19:024,22.838,0.259,0.065,0.008,19.668,-38.204,19.328
10:07:19:024,22.839,0.222,-0.118,-0.042,20.132,-35.780,15.561
10:07:19:101,22.915,0.361,-0.185,-0.156,20.387,-33.176,8.957
10:07:19:102,22.916,0.374,-0.063,-0.345,20.421,-31.760,4.097
10:07:19:103,22.917,0.297,0.042,-0.463,20.642,-29.315,-3.391
10:07:19:104,22.918,0.122,0.154,-0.721,21.743,-26.411,-10.716
10:07:19:128,22.942,-0.029,0.135,-0.880,23.097,-24.647,-15.422
10:07:19:128,22.942,-0.190,0.119,-0.873,25.869,-22.691,-22.078
10:07:19:128,22.942,-0.414,0.115,-0.956,28.100,-21.804,-26.252
10:07:19:129,22.943,-0.561,-0.023,-1.002,31.687,-21.422,-32.340
10:07:19:144,22.958,-0.706,-0.070,-0.896,34.763,-22.168,-38.358
10:07:19:17,22.984,-0.762,-0.167,-0.826,36.433,-22.956,-42.389
10:07:19:196,23.010,-0.720,-0.387,-0.623,38.485,-24.206,-48.360
10:07:19:303,23.117,-0.810,-0.408,-0.614,39.578,-24.856,-52.073
10:07:19:416,23.230,-0.826,-0.462,-0.532,40.672,-25.171,-56.534
10:07:19:416,23.231,-0.762,-0.552,-0.284,40.350,-24.399,-58.450
10:07:19:417,23.232,-0.702,-0.465,-0.198,38.792,-23.336,-58.031
10:07:19:418,23.232,-0.630,-0.263,-0.169,34.027,-21.095,-54.953
10:07:19:465,23.279,-0.540,-0.242,-0.119,29.790,-19.487,-51.489
10:07:19:466,23.280,-0.461,-0.222,-0.020,23.087,-17.236,-44.550
10:07:19:467,23.281,-0.321,-0.225,0.010,17.558,-15.714,-36.566
10:07:19:52,23.334,-0.240,-0.276,-0.024,14.916,-14.933,-30.987
10:07:19:521,23.335,-0.217,-0.182,-0.043,12.397,-13.390,-22.370
10:07:19:522,23.336,-0.179,0.067,-0.115,11.183,-12.209,-16.501
10:07:19:523,23.337,-0.066,0.336,-0.069,9.555,-10.538,-7.541
10:07:19:57,23.384,0.296,0.678,0.288,8.276,-9.039,1.503
10:07:19:57,23.384,0.510,0.621,0.397,7.653,-7.972,7.205
10:07:19:571,23.385,0.556,0.420,0.480,6.915,-6.147,14.626
10:07:19:591,23.405,0.621,0.427,0.552,6.495,-5.014,18.683
10:07:19:644,23.458,0.707,0.388,0.482,6.155,-3.591,23.424
10:07:19:67,23.484,0.725,0.192,0.349,6.286,-2.830,26.742
10:07:19:698,23.512,0.816,-0.055,0.253,6.787,-2.881,28.133
10:07:19:699,23.513,1.037,0.079,0.055,7.799,-2.941,29.215
10:07:19:808,23.623,1.082,-0.123,-0.040,8.403,-2.398,29.467
10:07:19:809,23.624,1.248,-0.132,-0.075,9.205,-0.083,29.179
10:07:19:81,23.624,1.013,0.145,-0.230,9.529,4.485,27.890
10:07:19:811,23.625,0.850,0.280,-0.341,9.921,7.887,26.371
10:07:19:914,23.728,0.548,0.332,-0.463,11.016,12.690,23.196
10:07:19:914,23.728,0.174,0.050,-0.435,12.187,15.385,20.429
10:07:19:915,23.729,0.073,-0.072,-0.441,14.405,18.252,15.397
10:07:19:916,23.730,0.062,-0.055,-0.516,16.525,20.132,9.617
10:07:19:96,23.775,-0.043,0.068,-0.573,17.967,21.276,5.568
10:07:19:961,23.775,-0.238,0.051,-0.609,20.480,22.835,-0.581
10:07:19:984,23.798,-0.382,0.058,-0.667,22.369,23.829,-4.594
10:07:20:037,23.851,-0.662,0.052,-0.691,25.533,25.240,-10.460
10:07:20:095,23.909,-0.794,0.069,-0.649,27.760,25.930,-14.378
10:07:20:096,23.910,-1.065,0.144,-0.586,31.063,26.380,-20.503
10:07:20:096,23.910,-1.257,0.016,-0.410,33.995,25.950,-27.194
10:07:20:147,23.962,-1.135,-0.151,-0.296,35.521,25.343,-31.748
10:07:20:147,23.962,-1.021,-0.331,-0.127,37.301,24.707,-37.883
10:07:20:168,23.982,-0.660,-0.577,0.025,38.153,24.707,-41.092
10:07:20:196,24.011,-0.479,-0.606,0.114,39.021,25.425,-44.270
10:07:20:22,24.034,-0.699,-0.559,0.200,39.216,26.648,-45.625
10:07:20:276,24.090,-0.865,-0.684,0.253,38.332,27.288,-45.429
10:07:20:276,24.090,-0.766,-0.447,0.198,34.988,27.703,-43.306
10:07:20:33,24.144,-0.697,-0.013,0.161,32.030,28.090,-40.615
10:07:20:33,24.144,-0.587,0.046,0.139,28.005,29.638,-34.683
10:07:20:351,24.165,-0.417,0.025,0.023,24.884,32.539,-26.979
10:07:20:431,24.245,-0.313,0.000,-0.043,23.187,34.965,-21.384
10:07:20:463,24.277,-0.095,-0.038,-0.078,21.207,38.940,-13.036
10:07:20:463,24.277,-0.076,-0.126,-0.105,20.039,41.698,-7.741
10:07:20:464,24.278,-0.018,-0.028,-0.147,18.131,45.306,-0.431
10:07:20:569,24.384,0.167,0.069,-0.239,16.314,48.338,5.991
10:07:20:57,24.385,0.192,0.089,-0.200,15.080,50.327,9.775
10:07:20:571,24.386,0.450,0.085,-0.211,13.187,52.652,14.540
10:07:20:572,24.386,0.605,0.163,-0.261,11.898,54.056,17.146
10:07:20:675,24.489,0.645,0.224,-0.294,9.905,56.259,20.186
10:07:20:675,24.489,0.600,0.177,-0.303,8.138,58.162,22.154
10:07:20:676,24.490,0.584,0.166,-0.321,7.247,58.955,22.957
10:07:20:677,24.491,0.473,0.034,-0.337,6.558,59.346,23.579
10:07:20:724,24.538,0.468,-0.021,-0.435,6.523,58.951,23.694
10:07:20:724,24.538,0.527,0.037,-0.599,6.749,58.451,23.669
10:07:20:747,24.561,0.538,0.140,-0.788,7.104,59.272,23.449
10:07:20:938,24.753,0.425,0.359,-0.944,7.362,61.367,23.153
10:07:20:939,24.753,0.131,0.623,-0.911,7.852,66.323,22.244
10:07:20:94,24.754,-0.105,0.558,-0.705,8.468,70.093,21.130
10:07:20:941,24.755,-0.229,0.214,-0.340,10.034,75.208,18.352
10:07:20:964,24.778,-0.232,-0.108,-0.114,11.385,77.659,15.708
10:07:20:965,24.779,-0.254,-0.178,-0.116,13.692,79.475,10.747
10:07:20:965,24.779,-0.360,-0.129,-0.158,15.930,79.372,4.535
10:07:20:966,24.780,-0.407,-0.069,-0.165,17.227,78.573,-0.238
10:07:21:011,24.825,-0.455,-0.086,-0.079,18.906,77.266,-7.840
10:07:21:011,24.825,-0.533,-0.113,0.037,19.984,76.698,-12.919
10:07:21:035,24.849,-0.635,-0.042,0.164,21.766,76.506,-20.285
10:07:21:06,24.874,-0.739,0.084,0.427,24.033,77.041,-27.055
10:07:21:117,24.932,-0.783,0.100,0.594,25.874,77.750,-30.977
10:07:21:117,24.932,-0.701,-0.096,0.745,28.984,79.321,-35.526
10:07:21:197,25.011,-0.526,-0.460,0.748,30.756,80.211,-37.786
10:07:21:198,25.012,-0.386,-0.560,0.685,31.993,80.706,-40.173
10:07:21:199,25.013,-0.235,-0.437,0.659,31.441,80.724,-40.949
10:07:21:219,25.033,-0.237,-0.363,0.685,30.474,80.875,-40.375
10:07:21:27,25.084,-0.274,-0.318,0.656,28.484,81.169,-37.989
10:07:21:329,25.143,-0.398,-0.099,0.711,25.964,81.200,-34.496
10:07:21:33,25.144,-0.453,0.103,0.785,24.128,80.971,-31.802
10:07:21:33,25.144,-0.498,0.273,0.708,21.382,80.314,-27.077
10:07:21:349,25.163,-0.415,0.304,0.489,19.673,79.710,-23.355
10:07:21:462,25.277,-0.227,0.106,0.174,17.594,79.000,-16.969
10:07:21:463,25.277,-0.104,-0.016,-0.005,15.777,78.562,-10.249
10:07:21:464,25.278,-0.026,-0.081,-0.085,14.646,78.292,-5.873
10:07:21:464,25.279,0.018,0.001,-0.142,13.005,77.903,0.409
10:07:21:621,25.435,0.051,0.081,-0.268,11.964,77.572,4.417
10:07:21:621,25.435,0.103,0.103,-0.385,10.570,76.943,10.337
10:07:21:622,25.436,0.269,0.172,-0.630,9.349,76.475,16.375
10:07:21:623,25.437,0.386,0.127,-0.715,8.670,76.536,20.433
10:07:21:646,25.460,0.486,0.069,-0.789,7.886,77.038,26.277
10:07:21:646,25.460,0.500,0.009,-0.804,7.564,77.194,29.808
10:07:21:646,25.460,0.500,-0.022,-0.894,7.489,77.126,34.311
10:07:21:695,25.510,0.475,-0.103,-0.945,7.725,76.151,36.577
10:07:21:696,25.510,0.463,-0.301,-0.880,8.516,75.105,38.480
10:07:21:718,25.532,0.526,-0.229,-0.850,9.292,73.414,38.317
10:07:21:774,25.588,0.467,-0.299,-0.781,9.418,73.059,37.259
10:07:21:775,25.589,0.371,-0.114,-0.922,9.246,73.116,34.656
10:07:21:824,25.638,0.217,0.289,-1.041,8.872,74.670,30.970
10:07:21:825,25.639,0.123,0.494,-0.972,8.764,76.168,27.863
10:07:21:909,25.723,0.000,0.546,-0.697,9.056,78.786,22.292
10:07:21:91,25.724,0.016,0.305,-0.389,9.571,80.470,18.103
10:07:21:91,25.724,-0.002,0.202,-0.208,10.613,82.842,11.074
10:07:21:911,25.725,-0.105,0.015,-0.090,11.485,84.223,5.932
10:07:22:094,25.908,-0.191,0.039,0.022,12.879,86.124,-2.458
10:07:22:094,25.908,-0.327,0.135,0.170,14.444,87.817,-11.167
10:07:22:095,25.909,-0.371,0.112,0.289,15.715,88.782,-16.905
10:07:22:096,25.910,-0.403,0.010,0.419,18.270,90.099,-24.901
10:07:22:146,25.960,-0.451,-0.013,0.587,20.537,90.874,-29.607
10:07:22:147,25.961,-0.466,-0.129,0.679,24.573,91.631,-35.597
10:07:22:148,25.962,-0.479,-0.113,0.598,28.762,91.685,-40.232
10:07:22:148,25.962,-0.586,0.050,0.445,31.815,91.865,-42.381
10:07:22:164,25.978,-0.570,-0.048,0.308,37.057,93.051,-44.380
10:07:22:193,26.007,-0.337,-0.194,0.236,40.021,94.385,-45.183
10:07:22:193,26.007,-0.306,0.179,0.024,42.784,96.555,-46.138
10:07:22:215,26.029,-0.396,0.543,-0.029,46.516,100.365,-46.967
10:07:22:33,26.144,-0.489,0.650,0.296,50.028,104.724,-47.104
10:07:22:33,26.144,-0.561,0.585,0.476,54.879,112.168,-46.577
10:07:22:33,26.144,-0.589,0.432,0.335,57.400,116.594,-46.408
10:07:22:331,26.145,-0.562,0.446,0.334,60.561,122.728,-46.977
10:07:22:592,26.407,0.088,0.153,0.194,64.269,130.265,-47.385
10:07:22:594,26.408,0.169,-0.047,0.082,66.960,135.111,-48.067
10:07:22:594,26.409,0.082,-0.388,0.084,71.193,141.104,-50.063
10:07:22:595,26.409,0.234,-0.515,0.136,74.222,145.105,-51.241
10:07:22:619,26.434,0.357,-0.598,0.034,78.966,151.605,-52.176
10:07:22:62,26.435,0.388,-0.650,-0.065,83.551,157.005,-53.301
10:07:22:621,26.435,0.337,-0.624,-0.118,86.383,157.254,-56.779
10:07:22:672,26.486,0.237,-0.342,-0.286,92.159,31.229,169.232
10:07:22:673,26.487,0.171,-0.300,-0.219,94.922,15.982,150.233
10:07:22:673,26.487,-0.064,-0.151,-0.155,97.085,16.247,147.337
10:07:22:673,26.487,-0.093,-0.025,-0.124,98.155,16.672,145.931
10:07:22:689,26.503,-0.006,0.057,-0.046,99.373,17.317,144.189
10:07:22:775,26.589,-0.177,0.134,-0.134,99.943,17.759,143.060
10:07:22:775,26.589,-0.186,0.212,-0.110,100.328,17.449,140.299
10:07:22:777,26.591,-0.394,0.276,-0.059,100.232,18.192,139.243
10:07:22:777,26.592,-0.406,0.243,-0.031,99.698,19.321,137.605
10:07:22:794,26.609,-0.300,0.140,-0.011,98.894,21.427,137.050
10:07:22:878,26.692,-0.202,0.110,0.098,98.259,23.198,137.138
10:07:22:878,26.692,-0.101,0.035,0.192,97.356,26.152,137.592
10:07:22:879,26.693,-0.145,-0.166,0.067,96.901,28.510,138.176
10:07:22:95,26.764,-0.168,-0.248,0.033,96.370,31.780,138.646
10:07:22:982,26.797,-0.170,-0.359,0.105,95.964,34.988,139.186
10:07:22:983,26.797,-0.127,-0.331,0.139,95.772,37.149,139.717
10:07:22:983,26.798,-0.071,-0.297,0.100,95.722,41.289,141.605
10:07:23:002,26.817,-0.106,-0.304,0.017,95.846,44.497,143.414
10:07:23:063,26.877,-0.118,-0.292,-0.015,96.132,48.599,145.567
10:07:23:063,26.877,-0.159,-0.128,0.029,96.211,50.803,146.003
10:07:23:111,26.925,-0.194,0.058,0.039,96.137,50.809,144.902
10:07:23:111,26.925,-0.219,0.072,-0.029,95.965,48.635,141.367
10:07:23:193,27.008,-0.161,0.162,0.006,95.814,47.451,139.559
10:07:23:194,27.008,-0.148,0.249,0.077,95.428,46.037,137.515
10:07:23:194,27.008,-0.114,0.316,0.038,95.006,42.376,133.202
10:07:23:271,27.085,-0.117,0.242,-0.042,94.782,39.999,130.292
10:07:23:272,27.086,-0.087,0.149,0.015,94.548,39.732,129.226
10:07:23:272,27.086,-0.166,0.119,0.190,94.474,41.849,130.811
10:07:23:291,27.105,-0.250,0.132,0.189,94.480,46.311,134.222
10:07:23:318,27.132,-0.262,0.110,0.167,94.502,51.554,138.170
10:07:23:344,27.159,-0.244,0.008,0.125,94.511,57.680,143.322
10:07:23:424,27.238,-0.250,-0.116,0.072,94.510,68.873,152.419
10:07:23:59,27.404,-0.226,-0.129,0.071,94.479,75.996,157.955
10:07:23:59,27.404,-0.218,-0.184,0.032,94.432,87.992,166.907
10:07:23:591,27.405,-0.175,-0.277,0.016,94.548,101.718,177.181
10:07:23:592,27.406,-0.153,-0.313,0.036,94.750,109.275,-177.189
10:07:23:607,27.421,-0.157,-0.264,0.049,95.123,117.227,-172.018
10:07:23:668,27.482,-0.083,-0.232,0.040,95.339,121.073,-169.930
10:07:23:669,27.483,-0.052,-0.202,0.038,95.604,126.414,-166.947
10:07:23:67,27.484,-0.010,-0.021,-0.004,95.711,129.430,-165.903
10:07:23:671,27.485,0.026,0.126,-0.092,95.731,129.116,-167.292
10:07:23:693,27.507,-0.035,0.127,-0.120,95.871,128.324,-169.271
10:07:23:694,27.508,-0.067,0.221,-0.112,96.067,131.269,-166.829
10:07:23:694,27.508,-0.268,0.357,-0.100,96.475,135.850,-163.055
10:07:23:766,27.581,-0.505,0.350,0.035,97.255,136.822,-164.611
10:07:23:767,27.582,-0.488,0.392,0.158,97.686,139.164,-164.114
10:07:23:79,27.604,-0.591,0.349,0.229,98.022,137.559,-167.287
10:07:23:848,27.662,-0.561,0.353,0.283,98.520,137.546,-170.824
10:07:23:848,27.662,-0.216,0.383,0.275,98.852,138.160,-171.829
10:07:23:869,27.683,-0.079,0.218,0.156,99.621,136.502,-177.016
10:07:24:005,27.819,-0.108,0.028,0.030,100.604,132.366,175.847
10:07:24:006,27.820,-0.036,-0.151,-0.005,101.213,130.811,172.206
10:07:24:064,27.878,0.020,-0.277,0.062,102.075,128.484,166.805
10:07:24:064,27.878,0.079,-0.444,0.047,102.642,126.067,162.589
10:07:24:064,27.878,0.037,-0.445,-0.019,103.475,121.403,155.756
10:07:24:064,27.878,0.103,-0.445,0.067,104.249,116.503,149.342
10:07:24:142,27.957,0.139,-0.447,0.075,104.747,113.814,145.883
10:07:24:142,27.957,0.110,-0.413,0.002,105.365,111.480,142.471
10:07:24:143,27.957,0.040,-0.267,-0.039,105.664,110.774,140.995
10:07:24:143,27.957,-0.003,-0.141,-0.024,106.040,111.147,140.269
10:07:24:158,27.972,0.005,-0.061,0.048,106.247,112.815,140.953
10:07:24:216,28.030,-0.001,0.180,-0.017,106.114,113.134,140.522
10:07:24:217,28.031,-0.030,0.389,-0.200,105.667,113.300,138.823
10:07:24:217,28.031,0.077,0.315,-0.145,105.383,113.688,138.837
10:07:24:237,28.051,0.217,0.355,-0.130,104.945,114.337,139.039
10:07:24:263,28.077,0.271,0.427,-0.151,104.503,111.403,136.907
10:07:24:322,28.136,0.243,0.347,-0.102,104.237,110.214,136.058
10:07:24:322,28.137,0.171,0.117,-0.035,103.745,109.561,136.369
10:07:24:343,28.157,0.113,-0.074,0.036,103.313,109.002,136.166
10:07:24:398,28.212,-0.022,-0.250,0.074,102.522,107.103,134.364
10:07:24:398,28.212,-0.112,-0.307,0.031,101.792,105.387,132.481
10:07:24:42,28.234,-0.101,-0.389,0.025,101.526,104.924,131.928
10:07:24:449,28.263,-0.090,-0.388,-0.043,101.538,105.054,131.743
10:07:24:531,28.345,-0.078,-0.297,-0.053,101.784,105.071,131.716
10:07:24:532,28.346,-0.105,-0.239,-0.039,102.466,105.645,131.931
10:07:24:533,28.347,-0.116,-0.165,-0.036,103.421,106.475,132.869
10:07:24:551,28.365,-0.162,-0.080,-0.091,104.081,106.893,133.276
10:07:24:607,28.421,-0.185,0.106,-0.051,105.007,106.786,133.240
10:07:24:607,28.421,-0.160,0.127,0.084,105.648,106.948,133.450
10:07:24:633,28.447,-0.199,0.167,0.059,106.572,107.536,134.194
10:07:24:656,28.470,-0.296,0.267,0.138,107.194,107.893,134.241
10:07:24:709,28.524,-0.265,0.298,0.236,107.399,107.941,133.737
10:07:24:74,28.554,-0.242,0.286,0.375,107.446,108.725,133.189
10:07:24:74,28.554,-0.158,0.272,0.514,107.303,109.444,132.733
10:07:24:819,28.633,-0.087,0.221,0.508,106.864,110.655,131.786
10:07:24:82,28.634,-0.020,0.161,0.417,106.474,111.946,131.454
10:07:24:821,28.635,0.078,0.048,0.183,105.724,114.599,131.398
10:07:24:84,28.654,0.071,-0.080,0.083,104.730,117.470,131.032
10:07:24:895,28.710,0.046,-0.213,0.073,103.957,118.829,130.033
10:07:24:896,28.710,0.094,-0.266,0.078,102.854,120.421,128.183
10:07:24:92,28.734,0.079,-0.391,0.051,102.291,121.666,127.318
10:07:24:946,28.760,0.042,-0.440,0.019,101.784,124.015,126.789
10:07:25:029,28.843,0.009,-0.372,0.014,101.503,126.148,126.385
10:07:25:03,28.844,0.038,-0.229,0.005,101.427,127.498,126.301
10:07:25:031,28.845,0.060,-0.166,-0.051,101.500,129.877,127.000
10:07:25:109,28.923,0.008,-0.005,-0.014,101.520,131.135,127.406
10:07:25:109,28.923,-0.051,0.268,0.003,101.159,131.228,126.468
10:07:25:11,28.924,-0.021,0.386,-0.016,100.501,130.249,124.770
10:07:25:187,29.001,0.026,0.336,-0.025,99.954,129.220,123.503
10:07:25:188,29.002,-0.167,0.378,-0.035,98.846,125.929,119.668
10:07:25:189,29.003,-0.134,0.353,-0.003,98.039,123.668,116.887
10:07:25:209,29.023,0.127,0.275,0.038,96.966,122.448,114.595
10:07:25:236,29.050,0.269,0.213,0.112,96.366,121.926,112.691
10:07:25:26,29.074,0.089,0.125,0.116,96.233,122.568,112.173
10:07:25:286,29.100,0.109,0.012,0.057,96.159,125.496,113.225
10:07:25:313,29.127,0.081,-0.068,0.033,96.180,128.362,114.345
10:07:25:339,29.153,0.067,-0.173,0.063,96.555,133.400,116.799
10:07:25:394,29.208,-0.051,-0.334,0.030,97.436,139.912,120.622
10:07:25:395,29.209,-0.101,-0.367,-0.044,98.270,145.154,124.324
10:07:25:418,29.232,-0.104,-0.394,-0.177,99.737,155.350,132.160
10:07:25:502,29.316,-0.116,-0.341,-0.244,100.786,162.655,138.243
10:07:25:503,29.317,-0.102,-0.306,-0.212,102.396,173.586,147.442
10:07:25:504,29.318,0.139,-0.010,-0.008,103.907,-177.889,154.298
10:07:25:525,29.339,0.123,0.153,0.066,104.824,-175.114,156.270
10:07:25:579,29.393,-0.018,0.207,0.136,106.151,-173.356,156.433
10:07:25:579,29.393,-0.084,0.237,0.272,106.986,-172.929,155.865
10:07:25:601,29.416,-0.074,0.258,0.188,108.177,-170.811,155.754
10:07:25:686,29.500,0.034,0.235,0.235,109.502,-168.860,155.263
10:07:25:687,29.501,0.002,0.220,0.291,110.432,-167.896,154.031
10:07:25:687,29.501,0.223,0.178,0.446,111.611,-165.104,153.796
10:07:25:706,29.520,0.337,0.149,0.382,112.192,-161.343,155.261
10:07:25:82,29.634,0.383,0.192,0.105,112.618,-155.493,158.441
10:07:25:82,29.635,0.248,0.251,-0.216,112.593,-150.943,160.797
10:07:25:821,29.636,0.015,0.123,-0.130,112.334,-144.578,164.306
10:07:25:822,29.637,-0.019,-0.061,-0.018,111.882,-137.221,168.383
10:07:25:896,29.710,0.023,-0.208,-0.041,111.563,-132.313,171.265
10:07:25:897,29.711,0.029,-0.276,-0.188,111.166,-125.365,175.330
10:07:25:897,29.711,-0.045,-0.353,-0.238,111.146,-122.033,177.052
10:07:25:919,29.733,-0.139,-0.475,-0.098,111.436,-120.147,176.839
10:07:25:975,29.790,-0.231,-0.575,0.229,111.495,-120.730,174.485
10:07:25:975,29.790,-0.211,-0.642,0.349,111.087,-121.470,172.816
10:07:25:996,29.811,-0.243,-0.656,0.279,109.596,-121.366,172.614
10:07:26:111,29.925,-0.297,-0.654,0.060,107.980,-119.470,175.061
10:07:26:111,29.925,-0.344,-0.636,0.007,104.712,-113.303,-176.850
10:07:26:111,29.925,-0.491,-0.716,0.067,100.408,-98.697,-158.855
10:07:26:112,29.926,-0.600,-0.858,-0.042,96.848,-76.302,-133.184
10:07:26:158,29.972,-0.705,-0.884,-0.334,90.162,-40.627,-90.644
10:07:26:158,29.972,-0.764,-0.784,-0.575,84.529,-30.972,-74.871
10:07:26:179,29.994,-0.767,-0.482,-1.202,73.967,-29.626,-61.578
10:07:26:286,30.100,-0.460,-0.020,-1.762,60.668,-35.952,-52.097
10:07:26:319,30.133,-0.152,0.213,-2.072,50.877,-42.739,-45.838
10:07:26:32,30.134,0.815,1.023,-2.958,35.749,-56.476,-36.026
10:07:26:321,30.135,2.170,1.769,-2.282,26.539,-70.347,-29.813
10:07:26:322,30.136,2.196,1.774,-0.092,18.871,-99.800,-21.855
10:07:26:477,30.291,-0.258,0.926,1.016,12.967,-129.560,-13.575
10:07:26:478,30.292,-1.043,0.335,0.759,12.191,-143.545,-9.209
10:07:26:478,30.292,-0.193,-0.044,0.084,15.426,-152.553,-5.266
10:07:26:479,30.293,-0.191,-0.060,0.585,17.657,-151.242,-2.241
10:07:26:502,30.316,0.377,0.328,1.347,18.274,-141.330,4.193
10:07:26:503,30.317,0.611,-0.005,1.095,18.305,-126.855,11.252
10:07:26:504,30.318,0.521,-0.106,0.767,17.434,-117.179,16.153
10:07:26:505,30.319,-0.018,-0.030,0.529,15.135,-106.558,23.463
10:07:26:552,30.367,-0.559,-0.148,0.819,13.903,-103.048,27.938
10:07:26:552,30.367,-0.443,-0.158,1.058,13.175,-101.629,34.224
10:07:26:602,30.416,-0.058,-0.348,1.112,14.064,-102.331,39.552
10:07:26:603,30.417,-0.084,-0.592,1.218,15.510,-103.633,42.314
10:07:26:871,30.685,-0.475,-0.528,1.211,16.867,-105.450,44.173
10:07:26:872,30.686,-0.345,-0.265,0.880,15.822,-105.698,43.632
10:07:26:873,30.687,-0.258,-0.194,0.986,11.964,-105.095,40.738
10:07:26:873,30.687,-0.168,0.086,1.103,7.503,-103.191,36.035
10:07:26:897,30.711,-0.148,0.416,1.160,4.913,-101.234,32.030
10:07:26:898,30.712,-0.187,0.580,0.793,2.294,-97.830,24.423
10:07:26:898,30.712,-0.167,0.682,0.507,1.347,-95.698,18.386
10:07:26:899,30.713,-0.287,0.422,0.110,0.856,-93.007,8.650
10:07:26:952,30.767,-0.244,0.347,0.071,0.889,-91.527,2.312
10:07:26:952,30.767,-0.171,0.282,-0.046,1.237,-89.697,-7.021
10:07:26:953,30.767,-0.013,0.261,-0.177,2.044,-87.650,-15.882
10:07:26:953,30.767,0.090,0.262,-0.317,2.869,-86.407,-21.374
10:07:27:054,30.868,0.116,0.052,-0.463,5.050,-84.316,-28.999
10:07:27:054,30.868,0.089,0.028,-0.608,7.378,-82.800,-33.550
10:07:27:054,30.868,0.066,0.072,-0.822,12.336,-80.418,-39.443
10:07:27:079,30.893,0.086,-0.170,-0.883,18.616,-78.184,-44.036
10:07:27:079,30.893,0.107,-0.269,-0.876,22.747,-77.084,-46.279
10:07:27:079,30.893,0.135,-0.345,-0.823,27.645,-76.141,-48.397
10:07:27:157,30.971,0.105,-0.432,-0.817,29.808,-75.868,-49.122
10:07:27:157,30.972,0.084,-0.482,-0.828,31.290,-75.828,-49.368
10:07:27:157,30.972,0.077,-0.533,-0.879,30.670,-76.174,-48.706
10:07:27:179,30.993,0.039,-0.528,-0.941,29.204,-76.605,-47.761
10:07:27:23,31.044,0.040,-0.331,-0.985,25.698,-77.590,-45.615
10:07:27:262,31.076,0.007,-0.085,-1.024,22.813,-78.376,-43.735
10:07:27:262,31.076,-0.044,-0.120,-0.961,18.594,-79.398,-40.110
10:07:27:281,31.095,-0.028,-0.140,-0.722,14.796,-80.348,-35.327
10:07:27:369,31.183,-0.007,-0.108,-0.563,12.479,-81.166,-31.571
10:07:27:369,31.183,-0.033,-0.213,-0.413,9.452,-82.890,-25.467
10:07:27:369,31.183,0.016,-0.076,-0.407,7.739,-84.447,-21.258
10:07:27:549,31.363,0.068,0.154,-0.316,5.666,-87.092,-14.625
10:07:27:55,31.364,0.060,0.434,-0.112,4.258,-89.851,-7.495
10:07:27:634,31.448,-0.007,0.493,0.116,3.794,-91.567,-2.326
10:07:27:634,31.448,-0.103,0.466,0.367,3.695,-93.485,5.894
10:07:27:634,31.448,-0.198,0.544,0.717,3.783,-93.889,11.709
10:07:27:634,31.448,-0.304,0.420,1.218,3.552,-92.282,20.627
10:07:27:728,31.542,-0.188,0.113,1.202,2.116,-87.866,28.573
10:07:27:758,31.572,-0.174,-0.099,1.080,0.480,-84.609,32.750
10:07:27:759,31.573,-0.285,-0.264,0.856,-2.337,-80.601,36.933
10:07:27:838,31.652,-0.313,-0.318,0.708,-4.343,-78.917,38.493
10:07:27:839,31.653,-0.258,-0.268,0.871,-6.075,-78.255,39.410
10:07:27:869,31.684,-0.159,-0.318,1.038,-6.289,-78.501,39.104
10:07:27:869,31.684,-0.088,-0.242,1.239,-5.799,-78.539,38.319
10:07:27:87,31.684,0.121,0.048,1.330,-4.743,-77.311,36.238
10:07:27:871,31.685,0.204,0.191,1.242,-3.747,-75.710,34.110
10:07:27:913,31.727,0.172,0.375,0.910,-2.052,-72.127,29.780
10:07:27:938,31.752,0.064,0.257,0.537,-0.759,-69.203,26.176
10:07:28:025,31.839,-0.046,0.082,0.277,1.478,-64.749,19.782
10:07:28:026,31.840,-0.058,0.076,0.127,4.133,-60.964,12.680
10:07:28:027,31.841,-0.020,0.125,0.059,6.202,-59.137,7.723
10:07:28:028,31.842,0.176,0.291,-0.017,9.480,-57.759,0.007
10:07:28:052,31.866,0.347,0.454,-0.297,11.679,-57.536,-5.273
10:07:28:052,31.867,0.347,0.450,-0.550,15.179,-57.907,-13.193
10:07:28:053,31.868,0.300,0.492,-0.945,19.040,-59.348,-20.905
10:07:28:054,31.868,0.320,0.285,-1.319,21.594,-61.293,-26.148
10:07:28:101,31.915,0.309,-0.161,-1.453,24.532,-66.403,-34.579
10:07:28:102,31.916,0.287,-0.237,-1.266,25.143,-71.304,-40.443
10:07:28:102,31.916,0.098,-0.351,-1.044,23.562,-77.930,-48.381
10:07:28:209,32.023,-0.218,-0.672,-0.588,19.931,-80.413,-53.238
10:07:28:209,32.023,-0.245,-0.742,-0.399,18.854,-79.868,-54.558
10:07:28:21,32.024,-0.107,-0.602,-0.369,19.650,-77.998,-54.828
10:07:28:211,32.025,-0.101,-0.627,-0.424,21.190,-76.187,-53.481
10:07:28:253,32.068,-0.190,-0.754,-0.673,22.184,-72.927,-48.989
10:07:28:445,32.260,-0.411,-0.411,-0.811,20.581,-69.784,-41.787
10:07:28:446,32.261,-0.355,0.032,-0.702,19.009,-67.745,-35.725
10:07:28:447,32.262,-0.042,0.432,-0.407,17.778,-63.736,-25.828
10:07:28:448,32.262,0.026,0.095,-0.435,17.564,-60.156,-19.074
10:07:28:517,32.331,0.070,0.061,-0.377,16.954,-54.301,-9.409
10:07:28:551,32.365,0.080,0.060,-0.261,15.514,-48.406,-0.873
10:07:28:552,32.366,0.090,0.214,-0.183,13.955,-44.813,4.189
10:07:28:552,32.366,0.198,0.399,0.197,11.026,-40.751,10.757
10:07:28:553,32.367,0.197,0.351,0.393,8.982,-38.913,14.485
10:07:28:605,32.420,0.199,0.175,0.574,6.005,-37.877,19.333
10:07:28:606,32.420,0.259,-0.114,0.930,3.630,-38.195,23.455
10:07:28:606,32.420,0.287,-0.181,1.021,2.149,-38.004,25.588
10:07:28:606,32.420,0.242,-0.167,1.029,-0.257,-36.363,27.627
10:07:28:708,32.522,0.205,-0.104,0.882,-1.904,-34.731,28.103
10:07:28:709,32.523,0.203,-0.126,0.780,-3.943,-32.437,27.593
10:07:28:71,32.524,0.295,-0.182,0.617,-5.049,-30.730,26.248
10:07:28:711,32.525,0.429,-0.140,0.596,-5.370,-29.534,25.233
10:07:28:732,32.546,0.690,0.072,0.637,-5.580,-26.402,23.795
10:07:28:732,32.546,0.740,0.129,0.530,-5.495,-22.809,22.903
10:07:28:732,32.546,0.781,0.403,0.278,-4.536,-15.712,21.631
10:07:28:781,32.595,0.800,0.724,-0.125,-3.198,-11.035,20.908
10:07:28:782,32.596,0.692,0.734,-0.337,-0.050,-5.508,19.382
10:07:28:809,32.623,0.190,0.498,-0.425,4.153,-1.794,15.978
10:07:28:83,32.644,-0.017,0.296,-0.386,6.867,-0.191,12.810
10:07:28:857,32.671,0.035,0.176,-0.520,10.463,0.310,7.215
10:07:28:884,32.698,0.140,0.045,-0.571,12.374,-0.431,2.891
10:07:28:91,32.724,0.161,0.037,-0.603,14.595,-2.327,-4.316
10:07:28:993,32.808,-0.023,0.083,-0.640,16.284,-3.907,-12.012
10:07:28:994,32.808,-0.179,0.086,-0.649,17.372,-4.501,-17.225
10:07:28:995,32.809,-0.486,0.017,-0.586,19.422,-4.461,-24.925
10:07:29:014,32.828,-0.718,-0.043,-0.568,21.179,-4.051,-29.932
10:07:29:1,32.914,-0.827,-0.147,-0.532,24.186,-3.509,-37.195
10:07:29:1,32.914,-0.953,-0.359,-0.454,27.151,-3.435,-43.955
10:07:29:1,32.914,-1.009,-0.570,-0.352,28.859,-3.581,-47.801
10:07:29:12,32.934,-0.745,-0.694,-0.303,30.331,-3.912,-51.375
10:07:29:205,33.020,-0.566,-0.533,-0.102,30.783,-3.876,-52.052
10:07:29:205,33.020,-0.614,-0.460,0.086,30.906,-2.723,-50.560
10:07:29:206,33.020,-0.727,-0.474,0.028,29.771,-0.539,-47.075
10:07:29:224,33.038,-0.842,-0.495,-0.073,28.262,0.967,-44.178
10:07:29:25,33.064,-0.896,-0.247,-0.255,25.399,2.610,-39.385
10:07:29:276,33.090,-0.983,-0.038,-0.342,23.419,3.293,-36.152
10:07:29:305,33.119,-0.975,0.091,-0.368,20.360,3.715,-31.275
10:07:29:357,33.171,-0.713,0.208,-0.314,17.071,2.926,-26.160
10:07:29:384,33.198,-0.552,0.204,-0.242,14.898,1.837,-22.454
10:07:29:385,33.199,-0.195,0.240,-0.147,11.861,-0.464,-16.403
10:07:29:466,33.280,-0.023,0.190,-0.116,10.163,-2.127,-12.072
10:07:29:522,33.336,0.090,0.252,-0.111,8.201,-4.344,-5.204
10:07:29:522,33.336,0.174,0.402,-0.101,6.992,-5.950,2.004
10:07:29:523,33.337,0.203,0.436,-0.193,6.473,-7.400,6.857
10:07:29:523,33.337,0.673,0.321,0.163,6.342,-10.735,14.291
10:07:29:569,33.384,0.775,0.203,0.323,6.696,-12.677,19.088
10:07:29:569,33.384,0.895,0.008,0.438,7.375,-14.372,25.711
10:07:29:591,33.406,1.089,-0.329,0.507,7.834,-14.675,29.553
10:07:29:707,33.521,1.088,-0.472,0.452,8.017,-14.205,33.834
10:07:29:707,33.521,0.797,-0.278,0.390,7.800,-13.959,35.697
10:07:29:707,33.521,0.917,-0.205,0.284,7.882,-14.146,35.873
10:07:29:707,33.521,1.073,-0.132,0.226,8.319,-15.399,35.201
10:07:29:761,33.575,1.234,-0.194,0.144,8.608,-15.550,33.818
10:07:29:761,33.576,1.245,-0.122,0.179,8.551,-14.745,32.486
10:07:29:777,33.592,1.231,0.257,0.113,7.587,-11.485,29.767
10:07:29:802,33.616,1.058,0.470,0.042,6.672,-8.085,27.221
10:07:29:859,33.673,0.665,0.609,-0.176,5.667,-1.921,22.112
10:07:29:859,33.673,0.290,0.433,-0.230,5.592,2.396,17.907
10:07:29:882,33.696,0.074,0.351,-0.238,6.537,8.224,10.703
10:07:29:989,33.803,-0.104,0.250,-0.249,8.532,12.463,2.871
10:07:30:048,33.862,-0.144,0.341,-0.252,10.274,14.268,-2.444
10:07:30:048,33.862,-0.278,0.348,-0.247,13.367,15.766,-10.400
10:07:30:049,33.863,-0.531,0.257,-0.344,15.639,15.929,-15.703
10:07:30:05,33.864,-0.672,0.147,-0.434,19.120,14.689,-23.503
10:07:30:098,33.912,-0.863,0.080,-0.494,22.530,11.911,-31.128
10:07:30:098,33.912,-1.007,0.046,-0.558,24.701,9.457,-36.128
10:07:30:098,33.912,-1.178,-0.026,-0.592,27.736,5.532,-43.293
10:07:30:145,33.960,-1.203,-0.139,-0.514,29.736,3.062,-47.739
10:07:30:146,33.961,-1.061,-0.357,-0.377,32.430,0.493,-53.700
10:07:30:2,34.014,-0.776,-0.614,-0.202,34.720,-0.261,-58.692
10:07:30:2,34.014,-0.631,-0.712,-0.131,36.034,0.138,-61.400
10:07:30:222,34.036,-0.431,-0.821,-0.062,37.545,1.822,-64.289
10:07:30:277,34.091,-0.472,-0.856,0.002,38.215,3.534,-65.357
10:07:30:277,34.091,-0.640,-0.805,0.057,37.970,6.731,-65.303
10:07:30:329,34.144,-0.702,-0.549,0.032,35.210,10.211,-62.601
10:07:30:33,34.144,-0.749,-0.379,0.003,32.252,12.570,-59.237
10:07:30:382,34.196,-0.654,-0.292,0.056,27.197,16.073,-52.128
10:07:30:383,34.197,-0.504,-0.185,0.105,23.927,18.307,-46.520
10:07:30:465,34.279,-0.391,-0.120,0.137,20.188,21.700,-37.705
10:07:30:465,34.279,-0.391,-0.151,0.024,17.946,25.657,-28.956
10:07:30:465,34.279,-0.438,-0.070,-0.048,16.779,28.741,-23.116
10:07:30:485,34.299,-0.419,0.244,-0.175,14.790,33.565,-14.326
10:07:30:569,34.383,-0.157,0.479,-0.213,13.261,36.562,-8.536
10:07:30:57,34.384,0.187,0.429,-0.216,11.028,40.477,-0.351
10:07:30:571,34.385,0.382,0.211,0.325,8.554,42.984,6.843
10:07:30:677,34.491,1.437,0.781,1.202,7.296,42.078,11.282
10:07:30:678,34.492,1.458,0.721,0.238,5.562,39.179,14.763
10:07:30:678,34.493,0.589,0.198,-0.296,5.011,39.550,15.843
10:07:30:679,34.494,0.313,0.076,-0.430,3.900,41.604,16.124
10:07:30:755,34.569,0.230,-0.118,-0.341,3.987,44.111,15.687
10:07:30:756,34.570,0.203,0.041,-0.353,4.580,45.535,15.570
10:07:30:757,34.571,0.238,0.322,-0.436,6.100,47.008,15.618
10:07:30:757,34.571,0.415,0.233,-0.471,7.499,47.748,15.574
10:07:30:773,34.587,0.502,0.275,-0.542,9.603,48.567,15.224
10:07:30:828,34.642,0.564,0.726,-0.660,10.929,49.350,14.946
10:07:30:829,34.643,0.397,0.391,-0.505,13.482,51.601,14.470
10:07:30:939,34.753,0.168,0.024,-0.396,15.218,54.582,13.285
10:07:30:94,34.754,0.052,-0.117,-0.359,15.607,56.678,11.902
10:07:30:941,34.755,-0.149,-0.226,-0.395,15.724,60.271,9.191
10:07:30:942,34.756,-0.265,-0.251,-0.379,16.125,63.096,7.027
10:07:30:958,34.772,-0.472,-0.229,-0.318,17.415,67.483,3.373
10:07:31:07,34.885,-0.558,-0.231,-0.221,19.462,71.123,-0.612
10:07:31:07,34.885,-0.576,-0.276,-0.167,21.274,72.817,-3.347
10:07:31:071,34.886,-0.582,-0.287,-0.062,24.262,74.289,-7.583
10:07:31:072,34.887,-0.670,-0.080,0.066,26.259,74.665,-10.532
10:07:31:146,34.960,-0.675,-0.116,0.113,29.323,74.284,-15.187
10:07:31:147,34.961,-0.886,-0.057,0.257,31.687,73.155,-20.092
10:07:31:148,34.962,-0.949,-0.106,0.424,32.550,72.018,-23.484
10:07:31:166,34.980,-0.821,-0.214,0.557,32.414,69.955,-28.305
10:07:31:278,35.093,-0.581,-0.335,0.670,31.426,68.941,-30.746
10:07:31:279,35.094,-0.366,-0.228,0.542,29.311,69.091,-32.128
10:07:31:28,35.094,-0.364,-0.166,0.561,27.495,71.179,-30.904
10:07:31:299,35.113,-0.350,-0.319,0.585,26.425,73.021,-29.179
10:07:31:329,35.143,-0.371,-0.205,0.717,24.523,75.378,-25.511
10:07:31:329,35.143,-0.391,0.013,0.807,22.932,76.419,-22.848
10:07:31:35,35.164,-0.409,0.180,0.788,20.251,77.353,-18.835
10:07:31:405,35.219,-0.371,0.254,0.588,17.718,77.800,-14.917
10:07:31:406,35.220,-0.272,0.188,0.336,16.214,77.996,-12.155
10:07:31:458,35.272,-0.151,0.057,0.090,14.132,78.196,-7.755
10:07:31:459,35.273,-0.039,-0.096,-0.056,12.769,78.292,-4.728
10:07:31:513,35.327,0.044,-0.113,-0.111,10.670,78.302,-0.154
10:07:31:513,35.327,0.084,-0.039,-0.170,8.575,78.220,4.390
10:07:31:648,35.462,0.113,-0.011,-0.213,7.322,77.995,7.376
10:07:31:649,35.463,0.224,0.084,-0.410,5.684,77.313,11.851
10:07:31:649,35.464,0.364,0.071,-0.552,4.820,76.891,14.896
10:07:31:65,35.465,0.528,-0.024,-0.667,3.788,77.133,19.252
10:07:31:698,35.512,0.582,0.001,-0.711,3.096,77.967,21.848
10:07:31:698,35.512,0.564,0.055,-0.805,1.844,79.980,25.009
10:07:31:699,35.513,0.480,0.018,-0.763,0.639,82.733,27.243
10:07:31:719,35.533,0.324,0.032,-0.651,-0.031,84.475,28.181
10:07:31:745,35.559,0.276,0.055,-0.697,-0.302,85.927,28.703
10:07:31:799,35.613,0.281,0.097,-0.802,0.120,86.181,28.475
10:07:31:8,35.614,0.253,-0.111,-0.696,1.144,86.502,27.192
10:07:31:823,35.637,0.174,0.049,-0.751,2.342,87.096,24.692
10:07:31:878,35.692,0.114,0.301,-0.778,3.140,88.024,22.432
10:07:31:879,35.693,-0.037,0.621,-0.657,4.439,90.343,18.184
10:07:31:903,35.717,-0.091,0.551,-0.358,5.476,92.185,14.856
10:07:31:928,35.742,-0.070,0.425,-0.184,7.459,94.634,9.397
10:07:31:986,35.800,-0.082,0.145,-0.015,9.736,96.061,3.341
10:07:31:986,35.800,-0.139,0.052,0.046,11.236,96.222,-1.063
10:07:32:036,35.850,-0.235,-0.017,0.128,13.239,95.567,-8.245
10:07:32:036,35.850,-0.283,-0.034,0.208,14.373,94.875,-13.188
10:07:32:086,35.900,-0.305,-0.086,0.247,16.158,94.199,-20.326
10:07:32:115,35.929,-0.283,-0.193,0.346,18.646,94.313,-26.834
10:07:32:115,35.929,-0.310,-0.243,0.419,20.825,94.626,-30.787
10:07:32:198,36.012,-0.392,-0.330,0.595,24.565,94.897,-36.188
10:07:32:198,36.012,-0.429,-0.337,0.804,27.007,94.757,-39.372
10:07:32:198,36.013,-0.397,-0.400,0.834,29.883,93.939,-43.291
10:07:32:245,36.059,-0.366,-0.464,0.822,31.320,92.530,-45.844
10:07:32:274,36.088,-0.276,-0.493,0.710,31.337,91.481,-46.670
10:07:32:274,36.088,-0.173,-0.468,0.684,30.003,90.424,-46.412
10:07:32:295,36.109,-0.125,-0.345,0.742,28.416,90.210,-45.234
10:07:32:321,36.135,-0.177,-0.226,0.733,25.402,90.557,-42.052
10:07:32:435,36.249,-0.202,0.051,0.843,22.074,91.400,-37.649
10:07:32:436,36.250,-0.238,0.176,0.916,19.861,92.066,-34.277
10:07:32:437,36.251,-0.348,0.303,0.946,16.867,93.000,-28.610
10:07:32:437,36.251,-0.308,0.258,0.654,15.073,93.430,-24.481
10:07:32:481,36.295,-0.281,0.230,0.415,13.064,93.193,-18.019
10:07:32:508,36.322,-0.084,0.012,0.159,11.333,91.793,-11.823
10:07:32:509,36.323,0.036,-0.080,0.032,10.267,90.205,-7.928
10:07:32:59,36.404,0.018,-0.072,-0.028,8.881,86.966,-2.587
10:07:32:59,36.405,-0.070,0.042,-0.062,8.099,83.962,0.681
10:07:32:591,36.406,0.016,0.200,-0.388,7.502,78.514,5.441
10:07:32:612,36.426,0.186,0.180,-0.582,7.857,73.697,10.193
10:07:32:638,36.452,0.269,0.143,-0.643,8.505,71.485,13.387
10:07:32:663,36.477,0.337,0.114,-0.703,9.735,69.603,18.260
10:07:32:69,36.504,0.353,0.133,-0.808,10.595,68.993,21.444
10:07:32:715,36.529,0.349,0.064,-0.863,11.955,68.450,25.709
10:07:32:77,36.585,0.300,-0.087,-0.884,13.453,67.678,28.728
10:07:32:771,36.585,0.296,-0.179,-0.846,14.434,66.917,29.747
10:07:32:796,36.611,0.298,-0.001,-0.946,15.357,66.102,29.992
10:07:32:881,36.695,0.269,-0.142,-0.940,15.391,65.826,29.573
10:07:32:882,36.696,0.203,-0.192,-1.008,14.906,67.428,28.187
10:07:32:883,36.697,0.054,0.039,-1.074,13.843,70.926,26.097
10:07:32:884,36.698,-0.094,0.347,-0.998,13.062,74.251,24.192
10:07:32:902,36.716,-0.309,0.544,-0.680,12.217,80.014,20.365
10:07:32:983,36.798,-0.335,0.516,-0.442,12.103,83.775,17.086
10:07:32:984,36.798,-0.294,0.246,-0.135,12.693,88.222,10.975
10:07:32:985,36.799,-0.315,0.117,-0.014,13.382,90.152,6.183
10:07:33:171,36.985,-0.375,0.137,0.070,14.583,91.724,-1.842
10:07:33:171,36.986,-0.442,0.168,0.223,16.026,92.549,-10.424
10:07:33:172,36.987,-0.500,0.121,0.333,17.250,93.141,-16.064
10:07:33:173,36.987,-0.436,0.055,0.412,19.899,94.691,-23.731
10:07:33:188,37.002,-0.719,0.051,0.322,22.280,96.036,-28.369
10:07:33:303,37.117,-0.965,0.244,0.305,26.819,99.246,-34.597
10:07:33:303,37.117,-1.475,0.949,0.534,32.246,104.066,-40.565
10:07:33:304,37.118,-1.873,0.908,0.918,36.914,107.729,-45.254
10:07:33:304,37.118,-1.891,1.088,1.039,48.616,114.864,-52.649
10:07:33:355,37.170,-1.029,0.695,1.531,58.446,120.981,-57.450
10:07:33:355,37.170,-0.817,0.226,1.724,72.522,128.542,-66.074
10:07:33:356,37.171,0.170,-0.336,1.521,84.291,132.972,-77.029
10:07:33:357,37.172,1.008,-0.529,1.537,90.121,129.190,-90.505
10:07:33:376,37.190,1.148,-0.864,0.372,96.927,43.012,170.114
10:07:33:376,37.190,1.033,-1.317,-0.495,99.808,20.417,139.620
10:07:33:505,37.319,0.778,-1.204,-1.065,102.147,21.580,130.659
10:07:33:54,37.354,0.473,-0.841,-0.704,102.156,26.012,127.984
10:07:33:54,37.355,0.317,-0.572,-0.183,101.525,26.299,125.411
10:07:33:54,37.355,0.105,-0.529,-0.012,100.661,25.815,121.541
10:07:33:541,37.356,-0.192,-0.356,-0.170,99.995,24.684,119.260
10:07:33:558,37.372,-0.176,-0.313,-0.118,98.902,23.818,116.291
10:07:33:559,37.373,-0.099,-0.216,-0.017,97.895,22.165,113.369
10:07:33:584,37.398,-0.136,-0.213,-0.032,97.394,21.968,112.079
10:07:33:637,37.451,-0.060,-0.216,0.069,96.926,22.176,110.941
10:07:33:637,37.451,-0.005,-0.071,0.091,96.645,22.263,110.156
10:07:33:661,37.475,-0.020,0.040,0.159,96.206,22.611,109.152
10:07:33:687,37.502,-0.044,0.024,0.085,96.058,23.415,108.707
10:07:33:743,37.557,-0.082,0.038,-0.048,96.057,24.043,108.597
10:07:33:765,37.579,-0.142,0.154,0.101,96.070,25.850,109.180
10:07:33:791,37.605,-0.250,0.198,0.067,96.152,27.017,109.574
10:07:33:818,37.632,-0.417,0.219,0.061,96.103,28.215,109.616
10:07:33:845,37.659,-0.509,0.226,0.102,95.895,29.189,109.510
10:07:33:87,37.684,-0.553,0.183,0.300,95.314,30.371,108.444
10:07:33:925,37.740,-0.568,0.149,0.308,94.864,30.904,107.114
10:07:33:926,37.740,-0.498,0.095,0.315,94.280,32.616,105.763
10:07:33:951,37.765,-0.225,0.065,0.351,93.864,35.584,105.463
10:07:33:975,37.789,-0.134,-0.013,0.348,93.710,38.132,105.670
10:07:34:029,37.843,-0.160,-0.131,0.278,93.482,42.469,105.838
10:07:34:142,37.956,-0.123,-0.179,0.298,93.277,45.034,105.742
10:07:34:143,37.957,-0.040,-0.255,0.290,93.071,49.018,105.864
10:07:34:144,37.958,-0.019,-0.293,0.195,93.050,51.834,106.227
10:07:34:144,37.958,-0.017,-0.249,0.125,93.054,55.961,106.878
10:07:34:187,38.001,0.018,-0.186,0.146,93.148,60.391,108.273
10:07:34:273,38.087,0.033,-0.092,0.088,93.348,63.730,109.879
10:07:34:274,38.088,-0.005,0.017,0.048,93.690,68.364,112.246
10:07:34:274,38.089,-0.071,0.173,0.154,93.826,70.546,113.118
10:07:34:275,38.090,-0.033,0.193,0.221,93.986,72.604,113.588
10:07:34:293,38.108,-0.027,0.229,0.188,94.083,73.427,113.167
10:07:34:293,38.108,-0.042,0.285,0.122,94.094,73.441,112.466
10:07:34:317,38.131,-0.003,0.251,-0.014,94.080,73.215,111.325
10:07:34:344,38.158,0.038,0.200,-0.043,94.098,73.424,111.069
10:07:34:369,38.183,0.117,0.188,-0.013,94.052,73.124,110.216
10:07:34:424,38.238,0.140,0.174,-0.005,94.061,73.502,109.457
10:07:34:425,38.239,0.114,0.083,-0.028,94.275,74.165,110.214
10:07:34:45,38.264,-0.019,-0.058,0.007,94.801,77.404,112.865
10:07:34:616,38.430,-0.039,-0.165,0.080,95.175,79.231,114.934
10:07:34:616,38.430,-0.028,-0.241,0.063,95.742,82.917,118.050
10:07:34:617,38.431,-0.065,-0.323,0.013,96.463,85.881,121.206
10:07:34:618,38.432,-0.094,-0.364,0.062,97.081,88.786,123.350
10:07:34:637,38.452,-0.142,-0.349,0.063,98.238,91.961,126.522
10:07:34:638,38.452,-0.152,-0.302,0.038,99.050,94.875,128.726
10:07:34:639,38.453,-0.171,-0.194,0.031,100.198,98.222,131.807
10:07:34:689,38.503,-0.174,-0.072,0.078,101.173,102.197,134.668
10:07:34:69,38.504,-0.148,-0.018,0.056,101.652,104.107,136.222
10:07:34:71,38.524,-0.146,0.134,0.005,102.198,106.774,137.410
10:07:34:766,38.580,-0.170,0.181,0.095,102.609,107.994,137.944
10:07:34:767,38.581,-0.197,0.193,0.081,103.412,111.061,139.426
10:07:34:819,38.633,-0.279,0.189,0.049,104.242,114.203,141.162
10:07:34:819,38.634,-0.348,0.140,0.121,104.768,116.859,142.239
10:07:34:841,38.656,-0.433,-0.025,0.217,105.363,121.229,144.835
10:07:34:927,38.741,-0.481,-0.170,0.407,105.461,125.574,147.820
10:07:34:927,38.741,-0.438,-0.338,0.400,104.936,132.909,153.768
10:07:34:928,38.742,-0.477,-0.667,0.209,103.531,144.777,165.145
10:07:34:947,38.761,-0.382,-0.809,0.091,102.015,159.777,-179.136
10:07:35:002,38.816,-0.179,-0.927,-0.148,98.536,-161.286,-137.693
10:07:35:002,38.817,-0.034,-0.820,-0.310,95.222,-136.298,-110.224
10:07:35:025,38.840,0.056,-0.671,-0.405,88.325,-117.306,-86.238
10:07:35:053,38.867,0.233,-0.645,-0.416,82.266,-112.340,-77.004
10:07:35:139,38.953,0.446,-0.658,-0.396,71.605,-110.282,-67.087
10:07:35:14,38.954,0.584,-0.643,-0.342,60.164,-110.946,-58.004
10:07:35:14,38.954,0.760,-0.381,-0.394,52.743,-111.741,-51.358
10:07:35:141,38.955,0.877,0.095,-0.342,43.389,-113.360,-40.668
10:07:35:187,39.001,0.981,0.570,-0.444,39.005,-114.537,-33.128
10:07:35:187,39.001,1.140,0.827,-0.225,34.906,-116.351,-21.351
10:07:35:209,39.023,1.679,0.757,0.213,31.697,-119.931,-10.487
10:07:35:235,39.049,1.747,1.130,0.532,28.899,-125.824,-5.235
10:07:35:317,39.131,0.338,1.063,0.638,26.671,-141.704,-2.222
10:07:35:318,39.132,-0.167,0.884,0.371,24.491,-152.577,-1.205
10:07:35:345,39.159,-0.098,0.995,0.536,21.479,-164.202,1.123
10:07:35:346,39.160,-0.194,0.896,0.852,19.480,-169.172,5.062
10:07:35:456,39.270,-0.389,0.738,1.061,18.536,-170.112,8.164
10:07:35:456,39.270,-0.497,0.423,0.801,17.716,-169.129,12.874
10:07:35:456,39.270,-0.501,0.279,0.574,17.343,-167.630,15.927
10:07:35:476,39.290,-0.474,0.114,0.397,17.076,-165.600,20.218
10:07:35:476,39.290,-0.438,-0.243,0.195,17.257,-165.044,23.945
10:07:35:498,39.312,-0.452,-0.380,0.132,17.513,-165.558,26.093
10:07:35:524,39.338,-0.468,-0.488,0.122,18.020,-167.244,28.844
10:07:35:58,39.394,-0.611,-0.472,0.253,18.511,-168.827,30.385
10:07:35:58,39.395,-0.723,-0.497,0.257,19.412,-171.299,32.586
10:07:35:602,39.417,-0.891,-0.581,0.184,20.015,-172.424,35.301
10:07:35:629,39.443,-0.929,-0.686,0.084,19.994,-171.982,37.521
10:07:35:715,39.529,-0.917,-0.784,0.015,19.087,-170.038,40.693
10:07:35:715,39.529,-0.913,-0.734,0.001,17.783,-168.184,42.198
10:07:35:716,39.530,-0.820,-0.438,0.049,14.725,-164.785,42.995
10:07:35:792,39.607,-0.724,-0.104,0.175,11.420,-161.541,41.906
10:07:35:793,39.607,-0.703,0.014,0.248,9.956,-160.001,40.209
10:07:35:793,39.608,-0.707,0.072,0.325,8.899,-158.870,36.477
10:07:35:815,39.629,-0.700,-0.001,0.342,8.661,-158.686,33.453
10:07:35:899,39.713,-0.818,0.164,0.349,8.256,-158.381,28.551
10:07:35:899,39.713,-1.020,0.536,0.384,7.460,-156.444,23.885
10:07:35:899,39.713,-0.951,0.654,0.416,7.037,-153.779,21.183
10:07:35:919,39.733,-0.780,0.793,0.510,7.074,-147.881,17.810
10:07:36:002,39.816,-0.552,0.954,0.562,7.500,-142.813,15.920
10:07:36:003,39.817,-0.055,0.842,0.606,8.697,-133.653,13.436
10:07:36:004,39.818,0.304,0.459,0.434,9.886,-127.062,12.048
10:07:36:023,39.837,0.431,0.250,0.300,12.796,-119.074,9.947
10:07:36:078,39.892,0.390,0.100,0.295,16.760,-113.819,7.110
10:07:36:079,39.893,0.510,0.201,0.185,19.676,-110.951,5.216
10:07:36:189,40.003,0.712,0.104,0.109,24.640,-107.770,2.271
10:07:36:19,40.004,0.778,-0.130,0.207,28.133,-107.760,-0.314
10:07:36:191,40.005,0.848,-0.205,0.214,33.344,-110.684,-5.584
10:07:36:191,40.005,1.076,-0.198,0.158,38.003,-116.342,-13.195
10:07:36:206,40.020,1.118,-0.302,0.097,40.666,-121.456,-19.660
10:07:36:262,40.076,1.027,-0.441,-0.025,43.647,-129.529,-30.543
10:07:36:263,40.077,1.037,-0.460,-0.155,44.791,-133.946,-37.595
10:07:36:286,40.100,0.910,-0.629,-0.241,45.753,-137.775,-46.375
10:07:36:311,40.125,0.628,-0.905,-0.350,46.237,-138.057,-52.078
10:07:36:337,40.152,0.522,-0.967,-0.489,46.087,-136.742,-54.006
10:07:36:364,40.178,0.578,-0.725,-0.482,44.363,-133.314,-54.042
10:07:36:392,40.206,0.677,-0.619,-0.477,42.125,-130.530,-52.435
10:07:36:417,40.231,0.666,-0.424,-0.631,36.849,-126.374,-47.653
10:07:36:472,40.286,0.590,0.031,-0.696,30.363,-122.231,-40.862
10:07:36:472,40.286,0.592,0.026,-0.644,26.390,-119.534,-35.701
10:07:36:61,40.424,0.583,0.055,-0.435,21.298,-115.806,-27.514
10:07:36:61,40.424,0.465,0.077,-0.270,18.286,-113.708,-21.956
10:07:36:611,40.425,0.278,0.206,-0.209,14.029,-110.976,-13.620
10:07:36:612,40.426,-0.026,0.368,-0.130,9.849,-108.856,-5.625
10:07:37:056,40.870,-0.140,0.602,0.041,6.875,-108.060,-0.479
10:07:37:056,40.870,-0.598,0.532,0.182,2.690,-107.616,6.857
10:07:37:057,40.871,-0.838,0.510,0.159,0.046,-107.637,11.693
10:07:37:058,40.872,-1.274,0.461,0.448,-3.137,-109.523,19.133
10:07:37:127,40.941,-1.527,0.173,0.831,-4.627,-110.626,25.794
10:07:37:161,40.975,-1.275,-0.043,0.663,-5.780,-109.788,29.838
10:07:37:162,40.976,-1.019,-0.171,0.765,-7.856,-108.333,34.084
10:07:37:163,40.977,-0.761,-0.208,0.720,-8.600,-107.817,35.408
10:07:37:164,40.978,-0.647,-0.014,0.609,-8.586,-106.785,35.671
10:07:37:215,41.029,-0.484,-0.035,0.501,-6.956,-105.953,34.762
10:07:37:215,41.029,-0.437,-0.156,0.585,-4.863,-106.029,33.752
10:07:37:216,41.030,-0.356,-0.033,0.949,-1.313,-106.076,31.516
10:07:37:216,41.030,-0.312,0.375,1.160,0.703,-105.627,29.403
10:07:37:24,41.054,-0.261,0.542,1.046,3.310,-104.498,25.277
10:07:37:24,41.054,-0.212,0.560,0.731,5.023,-103.798,22.067
10:07:37:241,41.055,-0.092,0.193,0.361,7.983,-102.529,16.508
10:07:37:242,41.056,0.015,0.005,0.203,10.084,-101.047,10.288
10:07:37:266,41.081,0.146,0.060,0.156,11.019,-99.955,5.944
10:07:37:266,41.081,0.340,0.148,0.115,12.187,-98.402,-0.764
10:07:37:267,41.082,0.440,0.140,0.064,13.115,-97.328,-5.258
10:07:37:268,41.082,0.597,0.057,-0.063,15.262,-95.475,-11.827
10:07:37:453,41.267,0.591,-0.023,-0.261,18.504,-93.441,-18.016
10:07:37:453,41.267,0.602,-0.049,-0.410,21.158,-92.222,-21.958
10:07:37:453,41.268,0.632,-0.001,-0.672,25.439,-91.014,-27.595
10:07:37:453,41.268,0.630,-0.124,-0.911,28.204,-90.858,-31.217
10:07:37:473,41.288,0.524,-0.333,-0.966,31.378,-91.396,-36.204
10:07:37:474,41.288,0.274,-0.660,-0.887,32.869,-92.092,-39.737
10:07:37:475,41.289,0.182,-0.556,-0.605,33.074,-92.067,-40.670
10:07:37:557,41.371,0.006,-0.489,-0.671,32.961,-90.687,-40.008
10:07:37:557,41.371,0.007,-0.511,-0.800,32.389,-89.288,-38.621
10:07:37:557,41.371,0.119,-0.495,-0.937,30.028,-87.672,-35.749
10:07:37:557,41.371,0.332,-0.117,-1.054,26.109,-87.462,-32.494
10:07:37:663,41.477,0.359,0.067,-0.990,23.101,-87.858,-29.979
10:07:37:663,41.477,0.255,0.317,-0.769,18.895,-88.524,-25.467
10:07:37:663,41.478,0.175,0.230,-0.479,16.478,-88.786,-21.921
10:07:37:664,41.478,0.165,0.201,-0.316,13.316,-89.039,-16.032
10:07:37:739,41.553,0.225,-0.008,-0.022,8.692,-90.490,-5.573
10:07:37:74,41.554,0.009,0.150,0.108,6.319,-92.418,0.866
10:07:37:741,41.555,0.045,0.303,0.279,5.005,-93.756,5.202
10:07:37:765,41.579,-0.080,0.357,0.461,3.370,-96.340,11.865
10:07:37:766,41.580,-0.419,0.287,0.844,2.326,-99.192,19.067
10:07:37:767,41.581,-0.517,0.193,0.930,1.802,-100.405,23.981
10:07:37:768,41.582,-0.625,0.067,1.056,1.084,-101.198,31.072
10:07:37:847,41.661,-0.718,-0.070,1.163,0.621,-101.255,35.281
10:07:37:847,41.662,-0.750,-0.308,1.169,-0.245,-101.106,40.105
10:07:37:847,41.662,-0.672,-0.455,0.978,-1.357,-101.057,42.631
10:07:37:847,41.662,-0.553,-0.271,0.850,-2.298,-100.356,43.045
10:07:37:948,41.762,-0.507,-0.085,0.893,-3.066,-100.490,42.181
10:07:37:949,41.763,-0.382,-0.211,0.803,-2.886,-100.233,40.825
10:07:37:95,41.764,-0.356,-0.379,0.774,-1.483,-100.285,37.698
10:07:37:951,41.765,-0.311,-0.140,0.924,-0.420,-100.071,34.986
10:07:37:968,41.782,-0.249,0.277,1.024,0.606,-98.202,30.116
10:07:38:052,41.867,-0.183,0.644,0.899,1.540,-94.513,24.470
10:07:38:053,41.868,-0.128,0.719,0.716,2.514,-91.652,20.494
10:07:38:054,41.868,-0.107,0.457,0.342,4.634,-87.864,14.456
10:07:38:055,41.869,-0.058,0.202,0.117,6.378,-85.902,10.228
10:07:38:127,41.941,0.022,0.132,0.000,9.115,-83.808,3.506
10:07:38:128,41.942,0.204,0.137,-0.087,11.647,-82.848,-3.660
10:07:38:152,41.966,0.340,0.150,-0.179,13.310,-82.602,-8.635
10:07:38:152,41.966,0.498,0.171,-0.370,16.132,-82.438,-16.138
10:07:38:316,42.130,0.573,0.202,-0.606,18.467,-82.280,-20.984
10:07:38:316,42.130,0.617,0.177,-0.849,22.734,-81.967,-27.660
10:07:38:317,42.131,0.566,-0.019,-0.975,27.663,-82.031,-33.415
10:07:38:318,42.132,0.505,-0.178,-0.929,30.863,-82.452,-36.713
10:07:38:447,42.261,0.399,-0.282,-0.874,34.387,-83.366,-40.948
10:07:38:448,42.262,0.299,-0.469,-0.750,35.632,-83.995,-43.276
10:07:38:449,42.263,0.193,-0.606,-0.707,36.032,-84.426,-45.678
10:07:38:449,42.263,0.028,-0.743,-0.584,34.875,-83.916,-46.290
10:07:38:552,42.366,-0.075,-0.747,-0.470,33.351,-83.123,-45.701
10:07:38:553,42.367,0.008,-0.585,-0.538,30.205,-81.535,-43.643
10:07:38:553,42.367,0.047,-0.372,-0.529,27.594,-80.366,-41.477
10:07:38:554,42.368,0.020,-0.088,-0.782,23.582,-78.239,-36.610
10:07:38:834,42.648,-0.007,0.080,-0.678,19.572,-76.080,-29.919
10:07:38:923,42.737,-0.024,0.089,-0.519,17.161,-74.681,-24.821
10:07:38:923,42.737,-0.067,0.111,-0.260,14.090,-72.649,-16.857
10:07:38:923,42.737,-0.093,-0.027,-0.155,12.525,-71.348,-11.884
10:07:38:923,42.737,-0.074,0.026,-0.112,10.168,-69.559,-4.751
10:07:39:025,42.839,-0.105,0.162,0.040,7.945,-68.376,1.861
10:07:39:025,42.839,-0.098,0.296,0.130,6.607,-67.794,6.093
10:07:39:026,42.840,-0.099,0.339,0.421,4.790,-67.832,12.239
10:07:39:027,42.841,-0.161,0.341,0.877,3.847,-68.297,16.172
10:07:39:235,43.049,-0.348,0.127,1.143,2.659,-67.802,21.604
10:07:39:235,43.049,-0.352,-0.010,1.097,1.391,-65.772,25.830
10:07:39:236,43.050,-0.326,-0.072,0.982,0.527,-64.309,27.951
10:07:39:237,43.051,-0.213,-0.119,0.825,-0.468,-62.698,30.181
10:07:39:288,43.102,-0.043,-0.109,0.744,-0.537,-62.354,31.141
10:07:39:288,43.102,0.071,-0.112,0.782,0.686,-63.018,31.918
10:07:39:288,43.102,0.297,-0.004,0.954,2.247,-63.661,31.962
10:07:39:289,43.103,0.376,-0.028,0.945,4.684,-63.657,31.250
10:07:39:314,43.128,0.554,0.173,1.041,6.616,-61.599,29.653
10:07:39:314,43.128,0.598,0.511,0.996,7.450,-58.728,28.235
10:07:39:315,43.129,0.568,0.633,0.722,8.582,-53.032,25.453
10:07:39:315,43.129,0.418,0.537,0.390,9.523,-49.071,23.138
10:07:39:392,43.206,0.255,0.252,0.141,11.481,-44.050,18.886
10:07:39:393,43.207,0.240,0.047,0.000,13.965,-40.632,13.735
10:07:39:394,43.208,0.270,0.079,-0.098,15.710,-39.176,9.844
10:07:39:42,43.234,0.468,0.137,-0.463,20.377,-38.262,-1.231
10:07:39:42,43.234,0.419,0.058,-0.658,23.803,-38.682,-8.241
10:07:39:42,43.234,0.281,0.055,-0.868,27.881,-39.427,-15.271
10:07:39:421,43.235,0.108,0.139,-1.218,30.736,-40.252,-20.123
10:07:39:498,43.312,-0.230,-0.074,-1.373,35.112,-42.726,-27.716
10:07:39:499,43.313,-0.259,-0.337,-1.287,37.647,-45.259,-32.667
10:07:39:499,43.313,-0.150,-0.498,-1.189,40.105,-49.365,-39.306
10:07:39:5,43.314,-0.186,-0.579,-0.931,40.478,-52.578,-44.450
10:07:39:787,43.601,-0.225,-0.569,-0.728,39.704,-53.351,-46.524
10:07:39:788,43.602,-0.402,-0.584,-0.464,37.992,-51.945,-47.398
10:07:39:789,43.603,-0.507,-0.646,-0.390,36.683,-49.778,-46.819
10:07:39:789,43.603,-0.592,-0.832,-0.590,34.594,-45.211,-44.059
10:07:39:812,43.626,-0.372,-0.245,-0.891,31.515,-40.252,-39.098
10:07:39:812,43.626,-0.427,0.034,-0.806,29.124,-36.730,-34.774
10:07:39:813,43.627,-0.430,0.253,-0.606,25.616,-30.614,-26.631
10:07:39:867,43.681,-0.385,0.169,-0.385,23.340,-26.257,-20.707
10:07:39:867,43.681,-0.305,0.098,-0.297,19.656,-19.989,-12.083
10:07:39:867,43.681,-0.211,0.043,-0.200,15.436,-14.977,-4.732
10:07:39:867,43.681,-0.178,0.058,-0.073,12.269,-12.715,-0.683
10:07:39:891,43.705,-0.062,0.219,0.020,7.346,-10.888,4.290
10:07:39:891,43.706,-0.145,0.599,0.385,3.987,-10.354,7.041
10:07:39:892,43.707,-0.015,0.726,0.604,-1.139,-11.766,11.073
10:07:39:893,43.708,0.224,0.523,0.955,-4.970,-15.450,14.918
10:07:40:075,43.889,0.473,0.298,1.259,-6.643,-17.934,17.724
10:07:40:075,43.889,0.539,-0.103,1.470,-8.830,-18.689,21.590
10:07:40:076,43.890,0.386,-0.254,1.234,-10.158,-17.505,23.323
10:07:40:077,43.891,0.283,-0.221,0.856,-11.693,-15.045,24.964
10:07:40:183,43.997,0.279,-0.148,0.652,-12.134,-13.935,25.897
10:07:40:183,43.997,0.327,-0.177,0.477,-11.323,-13.451,27.559
10:07:40:183,43.997,0.587,-0.079,0.493,-8.931,-13.768,28.862
10:07:40:183,43.997,0.805,-0.065,0.521,-6.852,-13.572,29.249
10:07:40:206,44.020,0.967,0.090,0.570,-3.938,-10.959,28.776
10:07:40:207,44.021,0.980,0.391,0.429,-2.130,-7.516,27.813
10:07:40:207,44.021,0.921,0.554,0.212,0.716,-1.239,25.659
10:07:40:208,44.022,0.726,0.818,-0.084,4.208,4.546,22.949
10:07:40:262,44.076,0.440,0.641,-0.239,6.952,7.479,20.856
10:07:40:262,44.076,0.183,0.329,-0.349,11.432,9.722,16.979
10:07:40:262,44.076,0.008,0.121,-0.418,14.528,9.749,13.618
10:07:40:262,44.076,0.051,0.077,-0.528,18.817,7.300,7.025
10:07:40:284,44.099,0.000,0.081,-0.762,22.103,2.349,-1.521
10:07:40:285,44.100,-0.112,0.037,-0.830,23.715,-1.542,-8.096
10:07:40:286,44.101,-0.230,-0.023,-0.835,25.464,-7.291,-18.616
10:07:40:287,44.101,-0.477,0.116,-0.908,26.392,-10.569,-25.678
10:07:40:364,44.178,-0.703,0.118,-0.944,28.000,-13.898,-35.884
10:07:40:364,44.178,-1.020,-0.003,-0.908,30.617,-15.412,-45.445
10:07:40:365,44.179,-1.147,-0.176,-0.798,33.029,-15.529,-51.285
10:07:40:366,44.180,-1.113,-0.530,-0.516,37.232,-14.494,-58.777
10:07:40:441,44.255,-0.748,-0.712,-0.250,40.076,-13.190,-62.616
10:07:40:442,44.256,-0.542,-0.643,-0.044,43.336,-10.526,-66.333
10:07:40:443,44.257,-0.459,-0.668,0.079,45.666,-7.186,-67.827
10:07:40:444,44.258,-0.563,-0.677,0.090,46.590,-4.852,-67.827
10:07:40:488,44.303,-0.737,-0.770,-0.043,46.212,-1.559,-66.476
10:07:40:489,44.304,-0.824,-0.802,-0.087,44.350,0.444,-64.580
10:07:40:541,44.355,-0.932,-0.621,-0.091,39.094,3.046,-60.231
10:07:40:542,44.356,-0.896,-0.391,0.044,34.483,4.440,-56.411
10:07:40:564,44.378,-0.843,-0.245,0.084,27.007,6.090,-49.455
10:07:40:678,44.492,-0.649,-0.048,0.085,19.665,6.976,-41.426
10:07:40:678,44.493,-0.536,0.165,0.024,15.404,7.179,-35.643
10:07:40:679,44.493,-0.466,0.481,0.062,10.487,7.328,-26.349
10:07:40:68,44.494,-0.227,0.851,0.043,7.422,8.137,-16.206
10:07:40:727,44.541,0.017,0.957,0.069,6.197,9.325,-9.109
10:07:40:728,44.542,0.486,0.735,0.231,5.088,11.987,1.559
10:07:40:749,44.563,0.661,0.585,0.279,4.491,14.181,8.323
10:07:40:833,44.647,0.657,0.334,0.375,3.683,17.904,16.644
10:07:40:833,44.648,0.638,0.064,0.395,3.021,19.882,20.946
10:07:40:834,44.649,0.656,0.048,0.283,2.005,21.097,25.453
10:07:40:882,44.696,0.699,0.070,0.069,1.790,20.270,27.993
10:07:40:882,44.697,0.780,-0.079,-0.012,2.324,19.020,29.097
10:07:40:934,44.748,0.951,-0.169,-0.102,4.254,16.710,30.159
10:07:40:935,44.749,1.230,-0.044,-0.289,5.802,15.576,30.622
10:07:40:961,44.775,1.297,-0.128,-0.308,7.880,15.847,31.037
10:07:41:07,44.884,1.241,-0.089,-0.354,9.293,18.540,30.890
10:07:41:071,44.885,1.131,0.113,-0.390,9.777,21.801,30.137
10:07:41:071,44.886,0.654,0.459,-0.469,10.094,28.472,27.628
10:07:41:151,44.965,0.242,0.326,-0.453,10.677,32.963,25.270
10:07:41:152,44.966,0.070,0.214,-0.447,12.409,38.689,20.834
10:07:41:152,44.966,-0.137,0.182,-0.467,14.983,42.771,15.408
10:07:41:152,44.966,-0.299,0.280,-0.497,17.061,44.316,11.282
10:07:41:168,44.982,-0.463,0.242,-0.484,20.450,44.300,4.184
10:07:41:223,45.037,-0.524,0.152,-0.488,22.746,42.830,-1.108
10:07:41:224,45.038,-0.590,-0.050,-0.520,25.929,38.977,-9.771
10:07:41:3,45.114,-0.842,0.023,-0.477,28.770,34.243,-19.166
10:07:41:379,45.193,-0.988,0.007,-0.361,30.411,31.443,-25.427
10:07:41:44,45.255,-1.209,-0.049,-0.254,32.510,28.576,-34.186
10:07:41:441,45.255,-1.476,-0.063,-0.103,33.893,27.714,-39.410
10:07:41:441,45.255,-1.444,-0.278,0.059,36.030,28.112,-46.140
10:07:41:441,45.256,-1.256,-0.559,0.204,38.044,30.096,-51.382
10:07:41:462,45.276,-1.118,-0.629,0.305,38.904,31.908,-54.092
10:07:41:463,45.277,-0.766,-0.914,0.652,39.134,35.368,-56.728
10:07:41:464,45.278,-0.462,-1.180,0.690,38.253,38.129,-56.919
10:07:41:512,45.326,-0.562,-0.547,0.342,34.995,41.834,-55.110
10:07:41:513,45.327,-0.527,-0.138,0.490,30.429,45.166,-50.952
10:07:41:565,45.379,-0.637,-0.033,0.599,27.747,47.758,-46.827
10:07:41:565,45.379,-0.548,-0.124,0.527,24.167,51.766,-39.158
10:07:41:617,45.431,-0.367,0.001,0.446,21.878,54.238,-33.441
10:07:41:617,45.432,-0.127,0.088,0.361,19.411,58.069,-24.748
10:07:41:643,45.457,-0.176,0.024,0.330,18.169,61.121,-19.111
10:07:41:696,45.510,-0.095,0.163,0.273,15.825,65.384,-11.083
10:07:41:696,45.510,0.144,0.338,0.100,13.390,68.399,-3.736
10:07:41:722,45.536,0.351,0.363,-0.012,11.750,69.681,0.859
10:07:41:722,45.536,0.601,0.302,-0.092,9.504,70.302,7.204
10:07:41:745,45.559,0.933,0.270,-0.267,8.299,70.242,11.161
10:07:41:802,45.616,0.947,0.155,-0.322,7.007,70.834,16.278
10:07:41:802,45.616,0.677,0.181,-0.326,6.124,72.245,20.279
10:07:41:824,45.638,0.565,0.193,-0.386,5.967,72.869,22.354
10:07:41:851,45.665,0.372,0.046,-0.460,6.639,72.877,24.719
10:07:41:903,45.717,0.342,-0.013,-0.540,7.659,72.405,25.728
10:07:41:988,45.802,0.299,-0.039,-0.631,9.671,71.596,26.158
10:07:41:989,45.803,0.236,0.014,-0.740,11.725,71.250,25.477
10:07:41:989,45.804,0.145,0.187,-0.881,12.982,71.665,24.618
10:07:42:01,45.825,0.019,0.492,-1.013,14.605,73.210,22.848
10:07:42:011,45.826,-0.084,0.542,-0.899,15.536,74.579,21.238
10:07:42:036,45.850,-0.095,0.401,-0.634,16.719,75.563,17.914
10:07:42:088,45.902,-0.144,0.135,-0.341,17.865,77.704,13.370
10:07:42:115,45.929,-0.202,-0.069,-0.195,18.501,79.029,9.735
10:07:42:116,45.930,-0.289,-0.090,-0.176,19.238,80.620,3.562
10:07:42:141,45.955,-0.359,-0.050,-0.134,19.764,81.601,-0.940
10:07:42:167,45.981,-0.504,-0.033,-0.034,20.975,83.361,-7.978
10:07:42:193,46.007,-0.559,-0.060,0.143,23.102,85.707,-14.892
10:07:42:247,46.061,-0.567,-0.085,0.269,25.124,87.417,-19.285
10:07:42:274,46.088,-0.551,-0.077,0.484,28.762,89.630,-25.638
10:07:42:274,46.088,-0.634,0.042,0.672,31.389,90.751,-29.703
10:07:42:296,46.110,-0.669,0.010,0.861,35.483,91.828,-35.500
10:07:42:324,46.138,-0.630,-0.128,1.012,39.080,91.986,-41.006
10:07:42:349,46.164,-0.501,-0.263,0.909,40.759,91.713,-44.435
10:07:42:375,46.190,-0.312,-0.307,0.713,42.099,91.565,-48.691
10:07:42:402,46.216,-0.205,-0.242,0.786,42.518,92.110,-50.745
10:07:42:428,46.242,-0.114,-0.284,0.709,42.754,93.818,-52.649
10:07:42:483,46.297,-0.002,-0.307,0.720,42.677,95.937,-53.449
10:07:42:484,46.298,0.045,-0.303,0.767,42.470,97.255,-53.560
10:07:42:508,46.322,0.082,-0.346,0.709,41.602,99.020,-52.942
10:07:42:534,46.349,0.101,-0.289,0.625,40.362,99.974,-51.981
10:07:42:588,46.402,0.174,-0.183,0.347,37.148,100.727,-49.842
10:07:42:589,46.403,0.292,-0.081,0.054,34.168,100.862,-48.004
10:07:42:67,46.484,0.355,-0.067,-0.222,29.928,100.798,-44.920
10:07:42:67,46.484,0.211,-0.028,-0.426,26.822,100.547,-41.891
10:07:42:671,46.485,0.131,-0.030,-0.519,25.476,100.437,-40.085
10:07:42:691,46.505,0.106,0.007,-0.586,24.399,100.631,-37.751
10:07:42:716,46.531,0.090,0.165,-0.677,24.161,100.961,-36.506
10:07:42:772,46.586,0.100,0.205,-0.716,24.450,100.097,-35.394
10:07:42:773,46.587,-0.005,0.310,-0.715,25.169,100.701,-35.310
10:07:42:795,46.609,-0.094,0.378,-0.753,25.693,99.556,-35.798
10:07:42:91,46.725,-0.204,0.421,-0.769,26.626,99.711,-37.229
10:07:42:91,46.725,-0.234,0.381,-0.802,27.378,98.809,-38.665
10:07:42:911,46.725,-0.300,0.364,-0.772,28.738,99.554,-41.430
10:07:42:911,46.726,-0.444,0.466,-0.658,30.388,100.783,-44.706
10:07:42:986,46.800,-0.591,0.602,-0.542,31.780,101.948,-46.995
10:07:42:986,46.800,-0.723,0.592,-0.228,34.920,104.628,-50.798
10:07:42:986,46.800,-0.664,0.661,0.077,38.012,107.069,-53.563
10:07:43:006,46.820,-0.736,0.848,0.327,44.358,111.412,-57.652
10:07:43:165,46.979,-0.784,0.935,0.767,53.355,116.333,-61.788
10:07:43:277,47.091,-0.742,0.704,1.006,60.689,119.840,-64.818
10:07:43:277,47.092,-0.458,0.246,1.225,72.401,125.346,-69.878
10:07:43:278,47.093,0.059,-0.386,1.197,79.784,128.479,-74.293
10:07:43:304,47.119,0.678,-1.301,0.021,94.600,98.850,-124.006
10:07:43:304,47.119,0.660,-1.346,-0.557,97.045,59.129,-168.698
10:07:43:305,47.119,0.286,-0.895,-0.266,98.939,39.700,166.292
10:07:43:306,47.120,0.187,-0.562,0.073,99.416,36.507,160.356
10:07:43:355,47.169,0.039,-0.262,0.416,100.264,28.547,149.358
10:07:43:356,47.170,0.042,-0.285,0.167,101.062,22.943,142.142
10:07:43:357,47.171,0.096,-0.290,-0.071,102.094,19.665,136.688
10:07:43:358,47.172,0.018,-0.149,-0.161,102.518,18.845,134.409
10:07:43:375,47.189,0.009,0.021,-0.066,102.394,17.728,132.504
10:07:43:458,47.272,0.010,0.188,0.010,101.646,14.778,128.501
10:07:43:458,47.272,-0.028,0.153,0.124,100.514,11.569,124.523
10:07:43:459,47.273,-0.075,0.155,0.222,99.740,10.053,122.633
10:07:43:566,47.380,-0.083,0.125,0.265,98.597,7.772,119.814
10:07:43:566,47.380,-0.033,0.105,0.231,97.959,5.841,117.699
10:07:43:567,47.381,-0.033,0.085,0.178,97.319,4.308,116.287
10:07:43:567,47.381,-0.107,-0.004,0.184,97.085,4.558,116.735
10:07:43:641,47.455,-0.089,-0.090,0.107,96.939,5.309,117.598
10:07:43:642,47.456,0.007,-0.254,-0.023,96.851,5.328,118.293
10:07:43:642,47.456,-0.042,-0.330,0.005,96.741,6.406,119.129
10:07:43:747,47.561,-0.139,-0.345,0.099,96.608,7.975,120.985
10:07:43:747,47.561,-0.100,-0.244,0.020,96.642,9.061,121.660
10:07:43:748,47.562,-0.146,-0.214,-0.027,96.826,10.090,122.439
10:07:43:857,47.672,-0.132,-0.130,-0.004,96.941,11.498,122.892
10:07:43:858,47.672,-0.037,0.003,-0.035,96.937,11.266,122.441
10:07:43:858,47.672,-0.037,0.012,-0.048,97.084,11.799,121.650
10:07:43:858,47.673,-0.082,0.079,-0.088,97.272,12.058,121.425
10:07:43:936,47.750,-0.125,0.129,-0.061,97.603,13.902,122.051
10:07:43:936,47.750,-0.227,0.159,-0.017,98.000,15.704,123.175
10:07:43:937,47.751,-0.346,0.208,-0.052,98.649,18.630,123.868
10:07:43:951,47.765,-0.439,0.205,-0.013,98.720,20.477,124.498
10:07:44:036,47.851,-0.501,0.224,0.214,98.487,22.770,124.639
10:07:44:036,47.851,-0.506,0.225,0.259,97.960,24.122,123.469
10:07:44:037,47.852,-0.418,0.141,0.263,97.518,25.750,123.222
10:07:44:058,47.872,-0.236,0.071,0.227,96.692,28.961,123.279
10:07:44:086,47.900,-0.140,-0.023,0.171,96.110,31.207,123.210
10:07:44:087,47.901,-0.133,-0.193,0.141,95.414,36.007,124.297
10:07:44:137,47.951,-0.144,-0.352,0.116,94.879,42.836,127.670
10:07:44:138,47.952,-0.105,-0.354,0.134,94.610,49.187,131.925
10:07:44:16,47.974,-0.029,-0.322,0.178,94.445,60.953,140.820
10:07:44:271,48.086,-0.049,-0.351,0.098,94.589,68.168,146.260
10:07:44:272,48.086,-0.055,-0.321,0.052,95.075,77.891,153.652
10:07:44:38,48.194,-0.069,-0.097,0.051,95.644,84.714,158.502
10:07:44:381,48.195,-0.113,-0.063,0.078,96.068,87.628,160.363
10:07:44:381,48.195,-0.195,-0.022,0.032,96.669,90.314,161.990
10:07:44:382,48.196,-0.175,0.152,0.051,96.850,92.026,163.302
10:07:44:538,48.352,-0.119,0.294,0.110,96.689,94.347,165.319
10:07:44:539,48.353,-0.167,0.338,0.119,96.398,94.669,165.459
10:07:44:539,48.353,-0.140,0.330,0.064,95.793,91.368,161.743
10:07:44:54,48.354,-0.116,0.267,0.081,95.146,87.092,156.802
10:07:44:564,48.378,-0.126,0.174,0.232,94.737,85.471,154.563
10:07:44:564,48.378,-0.099,0.171,0.257,94.226,81.231,149.218
10:07:44:565,48.379,-0.062,0.095,0.153,94.005,78.020,145.328
10:07:44:565,48.379,-0.092,-0.058,0.054,93.952,78.986,145.462
10:07:44:611,48.425,-0.132,-0.134,0.030,94.022,86.314,151.090
10:07:44:611,48.426,-0.144,-0.130,0.087,94.010,90.430,154.457
10:07:44:635,48.450,-0.179,-0.210,0.076,94.015,95.214,157.059
10:07:44:636,48.450,-0.190,-0.276,0.042,94.092,97.973,158.823
10:07:44:66,48.474,-0.163,-0.280,0.030,94.196,103.492,162.106
10:07:44:713,48.527,-0.125,-0.140,-0.036,94.267,107.013,163.473
10:07:44:741,48.555,-0.168,-0.139,-0.008,94.383,108.678,164.040
10:07:44:742,48.556,-0.230,-0.093,0.052,94.551,110.252,163.120
10:07:44:764,48.578,-0.152,-0.002,0.019,94.604,109.185,160.934
10:07:44:82,48.634,-0.118,0.048,0.036,94.671,105.427,154.934
10:07:44:82,48.635,-0.106,0.092,0.050,94.865,100.387,148.531
10:07:44:874,48.688,-0.125,0.166,0.054,95.095,98.813,145.213
10:07:44:9,48.714,-0.182,0.154,0.063,95.732,96.892,142.238
10:07:44:9,48.714,-0.217,0.169,0.112,96.262,96.792,141.405
10:07:44:923,48.737,-0.213,0.281,0.207,96.946,97.527,140.951
10:07:45:115,48.929,-0.273,0.246,0.462,97.265,99.890,141.808
10:07:45:115,48.929,-0.263,0.195,0.461,97.322,100.930,141.586
10:07:45:116,48.930,-0.175,0.106,0.386,97.257,102.366,140.945
10:07:45:117,48.931,0.064,0.102,0.225,97.123,104.214,141.431
10:07:45:139,48.953,0.093,0.042,0.134,96.910,108.377,143.520
10:07:45:14,48.954,0.018,-0.167,0.032,96.743,114.452,147.366
10:07:45:14,48.954,0.024,-0.224,0.024,96.610,119.338,150.821
10:07:45:161,48.976,0.072,-0.206,-0.004,96.544,127.369,156.972
10:07:45:161,48.976,0.055,-0.344,-0.038,96.769,133.497,162.090
10:07:45:214,49.028,-0.036,-0.411,-0.024,97.418,142.074,169.535
10:07:45:214,49.028,-0.057,-0.221,0.043,98.088,148.823,175.413
10:07:45:237,49.051,-0.012,-0.145,0.060,98.498,151.608,177.687
10:07:45:292,49.106,-0.096,-0.154,0.059,99.113,153.851,178.500
10:07:45:293,49.107,-0.180,0.014,0.088,99.445,153.512,177.797
10:07:45:317,49.131,-0.175,0.164,0.105,99.832,153.123,176.096
10:07:45:341,49.155,-0.125,0.195,0.112,100.098,152.727,175.497
10:07:45:397,49.211,-0.012,0.272,0.069,100.576,152.598,174.660
10:07:45:397,49.212,-0.006,0.326,0.086,101.128,150.060,171.437
10:07:45:478,49.292,0.131,0.278,0.061,101.482,147.410,168.617
10:07:45:479,49.293,0.233,0.234,-0.017,102.081,146.674,167.424
10:07:45:503,49.317,0.251,0.181,0.036,102.525,147.864,168.627
10:07:45:504,49.318,0.176,0.136,0.086,103.021,149.131,169.483
10:07:45:525,49.339,0.050,-0.028,0.089,103.156,151.162,171.354
10:07:45:581,49.396,-0.030,-0.098,0.076,103.053,154.899,174.826
10:07:45:581,49.396,-0.144,-0.293,0.131,102.689,161.599,-178.804
10:07:45:606,49.420,-0.142,-0.401,0.152,102.357,166.457,-174.353
10:07:45:633,49.447,-0.134,-0.477,0.087,101.784,173.956,-167.383
10:07:45:686,49.500,-0.152,-0.447,0.063,101.369,178.914,-162.875
10:07:45:686,49.500,-0.138,-0.313,0.069,100.828,-174.467,-157.041
10:07:45:71,49.524,-0.098,-0.288,0.054,100.606,-169.178,-152.553
10:07:45:736,49.551,-0.089,-0.126,0.058,100.569,-166.693,-150.567
10:07:45:823,49.637,-0.103,0.121,0.014,100.553,-165.391,-150.191
10:07:45:823,49.637,-0.194,0.200,0.009,100.839,-166.705,-152.500
10:07:45:824,49.638,-0.232,0.209,0.062,101.159,-167.362,-153.800
10:07:45:898,49.712,-0.259,0.280,0.162,101.705,-168.099,-155.432
10:07:45:899,49.713,-0.214,0.358,0.153,102.184,-168.987,-156.896
10:07:45:9,49.714,-0.248,0.357,0.193,103.193,-170.941,-160.212
10:07:45:919,49.734,-0.310,0.264,0.273,104.351,-172.910,-164.037
10:07:46:006,49.820,-0.254,0.218,0.521,105.016,-172.356,-165.198
10:07:46:006,49.820,0.010,0.223,0.724,105.694,-170.216,-165.942
10:07:46:006,49.820,0.076,0.198,0.703,105.946,-168.472,-166.246
10:07:46:025,49.839,0.152,0.081,0.439,106.012,-164.080,-164.928
10:07:46:082,49.896,-0.046,-0.159,0.219,105.683,-157.748,-161.691
10:07:46:082,49.896,-0.196,-0.330,0.232,105.143,-151.602,-157.576
10:07:46:219,50.033,-0.353,-0.621,0.272,103.637,-138.180,-146.724
10:07:46:219,50.033,-0.397,-0.815,0.286,102.074,-126.377,-136.125
10:07:46:219,50.033,-0.297,-0.841,0.215,98.754,-106.883,-117.202
10:07:46:22,50.034,-0.349,-0.857,-0.042,94.201,-90.876,-99.983
10:07:46:296,50.110,-0.366,-0.805,-0.092,90.377,-83.508,-90.746
10:07:46:296,50.111,-0.295,-0.751,-0.250,83.346,-77.333,-79.954
10:07:46:297,50.112,-0.177,-0.717,-0.392,78.034,-76.155,-74.462
10:07:46:298,50.112,0.105,-0.745,-0.591,70.284,-77.652,-67.740
10:07:46:313,50.127,0.369,-0.818,-0.856,65.711,-80.134,-63.729
10:07:46:401,50.215,0.630,-0.792,-1.074,58.972,-85.131,-57.242
10:07:46:401,50.215,1.165,-0.402,-1.394,50.659,-91.971,-49.598
10:07:46:402,50.216,1.489,0.063,-1.333,43.666,-98.189,-43.970
10:07:46:402,50.216,1.989,1.324,-0.972,31.153,-112.041,-35.726
10:07:46:476,50.290,1.422,1.774,-0.007,23.461,-125.635,-30.476
10:07:46:477,50.291,0.413,1.719,0.280,14.593,-144.794,-20.634
10:07:46:478,50.292,-0.586,1.521,0.249,12.477,-156.908,-10.046
10:07:46:496,50.311,0.070,0.953,0.257,13.661,-159.115,-3.912
10:07:46:61,50.424,0.188,0.895,0.601,14.362,-156.137,4.258
10:07:46:61,50.424,0.091,0.636,0.756,14.505,-152.065,8.792
10:07:46:611,50.425,0.030,0.212,0.629,14.724,-145.785,14.565
10:07:46:661,50.476,-0.083,-0.006,0.673,15.146,-142.654,19.540
10:07:46:662,50.476,-0.232,-0.065,0.736,16.093,-142.749,22.540
10:07:46:662,50.476,-0.501,-0.126,0.748,18.563,-145.031,27.096
10:07:46:71,50.525,-0.722,-0.171,0.715,21.152,-147.226,30.290
10:07:46:71,50.525,-0.913,-0.390,0.633,26.430,-150.094,35.490
10:07:46:762,50.576,-1.018,-0.762,0.579,31.952,-150.955,41.312
10:07:46:978,50.792,-0.995,-0.961,0.641,34.749,-150.208,45.237
10:07:46:979,50.793,-0.916,-0.988,0.562,36.620,-148.227,49.830
10:07:46:98,50.794,-0.783,-0.608,0.594,36.141,-146.869,51.459
10:07:46:981,50.795,-0.715,-0.524,0.710,33.781,-145.497,52.121
10:07:47:083,50.897,-0.687,-0.614,0.784,31.123,-145.371,50.827
10:07:47:084,50.898,-0.758,-0.540,0.870,29.197,-145.777,48.972
10:07:47:085,50.899,-0.907,-0.307,0.995,25.492,-146.110,45.173
10:07:47:085,50.900,-0.926,-0.201,0.986,22.552,-145.584,42.097
10:07:47:181,50.995,-0.889,0.145,1.113,17.663,-143.136,36.822
10:07:47:232,51.047,-0.764,0.837,1.237,12.484,-137.942,30.929
10:07:47:267,51.082,-0.528,1.254,1.113,9.498,-132.919,26.602
10:07:47:267,51.082,-0.161,1.049,0.634,6.988,-124.366,19.296
10:07:47:268,51.083,0.066,0.862,0.344,6.442,-119.042,13.858
10:07:47:269,51.083,0.270,0.850,0.120,7.116,-112.148,5.343
10:07:47:293,51.107,0.417,0.816,0.046,8.487,-108.887,-0.315
10:07:47:294,51.108,0.547,0.711,-0.139,11.516,-106.008,-8.699
10:07:47:295,51.109,0.694,0.438,-0.325,15.504,-105.036,-16.771
10:07:47:296,51.110,0.798,0.256,-0.357,18.458,-105.544,-22.020
10:07:47:347,51.161,0.876,0.127,-0.431,23.159,-107.555,-29.817
10:07:47:347,51.161,1.076,0.048,-0.632,26.640,-109.191,-34.958
10:07:47:347,51.161,1.070,-0.177,-0.705,32.322,-111.841,-42.679
