Time,Second,AccelerationX,AccelerationY,AccelerationZ,EulerAnglesX,EulerAnglesY,EulerAnglesZ
15:46:56:759,0.000,-0.006,-0.007,-0.004,-11.660,60.020,6.318
15:46:56:786,0.027,-0.007,0.001,-0.003,-11.640,60.025,6.321
15:46:56:813,0.055,0.001,0.003,0.004,-11.611,60.029,6.317
15:46:56:841,0.082,-0.002,-0.003,-0.014,-11.607,59.991,6.328
15:46:56:868,0.110,-0.002,-0.003,-0.014,-11.607,59.991,6.328
15:46:56:895,0.136,-0.007,-0.002,0.000,-11.591,59.976,6.331
15:46:56:922,0.164,-0.007,-0.010,-0.011,-11.577,59.936,6.335
15:46:56:95,0.191,0.000,-0.008,-0.007,-11.574,59.919,6.332
15:46:56:976,0.218,-0.003,0.001,0.006,-11.574,59.919,6.332
15:46:57:004,0.245,-0.003,0.001,0.006,-11.574,59.919,6.332
15:46:57:031,0.272,-0.004,0.001,-0.008,-11.573,59.896,6.334
15:46:57:058,0.300,-0.010,-0.011,0.004,-11.564,59.887,6.339
15:46:57:085,0.327,-0.010,-0.011,0.004,-11.564,59.887,6.339
15:46:57:113,0.354,0.000,-0.003,-0.002,-11.555,59.811,6.327
15:46:57:14,0.381,0.000,-0.003,-0.002,-11.555,59.811,6.327
15:46:57:167,0.408,0.003,-0.009,-0.017,-11.572,59.701,6.327
15:46:57:194,0.435,-0.009,0.004,-0.005,-11.584,59.687,6.345
15:46:57:221,0.462,-0.009,0.004,-0.005,-11.584,59.687,6.345
15:46:57:248,0.489,-0.006,-0.006,0.003,-11.579,59.657,6.339
15:46:57:276,0.517,0.000,-0.004,-0.005,-11.575,59.630,6.326
15:46:57:303,0.544,-0.006,-0.004,-0.004,-11.574,59.607,6.328
15:46:57:33,0.571,-0.002,0.007,0.000,-11.574,59.607,6.328
15:46:57:357,0.598,-0.001,0.000,0.000,-11.573,59.606,6.317
15:46:57:384,0.625,0.002,-0.004,-0.004,-11.574,59.609,6.306
15:46:57:411,0.653,-0.008,-0.008,-0.004,-11.574,59.609,6.306
15:46:57:438,0.679,-0.008,-0.001,-0.007,-11.576,59.613,6.310
15:46:57:465,0.707,-0.004,0.000,-0.002,-11.576,59.613,6.310
15:46:57:492,0.733,-0.001,-0.005,-0.008,-11.591,59.597,6.310
15:46:57:519,0.760,-0.005,-0.002,-0.007,-11.630,59.574,6.316
15:46:57:547,0.788,-0.005,-0.002,-0.007,-11.630,59.574,6.316
15:46:57:574,0.815,-0.008,0.001,-0.001,-11.659,59.570,6.320
15:46:57:601,0.843,0.003,0.003,-0.004,-11.678,59.551,6.318
15:46:57:629,0.870,-0.005,-0.005,-0.013,-11.719,59.523,6.329
15:46:57:655,0.897,-0.007,-0.004,-0.006,-11.750,59.522,6.326
15:46:57:683,0.924,-0.013,0.003,0.004,-11.795,59.542,6.321
15:46:57:71,0.951,-0.002,0.000,-0.015,-11.888,59.547,6.322
15:46:57:737,0.979,-0.007,0.001,-0.004,-11.956,59.586,6.338
15:46:57:764,1.005,-0.005,0.001,-0.001,-11.990,59.612,6.348
15:46:57:791,1.033,-0.001,0.003,-0.002,-12.036,59.614,6.350
15:46:57:819,1.060,-0.001,0.003,-0.002,-12.036,59.614,6.350
15:46:57:845,1.087,-0.006,-0.002,-0.001,-12.062,59.606,6.305
15:46:57:873,1.114,-0.005,-0.001,-0.007,-12.061,59.575,6.263
15:46:57:9,1.141,-0.006,0.000,0.001,-12.055,59.556,6.234
15:46:57:927,1.168,-0.009,-0.006,-0.004,-12.052,59.521,6.189
15:46:57:954,1.195,-0.005,-0.006,-0.004,-12.049,59.506,6.163
15:46:57:982,1.223,-0.005,0.006,0.002,-12.045,59.471,6.118
15:46:58:009,1.250,-0.005,-0.002,-0.007,-12.041,59.446,6.082
15:46:58:036,1.277,-0.005,-0.002,-0.007,-12.041,59.446,6.082
15:46:58:063,1.304,-0.005,-0.002,-0.007,-12.041,59.446,6.082
15:46:58:09,1.332,-0.010,-0.006,-0.007,-12.039,59.380,5.967
15:46:58:118,1.359,-0.010,-0.006,-0.007,-12.039,59.380,5.967
15:46:58:145,1.386,0.001,-0.003,-0.003,-12.038,59.379,5.907
15:46:58:172,1.413,-0.001,-0.002,0.001,-12.069,59.361,5.872
15:46:58:199,1.440,-0.013,-0.007,-0.002,-12.100,59.352,5.837
15:46:58:226,1.467,-0.005,0.001,0.001,-12.117,59.332,5.808
15:46:58:253,1.495,-0.010,-0.010,-0.008,-12.123,59.259,5.756
15:46:58:281,1.522,-0.010,-0.003,-0.019,-12.136,59.200,5.727
15:46:58:308,1.549,-0.010,-0.003,-0.019,-12.136,59.200,5.727
15:46:58:336,1.577,-0.024,0.008,-0.005,-12.133,59.158,5.661
15:46:58:363,1.604,-0.013,0.003,-0.013,-12.158,59.067,5.618
15:46:58:39,1.631,-0.013,0.003,-0.013,-12.158,59.067,5.618
15:46:58:418,1.659,0.005,-0.001,-0.024,-12.191,58.945,5.575
15:46:58:446,1.687,-0.004,-0.009,-0.025,-12.223,58.947,5.561
15:46:58:472,1.714,-0.020,-0.002,-0.013,-12.293,59.012,5.568
15:46:58:5,1.741,-0.020,-0.002,-0.013,-12.293,59.012,5.568
15:46:58:527,1.768,-0.008,-0.002,-0.004,-12.333,59.080,5.604
15:46:58:554,1.795,-0.008,-0.002,-0.004,-12.333,59.080,5.604
15:46:58:581,1.822,-0.014,-0.005,-0.009,-12.416,59.073,5.606
15:46:58:608,1.849,-0.010,0.003,-0.002,-12.434,59.074,5.609
15:46:58:636,1.877,-0.010,0.003,-0.002,-12.434,59.074,5.609
15:46:58:662,1.904,-0.004,-0.003,-0.011,-12.447,59.056,5.583
15:46:58:69,1.932,-0.003,0.003,-0.009,-12.478,59.055,5.580
15:46:58:717,1.958,-0.009,-0.003,-0.010,-12.493,59.047,5.579
15:46:58:744,1.986,-0.006,-0.002,-0.010,-12.505,59.055,5.579
15:46:58:772,2.013,0.001,-0.006,-0.009,-12.509,59.053,5.577
15:46:58:799,2.041,0.001,-0.006,-0.009,-12.509,59.053,5.577
15:46:58:826,2.067,-0.013,-0.001,0.001,-12.530,59.069,5.605
15:46:58:853,2.095,-0.013,-0.001,0.001,-12.530,59.069,5.605
15:46:58:88,2.122,-0.007,0.000,-0.013,-12.535,59.080,5.602
15:46:58:908,2.149,-0.007,0.000,-0.013,-12.535,59.080,5.602
15:46:58:936,2.177,-0.006,-0.006,0.000,-12.537,59.084,5.605
15:46:58:962,2.204,0.000,-0.005,-0.006,-12.513,59.082,5.601
15:46:58:99,2.231,-0.014,-0.005,-0.007,-12.499,59.080,5.607
15:46:59:017,2.258,-0.006,0.000,-0.004,-12.487,59.062,5.608
15:46:59:044,2.285,-0.014,0.000,-0.013,-12.464,59.032,5.611
15:46:59:071,2.312,-0.004,0.001,0.002,-12.435,59.018,5.613
15:46:59:098,2.339,-0.009,-0.003,-0.002,-12.403,58.996,5.619
15:46:59:125,2.366,-0.009,-0.003,-0.002,-12.403,58.996,5.619
15:46:59:152,2.393,-0.008,0.002,-0.002,-12.359,58.967,5.624
15:46:59:179,2.420,-0.008,-0.007,-0.002,-12.342,58.970,5.621
15:46:59:206,2.447,-0.008,-0.007,-0.002,-12.342,58.970,5.621
15:46:59:233,2.474,-0.004,-0.004,-0.010,-12.338,58.941,5.631
15:46:59:26,2.501,-0.005,-0.003,-0.009,-12.338,58.931,5.632
15:46:59:287,2.528,-0.007,0.000,-0.005,-12.340,58.935,5.636
15:46:59:315,2.556,-0.004,0.001,0.008,-12.340,58.935,5.636
15:46:59:342,2.584,-0.006,-0.007,-0.007,-12.344,58.933,5.634
15:46:59:37,2.611,-0.009,0.002,-0.002,-12.349,58.953,5.674
15:46:59:397,2.638,-0.009,0.002,-0.002,-12.349,58.953,5.674
15:46:59:424,2.665,-0.007,-0.007,0.004,-12.326,58.951,5.685
15:46:59:451,2.692,-0.001,0.000,-0.005,-12.313,58.952,5.680
15:46:59:478,2.719,-0.001,0.000,-0.005,-12.313,58.952,5.680
15:46:59:506,2.747,-0.004,0.003,0.003,-12.318,58.954,5.677
15:46:59:533,2.774,-0.004,0.003,0.003,-12.318,58.954,5.677
15:46:59:56,2.801,-0.004,-0.003,0.001,-12.322,58.953,5.687
15:46:59:587,2.828,-0.004,-0.007,-0.001,-12.317,58.942,5.690
15:46:59:614,2.855,-0.004,-0.007,-0.001,-12.317,58.942,5.690
15:46:59:641,2.882,-0.001,-0.003,-0.009,-12.317,58.942,5.690
15:46:59:668,2.909,-0.005,-0.005,-0.008,-12.317,58.940,5.712
15:46:59:695,2.936,-0.007,-0.004,-0.004,-12.322,58.968,5.740
15:46:59:723,2.964,-0.020,0.005,0.003,-12.320,58.984,5.757
15:46:59:75,2.991,-0.003,-0.004,-0.007,-12.320,58.984,5.757
15:46:59:777,3.018,-0.003,-0.004,-0.007,-12.320,58.984,5.757
15:46:59:804,3.045,-0.006,-0.005,-0.005,-12.327,58.987,5.781
15:46:59:831,3.072,-0.011,0.003,-0.007,-12.333,58.979,5.818
15:46:59:858,3.099,-0.008,0.002,-0.005,-12.345,59.002,5.883
15:46:59:885,3.126,-0.008,0.002,-0.005,-12.345,59.002,5.883
15:46:59:912,3.154,-0.008,0.002,-0.005,-12.345,59.002,5.883
15:46:59:94,3.181,-0.005,-0.008,0.001,-12.348,59.052,5.993
15:46:59:967,3.208,-0.005,-0.008,0.001,-12.348,59.052,5.993
15:46:59:994,3.235,-0.007,-0.002,-0.004,-12.350,59.065,6.041
15:47:00:021,3.262,-0.014,0.003,0.000,-12.350,59.065,6.041
15:47:00:049,3.290,-0.014,0.003,0.000,-12.350,59.065,6.041
15:47:00:076,3.317,-0.014,0.003,0.000,-12.350,59.065,6.041
15:47:00:104,3.345,-0.005,0.001,-0.005,-12.352,59.057,6.068
15:47:00:131,3.372,-0.008,0.001,-0.001,-12.354,59.060,6.106
15:47:00:158,3.400,-0.004,-0.002,-0.002,-12.349,59.059,6.119
15:47:00:185,3.426,-0.009,0.002,-0.006,-12.352,59.044,6.130
15:47:00:213,3.454,-0.006,-0.005,-0.005,-12.351,59.012,6.133
15:47:00:239,3.481,-0.012,0.000,-0.006,-12.350,58.991,6.147
15:47:00:267,3.508,-0.008,-0.003,-0.004,-12.334,58.985,6.149
15:47:00:294,3.535,-0.009,-0.003,-0.010,-12.322,58.968,6.150
15:47:00:321,3.562,-0.003,0.001,-0.002,-12.295,58.958,6.152
15:47:00:348,3.590,-0.003,0.001,-0.002,-12.295,58.958,6.152
15:47:00:376,3.617,-0.003,0.001,-0.002,-12.295,58.958,6.152
15:47:00:403,3.644,-0.005,-0.002,-0.013,-12.211,58.942,6.153
15:47:00:43,3.671,-0.002,0.000,-0.002,-12.189,58.962,6.149
15:47:00:458,3.699,0.009,0.000,-0.012,-12.161,58.970,6.134
15:47:00:484,3.726,0.003,-0.013,-0.011,-12.145,58.964,6.136
15:47:00:512,3.753,0.003,-0.013,-0.011,-12.145,58.964,6.136
15:47:00:54,3.781,-0.001,-0.003,-0.003,-12.106,59.045,6.164
15:47:00:567,3.808,-0.015,-0.002,-0.006,-12.106,59.045,6.164
15:47:00:594,3.835,-0.015,-0.002,-0.006,-12.106,59.045,6.164
15:47:00:621,3.863,-0.002,0.000,-0.011,-12.102,59.044,6.177
15:47:00:649,3.890,-0.002,0.000,-0.011,-12.102,59.044,6.177
15:47:00:676,3.917,-0.004,0.000,-0.003,-12.096,59.069,6.216
15:47:00:703,3.945,-0.005,0.001,-0.003,-12.069,59.086,6.260
15:47:00:731,3.972,-0.005,0.001,-0.003,-12.069,59.086,6.260
15:47:00:759,4.000,-0.005,0.001,-0.003,-12.069,59.086,6.260
15:47:00:786,4.027,0.003,-0.001,-0.010,-12.022,59.082,6.265
15:47:00:813,4.054,-0.003,-0.006,-0.002,-12.009,59.101,6.303
15:47:00:84,4.082,-0.005,0.001,0.004,-12.002,59.103,6.333
15:47:00:867,4.108,-0.001,-0.001,-0.004,-12.002,59.091,6.357
15:47:00:894,4.136,-0.010,0.001,-0.011,-11.995,59.095,6.365
15:47:00:922,4.163,-0.006,0.015,0.004,-11.977,59.095,6.373
15:47:00:949,4.190,-0.009,-0.014,-0.006,-11.929,59.078,6.380
15:47:00:977,4.218,-0.009,-0.014,-0.006,-11.929,59.078,6.380
15:47:01:004,4.245,-0.002,-0.010,-0.006,-11.840,59.041,6.373
15:47:01:031,4.273,0.000,-0.009,-0.004,-11.784,59.049,6.370
15:47:01:059,4.300,-0.005,0.003,-0.008,-11.764,59.055,6.373
15:47:01:085,4.327,0.005,-0.007,-0.014,-11.735,59.059,6.369
15:47:01:113,4.354,0.006,0.007,-0.004,-11.724,59.062,6.390
15:47:01:14,4.382,-0.002,-0.012,0.005,-11.727,59.088,6.437
15:47:01:168,4.409,-0.009,0.004,-0.002,-11.753,59.072,6.493
15:47:01:195,4.436,-0.009,-0.012,0.001,-11.752,59.070,6.516
15:47:01:222,4.463,-0.002,-0.011,-0.005,-11.708,59.071,6.502
15:47:01:249,4.490,-0.002,-0.011,-0.005,-11.708,59.071,6.502
15:47:01:276,4.517,-0.002,-0.008,-0.007,-11.670,59.088,6.490
15:47:01:303,4.544,0.008,0.006,-0.013,-11.645,59.101,6.490
15:47:01:33,4.571,-0.018,0.019,-0.015,-11.677,59.138,6.550
15:47:01:357,4.598,-0.003,-0.010,0.002,-11.670,59.143,6.569
15:47:01:384,4.626,-0.018,0.012,-0.006,-11.670,59.143,6.569
15:47:01:411,4.652,-0.018,0.012,-0.006,-11.670,59.143,6.569
15:47:01:439,4.680,-0.011,-0.002,-0.010,-11.600,59.159,6.533
15:47:01:465,4.707,-0.011,-0.002,-0.010,-11.600,59.159,6.533
15:47:01:493,4.734,-0.011,-0.002,-0.010,-11.600,59.159,6.533
15:47:01:52,4.761,-0.011,-0.002,-0.010,-11.600,59.159,6.533
15:47:01:547,4.788,-0.001,-0.007,-0.001,-11.475,59.202,6.448
15:47:01:575,4.816,-0.008,0.001,0.007,-11.380,59.204,6.375
15:47:01:601,4.843,-0.002,-0.012,-0.004,-11.305,59.175,6.284
15:47:01:629,4.870,0.000,-0.013,-0.013,-11.261,59.168,6.227
15:47:01:656,4.897,-0.005,0.005,0.003,-11.176,59.174,6.120
15:47:01:684,4.925,0.009,0.001,-0.015,-11.168,59.169,6.069
15:47:01:711,4.952,0.009,0.001,-0.015,-11.168,59.169,6.069
15:47:01:738,4.979,-0.026,-0.022,-0.024,-11.179,59.174,6.080
15:47:01:765,5.006,0.004,0.011,0.009,-11.133,59.237,6.119
15:47:01:792,5.033,0.004,0.011,0.009,-11.133,59.237,6.119
15:47:01:819,5.060,-0.003,-0.017,-0.027,-11.107,59.259,6.118
15:47:01:846,5.087,-0.005,0.002,-0.021,-11.089,59.299,6.107
15:47:01:873,5.115,-0.002,-0.005,0.001,-11.063,59.396,6.123
15:47:01:901,5.142,-0.001,0.007,0.013,-11.052,59.459,6.145
15:47:01:928,5.169,0.002,-0.016,-0.004,-11.052,59.459,6.145
15:47:01:955,5.197,-0.008,0.000,-0.028,-11.088,59.410,6.149
15:47:01:982,5.223,-0.009,-0.004,-0.018,-11.111,59.422,6.149
15:47:02:01,5.252,-0.009,-0.004,-0.018,-11.111,59.422,6.149
15:47:02:038,5.279,-0.001,-0.005,-0.002,-11.138,59.517,6.207
15:47:02:066,5.307,-0.018,-0.003,-0.005,-11.219,59.540,6.312
15:47:02:092,5.334,-0.018,-0.003,-0.005,-11.219,59.540,6.312
15:47:02:12,5.361,-0.016,0.002,-0.004,-11.262,59.534,6.370
15:47:02:147,5.389,-0.016,0.002,-0.004,-11.262,59.534,6.370
15:47:02:174,5.415,-0.016,0.002,-0.004,-11.262,59.534,6.370
15:47:02:202,5.443,-0.007,-0.004,-0.016,-11.270,59.427,6.352
15:47:02:23,5.471,-0.013,0.000,-0.024,-11.272,59.373,6.333
15:47:02:257,5.498,-0.005,0.001,0.004,-11.264,59.385,6.325
15:47:02:284,5.525,0.000,-0.004,-0.001,-11.237,59.387,6.304
15:47:02:311,5.552,0.005,-0.003,-0.011,-11.223,59.368,6.279
15:47:02:338,5.579,0.001,-0.004,-0.014,-11.223,59.347,6.258
15:47:02:365,5.606,-0.004,-0.007,-0.006,-11.226,59.335,6.246
15:47:02:392,5.633,-0.010,0.002,-0.002,-11.226,59.326,6.247
15:47:02:419,5.661,0.000,-0.002,-0.009,-11.220,59.292,6.253
15:47:02:447,5.688,-0.010,0.002,-0.010,-11.229,59.274,6.255
15:47:02:474,5.715,0.000,-0.004,0.000,-11.227,59.270,6.251
15:47:02:502,5.743,-0.001,0.000,-0.006,-11.227,59.270,6.251
15:47:02:529,5.770,0.003,0.006,-0.005,-11.225,59.275,6.246
15:47:02:556,5.797,0.007,-0.005,-0.012,-11.226,59.278,6.234
15:47:02:583,5.824,-0.005,-0.003,-0.017,-11.263,59.271,6.245
15:47:02:61,5.852,-0.001,-0.001,-0.001,-11.299,59.269,6.263
15:47:02:637,5.879,-0.005,0.001,-0.005,-11.330,59.266,6.293
15:47:02:664,5.906,-0.009,0.001,-0.008,-11.359,59.262,6.297
15:47:02:691,5.932,-0.009,0.001,-0.008,-11.359,59.262,6.297
15:47:02:719,5.960,-0.004,0.003,0.002,-11.430,59.314,6.377
15:47:02:746,5.987,-0.008,-0.003,-0.001,-11.442,59.337,6.431
15:47:02:773,6.014,-0.008,-0.003,-0.001,-11.442,59.337,6.431
15:47:02:8,6.042,-0.006,-0.006,-0.005,-11.449,59.339,6.477
15:47:02:828,6.069,-0.006,-0.006,-0.005,-11.449,59.339,6.477
15:47:02:855,6.097,-0.005,0.001,0.004,-11.453,59.338,6.487
15:47:02:883,6.124,-0.004,0.000,-0.011,-11.408,59.327,6.486
15:47:02:91,6.151,-0.004,0.000,-0.011,-11.408,59.327,6.486
15:47:02:937,6.178,-0.004,0.000,-0.011,-11.408,59.327,6.486
15:47:02:964,6.205,-0.007,-0.001,-0.013,-11.357,59.338,6.447
15:47:02:991,6.232,-0.007,-0.001,-0.014,-11.357,59.337,6.436
15:47:03:019,6.260,0.002,-0.008,-0.002,-11.357,59.337,6.436
15:47:03:046,6.287,-0.001,-0.008,-0.013,-11.351,59.345,6.433
15:47:03:073,6.315,0.002,0.007,-0.013,-11.348,59.338,6.440
15:47:03:101,6.342,-0.011,0.002,0.002,-11.354,59.331,6.454
15:47:03:127,6.369,-0.007,0.000,0.000,-11.347,59.325,6.452
15:47:03:155,6.396,-0.003,0.000,-0.004,-11.312,59.336,6.434
15:47:03:181,6.423,-0.001,0.004,0.003,-11.290,59.340,6.411
15:47:03:209,6.450,0.002,-0.010,-0.011,-11.262,59.349,6.373
15:47:03:235,6.477,-0.003,-0.003,-0.002,-11.262,59.348,6.362
15:47:03:264,6.505,-0.002,-0.001,-0.005,-11.262,59.348,6.362
15:47:03:291,6.532,-0.001,-0.005,-0.007,-11.262,59.348,6.362
15:47:03:318,6.560,0.004,-0.002,-0.009,-11.262,59.348,6.362
15:47:03:346,6.587,-0.007,0.002,-0.017,-11.262,59.348,6.362
15:47:03:373,6.614,-0.007,0.002,-0.017,-11.262,59.348,6.362
15:47:03:4,6.642,-0.001,-0.005,-0.004,-11.250,59.344,6.362
15:47:03:427,6.668,-0.001,-0.005,-0.004,-11.250,59.344,6.362
15:47:03:455,6.696,0.005,-0.005,-0.006,-11.238,59.357,6.334
15:47:03:482,6.723,-0.004,-0.005,-0.009,-11.229,59.359,6.315
15:47:03:509,6.750,-0.001,0.000,-0.002,-11.229,59.359,6.315
15:47:03:536,6.777,-0.001,0.000,-0.002,-11.229,59.359,6.315
15:47:03:563,6.804,0.000,0.000,-0.015,-11.229,59.359,6.315
15:47:03:59,6.831,-0.004,-0.006,-0.021,-11.229,59.359,6.315
15:47:03:617,6.858,-0.002,-0.005,0.003,-11.232,59.364,6.331
15:47:03:644,6.885,-0.002,-0.005,0.003,-11.232,59.364,6.331
15:47:03:671,6.912,0.000,-0.002,-0.013,-11.232,59.364,6.331
15:47:03:699,6.940,-0.008,0.002,-0.010,-11.232,59.364,6.331
15:47:03:725,6.967,-0.001,0.001,0.003,-11.232,59.364,6.331
15:47:03:753,6.994,-0.004,-0.003,-0.002,-11.232,59.364,6.331
15:47:03:781,7.022,0.002,-0.005,-0.007,-11.232,59.364,6.331
15:47:03:808,7.049,0.001,-0.005,-0.004,-11.232,59.364,6.331
15:47:03:835,7.076,0.002,-0.002,-0.001,-11.232,59.364,6.331
15:47:03:862,7.103,-0.004,-0.002,-0.008,-11.232,59.364,6.331
15:47:03:889,7.131,0.002,-0.002,-0.008,-11.232,59.364,6.331
15:47:03:917,7.158,0.001,0.000,-0.005,-11.232,59.373,6.329
15:47:03:944,7.186,0.001,0.000,-0.005,-11.232,59.373,6.329
15:47:03:971,7.212,0.004,-0.003,-0.014,-11.232,59.373,6.329
15:47:03:998,7.240,0.004,-0.003,-0.014,-11.232,59.373,6.329
15:47:04:026,7.267,0.004,0.001,0.002,-11.238,59.405,6.347
15:47:04:053,7.294,0.004,0.001,0.002,-11.238,59.405,6.347
15:47:04:08,7.322,-0.005,-0.002,-0.004,-11.238,59.405,6.347
15:47:04:107,7.348,0.003,-0.003,-0.002,-11.238,59.405,6.347
15:47:04:134,7.376,0.006,-0.003,-0.014,-11.241,59.412,6.339
15:47:04:161,7.402,0.001,-0.004,-0.009,-11.239,59.418,6.346
15:47:04:188,7.430,0.001,-0.004,-0.009,-11.239,59.418,6.346
15:47:04:215,7.457,-0.003,0.002,0.003,-11.236,59.421,6.363
15:47:04:243,7.484,0.002,0.003,0.001,-11.240,59.410,6.362
15:47:04:27,7.512,-0.029,-0.001,-0.029,-11.207,59.319,6.356
15:47:04:298,7.539,-0.005,0.009,0.003,-10.946,59.230,6.165
15:47:04:325,7.566,0.022,-0.005,-0.029,-10.766,59.215,5.988
15:47:04:352,7.593,0.019,-0.025,-0.020,-10.706,59.196,5.890
15:47:04:379,7.620,0.014,-0.022,-0.037,-10.689,59.210,5.863
15:47:04:406,7.647,0.029,-0.006,-0.028,-10.739,59.286,5.929
15:47:04:433,7.674,0.005,-0.007,-0.009,-10.922,59.442,6.128
15:47:04:46,7.701,-0.023,0.003,-0.003,-11.108,59.485,6.334
15:47:04:488,7.729,-0.045,0.020,0.002,-11.301,59.520,6.587
15:47:04:515,7.757,-0.045,0.020,0.002,-11.301,59.520,6.587
15:47:04:543,7.784,0.005,-0.004,0.009,-11.300,59.602,6.659
15:47:04:57,7.811,0.001,-0.007,-0.005,-11.250,59.573,6.595
15:47:04:597,7.838,-0.009,-0.002,-0.028,-11.222,59.554,6.553
15:47:04:624,7.865,-0.009,-0.002,-0.028,-11.222,59.554,6.553
15:47:04:651,7.892,-0.001,-0.006,-0.005,-11.142,59.591,6.483
15:47:04:678,7.920,0.006,-0.007,-0.011,-11.130,59.585,6.460
15:47:04:706,7.947,0.005,-0.008,-0.022,-11.129,59.553,6.464
15:47:04:733,7.974,-0.001,-0.010,-0.003,-11.135,59.547,6.478
15:47:04:76,8.001,-0.011,0.006,0.007,-11.157,59.534,6.502
15:47:04:788,8.029,-0.013,0.003,-0.010,-11.156,59.494,6.510
15:47:04:814,8.056,-0.013,-0.002,-0.027,-11.163,59.449,6.511
15:47:04:842,8.083,-0.003,0.001,-0.006,-11.158,59.450,6.501
15:47:04:869,8.110,0.000,-0.002,-0.001,-11.139,59.455,6.505
15:47:04:896,8.137,-0.002,-0.003,-0.001,-11.109,59.449,6.490
15:47:04:924,8.165,-0.002,-0.003,-0.001,-11.109,59.449,6.490
15:47:04:951,8.192,-0.005,-0.002,-0.008,-11.032,59.374,6.437
15:47:04:978,8.219,0.007,-0.001,0.006,-10.971,59.352,6.384
15:47:05:005,8.246,0.004,-0.004,-0.017,-10.956,59.320,6.359
15:47:05:032,8.273,-0.007,-0.006,-0.004,-10.989,59.352,6.375
15:47:05:059,8.300,-0.007,-0.002,0.011,-11.000,59.412,6.432
15:47:05:086,8.327,-0.012,0.001,-0.009,-11.003,59.418,6.447
15:47:05:113,8.355,-0.005,0.000,-0.004,-11.005,59.422,6.451
15:47:05:14,8.382,-0.015,0.008,-0.001,-11.010,59.424,6.449
15:47:05:167,8.409,-0.005,-0.002,-0.010,-11.014,59.414,6.426
15:47:05:195,8.436,-0.002,-0.005,-0.021,-11.021,59.382,6.414
15:47:05:222,8.463,0.001,-0.007,-0.015,-11.043,59.380,6.415
15:47:05:249,8.490,-0.010,-0.001,-0.005,-11.060,59.407,6.433
15:47:05:276,8.517,-0.007,0.000,0.000,-11.068,59.423,6.445
15:47:05:303,8.544,-0.007,0.000,0.000,-11.068,59.423,6.445
15:47:05:33,8.571,-0.007,0.006,-0.001,-11.070,59.407,6.440
15:47:05:357,8.598,0.003,-0.004,-0.014,-11.067,59.392,6.415
15:47:05:384,8.625,0.011,0.000,-0.023,-11.093,59.344,6.389
15:47:05:411,8.653,0.008,-0.020,-0.024,-11.157,59.315,6.401
15:47:05:438,8.679,0.002,-0.010,0.000,-11.220,59.332,6.460
15:47:05:466,8.707,-0.010,-0.006,0.005,-11.298,59.378,6.554
15:47:05:493,8.734,-0.010,-0.006,0.005,-11.298,59.378,6.554
15:47:05:52,8.762,-0.009,0.006,-0.006,-11.323,59.432,6.606
15:47:05:547,8.789,0.008,-0.001,-0.007,-11.323,59.441,6.605
15:47:05:575,8.816,-0.001,-0.007,-0.010,-11.319,59.442,6.595
15:47:05:602,8.843,-0.001,-0.007,-0.010,-11.319,59.442,6.595
15:47:05:628,8.870,-0.009,-0.003,-0.006,-11.351,59.454,6.591
15:47:05:656,8.897,0.005,0.007,-0.003,-11.347,59.464,6.581
15:47:05:683,8.925,0.005,-0.008,-0.009,-11.347,59.464,6.581
15:47:05:71,8.951,-0.002,-0.006,-0.012,-11.367,59.459,6.578
15:47:05:738,8.979,-0.004,0.004,0.003,-11.378,59.464,6.589
15:47:05:765,9.006,-0.004,0.004,0.003,-11.378,59.464,6.589
15:47:05:792,9.033,-0.011,-0.002,-0.013,-11.390,59.467,6.589
15:47:05:819,9.060,-0.011,-0.002,-0.013,-11.390,59.467,6.589
15:47:05:846,9.088,-0.007,-0.002,-0.005,-11.389,59.458,6.590
15:47:05:873,9.114,-0.011,0.000,-0.007,-11.398,59.458,6.586
15:47:05:9,9.142,0.003,-0.002,-0.013,-11.399,59.422,6.549
15:47:05:928,9.169,-0.011,-0.009,-0.011,-11.405,59.408,6.542
15:47:05:955,9.196,-0.013,-0.003,-0.007,-11.428,59.417,6.553
15:47:05:982,9.223,-0.009,0.008,0.010,-11.438,59.437,6.569
15:47:06:009,9.250,0.002,-0.001,-0.012,-11.436,59.452,6.563
15:47:06:036,9.278,0.003,-0.001,-0.022,-11.440,59.443,6.540
15:47:06:063,9.304,-0.008,-0.006,-0.017,-11.443,59.441,6.534
15:47:06:09,9.332,-0.008,-0.006,-0.017,-11.443,59.441,6.534
15:47:06:117,9.358,0.012,0.004,-0.011,-11.434,59.479,6.507
15:47:06:144,9.386,0.009,-0.002,-0.018,-11.428,59.460,6.478
15:47:06:172,9.413,0.009,-0.002,-0.018,-11.428,59.460,6.478
15:47:06:199,9.440,0.001,-0.012,-0.007,-11.430,59.454,6.472
15:47:06:227,9.468,-0.010,-0.005,-0.005,-11.442,59.460,6.494
15:47:06:255,9.496,0.001,-0.001,-0.002,-11.454,59.486,6.492
15:47:06:282,9.524,-0.004,-0.008,-0.012,-11.452,59.492,6.486
15:47:06:309,9.550,-0.004,-0.008,-0.012,-11.452,59.492,6.486
15:47:06:337,9.578,-0.006,-0.001,0.001,-11.455,59.499,6.479
15:47:06:364,9.605,-0.006,-0.001,0.001,-11.455,59.499,6.479
15:47:06:391,9.633,0.005,-0.003,-0.003,-11.444,59.496,6.446
15:47:06:418,9.660,0.003,-0.008,-0.009,-11.445,59.480,6.430
15:47:06:445,9.687,-0.001,-0.002,-0.009,-11.443,59.476,6.426
15:47:06:473,9.714,-0.002,-0.001,-0.003,-11.443,59.476,6.426
15:47:06:499,9.741,0.006,-0.009,-0.010,-11.443,59.476,6.426
15:47:06:527,9.768,-0.009,0.001,-0.008,-11.442,59.473,6.437
15:47:06:554,9.795,-0.009,0.001,-0.008,-11.442,59.473,6.437
15:47:06:581,9.822,-0.005,0.001,-0.004,-11.447,59.473,6.457
15:47:06:607,9.849,0.003,-0.001,0.001,-11.444,59.468,6.442
15:47:06:635,9.876,-0.004,-0.003,-0.009,-11.440,59.449,6.424
15:47:06:662,9.903,0.001,-0.008,-0.011,-11.440,59.449,6.424
15:47:06:689,9.930,-0.010,-0.004,-0.011,-11.440,59.449,6.424
15:47:06:716,9.957,-0.002,0.000,-0.001,-11.440,59.449,6.424
15:47:06:743,9.984,-0.012,0.002,-0.008,-11.439,59.445,6.424
15:47:06:77,10.012,-0.012,0.002,-0.008,-11.439,59.445,6.424
15:47:06:798,10.039,-0.007,-0.002,-0.015,-11.437,59.442,6.431
15:47:06:825,10.067,-0.002,0.001,-0.004,-11.441,59.451,6.450
15:47:06:853,10.094,-0.002,0.001,-0.004,-11.441,59.451,6.450
15:47:06:88,10.122,0.001,-0.002,0.002,-11.437,59.452,6.441
15:47:06:907,10.149,0.000,-0.007,-0.012,-11.438,59.436,6.425
15:47:06:935,10.176,0.004,-0.008,-0.010,-11.458,59.419,6.434
15:47:06:961,10.203,-0.004,-0.002,-0.009,-11.467,59.427,6.474
15:47:06:989,10.231,-0.002,-0.002,0.003,-11.466,59.453,6.489
15:47:07:016,10.257,0.000,0.000,-0.002,-11.475,59.463,6.495
15:47:07:043,10.285,0.005,-0.002,-0.016,-11.475,59.463,6.495
15:47:07:071,10.312,-0.005,-0.010,-0.008,-11.471,59.464,6.486
15:47:07:098,10.339,-0.002,-0.009,-0.002,-11.471,59.464,6.486
15:47:07:125,10.366,-0.003,-0.006,-0.005,-11.471,59.473,6.484
15:47:07:152,10.393,0.005,0.004,-0.007,-11.468,59.478,6.475
15:47:07:179,10.420,0.005,-0.004,-0.018,-11.464,59.460,6.461
15:47:07:206,10.447,0.001,-0.009,-0.010,-11.481,59.438,6.466
15:47:07:233,10.474,-0.005,-0.004,-0.008,-11.490,59.436,6.485
15:47:07:26,10.501,-0.007,0.002,0.003,-11.488,59.452,6.501
15:47:07:287,10.529,0.002,0.001,-0.003,-11.493,59.453,6.488
15:47:07:315,10.556,0.005,0.003,-0.011,-11.487,59.441,6.480
15:47:07:342,10.583,-0.010,-0.003,-0.005,-11.493,59.425,6.484
15:47:07:369,10.611,-0.006,-0.001,-0.004,-11.497,59.442,6.487
15:47:07:397,10.638,-0.006,-0.001,-0.004,-11.497,59.442,6.487
15:47:07:423,10.665,-0.002,0.000,-0.007,-11.497,59.442,6.487
15:47:07:451,10.692,-0.007,-0.003,-0.013,-11.497,59.442,6.487
15:47:07:477,10.719,-0.003,-0.004,-0.006,-11.497,59.442,6.487
15:47:07:505,10.746,-0.010,-0.003,-0.009,-11.497,59.442,6.487
15:47:07:531,10.773,-0.010,-0.003,-0.009,-11.497,59.442,6.487
15:47:07:559,10.800,0.000,-0.013,-0.013,-11.479,59.396,6.448
15:47:07:587,10.828,-0.003,-0.006,-0.008,-11.515,59.376,6.472
15:47:07:613,10.855,-0.007,-0.005,-0.007,-11.531,59.371,6.504
15:47:07:64,10.882,-0.003,0.005,-0.002,-11.537,59.409,6.531
15:47:07:667,10.908,-0.002,0.009,-0.002,-11.536,59.418,6.526
15:47:07:695,10.936,0.008,-0.004,-0.010,-11.533,59.412,6.500
15:47:07:722,10.964,-0.005,-0.006,-0.012,-11.533,59.412,6.500
15:47:07:749,10.990,0.002,-0.006,-0.005,-11.535,59.408,6.516
15:47:07:777,11.018,-0.005,-0.001,-0.005,-11.534,59.423,6.521
15:47:07:804,11.045,0.005,-0.002,-0.006,-11.534,59.423,6.521
15:47:07:832,11.074,0.005,-0.002,-0.006,-11.534,59.423,6.521
15:47:07:859,11.101,0.007,0.002,-0.010,-11.534,59.423,6.521
15:47:07:887,11.128,-0.002,-0.003,-0.011,-11.535,59.408,6.516
15:47:07:914,11.155,-0.004,-0.003,-0.005,-11.535,59.417,6.515
15:47:07:941,11.182,-0.003,0.000,-0.003,-11.535,59.417,6.515
15:47:07:968,11.210,0.013,-0.007,-0.025,-11.533,59.413,6.511
15:47:07:996,11.237,0.013,-0.007,-0.025,-11.533,59.413,6.511
15:47:08:023,11.264,-0.001,-0.002,-0.004,-11.540,59.415,6.558
15:47:08:05,11.292,-0.001,-0.002,-0.004,-11.540,59.415,6.558
15:47:08:077,11.318,0.000,0.001,-0.002,-11.536,59.426,6.559
15:47:08:104,11.346,0.002,0.006,-0.011,-11.536,59.426,6.559
15:47:08:132,11.373,0.002,0.006,-0.011,-11.536,59.426,6.559
15:47:08:159,11.400,-0.012,-0.002,-0.009,-11.563,59.386,6.566
15:47:08:187,11.429,0.000,0.000,0.000,-11.568,59.407,6.573
15:47:08:215,11.456,0.000,0.000,0.000,-11.568,59.407,6.573
15:47:08:242,11.483,0.011,-0.009,-0.022,-11.564,59.408,6.564
15:47:08:269,11.511,-0.002,-0.004,-0.014,-11.572,59.396,6.572
15:47:08:297,11.538,-0.001,-0.008,-0.007,-11.574,59.401,6.587
15:47:08:324,11.565,-0.003,-0.004,-0.009,-11.558,59.423,6.593
15:47:08:351,11.592,-0.003,-0.004,-0.009,-11.558,59.423,6.593
15:47:08:378,11.619,0.004,-0.003,-0.011,-11.556,59.428,6.588
15:47:08:405,11.646,-0.008,0.002,-0.010,-11.556,59.428,6.588
15:47:08:432,11.673,-0.008,0.002,-0.010,-11.556,59.428,6.588
15:47:08:459,11.700,0.002,0.016,-0.003,-11.498,59.421,6.560
15:47:08:486,11.728,0.017,-0.009,-0.010,-11.489,59.395,6.538
15:47:08:513,11.754,0.017,-0.009,-0.010,-11.489,59.395,6.538
15:47:08:54,11.781,-0.006,-0.003,-0.005,-11.512,59.364,6.569
15:47:08:569,11.810,-0.003,0.001,-0.002,-11.518,59.386,6.587
15:47:08:596,11.837,0.004,0.000,-0.008,-11.518,59.386,6.587
15:47:08:623,11.864,0.001,-0.004,-0.014,-11.514,59.387,6.578
15:47:08:65,11.891,0.000,-0.003,-0.013,-11.514,59.387,6.578
15:47:08:677,11.919,-0.003,0.001,0.001,-11.518,59.395,6.586
15:47:08:704,11.945,-0.003,0.001,0.001,-11.518,59.395,6.586
15:47:08:731,11.973,-0.003,0.001,0.001,-11.518,59.395,6.586
15:47:08:759,12.000,0.000,-0.004,-0.008,-11.516,59.390,6.615
15:47:08:786,12.027,0.000,-0.004,-0.008,-11.516,59.390,6.615
15:47:08:813,12.054,0.000,-0.004,-0.008,-11.516,59.390,6.615
15:47:08:84,12.081,0.005,0.003,-0.016,-11.519,59.414,6.639
15:47:08:868,12.109,0.003,-0.015,-0.011,-11.519,59.414,6.639
15:47:08:895,12.136,-0.010,-0.002,-0.014,-11.523,59.413,6.649
15:47:08:922,12.163,-0.011,0.003,0.000,-11.523,59.413,6.649
15:47:08:95,12.191,-0.005,0.000,-0.004,-11.523,59.413,6.649
15:47:08:977,12.218,0.003,-0.008,-0.017,-11.523,59.413,6.649
15:47:09:004,12.245,-0.005,-0.003,-0.016,-11.523,59.413,6.649
15:47:09:031,12.272,-0.001,-0.001,-0.007,-11.527,59.412,6.658
15:47:09:058,12.299,-0.007,0.004,-0.006,-11.522,59.419,6.655
15:47:09:085,12.327,-0.002,-0.003,-0.003,-11.522,59.419,6.655
15:47:09:112,12.354,-0.008,-0.001,-0.016,-11.522,59.419,6.655
15:47:09:14,12.381,0.007,-0.004,-0.011,-11.522,59.419,6.655
15:47:09:168,12.409,0.000,0.003,-0.013,-11.522,59.419,6.655
15:47:09:196,12.437,0.000,-0.007,-0.012,-11.527,59.412,6.658
15:47:09:223,12.464,-0.006,-0.007,-0.007,-11.527,59.412,6.658
15:47:09:25,12.491,0.003,-0.002,-0.005,-11.527,59.412,6.658
15:47:09:277,12.518,-0.007,0.007,0.001,-11.527,59.412,6.658
15:47:09:304,12.545,0.003,-0.005,-0.011,-11.525,59.408,6.654
15:47:09:331,12.572,-0.002,-0.008,-0.012,-11.525,59.408,6.654
15:47:09:359,12.600,-0.002,-0.008,-0.012,-11.525,59.408,6.654
15:47:09:386,12.628,0.002,0.005,-0.014,-11.523,59.413,6.649
15:47:09:414,12.655,0.002,0.005,-0.014,-11.523,59.413,6.649
15:47:09:441,12.682,0.001,-0.001,-0.008,-11.517,59.410,6.635
15:47:09:468,12.710,0.008,-0.004,-0.013,-11.518,59.404,6.629
15:47:09:496,12.737,0.008,-0.004,-0.013,-11.518,59.404,6.629
15:47:09:523,12.764,0.002,0.004,-0.003,-11.519,59.413,6.628
15:47:09:55,12.791,0.002,-0.001,-0.010,-11.519,59.413,6.628
15:47:09:577,12.818,-0.001,-0.003,-0.008,-11.519,59.413,6.628
15:47:09:605,12.846,-0.004,-0.004,-0.015,-11.519,59.413,6.628
15:47:09:631,12.873,0.000,-0.003,-0.004,-11.520,59.427,6.627
15:47:09:659,12.900,-0.009,0.006,0.002,-11.520,59.427,6.627
15:47:09:686,12.927,-0.009,0.006,0.002,-11.520,59.427,6.627
15:47:09:713,12.954,-0.004,0.000,-0.016,-11.525,59.399,6.610
15:47:09:74,12.981,-0.002,-0.004,-0.011,-11.525,59.399,6.610
15:47:09:767,13.009,-0.002,-0.004,-0.011,-11.525,59.399,6.610
15:47:09:795,13.037,0.009,-0.004,-0.014,-11.526,59.402,6.599
15:47:09:822,13.063,0.009,-0.004,-0.014,-11.526,59.402,6.599
15:47:09:849,13.091,0.002,-0.006,-0.012,-11.527,59.395,6.582
15:47:09:876,13.117,-0.007,0.001,-0.004,-11.521,59.402,6.578
15:47:09:903,13.145,0.004,-0.001,-0.008,-11.510,59.408,6.577
15:47:09:93,13.172,0.010,-0.004,-0.021,-11.509,59.398,6.567
15:47:09:958,13.199,-0.003,-0.003,-0.008,-11.511,59.381,6.551
15:47:09:985,13.226,-0.003,-0.007,-0.006,-11.511,59.381,6.551
15:47:10:013,13.254,0.006,-0.004,-0.014,-11.511,59.381,6.551
15:47:10:039,13.281,0.006,-0.004,-0.014,-11.511,59.381,6.551
15:47:10:068,13.309,0.004,-0.008,-0.008,-11.511,59.381,6.551
15:47:10:095,13.336,-0.005,-0.002,-0.013,-11.515,59.380,6.560
15:47:10:122,13.363,-0.007,0.002,-0.002,-11.513,59.377,6.568
15:47:10:15,13.391,-0.003,0.001,-0.015,-11.513,59.377,6.568
15:47:10:177,13.418,-0.003,0.001,-0.015,-11.513,59.377,6.568
15:47:10:204,13.445,-0.001,-0.005,-0.009,-11.513,59.377,6.568
15:47:10:231,13.473,-0.007,0.000,-0.008,-11.513,59.377,6.568
15:47:10:259,13.500,-0.004,-0.002,-0.001,-11.513,59.377,6.568
15:47:10:285,13.527,0.003,-0.008,-0.012,-11.517,59.375,6.565
15:47:10:313,13.554,0.003,-0.008,-0.012,-11.517,59.375,6.565
15:47:10:341,13.582,0.000,-0.005,-0.008,-11.517,59.375,6.565
15:47:10:367,13.609,-0.005,0.000,-0.009,-11.517,59.375,6.565
15:47:10:395,13.636,0.002,-0.002,-0.010,-11.512,59.364,6.569
15:47:10:422,13.663,-0.007,0.000,-0.010,-11.512,59.364,6.569
15:47:10:449,13.690,-0.007,0.000,-0.010,-11.512,59.364,6.569
15:47:10:476,13.717,-0.007,0.000,-0.010,-11.512,59.364,6.569
15:47:10:503,13.744,-0.005,-0.002,-0.011,-11.514,59.349,6.564
15:47:10:53,13.771,-0.005,-0.002,-0.011,-11.514,59.349,6.564
15:47:10:557,13.798,0.000,-0.003,-0.005,-11.514,59.349,6.564
15:47:10:584,13.825,0.007,-0.008,-0.010,-11.514,59.349,6.564
15:47:10:611,13.852,0.007,-0.008,-0.010,-11.514,59.349,6.564
15:47:10:638,13.879,0.002,-0.005,-0.006,-11.514,59.349,6.564
15:47:10:666,13.907,0.002,-0.005,-0.006,-11.514,59.349,6.564
15:47:10:693,13.934,0.003,-0.003,-0.012,-11.514,59.349,6.564
15:47:10:72,13.961,0.000,-0.006,-0.015,-11.514,59.349,6.564
15:47:10:747,13.989,0.000,-0.006,-0.015,-11.514,59.349,6.564
15:47:10:774,14.015,0.000,-0.006,-0.015,-11.514,59.349,6.564
15:47:10:801,14.043,0.000,0.001,-0.003,-11.514,59.349,6.564
15:47:10:829,14.070,0.000,-0.003,-0.013,-11.514,59.349,6.564
15:47:10:856,14.097,-0.007,-0.004,-0.008,-11.516,59.363,6.578
15:47:10:883,14.124,-0.009,-0.002,-0.010,-11.515,59.388,6.593
15:47:10:91,14.151,0.000,-0.001,-0.003,-11.519,59.415,6.606
15:47:10:937,14.178,0.002,0.000,-0.003,-11.519,59.415,6.606
15:47:10:964,14.205,0.000,-0.005,-0.011,-11.518,59.384,6.609
15:47:10:991,14.232,0.003,0.000,-0.004,-11.520,59.379,6.614
15:47:11:018,14.259,0.003,0.000,-0.004,-11.520,59.379,6.614
15:47:11:045,14.286,0.001,-0.005,-0.009,-11.495,59.345,6.617
15:47:11:072,14.313,0.003,-0.005,-0.009,-11.496,59.317,6.624
15:47:11:099,14.341,-0.001,-0.005,-0.009,-11.493,59.310,6.631
15:47:11:127,14.368,-0.007,0.003,0.000,-11.497,59.309,6.640
15:47:11:153,14.395,-0.005,0.001,-0.007,-11.497,59.309,6.640
15:47:11:181,14.422,0.003,-0.006,-0.010,-11.492,59.288,6.645
15:47:11:208,14.449,-0.004,-0.002,-0.011,-11.492,59.288,6.645
15:47:11:235,14.477,0.001,0.001,-0.007,-11.496,59.287,6.654
15:47:11:262,14.503,0.001,0.001,-0.007,-11.496,59.287,6.654
15:47:11:29,14.531,0.009,-0.005,-0.011,-11.487,59.287,6.658
15:47:11:317,14.558,-0.005,-0.006,-0.016,-11.487,59.287,6.658
15:47:11:344,14.585,-0.005,-0.006,-0.016,-11.487,59.287,6.658
15:47:11:371,14.612,0.002,-0.001,-0.006,-11.488,59.288,6.669
15:47:11:398,14.639,0.005,0.001,-0.006,-11.489,59.289,6.684
15:47:11:425,14.667,-0.005,-0.004,-0.011,-11.489,59.289,6.684
15:47:11:453,14.694,-0.002,-0.004,-0.009,-11.483,59.296,6.681
15:47:11:479,14.720,-0.007,0.003,-0.004,-11.491,59.313,6.693
15:47:11:506,14.748,0.002,-0.002,-0.006,-11.496,59.333,6.689
15:47:11:534,14.775,-0.002,-0.003,-0.011,-11.496,59.333,6.689
15:47:11:561,14.802,0.001,-0.004,-0.008,-11.496,59.333,6.689
15:47:11:588,14.829,-0.003,0.000,-0.004,-11.496,59.333,6.689
15:47:11:615,14.856,0.002,0.000,-0.009,-11.496,59.333,6.689
15:47:11:642,14.883,0.002,0.000,-0.009,-11.496,59.333,6.689
15:47:11:669,14.910,-0.001,-0.003,-0.006,-11.495,59.351,6.683
15:47:11:696,14.937,-0.004,0.000,-0.011,-11.497,59.355,6.687
15:47:11:724,14.965,-0.004,0.000,-0.011,-11.497,59.355,6.687
15:47:11:751,14.992,0.002,-0.002,-0.012,-11.504,59.351,6.679
15:47:11:778,15.019,-0.005,-0.002,-0.006,-11.504,59.351,6.679
15:47:11:805,15.046,-0.002,-0.002,-0.007,-11.504,59.351,6.679
15:47:11:832,15.074,0.007,-0.007,-0.021,-11.506,59.346,6.684
15:47:11:859,15.101,-0.008,-0.001,-0.010,-11.521,59.339,6.683
15:47:11:887,15.128,-0.003,-0.010,-0.011,-11.540,59.312,6.693
15:47:11:915,15.156,-0.013,0.003,-0.008,-11.554,59.311,6.709
15:47:11:942,15.183,-0.008,-0.001,-0.008,-11.553,59.308,6.721
15:47:11:969,15.210,-0.004,-0.006,-0.014,-11.553,59.308,6.721
15:47:11:996,15.237,-0.004,-0.006,-0.014,-11.553,59.308,6.721
15:47:12:023,15.265,-0.013,0.002,-0.012,-11.560,59.312,6.745
15:47:12:051,15.292,-0.001,-0.001,-0.001,-11.560,59.312,6.745
15:47:12:078,15.319,-0.003,-0.003,-0.013,-11.560,59.312,6.745
15:47:12:105,15.346,-0.003,-0.006,-0.010,-11.562,59.307,6.750
15:47:12:132,15.373,-0.011,0.000,-0.013,-11.559,59.310,6.767
15:47:12:159,15.401,-0.006,-0.001,-0.003,-11.564,59.321,6.764
15:47:12:186,15.427,-0.009,0.006,-0.010,-11.564,59.321,6.764
15:47:12:213,15.455,0.007,-0.001,-0.011,-11.564,59.321,6.764
15:47:12:24,15.481,-0.009,-0.002,-0.008,-11.574,59.322,6.771
15:47:12:268,15.509,-0.009,-0.002,-0.008,-11.574,59.322,6.771
15:47:12:295,15.536,-0.003,-0.002,-0.010,-11.591,59.318,6.819
15:47:12:322,15.564,-0.008,0.000,0.001,-11.591,59.318,6.819
15:47:12:35,15.591,-0.010,-0.001,-0.004,-11.618,59.319,6.818
15:47:12:377,15.618,-0.005,-0.007,-0.008,-11.633,59.311,6.817
15:47:12:404,15.645,-0.005,-0.007,-0.008,-11.633,59.311,6.817
15:47:12:431,15.672,0.002,0.001,-0.007,-11.702,59.304,6.848
15:47:12:458,15.699,0.002,-0.006,-0.013,-11.771,59.295,6.867
15:47:12:485,15.727,-0.005,0.001,-0.004,-11.798,59.294,6.888
15:47:12:513,15.754,-0.008,0.000,-0.006,-11.827,59.289,6.892
15:47:12:54,15.781,-0.006,0.001,-0.006,-11.827,59.289,6.892
15:47:12:567,15.808,-0.006,0.001,-0.006,-11.827,59.289,6.892
15:47:12:594,15.835,-0.005,-0.005,-0.011,-11.827,59.288,6.881
15:47:12:622,15.863,-0.004,-0.003,-0.011,-11.832,59.290,6.879
15:47:12:649,15.890,-0.006,0.004,-0.002,-11.832,59.290,6.879
15:47:12:676,15.918,-0.006,0.004,-0.002,-11.832,59.290,6.879
15:47:12:704,15.945,-0.012,0.000,-0.016,-11.834,59.293,6.872
15:47:12:731,15.972,-0.011,-0.002,-0.012,-11.835,59.305,6.859
15:47:12:758,16.000,-0.008,0.000,-0.004,-11.842,59.311,6.861
15:47:12:785,16.026,-0.016,0.002,-0.006,-11.853,59.306,6.862
15:47:12:813,16.054,-0.003,0.000,-0.012,-11.866,59.305,6.867
15:47:12:84,16.081,-0.009,0.002,0.000,-11.897,59.303,6.909
15:47:12:867,16.109,-0.009,0.002,0.000,-11.897,59.303,6.909
15:47:12:894,16.136,-0.010,-0.001,-0.005,-11.903,59.323,6.905
15:47:12:921,16.162,-0.010,-0.001,-0.005,-11.903,59.323,6.905
15:47:12:948,16.190,-0.004,0.001,-0.007,-11.865,59.332,6.860
15:47:12:976,16.217,-0.005,-0.007,-0.015,-11.857,59.335,6.842
15:47:13:003,16.244,-0.005,-0.007,-0.015,-11.857,59.335,6.842
15:47:13:03,16.271,-0.006,-0.002,-0.012,-11.857,59.335,6.842
15:47:13:058,16.299,-0.001,-0.006,-0.004,-11.857,59.335,6.842
15:47:13:084,16.326,-0.008,-0.001,-0.005,-11.859,59.339,6.846
15:47:13:112,16.353,-0.005,-0.005,-0.009,-11.859,59.339,6.846
15:47:13:138,16.380,-0.009,-0.002,-0.009,-11.875,59.335,6.845
15:47:13:166,16.407,-0.009,-0.002,-0.009,-11.875,59.335,6.845
15:47:13:194,16.435,-0.016,-0.002,-0.005,-11.880,59.356,6.840
15:47:13:221,16.463,-0.016,-0.002,-0.005,-11.880,59.356,6.840
15:47:13:249,16.490,-0.016,-0.006,-0.010,-11.875,59.338,6.822
15:47:13:275,16.517,-0.012,-0.001,-0.005,-11.851,59.309,6.746
15:47:13:303,16.544,-0.007,0.002,-0.014,-11.827,59.279,6.692
15:47:13:33,16.571,-0.002,-0.006,-0.014,-11.795,59.261,6.642
15:47:13:357,16.599,-0.002,-0.006,-0.018,-11.775,59.259,6.612
15:47:13:385,16.626,-0.007,0.000,-0.011,-11.742,59.268,6.588
15:47:13:411,16.653,-0.007,0.000,-0.011,-11.742,59.268,6.588
15:47:13:439,16.680,-0.006,-0.001,-0.007,-11.680,59.270,6.538
15:47:13:466,16.708,-0.009,-0.002,-0.015,-11.659,59.265,6.531
15:47:13:493,16.735,-0.007,-0.004,-0.015,-11.637,59.267,6.530
15:47:13:52,16.761,-0.022,0.010,-0.008,-11.610,59.266,6.531
15:47:13:548,16.789,-0.007,0.005,0.004,-11.577,59.284,6.506
15:47:13:575,16.817,-0.007,0.005,0.004,-11.577,59.284,6.506
15:47:13:602,16.843,0.000,-0.016,-0.018,-11.531,59.276,6.434
15:47:13:629,16.871,-0.008,-0.001,-0.017,-11.516,59.293,6.434
15:47:13:657,16.898,-0.008,-0.001,-0.017,-11.516,59.293,6.434
15:47:13:684,16.925,-0.014,-0.003,-0.028,-11.520,59.331,6.423
15:47:13:711,16.952,-0.011,0.003,0.000,-11.508,59.402,6.418
15:47:13:738,16.979,-0.022,0.008,-0.001,-11.465,59.467,6.394
15:47:13:765,17.006,-0.017,0.004,0.002,-11.358,59.512,6.289
15:47:13:793,17.034,-0.004,-0.002,-0.017,-11.213,59.500,6.118
15:47:13:82,17.061,-0.004,-0.002,-0.017,-11.213,59.500,6.118
15:47:13:847,17.088,-0.003,0.001,-0.011,-10.964,59.488,5.834
15:47:13:874,17.115,0.010,-0.005,-0.010,-10.880,59.476,5.741
15:47:13:901,17.142,0.021,-0.016,-0.020,-10.810,59.443,5.637
15:47:13:928,17.170,0.021,-0.016,-0.020,-10.810,59.443,5.637
15:47:13:956,17.197,0.021,-0.016,-0.020,-10.810,59.443,5.637
15:47:13:982,17.224,0.000,-0.002,-0.002,-11.002,59.463,5.813
15:47:14:01,17.251,-0.013,0.000,-0.016,-11.149,59.500,6.042
15:47:14:037,17.278,0.003,-0.001,-0.007,-11.185,59.517,6.113
15:47:14:064,17.305,0.003,-0.001,-0.007,-11.185,59.517,6.113
15:47:14:091,17.332,-0.003,-0.005,-0.007,-11.201,59.566,6.203
15:47:14:118,17.360,-0.012,0.003,-0.015,-11.205,59.564,6.212
15:47:14:145,17.386,-0.013,-0.003,-0.008,-11.198,59.569,6.220
15:47:14:172,17.414,-0.013,-0.003,-0.008,-11.198,59.569,6.220
15:47:14:199,17.440,0.004,-0.009,-0.010,-11.201,59.525,6.256
15:47:14:227,17.468,-0.009,-0.004,-0.020,-11.238,59.484,6.307
15:47:14:253,17.495,-0.008,0.001,-0.004,-11.266,59.456,6.347
15:47:14:281,17.522,-0.016,-0.005,-0.015,-11.318,59.448,6.423
15:47:14:307,17.549,-0.009,-0.003,0.001,-11.367,59.444,6.479
15:47:14:335,17.576,-0.011,0.003,-0.001,-11.417,59.442,6.561
15:47:14:362,17.603,-0.013,0.003,-0.010,-11.453,59.438,6.601
15:47:14:389,17.630,-0.008,-0.001,-0.011,-11.471,59.436,6.626
15:47:14:416,17.657,-0.006,-0.004,-0.005,-11.475,59.436,6.647
15:47:14:443,17.684,-0.005,0.002,-0.010,-11.482,59.442,6.649
15:47:14:47,17.711,0.002,-0.008,-0.010,-11.479,59.425,6.646
15:47:14:497,17.738,-0.012,0.000,-0.008,-11.485,59.418,6.649
15:47:14:524,17.765,-0.002,-0.004,-0.009,-11.494,59.408,6.646
15:47:14:551,17.792,-0.002,-0.004,-0.009,-11.494,59.408,6.646
15:47:14:578,17.819,-0.001,-0.002,0.002,-11.498,59.407,6.655
15:47:14:605,17.846,-0.007,-0.002,-0.008,-11.509,59.402,6.656
15:47:14:632,17.874,-0.007,-0.002,-0.008,-11.509,59.402,6.656
15:47:14:659,17.900,-0.014,0.003,-0.008,-11.527,59.400,6.670
15:47:14:686,17.928,-0.001,-0.002,-0.005,-11.532,59.402,6.668
15:47:14:714,17.955,-0.005,-0.002,-0.007,-11.532,59.402,6.668
15:47:14:741,17.982,-0.007,0.002,-0.006,-11.535,59.390,6.667
15:47:14:768,18.010,-0.006,-0.001,0.002,-11.544,59.390,6.663
15:47:14:795,18.036,-0.006,-0.001,0.002,-11.544,59.390,6.663
15:47:14:822,18.064,-0.004,-0.006,-0.011,-11.550,59.356,6.625
15:47:14:849,18.090,-0.004,-0.006,-0.011,-11.550,59.356,6.625
15:47:14:877,18.118,-0.003,-0.003,-0.013,-11.551,59.350,6.618
15:47:14:904,18.145,-0.008,-0.003,-0.008,-11.560,59.350,6.614
15:47:14:931,18.172,-0.008,0.001,-0.008,-11.566,59.333,6.619
15:47:14:958,18.200,0.003,0.001,-0.002,-11.591,59.339,6.612
15:47:14:985,18.226,-0.007,-0.004,-0.020,-11.605,59.338,6.617
15:47:15:013,18.254,-0.007,-0.002,-0.012,-11.600,59.337,6.631
15:47:15:04,18.282,-0.010,0.003,0.002,-11.611,59.331,6.632
15:47:15:067,18.309,-0.010,0.003,0.002,-11.611,59.331,6.632
15:47:15:095,18.336,0.001,0.000,-0.002,-11.612,59.313,6.638
15:47:15:122,18.364,0.001,0.000,-0.002,-11.612,59.313,6.638
15:47:15:149,18.390,0.001,0.000,-0.002,-11.612,59.313,6.638
15:47:15:176,18.418,0.000,-0.004,-0.009,-11.612,59.313,6.638
15:47:15:203,18.444,0.000,-0.004,-0.009,-11.612,59.313,6.638
15:47:15:231,18.472,-0.006,-0.001,-0.007,-11.611,59.331,6.632
15:47:15:258,18.499,-0.006,-0.001,-0.007,-11.611,59.331,6.632
15:47:15:285,18.526,-0.006,-0.002,-0.015,-11.616,59.312,6.647
15:47:15:312,18.554,-0.006,-0.002,-0.015,-11.616,59.312,6.647
15:47:15:34,18.581,-0.011,0.001,-0.007,-11.618,59.336,6.667
15:47:15:367,18.608,0.001,-0.004,-0.011,-11.618,59.336,6.667
15:47:15:394,18.635,-0.004,-0.002,-0.011,-11.618,59.336,6.667
15:47:15:421,18.662,-0.007,0.002,-0.004,-11.618,59.336,6.667
15:47:15:448,18.690,-0.010,0.002,-0.006,-11.618,59.336,6.667
15:47:15:475,18.716,0.005,0.002,-0.009,-11.616,59.340,6.651
15:47:15:502,18.744,0.000,-0.005,-0.010,-11.615,59.320,6.631
15:47:15:529,18.771,0.000,-0.007,-0.013,-11.628,59.319,6.636
15:47:15:557,18.798,-0.005,-0.003,-0.005,-11.641,59.319,6.652
15:47:15:584,18.825,-0.006,0.001,-0.010,-11.639,59.322,6.669
15:47:15:611,18.852,-0.006,0.001,-0.010,-11.639,59.322,6.669
15:47:15:638,18.879,-0.004,-0.005,-0.012,-11.639,59.322,6.669
15:47:15:666,18.907,-0.014,0.000,-0.007,-11.639,59.322,6.681
15:47:15:693,18.934,-0.001,-0.001,-0.006,-11.639,59.322,6.681
15:47:15:72,18.961,-0.013,-0.002,-0.011,-11.639,59.322,6.681
15:47:15:748,18.989,-0.003,-0.002,-0.008,-11.639,59.322,6.681
15:47:15:775,19.016,-0.009,-0.001,-0.009,-11.639,59.322,6.681
15:47:15:802,19.043,0.006,-0.010,-0.021,-11.637,59.328,6.675
15:47:15:829,19.070,-0.007,0.000,-0.010,-11.636,59.305,6.678
15:47:15:856,19.098,-0.007,0.000,-0.010,-11.636,59.305,6.678
15:47:15:883,19.124,-0.007,0.000,-0.010,-11.636,59.305,6.678
15:47:15:91,19.151,-0.003,-0.002,-0.010,-11.638,59.310,6.693
15:47:15:937,19.179,-0.014,0.000,-0.010,-11.638,59.310,6.693
15:47:15:964,19.205,-0.006,-0.001,-0.007,-11.638,59.310,6.693
15:47:15:992,19.233,-0.005,-0.002,-0.009,-11.620,59.309,6.690
15:47:16:019,19.260,0.001,-0.002,-0.014,-11.614,59.307,6.677
15:47:16:046,19.287,-0.006,-0.001,-0.014,-11.613,59.303,6.688
15:47:16:073,19.314,-0.004,-0.009,-0.009,-11.616,59.308,6.703
15:47:16:101,19.342,-0.010,0.002,-0.004,-11.614,59.305,6.710
15:47:16:128,19.369,-0.010,0.002,-0.004,-11.614,59.305,6.710
15:47:16:155,19.397,-0.010,0.002,-0.004,-11.614,59.305,6.710
15:47:16:183,19.424,-0.004,-0.003,-0.006,-11.609,59.303,6.712
15:47:16:21,19.451,-0.006,-0.001,-0.006,-11.588,59.308,6.704
15:47:16:237,19.478,0.002,0.000,-0.014,-11.567,59.312,6.692
15:47:16:264,19.505,-0.005,-0.005,-0.013,-11.567,59.312,6.692
15:47:16:292,19.533,-0.005,-0.005,-0.013,-11.567,59.312,6.692
15:47:16:319,19.560,-0.002,0.004,-0.003,-11.567,59.312,6.692
15:47:16:346,19.587,-0.002,0.004,-0.003,-11.567,59.312,6.692
15:47:16:374,19.615,0.000,-0.007,-0.015,-11.567,59.312,6.692
15:47:16:4,19.642,-0.005,-0.003,-0.006,-11.567,59.312,6.692
15:47:16:428,19.669,-0.011,0.004,-0.009,-11.567,59.312,6.692
15:47:16:455,19.696,0.003,-0.007,-0.011,-11.567,59.312,6.692
15:47:16:482,19.723,-0.011,0.000,-0.015,-11.566,59.309,6.703
15:47:16:51,19.751,-0.004,-0.004,-0.009,-11.567,59.310,6.714
15:47:16:537,19.778,-0.007,-0.003,-0.008,-11.569,59.314,6.718
15:47:16:564,19.805,-0.007,-0.003,-0.008,-11.569,59.314,6.718
15:47:16:591,19.832,-0.001,-0.006,-0.016,-11.569,59.314,6.718
15:47:16:619,19.860,-0.005,0.002,-0.003,-11.569,59.314,6.718
15:47:16:646,19.887,-0.007,-0.008,-0.015,-11.567,59.310,6.714
15:47:16:673,19.914,0.001,-0.007,-0.012,-11.567,59.310,6.714
15:47:16:7,19.941,-0.009,0.001,-0.014,-11.567,59.310,6.714
15:47:16:728,19.969,-0.009,0.001,-0.014,-11.567,59.310,6.714
15:47:16:755,19.996,-0.002,-0.003,-0.015,-11.567,59.310,6.714
15:47:16:783,20.024,-0.002,-0.004,-0.009,-11.567,59.310,6.714
15:47:16:81,20.051,-0.007,-0.002,-0.011,-11.567,59.310,6.714
15:47:16:837,20.078,-0.007,-0.002,-0.011,-11.567,59.310,6.714
15:47:16:865,20.106,-0.007,0.005,-0.002,-11.567,59.310,6.714
15:47:16:892,20.133,0.004,-0.007,-0.010,-11.557,59.309,6.707
15:47:16:919,20.161,-0.009,-0.004,-0.021,-11.557,59.309,6.707
15:47:16:946,20.188,-0.005,-0.001,-0.007,-11.557,59.309,6.707
15:47:16:974,20.215,-0.011,0.002,-0.011,-11.557,59.309,6.707
15:47:17:001,20.242,0.000,-0.003,-0.015,-11.557,59.309,6.707
15:47:17:028,20.269,-0.003,-0.005,-0.011,-11.557,59.309,6.707
15:47:17:056,20.297,-0.003,-0.005,-0.011,-11.557,59.309,6.707
15:47:17:083,20.325,-0.005,-0.002,-0.007,-11.557,59.309,6.707
15:47:17:11,20.351,-0.005,-0.002,-0.007,-11.557,59.309,6.707
15:47:17:137,20.379,-0.005,-0.002,-0.007,-11.557,59.309,6.707
15:47:17:165,20.406,-0.005,-0.002,-0.007,-11.557,59.309,6.707
15:47:17:192,20.433,-0.010,-0.002,-0.011,-11.557,59.297,6.720
15:47:17:219,20.460,-0.001,-0.003,-0.012,-11.557,59.297,6.720
15:47:17:246,20.487,-0.001,-0.003,-0.012,-11.557,59.297,6.720
15:47:17:273,20.514,-0.005,-0.004,-0.009,-11.557,59.297,6.720
15:47:17:3,20.541,-0.009,0.000,-0.012,-11.557,59.297,6.720
15:47:17:327,20.569,0.001,-0.005,-0.008,-11.557,59.297,6.720
15:47:17:354,20.595,-0.009,-0.002,-0.013,-11.557,59.297,6.720
15:47:17:381,20.622,-0.008,0.002,-0.008,-11.557,59.297,6.720
15:47:17:408,20.649,-0.001,-0.004,-0.007,-11.557,59.297,6.720
15:47:17:436,20.677,-0.001,-0.004,-0.007,-11.557,59.297,6.720
15:47:17:463,20.705,-0.001,-0.005,-0.009,-11.557,59.297,6.720
15:47:17:49,20.731,-0.002,0.001,-0.010,-11.560,59.304,6.712
15:47:17:517,20.759,-0.002,0.001,-0.010,-11.560,59.304,6.712
15:47:17:544,20.785,-0.002,0.001,-0.010,-11.560,59.304,6.712
15:47:17:571,20.813,-0.004,-0.002,-0.008,-11.560,59.304,6.712
15:47:17:599,20.840,-0.006,0.001,-0.008,-11.560,59.304,6.712
15:47:17:626,20.867,-0.001,-0.009,-0.011,-11.560,59.304,6.712
15:47:17:653,20.894,-0.002,-0.003,-0.009,-11.560,59.313,6.711
15:47:17:68,20.921,-0.001,-0.001,-0.006,-11.558,59.319,6.717
15:47:17:707,20.948,-0.001,-0.004,-0.008,-11.558,59.319,6.717
15:47:17:735,20.976,-0.001,-0.004,-0.008,-11.558,59.319,6.717
15:47:17:762,21.004,-0.008,-0.001,-0.010,-11.574,59.314,6.739
15:47:17:789,21.031,-0.001,-0.004,-0.004,-11.585,59.317,6.772
15:47:17:816,21.058,-0.001,-0.004,-0.004,-11.585,59.317,6.772
15:47:17:844,21.085,-0.001,-0.004,-0.004,-11.585,59.317,6.772
15:47:17:87,21.112,-0.011,-0.002,-0.010,-11.638,59.311,6.837
15:47:17:898,21.139,-0.008,0.004,-0.004,-11.637,59.309,6.860
15:47:17:925,21.166,-0.008,0.004,-0.004,-11.637,59.309,6.860
15:47:17:952,21.193,-0.004,-0.004,-0.010,-11.637,59.309,6.860
15:47:17:979,21.220,-0.004,-0.004,-0.010,-11.637,59.309,6.860
15:47:18:006,21.247,-0.007,-0.001,-0.006,-11.632,59.325,6.856
15:47:18:033,21.274,-0.010,-0.002,-0.016,-11.621,59.331,6.855
15:47:18:06,21.302,-0.010,-0.002,-0.016,-11.621,59.331,6.855
15:47:18:087,21.328,-0.010,-0.002,-0.016,-11.621,59.331,6.855
15:47:18:114,21.355,-0.002,-0.009,-0.006,-11.621,59.331,6.855
15:47:18:141,21.383,-0.009,0.002,-0.008,-11.622,59.344,6.854
15:47:18:169,21.410,-0.001,-0.003,-0.012,-11.622,59.344,6.854
15:47:18:196,21.437,-0.013,0.002,-0.010,-11.622,59.344,6.854
15:47:18:223,21.464,-0.013,0.002,-0.010,-11.622,59.344,6.854
15:47:18:25,21.491,-0.005,-0.006,-0.017,-11.622,59.344,6.854
15:47:18:277,21.519,-0.010,-0.001,-0.009,-11.627,59.364,6.849
15:47:18:304,21.545,-0.010,-0.002,-0.005,-11.627,59.373,6.848
15:47:18:331,21.573,-0.010,-0.002,-0.005,-11.627,59.373,6.848
15:47:18:358,21.599,-0.008,-0.004,-0.010,-11.627,59.373,6.848
15:47:18:385,21.626,-0.002,-0.004,-0.011,-11.627,59.373,6.848
15:47:18:412,21.654,-0.008,0.000,-0.005,-11.621,59.371,6.846
15:47:18:44,21.681,-0.003,0.001,-0.009,-11.621,59.370,6.835
15:47:18:467,21.708,0.000,-0.006,-0.014,-11.610,59.378,6.811
15:47:18:495,21.736,0.004,-0.005,-0.012,-11.610,59.378,6.811
15:47:18:521,21.763,0.004,-0.005,-0.012,-11.610,59.378,6.811
15:47:18:549,21.790,0.001,-0.002,-0.007,-11.610,59.378,6.811
15:47:18:576,21.817,0.001,-0.002,-0.007,-11.610,59.378,6.811
15:47:18:602,21.844,0.000,-0.002,-0.008,-11.610,59.378,6.811
15:47:18:63,21.871,-0.005,-0.002,-0.011,-11.610,59.378,6.811
15:47:18:658,21.899,-0.005,-0.002,-0.011,-11.610,59.378,6.811
15:47:18:686,21.927,-0.008,-0.001,-0.013,-11.610,59.378,6.811
15:47:18:713,21.954,-0.008,-0.001,-0.013,-11.610,59.378,6.811
15:47:18:74,21.981,-0.007,-0.002,-0.011,-11.610,59.378,6.811
15:47:18:767,22.008,-0.001,-0.007,-0.013,-11.610,59.378,6.811
15:47:18:794,22.035,-0.010,-0.002,-0.011,-11.610,59.378,6.811
15:47:18:821,22.062,0.001,0.000,-0.006,-11.610,59.378,6.811
15:47:18:848,22.089,0.001,0.000,-0.006,-11.610,59.378,6.811
15:47:18:875,22.116,0.002,-0.007,-0.007,-11.610,59.378,6.811
15:47:18:902,22.143,-0.009,-0.001,-0.015,-11.610,59.378,6.811
15:47:18:929,22.170,0.001,-0.001,-0.008,-11.610,59.378,6.811
15:47:18:956,22.197,-0.003,-0.003,-0.014,-11.610,59.378,6.811
15:47:18:983,22.224,0.000,-0.002,-0.009,-11.613,59.393,6.837
15:47:19:01,22.251,-0.006,-0.001,-0.006,-11.611,59.396,6.854
15:47:19:037,22.279,-0.003,-0.002,-0.010,-11.606,59.396,6.879
15:47:19:065,22.306,-0.003,-0.003,-0.010,-11.614,59.412,6.891
15:47:19:092,22.333,-0.003,-0.003,-0.010,-11.614,59.412,6.891
15:47:19:119,22.360,-0.005,-0.002,-0.008,-11.614,59.412,6.891
15:47:19:147,22.388,-0.001,-0.005,-0.007,-11.614,59.412,6.891
15:47:19:173,22.415,-0.003,-0.002,-0.006,-11.614,59.412,6.891
15:47:19:201,22.442,-0.003,-0.002,-0.006,-11.614,59.412,6.891
15:47:19:228,22.469,-0.006,0.002,-0.008,-11.614,59.412,6.891
15:47:19:255,22.496,-0.008,-0.001,-0.011,-11.614,59.412,6.891
15:47:19:282,22.523,-0.001,-0.004,-0.004,-11.614,59.412,6.891
15:47:19:309,22.551,-0.003,-0.003,-0.007,-11.614,59.412,6.891
15:47:19:337,22.578,-0.005,-0.005,-0.011,-11.614,59.412,6.891
15:47:19:363,22.605,-0.003,-0.006,-0.008,-11.608,59.378,6.896
15:47:19:39,22.632,-0.003,-0.002,-0.008,-11.608,59.360,6.902
15:47:19:418,22.659,-0.003,-0.002,-0.008,-11.608,59.360,6.902
15:47:19:444,22.686,-0.005,-0.001,-0.006,-11.607,59.337,6.904
15:47:19:472,22.714,-0.011,-0.004,-0.009,-11.602,59.317,6.909
15:47:19:5,22.741,-0.009,-0.003,-0.007,-11.571,59.299,6.907
15:47:19:526,22.768,-0.009,-0.003,-0.007,-11.571,59.299,6.907
15:47:19:554,22.795,-0.005,-0.002,-0.016,-11.526,59.281,6.874
15:47:19:581,22.823,0.000,-0.004,-0.006,-11.509,59.265,6.866
15:47:19:609,22.850,-0.004,-0.006,-0.010,-11.504,59.245,6.870
15:47:19:638,22.879,-0.005,-0.001,-0.010,-11.508,59.243,6.868
15:47:19:665,22.907,-0.005,-0.002,-0.007,-11.508,59.243,6.868
15:47:19:693,22.934,-0.005,-0.002,-0.007,-11.508,59.243,6.868
15:47:19:72,22.962,-0.003,-0.004,-0.006,-11.505,59.226,6.876
15:47:19:748,22.989,-0.001,-0.004,-0.008,-11.505,59.226,6.876
15:47:19:775,23.016,-0.001,-0.004,-0.008,-11.505,59.226,6.876
15:47:19:802,23.043,-0.007,-0.004,-0.012,-11.505,59.226,6.876
15:47:19:829,23.070,-0.007,-0.004,-0.012,-11.505,59.226,6.876
15:47:19:856,23.097,-0.007,-0.001,-0.005,-11.505,59.226,6.876
15:47:19:883,23.124,-0.003,-0.001,-0.007,-11.505,59.226,6.876
15:47:19:911,23.152,-0.003,-0.001,-0.007,-11.505,59.226,6.876
15:47:19:938,23.179,-0.006,0.001,-0.008,-11.508,59.243,6.868
15:47:19:966,23.207,-0.008,-0.003,-0.004,-11.508,59.243,6.868
15:47:19:993,23.234,-0.002,-0.005,-0.011,-11.508,59.243,6.868
15:47:20:02,23.261,-0.007,-0.004,-0.004,-11.508,59.243,6.868
15:47:20:047,23.289,-0.005,-0.002,-0.010,-11.508,59.243,6.868
15:47:20:075,23.316,-0.005,-0.002,-0.010,-11.508,59.243,6.868
15:47:20:102,23.343,-0.006,-0.004,-0.007,-11.505,59.238,6.853
15:47:20:129,23.370,-0.005,-0.004,-0.005,-11.505,59.238,6.853
15:47:20:156,23.397,-0.005,-0.004,-0.005,-11.505,59.238,6.853
15:47:20:183,23.425,-0.005,-0.004,-0.005,-11.505,59.238,6.853
15:47:20:21,23.452,-0.003,0.001,-0.006,-11.505,59.221,6.821
15:47:20:237,23.478,-0.009,0.001,-0.014,-11.498,59.215,6.819
15:47:20:264,23.506,-0.007,-0.001,-0.008,-11.499,59.200,6.814
15:47:20:291,23.532,-0.012,0.001,-0.010,-11.501,59.193,6.808
15:47:20:319,23.560,-0.004,-0.001,-0.006,-11.501,59.183,6.798
15:47:20:346,23.587,-0.010,-0.003,-0.010,-11.494,59.170,6.775
15:47:20:374,23.615,-0.002,-0.002,-0.010,-11.495,59.154,6.759
15:47:20:401,23.642,-0.013,-0.005,-0.015,-11.490,59.154,6.738
15:47:20:428,23.669,-0.002,-0.004,-0.008,-11.490,59.154,6.738
15:47:20:456,23.697,-0.002,-0.004,-0.008,-11.490,59.154,6.738
15:47:20:482,23.724,-0.005,-0.003,-0.009,-11.492,59.149,6.743
15:47:20:51,23.751,-0.006,-0.005,-0.012,-11.492,59.148,6.732
15:47:20:537,23.778,-0.008,-0.001,-0.013,-11.492,59.148,6.732
15:47:20:564,23.805,-0.010,-0.003,-0.011,-11.492,59.148,6.732
15:47:20:591,23.833,-0.005,-0.004,0.000,-11.492,59.148,6.732
15:47:20:618,23.860,-0.005,-0.004,0.000,-11.492,59.148,6.732
15:47:20:646,23.887,-0.009,0.000,-0.009,-11.494,59.143,6.737
15:47:20:673,23.914,-0.007,-0.001,-0.011,-11.494,59.143,6.737
15:47:20:7,23.941,-0.004,0.001,-0.012,-11.494,59.143,6.737
15:47:20:727,23.969,-0.011,0.000,-0.003,-11.494,59.143,6.737
15:47:20:754,23.996,0.001,-0.002,-0.009,-11.494,59.143,6.737
15:47:20:782,24.023,-0.008,0.001,-0.009,-11.494,59.143,6.737
15:47:20:809,24.050,-0.011,-0.002,-0.007,-11.494,59.143,6.737
15:47:20:836,24.078,-0.011,-0.002,-0.007,-11.494,59.143,6.737
15:47:20:863,24.104,-0.002,-0.001,-0.010,-11.483,59.139,6.737
15:47:20:891,24.132,-0.008,-0.003,-0.010,-11.483,59.139,6.737
15:47:20:918,24.159,-0.008,-0.003,-0.010,-11.483,59.139,6.737
15:47:20:945,24.186,-0.006,-0.002,-0.009,-11.461,59.150,6.735
15:47:20:972,24.213,0.000,-0.002,-0.007,-11.432,59.157,6.709
15:47:21:,24.241,-0.010,0.000,-0.009,-11.405,59.148,6.677
15:47:21:028,24.269,-0.007,-0.004,-0.010,-11.399,59.145,6.664
15:47:21:055,24.296,-0.010,0.000,-0.007,-11.372,59.146,6.632
15:47:21:082,24.323,0.001,0.000,-0.004,-11.350,59.149,6.608
15:47:21:109,24.350,-0.008,-0.004,-0.011,-11.323,59.141,6.577
15:47:21:136,24.377,-0.008,-0.004,-0.011,-11.323,59.141,6.577
15:47:21:163,24.404,-0.014,0.003,-0.009,-11.282,59.122,6.519
15:47:21:19,24.432,-0.014,0.003,-0.009,-11.282,59.122,6.519
15:47:21:218,24.459,0.000,0.000,0.000,-11.238,59.118,6.451
15:47:21:244,24.486,-0.002,-0.003,-0.001,-11.209,59.068,6.413
15:47:21:272,24.513,-0.017,0.000,-0.008,-11.189,59.037,6.379
15:47:21:298,24.540,0.008,-0.010,-0.005,-11.149,58.971,6.319
15:47:21:326,24.567,-0.012,-0.008,-0.017,-11.135,58.923,6.279
15:47:21:353,24.595,-0.002,-0.007,-0.006,-11.132,58.899,6.255
15:47:21:381,24.622,-0.010,0.002,-0.014,-11.124,58.872,6.232
15:47:21:409,24.650,0.003,-0.001,-0.012,-11.124,58.852,6.212
15:47:21:436,24.677,0.003,-0.001,-0.012,-11.124,58.852,6.212
15:47:21:463,24.704,-0.006,-0.005,-0.018,-11.154,58.775,6.143
15:47:21:49,24.731,-0.007,-0.002,-0.005,-11.192,58.713,6.075
15:47:21:517,24.759,-0.006,-0.008,-0.003,-11.211,58.668,6.043
15:47:21:544,24.785,-0.006,-0.008,-0.003,-11.211,58.668,6.043
15:47:21:573,24.814,0.007,0.002,-0.005,-11.263,58.518,5.953
15:47:21:599,24.841,0.001,-0.004,-0.003,-11.273,58.425,5.901
15:47:21:627,24.868,0.001,-0.004,-0.003,-11.273,58.425,5.901
15:47:21:653,24.895,-0.002,-0.006,-0.011,-11.281,58.316,5.823
15:47:21:682,24.923,0.000,-0.001,-0.015,-11.276,58.287,5.784
15:47:21:709,24.950,0.000,-0.001,-0.015,-11.276,58.287,5.784
15:47:21:736,24.977,-0.003,-0.002,-0.015,-11.277,58.291,5.739
15:47:21:763,25.004,-0.009,-0.003,-0.016,-11.277,58.291,5.739
15:47:21:79,25.031,-0.003,-0.002,-0.011,-11.277,58.291,5.739
15:47:21:817,25.058,-0.006,-0.001,-0.006,-11.283,58.325,5.734
15:47:21:844,25.085,0.003,-0.004,-0.005,-11.283,58.325,5.734
15:47:21:871,25.112,-0.008,-0.003,-0.016,-11.283,58.325,5.734
15:47:21:898,25.140,-0.001,-0.001,-0.016,-11.283,58.325,5.734
15:47:21:925,25.167,-0.004,-0.006,-0.003,-11.290,58.398,5.758
15:47:21:953,25.194,-0.004,-0.006,-0.003,-11.290,58.398,5.758
15:47:21:98,25.221,-0.007,0.002,-0.007,-11.299,58.438,5.745
15:47:22:007,25.248,-0.003,-0.004,-0.010,-11.300,58.457,5.743
15:47:22:034,25.275,-0.003,-0.004,-0.010,-11.300,58.457,5.743
15:47:22:061,25.303,-0.009,-0.003,-0.011,-11.307,58.504,5.737
15:47:22:088,25.329,-0.009,-0.003,-0.011,-11.307,58.504,5.737
15:47:22:115,25.356,-0.009,-0.003,-0.011,-11.307,58.504,5.737
15:47:22:142,25.384,0.000,-0.003,-0.008,-11.312,58.574,5.723
15:47:22:17,25.411,0.000,-0.003,-0.008,-11.312,58.574,5.723
15:47:22:197,25.438,-0.010,-0.003,-0.003,-11.375,58.681,5.753
15:47:22:224,25.465,-0.010,-0.003,-0.003,-11.375,58.681,5.753
15:47:22:251,25.492,-0.004,-0.005,-0.005,-11.409,58.707,5.763
15:47:22:278,25.520,-0.007,-0.001,-0.013,-11.454,58.736,5.758
15:47:22:306,25.547,-0.007,-0.003,-0.008,-11.464,58.759,5.752
15:47:22:334,25.575,-0.003,-0.001,-0.007,-11.465,58.790,5.748
15:47:22:361,25.602,-0.004,-0.006,-0.010,-11.468,58.797,5.741
15:47:22:388,25.629,-0.008,-0.002,-0.010,-11.471,58.815,5.744
15:47:22:415,25.656,-0.001,-0.002,-0.006,-11.471,58.815,5.744
15:47:22:442,25.683,-0.010,-0.001,-0.010,-11.471,58.815,5.744
15:47:22:469,25.710,-0.003,-0.005,-0.009,-11.471,58.815,5.744
15:47:22:498,25.739,-0.005,-0.001,-0.016,-11.471,58.815,5.744
15:47:22:525,25.766,-0.007,-0.005,-0.005,-11.471,58.815,5.744
15:47:22:552,25.793,-0.005,-0.004,-0.014,-11.471,58.814,5.733
15:47:22:579,25.821,-0.004,0.001,-0.003,-11.471,58.814,5.733
15:47:22:607,25.848,-0.006,-0.001,-0.016,-11.471,58.814,5.733
15:47:22:634,25.875,-0.006,-0.001,-0.016,-11.471,58.814,5.733
15:47:22:661,25.902,-0.005,-0.005,-0.014,-11.467,58.815,5.724
15:47:22:688,25.930,-0.001,-0.006,-0.012,-11.487,58.809,5.721
15:47:22:716,25.957,-0.008,-0.003,-0.014,-11.503,58.815,5.719
15:47:22:743,25.984,-0.008,-0.003,-0.014,-11.503,58.815,5.719
15:47:22:769,26.011,0.002,-0.005,-0.012,-11.533,58.843,5.719
15:47:22:797,26.038,0.002,-0.005,-0.012,-11.533,58.843,5.719
15:47:22:825,26.066,-0.008,0.000,-0.010,-11.641,58.892,5.706
15:47:22:852,26.094,-0.008,0.000,-0.010,-11.641,58.892,5.706
15:47:22:879,26.120,-0.001,-0.005,-0.010,-11.711,58.909,5.700
15:47:22:906,26.148,-0.001,-0.005,-0.010,-11.711,58.909,5.700
15:47:22:934,26.175,-0.001,-0.005,-0.010,-11.711,58.909,5.700
15:47:22:961,26.202,-0.004,0.001,-0.014,-11.913,58.909,5.698
15:47:22:988,26.230,-0.004,0.001,-0.015,-11.962,58.909,5.698
15:47:23:015,26.256,-0.004,0.001,-0.015,-11.962,58.909,5.698
15:47:23:042,26.284,-0.009,-0.007,-0.015,-12.049,58.903,5.687
15:47:23:069,26.311,-0.009,-0.007,-0.015,-12.049,58.903,5.687
15:47:23:097,26.338,-0.009,-0.007,-0.015,-12.049,58.903,5.687
15:47:23:123,26.365,-0.002,-0.007,-0.014,-12.197,58.864,5.684
15:47:23:15,26.391,-0.008,-0.005,-0.012,-12.244,58.860,5.680
15:47:23:178,26.419,-0.008,-0.005,-0.012,-12.244,58.860,5.680
15:47:23:205,26.446,-0.009,-0.001,-0.006,-12.357,58.834,5.681
15:47:23:232,26.474,-0.002,-0.007,-0.011,-12.434,58.796,5.667
15:47:23:259,26.501,-0.013,-0.002,-0.015,-12.493,58.767,5.659
15:47:23:287,26.528,-0.013,-0.002,-0.015,-12.493,58.767,5.659
15:47:23:314,26.555,-0.004,0.000,-0.011,-12.655,58.693,5.599
15:47:23:341,26.582,0.000,-0.008,-0.013,-12.713,58.654,5.581
15:47:23:368,26.610,0.000,-0.008,-0.013,-12.713,58.654,5.581
15:47:23:396,26.637,-0.008,-0.001,-0.002,-12.872,58.573,5.518
15:47:23:423,26.664,-0.004,0.003,-0.009,-12.966,58.496,5.466
15:47:23:45,26.691,0.002,-0.002,-0.014,-13.055,58.430,5.416
15:47:23:477,26.718,-0.013,-0.004,-0.007,-13.116,58.407,5.375
15:47:23:504,26.745,-0.001,0.001,0.000,-13.198,58.375,5.302
15:47:23:531,26.772,-0.005,-0.007,-0.011,-13.242,58.326,5.243
15:47:23:558,26.799,-0.001,-0.003,0.000,-13.320,58.266,5.132
15:47:23:585,26.826,-0.007,-0.001,-0.002,-13.396,58.142,5.005
15:47:23:613,26.854,0.015,-0.011,-0.019,-13.455,58.037,4.918
15:47:23:64,26.881,0.000,-0.004,-0.014,-13.595,57.894,4.827
15:47:23:667,26.908,0.000,-0.004,-0.014,-13.595,57.894,4.827
15:47:23:694,26.935,-0.001,-0.007,-0.013,-13.875,57.707,4.717
15:47:23:721,26.962,-0.003,0.002,-0.011,-14.062,57.628,4.666
15:47:23:749,26.990,-0.009,-0.005,-0.018,-14.196,57.590,4.622
15:47:23:775,27.017,-0.009,-0.005,-0.018,-14.196,57.590,4.622
15:47:23:803,27.044,0.007,-0.008,-0.007,-14.526,57.555,4.493
15:47:23:83,27.071,0.007,-0.008,-0.007,-14.526,57.555,4.493
15:47:23:858,27.099,-0.014,0.009,-0.009,-15.151,57.467,4.307
15:47:23:884,27.126,-0.002,-0.005,0.000,-15.361,57.415,4.172
15:47:23:912,27.153,0.012,0.004,-0.014,-15.505,57.384,4.075
15:47:23:939,27.180,0.002,-0.004,-0.017,-15.722,57.327,3.955
15:47:23:966,27.207,0.002,-0.004,-0.017,-15.722,57.327,3.955
15:47:23:993,27.234,-0.002,0.000,-0.021,-16.125,57.363,3.803
15:47:24:02,27.262,-0.006,0.002,-0.021,-16.374,57.359,3.743
15:47:24:048,27.289,-0.006,0.002,-0.021,-16.374,57.359,3.743
15:47:24:075,27.316,-0.024,0.008,-0.012,-16.736,57.442,3.658
15:47:24:102,27.343,-0.012,0.004,-0.012,-16.859,57.453,3.614
15:47:24:129,27.370,0.000,-0.004,-0.020,-16.999,57.486,3.520
15:47:24:156,27.397,-0.003,-0.001,-0.012,-17.086,57.508,3.457
15:47:24:183,27.424,-0.017,0.013,-0.007,-17.182,57.540,3.372
15:47:24:21,27.452,-0.001,-0.006,-0.002,-17.235,57.558,3.270
15:47:24:237,27.478,0.002,-0.003,-0.011,-17.262,57.496,3.079
15:47:24:264,27.506,0.002,-0.003,-0.011,-17.262,57.496,3.079
15:47:24:292,27.533,-0.003,0.005,-0.016,-17.295,57.461,2.910
15:47:24:319,27.560,-0.012,0.009,-0.014,-17.323,57.478,2.835
15:47:24:346,27.587,0.000,-0.008,-0.009,-17.325,57.485,2.789
15:47:24:373,27.614,-0.004,0.008,-0.026,-17.323,57.507,2.721
15:47:24:4,27.641,-0.003,0.003,-0.017,-17.308,57.558,2.665
15:47:24:428,27.669,-0.004,-0.007,-0.007,-17.256,57.681,2.587
15:47:24:454,27.696,-0.004,-0.007,-0.007,-17.256,57.681,2.587
15:47:24:482,27.723,0.001,0.006,-0.006,-17.214,57.750,2.541
15:47:24:509,27.750,-0.011,0.004,0.007,-17.044,57.850,2.387
15:47:24:536,27.777,0.005,0.000,-0.024,-16.842,57.796,2.231
15:47:24:563,27.804,0.005,0.000,-0.024,-16.842,57.796,2.231
15:47:24:59,27.831,0.000,-0.001,-0.001,-16.643,57.791,2.071
15:47:24:617,27.858,0.000,-0.001,-0.001,-16.643,57.791,2.071
15:47:24:644,27.886,-0.006,0.004,-0.024,-16.408,57.793,1.900
15:47:24:672,27.913,-0.004,-0.013,-0.013,-16.255,57.801,1.791
15:47:24:698,27.940,0.007,-0.003,0.005,-16.137,57.805,1.733
15:47:24:725,27.966,0.007,-0.003,0.005,-16.137,57.805,1.733
15:47:24:752,27.994,0.007,-0.003,0.005,-16.137,57.805,1.733
15:47:24:78,28.021,0.007,-0.003,0.005,-16.137,57.805,1.733
15:47:24:807,28.048,0.004,-0.008,-0.011,-15.425,57.890,1.350
15:47:24:834,28.075,0.003,-0.003,-0.010,-15.281,57.895,1.282
15:47:24:861,28.102,0.003,-0.002,-0.012,-15.079,57.873,1.188
15:47:24:888,28.129,0.003,0.004,-0.022,-14.958,57.869,1.138
15:47:24:915,28.156,-0.004,-0.009,0.001,-14.750,57.888,1.085
15:47:24:943,28.184,-0.001,-0.004,-0.015,-14.543,57.884,1.036
15:47:24:97,28.211,-0.016,0.007,-0.020,-14.402,57.873,0.979
15:47:24:997,28.238,-0.016,0.007,0.016,-14.122,57.951,0.853
15:47:25:024,28.265,-0.022,0.022,0.039,-13.863,58.030,0.690
15:47:25:051,28.292,0.000,0.007,-0.001,-13.411,57.995,0.328
15:47:25:078,28.320,0.000,0.007,-0.001,-13.411,57.995,0.328
15:47:25:105,28.346,-0.024,0.008,0.031,-12.524,57.937,-0.416
15:47:25:132,28.374,0.011,0.012,-0.005,-11.925,57.836,-0.977
15:47:25:16,28.401,0.040,-0.005,0.022,-11.515,57.768,-1.401
15:47:25:186,28.428,-0.005,-0.009,-0.003,-10.979,57.812,-2.025
15:47:25:214,28.455,-0.025,0.027,-0.016,-10.642,57.881,-2.430
15:47:25:24,28.482,0.015,0.022,0.016,-10.042,58.012,-3.091
15:47:25:268,28.509,0.029,-0.002,-0.020,-9.100,58.212,-4.200
15:47:25:295,28.536,0.029,-0.002,-0.020,-9.100,58.212,-4.200
15:47:25:322,28.563,0.003,0.027,0.028,-8.245,58.926,-5.311
15:47:25:349,28.590,0.069,-0.043,0.029,-7.578,59.152,-6.193
15:47:25:376,28.617,0.069,-0.043,0.029,-7.578,59.152,-6.193
15:47:25:403,28.645,0.077,-0.149,-0.121,-6.852,59.379,-7.286
15:47:25:43,28.671,0.077,-0.149,-0.121,-6.852,59.379,-7.286
15:47:25:457,28.699,0.077,-0.149,-0.121,-6.852,59.379,-7.286
15:47:25:485,28.726,0.012,-0.031,-0.050,-6.876,59.740,-6.808
15:47:25:513,28.754,0.001,0.003,-0.027,-6.989,59.760,-6.357
15:47:25:539,28.781,0.001,0.003,-0.027,-6.989,59.760,-6.357
15:47:25:567,28.808,0.024,-0.008,-0.009,-7.419,59.682,-4.888
15:47:25:593,28.835,0.024,-0.008,-0.009,-7.419,59.682,-4.888
15:47:25:621,28.862,-0.027,0.010,-0.040,-7.991,59.470,-3.558
15:47:25:648,28.889,-0.029,0.020,-0.036,-8.214,59.349,-3.009
15:47:25:675,28.916,0.008,0.026,0.034,-8.525,59.168,-2.191
15:47:25:703,28.944,0.004,0.020,0.015,-8.924,58.842,-1.421
15:47:25:73,28.971,0.003,0.033,0.020,-9.248,58.620,-0.951
15:47:25:757,28.998,-0.003,0.002,-0.004,-9.685,58.339,-0.221
15:47:25:784,29.025,0.000,-0.011,-0.031,-10.034,58.117,0.301
15:47:25:811,29.052,0.018,-0.011,-0.033,-10.496,57.815,1.177
15:47:25:838,29.080,0.021,-0.007,-0.024,-11.018,57.602,2.104
15:47:25:865,29.106,0.026,-0.009,0.000,-11.386,57.528,2.778
15:47:25:892,29.134,-0.033,0.030,0.031,-12.014,57.544,3.754
15:47:25:919,29.160,-0.033,0.030,0.031,-12.014,57.544,3.754
15:47:25:946,29.188,-0.089,0.045,0.038,-12.586,57.566,4.702
15:47:25:974,29.215,-0.050,0.048,0.030,-12.529,57.547,4.761
15:47:26:001,29.242,-0.050,0.048,0.030,-12.529,57.547,4.761
15:47:26:028,29.270,0.016,-0.018,-0.013,-12.108,57.446,4.597
15:47:26:056,29.297,0.025,-0.010,-0.027,-12.018,57.453,4.565
15:47:26:082,29.324,0.013,-0.015,-0.002,-11.891,57.500,4.528
15:47:26:11,29.351,0.019,-0.015,-0.014,-11.779,57.549,4.584
15:47:26:138,29.379,0.007,-0.006,-0.014,-11.799,57.573,4.705
15:47:26:164,29.406,0.007,-0.006,-0.014,-11.799,57.573,4.705
15:47:26:192,29.433,0.004,-0.008,-0.003,-11.822,57.612,4.806
15:47:26:219,29.460,-0.014,0.014,0.002,-11.848,57.657,4.983
15:47:26:246,29.487,-0.014,0.014,0.002,-11.848,57.657,4.983
15:47:26:273,29.514,0.007,-0.001,-0.017,-11.860,57.675,5.042
15:47:26:301,29.542,0.007,-0.001,-0.017,-11.860,57.675,5.042
15:47:26:328,29.569,-0.006,-0.002,0.003,-11.947,57.824,5.200
15:47:26:355,29.596,0.000,0.000,0.004,-11.971,57.848,5.237
15:47:26:383,29.624,0.010,-0.005,-0.017,-12.005,57.842,5.250
15:47:26:41,29.651,0.014,-0.003,-0.010,-12.038,57.846,5.263
15:47:26:437,29.679,0.000,-0.004,-0.010,-12.094,57.869,5.297
15:47:26:464,29.706,0.004,-0.002,0.003,-12.147,57.916,5.341
15:47:26:492,29.733,0.011,-0.003,0.007,-12.194,57.932,5.358
15:47:26:518,29.760,0.011,-0.003,0.007,-12.194,57.932,5.358
15:47:26:546,29.787,-0.001,0.000,-0.003,-12.256,57.930,5.352
15:47:26:572,29.814,-0.001,0.000,-0.003,-12.256,57.930,5.352
15:47:26:6,29.841,-0.004,-0.001,-0.004,-12.270,57.932,5.346
15:47:26:627,29.868,0.006,-0.007,-0.022,-12.330,57.916,5.337
15:47:26:654,29.895,0.004,-0.005,-0.014,-12.357,57.917,5.336
15:47:26:681,29.922,0.003,-0.007,0.010,-12.387,57.944,5.326
15:47:26:708,29.949,0.001,0.003,0.000,-12.393,57.958,5.312
15:47:26:735,29.976,0.007,-0.005,-0.009,-12.396,57.956,5.249
15:47:26:762,30.003,0.005,-0.001,0.000,-12.395,57.956,5.189
15:47:26:789,30.031,0.006,-0.009,-0.012,-12.401,57.960,5.154
15:47:26:816,30.057,-0.001,0.001,-0.005,-12.414,57.969,5.120
15:47:26:843,30.084,0.001,0.006,-0.003,-12.430,57.987,5.094
15:47:26:87,30.111,-0.004,0.003,0.017,-12.427,57.991,5.063
15:47:26:897,30.139,0.004,-0.001,-0.014,-12.458,57.971,5.006
15:47:26:925,30.166,0.007,-0.007,-0.004,-12.467,57.971,5.002
15:47:26:952,30.193,0.007,-0.007,-0.004,-12.467,57.971,5.002
15:47:26:979,30.220,0.007,-0.007,-0.004,-12.467,57.971,5.002
15:47:27:006,30.247,0.007,-0.002,-0.013,-12.429,57.929,4.951
15:47:27:033,30.274,-0.034,0.002,-0.020,-12.361,57.938,4.898
15:47:27:061,30.302,-0.016,0.023,0.026,-11.915,57.896,4.483
15:47:27:087,30.329,0.040,-0.012,-0.026,-11.703,57.844,4.235
15:47:27:115,30.356,0.019,-0.012,-0.039,-11.474,57.792,3.946
15:47:27:142,30.383,0.019,-0.012,-0.039,-11.474,57.792,3.946
15:47:27:169,30.410,0.006,-0.008,0.005,-11.293,57.866,3.740
15:47:27:196,30.437,0.039,-0.019,-0.033,-11.284,57.887,3.716
15:47:27:223,30.464,0.025,-0.019,-0.037,-11.357,57.922,3.762
15:47:27:25,30.491,0.018,-0.015,-0.015,-11.552,57.990,3.999
15:47:27:277,30.519,-0.008,-0.006,0.004,-11.730,58.045,4.244
15:47:27:305,30.546,-0.008,-0.006,0.004,-11.730,58.045,4.244
15:47:27:332,30.574,-0.030,0.020,0.016,-11.951,58.146,4.632
15:47:27:36,30.601,-0.018,0.001,0.023,-11.831,58.198,4.587
15:47:27:387,30.628,0.006,0.032,-0.020,-11.645,58.135,4.351
15:47:27:414,30.656,0.006,0.032,-0.020,-11.645,58.135,4.351
15:47:27:442,30.683,0.021,-0.014,-0.042,-11.417,58.014,4.127
15:47:27:469,30.710,0.015,-0.020,-0.003,-11.413,58.036,4.150
15:47:27:496,30.737,0.008,-0.007,-0.014,-11.433,58.029,4.218
15:47:27:524,30.765,0.011,-0.014,-0.015,-11.471,58.032,4.300
15:47:27:551,30.792,0.004,-0.007,-0.018,-11.571,58.025,4.481
15:47:27:579,30.820,-0.006,0.007,-0.010,-11.708,58.047,4.726
15:47:27:605,30.847,-0.014,0.007,0.026,-11.773,58.080,4.871
15:47:27:633,30.874,-0.030,0.009,0.043,-11.824,58.104,4.989
15:47:27:66,30.901,0.018,-0.015,-0.033,-11.829,57.945,4.994
15:47:27:687,30.928,0.007,-0.003,-0.007,-11.884,57.947,5.053
15:47:27:717,30.958,0.007,-0.011,-0.002,-11.912,57.947,5.101
15:47:27:743,30.985,0.003,-0.004,-0.001,-11.962,57.967,5.181
15:47:27:771,31.012,-0.019,-0.001,-0.011,-11.975,57.965,5.220
15:47:27:798,31.039,-0.020,0.002,-0.008,-11.943,57.963,5.234
15:47:27:825,31.067,-0.027,0.019,0.019,-11.816,58.011,5.154
15:47:27:852,31.093,-0.027,0.019,0.019,-11.816,58.011,5.154
15:47:27:879,31.121,0.037,-0.018,-0.019,-11.466,57.847,4.723
15:47:27:907,31.148,0.034,-0.020,-0.037,-11.418,57.791,4.618
15:47:27:934,31.175,0.008,-0.012,-0.043,-11.469,57.785,4.612
15:47:27:961,31.203,0.030,-0.018,-0.006,-11.541,57.834,4.664
15:47:27:989,31.230,0.004,-0.007,-0.006,-11.716,57.874,4.847
15:47:28:017,31.258,0.004,-0.008,-0.008,-11.952,57.887,5.105
15:47:28:043,31.285,-0.018,0.004,-0.010,-12.105,57.913,5.288
15:47:28:071,31.312,-0.037,0.016,0.020,-12.225,57.988,5.471
15:47:28:098,31.339,-0.005,0.006,0.011,-12.208,58.038,5.485
15:47:28:126,31.367,-0.022,0.018,0.039,-12.087,58.099,5.412
15:47:28:154,31.395,-0.044,0.017,0.052,-11.916,58.012,5.225
15:47:28:18,31.422,0.047,-0.013,-0.056,-11.783,57.870,5.049
15:47:28:208,31.449,0.033,-0.016,-0.037,-11.707,57.772,4.953
15:47:28:235,31.476,-0.003,-0.008,-0.014,-11.761,57.721,5.077
15:47:28:262,31.503,-0.003,-0.008,-0.014,-11.761,57.721,5.077
15:47:28:289,31.530,-0.010,0.008,-0.006,-11.799,57.645,5.258
15:47:28:316,31.557,-0.010,0.008,-0.006,-11.799,57.645,5.258
15:47:28:343,31.585,0.000,0.004,0.009,-11.753,57.602,5.309
15:47:28:37,31.611,0.004,-0.007,-0.010,-11.675,57.528,5.306
15:47:28:397,31.639,0.004,-0.007,-0.010,-11.675,57.528,5.306
15:47:28:424,31.665,-0.002,-0.002,-0.005,-11.616,57.555,5.291
15:47:28:452,31.693,0.006,-0.002,0.003,-11.544,57.595,5.258
15:47:28:478,31.720,0.010,-0.004,0.004,-11.486,57.615,5.222
15:47:28:506,31.747,0.011,-0.009,0.009,-11.425,57.621,5.171
15:47:28:533,31.774,0.004,0.004,0.002,-11.409,57.595,5.153
15:47:28:561,31.802,0.024,-0.010,-0.026,-11.446,57.527,5.164
15:47:28:588,31.829,0.008,-0.020,-0.013,-11.504,57.516,5.244
15:47:28:615,31.856,-0.013,0.000,-0.004,-11.779,57.566,5.570
15:47:28:644,31.885,-0.009,-0.002,0.003,-11.830,57.618,5.648
15:47:28:671,31.912,-0.023,0.001,0.005,-11.831,57.696,5.691
15:47:28:698,31.939,-0.042,0.036,0.057,-11.819,57.719,5.683
15:47:28:725,31.967,-0.042,0.036,0.057,-11.819,57.719,5.683
15:47:28:752,31.993,0.008,-0.018,-0.019,-11.764,57.612,5.540
15:47:28:78,32.021,0.008,-0.018,-0.019,-11.764,57.612,5.540
15:47:28:808,32.049,0.005,-0.001,-0.002,-11.855,57.614,5.632
15:47:28:835,32.076,0.001,-0.001,-0.013,-11.882,57.622,5.663
15:47:28:862,32.103,0.011,-0.001,-0.017,-11.922,57.630,5.700
15:47:28:889,32.130,0.002,-0.003,-0.001,-11.927,57.680,5.726
15:47:28:916,32.157,0.002,-0.003,-0.001,-11.927,57.680,5.726
15:47:28:943,32.184,0.010,-0.006,-0.014,-11.949,57.698,5.732
15:47:28:97,32.211,0.002,-0.001,-0.011,-11.958,57.698,5.728
15:47:28:997,32.238,0.008,-0.007,-0.002,-11.973,57.732,5.719
15:47:29:024,32.265,0.008,-0.007,-0.002,-11.973,57.732,5.719
15:47:29:051,32.292,0.001,-0.004,-0.003,-11.971,57.758,5.745
15:47:29:079,32.320,-0.010,0.002,-0.011,-11.978,57.780,5.767
15:47:29:106,32.347,-0.025,0.023,0.041,-11.932,57.790,5.737
15:47:29:136,32.377,0.050,-0.013,-0.035,-11.877,57.711,5.647
15:47:29:164,32.405,0.037,-0.030,-0.048,-11.833,57.556,5.536
15:47:29:19,32.432,0.016,-0.013,-0.017,-11.921,57.511,5.617
15:47:29:218,32.459,0.000,-0.011,-0.005,-12.001,57.519,5.719
15:47:29:245,32.486,-0.005,-0.003,0.008,-12.102,57.540,5.838
15:47:29:272,32.513,-0.009,0.004,-0.006,-12.138,57.550,5.877
15:47:29:3,32.541,-0.005,0.006,0.003,-12.130,57.561,5.857
15:47:29:327,32.568,-0.020,0.019,0.016,-12.084,57.560,5.806
15:47:29:354,32.596,-0.020,0.019,0.016,-12.084,57.560,5.806
15:47:29:381,32.622,0.017,-0.021,-0.034,-11.909,57.280,5.450
15:47:29:408,32.650,0.024,-0.017,-0.044,-11.945,57.242,5.431
15:47:29:436,32.677,0.015,-0.016,-0.020,-12.049,57.254,5.501
15:47:29:463,32.705,0.001,-0.007,-0.002,-12.134,57.290,5.582
15:47:29:491,32.732,-0.014,0.002,-0.003,-12.237,57.329,5.704
15:47:29:518,32.759,-0.007,0.013,0.008,-12.280,57.353,5.744
15:47:29:545,32.786,0.032,-0.016,-0.024,-12.258,57.288,5.616
15:47:29:573,32.814,0.032,-0.016,-0.024,-12.258,57.288,5.616
15:47:29:6,32.841,0.004,-0.012,-0.017,-12.294,57.258,5.630
15:47:29:627,32.869,-0.017,0.010,0.008,-12.396,57.254,5.674
15:47:29:655,32.896,-0.017,0.010,0.008,-12.396,57.254,5.674
15:47:29:682,32.923,0.012,0.002,0.007,-12.410,57.294,5.671
15:47:29:709,32.950,0.007,-0.005,-0.011,-12.466,57.329,5.692
15:47:29:737,32.978,-0.008,-0.001,0.001,-12.501,57.375,5.734
15:47:29:764,33.005,0.005,-0.001,0.003,-12.504,57.402,5.736
15:47:29:791,33.032,-0.007,0.011,-0.005,-12.486,57.441,5.712
15:47:29:818,33.059,0.005,0.019,0.001,-12.440,57.458,5.643
15:47:29:845,33.086,0.031,-0.004,-0.009,-12.399,57.459,5.578
15:47:29:872,33.113,0.031,-0.004,-0.009,-12.399,57.459,5.578
15:47:29:9,33.141,0.000,0.000,-0.012,-12.437,57.473,5.588
15:47:29:927,33.168,-0.001,0.002,-0.001,-12.446,57.474,5.595
15:47:29:954,33.195,0.020,-0.001,-0.017,-12.452,57.467,5.598
15:47:29:98,33.222,0.005,0.006,0.002,-12.451,57.495,5.591
15:47:30:008,33.249,0.002,-0.003,-0.006,-12.474,57.495,5.614
15:47:30:035,33.276,0.004,-0.010,-0.010,-12.485,57.468,5.633
15:47:30:062,33.303,0.002,-0.010,-0.011,-12.508,57.460,5.673
15:47:30:089,33.330,0.007,0.004,-0.014,-12.513,57.489,5.713
15:47:30:118,33.359,0.007,0.004,-0.014,-12.513,57.489,5.713
15:47:30:145,33.386,-0.002,-0.009,-0.008,-12.518,57.519,5.823
15:47:30:173,33.414,-0.005,-0.003,-0.004,-12.518,57.527,5.867
15:47:30:2,33.441,-0.002,-0.006,-0.017,-12.490,57.573,5.914
15:47:30:228,33.469,-0.032,0.023,0.053,-12.454,57.620,5.931
15:47:30:255,33.496,0.025,0.006,-0.011,-12.374,57.565,5.866
15:47:30:282,33.524,0.035,-0.020,-0.033,-12.347,57.497,5.845
15:47:30:309,33.550,0.002,-0.013,0.005,-12.533,57.542,6.129
15:47:30:336,33.577,-0.001,0.002,-0.007,-12.585,57.604,6.228
15:47:30:363,33.605,-0.025,0.009,0.015,-12.607,57.717,6.319
15:47:30:391,33.632,0.013,0.026,-0.011,-12.589,57.773,6.327
15:47:30:418,33.660,0.045,-0.024,-0.009,-12.506,57.753,6.271
15:47:30:445,33.686,0.003,-0.016,-0.016,-12.526,57.745,6.291
15:47:30:472,33.714,0.000,-0.009,-0.011,-12.551,57.761,6.340
15:47:30:5,33.741,-0.004,0.002,-0.005,-12.567,57.803,6.389
15:47:30:527,33.768,0.002,-0.008,0.002,-12.545,57.862,6.399
15:47:30:554,33.795,0.002,-0.008,0.002,-12.545,57.862,6.399
15:47:30:582,33.823,0.000,0.002,-0.005,-12.440,57.927,6.346
15:47:30:608,33.850,-0.030,0.018,0.026,-12.354,57.930,6.268
15:47:30:636,33.877,0.006,0.004,0.027,-12.236,57.835,6.118
15:47:30:662,33.904,0.051,-0.017,-0.054,-12.221,57.687,6.049
15:47:30:69,33.931,0.059,-0.059,-0.031,-12.376,57.572,6.184
15:47:30:716,33.958,-0.027,-0.002,-0.008,-12.593,57.596,6.396
15:47:30:744,33.985,-0.022,0.003,0.012,-12.845,57.635,6.680
15:47:30:77,34.012,-0.010,-0.006,0.005,-12.935,57.686,6.812
15:47:30:798,34.039,0.005,-0.007,0.004,-12.950,57.756,6.839
15:47:30:825,34.066,-0.034,0.025,0.032,-12.939,57.877,6.833
15:47:30:852,34.093,-0.034,0.025,0.032,-12.939,57.877,6.833
15:47:30:879,34.120,0.006,-0.013,-0.019,-12.743,57.789,6.523
15:47:30:906,34.147,0.003,-0.009,-0.018,-12.768,57.783,6.540
15:47:30:933,34.174,-0.007,0.006,0.007,-12.778,57.863,6.556
15:47:30:96,34.201,-0.023,0.033,0.044,-12.773,57.883,6.541
15:47:30:987,34.229,-0.023,0.033,0.044,-12.773,57.883,6.541
15:47:31:014,34.256,0.014,-0.005,-0.025,-12.763,57.756,6.467
15:47:31:042,34.283,0.014,-0.005,-0.025,-12.763,57.756,6.467
15:47:31:069,34.310,0.012,-0.006,-0.001,-12.872,57.753,6.570
15:47:31:096,34.337,0.005,-0.008,-0.018,-12.907,57.751,6.587
15:47:31:123,34.364,-0.001,0.000,-0.008,-12.946,57.786,6.617
15:47:31:15,34.391,-0.001,0.000,-0.008,-12.946,57.786,6.617
15:47:31:177,34.418,-0.037,0.033,0.059,-12.819,57.887,6.464
15:47:31:204,34.445,-0.037,0.033,0.059,-12.819,57.887,6.464
15:47:31:231,34.473,0.008,-0.009,-0.032,-12.751,57.630,6.285
15:47:31:258,34.499,0.037,-0.027,-0.010,-12.787,57.600,6.310
15:47:31:285,34.527,-0.002,0.001,0.006,-12.880,57.574,6.372
15:47:31:313,34.554,-0.001,-0.005,0.002,-12.919,57.541,6.429
15:47:31:34,34.581,0.000,-0.003,-0.018,-12.957,57.523,6.491
15:47:31:366,34.608,0.000,0.004,-0.003,-12.941,57.555,6.507
15:47:31:394,34.635,-0.001,0.003,-0.001,-12.894,57.581,6.481
15:47:31:42,34.662,-0.001,0.009,0.017,-12.796,57.627,6.404
15:47:31:448,34.689,-0.001,0.009,0.017,-12.796,57.627,6.404
15:47:31:475,34.716,0.001,0.012,0.006,-12.600,57.579,6.184
15:47:31:502,34.743,0.018,-0.022,-0.020,-12.531,57.537,6.114
15:47:31:529,34.770,0.006,-0.008,-0.013,-12.531,57.538,6.125
15:47:31:556,34.797,0.009,-0.006,0.004,-12.531,57.565,6.166
15:47:31:583,34.824,0.008,0.000,-0.012,-12.531,57.566,6.178
15:47:31:61,34.852,0.015,-0.007,-0.013,-12.513,57.528,6.183
15:47:31:637,34.878,0.002,-0.006,-0.009,-12.508,57.526,6.185
15:47:31:664,34.906,0.004,-0.004,0.001,-12.505,57.547,6.196
15:47:31:692,34.933,-0.003,0.001,0.002,-12.475,57.570,6.185
15:47:31:719,34.960,0.026,0.001,-0.010,-12.448,57.571,6.152
15:47:31:746,34.987,0.007,-0.010,-0.015,-12.421,57.582,6.125
15:47:31:773,35.014,0.008,-0.008,-0.010,-12.424,57.609,6.127
15:47:31:8,35.041,0.001,0.002,0.001,-12.406,57.647,6.137
15:47:31:827,35.068,0.001,0.002,0.001,-12.406,57.647,6.137
15:47:31:854,35.096,-0.001,0.001,-0.010,-12.361,57.648,6.123
15:47:31:882,35.123,0.009,-0.016,-0.002,-12.350,57.654,6.122
15:47:31:91,35.152,0.003,-0.006,-0.007,-12.349,57.651,6.133
15:47:31:938,35.180,0.020,-0.008,-0.023,-12.349,57.679,6.137
15:47:31:965,35.206,0.008,-0.014,0.000,-12.351,57.693,6.151
15:47:31:993,35.234,0.002,-0.006,-0.004,-12.377,57.729,6.175
15:47:32:02,35.261,0.000,0.000,0.005,-12.373,57.750,6.186
15:47:32:047,35.289,0.000,0.000,0.005,-12.373,57.750,6.186
15:47:32:074,35.316,0.000,0.000,0.005,-12.373,57.750,6.186
15:47:32:102,35.343,0.000,-0.001,0.000,-12.398,57.764,6.213
15:47:32:128,35.370,0.002,-0.004,-0.002,-12.402,57.763,6.222
15:47:32:156,35.397,0.002,-0.001,-0.003,-12.407,57.774,6.219
15:47:32:183,35.424,0.007,-0.004,0.005,-12.393,57.794,6.207
15:47:32:21,35.451,-0.029,0.023,0.054,-12.372,57.806,6.182
15:47:32:237,35.479,0.026,-0.005,-0.009,-12.304,57.741,6.063
15:47:32:265,35.506,0.034,-0.013,-0.032,-12.276,57.641,5.990
15:47:32:292,35.533,0.012,-0.022,-0.020,-12.319,57.618,6.017
15:47:32:319,35.560,0.004,-0.006,-0.001,-12.396,57.626,6.110
15:47:32:346,35.587,-0.006,-0.003,-0.005,-12.442,57.636,6.171
15:47:32:374,35.615,0.002,-0.004,-0.004,-12.470,57.675,6.233
15:47:32:401,35.642,-0.009,0.007,0.003,-12.466,57.715,6.253
15:47:32:429,35.670,-0.008,0.007,0.013,-12.410,57.809,6.215
15:47:32:456,35.697,-0.008,0.004,0.003,-12.284,57.842,6.091
15:47:32:483,35.725,-0.004,0.013,0.028,-12.170,57.803,5.974
15:47:32:51,35.752,0.013,0.008,-0.014,-11.982,57.644,5.722
15:47:32:538,35.779,0.049,-0.017,-0.026,-11.841,57.536,5.512
15:47:32:564,35.806,0.021,-0.029,-0.045,-11.824,57.508,5.468
15:47:32:592,35.833,0.021,-0.023,-0.001,-11.894,57.512,5.524
15:47:32:619,35.860,0.005,-0.009,-0.016,-11.976,57.525,5.603
15:47:32:646,35.887,-0.006,-0.001,0.002,-12.105,57.560,5.758
15:47:32:673,35.914,-0.022,0.011,0.004,-12.161,57.600,5.835
15:47:32:7,35.941,0.007,0.014,-0.008,-12.085,57.671,5.796
15:47:32:727,35.968,-0.008,0.001,0.017,-12.018,57.702,5.729
15:47:32:754,35.996,-0.022,0.007,0.038,-11.884,57.716,5.578
15:47:32:781,36.022,-0.022,0.007,0.038,-11.884,57.716,5.578
15:47:32:809,36.050,0.024,0.009,-0.026,-11.780,57.639,5.405
15:47:32:835,36.077,0.024,0.009,-0.026,-11.780,57.639,5.405
15:47:32:863,36.104,0.011,-0.019,-0.021,-11.603,57.498,5.109
15:47:32:889,36.131,0.008,-0.008,-0.005,-11.645,57.473,5.158
15:47:32:916,36.158,-0.003,-0.003,0.008,-11.699,57.472,5.228
15:47:32:943,36.185,0.007,0.009,0.003,-11.780,57.392,5.337
15:47:32:971,36.212,0.012,-0.011,0.000,-11.833,57.322,5.407
15:47:32:998,36.239,0.002,0.000,-0.003,-11.944,57.259,5.507
15:47:33:025,36.266,0.005,0.000,-0.003,-12.014,57.216,5.563
15:47:33:053,36.294,-0.006,0.002,0.012,-12.059,57.214,5.577
15:47:33:079,36.321,0.026,-0.010,-0.010,-12.104,57.167,5.555
15:47:33:107,36.348,0.012,-0.012,-0.009,-12.288,57.136,5.583
15:47:33:133,36.375,0.003,-0.002,-0.005,-12.427,57.116,5.640
15:47:33:161,36.402,-0.006,0.007,0.003,-12.519,57.120,5.661
15:47:33:188,36.429,-0.004,0.001,0.000,-12.636,57.142,5.663
15:47:33:214,36.456,0.013,-0.007,-0.006,-12.712,57.179,5.654
15:47:33:242,36.483,0.013,-0.007,-0.006,-12.712,57.179,5.654
15:47:33:268,36.510,-0.002,0.001,0.006,-12.871,57.225,5.636
15:47:33:296,36.537,-0.002,0.001,0.006,-12.871,57.225,5.636
15:47:33:323,36.565,0.002,0.000,-0.005,-12.989,57.189,5.605
15:47:33:35,36.592,-0.007,0.002,-0.007,-13.001,57.196,5.594
15:47:33:378,36.619,-0.002,0.000,-0.001,-12.999,57.182,5.569
15:47:33:404,36.646,-0.002,0.000,-0.001,-12.999,57.182,5.569
15:47:33:432,36.673,0.013,-0.008,-0.004,-12.986,57.155,5.500
15:47:33:459,36.701,-0.004,-0.002,-0.002,-12.993,57.151,5.492
15:47:33:486,36.727,-0.004,-0.002,-0.002,-12.993,57.151,5.492
15:47:33:513,36.755,0.002,0.004,0.003,-12.989,57.152,5.482
15:47:33:541,36.782,0.003,-0.006,-0.007,-12.987,57.147,5.467
15:47:33:569,36.810,0.003,-0.001,-0.007,-12.990,57.144,5.450
15:47:33:596,36.837,0.003,-0.001,-0.007,-12.990,57.144,5.450
15:47:33:623,36.864,0.007,0.002,0.002,-12.993,57.211,5.431
15:47:33:65,36.891,0.001,-0.005,-0.005,-12.996,57.228,5.423
15:47:33:677,36.918,-0.006,0.001,0.006,-12.997,57.259,5.419
15:47:33:704,36.945,0.006,-0.009,-0.004,-12.989,57.262,5.400
15:47:33:731,36.972,0.008,-0.004,0.001,-12.969,57.260,5.371
15:47:33:758,36.999,0.008,-0.004,0.001,-12.969,57.260,5.371
15:47:33:785,37.026,-0.001,0.000,0.004,-12.939,57.272,5.338
15:47:33:812,37.053,-0.001,0.010,-0.003,-12.849,57.284,5.234
15:47:33:839,37.081,-0.015,0.017,-0.011,-12.788,57.289,5.172
15:47:33:867,37.108,-0.002,-0.004,0.028,-12.653,57.348,5.044
15:47:33:894,37.135,-0.004,0.001,-0.001,-12.518,57.320,4.875
15:47:33:921,37.162,-0.004,0.001,-0.001,-12.518,57.320,4.875
15:47:33:948,37.189,0.002,-0.013,-0.009,-12.312,57.252,4.592
15:47:33:974,37.216,0.002,-0.013,-0.009,-12.312,57.252,4.592
15:47:34:002,37.244,0.012,-0.011,-0.022,-12.180,57.197,4.408
15:47:34:03,37.271,0.012,-0.011,-0.022,-12.180,57.197,4.408
15:47:34:057,37.299,-0.004,0.002,-0.012,-12.170,57.175,4.354
15:47:34:085,37.326,0.010,-0.012,0.003,-12.172,57.180,4.369
15:47:34:112,37.353,0.010,-0.012,0.003,-12.172,57.180,4.369
15:47:34:139,37.380,0.013,-0.005,0.001,-12.173,57.211,4.426
15:47:34:166,37.407,0.009,-0.006,-0.003,-12.184,57.276,4.486
15:47:34:193,37.435,0.009,-0.006,-0.003,-12.184,57.276,4.486
15:47:34:222,37.463,0.009,-0.006,-0.003,-12.184,57.276,4.486
15:47:34:249,37.490,0.012,0.001,-0.007,-12.290,57.405,4.587
15:47:34:276,37.517,0.006,-0.007,-0.003,-12.351,57.440,4.629
15:47:34:303,37.545,0.005,-0.005,-0.004,-12.463,57.509,4.706
15:47:34:33,37.571,0.010,-0.007,0.003,-12.545,57.543,4.760
15:47:34:358,37.599,0.010,-0.007,0.003,-12.545,57.543,4.760
15:47:34:385,37.626,0.004,-0.008,-0.002,-12.768,57.629,4.896
15:47:34:412,37.653,0.000,-0.008,-0.003,-12.824,57.643,4.942
15:47:34:439,37.681,-0.007,0.001,0.005,-12.894,57.647,4.999
15:47:34:467,37.708,-0.017,0.007,-0.006,-12.899,57.618,5.016
15:47:34:494,37.735,-0.017,0.009,0.000,-12.806,57.622,4.979
15:47:34:521,37.762,-0.011,0.007,0.021,-12.594,57.652,4.844
15:47:34:548,37.789,-0.011,0.007,0.021,-12.594,57.652,4.844
15:47:34:575,37.817,-0.049,0.021,0.070,-12.059,57.569,4.312
15:47:34:603,37.844,0.009,-0.013,0.009,-11.811,57.434,3.961
15:47:34:63,37.872,0.037,-0.009,-0.036,-11.445,57.317,3.459
15:47:34:658,37.899,0.007,-0.021,-0.006,-11.275,57.302,3.180
15:47:34:685,37.926,0.020,-0.009,-0.014,-11.071,57.349,2.877
15:47:34:712,37.953,0.020,-0.004,-0.023,-10.918,57.372,2.664
15:47:34:739,37.980,0.033,-0.030,-0.015,-10.845,57.386,2.558
15:47:34:767,38.008,0.011,-0.015,-0.013,-10.801,57.408,2.532
15:47:34:794,38.035,0.008,-0.006,-0.014,-10.823,57.429,2.613
15:47:34:821,38.063,0.008,-0.002,-0.004,-10.887,57.406,2.832
15:47:34:849,38.090,0.009,-0.006,-0.011,-11.004,57.383,3.121
15:47:34:877,38.119,0.009,-0.006,-0.011,-11.004,57.383,3.121
15:47:34:905,38.146,-0.016,0.002,0.035,-11.323,57.407,3.848
15:47:34:932,38.173,-0.016,0.007,0.012,-11.410,57.373,4.021
15:47:34:959,38.200,-0.022,0.008,-0.005,-11.411,57.332,4.089
15:47:34:987,38.229,-0.022,0.008,-0.005,-11.411,57.332,4.089
15:47:35:015,38.256,-0.021,0.005,0.015,-11.346,57.307,4.082
15:47:35:043,38.284,-0.009,0.003,0.007,-11.025,57.274,3.847
15:47:35:07,38.311,0.013,-0.005,-0.002,-10.801,57.267,3.639
15:47:35:097,38.338,0.007,-0.011,-0.015,-10.609,57.274,3.466
15:47:35:124,38.365,-0.011,-0.008,-0.004,-10.492,57.318,3.355
15:47:35:151,38.392,-0.011,-0.008,-0.004,-10.492,57.318,3.355
15:47:35:178,38.419,0.020,-0.003,0.000,-10.218,57.421,3.128
15:47:35:205,38.447,0.008,-0.020,0.003,-10.090,57.522,3.045
15:47:35:232,38.473,-0.001,-0.010,0.000,-10.031,57.580,3.002
15:47:35:259,38.501,0.005,-0.011,-0.003,-9.930,57.623,2.928
15:47:35:288,38.529,-0.001,-0.011,-0.001,-9.823,57.682,2.851
15:47:35:314,38.556,-0.001,-0.011,-0.001,-9.823,57.682,2.851
15:47:35:342,38.583,-0.006,-0.009,0.000,-9.527,57.782,2.614
15:47:35:369,38.610,-0.026,0.000,0.013,-9.354,57.818,2.442
15:47:35:396,38.637,-0.034,0.085,-0.047,-8.542,57.873,1.399
15:47:35:423,38.665,0.012,0.019,0.025,-8.173,57.910,0.908
15:47:35:45,38.692,-0.004,0.027,0.010,-7.706,58.099,0.158
15:47:35:478,38.719,0.000,0.010,0.001,-7.406,58.237,-0.342
15:47:35:505,38.747,-0.024,0.025,0.007,-6.994,58.502,-1.097
15:47:35:532,38.773,0.040,-0.045,-0.008,-6.691,58.698,-1.614
15:47:35:56,38.802,0.040,-0.045,-0.008,-6.691,58.698,-1.614
15:47:35:588,38.830,-0.022,-0.005,0.025,-5.894,59.170,-3.117
15:47:35:616,38.857,-0.022,-0.005,0.025,-5.894,59.170,-3.117
15:47:35:643,38.885,-0.022,-0.005,0.025,-5.894,59.170,-3.117
15:47:35:67,38.912,0.033,-0.098,-0.110,-5.322,59.382,-4.541
15:47:35:698,38.939,0.033,-0.098,-0.110,-5.322,59.382,-4.541
15:47:35:725,38.966,0.041,-0.075,-0.053,-5.503,59.488,-4.245
15:47:35:751,38.993,-0.011,-0.010,-0.010,-6.020,59.435,-3.235
15:47:35:779,39.020,0.004,0.013,-0.011,-6.284,59.332,-2.773
15:47:35:806,39.048,0.003,0.010,0.045,-6.669,59.189,-2.097
15:47:35:834,39.075,-0.006,0.016,0.021,-6.961,59.067,-1.689
15:47:35:861,39.102,-0.018,0.017,-0.006,-7.385,58.875,-1.103
15:47:35:888,39.129,-0.018,0.017,-0.006,-7.385,58.875,-1.103
15:47:35:915,39.156,-0.018,0.017,-0.006,-7.385,58.875,-1.103
15:47:35:943,39.184,-0.023,0.024,0.025,-8.273,58.393,0.373
15:47:35:97,39.211,0.005,0.046,0.012,-8.423,58.319,0.676
15:47:35:997,39.239,0.004,0.020,0.034,-8.611,58.220,1.045
15:47:36:024,39.265,-0.003,-0.003,-0.002,-8.793,58.158,1.360
15:47:36:052,39.293,-0.010,-0.014,-0.017,-8.905,58.125,1.541
15:47:36:079,39.320,-0.012,0.007,0.002,-9.020,58.101,1.786
15:47:36:106,39.348,-0.028,0.017,0.028,-9.054,58.110,1.884
15:47:36:134,39.375,-0.021,0.002,0.021,-9.003,58.166,1.897
15:47:36:161,39.402,-0.063,0.039,0.021,-8.819,58.219,1.687
15:47:36:188,39.430,0.013,0.077,0.033,-8.167,58.435,0.739
15:47:36:216,39.457,0.015,0.039,0.019,-7.877,58.571,0.240
15:47:36:243,39.484,0.015,0.039,0.019,-7.877,58.571,0.240
15:47:36:27,39.511,-0.007,0.019,-0.016,-7.512,58.839,-0.527
15:47:36:297,39.538,-0.007,0.019,-0.016,-7.512,58.839,-0.527
15:47:36:324,39.565,-0.007,0.019,-0.016,-7.512,58.839,-0.527
15:47:36:351,39.592,0.064,-0.100,-0.064,-6.525,59.579,-2.796
15:47:36:378,39.620,0.037,-0.096,-0.076,-6.548,59.737,-3.046
15:47:36:406,39.647,0.037,-0.096,-0.076,-6.548,59.737,-3.046
15:47:36:433,39.674,0.032,-0.026,-0.027,-6.761,59.860,-2.974
15:47:36:46,39.701,0.029,-0.041,-0.022,-6.910,59.799,-2.695
15:47:36:487,39.728,0.027,-0.048,-0.022,-7.051,59.729,-2.456
15:47:36:514,39.755,0.011,-0.040,-0.017,-7.303,59.623,-2.020
15:47:36:541,39.782,0.001,-0.020,-0.012,-7.518,59.498,-1.653
15:47:36:568,39.809,0.002,-0.015,-0.026,-7.868,59.275,-1.029
15:47:36:596,39.837,-0.002,-0.003,0.012,-8.091,59.121,-0.576
15:47:36:622,39.864,-0.007,0.053,0.034,-8.490,58.862,0.144
15:47:36:65,39.891,0.008,0.041,0.034,-8.906,58.603,0.820
15:47:36:677,39.918,0.014,0.010,0.008,-9.193,58.432,1.254
15:47:36:705,39.946,0.004,-0.013,-0.017,-9.675,58.215,1.938
15:47:36:732,39.973,0.004,-0.013,-0.017,-9.675,58.215,1.938
15:47:36:759,40.000,-0.004,0.001,-0.003,-10.509,57.881,3.248
15:47:36:786,40.027,-0.003,-0.003,0.043,-11.042,57.880,4.080
15:47:36:813,40.054,-0.012,0.020,0.038,-11.434,57.855,4.545
15:47:36:841,40.082,-0.058,0.016,0.023,-11.933,57.807,5.092
15:47:36:869,40.110,-0.060,0.031,0.018,-12.138,57.790,5.279
15:47:36:896,40.137,-0.060,0.031,0.018,-12.138,57.790,5.279
15:47:36:923,40.164,-0.002,0.004,0.016,-12.158,57.853,5.308
15:47:36:95,40.192,-0.004,0.006,0.015,-12.060,57.759,5.129
15:47:36:977,40.219,-0.004,0.006,0.015,-12.060,57.759,5.129
15:47:37:005,40.246,0.013,-0.013,-0.021,-11.904,57.586,4.849
15:47:37:032,40.273,0.001,-0.008,-0.009,-11.822,57.581,4.765
15:47:37:059,40.301,0.008,-0.011,-0.013,-11.771,57.570,4.728
15:47:37:087,40.328,-0.025,0.003,0.019,-11.690,57.567,4.682
15:47:37:114,40.355,0.042,0.012,-0.010,-11.586,57.505,4.573
15:47:37:142,40.383,0.009,-0.014,-0.012,-11.662,57.466,4.642
15:47:37:169,40.410,-0.014,0.010,0.012,-11.723,57.462,4.714
15:47:37:196,40.438,0.005,0.006,-0.006,-11.784,57.486,4.795
15:47:37:224,40.465,0.001,0.018,0.012,-11.812,57.509,4.841
15:47:37:251,40.492,0.001,0.018,0.012,-11.812,57.509,4.841
15:47:37:278,40.520,-0.009,-0.006,-0.004,-11.831,57.501,4.894
15:47:37:306,40.547,-0.018,0.009,0.011,-11.819,57.496,4.883
15:47:37:333,40.574,0.003,-0.005,0.002,-11.732,57.460,4.793
15:47:37:36,40.601,0.015,-0.013,-0.013,-11.620,57.432,4.663
15:47:37:387,40.628,0.015,-0.013,-0.013,-11.620,57.432,4.663
15:47:37:414,40.655,0.003,-0.005,-0.001,-11.486,57.413,4.515
15:47:37:441,40.682,0.022,-0.004,-0.008,-11.451,57.413,4.486
15:47:37:468,40.710,0.006,-0.008,0.007,-11.419,57.421,4.461
15:47:37:496,40.737,0.004,-0.011,-0.011,-11.423,57.420,4.471
15:47:37:523,40.764,0.004,-0.011,-0.011,-11.423,57.420,4.471
15:47:37:549,40.791,0.004,-0.011,-0.011,-11.423,57.420,4.471
15:47:37:577,40.818,0.000,-0.007,0.012,-11.425,57.495,4.545
15:47:37:604,40.845,0.000,-0.007,0.012,-11.425,57.495,4.545
15:47:37:631,40.873,-0.010,-0.001,0.007,-11.432,57.492,4.549
15:47:37:658,40.900,-0.010,-0.001,0.007,-11.432,57.492,4.549
15:47:37:685,40.927,0.003,-0.008,-0.001,-11.419,57.431,4.460
15:47:37:712,40.953,-0.008,0.002,-0.006,-11.428,57.392,4.438
15:47:37:739,40.981,0.004,-0.007,0.002,-11.449,57.308,4.381
15:47:37:766,41.008,0.005,-0.005,-0.009,-11.482,57.262,4.354
15:47:37:794,41.035,0.005,-0.005,-0.009,-11.482,57.262,4.354
15:47:37:821,41.062,0.005,-0.005,-0.009,-11.482,57.262,4.354
15:47:37:848,41.089,0.001,-0.004,-0.003,-11.537,57.206,4.270
15:47:37:875,41.117,0.001,-0.004,-0.003,-11.537,57.206,4.270
15:47:37:903,41.144,0.005,-0.006,0.000,-11.562,57.151,4.192
15:47:37:93,41.171,0.005,-0.006,0.000,-11.562,57.151,4.192
15:47:37:958,41.199,0.003,-0.013,-0.010,-11.629,57.122,4.166
15:47:37:985,41.227,0.000,-0.005,0.010,-11.711,57.135,4.223
15:47:38:012,41.254,0.001,-0.001,-0.015,-11.783,57.086,4.272
15:47:38:04,41.281,0.005,-0.006,-0.004,-11.839,57.063,4.304
15:47:38:066,41.308,-0.002,-0.005,-0.001,-11.921,57.045,4.380
15:47:38:094,41.335,0.006,-0.004,0.003,-11.966,57.036,4.421
15:47:38:121,41.363,0.003,0.003,-0.002,-12.019,57.025,4.481
15:47:38:148,41.389,0.006,-0.004,0.006,-12.079,56.988,4.536
15:47:38:175,41.417,0.000,-0.005,-0.010,-12.126,56.974,4.582
15:47:38:202,41.443,-0.002,-0.007,-0.001,-12.190,56.969,4.665
15:47:38:229,41.471,0.000,0.000,0.007,-12.227,56.970,4.720
15:47:38:256,41.498,-0.007,-0.002,0.017,-12.261,56.936,4.791
15:47:38:283,41.524,0.001,0.002,0.006,-12.264,56.822,4.832
15:47:38:31,41.552,-0.011,0.003,0.013,-12.255,56.722,4.856
15:47:38:338,41.579,0.008,-0.001,0.005,-12.246,56.573,4.852
15:47:38:365,41.606,0.008,-0.001,0.005,-12.246,56.573,4.852
15:47:38:392,41.633,0.001,0.000,-0.016,-12.219,56.283,4.873
15:47:38:42,41.661,-0.012,0.003,-0.009,-12.215,56.216,4.891
15:47:38:447,41.688,0.012,0.001,-0.012,-12.187,56.193,4.894
15:47:38:474,41.715,0.003,-0.003,-0.013,-12.163,56.219,4.907
15:47:38:501,41.742,-0.001,0.000,-0.011,-12.171,56.307,5.016
15:47:38:528,41.769,-0.001,0.000,-0.011,-12.171,56.307,5.016
15:47:38:556,41.797,-0.001,0.000,-0.011,-12.171,56.307,5.016
15:47:38:583,41.824,0.007,0.006,-0.002,-12.191,56.630,5.225
15:47:38:61,41.852,0.007,0.006,-0.002,-12.191,56.630,5.225
15:47:38:638,41.879,0.007,0.006,-0.002,-12.191,56.630,5.225
15:47:38:665,41.906,0.007,0.006,-0.002,-12.191,56.630,5.225
15:47:38:692,41.934,0.002,-0.001,0.007,-12.238,57.134,5.544
15:47:38:72,41.961,0.002,-0.004,0.004,-12.234,57.254,5.618
15:47:38:747,41.988,-0.001,0.001,0.009,-12.220,57.310,5.658
15:47:38:774,42.015,-0.004,0.001,0.001,-12.180,57.391,5.674
15:47:38:801,42.042,-0.004,0.001,0.001,-12.180,57.391,5.674
15:47:38:828,42.069,-0.004,0.001,0.001,-12.180,57.391,5.674
15:47:38:855,42.096,0.010,-0.004,0.004,-12.013,57.498,5.655
15:47:38:883,42.124,0.006,-0.002,0.001,-11.963,57.535,5.646
15:47:38:909,42.151,0.013,-0.005,-0.008,-11.917,57.553,5.648
15:47:38:937,42.178,0.013,-0.005,-0.008,-11.917,57.553,5.648
15:47:38:965,42.206,0.005,-0.007,0.004,-11.938,57.606,5.728
15:47:38:992,42.233,-0.005,-0.001,0.005,-11.947,57.624,5.778
15:47:39:019,42.260,0.000,0.003,0.003,-11.949,57.659,5.824
15:47:39:046,42.288,0.000,0.003,0.003,-11.949,57.659,5.824
15:47:39:075,42.316,-0.001,-0.006,-0.001,-11.947,57.702,5.870
15:47:39:102,42.343,0.005,-0.006,0.004,-11.940,57.744,5.892
15:47:39:129,42.370,-0.007,0.007,0.009,-11.943,57.771,5.893
15:47:39:157,42.398,-0.007,0.007,0.009,-11.943,57.771,5.893
15:47:39:184,42.426,-0.007,-0.002,0.002,-11.900,57.775,5.857
15:47:39:212,42.453,-0.002,-0.001,-0.005,-11.873,57.757,5.827
15:47:39:239,42.480,-0.003,0.005,-0.003,-11.866,57.760,5.824
15:47:39:266,42.508,0.002,-0.004,0.005,-11.836,57.764,5.804
15:47:39:293,42.534,0.002,-0.004,0.005,-11.836,57.764,5.804
15:47:39:321,42.562,0.001,-0.002,-0.012,-11.812,57.762,5.754
15:47:39:348,42.589,0.001,-0.002,-0.012,-11.812,57.762,5.754
15:47:39:375,42.616,0.002,0.000,0.001,-11.764,57.756,5.699
15:47:39:402,42.643,0.012,-0.006,-0.004,-11.750,57.727,5.663
15:47:39:429,42.670,0.001,-0.002,-0.003,-11.752,57.711,5.647
15:47:39:47,42.711,0.006,-0.005,0.003,-11.695,57.658,5.572
15:47:39:501,42.742,0.006,-0.005,0.003,-11.695,57.658,5.572
15:47:39:529,42.770,0.012,-0.008,-0.007,-11.690,57.616,5.544
15:47:39:648,42.889,0.002,0.001,0.007,-11.673,57.560,5.496
15:47:39:677,42.919,0.006,0.000,-0.001,-11.627,57.441,5.421
15:47:39:711,42.952,0.004,-0.003,0.003,-11.614,57.442,5.416
15:47:39:738,42.979,0.009,-0.004,-0.002,-11.594,57.427,5.399
15:47:39:766,43.007,0.004,0.001,0.001,-11.598,57.395,5.378
15:47:39:793,43.034,0.004,0.001,0.001,-11.598,57.395,5.378
15:47:39:82,43.061,0.010,-0.004,0.000,-11.592,57.384,5.381
15:47:39:847,43.088,0.009,-0.003,0.000,-11.595,57.379,5.386
15:47:39:875,43.116,-0.001,-0.004,-0.002,-11.595,57.379,5.386
15:47:39:903,43.144,0.010,-0.003,-0.008,-11.594,57.369,5.376
15:47:39:931,43.173,0.002,-0.003,-0.005,-11.591,57.352,5.373
15:47:39:958,43.199,0.007,-0.001,-0.002,-11.591,57.352,5.373
15:47:39:986,43.227,0.000,-0.004,-0.007,-11.593,57.346,5.378
15:47:40:013,43.254,0.009,-0.003,0.002,-11.593,57.346,5.378
15:47:40:04,43.282,0.011,-0.003,0.000,-11.633,57.346,5.382
15:47:40:068,43.309,0.011,-0.003,0.000,-11.633,57.346,5.382
15:47:40:095,43.337,0.009,-0.005,0.004,-11.681,57.342,5.379
15:47:40:122,43.363,0.009,-0.005,0.004,-11.681,57.342,5.379
15:47:40:149,43.391,0.009,-0.006,-0.002,-11.719,57.337,5.379
15:47:40:176,43.418,0.004,-0.005,-0.002,-11.736,57.334,5.383
15:47:40:203,43.444,0.004,-0.005,-0.002,-11.736,57.334,5.383
15:47:40:231,43.472,0.000,-0.004,-0.001,-11.763,57.335,5.382
15:47:40:258,43.499,0.005,-0.003,-0.001,-11.772,57.335,5.378
15:47:40:285,43.526,0.008,-0.004,-0.001,-11.772,57.335,5.378
15:47:40:312,43.553,0.002,-0.004,-0.005,-11.772,57.335,5.378
15:47:40:339,43.580,0.008,0.003,-0.001,-11.772,57.335,5.378
15:47:40:366,43.607,0.008,0.003,-0.001,-11.772,57.335,5.378
15:47:40:393,43.634,0.008,0.003,-0.001,-11.772,57.335,5.378
15:47:40:421,43.663,0.008,-0.003,0.001,-11.783,57.330,5.379
15:47:40:451,43.692,0.008,-0.009,-0.004,-11.801,57.331,5.383
15:47:40:478,43.719,0.004,-0.005,0.001,-11.823,57.329,5.384
15:47:40:506,43.747,0.010,-0.004,-0.003,-11.843,57.324,5.381
15:47:40:533,43.774,0.002,0.003,-0.002,-11.874,57.324,5.390
15:47:40:559,43.801,0.002,0.003,-0.002,-11.874,57.324,5.390
15:47:40:587,43.828,0.007,-0.007,-0.003,-11.927,57.321,5.433
15:47:40:614,43.855,0.007,-0.007,-0.003,-11.927,57.321,5.433
15:47:40:641,43.882,0.007,0.001,0.002,-11.953,57.319,5.444
15:47:40:668,43.909,0.000,-0.003,-0.010,-11.964,57.313,5.445
15:47:40:696,43.937,0.006,-0.002,-0.006,-11.964,57.313,5.445
15:47:40:722,43.964,0.006,-0.002,-0.006,-11.964,57.313,5.445
15:47:40:749,43.990,0.002,-0.003,-0.004,-11.964,57.313,5.445
15:47:40:776,44.018,0.001,-0.008,-0.001,-11.964,57.313,5.445
15:47:40:806,44.047,0.007,-0.006,-0.004,-11.988,57.317,5.461
15:47:40:833,44.075,-0.003,0.002,-0.002,-12.008,57.332,5.479
15:47:40:86,44.101,0.002,-0.007,0.002,-12.014,57.354,5.497
15:47:40:888,44.129,0.001,-0.002,-0.001,-12.031,57.361,5.510
15:47:40:915,44.156,0.008,-0.002,0.000,-12.071,57.359,5.548
15:47:40:942,44.183,0.004,-0.003,0.000,-12.133,57.348,5.604
15:47:40:969,44.210,0.003,-0.007,-0.004,-12.151,57.348,5.608
15:47:40:996,44.237,0.003,-0.007,-0.004,-12.151,57.348,5.608
15:47:41:023,44.264,0.003,-0.007,-0.004,-12.151,57.348,5.608
15:47:41:051,44.292,0.000,-0.004,-0.015,-12.147,57.360,5.608
15:47:41:078,44.320,0.010,-0.004,-0.002,-12.060,57.377,5.535
15:47:41:107,44.348,0.010,-0.004,-0.002,-12.060,57.377,5.535
15:47:41:134,44.375,0.004,-0.006,-0.003,-11.975,57.385,5.478
15:47:41:161,44.403,0.000,0.000,0.002,-11.928,57.420,5.462
15:47:41:188,44.429,0.018,-0.004,-0.009,-11.888,57.432,5.434
15:47:41:215,44.456,0.010,-0.007,-0.007,-11.838,57.421,5.397
15:47:41:242,44.483,0.010,-0.007,-0.007,-11.838,57.421,5.397
15:47:41:27,44.511,0.003,-0.005,-0.006,-11.773,57.427,5.386
15:47:41:297,44.538,0.002,0.003,0.002,-11.719,57.436,5.349
15:47:41:324,44.565,0.008,0.000,-0.005,-11.668,57.424,5.301
15:47:41:351,44.592,0.003,-0.003,-0.013,-11.585,57.420,5.228
15:47:41:378,44.619,0.001,-0.004,0.001,-11.523,57.450,5.181
15:47:41:405,44.646,0.001,0.000,0.001,-11.424,57.490,5.100
15:47:41:433,44.674,-0.003,0.010,-0.003,-11.329,57.508,4.997
15:47:41:46,44.702,0.007,-0.009,-0.012,-11.273,57.523,4.933
15:47:41:487,44.728,-0.006,0.006,-0.009,-11.188,57.592,4.839
15:47:41:515,44.756,-0.004,0.002,0.010,-11.114,57.648,4.763
15:47:41:542,44.783,-0.001,0.017,-0.011,-11.002,57.708,4.604
15:47:41:569,44.810,0.021,0.000,-0.011,-10.921,57.717,4.485
15:47:41:596,44.837,0.021,0.000,-0.011,-10.921,57.717,4.485
15:47:41:623,44.864,-0.002,0.002,0.003,-10.744,57.831,4.138
15:47:41:65,44.892,0.002,-0.001,0.013,-10.677,57.850,4.013
15:47:41:677,44.918,0.008,-0.002,0.007,-10.575,57.860,3.811
15:47:41:705,44.946,0.005,-0.008,-0.001,-10.523,57.852,3.676
15:47:41:732,44.973,0.007,-0.012,-0.013,-10.428,57.734,3.328
15:47:41:759,45.000,0.007,-0.012,-0.013,-10.428,57.734,3.328
15:47:41:787,45.028,0.004,-0.005,0.002,-10.378,57.647,3.100
15:47:41:814,45.055,0.013,-0.001,0.006,-10.380,57.599,3.027
15:47:41:841,45.082,0.013,-0.009,-0.014,-10.378,57.521,2.925
15:47:41:868,45.109,0.013,-0.009,-0.014,-10.378,57.521,2.925
15:47:41:895,45.137,0.004,-0.009,-0.004,-10.413,57.424,2.787
15:47:41:922,45.163,-0.003,-0.012,-0.006,-10.412,57.358,2.711
15:47:41:95,45.191,0.013,-0.001,-0.017,-10.411,57.335,2.664
15:47:41:977,45.219,0.013,-0.001,-0.017,-10.411,57.335,2.664
15:47:42:005,45.246,0.003,-0.009,-0.007,-10.413,57.296,2.552
15:47:42:031,45.273,0.006,-0.004,-0.013,-10.410,57.277,2.523
15:47:42:062,45.303,0.006,0.002,-0.008,-10.404,57.273,2.498
15:47:42:089,45.330,0.001,-0.001,0.006,-10.407,57.270,2.481
15:47:42:116,45.357,0.008,-0.008,-0.002,-10.417,57.272,2.455
15:47:42:145,45.386,-0.002,-0.009,-0.007,-10.433,57.268,2.443
15:47:42:173,45.414,-0.002,-0.009,-0.007,-10.433,57.268,2.443
15:47:42:2,45.442,0.011,-0.006,-0.009,-10.459,57.327,2.372
15:47:42:228,45.469,0.015,-0.018,-0.004,-10.487,57.351,2.369
15:47:42:256,45.497,-0.003,-0.008,-0.012,-10.553,57.373,2.382
15:47:42:284,45.526,-0.003,-0.008,-0.012,-10.553,57.373,2.382
15:47:42:311,45.552,0.007,-0.016,-0.004,-10.710,57.411,2.462
15:47:42:338,45.580,0.009,-0.005,-0.008,-10.899,57.410,2.641
15:47:42:368,45.609,0.009,-0.005,-0.008,-10.899,57.410,2.641
15:47:42:395,45.636,0.017,-0.012,-0.006,-11.095,57.406,2.861
15:47:42:422,45.663,0.003,-0.014,-0.006,-11.188,57.397,2.985
15:47:42:449,45.690,-0.009,-0.007,-0.018,-11.347,57.376,3.196
15:47:42:476,45.717,0.006,0.012,0.006,-11.514,57.365,3.424
15:47:42:504,45.745,0.006,0.012,0.006,-11.514,57.365,3.424
15:47:42:531,45.772,0.003,-0.016,-0.004,-11.767,57.313,3.811
15:47:42:558,45.799,0.003,-0.016,-0.004,-11.767,57.313,3.811
15:47:42:585,45.826,0.006,-0.018,-0.008,-11.860,57.273,3.965
15:47:42:612,45.853,0.038,0.014,0.024,-12.106,57.170,4.442
15:47:42:639,45.880,0.001,-0.001,0.009,-12.215,57.114,4.608
15:47:42:666,45.907,-0.011,-0.004,-0.013,-12.367,57.023,4.829
15:47:42:693,45.934,-0.017,0.003,-0.014,-12.414,56.987,4.950
15:47:42:721,45.962,-0.009,0.041,0.016,-12.459,56.985,5.073
15:47:42:748,45.989,-0.009,0.041,0.016,-12.459,56.985,5.073
15:47:42:775,46.016,0.005,-0.005,-0.004,-12.521,56.835,5.192
15:47:42:802,46.043,0.004,-0.009,-0.024,-12.560,56.772,5.279
15:47:42:83,46.071,0.002,-0.004,-0.004,-12.565,56.783,5.336
15:47:42:857,46.098,0.007,-0.001,-0.016,-12.573,56.770,5.450
15:47:42:884,46.125,0.007,-0.001,-0.016,-12.573,56.770,5.450
15:47:42:911,46.152,0.004,-0.006,-0.007,-12.577,56.768,5.508
15:47:42:938,46.179,0.004,-0.001,-0.002,-12.565,56.769,5.623
15:47:42:966,46.207,0.004,-0.001,-0.002,-12.565,56.769,5.623
15:47:42:992,46.234,0.005,-0.001,-0.008,-12.497,56.807,5.692
15:47:43:02,46.261,0.000,0.008,0.004,-12.444,56.848,5.711
15:47:43:047,46.288,0.000,0.008,0.004,-12.444,56.848,5.711
15:47:43:074,46.315,0.010,-0.005,-0.005,-12.413,56.849,5.702
15:47:43:101,46.342,0.005,-0.007,-0.001,-12.375,56.855,5.724
15:47:43:129,46.370,0.010,-0.001,-0.002,-12.375,56.862,5.745
15:47:43:156,46.397,0.010,-0.005,-0.003,-12.373,56.857,5.790
15:47:43:183,46.424,0.010,-0.005,-0.003,-12.373,56.857,5.790
15:47:43:21,46.451,0.010,-0.005,-0.003,-12.373,56.857,5.790
15:47:43:237,46.478,0.011,-0.003,-0.011,-12.379,56.861,5.815
15:47:43:264,46.505,0.002,-0.005,-0.001,-12.488,56.900,5.984
15:47:43:291,46.532,0.004,0.003,-0.004,-12.522,56.915,6.018
15:47:43:318,46.560,0.010,-0.003,0.001,-12.535,56.933,6.044
15:47:43:345,46.586,0.004,-0.005,0.003,-12.588,56.980,6.077
15:47:43:372,46.614,0.004,0.003,0.002,-12.625,57.001,6.093
15:47:43:399,46.640,0.002,0.000,-0.006,-12.669,57.018,6.116
15:47:43:427,46.668,0.005,-0.005,-0.004,-12.711,57.060,6.138
15:47:43:453,46.695,0.005,-0.006,-0.010,-12.735,57.092,6.158
15:47:43:481,46.722,0.005,-0.006,-0.010,-12.735,57.092,6.158
15:47:43:508,46.749,0.014,-0.001,-0.005,-12.813,57.124,6.226
15:47:43:536,46.778,0.002,0.000,-0.003,-12.840,57.084,6.234
15:47:43:563,46.804,0.005,0.000,-0.008,-12.859,57.047,6.236
15:47:43:59,46.831,0.015,-0.007,0.002,-12.856,57.029,6.233
15:47:43:617,46.859,-0.006,-0.004,-0.004,-12.859,56.988,6.262
15:47:43:645,46.886,-0.006,-0.004,-0.004,-12.859,56.988,6.262
15:47:43:672,46.914,0.002,-0.001,-0.008,-12.835,56.937,6.233
15:47:43:699,46.941,0.017,-0.006,-0.010,-12.818,56.939,6.207
15:47:43:726,46.967,0.005,-0.005,-0.009,-12.808,56.956,6.194
15:47:43:753,46.995,0.005,-0.005,-0.009,-12.808,56.956,6.194
15:47:43:78,47.021,0.005,-0.005,-0.009,-12.808,56.956,6.194
15:47:43:808,47.049,0.012,-0.007,-0.001,-12.810,56.989,6.201
15:47:43:835,47.077,0.005,-0.003,-0.006,-12.810,56.989,6.201
15:47:43:862,47.104,0.004,-0.002,0.000,-12.811,57.011,6.199
15:47:43:89,47.131,-0.002,0.001,-0.002,-12.811,57.011,6.199
15:47:43:917,47.158,0.012,-0.003,-0.004,-12.820,57.001,6.185
15:47:43:944,47.185,0.007,-0.003,-0.012,-12.832,56.971,6.171
15:47:43:971,47.212,0.015,-0.003,0.008,-12.864,56.942,6.176
15:47:43:998,47.239,-0.007,0.000,0.001,-12.896,56.903,6.183
15:47:44:025,47.267,0.000,-0.004,-0.010,-12.892,56.867,6.171
15:47:44:053,47.294,0.007,-0.008,-0.010,-12.884,56.800,6.158
15:47:44:08,47.322,0.011,-0.004,-0.001,-12.878,56.757,6.165
15:47:44:107,47.349,0.002,0.000,-0.012,-12.873,56.709,6.177
15:47:44:135,47.376,0.010,-0.003,-0.017,-12.839,56.693,6.177
15:47:44:162,47.403,0.001,-0.002,-0.018,-12.802,56.710,6.164
15:47:44:189,47.430,-0.004,0.002,0.013,-12.698,56.808,6.106
15:47:44:216,47.458,-0.003,0.009,0.006,-12.605,56.870,6.019
15:47:44:244,47.485,0.006,0.007,-0.001,-12.426,56.885,5.830
15:47:44:27,47.512,0.033,-0.015,-0.026,-12.299,56.824,5.682
15:47:44:298,47.539,0.028,-0.023,-0.025,-12.148,56.819,5.533
15:47:44:325,47.566,0.028,-0.023,-0.025,-12.148,56.819,5.533
15:47:44:352,47.593,0.007,-0.003,0.002,-12.046,56.902,5.483
15:47:44:379,47.620,0.010,-0.007,-0.009,-12.039,56.906,5.502
15:47:44:406,47.647,-0.003,0.003,-0.005,-12.038,56.942,5.527
15:47:44:434,47.675,-0.003,0.003,0.019,-12.019,56.990,5.547
15:47:44:46,47.702,0.008,-0.005,-0.007,-11.985,56.993,5.556
15:47:44:487,47.729,-0.002,0.000,-0.016,-11.987,57.017,5.580
15:47:44:515,47.756,-0.002,0.000,-0.016,-11.987,57.017,5.580
15:47:44:542,47.783,0.003,0.004,-0.007,-11.930,57.080,5.561
15:47:44:569,47.810,0.007,0.000,-0.002,-11.894,57.100,5.537
15:47:44:596,47.837,0.007,0.000,-0.002,-11.894,57.100,5.537
15:47:44:623,47.865,0.001,-0.006,-0.001,-11.767,57.205,5.452
15:47:44:651,47.892,0.001,-0.006,-0.001,-11.767,57.205,5.452
15:47:44:678,47.919,-0.017,0.005,-0.002,-11.399,57.374,5.115
15:47:44:705,47.946,-0.023,0.012,0.052,-11.099,57.445,4.791
15:47:44:732,47.973,-0.023,0.012,0.052,-11.099,57.445,4.791
15:47:44:76,48.001,0.034,-0.014,-0.013,-10.445,57.394,3.937
15:47:44:787,48.028,0.034,-0.014,-0.013,-10.445,57.394,3.937
15:47:44:814,48.056,-0.010,0.004,0.023,-9.851,57.515,3.129
15:47:44:841,48.082,-0.010,0.004,0.023,-9.851,57.515,3.129
15:47:44:868,48.110,0.028,0.024,-0.025,-9.515,57.495,2.613
15:47:44:895,48.136,0.047,-0.030,-0.029,-9.271,57.512,2.245
15:47:44:922,48.164,0.014,-0.029,-0.017,-9.098,57.608,1.993
15:47:44:949,48.190,0.016,-0.027,-0.007,-9.058,57.627,1.961
15:47:44:976,48.218,0.020,-0.018,0.001,-9.027,57.627,1.964
15:47:45:003,48.245,0.020,-0.018,0.001,-9.027,57.627,1.964
15:47:45:031,48.272,0.007,-0.006,-0.003,-9.031,57.629,1.999
15:47:45:058,48.299,-0.002,0.002,0.007,-9.023,57.610,2.043
15:47:45:085,48.326,0.006,-0.001,-0.002,-9.025,57.595,2.086
15:47:45:112,48.353,-0.006,-0.005,0.012,-9.009,57.600,2.109
15:47:45:14,48.381,0.003,0.003,-0.003,-8.986,57.587,2.109
15:47:45:167,48.408,0.005,-0.014,0.000,-8.896,57.527,2.023
15:47:45:195,48.436,0.005,-0.014,0.000,-8.896,57.527,2.023
15:47:45:221,48.463,0.005,-0.014,0.000,-8.896,57.527,2.023
15:47:45:249,48.490,0.020,-0.010,-0.020,-8.851,57.417,1.947
15:47:45:275,48.517,0.020,-0.010,-0.020,-8.851,57.417,1.947
15:47:45:303,48.544,0.018,-0.026,-0.009,-8.935,57.338,2.073
15:47:45:329,48.571,0.018,-0.026,-0.009,-8.935,57.338,2.073
15:47:45:356,48.598,0.018,-0.026,-0.009,-8.935,57.338,2.073
15:47:45:385,48.626,0.009,-0.017,-0.008,-9.329,57.054,2.742
15:47:45:411,48.653,0.009,-0.017,-0.008,-9.329,57.054,2.742
15:47:45:439,48.680,0.004,-0.010,0.007,-9.685,56.904,3.393
15:47:45:466,48.707,-0.002,-0.013,-0.005,-9.883,56.811,3.793
15:47:45:494,48.735,0.005,0.025,-0.023,-10.080,56.721,4.188
15:47:45:521,48.762,0.011,0.013,0.023,-10.190,56.736,4.445
15:47:45:549,48.790,0.004,-0.006,0.014,-10.392,56.795,4.812
15:47:45:575,48.817,0.004,-0.006,0.014,-10.392,56.795,4.812
15:47:45:603,48.844,-0.017,0.017,-0.003,-10.697,56.815,5.340
15:47:45:63,48.871,0.020,0.017,-0.006,-10.771,56.832,5.499
15:47:45:657,48.898,0.019,-0.002,0.015,-10.849,56.877,5.686
15:47:45:684,48.925,0.004,-0.016,-0.012,-10.940,56.968,5.843
15:47:45:711,48.953,0.004,-0.016,-0.012,-10.940,56.968,5.843
15:47:45:739,48.980,0.006,-0.004,-0.004,-11.009,57.087,6.040
15:47:45:765,49.007,0.011,0.000,-0.007,-11.012,57.142,6.095
15:47:45:793,49.034,0.003,-0.006,0.001,-11.005,57.226,6.169
15:47:45:82,49.061,0.008,-0.010,0.001,-11.012,57.308,6.237
15:47:45:848,49.089,0.008,-0.006,-0.001,-11.009,57.360,6.278
15:47:45:876,49.117,0.006,-0.007,0.005,-10.994,57.433,6.335
15:47:45:903,49.145,-0.004,0.011,0.009,-10.916,57.595,6.368
15:47:45:93,49.171,-0.010,0.010,0.004,-10.846,57.668,6.332
15:47:45:958,49.199,0.014,0.014,0.001,-10.706,57.727,6.196
15:47:45:985,49.226,0.007,0.005,0.002,-10.522,57.739,5.985
15:47:46:012,49.253,0.011,-0.008,-0.007,-10.414,57.749,5.845
15:47:46:039,49.280,0.006,-0.004,-0.016,-10.279,57.798,5.638
15:47:46:066,49.307,0.006,-0.004,-0.016,-10.279,57.798,5.638
15:47:46:093,49.335,0.008,0.004,0.006,-10.202,57.846,5.521
15:47:46:12,49.361,-0.009,0.007,0.005,-9.961,58.007,5.172
15:47:46:147,49.389,-0.009,0.007,0.005,-9.961,58.007,5.172
15:47:46:175,49.417,0.034,0.003,-0.017,-9.762,58.081,4.811
15:47:46:203,49.444,0.020,-0.016,-0.014,-9.691,58.101,4.677
15:47:46:23,49.471,0.019,-0.028,-0.006,-9.650,58.120,4.551
15:47:46:257,49.498,0.009,-0.008,-0.016,-9.630,58.113,4.484
15:47:46:284,49.525,0.013,-0.006,0.005,-9.615,58.090,4.420
15:47:46:311,49.552,0.012,-0.011,-0.002,-9.619,58.050,4.400
15:47:46:338,49.580,0.022,-0.007,-0.006,-9.642,58.011,4.397
15:47:46:366,49.607,0.010,-0.020,-0.010,-9.694,57.936,4.440
15:47:46:393,49.634,0.010,-0.020,-0.010,-9.694,57.936,4.440
15:47:46:42,49.661,0.023,-0.013,-0.007,-9.847,57.790,4.596
15:47:46:448,49.689,0.029,-0.035,-0.010,-9.973,57.704,4.743
15:47:46:474,49.716,0.029,-0.035,-0.010,-9.973,57.704,4.743
15:47:46:502,49.743,0.005,-0.005,0.004,-10.259,57.526,5.090
15:47:46:529,49.771,0.014,0.001,0.004,-10.382,57.443,5.256
15:47:46:556,49.798,0.016,-0.001,0.007,-10.592,57.373,5.526
15:47:46:584,49.825,-0.001,0.000,-0.006,-10.843,57.323,5.820
15:47:46:611,49.852,-0.001,0.000,-0.006,-10.843,57.323,5.820
15:47:46:638,49.879,-0.009,0.025,0.025,-11.270,57.300,6.301
15:47:46:665,49.906,-0.007,-0.001,0.011,-11.414,57.308,6.447
15:47:46:692,49.933,-0.001,-0.003,0.001,-11.618,57.288,6.607
15:47:46:719,49.960,-0.007,0.007,-0.004,-11.849,57.230,6.765
15:47:46:747,49.988,-0.007,0.007,-0.004,-11.849,57.230,6.765
15:47:46:774,50.015,0.016,0.002,0.005,-11.973,57.214,6.801
15:47:46:801,50.042,0.000,-0.004,-0.015,-12.039,57.200,6.806
15:47:46:828,50.069,0.000,-0.004,-0.015,-12.039,57.200,6.806
15:47:46:855,50.096,0.000,-0.004,-0.015,-12.039,57.200,6.806
15:47:46:882,50.123,0.007,-0.002,0.006,-12.141,57.245,6.781
15:47:46:909,50.150,0.013,-0.006,-0.004,-12.132,57.238,6.692
15:47:46:936,50.178,0.013,-0.006,-0.004,-12.132,57.238,6.692
15:47:46:963,50.204,-0.001,-0.006,-0.014,-12.137,57.229,6.669
15:47:46:99,50.232,0.000,0.001,0.008,-12.148,57.285,6.576
15:47:47:017,50.258,0.008,0.003,0.000,-12.132,57.289,6.528
15:47:47:045,50.286,0.007,-0.011,-0.005,-12.112,57.296,6.448
15:47:47:072,50.313,-0.001,-0.005,-0.002,-12.099,57.298,6.398
15:47:47:1,50.341,-0.001,-0.005,-0.002,-12.099,57.298,6.398
15:47:47:127,50.368,0.013,-0.005,0.002,-12.041,57.235,6.253
15:47:47:155,50.396,0.013,-0.005,0.002,-12.041,57.235,6.253
15:47:47:181,50.423,-0.006,0.000,0.000,-11.965,57.239,6.087
15:47:47:21,50.451,-0.001,0.009,0.004,-11.933,57.239,6.019
15:47:47:238,50.479,0.006,-0.003,-0.007,-11.870,57.209,5.911
15:47:47:266,50.507,0.006,-0.003,-0.007,-11.870,57.209,5.911
15:47:47:293,50.534,0.006,-0.003,-0.007,-11.870,57.209,5.911
15:47:47:32,50.561,0.007,-0.001,0.008,-11.694,57.221,5.657
15:47:47:347,50.588,0.021,-0.002,-0.007,-11.634,57.227,5.562
15:47:47:374,50.615,0.021,-0.002,-0.007,-11.634,57.227,5.562
15:47:47:401,50.642,0.012,-0.008,-0.004,-11.462,57.235,5.291
15:47:47:428,50.669,0.009,-0.006,-0.006,-11.419,57.240,5.221
15:47:47:456,50.697,0.009,-0.006,-0.006,-11.419,57.240,5.221
15:47:47:482,50.724,0.003,0.002,-0.004,-11.305,57.245,5.078
15:47:47:51,50.751,0.008,-0.002,0.005,-11.265,57.245,5.025
15:47:47:538,50.779,0.008,-0.001,-0.009,-11.209,57.251,4.950
15:47:47:565,50.806,0.007,-0.010,-0.005,-11.178,57.261,4.902
15:47:47:592,50.833,0.002,-0.003,0.000,-11.132,57.260,4.851
15:47:47:619,50.860,0.012,0.000,0.004,-11.085,57.263,4.794
15:47:47:646,50.888,0.004,-0.002,0.004,-11.070,57.239,4.754
15:47:47:673,50.914,0.002,-0.009,-0.007,-11.064,57.215,4.709
15:47:47:701,50.942,-0.003,0.002,0.006,-11.065,57.218,4.698
15:47:47:728,50.969,0.014,0.003,-0.006,-11.065,57.219,4.664
15:47:47:755,50.996,0.006,-0.001,-0.009,-11.064,57.207,4.628
15:47:47:782,51.023,0.002,0.000,0.001,-11.060,57.207,4.607
15:47:47:809,51.051,0.002,-0.005,0.002,-11.053,57.211,4.566
15:47:47:837,51.078,0.002,0.001,0.003,-11.035,57.210,4.514
15:47:47:864,51.105,0.012,-0.004,-0.018,-10.992,57.194,4.424
15:47:47:891,51.132,0.009,-0.002,0.006,-10.961,57.194,4.367
15:47:47:918,51.159,0.015,-0.013,-0.006,-10.944,57.195,4.282
15:47:47:945,51.186,0.011,-0.012,-0.007,-10.939,57.184,4.236
15:47:47:972,51.213,0.011,-0.012,-0.007,-10.939,57.184,4.236
15:47:47:999,51.241,0.007,-0.002,0.005,-10.947,57.172,4.195
15:47:48:026,51.268,0.015,-0.003,-0.005,-10.960,57.150,4.180
15:47:48:053,51.294,0.015,-0.003,-0.005,-10.960,57.150,4.180
15:47:48:081,51.323,0.008,-0.004,0.004,-11.106,57.037,4.235
15:47:48:109,51.350,0.017,-0.005,-0.002,-11.181,56.996,4.277
15:47:48:136,51.377,0.017,-0.005,-0.002,-11.181,56.996,4.277
15:47:48:163,51.405,-0.002,0.003,-0.003,-11.342,56.927,4.405
15:47:48:19,51.431,0.001,-0.001,0.005,-11.399,56.904,4.453
15:47:48:217,51.459,0.001,-0.001,0.005,-11.399,56.904,4.453
15:47:48:245,51.486,0.008,-0.003,-0.011,-11.612,56.812,4.604
15:47:48:272,51.514,0.006,-0.002,-0.008,-11.692,56.803,4.663
15:47:48:299,51.540,-0.004,-0.002,-0.002,-11.802,56.818,4.746
15:47:48:327,51.568,-0.004,-0.002,-0.002,-11.802,56.818,4.746
15:47:48:354,51.595,0.002,-0.005,-0.005,-11.973,56.812,4.887
15:47:48:382,51.623,0.009,-0.003,-0.004,-12.090,56.802,4.991
15:47:48:409,51.651,0.004,-0.001,-0.006,-12.170,56.793,5.061
15:47:48:436,51.677,0.019,-0.004,0.001,-12.280,56.787,5.173
15:47:48:463,51.705,0.003,-0.007,-0.005,-12.353,56.771,5.242
15:47:48:49,51.731,-0.001,0.002,-0.008,-12.466,56.761,5.337
15:47:48:518,51.759,0.014,0.004,-0.013,-12.530,56.754,5.393
15:47:48:545,51.787,0.012,-0.005,0.010,-12.611,56.744,5.468
15:47:48:572,51.813,0.007,-0.006,-0.013,-12.703,56.700,5.537
15:47:48:599,51.841,0.004,-0.008,-0.007,-12.754,56.692,5.577
15:47:48:626,51.867,0.004,-0.008,-0.007,-12.754,56.692,5.577
15:47:48:653,51.895,0.011,0.005,-0.002,-12.825,56.691,5.650
15:47:48:68,51.922,0.004,-0.004,-0.006,-12.834,56.689,5.669
15:47:48:708,51.949,0.009,-0.006,-0.005,-12.834,56.689,5.669
15:47:48:734,51.976,0.003,0.003,-0.003,-12.834,56.689,5.669
15:47:48:762,52.003,0.007,0.000,-0.004,-12.828,56.677,5.672
15:47:48:788,52.030,0.011,-0.007,-0.007,-12.829,56.659,5.678
15:47:48:816,52.058,0.011,-0.005,-0.001,-12.827,56.646,5.676
15:47:48:843,52.084,0.008,-0.004,0.001,-12.826,56.633,5.688
15:47:48:871,52.112,0.010,-0.002,-0.008,-12.825,56.611,5.691
15:47:48:898,52.139,0.010,-0.002,-0.008,-12.825,56.611,5.691
15:47:48:925,52.166,0.004,-0.001,-0.005,-12.821,56.572,5.701
15:47:48:952,52.193,0.008,-0.002,-0.001,-12.811,56.569,5.728
15:47:48:979,52.221,0.015,-0.008,0.001,-12.809,56.575,5.723
15:47:49:007,52.248,0.015,-0.008,0.001,-12.809,56.575,5.723
15:47:49:034,52.275,0.015,-0.008,0.001,-12.809,56.575,5.723
15:47:49:062,52.303,0.000,0.004,-0.006,-12.809,56.575,5.723
15:47:49:089,52.330,0.013,-0.005,-0.003,-12.806,56.567,5.730
15:47:49:116,52.357,0.003,-0.003,-0.010,-12.805,56.545,5.732
15:47:49:143,52.384,0.012,-0.005,-0.006,-12.805,56.545,5.732
15:47:49:17,52.411,-0.001,0.000,-0.004,-12.805,56.545,5.732
15:47:49:197,52.438,0.008,-0.004,0.002,-12.805,56.545,5.732
15:47:49:224,52.465,0.009,-0.004,-0.009,-12.805,56.545,5.732
15:47:49:251,52.492,0.001,0.000,0.002,-12.805,56.546,5.743
15:47:49:278,52.519,0.001,0.000,0.002,-12.805,56.546,5.743
15:47:49:305,52.546,0.001,0.000,0.002,-12.805,56.546,5.743
15:47:49:332,52.574,0.005,0.002,0.001,-12.805,56.546,5.743
15:47:49:36,52.601,0.002,-0.001,-0.004,-12.805,56.546,5.743
15:47:49:388,52.629,0.009,-0.001,0.000,-12.792,56.547,5.738
15:47:49:414,52.656,0.009,-0.001,0.000,-12.792,56.547,5.738
15:47:49:442,52.683,0.012,-0.010,0.003,-12.719,56.576,5.657
15:47:49:469,52.710,0.007,0.003,-0.003,-12.709,56.593,5.643
15:47:49:496,52.737,0.007,-0.002,-0.006,-12.679,56.596,5.612
15:47:49:524,52.765,0.021,-0.009,-0.009,-12.653,56.598,5.590
15:47:49:551,52.793,0.010,-0.006,-0.004,-12.627,56.600,5.568
15:47:49:579,52.820,0.006,-0.004,-0.005,-12.611,56.585,5.571
15:47:49:606,52.847,0.013,-0.003,-0.002,-12.591,56.571,5.580
15:47:49:633,52.874,0.008,0.000,-0.006,-12.568,56.550,5.581
15:47:49:66,52.901,0.010,-0.004,-0.005,-12.556,56.534,5.593
15:47:49:687,52.928,0.008,-0.003,-0.002,-12.555,56.531,5.604
15:47:49:714,52.955,0.008,-0.003,-0.002,-12.555,56.531,5.604
15:47:49:741,52.982,0.006,-0.003,-0.007,-12.502,56.562,5.613
15:47:49:768,53.009,0.015,-0.005,0.000,-12.503,56.585,5.622
15:47:49:795,53.037,0.006,-0.006,-0.003,-12.511,56.610,5.633
15:47:49:823,53.064,0.008,0.003,-0.005,-12.507,56.621,5.633
15:47:49:85,53.091,0.004,-0.001,-0.001,-12.507,56.621,5.633
15:47:49:877,53.119,0.009,-0.007,0.000,-12.511,56.651,5.624
15:47:49:904,53.145,0.004,-0.003,-0.008,-12.513,56.664,5.627
15:47:49:931,53.172,0.010,0.001,0.004,-12.516,56.672,5.619
15:47:49:958,53.200,0.017,-0.004,-0.009,-12.516,56.672,5.619
15:47:49:985,53.226,0.010,-0.008,-0.006,-12.523,56.678,5.622
15:47:50:012,53.254,0.009,-0.005,-0.005,-12.534,56.692,5.632
15:47:50:04,53.281,0.011,-0.002,0.005,-12.580,56.713,5.655
15:47:50:066,53.308,0.010,-0.006,-0.003,-12.617,56.715,5.677
15:47:50:094,53.335,0.013,-0.004,-0.007,-12.654,56.718,5.699
15:47:50:12,53.362,0.012,-0.002,-0.002,-12.702,56.715,5.722
15:47:50:148,53.389,0.007,-0.002,0.002,-12.739,56.707,5.730
15:47:50:175,53.416,0.005,-0.003,-0.002,-12.778,56.693,5.736
15:47:50:202,53.443,0.005,-0.003,-0.002,-12.778,56.693,5.736
15:47:50:229,53.470,0.009,-0.002,-0.001,-12.846,56.665,5.737
15:47:50:256,53.497,0.003,0.001,-0.001,-12.876,56.632,5.749
15:47:50:283,53.524,0.003,0.001,-0.001,-12.876,56.632,5.749
15:47:50:31,53.551,0.013,-0.003,-0.002,-12.919,56.570,5.764
15:47:50:337,53.579,0.008,-0.003,0.000,-12.946,56.521,5.773
15:47:50:365,53.606,0.008,-0.001,0.005,-12.946,56.471,5.784
15:47:50:392,53.634,0.008,-0.001,0.005,-12.946,56.471,5.784
15:47:50:419,53.660,0.009,-0.005,-0.001,-12.940,56.409,5.797
15:47:50:446,53.688,0.009,-0.005,-0.001,-12.940,56.409,5.797
15:47:50:474,53.715,0.010,-0.002,-0.003,-12.932,56.352,5.790
15:47:50:501,53.742,0.006,-0.002,-0.010,-12.931,56.330,5.792
15:47:50:528,53.769,0.006,-0.002,-0.010,-12.931,56.330,5.792
15:47:50:555,53.796,0.011,-0.003,-0.005,-12.931,56.330,5.792
15:47:50:582,53.824,0.003,-0.001,-0.001,-12.933,56.324,5.797
15:47:50:609,53.851,0.010,-0.004,-0.012,-12.930,56.280,5.802
15:47:50:637,53.878,0.010,-0.004,-0.012,-12.930,56.280,5.802
15:47:50:664,53.905,0.005,-0.001,-0.005,-12.941,56.292,5.846
15:47:50:692,53.933,0.015,-0.003,0.004,-12.948,56.317,5.857
