Time,Second,AccelerationX,AccelerationY,AccelerationZ,EulerAnglesX,EulerAnglesY,EulerAnglesZ
15:53:09:118,0.000,0.009,-0.002,-0.019,-12.029,37.539,7.804
15:53:09:147,0.028,0.003,-0.014,-0.015,-11.998,37.547,7.728
15:53:09:173,0.055,0.004,-0.003,-0.010,-11.970,37.552,7.626
15:53:09:201,0.082,0.003,-0.002,-0.005,-11.943,37.553,7.565
15:53:09:228,0.110,0.000,-0.004,-0.009,-11.936,37.522,7.456
15:53:09:255,0.137,-0.002,-0.004,-0.010,-11.925,37.498,7.388
15:53:09:282,0.164,-0.007,-0.007,-0.011,-11.895,37.467,7.273
15:53:09:309,0.191,-0.012,-0.011,-0.013,-11.852,37.419,7.133
15:53:09:336,0.218,0.002,0.013,0.002,-11.811,37.364,7.019
15:53:09:363,0.245,-0.007,-0.013,-0.006,-11.716,37.330,6.812
15:53:09:391,0.272,-0.012,0.007,-0.007,-11.655,37.304,6.653
15:53:09:417,0.299,-0.001,-0.010,-0.004,-11.537,37.249,6.386
15:53:09:445,0.327,-0.018,-0.009,-0.012,-11.409,37.192,6.076
15:53:09:472,0.354,-0.018,-0.009,-0.012,-11.409,37.192,6.076
15:53:09:5,0.381,-0.003,-0.003,-0.007,-11.120,36.976,5.294
15:53:09:527,0.409,0.042,0.009,-0.085,-11.109,36.742,4.916
15:53:09:554,0.436,0.003,-0.027,0.000,-11.101,36.660,4.689
15:53:09:582,0.463,-0.025,0.025,0.019,-11.141,36.552,4.345
15:53:09:608,0.490,0.001,0.006,-0.036,-11.207,36.379,3.977
15:53:09:636,0.517,0.004,-0.005,-0.017,-11.212,36.318,3.745
15:53:09:662,0.544,0.020,-0.010,0.027,-11.207,36.245,3.471
15:53:09:69,0.572,0.017,-0.021,-0.009,-11.205,36.109,3.346
15:53:09:717,0.599,0.003,-0.040,-0.034,-11.157,35.755,3.307
15:53:09:744,0.626,0.002,-0.031,-0.004,-11.010,35.530,3.274
15:53:09:771,0.653,0.002,-0.031,-0.004,-11.010,35.530,3.274
15:53:09:798,0.680,-0.097,0.034,-0.004,-11.015,35.288,3.131
15:53:09:825,0.707,-0.079,0.062,-0.011,-11.042,35.110,2.912
15:53:09:853,0.734,0.008,0.008,-0.051,-11.102,34.920,2.416
15:53:09:88,0.762,0.039,-0.039,-0.028,-11.235,34.792,1.930
15:53:09:907,0.788,0.014,-0.024,0.016,-11.341,34.791,1.632
15:53:09:934,0.816,-0.009,-0.001,-0.004,-11.489,34.783,1.270
15:53:09:961,0.843,0.007,0.049,-0.063,-11.622,34.765,1.049
15:53:09:988,0.870,-0.008,0.000,-0.037,-11.835,34.876,0.732
15:53:10:016,0.897,0.004,-0.021,0.001,-11.922,34.889,0.620
15:53:10:043,0.925,-0.020,0.030,-0.032,-12.071,34.803,0.494
15:53:10:07,0.952,-0.135,0.055,-0.002,-12.127,34.837,0.331
15:53:10:098,0.980,-0.040,0.062,-0.035,-12.099,34.833,0.129
15:53:10:125,1.007,0.006,0.030,-0.055,-11.849,34.786,-0.260
15:53:10:152,1.034,0.006,0.030,-0.055,-11.849,34.786,-0.260
15:53:10:179,1.061,-0.012,0.000,0.028,-11.177,34.894,-0.953
15:53:10:207,1.088,-0.008,-0.084,-0.026,-10.448,34.957,-1.677
15:53:10:234,1.115,-0.008,-0.084,-0.026,-10.448,34.957,-1.677
15:53:10:261,1.143,-0.008,-0.084,-0.026,-10.448,34.957,-1.677
15:53:10:289,1.170,0.021,-0.008,-0.062,-9.069,34.942,-2.960
15:53:10:316,1.198,0.021,-0.008,-0.062,-9.069,34.942,-2.960
15:53:10:343,1.225,-0.032,-0.005,0.017,-8.173,35.127,-3.430
15:53:10:371,1.252,-0.049,0.031,-0.026,-7.636,35.095,-3.734
15:53:10:399,1.280,-0.049,0.031,-0.026,-7.636,35.095,-3.734
15:53:10:426,1.308,-0.039,0.069,0.100,-6.585,34.960,-4.511
15:53:10:453,1.335,-0.049,0.060,0.092,-6.134,34.890,-4.903
15:53:10:48,1.362,-0.085,0.080,0.059,-5.442,34.680,-5.695
15:53:10:507,1.389,-0.068,0.064,0.013,-4.573,34.419,-6.652
15:53:10:534,1.416,-0.079,0.100,-0.007,-3.936,34.218,-7.375
15:53:10:561,1.443,-0.137,0.119,-0.160,-2.927,33.929,-8.525
15:53:10:589,1.470,-0.129,0.101,-0.164,-2.101,33.724,-9.332
15:53:10:616,1.498,-0.195,0.105,-0.128,-0.578,33.711,-10.701
15:53:10:644,1.525,-0.250,0.062,-0.024,0.883,33.781,-12.222
15:53:10:671,1.553,-0.283,0.092,-0.060,2.235,33.889,-13.533
15:53:10:698,1.580,-0.283,0.092,-0.060,2.235,33.889,-13.533
15:53:10:726,1.607,-0.620,0.173,-0.413,6.372,34.555,-17.817
15:53:10:752,1.634,-0.819,0.217,-0.354,9.897,36.092,-21.219
15:53:10:78,1.661,-0.459,0.674,-0.353,14.647,38.452,-25.233
15:53:10:807,1.689,-0.941,0.437,-0.376,18.273,39.846,-27.714
15:53:10:834,1.715,-0.883,-0.321,-0.243,23.668,40.716,-30.950
15:53:10:861,1.743,-0.686,-0.800,0.186,26.979,41.494,-32.227
15:53:10:888,1.769,-0.520,-1.110,-0.059,26.088,36.725,-35.452
15:53:10:915,1.797,-0.520,-1.110,-0.059,26.088,36.725,-35.452
15:53:10:942,1.824,-0.394,-1.005,-0.288,21.772,33.142,-35.908
15:53:10:969,1.851,-0.330,-0.702,-0.079,13.042,31.368,-31.922
15:53:10:996,1.878,-0.522,-0.560,0.169,7.492,31.531,-27.112
15:53:11:023,1.905,-0.522,-0.560,0.169,7.492,31.531,-27.112
15:53:11:051,1.932,-0.211,0.406,0.146,-8.529,29.535,-10.077
15:53:11:078,1.960,-0.211,0.406,0.146,-8.529,29.535,-10.077
15:53:11:106,1.988,-0.211,0.406,0.146,-8.529,29.535,-10.077
15:53:11:133,2.015,0.897,1.146,0.380,-17.820,25.326,3.323
15:53:11:161,2.042,1.530,0.378,-0.138,-23.650,21.662,15.642
15:53:11:188,2.070,1.910,-0.479,-0.125,-25.045,20.166,18.874
15:53:11:216,2.098,1.494,-0.333,0.357,-26.619,19.529,21.553
15:53:11:243,2.124,1.490,-0.353,0.135,-26.430,19.919,20.974
15:53:11:27,2.152,1.079,0.175,0.275,-25.661,20.742,19.054
15:53:11:297,2.179,-1.156,0.495,0.403,-24.137,22.865,16.219
15:53:11:324,2.206,0.072,0.232,0.663,-23.299,23.602,14.088
15:53:11:351,2.233,0.830,0.199,-0.218,-21.809,22.005,10.977
15:53:11:378,2.260,0.010,-0.240,0.145,-20.170,20.502,8.893
15:53:11:405,2.287,0.401,0.074,-0.097,-19.493,19.818,7.784
15:53:11:432,2.314,0.031,-0.064,-0.048,-18.832,19.722,6.537
15:53:11:459,2.341,0.059,0.061,0.037,-18.367,19.971,6.037
15:53:11:487,2.368,0.017,0.002,-0.038,-17.844,20.329,5.504
15:53:11:514,2.396,0.028,-0.007,-0.016,-17.609,20.542,5.173
15:53:11:541,2.422,0.016,0.017,-0.108,-17.361,20.878,4.649
15:53:11:568,2.449,0.098,-0.026,-0.003,-17.049,21.410,4.130
15:53:11:595,2.477,-0.009,0.036,-0.031,-16.810,22.728,3.186
15:53:11:623,2.504,-0.009,0.036,-0.031,-16.810,22.728,3.186
15:53:11:65,2.531,-0.093,0.033,-0.004,-16.065,24.170,1.881
15:53:11:677,2.559,-0.093,0.033,-0.004,-16.065,24.170,1.881
15:53:11:705,2.586,-0.033,0.086,-0.021,-15.426,23.574,0.780
15:53:11:732,2.614,-0.031,0.035,0.042,-14.148,23.483,-1.318
15:53:11:759,2.641,-0.096,0.038,0.066,-13.549,23.839,-2.243
15:53:11:786,2.668,-0.048,0.122,-0.004,-12.511,23.076,-3.871
15:53:11:813,2.695,-0.091,0.136,-0.049,-11.733,23.260,-5.090
15:53:11:841,2.722,-0.103,0.123,-0.051,-10.374,22.541,-7.056
15:53:11:868,2.749,-0.130,0.163,-0.045,-8.783,21.710,-9.261
15:53:11:895,2.777,-0.215,0.194,-0.044,-7.563,22.021,-10.892
15:53:11:922,2.803,-0.403,0.262,-0.130,-5.496,21.748,-13.706
15:53:11:949,2.831,-0.528,0.302,-0.211,-3.991,22.278,-15.958
15:53:11:976,2.858,-0.868,0.353,-0.285,-1.221,22.826,-19.890
15:53:12:003,2.885,-0.808,0.515,-0.346,1.830,24.310,-24.868
15:53:12:03,2.912,-0.556,0.681,-0.295,4.675,25.106,-28.893
15:53:12:058,2.940,-0.755,0.372,-0.623,9.944,26.253,-34.726
15:53:12:085,2.967,-0.846,-0.069,-0.389,13.714,27.057,-37.794
15:53:12:112,2.994,-0.043,-0.659,-0.239,19.986,28.441,-40.334
15:53:12:139,3.021,-0.555,-1.224,0.234,22.655,30.043,-40.541
15:53:12:167,3.048,-0.295,-1.223,0.215,23.830,31.435,-39.626
15:53:12:194,3.076,-0.365,-1.042,0.123,21.879,32.483,-38.327
15:53:12:221,3.103,-0.356,-0.936,0.063,19.301,33.026,-37.097
15:53:12:249,3.131,-0.445,-0.815,0.050,13.657,33.462,-34.504
15:53:12:276,3.157,-0.517,-0.626,0.093,9.197,33.595,-32.026
15:53:12:303,3.185,-0.582,-0.370,0.164,2.409,34.040,-26.918
15:53:12:33,3.212,-0.537,-0.040,0.349,-3.838,34.973,-20.542
15:53:12:358,3.239,-0.527,0.144,0.465,-7.855,35.739,-15.710
15:53:12:384,3.266,-0.195,0.693,0.669,-14.016,36.292,-7.789
15:53:12:411,3.293,0.761,1.347,0.454,-18.076,35.844,-1.972
15:53:12:438,3.320,1.798,0.533,0.149,-26.676,34.304,14.820
15:53:12:465,3.347,2.444,-0.318,-0.569,-27.915,33.537,18.073
15:53:12:493,3.374,2.444,-0.318,-0.569,-27.915,33.537,18.073
15:53:12:52,3.402,2.444,-0.318,-0.569,-27.915,33.537,18.073
15:53:12:548,3.430,1.975,0.134,-0.009,-27.700,36.309,17.101
15:53:12:577,3.459,0.296,0.180,-0.069,-24.584,41.256,10.631
15:53:12:605,3.486,0.800,0.155,0.135,-22.430,38.810,8.108
15:53:12:631,3.513,0.338,-0.162,-0.091,-20.390,38.170,5.770
15:53:12:659,3.540,0.338,-0.162,-0.091,-20.390,38.170,5.770
15:53:12:686,3.568,-0.024,-0.013,-0.096,-18.622,38.191,3.173
15:53:12:713,3.595,0.069,-0.032,-0.058,-18.028,38.340,2.559
15:53:12:741,3.622,0.069,-0.032,-0.058,-18.028,38.340,2.559
15:53:12:768,3.649,-0.025,-0.022,-0.013,-17.266,38.657,2.033
15:53:12:794,3.676,-0.018,-0.029,-0.001,-16.688,39.065,1.660
15:53:12:822,3.704,-0.032,-0.004,-0.060,-16.541,39.368,1.649
15:53:12:849,3.731,-0.064,-0.015,-0.010,-16.370,39.739,1.631
15:53:12:876,3.758,-0.064,-0.015,-0.010,-16.370,39.739,1.631
15:53:12:904,3.785,-0.121,0.016,0.044,-16.117,40.243,1.389
15:53:12:931,3.813,-0.068,0.031,-0.089,-15.832,40.709,0.428
15:53:12:958,3.839,-0.068,0.031,-0.089,-15.832,40.709,0.428
15:53:12:985,3.867,-0.098,0.031,0.058,-14.968,41.429,-1.170
15:53:13:012,3.894,-0.134,0.044,-0.052,-14.394,41.533,-2.572
15:53:13:04,3.922,-0.134,0.044,-0.052,-14.394,41.533,-2.572
15:53:13:067,3.949,-0.108,0.099,0.018,-13.821,41.657,-3.679
15:53:13:095,3.977,-0.049,0.196,0.141,-11.090,44.675,-7.989
15:53:13:122,4.004,-0.058,0.193,0.081,-10.080,46.888,-9.657
15:53:13:149,4.031,-0.222,0.217,0.020,-8.525,47.785,-12.218
15:53:13:177,4.059,-0.222,0.217,0.020,-8.525,47.785,-12.218
15:53:13:204,4.086,-0.770,0.347,0.144,-3.480,53.534,-19.725
15:53:13:231,4.113,-0.963,0.546,0.213,3.689,58.724,-30.241
15:53:13:258,4.140,-1.005,0.413,0.175,7.216,60.252,-34.661
15:53:13:286,4.167,-0.711,-0.141,-0.036,14.002,61.854,-39.881
15:53:13:312,4.194,-0.429,-0.223,0.244,18.375,62.818,-41.755
15:53:13:34,4.222,-0.429,-0.223,0.244,18.375,62.818,-41.755
15:53:13:368,4.250,-0.054,-1.442,0.625,24.055,66.773,-42.324
15:53:13:395,4.276,-0.054,-1.442,0.625,24.055,66.773,-42.324
15:53:13:422,4.304,-0.066,-0.988,0.522,18.407,70.827,-37.036
15:53:13:449,4.330,-0.161,-0.778,0.590,14.433,71.876,-34.778
15:53:13:476,4.358,-0.298,-0.487,0.733,7.668,73.248,-30.378
15:53:13:503,4.385,-0.117,-0.140,0.746,3.166,74.031,-26.655
15:53:13:53,4.412,0.027,0.089,0.730,-2.927,75.312,-20.078
15:53:13:557,4.439,0.338,0.407,0.890,-8.398,77.186,-12.462
15:53:13:585,4.466,0.648,0.810,0.614,-12.097,78.312,-7.072
15:53:13:612,4.494,0.648,0.810,0.614,-12.097,78.312,-7.072
15:53:13:639,4.521,1.381,1.183,-0.847,-20.698,79.571,6.831
15:53:13:666,4.548,0.906,0.316,-1.502,-23.710,79.884,14.067
15:53:13:693,4.575,1.089,-0.666,-1.843,-25.452,80.483,18.494
15:53:13:72,4.602,1.074,-0.416,-1.494,-26.540,82.576,19.623
15:53:13:748,4.629,0.385,-0.258,-1.249,-26.633,86.032,18.688
15:53:13:775,4.657,0.047,-0.154,-0.332,-25.255,92.794,14.301
15:53:13:802,4.684,0.047,-0.154,-0.332,-25.255,92.794,14.301
15:53:13:829,4.711,0.047,-0.154,-0.332,-25.255,92.794,14.301
15:53:13:856,4.738,0.082,0.248,-0.209,-23.122,91.253,9.857
15:53:13:884,4.765,-0.059,-0.037,0.017,-22.860,91.390,9.323
15:53:13:91,4.792,-0.137,0.096,-0.141,-22.440,91.184,8.774
15:53:13:938,4.819,-0.194,-0.003,0.021,-21.833,91.339,8.534
15:53:13:965,4.846,-0.194,-0.003,0.021,-21.833,91.339,8.534
15:53:13:992,4.874,0.020,-0.017,0.037,-19.085,92.753,7.479
15:53:14:019,4.901,0.017,-0.026,0.003,-18.256,92.966,6.918
15:53:14:046,4.928,-0.031,-0.013,-0.052,-17.216,93.102,5.963
15:53:14:073,4.954,-0.045,0.008,-0.043,-16.632,93.154,5.345
15:53:14:1,4.982,-0.065,-0.001,-0.010,-15.726,93.556,4.542
15:53:14:127,5.009,-0.054,0.006,0.084,-15.124,93.860,3.993
15:53:14:155,5.036,-0.045,0.013,0.038,-14.288,93.786,2.926
15:53:14:181,5.063,-0.084,0.034,0.029,-13.504,93.487,1.530
15:53:14:209,5.090,-0.058,0.068,0.040,-12.913,93.437,0.464
15:53:14:236,5.118,-0.040,0.051,0.029,-11.801,93.177,-1.383
15:53:14:263,5.144,-0.035,0.147,0.020,-10.942,93.309,-2.796
15:53:14:29,5.172,-0.050,0.180,0.057,-9.510,93.323,-5.232
15:53:14:317,5.199,-0.080,0.208,0.136,-7.916,93.894,-7.894
15:53:14:344,5.226,-0.107,0.290,0.169,-6.800,93.918,-9.766
15:53:14:372,5.254,-0.244,0.291,0.273,-4.879,94.888,-12.848
15:53:14:399,5.281,-0.296,0.287,0.363,-3.333,95.461,-15.171
15:53:14:427,5.308,-0.588,0.348,0.561,-0.580,97.080,-19.339
15:53:14:454,5.336,-0.812,0.363,1.068,3.035,99.946,-24.447
15:53:14:481,5.362,-0.801,0.377,1.013,6.302,102.693,-28.283
15:53:14:508,5.390,-0.602,-0.022,0.759,17.822,109.636,-36.692
15:53:14:536,5.417,-0.602,-0.022,0.759,17.822,109.636,-36.692
15:53:14:563,5.445,-0.471,-0.465,-0.155,24.273,111.756,-39.401
15:53:14:59,5.472,-0.471,-0.465,-0.155,24.273,111.756,-39.401
15:53:14:617,5.499,-0.471,-0.465,-0.155,24.273,111.756,-39.401
15:53:14:644,5.526,0.205,-1.154,0.532,23.810,117.583,-35.809
15:53:14:671,5.553,-0.036,-0.703,0.480,12.491,116.699,-31.684
15:53:14:698,5.580,-0.036,-0.703,0.480,12.491,116.699,-31.684
15:53:14:725,5.607,-0.036,-0.703,0.480,12.491,116.699,-31.684
15:53:14:753,5.634,0.303,0.046,0.570,-5.561,117.401,-16.658
15:53:14:78,5.661,0.442,0.263,0.486,-9.487,117.958,-11.744
15:53:14:807,5.689,0.649,0.738,-0.022,-15.447,118.267,-3.786
15:53:14:834,5.715,0.536,1.106,-0.743,-19.301,117.732,2.153
15:53:14:861,5.743,0.536,1.106,-0.743,-19.301,117.732,2.153
15:53:14:888,5.770,-0.119,0.310,-1.880,-26.656,116.206,16.268
15:53:14:915,5.797,-0.210,-0.518,-2.408,-28.695,114.327,21.431
15:53:14:942,5.824,0.204,-0.472,-2.071,-29.639,114.542,22.913
15:53:14:97,5.852,-0.197,-0.172,-1.415,-28.906,114.964,21.788
15:53:14:998,5.880,-0.390,0.464,1.072,-26.857,116.512,18.246
15:53:15:025,5.907,0.196,-0.647,-0.821,-25.817,117.990,16.772
15:53:15:052,5.934,-0.696,0.353,-0.674,-24.112,116.854,13.007
15:53:15:079,5.961,0.263,0.345,-0.010,-22.942,115.332,11.427
15:53:15:107,5.989,-0.028,-0.518,-0.235,-21.151,114.249,9.453
15:53:15:134,6.016,-0.058,0.174,-0.064,-20.219,114.054,7.787
15:53:15:161,6.043,-0.104,-0.048,-0.068,-19.394,114.581,6.891
15:53:15:189,6.070,-0.068,-0.021,-0.069,-18.387,115.108,5.898
15:53:15:216,6.098,-0.024,-0.051,-0.024,-17.765,115.446,5.435
15:53:15:243,6.124,-0.035,-0.033,-0.091,-17.218,115.490,4.889
15:53:15:271,6.152,-0.048,-0.027,-0.068,-17.008,115.993,4.556
15:53:15:297,6.179,-0.088,0.012,-0.010,-16.875,117.161,4.005
15:53:15:324,6.206,-0.088,0.012,-0.010,-16.875,117.161,4.005
15:53:15:351,6.233,-0.003,-0.003,0.118,-16.638,117.421,3.708
15:53:15:378,6.260,-0.003,-0.003,0.118,-16.638,117.421,3.708
15:53:15:406,6.288,0.015,0.060,0.031,-15.460,118.185,1.968
15:53:15:434,6.316,-0.031,0.044,0.059,-14.107,118.635,-0.315
15:53:15:461,6.343,0.014,0.104,0.013,-12.357,119.304,-3.289
15:53:15:488,6.370,-0.004,0.150,0.048,-11.107,119.850,-5.383
15:53:15:515,6.397,-0.004,0.150,0.048,-11.107,119.850,-5.383
15:53:15:542,6.424,-0.073,0.204,0.113,-8.611,120.992,-9.196
15:53:15:57,6.452,-0.123,0.217,0.200,-7.507,121.452,-10.925
15:53:15:597,6.479,-0.133,0.284,0.421,-5.515,122.566,-13.829
15:53:15:625,6.507,-0.236,0.458,0.559,-3.945,123.481,-16.156
15:53:15:653,6.534,-0.236,0.458,0.559,-3.945,123.481,-16.156
15:53:15:679,6.561,-0.162,0.359,0.820,3.329,128.674,-25.771
15:53:15:707,6.588,-0.162,0.359,0.820,3.329,128.674,-25.771
15:53:15:734,6.616,-0.301,0.042,1.085,10.866,133.913,-34.657
15:53:15:762,6.643,-0.093,-0.961,0.390,14.724,136.430,-36.246
15:53:15:789,6.671,0.471,-1.278,0.866,20.435,142.374,-34.972
15:53:15:817,6.699,0.597,-1.149,0.298,22.495,147.274,-32.719
15:53:15:844,6.725,0.597,-1.054,0.352,21.512,149.474,-31.798
15:53:15:871,6.753,0.365,-0.831,0.264,17.969,151.515,-30.529
15:53:15:898,6.780,0.214,-0.685,0.251,14.183,152.127,-29.618
15:53:15:925,6.807,0.412,-0.555,0.535,6.683,152.015,-27.057
15:53:15:952,6.834,0.447,-0.167,0.402,1.406,151.783,-24.223
15:53:15:98,6.861,0.562,0.009,0.276,-5.525,152.218,-18.842
15:53:16:007,6.889,0.709,0.313,0.005,-11.414,153.227,-12.443
15:53:16:034,6.916,0.599,0.588,-0.294,-15.241,153.644,-7.733
15:53:16:062,6.943,-0.015,1.195,-0.905,-20.974,153.535,0.189
15:53:16:089,6.971,-0.015,1.195,-0.905,-20.974,153.535,0.189
15:53:16:116,6.997,-0.166,0.878,-1.545,-24.481,153.532,5.632
15:53:16:143,7.025,-0.166,0.878,-1.545,-24.481,153.532,5.632
15:53:16:17,7.051,-0.925,0.057,-1.319,-28.550,155.908,14.251
15:53:16:197,7.079,1.412,0.843,0.896,-27.576,158.045,12.323
15:53:16:224,7.106,1.412,0.843,0.896,-27.576,158.045,12.323
15:53:16:252,7.133,1.412,0.843,0.896,-27.576,158.045,12.323
15:53:16:28,7.161,0.469,0.288,-0.364,-24.721,158.893,7.143
15:53:16:307,7.189,0.469,0.288,-0.364,-24.721,158.893,7.143
15:53:16:334,7.216,0.017,0.027,-0.080,-21.016,158.603,3.790
15:53:16:361,7.243,-0.250,0.038,-0.023,-19.492,158.338,2.264
15:53:16:388,7.270,-0.071,0.010,-0.022,-18.916,158.597,1.987
15:53:16:415,7.297,-0.013,0.001,-0.027,-18.225,159.103,1.769
15:53:16:443,7.324,-0.013,0.001,-0.027,-18.225,159.103,1.769
15:53:16:47,7.351,-0.024,-0.034,0.098,-17.621,159.685,1.296
15:53:16:498,7.380,-0.046,-0.014,0.028,-17.293,160.163,0.755
15:53:16:525,7.407,-0.046,-0.014,0.028,-17.293,160.163,0.755
15:53:16:552,7.434,-0.046,-0.014,0.028,-17.293,160.163,0.755
15:53:16:579,7.461,0.023,-0.028,-0.049,-17.069,160.513,0.435
15:53:16:606,7.488,0.043,0.041,0.139,-16.599,162.109,-1.171
15:53:16:633,7.515,0.043,0.041,0.139,-16.599,162.109,-1.171
15:53:16:66,7.542,0.043,0.041,0.139,-16.599,162.109,-1.171
15:53:16:687,7.569,0.071,0.130,0.085,-14.626,165.999,-5.072
15:53:16:714,7.596,0.236,0.083,0.038,-13.772,167.741,-6.361
15:53:16:742,7.624,0.199,0.146,-0.005,-12.505,168.653,-8.584
15:53:16:769,7.650,0.158,0.185,0.100,-11.077,170.294,-10.977
15:53:16:796,7.678,0.145,0.178,0.168,-10.048,170.789,-12.737
15:53:16:823,7.705,0.145,0.178,0.168,-10.048,170.789,-12.737
15:53:16:851,7.732,0.651,0.304,0.525,-3.978,175.836,-22.374
15:53:16:878,7.760,0.651,0.304,0.525,-3.978,175.836,-22.374
15:53:16:906,7.788,0.651,0.304,0.525,-3.978,175.836,-22.374
15:53:16:936,7.818,0.389,0.517,0.916,7.859,-177.990,-37.930
15:53:16:963,7.845,0.389,0.517,0.916,7.859,-177.990,-37.930
15:53:16:991,7.872,0.389,0.517,0.916,7.859,-177.990,-37.930
15:53:17:018,7.900,0.503,-1.304,0.015,21.467,-171.214,-41.463
15:53:17:045,7.926,0.403,-1.202,-0.076,22.998,-168.323,-39.909
15:53:17:072,7.954,0.452,-1.163,-0.111,21.144,-165.548,-37.467
15:53:17:099,7.981,0.493,-1.051,-0.080,18.275,-164.114,-35.465
15:53:17:126,8.008,0.551,-0.818,-0.005,12.101,-162.868,-31.989
15:53:17:153,8.035,0.568,-0.651,0.009,7.238,-162.598,-29.160
15:53:17:181,8.062,0.580,-0.256,0.048,-0.245,-162.667,-23.957
15:53:17:207,8.089,0.580,-0.256,0.048,-0.245,-162.667,-23.957
15:53:17:235,8.116,0.580,-0.256,0.048,-0.245,-162.667,-23.957
15:53:17:262,8.143,0.580,-0.256,0.048,-0.245,-162.667,-23.957
15:53:17:289,8.171,0.580,-0.256,0.048,-0.245,-162.667,-23.957
15:53:17:316,8.198,-0.325,1.168,-0.435,-17.048,-164.891,-4.092
15:53:17:344,8.226,-2.303,-0.165,-0.556,-27.334,-165.938,14.475
15:53:17:372,8.253,-2.303,-0.165,-0.556,-27.334,-165.938,14.475
15:53:17:398,8.280,3.001,1.503,-0.116,-27.714,-160.944,13.871
15:53:17:426,8.307,3.001,1.503,-0.116,-27.714,-160.944,13.871
15:53:17:453,8.335,-1.776,-0.061,0.552,-25.143,-162.182,10.077
15:53:17:48,8.362,-0.460,-0.805,0.541,-21.116,-165.810,5.797
15:53:17:507,8.389,0.025,-0.153,-0.025,-19.801,-165.704,4.051
15:53:17:534,8.416,0.025,-0.153,-0.025,-19.801,-165.704,4.051
15:53:17:562,8.444,-0.047,-0.091,-0.050,-17.996,-165.407,1.826
15:53:17:59,8.472,-0.047,-0.091,-0.050,-17.996,-165.407,1.826
15:53:17:617,8.499,-0.024,-0.020,-0.034,-17.261,-165.167,0.945
15:53:17:644,8.526,-0.094,0.005,0.046,-17.107,-165.003,0.821
15:53:17:671,8.553,0.076,0.006,0.061,-16.830,-163.825,0.673
15:53:17:698,8.580,0.076,0.006,0.061,-16.830,-163.825,0.673
15:53:17:725,8.607,0.115,0.020,0.055,-15.958,-162.722,0.108
15:53:17:752,8.634,0.115,0.020,0.055,-15.958,-162.722,0.108
15:53:17:78,8.661,0.014,0.051,0.018,-14.914,-161.935,-1.140
15:53:17:807,8.689,0.010,0.098,0.046,-14.049,-161.466,-2.316
15:53:17:834,8.716,0.131,0.062,0.019,-13.343,-160.869,-3.232
15:53:17:861,8.743,0.131,0.062,0.019,-13.343,-160.869,-3.232
15:53:17:888,8.770,0.131,0.062,0.019,-13.343,-160.869,-3.232
15:53:17:916,8.798,0.215,0.200,-0.082,-9.312,-158.889,-8.607
15:53:17:943,8.825,0.215,0.200,-0.082,-9.312,-158.889,-8.607
15:53:17:97,8.852,0.302,0.289,0.292,-6.391,-158.177,-13.259
15:53:17:997,8.879,0.556,0.282,0.333,-3.786,-157.230,-16.928
15:53:18:024,8.906,0.756,0.319,0.365,-1.699,-156.247,-19.851
15:53:18:051,8.933,1.311,0.331,0.432,1.830,-154.062,-25.035
15:53:18:078,8.960,0.647,0.738,0.290,5.111,-152.790,-29.251
15:53:18:105,8.987,1.019,0.400,0.584,11.225,-151.253,-35.347
15:53:18:132,9.014,1.147,-0.280,0.181,17.541,-150.155,-39.309
15:53:18:159,9.041,0.198,-0.901,0.467,21.960,-149.665,-40.764
15:53:18:186,9.068,0.198,-0.901,0.467,21.960,-149.665,-40.764
15:53:18:214,9.095,0.425,-1.397,-0.397,25.378,-147.009,-39.893
15:53:18:241,9.122,0.365,-0.984,-0.089,20.556,-145.810,-36.759
15:53:18:268,9.150,0.365,-0.984,-0.089,20.556,-145.810,-36.759
15:53:18:295,9.177,0.531,-0.664,0.013,7.689,-146.096,-29.907
15:53:18:322,9.204,0.565,-0.519,-0.041,2.919,-146.499,-26.250
15:53:18:349,9.231,0.566,-0.140,-0.146,-3.891,-147.289,-19.587
15:53:18:376,9.258,0.566,-0.140,-0.146,-3.891,-147.289,-19.587
15:53:18:403,9.285,0.566,-0.140,-0.146,-3.891,-147.289,-19.587
15:53:18:431,9.313,-1.131,1.598,-0.291,-19.829,-154.307,4.599
15:53:18:458,9.340,-1.758,1.381,-0.062,-22.484,-157.345,11.595
15:53:18:485,9.367,-1.758,1.381,-0.062,-22.484,-157.345,11.595
15:53:18:513,9.395,-2.669,-0.964,0.042,-26.450,-162.757,23.856
15:53:18:541,9.422,-2.378,-0.638,-0.131,-28.060,-161.886,25.520
15:53:18:567,9.449,-1.219,-0.261,-0.170,-26.726,-159.672,22.183
15:53:18:595,9.476,2.257,1.385,-1.114,-25.717,-158.352,20.423
15:53:18:622,9.504,-0.385,0.115,0.341,-23.012,-158.618,15.754
15:53:18:649,9.531,-1.697,0.206,0.867,-22.037,-160.691,13.191
15:53:18:676,9.558,0.278,-0.341,-0.399,-19.877,-162.694,10.773
15:53:18:703,9.585,-0.498,0.067,-0.080,-18.874,-163.503,9.143
15:53:18:73,9.612,0.040,-0.141,0.074,-17.935,-163.037,7.443
15:53:18:757,9.639,-0.041,0.029,0.003,-17.068,-162.281,6.395
15:53:18:784,9.666,-0.041,0.029,0.003,-17.068,-162.281,6.395
15:53:18:812,9.693,-0.196,-0.023,0.073,-16.354,-162.637,5.044
15:53:18:838,9.720,-0.067,-0.030,0.013,-16.221,-162.649,4.802
15:53:18:866,9.747,-0.031,0.032,-0.001,-16.086,-162.234,4.476
15:53:18:893,9.775,0.047,-0.012,0.019,-15.962,-161.852,4.201
15:53:18:921,9.803,-0.045,0.021,0.064,-15.881,-161.658,3.934
15:53:18:948,9.830,0.063,-0.010,0.061,-15.488,-160.882,3.410
15:53:18:975,9.857,0.133,0.027,0.021,-15.037,-160.430,2.878
15:53:19:003,9.884,0.072,0.085,-0.020,-14.253,-159.960,1.715
15:53:19:03,9.912,0.004,0.076,0.001,-13.636,-159.756,0.782
15:53:19:057,9.939,0.051,0.135,0.026,-11.274,-158.836,-2.616
15:53:19:084,9.966,0.051,0.135,0.026,-11.274,-158.836,-2.616
15:53:19:112,9.993,0.125,0.207,-0.061,-8.663,-158.129,-6.422
15:53:19:139,10.020,0.157,0.217,-0.013,-7.555,-157.861,-8.088
15:53:19:166,10.048,0.232,0.213,0.108,-5.804,-157.411,-10.768
15:53:19:194,10.075,0.434,0.264,0.285,-3.702,-156.813,-13.775
15:53:19:221,10.103,0.434,0.264,0.285,-3.702,-156.813,-13.775
15:53:19:248,10.129,0.943,0.363,0.506,1.005,-154.880,-20.270
15:53:19:275,10.157,0.767,0.514,0.294,3.452,-153.383,-23.537
15:53:19:302,10.184,0.767,0.514,0.294,3.452,-153.383,-23.537
15:53:19:329,10.211,1.011,0.215,0.491,12.371,-150.000,-32.829
15:53:19:356,10.238,1.011,0.215,0.491,12.371,-150.000,-32.829
15:53:19:383,10.265,0.675,-0.918,0.282,23.977,-145.663,-38.088
15:53:19:41,10.292,0.675,-0.918,0.282,23.977,-145.663,-38.088
15:53:19:438,10.319,0.327,-1.138,-0.303,26.143,-142.444,-37.185
15:53:19:465,10.347,0.384,-1.057,-0.232,24.497,-141.987,-36.520
15:53:19:492,10.374,0.334,-0.918,-0.099,19.961,-142.114,-35.237
15:53:19:52,10.402,0.448,-0.800,-0.080,15.810,-142.469,-33.781
15:53:19:547,10.429,0.448,-0.800,-0.080,15.810,-142.469,-33.781
15:53:19:574,10.456,0.496,-0.373,-0.061,1.730,-144.208,-25.163
15:53:19:601,10.483,0.470,-0.055,-0.179,-2.562,-144.733,-20.949
15:53:19:628,10.510,0.477,0.310,-0.363,-8.569,-145.393,-13.604
15:53:19:655,10.537,-0.911,1.507,-0.162,-18.732,-148.837,1.108
15:53:19:682,10.564,-0.911,1.507,-0.162,-18.732,-148.837,1.108
15:53:19:71,10.591,-0.911,1.507,-0.162,-18.732,-148.837,1.108
15:53:19:736,10.618,-2.605,-0.878,0.381,-28.284,-154.652,21.111
15:53:19:764,10.646,-2.118,-0.512,-0.184,-29.069,-154.686,22.598
15:53:19:791,10.673,-0.368,-0.274,0.358,-28.418,-153.342,20.420
15:53:19:818,10.700,-0.368,-0.274,0.358,-28.418,-153.342,20.420
15:53:19:845,10.727,-0.368,-0.274,0.358,-28.418,-153.342,20.420
15:53:19:873,10.755,-0.049,0.424,-0.479,-22.919,-154.537,11.920
15:53:19:9,10.782,-0.463,-0.121,0.223,-21.541,-154.542,10.233
15:53:19:928,10.810,-0.310,0.178,0.041,-20.813,-154.870,8.604
15:53:19:956,10.837,-0.028,-0.023,-0.020,-19.953,-154.055,7.777
15:53:19:983,10.864,-0.028,-0.023,-0.020,-19.953,-154.055,7.777
15:53:20:01,10.892,-0.031,-0.007,0.054,-18.949,-153.408,6.479
15:53:20:037,10.918,-0.059,-0.040,0.057,-18.773,-152.944,6.022
15:53:20:064,10.946,0.014,0.008,0.014,-18.702,-152.353,5.791
15:53:20:091,10.973,0.013,-0.012,-0.043,-18.457,-151.354,5.381
15:53:20:119,11.001,0.086,0.026,-0.014,-18.130,-151.244,4.736
15:53:20:146,11.028,0.086,0.037,0.007,-17.710,-150.853,4.095
15:53:20:174,11.056,0.086,0.037,0.007,-17.710,-150.853,4.095
15:53:20:201,11.083,-0.085,0.049,-0.019,-16.148,-150.858,1.935
15:53:20:228,11.110,0.028,0.052,-0.024,-15.126,-150.867,0.575
15:53:20:255,11.137,0.085,0.044,-0.051,-14.378,-150.609,-0.420
15:53:20:283,11.165,0.085,0.044,-0.051,-14.378,-150.609,-0.420
15:53:20:31,11.192,0.082,0.134,0.041,-11.765,-150.892,-4.253
15:53:20:337,11.219,0.069,0.178,-0.020,-10.723,-150.570,-5.762
15:53:20:365,11.246,0.126,0.212,-0.055,-9.044,-150.642,-8.147
15:53:20:392,11.274,0.126,0.212,-0.055,-9.044,-150.642,-8.147
15:53:20:419,11.301,0.342,0.270,0.145,-5.823,-150.242,-12.762
15:53:20:447,11.328,0.982,0.362,0.322,-1.067,-148.710,-19.190
15:53:20:474,11.356,0.798,0.598,0.317,2.538,-147.094,-24.687
15:53:20:501,11.382,0.798,0.598,0.317,2.538,-147.094,-24.687
15:53:20:528,11.410,0.969,0.474,0.515,11.434,-144.014,-34.659
15:53:20:556,11.437,0.707,-0.642,0.164,17.688,-142.103,-38.052
15:53:20:583,11.464,0.345,-0.941,0.346,21.418,-140.480,-39.225
15:53:20:61,11.492,0.747,-1.329,-0.591,23.108,-137.801,-38.586
15:53:20:638,11.519,0.294,-1.173,-0.285,22.510,-136.623,-37.959
15:53:20:664,11.546,0.383,-1.021,-0.250,18.701,-135.337,-36.689
15:53:20:691,11.573,0.364,-0.838,-0.346,14.947,-134.458,-35.457
15:53:20:719,11.600,0.465,-0.739,-0.340,7.968,-133.453,-32.432
15:53:20:746,11.627,0.465,-0.739,-0.340,7.968,-133.453,-32.432
15:53:20:773,11.655,0.476,-0.191,-0.478,-3.959,-132.083,-24.103
15:53:20:8,11.682,0.360,0.159,-0.680,-10.200,-130.692,-17.447
15:53:20:828,11.709,0.073,0.508,-0.835,-14.266,-129.670,-12.526
15:53:20:855,11.737,-0.526,1.008,-0.685,-20.790,-129.185,-4.205
15:53:20:883,11.764,-1.827,1.349,-0.099,-27.038,-130.077,5.096
15:53:20:91,11.792,-2.194,0.879,0.049,-30.305,-130.137,10.851
15:53:20:937,11.819,-2.309,-0.060,0.639,-33.209,-129.464,17.151
15:53:20:965,11.846,-2.437,-1.102,1.359,-33.729,-129.337,19.410
15:53:20:991,11.873,-1.819,-0.113,0.376,-33.419,-125.808,18.405
15:53:21:018,11.900,0.969,0.509,0.320,-32.034,-124.176,15.879
15:53:21:045,11.927,0.969,0.509,0.320,-32.034,-124.176,15.879
15:53:21:073,11.954,-1.088,0.721,1.212,-28.816,-121.230,9.564
15:53:21:1,11.981,-1.088,0.721,1.212,-28.816,-121.230,9.564
15:53:21:127,12.009,-0.372,0.190,0.107,-25.192,-122.879,6.992
15:53:21:154,12.035,-0.372,0.190,0.107,-25.192,-122.879,6.992
15:53:21:181,12.063,-0.372,0.190,0.107,-25.192,-122.879,6.992
15:53:21:209,12.091,-0.070,-0.074,0.033,-23.610,-122.230,5.198
15:53:21:236,12.117,-0.070,-0.074,0.033,-23.610,-122.230,5.198
15:53:21:263,12.145,-0.052,-0.022,-0.021,-22.152,-121.115,4.970
15:53:21:291,12.172,0.030,-0.015,0.001,-21.912,-120.817,5.020
15:53:21:317,12.199,0.113,0.033,-0.039,-21.747,-120.543,4.906
15:53:21:345,12.226,-0.023,0.017,0.042,-21.309,-119.982,4.503
15:53:21:372,12.254,0.107,0.017,-0.040,-20.744,-119.416,3.796
15:53:21:399,12.281,-0.018,0.062,0.039,-20.390,-119.166,3.015
15:53:21:426,12.308,-0.051,0.090,-0.061,-19.715,-118.447,1.628
15:53:21:453,12.335,-0.002,0.021,-0.073,-19.263,-117.746,0.521
15:53:21:48,12.362,0.043,0.128,-0.029,-18.565,-116.170,-1.394
15:53:21:508,12.389,-0.011,0.276,-0.101,-17.602,-114.879,-3.815
15:53:21:535,12.417,-0.011,0.276,-0.101,-17.602,-114.879,-3.815
15:53:21:562,12.444,0.037,0.220,-0.126,-14.835,-111.436,-8.573
15:53:21:589,12.471,0.131,0.281,-0.133,-13.729,-109.875,-10.707
15:53:21:617,12.498,0.292,0.290,-0.165,-11.829,-108.601,-14.196
15:53:21:644,12.526,0.532,0.466,-0.281,-10.345,-107.010,-16.811
15:53:21:671,12.553,0.784,0.504,-0.622,-7.688,-105.185,-21.475
15:53:21:699,12.581,0.905,0.632,-0.499,-4.410,-102.407,-27.159
15:53:21:726,12.608,0.762,0.889,-0.245,-1.667,-100.503,-31.940
15:53:21:754,12.636,0.762,0.889,-0.245,-1.667,-100.503,-31.940
15:53:21:781,12.662,0.584,-0.172,-0.753,8.936,-96.190,-41.411
15:53:21:808,12.690,0.721,-0.948,0.363,15.532,-93.420,-43.071
15:53:21:835,12.717,0.721,-0.948,0.363,15.532,-93.420,-43.071
15:53:21:863,12.744,0.721,-0.948,0.363,15.532,-93.420,-43.071
15:53:21:89,12.771,-0.108,-0.859,-0.566,10.889,-81.910,-35.349
15:53:21:917,12.799,-0.108,-0.859,-0.566,10.889,-81.910,-35.349
15:53:21:944,12.826,-0.108,-0.859,-0.566,10.889,-81.910,-35.349
15:53:21:971,12.853,-0.065,-0.391,-0.691,-3.601,-79.878,-27.165
15:53:21:999,12.880,-0.065,-0.391,-0.691,-3.601,-79.878,-27.165
15:53:22:026,12.908,-0.065,-0.391,-0.691,-3.601,-79.878,-27.165
15:53:22:053,12.934,-0.065,-0.391,-0.691,-3.601,-79.878,-27.165
15:53:22:08,12.962,-1.046,1.357,1.366,-26.916,-82.671,5.021
15:53:22:107,12.989,-1.046,1.357,1.366,-26.916,-82.671,5.021
15:53:22:134,13.016,-0.663,-0.480,2.502,-32.782,-87.023,20.141
15:53:22:162,13.044,-0.795,-0.111,1.674,-33.515,-85.076,20.064
15:53:22:189,13.070,-0.795,-0.111,1.674,-33.515,-85.076,20.064
15:53:22:216,13.098,0.174,1.010,-1.918,-32.040,-83.489,17.540
15:53:22:243,13.124,-0.156,0.252,0.795,-28.502,-82.283,11.024
15:53:22:27,13.152,-0.156,0.252,0.795,-28.502,-82.283,11.024
15:53:22:297,13.179,0.066,-0.311,0.313,-25.873,-84.181,7.895
15:53:22:324,13.205,-0.107,0.015,0.128,-25.442,-84.388,6.927
15:53:22:351,13.233,-0.028,-0.002,0.069,-24.616,-83.616,6.088
15:53:22:378,13.260,-0.028,-0.002,0.069,-24.616,-83.616,6.088
15:53:22:406,13.287,-0.024,-0.009,-0.003,-23.836,-82.711,5.305
15:53:22:433,13.315,0.030,0.000,0.059,-23.584,-82.225,4.798
15:53:22:46,13.342,0.051,0.004,0.011,-23.363,-81.692,4.428
15:53:22:488,13.369,-0.075,0.013,0.010,-22.971,-80.687,3.726
15:53:22:514,13.396,-0.108,-0.029,-0.002,-22.771,-80.106,3.320
15:53:22:541,13.423,-0.038,0.019,0.045,-22.653,-79.223,2.682
15:53:22:569,13.450,-0.008,0.028,-0.099,-22.088,-75.737,1.266
15:53:22:596,13.478,-0.008,0.028,-0.099,-22.088,-75.737,1.266
15:53:22:624,13.506,-0.008,0.028,-0.099,-22.088,-75.737,1.266
15:53:22:651,13.533,-0.162,0.002,-0.139,-20.472,-71.821,-2.206
15:53:22:678,13.560,-0.132,0.092,-0.088,-19.980,-71.412,-3.299
15:53:22:706,13.588,-0.050,0.143,-0.117,-19.069,-70.143,-5.219
15:53:22:733,13.614,-0.081,0.136,-0.109,-17.928,-69.784,-7.541
15:53:22:76,13.642,-0.083,0.141,-0.109,-17.028,-68.691,-9.241
15:53:22:787,13.669,-0.065,0.152,-0.156,-15.581,-68.256,-11.972
15:53:22:814,13.696,-0.014,0.174,-0.189,-14.509,-66.994,-13.983
15:53:22:841,13.722,0.155,0.285,-0.416,-12.638,-66.069,-17.324
15:53:22:868,13.750,0.133,0.307,-0.683,-10.284,-64.429,-21.245
15:53:22:896,13.778,0.091,0.373,-1.048,-8.418,-63.300,-24.223
15:53:22:923,13.805,0.091,0.373,-1.048,-8.418,-63.300,-24.223
15:53:22:95,13.832,0.308,0.435,-0.792,-1.912,-61.279,-34.350
15:53:22:977,13.859,0.437,0.366,-0.802,3.653,-59.988,-40.024
15:53:23:004,13.886,0.424,-0.526,-0.582,10.525,-58.142,-43.258
15:53:23:031,13.913,0.110,-0.798,-0.431,15.178,-56.649,-43.935
15:53:23:059,13.940,-0.188,-1.287,-0.419,17.797,-54.456,-43.522
15:53:23:085,13.967,-0.157,-1.227,-0.267,18.208,-52.532,-42.552
15:53:23:112,13.994,-0.157,-1.227,-0.267,18.208,-52.532,-42.552
15:53:23:14,14.021,-0.165,-0.932,-0.417,13.821,-48.653,-39.022
15:53:23:167,14.049,-0.173,-0.829,-0.473,7.889,-47.672,-35.801
15:53:23:195,14.077,-0.146,-0.582,-0.539,0.933,-47.162,-31.482
15:53:23:222,14.104,-0.216,-0.347,-0.501,-3.753,-46.966,-27.969
15:53:23:249,14.131,-0.338,-0.019,-0.455,-10.261,-46.703,-21.599
15:53:23:277,14.159,-0.531,0.202,-0.423,-14.349,-46.371,-16.749
15:53:23:304,14.186,-0.755,0.842,0.138,-20.436,-46.169,-8.750
15:53:23:331,14.213,-0.329,1.472,1.393,-26.344,-46.905,0.057
15:53:23:358,14.240,0.382,0.328,1.899,-32.866,-47.812,13.144
15:53:23:386,14.267,0.382,0.328,1.899,-32.866,-47.812,13.144
15:53:23:414,14.295,0.382,0.328,1.899,-32.866,-47.812,13.144
15:53:23:44,14.322,0.242,0.439,-1.571,-33.825,-46.961,14.846
15:53:23:468,14.350,0.242,0.439,-1.571,-33.825,-46.961,14.846
15:53:23:495,14.377,0.242,0.439,-1.571,-33.825,-46.961,14.846
15:53:23:523,14.404,0.736,0.419,0.865,-29.910,-46.377,8.290
15:53:23:55,14.432,0.416,-0.227,0.457,-26.625,-50.141,4.788
15:53:23:577,14.459,0.416,-0.227,0.457,-26.625,-50.141,4.788
15:53:23:605,14.486,0.416,-0.227,0.457,-26.625,-50.141,4.788
15:53:23:632,14.514,0.416,-0.227,0.457,-26.625,-50.141,4.788
15:53:23:659,14.541,-0.031,-0.044,0.028,-24.436,-50.225,1.503
15:53:23:686,14.568,-0.031,-0.044,0.028,-24.436,-50.225,1.503
15:53:23:713,14.595,-0.031,-0.025,0.059,-24.081,-49.634,0.681
15:53:23:741,14.622,-0.031,-0.025,0.059,-24.081,-49.634,0.681
15:53:23:768,14.650,-0.071,0.019,0.015,-23.805,-48.148,-0.407
15:53:23:795,14.677,-0.060,-0.008,-0.033,-23.650,-47.126,-1.266
15:53:23:823,14.704,-0.060,-0.008,-0.033,-23.650,-47.126,-1.266
15:53:23:85,14.732,-0.056,0.069,0.030,-23.253,-45.440,-2.916
15:53:23:877,14.758,-0.056,0.069,0.030,-23.253,-45.440,-2.916
15:53:23:904,14.786,-0.168,0.023,-0.037,-22.729,-43.024,-5.181
15:53:23:932,14.814,-0.149,0.079,-0.043,-22.506,-41.240,-6.879
15:53:23:959,14.840,-0.120,0.094,-0.083,-21.946,-39.681,-8.829
15:53:23:986,14.868,-0.089,0.107,-0.145,-21.476,-38.944,-10.302
15:53:24:013,14.894,-0.101,0.131,-0.128,-20.519,-37.942,-12.793
15:53:24:04,14.922,-0.120,0.196,-0.155,-19.728,-37.293,-14.687
15:53:24:067,14.949,-0.151,0.199,-0.175,-18.259,-36.020,-17.920
15:53:24:095,14.977,-0.284,0.216,-0.321,-16.422,-34.158,-21.748
15:53:24:122,15.004,-0.684,0.367,-0.916,-12.348,-30.071,-29.768
15:53:24:149,15.031,-0.055,0.748,-0.900,-10.082,-28.689,-33.908
15:53:24:178,15.059,-0.055,0.748,-0.900,-10.082,-28.689,-33.908
15:53:24:204,15.086,-0.479,0.932,-0.829,-5.728,-26.927,-41.014
15:53:24:232,15.113,-0.162,-0.408,-0.751,6.788,-23.821,-48.409
15:53:24:259,15.141,-0.162,-0.408,-0.751,6.788,-23.821,-48.409
15:53:24:286,15.168,-0.162,-0.408,-0.751,6.788,-23.821,-48.409
15:53:24:313,15.195,-0.162,-0.408,-0.751,6.788,-23.821,-48.409
15:53:24:34,15.222,-0.555,-1.033,-0.427,14.396,-21.173,-48.925
15:53:24:367,15.249,-0.531,-0.944,-0.118,11.448,-10.723,-38.957
15:53:24:394,15.276,-0.628,-0.753,-0.174,5.106,-8.216,-34.720
15:53:24:421,15.303,-0.628,-0.753,-0.174,5.106,-8.216,-34.720
15:53:24:448,15.330,-0.780,0.170,0.127,-11.357,-4.638,-21.713
15:53:24:475,15.357,-0.780,0.170,0.127,-11.357,-4.638,-21.713
15:53:24:502,15.384,0.369,1.173,0.952,-22.790,-3.147,-6.374
15:53:24:53,15.411,0.369,1.173,0.952,-22.790,-3.147,-6.374
15:53:24:557,15.439,0.369,1.173,0.952,-22.790,-3.147,-6.374
15:53:24:585,15.466,0.369,1.173,0.952,-22.790,-3.147,-6.374
15:53:24:611,15.493,1.556,-0.501,1.220,-32.587,4.785,10.506
15:53:24:638,15.520,1.113,-0.239,1.089,-32.482,6.077,9.904
15:53:24:666,15.548,-0.393,0.200,0.561,-30.812,6.066,7.355
15:53:24:693,15.574,-1.196,1.109,-0.155,-29.674,3.775,6.246
15:53:24:72,15.602,1.104,-0.013,0.605,-27.760,1.322,4.717
15:53:24:748,15.630,1.104,-0.013,0.605,-27.760,1.322,4.717
15:53:24:776,15.657,0.338,-0.612,-0.211,-25.139,-2.867,2.252
15:53:24:803,15.685,0.104,-0.029,0.013,-24.498,-3.534,1.076
15:53:24:83,15.711,0.104,-0.029,0.013,-24.498,-3.534,1.076
15:53:24:857,15.739,-0.099,-0.030,-0.019,-22.907,-3.389,0.232
15:53:24:884,15.766,-0.099,-0.030,-0.019,-22.907,-3.389,0.232
15:53:24:911,15.793,-0.064,0.015,0.009,-22.617,-3.118,0.133
15:53:24:939,15.820,-0.069,0.009,0.022,-22.015,-2.583,-0.432
15:53:24:966,15.847,-0.069,0.009,0.022,-22.015,-2.583,-0.432
15:53:24:993,15.875,-0.192,-0.016,0.018,-21.693,-1.599,-1.178
15:53:25:02,15.901,-0.035,0.038,0.010,-21.288,-0.437,-3.355
15:53:25:048,15.930,-0.024,0.043,0.015,-20.410,0.037,-4.670
15:53:25:075,15.957,-0.100,0.120,-0.025,-20.046,0.646,-5.625
15:53:25:102,15.984,-0.100,0.120,-0.025,-20.046,0.646,-5.625
15:53:25:129,16.011,-0.141,0.078,0.055,-18.045,3.146,-8.737
15:53:25:156,16.038,-0.136,0.061,0.058,-17.439,3.797,-10.018
15:53:25:184,16.065,-0.162,0.127,0.000,-16.461,5.231,-12.080
15:53:25:211,16.092,-0.216,0.151,-0.034,-15.707,5.840,-13.576
15:53:25:238,16.120,-0.231,0.188,-0.085,-14.349,6.989,-16.068
15:53:25:265,16.147,-0.330,0.199,-0.156,-13.231,7.559,-17.920
15:53:25:292,16.174,-0.522,0.294,-0.274,-11.123,8.929,-21.207
15:53:25:319,16.201,-0.749,0.309,-0.316,-8.386,10.262,-25.369
15:53:25:346,16.228,-1.158,0.367,-0.389,-6.200,11.524,-28.666
15:53:25:374,16.255,-1.158,0.367,-0.389,-6.200,11.524,-28.666
15:53:25:401,16.282,-1.158,0.367,-0.389,-6.200,11.524,-28.666
15:53:25:428,16.310,-1.158,0.367,-0.389,-6.200,11.524,-28.666
15:53:25:455,16.337,0.136,-0.846,-0.819,17.289,19.463,-46.853
15:53:25:482,16.364,-0.663,-1.195,-0.070,20.908,21.308,-47.804
15:53:25:509,16.390,-0.447,-1.424,0.287,22.810,24.113,-45.905
15:53:25:536,16.418,-0.447,-1.029,0.252,18.814,27.897,-42.033
15:53:25:563,16.445,-0.447,-1.029,0.252,18.814,27.897,-42.033
15:53:25:59,16.472,-0.623,-0.691,0.137,7.300,29.745,-36.032
15:53:25:618,16.499,-0.630,-0.365,0.133,-0.074,30.173,-30.598
15:53:25:645,16.527,-0.630,-0.365,0.133,-0.074,30.173,-30.598
15:53:25:672,16.554,-0.593,-0.202,0.188,-4.404,30.424,-26.217
15:53:25:7,16.581,-0.269,0.740,0.665,-13.926,30.799,-13.135
15:53:25:727,16.609,0.406,1.239,0.527,-19.553,28.861,-3.977
15:53:25:754,16.636,1.475,1.370,0.196,-23.778,26.592,5.564
15:53:25:781,16.663,1.475,1.370,0.196,-23.778,26.592,5.564
15:53:25:808,16.690,2.559,-0.588,-0.181,-27.710,24.349,15.730
15:53:25:836,16.718,2.287,-0.490,0.208,-28.629,25.142,16.770
15:53:25:864,16.745,1.769,0.086,0.555,-27.658,27.151,14.107
15:53:25:891,16.773,-2.301,1.202,1.183,-25.797,27.988,11.394
15:53:25:918,16.799,0.757,-0.335,0.004,-23.655,26.715,8.318
15:53:25:945,16.827,1.227,0.426,-0.342,-22.385,23.414,5.112
15:53:25:973,16.854,1.227,0.426,-0.342,-22.385,23.414,5.112
15:53:25:999,16.881,0.500,0.218,0.029,-19.968,20.792,1.592
15:53:26:027,16.908,-0.218,-0.060,0.013,-19.199,21.201,0.826
15:53:26:054,16.935,-0.033,-0.049,0.071,-18.251,21.818,0.002
15:53:26:081,16.963,-0.068,-0.007,0.032,-17.828,21.561,-0.579
15:53:26:108,16.990,-0.017,0.021,-0.064,-17.714,21.403,-0.875
15:53:26:136,17.018,-0.082,0.019,-0.067,-17.400,21.659,-1.345
15:53:26:163,17.045,-0.082,0.019,-0.067,-17.400,21.659,-1.345
15:53:26:19,17.072,-0.172,0.029,0.040,-16.601,22.554,-2.415
15:53:26:217,17.099,-0.115,0.007,-0.049,-15.974,22.775,-3.350
15:53:26:244,17.126,-0.086,0.011,0.054,-15.388,22.991,-4.050
15:53:26:271,17.153,-0.086,0.011,0.054,-15.388,22.991,-4.050
15:53:26:299,17.180,-0.109,0.032,0.025,-14.056,23.001,-5.883
15:53:26:326,17.208,-0.151,0.030,-0.003,-12.463,23.263,-7.945
15:53:26:355,17.236,-0.192,0.041,0.069,-11.175,23.344,-9.492
15:53:26:382,17.264,-0.191,0.180,0.017,-9.940,23.391,-11.390
15:53:26:409,17.291,-0.273,0.189,0.088,-8.953,23.670,-12.789
15:53:26:436,17.318,-0.329,0.170,0.100,-7.296,23.623,-15.170
15:53:26:464,17.345,-0.402,0.203,-0.031,-6.144,23.627,-17.037
15:53:26:491,17.373,-0.577,0.280,-0.178,-4.085,23.646,-20.251
15:53:26:518,17.400,-0.896,0.403,-0.450,-1.420,24.200,-24.305
15:53:26:545,17.427,-1.137,0.387,-0.404,6.341,27.913,-33.089
15:53:26:572,17.454,-0.617,0.593,-0.278,11.408,29.642,-37.009
15:53:26:6,17.481,-0.617,0.593,-0.278,11.408,29.642,-37.009
15:53:26:626,17.508,-0.428,-1.010,-0.639,23.639,32.635,-44.296
15:53:26:654,17.535,-0.428,-1.010,-0.639,23.639,32.635,-44.296
15:53:26:68,17.562,-0.312,-1.366,0.524,31.701,38.407,-43.211
15:53:26:708,17.589,-0.312,-1.366,0.524,31.701,38.407,-43.211
15:53:26:735,17.616,-0.392,-1.069,0.171,25.315,39.023,-41.237
15:53:26:762,17.644,-0.361,-0.902,0.001,20.585,38.722,-39.966
15:53:26:789,17.670,-0.361,-0.902,0.001,20.585,38.722,-39.966
15:53:26:816,17.698,-0.613,-0.431,0.063,4.101,38.083,-31.959
15:53:26:843,17.725,-0.596,-0.272,0.166,-0.694,38.094,-27.926
15:53:26:871,17.752,-0.565,0.053,0.430,-6.950,38.223,-20.811
15:53:26:897,17.779,-0.299,0.681,0.510,-10.998,38.003,-15.519
15:53:26:924,17.806,0.203,1.143,0.335,-17.125,35.959,-6.584
15:53:26:951,17.833,0.203,1.143,0.335,-17.125,35.959,-6.584
15:53:26:979,17.860,1.745,0.861,0.018,-24.809,31.514,9.098
15:53:27:006,17.887,2.699,-0.406,-0.552,-27.486,29.586,15.623
15:53:27:033,17.915,2.624,-0.758,-0.219,-28.488,29.272,17.840
15:53:27:061,17.942,2.059,-0.258,-0.030,-28.426,30.632,16.775
15:53:27:087,17.969,-1.725,0.319,0.049,-26.900,31.214,14.093
15:53:27:115,17.996,1.658,-0.835,-0.044,-24.929,31.801,11.904
15:53:27:142,18.024,0.076,0.590,0.208,-22.280,28.434,4.788
15:53:27:169,18.050,0.355,-0.328,-0.257,-20.562,26.973,2.871
15:53:27:197,18.078,0.355,-0.328,-0.257,-20.562,26.973,2.871
15:53:27:224,18.106,0.355,-0.328,-0.257,-20.562,26.973,2.871
15:53:27:251,18.133,-0.081,-0.013,0.050,-18.642,27.406,-0.112
15:53:27:278,18.160,-0.132,-0.014,0.000,-18.363,27.403,-0.419
15:53:27:306,18.187,0.005,0.025,-0.094,-18.042,27.403,-0.952
15:53:27:333,18.215,0.005,0.025,-0.094,-18.042,27.403,-0.952
15:53:27:36,18.242,-0.062,0.018,-0.015,-17.826,27.661,-1.380
15:53:27:388,18.269,-0.127,0.011,0.052,-17.148,28.707,-2.259
15:53:27:415,18.297,-0.065,-0.007,-0.039,-16.997,29.282,-3.009
15:53:27:442,18.324,-0.206,0.043,0.029,-16.671,30.218,-3.989
15:53:27:47,18.351,-0.182,0.073,-0.011,-16.306,30.858,-4.853
15:53:27:496,18.378,-0.215,0.094,0.128,-15.377,31.286,-6.458
15:53:27:524,18.405,-0.123,0.110,0.155,-14.642,31.826,-7.760
15:53:27:551,18.433,-0.172,0.150,0.127,-13.456,32.432,-9.880
15:53:27:579,18.461,-0.258,0.157,0.123,-11.988,33.290,-12.281
15:53:27:606,18.488,-0.331,0.148,0.118,-10.920,33.503,-14.077
15:53:27:633,18.515,-0.340,0.226,-0.056,-9.258,33.875,-17.182
15:53:27:66,18.542,-0.470,0.269,-0.117,-7.858,34.076,-19.501
15:53:27:687,18.569,-0.775,0.253,-0.009,-5.115,35.167,-23.456
15:53:27:714,18.596,-1.460,0.325,0.067,-2.929,36.025,-26.629
15:53:27:742,18.623,-1.460,0.325,0.067,-2.929,36.025,-26.629
15:53:27:769,18.651,-1.128,0.299,-0.171,11.948,38.947,-43.800
15:53:27:797,18.678,-0.907,-0.489,0.002,19.377,39.469,-48.131
15:53:27:824,18.706,-0.907,-0.489,0.002,19.377,39.469,-48.131
15:53:27:851,18.733,-0.872,-1.455,0.374,27.038,41.618,-48.204
15:53:27:879,18.760,-0.112,-1.259,0.222,27.147,42.634,-46.762
15:53:27:906,18.787,-0.112,-1.259,0.222,27.147,42.634,-46.762
15:53:27:932,18.814,-0.352,-1.014,0.274,18.918,45.849,-40.696
15:53:27:96,18.841,-0.478,-0.838,0.244,14.139,46.384,-37.874
15:53:27:987,18.869,-0.575,-0.573,0.245,6.496,46.912,-32.689
15:53:28:014,18.895,-0.536,-0.259,0.316,1.537,46.918,-28.536
15:53:28:041,18.923,-0.488,-0.011,0.417,-5.232,46.691,-21.111
15:53:28:068,18.950,-0.289,0.580,0.680,-11.471,46.035,-12.541
15:53:28:096,18.977,0.398,1.352,0.401,-15.551,44.738,-6.387
15:53:28:123,19.005,1.522,1.789,-0.177,-20.692,41.971,3.622
15:53:28:15,19.032,1.803,1.034,-0.502,-22.956,40.593,10.180
15:53:28:178,19.060,2.875,-0.583,-1.479,-25.281,39.094,16.909
15:53:28:205,19.087,2.271,-0.106,-0.264,-26.968,41.610,18.496
15:53:28:232,19.114,2.155,0.043,-0.256,-26.318,43.379,16.387
15:53:28:26,19.141,-2.004,1.432,2.090,-24.308,45.595,13.334
15:53:28:287,19.168,0.165,0.459,-0.458,-22.168,45.784,9.536
15:53:28:313,19.195,1.086,0.374,-0.855,-20.697,42.742,6.187
15:53:28:343,19.224,0.243,-0.462,0.084,-19.503,41.294,4.470
15:53:28:368,19.250,0.275,0.212,0.003,-18.002,40.368,2.197
15:53:28:395,19.277,-0.193,-0.005,0.034,-16.701,41.380,0.908
15:53:28:422,19.304,-0.060,0.022,0.058,-16.141,41.786,0.114
15:53:28:449,19.331,0.006,0.011,-0.109,-15.607,41.909,-0.898
15:53:28:477,19.358,0.006,0.011,-0.109,-15.607,41.909,-0.898
15:53:28:504,19.386,-0.067,-0.052,0.068,-14.828,42.760,-2.178
15:53:28:531,19.413,-0.040,0.011,0.042,-13.779,43.254,-3.304
15:53:28:559,19.441,-0.071,-0.017,0.029,-13.178,43.637,-4.021
15:53:28:586,19.467,-0.071,-0.017,0.029,-13.178,43.637,-4.021
15:53:28:613,19.495,-0.146,0.046,-0.036,-12.148,43.753,-5.253
15:53:28:64,19.522,-0.078,0.040,0.018,-11.626,43.767,-5.865
15:53:28:667,19.549,-0.125,0.016,0.058,-10.732,43.905,-6.790
15:53:28:694,19.576,-0.125,0.016,0.058,-10.732,43.905,-6.790
15:53:28:721,19.603,-0.191,0.194,0.100,-7.946,43.778,-10.690
15:53:28:748,19.630,-0.191,0.194,0.100,-7.946,43.778,-10.690
15:53:28:776,19.657,-0.191,0.194,0.100,-7.946,43.778,-10.690
15:53:28:802,19.684,-0.454,0.217,-0.070,-3.768,43.967,-16.899
15:53:28:83,19.711,-0.587,0.309,-0.022,-2.258,44.303,-19.017
15:53:28:857,19.739,-0.938,0.358,-0.072,0.657,45.133,-22.871
15:53:28:884,19.766,-1.095,0.382,-0.115,3.079,46.167,-25.959
15:53:28:911,19.793,-1.095,0.382,-0.115,3.079,46.167,-25.959
15:53:28:939,19.821,-0.948,0.654,-0.302,15.984,53.847,-36.331
15:53:28:966,19.847,-0.948,0.654,-0.302,15.984,53.847,-36.331
15:53:28:993,19.875,-1.405,-0.202,0.211,20.806,56.494,-39.229
15:53:29:02,19.902,-0.727,-1.452,0.664,31.580,63.984,-40.777
15:53:29:047,19.929,-0.090,-1.307,0.672,31.902,68.497,-38.770
15:53:29:075,19.957,-0.221,-1.021,0.557,29.318,69.773,-38.431
15:53:29:103,19.985,-0.240,-0.878,0.560,22.765,70.928,-37.376
15:53:29:13,20.012,-0.381,-0.634,0.696,14.445,71.932,-34.702
15:53:29:157,20.039,-0.264,-0.306,0.745,8.736,72.587,-32.052
15:53:29:184,20.066,-0.049,-0.109,1.021,1.426,74.288,-26.647
15:53:29:211,20.093,0.114,0.033,1.130,-2.635,76.047,-22.238
15:53:29:238,20.120,0.234,0.363,1.047,-8.552,78.505,-15.093
15:53:29:265,20.147,0.234,0.363,1.047,-8.552,78.505,-15.093
15:53:29:293,20.175,0.234,0.363,1.047,-8.552,78.505,-15.093
15:53:29:32,20.202,0.234,0.363,1.047,-8.552,78.505,-15.093
15:53:29:347,20.229,1.458,0.456,-1.251,-24.301,76.850,11.522
15:53:29:375,20.257,1.360,-0.613,-2.059,-25.016,76.840,15.282
15:53:29:402,20.284,1.380,-0.245,-1.430,-25.017,78.914,15.132
15:53:29:429,20.311,-1.025,0.563,2.530,-21.162,85.627,9.506
15:53:29:456,20.338,-0.145,-0.026,-0.718,-20.338,88.324,6.758
15:53:29:483,20.365,-0.044,0.637,-0.647,-19.405,87.993,3.801
15:53:29:51,20.392,0.166,0.029,-0.033,-17.999,87.115,2.789
15:53:29:538,20.420,-0.018,-0.052,-0.146,-16.466,86.955,1.203
15:53:29:566,20.448,-0.018,-0.052,-0.146,-16.466,86.955,1.203
15:53:29:593,20.475,-0.092,-0.011,0.002,-14.859,87.439,-0.432
15:53:29:621,20.503,-0.128,0.002,-0.031,-14.262,87.530,-0.993
15:53:29:648,20.530,-0.155,0.000,0.052,-13.837,87.787,-1.202
15:53:29:675,20.557,-0.176,-0.019,0.104,-13.178,88.252,-1.482
15:53:29:702,20.584,-0.123,-0.011,0.061,-12.757,88.591,-1.764
15:53:29:729,20.611,-0.127,-0.028,0.063,-12.270,89.068,-2.281
15:53:29:756,20.638,-0.089,0.019,0.007,-11.987,89.486,-2.733
15:53:29:784,20.665,-0.112,-0.034,0.060,-11.833,89.858,-2.902
15:53:29:81,20.692,-0.130,-0.009,0.073,-11.719,90.516,-3.281
15:53:29:838,20.719,-0.229,0.028,0.220,-11.566,91.095,-3.676
15:53:29:865,20.747,-0.229,0.028,0.220,-11.566,91.095,-3.676
15:53:29:892,20.774,-0.125,0.069,0.160,-10.065,92.048,-6.352
15:53:29:919,20.801,-0.087,0.170,0.144,-9.392,92.090,-7.629
15:53:29:948,20.830,-0.133,0.125,0.142,-8.061,92.737,-9.611
15:53:29:975,20.856,-0.159,0.198,0.237,-7.054,92.852,-11.078
15:53:30:002,20.884,-0.305,0.197,0.242,-4.045,93.643,-15.354
15:53:30:029,20.910,-0.305,0.197,0.242,-4.045,93.643,-15.354
15:53:30:056,20.938,-0.305,0.197,0.242,-4.045,93.643,-15.354
15:53:30:083,20.965,-0.662,0.300,0.667,3.055,96.639,-24.664
15:53:30:111,20.992,-0.895,0.196,1.361,7.243,99.411,-29.468
15:53:30:138,21.020,-0.895,0.196,1.361,7.243,99.411,-29.468
15:53:30:165,21.047,-0.868,0.151,0.970,18.388,104.232,-39.521
15:53:30:193,21.074,-0.738,-0.315,1.063,25.646,106.147,-43.737
15:53:30:22,21.102,-0.873,-1.136,-0.017,30.235,107.104,-45.265
15:53:30:247,21.129,0.156,-1.504,0.975,33.873,110.553,-44.109
15:53:30:274,21.156,0.261,-1.224,0.224,34.285,112.407,-42.448
15:53:30:302,21.184,0.268,-1.149,0.450,31.860,114.594,-40.175
15:53:30:329,21.210,0.103,-0.967,0.376,28.726,115.810,-38.514
15:53:30:357,21.239,0.103,-0.967,0.376,28.726,115.810,-38.514
15:53:30:384,21.266,0.069,-0.583,0.677,14.130,117.224,-31.509
15:53:30:411,21.293,0.143,-0.347,0.622,8.955,117.411,-27.930
15:53:30:438,21.320,0.143,-0.347,0.622,8.955,117.411,-27.930
15:53:30:466,21.347,0.405,0.387,0.562,-4.375,117.307,-13.704
15:53:30:493,21.375,0.435,0.786,0.361,-8.555,116.350,-7.940
15:53:30:52,21.402,0.057,1.706,-0.869,-14.479,113.499,1.577
15:53:30:547,21.429,-0.214,0.244,-2.184,-20.578,110.138,15.760
15:53:30:575,21.456,-0.214,0.244,-2.184,-20.578,110.138,15.760
15:53:30:602,21.483,0.256,-0.678,-2.368,-22.584,110.319,19.643
15:53:30:629,21.511,-0.221,-0.181,0.372,-21.512,113.580,16.513
15:53:30:657,21.539,-0.221,-0.181,0.372,-21.512,113.580,16.513
15:53:30:685,21.567,-0.221,-0.181,0.372,-21.512,113.580,16.513
15:53:30:713,21.594,0.526,0.782,0.302,-16.709,110.867,7.788
15:53:30:739,21.621,-0.622,-0.866,-0.274,-13.890,110.021,5.539
15:53:30:767,21.648,-0.622,-0.866,-0.274,-13.890,110.021,5.539
15:53:30:794,21.676,-0.151,-0.010,0.112,-12.038,109.849,2.388
15:53:30:821,21.703,-0.096,-0.005,-0.046,-11.106,110.287,1.385
15:53:30:849,21.730,-0.145,-0.024,0.048,-10.799,110.336,0.916
15:53:30:876,21.758,-0.191,-0.011,0.055,-10.458,110.459,0.374
15:53:30:904,21.786,-0.184,-0.019,0.058,-10.183,110.679,-0.005
15:53:30:932,21.813,-0.062,-0.019,0.078,-9.755,111.199,-0.655
15:53:30:959,21.840,-0.110,-0.010,0.089,-9.399,111.627,-1.361
15:53:30:986,21.868,-0.143,-0.003,0.090,-9.130,111.944,-1.860
15:53:31:013,21.894,-0.118,-0.022,0.026,-8.572,112.347,-2.693
15:53:31:04,21.922,-0.101,0.053,0.074,-8.139,112.614,-3.237
15:53:31:067,21.949,-0.116,0.035,0.149,-7.623,113.592,-4.133
15:53:31:094,21.976,-0.107,0.092,0.095,-7.050,114.066,-5.207
15:53:31:121,22.003,-0.054,0.062,0.128,-6.509,115.166,-6.031
15:53:31:149,22.030,-0.139,0.140,0.232,-4.773,116.892,-8.697
15:53:31:176,22.058,-0.139,0.140,0.232,-4.773,116.892,-8.697
15:53:31:203,22.084,-0.200,0.249,0.318,-1.549,118.915,-13.548
15:53:31:23,22.112,-0.200,0.249,0.318,-1.549,118.915,-13.548
15:53:31:257,22.138,-0.200,0.249,0.318,-1.549,118.915,-13.548
15:53:31:284,22.166,-0.423,0.351,1.329,4.882,122.150,-22.211
15:53:31:311,22.193,-0.279,0.340,1.305,9.250,125.430,-27.315
15:53:31:338,22.220,-0.572,0.423,0.757,13.216,127.637,-31.106
15:53:31:365,22.247,-0.572,0.423,0.757,13.216,127.637,-31.106
15:53:31:392,22.274,-0.572,0.423,0.757,13.216,127.637,-31.106
15:53:31:419,22.301,0.825,-1.330,0.458,31.071,142.915,-35.666
15:53:31:446,22.328,0.556,-1.053,0.297,30.450,145.435,-34.345
15:53:31:474,22.355,0.556,-1.053,0.297,30.450,145.435,-34.345
15:53:31:5,22.382,0.439,-0.796,0.351,20.701,148.553,-30.565
15:53:31:528,22.409,0.439,-0.796,0.351,20.701,148.553,-30.565
15:53:31:555,22.437,0.430,-0.294,0.478,8.075,148.575,-24.528
15:53:31:582,22.464,0.457,-0.174,0.372,3.402,148.664,-20.827
15:53:31:609,22.491,0.572,0.117,0.316,-2.890,149.345,-14.151
15:53:31:636,22.518,0.610,0.409,0.180,-6.936,149.780,-9.193
15:53:31:664,22.545,0.401,0.877,-0.353,-13.206,149.472,-1.077
15:53:31:691,22.573,-0.460,1.392,-1.260,-19.128,148.186,7.796
15:53:31:718,22.600,-0.682,0.939,-1.839,-22.258,147.640,13.427
15:53:31:745,22.627,-1.271,-0.013,-1.860,-25.295,147.428,19.730
15:53:31:773,22.654,-1.271,-0.013,-1.860,-25.295,147.428,19.730
15:53:31:8,22.682,-1.271,-0.013,-1.860,-25.295,147.428,19.730
15:53:31:827,22.709,-1.271,-0.013,-1.860,-25.295,147.428,19.730
15:53:31:854,22.736,-1.271,-0.013,-1.860,-25.295,147.428,19.730
15:53:31:881,22.763,-0.625,-0.338,-0.559,-22.907,153.241,15.805
15:53:31:908,22.790,0.107,-0.217,-0.031,-18.997,149.752,11.414
15:53:31:936,22.817,0.107,-0.217,-0.031,-18.997,149.752,11.414
15:53:31:963,22.845,-0.110,-0.024,0.054,-16.696,149.758,8.486
15:53:31:99,22.872,-0.110,-0.024,0.054,-16.696,149.758,8.486
15:53:32:017,22.899,-0.148,-0.038,0.061,-15.473,150.638,7.190
15:53:32:044,22.926,-0.148,-0.038,0.061,-15.473,150.638,7.190
15:53:32:071,22.953,-0.119,0.009,0.081,-15.549,151.155,6.028
15:53:32:099,22.980,-0.119,0.009,0.081,-15.549,151.155,6.028
15:53:32:125,23.007,-0.118,0.003,0.041,-15.450,152.015,5.041
15:53:32:153,23.034,-0.118,0.003,0.041,-15.450,152.015,5.041
15:53:32:18,23.062,-0.104,0.008,0.083,-14.635,153.361,2.761
15:53:32:207,23.088,-0.104,0.008,0.083,-14.635,153.361,2.761
15:53:32:234,23.115,-0.104,0.008,0.083,-14.635,153.361,2.761
15:53:32:261,23.143,-0.062,0.042,0.104,-14.016,154.781,0.842
15:53:32:288,23.170,-0.008,0.038,0.118,-13.167,156.776,-1.493
15:53:32:315,23.197,-0.008,0.038,0.118,-13.167,156.776,-1.493
15:53:32:342,23.224,0.004,0.166,0.153,-11.502,160.679,-4.558
15:53:32:37,23.252,0.004,0.166,0.153,-11.502,160.679,-4.558
15:53:32:397,23.279,0.004,0.166,0.153,-11.502,160.679,-4.558
15:53:32:424,23.306,0.056,0.190,0.161,-9.228,164.230,-8.715
15:53:32:452,23.333,0.305,0.253,0.405,-5.683,169.615,-15.297
15:53:32:479,23.361,0.305,0.253,0.405,-5.683,169.615,-15.297
15:53:32:506,23.388,0.305,0.253,0.405,-5.683,169.615,-15.297
15:53:32:533,23.415,0.305,0.253,0.405,-5.683,169.615,-15.297
15:53:32:56,23.442,0.481,0.362,0.716,5.666,179.984,-32.986
15:53:32:587,23.469,0.693,-0.114,0.849,12.208,-176.832,-37.424
15:53:32:614,23.496,0.693,-0.114,0.849,12.208,-176.832,-37.424
15:53:32:642,23.523,0.954,-1.262,0.234,21.109,-170.835,-39.344
15:53:32:668,23.550,0.900,-1.312,-0.228,22.202,-167.452,-37.594
15:53:32:696,23.578,0.512,-1.009,-0.195,21.603,-164.063,-35.091
15:53:32:724,23.605,0.512,-1.009,-0.195,21.603,-164.063,-35.091
15:53:32:75,23.632,0.601,-0.744,-0.195,14.379,-160.108,-30.240
15:53:32:778,23.659,0.579,-0.575,-0.145,7.792,-159.438,-26.607
15:53:32:804,23.686,0.579,-0.575,-0.145,7.792,-159.438,-26.607
15:53:32:832,23.713,0.553,-0.077,-0.182,-3.401,-159.344,-17.622
15:53:32:858,23.740,0.511,0.103,-0.268,-7.306,-159.464,-12.773
15:53:32:886,23.767,0.307,0.608,-0.548,-12.987,-160.002,-4.711
15:53:32:913,23.795,0.307,0.608,-0.548,-12.987,-160.002,-4.711
15:53:32:94,23.822,-1.998,0.268,0.037,-24.743,-165.849,18.734
15:53:32:967,23.849,-2.563,-0.775,-0.062,-26.180,-166.069,21.613
15:53:32:994,23.876,-1.994,-0.611,-0.635,-27.503,-164.689,22.797
15:53:33:022,23.904,-0.141,-0.398,0.131,-26.777,-163.503,20.942
15:53:33:049,23.930,2.453,1.380,-0.377,-24.979,-162.914,18.608
15:53:33:077,23.959,-0.817,-0.065,0.313,-22.071,-164.079,13.784
15:53:33:104,23.986,-1.412,0.756,-0.102,-20.958,-166.282,11.793
15:53:33:131,24.013,-0.230,-0.891,0.390,-18.328,-166.640,9.575
15:53:33:158,24.040,-0.530,0.141,-0.036,-17.933,-167.348,8.142
15:53:33:185,24.067,-0.530,0.141,-0.036,-17.933,-167.348,8.142
15:53:33:212,24.094,-0.530,0.141,-0.036,-17.933,-167.348,8.142
15:53:33:239,24.121,-0.131,0.004,0.067,-16.136,-165.877,6.334
15:53:33:266,24.148,-0.101,-0.009,0.138,-15.291,-165.834,5.179
15:53:33:293,24.175,0.050,0.022,0.063,-14.672,-164.856,4.433
15:53:33:32,24.202,0.050,0.022,0.063,-14.672,-164.856,4.433
15:53:33:348,24.230,-0.029,0.031,0.106,-13.933,-164.469,3.371
15:53:33:375,24.257,0.060,-0.001,0.124,-13.348,-164.017,2.595
15:53:33:402,24.284,0.035,0.022,0.044,-12.882,-163.841,1.990
15:53:33:429,24.311,0.016,0.082,0.083,-12.118,-163.567,0.893
15:53:33:457,24.339,-0.034,0.048,-0.054,-11.505,-163.984,0.046
15:53:33:484,24.366,-0.034,0.048,-0.054,-11.505,-163.984,0.046
15:53:33:511,24.393,0.068,0.149,0.076,-10.046,-163.388,-2.269
15:53:33:538,24.420,0.068,0.149,0.076,-10.046,-163.388,-2.269
15:53:33:565,24.447,0.110,0.185,0.095,-8.879,-162.692,-4.134
15:53:33:592,24.474,0.175,0.269,0.121,-6.370,-161.789,-8.059
15:53:33:619,24.501,0.275,0.233,0.193,-4.619,-161.189,-10.889
15:53:33:646,24.528,0.465,0.237,0.274,-3.203,-160.559,-13.010
15:53:33:674,24.556,0.554,0.335,0.443,-0.673,-159.456,-16.723
15:53:33:701,24.583,1.181,0.361,0.504,2.521,-157.230,-21.165
15:53:33:728,24.610,0.827,0.521,0.352,5.214,-155.345,-24.695
15:53:33:755,24.637,0.827,0.521,0.352,5.214,-155.345,-24.695
15:53:33:783,24.665,0.827,0.521,0.352,5.214,-155.345,-24.695
15:53:33:81,24.692,0.503,-0.698,0.486,20.796,-149.377,-36.913
15:53:33:837,24.719,0.743,-1.071,0.126,25.466,-146.180,-37.687
15:53:33:865,24.747,0.743,-1.071,0.126,25.466,-146.180,-37.687
15:53:33:893,24.775,0.406,-1.052,-0.261,24.372,-141.446,-33.793
15:53:33:92,24.801,0.402,-0.830,-0.031,19.302,-141.745,-31.943
15:53:33:947,24.829,0.450,-0.767,-0.048,14.893,-142.233,-30.142
15:53:33:974,24.856,0.450,-0.767,-0.048,14.893,-142.233,-30.142
15:53:34:001,24.883,0.510,-0.184,-0.035,0.750,-143.937,-20.429
15:53:34:028,24.910,0.496,-0.029,-0.121,-3.493,-144.405,-15.772
15:53:34:055,24.937,0.496,-0.029,-0.121,-3.493,-144.405,-15.772
15:53:34:083,24.965,0.496,-0.029,-0.121,-3.493,-144.405,-15.772
15:53:34:11,24.991,-1.364,1.531,-0.033,-19.914,-150.199,7.695
15:53:34:137,25.018,-1.364,1.531,-0.033,-19.914,-150.199,7.695
15:53:34:165,25.046,-1.799,0.599,0.119,-24.213,-153.124,17.100
15:53:34:192,25.074,-1.799,0.599,0.119,-24.213,-153.124,17.100
15:53:34:219,25.100,-1.914,-0.362,-0.208,-28.479,-154.251,24.831
15:53:34:246,25.128,0.265,-0.038,0.318,-26.184,-153.211,21.077
15:53:34:273,25.155,-0.475,0.009,-0.738,-24.089,-151.785,17.805
15:53:34:3,25.182,-0.475,0.009,-0.738,-24.089,-151.785,17.805
15:53:34:327,25.209,-0.475,0.009,-0.738,-24.089,-151.785,17.805
15:53:34:354,25.236,-0.206,-1.000,0.403,-18.477,-155.142,10.248
15:53:34:382,25.263,-0.279,0.095,0.023,-17.965,-155.739,8.401
15:53:34:409,25.290,-0.065,-0.001,0.030,-17.166,-155.148,7.760
15:53:34:436,25.318,-0.065,-0.001,0.030,-17.166,-155.148,7.760
15:53:34:463,25.345,-0.051,0.014,0.049,-16.551,-154.718,7.008
15:53:34:491,25.373,-0.061,-0.048,0.085,-15.780,-153.930,5.935
15:53:34:519,25.401,0.017,-0.021,0.038,-15.754,-153.331,5.723
15:53:34:546,25.428,0.015,-0.016,0.058,-15.630,-152.471,5.354
15:53:34:574,25.455,-0.009,0.011,0.085,-15.409,-151.979,4.912
15:53:34:601,25.482,-0.009,0.011,0.085,-15.409,-151.979,4.912
15:53:34:627,25.509,-0.009,0.011,0.085,-15.409,-151.979,4.912
15:53:34:655,25.537,-0.004,0.058,-0.002,-14.051,-151.025,3.369
15:53:34:682,25.564,0.014,0.023,0.063,-13.352,-150.900,2.324
15:53:34:709,25.591,0.014,0.023,0.063,-13.352,-150.900,2.324
15:53:34:736,25.618,0.045,0.046,0.078,-12.864,-150.544,1.521
15:53:34:764,25.646,0.092,0.225,-0.050,-10.443,-149.414,-1.941
15:53:34:792,25.673,0.092,0.225,-0.050,-10.443,-149.414,-1.941
15:53:34:819,25.701,0.093,0.147,-0.056,-9.297,-148.846,-3.430
15:53:34:846,25.728,0.093,0.147,-0.056,-9.297,-148.846,-3.430
15:53:34:873,25.755,0.161,0.243,0.092,-7.621,-148.216,-6.059
15:53:34:9,25.782,0.725,0.344,0.228,-1.114,-145.681,-15.380
15:53:34:927,25.809,1.134,0.389,0.120,1.081,-144.492,-18.569
15:53:34:954,25.836,1.009,0.359,0.134,4.942,-142.912,-24.345
15:53:34:982,25.863,0.536,0.463,0.213,8.577,-142.222,-28.546
15:53:35:008,25.890,0.536,0.463,0.213,8.577,-142.222,-28.546
15:53:35:036,25.918,0.536,0.463,0.213,8.577,-142.222,-28.546
15:53:35:063,25.945,0.205,-0.738,0.302,22.073,-138.447,-36.819
15:53:35:091,25.973,0.491,-1.239,-0.414,23.782,-136.487,-35.481
15:53:35:118,26.000,0.491,-1.239,-0.414,23.782,-136.487,-35.481
15:53:35:145,26.027,0.491,-1.239,-0.414,23.782,-136.487,-35.481
15:53:35:172,26.054,0.482,-0.783,0.001,12.060,-135.195,-26.801
15:53:35:199,26.081,0.482,-0.783,0.001,12.060,-135.195,-26.801
15:53:35:226,26.108,0.482,-0.783,0.001,12.060,-135.195,-26.801
15:53:35:254,26.136,0.482,-0.783,0.001,12.060,-135.195,-26.801
15:53:35:282,26.164,0.373,0.076,-0.085,-5.318,-137.032,-12.009
15:53:35:309,26.191,-0.654,1.058,0.025,-16.020,-139.827,0.824
15:53:35:336,26.218,-1.554,1.180,0.328,-21.575,-141.933,9.533
15:53:35:364,26.245,-1.887,0.604,0.435,-24.538,-142.301,14.665
15:53:35:391,26.273,-1.997,-0.125,0.449,-27.968,-142.301,19.731
15:53:35:418,26.300,-2.147,-0.502,0.346,-29.164,-142.453,21.285
15:53:35:445,26.327,-1.854,-0.480,0.036,-29.349,-142.932,21.333
15:53:35:472,26.354,-1.015,-0.497,-0.306,-27.924,-143.089,19.557
15:53:35:501,26.383,-1.015,-0.497,-0.306,-27.924,-143.089,19.557
15:53:35:528,26.410,-1.399,0.258,0.736,-23.205,-147.206,14.135
15:53:35:556,26.438,-0.514,0.710,-0.083,-22.071,-149.538,12.673
15:53:35:583,26.465,-0.451,-0.283,0.458,-19.987,-150.338,10.629
15:53:35:61,26.492,-0.010,0.020,0.021,-18.354,-149.793,8.365
15:53:35:638,26.519,-0.121,-0.040,0.044,-17.633,-149.231,7.427
15:53:35:665,26.546,-0.062,0.005,0.101,-17.360,-149.097,7.008
15:53:35:692,26.574,-0.093,-0.001,0.135,-17.024,-148.747,6.546
15:53:35:719,26.601,-0.101,0.003,0.167,-16.875,-148.239,6.333
15:53:35:746,26.628,-0.101,0.003,0.167,-16.875,-148.239,6.333
15:53:35:773,26.655,-0.073,0.022,0.073,-16.628,-147.474,5.746
15:53:35:801,26.682,-0.073,0.022,0.073,-16.628,-147.474,5.746
15:53:35:828,26.710,-0.073,0.022,0.073,-16.628,-147.474,5.746
15:53:35:855,26.737,-0.001,0.106,-0.065,-15.378,-145.541,3.149
15:53:35:883,26.764,-0.020,0.059,-0.038,-14.822,-145.060,2.337
15:53:35:909,26.791,0.066,0.012,-0.016,-13.977,-144.531,0.968
15:53:35:937,26.818,0.066,0.012,-0.016,-13.977,-144.531,0.968
15:53:35:964,26.846,0.066,0.012,-0.016,-13.977,-144.531,0.968
15:53:35:991,26.872,0.093,0.130,0.136,-10.912,-143.602,-4.054
15:53:36:018,26.900,0.082,0.171,0.165,-9.888,-143.484,-5.583
15:53:36:045,26.926,0.117,0.130,0.058,-8.073,-142.692,-8.041
15:53:36:072,26.953,0.286,0.176,-0.026,-6.016,-141.843,-10.734
15:53:36:099,26.981,0.286,0.176,-0.026,-6.016,-141.843,-10.734
15:53:36:126,27.008,0.641,0.240,0.139,-2.041,-140.183,-16.274
15:53:36:153,27.035,0.641,0.240,0.139,-2.041,-140.183,-16.274
15:53:36:18,27.062,0.999,0.459,0.218,-0.242,-139.232,-19.099
15:53:36:208,27.090,1.027,0.675,0.432,6.646,-136.313,-29.053
15:53:36:235,27.117,1.050,0.052,0.272,12.866,-134.725,-34.662
15:53:36:262,27.144,1.050,0.052,0.272,12.866,-134.725,-34.662
15:53:36:289,27.171,0.636,-0.897,0.130,22.675,-131.972,-38.511
15:53:36:317,27.198,0.636,-0.897,0.130,22.675,-131.972,-38.511
15:53:36:344,27.226,0.636,-0.897,0.130,22.675,-131.972,-38.511
15:53:36:371,27.253,0.260,-1.073,-0.089,22.405,-131.853,-38.545
15:53:36:398,27.280,0.260,-1.073,-0.089,22.405,-131.853,-38.545
15:53:36:426,27.307,0.458,-0.780,-0.125,10.237,-130.924,-32.695
15:53:36:452,27.334,0.458,-0.515,-0.096,3.735,-131.159,-28.227
15:53:36:48,27.361,0.458,-0.515,-0.096,3.735,-131.159,-28.227
15:53:36:507,27.388,0.458,-0.515,-0.096,3.735,-131.159,-28.227
15:53:36:534,27.416,0.416,0.049,-0.348,-6.530,-131.349,-18.145
15:53:36:562,27.443,-1.419,1.380,0.013,-22.781,-133.280,2.754
15:53:36:588,27.470,-1.419,1.380,0.013,-22.781,-133.280,2.754
15:53:36:616,27.498,-1.419,1.380,0.013,-22.781,-133.280,2.754
15:53:36:644,27.525,-1.419,1.380,0.013,-22.781,-133.280,2.754
15:53:36:672,27.554,-1.419,1.380,0.013,-22.781,-133.280,2.754
15:53:36:7,27.581,-2.306,-0.595,0.404,-32.306,-130.971,18.581
15:53:36:726,27.608,1.571,0.892,-0.330,-30.678,-128.706,15.585
15:53:36:754,27.635,-0.820,0.703,0.440,-27.365,-130.996,12.168
15:53:36:781,27.663,-0.820,0.703,0.440,-27.365,-130.996,12.168
15:53:36:808,27.690,-0.820,0.703,0.440,-27.365,-130.996,12.168
15:53:36:835,27.717,-0.069,-0.019,-0.031,-22.235,-131.485,9.225
15:53:36:862,27.744,-0.043,-0.095,0.103,-21.789,-131.661,8.758
15:53:36:889,27.771,-0.043,-0.095,0.103,-21.789,-131.661,8.758
15:53:36:916,27.798,-0.038,-0.026,0.131,-21.038,-131.359,7.822
15:53:36:943,27.825,-0.038,-0.026,0.131,-21.038,-131.359,7.822
15:53:36:97,27.852,-0.056,0.031,0.045,-20.521,-130.388,6.956
15:53:36:997,27.879,0.014,0.022,0.216,-20.511,-129.998,6.254
15:53:37:025,27.906,0.014,0.022,0.216,-20.511,-129.998,6.254
15:53:37:052,27.934,-0.018,0.055,0.003,-20.015,-128.444,4.910
15:53:37:079,27.961,-0.039,0.021,0.034,-19.813,-127.574,3.757
15:53:37:107,27.988,-0.063,0.066,0.057,-19.773,-126.978,2.842
15:53:37:133,28.015,-0.063,0.066,0.057,-19.773,-126.978,2.842
15:53:37:161,28.042,-0.060,0.037,0.016,-19.478,-124.484,-0.025
15:53:37:188,28.070,-0.060,0.037,0.016,-19.478,-124.484,-0.025
15:53:37:215,28.097,-0.060,0.037,0.016,-19.478,-124.484,-0.025
15:53:37:242,28.124,0.017,0.181,-0.001,-19.190,-121.009,-3.516
15:53:37:269,28.151,0.083,0.137,-0.122,-17.494,-116.258,-10.015
15:53:37:297,28.178,0.083,0.137,-0.122,-17.494,-116.258,-10.015
15:53:37:323,28.205,0.083,0.137,-0.122,-17.494,-116.258,-10.015
15:53:37:35,28.232,0.363,0.226,-0.569,-14.290,-110.406,-20.431
15:53:37:377,28.259,0.363,0.226,-0.569,-14.290,-110.406,-20.431
15:53:37:405,28.287,0.363,0.226,-0.569,-14.290,-110.406,-20.431
15:53:37:433,28.314,0.892,0.822,-0.747,-7.118,-102.293,-38.218
15:53:37:46,28.342,1.006,-0.070,-0.749,0.438,-99.779,-43.788
15:53:37:487,28.369,1.006,-0.070,-0.749,0.438,-99.779,-43.788
15:53:37:514,28.396,0.475,-0.261,-0.326,5.867,-98.258,-45.812
15:53:37:542,28.423,-0.062,-1.482,-0.442,11.120,-93.157,-44.623
15:53:37:569,28.451,0.044,-1.096,-0.445,10.417,-90.629,-41.360
15:53:37:596,28.478,0.044,-1.096,-0.445,10.417,-90.629,-41.360
15:53:37:623,28.505,0.044,-1.096,-0.445,10.417,-90.629,-41.360
15:53:37:65,28.532,-0.305,-0.523,-0.762,-1.266,-82.196,-29.978
15:53:37:678,28.559,-0.395,-0.335,-0.790,-5.249,-81.309,-25.904
15:53:37:705,28.587,-0.493,-0.077,-0.659,-10.794,-80.665,-18.739
15:53:37:733,28.614,-0.718,0.186,-0.489,-14.214,-80.575,-13.293
15:53:37:76,28.641,-0.718,0.186,-0.489,-14.214,-80.575,-13.293
15:53:37:787,28.669,-0.974,1.269,1.083,-24.053,-83.532,5.934
15:53:37:814,28.695,-0.992,1.203,1.829,-26.710,-84.882,12.424
15:53:37:841,28.723,-0.992,1.203,1.829,-26.710,-84.882,12.424
15:53:37:869,28.750,-0.553,-0.541,1.958,-31.918,-83.535,25.718
15:53:37:895,28.777,-0.304,0.121,1.524,-31.659,-79.888,22.925
15:53:37:923,28.804,-0.246,0.901,-1.780,-30.625,-77.417,20.518
15:53:37:95,28.832,0.011,-0.151,0.590,-28.828,-75.377,16.986
15:53:37:977,28.859,0.371,0.411,0.738,-27.987,-76.556,14.919
15:53:38:004,28.886,0.371,0.411,0.738,-27.987,-76.556,14.919
15:53:38:031,28.913,-0.265,0.254,-0.021,-26.181,-78.962,12.725
15:53:38:058,28.940,-0.265,0.254,-0.021,-26.181,-78.962,12.725
15:53:38:086,28.968,-0.265,0.254,-0.021,-26.181,-78.962,12.725
15:53:38:113,28.995,-0.045,0.010,0.082,-22.518,-78.932,8.093
15:53:38:14,29.022,-0.045,0.010,0.082,-22.518,-78.932,8.093
15:53:38:167,29.049,0.035,0.052,0.026,-22.183,-77.942,7.178
15:53:38:195,29.076,-0.067,-0.028,-0.028,-21.812,-76.953,6.495
15:53:38:221,29.103,-0.087,0.128,-0.007,-21.882,-76.522,5.854
15:53:38:249,29.131,-0.022,-0.042,-0.040,-21.647,-76.023,4.887
15:53:38:276,29.157,-0.007,0.088,0.049,-21.076,-75.647,4.233
15:53:38:303,29.185,-0.090,0.085,0.093,-20.568,-75.352,2.973
15:53:38:33,29.211,-0.090,0.085,0.093,-20.568,-75.352,2.973
15:53:38:357,29.239,-0.090,0.085,0.093,-20.568,-75.352,2.973
15:53:38:385,29.267,-0.090,0.085,0.093,-20.568,-75.352,2.973
15:53:38:412,29.293,-0.090,0.085,0.093,-20.568,-75.352,2.973
15:53:38:439,29.320,-0.090,0.085,0.093,-20.568,-75.352,2.973
15:53:38:465,29.347,-0.025,0.025,0.031,-19.738,-74.947,1.768
15:53:38:493,29.375,-0.087,0.194,-0.104,-13.725,-69.267,-8.045
15:53:38:521,29.402,0.077,0.245,-0.170,-12.109,-68.065,-10.822
15:53:38:547,29.429,0.077,0.245,-0.170,-12.109,-68.065,-10.822
15:53:38:575,29.456,0.077,0.245,-0.170,-12.109,-68.065,-10.822
15:53:38:601,29.483,0.244,0.431,-0.948,-6.523,-65.283,-19.556
15:53:38:629,29.510,0.244,0.431,-0.948,-6.523,-65.283,-19.556
15:53:38:656,29.537,0.462,0.506,-0.782,1.622,-61.009,-32.066
15:53:38:683,29.565,0.381,0.415,-0.819,5.483,-59.569,-35.731
15:53:38:711,29.592,0.381,0.415,-0.819,5.483,-59.569,-35.731
15:53:38:738,29.620,0.348,-0.836,-0.098,14.660,-55.992,-40.380
15:53:38:766,29.647,-0.496,-1.233,-0.562,16.674,-53.307,-39.348
15:53:38:793,29.675,-0.316,-1.173,-0.239,16.119,-51.908,-38.662
15:53:38:82,29.702,-0.295,-0.977,-0.453,12.432,-50.757,-37.095
15:53:38:847,29.729,-0.257,-0.766,-0.382,6.704,-50.354,-34.884
15:53:38:875,29.757,-0.345,-0.444,-0.466,-3.974,-49.481,-28.009
15:53:38:902,29.783,-0.505,-0.226,-0.407,-7.809,-48.905,-24.128
15:53:38:929,29.811,-0.593,-0.051,-0.319,-13.069,-47.807,-17.296
15:53:38:957,29.839,-0.857,0.357,-0.132,-18.530,-46.611,-9.917
15:53:38:985,29.866,-0.838,0.630,0.225,-22.480,-46.569,-4.490
15:53:39:012,29.894,-0.369,1.182,1.244,-28.325,-47.960,4.652
15:53:39:039,29.920,0.052,0.781,1.959,-31.675,-48.877,10.702
15:53:39:066,29.947,0.052,0.781,1.959,-31.675,-48.877,10.702
15:53:39:093,29.975,0.052,0.781,1.959,-31.675,-48.877,10.702
15:53:39:12,30.002,0.440,-0.674,2.034,-38.090,-45.135,21.006
15:53:39:147,30.029,0.499,-0.374,1.166,-36.915,-41.665,17.308
15:53:39:174,30.056,-0.847,0.968,-1.344,-35.727,-39.100,14.792
15:53:39:201,30.083,-0.847,0.968,-1.344,-35.727,-39.100,14.792
15:53:39:228,30.110,-0.847,0.968,-1.344,-35.727,-39.100,14.792
15:53:39:256,30.138,0.160,-0.578,0.217,-30.202,-38.147,6.997
15:53:39:283,30.165,0.160,-0.578,0.217,-30.202,-38.147,6.997
15:53:39:31,30.192,0.160,-0.578,0.217,-30.202,-38.147,6.997
15:53:39:337,30.219,-0.065,-0.008,0.147,-27.824,-37.372,3.989
15:53:39:365,30.247,0.066,0.075,0.117,-27.438,-36.883,3.541
15:53:39:393,30.274,-0.115,-0.038,0.067,-26.978,-35.890,2.892
15:53:39:42,30.302,-0.115,-0.038,0.067,-26.978,-35.890,2.892
15:53:39:447,30.329,0.019,-0.016,0.048,-26.654,-34.013,1.566
15:53:39:475,30.357,0.000,-0.005,0.035,-26.164,-32.460,0.392
15:53:39:502,30.384,0.000,-0.005,0.035,-26.164,-32.460,0.392
15:53:39:529,30.411,-0.106,0.063,0.052,-25.161,-31.060,-0.870
15:53:39:557,30.439,-0.106,0.063,0.052,-25.161,-31.060,-0.870
15:53:39:584,30.466,-0.106,0.063,0.052,-25.161,-31.060,-0.870
15:53:39:612,30.493,-0.061,0.116,0.086,-22.899,-29.491,-4.261
15:53:39:638,30.520,-0.250,0.012,0.023,-21.878,-28.504,-6.035
15:53:39:665,30.547,-0.250,0.012,0.023,-21.878,-28.504,-6.035
15:53:39:693,30.575,-0.250,0.012,0.023,-21.878,-28.504,-6.035
15:53:39:72,30.602,-0.207,0.202,-0.059,-18.921,-26.756,-12.750
15:53:39:747,30.629,-0.207,0.202,-0.059,-18.921,-26.756,-12.750
15:53:39:774,30.656,-0.332,0.215,-0.173,-16.170,-25.213,-18.716
15:53:39:802,30.683,-0.332,0.215,-0.173,-16.170,-25.213,-18.716
15:53:39:829,30.711,-0.557,0.438,-0.884,-12.723,-23.035,-26.502
15:53:39:856,30.738,-0.340,0.932,-0.831,-10.989,-21.804,-30.398
15:53:39:883,30.765,-0.277,1.090,-0.949,-7.651,-20.259,-38.085
15:53:39:91,30.792,-0.277,1.090,-0.949,-7.651,-20.259,-38.085
15:53:39:938,30.820,-0.277,1.090,-0.949,-7.651,-20.259,-38.085
15:53:39:965,30.847,-0.622,-1.370,-0.455,13.617,-15.410,-50.830
15:53:39:993,30.875,-0.622,-1.370,-0.455,13.617,-15.410,-50.830
15:53:40:021,30.902,-0.278,-1.301,-0.116,12.073,-13.053,-49.424
15:53:40:048,30.930,-0.603,-1.038,-0.092,9.561,-10.810,-47.792
15:53:40:075,30.956,-0.813,-0.699,0.036,-1.026,-3.399,-39.901
15:53:40:102,30.984,-0.813,-0.699,0.036,-1.026,-3.399,-39.901
15:53:40:129,31.011,-0.813,-0.699,0.036,-1.026,-3.399,-39.901
15:53:40:156,31.038,-0.972,-0.060,0.524,-14.139,4.380,-24.765
15:53:40:183,31.065,-0.887,0.355,0.885,-19.821,6.520,-16.838
15:53:40:211,31.092,-0.104,1.184,1.340,-25.574,7.010,-7.843
15:53:40:238,31.120,-0.104,1.184,1.340,-25.574,7.010,-7.843
15:53:40:265,31.146,1.588,0.779,0.956,-32.222,4.775,8.209
15:53:40:292,31.174,1.588,0.779,0.956,-32.222,4.775,8.209
15:53:40:319,31.201,2.694,-0.567,0.787,-33.602,3.565,13.040
15:53:40:346,31.228,-1.329,0.823,-0.597,-33.249,11.242,10.673
15:53:40:373,31.255,-1.329,0.823,-0.597,-33.249,11.242,10.673
15:53:40:4,31.282,0.488,-0.301,0.095,-30.812,13.302,7.063
15:53:40:427,31.309,0.488,-0.301,0.095,-30.812,13.302,7.063
15:53:40:454,31.336,0.267,0.218,0.278,-26.337,7.383,0.981
15:53:40:482,31.364,-0.223,-0.093,0.053,-24.980,7.602,-0.380
15:53:40:509,31.391,-0.223,-0.093,0.053,-24.980,7.602,-0.380
15:53:40:536,31.418,-0.061,-0.042,0.104,-23.855,7.873,-1.797
15:53:40:563,31.445,-0.061,-0.042,0.104,-23.855,7.873,-1.797
15:53:40:59,31.472,-0.134,0.026,0.078,-23.255,8.397,-2.713
15:53:40:618,31.499,-0.134,0.026,0.078,-23.255,8.397,-2.713
15:53:40:645,31.527,-0.054,0.029,0.047,-22.763,9.408,-4.284
15:53:40:672,31.554,-0.054,0.029,0.047,-22.763,9.408,-4.284
15:53:40:699,31.581,-0.095,-0.010,0.090,-21.531,10.555,-5.826
15:53:40:727,31.608,-0.088,0.065,0.092,-20.974,10.908,-6.589
15:53:40:754,31.636,-0.088,0.065,0.092,-20.974,10.908,-6.589
15:53:40:781,31.663,-0.088,0.065,0.092,-20.974,10.908,-6.589
15:53:40:808,31.689,-0.152,0.099,0.095,-19.145,12.303,-9.233
15:53:40:835,31.717,-0.250,0.136,0.101,-17.338,13.736,-12.283
15:53:40:862,31.744,-0.246,0.179,0.065,-16.491,14.190,-13.809
15:53:40:889,31.771,-0.296,0.135,0.069,-14.892,14.733,-16.396
15:53:40:916,31.798,-0.369,0.185,-0.038,-13.711,15.011,-18.407
15:53:40:943,31.825,-0.440,0.227,-0.100,-11.595,15.594,-21.912
15:53:40:97,31.852,-0.724,0.277,-0.264,-8.827,16.738,-26.162
15:53:40:998,31.880,-1.026,0.437,-0.377,-6.605,17.992,-29.548
15:53:41:025,31.907,-0.905,0.555,-0.545,2.007,21.900,-39.736
15:53:41:052,31.934,-0.905,0.555,-0.545,2.007,21.900,-39.736
15:53:41:079,31.961,-0.293,-0.710,-0.387,19.198,25.976,-46.916
15:53:41:106,31.988,-0.311,-0.716,-0.551,23.311,27.931,-47.929
15:53:41:134,32.015,-0.782,-1.457,0.574,25.544,30.993,-47.038
15:53:41:161,32.043,-0.357,-1.230,0.225,24.660,32.091,-45.829
15:53:41:188,32.070,-0.357,-1.230,0.225,24.660,32.091,-45.829
15:53:41:216,32.097,-0.412,-0.822,0.125,15.247,34.454,-42.352
15:53:41:243,32.125,-0.412,-0.822,0.125,15.247,34.454,-42.352
15:53:41:271,32.152,-0.538,-0.472,0.171,-0.980,35.350,-34.108
15:53:41:298,32.180,-0.595,-0.288,0.257,-5.910,35.426,-30.072
15:53:41:325,32.206,-0.560,0.086,0.436,-12.383,35.390,-22.923
15:53:41:352,32.234,-0.280,0.529,0.630,-16.382,35.080,-17.626
15:53:41:379,32.260,0.378,1.216,0.524,-22.154,33.430,-8.675
15:53:41:406,32.288,1.318,1.418,0.282,-26.964,31.354,1.056
15:53:41:433,32.315,1.640,0.996,0.140,-29.456,30.155,6.926
15:53:41:461,32.342,2.223,-0.117,-0.198,-32.198,28.592,13.186
15:53:41:488,32.369,2.159,-0.566,0.184,-33.398,28.594,15.232
15:53:41:515,32.397,1.756,-0.301,0.281,-33.615,29.704,14.633
15:53:41:542,32.424,0.988,0.160,0.601,-32.309,29.986,12.304
15:53:41:569,32.451,-1.517,0.930,1.194,-30.122,30.282,9.236
15:53:41:596,32.478,0.680,0.331,-0.421,-27.804,28.244,5.436
15:53:41:624,32.505,0.618,0.696,0.179,-27.053,26.047,3.254
15:53:41:651,32.533,0.618,0.696,0.179,-27.053,26.047,3.254
15:53:41:678,32.560,-0.084,-0.026,0.109,-22.970,24.133,-1.332
15:53:41:705,32.587,-0.084,-0.026,0.109,-22.970,24.133,-1.332
15:53:41:733,32.614,-0.084,-0.026,0.109,-22.970,24.133,-1.332
15:53:41:76,32.642,-0.061,-0.005,0.086,-21.650,24.342,-2.693
15:53:41:787,32.669,-0.013,-0.001,0.029,-21.193,23.968,-3.266
15:53:41:814,32.696,0.073,-0.008,0.074,-20.838,23.943,-3.636
15:53:41:841,32.723,0.073,-0.008,0.074,-20.838,23.943,-3.636
15:53:41:869,32.750,-0.048,0.028,0.014,-20.069,24.545,-4.824
15:53:41:896,32.778,-0.091,-0.017,0.113,-19.674,24.946,-5.372
15:53:41:923,32.805,-0.095,0.023,0.122,-19.289,25.243,-5.809
15:53:41:95,32.832,-0.156,0.020,0.113,-18.690,25.485,-6.664
15:53:41:978,32.859,-0.121,0.113,0.164,-17.999,25.718,-7.846
15:53:42:005,32.886,-0.126,0.063,0.153,-17.424,25.879,-8.803
15:53:42:032,32.914,-0.235,0.081,0.124,-16.304,26.354,-10.488
15:53:42:06,32.942,-0.193,0.189,0.105,-15.330,26.504,-11.888
15:53:42:087,32.968,-0.243,0.229,0.162,-13.699,26.854,-14.309
15:53:42:115,32.997,-0.286,0.254,0.124,-12.500,27.062,-16.035
15:53:42:142,33.024,-0.360,0.188,0.088,-10.634,27.307,-18.869
15:53:42:17,33.051,-0.582,0.244,-0.011,-8.525,27.569,-22.120
15:53:42:196,33.078,-0.727,0.318,-0.219,-6.920,27.930,-24.666
15:53:42:224,33.106,-1.210,0.318,-0.300,-3.857,29.012,-29.122
15:53:42:251,33.133,-1.104,0.406,-0.179,-0.893,30.403,-32.601
15:53:42:278,33.160,-0.979,0.528,-0.223,5.362,31.934,-38.780
15:53:42:305,33.187,-1.388,-0.179,-0.160,10.362,32.862,-42.623
15:53:42:332,33.214,-0.951,-0.607,-0.044,18.421,33.643,-46.662
15:53:42:359,33.241,-0.783,-1.256,-0.317,23.849,35.010,-48.281
15:53:42:386,33.268,-0.419,-1.195,0.255,21.995,38.060,-45.857
15:53:42:413,33.295,-0.419,-1.195,0.255,21.995,38.060,-45.857
15:53:42:44,33.322,-0.420,-0.892,0.228,11.059,40.002,-40.699
15:53:42:468,33.350,-0.619,-0.432,0.402,-1.751,41.282,-31.924
15:53:42:495,33.376,-0.619,-0.432,0.402,-1.751,41.282,-31.924
15:53:42:522,33.404,-0.504,0.096,0.591,-12.419,41.517,-19.566
15:53:42:549,33.431,-0.504,0.096,0.591,-12.419,41.517,-19.566
15:53:42:576,33.458,-0.504,0.096,0.591,-12.419,41.517,-19.566
15:53:42:603,33.485,1.290,1.680,0.324,-24.486,37.243,-0.517
15:53:42:632,33.513,2.210,0.398,-0.771,-29.922,32.906,14.251
15:53:42:659,33.541,2.584,-0.898,-0.274,-30.744,32.290,16.919
15:53:42:686,33.568,2.080,-0.243,-0.085,-31.397,33.636,16.335
15:53:42:713,33.595,-0.384,0.052,-0.297,-29.982,34.351,13.611
15:53:42:74,33.622,-1.255,0.874,1.543,-27.999,35.255,10.701
15:53:42:767,33.649,0.468,0.437,-0.561,-25.889,33.003,6.176
15:53:42:794,33.676,1.224,0.534,-0.481,-25.128,31.243,3.768
15:53:42:822,33.704,0.243,-0.701,0.125,-23.229,29.364,1.742
15:53:42:85,33.731,0.258,0.275,0.130,-23.052,28.800,0.241
15:53:42:876,33.758,-0.179,-0.074,0.155,-21.923,29.522,-0.971
15:53:42:904,33.785,0.024,0.031,0.080,-21.348,29.797,-2.005
15:53:42:931,33.813,-0.002,0.005,0.040,-21.109,29.769,-2.518
15:53:42:959,33.840,-0.002,0.005,0.040,-21.109,29.769,-2.518
15:53:42:985,33.867,-0.085,0.023,0.018,-20.668,30.346,-3.554
15:53:43:013,33.895,-0.155,-0.022,0.144,-20.224,31.114,-4.336
15:53:43:04,33.922,-0.070,0.011,0.147,-19.966,31.243,-4.920
15:53:43:067,33.949,-0.036,-0.005,0.063,-19.525,31.447,-5.821
15:53:43:094,33.976,-0.122,0.001,0.151,-18.876,31.832,-6.740
15:53:43:122,34.004,-0.148,0.028,0.105,-18.428,31.954,-7.427
15:53:43:149,34.030,-0.044,0.050,0.135,-17.604,31.994,-8.680
15:53:43:176,34.058,-0.169,0.080,0.206,-16.242,31.122,-11.143
15:53:43:203,34.085,-0.169,0.080,0.206,-16.242,31.122,-11.143
15:53:43:23,34.112,-0.217,0.220,0.092,-15.318,31.575,-13.052
15:53:43:258,34.140,-0.312,0.172,0.127,-12.903,31.204,-17.027
15:53:43:285,34.166,-0.312,0.172,0.127,-12.903,31.204,-17.027
15:53:43:312,34.194,-0.501,0.244,-0.056,-9.641,30.620,-22.216
15:53:43:339,34.221,-0.805,0.383,-0.238,-7.805,30.026,-24.775
15:53:43:366,34.248,-0.805,0.383,-0.238,-7.805,30.026,-24.775
15:53:43:393,34.275,-0.916,0.519,-0.001,0.639,33.536,-35.304
15:53:43:42,34.302,-0.810,0.586,-0.233,5.067,34.982,-39.683
15:53:43:447,34.329,-0.810,0.586,-0.233,5.067,34.982,-39.683
15:53:43:475,34.356,-1.295,-0.127,-0.083,13.160,37.472,-45.044
15:53:43:501,34.383,-0.318,-0.675,-0.616,25.598,40.450,-49.326
15:53:43:529,34.410,-0.385,-1.580,0.854,28.003,43.937,-47.489
15:53:43:556,34.437,-0.310,-1.225,0.415,26.881,45.374,-46.653
15:53:43:583,34.465,-0.376,-1.003,0.400,21.617,46.996,-45.036
15:53:43:61,34.492,-0.391,-0.868,0.376,16.656,47.699,-43.655
15:53:43:637,34.519,-0.476,-0.713,0.385,8.172,48.497,-40.427
15:53:43:665,34.546,-0.541,-0.372,0.502,0.098,49.518,-35.647
15:53:43:691,34.573,-0.458,-0.292,0.564,-4.349,50.352,-31.546
15:53:43:719,34.601,-0.417,-0.012,0.768,-10.202,52.033,-24.432
15:53:43:747,34.629,-0.417,-0.012,0.768,-10.202,52.033,-24.432
15:53:43:774,34.656,-0.417,-0.012,0.768,-10.202,52.033,-24.432
15:53:43:801,34.683,-0.417,-0.012,0.768,-10.202,52.033,-24.432
15:53:43:828,34.710,-0.417,-0.012,0.768,-10.202,52.033,-24.432
15:53:43:855,34.737,1.918,1.055,0.037,-28.782,52.107,3.948
15:53:43:882,34.764,2.116,-0.793,-0.692,-31.778,50.928,13.247
15:53:43:909,34.791,1.699,0.138,-0.521,-32.032,54.532,12.087
15:53:43:937,34.819,0.151,-0.330,0.637,-28.396,60.594,5.867
15:53:43:964,34.845,0.151,-0.330,0.637,-28.396,60.594,5.867
15:53:43:992,34.873,0.913,0.742,-0.804,-27.072,60.183,1.945
15:53:44:02,34.902,0.419,0.040,-0.179,-24.222,57.106,-0.977
15:53:44:048,34.929,0.419,0.040,-0.179,-24.222,57.106,-0.977
15:53:44:074,34.956,-0.008,-0.002,0.090,-22.900,57.550,-2.631
15:53:44:101,34.983,-0.020,0.018,-0.004,-22.511,57.770,-3.041
15:53:44:128,35.010,-0.020,0.018,-0.004,-22.511,57.770,-3.041
15:53:44:156,35.037,-0.104,-0.011,0.103,-21.785,58.484,-3.170
15:53:44:183,35.065,-0.107,-0.031,0.096,-21.543,58.827,-3.316
15:53:44:211,35.093,-0.122,-0.003,0.128,-21.246,59.142,-3.326
15:53:44:238,35.120,-0.117,0.017,0.103,-21.073,59.363,-3.395
15:53:44:265,35.147,-0.062,-0.008,0.116,-20.640,59.893,-4.109
15:53:44:292,35.174,-0.062,-0.008,0.116,-20.640,59.893,-4.109
15:53:44:319,35.201,-0.128,0.016,0.132,-19.903,60.890,-5.729
15:53:44:346,35.228,-0.151,0.036,0.123,-19.451,61.578,-7.115
15:53:44:373,35.255,-0.055,0.054,0.143,-19.114,62.174,-8.294
15:53:44:4,35.282,-0.038,0.066,0.118,-18.676,63.494,-10.316
15:53:44:427,35.309,-0.116,0.048,0.233,-17.519,65.579,-12.319
15:53:44:455,35.337,-0.155,0.196,0.274,-16.677,66.366,-13.921
15:53:44:482,35.363,-0.157,0.101,0.268,-15.178,68.102,-16.519
15:53:44:509,35.391,-0.159,0.136,0.239,-14.207,68.535,-18.430
15:53:44:536,35.418,-0.298,0.204,0.232,-12.608,70.184,-21.575
15:53:44:564,35.445,-0.404,0.144,0.355,-11.269,70.918,-23.892
15:53:44:591,35.473,-0.632,0.264,0.431,-8.858,72.561,-27.963
15:53:44:618,35.499,-0.927,0.170,0.806,-5.707,74.517,-32.834
15:53:44:645,35.527,-0.954,0.534,0.692,2.760,77.618,-44.044
15:53:44:672,35.554,-0.954,0.534,0.692,2.760,77.618,-44.044
15:53:44:699,35.581,-0.913,-0.441,0.695,17.602,80.452,-52.202
15:53:44:726,35.608,-0.418,-1.320,0.500,25.184,82.842,-52.938
15:53:44:753,35.635,-0.418,-1.320,0.500,25.184,82.842,-52.938
15:53:44:78,35.662,0.130,-1.225,0.437,26.779,87.484,-49.602
15:53:44:807,35.689,0.136,-1.189,0.555,24.683,89.724,-47.844
15:53:44:834,35.716,0.136,-1.189,0.555,24.683,89.724,-47.844
15:53:44:862,35.744,0.136,-1.189,0.555,24.683,89.724,-47.844
15:53:44:89,35.771,0.151,-0.331,0.748,-1.897,97.098,-31.095
15:53:44:916,35.798,0.310,-0.050,0.760,-5.925,98.177,-26.117
15:53:44:944,35.825,0.598,0.421,0.854,-11.862,99.285,-17.881
15:53:44:971,35.853,0.748,1.452,-0.008,-15.876,99.096,-11.797
15:53:44:998,35.880,0.857,1.741,-0.893,-21.262,97.691,-2.009
15:53:45:025,35.907,0.626,0.879,-1.625,-24.499,96.810,7.060
15:53:45:052,35.934,0.374,0.128,-2.303,-25.888,96.611,11.301
15:53:45:079,35.961,0.731,-0.592,-2.262,-27.372,98.670,14.185
15:53:45:106,35.988,0.731,-0.592,-2.262,-27.372,98.670,14.185
15:53:45:133,36.015,0.731,-0.592,-2.262,-27.372,98.670,14.185
15:53:45:16,36.042,0.504,0.339,-1.517,-27.618,100.926,13.750
15:53:45:188,36.070,-0.586,0.742,-1.308,-22.953,104.326,4.019
15:53:45:215,36.097,-0.586,0.742,-1.308,-22.953,104.326,4.019
15:53:45:242,36.124,-0.119,-0.033,-0.517,-19.926,101.650,0.460
15:53:45:269,36.151,0.008,-0.085,0.036,-19.013,101.791,-0.939
15:53:45:298,36.180,0.015,-0.005,0.105,-18.464,102.205,-1.320
15:53:45:325,36.206,-0.085,0.009,0.131,-17.988,102.511,-1.820
15:53:45:352,36.234,-0.079,0.008,0.041,-17.590,102.654,-2.219
15:53:45:379,36.261,-0.121,0.018,0.029,-17.418,102.858,-2.540
15:53:45:407,36.289,-0.033,-0.046,0.097,-17.041,103.473,-2.933
15:53:45:434,36.315,0.003,0.015,0.171,-16.905,104.057,-3.338
15:53:45:462,36.344,-0.060,-0.008,0.115,-16.630,104.615,-4.000
15:53:45:489,36.371,-0.070,-0.026,0.197,-16.244,105.094,-4.811
15:53:45:517,36.398,-0.110,0.004,0.206,-15.791,105.551,-5.461
15:53:45:544,36.425,-0.110,0.004,0.206,-15.791,105.551,-5.461
15:53:45:571,36.453,0.010,0.083,0.086,-15.179,106.047,-6.773
15:53:45:599,36.481,0.035,0.044,0.275,-13.262,108.006,-10.059
15:53:45:626,36.508,0.035,0.044,0.275,-13.262,108.006,-10.059
15:53:45:653,36.535,-0.007,0.161,0.287,-10.797,109.632,-14.445
15:53:45:681,36.562,-0.039,0.119,0.328,-9.743,110.110,-16.196
15:53:45:707,36.589,-0.174,0.202,0.375,-8.059,110.787,-19.177
15:53:45:735,36.616,-0.184,0.178,0.559,-6.644,111.428,-21.406
15:53:45:762,36.644,-0.314,0.256,0.763,-3.860,112.712,-25.242
15:53:45:789,36.671,-0.191,0.177,1.411,-0.174,114.783,-29.883
15:53:45:817,36.698,-0.311,0.487,1.186,2.783,116.395,-33.647
15:53:45:844,36.726,-0.461,0.262,1.093,8.978,117.721,-40.443
15:53:45:871,36.753,-0.353,-0.225,1.276,14.233,118.775,-44.266
15:53:45:898,36.780,-0.392,-0.764,0.760,22.356,120.311,-47.915
15:53:45:925,36.807,0.011,-1.285,0.748,27.516,121.392,-48.943
15:53:45:953,36.835,0.317,-1.430,0.423,30.442,123.810,-48.194
15:53:45:98,36.862,0.291,-1.197,0.275,30.296,126.117,-46.120
15:53:46:007,36.889,0.291,-1.197,0.275,30.296,126.117,-46.120
15:53:46:034,36.916,0.309,-0.923,0.404,22.964,129.779,-41.322
15:53:46:061,36.943,0.330,-0.867,0.444,18.101,130.571,-38.856
15:53:46:089,36.970,0.335,-0.582,0.630,10.138,131.479,-34.004
15:53:46:115,36.997,0.335,-0.582,0.630,10.138,131.479,-34.004
15:53:46:143,37.025,0.335,-0.582,0.630,10.138,131.479,-34.004
15:53:46:17,37.052,0.335,-0.582,0.630,10.138,131.479,-34.004
15:53:46:197,37.079,0.703,0.705,0.382,-7.910,132.418,-14.189
15:53:46:224,37.106,0.703,0.705,0.382,-7.910,132.418,-14.189
15:53:46:251,37.133,-1.190,0.121,-2.228,-20.185,127.161,12.518
15:53:46:279,37.161,-1.190,0.121,-2.228,-20.185,127.161,12.518
15:53:46:306,37.188,-0.324,-0.217,-1.960,-21.392,129.113,13.914
15:53:46:334,37.215,-0.495,-0.115,-1.972,-20.669,130.687,12.036
15:53:46:361,37.243,-0.819,0.463,-0.413,-16.715,131.635,5.061
15:53:46:389,37.271,-0.819,0.463,-0.413,-16.715,131.635,5.061
15:53:46:416,37.297,-0.392,-0.403,-0.217,-14.241,128.464,0.984
15:53:46:443,37.325,-0.392,-0.403,-0.217,-14.241,128.464,0.984
15:53:46:47,37.352,-0.392,-0.403,-0.217,-14.241,128.464,0.984
15:53:46:497,37.379,0.008,-0.030,0.299,-12.977,129.084,-0.942
15:53:46:525,37.407,-0.035,-0.013,0.188,-12.251,129.255,-2.235
15:53:46:552,37.434,-0.211,0.045,0.090,-12.156,129.061,-2.779
15:53:46:579,37.461,-0.118,-0.013,0.102,-11.972,129.362,-3.025
15:53:46:606,37.488,0.027,-0.009,0.239,-11.773,129.993,-3.441
15:53:46:634,37.515,-0.067,-0.020,0.147,-11.605,130.056,-3.845
15:53:46:661,37.543,-0.052,0.008,0.265,-11.121,130.349,-4.583
15:53:46:688,37.570,-0.002,-0.018,0.336,-10.208,130.848,-5.582
15:53:46:715,37.597,0.063,0.047,0.151,-9.494,130.816,-6.508
15:53:46:742,37.624,-0.050,0.056,0.095,-8.689,130.867,-8.000
15:53:46:769,37.651,-0.034,0.046,0.163,-8.199,131.146,-8.920
15:53:46:796,37.678,0.024,0.023,0.281,-7.198,131.946,-10.345
15:53:46:823,37.705,-0.011,0.068,0.247,-6.373,132.264,-11.481
15:53:46:851,37.733,-0.027,0.160,0.314,-5.071,132.980,-13.520
15:53:46:878,37.760,-0.027,0.160,0.314,-5.071,132.980,-13.520
15:53:46:905,37.787,-0.055,0.148,0.502,-0.528,134.717,-20.581
15:53:46:932,37.814,-0.055,0.148,0.502,-0.528,134.717,-20.581
15:53:46:959,37.841,-0.055,0.148,0.502,-0.528,134.717,-20.581
15:53:46:986,37.868,-0.055,0.148,0.502,-0.528,134.717,-20.581
15:53:47:013,37.895,-0.129,0.493,1.122,12.309,141.729,-35.512
15:53:47:041,37.922,-0.012,-0.113,1.006,25.229,147.184,-43.489
15:53:47:068,37.950,-0.012,-0.113,1.006,25.229,147.184,-43.489
15:53:47:095,37.976,-0.012,-0.113,1.006,25.229,147.184,-43.489
15:53:47:122,38.004,0.950,-1.641,0.585,35.233,153.236,-45.845
15:53:47:149,38.031,0.950,-1.641,0.585,35.233,153.236,-45.845
15:53:47:176,38.058,0.950,-1.641,0.585,35.233,153.236,-45.845
15:53:47:204,38.085,0.950,-1.641,0.585,35.233,153.236,-45.845
15:53:47:231,38.113,1.152,-0.340,-0.102,15.119,167.080,-32.515
15:53:47:259,38.140,1.152,-0.340,-0.102,15.119,167.080,-32.515
15:53:47:286,38.168,0.945,0.114,-0.273,2.040,171.237,-18.650
15:53:47:313,38.195,0.792,0.434,-0.307,-1.738,171.870,-13.145
15:53:47:34,38.222,0.792,0.434,-0.307,-1.738,171.870,-13.145
15:53:47:367,38.249,0.792,0.434,-0.307,-1.738,171.870,-13.145
15:53:47:395,38.276,0.792,0.434,-0.307,-1.738,171.870,-13.145
15:53:47:422,38.304,-1.405,1.510,-0.761,-10.461,169.977,1.336
15:53:47:449,38.330,-1.978,-0.511,-0.833,-15.827,171.437,16.165
15:53:47:477,38.358,-1.978,-0.511,-0.833,-15.827,171.437,16.165
15:53:47:504,38.386,2.151,0.391,1.469,-15.241,175.864,14.635
15:53:47:531,38.412,-1.844,-0.217,0.103,-14.430,176.866,12.029
15:53:47:558,38.440,-1.723,1.450,-0.478,-14.022,174.845,9.541
15:53:47:585,38.467,-0.174,0.012,0.086,-11.616,174.401,7.193
15:53:47:612,38.494,-0.174,0.012,0.086,-11.616,174.401,7.193
15:53:47:639,38.521,0.013,0.021,0.093,-11.119,174.617,6.783
15:53:47:667,38.548,0.013,0.021,0.093,-11.119,174.617,6.783
15:53:47:693,38.575,-0.010,-0.060,0.216,-10.882,174.901,6.521
15:53:47:721,38.602,-0.010,-0.060,0.216,-10.882,174.901,6.521
15:53:47:748,38.630,0.023,-0.007,0.121,-10.603,176.219,6.472
15:53:47:775,38.657,0.023,-0.007,0.121,-10.603,176.219,6.472
15:53:47:803,38.684,-0.025,0.047,0.163,-9.749,178.088,4.942
15:53:47:829,38.711,-0.064,0.024,0.161,-8.955,178.624,3.516
15:53:47:857,38.738,0.024,0.057,0.230,-8.367,179.187,2.621
15:53:47:884,38.766,-0.025,0.046,0.259,-7.464,179.907,1.117
15:53:47:911,38.792,0.003,-0.005,0.095,-6.434,-179.173,-0.650
15:53:47:938,38.820,0.065,0.055,0.024,-5.449,-178.705,-1.870
15:53:47:965,38.847,0.065,0.145,0.180,-4.184,-177.620,-3.872
15:53:47:993,38.874,0.091,0.149,0.185,-3.287,-176.995,-5.329
15:53:48:02,38.902,0.157,0.174,0.225,-1.719,-175.996,-7.690
15:53:48:047,38.929,0.196,0.213,0.337,0.025,-175.265,-10.587
15:53:48:074,38.956,0.289,0.192,0.413,1.485,-174.384,-12.756
15:53:48:102,38.984,0.507,0.309,0.694,4.115,-172.855,-16.642
15:53:48:129,39.011,1.061,0.392,0.913,6.227,-171.287,-19.766
15:53:48:156,39.038,1.061,0.392,0.913,6.227,-171.287,-19.766
15:53:48:183,39.065,0.702,0.406,0.852,14.236,-166.751,-29.754
15:53:48:21,39.092,0.784,0.055,0.845,20.482,-164.567,-35.222
15:53:48:237,39.119,-0.009,-1.208,0.703,26.492,-162.935,-37.999
15:53:48:265,39.146,0.333,-1.027,0.199,28.580,-161.224,-38.211
15:53:48:292,39.173,0.510,-1.327,-0.288,29.374,-159.182,-36.214
15:53:48:319,39.201,0.510,-1.327,-0.288,29.374,-159.182,-36.214
15:53:48:346,39.228,0.510,-1.327,-0.288,29.374,-159.182,-36.214
15:53:48:374,39.256,0.392,-0.826,0.024,20.608,-157.073,-30.510
15:53:48:401,39.282,0.499,-0.670,0.125,13.984,-157.285,-26.696
15:53:48:428,39.310,0.543,-0.338,0.120,6.926,-157.927,-21.703
15:53:48:455,39.337,0.424,0.284,-0.051,-3.824,-159.422,-10.734
15:53:48:483,39.364,0.424,0.284,-0.051,-3.824,-159.422,-10.734
15:53:48:511,39.392,-0.248,0.919,-0.084,-7.738,-160.501,-5.631
15:53:48:538,39.420,-0.248,0.919,-0.084,-7.738,-160.501,-5.631
15:53:48:565,39.447,-0.248,0.919,-0.084,-7.738,-160.501,-5.631
15:53:48:594,39.475,-0.248,0.919,-0.084,-7.738,-160.501,-5.631
15:53:48:62,39.502,-2.057,-0.397,-0.427,-21.553,-163.293,18.782
15:53:48:648,39.530,-2.057,-0.397,-0.427,-21.553,-163.293,18.782
15:53:48:676,39.558,-2.057,-0.397,-0.427,-21.553,-163.293,18.782
15:53:48:703,39.584,1.376,1.101,-0.313,-19.240,-162.354,15.951
15:53:48:731,39.612,-1.953,0.039,0.120,-17.279,-164.482,12.666
15:53:48:758,39.640,-0.610,0.196,0.215,-14.146,-166.663,9.503
15:53:48:786,39.668,-0.610,0.196,0.215,-14.146,-166.663,9.503
15:53:48:813,39.695,-0.610,0.196,0.215,-14.146,-166.663,9.503
15:53:48:84,39.722,-0.610,0.196,0.215,-14.146,-166.663,9.503
15:53:48:867,39.749,-0.610,0.196,0.215,-14.146,-166.663,9.503
15:53:48:895,39.776,-0.119,-0.014,0.144,-12.961,-166.089,7.786
15:53:48:921,39.803,-0.119,-0.014,0.144,-12.961,-166.089,7.786
15:53:48:949,39.831,-0.119,-0.014,0.144,-12.961,-166.089,7.786
15:53:48:976,39.858,-0.115,-0.036,0.249,-11.611,-164.079,6.255
15:53:49:003,39.885,-0.042,-0.017,0.123,-11.272,-162.280,5.694
15:53:49:03,39.912,-0.042,-0.017,0.123,-11.272,-162.280,5.694
15:53:49:059,39.941,-0.042,-0.017,0.123,-11.272,-162.280,5.694
15:53:49:086,39.968,0.048,0.134,0.070,-8.748,-158.433,1.098
15:53:49:113,39.995,0.048,0.134,0.070,-8.748,-158.433,1.098
15:53:49:14,40.022,0.048,0.134,0.070,-8.748,-158.433,1.098
15:53:49:167,40.049,0.182,0.264,0.184,-4.535,-157.126,-5.871
15:53:49:194,40.076,0.507,0.257,0.301,-0.930,-155.353,-11.721
15:53:49:221,40.103,0.816,0.496,0.524,0.885,-154.181,-14.574
15:53:49:248,40.130,0.816,0.496,0.524,0.885,-154.181,-14.574
15:53:49:276,40.157,0.536,0.788,0.686,8.435,-149.291,-25.865
15:53:49:303,40.185,0.536,0.788,0.686,8.435,-149.291,-25.865
15:53:49:33,40.211,1.181,-0.214,0.360,18.975,-146.072,-34.988
15:53:49:357,40.239,0.106,-0.853,0.765,23.364,-145.224,-36.534
15:53:49:385,40.266,0.106,-0.853,0.765,23.364,-145.224,-36.534
15:53:49:412,40.293,0.106,-0.853,0.765,23.364,-145.224,-36.534
15:53:49:439,40.321,0.266,-1.304,-0.208,27.632,-143.313,-36.038
15:53:49:466,40.347,0.392,-0.963,-0.044,23.089,-142.494,-31.336
15:53:49:493,40.375,0.438,-0.817,0.071,19.623,-143.019,-29.192
15:53:49:521,40.403,0.533,-0.685,0.120,13.449,-144.370,-24.987
15:53:49:548,40.430,0.555,-0.382,0.104,9.167,-145.356,-21.359
15:53:49:575,40.457,0.555,-0.382,0.104,9.167,-145.356,-21.359
15:53:49:602,40.484,0.521,0.446,-0.053,-3.205,-148.912,-7.069
15:53:49:63,40.512,0.258,0.853,-0.082,-7.319,-151.086,-1.227
15:53:49:658,40.539,-1.036,1.638,0.232,-13.023,-155.880,8.557
15:53:49:686,40.567,-1.915,1.092,0.410,-16.046,-159.050,15.331
15:53:49:713,40.595,-1.915,1.092,0.410,-16.046,-159.050,15.331
15:53:49:74,40.621,-2.223,0.318,0.592,-19.131,-162.940,24.421
15:53:49:766,40.648,-2.266,-0.572,-0.235,-23.054,-163.482,30.255
15:53:49:795,40.676,0.642,0.009,0.347,-21.606,-161.184,26.688
15:53:49:822,40.704,0.642,0.009,0.347,-21.606,-161.184,26.688
15:53:49:849,40.730,0.642,0.009,0.347,-21.606,-161.184,26.688
15:53:49:876,40.758,-1.115,0.524,0.278,-15.367,-163.142,16.117
15:53:49:903,40.785,-1.115,0.524,0.278,-15.367,-163.142,16.117
15:53:49:931,40.812,-0.516,0.296,0.116,-12.168,-164.787,11.338
15:53:49:958,40.839,-0.160,0.018,0.083,-11.171,-163.530,9.760
15:53:49:985,40.867,-0.074,0.000,0.163,-11.087,-163.494,9.320
15:53:50:012,40.893,-0.112,-0.039,0.297,-11.110,-163.376,8.758
15:53:50:039,40.921,-0.027,0.021,0.200,-10.903,-162.404,8.200
15:53:50:068,40.949,0.042,0.016,0.034,-10.630,-161.806,7.779
15:53:50:094,40.976,-0.102,-0.017,0.155,-10.242,-161.525,6.970
15:53:50:122,41.004,-0.084,0.014,0.214,-10.028,-161.147,6.393
15:53:50:149,41.031,0.063,-0.005,0.177,-9.441,-160.332,5.512
15:53:50:177,41.058,-0.058,0.046,0.064,-8.970,-159.964,4.778
15:53:50:204,41.085,-0.058,0.046,0.064,-8.970,-159.964,4.778
15:53:50:231,41.113,0.011,0.049,0.106,-7.494,-158.362,2.438
15:53:50:259,41.140,0.072,0.103,0.167,-6.955,-157.839,1.483
15:53:50:286,41.168,0.074,0.176,0.173,-5.839,-157.072,-0.322
15:53:50:313,41.194,0.155,0.236,0.159,-5.017,-156.529,-1.814
15:53:50:34,41.222,0.214,0.200,0.060,-3.289,-155.654,-4.401
15:53:50:367,41.249,0.255,0.199,0.148,-1.364,-154.906,-7.549
15:53:50:394,41.276,0.385,0.257,0.375,0.078,-154.283,-9.955
15:53:50:421,41.303,0.385,0.257,0.375,0.078,-154.283,-9.955
15:53:50:448,41.330,0.385,0.257,0.375,0.078,-154.283,-9.955
15:53:50:475,41.357,0.385,0.257,0.375,0.078,-154.283,-9.955
15:53:50:502,41.384,0.385,0.257,0.375,0.078,-154.283,-9.955
15:53:50:529,41.411,0.385,0.257,0.375,0.078,-154.283,-9.955
15:53:50:556,41.438,0.310,-0.773,0.510,25.627,-142.277,-35.483
15:53:50:583,41.465,0.310,-0.773,0.510,25.627,-142.277,-35.483
15:53:50:611,41.492,0.231,-1.292,-0.370,28.545,-138.813,-34.582
15:53:50:638,41.519,0.253,-1.139,-0.215,27.020,-138.691,-34.038
15:53:50:664,41.546,0.290,-1.009,-0.072,22.494,-138.698,-32.531
15:53:50:692,41.573,0.454,-0.714,-0.148,11.404,-139.571,-27.278
15:53:50:718,41.600,0.475,-0.463,-0.217,4.469,-140.325,-22.099
15:53:50:746,41.627,0.475,-0.463,-0.217,4.469,-140.325,-22.099
15:53:50:773,41.655,0.428,0.113,-0.342,-5.824,-141.717,-10.186
15:53:50:801,41.682,0.019,0.766,-0.488,-11.806,-142.833,-1.663
15:53:50:828,41.709,-0.526,1.143,-0.367,-15.906,-144.468,4.700
15:53:50:856,41.737,-1.954,1.592,0.084,-21.517,-147.805,15.082
15:53:50:883,41.765,-2.281,0.601,0.269,-24.244,-149.671,21.636
15:53:50:91,41.792,-2.654,-0.557,1.095,-26.953,-151.227,28.464
15:53:50:938,41.820,-2.667,-1.395,0.392,-28.193,-150.273,30.314
15:53:50:965,41.847,-2.012,-0.693,0.689,-28.739,-146.762,28.541
15:53:50:993,41.875,-2.012,-0.693,0.689,-28.739,-146.762,28.541
15:53:51:02,41.902,-0.672,-0.397,0.459,-25.280,-140.888,21.309
15:53:51:048,41.930,-1.016,0.217,0.189,-22.836,-143.082,17.839
15:53:51:075,41.957,-1.016,0.217,0.189,-22.836,-143.082,17.839
15:53:51:102,41.983,-0.352,0.142,0.100,-19.585,-143.820,14.155
15:53:51:13,42.012,-0.352,0.142,0.100,-19.585,-143.820,14.155
15:53:51:157,42.039,-0.109,-0.062,0.142,-18.163,-142.565,12.595
15:53:51:184,42.066,-0.109,-0.062,0.142,-18.163,-142.565,12.595
15:53:51:211,42.093,-0.159,0.004,0.200,-17.603,-142.101,11.849
15:53:51:24,42.122,-0.159,0.004,0.200,-17.603,-142.101,11.849
15:53:51:268,42.149,0.032,-0.010,0.156,-17.453,-139.098,11.202
15:53:51:295,42.177,0.018,-0.003,0.156,-17.263,-138.061,10.506
15:53:51:323,42.204,0.018,-0.003,0.156,-17.263,-138.061,10.506
15:53:51:349,42.231,0.018,-0.003,0.156,-17.263,-138.061,10.506
15:53:51:377,42.258,-0.093,0.120,0.111,-16.137,-136.024,7.553
15:53:51:404,42.285,-0.093,0.120,0.111,-16.137,-136.024,7.553
15:53:51:431,42.313,-0.014,0.073,0.040,-14.845,-133.904,3.972
15:53:51:459,42.340,-0.014,0.073,0.040,-14.845,-133.904,3.972
15:53:51:487,42.368,0.084,0.224,0.088,-12.416,-131.375,-1.680
15:53:51:514,42.396,0.084,0.224,0.088,-12.416,-131.375,-1.680
15:53:51:543,42.424,0.228,0.219,0.006,-9.862,-129.294,-6.642
15:53:51:569,42.451,0.469,0.329,-0.054,-7.987,-127.815,-10.196
15:53:51:596,42.478,0.469,0.329,-0.054,-7.987,-127.815,-10.196
15:53:51:624,42.505,0.469,0.329,-0.054,-7.987,-127.815,-10.196
15:53:51:651,42.533,0.623,0.928,0.277,-0.707,-121.258,-24.957
15:53:51:678,42.559,0.923,0.472,-0.055,2.834,-119.170,-29.449
15:53:51:705,42.587,0.954,-0.024,-0.362,8.354,-115.817,-34.598
15:53:51:732,42.614,0.954,-0.024,-0.362,8.354,-115.817,-34.598
15:53:51:76,42.641,0.479,-1.239,-0.893,15.379,-110.102,-35.642
15:53:51:787,42.669,0.479,-1.239,-0.893,15.379,-110.102,-35.642
15:53:51:814,42.695,0.479,-1.239,-0.893,15.379,-110.102,-35.642
15:53:51:841,42.723,0.091,-0.794,-0.631,6.832,-104.097,-30.061
15:53:51:868,42.750,0.111,-0.513,-0.616,2.440,-103.431,-27.808
15:53:51:896,42.777,0.111,-0.513,-0.616,2.440,-103.431,-27.808
15:53:51:923,42.805,0.111,-0.513,-0.616,2.440,-103.431,-27.808
15:53:51:95,42.832,0.111,-0.513,-0.616,2.440,-103.431,-27.808
15:53:51:977,42.859,-0.733,0.550,-0.689,-19.808,-101.840,-3.358
15:53:52:005,42.886,-1.687,1.036,1.062,-28.683,-103.838,12.684
15:53:52:031,42.913,-1.687,1.036,1.062,-28.683,-103.838,12.684
15:53:52:058,42.940,-1.210,-0.531,2.182,-34.240,-104.738,25.291
15:53:52:085,42.967,-1.210,-0.531,2.182,-34.240,-104.738,25.291
15:53:52:113,42.994,-0.908,-0.323,1.750,-36.490,-99.339,26.518
15:53:52:139,43.021,-0.908,-0.323,1.750,-36.490,-99.339,26.518
15:53:52:167,43.048,-0.908,-0.323,1.750,-36.490,-99.339,26.518
15:53:52:193,43.075,-0.908,-0.323,1.750,-36.490,-99.339,26.518
15:53:52:221,43.102,-0.908,-0.323,1.750,-36.490,-99.339,26.518
15:53:52:248,43.130,-0.908,-0.323,1.750,-36.490,-99.339,26.518
15:53:52:275,43.157,-0.085,0.410,1.024,-31.403,-95.749,17.663
15:53:52:302,43.184,-0.085,0.410,1.024,-31.403,-95.749,17.663
15:53:52:33,43.211,-0.085,0.410,1.024,-31.403,-95.749,17.663
15:53:52:357,43.239,-0.168,-0.073,0.051,-26.662,-97.753,13.045
15:53:52:384,43.266,-0.043,0.011,0.138,-24.950,-96.256,10.830
15:53:52:411,43.293,-0.083,-0.051,0.233,-24.309,-95.386,9.865
15:53:52:439,43.321,-0.083,-0.051,0.233,-24.309,-95.386,9.865
15:53:52:467,43.349,-0.098,-0.039,0.102,-24.167,-94.829,9.535
15:53:52:494,43.376,-0.098,-0.039,0.102,-24.167,-94.829,9.535
15:53:52:521,43.403,-0.051,0.043,0.028,-23.770,-92.639,8.240
15:53:52:548,43.430,-0.051,0.043,0.028,-23.770,-92.639,8.240
15:53:52:575,43.457,-0.006,0.045,-0.008,-23.237,-91.776,7.353
15:53:52:602,43.484,-0.006,0.045,-0.008,-23.237,-91.776,7.353
15:53:52:629,43.511,-0.057,0.022,0.047,-20.949,-90.510,3.911
15:53:52:656,43.538,-0.023,0.169,0.084,-19.706,-88.259,1.967
15:53:52:684,43.566,-0.180,0.170,-0.048,-18.167,-87.287,-0.426
15:53:52:711,43.593,-0.180,0.170,-0.048,-18.167,-87.287,-0.426
15:53:52:739,43.620,-0.180,0.170,-0.048,-18.167,-87.287,-0.426
15:53:52:766,43.648,0.126,0.343,-0.160,-14.287,-83.048,-6.911
15:53:52:793,43.674,0.434,0.362,-0.429,-9.657,-79.795,-14.402
15:53:52:819,43.701,0.754,0.658,-0.792,-7.903,-78.132,-17.858
15:53:52:847,43.728,0.754,0.658,-0.792,-7.903,-78.132,-17.858
15:53:52:875,43.756,0.754,0.658,-0.792,-7.903,-78.132,-17.858
15:53:52:902,43.784,0.754,0.658,-0.792,-7.903,-78.132,-17.858
15:53:52:929,43.810,0.672,0.224,-0.896,4.994,-68.798,-33.750
15:53:52:956,43.838,0.003,-1.204,-1.123,14.344,-62.936,-37.394
15:53:52:983,43.864,0.003,-1.204,-1.123,14.344,-62.936,-37.394
15:53:53:01,43.892,0.003,-1.204,-1.123,14.344,-62.936,-37.394
15:53:53:038,43.919,-0.489,-1.364,-0.572,15.590,-59.378,-36.795
15:53:53:065,43.947,-0.489,-1.364,-0.572,15.590,-59.378,-36.795
15:53:53:092,43.973,-0.489,-1.364,-0.572,15.590,-59.378,-36.795
15:53:53:119,44.001,-0.268,-0.612,-0.515,-2.802,-57.336,-31.112
15:53:53:146,44.028,-0.446,-0.368,-0.505,-9.518,-57.288,-25.871
15:53:53:174,44.055,-0.610,0.107,-0.374,-18.880,-56.979,-13.924
15:53:53:201,44.083,-0.610,0.107,-0.374,-18.880,-56.979,-13.924
15:53:53:229,44.111,-0.672,1.167,2.421,-32.972,-60.906,8.424
15:53:53:256,44.137,-0.326,0.247,2.340,-36.941,-62.885,17.772
15:53:53:283,44.165,-0.326,0.247,2.340,-36.941,-62.885,17.772
15:53:53:31,44.192,-0.246,-0.628,2.236,-38.809,-63.243,23.541
15:53:53:337,44.218,-0.246,-0.628,2.236,-38.809,-63.243,23.541
15:53:53:364,44.246,-0.246,-0.628,2.236,-38.809,-63.243,23.541
15:53:53:392,44.274,0.530,0.263,0.712,-34.353,-57.394,14.493
15:53:53:419,44.301,-0.450,0.165,0.543,-32.954,-59.107,12.026
15:53:53:446,44.328,0.002,-0.384,0.404,-31.432,-59.303,11.023
15:53:53:474,44.355,0.002,-0.384,0.404,-31.432,-59.303,11.023
15:53:53:5,44.382,-0.058,0.008,0.216,-29.414,-58.797,7.944
15:53:53:528,44.409,-0.058,0.008,0.216,-29.414,-58.797,7.944
15:53:53:554,44.436,-0.018,0.029,0.203,-29.019,-58.413,7.617
15:53:53:582,44.463,0.032,0.029,0.095,-28.614,-56.594,6.572
15:53:53:609,44.491,0.014,-0.002,0.003,-28.447,-55.719,6.017
15:53:53:636,44.517,-0.112,0.006,0.080,-28.041,-54.460,5.008
15:53:53:663,44.545,-0.112,0.006,0.080,-28.041,-54.460,5.008
15:53:53:69,44.572,-0.139,-0.012,0.111,-27.732,-53.625,4.255
15:53:53:717,44.599,-0.139,-0.012,0.111,-27.732,-53.625,4.255
15:53:53:744,44.626,-0.120,0.032,0.159,-26.557,-51.603,0.901
15:53:53:771,44.653,-0.105,0.019,0.138,-26.197,-50.739,-0.336
15:53:53:798,44.680,-0.126,0.022,0.004,-25.945,-49.850,-1.347
15:53:53:825,44.707,-0.126,0.022,0.004,-25.945,-49.850,-1.347
15:53:53:853,44.734,-0.121,0.115,0.033,-25.318,-48.027,-3.282
15:53:53:879,44.761,-0.196,0.160,-0.019,-23.612,-45.811,-7.376
15:53:53:907,44.788,-0.119,0.232,-0.065,-22.350,-45.012,-10.300
15:53:53:933,44.815,-0.110,0.283,-0.061,-21.356,-44.301,-12.525
15:53:53:961,44.842,-0.110,0.283,-0.061,-21.356,-44.301,-12.525
15:53:53:988,44.870,-0.227,0.398,-0.494,-18.237,-41.852,-19.138
15:53:54:015,44.897,-0.423,0.424,-0.958,-15.905,-39.753,-24.204
15:53:54:043,44.925,-0.423,0.424,-0.958,-15.905,-39.753,-24.204
15:53:54:07,44.952,-0.181,1.213,-0.877,-10.302,-35.048,-36.467
15:53:54:098,44.979,-0.181,1.213,-0.877,-10.302,-35.048,-36.467
15:53:54:125,45.007,0.105,-0.609,-0.706,1.611,-31.222,-45.221
15:53:54:152,45.033,0.105,-0.609,-0.706,1.611,-31.222,-45.221
15:53:54:179,45.061,-0.606,-1.394,-0.416,9.622,-27.829,-46.074
15:53:54:206,45.088,-0.219,-1.192,-0.129,8.898,-26.099,-45.198
15:53:54:233,45.115,-0.219,-1.192,-0.129,8.898,-26.099,-45.198
15:53:54:26,45.142,-0.219,-1.192,-0.129,8.898,-26.099,-45.198
15:53:54:288,45.169,-0.219,-1.192,-0.129,8.898,-26.099,-45.198
15:53:54:315,45.197,-0.831,-0.356,-0.043,-14.208,-17.453,-28.678
15:53:54:342,45.224,-0.988,-0.059,0.103,-19.722,-15.934,-21.692
15:53:54:371,45.252,-0.988,-0.059,0.103,-19.722,-15.934,-21.692
15:53:54:398,45.280,-0.693,0.899,1.006,-29.439,-15.972,-7.428
15:53:54:425,45.307,-0.693,0.899,1.006,-29.439,-15.972,-7.428
15:53:54:452,45.334,0.839,0.915,2.124,-37.256,-19.077,9.395
15:53:54:48,45.362,0.839,0.915,2.124,-37.256,-19.077,9.395
15:53:54:507,45.389,1.734,-1.057,1.742,-40.290,-19.299,18.253
15:53:54:534,45.416,1.734,-1.057,1.742,-40.290,-19.299,18.253
15:53:54:561,45.443,1.734,-1.057,1.742,-40.290,-19.299,18.253
15:53:54:588,45.470,-0.231,-0.359,0.745,-36.448,-8.190,8.337
15:53:54:616,45.497,1.285,0.518,1.155,-35.557,-9.420,5.688
15:53:54:643,45.524,-0.447,-0.258,0.168,-33.417,-12.183,3.934
15:53:54:67,45.552,-0.447,-0.258,0.168,-33.417,-12.183,3.934
15:53:54:697,45.579,-0.006,-0.061,0.260,-31.098,-12.459,0.913
15:53:54:724,45.606,-0.006,-0.061,0.260,-31.098,-12.459,0.913
15:53:54:751,45.633,0.012,0.046,0.176,-29.839,-12.271,-0.748
15:53:54:778,45.660,0.012,-0.006,0.134,-29.385,-11.776,-1.546
15:53:54:805,45.687,0.012,-0.006,0.134,-29.385,-11.776,-1.546
15:53:54:832,45.714,-0.076,-0.012,0.146,-28.758,-11.276,-2.033
15:53:54:86,45.742,-0.076,-0.012,0.146,-28.758,-11.276,-2.033
15:53:54:887,45.768,-0.119,0.018,0.104,-28.144,-8.222,-4.379
15:53:54:915,45.796,-0.154,0.004,0.102,-27.659,-6.962,-5.452
15:53:54:942,45.824,-0.154,0.004,0.102,-27.659,-6.962,-5.452
15:53:54:969,45.851,-0.171,0.063,0.111,-25.549,-4.273,-8.991
15:53:54:996,45.878,-0.171,0.063,0.111,-25.549,-4.273,-8.991
15:53:55:024,45.905,-0.231,0.067,0.159,-23.916,-1.796,-11.902
15:53:55:051,45.933,-0.231,0.067,0.159,-23.916,-1.796,-11.902
15:53:55:078,45.960,-0.285,0.138,0.084,-22.110,0.175,-15.840
15:53:55:105,45.987,-0.285,0.138,0.084,-22.110,0.175,-15.840
15:53:55:132,46.014,-0.285,0.138,0.084,-22.110,0.175,-15.840
15:53:55:159,46.041,-0.319,0.186,-0.040,-19.522,1.625,-20.875
15:53:55:186,46.068,-0.751,0.459,-0.372,-15.667,3.932,-27.789
15:53:55:214,46.095,-1.154,0.533,-0.368,-12.457,6.190,-33.321
15:53:55:242,46.123,-0.855,0.903,-0.446,-8.251,8.453,-40.637
15:53:55:269,46.151,-0.959,0.348,-0.564,-3.633,9.324,-45.148
15:53:55:296,46.177,-0.959,0.348,-0.564,-3.633,9.324,-45.148
15:53:55:322,46.204,-0.152,-0.857,-0.445,11.122,11.763,-51.850
15:53:55:35,46.231,-0.948,-1.515,-0.104,17.425,14.004,-52.304
15:53:55:377,46.258,-0.218,-1.317,0.105,19.309,15.322,-50.942
15:53:55:404,46.286,-0.218,-1.317,0.105,19.309,15.322,-50.942
15:53:55:432,46.313,-0.437,-0.985,0.109,13.633,20.020,-46.388
15:53:55:458,46.340,-0.501,-0.905,0.105,8.845,21.170,-44.439
15:53:55:486,46.368,-0.624,-0.668,0.091,0.605,22.346,-40.401
15:53:55:513,46.394,-0.624,-0.668,0.091,0.605,22.346,-40.401
15:53:55:54,46.422,-0.624,-0.668,0.091,0.605,22.346,-40.401
15:53:55:567,46.449,-0.415,0.666,0.824,-21.328,23.329,-15.648
15:53:55:594,46.476,-0.415,0.666,0.824,-21.328,23.329,-15.648
15:53:55:621,46.503,-0.415,0.666,0.824,-21.328,23.329,-15.648
15:53:55:648,46.530,1.801,1.113,0.447,-29.156,18.684,1.636
15:53:55:675,46.557,1.801,1.113,0.447,-29.156,18.684,1.636
15:53:55:703,46.585,1.801,1.113,0.447,-29.156,18.684,1.636
15:53:55:73,46.612,-0.082,-0.045,0.398,-31.969,21.860,8.825
15:53:55:758,46.639,-0.082,-0.045,0.398,-31.969,21.860,8.825
15:53:55:786,46.667,0.784,-0.152,-0.233,-28.466,21.337,2.826
15:53:55:813,46.695,-0.231,-0.706,0.324,-25.884,16.913,-1.075
15:53:55:841,46.722,0.131,0.506,0.336,-25.462,16.170,-3.108
15:53:55:867,46.749,-0.307,-0.151,0.014,-24.380,16.713,-3.958
15:53:55:895,46.776,-0.307,-0.151,0.014,-24.380,16.713,-3.958
15:53:55:922,46.804,-0.135,-0.076,0.134,-23.465,16.920,-5.230
15:53:55:949,46.831,-0.135,-0.076,0.134,-23.465,16.920,-5.230
15:53:55:976,46.858,-0.135,-0.076,0.134,-23.465,16.920,-5.230
15:53:56:003,46.885,-0.135,-0.076,0.134,-23.465,16.920,-5.230
15:53:56:03,46.912,-0.154,0.018,0.126,-23.329,18.528,-6.141
15:53:56:058,46.939,-0.267,-0.009,0.074,-23.217,19.107,-6.409
15:53:56:084,46.966,-0.267,-0.009,0.074,-23.217,19.107,-6.409
15:53:56:111,46.993,-0.173,0.037,0.126,-22.465,20.064,-7.775
15:53:56:139,47.021,-0.221,0.025,0.092,-21.800,20.245,-8.904
15:53:56:166,47.048,-0.148,0.086,0.101,-21.088,20.563,-10.321
15:53:56:193,47.075,-0.185,0.023,0.149,-20.465,20.680,-11.368
15:53:56:22,47.102,-0.202,0.133,0.145,-19.519,21.249,-13.179
15:53:56:248,47.129,-0.203,0.143,0.079,-18.765,21.266,-14.538
15:53:56:274,47.156,-0.271,0.188,0.080,-17.280,21.877,-16.835
15:53:56:302,47.183,-0.345,0.156,0.188,-15.577,22.118,-19.405
15:53:56:329,47.210,-0.405,0.186,0.144,-14.457,22.483,-21.297
15:53:56:355,47.237,-0.457,0.153,0.070,-12.543,22.934,-24.437
15:53:56:383,47.264,-0.457,0.153,0.070,-12.543,22.934,-24.437
15:53:56:41,47.292,-0.457,0.153,0.070,-12.543,22.934,-24.437
15:53:56:438,47.319,-1.356,0.295,-0.117,-5.962,25.752,-34.152
15:53:56:465,47.347,-0.782,0.676,-0.116,-1.094,27.477,-40.224
15:53:56:492,47.374,-0.782,0.676,-0.116,-1.094,27.477,-40.224
15:53:56:52,47.401,-0.294,-0.743,-0.405,21.303,29.315,-52.957
15:53:56:546,47.428,-0.841,-1.337,0.025,25.148,30.143,-53.753
15:53:56:574,47.455,-0.841,-1.337,0.025,25.148,30.143,-53.753
15:53:56:601,47.483,-0.418,-1.130,0.142,23.499,32.999,-50.210
15:53:56:628,47.509,-0.410,-1.102,0.132,20.117,33.997,-48.252
15:53:56:655,47.537,-0.410,-1.102,0.132,20.117,33.997,-48.252
15:53:56:682,47.564,-0.531,-0.750,-0.003,7.517,35.703,-41.930
15:53:56:709,47.591,-0.672,-0.459,0.123,-0.411,36.519,-36.355
15:53:56:737,47.618,-0.627,-0.237,0.245,-5.150,37.093,-31.950
15:53:56:764,47.646,-0.627,-0.237,0.245,-5.150,37.093,-31.950
15:53:56:792,47.673,-0.136,0.842,0.727,-18.146,37.032,-15.887
15:53:56:819,47.701,0.467,1.415,0.588,-22.335,35.283,-9.467
15:53:56:846,47.728,1.634,1.497,0.266,-26.906,32.521,0.690
15:53:56:874,47.756,1.634,1.497,0.266,-26.906,32.521,0.690
15:53:56:901,47.782,2.704,-0.758,-0.253,-30.553,30.268,11.854
15:53:56:928,47.810,2.704,-0.758,-0.253,-30.553,30.268,11.854
15:53:56:955,47.837,0.976,0.161,0.373,-30.442,34.002,9.596
15:53:56:982,47.864,-1.774,0.927,1.525,-28.176,34.519,6.456
15:53:57:01,47.891,0.565,-0.016,-0.147,-26.424,33.125,3.735
15:53:57:037,47.919,1.098,0.504,-0.107,-25.412,29.484,0.313
15:53:57:064,47.946,1.098,0.504,-0.107,-25.412,29.484,0.313
15:53:57:092,47.973,0.282,0.340,0.317,-23.399,26.764,-3.176
15:53:57:119,48.001,-0.063,-0.017,0.087,-22.270,27.491,-4.355
15:53:57:147,48.028,-0.042,0.014,0.197,-21.847,27.963,-4.853
15:53:57:174,48.055,-0.121,-0.011,0.001,-21.353,28.156,-5.757
15:53:57:201,48.083,-0.058,0.040,0.017,-21.042,28.372,-6.375
15:53:57:228,48.110,-0.058,0.040,0.017,-21.042,28.372,-6.375
15:53:57:255,48.137,-0.116,-0.083,0.124,-20.549,29.111,-6.907
15:53:57:282,48.164,-0.120,0.015,0.030,-20.221,30.021,-8.055
15:53:57:31,48.191,-0.250,-0.014,0.108,-19.980,30.484,-8.628
15:53:57:336,48.218,-0.240,0.000,0.161,-19.216,30.925,-9.735
15:53:57:364,48.245,-0.216,0.101,0.130,-18.710,31.087,-10.691
15:53:57:391,48.273,-0.170,0.072,0.169,-17.645,31.349,-12.334
15:53:57:418,48.300,-0.234,0.132,0.148,-16.412,31.653,-14.282
15:53:57:446,48.327,-0.262,0.209,0.154,-15.500,31.855,-15.815
15:53:57:472,48.354,-0.344,0.148,0.251,-13.843,32.117,-18.364
15:53:57:5,48.381,-0.355,0.154,0.180,-12.738,32.297,-20.243
15:53:57:527,48.409,-0.355,0.154,0.180,-12.738,32.297,-20.243
15:53:57:555,48.436,-0.462,0.213,0.031,-10.932,32.360,-23.402
15:53:57:581,48.463,-0.932,0.333,-0.131,-6.443,33.395,-29.961
15:53:57:608,48.490,-1.512,0.101,-0.016,-2.333,35.152,-34.881
15:53:57:636,48.518,-1.512,0.101,-0.016,-2.333,35.152,-34.881
15:53:57:663,48.545,-1.398,0.358,-0.155,8.739,37.471,-45.959
15:53:57:69,48.572,-1.384,-0.447,-0.077,18.512,38.286,-51.085
15:53:57:718,48.600,-0.450,-0.857,-0.287,24.495,38.132,-52.839
15:53:57:748,48.630,-0.349,-1.626,0.480,29.967,39.943,-52.899
15:53:57:775,48.656,-0.299,-1.320,0.256,26.945,41.181,-50.758
15:53:57:802,48.684,-0.389,-1.060,0.281,20.762,43.101,-47.720
15:53:57:829,48.710,-0.380,-0.926,0.237,15.478,44.208,-45.270
15:53:57:856,48.738,-0.585,-0.750,0.368,6.796,45.540,-40.291
15:53:57:883,48.765,-0.610,-0.416,0.585,1.270,46.300,-36.222
15:53:57:911,48.792,-0.522,-0.236,0.639,-5.902,47.194,-29.155
15:53:57:938,48.820,-0.447,0.183,0.910,-12.200,47.384,-20.890
15:53:57:965,48.847,-0.124,0.731,0.991,-16.232,46.530,-14.689
15:53:57:992,48.874,1.144,1.810,0.071,-21.790,43.027,-4.390
15:53:58:019,48.901,1.918,1.209,-0.692,-24.322,40.398,2.696
15:53:58:046,48.928,2.263,0.522,-0.969,-26.630,38.115,10.941
15:53:58:073,48.955,2.634,-0.467,-0.819,-27.666,38.424,13.461
15:53:58:1,48.982,2.634,-0.467,-0.819,-27.666,38.424,13.461
15:53:58:127,49.009,2.634,-0.467,-0.819,-27.666,38.424,13.461
15:53:58:154,49.036,2.634,-0.467,-0.819,-27.666,38.424,13.461
15:53:58:181,49.063,0.206,0.745,-0.530,-23.349,43.363,3.005
15:53:58:208,49.090,0.667,0.392,-0.380,-22.500,42.459,0.276
15:53:58:237,49.119,0.086,0.156,0.116,-20.242,40.527,-3.547
15:53:58:264,49.146,0.086,0.156,0.116,-20.242,40.527,-3.547
15:53:58:291,49.173,-0.149,-0.006,0.162,-18.923,41.187,-4.994
15:53:58:319,49.200,-0.149,-0.006,0.162,-18.923,41.187,-4.994
15:53:58:346,49.228,-0.060,0.048,-0.067,-18.627,40.781,-6.369
15:53:58:374,49.255,-0.100,-0.044,0.126,-18.329,41.007,-6.829
15:53:58:401,49.282,-0.135,-0.026,0.225,-18.011,41.602,-7.557
15:53:58:428,49.310,-0.135,-0.026,0.225,-18.011,41.602,-7.557
15:53:58:455,49.337,-0.164,-0.053,0.158,-16.826,42.893,-10.524
15:53:58:482,49.364,-0.182,0.063,0.219,-16.127,43.061,-11.493
15:53:58:51,49.391,-0.131,0.099,0.235,-15.183,43.377,-13.180
15:53:58:537,49.419,-0.131,0.099,0.235,-15.183,43.377,-13.180
15:53:58:567,49.448,-0.264,0.179,0.107,-13.538,44.314,-16.305
15:53:58:594,49.476,-0.264,0.179,0.107,-13.538,44.314,-16.305
15:53:58:622,49.503,-0.357,0.116,0.220,-11.093,45.022,-20.539
15:53:58:649,49.531,-0.482,0.179,0.149,-9.277,45.532,-23.607
15:53:58:677,49.559,-0.682,0.171,0.092,-6.976,46.198,-27.262
15:53:58:704,49.586,-0.874,0.152,0.127,-4.936,46.742,-30.128
15:53:58:731,49.613,-0.874,0.152,0.127,-4.936,46.742,-30.128
15:53:58:758,49.640,-1.240,0.847,0.101,2.973,50.280,-39.517
15:53:58:786,49.668,-1.592,0.090,0.181,11.738,52.892,-46.602
15:53:58:813,49.694,-1.592,0.090,0.181,11.738,52.892,-46.602
15:53:58:839,49.721,-0.403,-0.856,-0.584,29.300,56.211,-53.429
15:53:58:867,49.749,-0.797,-1.916,0.999,34.722,59.897,-53.610
15:53:58:894,49.775,-0.797,-1.916,0.999,34.722,59.897,-53.610
15:53:58:921,49.803,-0.231,-1.203,0.670,30.980,64.805,-50.110
15:53:58:948,49.829,-0.228,-0.993,0.708,26.260,66.878,-48.564
15:53:58:975,49.857,-0.266,-0.677,0.650,17.361,69.420,-45.373
15:53:59:002,49.884,-0.266,-0.677,0.650,17.361,69.420,-45.373
15:53:59:029,49.911,-0.003,-0.408,1.235,3.719,74.837,-36.372
15:53:59:057,49.939,0.226,-0.141,1.368,-2.909,78.465,-29.196
15:53:59:084,49.966,0.462,0.342,1.357,-7.340,80.205,-24.067
15:53:59:111,49.993,0.462,0.342,1.357,-7.340,80.205,-24.067
15:53:59:138,50.020,1.375,1.456,-1.073,-21.816,77.743,0.054
15:53:59:165,50.047,1.375,1.456,-1.073,-21.816,77.743,0.054
15:53:59:192,50.074,1.311,-0.210,-2.253,-23.539,77.665,8.881
15:53:59:22,50.102,1.085,0.013,-1.571,-23.196,81.005,8.463
15:53:59:247,50.129,1.085,0.013,-1.571,-23.196,81.005,8.463
15:53:59:275,50.157,0.357,0.101,-1.076,-22.177,83.350,5.946
15:53:59:303,50.184,-0.083,-0.023,1.521,-19.929,87.051,3.807
15:53:59:329,50.211,0.400,0.372,-0.379,-17.983,86.510,-2.071
15:53:59:357,50.238,-0.014,-0.162,-0.127,-16.479,85.846,-3.931
15:53:59:383,50.265,-0.014,-0.162,-0.127,-16.479,85.846,-3.931
15:53:59:41,50.292,-0.069,-0.007,0.069,-15.079,85.772,-6.045
15:53:59:438,50.320,-0.211,0.043,0.109,-14.645,85.918,-6.540
15:53:59:465,50.347,-0.214,-0.046,0.169,-13.957,86.210,-7.136
15:53:59:492,50.374,-0.214,-0.046,0.169,-13.957,86.210,-7.136
15:53:59:519,50.401,-0.057,-0.016,0.078,-13.135,86.890,-8.327
15:53:59:546,50.428,-0.123,-0.030,0.089,-13.050,87.387,-8.789
15:53:59:573,50.455,-0.123,-0.030,0.089,-13.050,87.387,-8.789
15:53:59:6,50.482,-0.125,-0.014,0.188,-13.212,88.586,-9.556
15:53:59:628,50.510,-0.182,-0.010,0.220,-13.069,89.205,-10.218
15:53:59:655,50.537,-0.244,-0.035,0.280,-12.739,89.704,-10.867
15:53:59:683,50.565,-0.244,-0.035,0.280,-12.739,89.704,-10.867
15:53:59:71,50.592,-0.067,0.111,0.228,-11.602,91.121,-13.503
15:53:59:737,50.619,-0.094,-0.017,0.253,-10.512,92.290,-15.136
15:53:59:765,50.647,-0.222,0.106,0.324,-9.749,93.042,-16.424
15:53:59:792,50.674,-0.267,0.215,0.295,-8.403,93.502,-18.861
15:53:59:82,50.701,-0.256,0.129,0.437,-5.409,95.257,-23.768
15:53:59:846,50.728,-0.246,0.058,0.540,-2.969,96.435,-27.312
15:53:59:874,50.756,-0.246,0.058,0.540,-2.969,96.435,-27.312
15:53:59:901,50.782,-0.605,0.136,1.234,2.852,100.445,-34.478
15:53:59:929,50.811,-0.924,0.410,1.174,8.491,103.691,-40.470
15:53:59:956,50.838,-0.851,0.573,1.342,13.619,104.945,-45.414
15:53:59:984,50.865,-0.753,-0.567,1.470,24.445,106.172,-51.199
15:54:00:01,50.892,-0.404,-0.749,1.033,30.852,106.813,-53.536
15:54:00:038,50.919,-0.082,-1.126,0.518,37.549,107.788,-54.190
15:54:00:065,50.947,0.264,-1.501,0.251,37.594,108.727,-53.233
15:54:00:092,50.973,0.264,-1.501,0.251,37.594,108.727,-53.233
15:54:00:119,51.001,0.234,-1.128,0.486,30.987,113.155,-45.745
15:54:00:146,51.028,0.147,-0.850,0.505,26.773,114.710,-42.591
15:54:00:174,51.056,0.049,-0.709,0.678,19.037,116.359,-37.321
15:54:00:201,51.083,0.068,-0.371,0.837,10.943,117.387,-30.887
15:54:00:228,51.110,0.108,-0.211,0.759,5.996,117.757,-26.058
15:54:00:256,51.137,0.292,0.265,0.771,-0.834,117.884,-18.169
15:54:00:283,51.164,0.347,1.047,0.245,-5.218,117.238,-12.457
15:54:00:31,51.192,0.102,1.518,-0.557,-11.454,114.230,-3.157
15:54:00:337,51.219,-0.122,1.587,-1.635,-14.549,112.218,3.705
15:54:00:364,51.246,-0.122,1.587,-1.635,-14.549,112.218,3.705
15:54:00:392,51.273,0.109,-0.731,-2.820,-19.491,111.507,17.628
15:54:00:42,51.301,0.371,-0.067,-2.256,-20.525,113.646,18.498
15:54:00:447,51.329,-0.469,0.543,-0.628,-19.160,115.911,15.804
15:54:00:475,51.356,-0.469,0.543,-0.628,-19.160,115.911,15.804
15:54:00:502,51.384,-0.469,0.543,-0.628,-19.160,115.911,15.804
15:54:00:529,51.411,-0.292,0.371,-0.994,-14.364,116.553,6.194
15:54:00:556,51.438,0.011,-0.207,0.075,-12.314,114.499,2.753
15:54:00:584,51.466,0.011,-0.207,0.075,-12.314,114.499,2.753
15:54:00:611,51.493,0.011,-0.207,0.075,-12.314,114.499,2.753
15:54:00:639,51.520,-0.160,0.004,0.185,-9.118,114.416,-1.700
15:54:00:666,51.548,-0.160,0.004,0.185,-9.118,114.416,-1.700
15:54:00:693,51.575,-0.217,-0.023,0.127,-8.583,114.537,-3.016
15:54:00:721,51.602,-0.051,-0.018,0.177,-8.134,116.277,-3.895
15:54:00:747,51.629,-0.137,-0.020,0.151,-8.121,117.131,-4.312
15:54:00:775,51.656,-0.137,-0.020,0.151,-8.121,117.131,-4.312
15:54:00:801,51.683,-0.149,0.107,0.302,-7.979,118.805,-5.562
15:54:00:829,51.710,-0.149,0.107,0.302,-7.979,118.805,-5.562
15:54:00:856,51.738,-0.021,0.113,0.229,-6.672,120.651,-8.318
15:54:00:884,51.765,-0.013,0.057,0.261,-5.998,121.172,-9.457
15:54:00:91,51.792,-0.089,0.195,0.284,-4.829,122.005,-11.438
15:54:00:938,51.820,-0.089,0.195,0.284,-4.829,122.005,-11.438
15:54:00:965,51.847,-0.170,0.098,0.399,-2.356,123.397,-15.631
15:54:00:992,51.874,-0.270,0.182,0.456,-0.521,124.184,-18.716
15:54:01:019,51.901,-0.226,0.138,0.566,1.147,124.990,-21.011
15:54:01:046,51.928,-0.363,0.268,1.136,4.292,126.928,-25.133
15:54:01:074,51.955,-0.033,0.144,1.584,7.026,128.612,-28.352
15:54:01:101,51.983,-0.063,0.421,1.362,12.291,131.250,-34.473
15:54:01:128,52.010,-0.255,0.097,1.659,19.958,133.589,-41.227
15:54:01:155,52.037,-0.108,-0.443,1.362,26.302,135.275,-44.195
15:54:01:182,52.064,-0.244,-0.715,0.500,33.874,136.959,-46.169
15:54:01:21,52.092,0.744,-1.434,0.253,35.413,141.938,-43.705
15:54:01:237,52.119,0.744,-1.434,0.253,35.413,141.938,-43.705
15:54:01:265,52.146,0.744,-1.434,0.253,35.413,141.938,-43.705
15:54:01:291,52.173,0.744,-1.434,0.253,35.413,141.938,-43.705
15:54:01:319,52.200,0.427,-0.732,0.383,20.695,148.219,-34.662
15:54:01:346,52.227,0.427,-0.732,0.383,20.695,148.219,-34.662
15:54:01:373,52.255,0.769,-0.050,0.280,3.388,152.254,-19.925
15:54:01:4,52.281,0.839,0.312,0.157,-3.490,153.675,-11.895
15:54:01:428,52.309,0.563,1.029,-0.433,-10.575,153.275,-3.026
15:54:01:454,52.336,-0.004,1.441,-0.939,-15.053,151.889,3.506
15:54:01:482,52.364,-0.899,1.510,-1.926,-20.090,150.086,13.474
15:54:01:509,52.391,-0.899,1.510,-1.926,-20.090,150.086,13.474
15:54:01:537,52.418,-2.143,-1.392,-2.587,-23.297,149.601,23.954
15:54:01:564,52.445,-2.143,-1.392,-2.587,-23.297,149.601,23.954
15:54:01:591,52.473,-1.043,-0.064,0.647,-22.913,156.530,20.593
15:54:01:618,52.500,-1.043,-0.064,0.647,-22.913,156.530,20.593
15:54:01:645,52.527,-1.043,-0.064,0.647,-22.913,156.530,20.593
15:54:01:672,52.554,-1.043,-0.064,0.647,-22.913,156.530,20.593
15:54:01:699,52.581,-0.344,0.072,-0.240,-15.869,159.040,10.361
15:54:01:726,52.608,-0.344,0.072,-0.240,-15.869,159.040,10.361
15:54:01:753,52.635,-0.344,0.072,-0.240,-15.869,159.040,10.361
15:54:01:78,52.662,-0.185,-0.044,0.125,-12.819,160.193,7.265
15:54:01:808,52.689,-0.201,-0.046,0.152,-12.212,160.448,6.723
15:54:01:834,52.716,-0.125,-0.049,0.103,-11.911,160.892,6.431
15:54:01:861,52.743,-0.125,-0.049,0.103,-11.911,160.892,6.431
15:54:01:889,52.770,-0.167,-0.008,0.177,-11.804,161.720,5.781
15:54:01:915,52.797,-0.167,-0.008,0.177,-11.804,161.720,5.781
15:54:01:943,52.825,-0.167,-0.008,0.177,-11.804,161.720,5.781
15:54:01:97,52.852,-0.167,-0.008,0.177,-11.804,161.720,5.781
15:54:01:998,52.880,-0.150,0.050,0.131,-10.269,163.970,2.652
15:54:02:025,52.907,-0.163,0.086,0.140,-9.889,164.530,1.764
