Time,Second,AccelerationX,AccelerationY,AccelerationZ,EulerAnglesX,EulerAnglesY,EulerAnglesZ
15:26:06:165,0.000,0.001,0.001,-0.005,-10.164,20.488,-2.202
15:26:06:193,0.027,0.009,0.001,-0.005,-10.163,20.483,-2.207
15:26:06:22,0.055,0.010,-0.002,-0.007,-10.164,20.478,-2.201
15:26:06:247,0.082,0.002,0.002,-0.003,-10.164,20.478,-2.201
15:26:06:274,0.109,0.012,0.000,-0.001,-10.164,20.468,-2.200
15:26:06:301,0.136,0.005,0.001,-0.002,-10.164,20.468,-2.200
15:26:06:329,0.163,0.008,0.003,-0.008,-10.164,20.468,-2.200
15:26:06:356,0.191,0.006,-0.001,-0.002,-10.164,20.468,-2.200
15:26:06:383,0.218,0.006,0.002,-0.010,-10.164,20.468,-2.200
15:26:06:41,0.245,0.006,0.002,-0.010,-10.164,20.468,-2.200
15:26:06:437,0.272,0.010,-0.002,-0.013,-10.164,20.488,-2.202
15:26:06:465,0.299,0.013,-0.001,-0.004,-10.164,20.488,-2.202
15:26:06:492,0.327,0.005,0.003,-0.007,-10.163,20.493,-2.207
15:26:06:519,0.354,0.008,0.005,-0.002,-10.163,20.493,-2.207
15:26:06:546,0.381,0.002,0.002,-0.006,-10.163,20.493,-2.207
15:26:06:573,0.408,0.004,0.000,0.001,-10.163,20.493,-2.207
15:26:06:6,0.435,0.003,0.007,-0.012,-10.162,20.479,-2.221
15:26:06:628,0.463,0.011,-0.001,-0.004,-10.162,20.475,-2.226
15:26:06:655,0.489,0.010,-0.005,-0.005,-10.162,20.485,-2.227
15:26:06:682,0.517,0.010,-0.005,-0.005,-10.162,20.485,-2.227
15:26:06:71,0.544,-0.001,0.001,-0.005,-10.166,20.481,-2.177
15:26:06:737,0.571,0.002,0.008,0.008,-10.167,20.513,-2.155
15:26:06:764,0.598,-0.002,0.004,-0.001,-10.167,20.538,-2.152
15:26:06:791,0.626,0.010,-0.001,-0.003,-10.167,20.538,-2.152
15:26:06:818,0.652,0.007,0.003,-0.010,-10.167,20.538,-2.152
15:26:06:844,0.679,0.007,0.003,-0.010,-10.167,20.538,-2.152
15:26:06:872,0.707,0.004,0.001,-0.006,-10.165,20.525,-2.176
15:26:06:899,0.734,0.008,0.009,0.004,-10.170,20.457,-2.190
15:26:06:927,0.762,0.012,-0.001,-0.002,-10.170,20.398,-2.195
15:26:06:954,0.789,0.017,-0.003,-0.015,-10.172,20.332,-2.184
15:26:06:982,0.817,0.016,0.003,-0.005,-10.193,20.297,-2.177
15:26:07:009,0.844,0.008,0.000,-0.003,-10.217,20.229,-2.139
15:26:07:036,0.871,0.011,0.001,-0.005,-10.262,20.155,-2.076
15:26:07:063,0.898,0.000,0.005,-0.002,-10.284,20.148,-2.052
15:26:07:091,0.925,0.008,-0.003,-0.010,-10.284,20.138,-2.051
15:26:07:117,0.952,0.008,0.001,-0.005,-10.290,20.133,-2.047
15:26:07:145,0.979,0.012,0.002,-0.014,-10.310,20.124,-2.048
15:26:07:171,1.006,0.012,0.002,-0.014,-10.310,20.124,-2.048
15:26:07:199,1.033,0.002,0.008,-0.003,-10.369,20.141,-2.049
15:26:07:226,1.060,0.012,0.002,-0.005,-10.389,20.141,-2.051
15:26:07:253,1.088,0.005,-0.001,-0.009,-10.424,20.181,-2.048
15:26:07:28,1.115,-0.001,0.000,0.000,-10.449,20.197,-2.047
15:26:07:308,1.143,0.000,0.002,-0.012,-10.489,20.168,-2.048
15:26:07:335,1.169,0.011,0.005,-0.003,-10.523,20.150,-2.059
15:26:07:362,1.197,0.014,-0.001,-0.013,-10.561,20.178,-2.080
15:26:07:39,1.225,0.036,0.008,0.023,-10.599,20.260,-2.091
15:26:07:417,1.252,0.008,0.004,-0.015,-10.628,20.306,-2.093
15:26:07:444,1.279,0.010,0.002,0.009,-10.716,20.369,-2.052
15:26:07:472,1.306,0.003,0.005,-0.002,-10.773,20.387,-2.019
15:26:07:498,1.333,-0.027,0.003,0.008,-10.875,20.392,-1.994
15:26:07:526,1.360,0.002,0.001,-0.004,-10.943,20.308,-2.032
15:26:07:553,1.387,0.008,0.001,-0.005,-10.979,20.255,-2.090
15:26:07:58,1.415,0.022,0.001,-0.008,-11.021,20.236,-2.191
15:26:07:607,1.442,0.008,-0.005,-0.001,-11.051,20.257,-2.251
15:26:07:634,1.469,0.010,-0.002,-0.008,-11.137,20.211,-2.364
15:26:07:662,1.496,0.010,-0.002,-0.008,-11.137,20.211,-2.364
15:26:07:688,1.523,0.000,0.001,-0.001,-11.239,20.081,-2.484
15:26:07:716,1.550,0.000,0.001,-0.001,-11.239,20.081,-2.484
15:26:07:742,1.577,-0.005,-0.007,0.000,-11.370,19.751,-2.532
15:26:07:77,1.604,0.008,0.003,-0.005,-11.442,19.531,-2.551
15:26:07:797,1.632,0.008,-0.002,-0.008,-11.531,19.286,-2.618
15:26:07:824,1.659,0.010,-0.001,0.002,-11.626,19.146,-2.726
15:26:07:851,1.686,0.010,-0.001,0.002,-11.626,19.146,-2.726
15:26:07:878,1.713,0.019,0.007,0.009,-11.828,18.660,-2.880
15:26:07:906,1.741,0.002,-0.004,-0.001,-12.040,17.974,-3.067
15:26:07:933,1.768,0.002,-0.004,-0.001,-12.040,17.974,-3.067
15:26:07:961,1.795,0.008,-0.003,0.013,-12.201,17.127,-3.305
15:26:07:988,1.823,-0.045,-0.001,0.001,-12.223,16.444,-3.522
15:26:08:017,1.851,-0.053,-0.020,0.010,-12.247,15.889,-3.821
15:26:08:044,1.879,0.089,0.005,-0.014,-12.328,15.058,-4.347
15:26:08:071,1.906,0.065,-0.033,-0.013,-12.402,14.632,-4.657
15:26:08:098,1.933,0.089,0.017,-0.013,-12.600,14.178,-4.939
15:26:08:125,1.960,0.003,0.038,-0.035,-12.840,14.038,-5.012
15:26:08:152,1.987,-0.214,0.044,-0.029,-12.975,14.300,-5.022
15:26:08:18,2.015,0.018,0.004,-0.186,-12.809,14.705,-4.972
15:26:08:207,2.042,-0.007,0.019,0.106,-12.615,15.269,-5.061
15:26:08:235,2.070,-0.027,0.005,0.112,-12.354,15.815,-5.248
15:26:08:263,2.097,0.007,0.074,-0.059,-12.355,15.363,-5.352
15:26:08:29,2.125,-0.171,0.012,-0.009,-12.281,15.393,-5.481
15:26:08:318,2.152,0.040,0.011,0.018,-11.997,15.549,-5.783
15:26:08:345,2.179,0.029,0.014,0.018,-11.816,15.474,-6.014
15:26:08:372,2.207,0.066,-0.044,-0.027,-11.581,15.314,-6.389
15:26:08:4,2.234,0.052,0.000,-0.032,-11.212,15.187,-7.044
15:26:08:427,2.261,-0.003,-0.039,0.022,-10.931,15.395,-7.528
15:26:08:454,2.288,-0.003,-0.039,0.022,-10.931,15.395,-7.528
15:26:08:481,2.316,-0.002,-0.018,0.017,-10.754,15.497,-7.843
15:26:08:508,2.343,0.020,0.051,-0.008,-10.594,15.467,-8.289
15:26:08:535,2.370,-0.005,0.024,0.033,-10.376,15.541,-8.733
15:26:08:562,2.397,-0.051,0.009,-0.066,-10.183,15.567,-9.138
15:26:08:589,2.424,-0.104,0.040,-0.054,-9.947,15.667,-9.593
15:26:08:616,2.451,-0.025,0.066,0.025,-9.463,15.753,-10.529
15:26:08:644,2.478,0.019,0.066,-0.005,-9.107,15.678,-11.206
15:26:08:671,2.506,-0.033,0.001,-0.029,-8.517,15.625,-12.215
15:26:08:699,2.533,-0.052,0.045,-0.049,-7.799,15.419,-13.333
15:26:08:726,2.560,-0.086,0.044,-0.069,-7.220,15.359,-14.172
15:26:08:753,2.588,-0.061,0.142,0.023,-6.271,15.189,-15.561
15:26:08:78,2.615,-0.070,0.165,0.095,-5.649,15.254,-16.524
15:26:08:808,2.642,-0.152,0.119,-0.001,-4.669,15.047,-18.019
15:26:08:835,2.670,-0.167,0.111,-0.048,-3.973,14.860,-19.102
15:26:08:863,2.697,-0.207,0.093,-0.117,-2.849,14.515,-20.977
15:26:08:89,2.724,-0.263,0.104,-0.150,-1.579,14.430,-23.240
15:26:08:917,2.751,-0.337,0.113,-0.172,-0.607,14.814,-25.002
15:26:08:944,2.779,-0.452,0.182,-0.199,1.147,15.937,-28.024
15:26:08:971,2.805,-0.617,0.250,-0.187,2.508,17.062,-30.240
15:26:08:998,2.833,-0.328,0.496,-0.248,4.852,18.425,-33.809
15:26:09:025,2.860,-0.492,0.268,-0.224,7.407,18.906,-37.704
15:26:09:052,2.887,-0.438,0.026,-0.234,9.155,18.748,-40.180
15:26:09:08,2.914,-0.718,-0.761,-0.035,11.082,18.053,-43.149
15:26:09:107,2.942,-0.469,-0.806,-0.176,10.076,16.285,-44.709
15:26:09:135,2.969,-0.331,-0.762,-0.193,6.890,13.988,-45.721
15:26:09:162,2.996,-0.351,-0.663,-0.103,4.763,12.915,-45.356
15:26:09:189,3.023,-0.399,-0.506,-0.012,0.385,11.279,-39.996
15:26:09:216,3.050,-0.399,-0.506,-0.012,0.385,11.279,-39.996
15:26:09:243,3.078,-0.399,-0.506,-0.012,0.385,11.279,-39.996
15:26:09:27,3.104,-0.399,-0.506,-0.012,0.385,11.279,-39.996
15:26:09:297,3.132,-0.202,0.276,-0.062,-8.294,5.105,-20.796
15:26:09:325,3.159,0.019,0.476,0.002,-10.813,1.965,-13.070
15:26:09:351,3.186,0.019,0.476,0.002,-10.813,1.965,-13.070
15:26:09:379,3.213,0.708,0.526,0.005,-13.053,-2.239,0.418
15:26:09:406,3.240,0.865,0.398,0.099,-13.703,-3.195,5.397
15:26:09:433,3.268,1.047,0.192,0.306,-14.819,-4.243,11.762
15:26:09:46,3.294,1.047,0.192,0.306,-14.819,-4.243,11.762
15:26:09:487,3.322,1.047,0.192,0.306,-14.819,-4.243,11.762
15:26:09:515,3.349,1.047,0.192,0.306,-14.819,-4.243,11.762
15:26:09:542,3.377,1.013,-0.082,0.056,-15.634,-5.589,15.506
15:26:09:569,3.404,-1.675,0.608,0.305,-15.750,-4.758,12.732
15:26:09:597,3.431,0.414,0.024,0.135,-15.401,-3.874,11.703
15:26:09:623,3.458,0.414,0.024,0.135,-15.401,-3.874,11.703
15:26:09:651,3.485,0.434,-0.013,-0.115,-13.973,-8.034,7.690
15:26:09:678,3.513,0.568,0.077,-0.087,-14.004,-9.592,6.351
15:26:09:705,3.540,0.252,0.024,0.005,-14.162,-9.559,4.218
15:26:09:732,3.567,0.041,0.041,0.079,-14.120,-8.402,2.933
15:26:09:759,3.594,-0.055,0.049,0.045,-13.955,-7.228,1.509
15:26:09:787,3.621,-0.055,0.049,0.045,-13.955,-7.228,1.509
15:26:09:814,3.648,-0.007,-0.016,-0.013,-13.312,-6.408,-1.067
15:26:09:841,3.676,0.053,0.010,0.050,-13.084,-6.060,-1.587
15:26:09:869,3.703,-0.090,0.002,-0.055,-12.800,-5.665,-2.391
15:26:09:896,3.731,-0.090,0.002,-0.055,-12.800,-5.665,-2.391
15:26:09:923,3.757,-0.006,0.043,-0.012,-12.537,-5.411,-3.043
15:26:09:95,3.785,-0.006,0.043,-0.012,-12.537,-5.411,-3.043
15:26:09:977,3.811,-0.006,0.043,-0.012,-12.537,-5.411,-3.043
15:26:10:005,3.839,0.027,0.044,-0.001,-10.880,-4.806,-9.166
15:26:10:031,3.866,0.009,0.073,0.042,-10.584,-4.487,-10.618
15:26:10:058,3.893,0.009,0.073,0.042,-10.584,-4.487,-10.618
15:26:10:086,3.920,-0.121,0.033,0.074,-10.355,-4.062,-11.577
15:26:10:113,3.947,-0.121,0.033,0.074,-10.355,-4.062,-11.577
15:26:10:14,3.975,-0.040,0.136,-0.046,-9.689,-3.535,-14.888
15:26:10:167,4.002,-0.104,0.045,-0.060,-8.839,-4.427,-18.147
15:26:10:194,4.029,-0.119,0.056,-0.121,-8.395,-5.555,-19.609
15:26:10:221,4.056,-0.129,0.113,-0.122,-7.585,-4.982,-22.120
15:26:10:249,4.083,-0.218,0.163,-0.008,-6.633,-5.200,-24.974
15:26:10:276,4.111,-0.411,0.114,-0.152,-5.744,-4.121,-26.968
15:26:10:303,4.138,-0.437,0.151,-0.379,-4.191,-3.578,-30.141
15:26:10:331,4.165,-0.571,0.230,-0.598,-3.101,-2.513,-32.452
15:26:10:357,4.192,-0.524,0.411,-0.371,-0.745,0.001,-36.345
15:26:10:385,4.219,-0.478,0.514,-0.336,1.498,1.939,-39.206
15:26:10:412,4.247,-0.393,0.175,-0.483,4.342,3.770,-43.521
15:26:10:439,4.273,-0.204,-0.192,-0.260,6.993,5.281,-46.868
15:26:10:466,4.301,-0.204,-0.192,-0.260,6.993,5.281,-46.868
15:26:10:494,4.329,-0.586,-0.942,0.276,10.737,8.504,-48.694
15:26:10:521,4.356,-0.378,-0.925,0.171,10.544,8.983,-48.358
15:26:10:549,4.383,-0.222,-0.718,0.048,7.493,8.646,-47.150
15:26:10:576,4.411,-0.229,-0.595,0.047,3.469,8.186,-44.820
15:26:10:603,4.438,-0.240,-0.555,0.043,0.553,7.724,-42.552
15:26:10:63,4.465,-0.234,-0.326,0.099,-4.049,6.524,-38.165
15:26:10:657,4.492,-0.151,-0.151,0.086,-6.793,5.495,-34.674
15:26:10:685,4.519,-0.023,-0.051,0.085,-9.809,4.166,-28.719
15:26:10:712,4.547,0.029,0.179,0.108,-11.700,3.650,-22.065
15:26:10:739,4.574,0.505,0.483,0.272,-14.459,2.555,-9.726
15:26:10:767,4.601,0.670,0.552,0.397,-15.429,1.987,-4.920
15:26:10:794,4.629,0.784,0.490,0.414,-16.578,1.730,1.573
15:26:10:821,4.656,0.784,0.490,0.414,-16.578,1.730,1.573
15:26:10:848,4.683,0.906,-0.033,0.290,-17.763,2.090,9.583
15:26:10:875,4.710,1.122,-0.202,0.086,-18.168,2.371,12.227
15:26:10:903,4.738,0.866,-0.173,0.085,-18.682,3.330,12.958
15:26:10:93,4.765,0.866,-0.173,0.085,-18.682,3.330,12.958
15:26:10:957,4.791,-0.721,0.212,-0.425,-19.052,6.698,11.401
15:26:10:984,4.819,-0.688,0.479,0.079,-19.377,5.964,10.516
15:26:11:011,4.846,0.639,0.091,0.413,-18.243,2.580,9.478
15:26:11:039,4.873,0.639,0.091,0.413,-18.243,2.580,9.478
15:26:11:066,4.900,-0.158,-0.163,-0.107,-17.571,1.765,6.473
15:26:11:093,4.928,-0.051,-0.078,-0.126,-17.730,0.669,5.553
15:26:11:12,4.954,0.479,0.056,-0.175,-17.866,0.063,4.153
15:26:11:147,4.982,0.088,0.042,0.046,-17.829,1.475,3.183
15:26:11:175,5.009,-0.091,0.021,0.145,-17.692,3.041,2.149
15:26:11:202,5.036,0.093,0.021,-0.003,-17.604,2.706,1.484
15:26:11:229,5.064,-0.044,0.087,-0.029,-17.560,2.635,1.041
15:26:11:256,5.091,0.003,-0.002,0.089,-17.378,3.405,0.229
15:26:11:284,5.119,0.003,-0.002,0.089,-17.378,3.405,0.229
15:26:11:311,5.145,0.091,0.033,0.007,-17.153,4.072,-1.092
15:26:11:338,5.173,-0.122,0.007,-0.064,-16.998,5.205,-2.111
15:26:11:366,5.200,-0.122,0.007,-0.064,-16.998,5.205,-2.111
15:26:11:392,5.227,0.108,0.053,0.086,-16.225,10.440,-4.800
15:26:11:42,5.254,0.108,0.053,0.086,-16.225,10.440,-4.800
15:26:11:447,5.282,-0.004,0.010,-0.079,-16.009,11.646,-5.802
15:26:11:474,5.309,0.017,-0.068,-0.016,-15.539,15.139,-7.595
15:26:11:501,5.336,0.017,-0.068,-0.016,-15.539,15.139,-7.595
15:26:11:528,5.363,0.123,0.021,0.119,-15.166,18.126,-9.999
15:26:11:555,5.390,0.123,0.021,0.119,-15.166,18.126,-9.999
15:26:11:582,5.417,-0.018,-0.010,-0.098,-14.835,21.230,-12.447
15:26:11:609,5.444,-0.109,-0.020,-0.023,-14.501,23.382,-14.008
15:26:11:636,5.471,0.050,0.058,0.121,-14.207,24.726,-15.905
15:26:11:663,5.498,0.117,0.028,0.241,-13.995,26.452,-17.314
15:26:11:691,5.525,0.117,0.028,0.241,-13.995,26.452,-17.314
15:26:11:717,5.552,-0.124,-0.091,0.135,-13.372,28.837,-19.731
15:26:11:745,5.579,-0.259,0.191,0.225,-12.205,33.548,-24.345
15:26:11:771,5.606,0.069,0.084,0.373,-11.313,36.507,-27.157
15:26:11:799,5.633,0.069,0.084,0.373,-11.313,36.507,-27.157
15:26:11:826,5.661,-0.209,-0.122,0.305,-10.058,39.235,-30.243
15:26:11:853,5.688,-0.086,0.036,-0.173,-9.800,39.123,-30.956
15:26:11:881,5.716,0.107,0.011,-0.310,-9.763,38.759,-31.991
15:26:11:908,5.743,0.092,-0.066,-0.329,-9.495,38.896,-32.571
15:26:11:935,5.770,0.135,-0.144,-0.113,-9.113,39.629,-33.344
15:26:11:962,5.797,0.055,-0.171,0.062,-8.780,40.630,-34.084
15:26:11:989,5.824,0.055,-0.171,0.062,-8.780,40.630,-34.084
15:26:12:017,5.851,0.132,-0.175,0.031,-8.697,40.855,-34.545
15:26:12:044,5.878,-0.213,0.079,-0.122,-8.767,40.637,-36.058
15:26:12:071,5.905,-0.213,0.079,-0.122,-8.767,40.637,-36.058
15:26:12:098,5.932,-0.109,0.164,-0.071,-8.730,40.795,-36.837
15:26:12:125,5.960,-0.226,0.172,-0.023,-8.596,41.277,-37.533
15:26:12:152,5.987,-0.404,0.318,0.068,-8.190,43.617,-40.270
15:26:12:179,6.014,-0.404,0.318,0.068,-8.190,43.617,-40.270
15:26:12:206,6.041,-0.120,0.103,-0.026,-5.660,47.731,-44.381
15:26:12:233,6.068,-0.225,-0.336,-0.339,-4.340,49.762,-45.658
15:26:12:26,6.095,-0.522,-0.924,0.403,-3.335,53.689,-46.177
15:26:12:288,6.122,-0.522,-0.924,0.403,-3.335,53.689,-46.177
15:26:12:316,6.150,-0.110,-0.571,0.779,-1.511,63.594,-40.805
15:26:12:343,6.177,-0.110,-0.571,0.779,-1.511,63.594,-40.805
15:26:12:369,6.204,-0.110,-0.571,0.779,-1.511,63.594,-40.805
15:26:12:397,6.231,0.019,-0.102,0.609,-8.822,68.778,-27.931
15:26:12:423,6.258,0.176,0.149,0.490,-11.943,68.950,-21.514
15:26:12:45,6.285,0.371,0.368,0.223,-13.555,69.184,-16.952
15:26:12:478,6.312,0.371,0.368,0.223,-13.555,69.184,-16.952
15:26:12:504,6.339,0.705,0.474,-0.769,-17.154,71.410,-3.195
15:26:12:532,6.366,0.674,0.336,-0.748,-18.062,72.679,0.615
15:26:12:559,6.393,0.698,0.083,-0.987,-18.874,74.716,4.602
15:26:12:586,6.421,0.604,-0.012,-0.987,-19.123,75.773,6.074
15:26:12:613,6.448,0.769,-0.090,-1.280,-18.954,75.745,6.512
15:26:12:64,6.475,-0.125,0.430,0.940,-18.833,74.508,5.524
15:26:12:667,6.502,-0.125,0.430,0.940,-18.833,74.508,5.524
15:26:12:695,6.530,0.341,0.007,-0.459,-17.705,72.023,2.665
15:26:12:722,6.557,-0.010,-0.249,-0.047,-17.471,72.140,1.383
15:26:12:749,6.584,0.211,0.153,-0.232,-17.453,71.691,0.151
15:26:12:776,6.611,-0.129,-0.029,0.003,-17.524,72.138,-0.688
15:26:12:803,6.638,-0.129,-0.029,0.003,-17.524,72.138,-0.688
15:26:12:831,6.665,0.085,0.034,0.024,-17.244,72.599,-2.730
15:26:12:858,6.693,0.069,0.011,0.002,-17.146,72.467,-3.302
15:26:12:886,6.720,0.064,0.023,-0.032,-17.110,72.101,-4.032
15:26:12:913,6.748,0.059,0.021,-0.033,-17.076,72.176,-4.495
15:26:12:94,6.775,0.007,-0.001,0.100,-16.930,72.997,-5.151
15:26:12:968,6.802,0.007,-0.001,0.100,-16.930,72.997,-5.151
15:26:12:994,6.829,0.042,0.063,-0.061,-16.917,74.336,-6.236
15:26:13:022,6.856,-0.034,0.009,0.127,-16.757,74.751,-7.082
15:26:13:049,6.884,-0.001,-0.015,0.082,-16.613,75.458,-7.749
15:26:13:077,6.911,0.138,0.044,0.055,-16.230,75.778,-9.878
15:26:13:104,6.938,0.032,-0.023,0.069,-15.916,75.903,-11.375
15:26:13:131,6.966,-0.112,0.002,0.113,-15.598,76.534,-13.023
15:26:13:158,6.992,-0.108,0.023,0.118,-15.305,76.326,-14.317
15:26:13:185,7.020,0.233,0.189,0.037,-14.914,76.772,-16.377
15:26:13:212,7.047,0.117,0.132,0.251,-14.515,76.919,-17.794
15:26:13:239,7.074,-0.046,0.177,0.218,-13.872,77.807,-20.064
15:26:13:266,7.101,-0.101,0.223,0.206,-13.089,77.785,-22.573
15:26:13:293,7.128,-0.129,0.207,0.250,-12.462,78.288,-24.380
15:26:13:321,7.156,-0.200,0.168,0.375,-11.283,78.771,-27.406
15:26:13:349,7.183,-0.276,0.149,0.484,-10.355,79.565,-29.686
15:26:13:377,7.211,-0.440,0.176,0.673,-8.770,80.688,-33.639
15:26:13:403,7.238,-0.606,0.321,0.971,-7.544,82.013,-36.726
15:26:13:431,7.265,-0.586,0.643,0.859,-4.859,84.290,-42.135
15:26:13:457,7.292,-0.692,0.101,0.985,-2.390,86.032,-48.220
15:26:13:485,7.319,-0.673,-0.251,0.968,-0.386,86.665,-51.809
15:26:13:512,7.347,-0.116,-0.496,-0.012,0.797,86.248,-55.846
15:26:13:539,7.374,-0.106,-1.276,0.673,1.992,87.032,-57.115
15:26:13:567,7.402,0.116,-1.233,0.539,2.175,88.316,-56.600
15:26:13:595,7.429,0.009,-0.929,0.303,0.273,88.944,-53.888
15:26:13:621,7.456,0.009,-0.929,0.303,0.273,88.944,-53.888
15:26:13:649,7.483,-0.012,-0.657,0.368,-5.854,89.783,-46.303
15:26:13:676,7.511,0.040,-0.582,0.439,-8.648,89.815,-42.224
15:26:13:703,7.538,0.388,0.167,0.401,-14.758,88.411,-29.095
15:26:13:731,7.565,0.497,0.595,0.055,-17.431,86.471,-19.401
15:26:13:758,7.592,0.497,0.595,0.055,-17.431,86.471,-19.401
15:26:13:785,7.620,0.605,0.915,-0.535,-19.087,84.465,-8.962
15:26:13:812,7.646,0.605,0.915,-0.535,-19.087,84.465,-8.962
15:26:13:839,7.674,0.605,0.915,-0.535,-19.087,84.465,-8.962
15:26:13:866,7.701,0.439,-0.622,-1.918,-21.262,83.492,16.390
15:26:13:893,7.728,0.439,-0.622,-1.918,-21.262,83.492,16.390
15:26:13:92,7.755,-0.365,0.185,-0.233,-22.062,87.512,13.887
15:26:13:948,7.783,0.902,0.170,0.013,-21.684,87.094,10.778
15:26:13:975,7.810,-0.224,0.283,-1.281,-20.440,86.888,9.273
15:26:14:002,7.837,0.371,0.194,-0.186,-19.670,82.525,6.114
15:26:14:029,7.864,-0.044,-0.065,-0.722,-19.547,81.087,2.863
15:26:14:057,7.891,0.283,0.314,-0.663,-19.849,81.251,1.050
15:26:14:084,7.918,0.088,-0.027,0.217,-19.525,85.304,-1.667
15:26:14:111,7.946,0.088,-0.027,0.217,-19.525,85.304,-1.667
15:26:14:138,7.973,0.090,0.131,0.140,-19.515,86.391,-2.738
15:26:14:166,8.000,0.056,0.022,0.176,-19.188,88.760,-5.091
15:26:14:193,8.028,0.080,0.032,0.075,-18.737,90.749,-6.441
15:26:14:22,8.054,0.005,-0.037,0.074,-18.224,92.241,-7.638
15:26:14:247,8.082,0.021,0.002,0.034,-17.936,93.079,-8.446
15:26:14:274,8.108,0.061,-0.038,0.018,-17.471,94.148,-9.704
15:26:14:301,8.136,0.050,-0.037,-0.013,-17.124,94.724,-10.574
15:26:14:328,8.163,0.078,-0.007,0.034,-16.630,95.564,-11.930
15:26:14:355,8.190,-0.003,0.010,0.039,-16.172,96.116,-13.215
15:26:14:382,8.217,-0.013,0.015,0.045,-15.844,97.259,-14.113
15:26:14:409,8.244,0.150,0.151,0.148,-14.993,98.361,-17.167
15:26:14:437,8.271,0.150,0.151,0.148,-14.993,98.361,-17.167
15:26:14:464,8.299,0.103,0.171,0.271,-13.766,99.341,-22.088
15:26:14:492,8.326,0.103,0.171,0.271,-13.766,99.341,-22.088
15:26:14:519,8.354,-0.105,0.154,0.429,-12.000,100.693,-27.377
15:26:14:546,8.381,-0.105,0.154,0.429,-12.000,100.693,-27.377
15:26:14:574,8.408,-0.163,0.393,0.826,-9.481,103.047,-34.868
15:26:14:601,8.435,-0.018,0.575,1.140,-8.080,104.729,-38.431
15:26:14:628,8.463,-0.307,0.265,0.956,-3.414,108.261,-50.026
15:26:14:655,8.490,-0.102,-0.069,0.889,-2.136,108.918,-53.356
15:26:14:682,8.517,-0.282,-0.563,0.179,-0.017,109.672,-56.946
15:26:14:709,8.544,0.254,-1.117,0.431,2.048,110.972,-57.790
15:26:14:736,8.571,0.254,-1.117,0.431,2.048,110.972,-57.790
15:26:14:764,8.599,0.203,-1.009,0.234,2.847,113.693,-54.961
15:26:14:791,8.625,0.180,-0.866,0.265,0.608,114.421,-52.889
15:26:14:818,8.653,0.180,-0.866,0.265,0.608,114.421,-52.889
15:26:14:845,8.680,0.187,-0.686,0.433,-7.706,115.347,-45.278
15:26:14:872,8.707,0.298,-0.370,0.409,-12.707,115.168,-38.745
15:26:14:899,8.734,0.411,-0.143,0.332,-15.375,114.836,-33.564
15:26:14:927,8.762,0.595,0.110,0.300,-18.200,114.604,-24.803
15:26:14:954,8.789,0.642,0.611,-0.062,-20.436,114.325,-15.145
15:26:14:981,8.816,0.440,1.011,-0.617,-21.612,114.178,-8.244
15:26:15:008,8.843,0.440,1.011,-0.617,-21.612,114.178,-8.244
15:26:15:036,8.871,0.440,1.011,-0.617,-21.612,114.178,-8.244
15:26:15:063,8.898,-1.063,-0.414,-2.119,-24.702,115.825,14.272
15:26:15:09,8.925,-0.241,-0.483,-1.728,-25.864,118.603,15.790
15:26:15:118,8.952,-0.236,-0.039,-0.931,-25.807,120.898,13.786
15:26:15:145,8.979,0.734,0.645,1.589,-24.854,119.955,10.487
15:26:15:172,9.007,0.734,0.645,1.589,-24.854,119.955,10.487
15:26:15:199,9.034,0.734,0.645,1.589,-24.854,119.955,10.487
15:26:15:226,9.061,0.323,0.171,-0.435,-24.651,121.624,8.774
15:26:15:254,9.088,0.075,0.016,-0.371,-22.407,118.496,1.110
15:26:15:281,9.115,0.013,0.034,-0.098,-22.271,120.286,-2.382
15:26:15:308,9.142,0.009,-0.020,-0.057,-21.962,121.611,-3.757
15:26:15:335,9.170,0.009,-0.020,-0.057,-21.962,121.611,-3.757
15:26:15:362,9.197,-0.028,-0.013,0.040,-21.726,123.251,-5.283
15:26:15:389,9.224,0.109,-0.012,0.125,-21.588,125.019,-6.323
15:26:15:416,9.251,0.112,0.007,0.141,-21.471,126.286,-7.076
15:26:15:444,9.278,0.112,0.007,0.141,-21.471,126.286,-7.076
15:26:15:471,9.305,0.102,0.040,0.047,-21.202,128.815,-8.937
15:26:15:498,9.332,0.078,0.019,0.034,-20.874,130.112,-9.927
15:26:15:525,9.359,0.067,0.061,0.045,-20.675,130.820,-10.575
15:26:15:551,9.386,0.067,0.061,0.045,-20.675,130.820,-10.575
15:26:15:579,9.414,0.114,0.085,0.081,-20.210,133.241,-13.638
15:26:15:606,9.440,0.114,0.085,0.081,-20.210,133.241,-13.638
15:26:15:633,9.468,0.176,0.062,0.123,-19.366,137.203,-16.836
15:26:15:66,9.495,0.176,0.062,0.123,-19.366,137.203,-16.836
15:26:15:687,9.522,0.163,0.084,0.118,-18.459,140.753,-20.967
15:26:15:714,9.549,0.259,0.113,0.097,-17.842,143.279,-23.916
15:26:15:741,9.576,0.282,0.111,0.122,-17.385,144.397,-26.045
15:26:15:769,9.603,0.331,0.107,0.199,-16.660,147.105,-29.553
15:26:15:795,9.630,0.546,0.180,0.384,-16.096,148.547,-32.170
15:26:15:823,9.657,0.740,0.225,0.493,-14.975,151.669,-36.535
15:26:15:849,9.684,0.740,0.225,0.493,-14.975,151.669,-36.535
15:26:15:877,9.711,1.012,0.394,0.811,-13.930,153.979,-39.719
15:26:15:904,9.738,0.539,0.438,0.879,-12.331,158.182,-51.641
15:26:15:931,9.765,0.847,-0.026,0.799,-11.631,159.687,-55.149
15:26:15:958,9.793,-0.157,-0.169,0.611,-8.876,161.683,-59.193
15:26:15:986,9.820,-0.157,-0.169,0.611,-8.876,161.683,-59.193
15:26:16:013,9.848,0.438,-1.038,-0.034,-0.254,169.464,-54.259
15:26:16:04,9.875,0.438,-1.038,-0.034,-0.254,169.464,-54.259
15:26:16:067,9.902,0.438,-1.038,-0.034,-0.254,169.464,-54.259
15:26:16:094,9.929,0.438,-1.038,-0.034,-0.254,169.464,-54.259
15:26:16:121,9.956,0.438,-1.038,-0.034,-0.254,169.464,-54.259
15:26:16:149,9.984,0.438,-1.038,-0.034,-0.254,169.464,-54.259
15:26:16:176,10.011,0.546,-0.351,-0.159,-13.172,172.337,-34.431
15:26:16:203,10.038,0.416,0.332,-0.527,-17.573,170.064,-18.844
15:26:16:23,10.065,-1.065,1.223,-0.726,-18.710,167.587,-1.255
15:26:16:258,10.093,-1.395,0.579,-0.659,-18.707,168.215,7.576
15:26:16:285,10.120,-2.072,-0.136,-0.533,-18.856,168.342,11.916
15:26:16:312,10.147,-2.095,-0.595,-0.588,-19.391,168.611,15.519
15:26:16:34,10.175,-1.560,-0.308,-0.511,-19.841,171.176,14.648
15:26:16:367,10.202,-0.454,0.223,0.079,-19.399,172.229,12.272
15:26:16:394,10.229,2.333,0.595,-0.558,-19.276,171.943,9.977
15:26:16:421,10.256,2.333,0.595,-0.558,-19.276,171.943,9.977
15:26:16:448,10.283,2.333,0.595,-0.558,-19.276,171.943,9.977
15:26:16:476,10.310,2.333,0.595,-0.558,-19.276,171.943,9.977
15:26:16:503,10.337,-0.264,0.327,-0.141,-17.760,169.572,1.823
15:26:16:531,10.366,0.174,-0.035,0.121,-17.617,171.345,-0.520
15:26:16:558,10.392,0.174,-0.035,0.121,-17.617,171.345,-0.520
15:26:16:585,10.419,-0.080,-0.053,-0.004,-16.977,172.646,-3.258
15:26:16:612,10.447,0.028,-0.023,-0.009,-16.480,173.384,-4.395
15:26:16:639,10.474,0.028,-0.023,-0.009,-16.480,173.384,-4.395
15:26:16:666,10.501,0.064,-0.003,-0.037,-16.178,173.959,-4.836
15:26:16:693,10.527,0.419,0.001,0.066,-16.082,175.105,-5.678
15:26:16:72,10.555,0.419,0.001,0.066,-16.082,175.105,-5.678
15:26:16:747,10.582,0.216,0.020,0.048,-15.946,175.576,-6.644
15:26:16:774,10.609,0.181,0.021,0.004,-15.303,176.907,-10.024
15:26:16:802,10.636,0.181,0.021,0.004,-15.303,176.907,-10.024
15:26:16:829,10.664,0.181,0.021,0.004,-15.303,176.907,-10.024
15:26:16:856,10.690,0.247,0.031,-0.009,-13.924,178.631,-14.909
15:26:16:884,10.718,0.171,0.162,-0.026,-12.682,178.892,-19.335
15:26:16:91,10.745,0.211,0.192,-0.093,-11.828,179.201,-22.336
15:26:16:938,10.772,0.378,0.161,0.035,-10.796,179.778,-25.485
15:26:16:964,10.799,0.385,0.173,0.190,-9.998,-179.768,-27.771
15:26:16:992,10.826,0.580,0.216,0.304,-8.535,-178.688,-31.590
15:26:17:019,10.854,0.925,0.287,0.417,-7.279,-177.575,-34.451
15:26:17:046,10.881,1.380,0.151,0.310,-4.263,-174.599,-39.053
15:26:17:073,10.908,1.380,0.151,0.310,-4.263,-174.599,-39.053
15:26:17:1,10.935,1.324,0.174,0.438,1.537,-171.820,-48.683
15:26:17:128,10.962,0.964,-0.317,0.288,3.633,-172.286,-54.126
15:26:17:155,10.990,0.964,-0.317,0.288,3.633,-172.286,-54.126
15:26:17:182,11.017,0.682,-1.218,0.046,4.417,-173.337,-58.341
15:26:17:209,11.044,0.497,-1.189,-0.075,3.691,-173.348,-57.738
15:26:17:236,11.071,0.353,-0.959,0.114,1.870,-173.689,-54.884
15:26:17:263,11.098,0.364,-0.788,0.059,-1.223,-173.860,-50.438
15:26:17:29,11.125,0.370,-0.694,0.113,-3.526,-174.083,-46.711
15:26:17:317,11.152,0.370,-0.694,0.113,-3.526,-174.083,-46.711
15:26:17:344,11.179,0.484,-0.207,-0.010,-9.571,-175.272,-34.761
15:26:17:371,11.206,0.499,0.168,-0.181,-12.921,-176.733,-25.644
15:26:17:398,11.233,0.095,0.858,-0.489,-15.712,-179.018,-15.262
15:26:17:425,11.260,0.095,0.858,-0.489,-15.712,-179.018,-15.262
15:26:17:452,11.287,-0.498,1.245,-0.607,-17.092,179.021,-7.814
15:26:17:479,11.314,-1.574,0.630,-0.326,-18.159,175.625,9.418
15:26:17:507,11.342,-1.574,0.630,-0.326,-18.159,175.625,9.418
15:26:17:534,11.369,-1.834,-0.489,-0.676,-18.514,173.101,18.572
15:26:17:561,11.396,-1.834,-0.489,-0.676,-18.514,173.101,18.572
15:26:17:588,11.423,2.766,1.466,-0.786,-18.040,175.055,12.986
15:26:17:616,11.450,-0.625,-0.195,-0.479,-17.898,176.997,11.304
15:26:17:643,11.478,-0.981,0.389,-0.148,-16.479,174.226,8.180
15:26:17:67,11.504,-0.981,0.389,-0.148,-16.479,174.226,8.180
15:26:17:697,11.531,-0.127,0.100,-0.030,-16.678,173.943,-0.235
15:26:17:724,11.559,-0.124,0.075,-0.008,-16.558,175.230,-1.590
15:26:17:751,11.586,0.261,-0.030,0.057,-16.168,177.735,-3.255
15:26:17:779,11.613,-0.274,0.036,0.016,-16.087,178.323,-4.065
15:26:17:805,11.640,0.024,-0.001,0.009,-15.806,179.574,-5.162
15:26:17:833,11.667,0.024,-0.001,0.009,-15.806,179.574,-5.162
15:26:17:859,11.694,-0.032,-0.003,-0.051,-15.533,-179.286,-5.809
15:26:17:887,11.721,-0.002,0.019,0.070,-14.938,-176.630,-7.606
15:26:17:914,11.748,0.129,0.009,0.039,-14.670,-175.756,-8.330
15:26:17:941,11.775,0.196,0.043,-0.041,-14.199,-174.483,-9.680
15:26:17:968,11.803,0.288,-0.004,-0.054,-13.811,-173.964,-10.790
15:26:17:995,11.830,0.166,0.113,-0.115,-13.253,-173.691,-12.844
15:26:18:022,11.857,0.143,0.093,-0.030,-12.457,-173.171,-15.229
15:26:18:049,11.884,0.244,0.120,0.083,-11.749,-172.824,-17.002
15:26:18:076,11.911,0.220,0.212,-0.046,-10.653,-172.543,-19.990
15:26:18:103,11.938,0.252,0.223,-0.038,-9.905,-172.478,-22.180
15:26:18:13,11.965,0.319,0.292,-0.019,-8.619,-172.023,-25.679
15:26:18:158,11.992,0.576,0.219,0.060,-7.515,-171.472,-28.146
15:26:18:185,12.019,0.822,0.283,0.297,-5.577,-170.370,-32.193
15:26:18:212,12.047,0.822,0.283,0.297,-5.577,-170.370,-32.193
15:26:18:24,12.074,1.402,0.325,0.366,-1.006,-167.418,-40.343
15:26:18:266,12.101,1.202,0.487,0.498,2.073,-166.609,-46.508
15:26:18:294,12.128,1.202,0.487,0.498,2.073,-166.609,-46.508
15:26:18:32,12.155,0.824,-0.457,0.265,5.417,-167.086,-55.996
15:26:18:348,12.182,0.824,-0.457,0.265,5.417,-167.086,-55.996
15:26:18:375,12.209,0.370,-1.142,-0.192,7.084,-167.186,-59.115
15:26:18:402,12.237,0.370,-1.142,-0.192,7.084,-167.186,-59.115
15:26:18:429,12.264,0.273,-0.992,-0.004,2.367,-168.212,-55.516
15:26:18:456,12.291,0.294,-0.835,0.042,-2.302,-168.679,-51.085
15:26:18:483,12.318,0.294,-0.835,0.042,-2.302,-168.679,-51.085
15:26:18:511,12.345,0.368,-0.322,-0.298,-12.814,-170.707,-32.912
15:26:18:538,12.373,0.368,-0.322,-0.298,-12.814,-170.707,-32.912
15:26:18:566,12.401,0.018,0.338,-0.339,-16.085,-173.522,-17.252
15:26:18:593,12.428,-0.831,0.915,-0.185,-17.087,-176.183,-6.567
15:26:18:62,12.455,-0.831,0.915,-0.185,-17.087,-176.183,-6.567
15:26:18:647,12.482,-1.882,0.578,-0.176,-17.678,-179.833,9.095
15:26:18:674,12.509,-1.939,-0.071,0.163,-17.467,179.873,13.215
15:26:18:701,12.536,-1.939,-0.071,0.163,-17.467,179.873,13.215
15:26:18:729,12.563,-2.526,-0.830,0.233,-17.315,179.421,16.519
15:26:18:756,12.590,3.347,1.640,-1.624,-17.836,-179.579,13.060
15:26:18:783,12.617,-1.205,0.839,0.946,-16.462,-178.193,10.824
15:26:18:809,12.644,-1.255,0.115,0.102,-15.844,178.643,8.045
15:26:18:837,12.671,0.056,-0.663,0.482,-16.207,177.841,3.768
15:26:18:864,12.699,0.089,-0.038,-0.011,-16.357,176.681,0.112
15:26:18:891,12.725,0.019,-0.041,-0.016,-15.802,179.494,-1.684
15:26:18:918,12.753,0.019,-0.041,-0.016,-15.802,179.494,-1.684
15:26:18:945,12.780,-0.234,0.026,0.082,-15.778,-179.866,-3.430
15:26:18:972,12.806,-0.027,-0.036,0.082,-15.618,-179.043,-4.057
15:26:18:999,12.834,0.270,0.014,-0.077,-15.345,-177.210,-5.066
15:26:19:026,12.860,0.043,-0.033,-0.049,-15.207,-177.746,-5.802
15:26:19:053,12.888,0.043,-0.033,-0.049,-15.207,-177.746,-5.802
15:26:19:08,12.914,0.066,0.000,-0.032,-14.995,-177.225,-7.146
15:26:19:107,12.942,0.066,0.000,-0.032,-14.995,-177.225,-7.146
15:26:19:134,12.969,0.061,0.070,0.026,-14.462,-177.477,-11.635
15:26:19:161,12.996,0.170,0.028,-0.011,-14.235,-176.982,-12.843
15:26:19:189,13.023,0.243,0.028,-0.072,-13.797,-176.829,-14.950
15:26:19:215,13.050,0.132,0.213,-0.017,-13.048,-176.492,-19.430
15:26:19:243,13.078,0.239,0.105,0.051,-12.374,-175.545,-22.398
15:26:19:27,13.104,0.239,0.105,0.051,-12.374,-175.545,-22.398
15:26:19:297,13.132,0.420,0.201,0.134,-10.861,-174.601,-27.975
15:26:19:324,13.158,0.720,0.344,0.266,-9.972,-173.872,-30.628
15:26:19:351,13.185,0.720,0.344,0.266,-9.972,-173.872,-30.628
15:26:19:378,13.213,0.847,0.490,0.333,-8.251,-171.584,-35.255
15:26:19:405,13.239,0.931,0.711,0.456,-2.399,-165.348,-44.076
15:26:19:432,13.267,1.128,0.097,0.365,-0.027,-163.670,-50.203
15:26:19:46,13.294,0.797,-0.181,0.241,1.313,-162.834,-53.761
15:26:19:487,13.321,0.466,-0.909,0.164,4.198,-161.528,-57.241
15:26:19:514,13.349,0.355,-1.269,-0.363,7.338,-159.276,-57.703
15:26:19:541,13.375,0.355,-1.269,-0.363,7.338,-159.276,-57.703
15:26:19:568,13.403,0.290,-1.039,-0.247,5.869,-156.022,-54.357
15:26:19:595,13.430,0.321,-0.843,-0.254,3.239,-154.666,-51.993
15:26:19:623,13.457,0.441,-0.677,-0.346,-2.527,-153.134,-47.019
15:26:19:649,13.484,0.441,-0.677,-0.346,-2.527,-153.134,-47.019
15:26:19:677,13.511,0.423,-0.161,-0.653,-11.551,-151.988,-35.258
15:26:19:703,13.538,0.247,0.173,-0.773,-14.879,-151.476,-26.605
15:26:19:731,13.565,0.247,0.173,-0.773,-14.879,-151.476,-26.605
15:26:19:758,13.592,-0.479,0.962,-0.562,-18.560,-151.267,-10.216
15:26:19:785,13.620,-0.479,0.962,-0.562,-18.560,-151.267,-10.216
15:26:19:812,13.646,-1.573,0.758,0.098,-20.270,-150.973,6.158
15:26:19:839,13.674,-1.901,-0.103,0.881,-20.765,-150.319,12.738
15:26:19:866,13.701,-2.147,-0.690,1.223,-21.150,-149.350,14.980
15:26:19:893,13.728,-2.147,-0.690,1.223,-21.150,-149.350,14.980
15:26:19:92,13.755,-2.147,-0.690,1.223,-21.150,-149.350,14.980
15:26:19:948,13.782,-1.301,-0.260,0.556,-21.650,-145.541,13.866
15:26:19:975,13.810,-1.112,0.318,0.225,-19.936,-144.752,5.246
15:26:20:003,13.837,-0.534,0.107,-0.117,-19.716,-144.117,2.097
15:26:20:03,13.865,-0.534,0.107,-0.117,-19.716,-144.117,2.097
15:26:20:057,13.892,0.105,0.020,-0.015,-19.314,-140.083,-4.206
15:26:20:084,13.919,0.066,0.032,0.061,-19.142,-139.371,-4.966
15:26:20:111,13.946,0.046,0.020,0.089,-18.939,-138.344,-5.799
15:26:20:139,13.973,0.046,0.020,0.089,-18.939,-138.344,-5.799
15:26:20:166,14.001,0.034,0.010,-0.049,-18.526,-135.943,-6.992
15:26:20:194,14.029,0.194,-0.015,-0.036,-18.314,-134.550,-7.836
15:26:20:222,14.056,0.194,-0.015,-0.036,-18.314,-134.550,-7.836
15:26:20:248,14.083,0.194,-0.015,-0.036,-18.314,-134.550,-7.836
15:26:20:276,14.111,0.025,0.069,-0.082,-17.813,-131.869,-10.682
15:26:20:304,14.138,0.025,0.069,-0.082,-17.813,-131.869,-10.682
15:26:20:33,14.165,0.025,0.069,-0.082,-17.813,-131.869,-10.682
15:26:20:361,14.195,0.123,0.064,-0.104,-17.023,-127.055,-14.681
15:26:20:388,14.223,0.077,0.045,-0.184,-16.442,-124.177,-16.557
15:26:20:415,14.250,0.077,0.045,-0.184,-16.442,-124.177,-16.557
15:26:20:443,14.277,0.077,0.045,-0.184,-16.442,-124.177,-16.557
15:26:20:469,14.304,0.271,0.097,-0.152,-14.490,-119.130,-23.238
15:26:20:497,14.331,0.237,0.139,-0.137,-14.032,-117.524,-25.166
15:26:20:524,14.358,0.168,0.143,-0.281,-13.135,-116.243,-28.384
15:26:20:551,14.385,0.168,0.143,-0.281,-13.135,-116.243,-28.384
15:26:20:578,14.413,0.168,0.143,-0.281,-13.135,-116.243,-28.384
15:26:20:605,14.440,0.168,0.143,-0.281,-13.135,-116.243,-28.384
15:26:20:632,14.467,0.783,0.405,-0.832,-7.470,-107.344,-42.082
15:26:20:659,14.494,0.783,0.405,-0.832,-7.470,-107.344,-42.082
15:26:20:689,14.523,0.884,-0.211,-0.962,-5.741,-104.955,-52.628
15:26:20:715,14.550,0.884,-0.211,-0.962,-5.741,-104.955,-52.628
15:26:20:743,14.578,0.247,-0.815,-0.535,0.457,-101.156,-59.876
15:26:20:77,14.605,0.247,-0.815,-0.535,0.457,-101.156,-59.876
15:26:20:798,14.633,-0.133,-0.904,-0.573,4.718,-94.187,-53.152
15:26:20:825,14.660,-0.133,-0.904,-0.573,4.718,-94.187,-53.152
15:26:20:852,14.687,-0.133,-0.904,-0.573,4.718,-94.187,-53.152
15:26:20:879,14.714,-0.145,-0.288,-0.625,-7.383,-92.614,-35.718
15:26:20:906,14.741,-0.145,-0.288,-0.625,-7.383,-92.614,-35.718
15:26:20:933,14.768,-0.417,0.427,-0.132,-13.168,-95.681,-20.057
15:26:20:962,14.797,-0.429,1.025,0.531,-14.759,-97.956,-9.546
15:26:20:989,14.824,-0.469,1.204,0.972,-14.987,-98.265,-2.569
15:26:21:016,14.851,-0.282,0.717,1.332,-15.109,-97.024,6.707
15:26:21:044,14.878,-0.282,0.717,1.332,-15.109,-97.024,6.707
15:26:21:071,14.906,-0.312,-0.705,2.292,-15.485,-97.820,16.780
15:26:21:099,14.933,-0.424,-0.473,1.699,-16.458,-96.011,17.552
15:26:21:125,14.960,0.474,0.081,0.462,-16.370,-94.536,15.923
15:26:21:153,14.987,0.474,0.081,0.462,-16.370,-94.536,15.923
15:26:21:179,15.014,0.015,0.287,0.813,-14.831,-95.712,8.506
15:26:21:207,15.042,0.159,-0.416,0.326,-14.699,-96.327,4.993
15:26:21:234,15.069,-0.063,0.152,0.494,-14.774,-96.536,3.270
15:26:21:261,15.096,0.017,0.057,0.083,-14.791,-95.534,1.290
15:26:21:289,15.123,-0.029,0.040,0.140,-14.713,-94.757,0.304
15:26:21:316,15.150,-0.029,0.040,0.140,-14.713,-94.757,0.304
15:26:21:343,15.178,0.111,0.032,0.233,-14.977,-93.391,-1.483
15:26:21:371,15.205,0.111,0.032,0.233,-14.977,-93.391,-1.483
15:26:21:398,15.233,0.099,0.049,0.089,-14.714,-87.072,-3.588
15:26:21:425,15.259,0.099,0.049,0.089,-14.714,-87.072,-3.588
15:26:21:452,15.287,0.099,0.049,0.089,-14.714,-87.072,-3.588
15:26:21:479,15.314,0.160,0.024,-0.300,-14.139,-81.626,-6.473
15:26:21:506,15.341,0.073,0.102,-0.076,-13.813,-80.434,-8.324
15:26:21:533,15.367,0.062,0.096,-0.155,-13.604,-79.660,-9.721
15:26:21:561,15.395,0.062,0.096,-0.155,-13.604,-79.660,-9.721
15:26:21:588,15.423,-0.044,0.122,-0.253,-12.821,-77.184,-13.891
15:26:21:616,15.451,-0.042,0.147,-0.225,-12.124,-76.170,-16.938
15:26:21:643,15.478,0.033,0.147,-0.312,-11.334,-74.481,-20.372
15:26:21:67,15.505,0.070,0.176,-0.247,-10.769,-73.913,-22.863
15:26:21:698,15.532,0.070,0.176,-0.247,-10.769,-73.913,-22.863
15:26:21:725,15.559,-0.091,0.179,-0.635,-8.652,-70.497,-30.042
15:26:21:752,15.587,0.028,0.358,-1.275,-6.988,-67.979,-35.116
15:26:21:779,15.614,0.059,0.512,-1.260,-5.287,-66.228,-38.712
15:26:21:806,15.641,0.237,0.670,-1.194,-3.397,-65.358,-45.307
15:26:21:834,15.668,0.237,0.670,-1.194,-3.397,-65.358,-45.307
15:26:21:861,15.695,0.336,-0.550,-0.459,-0.819,-64.968,-54.999
15:26:21:888,15.723,-0.281,-0.992,-0.566,2.114,-63.310,-57.186
15:26:21:917,15.752,-0.224,-1.192,-0.273,4.357,-62.145,-56.741
15:26:21:944,15.779,-0.214,-0.985,-0.200,6.050,-60.395,-54.047
15:26:21:971,15.806,-0.316,-0.954,-0.309,4.967,-58.812,-49.679
15:26:21:999,15.833,-0.316,-0.954,-0.309,4.967,-58.812,-49.679
15:26:22:026,15.860,-0.314,-0.432,-0.411,-5.166,-58.153,-35.067
15:26:22:053,15.888,-0.445,-0.020,-0.255,-9.746,-59.642,-26.612
15:26:22:08,15.914,-0.445,-0.020,-0.255,-9.746,-59.642,-26.612
15:26:22:107,15.942,-0.560,0.486,0.064,-12.731,-61.465,-16.884
15:26:22:134,15.968,0.380,1.024,1.324,-14.549,-64.500,0.509
15:26:22:161,15.996,0.380,1.024,1.324,-14.549,-64.500,0.509
15:26:22:188,16.023,0.380,1.024,1.324,-14.549,-64.500,0.509
15:26:22:215,16.050,0.985,-0.853,2.138,-16.398,-61.342,17.910
15:26:22:242,16.077,0.666,-0.611,1.882,-17.967,-57.092,18.964
15:26:22:269,16.104,0.615,0.348,-0.535,-17.825,-54.131,15.968
15:26:22:296,16.131,0.615,0.348,-0.535,-17.825,-54.131,15.968
15:26:22:324,16.158,1.497,0.649,1.122,-16.776,-56.480,12.070
15:26:22:35,16.185,0.265,-0.324,0.198,-16.645,-58.799,8.984
15:26:22:378,16.212,0.238,-0.228,0.272,-15.889,-56.809,5.213
15:26:22:405,16.240,-0.024,0.012,-0.118,-15.953,-54.882,2.522
15:26:22:432,16.267,-0.002,-0.065,-0.054,-15.809,-54.373,1.139
15:26:22:459,16.294,0.206,-0.014,0.142,-15.650,-54.059,-0.313
15:26:22:487,16.322,0.093,0.024,0.093,-15.628,-53.478,-0.877
15:26:22:514,16.348,0.093,0.024,0.093,-15.628,-53.478,-0.877
15:26:22:542,16.376,-0.004,0.014,-0.166,-15.527,-50.725,-2.016
15:26:22:568,16.403,0.083,0.000,-0.116,-15.560,-49.046,-2.882
15:26:22:596,16.430,0.083,0.000,-0.116,-15.560,-49.046,-2.882
15:26:22:623,16.458,0.045,0.057,-0.124,-15.526,-46.988,-3.993
15:26:22:65,16.485,0.045,0.057,-0.124,-15.526,-46.988,-3.993
15:26:22:678,16.512,-0.089,0.057,-0.082,-14.746,-42.282,-7.593
15:26:22:706,16.540,-0.004,0.091,-0.090,-14.265,-40.796,-9.426
15:26:22:733,16.567,-0.004,0.091,-0.090,-14.265,-40.796,-9.426
15:26:22:76,16.594,-0.051,0.015,-0.096,-13.308,-37.704,-13.027
15:26:22:787,16.622,-0.058,0.143,-0.162,-12.274,-35.115,-17.457
15:26:22:814,16.648,-0.159,0.128,-0.134,-11.564,-33.926,-20.541
15:26:22:841,16.676,-0.159,0.128,-0.134,-11.564,-33.926,-20.541
15:26:22:868,16.703,-0.413,0.206,-0.260,-9.928,-30.527,-26.793
15:26:22:896,16.730,-0.719,0.469,-0.852,-8.438,-27.650,-31.487
15:26:22:922,16.757,-0.563,0.645,-0.961,-7.310,-25.517,-35.004
15:26:22:95,16.784,-0.627,0.923,-1.142,-5.121,-22.655,-41.013
15:26:22:977,16.812,-0.696,0.205,-1.146,-3.449,-21.178,-47.648
15:26:23:004,16.839,-0.643,-0.405,-0.729,-2.041,-20.035,-51.268
15:26:23:031,16.866,-0.276,-0.783,-0.406,1.015,-18.439,-54.734
15:26:23:059,16.893,-0.276,-0.783,-0.406,1.015,-18.439,-54.734
15:26:23:086,16.921,-0.276,-0.783,-0.406,1.015,-18.439,-54.734
15:26:23:113,16.948,-0.333,-1.003,-0.023,5.240,-11.874,-51.144
15:26:23:141,16.975,-0.437,-0.805,-0.004,2.581,-10.106,-46.785
15:26:23:168,17.003,-0.411,-0.616,-0.068,-1.777,-9.136,-41.418
15:26:23:195,17.029,-0.522,-0.469,-0.048,-5.213,-9.179,-37.122
15:26:23:222,17.057,-0.453,-0.081,0.092,-10.259,-10.439,-29.418
15:26:23:249,17.083,-0.419,0.112,0.249,-12.879,-11.736,-23.453
15:26:23:276,17.111,-0.206,0.553,0.491,-15.469,-13.782,-13.548
15:26:23:303,17.137,0.529,1.050,0.684,-16.588,-14.975,-2.932
15:26:23:33,17.165,0.973,1.143,0.684,-16.990,-15.139,4.120
15:26:23:358,17.193,1.419,0.628,0.678,-17.381,-15.927,13.043
15:26:23:385,17.219,2.463,-0.589,0.750,-17.661,-16.934,17.440
15:26:23:414,17.248,1.945,-0.675,0.865,-18.760,-15.537,20.138
15:26:23:441,17.276,1.277,-0.124,0.167,-18.955,-13.368,18.967
15:26:23:468,17.303,0.621,-0.085,0.396,-17.035,-11.865,12.731
15:26:23:495,17.330,0.245,0.454,0.649,-16.181,-16.222,6.116
15:26:23:522,17.357,0.245,0.454,0.649,-16.181,-16.222,6.116
15:26:23:55,17.384,0.454,-0.094,0.005,-15.745,-16.584,4.101
15:26:23:576,17.411,0.454,-0.094,0.005,-15.745,-16.584,4.101
15:26:23:604,17.438,-0.175,-0.069,-0.083,-14.927,-13.277,0.028
15:26:23:631,17.466,-0.175,-0.069,-0.083,-14.927,-13.277,0.028
15:26:23:658,17.492,0.039,-0.017,-0.052,-14.410,-11.460,-2.245
15:26:23:686,17.520,-0.126,-0.007,0.015,-14.146,-9.848,-2.997
15:26:23:712,17.547,-0.120,0.026,-0.012,-14.061,-9.195,-3.520
15:26:23:739,17.574,-0.039,-0.004,-0.124,-13.874,-8.207,-4.548
15:26:23:766,17.601,-0.067,-0.034,-0.062,-13.489,-7.120,-5.829
15:26:23:793,17.628,-0.067,-0.034,-0.062,-13.489,-7.120,-5.829
15:26:23:82,17.655,-0.028,0.106,0.014,-12.878,-6.528,-8.427
15:26:23:848,17.682,-0.062,0.005,-0.099,-12.646,-6.368,-9.590
15:26:23:875,17.710,-0.065,0.053,-0.092,-12.296,-5.997,-11.511
15:26:23:902,17.737,-0.196,0.164,-0.035,-11.704,-6.078,-13.857
15:26:23:929,17.764,-0.108,0.251,-0.009,-11.276,-5.726,-15.638
15:26:23:957,17.792,-0.231,0.229,-0.021,-10.495,-5.598,-18.427
15:26:23:984,17.819,-0.283,0.184,-0.047,-9.862,-5.109,-20.383
15:26:24:011,17.846,-0.287,0.230,-0.125,-8.846,-5.077,-23.585
15:26:24:039,17.873,-0.350,0.227,-0.179,-8.012,-4.481,-25.899
15:26:24:066,17.901,-0.703,0.193,-0.427,-6.318,-3.013,-29.681
15:26:24:093,17.927,-0.933,0.194,-0.662,-4.247,-0.958,-33.972
15:26:24:121,17.956,-1.276,0.146,-0.615,-2.007,1.480,-37.107
15:26:24:148,17.983,-1.042,0.657,-0.584,2.350,4.379,-42.745
15:26:24:175,18.010,-1.225,-0.003,-0.723,4.642,5.152,-46.909
15:26:24:202,18.037,-0.611,-0.453,-0.391,7.331,5.119,-52.401
15:26:24:229,18.064,-0.233,-0.696,-0.514,9.262,5.277,-55.437
15:26:24:257,18.092,-0.670,-1.260,0.152,10.255,6.351,-55.600
15:26:24:284,18.118,-0.346,-0.980,0.073,9.162,7.902,-51.235
15:26:24:311,18.146,-0.361,-0.755,0.052,4.840,8.173,-46.870
15:26:24:338,18.173,-0.361,-0.755,0.052,4.840,8.173,-46.870
15:26:24:365,18.200,-0.474,-0.419,0.028,-3.917,7.023,-36.779
15:26:24:392,18.227,-0.474,-0.419,0.028,-3.917,7.023,-36.779
15:26:24:419,18.254,-0.195,0.170,0.225,-11.158,2.895,-22.631
15:26:24:446,18.281,0.298,0.664,0.288,-13.591,-0.517,-12.517
15:26:24:473,18.308,1.115,1.320,0.270,-14.338,-2.744,-5.528
15:26:24:501,18.335,1.115,1.320,0.270,-14.338,-2.744,-5.528
15:26:24:528,18.362,1.485,0.371,-0.030,-14.053,-4.233,12.538
15:26:24:555,18.390,2.062,-0.372,0.083,-14.168,-5.403,16.626
15:26:24:582,18.416,1.682,-0.408,0.317,-15.219,-4.995,19.773
15:26:24:609,18.444,1.384,-0.160,-0.066,-15.778,-3.471,19.495
15:26:24:636,18.470,0.240,0.181,-0.197,-15.615,-1.847,16.491
15:26:24:663,18.498,-0.358,0.164,0.691,-14.899,-2.004,13.539
15:26:24:69,18.525,1.465,0.055,-0.735,-13.321,-3.921,11.869
15:26:24:717,18.552,0.769,0.839,0.499,-13.462,-8.263,7.810
15:26:24:744,18.578,0.335,-0.664,-0.437,-13.397,-8.828,5.165
15:26:24:771,18.606,0.433,0.281,0.133,-13.616,-8.016,2.520
15:26:24:799,18.634,-0.335,0.020,-0.086,-13.366,-5.480,1.100
15:26:24:826,18.660,-0.033,0.139,-0.011,-13.124,-4.327,-0.141
15:26:24:854,18.689,0.297,-0.003,-0.117,-13.052,-4.877,-1.031
15:26:24:881,18.715,0.083,-0.040,-0.071,-12.885,-4.346,-1.454
15:26:24:908,18.743,-0.141,-0.004,0.015,-12.693,-2.754,-2.029
15:26:24:935,18.770,-0.031,-0.002,-0.053,-12.607,-2.145,-2.430
15:26:24:962,18.797,-0.031,-0.016,-0.137,-12.474,-1.459,-3.204
15:26:24:99,18.825,-0.147,-0.001,-0.035,-12.248,-0.646,-4.278
15:26:25:017,18.852,-0.064,0.038,-0.077,-11.912,-0.092,-6.693
15:26:25:044,18.879,-0.051,0.116,-0.057,-11.729,0.226,-7.867
15:26:25:072,18.907,-0.051,0.116,-0.057,-11.729,0.226,-7.867
15:26:25:099,18.933,-0.210,0.057,-0.004,-11.318,1.049,-9.908
15:26:25:126,18.961,-0.086,0.150,-0.089,-10.211,1.702,-14.041
15:26:25:153,18.988,-0.086,0.150,-0.089,-10.211,1.702,-14.041
15:26:25:18,19.015,-0.126,0.283,0.053,-9.472,2.010,-17.087
15:26:25:207,19.042,-0.325,0.176,-0.100,-7.879,3.305,-22.734
15:26:25:234,19.069,-0.443,0.190,-0.287,-7.097,3.957,-25.357
15:26:25:261,19.096,-0.742,0.403,-0.464,-5.579,5.504,-29.871
15:26:25:289,19.123,-1.269,0.310,-0.313,-3.142,8.659,-34.933
15:26:25:315,19.150,-1.222,0.381,-0.228,-0.589,11.123,-38.449
15:26:25:343,19.178,-1.243,0.334,-0.457,2.539,12.984,-44.446
15:26:25:371,19.205,-1.109,-0.174,-0.140,4.402,13.387,-48.122
15:26:25:398,19.233,-0.136,-0.628,-0.282,6.038,12.720,-52.381
15:26:25:426,19.261,-0.402,-0.823,-0.375,7.241,13.227,-54.080
15:26:25:453,19.288,-0.539,-1.174,0.378,8.448,14.110,-53.312
15:26:25:48,19.315,-0.306,-1.056,0.105,8.044,14.236,-50.615
15:26:25:507,19.342,-0.293,-0.932,0.065,5.631,14.203,-48.192
15:26:25:534,19.369,-0.318,-0.724,0.082,1.463,13.923,-43.487
15:26:25:561,19.396,-0.369,-0.644,0.054,-1.498,13.500,-39.632
15:26:25:589,19.424,-0.489,-0.387,0.174,-5.945,12.344,-32.550
15:26:25:616,19.451,-0.315,-0.046,0.246,-9.637,10.506,-24.038
15:26:25:643,19.478,-0.267,0.251,0.375,-11.457,9.210,-17.703
15:26:25:671,19.505,0.163,0.768,0.390,-13.443,6.981,-7.389
15:26:25:698,19.532,1.055,1.338,0.161,-14.251,5.289,-0.178
15:26:25:725,19.560,1.055,1.338,0.161,-14.251,5.289,-0.178
15:26:25:752,19.587,1.695,-0.403,0.067,-16.607,4.887,22.883
15:26:25:78,19.614,1.489,-0.347,-0.210,-16.555,6.488,21.132
15:26:25:807,19.642,1.489,-0.347,-0.210,-16.555,6.488,21.132
15:26:25:834,19.669,-2.340,1.430,1.519,-16.226,7.386,17.348
15:26:25:862,19.696,-2.340,1.430,1.519,-16.226,7.386,17.348
15:26:25:889,19.724,-2.340,1.430,1.519,-16.226,7.386,17.348
15:26:25:916,19.751,0.346,-0.092,0.012,-14.934,4.699,8.874
15:26:25:944,19.778,0.001,0.044,-0.023,-14.923,7.287,4.783
15:26:25:97,19.805,0.004,0.030,0.007,-14.754,8.722,3.544
15:26:25:998,19.832,0.004,0.030,0.007,-14.754,8.722,3.544
15:26:26:024,19.859,0.114,0.003,-0.154,-14.739,9.851,1.029
15:26:26:052,19.886,0.111,-0.032,-0.082,-14.655,10.553,0.265
15:26:26:079,19.913,0.111,-0.032,-0.082,-14.655,10.553,0.265
15:26:26:106,19.941,-0.057,0.021,0.012,-14.370,12.951,-1.468
15:26:26:134,19.969,-0.021,0.005,-0.109,-14.271,13.484,-2.514
15:26:26:161,19.996,-0.049,0.019,-0.034,-14.078,14.293,-3.730
15:26:26:189,20.023,0.000,0.044,-0.007,-13.955,14.725,-4.606
15:26:26:216,20.050,-0.099,0.023,-0.050,-13.686,15.372,-6.018
15:26:26:242,20.077,-0.036,0.093,0.054,-13.496,15.842,-7.087
15:26:26:27,20.104,-0.055,0.064,0.015,-13.195,16.669,-8.928
15:26:26:297,20.131,-0.152,0.060,0.012,-12.886,17.463,-10.337
15:26:26:324,20.158,-0.172,0.182,-0.012,-12.246,17.611,-12.851
15:26:26:351,20.185,-0.121,0.167,0.059,-11.406,17.725,-15.664
15:26:26:378,20.213,-0.163,0.172,0.046,-10.882,18.129,-17.602
15:26:26:406,20.240,-0.214,0.200,-0.050,-10.048,17.960,-20.690
15:26:26:432,20.267,-0.614,0.266,-0.142,-8.100,19.337,-26.740
15:26:26:46,20.295,-0.614,0.266,-0.142,-8.100,19.337,-26.740
15:26:26:487,20.322,-1.258,0.343,0.065,-4.924,23.915,-34.516
15:26:26:514,20.349,-0.920,0.653,-0.211,-2.050,26.879,-40.048
15:26:26:542,20.376,-0.970,0.383,-0.267,-0.723,28.190,-44.044
15:26:26:568,20.403,-0.830,-0.077,-0.008,1.794,30.019,-49.204
15:26:26:596,20.430,-0.493,-0.723,-0.176,3.395,30.849,-51.801
15:26:26:623,20.458,-0.493,-0.723,-0.176,3.395,30.849,-51.801
15:26:26:65,20.484,-0.210,-1.006,0.313,7.539,35.397,-52.293
15:26:26:677,20.512,-0.211,-0.962,0.249,6.340,36.388,-50.884
15:26:26:704,20.539,-0.247,-0.847,0.283,3.017,38.054,-47.675
15:26:26:731,20.566,-0.295,-0.696,0.342,-0.010,38.921,-44.808
15:26:26:758,20.593,-0.355,-0.540,0.509,-5.206,39.807,-39.372
15:26:26:785,20.620,-0.254,-0.272,0.599,-9.905,39.996,-32.450
15:26:26:813,20.647,-0.184,-0.014,0.647,-12.440,39.657,-26.985
15:26:26:84,20.674,-0.048,0.393,0.622,-15.399,38.695,-17.695
15:26:26:867,20.702,0.496,0.986,0.295,-17.095,37.741,-10.887
15:26:26:894,20.728,1.070,1.238,-0.019,-19.097,36.446,0.049
15:26:26:921,20.756,1.695,0.820,-0.390,-20.186,36.430,7.101
15:26:26:948,20.783,1.688,0.148,-0.954,-21.409,37.468,15.730
15:26:26:975,20.810,2.136,-1.091,-1.557,-22.217,38.247,20.870
15:26:27:003,20.838,1.621,-0.438,-0.736,-23.302,40.755,21.043
15:26:27:03,20.865,-1.019,0.541,0.076,-22.670,42.176,17.473
15:26:27:057,20.892,0.134,0.454,0.804,-22.452,42.212,15.999
15:26:27:089,20.923,0.134,0.454,0.804,-22.452,42.212,15.999
15:26:27:116,20.950,0.295,-0.185,-0.351,-19.431,36.762,7.170
15:26:27:143,20.978,0.295,-0.185,-0.351,-19.431,36.762,7.170
15:26:27:17,21.005,0.005,0.020,0.063,-19.008,38.919,4.294
15:26:27:198,21.032,0.151,0.036,-0.042,-18.538,40.512,1.177
15:26:27:225,21.060,0.151,0.036,-0.042,-18.538,40.512,1.177
15:26:27:252,21.087,0.151,0.036,-0.042,-18.538,40.512,1.177
15:26:27:279,21.114,0.047,0.003,0.049,-18.753,43.441,-1.366
15:26:27:306,21.141,0.074,0.018,-0.064,-18.874,44.253,-1.932
15:26:27:333,21.168,-0.112,-0.014,0.029,-18.986,46.093,-3.033
15:26:27:36,21.195,-0.003,0.018,-0.011,-19.004,47.084,-3.836
15:26:27:387,21.222,0.030,0.033,-0.059,-18.969,48.378,-5.098
15:26:27:416,21.250,-0.010,0.052,-0.057,-18.873,49.744,-6.408
15:26:27:442,21.277,-0.004,0.088,-0.071,-18.780,50.805,-7.352
15:26:27:47,21.304,-0.070,0.085,0.055,-18.445,52.901,-9.028
15:26:27:497,21.332,0.047,0.105,0.082,-18.089,54.222,-10.284
15:26:27:524,21.358,-0.082,0.124,0.123,-17.531,55.344,-12.426
15:26:27:551,21.386,-0.137,0.130,0.158,-16.902,56.836,-15.001
15:26:27:579,21.413,-0.021,0.273,0.225,-16.516,57.046,-17.045
15:26:27:607,21.441,-0.126,0.211,0.286,-15.849,58.628,-20.495
15:26:27:634,21.469,-0.200,0.212,0.289,-15.379,59.206,-23.047
15:26:27:661,21.496,-0.421,0.396,0.511,-14.492,61.631,-27.544
15:26:27:688,21.523,-0.632,0.397,0.940,-12.947,65.474,-32.768
15:26:27:716,21.550,-0.780,0.432,0.815,-11.283,68.591,-36.460
15:26:27:743,21.577,-0.633,0.662,0.579,-10.070,71.026,-42.788
15:26:27:77,21.605,-0.845,0.345,0.694,-9.088,72.304,-46.786
15:26:27:797,21.632,-0.508,-0.604,0.493,-7.515,73.745,-51.334
15:26:27:824,21.659,-0.303,-0.700,0.337,-5.240,75.445,-53.648
15:26:27:852,21.686,0.046,-1.022,0.528,-3.500,77.128,-53.656
15:26:27:879,21.713,0.008,-1.108,0.445,-0.708,79.385,-51.339
15:26:27:906,21.741,0.008,-1.108,0.445,-0.708,79.385,-51.339
15:26:27:934,21.769,0.038,-0.638,0.448,-5.802,82.608,-41.404
15:26:27:961,21.796,0.052,-0.533,0.499,-9.767,82.935,-35.101
15:26:27:988,21.823,0.140,-0.219,0.462,-13.649,82.369,-27.267
15:26:28:016,21.850,0.281,0.090,0.425,-15.782,81.693,-21.254
15:26:28:043,21.877,0.512,0.654,0.213,-18.376,80.260,-11.261
15:26:28:07,21.905,0.729,1.303,-0.913,-19.571,79.000,-4.034
15:26:28:098,21.932,0.500,0.295,-1.438,-21.185,78.636,14.985
15:26:28:126,21.960,0.500,0.295,-1.438,-21.185,78.636,14.985
15:26:28:152,21.987,0.500,0.295,-1.438,-21.185,78.636,14.985
15:26:28:18,22.015,0.500,0.295,-1.438,-21.185,78.636,14.985
15:26:28:207,22.042,0.304,-0.093,-1.199,-23.252,80.925,20.782
15:26:28:234,22.069,0.331,1.070,2.766,-22.340,81.192,17.399
15:26:28:261,22.096,-0.240,0.456,-1.489,-22.022,80.958,16.402
15:26:28:288,22.123,-0.240,0.456,-1.489,-22.022,80.958,16.402
15:26:28:315,22.149,0.107,0.034,-0.513,-19.554,75.112,8.539
15:26:28:342,22.177,0.041,0.018,0.037,-19.784,76.090,6.127
15:26:28:37,22.204,0.065,-0.047,-0.183,-19.602,77.522,4.727
15:26:28:397,22.232,0.030,0.009,0.072,-19.413,78.905,3.308
15:26:28:425,22.260,0.024,0.019,-0.092,-19.459,79.725,2.177
15:26:28:452,22.286,-0.020,0.010,-0.157,-19.461,80.383,1.390
15:26:28:479,22.314,-0.020,0.010,-0.157,-19.461,80.383,1.390
15:26:28:507,22.341,0.059,-0.012,0.108,-19.126,83.467,-0.766
15:26:28:535,22.369,0.059,-0.012,0.108,-19.126,83.467,-0.766
15:26:28:562,22.397,-0.003,0.008,0.093,-18.722,85.815,-4.311
15:26:28:589,22.424,0.065,0.097,-0.034,-18.543,86.422,-5.946
15:26:28:616,22.451,0.029,0.071,-0.010,-18.400,86.901,-7.142
15:26:28:643,22.478,0.029,0.071,-0.010,-18.400,86.901,-7.142
15:26:28:671,22.506,0.046,0.144,0.143,-17.732,89.987,-10.798
15:26:28:699,22.534,0.145,0.223,0.069,-17.050,91.886,-13.661
15:26:28:726,22.561,0.092,0.164,0.197,-16.215,93.349,-16.772
15:26:28:753,22.588,0.092,0.164,0.197,-16.215,93.349,-16.772
15:26:28:781,22.615,-0.120,0.236,0.217,-14.755,95.820,-22.306
15:26:28:807,22.642,-0.093,0.246,0.410,-14.038,97.149,-24.827
15:26:28:835,22.669,-0.180,0.477,0.818,-12.711,99.243,-29.079
15:26:28:862,22.697,-0.021,0.281,1.284,-10.803,102.454,-34.051
15:26:28:889,22.724,-0.104,0.546,0.882,-9.380,104.090,-37.801
15:26:28:916,22.750,-0.176,0.546,0.896,-8.175,105.424,-43.834
15:26:28:943,22.778,-0.365,0.195,1.040,-7.183,106.449,-47.452
15:26:28:97,22.804,-0.243,-0.661,0.393,-5.544,107.547,-51.560
15:26:28:997,22.832,-0.058,-0.834,0.513,-4.073,109.021,-52.926
15:26:29:025,22.860,-0.058,-0.834,0.513,-4.073,109.021,-52.926
15:26:29:052,22.886,-0.058,-0.834,0.513,-4.073,109.021,-52.926
15:26:29:079,22.914,0.199,-0.918,0.262,-2.522,113.695,-48.499
15:26:29:106,22.941,0.199,-0.918,0.262,-2.522,113.695,-48.499
15:26:29:134,22.968,0.256,-0.611,0.380,-8.889,114.967,-40.742
15:26:29:161,22.995,0.319,-0.484,0.408,-13.549,114.494,-34.110
15:26:29:188,23.023,0.428,-0.144,0.275,-17.378,113.419,-25.799
15:26:29:215,23.049,0.583,0.115,0.119,-19.297,112.775,-19.486
15:26:29:242,23.077,0.583,0.115,0.119,-19.297,112.775,-19.486
15:26:29:269,23.103,0.466,0.930,-0.870,-23.016,110.645,-1.746
15:26:29:296,23.131,0.466,0.930,-0.870,-23.016,110.645,-1.746
15:26:29:323,23.157,-0.884,-0.676,-2.207,-26.390,113.211,19.839
15:26:29:35,23.185,-0.884,-0.676,-2.207,-26.390,113.211,19.839
15:26:29:377,23.212,-0.199,-0.198,-1.333,-27.065,116.768,19.479
15:26:29:404,23.239,2.002,1.107,1.696,-26.485,116.183,16.652
15:26:29:431,23.266,2.002,1.107,1.696,-26.485,116.183,16.652
15:26:29:458,23.293,-0.225,0.189,-1.007,-24.530,114.984,12.387
15:26:29:486,23.320,-0.225,0.189,-1.007,-24.530,114.984,12.387
15:26:29:513,23.348,-0.083,0.064,-0.287,-23.977,117.426,6.199
15:26:29:541,23.375,0.014,0.022,0.037,-24.020,120.190,3.429
15:26:29:569,23.404,0.014,0.022,0.037,-24.020,120.190,3.429
15:26:29:596,23.431,-0.146,0.035,-0.192,-23.787,121.749,0.903
15:26:29:624,23.458,0.059,0.009,0.046,-23.772,123.123,-0.042
15:26:29:65,23.485,-0.011,-0.029,-0.097,-23.658,124.814,-1.254
15:26:29:678,23.512,0.003,-0.051,-0.078,-23.496,126.394,-2.332
15:26:29:704,23.539,0.044,-0.055,-0.015,-23.353,127.430,-3.014
15:26:29:732,23.567,0.096,0.052,0.046,-23.177,128.561,-4.020
15:26:29:759,23.594,0.078,0.027,-0.077,-23.047,129.107,-4.781
15:26:29:787,23.622,0.078,0.027,-0.077,-23.047,129.107,-4.781
15:26:29:815,23.649,0.031,0.023,-0.020,-22.452,130.553,-7.165
15:26:29:841,23.676,0.051,0.066,0.019,-22.210,131.033,-8.032
15:26:29:869,23.703,0.161,0.082,-0.039,-21.864,132.085,-9.612
15:26:29:896,23.730,0.188,0.070,-0.021,-21.547,134.438,-10.829
15:26:29:923,23.758,0.188,0.070,-0.021,-21.547,134.438,-10.829
15:26:29:95,23.784,0.070,0.156,0.035,-20.741,137.870,-14.417
15:26:29:977,23.812,0.150,0.143,0.052,-20.143,139.049,-16.974
15:26:30:004,23.838,0.150,0.143,0.052,-20.143,139.049,-16.974
15:26:30:031,23.866,0.199,0.119,0.072,-18.998,142.368,-21.974
15:26:30:059,23.894,0.441,0.345,0.309,-17.461,146.780,-28.548
15:26:30:086,23.920,1.008,0.324,0.658,-15.967,150.896,-33.485
15:26:30:113,23.948,0.463,0.573,0.485,-14.554,154.070,-38.867
15:26:30:14,23.975,0.463,0.573,0.485,-14.554,154.070,-38.867
15:26:30:168,24.002,0.313,0.617,0.447,-14.158,155.153,-42.642
15:26:30:195,24.030,0.112,-0.547,0.536,-11.655,159.183,-51.141
15:26:30:223,24.057,0.112,-0.547,0.536,-11.655,159.183,-51.141
15:26:30:25,24.085,0.408,-1.079,0.071,-7.381,163.888,-54.804
15:26:30:277,24.112,0.334,-0.957,-0.104,-4.587,166.562,-53.672
15:26:30:304,24.139,0.434,-0.854,-0.110,-5.318,169.852,-48.617
15:26:30:331,24.166,0.384,-0.565,-0.077,-8.962,170.648,-43.929
15:26:30:359,24.193,0.384,-0.565,-0.077,-8.962,170.648,-43.929
15:26:30:385,24.220,0.361,-0.300,-0.119,-11.939,170.591,-40.097
15:26:30:413,24.247,0.349,0.198,-0.456,-18.141,169.647,-25.599
15:26:30:44,24.275,0.349,0.198,-0.456,-18.141,169.647,-25.599
15:26:30:467,24.301,-0.278,0.645,-0.670,-19.270,170.647,-11.506
15:26:30:494,24.329,-0.780,0.764,-0.754,-19.658,171.037,-5.934
15:26:30:521,24.356,-0.981,0.521,-0.701,-20.393,171.203,1.630
15:26:30:548,24.383,-1.223,0.122,-0.639,-20.783,171.021,5.893
15:26:30:575,24.410,-1.223,0.122,-0.639,-20.783,171.021,5.893
15:26:30:603,24.437,-1.287,-0.247,-0.420,-21.065,170.753,13.181
15:26:30:629,24.464,-1.158,-0.280,-0.417,-21.113,170.934,13.673
15:26:30:657,24.491,0.487,0.244,0.401,-20.879,171.000,12.851
15:26:30:683,24.518,-0.319,0.068,-0.280,-21.417,171.074,12.763
15:26:30:711,24.545,-0.434,0.154,0.283,-21.111,170.875,12.313
15:26:30:738,24.573,-0.319,0.253,-0.551,-21.558,171.103,10.850
15:26:30:766,24.600,0.196,-0.012,0.062,-22.100,172.865,8.199
15:26:30:793,24.627,0.196,-0.012,0.062,-22.100,172.865,8.199
15:26:30:82,24.655,0.196,-0.012,0.062,-22.100,172.865,8.199
15:26:30:847,24.681,-0.089,-0.016,-0.081,-22.093,173.738,5.402
15:26:30:874,24.709,-0.065,-0.005,-0.044,-21.883,174.572,4.546
15:26:30:901,24.736,0.067,0.066,-0.165,-21.730,175.870,3.775
15:26:30:928,24.763,0.140,0.020,-0.013,-21.623,176.942,3.214
15:26:30:955,24.790,0.005,-0.003,-0.005,-21.463,178.125,2.498
15:26:30:982,24.817,0.144,-0.013,-0.011,-21.367,178.957,2.027
15:26:31:009,24.844,0.190,-0.023,-0.025,-21.247,179.861,1.279
15:26:31:036,24.871,-0.020,0.060,-0.100,-21.159,-179.813,0.412
15:26:31:063,24.898,0.054,0.003,-0.122,-21.034,-179.753,-0.252
15:26:31:09,24.925,0.082,-0.014,-0.106,-20.807,-179.257,-1.205
15:26:31:118,24.952,0.017,0.001,-0.066,-20.656,-179.364,-1.809
15:26:31:144,24.979,0.017,0.001,-0.066,-20.656,-179.364,-1.809
15:26:31:172,25.006,0.071,-0.054,-0.059,-20.205,-179.186,-3.452
15:26:31:2,25.035,0.073,-0.021,-0.072,-19.964,-179.377,-4.504
15:26:31:228,25.062,0.073,-0.021,-0.072,-19.964,-179.377,-4.504
15:26:31:254,25.089,0.033,0.010,-0.057,-19.624,-179.848,-6.140
15:26:31:282,25.116,-0.025,0.016,-0.030,-19.396,-179.929,-6.995
15:26:31:309,25.143,0.082,0.005,-0.065,-19.179,-179.633,-7.612
15:26:31:336,25.171,0.106,0.020,-0.065,-18.832,-179.199,-8.664
15:26:31:364,25.198,0.068,0.055,-0.065,-18.503,-178.909,-9.785
15:26:31:391,25.226,0.033,0.002,-0.090,-18.242,-178.777,-10.531
15:26:31:418,25.252,0.060,0.016,-0.052,-17.793,-178.440,-11.663
15:26:31:445,25.279,0.101,0.025,-0.090,-17.462,-178.210,-12.455
15:26:31:472,25.306,0.101,0.025,-0.090,-17.462,-178.210,-12.455
15:26:31:499,25.334,0.048,0.004,-0.092,-16.387,-177.603,-15.009
15:26:31:526,25.361,0.073,0.001,-0.069,-15.958,-177.242,-15.846
15:26:31:554,25.388,0.101,0.082,0.037,-15.295,-176.904,-17.149
15:26:31:581,25.416,0.140,0.079,0.064,-14.793,-176.699,-18.091
15:26:31:609,25.444,0.176,0.124,-0.103,-13.486,-176.455,-20.866
15:26:31:636,25.470,0.221,0.076,-0.098,-12.716,-176.448,-22.759
15:26:31:663,25.498,0.214,0.071,-0.013,-11.927,-176.276,-24.886
15:26:31:69,25.525,0.214,0.071,-0.013,-11.927,-176.276,-24.886
15:26:31:717,25.552,0.397,0.126,0.055,-10.290,-175.084,-29.321
15:26:31:744,25.579,0.531,0.162,0.068,-9.471,-174.268,-31.466
15:26:31:771,25.606,0.437,0.263,0.043,-8.342,-173.204,-35.051
15:26:31:799,25.633,0.335,0.265,0.186,-7.588,-172.916,-38.921
15:26:31:826,25.661,0.202,0.137,0.078,-7.234,-173.067,-41.283
15:26:31:853,25.687,0.109,-0.013,0.119,-6.028,-173.066,-44.143
15:26:31:88,25.715,-0.010,-0.270,0.234,-5.093,-173.065,-45.671
15:26:31:908,25.743,0.255,-0.777,0.094,-4.230,-173.275,-47.084
15:26:31:936,25.771,0.383,-0.832,0.000,-3.587,-173.160,-46.760
15:26:31:963,25.798,0.383,-0.832,0.000,-3.587,-173.160,-46.760
15:26:31:99,25.825,0.322,-0.621,0.012,-3.606,-174.162,-42.370
15:26:32:018,25.852,0.322,-0.621,0.012,-3.606,-174.162,-42.370
15:26:32:044,25.879,0.473,-0.361,0.053,-6.668,-175.920,-35.653
15:26:32:072,25.907,0.344,-0.096,0.021,-8.461,-176.923,-32.178
15:26:32:099,25.934,0.329,0.093,-0.034,-11.036,-178.761,-26.321
15:26:32:126,25.961,0.276,0.310,-0.052,-12.403,-179.842,-22.124
15:26:32:153,25.988,0.179,0.404,-0.093,-13.993,178.646,-15.495
15:26:32:18,26.015,-0.036,0.455,-0.143,-15.136,177.344,-8.464
15:26:32:207,26.042,-0.129,0.449,-0.245,-15.725,176.706,-3.728
15:26:32:234,26.069,-0.129,0.449,-0.245,-15.725,176.706,-3.728
15:26:32:261,26.096,-0.605,0.119,-0.379,-17.862,173.506,12.832
15:26:32:289,26.123,-0.605,0.119,-0.379,-17.862,173.506,12.832
15:26:32:316,26.151,-0.938,-0.241,-0.192,-18.095,171.804,17.024
15:26:32:343,26.177,-0.855,-0.212,-0.159,-18.448,171.664,19.246
15:26:32:37,26.205,-0.746,-0.186,-0.147,-18.516,172.643,18.301
15:26:32:397,26.231,0.021,0.203,-0.042,-18.421,174.423,15.655
15:26:32:424,26.259,1.339,0.299,-0.342,-18.383,175.817,12.981
15:26:32:451,26.286,1.339,0.299,-0.342,-18.383,175.817,12.981
15:26:32:478,26.312,-0.182,0.236,0.031,-17.520,175.190,10.474
15:26:32:505,26.340,-0.441,0.311,-0.138,-17.511,173.878,9.491
15:26:32:532,26.367,-0.441,0.311,-0.138,-17.511,173.878,9.491
15:26:32:56,26.394,-0.012,-0.074,-0.089,-17.573,172.214,5.027
15:26:32:587,26.422,0.030,0.014,-0.157,-17.717,171.649,4.289
15:26:32:615,26.449,0.030,0.014,-0.157,-17.717,171.649,4.289
15:26:32:642,26.477,-0.045,0.055,-0.015,-18.284,169.976,3.436
15:26:32:669,26.504,-0.041,0.028,-0.061,-18.368,169.666,3.128
15:26:32:696,26.531,-0.041,0.028,-0.061,-18.368,169.666,3.128
15:26:32:723,26.558,0.038,0.014,-0.118,-18.237,170.795,2.325
15:26:32:75,26.585,0.038,0.014,-0.118,-18.237,170.795,2.325
15:26:32:777,26.612,-0.004,-0.008,-0.109,-18.319,171.355,1.923
15:26:32:804,26.639,-0.004,-0.008,-0.109,-18.319,171.355,1.923
15:26:32:832,26.666,0.090,0.012,-0.012,-18.611,172.121,0.126
15:26:32:858,26.693,0.037,0.010,0.004,-18.636,172.311,-0.601
15:26:32:886,26.720,0.037,0.010,0.004,-18.636,172.311,-0.601
15:26:32:913,26.747,0.038,-0.009,-0.076,-18.349,172.769,-3.030
15:26:32:942,26.777,0.038,-0.009,-0.076,-18.349,172.769,-3.030
15:26:32:969,26.804,0.074,0.002,-0.022,-18.017,173.394,-5.032
15:26:32:996,26.831,0.049,0.013,-0.093,-17.837,173.660,-5.927
15:26:33:023,26.858,-0.002,0.029,-0.024,-17.230,174.346,-8.752
15:26:33:05,26.885,-0.002,0.029,-0.024,-17.230,174.346,-8.752
15:26:33:077,26.911,0.061,0.049,-0.046,-16.967,174.774,-9.747
15:26:33:104,26.939,0.050,0.051,-0.126,-16.091,175.827,-12.400
15:26:33:131,26.966,0.050,0.051,-0.126,-16.091,175.827,-12.400
15:26:33:158,26.993,0.071,0.065,-0.044,-15.444,176.367,-14.071
15:26:33:185,27.020,0.144,0.105,-0.053,-14.028,177.704,-17.122
15:26:33:212,27.047,0.187,0.168,-0.050,-13.052,178.452,-19.169
15:26:33:24,27.074,0.217,0.178,-0.022,-12.345,179.017,-20.639
15:26:33:267,27.102,0.217,0.178,-0.022,-12.345,179.017,-20.639
15:26:33:294,27.128,0.395,0.242,0.071,-10.387,-179.365,-24.980
15:26:33:321,27.155,0.475,0.179,0.107,-9.062,-178.068,-28.152
15:26:33:348,27.183,0.553,0.151,0.104,-7.622,-176.418,-31.718
15:26:33:375,27.210,0.553,0.151,0.104,-7.622,-176.418,-31.718
15:26:33:402,27.237,0.293,0.177,0.217,-5.620,-174.643,-37.943
15:26:33:43,27.264,0.135,0.079,0.192,-4.913,-174.073,-40.271
15:26:33:457,27.292,0.039,-0.018,0.167,-3.689,-173.160,-43.394
15:26:33:484,27.319,0.039,-0.018,0.167,-3.689,-173.160,-43.394
15:26:33:511,27.346,0.307,-0.781,0.030,-1.351,-171.361,-46.276
15:26:33:539,27.374,0.366,-0.793,-0.147,-0.309,-170.302,-45.777
15:26:33:566,27.401,0.329,-0.693,-0.043,-0.367,-169.995,-44.822
15:26:33:593,27.428,0.330,-0.580,-0.021,-1.831,-170.089,-42.623
15:26:33:621,27.455,0.261,-0.377,-0.003,-3.434,-170.457,-40.608
15:26:33:649,27.483,0.246,-0.167,-0.007,-6.395,-171.486,-36.830
15:26:33:676,27.511,0.155,0.008,-0.067,-9.208,-172.908,-32.295
15:26:33:703,27.537,0.113,0.094,-0.102,-10.549,-173.748,-28.977
15:26:33:73,27.565,0.089,0.167,-0.105,-11.828,-174.693,-23.715
15:26:33:757,27.592,0.055,0.241,-0.056,-12.427,-175.254,-20.046
15:26:33:785,27.619,-0.206,0.273,-0.092,-14.388,-177.544,-8.789
15:26:33:812,27.646,-0.261,0.259,-0.166,-15.140,-178.224,-5.223
15:26:33:839,27.674,-0.327,0.218,-0.236,-16.134,-178.700,-0.298
15:26:33:866,27.701,-0.345,0.177,-0.254,-16.681,-178.809,2.657
15:26:33:893,27.728,-0.375,0.078,-0.193,-17.390,-179.276,6.661
15:26:33:921,27.755,-0.460,0.023,-0.196,-17.812,-179.936,9.000
15:26:33:947,27.782,-0.476,-0.034,-0.179,-18.394,179.239,11.833
15:26:33:974,27.809,-0.537,-0.120,-0.120,-18.877,179.020,13.750
15:26:34:002,27.837,-0.525,-0.121,-0.121,-19.183,179.242,14.489
15:26:34:029,27.864,-0.609,-0.132,-0.154,-19.548,179.863,14.711
15:26:34:057,27.892,-0.609,-0.132,-0.154,-19.548,179.863,14.711
15:26:34:084,27.918,-0.009,-0.025,-0.314,-19.728,-179.134,13.031
15:26:34:111,27.946,0.752,0.239,-0.199,-19.534,-179.986,12.168
15:26:34:138,27.973,-0.126,0.150,-0.074,-19.388,179.079,11.971
15:26:34:165,28.000,-0.272,0.285,-0.239,-18.980,176.358,11.413
15:26:34:192,28.027,-0.272,0.285,-0.239,-18.980,176.358,11.413
15:26:34:219,28.054,-0.272,0.285,-0.239,-18.980,176.358,11.413
15:26:34:246,28.081,-0.272,0.285,-0.239,-18.980,176.358,11.413
15:26:34:274,28.109,-0.072,0.008,-0.039,-19.495,174.920,6.649
15:26:34:302,28.137,-0.072,0.008,-0.039,-19.495,174.920,6.649
15:26:34:329,28.163,0.005,0.039,-0.093,-19.772,174.789,4.892
15:26:34:356,28.191,0.005,0.039,-0.093,-19.772,174.789,4.892
15:26:34:383,28.218,-0.012,0.030,-0.011,-19.846,174.611,3.505
15:26:34:411,28.245,0.038,0.004,-0.026,-19.710,174.895,2.481
15:26:34:437,28.272,0.050,-0.011,-0.081,-19.484,175.481,1.317
15:26:34:465,28.300,-0.028,-0.018,-0.143,-19.359,175.651,0.584
15:26:34:492,28.327,0.049,-0.019,-0.035,-19.192,176.342,-1.177
15:26:34:519,28.354,0.049,-0.019,-0.035,-19.192,176.342,-1.177
15:26:34:546,28.381,0.030,0.021,-0.058,-19.085,176.705,-2.226
15:26:34:574,28.408,0.030,0.021,-0.058,-19.085,176.705,-2.226
15:26:34:6,28.435,0.030,0.021,-0.058,-19.085,176.705,-2.226
15:26:34:629,28.463,-0.009,0.020,-0.081,-18.464,177.728,-5.638
15:26:34:656,28.491,0.065,0.019,-0.030,-18.264,178.279,-6.670
15:26:34:683,28.518,0.049,0.011,-0.029,-18.095,178.616,-7.381
15:26:34:71,28.545,0.049,0.011,-0.029,-18.095,178.616,-7.381
15:26:34:737,28.572,0.093,0.005,-0.024,-17.456,-179.874,-9.704
15:26:34:764,28.599,0.094,0.041,-0.068,-16.596,-178.679,-12.092
15:26:34:791,28.626,0.094,0.041,-0.068,-16.596,-178.679,-12.092
15:26:34:818,28.653,0.094,0.041,-0.068,-16.596,-178.679,-12.092
15:26:34:845,28.680,0.039,0.084,-0.071,-14.819,-177.489,-15.783
15:26:34:873,28.708,0.039,0.084,-0.071,-14.819,-177.489,-15.783
15:26:34:9,28.735,0.131,0.081,-0.058,-13.073,-176.334,-19.166
15:26:34:927,28.762,0.131,0.081,-0.058,-13.073,-176.334,-19.166
15:26:34:955,28.790,0.205,0.161,0.019,-11.386,-175.372,-22.197
15:26:34:982,28.817,0.293,0.128,-0.018,-10.604,-174.938,-23.585
15:26:35:009,28.844,0.342,0.220,0.017,-9.331,-174.119,-26.047
15:26:35:04,28.875,0.532,0.164,0.053,-7.769,-172.638,-28.956
15:26:35:067,28.902,0.522,0.092,0.039,-6.636,-171.472,-31.077
15:26:35:094,28.929,0.305,0.225,0.038,-5.241,-170.305,-34.490
15:26:35:121,28.956,0.305,0.225,0.038,-5.241,-170.305,-34.490
15:26:35:148,28.983,0.305,0.225,0.038,-5.241,-170.305,-34.490
15:26:35:176,29.010,0.044,0.036,0.104,-2.507,-168.467,-43.259
15:26:35:203,29.038,0.044,0.036,0.104,-2.507,-168.467,-43.259
15:26:35:231,29.065,0.044,0.036,0.104,-2.507,-168.467,-43.259
15:26:35:257,29.092,0.044,0.036,0.104,-2.507,-168.467,-43.259
15:26:35:285,29.119,0.149,-0.501,-0.074,0.665,-166.556,-46.334
15:26:35:312,29.146,0.149,-0.501,-0.074,0.665,-166.556,-46.334
15:26:35:34,29.174,0.076,-0.059,-0.082,-3.609,-167.414,-42.477
15:26:35:367,29.201,-0.023,0.046,-0.123,-5.243,-167.991,-41.134
15:26:35:393,29.228,-0.067,0.094,-0.078,-6.763,-168.875,-39.068
15:26:35:421,29.255,0.043,0.037,-0.046,-7.357,-169.187,-37.651
15:26:35:448,29.282,0.028,-0.010,-0.006,-7.914,-169.993,-35.414
15:26:35:475,29.310,0.044,-0.044,0.000,-8.309,-170.381,-33.917
15:26:35:502,29.337,0.044,-0.044,0.000,-8.309,-170.381,-33.917
15:26:35:529,29.364,0.210,-0.139,-0.053,-9.591,-171.146,-28.852
15:26:35:556,29.391,0.210,-0.139,-0.053,-9.591,-171.146,-28.852
15:26:35:584,29.418,0.210,-0.139,-0.053,-9.591,-171.146,-28.852
15:26:35:61,29.445,0.108,-0.047,-0.030,-11.733,-172.598,-21.338
15:26:35:638,29.472,0.108,-0.047,-0.030,-11.733,-172.598,-21.338
15:26:35:664,29.499,0.051,0.010,-0.109,-13.811,-174.659,-13.321
15:26:35:692,29.526,0.043,0.018,-0.145,-14.418,-175.260,-10.433
15:26:35:719,29.553,-0.108,0.125,-0.254,-15.283,-176.083,-6.014
15:26:35:746,29.580,-0.279,0.185,-0.232,-15.691,-176.746,-3.029
15:26:35:773,29.608,-0.434,0.197,-0.186,-16.049,-178.220,1.235
15:26:35:8,29.634,-0.568,0.082,-0.148,-16.151,179.570,5.000
15:26:35:827,29.662,-0.570,0.114,-0.175,-16.253,178.161,7.050
15:26:35:854,29.688,-0.557,0.030,-0.154,-16.365,176.675,9.158
15:26:35:881,29.716,-0.557,0.030,-0.154,-16.365,176.675,9.158
15:26:35:908,29.743,-0.630,-0.096,-0.052,-16.135,175.253,9.862
15:26:35:936,29.770,-0.218,0.029,0.229,-16.223,175.541,9.209
15:26:35:962,29.797,-0.241,0.090,-0.399,-16.624,175.298,6.577
15:26:35:99,29.824,-0.241,0.090,-0.399,-16.624,175.298,6.577
15:26:36:016,29.851,-0.254,-0.106,-0.345,-16.056,173.809,5.391
15:26:36:044,29.878,-0.053,0.021,0.118,-16.343,172.601,3.070
15:26:36:071,29.905,-0.053,0.021,0.118,-16.343,172.601,3.070
15:26:36:097,29.932,-0.107,0.049,-0.009,-17.037,170.215,1.506
15:26:36:125,29.959,0.144,0.082,-0.069,-16.911,170.883,0.947
15:26:36:151,29.986,0.144,0.082,-0.069,-16.911,170.883,0.947
15:26:36:179,30.014,-0.104,0.018,-0.035,-16.566,169.239,0.185
15:26:36:206,30.041,0.039,0.010,-0.039,-16.391,168.351,-0.213
15:26:36:233,30.068,0.039,0.010,-0.039,-16.391,168.351,-0.213
15:26:36:261,30.095,0.039,0.010,-0.039,-16.391,168.351,-0.213
15:26:36:287,30.122,0.023,-0.023,-0.094,-15.973,167.309,-2.439
15:26:36:315,30.149,0.023,-0.023,-0.094,-15.973,167.309,-2.439
15:26:36:342,30.177,0.039,0.007,-0.050,-15.858,167.343,-4.180
15:26:36:37,30.205,0.012,0.017,-0.070,-15.830,167.493,-4.862
15:26:36:397,30.231,0.040,-0.018,-0.046,-15.738,167.471,-5.821
15:26:36:424,30.259,0.009,0.025,-0.044,-15.533,167.590,-6.727
15:26:36:451,30.285,0.045,0.027,-0.055,-15.406,167.404,-7.381
15:26:36:478,30.313,0.045,0.031,-0.063,-15.186,167.723,-8.429
15:26:36:506,30.341,0.064,-0.004,-0.031,-14.990,167.669,-9.165
15:26:36:533,30.367,0.064,-0.004,-0.031,-14.990,167.669,-9.165
15:26:36:56,30.395,0.064,-0.004,-0.031,-14.990,167.669,-9.165
15:26:36:588,30.422,0.064,-0.004,-0.031,-14.990,167.669,-9.165
15:26:36:615,30.449,0.064,-0.004,-0.031,-14.990,167.669,-9.165
15:26:36:641,30.476,0.057,0.057,-0.062,-13.510,167.492,-13.773
15:26:36:669,30.503,0.079,0.059,0.029,-12.604,167.827,-16.056
15:26:36:696,30.531,0.079,0.059,0.029,-12.604,167.827,-16.056
15:26:36:723,30.558,0.254,0.155,-0.018,-10.631,168.241,-20.945
15:26:36:75,30.585,0.254,0.155,-0.018,-10.631,168.241,-20.945
15:26:36:777,30.612,0.254,0.139,0.056,-10.068,168.329,-22.366
15:26:36:805,30.639,0.218,0.138,0.164,-9.152,168.923,-24.762
15:26:36:831,30.666,0.218,0.138,0.164,-9.152,168.923,-24.762
15:26:36:859,30.693,0.218,0.138,0.164,-9.152,168.923,-24.762
15:26:36:885,30.720,0.253,0.230,0.235,-3.572,177.330,-35.327
15:26:36:913,30.747,0.175,0.096,0.230,-1.697,-179.937,-38.742
15:26:36:94,30.774,0.175,0.096,0.230,-1.697,-179.937,-38.742
15:26:36:967,30.801,0.175,0.096,0.230,-1.697,-179.937,-38.742
15:26:36:994,30.828,0.175,0.096,0.230,-1.697,-179.937,-38.742
15:26:37:021,30.856,0.347,-0.719,-0.005,2.698,-174.105,-44.663
15:26:37:048,30.883,0.357,-0.695,-0.147,3.651,-170.222,-43.587
15:26:37:075,30.910,0.357,-0.695,-0.147,3.651,-170.222,-43.587
15:26:37:102,30.936,0.368,-0.245,-0.168,-3.634,-169.903,-37.610
15:26:37:129,30.964,0.319,-0.130,-0.204,-7.068,-170.477,-33.472
15:26:37:157,30.992,0.311,-0.053,-0.203,-9.501,-170.723,-28.502
15:26:37:184,31.018,0.301,0.007,-0.181,-10.714,-170.516,-24.797
15:26:37:211,31.046,0.301,0.007,-0.181,-10.714,-170.516,-24.797
15:26:37:238,31.073,0.301,0.007,-0.181,-10.714,-170.516,-24.797
15:26:37:266,31.101,-0.369,0.537,-0.349,-15.571,-169.352,-7.811
15:26:37:293,31.128,-0.628,0.449,-0.427,-17.181,-168.814,-1.803
15:26:37:321,31.155,-0.726,0.293,-0.294,-17.824,-167.933,1.456
15:26:37:348,31.183,-0.863,0.026,-0.104,-18.480,-166.741,5.000
15:26:37:376,31.210,-1.011,-0.203,-0.076,-18.872,-166.105,6.462
15:26:37:403,31.238,-1.011,-0.203,-0.076,-18.872,-166.105,6.462
15:26:37:43,31.265,-0.446,0.011,0.078,-19.470,-164.213,6.608
15:26:37:458,31.292,-0.446,0.011,0.078,-19.470,-164.213,6.608
15:26:37:484,31.319,-0.916,0.410,0.041,-18.913,-165.506,4.130
15:26:37:513,31.347,-0.301,0.132,-0.490,-18.730,-167.726,2.858
15:26:37:54,31.375,-0.301,0.132,-0.490,-18.730,-167.726,2.858
15:26:37:567,31.402,-0.301,0.132,-0.490,-18.730,-167.726,2.858
15:26:37:594,31.429,0.129,-0.014,0.027,-18.390,-166.338,-1.401
15:26:37:621,31.456,-0.034,0.060,-0.082,-18.440,-166.135,-2.338
15:26:37:649,31.483,-0.034,0.060,-0.082,-18.440,-166.135,-2.338
15:26:37:676,31.511,-0.034,0.060,-0.082,-18.440,-166.135,-2.338
15:26:37:704,31.538,-0.008,0.001,-0.056,-18.350,-166.598,-3.116
15:26:37:731,31.566,-0.008,0.001,-0.056,-18.350,-166.598,-3.116
15:26:37:758,31.593,0.182,-0.009,-0.061,-18.376,-165.549,-3.458
15:26:37:785,31.620,0.083,0.021,-0.126,-18.324,-164.587,-4.178
15:26:37:813,31.647,0.083,0.021,-0.126,-18.324,-164.587,-4.178
15:26:37:84,31.675,0.083,0.021,-0.126,-18.324,-164.587,-4.178
15:26:37:867,31.702,0.028,0.014,-0.032,-18.111,-164.227,-6.464
15:26:37:894,31.729,-0.038,0.039,-0.113,-17.973,-163.717,-7.529
15:26:37:921,31.756,-0.038,0.039,-0.113,-17.973,-163.717,-7.529
15:26:37:949,31.784,-0.038,0.039,-0.113,-17.973,-163.717,-7.529
15:26:37:976,31.811,0.120,0.012,-0.056,-17.557,-162.542,-10.186
15:26:38:003,31.838,-0.003,0.043,-0.105,-17.408,-161.858,-10.942
15:26:38:03,31.865,0.021,-0.005,-0.103,-17.185,-161.445,-12.084
15:26:38:058,31.892,0.025,0.014,-0.005,-17.043,-160.678,-12.821
15:26:38:085,31.919,0.101,0.037,-0.020,-16.665,-160.110,-14.109
15:26:38:112,31.946,0.013,0.067,-0.145,-16.206,-158.931,-15.656
15:26:38:139,31.974,0.013,0.067,-0.145,-16.206,-158.931,-15.656
15:26:38:166,32.001,0.032,0.085,-0.072,-15.412,-157.506,-18.155
15:26:38:193,32.028,0.097,0.093,-0.021,-15.012,-156.986,-19.128
15:26:38:22,32.055,0.097,0.093,-0.021,-15.012,-156.986,-19.128
15:26:38:248,32.082,0.097,0.093,-0.021,-15.012,-156.986,-19.128
15:26:38:274,32.109,0.284,0.149,-0.183,-12.564,-153.425,-23.950
15:26:38:302,32.136,0.405,0.221,-0.156,-10.831,-150.786,-28.240
15:26:38:329,32.164,0.405,0.221,-0.156,-10.831,-150.786,-28.240
15:26:38:356,32.190,0.405,0.221,-0.156,-10.831,-150.786,-28.240
15:26:38:383,32.218,0.439,0.229,0.004,-6.499,-142.962,-37.063
15:26:38:41,32.245,0.408,0.076,-0.019,-4.902,-140.175,-40.782
15:26:38:437,32.272,0.273,0.125,0.130,-3.826,-138.613,-43.051
15:26:38:464,32.299,0.230,-0.029,0.029,-1.935,-135.708,-46.073
15:26:38:491,32.326,0.230,-0.029,0.029,-1.935,-135.708,-46.073
15:26:38:519,32.353,0.230,-0.029,0.029,-1.935,-135.708,-46.073
15:26:38:545,32.380,0.259,-0.756,-0.232,1.530,-130.972,-48.572
15:26:38:573,32.407,0.156,-0.731,-0.391,2.568,-127.141,-46.771
15:26:38:6,32.435,0.155,-0.539,-0.344,0.542,-125.561,-44.528
15:26:38:627,32.461,0.129,-0.367,-0.334,-1.565,-125.201,-42.603
15:26:38:654,32.488,0.091,-0.241,-0.327,-5.186,-124.996,-39.028
15:26:38:681,32.516,0.091,-0.241,-0.327,-5.186,-124.996,-39.028
15:26:38:708,32.543,-0.007,-0.012,-0.377,-9.494,-124.503,-31.312
15:26:38:735,32.570,-0.043,0.020,-0.351,-10.722,-123.805,-25.959
15:26:38:762,32.596,-0.036,0.067,-0.292,-11.388,-123.273,-22.103
15:26:38:789,32.624,-0.064,0.185,-0.237,-12.560,-122.664,-15.960
15:26:38:816,32.651,-0.064,0.185,-0.237,-12.560,-122.664,-15.960
15:26:38:843,32.678,-0.064,0.185,-0.237,-12.560,-122.664,-15.960
15:26:38:87,32.705,-0.568,0.388,0.073,-15.995,-121.868,0.403
15:26:38:898,32.733,-0.532,0.252,0.304,-16.349,-121.300,3.763
15:26:38:925,32.760,-0.552,0.042,0.555,-16.765,-121.013,7.796
15:26:38:952,32.787,-0.654,-0.096,0.666,-17.126,-120.948,9.646
15:26:38:98,32.815,-0.482,-0.042,0.535,-17.622,-119.694,10.495
15:26:39:007,32.842,-0.482,-0.042,0.535,-17.622,-119.694,10.495
15:26:39:034,32.869,-0.039,0.159,-0.626,-17.287,-118.962,7.546
15:26:39:061,32.896,-0.039,0.159,-0.626,-17.287,-118.962,7.546
15:26:39:089,32.923,-0.064,0.115,0.293,-16.826,-119.786,6.789
15:26:39:116,32.950,-0.203,-0.008,0.180,-16.774,-121.740,3.979
15:26:39:143,32.978,-0.203,-0.008,0.180,-16.774,-121.740,3.979
15:26:39:17,33.005,-0.100,-0.005,0.167,-16.804,-121.927,2.467
15:26:39:197,33.031,-0.100,-0.005,0.167,-16.804,-121.927,2.467
15:26:39:224,33.059,0.016,0.035,-0.007,-17.489,-120.143,-0.561
15:26:39:251,33.086,0.016,0.035,-0.007,-17.489,-120.143,-0.561
15:26:39:279,33.114,0.016,0.035,-0.007,-17.489,-120.143,-0.561
15:26:39:307,33.141,0.009,0.016,-0.124,-17.580,-117.954,-1.519
15:26:39:333,33.168,0.009,0.016,-0.124,-17.580,-117.954,-1.519
15:26:39:361,33.195,-0.020,0.012,-0.001,-17.555,-115.871,-2.121
15:26:39:387,33.222,0.054,0.007,-0.124,-17.361,-111.367,-3.128
15:26:39:416,33.250,0.038,0.016,-0.127,-17.308,-110.738,-3.663
15:26:39:443,33.277,0.003,0.016,-0.060,-17.188,-109.122,-4.597
15:26:39:47,33.304,-0.053,0.044,-0.039,-17.048,-108.413,-5.567
15:26:39:497,33.331,-0.053,0.044,-0.039,-17.048,-108.413,-5.567
15:26:39:524,33.358,0.059,0.013,-0.082,-16.741,-106.267,-7.079
15:26:39:551,33.386,0.036,0.024,-0.058,-16.636,-104.927,-7.694
15:26:39:578,33.413,0.036,0.024,-0.058,-16.636,-104.927,-7.694
15:26:39:605,33.440,0.036,0.024,-0.058,-16.636,-104.927,-7.694
15:26:39:633,33.468,0.034,-0.014,-0.105,-15.915,-101.865,-10.031
15:26:39:66,33.495,0.080,0.003,-0.166,-15.542,-100.274,-10.986
15:26:39:687,33.521,0.068,-0.011,-0.088,-15.284,-99.942,-11.679
15:26:39:714,33.549,0.068,-0.011,-0.088,-15.284,-99.942,-11.679
15:26:39:741,33.576,-0.057,0.020,-0.019,-14.920,-99.084,-12.732
15:26:39:769,33.603,0.087,0.022,-0.179,-14.061,-97.554,-14.674
15:26:39:796,33.631,0.151,0.019,-0.062,-13.548,-97.306,-16.003
15:26:39:823,33.658,-0.116,0.075,-0.064,-12.867,-96.862,-18.433
15:26:39:851,33.686,-0.116,0.075,-0.064,-12.867,-96.862,-18.433
15:26:39:878,33.713,-0.075,0.064,-0.176,-12.416,-96.190,-19.415
15:26:39:905,33.739,-0.075,0.064,-0.176,-12.416,-96.190,-19.415
15:26:39:933,33.768,0.075,0.144,-0.218,-11.015,-94.446,-22.746
15:26:39:96,33.795,0.061,0.115,-0.257,-10.435,-93.965,-23.988
15:26:39:988,33.822,0.091,0.139,-0.452,-8.886,-92.386,-27.861
15:26:40:015,33.850,0.157,0.176,-0.478,-7.872,-91.347,-30.806
15:26:40:042,33.877,0.169,0.153,-0.491,-7.082,-90.385,-32.963
15:26:40:069,33.904,0.175,0.245,-0.374,-5.475,-88.181,-36.424
15:26:40:098,33.932,0.258,0.234,-0.418,-4.021,-86.271,-40.193
15:26:40:125,33.960,0.258,0.234,-0.418,-4.021,-86.271,-40.193
15:26:40:152,33.987,0.094,0.003,-0.225,-0.976,-83.302,-45.851
15:26:40:179,34.014,0.094,0.003,-0.225,-0.976,-83.302,-45.851
15:26:40:207,34.041,0.094,0.003,-0.225,-0.976,-83.302,-45.851
15:26:40:234,34.069,0.009,-0.719,-0.266,3.517,-79.237,-50.142
15:26:40:261,34.096,-0.082,-0.785,-0.276,3.738,-78.178,-49.481
15:26:40:289,34.124,-0.082,-0.785,-0.276,3.738,-78.178,-49.481
15:26:40:316,34.150,-0.056,-0.461,-0.233,2.913,-76.716,-45.845
15:26:40:343,34.178,-0.033,-0.335,-0.275,1.165,-76.339,-42.899
15:26:40:371,34.206,-0.107,-0.206,-0.308,-0.558,-76.410,-40.574
15:26:40:398,34.233,-0.107,-0.206,-0.308,-0.558,-76.410,-40.574
15:26:40:426,34.260,-0.148,0.047,-0.080,-5.809,-77.664,-32.109
15:26:40:453,34.288,-0.148,0.047,-0.080,-5.809,-77.664,-32.109
15:26:40:48,34.314,-0.050,0.012,-0.083,-8.226,-78.056,-23.912
15:26:40:507,34.342,-0.132,0.307,0.144,-10.328,-77.824,-14.856
15:26:40:534,34.369,-0.132,0.307,0.144,-10.328,-77.824,-14.856
15:26:40:561,34.396,-0.132,0.307,0.144,-10.328,-77.824,-14.856
15:26:40:589,34.424,-0.132,0.307,0.144,-10.328,-77.824,-14.856
15:26:40:617,34.451,-0.133,0.184,0.383,-12.749,-76.853,-2.078
15:26:40:644,34.479,-0.113,0.102,0.475,-13.740,-77.477,3.404
15:26:40:671,34.505,-0.079,0.023,0.511,-14.074,-77.433,4.931
15:26:40:698,34.533,-0.026,-0.041,0.539,-14.328,-77.563,6.507
15:26:40:725,34.560,-0.026,-0.041,0.539,-14.328,-77.563,6.507
15:26:40:752,34.586,0.018,-0.064,0.465,-14.385,-77.308,7.344
15:26:40:78,34.614,0.159,0.003,0.111,-14.388,-77.250,6.871
15:26:40:807,34.642,-0.113,0.081,-0.624,-14.428,-77.306,6.503
15:26:40:834,34.669,0.125,0.146,0.159,-14.542,-76.829,6.452
15:26:40:861,34.696,-0.200,0.153,-0.158,-14.588,-78.059,5.903
15:26:40:888,34.723,-0.200,0.153,-0.158,-14.588,-78.059,5.903
15:26:40:916,34.750,-0.054,0.028,0.123,-14.712,-80.018,4.551
15:26:40:942,34.777,-0.054,0.028,0.123,-14.712,-80.018,4.551
15:26:40:97,34.804,0.125,-0.042,0.006,-15.177,-79.977,2.639
15:26:40:997,34.832,0.125,-0.042,0.006,-15.177,-79.977,2.639
15:26:41:024,34.859,-0.056,0.035,-0.019,-15.379,-79.437,0.951
15:26:41:051,34.886,0.020,0.062,0.022,-15.512,-79.729,0.104
15:26:41:078,34.913,0.110,0.016,-0.064,-15.561,-79.601,-0.471
15:26:41:105,34.940,0.110,0.016,-0.064,-15.561,-79.601,-0.471
15:26:41:132,34.967,-0.070,0.007,-0.097,-15.104,-77.678,-2.482
15:26:41:159,34.994,-0.054,-0.010,-0.109,-14.919,-77.116,-3.194
15:26:41:187,35.021,-0.054,-0.010,-0.109,-14.919,-77.116,-3.194
15:26:41:213,35.048,-0.054,-0.010,-0.109,-14.919,-77.116,-3.194
15:26:41:241,35.076,-0.007,0.001,-0.095,-14.398,-75.568,-5.778
15:26:41:268,35.103,-0.007,0.001,-0.095,-14.398,-75.568,-5.778
15:26:41:296,35.131,-0.007,0.001,-0.095,-14.398,-75.568,-5.778
15:26:41:323,35.158,-0.016,0.018,-0.064,-13.847,-74.689,-8.210
15:26:41:35,35.185,0.007,0.000,-0.063,-13.582,-74.148,-8.914
15:26:41:377,35.212,-0.029,0.014,-0.158,-13.168,-73.471,-9.968
15:26:41:405,35.240,-0.029,0.014,-0.158,-13.168,-73.471,-9.968
15:26:41:432,35.266,-0.044,0.053,-0.107,-11.590,-71.969,-13.698
15:26:41:459,35.294,-0.044,0.053,-0.107,-11.590,-71.969,-13.698
15:26:41:487,35.321,-0.033,0.105,-0.119,-9.518,-71.393,-17.823
15:26:41:514,35.348,0.016,0.110,-0.128,-8.528,-71.059,-19.664
15:26:41:541,35.375,0.016,0.110,-0.128,-8.528,-71.059,-19.664
15:26:41:568,35.402,0.047,0.114,-0.169,-7.829,-70.850,-20.886
15:26:41:595,35.430,0.019,0.105,-0.347,-5.355,-69.890,-24.744
15:26:41:622,35.457,0.019,0.105,-0.347,-5.355,-69.890,-24.744
15:26:41:65,35.485,0.115,0.167,-0.583,-2.953,-69.016,-28.996
15:26:41:677,35.512,0.241,0.303,-0.836,-1.941,-68.399,-31.127
15:26:41:704,35.539,0.279,0.361,-0.751,0.023,-66.642,-35.216
15:26:41:731,35.566,0.279,0.361,-0.751,0.023,-66.642,-35.216
15:26:41:758,35.593,0.327,0.313,-0.743,2.862,-64.110,-43.526
15:26:41:786,35.621,0.000,-0.195,-0.736,5.349,-61.849,-47.638
15:26:41:813,35.648,0.089,-0.577,-0.456,7.286,-60.471,-49.523
15:26:41:841,35.675,-0.259,-0.972,-0.369,8.475,-57.650,-50.696
15:26:41:868,35.703,-0.259,-0.972,-0.369,8.475,-57.650,-50.696
15:26:41:895,35.729,-0.132,-0.908,-0.326,6.226,-56.591,-49.317
15:26:41:922,35.757,-0.231,-0.736,-0.353,2.232,-55.760,-46.538
15:26:41:949,35.784,-0.257,-0.647,-0.426,-0.928,-55.360,-43.898
15:26:41:977,35.811,-0.364,-0.240,-0.346,-8.494,-54.937,-34.773
15:26:42:004,35.839,-0.478,-0.011,-0.345,-11.903,-54.912,-27.606
15:26:42:031,35.866,-0.478,-0.011,-0.345,-11.903,-54.912,-27.606
15:26:42:058,35.892,-0.481,0.503,-0.029,-16.490,-55.877,-13.563
15:26:42:085,35.920,0.004,0.913,0.717,-18.868,-57.374,-4.189
15:26:42:112,35.947,0.004,0.913,0.717,-18.868,-57.374,-4.189
15:26:42:14,35.974,0.065,0.348,1.413,-21.750,-55.911,8.655
15:26:42:167,36.002,0.727,-0.339,1.641,-22.391,-54.068,11.640
15:26:42:194,36.029,0.680,-0.527,1.754,-22.854,-52.520,13.788
15:26:42:222,36.056,0.680,-0.527,1.754,-22.854,-52.520,13.788
15:26:42:248,36.083,0.680,-0.527,1.754,-22.854,-52.520,13.788
15:26:42:276,36.110,-0.295,-0.034,0.397,-21.151,-52.537,8.814
15:26:42:303,36.137,0.864,0.477,0.684,-20.251,-55.488,7.656
15:26:42:33,36.164,0.197,-0.326,0.297,-19.706,-57.571,4.553
15:26:42:357,36.192,0.117,0.232,0.372,-19.459,-57.607,1.772
15:26:42:384,36.219,0.117,0.232,0.372,-19.459,-57.607,1.772
15:26:42:411,36.246,0.117,0.232,0.372,-19.459,-57.607,1.772
15:26:42:438,36.273,-0.013,-0.023,0.010,-18.718,-53.743,-2.947
15:26:42:466,36.300,0.061,0.031,0.071,-18.671,-52.928,-4.089
15:26:42:493,36.328,0.043,-0.015,-0.032,-18.561,-51.714,-5.071
15:26:42:52,36.355,0.043,-0.015,-0.032,-18.561,-51.714,-5.071
15:26:42:548,36.383,-0.025,0.018,-0.061,-18.223,-49.649,-6.636
15:26:42:576,36.411,-0.070,-0.006,-0.112,-18.059,-49.011,-7.333
15:26:42:603,36.438,-0.037,-0.010,-0.086,-17.875,-48.454,-8.046
15:26:42:63,36.465,-0.021,-0.005,-0.017,-17.748,-48.243,-8.746
15:26:42:658,36.493,-0.021,-0.005,-0.017,-17.748,-48.243,-8.746
15:26:42:685,36.520,-0.054,0.042,-0.126,-17.074,-45.740,-13.050
15:26:42:712,36.547,-0.054,0.042,-0.126,-17.074,-45.740,-13.050
15:26:42:739,36.574,-0.076,0.150,-0.113,-16.339,-43.484,-16.453
15:26:42:767,36.602,-0.076,0.150,-0.113,-16.339,-43.484,-16.453
15:26:42:794,36.629,-0.115,0.186,-0.142,-15.827,-42.050,-18.964
15:26:42:821,36.656,-0.244,0.171,-0.197,-14.695,-39.400,-23.708
15:26:42:848,36.683,-0.244,0.171,-0.197,-14.695,-39.400,-23.708
15:26:42:876,36.710,-0.244,0.171,-0.197,-14.695,-39.400,-23.708
15:26:42:904,36.738,-0.479,0.241,-0.686,-11.671,-33.853,-33.627
15:26:42:931,36.766,-0.691,0.405,-0.851,-10.377,-31.683,-36.712
15:26:42:958,36.792,-0.411,0.639,-0.944,-7.170,-27.246,-41.942
15:26:42:985,36.820,-0.773,0.261,-1.110,-3.763,-23.444,-48.003
15:26:43:012,36.846,-0.773,0.261,-1.110,-3.763,-23.444,-48.003
15:26:43:039,36.874,-0.043,-0.556,-0.274,2.702,-19.365,-55.789
15:26:43:066,36.901,-0.074,-0.678,-0.561,5.414,-17.459,-57.255
15:26:43:093,36.928,-0.074,-0.678,-0.561,5.414,-17.459,-57.255
15:26:43:12,36.955,-0.566,-1.140,0.123,9.557,-11.011,-54.273
15:26:43:147,36.982,-0.558,-0.788,0.145,6.535,-9.567,-51.976
15:26:43:175,37.009,-0.605,-0.699,0.170,0.871,-7.951,-47.530
15:26:43:202,37.037,-0.709,-0.533,0.130,-3.308,-7.431,-43.854
15:26:43:229,37.064,-0.708,-0.316,0.181,-9.238,-7.591,-36.964
15:26:43:256,37.091,-0.516,0.025,0.328,-13.574,-8.610,-28.408
15:26:43:283,37.118,-0.490,0.193,0.417,-15.480,-9.198,-21.963
15:26:43:311,37.145,-0.490,0.193,0.417,-15.480,-9.198,-21.963
15:26:43:338,37.173,0.806,1.369,0.861,-18.438,-9.839,-3.973
15:26:43:365,37.200,0.806,1.369,0.861,-18.438,-9.839,-3.973
15:26:43:392,37.227,0.806,1.369,0.861,-18.438,-9.839,-3.973
15:26:43:42,37.255,2.878,-1.088,0.642,-19.538,-10.368,18.337
15:26:43:447,37.282,2.878,-1.088,0.642,-19.538,-10.368,18.337
15:26:43:475,37.309,-0.856,0.257,0.701,-18.762,-10.202,14.010
15:26:43:501,37.336,1.053,0.209,-0.218,-17.735,-8.518,12.351
15:26:43:529,37.363,0.506,0.602,0.567,-17.460,-9.903,8.402
15:26:43:555,37.390,0.313,-0.146,-0.004,-17.028,-9.891,5.140
15:26:43:582,37.417,0.538,0.180,0.127,-17.067,-9.463,3.376
15:26:43:61,37.444,-0.056,-0.031,-0.018,-16.651,-7.455,1.158
15:26:43:636,37.471,-0.056,-0.031,-0.018,-16.651,-7.455,1.158
15:26:43:664,37.498,0.122,-0.023,-0.049,-16.080,-6.396,-0.909
15:26:43:691,37.526,0.095,0.002,-0.026,-15.921,-6.081,-1.456
15:26:43:719,37.553,-0.002,0.005,-0.062,-15.618,-5.071,-2.165
15:26:43:745,37.580,-0.167,0.045,-0.058,-14.979,-3.516,-3.537
15:26:43:773,37.607,-0.018,-0.017,-0.033,-14.535,-3.178,-4.467
15:26:43:8,37.635,-0.027,-0.008,-0.067,-14.231,-3.197,-5.123
15:26:43:827,37.661,-0.027,-0.008,-0.067,-14.231,-3.197,-5.123
15:26:43:854,37.688,-0.112,0.048,0.024,-13.251,-2.987,-7.770
15:26:43:881,37.716,-0.112,0.048,0.024,-13.251,-2.987,-7.770
15:26:43:908,37.742,-0.087,0.104,0.039,-12.433,-2.449,-10.964
15:26:43:935,37.770,-0.174,0.155,0.069,-12.032,-1.964,-12.504
15:26:43:962,37.797,-0.221,0.146,0.026,-11.331,-1.709,-15.071
15:26:43:989,37.824,-0.156,0.170,-0.042,-10.587,-1.146,-17.925
15:26:44:017,37.852,-0.205,0.178,-0.054,-9.998,-1.302,-19.953
15:26:44:044,37.878,-0.338,0.136,-0.135,-8.919,-0.422,-23.197
15:26:44:071,37.906,-0.386,0.150,-0.167,-8.082,-0.321,-25.563
15:26:44:099,37.933,-0.597,0.262,-0.369,-6.616,1.128,-29.493
15:26:44:126,37.961,-0.991,0.338,-0.473,-5.384,2.646,-32.331
15:26:44:153,37.988,-0.915,0.415,-0.535,1.730,8.877,-42.065
15:26:44:18,38.015,-0.915,0.415,-0.535,1.730,8.877,-42.065
15:26:44:207,38.042,-0.932,0.190,-0.608,3.901,9.945,-45.578
15:26:44:235,38.069,-0.539,-0.887,-0.135,8.798,11.677,-51.953
15:26:44:262,38.097,-0.604,-1.107,0.312,11.417,13.827,-52.665
15:26:44:289,38.124,-0.334,-0.994,0.228,11.806,14.885,-51.317
15:26:44:316,38.151,-0.309,-0.891,0.159,9.856,15.151,-49.740
15:26:44:343,38.178,-0.334,-0.832,0.117,5.347,15.275,-46.284
15:26:44:37,38.205,-0.392,-0.671,0.071,1.716,14.991,-43.203
15:26:44:397,38.232,-0.436,-0.473,0.082,-3.900,13.967,-37.351
15:26:44:425,38.259,-0.362,-0.158,0.127,-7.235,12.871,-32.585
15:26:44:453,38.287,-0.330,0.001,0.189,-11.055,10.930,-24.233
15:26:44:479,38.314,-0.194,0.442,0.306,-13.671,9.008,-14.715
15:26:44:509,38.344,0.306,0.890,0.248,-14.886,7.703,-7.743
15:26:44:536,38.371,1.149,1.299,0.198,-16.211,6.174,3.028
15:26:44:563,38.398,1.385,0.960,0.255,-16.895,5.705,9.658
15:26:44:591,38.425,1.764,0.063,-0.174,-17.602,4.764,17.592
15:26:44:617,38.452,1.764,0.063,-0.174,-17.602,4.764,17.592
15:26:44:645,38.479,1.634,-0.404,0.224,-18.964,5.039,21.966
15:26:44:672,38.507,0.824,-0.021,-0.158,-18.261,5.961,18.943
15:26:44:699,38.533,-0.979,0.590,0.871,-17.652,5.025,16.690
15:26:44:726,38.561,0.802,0.095,-0.112,-16.618,5.128,14.392
15:26:44:753,38.588,0.787,0.234,-0.303,-15.641,2.953,12.403
15:26:44:78,38.615,0.602,0.065,-0.147,-15.698,1.733,9.160
15:26:44:808,38.643,0.363,-0.022,-0.167,-15.837,1.171,6.607
15:26:44:835,38.670,0.242,0.105,0.036,-15.907,1.936,5.309
15:26:44:862,38.697,0.012,0.004,-0.015,-15.619,4.695,2.905
15:26:44:889,38.724,0.012,0.004,-0.015,-15.619,4.695,2.905
15:26:44:917,38.751,0.012,0.004,-0.015,-15.619,4.695,2.905
15:26:44:944,38.779,-0.027,-0.018,-0.006,-15.185,7.274,0.301
15:26:44:971,38.806,-0.027,-0.018,-0.006,-15.185,7.274,0.301
15:26:44:998,38.832,-0.112,-0.014,0.064,-14.822,8.773,-0.816
15:26:45:026,38.860,0.090,0.001,-0.054,-14.399,9.694,-3.116
15:26:45:053,38.887,0.082,0.009,0.028,-14.162,9.948,-4.015
15:26:45:08,38.914,0.028,0.024,0.029,-13.820,10.464,-5.218
15:26:45:107,38.942,-0.014,0.074,-0.059,-13.580,11.084,-6.302
15:26:45:134,38.968,-0.003,0.062,-0.036,-13.394,11.487,-7.025
15:26:45:161,38.996,-0.170,-0.010,0.036,-12.971,12.688,-8.145
15:26:45:188,39.023,-0.141,0.112,0.003,-12.639,13.378,-9.110
15:26:45:215,39.050,-0.188,0.154,-0.036,-11.977,14.309,-10.974
15:26:45:243,39.077,-0.247,0.129,-0.026,-10.908,14.846,-13.199
15:26:45:27,39.104,-0.201,0.164,0.032,-10.166,15.079,-14.930
15:26:45:297,39.131,-0.167,0.252,0.022,-9.098,14.937,-17.870
15:26:45:324,39.158,-0.183,0.259,0.030,-8.335,15.107,-19.946
15:26:45:352,39.187,-0.431,0.184,-0.006,-6.976,15.530,-23.161
15:26:45:379,39.214,-0.569,0.278,-0.162,-6.006,15.974,-25.461
15:26:45:406,39.241,-1.031,0.224,-0.151,-4.191,17.336,-29.344
15:26:45:433,39.268,-1.014,0.442,-0.011,-1.530,19.736,-34.076
15:26:45:46,39.295,-0.808,0.623,-0.188,0.318,20.699,-37.893
15:26:45:488,39.322,-1.073,0.269,-0.348,3.063,21.554,-43.755
15:26:45:514,39.349,-0.728,-0.462,-0.179,4.969,21.071,-48.551
15:26:45:542,39.376,-0.207,-0.529,-0.229,5.933,20.625,-50.763
15:26:45:569,39.404,-0.598,-0.966,0.038,6.111,20.960,-51.775
15:26:45:596,39.431,-0.375,-1.042,0.164,6.314,20.574,-50.924
15:26:45:623,39.458,-0.291,-1.036,-0.029,4.906,19.935,-48.176
15:26:45:65,39.485,-0.283,-0.858,-0.024,2.663,19.232,-45.560
15:26:45:677,39.512,-0.329,-0.709,-0.067,-1.167,18.062,-40.477
15:26:45:705,39.539,-0.376,-0.277,-0.016,-7.716,14.858,-28.873
15:26:45:732,39.567,-0.376,-0.277,-0.016,-7.716,14.858,-28.873
15:26:45:759,39.594,-0.054,0.509,0.188,-12.626,10.258,-13.326
15:26:45:786,39.621,0.600,1.076,0.131,-14.597,7.281,-2.538
15:26:45:813,39.648,1.701,1.144,0.015,-15.737,5.368,8.107
15:26:45:84,39.675,1.701,1.144,0.015,-15.737,5.368,8.107
15:26:45:868,39.703,2.246,-0.346,-0.366,-17.105,4.700,20.644
15:26:45:895,39.729,2.146,-0.715,0.184,-17.890,4.069,22.819
15:26:45:922,39.757,1.410,-0.204,0.517,-18.820,6.323,21.649
15:26:45:949,39.784,-1.517,0.619,0.616,-17.873,6.325,19.081
15:26:45:976,39.811,0.369,0.036,0.874,-16.924,5.676,16.779
15:26:46:004,39.838,1.066,0.042,-0.562,-15.119,1.686,13.833
15:26:46:031,39.865,0.479,-0.472,-0.353,-15.274,-1.160,7.986
15:26:46:058,39.892,0.608,0.245,0.143,-15.329,-0.424,6.319
15:26:46:085,39.919,0.608,0.245,0.143,-15.329,-0.424,6.319
15:26:46:112,39.947,0.608,0.245,0.143,-15.329,-0.424,6.319
15:26:46:139,39.974,-0.045,0.012,0.045,-14.759,3.071,3.347
15:26:46:166,40.001,0.181,0.002,-0.070,-14.601,3.007,1.488
15:26:46:193,40.028,0.181,0.002,-0.070,-14.601,3.007,1.488
15:26:46:22,40.055,-0.119,-0.010,0.032,-14.312,5.464,0.022
15:26:46:248,40.082,-0.119,-0.010,0.032,-14.312,5.464,0.022
15:26:46:274,40.109,-0.119,-0.010,0.032,-14.312,5.464,0.022
15:26:46:302,40.137,0.083,0.071,0.037,-13.773,6.449,-3.340
15:26:46:329,40.164,0.051,0.079,0.043,-13.592,6.711,-4.299
15:26:46:356,40.191,-0.115,0.040,-0.025,-13.217,7.292,-5.842
15:26:46:384,40.219,-0.046,0.087,-0.003,-12.952,7.504,-7.068
15:26:46:411,40.246,-0.046,0.087,-0.003,-12.952,7.504,-7.068
15:26:46:438,40.273,-0.097,0.169,0.002,-11.905,7.009,-10.970
15:26:46:466,40.300,-0.142,0.199,0.009,-10.146,6.698,-16.581
15:26:46:492,40.327,-0.255,0.187,-0.082,-9.455,7.220,-18.604
15:26:46:52,40.354,-0.255,0.187,-0.082,-9.455,7.220,-18.604
15:26:46:548,40.383,-0.348,0.171,-0.154,-8.202,6.828,-21.843
15:26:46:576,40.410,-0.348,0.171,-0.154,-8.202,6.828,-21.843
15:26:46:602,40.437,-1.093,0.388,-0.294,-3.151,11.141,-33.013
15:26:46:63,40.465,-0.851,0.638,-0.183,-0.971,13.085,-36.475
15:26:46:657,40.492,-0.950,0.349,-0.531,1.913,14.667,-42.174
15:26:46:685,40.519,-0.950,0.349,-0.531,1.913,14.667,-42.174
15:26:46:712,40.546,-0.127,-0.616,-0.175,6.098,15.948,-49.808
15:26:46:74,40.575,-0.638,-1.092,0.169,8.945,18.111,-51.075
15:26:46:767,40.602,-0.410,-1.133,0.341,9.768,19.241,-50.608
15:26:46:794,40.629,-0.272,-0.949,0.087,7.732,19.901,-48.550
15:26:46:821,40.656,-0.287,-0.842,0.115,4.696,20.197,-46.498
15:26:46:848,40.683,-0.350,-0.726,0.135,-0.440,20.480,-42.135
15:26:46:876,40.710,-0.444,-0.534,0.271,-4.096,20.428,-38.347
15:26:46:903,40.737,-0.432,-0.254,0.314,-9.275,19.722,-31.332
15:26:46:93,40.765,-0.432,-0.254,0.314,-9.275,19.722,-31.332
15:26:46:958,40.792,-0.177,0.386,0.549,-15.472,17.304,-16.219
15:26:46:985,40.820,0.636,1.015,0.535,-17.989,15.635,-5.609
15:26:47:012,40.847,1.328,1.266,0.437,-19.188,14.926,1.652
15:26:47:039,40.874,1.597,0.883,0.363,-20.531,15.269,11.564
15:26:47:066,40.901,1.597,0.883,0.363,-20.531,15.269,11.564
15:26:47:094,40.928,1.373,-0.392,-0.021,-23.214,18.949,22.807
15:26:47:121,40.956,1.373,-0.392,-0.021,-23.214,18.949,22.807
15:26:47:148,40.982,1.195,-0.208,-0.400,-23.021,21.295,20.505
15:26:47:176,41.011,0.630,0.386,-0.904,-21.253,20.862,15.237
15:26:47:203,41.037,0.630,0.386,-0.904,-21.253,20.862,15.237
15:26:47:23,41.065,0.805,0.264,-0.279,-19.548,16.650,13.604
15:26:47:257,41.092,0.805,0.264,-0.279,-19.548,16.650,13.604
15:26:47:284,41.119,0.128,-0.033,-0.044,-18.670,16.123,7.184
15:26:47:311,41.146,0.128,-0.033,-0.044,-18.670,16.123,7.184
15:26:47:339,41.174,0.080,-0.046,-0.083,-18.750,17.380,4.892
15:26:47:366,41.200,0.092,0.023,-0.058,-18.878,18.221,4.058
15:26:47:393,41.228,0.118,0.028,-0.086,-18.944,19.298,3.433
15:26:47:42,41.254,-0.018,-0.010,0.025,-18.934,21.145,2.459
15:26:47:447,41.282,-0.020,0.013,0.027,-18.907,22.177,1.767
15:26:47:474,41.309,-0.124,0.021,0.045,-18.873,23.473,0.577
15:26:47:501,41.336,0.101,0.028,-0.024,-18.709,24.455,-0.616
15:26:47:528,41.363,0.041,0.014,-0.007,-18.585,25.152,-1.372
15:26:47:556,41.391,-0.038,0.033,0.000,-18.426,26.102,-2.541
15:26:47:586,41.421,-0.024,0.095,0.007,-18.330,26.782,-3.472
15:26:47:613,41.448,-0.024,0.095,0.007,-18.330,26.782,-3.472
15:26:47:64,41.475,-0.032,0.051,0.047,-17.908,29.200,-6.538
15:26:47:668,41.503,-0.032,0.051,0.047,-17.908,29.200,-6.538
15:26:47:695,41.530,-0.122,0.152,0.085,-16.688,34.806,-13.311
15:26:47:722,41.557,-0.122,0.152,0.085,-16.688,34.806,-13.311
15:26:47:749,41.584,-0.086,0.161,0.039,-16.059,36.681,-16.210
15:26:47:777,41.612,-0.185,0.135,0.034,-15.608,37.686,-18.255
15:26:47:804,41.639,-0.430,0.353,0.140,-13.813,42.092,-25.764
15:26:47:831,41.666,-0.646,0.422,0.413,-12.830,44.647,-28.928
15:26:47:858,41.693,-0.646,0.422,0.413,-12.830,44.647,-28.928
15:26:47:886,41.720,-1.126,0.484,0.419,-10.653,49.633,-34.211
15:26:47:913,41.748,-0.813,0.355,0.378,-6.756,55.240,-43.418
15:26:47:94,41.774,-0.813,0.355,0.378,-6.756,55.240,-43.418
15:26:47:967,41.802,-0.432,-0.119,0.131,-4.703,57.281,-47.814
15:26:47:994,41.829,-0.145,-1.217,0.663,-0.224,62.308,-50.263
15:26:48:021,41.856,0.036,-1.084,0.524,1.377,64.344,-49.099
15:26:48:048,41.883,-0.045,-0.907,0.479,0.449,66.617,-46.509
15:26:48:075,41.909,-0.045,-0.907,0.479,0.449,66.617,-46.509
15:26:48:103,41.937,-0.013,-0.646,0.510,-5.996,68.918,-39.831
15:26:48:13,41.965,0.047,-0.423,0.678,-10.872,69.153,-33.959
15:26:48:185,42.020,0.269,0.058,0.594,-16.603,68.265,-20.837
15:26:48:212,42.047,0.479,0.520,0.385,-18.070,68.013,-14.702
15:26:48:239,42.074,0.479,0.520,0.385,-18.070,68.013,-14.702
15:26:48:267,42.101,1.060,0.609,-1.102,-22.035,68.080,11.914
15:26:48:294,42.128,1.060,0.609,-1.102,-22.035,68.080,11.914
15:26:48:321,42.155,0.813,-0.955,-2.264,-24.165,70.458,21.377
15:26:48:349,42.183,0.813,-0.955,-2.264,-24.165,70.458,21.377
15:26:48:375,42.210,-0.072,0.224,-0.391,-25.015,76.888,17.879
15:26:48:402,42.237,-0.072,0.224,-0.391,-25.015,76.888,17.879
15:26:48:43,42.264,0.611,-0.638,-1.444,-23.009,76.394,12.234
15:26:48:457,42.291,0.611,-0.638,-1.444,-23.009,76.394,12.234
15:26:48:484,42.319,0.004,-0.356,-0.252,-21.621,70.683,8.921
15:26:48:511,42.345,0.316,0.132,-0.249,-21.024,70.870,7.427
15:26:48:538,42.372,0.062,0.014,-0.043,-20.806,72.209,5.188
15:26:48:565,42.400,0.080,0.033,-0.152,-20.649,73.533,2.394
15:26:48:592,42.427,0.080,0.033,-0.152,-20.649,73.533,2.394
15:26:48:619,42.454,0.080,0.033,-0.152,-20.649,73.533,2.394
15:26:48:646,42.481,0.073,0.007,-0.054,-20.399,77.418,-0.571
15:26:48:674,42.509,-0.008,0.040,0.086,-20.327,78.333,-1.300
15:26:48:701,42.536,-0.008,0.010,0.082,-20.193,79.935,-2.548
15:26:48:728,42.563,0.041,-0.002,0.011,-19.931,81.027,-3.834
15:26:48:756,42.590,0.070,0.030,-0.030,-19.710,81.588,-4.695
15:26:48:783,42.618,0.063,0.010,0.001,-19.424,82.440,-5.991
15:26:48:81,42.644,0.063,0.010,0.001,-19.424,82.440,-5.991
15:26:48:837,42.672,0.074,0.054,0.024,-18.988,84.054,-8.374
15:26:48:864,42.699,0.040,0.060,0.134,-18.597,85.421,-10.166
15:26:48:891,42.726,0.069,0.084,0.081,-18.275,86.211,-11.483
15:26:48:918,42.753,0.024,0.129,0.114,-17.713,87.249,-13.626
15:26:48:945,42.780,0.011,0.136,0.179,-17.300,87.789,-15.187
15:26:48:972,42.807,0.002,0.126,0.207,-16.535,88.934,-17.754
15:26:48:999,42.834,-0.057,0.145,0.196,-15.774,89.186,-20.623
15:26:49:027,42.862,-0.070,0.168,0.309,-15.141,90.094,-22.841
15:26:49:055,42.889,-0.120,0.410,0.511,-13.970,91.888,-26.885
15:26:49:082,42.916,-0.083,0.434,0.797,-12.807,94.392,-30.195
15:26:49:109,42.944,-0.272,0.349,1.113,-10.315,98.662,-35.518
15:26:49:136,42.971,-0.384,0.690,0.703,-9.055,100.345,-39.462
15:26:49:163,42.998,-0.366,0.260,0.743,-7.332,101.863,-45.069
15:26:49:19,43.025,-0.224,-0.276,0.306,-6.111,101.869,-49.420
15:26:49:218,43.052,-0.361,-0.583,0.046,-5.079,102.466,-51.362
15:26:49:245,43.080,0.194,-1.139,0.580,-3.116,103.793,-51.887
15:26:49:272,43.107,0.185,-0.963,0.314,-2.258,105.932,-48.338
15:26:49:3,43.135,0.211,-0.826,0.363,-4.356,106.980,-44.573
15:26:49:327,43.161,0.203,-0.675,0.353,-6.616,107.373,-41.421
15:26:49:354,43.189,0.349,-0.480,0.496,-10.518,107.466,-35.476
15:26:49:381,43.215,0.349,-0.480,0.496,-10.518,107.466,-35.476
15:26:49:408,43.243,0.668,0.025,0.261,-15.996,105.801,-22.281
15:26:49:435,43.269,0.668,0.025,0.261,-15.996,105.801,-22.281
15:26:49:462,43.297,0.573,0.780,-0.422,-18.286,103.464,-6.174
15:26:49:489,43.324,0.255,1.050,-1.172,-18.684,100.947,3.987
15:26:49:516,43.351,-0.019,0.852,-1.709,-18.624,99.164,10.019
15:26:49:543,43.378,-0.392,-0.182,-2.139,-18.231,96.977,16.711
15:26:49:57,43.405,-0.470,-0.598,-2.160,-18.048,96.484,19.072
15:26:49:598,43.432,-0.227,-0.371,-1.949,-18.352,98.689,18.530
15:26:49:625,43.460,1.466,1.109,2.457,-18.295,99.813,15.621
15:26:49:652,43.487,-0.346,0.236,-0.765,-17.989,102.020,14.568
15:26:49:679,43.514,0.397,0.493,-0.948,-17.402,99.567,11.846
15:26:49:706,43.541,-0.075,-0.402,0.010,-17.511,99.603,9.636
15:26:49:733,43.568,0.010,0.126,-0.464,-17.493,98.886,7.845
15:26:49:761,43.596,0.086,0.018,0.075,-17.504,99.190,6.931
15:26:49:788,43.623,0.018,0.054,-0.098,-17.432,100.000,5.630
15:26:49:815,43.649,0.046,-0.003,-0.107,-17.233,100.904,4.671
15:26:49:842,43.677,0.053,-0.026,-0.064,-17.129,101.607,4.162
15:26:49:869,43.704,0.003,-0.001,0.043,-16.961,103.122,3.355
15:26:49:896,43.731,0.013,-0.026,0.169,-16.826,104.160,2.816
15:26:49:924,43.759,0.001,0.022,0.085,-16.726,105.396,1.997
15:26:49:951,43.785,0.129,0.048,-0.025,-16.606,105.843,1.389
15:26:49:978,43.813,0.104,0.007,0.064,-16.260,106.850,0.193
15:26:50:005,43.840,0.101,0.037,0.197,-15.903,107.450,-1.303
15:26:50:032,43.867,0.101,0.037,0.197,-15.903,107.450,-1.303
15:26:50:059,43.894,0.028,0.011,-0.008,-15.221,107.950,-4.255
15:26:50:087,43.922,0.218,0.053,0.149,-14.222,109.217,-7.567
15:26:50:114,43.949,0.218,0.053,0.149,-14.222,109.217,-7.567
15:26:50:142,43.976,0.092,0.146,0.115,-13.414,109.707,-9.922
15:26:50:169,44.003,0.075,0.132,0.129,-11.845,109.847,-14.412
15:26:50:196,44.030,0.121,0.238,0.056,-11.203,109.699,-16.390
15:26:50:223,44.057,0.120,0.193,0.299,-10.042,110.022,-19.476
15:26:50:25,44.084,-0.089,0.243,0.463,-8.804,110.237,-22.868
15:26:50:277,44.112,-0.194,0.340,0.623,-7.930,110.576,-25.447
15:26:50:304,44.139,-0.201,0.351,1.145,-6.296,112.011,-29.882
15:26:50:332,44.167,-0.166,0.573,0.763,-4.770,113.398,-33.221
15:26:50:36,44.194,-0.412,0.733,0.747,-2.619,114.835,-38.905
15:26:50:387,44.222,-0.240,0.279,0.987,-1.269,115.820,-45.099
15:26:50:415,44.249,-0.033,-0.501,0.670,0.282,116.610,-48.352
15:26:50:442,44.276,0.130,-1.051,0.480,3.417,118.150,-51.023
15:26:50:469,44.304,0.285,-1.040,0.266,4.246,119.089,-51.597
15:26:50:496,44.330,0.197,-0.991,0.193,4.083,120.128,-50.862
15:26:50:523,44.358,0.197,-0.991,0.193,4.083,120.128,-50.862
15:26:50:551,44.385,0.220,-0.712,0.294,-6.875,121.657,-42.476
15:26:50:577,44.412,0.220,-0.712,0.294,-6.875,121.657,-42.476
15:26:50:604,44.439,0.398,-0.246,0.278,-15.122,120.995,-31.856
15:26:50:632,44.466,0.521,0.084,0.247,-17.547,120.436,-26.444
15:26:50:66,44.494,0.521,0.084,0.247,-17.547,120.436,-26.444
15:26:50:687,44.521,0.327,0.908,-0.676,-22.459,118.347,-7.552
15:26:50:714,44.548,0.327,0.908,-0.676,-22.459,118.347,-7.552
15:26:50:741,44.576,-0.656,-0.222,-1.759,-26.205,121.494,12.480
15:26:50:768,44.602,-0.656,-0.222,-1.759,-26.205,121.494,12.480
15:26:50:795,44.630,-0.288,-0.395,-1.455,-28.552,128.278,16.115
15:26:50:822,44.656,-0.288,-0.395,-1.455,-28.552,128.278,16.115
15:26:50:85,44.684,-0.288,-0.395,-1.455,-28.552,128.278,16.115
15:26:50:876,44.711,-0.288,-0.395,-1.455,-28.552,128.278,16.115
15:26:50:904,44.739,-0.038,0.218,-0.589,-25.720,126.554,7.277
15:26:50:931,44.766,-0.038,0.218,-0.589,-25.720,126.554,7.277
15:26:50:959,44.793,-0.435,-0.040,-0.523,-25.219,125.960,5.512
15:26:50:986,44.820,0.101,-0.053,-0.091,-24.738,129.385,1.004
15:26:51:013,44.848,0.101,-0.053,-0.091,-24.738,129.385,1.004
15:26:51:04,44.875,-0.056,0.032,-0.064,-24.753,130.795,-0.677
15:26:51:067,44.901,-0.024,0.028,-0.017,-24.737,131.608,-1.200
15:26:51:094,44.929,0.101,-0.031,0.071,-24.456,133.930,-2.252
15:26:51:121,44.956,0.160,-0.010,0.028,-24.249,135.704,-3.183
15:26:51:148,44.983,0.046,0.019,0.019,-24.139,136.529,-3.844
15:26:51:175,45.010,0.133,0.004,0.071,-23.867,138.064,-5.155
15:26:51:202,45.037,0.133,0.004,0.071,-23.867,138.064,-5.155
15:26:51:229,45.064,0.007,0.064,-0.092,-23.428,140.027,-7.697
15:26:51:257,45.091,0.007,0.064,-0.092,-23.428,140.027,-7.697
15:26:51:284,45.118,0.041,0.078,-0.005,-22.614,143.070,-10.423
15:26:51:311,45.146,0.183,0.040,0.141,-21.961,146.135,-12.220
15:26:51:338,45.172,0.103,0.111,-0.006,-21.472,147.438,-13.603
15:26:51:365,45.200,0.275,0.118,-0.024,-20.710,150.192,-16.024
15:26:51:392,45.227,0.298,0.149,0.041,-20.220,151.302,-17.756
15:26:51:419,45.254,0.273,0.153,0.106,-19.514,153.196,-20.547
15:26:51:446,45.281,0.319,0.121,0.106,-18.751,155.154,-23.785
15:26:51:473,45.308,0.360,0.109,0.151,-18.204,156.241,-26.276
15:26:51:5,45.335,0.360,0.109,0.151,-18.204,156.241,-26.276
15:26:51:528,45.362,1.094,0.283,0.465,-16.218,160.748,-33.871
15:26:51:555,45.389,0.876,0.601,0.635,-12.629,167.557,-43.407
15:26:51:582,45.417,0.876,0.601,0.635,-12.629,167.557,-43.407
15:26:51:609,45.443,0.752,0.304,0.866,-10.785,169.527,-49.550
15:26:51:636,45.471,0.514,-0.513,0.378,-9.198,170.895,-54.481
15:26:51:663,45.498,0.516,-1.218,0.042,-4.642,173.985,-57.633
15:26:51:69,45.525,0.516,-1.218,0.042,-4.642,173.985,-57.633
15:26:51:717,45.552,0.292,-1.006,-0.074,-2.053,176.667,-53.994
15:26:51:745,45.579,0.362,-0.911,-0.024,-4.192,177.851,-50.057
15:26:51:772,45.607,0.362,-0.911,-0.024,-4.192,177.851,-50.057
15:26:51:799,45.634,0.481,-0.542,0.022,-11.501,178.014,-40.722
15:26:51:826,45.661,0.481,-0.542,0.022,-11.501,178.014,-40.722
15:26:51:854,45.688,0.396,-0.012,-0.255,-17.683,176.229,-27.390
15:26:51:881,45.716,0.396,-0.012,-0.255,-17.683,176.229,-27.390
15:26:51:908,45.743,0.027,0.843,-0.725,-20.413,175.184,-10.910
15:26:51:936,45.770,-0.760,1.312,-0.772,-21.087,174.774,-0.420
15:26:51:963,45.798,-1.150,1.064,-0.646,-21.362,174.387,6.065
15:26:51:99,45.824,-1.874,0.093,-0.289,-21.693,172.618,14.019
15:26:52:016,45.851,-2.139,-0.643,-0.541,-22.099,171.466,17.411
15:26:52:044,45.879,-1.611,-0.435,-0.485,-22.915,173.672,17.988
15:26:52:071,45.906,-1.611,-0.435,-0.485,-22.915,173.672,17.988
15:26:52:098,45.933,-1.611,-0.435,-0.485,-22.915,173.672,17.988
15:26:52:126,45.960,-0.820,0.419,0.031,-20.392,173.121,10.248
15:26:52:153,45.988,-0.820,0.419,0.031,-20.392,173.121,10.248
15:26:52:18,46.014,-0.865,0.241,-0.158,-19.862,170.458,8.104
15:26:52:207,46.042,-0.550,0.237,-0.287,-20.351,167.915,2.961
15:26:52:234,46.068,-0.088,0.014,-0.084,-20.402,169.191,0.906
15:26:52:261,46.096,0.022,0.018,-0.128,-20.072,172.153,-0.720
15:26:52:289,46.124,0.022,0.018,-0.128,-20.072,172.153,-0.720
15:26:52:316,46.150,-0.129,0.034,0.065,-20.218,173.892,-1.889
15:26:52:343,46.178,0.157,-0.013,-0.004,-19.607,177.151,-3.012
15:26:52:37,46.205,0.157,-0.013,-0.004,-19.607,177.151,-3.012
15:26:52:397,46.232,0.157,-0.013,-0.004,-19.607,177.151,-3.012
15:26:52:425,46.259,0.157,-0.013,-0.004,-19.607,177.151,-3.012
15:26:52:451,46.286,0.098,0.023,-0.066,-18.726,-178.614,-6.100
15:26:52:479,46.313,0.097,0.033,-0.090,-18.112,-177.436,-8.857
15:26:52:506,46.341,0.214,0.054,-0.023,-17.618,-176.985,-10.652
15:26:52:533,46.367,0.234,0.053,0.036,-17.140,-176.368,-12.020
15:26:52:56,46.395,0.201,0.117,-0.063,-16.316,-176.079,-14.366
15:26:52:588,46.423,0.238,0.149,-0.072,-15.713,-175.653,-16.137
15:26:52:615,46.450,0.238,0.149,-0.072,-15.713,-175.653,-16.137
15:26:52:643,46.477,0.238,0.149,-0.072,-15.713,-175.653,-16.137
15:26:52:67,46.504,0.238,0.149,-0.072,-15.713,-175.653,-16.137
15:26:52:697,46.532,0.600,0.192,0.056,-11.555,-173.557,-28.431
15:26:52:725,46.560,0.978,0.394,0.315,-10.499,-172.620,-31.293
15:26:52:752,46.587,1.459,0.217,0.209,-8.360,-170.390,-36.129
15:26:52:779,46.614,0.838,0.750,0.437,-6.108,-168.779,-39.804
15:26:52:807,46.641,0.945,-0.278,0.277,-2.239,-168.224,-51.665
15:26:52:834,46.668,0.368,-0.666,0.238,-1.294,-168.610,-54.233
15:26:52:861,46.696,0.368,-0.666,0.238,-1.294,-168.610,-54.233
15:26:52:888,46.723,0.354,-1.103,-0.089,0.314,-168.470,-54.940
15:26:52:915,46.750,0.354,-1.103,-0.089,0.314,-168.470,-54.940
15:26:52:943,46.778,0.308,-0.992,0.002,-1.449,-168.829,-49.625
15:26:52:971,46.805,0.308,-0.992,0.002,-1.449,-168.829,-49.625
15:26:52:998,46.833,0.394,-0.623,0.021,-7.768,-169.991,-38.274
15:26:53:025,46.860,0.394,-0.623,0.021,-7.768,-169.991,-38.274
15:26:53:052,46.887,0.425,-0.481,-0.011,-10.090,-170.796,-33.229
15:26:53:08,46.914,0.376,0.370,-0.379,-15.059,-173.931,-17.747
15:26:53:107,46.941,-0.111,0.978,-0.452,-17.321,-176.941,-6.630
15:26:53:134,46.969,-1.826,0.876,-0.235,-18.785,178.382,11.912
15:26:53:161,46.996,-1.826,0.876,-0.235,-18.785,178.382,11.912
15:26:53:189,47.023,-2.662,-0.221,0.259,-19.203,177.187,19.432
15:26:53:215,47.050,-1.605,-0.041,-0.155,-20.786,-179.912,20.397
15:26:53:243,47.077,-1.605,-0.041,-0.155,-20.786,-179.912,20.397
15:26:53:27,47.104,-1.229,-0.020,-0.655,-18.981,-179.345,14.816
15:26:53:296,47.131,-1.008,0.038,0.183,-17.376,176.502,11.035
15:26:53:324,47.158,-1.008,0.038,0.183,-17.376,176.502,11.035
15:26:53:351,47.186,-1.008,0.038,0.183,-17.376,176.502,11.035
15:26:53:378,47.213,0.170,0.063,0.008,-18.155,176.164,3.074
15:26:53:405,47.240,-0.114,-0.036,-0.206,-17.807,178.662,0.979
15:26:53:432,47.267,0.024,0.105,-0.136,-17.807,179.578,-0.145
15:26:53:46,47.294,-0.115,0.024,0.070,-17.813,-179.924,-0.790
15:26:53:487,47.321,-0.115,0.024,0.070,-17.813,-179.924,-0.790
15:26:53:514,47.348,0.103,0.002,-0.058,-17.401,-177.417,-2.011
15:26:53:541,47.376,0.101,-0.025,0.019,-17.129,-176.225,-2.723
15:26:53:568,47.403,0.176,-0.009,0.094,-16.867,-175.455,-3.632
15:26:53:595,47.430,0.176,-0.009,0.094,-16.867,-175.455,-3.632
15:26:53:622,47.457,-0.035,0.105,-0.172,-16.159,-174.448,-5.924
15:26:53:649,47.484,0.120,0.061,-0.109,-15.794,-173.916,-6.915
15:26:53:676,47.511,0.353,-0.047,0.006,-15.086,-173.421,-8.567
15:26:53:703,47.538,0.022,0.151,-0.157,-14.737,-173.733,-9.943
15:26:53:731,47.566,0.131,0.171,-0.170,-14.066,-173.677,-12.378
15:26:53:758,47.593,0.170,0.160,-0.048,-13.197,-173.192,-15.086
15:26:53:785,47.620,0.218,0.250,0.002,-12.566,-172.981,-17.008
15:26:53:813,47.647,0.350,0.218,0.056,-11.422,-172.398,-20.043
15:26:53:839,47.674,0.476,0.217,0.110,-10.536,-172.032,-22.303
15:26:53:867,47.702,0.652,0.231,0.163,-8.941,-171.063,-26.242
15:26:53:895,47.729,0.652,0.231,0.163,-8.941,-171.063,-26.242
15:26:53:922,47.757,1.387,0.154,0.227,-5.171,-167.543,-34.377
15:26:53:95,47.784,0.916,0.700,0.291,-2.077,-165.734,-40.230
15:26:53:977,47.812,0.898,-0.262,0.221,1.268,-165.627,-50.234
15:26:54:004,47.838,0.257,-0.563,0.219,2.378,-166.054,-53.059
15:26:54:031,47.866,0.584,-1.037,-0.102,4.018,-165.565,-55.000
15:26:54:058,47.893,0.584,-1.037,-0.102,4.018,-165.565,-55.000
15:26:54:086,47.921,0.584,-1.037,-0.102,4.018,-165.565,-55.000
15:26:54:113,47.947,0.272,-0.923,-0.045,0.218,-165.309,-49.195
15:26:54:14,47.975,0.311,-0.782,-0.021,-2.792,-165.522,-46.079
15:26:54:167,48.002,0.311,-0.782,-0.021,-2.792,-165.522,-46.079
15:26:54:194,48.029,0.374,-0.338,-0.196,-12.405,-167.820,-32.708
15:26:54:221,48.056,0.335,-0.160,-0.346,-14.780,-169.065,-26.824
15:26:54:249,48.083,0.335,-0.160,-0.346,-14.780,-169.065,-26.824
15:26:54:275,48.110,-0.513,1.056,-0.449,-18.313,-172.259,-9.689
15:26:54:303,48.137,-1.349,1.497,-0.355,-19.329,-174.613,1.579
15:26:54:329,48.164,-1.873,0.808,-0.057,-19.576,-176.034,8.488
15:26:54:358,48.192,-2.243,0.003,0.205,-19.586,-177.815,16.492
15:26:54:384,48.219,-2.485,-0.796,0.267,-20.091,-177.859,20.478
15:26:54:412,48.246,-1.881,-0.373,0.007,-21.039,-175.300,20.265
15:26:54:439,48.273,1.154,0.631,0.287,-20.987,-172.259,16.783
15:26:54:466,48.301,1.154,0.631,0.287,-20.987,-172.259,16.783
15:26:54:493,48.328,-0.704,-0.096,0.151,-18.886,-174.590,13.525
15:26:54:521,48.356,-0.310,-0.248,0.161,-18.487,-179.610,8.412
15:26:54:548,48.382,-0.310,-0.248,0.161,-18.487,-179.610,8.412
15:26:54:575,48.409,-0.536,0.093,-0.062,-18.600,178.703,6.030
15:26:54:602,48.437,-0.536,0.093,-0.062,-18.600,178.703,6.030
15:26:54:629,48.464,-0.536,0.093,-0.062,-18.600,178.703,6.030
15:26:54:657,48.492,-0.126,0.055,0.064,-18.012,-176.591,0.191
15:26:54:684,48.519,-0.069,-0.007,0.046,-17.825,-175.255,-1.128
15:26:54:711,48.546,-0.006,0.001,-0.073,-17.570,-173.886,-1.951
15:26:54:739,48.573,0.111,-0.021,-0.120,-17.332,-172.641,-3.050
15:26:54:766,48.601,0.111,-0.021,-0.120,-17.332,-172.641,-3.050
15:26:54:793,48.627,0.111,-0.021,-0.120,-17.332,-172.641,-3.050
15:26:54:82,48.655,0.189,-0.026,-0.057,-16.450,-172.440,-6.045
15:26:54:848,48.682,-0.097,0.056,-0.116,-16.280,-172.713,-6.915
15:26:54:875,48.709,0.149,0.049,-0.100,-15.926,-173.297,-8.455
15:26:54:902,48.737,0.149,0.049,-0.100,-15.926,-173.297,-8.455
15:26:54:929,48.764,0.182,0.093,-0.010,-15.229,-173.848,-11.810
15:26:54:956,48.791,0.170,0.152,-0.053,-14.802,-173.511,-13.580
15:26:54:983,48.818,0.170,0.152,-0.053,-14.802,-173.511,-13.580
15:26:55:011,48.845,0.228,0.275,-0.053,-13.426,-172.975,-20.019
15:26:55:038,48.873,0.609,0.322,0.170,-11.730,-171.650,-26.259
15:26:55:065,48.900,0.833,0.534,0.323,-10.921,-170.803,-29.207
15:26:55:092,48.927,0.833,0.534,0.323,-10.921,-170.803,-29.207
15:26:55:119,48.954,0.833,0.534,0.323,-10.921,-170.803,-29.207
15:26:55:146,48.981,0.833,0.534,0.323,-10.921,-170.803,-29.207
15:26:55:173,49.008,0.796,-0.293,0.418,-0.961,-158.520,-48.142
15:26:55:201,49.035,0.544,-1.005,0.033,1.477,-156.602,-50.246
15:26:55:228,49.063,0.544,-1.005,0.033,1.477,-156.602,-50.246
15:26:55:255,49.089,0.295,-1.026,-0.404,7.971,-150.099,-49.953
15:26:55:282,49.117,0.295,-1.026,-0.404,7.971,-150.099,-49.953
15:26:55:31,49.144,0.314,-0.869,-0.298,1.408,-148.106,-46.072
15:26:55:337,49.172,0.395,-0.427,-0.334,-9.715,-148.702,-38.489
15:26:55:364,49.198,0.231,-0.137,-0.463,-13.365,-149.309,-34.237
15:26:55:391,49.226,0.231,-0.137,-0.463,-13.365,-149.309,-34.237
15:26:55:418,49.253,0.185,0.006,-0.575,-16.863,-149.501,-26.706
15:26:55:445,49.279,-0.266,0.633,-0.655,-19.977,-147.852,-12.006
15:26:55:472,49.307,-0.266,0.633,-0.655,-19.977,-147.852,-12.006
15:26:55:499,49.334,-1.465,0.990,0.066,-22.690,-146.629,3.863
15:26:55:527,49.361,-1.465,0.990,0.066,-22.690,-146.629,3.863
15:26:55:553,49.388,-1.786,-0.507,0.858,-24.607,-144.649,15.511
15:26:55:581,49.416,-1.666,-0.493,0.646,-24.879,-143.340,16.243
15:26:55:608,49.443,-1.077,-0.098,0.567,-24.437,-141.656,14.197
15:26:55:636,49.470,0.721,0.482,-1.435,-23.767,-142.207,12.368
15:26:55:663,49.498,-0.233,0.477,0.483,-23.071,-140.661,10.254
15:26:55:69,49.524,-0.349,0.216,0.172,-22.388,-142.470,8.820
15:26:55:717,49.552,-0.349,0.216,0.172,-22.388,-142.470,8.820
15:26:55:745,49.579,-0.369,0.103,0.090,-21.821,-144.423,3.943
15:26:55:772,49.606,-0.108,0.068,-0.051,-21.613,-143.210,2.542
15:26:55:799,49.634,0.014,0.001,-0.055,-21.280,-141.844,0.856
15:26:55:826,49.661,0.014,0.001,-0.055,-21.280,-141.844,0.856
15:26:55:853,49.688,-0.071,0.040,0.069,-21.283,-141.342,-1.008
15:26:55:881,49.715,-0.006,0.010,0.050,-21.231,-140.128,-1.941
15:26:55:908,49.743,-0.006,0.010,0.050,-21.231,-140.128,-1.941
15:26:55:935,49.769,0.127,0.001,-0.130,-20.876,-136.748,-3.662
15:26:55:962,49.797,0.081,0.014,-0.040,-20.781,-135.899,-4.343
15:26:55:989,49.824,0.081,0.014,-0.040,-20.781,-135.899,-4.343
15:26:56:016,49.851,0.081,0.014,-0.040,-20.781,-135.899,-4.343
15:26:56:043,49.878,0.081,0.014,-0.040,-20.781,-135.899,-4.343
15:26:56:07,49.905,-0.026,0.037,-0.005,-19.778,-130.845,-9.405
15:26:56:097,49.932,0.020,0.015,-0.004,-19.558,-130.068,-10.255
15:26:56:125,49.959,0.020,0.015,-0.004,-19.558,-130.068,-10.255
15:26:56:151,49.986,0.087,0.061,-0.086,-19.185,-127.576,-11.597
15:26:56:179,50.013,0.071,0.091,-0.120,-18.168,-123.930,-14.499
15:26:56:206,50.041,0.122,0.126,-0.198,-16.755,-120.383,-18.351
15:26:56:233,50.067,0.122,0.126,-0.198,-16.755,-120.383,-18.351
15:26:56:26,50.095,0.131,0.213,-0.200,-15.907,-119.288,-21.103
15:26:56:287,50.122,0.146,0.175,-0.212,-15.338,-117.644,-23.166
15:26:56:314,50.149,0.146,0.175,-0.212,-15.338,-117.644,-23.166
15:26:56:341,50.176,0.146,0.175,-0.212,-15.338,-117.644,-23.166
15:26:56:368,50.203,0.353,0.364,-0.450,-13.473,-114.081,-29.252
15:26:56:396,50.230,0.685,0.644,-0.502,-7.336,-104.936,-42.249
15:26:56:422,50.257,0.685,0.644,-0.502,-7.336,-104.936,-42.249
15:26:56:45,50.284,0.433,-0.386,-0.175,-3.668,-102.386,-51.058
15:26:56:477,50.312,0.448,-0.549,0.052,-1.210,-100.561,-54.483
15:26:56:505,50.339,-0.048,-1.210,-0.594,1.988,-98.115,-55.044
15:26:56:532,50.366,-0.048,-1.210,-0.594,1.988,-98.115,-55.044
15:26:56:559,50.394,-0.048,-1.210,-0.594,1.988,-98.115,-55.044
15:26:56:586,50.421,-0.082,-0.824,-0.420,0.833,-93.280,-48.082
15:26:56:613,50.448,-0.074,-0.706,-0.486,-3.506,-92.522,-43.029
15:26:56:641,50.475,-0.190,-0.454,-0.586,-6.760,-92.453,-38.900
15:26:56:668,50.503,-0.316,-0.184,-0.588,-10.977,-93.007,-31.474
15:26:56:695,50.530,-0.316,-0.184,-0.588,-10.977,-93.007,-31.474
15:26:56:723,50.557,-0.316,-0.184,-0.588,-10.977,-93.007,-31.474
15:26:56:749,50.584,-0.508,0.968,0.222,-16.043,-95.728,-5.926
15:26:56:777,50.611,-0.457,1.261,0.837,-16.454,-96.911,1.100
15:26:56:804,50.638,-0.457,1.261,0.837,-16.454,-96.911,1.100
15:26:56:831,50.666,-0.361,0.668,1.627,-16.612,-98.201,10.260
15:26:56:858,50.693,-0.233,-0.625,2.188,-17.421,-97.053,17.755
15:26:56:886,50.720,-0.036,0.002,1.245,-17.818,-93.858,16.279
15:26:56:913,50.747,-0.036,0.002,1.245,-17.818,-93.858,16.279
15:26:56:939,50.774,-0.390,-0.081,0.209,-16.768,-92.571,12.056
15:26:56:967,50.801,-0.064,0.086,0.246,-15.749,-95.394,9.506
15:26:56:995,50.829,0.105,0.222,0.331,-15.792,-95.814,7.580
15:26:57:022,50.856,-0.060,0.012,0.619,-15.920,-97.541,5.154
15:26:57:049,50.884,-0.003,0.036,0.203,-15.957,-97.087,3.869
15:26:57:076,50.910,-0.013,0.026,-0.031,-15.822,-94.991,1.564
15:26:57:103,50.937,0.043,0.010,-0.025,-15.940,-94.972,0.795
15:26:57:13,50.965,0.086,0.053,0.041,-16.029,-94.783,0.146
15:26:57:157,50.992,0.086,0.053,0.041,-16.029,-94.783,0.146
15:26:57:184,51.019,0.086,0.053,0.041,-16.029,-94.783,0.146
15:26:57:212,51.047,-0.021,0.004,-0.090,-15.572,-92.579,-1.246
15:26:57:239,51.074,-0.001,-0.023,-0.204,-15.417,-91.613,-1.982
15:26:57:266,51.101,0.031,0.036,-0.011,-15.113,-89.976,-4.499
15:26:57:293,51.128,0.031,0.032,-0.231,-14.550,-88.213,-6.822
15:26:57:32,51.155,0.031,0.032,-0.231,-14.550,-88.213,-6.822
15:26:57:348,51.183,0.003,0.028,-0.109,-13.954,-86.727,-9.451
15:26:57:375,51.210,0.003,0.028,-0.109,-13.954,-86.727,-9.451
15:26:57:402,51.237,0.014,0.098,-0.187,-13.077,-85.014,-12.913
15:26:57:429,51.264,-0.049,0.174,-0.128,-12.439,-83.994,-15.450
15:26:57:457,51.291,-0.049,0.174,-0.128,-12.439,-83.994,-15.450
15:26:57:484,51.318,-0.049,0.174,-0.128,-12.439,-83.994,-15.450
15:26:57:511,51.345,0.119,0.173,-0.297,-9.980,-81.740,-22.217
15:26:57:538,51.373,0.152,0.266,-0.398,-8.753,-80.660,-25.549
15:26:57:565,51.399,0.122,0.330,-0.648,-7.775,-79.937,-27.963
15:26:57:592,51.427,0.140,0.251,-1.052,-5.855,-77.782,-31.916
15:26:57:619,51.454,0.277,0.254,-1.352,-3.351,-75.438,-36.454
15:26:57:646,51.481,0.354,0.516,-0.883,-1.437,-74.190,-39.847
15:26:57:673,51.508,0.340,0.254,-1.193,0.685,-73.201,-45.664
15:26:57:7,51.535,0.189,-0.166,-0.688,2.580,-72.874,-49.039
15:26:57:728,51.562,-0.215,-1.084,-0.593,7.463,-70.447,-54.701
15:26:57:755,51.590,-0.403,-1.204,-0.431,9.262,-68.671,-54.234
15:26:57:782,51.616,-0.239,-1.082,-0.238,9.462,-67.131,-51.986
15:26:57:81,51.644,-0.239,-1.082,-0.238,9.462,-67.131,-51.986
15:26:57:837,51.672,-0.265,-0.813,-0.313,3.131,-65.166,-45.707
15:26:57:864,51.698,-0.385,-0.666,-0.483,-2.393,-64.773,-40.264
15:26:57:891,51.726,-0.428,-0.409,-0.460,-6.105,-65.002,-35.830
15:26:57:918,51.753,-0.428,-0.409,-0.460,-6.105,-65.002,-35.830
15:26:57:945,51.780,-0.428,-0.409,-0.460,-6.105,-65.002,-35.830
15:26:57:972,51.807,-0.600,0.751,0.104,-15.117,-67.149,-12.075
15:26:57:999,51.834,-0.154,1.552,1.160,-16.116,-67.746,-4.891
15:26:58:026,51.861,-0.154,1.552,1.160,-16.116,-67.746,-4.891
15:26:58:053,51.888,-0.154,1.552,1.160,-16.116,-67.746,-4.891
15:26:58:081,51.915,0.645,0.273,1.668,-17.135,-67.727,13.093
15:26:58:107,51.942,0.283,0.092,1.220,-17.857,-65.996,16.362
15:26:58:135,51.969,-1.715,1.052,-2.363,-17.563,-64.497,14.180
15:26:58:162,51.997,-1.715,1.052,-2.363,-17.563,-64.497,14.180
15:26:58:189,52.024,-1.715,1.052,-2.363,-17.563,-64.497,14.180
15:26:58:216,52.051,0.298,0.427,0.672,-16.374,-64.907,7.686
15:26:58:243,52.078,0.265,-0.019,0.270,-16.355,-66.016,5.085
15:26:58:271,52.105,0.265,-0.019,0.270,-16.355,-66.016,5.085
15:26:58:298,52.132,0.265,-0.019,0.270,-16.355,-66.016,5.085
15:26:58:325,52.160,0.265,-0.019,0.270,-16.355,-66.016,5.085
15:26:58:352,52.187,0.265,-0.019,0.270,-16.355,-66.016,5.085
15:26:58:379,52.214,0.064,-0.026,-0.093,-15.933,-61.031,-0.244
15:26:58:406,52.241,0.064,-0.026,-0.093,-15.933,-61.031,-0.244
15:26:58:433,52.268,0.064,-0.026,-0.093,-15.933,-61.031,-0.244
15:26:58:46,52.295,0.064,-0.026,-0.093,-15.933,-61.031,-0.244
15:26:58:487,52.322,0.025,0.020,-0.175,-15.278,-57.131,-3.315
15:26:58:515,52.349,-0.017,0.060,-0.006,-14.847,-54.934,-6.712
15:26:58:542,52.377,-0.017,0.060,-0.006,-14.847,-54.934,-6.712
15:26:58:569,52.404,-0.011,0.072,-0.095,-14.511,-53.913,-8.236
15:26:58:596,52.431,-0.020,0.036,-0.158,-14.185,-53.212,-9.294
15:26:58:624,52.459,-0.020,0.036,-0.158,-14.185,-53.212,-9.294
15:26:58:652,52.487,-0.105,0.108,-0.141,-12.466,-50.280,-14.963
15:26:58:679,52.514,-0.110,0.131,-0.167,-11.622,-49.072,-17.721
15:26:58:706,52.541,-0.093,0.151,-0.204,-11.045,-48.458,-19.657
15:26:58:733,52.568,-0.093,0.151,-0.204,-11.045,-48.458,-19.657
15:26:58:76,52.595,-0.093,0.151,-0.204,-11.045,-48.458,-19.657
15:26:58:787,52.622,-0.182,0.332,-0.676,-7.983,-44.852,-28.987
15:26:58:815,52.649,-0.583,0.247,-1.115,-5.935,-42.079,-33.431
15:26:58:842,52.676,-0.303,0.452,-1.026,-3.864,-39.739,-36.728
15:26:58:869,52.704,-0.303,0.452,-1.026,-3.864,-39.739,-36.728
15:26:58:897,52.732,-0.238,0.022,-0.952,0.544,-36.248,-46.456
15:26:58:924,52.759,-0.125,-0.158,-0.380,3.122,-35.151,-51.021
