Time,Second,AccelerationX,AccelerationY,AccelerationZ,EulerAnglesX,EulerAnglesY,EulerAnglesZ
15:33:20:305,0.000,0.251,-0.024,0.356,-9.136,150.846,-33.384
15:33:20:332,0.027,0.442,-0.259,0.402,-10.773,159.272,-46.375
15:33:20:36,0.055,0.551,-0.235,0.426,-12.224,160.415,-51.042
15:33:20:387,0.082,0.533,-0.282,0.392,-12.963,160.125,-51.987
15:33:20:414,0.109,0.423,-0.340,0.267,-14.468,159.195,-52.642
15:33:20:441,0.136,0.423,-0.340,0.267,-14.468,159.195,-52.642
15:33:20:469,0.164,0.556,-0.167,0.211,-15.541,158.581,-52.657
15:33:20:496,0.191,0.671,0.058,0.271,-15.453,157.182,-49.943
15:33:20:523,0.218,0.671,0.058,0.271,-15.453,157.182,-49.943
15:33:20:55,0.245,0.503,0.135,0.184,-12.211,155.347,-44.096
15:33:20:577,0.272,0.503,0.135,0.184,-12.211,155.347,-44.096
15:33:20:604,0.299,0.503,0.135,0.184,-12.211,155.347,-44.096
15:33:20:631,0.326,0.079,-0.016,-0.016,-5.495,153.110,-30.021
15:33:20:658,0.353,0.079,-0.016,-0.016,-5.495,153.110,-30.021
15:33:20:686,0.381,-0.101,-0.240,-0.101,-1.366,154.590,-21.031
15:33:20:713,0.408,-0.199,-0.251,-0.056,-0.070,155.692,-17.930
15:33:20:741,0.436,-0.199,-0.251,-0.056,-0.070,155.692,-17.930
15:33:20:767,0.462,-0.323,0.010,-0.042,2.178,159.156,-9.458
15:33:20:795,0.490,-0.323,0.010,-0.042,2.178,159.156,-9.458
15:33:20:822,0.517,-0.323,0.010,-0.042,2.178,159.156,-9.458
15:33:20:849,0.544,-0.581,0.059,-0.169,3.518,165.461,0.202
15:33:20:876,0.571,-0.622,0.056,-0.127,3.864,168.129,3.883
15:33:20:903,0.598,-0.703,0.022,-0.068,4.513,172.363,8.868
15:33:20:93,0.625,-0.703,0.022,-0.068,4.513,172.363,8.868
15:33:20:957,0.652,-0.543,-0.160,0.055,5.361,175.489,11.422
15:33:20:985,0.680,-0.606,-0.006,0.111,5.683,176.308,11.499
15:33:21:012,0.707,-0.606,-0.006,0.111,5.683,176.308,11.499
15:33:21:039,0.734,-0.606,-0.006,0.111,5.683,176.308,11.499
15:33:21:066,0.761,-0.692,0.418,0.524,5.766,178.020,9.219
15:33:21:093,0.788,-0.452,0.381,0.628,5.879,178.306,8.142
15:33:21:12,0.815,-0.373,0.263,0.598,5.820,177.892,5.826
15:33:21:148,0.843,-0.179,-0.126,0.456,5.473,177.079,2.882
15:33:21:176,0.871,-0.179,-0.126,0.456,5.473,177.079,2.882
15:33:21:202,0.897,-0.213,-0.449,0.315,3.475,177.192,-2.568
15:33:21:23,0.925,0.014,-0.283,0.387,2.290,179.243,-4.822
15:33:21:258,0.953,0.094,-0.106,0.428,0.493,-176.586,-8.512
15:33:21:284,0.979,0.172,0.029,0.419,-1.059,-172.403,-12.523
15:33:21:312,1.007,0.294,0.033,0.408,-1.835,-169.673,-15.351
15:33:21:338,1.033,0.294,0.033,0.408,-1.835,-169.673,-15.351
15:33:21:366,1.061,0.494,0.084,0.235,-3.468,-163.126,-22.366
15:33:21:393,1.088,0.543,0.064,0.184,-3.565,-158.807,-26.374
15:33:21:421,1.116,0.790,0.117,0.096,-2.965,-154.765,-29.904
15:33:21:448,1.142,0.840,0.117,0.061,-2.564,-152.852,-31.854
15:33:21:475,1.170,0.722,-0.125,0.002,-2.407,-151.594,-34.499
15:33:21:502,1.197,0.526,-0.195,-0.057,-3.130,-151.683,-36.103
15:33:21:529,1.224,0.432,-0.144,-0.081,-5.379,-152.343,-38.133
15:33:21:556,1.251,0.438,-0.078,-0.201,-6.843,-152.510,-39.164
15:33:21:583,1.278,0.452,-0.083,-0.241,-7.783,-152.000,-39.911
15:33:21:611,1.306,0.387,-0.149,-0.257,-7.376,-151.305,-39.612
15:33:21:638,1.333,0.361,-0.064,-0.224,-6.744,-150.974,-38.725
15:33:21:665,1.360,0.241,0.024,-0.197,-5.018,-150.346,-33.942
15:33:21:692,1.387,0.241,0.024,-0.197,-5.018,-150.346,-33.942
15:33:21:719,1.414,0.241,0.024,-0.197,-5.018,-150.346,-33.942
15:33:21:746,1.441,-0.072,-0.305,-0.077,-0.209,-148.069,-21.947
15:33:21:774,1.469,-0.072,-0.305,-0.077,-0.209,-148.069,-21.947
15:33:21:801,1.496,-0.105,-0.184,0.058,2.544,-147.050,-13.078
15:33:21:828,1.523,-0.176,-0.154,0.104,3.257,-146.316,-10.106
15:33:21:855,1.550,-0.176,-0.154,0.104,3.257,-146.316,-10.106
15:33:21:883,1.578,-0.176,-0.154,0.104,3.257,-146.316,-10.106
15:33:21:909,1.604,-0.317,-0.022,0.296,5.729,-139.881,-0.123
15:33:21:937,1.632,-0.317,-0.022,0.296,5.729,-139.881,-0.123
15:33:21:963,1.658,-0.255,0.209,0.436,6.809,-137.373,4.275
15:33:21:991,1.686,-0.255,0.209,0.436,6.809,-137.373,4.275
15:33:22:018,1.713,-0.313,0.096,0.537,7.577,-137.261,6.283
15:33:22:045,1.740,-0.313,0.096,0.537,7.577,-137.261,6.283
15:33:22:073,1.768,-0.313,0.096,0.537,7.577,-137.261,6.283
15:33:22:099,1.794,-0.344,0.018,0.589,8.050,-137.567,7.203
15:33:22:127,1.822,-0.160,0.408,0.715,5.975,-133.934,6.636
15:33:22:154,1.849,-0.160,0.408,0.715,5.975,-133.934,6.636
15:33:22:181,1.876,0.233,0.425,0.591,4.419,-130.365,3.179
15:33:22:208,1.903,0.232,0.316,0.386,3.724,-128.883,1.142
15:33:22:235,1.930,0.232,0.316,0.386,3.724,-128.883,1.142
15:33:22:262,1.957,0.228,0.061,0.108,0.968,-124.656,-6.569
15:33:22:29,1.985,0.135,-0.190,0.103,-2.597,-122.521,-14.753
15:33:22:317,2.012,0.135,-0.190,0.103,-2.597,-122.521,-14.753
15:33:22:345,2.040,0.261,-0.101,-0.092,-7.175,-118.748,-23.626
15:33:22:372,2.066,0.261,-0.101,-0.092,-7.175,-118.748,-23.626
15:33:22:399,2.094,0.320,-0.046,-0.263,-11.033,-113.243,-31.780
15:33:22:426,2.121,0.361,-0.138,-0.355,-12.073,-109.446,-36.020
15:33:22:453,2.148,0.354,-0.145,-0.435,-12.442,-107.201,-38.482
15:33:22:481,2.176,0.354,-0.145,-0.435,-12.442,-107.201,-38.482
15:33:22:508,2.203,0.327,-0.133,-0.580,-12.410,-102.817,-43.667
15:33:22:535,2.230,0.313,-0.170,-0.556,-12.183,-102.207,-44.468
15:33:22:562,2.257,0.313,-0.170,-0.556,-12.183,-102.207,-44.468
15:33:22:589,2.284,-0.006,-0.112,-0.443,-11.831,-101.834,-44.623
15:33:22:616,2.311,-0.006,-0.112,-0.443,-11.831,-101.834,-44.623
15:33:22:643,2.338,0.090,0.009,-0.573,-7.043,-100.915,-41.677
15:33:22:67,2.365,0.090,0.009,-0.573,-7.043,-100.915,-41.677
15:33:22:698,2.393,0.090,0.009,-0.573,-7.043,-100.915,-41.677
15:33:22:724,2.419,0.061,0.112,-0.361,-2.819,-102.932,-32.771
15:33:22:752,2.447,0.061,0.112,-0.361,-2.819,-102.932,-32.771
15:33:22:778,2.473,-0.060,-0.033,-0.009,-0.760,-105.568,-25.297
15:33:22:806,2.501,-0.060,-0.033,-0.009,-0.760,-105.568,-25.297
15:33:22:833,2.528,-0.060,-0.033,-0.009,-0.760,-105.568,-25.297
15:33:22:86,2.555,-0.031,-0.207,0.162,1.900,-106.086,-18.021
15:33:22:887,2.582,0.076,0.007,0.224,4.335,-103.927,-9.601
15:33:22:914,2.609,0.076,0.007,0.224,4.335,-103.927,-9.601
15:33:22:942,2.637,0.076,0.007,0.224,4.335,-103.927,-9.601
15:33:22:969,2.664,0.076,0.007,0.224,4.335,-103.927,-9.601
15:33:22:996,2.691,0.076,0.007,0.224,4.335,-103.927,-9.601
15:33:23:023,2.718,0.076,0.007,0.224,4.335,-103.927,-9.601
15:33:23:051,2.746,-0.035,-0.204,0.563,6.938,-98.797,3.207
15:33:23:078,2.772,0.038,-0.181,0.646,7.560,-95.560,7.731
15:33:23:104,2.799,0.057,-0.269,0.636,7.724,-92.399,10.783
15:33:23:132,2.827,0.057,-0.269,0.636,7.724,-92.399,10.783
15:33:23:159,2.854,0.229,-0.064,0.657,7.095,-90.017,11.676
15:33:23:186,2.881,0.458,0.565,1.025,6.317,-88.336,11.972
15:33:23:213,2.908,0.458,0.565,1.025,6.317,-88.336,11.972
15:33:23:241,2.936,0.458,0.565,1.025,6.317,-88.336,11.972
15:33:23:268,2.963,0.665,0.344,0.465,5.525,-80.425,9.945
15:33:23:323,3.018,0.581,0.394,0.161,4.749,-77.992,8.204
15:33:23:349,3.044,0.581,0.394,0.161,4.749,-77.992,8.204
15:33:23:377,3.072,0.581,0.394,0.161,4.749,-77.992,8.204
15:33:23:404,3.099,0.581,0.394,0.161,4.749,-77.992,8.204
15:33:23:431,3.126,0.346,-0.222,-0.146,2.141,-70.046,-2.460
15:33:23:458,3.153,0.370,-0.084,-0.022,-0.478,-67.373,-11.934
15:33:23:485,3.180,0.370,-0.084,-0.022,-0.478,-67.373,-11.934
15:33:23:512,3.207,0.370,-0.084,-0.022,-0.478,-67.373,-11.934
15:33:23:539,3.234,0.370,-0.084,-0.022,-0.478,-67.373,-11.934
15:33:23:567,3.262,0.370,-0.084,-0.022,-0.478,-67.373,-11.934
15:33:23:594,3.289,0.230,0.129,-0.413,-3.684,-63.367,-25.131
15:33:23:622,3.317,0.230,0.129,-0.413,-3.684,-63.367,-25.131
15:33:23:649,3.344,0.230,0.129,-0.413,-3.684,-63.367,-25.131
15:33:23:676,3.371,0.230,0.129,-0.413,-3.684,-63.367,-25.131
15:33:23:703,3.398,-0.108,0.108,-0.741,-8.899,-57.894,-41.883
15:33:23:73,3.425,-0.190,0.045,-0.733,-11.500,-58.026,-44.699
15:33:23:757,3.452,-0.142,-0.343,-0.386,-15.737,-58.100,-47.007
15:33:23:784,3.479,-0.420,-0.033,-0.495,-13.124,-51.827,-45.568
15:33:23:811,3.506,-0.420,-0.033,-0.495,-13.124,-51.827,-45.568
15:33:23:838,3.533,-0.434,-0.127,-0.331,-6.159,-49.201,-36.872
15:33:23:866,3.561,-0.290,-0.237,-0.217,-5.144,-50.257,-32.703
15:33:23:892,3.587,-0.164,-0.281,-0.077,-4.907,-51.594,-29.721
15:33:23:92,3.615,-0.045,-0.327,0.149,-4.604,-53.761,-25.137
15:33:23:947,3.642,-0.045,-0.327,0.149,-4.604,-53.761,-25.137
15:33:23:974,3.669,-0.045,-0.327,0.149,-4.604,-53.761,-25.137
15:33:24:001,3.696,-0.001,-0.105,0.260,-3.448,-55.460,-17.670
15:33:24:028,3.723,-0.001,-0.105,0.260,-3.448,-55.460,-17.670
15:33:24:055,3.750,0.248,0.055,0.270,-0.020,-54.581,-6.906
15:33:24:083,3.778,0.248,0.055,0.270,-0.020,-54.581,-6.906
15:33:24:11,3.805,0.248,0.055,0.270,-0.020,-54.581,-6.906
15:33:24:137,3.832,0.248,0.055,0.270,-0.020,-54.581,-6.906
15:33:24:164,3.859,0.248,0.055,0.270,-0.020,-54.581,-6.906
15:33:24:192,3.887,0.248,0.055,0.270,-0.020,-54.581,-6.906
15:33:24:219,3.914,0.248,0.055,0.270,-0.020,-54.581,-6.906
15:33:24:245,3.940,0.524,-0.140,0.385,3.275,-51.823,8.793
15:33:24:273,3.968,0.698,0.303,0.319,2.071,-50.161,9.466
15:33:24:3,3.995,0.608,0.470,0.200,0.874,-47.619,7.292
15:33:24:327,4.022,0.608,0.470,0.200,0.874,-47.619,7.292
15:33:24:354,4.049,0.307,0.369,0.034,-0.983,-43.179,1.270
15:33:24:381,4.076,0.307,0.369,0.034,-0.983,-43.179,1.270
15:33:24:408,4.103,0.307,0.369,0.034,-0.983,-43.179,1.270
15:33:24:436,4.131,0.143,-0.220,-0.008,-3.967,-39.487,-11.984
15:33:24:463,4.158,0.143,-0.220,-0.008,-3.967,-39.487,-11.984
15:33:24:49,4.185,0.143,-0.220,-0.008,-3.967,-39.487,-11.984
15:33:24:517,4.212,0.143,-0.220,-0.008,-3.967,-39.487,-11.984
15:33:24:544,4.239,0.143,-0.220,-0.008,-3.967,-39.487,-11.984
15:33:24:571,4.266,0.143,-0.220,-0.008,-3.967,-39.487,-11.984
15:33:24:598,4.293,0.014,-0.139,-0.144,-7.207,-38.433,-21.686
15:33:24:626,4.321,0.014,-0.139,-0.144,-7.207,-38.433,-21.686
15:33:24:652,4.347,-0.454,-0.019,-0.521,-10.712,-31.188,-39.742
15:33:24:68,4.375,-0.468,-0.200,-0.424,-17.126,-33.235,-49.474
15:33:24:71,4.405,-0.468,-0.200,-0.424,-17.126,-33.235,-49.474
15:33:24:737,4.432,-0.602,-0.024,-0.271,-20.337,-34.582,-49.567
15:33:24:765,4.460,-0.617,-0.045,-0.398,-18.971,-34.752,-47.788
15:33:24:792,4.487,-0.617,-0.045,-0.398,-18.971,-34.752,-47.788
15:33:24:819,4.514,-0.559,0.015,-0.408,-17.442,-35.412,-45.451
15:33:24:847,4.542,-0.514,0.017,-0.312,-16.330,-35.997,-43.185
15:33:24:874,4.569,-0.142,-0.029,0.029,-13.034,-38.372,-35.281
15:33:24:901,4.596,-0.142,-0.029,0.029,-13.034,-38.372,-35.281
15:33:24:929,4.624,-0.142,-0.029,0.029,-13.034,-38.372,-35.281
15:33:24:956,4.651,-0.142,-0.029,0.029,-13.034,-38.372,-35.281
15:33:24:983,4.678,-0.142,-0.029,0.029,-13.034,-38.372,-35.281
15:33:25:01,4.705,-0.142,-0.029,0.029,-13.034,-38.372,-35.281
15:33:25:037,4.732,0.241,0.065,0.156,-2.195,-43.022,-6.615
15:33:25:065,4.760,0.241,0.065,0.156,-2.195,-43.022,-6.615
15:33:25:092,4.787,0.507,0.106,0.415,-0.306,-37.825,1.427
15:33:25:119,4.814,0.423,0.032,0.300,0.143,-33.784,5.543
15:33:25:146,4.841,0.423,0.032,0.300,0.143,-33.784,5.543
15:33:25:173,4.868,0.612,0.082,0.411,0.312,-31.739,10.023
15:33:25:2,4.895,0.642,0.097,0.430,0.267,-31.537,11.133
15:33:25:227,4.922,0.642,0.097,0.430,0.267,-31.537,11.133
15:33:25:254,4.949,0.577,-0.082,0.311,-0.291,-30.668,12.025
15:33:25:281,4.976,0.694,0.163,0.368,-0.712,-30.529,11.565
15:33:25:308,5.003,0.670,0.246,0.376,-1.508,-29.547,10.447
15:33:25:335,5.030,0.721,0.377,0.295,-1.909,-28.278,9.486
15:33:25:362,5.057,0.628,0.383,0.118,-1.971,-26.616,7.591
15:33:25:389,5.084,0.559,0.394,-0.066,-1.509,-25.882,5.112
15:33:25:417,5.112,0.483,0.403,-0.145,-1.175,-25.751,3.091
15:33:25:443,5.138,0.483,0.403,-0.145,-1.175,-25.751,3.091
15:33:25:471,5.166,0.483,0.403,-0.145,-1.175,-25.751,3.091
15:33:25:498,5.193,0.077,-0.285,-0.067,-1.566,-24.864,-8.507
15:33:25:525,5.220,0.087,-0.259,-0.109,-2.378,-24.824,-12.211
15:33:25:553,5.248,0.067,-0.167,-0.178,-4.085,-24.454,-18.104
15:33:25:58,5.275,-0.321,-0.004,-0.356,-7.239,-21.735,-28.221
15:33:25:607,5.302,-0.457,0.040,-0.402,-9.050,-19.668,-34.165
15:33:25:634,5.329,-0.457,0.040,-0.402,-9.050,-19.668,-34.165
15:33:25:662,5.357,-0.661,-0.024,-0.454,-11.285,-16.895,-42.519
15:33:25:689,5.384,-0.680,-0.152,-0.461,-12.715,-16.424,-46.352
15:33:25:716,5.411,-0.601,-0.203,-0.386,-14.223,-16.791,-48.398
15:33:25:744,5.439,-0.601,-0.203,-0.386,-14.223,-16.791,-48.398
15:33:25:771,5.466,-0.433,-0.308,-0.190,-18.030,-18.284,-51.174
15:33:25:798,5.493,-0.442,-0.340,-0.135,-18.732,-18.628,-51.422
15:33:25:825,5.520,-0.543,-0.158,-0.144,-18.200,-18.693,-50.594
15:33:25:852,5.547,-0.623,0.054,-0.149,-17.006,-18.720,-49.328
15:33:25:879,5.574,-0.623,0.054,-0.149,-17.006,-18.720,-49.328
15:33:25:906,5.601,-0.623,0.054,-0.149,-17.006,-18.720,-49.328
15:33:25:934,5.629,-0.337,0.093,-0.081,-8.864,-20.273,-37.479
15:33:25:961,5.655,-0.093,0.056,0.066,-6.407,-20.670,-31.181
15:33:25:988,5.683,0.010,-0.029,0.077,-4.657,-20.141,-26.922
15:33:26:016,5.711,0.101,-0.171,0.070,-2.122,-17.731,-20.764
15:33:26:042,5.737,0.101,-0.171,0.070,-2.122,-17.731,-20.764
15:33:26:07,5.765,0.201,-0.054,-0.011,0.401,-11.115,-11.190
15:33:26:097,5.792,0.292,0.016,-0.009,0.726,-6.516,-5.896
15:33:26:124,5.819,0.402,0.067,0.043,0.534,-3.487,-2.616
15:33:26:151,5.846,0.537,-0.029,0.097,-0.206,0.956,1.800
15:33:26:178,5.873,0.597,-0.141,0.126,-0.949,3.814,4.297
15:33:26:205,5.900,0.675,-0.113,0.100,-2.363,7.781,7.232
15:33:26:233,5.928,0.785,-0.154,0.066,-5.031,14.775,10.260
15:33:26:26,5.955,0.785,-0.154,0.066,-5.031,14.775,10.260
15:33:26:288,5.983,0.785,-0.154,0.066,-5.031,14.775,10.260
15:33:26:315,6.010,0.555,0.089,-0.007,-6.463,21.077,10.302
15:33:26:342,6.037,0.859,0.525,-0.210,-5.543,21.561,10.147
15:33:26:369,6.064,0.753,0.509,-0.383,-4.192,21.655,10.112
15:33:26:396,6.091,0.753,0.509,-0.383,-4.192,21.655,10.112
15:33:26:424,6.119,0.343,0.690,-0.901,0.679,20.274,8.813
15:33:26:451,6.146,0.391,0.232,-0.777,3.685,18.094,6.048
15:33:26:478,6.173,0.391,0.232,-0.777,3.685,18.094,6.048
15:33:26:505,6.200,0.106,-0.169,-0.327,5.250,16.721,-1.568
15:33:26:532,6.227,-0.146,-0.193,-0.401,4.943,17.277,-7.104
15:33:26:559,6.254,-0.146,-0.193,-0.401,4.943,17.277,-7.104
15:33:26:586,6.281,-0.251,0.020,-0.657,3.495,18.895,-16.782
15:33:26:613,6.308,-0.441,0.048,-0.407,3.013,20.971,-20.794
15:33:26:64,6.335,-0.631,0.050,-0.337,2.421,24.039,-27.350
15:33:26:667,6.362,-0.852,0.215,-0.207,2.243,27.381,-33.743
15:33:26:695,6.389,-0.942,-0.119,0.033,5.741,34.024,-42.867
15:33:26:722,6.417,-0.942,-0.119,0.033,5.741,34.024,-42.867
15:33:26:749,6.444,-0.942,-0.119,0.033,5.741,34.024,-42.867
15:33:26:776,6.471,-0.942,-0.119,0.033,5.741,34.024,-42.867
15:33:26:804,6.499,-0.942,-0.119,0.033,5.741,34.024,-42.867
15:33:26:83,6.525,-0.572,-0.448,0.139,2.175,37.012,-56.381
15:33:26:857,6.552,-0.520,-0.465,0.256,-2.344,37.763,-58.883
15:33:26:884,6.579,-0.520,-0.465,0.256,-2.344,37.763,-58.883
15:33:26:912,6.607,-0.520,-0.465,0.256,-2.344,37.763,-58.883
15:33:26:939,6.634,-0.520,-0.465,0.256,-2.344,37.763,-58.883
15:33:26:966,6.661,-0.371,0.014,0.526,-8.500,40.555,-55.515
15:33:26:993,6.688,-0.096,-0.070,0.404,-4.643,41.962,-46.831
15:33:27:02,6.715,-0.096,-0.070,0.404,-4.643,41.962,-46.831
15:33:27:048,6.743,-0.096,-0.070,0.404,-4.643,41.962,-46.831
15:33:27:074,6.769,-0.023,-0.209,0.240,-0.397,44.413,-33.770
15:33:27:102,6.797,-0.023,-0.209,0.240,-0.397,44.413,-33.770
15:33:27:129,6.824,-0.023,-0.209,0.240,-0.397,44.413,-33.770
15:33:27:156,6.851,-0.023,-0.209,0.240,-0.397,44.413,-33.770
15:33:27:184,6.879,-0.023,-0.209,0.240,-0.397,44.413,-33.770
15:33:27:211,6.906,-0.023,-0.209,0.240,-0.397,44.413,-33.770
15:33:27:238,6.933,0.125,0.140,-0.085,2.288,50.870,-11.621
15:33:27:265,6.960,0.125,0.140,-0.085,2.288,50.870,-11.621
15:33:27:292,6.987,0.367,0.225,-0.393,3.355,59.091,5.261
15:33:27:32,7.015,0.367,0.225,-0.393,3.355,59.091,5.261
15:33:27:347,7.042,0.419,-0.056,-0.713,5.394,55.739,11.660
15:33:27:374,7.069,0.365,-0.229,-0.773,5.743,55.415,12.010
15:33:27:401,7.096,0.274,0.188,-0.883,4.624,58.826,11.162
15:33:27:429,7.124,0.013,0.395,-0.751,3.764,62.549,9.686
15:33:27:456,7.151,0.013,0.395,-0.751,3.764,62.549,9.686
15:33:27:483,7.178,-0.256,0.438,-0.600,3.422,66.967,5.464
15:33:27:51,7.205,-0.306,0.423,-0.432,3.358,68.116,3.255
15:33:27:538,7.233,-0.306,0.423,-0.432,3.358,68.116,3.255
15:33:27:565,7.260,-0.306,0.423,-0.432,3.358,68.116,3.255
15:33:27:592,7.287,-0.145,-0.215,-0.238,2.296,68.433,-8.617
15:33:27:619,7.314,-0.228,-0.114,-0.165,1.141,69.085,-13.958
15:33:27:647,7.342,-0.411,0.049,0.073,0.456,70.321,-17.608
15:33:27:674,7.369,-0.420,0.078,0.269,-0.603,74.419,-26.432
15:33:27:701,7.396,-0.420,0.078,0.269,-0.603,74.419,-26.432
15:33:27:728,7.423,-0.420,0.078,0.269,-0.603,74.419,-26.432
15:33:27:756,7.451,-0.377,-0.112,0.542,-0.537,80.871,-39.750
15:33:27:783,7.478,-0.444,-0.113,0.665,-0.737,82.267,-44.024
15:33:27:81,7.505,-0.444,-0.113,0.665,-0.737,82.267,-44.024
15:33:27:837,7.532,-0.470,-0.143,0.748,-0.919,82.834,-46.384
15:33:27:864,7.559,-0.286,-0.331,0.529,-3.981,82.184,-51.333
15:33:27:892,7.587,-0.286,-0.331,0.529,-3.981,82.184,-51.333
15:33:27:919,7.614,-0.286,-0.331,0.529,-3.981,82.184,-51.333
15:33:27:946,7.641,-0.176,-0.133,0.667,-7.420,82.002,-52.631
15:33:27:973,7.668,-0.167,-0.086,0.609,-6.149,82.436,-50.994
15:33:28:,7.695,-0.030,-0.056,0.473,-4.033,82.693,-48.132
15:33:28:028,7.723,0.022,-0.013,0.343,-2.459,82.889,-45.499
15:33:28:055,7.750,0.022,-0.013,0.343,-2.459,82.889,-45.499
15:33:28:082,7.777,0.088,-0.083,0.020,1.792,84.691,-36.916
15:33:28:109,7.804,0.138,-0.245,-0.084,4.219,87.314,-31.023
15:33:28:137,7.831,0.138,-0.245,-0.084,4.219,87.314,-31.023
15:33:28:163,7.858,0.004,-0.113,-0.098,6.618,93.611,-20.932
15:33:28:191,7.886,-0.046,-0.017,-0.217,7.172,98.111,-14.742
15:33:28:217,7.912,-0.076,0.039,-0.221,7.235,101.390,-10.628
15:33:28:245,7.940,-0.115,0.132,-0.276,6.721,106.141,-4.633
15:33:28:272,7.967,-0.058,0.078,-0.466,5.839,110.283,0.777
15:33:28:3,7.995,-0.058,0.078,-0.466,5.839,110.283,0.777
15:33:28:327,8.022,-0.132,-0.001,-0.608,4.320,115.701,7.902
15:33:28:354,8.049,-0.176,-0.045,-0.635,3.884,117.032,10.048
15:33:28:381,8.076,-0.224,-0.087,-0.666,3.577,118.187,12.589
15:33:28:408,8.103,-0.297,-0.179,-0.674,3.672,118.788,14.404
15:33:28:436,8.131,-0.297,-0.179,-0.674,3.672,118.788,14.404
15:33:28:462,8.157,-0.297,-0.179,-0.674,3.672,118.788,14.404
15:33:28:49,8.185,-0.297,-0.179,-0.674,3.672,118.788,14.404
15:33:28:517,8.212,-0.297,-0.179,-0.674,3.672,118.788,14.404
15:33:28:544,8.239,-0.778,0.354,-0.807,3.656,120.864,15.093
15:33:28:571,8.266,-0.884,0.498,-0.191,3.616,125.725,12.963
15:33:28:598,8.293,-0.884,0.498,-0.191,3.616,125.725,12.963
15:33:28:625,8.320,-0.269,-0.020,0.194,4.045,133.122,2.642
15:33:28:652,8.347,-0.269,-0.020,0.194,4.045,133.122,2.642
15:33:28:679,8.374,-0.269,-0.020,0.194,4.045,133.122,2.642
15:33:28:707,8.402,-0.269,-0.020,0.194,4.045,133.122,2.642
15:33:28:734,8.429,-0.144,-0.023,0.411,-0.039,132.011,-19.261
15:33:28:762,8.457,-0.072,0.075,0.376,-2.973,131.777,-26.040
15:33:28:788,8.483,-0.072,0.075,0.376,-2.973,131.777,-26.040
15:33:28:816,8.511,0.200,-0.013,0.587,-6.354,134.796,-36.322
15:33:28:843,8.538,0.277,-0.073,0.656,-7.132,137.026,-41.528
15:33:28:869,8.564,0.277,-0.073,0.656,-7.132,137.026,-41.528
15:33:28:897,8.592,0.277,-0.073,0.656,-7.132,137.026,-41.528
15:33:28:924,8.619,0.378,-0.214,0.669,-8.322,138.865,-49.223
15:33:28:951,8.646,0.378,-0.214,0.669,-8.322,138.865,-49.223
15:33:28:978,8.673,0.371,-0.209,0.332,-12.355,137.778,-51.105
15:33:29:005,8.700,0.475,-0.128,0.286,-12.368,138.934,-50.338
15:33:29:032,8.727,0.467,-0.231,0.403,-10.979,139.805,-49.714
15:33:29:059,8.754,0.467,-0.231,0.403,-10.979,139.805,-49.714
15:33:29:087,8.782,0.411,-0.016,0.453,-7.424,141.111,-45.224
15:33:29:113,8.808,0.411,-0.016,0.453,-7.424,141.111,-45.224
15:33:29:141,8.836,0.244,0.016,0.112,-5.785,139.966,-37.495
15:33:29:167,8.862,0.112,-0.066,0.052,-5.122,138.962,-33.788
15:33:29:195,8.890,0.050,-0.166,0.015,-4.068,137.129,-28.077
15:33:29:222,8.916,0.050,-0.166,0.015,-4.068,137.129,-28.077
15:33:29:249,8.944,-0.086,-0.155,-0.169,-2.280,134.707,-18.474
15:33:29:276,8.971,-0.164,-0.008,-0.311,-1.021,134.967,-12.693
15:33:29:303,8.998,-0.213,-0.007,-0.336,-0.054,135.819,-9.036
15:33:29:33,9.025,-0.213,-0.007,-0.336,-0.054,135.819,-9.036
15:33:29:357,9.052,-0.213,-0.007,-0.336,-0.054,135.819,-9.036
15:33:29:384,9.079,-0.213,-0.007,-0.336,-0.054,135.819,-9.036
15:33:29:412,9.107,-0.213,-0.007,-0.336,-0.054,135.819,-9.036
15:33:29:439,9.134,-0.638,0.166,-0.456,3.127,140.473,7.729
15:33:29:466,9.161,-0.638,0.166,-0.456,3.127,140.473,7.729
15:33:29:493,9.188,-0.638,0.166,-0.456,3.127,140.473,7.729
15:33:29:52,9.215,-0.683,-0.097,-0.366,3.432,144.119,14.658
15:33:29:547,9.242,-0.758,0.062,-0.430,2.726,144.444,14.408
15:33:29:574,9.269,-0.738,0.089,-0.307,1.016,146.124,12.304
15:33:29:601,9.296,-0.685,0.228,-0.140,0.369,147.112,10.823
15:33:29:629,9.324,-0.685,0.228,-0.140,0.369,147.112,10.823
15:33:29:656,9.351,-0.685,0.228,-0.140,0.369,147.112,10.823
15:33:29:683,9.378,-0.286,0.283,0.095,-1.610,153.806,1.785
15:33:29:711,9.406,-0.286,0.283,0.095,-1.610,153.806,1.785
15:33:29:739,9.434,-0.023,-0.117,0.114,-2.123,157.814,-6.257
15:33:29:766,9.461,-0.023,-0.117,0.114,-2.123,157.814,-6.257
15:33:29:793,9.488,-0.023,-0.117,0.114,-2.123,157.814,-6.257
15:33:29:82,9.515,0.156,-0.129,0.192,-5.163,160.854,-22.468
15:33:29:848,9.543,0.245,-0.051,0.236,-7.419,161.446,-28.957
15:33:29:875,9.570,0.371,0.006,0.265,-9.050,161.973,-33.128
15:33:29:902,9.597,0.480,-0.040,0.283,-11.351,163.051,-39.119
15:33:29:929,9.624,0.480,-0.040,0.283,-11.351,163.051,-39.119
15:33:29:956,9.651,0.583,-0.181,0.300,-15.476,164.311,-47.851
15:33:29:983,9.678,0.625,-0.201,0.254,-18.433,164.441,-51.705
15:33:30:01,9.705,0.617,-0.231,0.181,-20.324,164.325,-53.512
15:33:30:037,9.732,0.517,-0.268,0.068,-22.370,164.020,-55.051
15:33:30:065,9.760,0.741,-0.082,0.117,-22.895,163.847,-55.295
15:33:30:092,9.787,0.741,-0.082,0.117,-22.895,163.847,-55.295
15:33:30:119,9.814,0.827,0.073,0.236,-19.110,162.839,-52.075
15:33:30:146,9.841,0.664,0.103,0.203,-14.302,159.735,-45.314
15:33:30:173,9.868,0.664,0.103,0.203,-14.302,159.735,-45.314
15:33:30:201,9.895,0.321,-0.027,0.167,-10.564,154.256,-36.364
15:33:30:227,9.922,0.108,-0.123,0.098,-8.360,150.405,-30.403
15:33:30:255,9.950,0.108,-0.123,0.098,-8.360,150.405,-30.403
15:33:30:282,9.977,0.040,-0.489,0.168,-4.333,145.008,-21.132
15:33:30:309,10.004,-0.296,-0.204,-0.187,-2.050,142.118,-16.143
15:33:30:336,10.031,-0.295,-0.100,-0.093,-0.466,141.513,-12.917
15:33:30:363,10.058,-0.295,-0.100,-0.093,-0.466,141.513,-12.917
15:33:30:39,10.085,-0.560,0.178,-0.263,2.964,140.751,-4.088
15:33:30:417,10.112,-0.666,0.145,-0.313,4.840,141.569,1.105
15:33:30:445,10.140,-0.801,0.166,-0.302,5.941,142.336,4.305
15:33:30:472,10.167,-0.878,0.078,-0.321,7.258,144.051,8.736
15:33:30:499,10.194,-0.981,-0.081,-0.398,7.960,146.584,12.634
15:33:30:526,10.221,-0.927,-0.212,-0.317,7.917,148.865,14.787
15:33:30:553,10.248,-0.818,-0.300,-0.232,7.079,152.495,16.871
15:33:30:581,10.276,-0.827,-0.117,-0.200,6.062,154.739,17.480
15:33:30:608,10.303,-0.976,0.160,-0.226,4.211,157.990,17.540
15:33:30:634,10.329,-0.876,0.184,-0.080,2.897,161.310,16.616
15:33:30:662,10.357,-0.852,0.228,0.001,2.549,162.866,15.322
15:33:30:689,10.384,-0.782,0.361,0.140,2.356,164.677,12.450
15:33:30:717,10.412,-0.512,0.395,0.249,2.210,166.146,8.538
15:33:30:744,10.439,-0.512,0.395,0.249,2.210,166.146,8.538
15:33:30:771,10.466,-0.223,0.049,0.219,1.881,165.600,0.168
15:33:30:799,10.494,-0.276,-0.127,0.171,1.288,164.415,-3.646
15:33:30:826,10.521,-0.276,-0.127,0.171,1.288,164.415,-3.646
15:33:30:854,10.549,-0.010,0.050,0.286,-1.495,165.948,-15.966
15:33:30:881,10.576,0.245,0.172,0.454,-2.132,168.223,-19.982
15:33:30:908,10.603,0.394,0.200,0.432,-2.584,171.870,-25.664
15:33:30:935,10.630,0.611,-0.159,0.348,-1.762,177.789,-34.803
15:33:30:962,10.657,0.611,-0.159,0.348,-1.762,177.789,-34.803
15:33:30:989,10.684,0.611,-0.159,0.348,-1.762,177.789,-34.803
15:33:31:016,10.711,0.765,-0.279,0.277,-4.880,179.637,-47.521
15:33:31:043,10.738,0.765,-0.279,0.277,-4.880,179.637,-47.521
15:33:31:07,10.765,0.703,-0.367,0.069,-8.679,178.608,-53.448
15:33:31:098,10.793,0.840,-0.292,0.074,-9.659,178.074,-55.219
15:33:31:125,10.820,0.840,-0.292,0.074,-9.659,178.074,-55.219
15:33:31:152,10.847,0.592,-0.183,-0.002,-9.165,175.861,-53.887
15:33:31:179,10.874,0.569,-0.100,-0.067,-8.825,174.471,-51.826
15:33:31:206,10.901,0.525,0.056,-0.097,-7.675,172.913,-47.544
15:33:31:233,10.928,0.406,0.225,-0.013,-5.315,171.769,-41.919
15:33:31:26,10.955,0.308,0.109,0.059,-3.130,171.580,-37.542
15:33:31:288,10.983,0.077,-0.141,0.074,0.865,171.772,-25.743
15:33:31:315,11.010,0.077,-0.141,0.074,0.865,171.772,-25.743
15:33:31:343,11.038,-0.359,0.086,0.033,2.702,173.231,-13.396
15:33:31:369,11.064,-0.359,0.086,0.033,2.702,173.231,-13.396
15:33:31:397,11.092,-0.359,0.086,0.033,2.702,173.231,-13.396
15:33:31:424,11.119,-0.359,0.086,0.033,2.702,173.231,-13.396
15:33:31:452,11.147,-0.773,-0.113,0.163,4.454,-169.249,11.676
15:33:31:479,11.174,-0.700,-0.110,0.121,4.334,-167.663,14.704
15:33:31:506,11.201,-0.700,-0.110,0.121,4.334,-167.663,14.704
15:33:31:533,11.228,-0.879,-0.323,0.312,5.206,-166.841,19.882
15:33:31:563,11.258,-0.879,-0.323,0.312,5.206,-166.841,19.882
15:33:31:59,11.285,-0.879,-0.323,0.312,5.206,-166.841,19.882
15:33:31:617,11.312,-0.899,0.413,0.596,2.103,-161.731,16.339
15:33:31:645,11.340,-0.899,0.413,0.596,2.103,-161.731,16.339
15:33:31:672,11.367,-0.899,0.413,0.596,2.103,-161.731,16.339
15:33:31:699,11.394,-0.899,0.413,0.596,2.103,-161.731,16.339
15:33:31:727,11.422,-0.899,0.413,0.596,2.103,-161.731,16.339
15:33:31:753,11.448,-0.899,0.413,0.596,2.103,-161.731,16.339
15:33:31:781,11.476,-0.899,0.413,0.596,2.103,-161.731,16.339
15:33:31:808,11.503,-0.899,0.413,0.596,2.103,-161.731,16.339
15:33:31:835,11.530,-0.071,0.626,0.735,1.559,-155.994,6.627
15:33:31:862,11.557,0.416,-0.116,0.134,-0.514,-141.263,-16.194
15:33:31:89,11.584,0.416,-0.116,0.134,-0.514,-141.263,-16.194
15:33:31:916,11.611,0.569,0.164,-0.028,-1.666,-134.357,-29.257
15:33:31:943,11.638,0.628,0.055,-0.177,-1.818,-132.439,-33.472
15:33:31:971,11.666,0.697,-0.157,-0.285,-1.699,-129.796,-39.359
15:33:31:998,11.693,0.720,-0.174,-0.342,-1.946,-128.671,-43.072
15:33:32:025,11.720,0.720,-0.174,-0.342,-1.946,-128.671,-43.072
15:33:32:052,11.747,0.728,-0.221,-0.458,-4.184,-127.437,-50.979
15:33:32:079,11.774,0.688,-0.285,-0.436,-7.055,-127.567,-54.510
15:33:32:106,11.801,0.688,-0.285,-0.436,-7.055,-127.567,-54.510
15:33:32:134,11.829,0.346,-0.274,-0.398,-13.298,-127.774,-57.966
15:33:32:16,11.855,0.262,-0.280,-0.414,-14.880,-127.026,-58.685
15:33:32:188,11.883,0.324,-0.268,-0.530,-13.392,-125.583,-58.563
15:33:32:215,11.910,0.424,-0.221,-0.589,-11.511,-124.631,-57.982
15:33:32:243,11.938,0.445,-0.192,-0.483,-7.194,-123.494,-53.583
15:33:32:27,11.965,0.445,-0.192,-0.483,-7.194,-123.494,-53.583
15:33:32:297,11.992,0.116,0.060,-0.389,-6.524,-123.906,-48.288
15:33:32:324,12.019,0.116,0.060,-0.389,-6.524,-123.906,-48.288
15:33:32:351,12.046,0.116,0.060,-0.389,-6.524,-123.906,-48.288
15:33:32:379,12.074,-0.073,-0.081,-0.017,-1.159,-123.227,-30.043
15:33:32:406,12.101,-0.072,-0.095,0.054,0.277,-122.090,-25.183
15:33:32:433,12.128,-0.072,-0.095,0.054,0.277,-122.090,-25.183
15:33:32:461,12.156,-0.072,-0.095,0.054,0.277,-122.090,-25.183
15:33:32:489,12.184,-0.072,-0.095,0.054,0.277,-122.090,-25.183
15:33:32:517,12.212,-0.329,0.134,0.689,2.966,-108.793,5.743
15:33:32:544,12.239,-0.268,0.016,0.619,2.289,-103.723,10.958
15:33:32:571,12.266,-0.321,-0.087,0.674,1.692,-101.102,13.547
15:33:32:598,12.293,-0.307,-0.110,0.721,0.780,-98.401,16.345
15:33:32:625,12.320,-0.307,-0.110,0.721,0.780,-98.401,16.345
15:33:32:652,12.347,-0.159,-0.128,0.777,-0.885,-93.635,18.456
15:33:32:68,12.374,-0.159,-0.128,0.777,-0.885,-93.635,18.456
15:33:32:706,12.401,-0.075,-0.202,0.691,-1.874,-90.568,18.363
15:33:32:733,12.428,-0.050,-0.064,0.777,-2.484,-89.182,17.900
15:33:32:761,12.456,-0.050,-0.064,0.777,-2.484,-89.182,17.900
15:33:32:788,12.483,-0.050,-0.064,0.777,-2.484,-89.182,17.900
15:33:32:815,12.510,0.783,0.556,0.728,0.342,-85.612,11.007
15:33:32:842,12.537,0.783,0.556,0.728,0.342,-85.612,11.007
15:33:32:869,12.564,0.783,0.556,0.728,0.342,-85.612,11.007
15:33:32:896,12.591,0.590,0.006,0.032,3.129,-82.010,-0.503
15:33:32:923,12.618,0.590,0.006,0.032,3.129,-82.010,-0.503
15:33:32:95,12.645,0.439,0.181,-0.526,1.792,-71.874,-13.343
15:33:32:977,12.672,0.439,0.181,-0.526,1.792,-71.874,-13.343
15:33:33:005,12.700,0.392,0.343,-0.628,0.003,-69.531,-19.290
15:33:33:032,12.727,0.153,0.089,-0.565,-1.549,-66.716,-25.286
15:33:33:059,12.754,0.140,-0.123,-0.615,-2.513,-65.020,-29.471
15:33:33:086,12.781,0.140,-0.123,-0.615,-2.513,-65.020,-29.471
15:33:33:114,12.808,-0.256,-0.340,-0.833,-11.008,-63.111,-45.159
15:33:33:14,12.835,-0.304,-0.523,-0.907,-14.475,-63.890,-49.425
15:33:33:168,12.863,-0.226,-0.494,-0.815,-17.115,-65.214,-51.308
15:33:33:195,12.890,-0.201,-0.346,-0.384,-21.006,-67.335,-52.993
15:33:33:222,12.917,-0.494,-0.200,-0.545,-21.917,-67.860,-53.219
15:33:33:249,12.944,-0.644,-0.028,-0.789,-19.869,-67.532,-52.100
15:33:33:276,12.971,-0.402,0.121,-0.717,-15.874,-67.832,-49.152
15:33:33:303,12.998,-0.402,0.121,-0.717,-15.874,-67.832,-49.152
15:33:33:33,13.025,-0.173,0.239,-0.364,-9.538,-69.885,-38.980
15:33:33:358,13.053,-0.173,0.239,-0.364,-9.538,-69.885,-38.980
15:33:33:385,13.080,-0.057,0.281,0.015,-4.927,-71.816,-24.942
15:33:33:412,13.107,0.067,0.081,0.211,-1.722,-70.955,-16.180
15:33:33:44,13.135,0.067,0.081,0.211,-1.722,-70.955,-16.180
15:33:33:467,13.162,0.067,0.081,0.211,-1.722,-70.955,-16.180
15:33:33:494,13.189,0.292,-0.181,0.325,3.013,-54.178,8.052
15:33:33:521,13.216,0.292,-0.181,0.325,3.013,-54.178,8.052
15:33:33:548,13.243,0.292,-0.181,0.325,3.013,-54.178,8.052
15:33:33:576,13.271,0.292,-0.181,0.325,3.013,-54.178,8.052
15:33:33:603,13.298,0.292,-0.181,0.325,3.013,-54.178,8.052
15:33:33:63,13.325,0.453,-0.234,0.730,-1.271,-43.819,20.630
15:33:33:658,13.353,0.453,-0.234,0.730,-1.271,-43.819,20.630
15:33:33:685,13.380,0.453,-0.234,0.730,-1.271,-43.819,20.630
15:33:33:712,13.407,0.462,-0.181,0.457,-1.565,-42.473,20.031
15:33:33:739,13.434,0.462,-0.181,0.457,-1.565,-42.473,20.031
15:33:33:767,13.462,0.721,0.457,0.127,-0.412,-44.404,13.826
15:33:33:794,13.489,0.721,0.457,0.127,-0.412,-44.404,13.826
15:33:33:821,13.516,0.721,0.457,0.127,-0.412,-44.404,13.826
15:33:33:849,13.544,0.637,0.606,-0.244,0.445,-44.989,10.587
15:33:33:876,13.571,0.704,0.498,0.313,1.372,-51.092,2.836
15:33:33:903,13.598,0.292,0.253,-0.191,-0.822,-48.905,-5.254
15:33:33:931,13.626,0.217,-0.053,-0.191,-2.307,-46.335,-10.322
15:33:33:959,13.654,0.217,-0.053,-0.191,-2.307,-46.335,-10.322
15:33:33:986,13.681,-0.090,-0.176,-0.333,-5.353,-40.045,-20.263
15:33:34:013,13.708,-0.090,-0.176,-0.333,-5.353,-40.045,-20.263
15:33:34:04,13.735,-0.259,0.038,-0.451,-9.300,-35.061,-31.515
15:33:34:067,13.762,-0.386,-0.044,-0.501,-10.765,-31.236,-37.926
15:33:34:094,13.789,-0.454,-0.179,-0.472,-11.736,-28.053,-43.845
15:33:34:122,13.817,-0.497,-0.245,-0.461,-12.482,-26.394,-47.561
15:33:34:149,13.844,-0.582,-0.296,-0.457,-14.658,-24.867,-52.450
15:33:34:177,13.872,-0.582,-0.296,-0.457,-14.658,-24.867,-52.450
15:33:34:204,13.899,-0.647,-0.315,-0.403,-20.224,-23.700,-58.294
15:33:34:231,13.926,-0.647,-0.315,-0.403,-20.224,-23.700,-58.294
15:33:34:258,13.953,-0.647,-0.315,-0.403,-20.224,-23.700,-58.294
15:33:34:285,13.980,-0.584,-0.317,-0.268,-23.210,-23.229,-60.241
15:33:34:312,14.007,-0.800,-0.047,-0.305,-22.577,-22.599,-59.837
15:33:34:34,14.035,-0.800,-0.047,-0.305,-22.577,-22.599,-59.837
15:33:34:367,14.062,-0.800,-0.047,-0.305,-22.577,-22.599,-59.837
15:33:34:394,14.089,-0.800,-0.047,-0.305,-22.577,-22.599,-59.837
15:33:34:421,14.116,-0.800,-0.047,-0.305,-22.577,-22.599,-59.837
15:33:34:448,14.143,-0.378,-0.027,-0.136,-10.750,-28.606,-42.204
15:33:34:475,14.170,0.082,-0.252,0.095,-6.921,-36.177,-26.293
15:33:34:502,14.197,0.120,-0.217,0.213,-5.221,-38.293,-19.869
15:33:34:529,14.224,0.120,-0.217,0.213,-5.221,-38.293,-19.869
15:33:34:557,14.251,0.340,0.144,0.189,-1.683,-38.321,-10.104
15:33:34:584,14.279,0.471,0.174,0.291,-0.106,-38.916,-4.774
15:33:34:612,14.307,0.471,0.174,0.291,-0.106,-38.916,-4.774
15:33:34:638,14.333,0.471,0.174,0.291,-0.106,-38.916,-4.774
15:33:34:666,14.361,0.743,0.323,0.350,3.458,-39.443,6.170
15:33:34:693,14.388,0.743,0.323,0.350,3.458,-39.443,6.170
15:33:34:72,14.415,0.862,0.298,0.368,4.208,-39.423,8.061
15:33:34:747,14.442,0.763,-0.141,0.390,5.496,-39.753,10.798
15:33:34:774,14.469,0.763,-0.141,0.390,5.496,-39.753,10.798
15:33:34:801,14.496,0.763,-0.141,0.390,5.496,-39.753,10.798
15:33:34:829,14.524,0.787,0.114,0.302,3.512,-39.333,8.945
15:33:34:855,14.550,0.787,0.114,0.302,3.512,-39.333,8.945
15:33:34:883,14.578,0.787,0.114,0.302,3.512,-39.333,8.945
15:33:34:91,14.605,0.542,0.471,-0.081,0.208,-32.593,2.642
15:33:34:937,14.632,0.542,0.471,-0.081,0.208,-32.593,2.642
15:33:34:965,14.660,0.542,0.471,-0.081,0.208,-32.593,2.642
15:33:34:991,14.686,0.017,-0.089,-0.108,-2.276,-23.602,-9.028
15:33:35:019,14.714,0.009,-0.185,-0.113,-3.036,-22.074,-12.745
15:33:35:046,14.741,-0.064,-0.156,-0.180,-4.510,-20.141,-18.740
15:33:35:073,14.768,-0.163,-0.122,-0.195,-6.333,-18.389,-24.969
15:33:35:1,14.795,-0.208,-0.119,-0.198,-7.631,-17.218,-29.157
15:33:35:127,14.822,-0.285,-0.161,-0.211,-9.454,-15.292,-35.323
15:33:35:154,14.849,-0.285,-0.161,-0.211,-9.454,-15.292,-35.323
15:33:35:181,14.876,-0.426,-0.152,-0.262,-10.463,-13.945,-39.281
15:33:35:208,14.903,-0.778,-0.084,-0.362,-12.803,-11.218,-49.337
15:33:35:236,14.931,-0.724,-0.268,-0.346,-16.577,-12.538,-54.392
15:33:35:262,14.957,-0.523,-0.266,-0.170,-19.210,-13.812,-55.514
15:33:35:29,14.985,-0.523,-0.266,-0.170,-19.210,-13.812,-55.514
15:33:35:317,15.012,-0.523,-0.266,-0.170,-19.210,-13.812,-55.514
15:33:35:344,15.039,-0.675,-0.053,-0.194,-21.851,-16.800,-54.367
15:33:35:371,15.066,-0.675,-0.053,-0.194,-21.851,-16.800,-54.367
15:33:35:4,15.095,-0.556,0.030,-0.199,-16.842,-18.814,-48.290
15:33:35:426,15.121,-0.486,0.098,-0.173,-13.398,-20.118,-43.134
15:33:35:454,15.149,-0.486,0.098,-0.173,-13.398,-20.118,-43.134
15:33:35:481,15.176,-0.486,0.098,-0.173,-13.398,-20.118,-43.134
15:33:35:508,15.203,-0.126,0.111,0.016,-7.466,-21.292,-32.750
15:33:35:535,15.230,0.020,-0.080,0.056,-3.862,-20.580,-26.286
15:33:35:562,15.257,0.361,0.210,0.058,-0.062,-19.060,-15.868
15:33:35:589,15.284,0.492,-0.042,0.284,1.138,-18.383,-13.036
15:33:35:617,15.312,0.048,0.039,0.136,2.348,-14.963,-7.367
15:33:35:644,15.339,0.638,-0.071,0.140,3.346,-13.470,-2.880
15:33:35:671,15.366,0.605,-0.079,0.095,3.941,-11.442,0.225
15:33:35:698,15.393,0.743,-0.097,0.031,4.572,-7.850,4.485
15:33:35:725,15.420,0.701,-0.045,-0.018,4.664,-5.158,7.027
15:33:35:752,15.447,0.663,0.025,-0.040,4.481,-1.348,10.245
15:33:35:779,15.474,0.770,0.046,-0.008,4.292,1.494,12.685
15:33:35:807,15.502,0.697,-0.126,-0.057,4.503,4.746,14.427
15:33:35:834,15.529,0.697,-0.126,-0.057,4.503,4.746,14.427
15:33:35:861,15.556,0.827,0.119,-0.166,4.644,5.066,14.211
15:33:35:888,15.583,0.741,0.174,-0.360,5.311,5.630,11.504
15:33:35:915,15.610,0.741,0.174,-0.360,5.311,5.630,11.504
15:33:35:943,15.637,0.741,0.174,-0.360,5.311,5.630,11.504
15:33:35:97,15.665,0.327,0.393,-0.707,6.218,5.782,4.085
15:33:35:997,15.692,0.129,0.264,-0.558,6.276,6.568,-0.185
15:33:36:024,15.719,-0.109,-0.051,-0.247,4.873,8.344,-9.037
15:33:36:051,15.746,-0.109,-0.051,-0.247,4.873,8.344,-9.037
15:33:36:079,15.774,-0.229,-0.112,-0.300,3.070,8.615,-15.049
15:33:36:106,15.801,-0.167,-0.073,-0.339,1.411,8.484,-19.205
15:33:36:133,15.828,-0.506,-0.091,-0.272,-4.961,8.984,-32.307
15:33:36:16,15.855,-0.532,-0.032,-0.226,-7.636,9.484,-36.456
15:33:36:188,15.883,-0.532,-0.032,-0.226,-7.636,9.484,-36.456
15:33:36:215,15.910,-0.857,-0.125,-0.046,-12.886,13.205,-45.641
15:33:36:242,15.937,-0.857,-0.125,-0.046,-12.886,13.205,-45.641
15:33:36:27,15.965,-0.827,-0.188,0.059,-17.830,17.541,-53.395
15:33:36:297,15.992,-0.827,-0.188,0.059,-17.830,17.541,-53.395
15:33:36:324,16.019,-0.600,-0.421,0.159,-20.541,21.085,-57.196
15:33:36:351,16.046,-0.600,-0.421,0.159,-20.541,21.085,-57.196
15:33:36:379,16.074,-0.597,-0.235,0.292,-20.001,25.396,-58.993
15:33:36:406,16.101,-0.699,-0.136,0.318,-17.811,27.067,-58.958
15:33:36:433,16.128,-0.699,-0.136,0.318,-17.811,27.067,-58.958
15:33:36:46,16.155,-0.506,-0.158,0.203,-7.888,30.080,-54.854
15:33:36:487,16.182,-0.299,-0.098,0.231,-6.070,30.368,-51.871
15:33:36:514,16.209,-0.299,-0.098,0.231,-6.070,30.368,-51.871
15:33:36:541,16.236,-0.010,-0.208,0.194,-3.228,30.481,-42.094
15:33:36:568,16.263,-0.010,-0.208,0.194,-3.228,30.481,-42.094
15:33:36:596,16.291,0.068,-0.141,0.065,-0.708,29.795,-28.858
15:33:36:623,16.318,0.115,0.068,0.134,-0.024,29.609,-24.283
15:33:36:651,16.346,0.115,0.068,0.134,-0.024,29.609,-24.283
15:33:36:678,16.373,0.432,0.236,-0.208,1.392,28.051,-13.696
15:33:36:705,16.400,0.432,0.236,-0.208,1.392,28.051,-13.696
15:33:36:732,16.427,0.828,0.180,-0.359,2.244,25.635,-8.188
15:33:36:759,16.454,0.549,0.179,-0.435,4.287,30.496,0.573
15:33:36:786,16.481,0.437,0.089,-0.492,4.945,34.257,4.554
15:33:36:813,16.508,0.437,0.089,-0.492,4.945,34.257,4.554
15:33:36:841,16.536,0.415,-0.071,-0.564,4.656,40.832,9.762
15:33:36:868,16.563,0.415,-0.071,-0.564,4.656,40.832,9.762
15:33:36:895,16.590,0.419,-0.078,-0.566,3.261,44.360,9.889
15:33:36:923,16.618,0.507,0.137,-0.762,2.578,45.698,9.584
15:33:36:95,16.645,0.507,0.137,-0.762,2.578,45.698,9.584
15:33:36:977,16.672,0.507,0.137,-0.762,2.578,45.698,9.584
15:33:37:005,16.700,0.507,0.137,-0.762,2.578,45.698,9.584
15:33:37:032,16.727,-0.344,0.403,-0.461,1.621,61.949,4.586
15:33:37:059,16.754,-0.344,0.403,-0.461,1.621,61.949,4.586
15:33:37:086,16.781,-0.344,0.403,-0.461,1.621,61.949,4.586
15:33:37:113,16.808,-0.343,0.209,-0.317,2.240,64.925,2.476
15:33:37:141,16.836,-0.343,0.209,-0.317,2.240,64.925,2.476
15:33:37:168,16.862,-0.343,0.209,-0.317,2.240,64.925,2.476
15:33:37:195,16.890,-0.362,-0.225,0.020,3.726,71.798,-15.947
15:33:37:222,16.917,-0.507,0.124,0.170,1.387,70.677,-25.613
15:33:37:249,16.944,-0.536,0.050,0.319,-0.013,70.616,-30.817
15:33:37:276,16.971,-0.576,-0.028,0.479,-0.804,70.848,-34.103
15:33:37:303,16.998,-0.552,-0.046,0.622,-2.430,71.169,-38.700
15:33:37:331,17.026,-0.552,-0.046,0.622,-2.430,71.169,-38.700
15:33:37:358,17.053,-0.436,-0.116,0.655,-6.260,72.125,-45.026
15:33:37:385,17.080,-0.303,-0.203,0.543,-8.180,72.659,-46.924
15:33:37:412,17.107,-0.160,-0.202,0.569,-12.399,75.193,-49.957
15:33:37:439,17.134,-0.160,-0.202,0.569,-12.399,75.193,-49.957
15:33:37:467,17.162,-0.108,-0.221,0.519,-12.546,76.181,-49.860
15:33:37:494,17.189,0.022,0.059,0.457,-9.187,79.269,-45.730
15:33:37:522,17.217,0.019,0.087,0.505,-7.086,80.454,-43.459
15:33:37:549,17.244,0.019,0.087,0.505,-7.086,80.454,-43.459
15:33:37:576,17.271,0.024,-0.020,0.463,-3.942,81.946,-39.614
15:33:37:603,17.298,0.156,-0.271,0.133,-0.097,83.567,-32.177
15:33:37:63,17.325,0.133,-0.291,0.067,1.051,84.395,-29.138
15:33:37:657,17.352,0.133,-0.291,0.067,1.051,84.395,-29.138
15:33:37:684,17.379,0.133,-0.291,0.067,1.051,84.395,-29.138
15:33:37:711,17.406,0.133,-0.291,0.067,1.051,84.395,-29.138
15:33:37:738,17.433,0.133,-0.291,0.067,1.051,84.395,-29.138
15:33:37:765,17.460,0.130,0.061,-0.476,2.835,88.941,-9.218
15:33:37:792,17.487,0.130,0.061,-0.476,2.835,88.941,-9.218
15:33:37:819,17.514,0.130,0.061,-0.476,2.835,88.941,-9.218
15:33:37:847,17.542,0.081,0.024,-0.485,3.303,90.678,-5.100
15:33:37:874,17.569,0.014,0.034,-0.744,4.187,91.657,2.903
15:33:37:901,17.596,-0.074,-0.045,-0.710,4.442,91.731,4.187
15:33:37:928,17.623,-0.074,-0.045,-0.710,4.442,91.731,4.187
15:33:37:955,17.650,-0.074,-0.045,-0.710,4.442,91.731,4.187
15:33:37:982,17.677,-0.536,0.187,-0.628,5.230,92.773,6.151
15:33:38:009,17.704,-0.536,0.187,-0.628,5.230,92.773,6.151
15:33:38:036,17.731,-0.713,0.342,-0.527,5.381,94.153,4.195
15:33:38:064,17.759,-0.713,0.342,-0.527,5.381,94.153,4.195
15:33:38:09,17.785,-0.631,0.222,-0.047,4.303,99.521,0.477
15:33:38:118,17.813,-0.512,-0.121,-0.048,3.325,101.950,-2.859
15:33:38:146,17.841,-0.512,-0.121,-0.048,3.325,101.950,-2.859
15:33:38:173,17.868,-0.512,-0.121,-0.048,3.325,101.950,-2.859
15:33:38:2,17.895,-0.397,-0.192,0.207,-0.844,109.796,-14.254
15:33:38:228,17.923,-0.397,-0.192,0.207,-0.844,109.796,-14.254
15:33:38:258,17.953,-0.186,0.216,0.397,-3.975,117.329,-22.558
15:33:38:285,17.980,0.133,0.102,0.860,-3.508,127.653,-30.617
15:33:38:313,18.008,0.133,0.102,0.860,-3.508,127.653,-30.617
15:33:38:34,18.035,0.133,0.102,0.860,-3.508,127.653,-30.617
15:33:38:366,18.061,0.197,-0.028,0.597,-6.563,130.595,-41.276
15:33:38:394,18.089,0.197,-0.028,0.597,-6.563,130.595,-41.276
15:33:38:421,18.116,0.200,-0.080,0.510,-8.166,130.369,-43.355
15:33:38:448,18.143,0.216,-0.148,0.376,-8.383,129.998,-43.105
15:33:38:475,18.170,0.216,-0.148,0.376,-8.383,129.998,-43.105
15:33:38:503,18.198,0.245,-0.201,0.299,-8.296,129.822,-42.493
15:33:38:53,18.225,0.245,-0.201,0.299,-8.296,129.822,-42.493
15:33:38:557,18.252,0.297,-0.023,0.311,-6.817,129.246,-37.346
15:33:38:584,18.279,0.267,0.103,0.369,-5.954,128.738,-34.121
15:33:38:611,18.306,0.191,0.130,0.309,-5.282,128.230,-31.433
15:33:38:638,18.333,0.082,0.041,0.143,-4.232,127.308,-26.872
15:33:38:666,18.361,0.082,0.041,0.143,-4.232,127.308,-26.872
15:33:38:693,18.388,0.082,0.041,0.143,-4.232,127.308,-26.872
15:33:38:72,18.415,-0.087,-0.359,-0.233,-1.984,126.243,-16.235
15:33:38:747,18.442,-0.087,-0.359,-0.233,-1.984,126.243,-16.235
15:33:38:774,18.469,-0.087,-0.359,-0.233,-1.984,126.243,-16.235
15:33:38:802,18.497,-0.087,-0.359,-0.233,-1.984,126.243,-16.235
15:33:38:829,18.524,-0.087,-0.359,-0.233,-1.984,126.243,-16.235
15:33:38:857,18.552,-0.222,-0.204,-0.303,-0.109,130.595,-5.656
15:33:38:884,18.579,-0.528,0.121,-0.488,0.823,135.535,4.005
15:33:38:912,18.607,-0.614,0.223,-0.442,1.458,136.950,8.313
15:33:38:939,18.634,-0.614,0.223,-0.442,1.458,136.950,8.313
15:33:38:966,18.661,-0.615,0.087,-0.445,1.776,136.748,9.715
15:33:38:993,18.688,-0.650,0.244,-0.444,1.236,136.504,9.875
15:33:39:02,18.715,-0.598,0.120,-0.417,0.506,137.467,8.795
15:33:39:049,18.743,-0.598,0.120,-0.417,0.506,137.467,8.795
15:33:39:075,18.770,-0.601,0.386,-0.205,-0.707,138.553,5.274
15:33:39:103,18.798,-0.533,0.424,-0.093,-1.106,139.488,3.391
15:33:39:13,18.825,-0.412,0.323,0.024,-1.576,141.078,0.264
15:33:39:157,18.852,-0.276,0.144,0.062,-1.987,142.850,-3.346
15:33:39:184,18.879,-0.276,0.144,0.062,-1.987,142.850,-3.346
15:33:39:211,18.906,-0.069,-0.227,0.084,-2.940,146.167,-10.797
15:33:39:238,18.933,-0.001,-0.242,0.120,-3.576,147.423,-14.289
15:33:39:265,18.960,0.053,-0.183,0.159,-4.834,149.324,-19.939
15:33:39:293,18.988,0.150,-0.075,0.224,-6.340,151.245,-25.809
15:33:39:32,19.015,0.209,-0.058,0.258,-7.318,152.571,-29.668
15:33:39:348,19.043,0.209,-0.058,0.258,-7.318,152.571,-29.668
15:33:39:375,19.070,0.209,-0.058,0.258,-7.318,152.571,-29.668
15:33:39:402,19.097,0.390,-0.084,0.391,-9.242,155.745,-38.527
15:33:39:429,19.124,0.544,-0.125,0.442,-10.627,157.755,-46.293
15:33:39:457,19.152,0.575,-0.155,0.430,-11.238,157.677,-47.989
15:33:39:484,19.179,0.541,-0.215,0.355,-12.666,156.981,-49.747
15:33:39:512,19.207,0.585,-0.142,0.280,-13.846,156.453,-50.501
15:33:39:539,19.234,0.585,-0.142,0.280,-13.846,156.453,-50.501
15:33:39:566,19.261,0.585,-0.142,0.280,-13.846,156.453,-50.501
15:33:39:594,19.289,0.647,0.009,0.254,-15.275,152.830,-46.879
15:33:39:62,19.315,0.647,0.009,0.254,-15.275,152.830,-46.879
15:33:39:648,19.343,0.647,0.009,0.254,-15.275,152.830,-46.879
15:33:39:675,19.370,0.384,0.067,0.187,-13.462,149.135,-39.956
15:33:39:703,19.398,0.384,0.067,0.187,-13.462,149.135,-39.956
15:33:39:73,19.425,0.384,0.067,0.187,-13.462,149.135,-39.956
15:33:39:757,19.452,-0.054,-0.428,-0.044,-7.521,142.627,-24.959
15:33:39:784,19.479,-0.444,-0.083,-0.384,-4.603,139.754,-16.078
15:33:39:811,19.506,-0.444,-0.083,-0.384,-4.603,139.754,-16.078
15:33:39:839,19.534,-0.118,0.176,-0.100,-0.833,141.584,-7.786
15:33:39:866,19.561,-0.629,0.233,-0.495,1.377,142.406,-2.747
15:33:39:893,19.588,-0.608,0.240,-0.488,2.876,142.746,0.366
15:33:39:92,19.615,-0.696,0.249,-0.509,4.809,142.148,4.625
15:33:39:947,19.642,-0.716,0.228,-0.359,6.600,140.974,8.136
15:33:39:974,19.669,-0.840,0.142,-0.414,7.681,140.366,10.155
15:33:40:001,19.696,-0.861,-0.215,-0.447,8.937,140.256,12.700
15:33:40:029,19.724,-0.868,-0.284,-0.413,9.302,140.509,13.745
15:33:40:056,19.751,-0.949,-0.053,-0.404,8.853,141.439,14.024
15:33:40:083,19.778,-0.935,0.071,-0.280,7.458,144.211,13.446
15:33:40:11,19.805,-0.877,0.146,-0.138,6.363,146.814,12.675
15:33:40:137,19.832,-0.853,0.424,0.029,4.921,150.421,10.577
15:33:40:164,19.859,-0.814,0.593,0.101,4.141,152.464,8.504
15:33:40:191,19.886,-0.814,0.593,0.101,4.141,152.464,8.504
15:33:40:218,19.913,-0.221,-0.020,0.115,2.974,156.249,1.361
15:33:40:245,19.940,-0.143,-0.194,0.049,1.969,156.737,-4.336
15:33:40:272,19.967,-0.093,-0.179,0.051,0.158,156.740,-10.849
15:33:40:299,19.994,-0.083,-0.078,0.142,-1.341,156.818,-15.438
15:33:40:327,20.022,-0.083,-0.078,0.142,-1.341,156.818,-15.438
15:33:40:354,20.049,-0.083,-0.078,0.142,-1.341,156.818,-15.438
15:33:40:381,20.076,0.592,-0.085,0.401,-6.312,164.694,-40.871
15:33:40:409,20.104,0.592,-0.085,0.401,-6.312,164.694,-40.871
15:33:40:436,20.131,0.650,-0.143,0.369,-7.238,165.009,-45.193
15:33:40:463,20.158,0.650,-0.143,0.369,-7.238,165.009,-45.193
15:33:40:491,20.186,0.650,-0.143,0.369,-7.238,165.009,-45.193
15:33:40:518,20.213,0.492,-0.310,0.100,-14.333,164.765,-54.128
15:33:40:545,20.240,1.107,0.030,0.227,-16.116,167.264,-57.800
15:33:40:572,20.267,1.107,0.030,0.227,-16.116,167.264,-57.800
15:33:40:599,20.294,1.107,0.030,0.227,-16.116,167.264,-57.800
15:33:40:627,20.322,1.107,0.030,0.227,-16.116,167.264,-57.800
15:33:40:654,20.349,0.558,-0.121,-0.018,-10.246,165.888,-51.953
15:33:40:681,20.376,0.558,-0.121,-0.018,-10.246,165.888,-51.953
15:33:40:709,20.404,0.247,-0.289,0.037,-6.747,163.388,-44.062
15:33:40:736,20.431,0.148,-0.309,0.008,-4.385,162.157,-38.306
15:33:40:763,20.458,0.148,-0.309,0.008,-4.385,162.157,-38.306
15:33:40:79,20.485,-0.012,-0.161,-0.011,-1.518,161.237,-28.138
15:33:40:817,20.512,-0.011,0.021,0.115,0.177,162.161,-21.627
15:33:40:844,20.539,-0.100,0.213,0.168,1.147,163.041,-16.948
15:33:40:871,20.566,-0.424,0.195,0.066,2.490,164.512,-9.419
15:33:40:899,20.594,-0.669,-0.020,-0.044,3.854,166.456,-2.054
15:33:40:926,20.621,-0.584,-0.005,0.039,4.494,167.773,2.230
15:33:40:953,20.648,-0.942,0.306,-0.034,4.962,167.952,7.346
15:33:40:981,20.676,-1.122,-0.079,-0.188,5.488,167.610,9.863
15:33:41:007,20.702,-0.876,-0.294,-0.219,5.888,168.695,12.559
15:33:41:035,20.730,-0.931,-0.163,-0.198,5.704,169.333,13.225
15:33:41:062,20.757,-0.931,-0.163,-0.198,5.704,169.333,13.225
15:33:41:089,20.784,-0.886,0.196,0.113,4.717,169.892,11.442
15:33:41:116,20.811,-1.054,0.121,0.349,4.443,170.548,9.254
15:33:41:144,20.839,-0.870,0.128,0.403,4.280,172.556,8.210
15:33:41:171,20.866,-0.870,0.128,0.403,4.280,172.556,8.210
15:33:41:198,20.893,-0.699,0.320,0.400,3.636,177.719,6.228
15:33:41:225,20.920,-0.281,0.487,0.621,2.425,-170.916,2.446
15:33:41:252,20.947,-0.281,0.487,0.621,2.425,-170.916,2.446
15:33:41:281,20.976,-0.260,-0.130,0.555,3.168,-165.527,-0.464
15:33:41:308,21.003,0.311,-0.182,0.454,4.488,-156.463,-7.077
15:33:41:335,21.030,0.311,-0.182,0.454,4.488,-156.463,-7.077
15:33:41:362,21.057,0.391,-0.111,0.406,6.543,-148.317,-15.463
15:33:41:389,21.084,0.391,-0.111,0.406,6.543,-148.317,-15.463
15:33:41:417,21.112,0.391,-0.111,0.406,6.543,-148.317,-15.463
15:33:41:444,21.139,0.735,-0.054,0.322,12.181,-141.087,-27.655
15:33:41:471,21.166,0.843,-0.035,0.186,14.234,-140.672,-31.755
15:33:41:498,21.193,0.979,-0.015,0.103,14.733,-141.259,-34.674
15:33:41:526,21.221,1.020,-0.096,0.065,13.900,-143.149,-38.972
15:33:41:554,21.249,0.920,-0.132,0.039,12.068,-144.862,-41.691
15:33:41:581,21.276,0.663,-0.199,-0.003,7.391,-147.136,-45.178
15:33:41:608,21.303,0.570,-0.123,-0.144,1.767,-148.146,-47.655
15:33:41:636,21.331,0.531,-0.154,-0.225,-1.326,-147.874,-48.584
15:33:41:663,21.358,0.331,-0.025,-0.386,-3.922,-146.254,-49.163
15:33:41:69,21.385,0.292,-0.279,-0.470,-3.776,-144.493,-49.159
15:33:41:718,21.413,0.330,-0.275,-0.437,-1.390,-141.002,-47.746
15:33:41:745,21.440,0.296,-0.082,-0.339,0.135,-137.891,-44.788
15:33:41:772,21.467,0.200,-0.176,-0.358,0.567,-135.922,-42.006
15:33:41:8,21.495,0.094,-0.352,-0.404,0.142,-133.847,-37.121
15:33:41:827,21.522,0.094,-0.352,-0.404,0.142,-133.847,-37.121
15:33:41:855,21.550,0.463,-0.274,-0.334,-2.290,-133.269,-22.958
15:33:41:881,21.576,0.463,-0.274,-0.334,-2.290,-133.269,-22.958
15:33:41:909,21.604,0.463,-0.274,-0.334,-2.290,-133.269,-22.958
15:33:41:936,21.631,0.463,-0.274,-0.334,-2.290,-133.269,-22.958
15:33:41:963,21.658,0.463,-0.274,-0.334,-2.290,-133.269,-22.958
15:33:41:99,21.685,0.463,-0.274,-0.334,-2.290,-133.269,-22.958
15:33:42:017,21.712,-0.599,-0.061,0.424,-1.868,-132.813,-7.570
15:33:42:044,21.739,-0.599,-0.061,0.424,-1.868,-132.813,-7.570
15:33:42:072,21.767,-0.218,0.138,0.655,-1.089,-122.019,3.881
15:33:42:099,21.794,-0.218,0.138,0.655,-1.089,-122.019,3.881
15:33:42:126,21.821,-0.283,-0.014,0.636,-1.236,-118.690,6.302
15:33:42:153,21.848,-0.283,-0.014,0.636,-1.236,-118.690,6.302
15:33:42:181,21.876,-0.379,0.505,0.816,-3.773,-106.883,10.041
15:33:42:208,21.903,-0.221,0.254,0.628,-4.863,-100.499,9.710
15:33:42:235,21.930,-0.032,0.495,0.627,-4.108,-93.109,7.221
15:33:42:262,21.957,-0.032,0.495,0.627,-4.108,-93.109,7.221
15:33:42:289,21.984,0.255,0.167,0.314,-0.842,-90.176,2.702
15:33:42:316,22.011,0.241,-0.079,0.237,1.390,-91.100,-0.900
15:33:42:343,22.038,0.241,-0.079,0.237,1.390,-91.100,-0.900
15:33:42:371,22.066,0.203,-0.204,-0.014,3.612,-92.720,-9.402
15:33:42:398,22.093,0.297,-0.188,-0.093,4.063,-93.258,-13.304
15:33:42:425,22.120,0.347,-0.146,-0.117,4.231,-94.609,-19.469
15:33:42:453,22.148,0.347,-0.146,-0.117,4.231,-94.609,-19.469
15:33:42:48,22.175,0.408,0.118,-0.262,2.952,-97.000,-29.650
15:33:42:507,22.202,0.408,0.118,-0.262,2.952,-97.000,-29.650
15:33:42:534,22.229,0.426,-0.166,-0.595,1.600,-97.349,-42.595
15:33:42:562,22.257,0.408,-0.226,-0.622,-0.076,-98.042,-45.933
15:33:42:588,22.283,0.408,-0.226,-0.622,-0.076,-98.042,-45.933
15:33:42:616,22.311,0.182,-0.250,-0.484,-5.143,-98.881,-49.933
15:33:42:643,22.338,0.104,-0.239,-0.552,-6.659,-98.339,-51.097
15:33:42:671,22.366,0.104,-0.239,-0.552,-6.659,-98.339,-51.097
15:33:42:698,22.393,0.105,-0.124,-0.845,-6.606,-95.544,-52.177
15:33:42:728,22.423,0.100,-0.154,-0.722,-5.434,-94.949,-51.347
15:33:42:755,22.450,-0.055,-0.081,-0.442,-4.250,-94.676,-46.131
15:33:42:782,22.477,-0.055,-0.081,-0.442,-4.250,-94.676,-46.131
15:33:42:809,22.504,-0.055,-0.081,-0.442,-4.250,-94.676,-46.131
15:33:42:836,22.531,-0.102,-0.196,-0.074,-2.181,-94.212,-31.719
15:33:42:863,22.558,-0.102,-0.196,-0.074,-2.181,-94.212,-31.719
15:33:42:89,22.585,-0.008,-0.063,0.061,-0.549,-91.760,-21.007
15:33:42:917,22.612,0.019,0.152,0.175,0.134,-89.041,-14.328
15:33:42:944,22.639,-0.014,0.241,0.459,0.418,-86.574,-9.750
15:33:42:971,22.666,-0.043,0.153,0.674,0.505,-81.466,-2.859
15:33:42:999,22.694,-0.043,0.153,0.674,0.505,-81.466,-2.859
15:33:43:026,22.721,-0.043,0.153,0.674,0.505,-81.466,-2.859
15:33:43:053,22.748,0.054,-0.054,0.685,-0.455,-70.699,6.061
15:33:43:081,22.776,0.054,-0.054,0.685,-0.455,-70.699,6.061
15:33:43:107,22.802,0.054,-0.054,0.685,-0.455,-70.699,6.061
15:33:43:135,22.830,0.141,-0.119,0.796,-3.806,-58.726,15.299
15:33:43:161,22.856,0.240,-0.154,0.792,-3.900,-57.177,15.702
15:33:43:189,22.884,0.448,0.183,0.926,-4.052,-54.570,15.847
15:33:43:216,22.911,0.448,0.183,0.926,-4.052,-54.570,15.847
15:33:43:243,22.938,0.448,0.183,0.926,-4.052,-54.570,15.847
15:33:43:27,22.965,0.592,0.393,1.013,-3.993,-52.411,15.711
15:33:43:297,22.992,0.577,0.458,0.403,-0.433,-46.565,10.965
15:33:43:324,23.019,0.577,0.458,0.403,-0.433,-46.565,10.965
15:33:43:352,23.047,0.577,0.458,0.403,-0.433,-46.565,10.965
15:33:43:38,23.075,0.577,0.458,0.403,-0.433,-46.565,10.965
15:33:43:409,23.104,0.577,0.458,0.403,-0.433,-46.565,10.965
15:33:43:436,23.131,0.577,0.458,0.403,-0.433,-46.565,10.965
15:33:43:464,23.159,0.577,0.458,0.403,-0.433,-46.565,10.965
15:33:43:49,23.185,0.577,0.458,0.403,-0.433,-46.565,10.965
15:33:43:518,23.213,0.649,0.050,-0.092,4.117,-46.293,-8.775
15:33:43:545,23.240,0.649,0.050,-0.092,4.117,-46.293,-8.775
15:33:43:572,23.267,0.649,0.050,-0.092,4.117,-46.293,-8.775
15:33:43:599,23.294,-0.301,0.930,-0.361,18.605,-16.093,-32.617
15:33:43:626,23.321,-0.624,0.079,-1.004,48.777,5.098,-48.985
15:33:43:654,23.349,-0.519,-0.219,-0.172,72.748,11.859,-68.485
15:33:43:681,23.376,-0.450,-0.235,-0.129,77.110,13.241,-72.689
15:33:43:708,23.403,-0.333,-0.292,0.006,82.176,15.420,-77.825
15:33:43:735,23.430,-0.347,-0.207,-0.147,84.482,16.633,-80.528
15:33:43:762,23.457,-0.347,-0.207,-0.147,84.482,16.633,-80.528
15:33:43:79,23.485,-0.216,-0.337,0.058,87.900,19.494,-85.538
15:33:43:816,23.511,-0.218,-0.332,0.113,88.469,22.229,-86.407
15:33:43:844,23.539,-0.144,-0.378,0.201,88.568,25.136,-86.391
15:33:43:87,23.565,-0.066,-0.421,0.206,88.512,26.962,-86.161
15:33:43:898,23.593,-0.066,-0.421,0.206,88.512,26.962,-86.161
15:33:43:925,23.620,-0.066,-0.421,0.206,88.512,26.962,-86.161
15:33:43:952,23.647,-0.043,-0.421,0.146,88.033,31.414,-85.500
15:33:43:979,23.674,-0.040,-0.283,0.026,88.253,31.399,-86.314
15:33:44:006,23.701,-0.040,-0.283,0.026,88.253,31.399,-86.314
15:33:44:033,23.728,0.183,-0.224,0.168,89.062,30.819,-88.056
15:33:44:06,23.755,0.183,-0.224,0.168,89.062,30.819,-88.056
15:33:44:087,23.782,0.162,0.081,0.029,89.915,30.070,-89.828
15:33:44:115,23.810,0.154,0.094,0.026,90.103,30.067,-90.212
15:33:44:142,23.837,0.154,0.094,0.026,90.103,30.067,-90.212
15:33:44:169,23.864,0.096,0.196,0.008,90.037,31.237,-90.079
15:33:44:196,23.891,0.146,0.175,-0.101,89.955,32.617,-89.898
15:33:44:223,23.918,0.038,0.181,-0.148,89.822,33.921,-89.586
15:33:44:25,23.945,-0.012,0.219,-0.254,89.561,35.340,-88.965
15:33:44:278,23.973,-0.012,0.219,-0.254,89.561,35.340,-88.965
15:33:44:306,24.001,-0.088,0.150,-0.235,88.211,39.522,-85.772
15:33:44:334,24.029,-0.088,0.150,-0.235,88.211,39.522,-85.772
15:33:44:36,24.055,-0.110,0.053,-0.086,86.975,42.424,-83.138
15:33:44:388,24.083,-0.153,0.033,-0.039,85.497,45.270,-80.472
15:33:44:416,24.111,-0.153,0.033,-0.039,85.497,45.270,-80.472
15:33:44:443,24.138,-0.153,0.033,-0.039,85.497,45.270,-80.472
15:33:44:47,24.165,-0.062,-0.288,-0.046,81.083,52.894,-75.477
15:33:44:497,24.192,-0.062,-0.288,-0.046,81.083,52.894,-75.477
15:33:44:524,24.219,-0.100,-0.232,-0.137,80.394,54.414,-75.361
15:33:44:552,24.246,0.023,-0.171,-0.017,80.329,55.572,-75.114
15:33:44:579,24.274,0.070,-0.096,0.035,80.243,56.275,-74.901
15:33:44:606,24.301,0.089,-0.009,0.082,79.948,57.572,-74.423
15:33:44:633,24.328,0.052,0.067,0.037,79.444,58.986,-73.599
15:33:44:661,24.356,0.052,0.067,0.037,79.444,58.986,-73.599
15:33:44:688,24.383,-0.068,0.218,0.005,78.631,60.583,-72.375
15:33:44:715,24.410,-0.098,0.310,0.047,77.721,62.705,-70.034
15:33:44:742,24.437,-0.098,0.310,0.047,77.721,62.705,-70.034
15:33:44:769,24.464,-0.116,0.285,0.077,77.415,63.704,-68.882
15:33:44:796,24.491,-0.236,0.221,0.032,76.578,64.627,-66.497
15:33:44:824,24.519,-0.189,0.006,-0.031,76.129,63.760,-65.936
15:33:44:851,24.546,-0.068,-0.169,0.013,76.072,63.211,-65.839
15:33:44:878,24.573,-0.054,-0.194,0.001,75.917,62.099,-66.077
15:33:44:905,24.600,-0.059,-0.207,-0.046,75.499,60.546,-66.385
15:33:44:932,24.627,-0.036,-0.214,-0.038,75.114,60.254,-66.195
15:33:44:959,24.654,0.023,-0.285,0.025,74.671,60.213,-65.580
15:33:44:987,24.682,0.025,-0.267,0.020,74.471,60.338,-65.252
15:33:45:014,24.709,0.060,-0.243,0.056,74.231,60.512,-64.776
15:33:45:041,24.736,0.067,-0.171,0.074,74.048,60.601,-64.293
15:33:45:069,24.764,0.081,-0.130,0.080,74.020,60.710,-64.061
15:33:45:096,24.791,0.081,-0.130,0.080,74.020,60.710,-64.061
15:33:45:123,24.818,0.080,0.068,0.081,73.928,61.411,-63.265
15:33:45:15,24.845,0.106,0.124,0.094,73.942,62.025,-62.859
15:33:45:177,24.872,0.106,0.124,0.094,73.942,62.025,-62.859
15:33:45:204,24.899,0.100,0.224,0.069,73.953,62.861,-62.493
15:33:45:232,24.926,0.121,0.286,0.094,73.956,64.201,-61.900
15:33:45:259,24.954,0.121,0.286,0.094,73.956,64.201,-61.900
15:33:45:286,24.981,0.121,0.286,0.094,73.956,64.201,-61.900
15:33:45:313,25.008,0.017,0.192,-0.195,74.860,66.795,-62.436
15:33:45:34,25.035,0.013,0.114,-0.233,74.988,67.536,-62.380
15:33:45:367,25.062,-0.029,0.009,-0.222,75.078,68.668,-62.191
15:33:45:395,25.090,-0.029,0.009,-0.222,75.078,68.668,-62.191
15:33:45:422,25.117,-0.051,-0.128,-0.087,74.589,71.452,-62.432
15:33:45:449,25.144,-0.051,-0.128,-0.087,74.589,71.452,-62.432
15:33:45:477,25.172,-0.051,-0.128,-0.087,74.589,71.452,-62.432
15:33:45:504,25.199,-0.048,-0.255,-0.078,73.192,74.222,-62.919
15:33:45:531,25.226,-0.036,-0.281,-0.067,72.674,75.446,-62.933
15:33:45:558,25.253,-0.047,-0.223,-0.085,72.416,76.069,-63.004
15:33:45:585,25.280,-0.047,-0.117,-0.082,72.118,77.183,-62.877
15:33:45:613,25.308,0.005,-0.108,-0.028,71.923,78.932,-61.974
15:33:45:64,25.335,0.044,-0.058,0.018,71.790,80.313,-61.236
15:33:45:667,25.362,0.065,0.015,-0.006,71.502,82.206,-60.192
15:33:45:695,25.390,0.014,0.078,-0.065,71.270,83.162,-59.620
15:33:45:721,25.416,-0.033,0.124,-0.069,70.871,84.011,-58.988
15:33:45:749,25.444,-0.065,0.242,-0.029,70.393,84.931,-58.003
15:33:45:776,25.471,-0.065,0.242,-0.029,70.393,84.931,-58.003
15:33:45:803,25.498,-0.054,0.176,-0.057,69.627,87.471,-55.419
15:33:45:83,25.525,-0.054,0.176,-0.057,69.627,87.471,-55.419
15:33:45:857,25.552,-0.054,0.176,-0.057,69.627,87.471,-55.419
15:33:45:885,25.580,-0.145,0.091,-0.165,69.083,88.758,-53.985
15:33:45:912,25.607,-0.145,0.091,-0.165,69.083,88.758,-53.985
15:33:45:94,25.635,-0.032,-0.048,-0.066,69.183,89.810,-53.589
15:33:45:967,25.662,0.007,-0.104,-0.057,69.265,90.284,-53.615
15:33:45:994,25.689,0.007,-0.104,-0.057,69.265,90.284,-53.615
15:33:46:021,25.716,0.025,-0.163,-0.128,69.167,90.170,-55.290
15:33:46:049,25.744,0.044,-0.213,-0.098,69.133,90.830,-55.486
15:33:46:076,25.771,0.044,-0.213,-0.098,69.133,90.830,-55.486
15:33:46:104,25.799,0.028,-0.165,-0.074,69.565,92.947,-56.694
15:33:46:131,25.826,0.028,-0.165,-0.074,69.565,92.947,-56.694
15:33:46:158,25.853,0.028,-0.165,-0.074,69.565,92.947,-56.694
15:33:46:186,25.881,0.076,-0.015,-0.076,70.770,94.856,-58.587
15:33:46:213,25.908,0.076,-0.015,-0.076,70.770,94.856,-58.587
15:33:46:24,25.935,0.079,0.098,-0.164,71.778,95.022,-60.654
15:33:46:267,25.962,0.123,0.062,-0.146,72.459,95.386,-61.489
15:33:46:294,25.989,0.137,0.058,-0.147,73.013,95.743,-62.211
15:33:46:322,26.017,0.145,0.079,-0.188,73.816,96.115,-63.324
15:33:46:35,26.045,0.145,0.079,-0.188,73.816,96.115,-63.324
15:33:46:376,26.071,0.181,0.018,-0.305,75.029,97.994,-64.763
15:33:46:404,26.099,0.087,0.025,-0.467,76.017,98.484,-66.881
15:33:46:43,26.125,0.087,0.025,-0.467,76.017,98.484,-66.881
15:33:46:458,26.153,0.087,0.025,-0.467,76.017,98.484,-66.881
15:33:46:485,26.180,-0.200,0.030,-0.407,76.596,101.661,-69.810
15:33:46:512,26.207,-0.200,0.030,-0.407,76.596,101.661,-69.810
15:33:46:539,26.234,-0.232,-0.101,-0.164,75.970,105.090,-71.376
15:33:46:566,26.261,-0.189,-0.150,-0.109,75.873,106.016,-72.083
15:33:46:593,26.288,-0.120,-0.260,-0.052,75.832,107.941,-73.045
15:33:46:621,26.316,-0.087,-0.299,-0.065,75.945,109.069,-73.648
15:33:46:648,26.343,-0.118,-0.291,-0.024,76.203,110.664,-74.662
15:33:46:675,26.370,-0.181,-0.270,0.045,76.241,111.247,-75.643
15:33:46:703,26.398,-0.190,-0.208,0.060,76.189,111.601,-76.170
15:33:46:73,26.425,-0.147,-0.173,0.056,75.950,112.203,-76.397
15:33:46:758,26.453,-0.007,-0.285,0.094,75.510,112.949,-75.919
15:33:46:785,26.480,-0.030,-0.257,0.180,74.130,114.030,-74.356
15:33:46:812,26.507,-0.030,-0.257,0.180,74.130,114.030,-74.356
15:33:46:84,26.535,-0.030,-0.257,0.180,74.130,114.030,-74.356
15:33:46:867,26.562,-0.020,-0.227,0.301,69.295,115.047,-70.661
15:33:46:894,26.589,0.027,-0.459,0.523,60.923,113.540,-66.258
15:33:46:921,26.616,-0.029,-0.440,0.613,53.886,110.741,-63.224
15:33:46:949,26.644,-0.029,-0.440,0.613,53.886,110.741,-63.224
15:33:46:976,26.671,-0.029,-0.440,0.613,53.886,110.741,-63.224
15:33:47:003,26.698,-1.009,0.655,0.658,15.170,84.688,-46.967
15:33:47:031,26.726,-1.009,0.655,0.658,15.170,84.688,-46.967
15:33:47:059,26.753,-1.009,0.655,0.658,15.170,84.688,-46.967
15:33:47:086,26.781,0.313,0.338,-0.266,-1.277,39.014,-20.179
15:33:47:113,26.808,0.313,0.338,-0.266,-1.277,39.014,-20.179
15:33:47:14,26.835,0.184,0.031,-0.246,2.072,29.338,-11.404
15:33:47:167,26.862,0.167,-0.078,-0.466,3.812,29.293,-8.299
15:33:47:195,26.890,0.167,-0.078,-0.466,3.812,29.293,-8.299
15:33:47:221,26.916,0.167,-0.078,-0.466,3.812,29.293,-8.299
15:33:47:249,26.944,0.223,-0.048,-0.569,5.742,31.209,-4.178
15:33:47:276,26.971,0.223,-0.048,-0.569,5.742,31.209,-4.178
15:33:47:303,26.998,0.376,-0.037,-0.650,7.020,45.067,6.085
15:33:47:33,27.025,0.376,-0.037,-0.650,7.020,45.067,6.085
15:33:47:357,27.052,0.376,-0.037,-0.650,7.020,45.067,6.085
15:33:47:384,27.079,0.376,-0.037,-0.650,7.020,45.067,6.085
15:33:47:411,27.106,0.376,-0.037,-0.650,7.020,45.067,6.085
15:33:47:438,27.133,0.326,-0.121,-0.580,7.305,52.781,13.927
15:33:47:466,27.161,0.302,0.124,-0.802,7.327,50.889,11.737
15:33:47:493,27.188,0.302,0.124,-0.802,7.327,50.889,11.737
15:33:47:52,27.215,0.302,0.124,-0.802,7.327,50.889,11.737
15:33:47:547,27.242,-0.103,0.432,-0.775,5.654,52.911,5.287
15:33:47:574,27.269,-0.103,0.432,-0.775,5.654,52.911,5.287
15:33:47:601,27.296,-0.164,0.104,-0.208,3.702,56.588,-1.852
15:33:47:628,27.323,-0.169,-0.004,-0.068,2.002,58.693,-7.216
15:33:47:656,27.351,-0.290,-0.085,-0.052,-1.472,61.358,-17.275
15:33:47:683,27.378,-0.290,-0.085,-0.052,-1.472,61.358,-17.275
15:33:47:71,27.405,-0.374,-0.026,0.050,-3.140,62.471,-21.300
15:33:47:737,27.432,-0.482,0.018,0.288,-7.128,67.381,-32.591
15:33:47:765,27.459,-0.482,0.018,0.288,-7.128,67.381,-32.591
00:00:00:,27.487,-0.479,-0.127,0.534,-8.002,72.171,-40.363
15:33:47:819,27.514,-0.479,-0.127,0.534,-8.002,72.171,-40.363
15:33:47:847,27.542,-0.479,-0.127,0.534,-8.002,72.171,-40.363
15:33:47:874,27.569,-0.479,-0.127,0.534,-8.002,72.171,-40.363
15:33:47:902,27.597,-0.461,-0.190,0.717,-8.546,75.387,-48.913
15:33:47:928,27.623,-0.230,-0.329,0.632,-10.949,74.925,-51.618
15:33:47:956,27.651,-0.149,-0.388,0.600,-11.874,74.609,-51.972
15:33:47:983,27.678,-0.114,-0.212,0.561,-12.402,74.150,-51.216
15:33:48:01,27.705,-0.114,-0.212,0.561,-12.402,74.150,-51.216
15:33:48:038,27.733,-0.042,-0.039,0.449,-8.695,74.238,-46.691
15:33:48:065,27.760,-0.079,0.057,0.489,-5.109,74.517,-42.659
15:33:48:093,27.788,-0.148,0.191,0.462,-2.778,74.597,-39.485
15:33:48:119,27.814,-0.148,0.191,0.462,-2.778,74.597,-39.485
15:33:48:147,27.842,-0.148,0.191,0.462,-2.778,74.597,-39.485
15:33:48:174,27.869,-0.043,-0.097,0.138,2.168,74.978,-30.232
15:33:48:201,27.896,-0.043,-0.097,0.138,2.168,74.978,-30.232
15:33:48:228,27.923,0.035,-0.030,-0.208,6.622,79.889,-14.027
15:33:48:255,27.950,0.035,-0.030,-0.208,6.622,79.889,-14.027
15:33:48:282,27.977,-0.090,0.039,-0.340,8.133,87.052,-4.700
15:33:48:309,28.004,-0.066,0.060,-0.419,8.204,90.755,0.323
15:33:48:337,28.032,-0.066,0.060,-0.419,8.204,90.755,0.323
15:33:48:365,28.060,-0.066,0.060,-0.419,8.204,90.755,0.323
15:33:48:391,28.086,-0.046,-0.111,-0.579,7.907,96.645,9.393
15:33:48:419,28.114,-0.071,-0.093,-0.587,7.897,97.149,10.608
15:33:48:447,28.142,-0.155,-0.059,-0.622,8.062,97.299,11.670
15:33:48:475,28.170,-0.238,-0.185,-0.556,8.793,96.244,11.839
15:33:48:502,28.197,-0.326,-0.018,-0.652,9.146,94.285,10.927
15:33:48:529,28.224,-0.468,0.226,-0.827,9.190,92.698,10.084
15:33:48:556,28.251,-0.468,0.226,-0.827,9.190,92.698,10.084
15:33:48:583,28.278,-0.630,0.308,-0.757,8.576,91.850,8.098
15:33:48:611,28.306,-0.630,0.308,-0.757,8.576,91.850,8.098
15:33:48:638,28.333,-0.610,0.295,-0.198,6.962,96.188,5.473
15:33:48:665,28.360,-0.610,0.295,-0.198,6.962,96.188,5.473
15:33:48:692,28.387,-0.610,0.295,-0.198,6.962,96.188,5.473
15:33:48:719,28.414,-0.286,-0.303,0.042,3.618,105.114,-3.470
15:33:48:746,28.441,-0.286,-0.303,0.042,3.618,105.114,-3.470
15:33:48:774,28.469,-0.410,0.097,0.280,0.595,112.801,-10.924
15:33:48:8,28.495,-0.334,0.141,0.320,-0.324,116.347,-13.888
15:33:48:828,28.523,-0.334,0.141,0.320,-0.324,116.347,-13.888
15:33:48:855,28.549,-0.154,-0.083,0.624,-0.346,126.585,-20.743
15:33:48:882,28.577,-0.094,-0.065,0.612,0.264,130.991,-24.497
15:33:48:909,28.604,-0.018,-0.104,0.560,1.415,134.468,-27.809
15:33:48:936,28.631,-0.018,-0.104,0.560,1.415,134.468,-27.809
15:33:48:964,28.659,0.149,-0.116,0.803,4.011,137.738,-31.832
15:33:48:99,28.685,0.149,-0.116,0.803,4.011,137.738,-31.832
15:33:49:018,28.713,0.140,-0.217,0.667,3.678,134.908,-34.985
15:33:49:045,28.740,0.235,-0.039,0.563,1.157,131.640,-36.682
15:33:49:072,28.767,0.318,0.046,0.509,-0.945,129.662,-37.429
15:33:49:1,28.795,0.318,0.046,0.509,-0.945,129.662,-37.429
15:33:49:127,28.822,0.464,0.147,0.426,-5.942,125.372,-35.988
15:33:49:154,28.849,0.421,0.191,0.356,-5.727,125.177,-33.320
15:33:49:181,28.876,0.328,0.138,0.298,-4.917,125.508,-30.934
15:33:49:208,28.903,0.328,0.138,0.298,-4.917,125.508,-30.934
15:33:49:236,28.931,0.043,-0.381,-0.112,-1.622,125.508,-19.183
15:33:49:263,28.958,0.043,-0.381,-0.112,-1.622,125.508,-19.183
15:33:49:29,28.985,-0.008,-0.280,-0.183,-0.094,125.805,-11.455
15:33:49:318,29.013,-0.008,-0.280,-0.183,-0.094,125.805,-11.455
15:33:49:345,29.040,-0.008,-0.280,-0.183,-0.094,125.805,-11.455
15:33:49:372,29.067,-0.008,-0.280,-0.183,-0.094,125.805,-11.455
15:33:49:399,29.094,-0.008,-0.280,-0.183,-0.094,125.805,-11.455
15:33:49:427,29.122,-0.414,0.113,-0.514,3.578,129.416,4.142
15:33:49:454,29.149,-0.542,0.302,-0.499,4.850,131.772,10.390
15:33:49:481,29.176,-0.542,0.302,-0.499,4.850,131.772,10.390
15:33:49:508,29.203,-0.611,0.156,-0.543,5.315,132.307,12.455
15:33:49:536,29.231,-0.560,-0.088,-0.479,6.020,132.138,15.174
15:33:49:563,29.258,-0.650,0.070,-0.573,5.483,132.182,14.933
15:33:49:59,29.285,-0.612,-0.061,-0.457,4.293,133.718,14.092
15:33:49:617,29.312,-0.689,0.134,-0.312,3.391,135.173,13.167
15:33:49:645,29.340,-0.722,0.333,-0.206,2.308,136.977,11.030
15:33:49:671,29.366,-0.722,0.333,-0.206,2.308,136.977,11.030
15:33:49:699,29.394,-0.505,0.335,0.003,1.123,140.557,6.170
15:33:49:726,29.421,-0.505,0.335,0.003,1.123,140.557,6.170
15:33:49:753,29.448,-0.505,0.335,0.003,1.123,140.557,6.170
15:33:49:781,29.476,-0.505,0.335,0.003,1.123,140.557,6.170
15:33:49:808,29.503,-0.261,-0.017,0.013,0.658,142.892,2.371
15:33:49:836,29.531,-0.173,-0.166,-0.004,0.235,144.135,-0.715
15:33:49:862,29.557,-0.173,-0.166,-0.004,0.235,144.135,-0.715
15:33:49:89,29.585,-0.173,-0.166,-0.004,0.235,144.135,-0.715
15:33:49:917,29.612,-0.048,-0.168,0.112,-1.682,146.826,-9.920
15:33:49:944,29.639,0.406,-0.140,0.381,-9.468,152.978,-39.847
15:33:49:972,29.667,0.524,-0.092,0.434,-10.736,153.231,-43.813
15:33:49:998,29.693,0.564,-0.091,0.451,-11.701,153.102,-45.906
15:33:50:026,29.721,0.525,-0.183,0.391,-13.385,152.393,-48.072
15:33:50:052,29.747,0.525,-0.196,0.230,-14.680,151.689,-48.945
15:33:50:08,29.775,0.525,-0.196,0.230,-14.680,151.689,-48.945
15:33:50:107,29.802,0.661,0.020,0.243,-16.366,150.070,-48.785
15:33:50:135,29.830,0.661,0.020,0.243,-16.366,150.070,-48.785
15:33:50:162,29.857,0.661,0.020,0.243,-16.366,150.070,-48.785
15:33:50:189,29.884,0.556,-0.036,0.268,-11.695,148.011,-42.792
15:33:50:216,29.911,0.466,0.001,0.238,-9.983,145.905,-38.890
15:33:50:243,29.938,0.466,0.001,0.238,-9.983,145.905,-38.890
15:33:50:27,29.965,0.187,-0.139,0.135,-6.988,141.606,-31.250
15:33:50:297,29.992,0.048,-0.315,0.055,-5.093,138.819,-26.545
15:33:50:325,30.020,-0.058,-0.354,0.051,-4.027,136.831,-23.529
15:33:50:352,30.047,-0.162,-0.091,-0.110,-2.628,134.178,-19.078
15:33:50:379,30.074,-0.172,-0.043,-0.146,-0.864,132.500,-15.010
15:33:50:406,30.101,-0.172,-0.043,-0.146,-0.864,132.500,-15.010
15:33:50:434,30.129,-0.404,0.097,-0.199,2.471,132.273,-7.787
15:33:50:461,30.156,-0.639,0.113,-0.399,5.400,133.335,-0.627
15:33:50:489,30.184,-0.639,0.113,-0.399,5.400,133.335,-0.627
15:33:50:516,30.211,-0.772,0.099,-0.395,7.190,135.616,5.138
15:33:50:543,30.238,-0.772,0.099,-0.395,7.190,135.616,5.138
15:33:50:57,30.265,-0.752,0.003,-0.405,7.505,137.423,7.455
15:33:50:597,30.292,-0.635,0.026,-0.226,6.964,140.063,8.947
15:33:50:624,30.319,-0.824,0.136,-0.319,6.320,139.677,8.436
15:33:50:652,30.347,-0.755,0.021,-0.277,5.908,139.472,7.823
15:33:50:679,30.374,-0.749,0.102,-0.221,5.098,139.176,6.310
15:33:50:706,30.401,-0.732,0.271,-0.162,4.367,139.252,4.839
15:33:50:733,30.428,-0.658,0.391,-0.095,3.001,140.517,2.273
15:33:50:76,30.455,-0.658,0.391,-0.095,3.001,140.517,2.273
15:33:50:787,30.482,-0.276,0.066,0.046,0.818,145.060,-3.144
15:33:50:814,30.509,-0.148,-0.177,0.025,-0.602,147.363,-7.555
15:33:50:842,30.537,-0.148,-0.177,0.025,-0.602,147.363,-7.555
15:33:50:869,30.564,-0.148,-0.177,0.025,-0.602,147.363,-7.555
15:33:50:896,30.591,0.062,-0.041,0.191,-5.158,152.995,-20.392
15:33:50:924,30.619,0.142,0.060,0.255,-6.808,156.089,-25.956
15:33:50:95,30.645,0.142,0.060,0.255,-6.808,156.089,-25.956
15:33:50:978,30.673,0.337,-0.048,0.374,-7.287,161.391,-33.990
15:33:51:005,30.700,0.428,-0.081,0.382,-6.784,163.428,-37.908
15:33:51:032,30.727,0.428,-0.081,0.382,-6.784,163.428,-37.908
15:33:51:06,30.755,0.648,-0.032,0.437,-6.110,164.118,-42.574
15:33:51:087,30.782,0.608,-0.128,0.412,-6.470,163.009,-44.222
15:33:51:114,30.809,0.528,-0.199,0.341,-7.280,161.868,-45.001
15:33:51:141,30.836,0.528,-0.199,0.341,-7.280,161.868,-45.001
15:33:51:169,30.864,0.528,-0.199,0.341,-7.280,161.868,-45.001
15:33:51:196,30.891,0.556,-0.150,0.130,-9.754,159.611,-45.793
15:33:51:223,30.918,0.556,-0.150,0.130,-9.754,159.611,-45.793
15:33:51:251,30.946,0.556,-0.150,0.130,-9.754,159.611,-45.793
15:33:51:278,30.973,0.401,-0.006,0.188,-6.706,156.939,-38.266
15:33:51:306,31.001,0.401,-0.006,0.188,-6.706,156.939,-38.266
15:33:51:333,31.028,0.113,-0.073,-0.006,-4.024,155.165,-31.007
15:33:51:36,31.055,-0.095,-0.164,-0.164,-1.822,155.235,-26.165
15:33:51:387,31.082,-0.483,0.078,-0.398,2.676,159.928,-17.765
15:33:51:415,31.110,-0.342,-0.043,-0.098,4.902,164.032,-14.358
15:33:51:442,31.137,-0.342,-0.043,-0.098,4.902,164.032,-14.358
15:33:51:469,31.164,-0.164,-0.083,0.020,8.566,173.759,-3.983
15:33:51:496,31.191,-0.373,-0.012,-0.017,10.100,173.537,3.203
15:33:51:523,31.218,-0.373,-0.012,-0.017,10.100,173.537,3.203
15:33:51:55,31.245,-0.648,0.034,0.041,10.781,172.711,5.607
15:33:51:578,31.273,-0.878,-0.092,0.021,12.269,172.772,10.461
15:33:51:605,31.300,-0.878,-0.092,0.021,12.269,172.772,10.461
15:33:51:632,31.327,-0.715,-0.147,0.122,11.780,174.887,11.006
15:33:51:659,31.354,-0.715,-0.147,0.122,11.780,174.887,11.006
15:33:51:686,31.381,-0.831,0.145,0.355,10.014,177.164,10.460
15:33:51:713,31.408,-0.831,0.145,0.355,10.014,177.164,10.460
15:33:51:741,31.436,-0.831,0.145,0.355,10.014,177.164,10.460
15:33:51:769,31.464,-0.740,0.150,0.478,8.249,179.502,9.334
15:33:51:795,31.490,-0.491,0.280,0.578,5.864,-175.975,6.986
15:33:51:823,31.518,-0.238,0.156,0.505,4.415,-172.043,4.897
15:33:51:85,31.545,-0.238,0.156,0.505,4.415,-172.043,4.897
15:33:51:877,31.572,-0.097,-0.281,0.305,2.323,-166.158,-0.501
15:33:51:905,31.600,0.026,-0.269,0.262,0.860,-162.847,-4.852
15:33:51:931,31.626,0.123,-0.055,0.271,-0.177,-160.936,-8.057
15:33:51:959,31.654,0.144,0.018,0.262,-1.628,-158.295,-12.965
15:33:51:986,31.681,0.347,0.097,0.200,-3.191,-153.824,-21.303
15:33:52:013,31.708,0.551,0.196,0.108,-3.988,-151.786,-26.117
15:33:52:04,31.735,0.551,0.196,0.108,-3.988,-151.786,-26.117
15:33:52:067,31.762,0.688,0.033,-0.012,-4.629,-149.540,-32.934
15:33:52:094,31.789,0.688,0.033,-0.012,-4.629,-149.540,-32.934
15:33:52:121,31.816,0.731,0.044,-0.074,-6.834,-150.611,-38.203
15:33:52:15,31.845,0.617,-0.036,-0.091,-9.117,-152.143,-40.344
15:33:52:177,31.872,0.456,-0.073,-0.122,-10.653,-153.132,-41.203
15:33:52:205,31.900,0.414,-0.095,-0.159,-12.150,-154.131,-41.525
15:33:52:231,31.926,0.236,-0.250,-0.173,-12.352,-154.307,-41.076
15:33:52:259,31.954,0.183,-0.290,-0.212,-11.618,-153.938,-39.609
15:33:52:286,31.981,0.196,-0.181,-0.263,-9.931,-153.000,-36.999
15:33:52:314,32.009,0.284,0.060,-0.225,-8.411,-152.227,-34.667
15:33:52:341,32.036,0.318,0.203,-0.122,-6.007,-151.085,-30.304
15:33:52:368,32.063,0.318,0.203,-0.122,-6.007,-151.085,-30.304
15:33:52:395,32.090,-0.042,-0.132,-0.048,-2.927,-150.122,-21.163
15:33:52:422,32.117,-0.042,-0.132,-0.048,-2.927,-150.122,-21.163
15:33:52:449,32.144,-0.381,-0.223,0.034,-0.877,-147.152,-11.674
15:33:52:477,32.172,-0.381,-0.223,0.034,-0.877,-147.152,-11.674
15:33:52:504,32.199,-0.308,-0.284,0.117,0.084,-143.067,-6.643
15:33:52:531,32.226,-0.294,-0.194,0.253,0.445,-135.098,0.564
15:33:52:558,32.253,-0.294,-0.194,0.253,0.445,-135.098,0.564
15:33:52:585,32.280,-0.468,-0.025,0.348,-0.761,-128.412,6.560
15:33:52:612,32.307,-0.468,-0.025,0.348,-0.761,-128.412,6.560
15:33:52:639,32.334,-0.468,-0.025,0.348,-0.761,-128.412,6.560
15:33:52:667,32.361,-0.468,-0.025,0.348,-0.761,-128.412,6.560
15:33:52:693,32.388,-0.468,-0.025,0.348,-0.761,-128.412,6.560
15:33:52:721,32.416,-0.468,-0.025,0.348,-0.761,-128.412,6.560
15:33:52:748,32.443,-0.468,-0.025,0.348,-0.761,-128.412,6.560
15:33:52:775,32.470,-0.472,0.091,0.444,-2.037,-123.210,11.021
15:33:52:802,32.497,-0.472,0.091,0.444,-2.037,-123.210,11.021
15:33:52:83,32.525,-0.472,0.091,0.444,-2.037,-123.210,11.021
15:33:52:857,32.552,-0.310,-0.098,0.575,-0.126,-123.274,15.451
15:33:52:884,32.579,-0.310,-0.098,0.575,-0.126,-123.274,15.451
15:33:52:911,32.606,-0.310,-0.098,0.575,-0.126,-123.274,15.451
15:33:52:939,32.634,0.218,0.707,0.606,0.417,-119.619,7.322
15:33:52:966,32.661,0.216,0.038,0.115,-0.191,-113.985,0.148
15:33:52:993,32.688,0.217,-0.137,0.028,-3.436,-111.459,-15.018
15:33:53:02,32.715,0.217,-0.137,0.028,-3.436,-111.459,-15.018
15:33:53:047,32.742,0.442,0.072,-0.290,-7.395,-108.796,-25.319
15:33:53:074,32.769,0.442,0.072,-0.290,-7.395,-108.796,-25.319
15:33:53:101,32.796,0.369,-0.010,-0.377,-9.947,-104.646,-34.073
15:33:53:129,32.824,0.368,-0.157,-0.505,-9.844,-101.764,-38.711
15:33:53:156,32.851,0.395,-0.128,-0.682,-9.698,-100.353,-41.418
15:33:53:183,32.878,0.395,-0.128,-0.682,-9.698,-100.353,-41.418
15:33:53:21,32.905,0.407,-0.170,-0.807,-9.782,-99.156,-44.856
15:33:53:238,32.933,0.407,-0.170,-0.807,-9.782,-99.156,-44.856
15:33:53:265,32.960,0.141,-0.285,-0.612,-13.445,-99.485,-51.085
15:33:53:292,32.987,0.164,-0.160,-0.703,-14.004,-99.672,-51.457
15:33:53:319,33.014,0.150,-0.113,-0.595,-13.231,-100.117,-50.396
15:33:53:347,33.042,0.042,-0.114,-0.478,-11.932,-100.533,-48.658
15:33:53:374,33.069,-0.007,-0.019,-0.485,-10.143,-101.247,-44.668
15:33:53:401,33.096,-0.007,-0.019,-0.485,-10.143,-101.247,-44.668
15:33:53:428,33.123,-0.039,0.091,-0.351,-7.012,-101.964,-36.228
15:33:53:455,33.150,-0.020,-0.018,-0.223,-4.907,-101.414,-30.014
15:33:53:482,33.177,-0.037,-0.084,-0.001,-3.587,-100.601,-25.537
15:33:53:509,33.204,-0.037,-0.084,-0.001,-3.587,-100.601,-25.537
15:33:53:536,33.231,-0.037,-0.084,-0.001,-3.587,-100.601,-25.537
15:33:53:563,33.258,-0.037,-0.084,-0.001,-3.587,-100.601,-25.537
15:33:53:59,33.285,-0.056,-0.063,0.156,-2.174,-98.910,-18.884
15:33:53:619,33.314,-0.056,-0.063,0.156,-2.174,-98.910,-18.884
15:33:53:646,33.341,-0.089,0.040,0.458,-0.942,-88.548,-2.294
15:33:53:673,33.368,-0.089,0.040,0.458,-0.942,-88.548,-2.294
15:33:53:7,33.395,-0.089,0.040,0.458,-0.942,-88.548,-2.294
15:33:53:727,33.422,-0.104,-0.228,0.707,-2.709,-78.690,6.179
15:33:53:754,33.449,-0.104,-0.228,0.707,-2.709,-78.690,6.179
15:33:53:781,33.476,-0.104,-0.228,0.707,-2.709,-78.690,6.179
15:33:53:809,33.504,0.008,-0.078,0.676,-6.403,-68.176,11.368
15:33:53:836,33.531,0.008,-0.078,0.676,-6.403,-68.176,11.368
15:33:53:863,33.558,0.008,-0.078,0.676,-6.403,-68.176,11.368
15:33:53:89,33.585,0.008,-0.078,0.676,-6.403,-68.176,11.368
15:33:53:918,33.613,-0.008,0.006,0.610,-8.472,-63.118,12.936
15:33:53:944,33.639,-0.008,0.006,0.610,-8.472,-63.118,12.936
15:33:53:972,33.667,0.197,0.090,0.678,-7.373,-60.969,14.574
15:33:53:998,33.693,0.197,0.090,0.678,-7.373,-60.969,14.574
15:33:54:026,33.721,0.452,0.264,1.016,-5.599,-62.942,14.171
15:33:54:054,33.749,0.452,0.264,1.016,-5.599,-62.942,14.171
15:33:54:082,33.777,0.700,0.591,0.520,-1.981,-63.474,11.870
15:33:54:11,33.805,0.700,0.591,0.520,-1.981,-63.474,11.870
15:33:54:137,33.832,0.700,0.591,0.520,-1.981,-63.474,11.870
15:33:54:164,33.859,0.700,0.591,0.520,-1.981,-63.474,11.870
15:33:54:192,33.887,0.223,0.367,-0.098,1.483,-60.450,0.984
15:33:54:219,33.914,0.229,-0.099,-0.399,-0.735,-58.236,-20.023
15:33:54:246,33.941,-0.146,-0.196,-0.763,-7.446,-52.283,-39.910
15:33:54:273,33.968,-0.392,-0.243,-0.580,-19.563,-51.239,-54.227
15:33:54:3,33.995,-0.537,-0.074,-0.558,-23.911,-51.573,-54.973
15:33:54:329,34.024,-0.654,-0.034,-0.403,-25.691,-51.521,-54.337
15:33:54:356,34.051,-0.656,-0.001,-0.207,-24.600,-51.276,-53.217
15:33:54:383,34.078,-0.637,0.099,-0.307,-20.312,-50.481,-50.878
15:33:54:41,34.105,-0.543,0.059,-0.462,-16.700,-49.711,-48.762
15:33:54:437,34.132,-0.497,-0.002,-0.434,-11.984,-48.582,-44.778
15:33:54:465,34.160,-0.497,-0.002,-0.434,-11.984,-48.582,-44.778
15:33:54:491,34.186,-0.210,-0.035,0.099,-7.370,-47.322,-35.506
15:33:54:519,34.214,-0.210,-0.035,0.099,-7.370,-47.322,-35.506
15:33:54:546,34.241,-0.125,-0.321,0.011,-1.891,-41.108,-25.535
15:33:54:573,34.268,-0.125,-0.321,0.011,-1.891,-41.108,-25.535
15:33:54:601,34.296,-0.125,-0.321,0.011,-1.891,-41.108,-25.535
15:33:54:628,34.323,-0.125,-0.321,0.011,-1.891,-41.108,-25.535
15:33:54:655,34.350,-0.125,-0.321,0.011,-1.891,-41.108,-25.535
15:33:54:682,34.377,-0.125,-0.321,0.011,-1.891,-41.108,-25.535
15:33:54:709,34.404,-0.125,-0.321,0.011,-1.891,-41.108,-25.535
15:33:54:736,34.431,-0.125,-0.321,0.011,-1.891,-41.108,-25.535
15:33:54:763,34.458,-0.125,-0.321,0.011,-1.891,-41.108,-25.535
15:33:54:791,34.486,-0.125,-0.321,0.011,-1.891,-41.108,-25.535
15:33:54:818,34.513,-0.125,-0.321,0.011,-1.891,-41.108,-25.535
15:33:54:845,34.540,0.206,0.195,0.408,-3.264,-32.763,-4.285
15:33:54:872,34.567,0.535,0.193,0.686,-6.493,-28.221,9.103
15:33:54:899,34.594,0.535,0.193,0.686,-6.493,-28.221,9.103
15:33:54:927,34.622,0.535,0.193,0.686,-6.493,-28.221,9.103
15:33:54:953,34.648,0.423,0.089,0.560,-8.934,-23.105,10.727
15:33:54:981,34.676,0.517,0.165,0.500,-9.528,-20.510,8.374
15:33:55:008,34.703,0.517,0.165,0.500,-9.528,-20.510,8.374
15:33:55:035,34.730,0.517,0.165,0.500,-9.528,-20.510,8.374
15:33:55:063,34.758,0.517,0.165,0.500,-9.528,-20.510,8.374
15:33:55:09,34.785,0.496,0.319,0.331,-8.789,-19.595,6.287
15:33:55:118,34.812,0.315,0.260,0.008,-4.517,-20.424,-0.148
15:33:55:144,34.839,-0.028,-0.208,-0.138,-0.214,-26.627,-18.939
15:33:55:171,34.866,-0.028,-0.208,-0.138,-0.214,-26.627,-18.939
15:33:55:199,34.894,-0.172,0.018,-0.340,-0.902,-27.177,-30.029
15:33:55:226,34.921,-0.444,-0.070,-0.554,0.215,-24.829,-45.610
15:33:55:254,34.949,-0.444,-0.070,-0.554,0.215,-24.829,-45.610
15:33:55:281,34.976,-0.498,-0.071,-0.571,2.133,-23.689,-52.957
15:33:55:308,35.003,-0.182,0.682,-0.268,6.295,-22.002,-56.846
15:33:55:335,35.030,-0.182,0.682,-0.268,6.295,-22.002,-56.846
15:33:55:362,35.057,-0.260,0.191,-0.379,34.456,-11.138,-61.386
15:33:55:39,35.085,-0.235,0.292,-0.446,44.111,-6.264,-62.235
15:33:55:416,35.111,-0.156,0.126,-0.493,53.955,0.704,-62.741
15:33:55:444,35.139,-0.156,0.126,-0.493,53.955,0.704,-62.741
15:33:55:47,35.165,-0.298,0.163,0.152,63.028,11.153,-64.369
15:33:55:498,35.193,-0.298,0.163,0.152,63.028,11.153,-64.369
15:33:55:524,35.219,-0.035,0.014,0.185,69.389,17.013,-67.714
15:33:55:552,35.247,-0.035,0.014,0.185,69.389,17.013,-67.714
15:33:55:579,35.274,-0.035,0.014,0.185,69.389,17.013,-67.714
15:33:55:606,35.301,-0.006,-0.358,0.090,78.668,22.446,-74.671
15:33:55:633,35.328,0.035,-0.426,0.252,81.861,23.320,-77.878
15:33:55:66,35.355,0.005,-0.412,0.105,83.829,23.352,-80.291
15:33:55:688,35.383,0.076,-0.336,0.149,88.894,21.969,-87.890
15:33:55:715,35.410,0.076,-0.336,0.149,88.894,21.969,-87.890
15:33:55:743,35.438,0.116,-0.250,0.097,91.423,20.831,-93.154
15:33:55:769,35.464,0.108,-0.146,0.047,91.943,20.713,-94.617
15:33:55:797,35.492,0.159,-0.034,0.119,92.205,21.440,-95.756
15:33:55:823,35.518,0.159,-0.034,0.119,92.205,21.440,-95.756
15:33:55:851,35.546,0.004,0.094,-0.091,92.168,24.005,-95.991
15:33:55:878,35.573,0.004,0.094,-0.091,92.168,24.005,-95.991
15:33:55:905,35.600,0.152,0.063,0.049,91.703,28.648,-95.273
15:33:55:932,35.627,0.120,0.048,-0.203,91.232,32.395,-93.941
15:33:55:959,35.654,-0.031,0.076,-0.443,90.615,36.306,-91.917
15:33:55:986,35.681,-0.031,0.076,-0.443,90.615,36.306,-91.917
15:33:56:013,35.708,-0.170,-0.021,-0.269,89.670,40.479,-89.060
15:33:56:041,35.736,-0.024,-0.356,0.023,89.135,42.801,-87.910
15:33:56:067,35.762,-0.024,-0.356,0.023,89.135,42.801,-87.910
15:33:56:095,35.790,-0.053,-0.497,-0.031,88.221,46.007,-86.409
15:33:56:121,35.816,-0.025,-0.650,0.039,87.317,48.303,-84.929
15:33:56:149,35.844,-0.025,-0.650,0.039,87.317,48.303,-84.929
15:33:56:176,35.871,-0.041,-0.629,0.028,86.469,49.524,-83.673
15:33:56:204,35.899,-0.215,-0.496,0.026,83.225,52.222,-79.201
15:33:56:231,35.926,-0.215,-0.496,0.026,83.225,52.222,-79.201
15:33:56:258,35.953,-0.215,-0.496,0.026,83.225,52.222,-79.201
15:33:56:285,35.980,-0.293,-0.324,0.158,77.249,54.254,-72.438
15:33:56:311,36.006,-0.436,-0.397,0.376,68.380,53.669,-65.495
15:33:56:339,36.034,-0.685,-0.164,0.214,62.817,51.574,-62.621
15:33:56:366,36.061,-0.886,0.184,-0.019,51.850,46.503,-58.380
15:33:56:393,36.088,-0.886,0.184,-0.019,51.850,46.503,-58.380
15:33:56:42,36.115,-0.886,0.184,-0.019,51.850,46.503,-58.380
15:33:56:447,36.142,-0.604,0.589,-0.367,28.722,31.981,-52.384
15:33:56:475,36.170,-0.604,0.589,-0.367,28.722,31.981,-52.384
15:33:56:502,36.197,-0.164,0.712,-0.502,7.344,6.911,-34.980
15:33:56:529,36.224,-0.079,0.776,-0.437,6.210,0.485,-26.188
15:33:56:556,36.251,0.634,0.300,-0.004,6.264,-9.141,-13.858
15:33:56:583,36.278,0.634,0.300,-0.004,6.264,-9.141,-13.858
15:33:56:61,36.305,0.634,0.300,-0.004,6.264,-9.141,-13.858
15:33:56:637,36.332,0.633,-0.208,-0.086,8.496,-8.485,-0.883
15:33:56:665,36.360,0.610,-0.188,-0.210,8.171,-5.449,1.665
15:33:56:692,36.387,0.694,-0.180,-0.198,6.984,-0.180,4.895
15:33:56:719,36.414,0.671,-0.206,-0.093,5.912,3.206,6.562
15:33:56:746,36.441,0.671,-0.206,-0.093,5.912,3.206,6.562
15:33:56:774,36.469,0.630,-0.327,-0.067,2.748,10.840,9.337
15:33:56:801,36.496,0.591,-0.248,-0.095,1.905,12.489,9.547
15:33:56:828,36.523,0.583,-0.138,-0.152,0.928,15.473,9.413
15:33:56:855,36.550,0.595,-0.070,-0.201,0.597,17.318,9.117
15:33:56:883,36.578,0.550,-0.046,-0.314,0.706,19.693,8.411
15:33:56:91,36.605,0.379,0.235,-0.496,1.390,21.349,7.211
15:33:56:938,36.633,0.532,0.591,-0.637,1.874,22.012,6.355
15:33:56:965,36.660,0.532,0.591,-0.637,1.874,22.012,6.355
15:33:56:993,36.688,-0.007,0.522,-0.835,4.235,26.157,4.183
15:33:57:019,36.714,0.011,0.515,-0.827,5.739,27.695,1.671
15:33:57:047,36.742,0.011,0.515,-0.827,5.739,27.695,1.671
15:33:57:073,36.768,-0.297,0.336,-0.410,6.729,32.793,-5.166
15:33:57:101,36.796,-0.297,0.336,-0.410,6.729,32.793,-5.166
15:33:57:129,36.824,-0.297,0.336,-0.410,6.729,32.793,-5.166
15:33:57:156,36.851,-0.420,-0.158,-0.230,6.101,42.593,-19.994
15:33:57:183,36.878,-0.420,-0.243,-0.146,5.870,44.696,-24.087
15:33:57:21,36.905,-0.454,-0.243,-0.146,5.870,44.696,-24.087
15:33:57:237,36.932,-0.454,-0.243,-0.146,5.870,44.696,-24.087
15:33:57:264,36.959,-0.706,-0.196,0.241,7.343,53.968,-45.877
15:33:57:292,36.987,-0.706,-0.196,0.241,7.343,53.968,-45.877
15:33:57:319,37.014,-0.810,-0.329,0.358,10.236,55.864,-53.162
15:33:57:347,37.042,-0.735,-0.437,0.408,10.870,56.111,-56.311
15:33:57:374,37.069,-0.663,-0.486,0.371,9.943,55.845,-57.902
15:33:57:401,37.096,-0.527,-0.374,0.330,6.574,55.288,-59.479
15:33:57:429,37.124,-0.527,-0.374,0.330,6.574,55.288,-59.479
15:33:57:456,37.151,-0.374,-0.185,0.462,0.195,54.896,-59.878
15:33:57:483,37.178,-0.333,-0.194,0.505,-2.082,54.684,-58.974
15:33:57:51,37.205,-0.354,-0.126,0.512,-3.192,54.406,-57.793
15:33:57:538,37.233,-0.407,0.030,0.532,-3.754,53.938,-54.999
15:33:57:565,37.260,-0.407,0.030,0.532,-3.754,53.938,-54.999
15:33:57:592,37.287,-0.171,0.008,0.413,-1.728,53.422,-47.763
15:33:57:619,37.314,-0.077,-0.134,0.252,-0.574,52.814,-42.580
15:33:57:646,37.341,-0.077,-0.134,0.252,-0.574,52.814,-42.580
15:33:57:673,37.368,-0.077,-0.134,0.252,-0.574,52.814,-42.580
15:33:57:701,37.396,0.035,-0.168,0.142,-0.129,52.400,-38.921
15:33:57:727,37.422,0.035,-0.168,0.142,-0.129,52.400,-38.921
15:33:57:755,37.450,0.165,0.082,-0.086,4.019,57.044,-18.770
15:33:57:781,37.476,0.224,0.084,-0.159,4.724,58.386,-15.146
15:33:57:809,37.504,0.224,0.084,-0.159,4.724,58.386,-15.146
15:33:57:836,37.531,0.150,0.240,-0.252,6.183,59.726,-7.237
15:33:57:862,37.557,0.150,0.240,-0.252,6.183,59.726,-7.237
15:33:57:891,37.586,0.301,0.128,-0.562,7.878,58.641,0.751
15:33:57:918,37.613,0.326,0.132,-0.678,8.389,58.217,2.791
15:33:57:946,37.641,0.326,0.132,-0.678,8.389,58.217,2.791
15:33:57:973,37.668,0.326,0.132,-0.678,8.389,58.217,2.791
15:33:58:001,37.696,0.238,0.041,-0.727,8.963,58.453,5.019
15:33:58:029,37.724,0.166,-0.146,-0.763,9.028,60.249,6.545
15:33:58:056,37.751,-0.152,0.413,-0.775,7.130,67.411,5.844
15:33:58:083,37.778,-0.152,0.413,-0.775,7.130,67.411,5.844
15:33:58:11,37.805,-0.311,0.510,-0.493,6.121,73.342,2.534
15:33:58:137,37.832,-0.311,0.510,-0.493,6.121,73.342,2.534
15:33:58:164,37.859,-0.137,-0.197,-0.085,5.205,81.197,-7.545
15:33:58:192,37.887,-0.137,-0.197,-0.085,5.205,81.197,-7.545
15:33:58:219,37.914,-0.201,-0.222,-0.044,3.823,83.002,-16.762
15:33:58:245,37.940,-0.251,-0.163,0.039,3.183,83.791,-20.586
15:33:58:273,37.968,-0.251,-0.163,0.039,3.183,83.791,-20.586
15:33:58:3,37.995,-0.352,-0.037,0.297,2.617,87.169,-31.169
15:33:58:327,38.022,-0.352,-0.037,0.297,2.617,87.169,-31.169
15:33:58:354,38.049,-0.424,0.027,0.626,5.252,89.487,-37.936
15:33:58:381,38.076,-0.473,-0.119,0.854,6.674,89.544,-40.085
15:33:58:409,38.104,-0.473,-0.119,0.854,6.674,89.544,-40.085
15:33:58:436,38.131,-0.392,-0.152,0.774,6.372,85.408,-45.980
15:33:58:463,38.158,-0.290,-0.206,0.706,4.840,83.748,-47.504
15:33:58:49,38.185,-0.236,-0.246,0.648,2.719,81.981,-48.859
15:33:58:517,38.212,-0.190,-0.239,0.525,1.634,81.201,-49.041
15:33:58:545,38.240,-0.190,-0.239,0.525,1.634,81.201,-49.041
15:33:58:572,38.267,-0.190,-0.239,0.525,1.634,81.201,-49.041
15:33:58:6,38.294,-0.175,-0.122,0.479,1.636,80.830,-45.825
15:33:58:627,38.322,-0.175,-0.122,0.479,1.636,80.830,-45.825
15:33:58:654,38.349,-0.181,-0.044,0.205,6.133,84.343,-29.760
15:33:58:681,38.376,-0.060,-0.166,-0.060,7.012,85.967,-23.530
15:33:58:708,38.403,-0.060,-0.166,-0.060,7.012,85.967,-23.530
15:33:58:735,38.430,-0.003,-0.203,-0.148,7.461,87.620,-19.318
15:33:58:762,38.457,0.005,-0.161,-0.243,7.828,91.173,-12.790
15:33:58:789,38.484,0.005,-0.161,-0.243,7.828,91.173,-12.790
15:33:58:816,38.511,-0.083,0.022,-0.422,7.171,106.829,4.006
15:33:58:844,38.539,-0.083,0.022,-0.422,7.171,106.829,4.006
15:33:58:871,38.566,-0.022,-0.069,-0.477,6.104,112.250,10.266
15:33:58:898,38.593,-0.022,-0.069,-0.477,6.104,112.250,10.266
15:33:58:925,38.620,-0.054,-0.083,-0.507,5.979,112.705,11.922
15:33:58:952,38.647,-0.324,0.043,-0.544,5.784,113.257,14.116
15:33:58:979,38.674,-0.324,0.043,-0.544,5.784,113.257,14.116
15:33:59:006,38.701,-0.324,0.043,-0.544,5.784,113.257,14.116
15:33:59:033,38.728,-0.324,0.043,-0.544,5.784,113.257,14.116
15:33:59:061,38.756,-0.324,0.043,-0.544,5.784,113.257,14.116
15:33:59:088,38.783,-0.324,0.043,-0.544,5.784,113.257,14.116
15:33:59:115,38.810,-0.516,-0.082,-0.601,6.862,109.272,12.147
15:33:59:142,38.837,-0.516,-0.082,-0.601,6.862,109.272,12.147
15:33:59:169,38.864,-0.516,-0.082,-0.601,6.862,109.272,12.147
15:33:59:196,38.891,-0.658,0.312,-0.386,6.077,103.592,6.663
15:33:59:223,38.918,-0.662,0.368,-0.283,5.182,103.394,3.793
15:33:59:25,38.945,-0.662,0.368,-0.283,5.182,103.394,3.793
15:33:59:277,38.972,-0.495,0.366,-0.062,2.541,109.509,-1.379
15:33:59:304,38.999,-0.495,0.366,-0.062,2.541,109.509,-1.379
15:33:59:331,39.026,-0.290,0.010,0.258,0.676,123.596,-7.556
15:33:59:359,39.053,0.085,-0.127,0.436,-0.793,141.291,-25.440
15:33:59:385,39.080,0.085,-0.127,0.436,-0.793,141.291,-25.440
15:33:59:413,39.108,0.085,-0.127,0.436,-0.793,141.291,-25.440
15:33:59:44,39.135,0.195,-0.141,0.569,-2.381,144.007,-38.605
15:33:59:467,39.162,0.195,-0.141,0.569,-2.381,144.007,-38.605
15:33:59:494,39.189,0.291,-0.222,0.617,-2.159,144.360,-42.109
15:33:59:522,39.217,0.348,-0.250,0.630,-2.431,143.992,-44.060
15:33:59:548,39.243,0.348,-0.250,0.630,-2.431,143.992,-44.060
15:33:59:576,39.271,0.562,0.011,0.414,-10.678,139.515,-48.394
15:33:59:603,39.298,0.640,0.032,0.459,-11.315,139.140,-47.918
15:33:59:631,39.326,0.476,-0.033,0.398,-11.188,138.509,-46.198
15:33:59:658,39.353,0.476,-0.033,0.398,-11.188,138.509,-46.198
15:33:59:685,39.380,0.426,0.175,0.320,-9.896,137.373,-40.366
15:33:59:712,39.407,0.307,0.157,0.102,-8.251,137.027,-35.251
15:33:59:739,39.434,0.166,-0.072,-0.028,-6.763,137.039,-31.488
15:33:59:767,39.462,0.102,-0.217,-0.038,-4.228,137.277,-25.886
15:33:59:794,39.489,0.102,-0.217,-0.038,-4.228,137.277,-25.886
15:33:59:821,39.516,-0.023,-0.353,0.008,-1.100,136.742,-17.174
15:33:59:848,39.543,-0.056,-0.260,0.001,0.030,135.823,-11.842
15:33:59:875,39.570,-0.056,-0.260,0.001,0.030,135.823,-11.842
15:33:59:902,39.597,-0.056,-0.260,0.001,0.030,135.823,-11.842
15:33:59:929,39.624,-0.409,0.092,-0.358,3.044,136.846,0.776
15:33:59:957,39.652,-0.409,0.092,-0.358,3.044,136.846,0.776
15:33:59:985,39.680,-0.409,0.092,-0.358,3.044,136.846,0.776
15:34:00:012,39.707,-0.603,0.110,-0.531,6.076,138.681,11.377
15:34:00:039,39.734,-0.628,0.157,-0.441,6.750,138.083,13.549
15:34:00:066,39.761,-0.739,0.129,-0.465,7.096,137.444,14.270
15:34:00:093,39.788,-0.697,-0.016,-0.456,7.293,135.841,14.526
15:34:00:12,39.815,-0.690,0.021,-0.431,6.824,134.384,13.866
15:34:00:148,39.843,-0.707,0.060,-0.448,6.138,134.131,13.029
15:34:00:176,39.871,-0.719,0.138,-0.383,4.038,135.651,10.675
15:34:00:204,39.899,-0.719,0.138,-0.383,4.038,135.651,10.675
15:34:00:231,39.926,-0.647,0.361,-0.121,1.987,139.662,6.442
15:34:00:26,39.955,-0.647,0.361,-0.121,1.987,139.662,6.442
15:34:00:286,39.981,-0.514,0.246,-0.018,1.525,141.912,4.636
15:34:00:314,40.009,-0.149,-0.204,0.083,0.549,148.580,-1.413
15:34:00:341,40.036,-0.045,-0.299,0.102,-0.115,152.319,-6.409
15:34:00:368,40.063,0.002,-0.245,0.155,-0.845,155.267,-12.167
15:34:00:395,40.090,0.002,-0.245,0.155,-0.845,155.267,-12.167
15:34:00:422,40.117,0.002,-0.245,0.155,-0.845,155.267,-12.167
15:34:00:449,40.144,0.118,-0.047,0.264,-2.273,158.410,-22.264
15:34:00:477,40.172,0.243,0.062,0.343,-2.877,159.202,-26.119
15:34:00:504,40.199,0.401,-0.008,0.421,-4.596,159.600,-36.032
15:34:00:531,40.226,0.530,-0.083,0.452,-7.390,157.185,-42.061
15:34:00:559,40.254,0.530,-0.083,0.452,-7.390,157.185,-42.061
15:34:00:586,40.281,0.530,-0.083,0.452,-7.390,157.185,-42.061
15:34:00:614,40.309,0.486,-0.105,0.262,-12.360,153.815,-45.530
15:34:00:64,40.335,0.736,0.125,0.171,-14.899,152.144,-46.078
15:34:00:668,40.363,0.606,-0.039,0.167,-13.337,151.773,-44.961
15:34:00:695,40.390,0.578,-0.016,0.226,-11.912,151.376,-43.698
15:34:00:722,40.417,0.579,-0.030,0.308,-9.950,150.325,-41.048
15:34:00:749,40.444,0.481,-0.057,0.237,-8.874,149.225,-38.763
15:34:00:776,40.471,0.276,-0.072,0.125,-7.579,146.876,-34.492
15:34:00:803,40.498,-0.082,-0.338,-0.140,-4.662,143.068,-26.399
15:34:00:83,40.525,-0.082,-0.338,-0.140,-4.662,143.068,-26.399
15:34:00:858,40.553,-0.284,-0.157,-0.210,-1.161,141.600,-18.622
15:34:00:885,40.580,-0.284,-0.112,-0.190,1.119,142.688,-13.952
15:34:00:913,40.608,-0.284,-0.112,-0.190,1.119,142.688,-13.952
00:00:00:,40.635,-0.466,0.111,-0.163,4.581,147.573,-5.830
15:34:00:967,40.662,-0.507,0.052,-0.151,6.126,150.190,-1.353
15:34:00:994,40.689,-0.694,0.141,-0.264,6.843,151.305,1.439
15:34:01:022,40.717,-0.745,0.021,-0.287,7.659,152.561,5.343
15:34:01:049,40.744,-0.847,-0.046,-0.318,8.090,154.429,8.768
15:34:01:076,40.771,-0.921,-0.058,-0.319,8.110,155.802,10.593
15:34:01:103,40.798,-0.902,-0.151,-0.240,7.680,158.695,12.506
15:34:01:131,40.826,-1.039,0.272,-0.148,6.998,161.028,13.171
15:34:01:158,40.853,-1.031,0.452,-0.058,5.590,165.368,13.400
15:34:01:185,40.880,-0.658,0.260,0.089,4.865,169.697,12.508
15:34:01:212,40.907,-0.652,0.353,0.160,4.802,171.398,11.157
15:34:01:239,40.934,-0.652,0.353,0.160,4.802,171.398,11.157
15:34:01:267,40.962,-0.391,0.317,0.223,4.935,174.321,6.090
15:34:01:294,40.989,-0.328,0.114,0.199,5.183,174.841,2.149
15:34:01:321,41.016,-0.328,0.114,0.199,5.183,174.841,2.149
15:34:01:348,41.043,-0.245,-0.092,0.171,4.814,173.269,-6.029
15:34:01:375,41.070,-0.245,-0.092,0.171,4.814,173.269,-6.029
15:34:01:402,41.097,-0.095,-0.110,0.202,3.326,173.130,-15.163
15:34:01:43,41.125,0.072,-0.018,0.296,2.834,175.026,-20.485
15:34:01:458,41.153,0.332,0.025,0.374,3.315,177.845,-25.449
15:34:01:484,41.179,0.463,-0.034,0.393,4.167,179.570,-28.592
15:34:01:512,41.207,0.544,-0.182,0.376,5.571,-179.172,-33.275
15:34:01:539,41.234,0.652,-0.141,0.386,6.142,-179.289,-36.359
15:34:01:566,41.261,0.753,-0.226,0.402,4.474,177.808,-44.826
15:34:01:593,41.288,0.753,-0.226,0.402,4.474,177.808,-44.826
15:34:01:62,41.315,0.686,-0.237,0.334,2.568,176.560,-47.202
15:34:01:647,41.342,0.581,-0.305,0.224,-0.802,175.208,-50.111
15:34:01:675,41.370,0.637,-0.344,0.220,-4.256,174.501,-52.361
15:34:01:701,41.396,0.637,-0.344,0.220,-4.256,174.501,-52.361
15:34:01:729,41.424,0.637,-0.344,0.220,-4.256,174.501,-52.361
15:34:01:756,41.451,0.462,-0.164,0.167,-5.223,174.266,-50.419
15:34:01:784,41.479,0.240,-0.009,0.012,-4.264,174.877,-44.030
15:34:01:811,41.506,0.240,-0.009,0.012,-4.264,174.877,-44.030
15:34:01:838,41.533,-0.225,-0.022,-0.072,-1.050,177.289,-33.932
15:34:01:866,41.561,-0.225,-0.022,-0.072,-1.050,177.289,-33.932
15:34:01:893,41.588,-0.339,-0.088,-0.026,1.748,-178.540,-26.931
15:34:01:92,41.615,-0.274,-0.068,0.113,4.087,-171.824,-19.706
15:34:01:947,41.642,-0.274,-0.048,0.265,5.128,-157.002,-7.963
15:34:01:975,41.670,-0.274,-0.048,0.265,5.128,-157.002,-7.963
15:34:02:002,41.697,-0.442,-0.019,0.087,1.833,-142.481,1.398
15:34:02:029,41.724,-0.443,-0.011,-0.036,-0.722,-136.128,4.737
15:34:02:056,41.751,-0.443,-0.011,-0.036,-0.722,-136.128,4.737
15:34:02:083,41.778,-0.561,-0.036,0.117,-3.628,-130.843,7.957
15:34:02:11,41.805,-0.662,-0.009,0.272,-4.192,-130.278,8.981
15:34:02:137,41.832,-0.662,-0.009,0.272,-4.192,-130.278,8.981
15:34:02:164,41.859,-0.662,-0.009,0.272,-4.192,-130.278,8.981
15:34:02:191,41.886,-0.495,-0.010,0.405,-4.652,-127.933,10.258
15:34:02:219,41.914,-0.495,-0.010,0.405,-4.652,-127.933,10.258
15:34:02:246,41.940,-0.281,0.491,0.531,-2.870,-126.432,7.238
15:34:02:273,41.968,-0.151,0.644,0.545,-1.365,-126.504,5.234
15:34:02:3,41.995,-0.064,0.678,0.499,-0.381,-126.543,3.512
15:34:02:327,42.022,-0.064,0.678,0.499,-0.381,-126.543,3.512
15:34:02:354,42.049,0.083,0.081,0.228,1.726,-125.830,-2.122
15:34:02:381,42.076,0.083,0.081,0.228,1.726,-125.830,-2.122
15:34:02:408,42.103,0.087,-0.106,0.166,2.327,-126.022,-6.507
15:34:02:436,42.131,0.196,-0.246,0.082,1.955,-124.783,-15.101
15:34:02:463,42.158,0.258,-0.185,0.076,1.202,-123.818,-20.641
15:34:02:49,42.185,0.258,-0.185,0.076,1.202,-123.818,-20.641
15:34:02:517,42.212,0.533,-0.037,-0.159,0.322,-120.836,-29.491
15:34:02:544,42.239,0.654,-0.129,-0.290,0.506,-119.149,-34.047
15:34:02:571,42.266,0.684,-0.245,-0.322,0.763,-118.646,-36.783
15:34:02:599,42.294,0.696,-0.347,-0.326,0.433,-119.199,-40.558
15:34:02:627,42.322,0.696,-0.347,-0.326,0.433,-119.199,-40.558
15:34:02:654,42.349,0.713,-0.359,-0.420,-3.510,-122.111,-45.373
15:34:02:681,42.376,0.375,-0.160,-0.339,-13.871,-126.781,-47.866
15:34:02:708,42.403,0.157,-0.041,-0.469,-20.207,-129.084,-47.943
15:34:02:735,42.430,0.125,-0.064,-0.511,-22.769,-130.033,-47.482
15:34:02:763,42.457,0.125,-0.064,-0.511,-22.769,-130.033,-47.482
15:34:02:789,42.484,0.141,0.133,-0.466,-22.227,-131.171,-43.167
15:34:02:817,42.512,0.141,0.133,-0.466,-22.227,-131.171,-43.167
15:34:02:844,42.539,-0.018,0.161,-0.348,-15.416,-129.618,-36.320
15:34:02:872,42.567,-0.018,0.161,-0.348,-15.416,-129.618,-36.320
15:34:02:899,42.594,-0.009,-0.127,-0.195,-8.040,-126.441,-27.648
15:34:02:927,42.622,-0.194,-0.229,-0.044,-5.097,-124.460,-21.827
15:34:02:954,42.648,-0.194,-0.229,-0.044,-5.097,-124.460,-21.827
15:34:02:981,42.676,-0.194,-0.229,-0.044,-5.097,-124.460,-21.827
15:34:03:008,42.703,-0.199,0.145,0.175,-2.239,-119.514,-8.807
15:34:03:035,42.730,-0.199,0.145,0.175,-2.239,-119.514,-8.807
15:34:03:062,42.757,-0.199,0.145,0.175,-2.239,-119.514,-8.807
15:34:03:089,42.784,-0.199,0.145,0.175,-2.239,-119.514,-8.807
15:34:03:116,42.811,-0.199,0.145,0.175,-2.239,-119.514,-8.807
15:34:03:144,42.839,-0.199,0.145,0.175,-2.239,-119.514,-8.807
15:34:03:172,42.867,-0.407,-0.032,0.695,-2.679,-107.898,8.337
15:34:03:198,42.893,-0.227,-0.119,0.573,-7.188,-91.336,13.783
15:34:03:226,42.921,-0.203,-0.163,0.482,-7.612,-88.056,13.176
15:34:03:252,42.947,-0.203,-0.163,0.482,-7.612,-88.056,13.176
15:34:03:28,42.975,-0.203,-0.163,0.482,-7.612,-88.056,13.176
15:34:03:307,43.002,-0.203,-0.163,0.482,-7.612,-88.056,13.176
15:34:03:334,43.029,-0.203,-0.163,0.482,-7.612,-88.056,13.176
15:34:03:362,43.057,-0.078,0.240,0.782,-6.537,-86.166,11.408
15:34:03:389,43.084,-0.078,0.240,0.782,-6.537,-86.166,11.408
15:34:03:416,43.111,-0.078,0.240,0.782,-6.537,-86.166,11.408
15:34:03:443,43.138,0.223,0.448,0.654,-3.433,-85.166,8.889
15:34:03:47,43.165,0.223,0.448,0.654,-3.433,-85.166,8.889
15:34:03:497,43.192,0.230,-0.028,0.172,3.212,-88.192,-2.480
15:34:03:524,43.219,0.230,-0.028,0.172,3.212,-88.192,-2.480
15:34:03:551,43.246,0.230,-0.028,0.172,3.212,-88.192,-2.480
15:34:03:578,43.273,0.426,0.012,-0.172,2.011,-88.621,-23.682
15:34:03:606,43.300,0.427,0.101,-0.601,3.061,-84.589,-32.659
15:34:03:632,43.327,0.375,-0.032,-0.812,5.050,-81.931,-37.301
15:34:03:66,43.355,0.375,-0.032,-0.812,5.050,-81.931,-37.301
15:34:03:687,43.382,0.312,-0.252,-0.947,7.008,-80.342,-44.071
15:34:03:714,43.409,0.312,-0.252,-0.947,7.008,-80.342,-44.071
15:34:03:742,43.437,0.258,-0.385,-0.721,0.991,-82.930,-50.127
15:34:03:769,43.464,0.258,-0.385,-0.721,0.991,-82.930,-50.127
15:34:03:796,43.491,0.075,-0.194,-0.650,-8.724,-83.698,-53.998
15:34:03:824,43.519,0.075,-0.194,-0.650,-8.724,-83.698,-53.998
15:34:03:851,43.546,0.075,-0.194,-0.650,-8.724,-83.698,-53.998
15:34:03:878,43.573,0.005,-0.236,-0.696,-11.462,-81.399,-54.794
15:34:03:905,43.600,-0.370,-0.179,-0.674,-12.215,-74.532,-51.165
15:34:03:932,43.627,-0.370,-0.179,-0.674,-12.215,-74.532,-51.165
15:34:03:96,43.655,-0.370,-0.097,-0.607,-12.035,-71.887,-40.789
15:34:03:987,43.682,-0.420,-0.074,0.025,-11.513,-71.887,-40.789
15:34:04:015,43.710,-0.420,-0.074,0.025,-11.513,-71.887,-40.789
15:34:04:042,43.737,-0.420,-0.074,0.025,-11.513,-71.887,-40.789
15:34:04:069,43.764,-0.158,-0.139,0.019,-7.566,-70.894,-29.802
15:34:04:096,43.791,-0.158,-0.139,0.019,-7.566,-70.894,-29.802
15:34:04:124,43.819,0.295,0.021,0.767,-5.954,-71.636,-18.404
15:34:04:151,43.846,0.295,0.021,0.767,-5.954,-71.636,-18.404
15:34:04:179,43.874,0.080,0.170,0.922,-3.241,-70.056,-5.789
15:34:04:206,43.901,0.374,0.077,0.758,-0.260,-59.195,4.038
15:34:04:233,43.928,0.374,0.077,0.758,-0.260,-59.195,4.038
15:34:04:26,43.955,0.499,0.102,0.708,0.014,-52.338,8.438
15:34:04:287,43.982,0.499,0.102,0.708,0.014,-52.338,8.438
15:34:04:314,44.009,0.569,-0.157,0.677,-0.293,-46.042,9.220
15:34:04:341,44.036,0.703,0.204,0.681,-0.447,-42.605,7.985
15:34:04:368,44.063,0.703,0.204,0.681,-0.447,-42.605,7.985
15:34:04:395,44.090,0.703,0.204,0.681,-0.447,-42.605,7.985
15:34:04:423,44.118,0.866,0.478,0.355,0.916,-39.508,3.390
15:34:04:45,44.145,0.866,0.478,0.355,0.916,-39.508,3.390
15:34:04:477,44.172,0.866,0.478,0.355,0.916,-39.508,3.390
15:34:04:504,44.199,0.837,0.686,0.185,1.583,-38.791,0.441
15:34:04:531,44.226,0.325,0.456,-0.458,7.955,-23.944,-23.354
15:34:04:558,44.253,0.325,0.456,-0.458,7.955,-23.944,-23.354
15:34:04:585,44.280,-0.532,0.126,-0.901,29.812,-2.733,-44.858
15:34:04:612,44.307,-0.572,-0.015,-0.910,39.085,1.913,-49.850
15:34:04:639,44.334,-0.761,-0.189,-0.830,53.032,7.513,-56.659
15:34:04:666,44.361,-0.772,-0.309,-0.730,61.302,10.344,-60.923
15:34:04:694,44.389,-0.683,-0.482,-0.553,71.502,12.894,-67.724
15:34:04:721,44.416,-0.572,-0.493,-0.367,79.326,13.739,-74.933
15:34:04:749,44.444,-0.492,-0.490,-0.204,83.446,13.588,-79.778
15:34:04:776,44.471,-0.343,-0.414,-0.034,88.233,12.496,-86.854
15:34:04:804,44.499,-0.288,-0.398,0.033,90.659,11.643,-91.262
15:34:04:83,44.525,-0.203,-0.315,0.046,93.107,11.336,-96.494
15:34:04:858,44.553,-0.190,-0.172,0.043,93.990,12.001,-98.791
15:34:04:884,44.579,-0.190,-0.172,0.043,93.990,12.001,-98.791
15:34:04:912,44.607,-0.179,-0.115,0.070,94.003,17.097,-99.993
15:34:04:938,44.633,-0.259,-0.056,0.076,92.721,22.683,-97.163
15:34:04:966,44.661,-0.160,-0.135,0.140,91.855,25.704,-94.906
15:34:04:993,44.688,-0.078,-0.145,0.183,91.180,27.797,-93.059
15:34:05:02,44.715,-0.024,-0.089,0.255,89.892,31.291,-89.731
15:34:05:048,44.743,-0.064,-0.098,0.172,89.075,33.270,-87.776
15:34:05:075,44.770,-0.079,-0.225,0.030,88.294,35.206,-86.128
15:34:05:102,44.797,-0.071,-0.213,-0.004,88.001,35.917,-85.632
15:34:05:129,44.824,-0.071,-0.213,-0.004,88.001,35.917,-85.632
15:34:05:156,44.851,0.049,-0.246,0.078,87.768,36.388,-85.393
15:34:05:184,44.879,0.002,-0.170,0.050,87.860,36.205,-85.621
15:34:05:211,44.906,-0.001,-0.017,0.032,87.900,35.665,-85.680
15:34:05:238,44.933,0.075,0.043,0.055,87.951,35.739,-85.705
15:34:05:266,44.961,0.075,0.043,0.055,87.951,35.739,-85.705
15:34:05:293,44.988,0.148,0.160,0.081,87.986,36.465,-85.576
15:34:05:32,45.015,0.128,0.244,0.075,87.776,36.895,-85.058
15:34:05:347,45.042,0.103,0.268,0.074,87.561,38.228,-84.467
15:34:05:374,45.069,0.117,0.204,-0.086,87.386,40.587,-83.945
15:34:05:402,45.097,0.098,0.126,-0.255,87.118,42.492,-83.284
15:34:05:429,45.124,0.031,0.064,-0.314,86.848,44.073,-82.607
15:34:05:456,45.151,-0.062,0.016,-0.325,86.452,46.047,-81.685
15:34:05:483,45.178,-0.062,0.016,-0.325,86.452,46.047,-81.685
15:34:05:511,45.206,-0.062,0.016,-0.325,86.452,46.047,-81.685
15:34:05:538,45.233,-0.086,-0.120,-0.012,85.105,50.997,-79.275
15:34:05:565,45.260,-0.016,-0.205,0.023,84.599,52.715,-78.525
15:34:05:592,45.287,-0.012,-0.252,-0.013,83.917,54.714,-77.784
15:34:05:619,45.314,-0.036,-0.309,-0.035,83.583,56.139,-77.569
15:34:05:647,45.342,-0.019,-0.328,-0.056,83.209,57.641,-77.326
15:34:05:674,45.369,-0.074,-0.195,-0.096,83.037,58.783,-77.360
15:34:05:702,45.397,-0.108,-0.083,-0.102,83.010,59.137,-77.324
15:34:05:73,45.424,-0.069,-0.035,-0.082,83.055,60.315,-76.864
15:34:05:756,45.451,0.003,-0.006,0.017,83.074,61.176,-76.325
15:34:05:784,45.479,0.053,0.033,0.085,82.790,63.013,-74.852
15:34:05:811,45.506,0.046,0.089,0.067,82.247,64.615,-73.269
15:34:05:839,45.534,-0.034,0.177,-0.009,81.816,65.051,-72.718
15:34:05:866,45.561,-0.066,0.248,0.018,80.946,65.591,-71.779
15:34:05:894,45.588,-0.182,0.271,-0.013,80.178,66.477,-70.599
15:34:05:921,45.616,-0.187,0.251,-0.053,79.312,67.502,-69.095
15:34:05:949,45.644,-0.195,0.149,-0.023,78.922,68.364,-68.222
15:34:05:975,45.670,-0.179,0.068,-0.024,78.665,68.875,-67.394
15:34:06:003,45.698,-0.269,-0.019,-0.120,78.995,67.333,-67.974
15:34:06:03,45.725,-0.269,-0.019,-0.120,78.995,67.333,-67.974
15:34:06:057,45.752,-0.124,-0.113,-0.015,79.281,65.670,-68.688
15:34:06:084,45.779,-0.047,-0.169,0.043,79.255,65.325,-68.836
15:34:06:111,45.806,0.010,-0.290,0.063,79.237,64.646,-69.329
15:34:06:138,45.833,0.035,-0.339,0.052,79.223,64.066,-69.922
15:34:06:166,45.861,0.037,-0.335,0.006,79.243,62.689,-71.053
15:34:06:193,45.888,0.005,-0.278,-0.017,79.299,62.088,-71.743
15:34:06:221,45.916,0.029,-0.263,-0.022,79.588,61.582,-72.509
15:34:06:248,45.943,0.096,-0.172,0.007,80.024,61.280,-73.229
15:34:06:275,45.970,0.085,-0.006,0.028,80.224,61.197,-73.622
15:34:06:302,45.997,0.085,-0.006,0.028,80.224,61.197,-73.622
15:34:06:329,46.024,0.144,0.180,-0.048,80.788,61.304,-74.377
15:34:06:356,46.051,0.086,0.279,-0.124,81.288,60.889,-75.516
15:34:06:383,46.078,0.086,0.279,-0.124,81.288,60.889,-75.516
15:34:06:411,46.106,0.067,0.300,-0.119,81.994,61.252,-76.759
15:34:06:438,46.133,0.134,0.258,-0.167,82.519,62.489,-77.232
15:34:06:465,46.160,0.118,0.238,-0.185,82.899,63.477,-77.705
15:34:06:493,46.188,0.156,0.094,-0.250,83.422,65.224,-78.544
15:34:06:519,46.214,0.061,0.065,-0.461,83.743,67.024,-79.360
15:34:06:547,46.242,-0.042,0.056,-0.587,83.731,68.302,-79.685
15:34:06:573,46.268,-0.154,0.091,-0.517,83.314,70.449,-79.544
15:34:06:601,46.296,-0.110,-0.023,-0.234,82.808,72.411,-78.995
15:34:06:627,46.322,-0.110,-0.023,-0.234,82.808,72.411,-78.995
15:34:06:654,46.349,-0.036,-0.253,-0.206,81.057,79.855,-77.133
15:34:06:682,46.377,-0.074,-0.271,-0.227,80.502,86.689,-76.659
15:34:06:708,46.403,-0.074,-0.271,-0.227,80.502,86.689,-76.659
15:34:06:736,46.431,-0.144,-0.178,-0.137,79.864,92.787,-75.937
15:34:06:763,46.458,-0.190,-0.087,-0.062,79.710,94.889,-76.244
15:34:06:79,46.485,-0.190,-0.087,-0.062,79.710,94.889,-76.244
15:34:06:817,46.512,-0.185,-0.078,-0.077,79.732,96.137,-76.466
15:34:06:844,46.539,-0.127,0.067,-0.101,79.922,98.800,-76.885
15:34:06:871,46.566,-0.127,0.067,-0.101,79.922,98.800,-76.885
15:34:06:898,46.593,-0.178,0.182,-0.075,79.420,101.300,-76.409
15:34:06:925,46.620,-0.058,0.162,-0.014,79.062,102.273,-75.970
15:34:06:952,46.647,0.008,0.092,-0.032,78.414,103.757,-75.026
15:34:06:979,46.674,-0.066,0.071,-0.091,77.936,104.671,-74.440
15:34:07:007,46.702,-0.189,0.148,-0.066,77.331,105.342,-74.013
15:34:07:035,46.730,-0.224,0.082,0.031,76.971,105.904,-73.814
15:34:07:062,46.757,-0.242,0.054,-0.016,76.982,105.979,-73.914
15:34:07:089,46.784,-0.221,0.013,-0.044,77.220,106.087,-74.319
15:34:07:116,46.811,-0.123,-0.078,-0.024,77.291,106.161,-74.427
15:34:07:143,46.838,-0.123,-0.078,-0.024,77.291,106.161,-74.427
15:34:07:17,46.865,-0.113,-0.141,-0.005,77.123,106.448,-74.494
15:34:07:197,46.892,0.002,-0.265,-0.038,75.440,107.378,-74.419
15:34:07:225,46.920,0.002,-0.265,-0.038,75.440,107.378,-74.419
15:34:07:252,46.947,-0.003,-0.167,-0.123,74.991,107.754,-74.386
15:34:07:28,46.975,-0.003,-0.167,-0.123,74.991,107.754,-74.386
15:34:07:307,47.002,0.135,-0.119,-0.074,73.853,110.415,-73.625
15:34:07:334,47.029,0.089,-0.065,-0.112,73.486,113.492,-72.722
15:34:07:361,47.056,0.014,0.046,-0.078,73.501,113.979,-72.873
15:34:07:389,47.084,0.026,0.061,-0.111,73.877,114.288,-73.455
15:34:07:416,47.111,-0.010,0.133,-0.229,74.576,114.352,-74.252
15:34:07:443,47.138,-0.009,0.243,-0.230,74.984,114.438,-74.646
15:34:07:47,47.165,-0.009,0.243,-0.230,74.984,114.438,-74.646
15:34:07:497,47.192,0.098,0.257,-0.260,76.423,115.167,-75.867
15:34:07:525,47.220,0.098,0.257,-0.260,76.423,115.167,-75.867
15:34:07:552,47.247,-0.211,0.330,-0.176,78.149,115.781,-77.599
15:34:07:58,47.275,-0.286,0.352,-0.157,79.295,115.639,-78.717
15:34:07:607,47.302,-0.286,0.352,-0.157,79.295,115.639,-78.717
15:34:07:634,47.329,-0.171,0.044,-0.135,80.635,115.017,-79.957
15:34:07:661,47.356,-0.171,0.044,-0.135,80.635,115.017,-79.957
15:34:07:688,47.383,-0.171,0.044,-0.135,80.635,115.017,-79.957
15:34:07:715,47.410,-0.082,-0.057,-0.154,80.910,114.453,-80.393
15:34:07:742,47.437,-0.082,-0.057,-0.154,80.910,114.453,-80.393
15:34:07:769,47.464,-0.082,-0.057,-0.154,80.910,114.453,-80.393
15:34:07:797,47.492,-0.082,-0.057,-0.154,80.910,114.453,-80.393
15:34:07:824,47.519,-0.101,-0.479,0.051,81.545,116.855,-82.922
15:34:07:851,47.546,-0.059,-0.458,0.010,81.676,117.522,-82.997
15:34:07:878,47.573,-0.220,-0.156,0.062,81.602,117.818,-82.994
15:34:07:906,47.601,-0.220,-0.156,0.062,81.602,117.818,-82.994
15:34:07:933,47.628,0.027,-0.264,0.056,80.877,119.123,-82.020
15:34:07:96,47.655,0.027,-0.264,0.056,80.877,119.123,-82.020
15:34:07:987,47.682,0.027,-0.264,0.056,80.877,119.123,-82.020
15:34:08:014,47.709,0.105,-0.144,0.200,74.484,120.300,-76.888
15:34:08:041,47.736,0.105,-0.144,0.200,74.484,120.300,-76.888
15:34:08:068,47.763,0.200,-0.357,0.520,66.915,119.471,-71.646
15:34:08:096,47.791,0.128,-0.366,0.653,59.702,117.099,-67.698
15:34:08:123,47.818,0.128,-0.366,0.653,59.702,117.099,-67.698
15:34:08:15,47.845,-0.243,-0.167,0.838,40.770,107.962,-59.834
15:34:08:177,47.872,-0.243,-0.167,0.838,40.770,107.962,-59.834
15:34:08:204,47.899,-0.655,0.370,0.314,8.953,81.248,-41.696
15:34:08:231,47.926,-0.655,0.370,0.314,8.953,81.248,-41.696
15:34:08:259,47.954,-0.655,0.370,0.314,8.953,81.248,-41.696
15:34:08:286,47.981,-0.373,0.361,-0.157,1.068,60.887,-29.057
15:34:08:313,48.008,0.265,0.354,-0.548,2.993,48.164,-17.800
15:34:08:34,48.035,0.265,0.354,-0.548,2.993,48.164,-17.800
15:34:08:367,48.062,0.156,0.236,-0.840,10.179,52.584,-5.325
15:34:08:394,48.089,0.190,0.134,-0.959,11.674,56.455,-1.372
15:34:08:421,48.116,0.190,0.134,-0.959,11.674,56.455,-1.372
15:34:08:448,48.143,0.077,-0.076,-0.818,12.464,69.079,7.724
15:34:08:475,48.170,0.080,-0.104,-0.697,11.741,74.568,11.139
15:34:08:502,48.197,0.091,-0.085,-0.760,11.179,77.134,13.038
15:34:08:53,48.225,0.085,-0.141,-0.815,11.026,77.951,13.634
15:34:08:556,48.251,0.018,-0.221,-0.822,10.629,79.400,13.829
15:34:08:584,48.279,-0.114,0.031,-0.874,10.042,80.761,13.612
15:34:08:611,48.306,-0.180,0.125,-0.870,8.920,83.387,12.936
15:34:08:638,48.333,-0.270,0.203,-0.839,8.003,86.186,11.792
15:34:08:665,48.360,-0.270,0.203,-0.839,8.003,86.186,11.792
15:34:08:692,48.387,-0.270,0.203,-0.839,8.003,86.186,11.792
15:34:08:719,48.414,-0.574,0.547,-0.772,7.128,90.297,8.331
15:34:08:746,48.441,-0.574,0.547,-0.772,7.128,90.297,8.331
15:34:08:774,48.469,-0.574,0.547,-0.772,7.128,90.297,8.331
15:34:08:801,48.496,-0.574,0.547,-0.772,7.128,90.297,8.331
15:34:08:828,48.523,-0.475,-0.125,0.055,6.972,100.763,-3.903
15:34:08:856,48.551,-0.317,-0.211,0.269,6.824,104.790,-9.215
15:34:08:883,48.578,-0.313,-0.126,0.258,6.658,106.502,-13.223
15:34:08:91,48.605,-0.412,0.097,0.222,6.040,108.642,-23.584
15:34:08:938,48.633,-0.319,0.086,0.569,6.238,110.850,-29.297
15:34:08:964,48.659,-0.182,-0.057,0.764,6.880,112.938,-34.813
15:34:08:992,48.687,-0.136,-0.130,0.806,7.302,113.875,-38.402
15:34:09:019,48.714,-0.136,-0.130,0.806,7.302,113.875,-38.402
15:34:09:046,48.741,-0.048,-0.382,0.785,6.729,114.671,-46.634
15:34:09:073,48.768,-0.036,-0.383,0.716,3.430,114.212,-50.951
15:34:09:1,48.795,0.019,-0.357,0.633,-1.583,114.094,-54.242
15:34:09:127,48.822,0.120,-0.206,0.493,-9.351,114.801,-57.311
15:34:09:154,48.849,0.157,-0.208,0.479,-10.409,115.379,-57.608
15:34:09:181,48.876,0.124,-0.278,0.420,-9.600,116.289,-57.017
15:34:09:209,48.903,0.124,-0.278,0.420,-9.600,116.289,-57.017
15:34:09:237,48.932,0.191,-0.216,0.357,-5.720,117.654,-53.216
15:34:09:264,48.959,0.191,-0.216,0.357,-5.720,117.654,-53.216
15:34:09:291,48.986,0.191,-0.216,0.357,-5.720,117.654,-53.216
15:34:09:318,49.013,0.078,-0.089,0.203,1.587,118.671,-39.680
15:34:09:346,49.040,0.078,-0.089,0.203,1.587,118.671,-39.680
15:34:09:373,49.068,0.051,-0.152,0.111,2.625,117.892,-32.874
15:34:09:4,49.095,0.051,-0.152,0.111,2.625,117.892,-32.874
15:34:09:427,49.122,0.051,-0.152,0.111,2.625,117.892,-32.874
15:34:09:454,49.149,0.054,-0.157,0.037,2.840,117.019,-28.183
15:34:09:481,49.176,0.007,0.049,-0.058,3.060,115.704,-21.263
15:34:09:509,49.204,-0.366,0.162,-0.532,5.596,118.360,-2.850
15:34:09:536,49.231,-0.366,0.162,-0.532,5.596,118.360,-2.850
15:34:09:563,49.258,-0.336,0.053,-0.553,4.994,130.258,9.186
15:34:09:59,49.285,-0.336,0.053,-0.553,4.994,130.258,9.186
15:34:09:618,49.313,-0.336,0.053,-0.553,4.994,130.258,9.186
15:34:09:645,49.340,-0.591,-0.195,-0.639,3.211,137.149,16.208
15:34:09:672,49.367,-0.591,-0.195,-0.639,3.211,137.149,16.208
15:34:09:699,49.394,-0.591,-0.195,-0.639,3.211,137.149,16.208
15:34:09:726,49.421,-0.661,-0.345,-0.635,3.562,136.849,16.582
15:34:09:754,49.449,-0.717,-0.250,-0.614,3.605,137.347,16.726
15:34:09:78,49.475,-0.797,0.333,-0.127,2.549,143.600,14.024
15:34:09:808,49.503,-0.736,0.405,-0.033,2.525,145.218,12.284
15:34:09:835,49.530,-0.736,0.405,-0.033,2.525,145.218,12.284
15:34:09:862,49.557,-0.270,-0.147,0.080,2.834,148.270,6.096
15:34:09:889,49.584,-0.187,-0.255,0.103,2.803,148.896,1.183
15:34:09:917,49.612,-0.178,-0.266,0.134,1.213,147.773,-8.842
15:34:09:944,49.638,-0.112,-0.131,0.207,-0.695,146.877,-15.246
15:34:09:971,49.666,-0.039,0.207,0.301,-2.258,146.549,-19.388
15:34:09:998,49.693,0.117,0.281,0.398,-4.337,146.957,-25.093
15:34:10:025,49.720,0.301,0.125,0.526,-5.514,147.887,-30.213
15:34:10:052,49.747,0.339,0.016,0.567,-6.224,147.979,-33.355
15:34:10:079,49.774,0.403,0.016,0.561,-7.724,147.286,-37.423
15:34:10:107,49.802,0.459,-0.028,0.531,-8.925,146.604,-39.551
15:34:10:134,49.829,0.459,-0.028,0.531,-8.925,146.604,-39.551
15:34:10:161,49.856,0.454,-0.356,0.332,-13.442,144.015,-43.472
15:34:10:188,49.883,0.600,-0.353,0.317,-14.758,143.008,-43.633
15:34:10:215,49.910,0.693,-0.026,0.343,-15.240,141.402,-42.448
15:34:10:242,49.937,0.693,-0.026,0.343,-15.240,141.402,-42.448
15:34:10:269,49.964,0.632,0.019,0.433,-13.366,138.171,-38.320
15:34:10:296,49.991,0.606,0.122,0.372,-12.075,135.668,-34.694
15:34:10:324,50.019,0.451,0.144,0.265,-11.082,133.876,-31.937
15:34:10:351,50.046,0.196,0.103,0.108,-9.181,131.539,-27.259
15:34:10:378,50.073,0.196,0.103,0.108,-9.181,131.539,-27.259
15:34:10:405,50.100,0.000,-0.218,-0.106,-4.904,130.206,-19.347
15:34:10:432,50.127,-0.102,-0.382,-0.207,-2.424,130.213,-14.876
15:34:10:46,50.155,-0.186,-0.416,-0.216,-0.953,129.997,-12.232
15:34:10:487,50.182,-0.216,-0.385,-0.060,0.907,129.375,-8.657
15:34:10:514,50.209,-0.438,-0.119,-0.131,1.652,128.392,-6.656
15:34:10:541,50.236,-0.571,0.114,-0.340,2.407,127.232,-3.938
15:34:10:568,50.263,-0.571,0.114,-0.340,2.407,127.232,-3.938
15:34:10:595,50.290,-0.571,0.114,-0.340,2.407,127.232,-3.938
15:34:10:623,50.318,-0.768,0.083,-0.461,5.538,127.313,4.918
15:34:10:65,50.345,-0.768,0.083,-0.461,5.538,127.313,4.918
15:34:10:677,50.372,-0.642,0.020,-0.204,6.280,129.179,7.968
15:34:10:704,50.399,-0.642,0.020,-0.204,6.280,129.179,7.968
15:34:10:732,50.427,-0.642,0.020,-0.204,6.280,129.179,7.968
15:34:10:758,50.453,-0.725,0.126,-0.298,5.167,129.923,8.220
15:34:10:786,50.481,-0.725,0.126,-0.298,5.167,129.923,8.220
15:34:10:813,50.508,-0.661,0.570,0.007,2.803,134.950,5.940
15:34:10:84,50.535,-0.396,0.431,0.128,1.049,139.202,3.299
15:34:10:867,50.562,-0.193,0.141,0.099,-0.562,143.122,-0.496
15:34:10:894,50.589,-0.106,-0.086,0.034,-1.742,145.368,-3.649
15:34:10:921,50.616,-0.057,-0.183,0.030,-3.817,148.518,-9.168
15:34:10:949,50.644,-0.030,-0.168,0.055,-5.385,150.496,-13.308
15:34:10:976,50.671,0.030,-0.089,0.114,-7.867,153.487,-19.918
15:34:11:003,50.698,0.153,-0.057,0.160,-10.316,156.558,-26.665
15:34:11:03,50.725,0.153,-0.057,0.160,-10.316,156.558,-26.665
15:34:11:057,50.752,0.330,-0.130,0.194,-13.371,161.720,-37.511
15:34:11:085,50.780,0.330,-0.130,0.194,-13.371,161.720,-37.511
15:34:11:112,50.807,0.527,-0.260,0.249,-15.041,165.650,-47.055
15:34:11:139,50.834,0.700,-0.209,0.291,-16.163,166.806,-51.713
15:34:11:166,50.861,0.742,-0.214,0.302,-17.045,166.968,-54.112
15:34:11:193,50.888,0.596,-0.320,0.243,-18.692,166.238,-56.405
15:34:11:221,50.916,0.462,-0.313,0.117,-20.207,165.198,-57.049
15:34:11:248,50.943,0.510,-0.164,0.069,-22.040,163.536,-56.832
15:34:11:275,50.970,0.660,0.025,0.110,-21.361,162.153,-55.009
15:34:11:302,50.997,0.632,0.026,0.164,-19.126,161.377,-52.840
15:34:11:329,51.024,0.558,0.016,0.226,-14.752,159.981,-48.328
15:34:11:357,51.052,0.517,0.162,0.261,-8.888,156.396,-38.691
15:34:11:384,51.079,0.517,0.162,0.261,-8.888,156.396,-38.691
15:34:11:411,51.106,0.134,0.108,0.133,-4.593,151.624,-27.494
15:34:11:438,51.133,-0.075,-0.019,-0.056,-2.218,149.092,-20.726
15:34:11:465,51.160,-0.075,-0.019,-0.056,-2.218,149.092,-20.726
15:34:11:492,51.187,-0.221,-0.061,-0.125,1.666,147.719,-11.008
15:34:11:519,51.214,-0.358,-0.119,-0.154,3.611,148.730,-5.957
15:34:11:547,51.242,-0.358,-0.119,-0.154,3.611,148.730,-5.957
15:34:11:574,51.269,-0.461,-0.120,-0.198,5.816,152.226,1.382
15:34:11:601,51.296,-0.461,-0.120,-0.198,5.816,152.226,1.382
15:34:11:628,51.323,-0.701,-0.016,-0.232,7.025,155.888,7.863
15:34:11:655,51.350,-0.809,-0.079,-0.270,7.617,157.751,11.152
15:34:11:682,51.377,-0.809,-0.079,-0.270,7.617,157.751,11.152
15:34:11:709,51.404,-0.821,-0.131,-0.194,7.602,161.133,14.822
15:34:11:736,51.431,-0.849,-0.074,-0.049,5.881,164.326,15.070
15:34:11:763,51.458,-0.899,0.135,0.007,3.946,167.241,14.211
15:34:11:79,51.485,-0.899,0.135,0.007,3.946,167.241,14.211
15:34:11:818,51.513,-0.899,0.135,0.007,3.946,167.241,14.211
15:34:11:845,51.540,-0.711,0.193,0.234,1.674,171.386,11.420
15:34:11:872,51.567,-0.756,0.278,0.307,1.268,172.383,9.813
15:34:11:899,51.594,-0.756,0.278,0.307,1.268,172.383,9.813
15:34:11:927,51.622,-0.453,0.508,0.437,0.689,179.524,4.699
15:34:11:954,51.649,-0.010,-0.006,0.273,1.569,-174.347,-1.401
15:34:11:981,51.676,0.069,-0.098,0.217,1.788,-172.925,-4.641
15:34:12:009,51.704,0.215,-0.042,0.294,1.693,-171.570,-10.040
15:34:12:038,51.733,0.232,0.003,0.310,1.151,-170.794,-15.733
15:34:12:065,51.760,0.393,-0.097,0.202,0.373,-168.144,-25.764
15:34:12:092,51.787,0.524,-0.067,0.200,-0.101,-167.367,-29.886
15:34:12:119,51.814,0.524,-0.067,0.200,-0.101,-167.367,-29.886
15:34:12:146,51.841,0.524,-0.067,0.200,-0.101,-167.367,-29.886
15:34:12:173,51.868,0.524,-0.067,0.200,-0.101,-167.367,-29.886
15:34:12:201,51.896,0.524,-0.067,0.200,-0.101,-167.367,-29.886
15:34:12:228,51.923,0.524,-0.067,0.200,-0.101,-167.367,-29.886
15:34:12:255,51.950,0.571,-0.313,0.151,-8.788,-171.230,-51.619
15:34:12:282,51.977,0.512,-0.274,0.104,-10.994,-172.754,-52.405
15:34:12:31,52.005,0.512,-0.274,0.104,-10.994,-172.754,-52.405
15:34:12:336,52.031,0.533,-0.173,-0.014,-13.487,-176.011,-51.333
15:34:12:364,52.059,0.521,-0.155,-0.004,-13.481,-176.904,-50.014
15:34:12:391,52.086,0.495,0.031,-0.072,-13.088,-178.097,-47.058
15:34:12:418,52.113,0.366,0.095,-0.109,-12.102,-178.635,-44.489
15:34:12:445,52.140,0.269,0.047,-0.080,-9.663,-179.073,-39.995
15:34:12:473,52.168,0.106,-0.120,-0.006,-6.989,-179.129,-34.938
15:34:12:5,52.195,0.005,-0.177,-0.045,-5.423,-178.813,-31.353
15:34:12:527,52.222,-0.139,-0.127,-0.103,-3.322,-177.417,-25.830
15:34:12:554,52.249,-0.286,-0.063,-0.140,-1.818,-175.582,-22.218
15:34:12:582,52.277,-0.286,-0.063,-0.140,-1.818,-175.582,-22.218
15:34:12:61,52.305,-0.135,-0.015,0.087,2.540,-167.726,-12.142
15:34:12:636,52.331,-0.162,0.115,0.104,3.333,-165.964,-8.721
15:34:12:664,52.359,-0.162,0.115,0.104,3.333,-165.964,-8.721
15:34:12:69,52.385,-0.232,0.130,0.118,5.321,-165.103,-0.855
15:34:12:718,52.413,-0.232,0.130,0.118,5.321,-165.103,-0.855
15:34:12:745,52.440,-0.232,0.130,0.118,5.321,-165.103,-0.855
15:34:12:772,52.467,-0.232,0.130,0.118,5.321,-165.103,-0.855
15:34:12:8,52.495,-0.866,-0.115,0.432,10.688,-178.381,7.519
15:34:12:827,52.522,-0.866,-0.115,0.432,10.688,-178.381,7.519
15:34:12:854,52.549,-0.607,-0.099,0.357,9.081,-175.818,7.319
15:34:12:881,52.576,-0.751,0.144,0.579,7.171,-171.607,7.494
15:34:12:909,52.604,-0.752,0.237,0.653,5.702,-167.436,7.627
15:34:12:935,52.630,-0.317,0.187,0.626,1.902,-155.648,6.351
15:34:12:963,52.658,-0.317,0.187,0.626,1.902,-155.648,6.351
15:34:12:99,52.685,-0.317,0.187,0.626,1.902,-155.648,6.351
15:34:13:017,52.712,0.256,0.453,0.195,-3.216,-130.428,-0.088
15:34:13:045,52.740,0.256,0.453,0.195,-3.216,-130.428,-0.088
15:34:13:072,52.767,0.256,0.453,0.195,-3.216,-130.428,-0.088
15:34:13:1,52.795,0.256,0.453,0.195,-3.216,-130.428,-0.088
15:34:13:127,52.822,0.127,-0.388,0.197,-2.184,-123.248,-6.465
15:34:13:154,52.849,0.221,-0.298,-0.079,-1.880,-122.760,-14.291
15:34:13:181,52.876,0.271,-0.112,-0.072,-2.454,-123.402,-19.677
15:34:13:208,52.903,0.445,0.103,-0.162,-3.884,-124.653,-28.346
15:34:13:236,52.931,0.528,0.101,-0.281,-4.456,-125.090,-32.829
15:34:13:263,52.958,0.528,0.101,-0.281,-4.456,-125.090,-32.829
15:34:13:29,52.985,0.579,-0.037,-0.357,-6.182,-126.957,-39.099
15:34:13:318,53.013,0.603,-0.012,-0.404,-8.199,-128.630,-41.784
15:34:13:345,53.040,0.581,-0.018,-0.391,-9.678,-129.672,-42.997
15:34:13:373,53.068,0.428,-0.165,-0.310,-11.492,-130.718,-44.005
15:34:13:4,53.095,0.262,-0.234,-0.249,-12.204,-130.931,-44.215
15:34:13:427,53.122,0.246,-0.215,-0.308,-12.167,-130.359,-43.917
15:34:13:454,53.149,0.246,-0.215,-0.308,-12.167,-130.359,-43.917
15:34:13:481,53.176,0.258,-0.034,-0.334,-9.242,-128.195,-41.367
