Time,Second,AccelerationX,AccelerationY,AccelerationZ,EulerAnglesX,EulerAnglesY,EulerAnglesZ
15:39:59:548,0.000,-0.002,0.009,0.002,-11.900,70.326,2.766
15:39:59:575,0.027,-0.002,0.009,0.002,-11.900,70.326,2.766
15:39:59:602,0.054,-0.002,0.009,0.002,-11.900,70.326,2.766
15:39:59:629,0.081,-0.002,0.009,0.002,-11.900,70.326,2.766
15:39:59:656,0.109,0.005,-0.015,0.007,-11.714,70.465,2.788
15:39:59:684,0.136,0.005,-0.015,0.007,-11.714,70.465,2.788
15:39:59:711,0.164,0.005,-0.015,0.007,-11.714,70.465,2.788
15:39:59:739,0.191,0.005,-0.015,0.007,-11.714,70.465,2.788
15:39:59:766,0.218,-0.002,-0.010,0.000,-11.577,70.417,2.864
15:39:59:793,0.245,-0.002,-0.010,0.000,-11.577,70.417,2.864
15:39:59:82,0.272,0.001,-0.003,0.002,-11.525,70.391,2.887
15:39:59:847,0.299,0.001,-0.003,0.002,-11.525,70.391,2.887
15:39:59:874,0.326,0.001,-0.003,0.002,-11.525,70.391,2.887
15:39:59:901,0.353,0.001,-0.003,0.002,-11.525,70.391,2.887
15:39:59:928,0.381,0.001,-0.003,0.002,-11.525,70.391,2.887
15:39:59:956,0.408,-0.003,-0.003,0.001,-11.592,70.094,2.934
15:39:59:982,0.435,-0.003,-0.003,0.001,-11.592,70.094,2.934
15:40:00:01,0.462,-0.003,-0.003,0.001,-11.592,70.094,2.934
15:40:00:037,0.490,-0.003,-0.003,0.001,-11.592,70.094,2.934
15:40:00:066,0.518,-0.003,-0.003,0.001,-11.592,70.094,2.934
15:40:00:093,0.546,-0.003,-0.003,0.001,-11.592,70.094,2.934
15:40:00:12,0.572,0.016,0.003,-0.003,-11.587,70.046,2.919
15:40:00:148,0.600,0.016,0.003,-0.003,-11.587,70.046,2.919
15:40:00:175,0.627,0.016,0.003,-0.003,-11.587,70.046,2.919
15:40:00:202,0.654,0.016,0.003,-0.003,-11.587,70.046,2.919
15:40:00:229,0.681,0.004,0.000,-0.001,-11.662,69.755,2.762
15:40:00:257,0.709,0.004,0.000,-0.001,-11.662,69.755,2.762
15:40:00:284,0.736,0.004,0.000,-0.001,-11.662,69.755,2.762
15:40:00:311,0.763,0.003,-0.005,0.007,-11.710,69.641,2.644
15:40:00:338,0.790,0.005,-0.017,0.005,-11.728,69.619,2.613
15:40:00:365,0.818,0.005,-0.017,0.005,-11.728,69.619,2.613
15:40:00:392,0.844,0.016,0.016,0.013,-11.802,69.642,2.514
15:40:00:42,0.872,0.016,0.016,0.013,-11.802,69.642,2.514
15:40:00:447,0.900,0.016,0.016,0.013,-11.802,69.642,2.514
15:40:00:474,0.926,0.016,0.016,0.013,-11.802,69.642,2.514
15:40:00:502,0.954,0.016,0.016,0.013,-11.802,69.642,2.514
15:40:00:529,0.981,-0.011,-0.002,0.006,-11.840,69.664,2.430
15:40:00:556,1.008,-0.011,-0.002,0.006,-11.840,69.664,2.430
15:40:00:583,1.035,-0.011,-0.002,0.006,-11.840,69.664,2.430
15:40:00:61,1.062,0.003,-0.007,0.009,-11.879,69.629,2.223
15:40:00:637,1.090,0.009,-0.008,0.006,-11.938,69.727,2.184
15:40:00:665,1.117,0.009,-0.008,0.006,-11.938,69.727,2.184
15:40:00:692,1.144,0.009,-0.008,0.006,-11.938,69.727,2.184
15:40:00:719,1.171,0.000,-0.008,0.017,-11.955,69.670,2.152
15:40:00:746,1.198,0.000,-0.008,0.017,-11.955,69.670,2.152
15:40:00:773,1.226,0.000,-0.008,0.017,-11.955,69.670,2.152
15:40:00:801,1.253,-0.001,-0.003,0.006,-11.955,69.592,2.040
15:40:00:827,1.280,0.002,-0.011,0.005,-11.952,69.507,1.899
15:40:00:855,1.307,0.002,-0.011,0.005,-11.952,69.507,1.899
15:40:00:882,1.334,0.002,-0.011,0.005,-11.952,69.507,1.899
15:40:00:909,1.361,0.013,-0.012,0.013,-11.973,69.584,1.633
15:40:00:936,1.389,0.013,-0.012,0.013,-11.973,69.584,1.633
15:40:00:964,1.416,-0.009,0.012,0.010,-11.994,69.726,1.566
15:40:00:991,1.443,-0.009,0.012,0.010,-11.994,69.726,1.566
15:40:01:018,1.470,0.002,-0.007,0.018,-11.787,69.793,1.213
15:40:01:046,1.498,0.007,-0.012,0.018,-11.770,69.860,1.344
15:40:01:073,1.525,0.007,-0.012,0.018,-11.770,69.860,1.344
15:40:01:1,1.552,0.007,-0.012,0.018,-11.770,69.860,1.344
15:40:01:127,1.580,0.007,-0.012,0.018,-11.770,69.860,1.344
15:40:01:155,1.607,0.007,-0.012,0.018,-11.770,69.860,1.344
15:40:01:183,1.635,-0.018,-0.009,0.002,-11.796,69.879,1.390
15:40:01:211,1.663,-0.003,-0.004,0.014,-11.800,69.929,1.395
15:40:01:238,1.690,-0.003,-0.004,0.014,-11.800,69.929,1.395
15:40:01:265,1.718,-0.003,-0.004,0.014,-11.800,69.929,1.395
15:40:01:293,1.745,0.004,0.002,0.011,-11.859,69.915,1.412
15:40:01:32,1.772,-0.006,0.004,-0.022,-11.893,70.142,1.487
15:40:01:347,1.799,-0.006,0.004,-0.022,-11.893,70.142,1.487
15:40:01:374,1.827,-0.006,0.004,-0.022,-11.893,70.142,1.487
15:40:01:402,1.854,-0.015,-0.021,0.007,-11.892,70.450,1.504
15:40:01:429,1.881,-0.015,-0.021,0.007,-11.892,70.450,1.504
15:40:01:456,1.908,-0.015,-0.021,0.007,-11.892,70.450,1.504
15:40:01:484,1.936,-0.015,-0.021,0.007,-11.892,70.450,1.504
15:40:01:511,1.963,-0.015,-0.021,0.007,-11.892,70.450,1.504
15:40:01:538,1.990,-0.015,-0.021,0.007,-11.892,70.450,1.504
15:40:01:565,2.017,-0.015,-0.021,0.007,-11.892,70.450,1.504
15:40:01:592,2.044,0.001,-0.004,0.026,-11.857,70.465,1.504
15:40:01:619,2.072,-0.012,-0.002,0.014,-11.838,70.437,1.495
15:40:01:646,2.099,-0.012,-0.002,0.014,-11.838,70.437,1.495
15:40:01:673,2.125,0.002,-0.007,0.012,-11.841,70.475,1.512
15:40:01:7,2.153,0.002,-0.007,0.012,-11.841,70.475,1.512
15:40:01:727,2.179,0.002,-0.007,0.012,-11.841,70.475,1.512
15:40:01:754,2.207,0.002,-0.007,0.012,-11.841,70.475,1.512
15:40:01:781,2.234,0.005,-0.001,0.008,-11.840,70.473,1.532
15:40:01:809,2.261,0.005,-0.001,0.008,-11.840,70.473,1.532
15:40:01:836,2.288,0.005,-0.001,0.008,-11.840,70.473,1.532
15:40:01:863,2.315,0.002,-0.008,0.015,-11.834,70.506,1.597
15:40:01:89,2.343,0.006,0.018,0.025,-11.824,70.542,1.598
15:40:01:918,2.370,0.006,0.018,0.025,-11.824,70.542,1.598
15:40:01:945,2.397,0.006,0.018,0.025,-11.824,70.542,1.598
15:40:01:972,2.425,-0.006,0.002,0.014,-11.825,70.577,1.589
15:40:01:999,2.451,-0.006,0.002,0.014,-11.825,70.577,1.589
15:40:02:027,2.479,-0.006,0.002,0.014,-11.825,70.577,1.589
15:40:02:054,2.506,-0.006,0.002,0.014,-11.825,70.577,1.589
15:40:02:081,2.533,-0.006,0.002,0.014,-11.825,70.577,1.589
15:40:02:108,2.560,-0.006,0.002,0.014,-11.825,70.577,1.589
15:40:02:136,2.588,-0.006,0.002,0.014,-11.825,70.577,1.589
15:40:02:163,2.615,0.000,-0.009,0.011,-11.767,70.562,1.510
15:40:02:19,2.643,0.000,-0.009,0.011,-11.767,70.562,1.510
15:40:02:218,2.670,0.000,-0.009,0.011,-11.767,70.562,1.510
15:40:02:245,2.698,0.000,-0.009,0.011,-11.767,70.562,1.510
15:40:02:272,2.724,-0.007,-0.013,0.013,-11.653,70.556,1.445
15:40:02:299,2.752,-0.013,-0.012,0.009,-11.604,70.579,1.428
15:40:02:326,2.779,-0.013,-0.012,0.009,-11.604,70.579,1.428
15:40:02:353,2.805,-0.013,-0.012,0.009,-11.604,70.579,1.428
15:40:02:381,2.833,-0.013,-0.012,0.009,-11.604,70.579,1.428
15:40:02:408,2.861,-0.013,-0.012,0.009,-11.604,70.579,1.428
15:40:02:436,2.888,-0.013,-0.012,0.009,-11.604,70.579,1.428
15:40:02:463,2.915,-0.013,-0.012,0.009,-11.604,70.579,1.428
15:40:02:49,2.942,-0.013,-0.012,0.009,-11.604,70.579,1.428
15:40:02:517,2.970,-0.013,-0.012,0.009,-11.604,70.579,1.428
15:40:02:544,2.996,0.011,-0.013,0.010,-11.600,70.540,1.422
15:40:02:572,3.024,0.002,-0.013,0.013,-11.582,70.482,1.451
15:40:02:599,3.051,0.002,-0.013,0.013,-11.582,70.482,1.451
15:40:02:626,3.078,0.002,-0.013,0.013,-11.582,70.482,1.451
15:40:02:654,3.106,0.002,-0.013,0.013,-11.582,70.482,1.451
15:40:02:681,3.133,0.002,-0.013,0.013,-11.582,70.482,1.451
15:40:02:708,3.160,0.009,-0.015,0.009,-11.576,70.461,1.463
15:40:02:736,3.188,-0.004,0.003,0.012,-11.622,70.575,1.461
15:40:02:763,3.215,-0.004,0.003,0.012,-11.622,70.575,1.461
15:40:02:79,3.242,-0.004,0.003,0.012,-11.622,70.575,1.461
15:40:02:817,3.269,-0.004,0.003,0.012,-11.622,70.575,1.461
15:40:02:844,3.296,0.002,-0.008,0.016,-11.627,70.478,1.331
15:40:02:871,3.323,0.002,-0.008,0.016,-11.627,70.478,1.331
15:40:02:899,3.351,0.002,-0.008,0.016,-11.627,70.478,1.331
15:40:02:926,3.378,0.002,-0.008,0.016,-11.627,70.478,1.331
15:40:02:954,3.406,0.002,-0.008,0.016,-11.627,70.478,1.331
15:40:02:981,3.433,0.002,-0.008,0.016,-11.627,70.478,1.331
15:40:03:008,3.460,0.002,-0.008,0.016,-11.627,70.478,1.331
15:40:03:035,3.487,0.008,0.004,0.016,-11.616,70.403,1.288
15:40:03:062,3.514,0.008,0.004,0.016,-11.616,70.403,1.288
15:40:03:089,3.541,0.008,0.004,0.016,-11.616,70.403,1.288
15:40:03:116,3.568,0.008,0.004,0.016,-11.616,70.403,1.288
15:40:03:144,3.596,0.008,0.004,0.016,-11.616,70.403,1.288
15:40:03:171,3.623,0.008,0.004,0.016,-11.616,70.403,1.288
15:40:03:198,3.650,0.008,0.004,0.016,-11.616,70.403,1.288
15:40:03:225,3.677,0.008,0.004,0.016,-11.616,70.403,1.288
15:40:03:252,3.705,-0.007,-0.001,0.008,-11.586,70.330,1.233
15:40:03:281,3.733,-0.007,-0.001,0.008,-11.586,70.330,1.233
15:40:03:308,3.760,-0.001,-0.001,0.017,-11.587,70.336,1.217
15:40:03:335,3.788,-0.001,-0.001,0.017,-11.587,70.336,1.217
15:40:03:363,3.815,-0.004,-0.008,0.003,-11.580,70.329,1.187
15:40:03:389,3.842,-0.004,-0.008,0.003,-11.580,70.329,1.187
15:40:03:417,3.869,0.004,-0.005,0.001,-11.580,70.329,1.187
15:40:03:444,3.897,-0.005,-0.012,0.010,-11.582,70.381,1.217
15:40:03:471,3.923,-0.005,-0.012,0.010,-11.582,70.381,1.217
15:40:03:499,3.951,-0.005,-0.012,0.010,-11.582,70.381,1.217
15:40:03:525,3.978,0.008,-0.009,0.019,-11.666,70.518,1.231
15:40:03:553,4.005,-0.006,-0.006,0.013,-11.977,70.422,0.941
15:40:03:579,4.032,-0.006,-0.006,0.013,-11.977,70.422,0.941
15:40:03:607,4.059,-0.006,-0.006,0.013,-11.977,70.422,0.941
15:40:03:635,4.087,-0.006,-0.006,0.013,-11.977,70.422,0.941
15:40:03:662,4.114,-0.006,-0.006,0.013,-11.977,70.422,0.941
15:40:03:689,4.141,-0.006,-0.006,0.013,-11.977,70.422,0.941
15:40:03:716,4.168,-0.003,-0.008,0.007,-12.054,70.380,0.908
15:40:03:743,4.196,-0.003,-0.008,0.007,-12.054,70.380,0.908
15:40:03:77,4.222,0.002,-0.010,0.008,-12.145,70.337,0.911
15:40:03:798,4.250,0.002,-0.010,0.008,-12.145,70.337,0.911
15:40:03:825,4.277,0.005,-0.004,0.004,-12.364,70.512,0.743
15:40:03:852,4.304,0.005,-0.004,0.004,-12.364,70.512,0.743
15:40:03:879,4.331,0.005,-0.004,0.004,-12.364,70.512,0.743
15:40:03:906,4.359,0.005,-0.004,0.004,-12.364,70.512,0.743
15:40:03:934,4.386,0.012,-0.005,-0.004,-12.299,70.160,0.865
15:40:03:963,4.415,-0.005,-0.007,0.019,-12.283,70.204,0.928
15:40:03:99,4.443,-0.004,-0.012,0.014,-12.138,70.098,1.151
15:40:04:019,4.471,-0.004,-0.012,0.014,-12.138,70.098,1.151
15:40:04:046,4.499,-0.004,-0.012,0.014,-12.138,70.098,1.151
15:40:04:074,4.526,-0.004,-0.012,0.014,-12.138,70.098,1.151
15:40:04:101,4.554,-0.005,-0.010,0.012,-11.994,70.173,1.308
15:40:04:129,4.581,-0.004,-0.006,0.001,-11.972,70.186,1.330
15:40:04:156,4.608,-0.004,-0.006,0.001,-11.972,70.186,1.330
15:40:04:183,4.635,-0.004,-0.006,0.001,-11.972,70.186,1.330
15:40:04:21,4.662,-0.004,-0.006,0.001,-11.972,70.186,1.330
15:40:04:238,4.690,-0.006,-0.006,0.013,-11.842,70.366,1.503
15:40:04:265,4.717,0.014,-0.006,0.006,-11.810,70.364,1.530
15:40:04:292,4.744,0.014,-0.006,0.006,-11.810,70.364,1.530
15:40:04:319,4.772,0.014,-0.006,0.006,-11.810,70.364,1.530
15:40:04:346,4.798,0.014,-0.006,0.006,-11.810,70.364,1.530
15:40:04:374,4.826,0.014,-0.006,0.006,-11.810,70.364,1.530
15:40:04:401,4.853,0.014,-0.006,0.006,-11.810,70.364,1.530
15:40:04:428,4.880,0.014,-0.006,0.006,-11.810,70.364,1.530
15:40:04:455,4.907,0.014,-0.006,0.006,-11.810,70.364,1.530
15:40:04:482,4.935,0.014,-0.006,0.006,-11.810,70.364,1.530
15:40:04:509,4.961,0.011,-0.004,0.006,-11.735,70.415,1.583
15:40:04:536,4.989,0.008,-0.008,0.014,-11.649,70.461,1.595
15:40:04:563,5.015,0.008,-0.008,0.014,-11.649,70.461,1.595
15:40:04:59,5.043,0.006,-0.005,0.013,-11.639,70.450,1.605
15:40:04:617,5.069,0.010,-0.003,0.009,-11.632,70.428,1.626
15:40:04:645,5.097,0.010,-0.003,0.009,-11.632,70.428,1.626
15:40:04:672,5.124,0.013,-0.007,0.008,-11.608,70.396,1.602
15:40:04:699,5.151,0.013,-0.007,0.008,-11.608,70.396,1.602
15:40:04:726,5.178,0.013,-0.007,0.008,-11.608,70.396,1.602
15:40:04:753,5.205,0.013,-0.007,0.008,-11.608,70.396,1.602
15:40:04:78,5.232,0.000,0.000,0.000,91.539,-101.907,176.970
15:40:04:807,5.259,-0.005,-0.002,0.009,-11.677,70.243,1.380
15:40:04:834,5.287,-0.005,-0.002,0.009,-11.677,70.243,1.380
15:40:04:862,5.314,-0.005,-0.002,0.009,-11.677,70.243,1.380
15:40:04:889,5.341,-0.004,-0.006,0.013,-11.777,70.163,1.213
15:40:04:917,5.369,-0.001,-0.011,0.017,-11.799,69.951,0.983
15:40:04:944,5.396,0.012,0.001,0.010,-11.801,69.796,0.705
15:40:04:971,5.424,0.009,0.001,0.009,-11.808,69.788,0.631
15:40:04:998,5.450,0.001,-0.009,0.020,-11.842,69.788,0.535
15:40:05:026,5.478,0.003,-0.005,0.003,-11.863,69.769,0.474
15:40:05:053,5.505,0.003,-0.005,0.003,-11.863,69.769,0.474
15:40:05:08,5.532,0.003,-0.005,0.006,-11.937,69.798,0.278
15:40:05:108,5.560,0.003,-0.005,0.006,-11.937,69.798,0.278
15:40:05:135,5.587,0.003,-0.005,0.006,-11.937,69.798,0.278
15:40:05:163,5.615,0.003,-0.005,0.006,-11.937,69.798,0.278
15:40:05:19,5.642,-0.001,-0.007,0.008,-12.001,69.879,0.121
15:40:05:219,5.671,0.011,-0.004,0.001,-12.000,69.882,0.091
15:40:05:246,5.698,0.011,-0.004,0.001,-12.000,69.882,0.091
15:40:05:274,5.726,-0.004,-0.005,0.009,-12.009,69.933,0.087
15:40:05:301,5.753,-0.004,-0.005,0.009,-12.009,69.933,0.087
15:40:05:328,5.780,-0.004,-0.005,0.009,-12.009,69.933,0.087
15:40:05:355,5.807,0.006,-0.005,0.007,-12.004,69.993,0.080
15:40:05:382,5.834,-0.008,-0.008,0.018,-12.041,70.131,0.099
15:40:05:409,5.861,-0.008,-0.008,0.018,-12.041,70.131,0.099
15:40:05:436,5.888,-0.008,-0.008,0.018,-12.041,70.131,0.099
15:40:05:463,5.915,0.002,-0.011,0.016,-12.080,70.326,0.142
15:40:05:49,5.942,0.002,-0.011,0.016,-12.080,70.326,0.142
15:40:05:517,5.969,0.002,-0.011,0.016,-12.080,70.326,0.142
15:40:05:544,5.997,0.002,-0.011,0.016,-12.080,70.326,0.142
15:40:05:571,6.023,0.002,-0.011,0.016,-12.080,70.326,0.142
15:40:05:598,6.051,0.002,-0.011,0.016,-12.080,70.326,0.142
15:40:05:625,6.077,0.002,-0.011,0.016,-12.080,70.326,0.142
15:40:05:652,6.105,0.004,-0.006,0.019,-12.131,70.550,0.283
15:40:05:679,6.132,0.009,-0.002,-0.002,-12.173,70.652,0.356
15:40:05:707,6.159,0.003,-0.002,0.016,-12.173,70.645,0.416
15:40:05:733,6.186,0.003,-0.002,0.016,-12.173,70.645,0.416
15:40:05:761,6.213,0.006,0.001,0.009,-12.240,70.751,0.721
15:40:05:788,6.240,0.006,0.001,0.009,-12.240,70.751,0.721
15:40:05:815,6.267,0.006,0.001,0.009,-12.240,70.751,0.721
15:40:05:843,6.295,0.006,0.001,0.009,-12.240,70.751,0.721
15:40:05:87,6.322,-0.001,-0.005,0.019,-12.369,70.905,0.900
15:40:05:897,6.349,-0.001,-0.005,0.019,-12.369,70.905,0.900
15:40:05:924,6.376,-0.001,-0.005,0.019,-12.369,70.905,0.900
15:40:05:951,6.403,-0.003,0.000,0.006,-12.423,70.952,0.910
15:40:05:978,6.431,-0.003,0.000,0.006,-12.423,70.952,0.910
15:40:06:005,6.457,-0.003,0.000,0.006,-12.423,70.952,0.910
15:40:06:033,6.485,-0.003,0.000,0.006,-12.423,70.952,0.910
15:40:06:06,6.512,0.007,-0.001,0.008,-12.429,70.877,0.959
15:40:06:088,6.540,0.007,-0.001,0.008,-12.429,70.877,0.959
15:40:06:116,6.568,0.007,-0.001,0.008,-12.429,70.877,0.959
15:40:06:143,6.595,-0.001,-0.011,0.019,-12.424,70.817,1.010
15:40:06:171,6.623,-0.001,-0.011,0.019,-12.424,70.817,1.010
15:40:06:198,6.650,-0.001,-0.011,0.019,-12.424,70.817,1.010
15:40:06:226,6.678,-0.001,-0.011,0.019,-12.424,70.817,1.010
15:40:06:253,6.705,-0.001,-0.011,0.019,-12.424,70.817,1.010
15:40:06:28,6.732,-0.001,-0.011,0.019,-12.424,70.817,1.010
15:40:06:307,6.760,-0.001,-0.011,0.019,-12.424,70.817,1.010
15:40:06:334,6.786,-0.002,-0.005,0.014,-12.420,70.765,1.070
15:40:06:361,6.813,-0.004,-0.004,0.008,-12.417,70.761,1.100
15:40:06:389,6.841,-0.004,-0.004,0.008,-12.417,70.761,1.100
15:40:06:416,6.868,-0.004,-0.004,0.008,-12.417,70.761,1.100
15:40:06:443,6.895,-0.004,-0.008,0.009,-12.412,70.762,1.100
15:40:06:47,6.922,-0.004,-0.008,0.009,-12.412,70.762,1.100
15:40:06:497,6.949,-0.004,-0.008,0.009,-12.412,70.762,1.100
15:40:06:524,6.976,0.000,-0.004,0.006,-12.417,70.756,1.106
15:40:06:551,7.004,-0.002,-0.005,0.005,-12.503,70.813,1.027
15:40:06:578,7.031,-0.012,-0.003,0.008,-12.564,70.845,0.955
15:40:06:606,7.058,-0.012,-0.003,0.008,-12.564,70.845,0.955
15:40:06:633,7.085,0.000,0.003,0.008,-12.590,70.835,0.948
15:40:06:66,7.112,0.000,0.003,0.008,-12.590,70.835,0.948
15:40:06:688,7.140,0.000,0.003,0.008,-12.590,70.835,0.948
15:40:06:715,7.167,0.000,0.003,0.008,-12.590,70.835,0.948
15:40:06:743,7.195,0.002,-0.003,0.006,-12.628,70.795,0.981
15:40:06:77,7.222,0.002,-0.003,0.006,-12.628,70.795,0.981
15:40:06:797,7.249,0.002,-0.003,0.006,-12.628,70.795,0.981
15:40:06:826,7.278,-0.006,-0.011,0.006,-12.689,70.837,0.962
15:40:06:853,7.306,-0.006,-0.011,0.006,-12.689,70.837,0.962
15:40:06:881,7.333,-0.006,-0.011,0.006,-12.689,70.837,0.962
15:40:06:91,7.362,-0.006,-0.011,0.006,-12.689,70.837,0.962
15:40:06:937,7.389,-0.006,-0.011,0.006,-12.689,70.837,0.962
15:40:06:964,7.416,-0.006,-0.011,0.006,-12.689,70.837,0.962
15:40:06:991,7.444,-0.006,-0.011,0.006,-12.689,70.837,0.962
15:40:07:019,7.471,-0.009,-0.012,0.012,-12.773,70.941,0.908
15:40:07:045,7.498,-0.009,-0.012,0.012,-12.773,70.941,0.908
15:40:07:073,7.525,-0.006,-0.003,0.010,-12.788,70.952,0.853
15:40:07:099,7.552,0.009,-0.002,0.005,-12.800,70.955,0.824
15:40:07:127,7.579,-0.004,-0.004,-0.004,-12.889,71.047,0.656
15:40:07:155,7.607,0.000,-0.004,0.010,-12.943,71.065,0.669
15:40:07:182,7.634,0.000,-0.004,0.010,-12.943,71.065,0.669
15:40:07:209,7.661,0.000,-0.004,0.010,-12.943,71.065,0.669
15:40:07:236,7.688,0.000,-0.004,0.010,-12.943,71.065,0.669
15:40:07:263,7.715,0.000,-0.004,0.010,-12.943,71.065,0.669
15:40:07:291,7.743,0.000,-0.004,0.010,-12.943,71.065,0.669
15:40:07:318,7.770,-0.001,-0.006,0.010,-13.046,71.218,0.631
15:40:07:346,7.798,-0.001,-0.006,0.010,-13.046,71.218,0.631
15:40:07:373,7.825,-0.001,-0.006,0.010,-13.046,71.218,0.631
15:40:07:4,7.852,-0.004,-0.009,0.011,-13.097,71.298,0.616
15:40:07:427,7.879,-0.001,-0.005,0.018,-13.219,71.538,0.564
15:40:07:454,7.906,-0.010,-0.023,0.014,-13.396,72.225,0.308
15:40:07:481,7.933,-0.010,-0.023,0.014,-13.396,72.225,0.308
15:40:07:508,7.961,-0.019,0.017,0.041,-13.452,72.416,0.335
15:40:07:536,7.988,-0.019,0.017,0.041,-13.452,72.416,0.335
15:40:07:563,8.016,-0.019,0.017,0.041,-13.452,72.416,0.335
15:40:07:59,8.042,0.016,0.016,0.024,-13.299,73.897,-0.064
15:40:07:618,8.070,0.016,0.016,0.024,-13.299,73.897,-0.064
15:40:07:645,8.097,0.016,0.016,0.024,-13.299,73.897,-0.064
15:40:07:672,8.124,0.016,0.016,0.024,-13.299,73.897,-0.064
15:40:07:699,8.151,0.000,0.057,0.107,-12.919,76.239,1.495
15:40:07:726,8.178,0.000,0.057,0.107,-12.919,76.239,1.495
15:40:07:753,8.205,0.000,0.057,0.107,-12.919,76.239,1.495
15:40:07:78,8.232,0.000,0.057,0.107,-12.919,76.239,1.495
15:40:07:808,8.260,0.000,0.057,0.107,-12.919,76.239,1.495
15:40:07:835,8.287,0.028,-0.032,-0.107,-13.033,76.364,1.256
15:40:07:862,8.314,0.028,-0.032,-0.107,-13.033,76.364,1.256
15:40:07:889,8.342,0.028,-0.032,-0.107,-13.033,76.364,1.256
15:40:07:917,8.369,0.028,-0.032,-0.107,-13.033,76.364,1.256
15:40:07:943,8.396,0.028,-0.032,-0.107,-13.033,76.364,1.256
15:40:07:971,8.423,0.028,-0.032,-0.107,-13.033,76.364,1.256
15:40:07:998,8.450,0.028,-0.032,-0.107,-13.033,76.364,1.256
15:40:08:026,8.478,0.028,-0.032,-0.107,-13.033,76.364,1.256
15:40:08:053,8.505,0.028,-0.032,-0.107,-13.033,76.364,1.256
15:40:08:08,8.532,0.028,-0.032,-0.107,-13.033,76.364,1.256
15:40:08:107,8.559,0.028,-0.032,-0.107,-13.033,76.364,1.256
15:40:08:135,8.587,0.028,-0.032,-0.107,-13.033,76.364,1.256
15:40:08:162,8.614,0.028,-0.032,-0.107,-13.033,76.364,1.256
15:40:08:189,8.641,0.017,-0.017,-0.047,-13.056,76.473,1.648
15:40:08:216,8.669,-0.006,-0.006,-0.001,-13.051,76.422,2.396
15:40:08:243,8.695,0.016,0.015,-0.001,-12.922,75.621,3.991
15:40:08:27,8.723,0.016,0.015,-0.001,-12.922,75.621,3.991
15:40:08:298,8.750,0.016,0.015,-0.001,-12.922,75.621,3.991
15:40:08:324,8.777,0.016,0.015,-0.001,-12.922,75.621,3.991
15:40:08:352,8.804,0.016,0.015,-0.001,-12.922,75.621,3.991
15:40:08:379,8.831,0.242,0.256,-0.664,-12.551,70.368,11.923
15:40:08:406,8.859,0.477,-0.269,-0.948,-11.155,64.185,16.103
15:40:08:433,8.885,0.476,-0.063,-0.296,-10.903,59.901,11.745
15:40:08:46,8.913,0.476,-0.063,-0.296,-10.903,59.901,11.745
15:40:08:488,8.940,0.103,0.042,0.158,-10.249,62.029,4.653
15:40:08:515,8.967,0.103,0.042,0.158,-10.249,62.029,4.653
15:40:08:542,8.995,0.000,0.000,0.000,-7.672,86.955,8.565
15:40:08:57,9.022,0.000,0.000,0.000,-7.672,86.955,8.565
15:40:08:596,9.049,0.000,0.000,0.000,-7.672,86.955,8.565
15:40:08:624,9.076,0.000,0.000,0.000,-7.672,86.955,8.565
15:40:08:651,9.103,0.000,0.000,0.000,-7.672,86.955,8.565
15:40:08:678,9.130,0.281,1.305,-0.729,-6.513,61.910,6.755
15:40:08:705,9.158,-0.427,0.354,0.489,-10.361,62.144,15.774
15:40:08:732,9.184,-0.427,0.354,0.489,-10.361,62.144,15.774
15:40:08:759,9.212,-0.041,0.175,0.156,-12.180,60.233,20.692
15:40:08:787,9.239,-0.041,0.175,0.156,-12.180,60.233,20.692
15:40:08:814,9.266,-0.041,0.175,0.156,-12.180,60.233,20.692
15:40:08:842,9.294,0.138,0.776,0.295,-12.676,57.720,23.629
15:40:08:869,9.321,0.138,0.776,0.295,-12.676,57.720,23.629
15:40:08:897,9.349,0.138,0.776,0.295,-12.676,57.720,23.629
15:40:08:924,9.376,0.138,0.776,0.295,-12.676,57.720,23.629
15:40:08:951,9.403,0.138,0.776,0.295,-12.676,57.720,23.629
15:40:08:979,9.431,-0.854,1.511,1.123,-5.235,44.418,22.068
15:40:09:006,9.458,-0.854,1.511,1.123,-5.235,44.418,22.068
15:40:09:033,9.486,0.015,-0.543,-2.739,-0.812,52.555,53.791
15:40:09:061,9.513,0.015,-0.543,-2.739,-0.812,52.555,53.791
15:40:09:088,9.540,0.015,-0.543,-2.739,-0.812,52.555,53.791
15:40:09:115,9.567,1.019,-1.687,-1.574,57.150,49.534,73.978
15:40:09:142,9.594,1.019,-1.687,-1.574,57.150,49.534,73.978
15:40:09:169,9.622,-0.925,-0.694,-0.739,11.895,59.404,68.637
15:40:09:196,9.648,-0.716,-0.722,-1.185,3.003,61.748,61.088
15:40:09:223,9.676,-0.438,1.854,1.152,-2.147,66.222,5.539
15:40:09:251,9.703,-2.070,-0.858,3.735,-3.413,80.942,-10.563
15:40:09:278,9.730,-1.086,-1.601,3.808,-2.597,84.824,-11.827
15:40:09:304,9.757,-1.086,-1.601,3.808,-2.597,84.824,-11.827
15:40:09:332,9.784,-1.086,-1.601,3.808,-2.597,84.824,-11.827
15:40:09:359,9.811,-0.245,0.493,1.862,-4.368,88.727,7.645
15:40:09:386,9.838,-0.245,0.493,1.862,-4.368,88.727,7.645
15:40:09:414,9.866,-0.245,0.493,1.862,-4.368,88.727,7.645
15:40:09:442,9.894,0.236,0.751,0.248,-4.560,89.347,11.510
15:40:09:468,9.921,-0.067,0.398,0.296,-4.094,89.948,13.625
15:40:09:497,9.949,-0.067,0.398,0.296,-4.094,89.948,13.625
15:40:09:523,9.976,-0.067,0.398,0.296,-4.094,89.948,13.625
15:40:09:551,10.003,0.192,-0.114,-0.429,2.002,85.029,19.123
15:40:09:578,10.031,0.192,-0.114,-0.429,2.002,85.029,19.123
15:40:09:606,10.058,0.192,-0.114,-0.429,2.002,85.029,19.123
15:40:09:634,10.086,0.192,-0.114,-0.429,2.002,85.029,19.123
15:40:09:661,10.113,0.192,-0.114,-0.429,2.002,85.029,19.123
15:40:09:689,10.141,0.192,-0.114,-0.429,2.002,85.029,19.123
15:40:09:716,10.168,0.192,-0.114,-0.429,2.002,85.029,19.123
15:40:09:743,10.195,0.192,-0.114,-0.429,2.002,85.029,19.123
15:40:09:771,10.223,-0.729,-0.465,-1.166,2.612,98.340,37.009
15:40:09:798,10.250,-0.729,-0.465,-1.166,2.612,98.340,37.009
15:40:09:825,10.277,-0.729,-0.465,-1.166,2.612,98.340,37.009
15:40:09:852,10.304,-0.729,-0.465,-1.166,2.612,98.340,37.009
15:40:09:879,10.331,-1.159,-0.405,-2.028,19.180,91.550,46.522
15:40:09:907,10.359,-1.159,-0.405,-2.028,19.180,91.550,46.522
15:40:09:934,10.386,-1.789,-0.281,0.114,8.007,111.062,38.662
15:40:09:961,10.414,-1.676,0.227,0.153,4.490,115.321,32.348
15:40:09:989,10.441,-1.676,0.227,0.153,4.490,115.321,32.348
15:40:10:016,10.468,-1.676,0.227,0.153,4.490,115.321,32.348
15:40:10:043,10.496,1.967,0.090,1.922,-3.681,123.143,-5.077
15:40:10:071,10.523,1.967,0.090,1.922,-3.681,123.143,-5.077
15:40:10:099,10.551,1.967,0.090,1.922,-3.681,123.143,-5.077
15:40:10:126,10.578,1.967,0.090,1.922,-3.681,123.143,-5.077
15:40:10:154,10.606,1.967,0.090,1.922,-3.681,123.143,-5.077
15:40:10:181,10.633,1.967,0.090,1.922,-3.681,123.143,-5.077
15:40:10:208,10.660,2.750,2.831,1.706,-4.070,139.939,1.376
15:40:10:235,10.687,0.104,-0.220,-0.429,-3.971,140.881,5.770
15:40:10:262,10.715,0.104,-0.220,-0.429,-3.971,140.881,5.770
15:40:10:29,10.742,0.104,-0.220,-0.429,-3.971,140.881,5.770
15:40:10:316,10.769,0.104,-0.220,-0.429,-3.971,140.881,5.770
15:40:10:344,10.796,0.038,1.170,-0.333,-3.120,140.188,18.642
15:40:10:371,10.823,0.113,-0.301,-0.024,0.813,135.790,19.717
15:40:10:398,10.850,0.113,-0.301,-0.024,0.813,135.790,19.717
15:40:10:425,10.877,0.113,-0.301,-0.024,0.813,135.790,19.717
15:40:10:453,10.905,0.113,-0.301,-0.024,0.813,135.790,19.717
15:40:10:48,10.932,-0.500,-0.253,-0.764,0.446,140.279,26.379
15:40:10:507,10.959,-0.500,-0.253,-0.764,0.446,140.279,26.379
15:40:10:534,10.987,-2.225,-1.508,-0.719,0.977,147.512,47.399
15:40:10:561,11.013,-2.049,-1.148,-0.524,12.490,144.936,52.847
15:40:10:588,11.041,-2.049,-1.148,-0.524,12.490,144.936,52.847
15:40:10:615,11.067,-1.228,0.261,0.550,3.953,153.455,36.044
15:40:10:642,11.095,-0.180,1.450,0.472,-1.768,161.665,16.217
15:40:10:67,11.122,0.999,0.918,0.283,-2.747,164.319,3.401
15:40:10:697,11.149,3.759,-1.696,0.822,-1.294,176.589,-15.282
15:40:10:724,11.176,3.759,-1.696,0.822,-1.294,176.589,-15.282
15:40:10:751,11.203,3.759,-1.696,0.822,-1.294,176.589,-15.282
15:40:10:778,11.230,3.759,-1.696,0.822,-1.294,176.589,-15.282
15:40:10:805,11.258,3.759,-1.696,0.822,-1.294,176.589,-15.282
15:40:10:832,11.284,3.759,-1.696,0.822,-1.294,176.589,-15.282
15:40:10:859,11.312,3.759,-1.696,0.822,-1.294,176.589,-15.282
15:40:10:886,11.338,3.759,-1.696,0.822,-1.294,176.589,-15.282
15:40:10:913,11.366,1.534,0.589,0.249,-3.837,177.115,9.343
15:40:10:94,11.392,-0.826,0.445,0.079,0.431,178.242,21.086
15:40:10:967,11.420,-0.826,0.445,0.079,0.431,178.242,21.086
15:40:10:994,11.447,-0.422,-0.231,-0.232,3.486,176.939,22.624
15:40:11:022,11.474,-0.422,-0.231,-0.232,3.486,176.939,22.624
15:40:11:048,11.501,-0.947,-0.616,-0.429,2.937,-178.958,26.313
15:40:11:075,11.528,-0.947,-0.616,-0.429,2.937,-178.958,26.313
15:40:11:104,11.556,-0.947,-0.616,-0.429,2.937,-178.958,26.313
15:40:11:13,11.583,-0.947,-0.616,-0.429,2.937,-178.958,26.313
15:40:11:158,11.610,-0.947,-0.616,-0.429,2.937,-178.958,26.313
15:40:11:185,11.637,-0.947,-0.616,-0.429,2.937,-178.958,26.313
15:40:11:212,11.664,-0.947,-0.616,-0.429,2.937,-178.958,26.313
15:40:11:239,11.691,-0.947,-0.616,-0.429,2.937,-178.958,26.313
15:40:11:266,11.718,-0.947,-0.616,-0.429,2.937,-178.958,26.313
15:40:11:293,11.745,-0.947,-0.616,-0.429,2.937,-178.958,26.313
15:40:11:32,11.772,-0.947,-0.616,-0.429,2.937,-178.958,26.313
15:40:11:348,11.800,-2.170,-0.212,1.110,12.420,-175.247,48.832
15:40:11:375,11.827,-1.988,-0.540,1.261,17.166,-175.676,51.055
15:40:11:402,11.854,-1.988,-0.540,1.261,17.166,-175.676,51.055
15:40:11:429,11.881,-0.162,-0.548,1.433,13.923,-165.769,46.665
15:40:11:457,11.909,1.048,0.949,0.039,-0.768,-151.975,12.788
15:40:11:484,11.936,1.048,0.949,0.039,-0.768,-151.975,12.788
15:40:11:511,11.963,1.048,0.949,0.039,-0.768,-151.975,12.788
15:40:11:538,11.990,1.048,0.949,0.039,-0.768,-151.975,12.788
15:40:11:565,12.017,1.048,0.949,0.039,-0.768,-151.975,12.788
15:40:11:592,12.044,1.590,-1.078,-2.023,-4.922,-143.273,-9.201
15:40:11:619,12.071,1.590,-1.078,-2.023,-4.922,-143.273,-9.201
15:40:11:646,12.098,1.590,-1.078,-2.023,-4.922,-143.273,-9.201
15:40:11:673,12.126,1.590,-1.078,-2.023,-4.922,-143.273,-9.201
15:40:11:7,12.153,1.590,-1.078,-2.023,-4.922,-143.273,-9.201
15:40:11:728,12.180,1.590,-1.078,-2.023,-4.922,-143.273,-9.201
15:40:11:755,12.208,1.590,-1.078,-2.023,-4.922,-143.273,-9.201
15:40:11:783,12.235,1.590,-1.078,-2.023,-4.922,-143.273,-9.201
15:40:11:81,12.263,1.590,-1.078,-2.023,-4.922,-143.273,-9.201
15:40:11:838,12.290,1.590,-1.078,-2.023,-4.922,-143.273,-9.201
15:40:11:864,12.317,1.590,-1.078,-2.023,-4.922,-143.273,-9.201
15:40:11:891,12.344,1.590,-1.078,-2.023,-4.922,-143.273,-9.201
15:40:11:919,12.371,1.590,-1.078,-2.023,-4.922,-143.273,-9.201
15:40:11:945,12.398,1.590,-1.078,-2.023,-4.922,-143.273,-9.201
15:40:11:973,12.425,1.590,-1.078,-2.023,-4.922,-143.273,-9.201
15:40:12:,12.452,1.590,-1.078,-2.023,-4.922,-143.273,-9.201
15:40:12:027,12.480,-0.103,-0.516,-2.270,-5.363,-135.393,2.108
15:40:12:055,12.507,0.107,0.359,-0.199,-6.337,-136.962,14.998
15:40:12:081,12.534,0.107,0.359,-0.199,-6.337,-136.962,14.998
15:40:12:11,12.562,0.107,0.359,-0.199,-6.337,-136.962,14.998
15:40:12:136,12.589,-0.769,0.726,0.710,-2.620,-136.155,19.348
15:40:12:164,12.616,-0.486,-0.214,0.653,-0.649,-134.655,29.752
15:40:12:191,12.643,-0.486,-0.214,0.653,-0.649,-134.655,29.752
15:40:12:219,12.671,-0.486,-0.214,0.653,-0.649,-134.655,29.752
15:40:12:246,12.698,-0.613,-0.545,1.200,7.367,-137.176,52.657
15:40:12:273,12.725,0.154,-0.140,0.786,1.582,-135.879,47.271
15:40:12:3,12.752,0.154,-0.140,0.786,1.582,-135.879,47.271
15:40:12:327,12.779,1.482,-0.401,-2.462,-15.226,-130.089,-7.226
15:40:12:354,12.806,0.858,-1.767,-0.817,-13.887,-126.051,9.127
15:40:12:382,12.834,-0.755,1.596,0.650,-14.320,-127.203,24.663
15:40:12:409,12.861,-0.755,1.596,0.650,-14.320,-127.203,24.663
15:40:12:436,12.888,-0.755,1.596,0.650,-14.320,-127.203,24.663
15:40:12:463,12.915,-0.755,1.596,0.650,-14.320,-127.203,24.663
15:40:12:491,12.943,-0.755,1.596,0.650,-14.320,-127.203,24.663
15:40:12:518,12.970,-0.755,1.596,0.650,-14.320,-127.203,24.663
15:40:12:545,12.997,-0.540,-0.072,1.530,-11.671,-129.076,26.296
15:40:12:572,13.024,-0.540,-0.072,1.530,-11.671,-129.076,26.296
15:40:12:599,13.051,-0.540,-0.072,1.530,-11.671,-129.076,26.296
15:40:12:626,13.078,-0.540,-0.072,1.530,-11.671,-129.076,26.296
15:40:12:653,13.105,-1.454,-0.699,1.604,8.489,-140.387,55.324
15:40:12:68,13.133,0.149,-0.448,0.875,0.762,-133.383,49.300
15:40:12:707,13.159,-0.198,-0.248,0.965,-2.990,-131.662,41.859
15:40:12:735,13.187,-0.605,0.289,0.286,-6.045,-129.362,29.208
15:40:12:762,13.215,-0.895,0.842,-0.242,-6.931,-127.864,20.177
15:40:12:79,13.242,-0.895,0.842,-0.242,-6.931,-127.864,20.177
15:40:12:816,13.269,1.581,0.831,-2.112,-7.018,-119.033,-5.191
15:40:12:844,13.296,1.667,-0.524,-3.305,-5.875,-112.948,-10.827
15:40:12:871,13.323,1.667,-0.524,-3.305,-5.875,-112.948,-10.827
15:40:12:898,13.350,1.744,-1.591,-2.702,-3.384,-108.379,-14.393
15:40:12:926,13.378,1.744,-1.591,-2.702,-3.384,-108.379,-14.393
15:40:12:953,13.405,1.744,-1.591,-2.702,-3.384,-108.379,-14.393
15:40:12:98,13.432,1.744,-1.591,-2.702,-3.384,-108.379,-14.393
15:40:13:007,13.460,1.744,-1.591,-2.702,-3.384,-108.379,-14.393
15:40:13:035,13.487,1.744,-1.591,-2.702,-3.384,-108.379,-14.393
15:40:13:062,13.514,1.744,-1.591,-2.702,-3.384,-108.379,-14.393
15:40:13:089,13.542,1.744,-1.591,-2.702,-3.384,-108.379,-14.393
15:40:13:116,13.568,1.744,-1.591,-2.702,-3.384,-108.379,-14.393
15:40:13:143,13.595,1.744,-1.591,-2.702,-3.384,-108.379,-14.393
15:40:13:171,13.623,1.744,-1.591,-2.702,-3.384,-108.379,-14.393
15:40:13:199,13.651,4.482,2.597,-2.729,-2.918,-106.287,-7.532
15:40:13:226,13.678,1.163,-3.769,-2.369,-3.881,-108.640,2.387
15:40:13:253,13.705,1.163,-3.769,-2.369,-3.881,-108.640,2.387
15:40:13:279,13.732,1.163,-3.769,-2.369,-3.881,-108.640,2.387
15:40:13:307,13.759,1.163,-3.769,-2.369,-3.881,-108.640,2.387
15:40:13:334,13.786,1.163,-3.769,-2.369,-3.881,-108.640,2.387
15:40:13:361,13.813,1.163,-3.769,-2.369,-3.881,-108.640,2.387
15:40:13:388,13.840,1.163,-3.769,-2.369,-3.881,-108.640,2.387
15:40:13:415,13.868,1.163,-3.769,-2.369,-3.881,-108.640,2.387
15:40:13:442,13.894,1.163,-3.769,-2.369,-3.881,-108.640,2.387
15:40:13:47,13.922,1.163,-3.769,-2.369,-3.881,-108.640,2.387
15:40:13:497,13.949,1.163,-3.769,-2.369,-3.881,-108.640,2.387
15:40:13:524,13.976,1.163,-3.769,-2.369,-3.881,-108.640,2.387
15:40:13:552,14.004,1.163,-3.769,-2.369,-3.881,-108.640,2.387
15:40:13:579,14.031,0.011,0.483,-0.862,-4.859,-109.625,15.248
15:40:13:606,14.058,-0.748,0.054,1.100,1.740,-113.481,19.413
15:40:13:633,14.085,-0.748,0.054,1.100,1.740,-113.481,19.413
15:40:13:66,14.112,-0.748,0.054,1.100,1.740,-113.481,19.413
15:40:13:687,14.139,-0.748,0.054,1.100,1.740,-113.481,19.413
15:40:13:714,14.166,-0.455,-0.400,0.755,2.414,-107.486,25.227
15:40:13:741,14.194,0.802,-0.737,2.944,26.187,-107.337,49.486
15:40:13:768,14.220,0.802,-0.737,2.944,26.187,-107.337,49.486
15:40:13:795,14.248,1.924,-0.323,0.667,13.240,-84.056,45.622
15:40:13:823,14.275,1.924,-0.323,0.667,13.240,-84.056,45.622
15:40:13:85,14.302,-1.157,-1.109,-3.880,1.650,-60.372,-8.582
15:40:13:879,14.332,-1.157,-1.109,-3.880,1.650,-60.372,-8.582
15:40:13:907,14.359,-1.157,-1.109,-3.880,1.650,-60.372,-8.582
15:40:13:934,14.386,-0.137,2.758,-2.984,2.211,-52.657,-1.714
15:40:13:961,14.413,-0.330,0.215,-0.595,-0.859,-51.439,12.178
15:40:13:988,14.440,-0.330,0.215,-0.595,-0.859,-51.439,12.178
15:40:14:015,14.467,-0.330,0.215,-0.595,-0.859,-51.439,12.178
15:40:14:042,14.495,-0.330,0.215,-0.595,-0.859,-51.439,12.178
15:40:14:069,14.522,-0.330,0.215,-0.595,-0.859,-51.439,12.178
15:40:14:097,14.550,-0.330,0.215,-0.595,-0.859,-51.439,12.178
15:40:14:126,14.578,-0.330,0.215,-0.595,-0.859,-51.439,12.178
15:40:14:152,14.605,-0.330,0.215,-0.595,-0.859,-51.439,12.178
15:40:14:18,14.632,-0.330,0.215,-0.595,-0.859,-51.439,12.178
15:40:14:208,14.660,1.072,0.094,0.784,2.582,-50.303,23.285
15:40:14:235,14.687,0.629,-0.808,0.952,3.922,-52.838,22.623
15:40:14:262,14.714,0.787,-0.906,1.123,3.638,-46.648,32.132
15:40:14:289,14.741,2.294,-1.315,1.351,9.580,-43.723,49.123
15:40:14:316,14.768,2.233,-0.674,0.795,17.942,-44.711,53.196
15:40:14:343,14.795,2.233,-0.674,0.795,17.942,-44.711,53.196
15:40:14:37,14.822,1.085,-0.206,-0.766,13.258,-33.215,46.944
15:40:14:397,14.849,1.085,-0.206,-0.766,13.258,-33.215,46.944
15:40:14:425,14.877,1.085,-0.206,-0.766,13.258,-33.215,46.944
15:40:14:452,14.904,1.085,-0.206,-0.766,13.258,-33.215,46.944
15:40:14:479,14.931,-1.850,0.880,-1.059,0.901,-18.021,9.680
15:40:14:506,14.958,-2.303,-1.027,-0.459,0.071,-5.088,-9.621
15:40:14:533,14.985,-1.163,0.589,-0.416,-3.982,-2.296,13.161
15:40:14:56,15.012,-0.129,0.116,-0.056,-4.043,-1.594,16.992
15:40:14:588,15.040,1.013,1.620,0.200,-1.651,-0.801,22.098
15:40:14:615,15.067,1.013,1.620,0.200,-1.651,-0.801,22.098
15:40:14:642,15.094,0.184,-0.161,0.661,0.803,-4.258,23.722
15:40:14:669,15.121,0.184,-0.161,0.661,0.803,-4.258,23.722
15:40:14:696,15.148,0.184,-0.161,0.661,0.803,-4.258,23.722
15:40:14:724,15.176,0.184,-0.161,0.661,0.803,-4.258,23.722
15:40:14:75,15.203,0.184,-0.161,0.661,0.803,-4.258,23.722
15:40:14:778,15.230,0.184,-0.161,0.661,0.803,-4.258,23.722
15:40:14:805,15.257,0.184,-0.161,0.661,0.803,-4.258,23.722
15:40:14:833,15.285,0.682,-0.110,0.416,0.624,-2.826,25.995
15:40:14:86,15.313,0.682,-0.110,0.416,0.624,-2.826,25.995
15:40:14:887,15.339,2.161,-1.492,-0.737,3.382,5.701,49.073
15:40:14:915,15.367,2.161,-1.492,-0.737,3.382,5.701,49.073
15:40:14:941,15.394,0.848,-0.938,-1.613,21.261,8.720,54.038
15:40:14:969,15.421,0.848,-0.938,-1.613,21.261,8.720,54.038
15:40:14:996,15.448,0.848,-0.938,-1.613,21.261,8.720,54.038
15:40:15:023,15.475,0.848,-0.938,-1.613,21.261,8.720,54.038
15:40:15:05,15.503,-0.549,1.075,-1.152,1.564,25.330,24.453
15:40:15:077,15.529,-1.753,1.154,0.286,-0.053,27.295,11.147
15:40:15:104,15.556,-1.753,1.154,0.286,-0.053,27.295,11.147
15:40:15:131,15.584,-1.753,1.154,0.286,-0.053,27.295,11.147
15:40:15:159,15.611,-1.753,1.154,0.286,-0.053,27.295,11.147
15:40:15:186,15.638,-1.753,1.154,0.286,-0.053,27.295,11.147
15:40:15:213,15.666,-1.753,1.154,0.286,-0.053,27.295,11.147
15:40:15:241,15.693,-2.772,0.401,1.497,-1.911,28.120,-0.175
15:40:15:268,15.720,-2.772,0.401,1.497,-1.911,28.120,-0.175
15:40:15:295,15.747,-2.772,0.401,1.497,-1.911,28.120,-0.175
15:40:15:322,15.774,-2.772,0.401,1.497,-1.911,28.120,-0.175
15:40:15:349,15.801,-0.851,-1.119,0.901,-3.377,34.597,-1.327
15:40:15:376,15.829,-0.414,0.959,0.525,-6.607,38.863,19.451
15:40:15:404,15.856,-0.414,0.959,0.525,-6.607,38.863,19.451
15:40:15:431,15.883,-0.414,0.959,0.525,-6.607,38.863,19.451
15:40:15:458,15.911,-0.414,0.959,0.525,-6.607,38.863,19.451
15:40:15:486,15.938,-0.562,0.753,0.303,-0.784,34.446,23.138
15:40:15:513,15.965,-0.562,0.753,0.303,-0.784,34.446,23.138
15:40:15:54,15.992,-0.562,0.753,0.303,-0.784,34.446,23.138
15:40:15:567,16.019,-0.562,0.753,0.303,-0.784,34.446,23.138
15:40:15:594,16.046,-0.562,0.753,0.303,-0.784,34.446,23.138
15:40:15:621,16.073,-0.724,0.022,0.319,-0.280,34.077,24.750
15:40:15:648,16.100,-0.724,0.022,0.319,-0.280,34.077,24.750
15:40:15:675,16.128,-0.724,0.022,0.319,-0.280,34.077,24.750
15:40:15:703,16.155,-0.724,0.022,0.319,-0.280,34.077,24.750
15:40:15:729,16.182,-0.724,0.022,0.319,-0.280,34.077,24.750
15:40:15:757,16.209,-0.724,0.022,0.319,-0.280,34.077,24.750
15:40:15:785,16.237,-0.724,0.022,0.319,-0.280,34.077,24.750
15:40:15:812,16.264,-0.724,0.022,0.319,-0.280,34.077,24.750
15:40:15:84,16.292,-0.724,0.022,0.319,-0.280,34.077,24.750
15:40:15:867,16.320,1.532,-1.207,-1.751,8.679,35.132,50.686
15:40:15:894,16.346,1.532,-1.207,-1.751,8.679,35.132,50.686
15:40:15:922,16.374,1.532,-1.207,-1.751,8.679,35.132,50.686
15:40:15:949,16.401,1.532,-1.207,-1.751,8.679,35.132,50.686
15:40:15:977,16.429,0.386,-1.152,-1.251,21.667,36.101,62.089
15:40:16:004,16.456,0.386,-1.152,-1.251,21.667,36.101,62.089
15:40:16:031,16.484,-0.193,0.470,-0.868,-4.811,45.038,31.001
15:40:16:059,16.511,-2.147,-0.867,3.189,-12.636,54.195,-10.924
15:40:16:086,16.538,0.787,-3.065,-2.838,-12.411,62.802,7.782
15:40:16:113,16.565,0.787,-3.065,-2.838,-12.411,62.802,7.782
15:40:16:141,16.593,0.948,0.572,1.229,-13.903,65.038,11.929
15:40:16:167,16.620,0.598,1.593,-0.677,-12.923,63.980,19.930
15:40:16:196,16.648,0.269,-0.094,-0.825,-11.630,60.096,21.980
15:40:16:223,16.675,0.345,-0.164,-0.586,-10.182,55.778,22.933
15:40:16:25,16.702,0.773,-0.358,-1.276,-9.241,53.199,36.193
15:40:16:278,16.730,0.773,-0.358,-1.276,-9.241,53.199,36.193
15:40:16:305,16.757,0.773,-0.358,-1.276,-9.241,53.199,36.193
15:40:16:333,16.785,0.982,-0.398,-1.837,6.013,45.815,51.263
15:40:16:36,16.813,0.982,-0.398,-1.837,6.013,45.815,51.263
15:40:16:388,16.840,0.982,-0.398,-1.837,6.013,45.815,51.263
15:40:16:415,16.867,0.982,-0.398,-1.837,6.013,45.815,51.263
15:40:16:442,16.894,0.982,-0.398,-1.837,6.013,45.815,51.263
15:40:16:469,16.921,0.982,-0.398,-1.837,6.013,45.815,51.263
15:40:16:496,16.948,0.982,-0.398,-1.837,6.013,45.815,51.263
15:40:16:524,16.976,0.099,-0.487,-0.796,2.567,49.856,47.987
15:40:16:551,17.004,0.099,-0.487,-0.796,2.567,49.856,47.987
15:40:16:578,17.031,0.099,-0.487,-0.796,2.567,49.856,47.987
15:40:16:606,17.058,0.193,1.199,0.639,-7.391,59.146,11.804
15:40:16:633,17.085,-1.104,-1.341,2.653,-5.460,71.404,-12.357
15:40:16:66,17.112,-1.104,-1.341,2.653,-5.460,71.404,-12.357
15:40:16:687,17.139,-0.544,0.267,0.201,-7.839,67.778,7.597
15:40:16:714,17.166,0.758,1.380,-0.972,-2.300,65.333,16.878
15:40:16:742,17.194,0.546,0.252,-1.101,-0.875,64.460,16.614
15:40:16:769,17.221,0.546,0.252,-1.101,-0.875,64.460,16.614
15:40:16:797,17.249,0.546,0.252,-1.101,-0.875,64.460,16.614
15:40:16:824,17.277,0.546,0.252,-1.101,-0.875,64.460,16.614
15:40:16:851,17.303,0.546,0.252,-1.101,-0.875,64.460,16.614
15:40:16:878,17.331,0.546,0.252,-1.101,-0.875,64.460,16.614
15:40:16:906,17.358,0.546,0.252,-1.101,-0.875,64.460,16.614
15:40:16:933,17.385,0.546,0.252,-1.101,-0.875,64.460,16.614
15:40:16:96,17.412,0.546,0.252,-1.101,-0.875,64.460,16.614
15:40:16:987,17.439,0.546,0.252,-1.101,-0.875,64.460,16.614
15:40:17:014,17.466,0.546,0.252,-1.101,-0.875,64.460,16.614
15:40:17:041,17.493,0.546,0.252,-1.101,-0.875,64.460,16.614
15:40:17:068,17.520,0.546,0.252,-1.101,-0.875,64.460,16.614
15:40:17:095,17.548,0.546,0.252,-1.101,-0.875,64.460,16.614
15:40:17:123,17.575,0.546,0.252,-1.101,-0.875,64.460,16.614
15:40:17:149,17.602,0.400,-0.530,-0.951,0.363,77.031,29.655
15:40:17:177,17.629,0.400,-0.530,-0.951,0.363,77.031,29.655
15:40:17:204,17.656,0.400,-0.530,-0.951,0.363,77.031,29.655
15:40:17:231,17.683,0.400,-0.530,-0.951,0.363,77.031,29.655
15:40:17:258,17.710,0.400,-0.530,-0.951,0.363,77.031,29.655
15:40:17:285,17.737,0.400,-0.530,-0.951,0.363,77.031,29.655
15:40:17:312,17.764,0.400,-0.530,-0.951,0.363,77.031,29.655
15:40:17:339,17.791,0.400,-0.530,-0.951,0.363,77.031,29.655
15:40:17:366,17.819,-0.085,-0.038,-0.743,-0.444,80.000,34.413
15:40:17:394,17.846,-0.085,-0.038,-0.743,-0.444,80.000,34.413
15:40:17:421,17.874,-0.699,-0.705,-1.730,22.544,72.517,44.282
15:40:17:448,17.901,-0.699,-0.705,-1.730,22.544,72.517,44.282
15:40:17:475,17.927,-0.699,-0.705,-1.730,22.544,72.517,44.282
15:40:17:502,17.955,-0.699,-0.705,-1.730,22.544,72.517,44.282
15:40:17:529,17.981,-0.699,-0.705,-1.730,22.544,72.517,44.282
15:40:17:557,18.009,-0.699,-0.705,-1.730,22.544,72.517,44.282
15:40:17:584,18.036,-0.699,-0.705,-1.730,22.544,72.517,44.282
15:40:17:611,18.063,-2.013,0.261,-0.579,7.677,95.619,28.082
15:40:17:639,18.091,-2.013,0.261,-0.579,7.677,95.619,28.082
15:40:17:666,18.118,-2.013,0.261,-0.579,7.677,95.619,28.082
15:40:17:693,18.145,-2.013,0.261,-0.579,7.677,95.619,28.082
15:40:17:72,18.172,-2.013,0.261,-0.579,7.677,95.619,28.082
15:40:17:747,18.199,-1.281,0.821,1.142,3.176,106.299,9.980
15:40:17:774,18.226,0.017,0.827,2.316,1.140,110.884,-1.284
15:40:17:801,18.253,1.045,-0.319,1.070,0.479,126.814,-7.576
15:40:17:828,18.280,1.045,-0.319,1.070,0.479,126.814,-7.576
15:40:17:856,18.308,1.045,-0.319,1.070,0.479,126.814,-7.576
15:40:17:883,18.335,1.045,-0.319,1.070,0.479,126.814,-7.576
15:40:17:91,18.362,1.045,-0.319,1.070,0.479,126.814,-7.576
15:40:17:937,18.389,1.045,-0.319,1.070,0.479,126.814,-7.576
15:40:17:964,18.416,0.169,0.390,0.606,-2.668,131.549,12.867
15:40:17:991,18.443,0.169,0.390,0.606,-2.668,131.549,12.867
15:40:18:018,18.471,0.169,0.390,0.606,-2.668,131.549,12.867
15:40:18:045,18.497,0.169,0.390,0.606,-2.668,131.549,12.867
15:40:18:072,18.525,0.169,0.390,0.606,-2.668,131.549,12.867
15:40:18:1,18.552,0.169,0.390,0.606,-2.668,131.549,12.867
15:40:18:126,18.579,0.169,0.390,0.606,-2.668,131.549,12.867
15:40:18:153,18.606,0.169,0.390,0.606,-2.668,131.549,12.867
15:40:18:181,18.633,-1.220,0.124,-1.047,1.561,131.200,18.527
15:40:18:208,18.660,-1.334,-0.671,-0.998,4.433,133.590,43.612
15:40:18:235,18.687,-1.334,-0.671,-0.998,4.433,133.590,43.612
15:40:18:262,18.714,-1.017,-0.344,0.196,10.506,139.515,45.239
15:40:18:29,18.742,-1.017,-0.344,0.196,10.506,139.515,45.239
15:40:18:316,18.769,-1.017,-0.344,0.196,10.506,139.515,45.239
15:40:18:344,18.796,-1.017,-0.344,0.196,10.506,139.515,45.239
15:40:18:371,18.823,-1.039,0.585,0.103,2.947,145.169,27.200
15:40:18:398,18.850,-0.235,1.198,0.251,0.245,148.823,14.578
15:40:18:425,18.877,-0.235,1.198,0.251,0.245,148.823,14.578
15:40:18:452,18.905,1.859,0.795,1.462,-1.899,155.444,-4.959
15:40:18:479,18.931,1.859,0.795,1.462,-1.899,155.444,-4.959
15:40:18:507,18.959,1.859,0.795,1.462,-1.899,155.444,-4.959
15:40:18:533,18.986,1.859,0.795,1.462,-1.899,155.444,-4.959
15:40:18:561,19.014,1.859,0.795,1.462,-1.899,155.444,-4.959
15:40:18:588,19.040,1.859,0.795,1.462,-1.899,155.444,-4.959
15:40:18:615,19.068,2.721,-0.079,1.431,-1.531,159.101,-10.449
15:40:18:642,19.094,2.721,-0.079,1.431,-1.531,159.101,-10.449
15:40:18:669,19.122,2.721,-0.079,1.431,-1.531,159.101,-10.449
15:40:18:697,19.149,2.721,-0.079,1.431,-1.531,159.101,-10.449
15:40:18:724,19.176,2.721,-0.079,1.431,-1.531,159.101,-10.449
15:40:18:751,19.204,2.721,-0.079,1.431,-1.531,159.101,-10.449
15:40:18:779,19.231,2.590,-3.828,1.776,-1.699,167.149,3.485
15:40:18:805,19.258,-0.387,-0.363,-0.476,3.591,161.533,17.827
15:40:18:833,19.285,-2.234,-1.161,0.466,7.751,169.332,41.964
15:40:18:86,19.312,-2.234,-1.161,0.466,7.751,169.332,41.964
15:40:18:887,19.340,-2.234,-1.161,0.466,7.751,169.332,41.964
15:40:18:915,19.367,-2.234,-1.161,0.466,7.751,169.332,41.964
15:40:18:942,19.394,-2.234,-1.161,0.466,7.751,169.332,41.964
15:40:18:969,19.422,-2.234,-1.161,0.466,7.751,169.332,41.964
15:40:18:997,19.449,-2.234,-1.161,0.466,7.751,169.332,41.964
15:40:19:024,19.476,-2.234,-1.161,0.466,7.751,169.332,41.964
15:40:19:051,19.503,-2.234,-1.161,0.466,7.751,169.332,41.964
15:40:19:078,19.530,-1.138,-0.785,1.218,21.648,172.942,46.087
15:40:19:105,19.557,-1.138,-0.785,1.218,21.648,172.942,46.087
15:40:19:133,19.585,0.802,0.699,1.650,4.939,-163.839,20.112
15:40:19:16,19.612,0.471,0.445,0.025,-5.617,-140.811,18.237
15:40:19:187,19.640,0.471,0.445,0.025,-5.617,-140.811,18.237
15:40:19:214,19.666,-0.451,-0.456,0.244,1.374,-146.238,22.501
15:40:19:241,19.694,-0.451,-0.456,0.244,1.374,-146.238,22.501
15:40:19:269,19.721,-0.451,-0.456,0.244,1.374,-146.238,22.501
15:40:19:295,19.748,-0.451,-0.456,0.244,1.374,-146.238,22.501
15:40:19:323,19.775,-0.451,-0.456,0.244,1.374,-146.238,22.501
15:40:19:35,19.802,-0.843,-0.398,1.048,0.219,-139.534,40.162
15:40:19:377,19.829,-0.843,-0.398,1.048,0.219,-139.534,40.162
15:40:19:404,19.856,-0.843,-0.398,1.048,0.219,-139.534,40.162
15:40:19:431,19.883,-0.843,-0.398,1.048,0.219,-139.534,40.162
15:40:19:459,19.911,-0.567,-0.914,0.865,17.917,-143.834,56.545
15:40:19:486,19.939,-0.270,-0.828,0.767,18.780,-142.342,56.357
15:40:19:513,19.965,-0.270,-0.828,0.767,18.780,-142.342,56.357
15:40:19:54,19.992,0.609,0.614,0.161,-2.885,-133.948,28.689
15:40:19:568,20.020,0.992,1.258,-0.650,-7.847,-129.627,16.455
15:40:19:595,20.047,1.685,1.152,-1.769,-10.165,-127.539,5.007
15:40:19:622,20.074,1.685,1.152,-1.769,-10.165,-127.539,5.007
15:40:19:65,20.102,1.685,1.152,-1.769,-10.165,-127.539,5.007
15:40:19:678,20.130,0.962,-0.741,-2.350,-13.855,-124.860,-5.159
15:40:19:706,20.158,0.962,-0.741,-2.350,-13.855,-124.860,-5.159
15:40:19:734,20.186,0.001,0.588,-0.646,-16.374,-118.157,15.694
15:40:19:762,20.214,0.001,0.588,-0.646,-16.374,-118.157,15.694
15:40:19:789,20.241,-0.603,-0.389,1.612,-14.009,-125.447,23.226
15:40:19:816,20.268,-0.603,-0.389,1.612,-14.009,-125.447,23.226
15:40:19:843,20.296,-0.616,-0.328,1.028,-10.764,-133.895,39.511
15:40:19:87,20.322,-0.616,-0.328,1.028,-10.764,-133.895,39.511
15:40:19:897,20.350,-0.616,-0.328,1.028,-10.764,-133.895,39.511
15:40:19:924,20.377,-0.616,-0.328,1.028,-10.764,-133.895,39.511
15:40:19:952,20.404,-0.616,-0.328,1.028,-10.764,-133.895,39.511
15:40:19:979,20.432,-0.616,-0.328,1.028,-10.764,-133.895,39.511
15:40:20:006,20.458,-0.616,-0.328,1.028,-10.764,-133.895,39.511
15:40:20:033,20.486,-0.761,-1.117,1.019,6.321,-138.865,57.313
15:40:20:06,20.512,-0.494,0.295,0.764,-4.362,-133.985,35.857
15:40:20:087,20.540,1.003,1.036,-1.801,-8.975,-129.375,6.569
15:40:20:114,20.566,1.003,1.036,-1.801,-8.975,-129.375,6.569
15:40:20:142,20.594,1.003,1.036,-1.801,-8.975,-129.375,6.569
15:40:20:169,20.621,1.003,1.036,-1.801,-8.975,-129.375,6.569
15:40:20:196,20.648,1.003,1.036,-1.801,-8.975,-129.375,6.569
15:40:20:223,20.675,1.003,1.036,-1.801,-8.975,-129.375,6.569
15:40:20:25,20.703,1.654,0.657,-1.874,-9.875,-125.056,-4.230
15:40:20:277,20.729,1.654,0.657,-1.874,-9.875,-125.056,-4.230
15:40:20:304,20.757,1.654,0.657,-1.874,-9.875,-125.056,-4.230
15:40:20:331,20.783,2.967,1.372,0.695,-8.673,-115.036,-5.091
15:40:20:359,20.811,0.410,2.322,-2.055,-11.277,-115.896,11.192
15:40:20:386,20.838,0.410,2.322,-2.055,-11.277,-115.896,11.192
15:40:20:413,20.865,0.410,2.322,-2.055,-11.277,-115.896,11.192
15:40:20:44,20.892,0.410,2.322,-2.055,-11.277,-115.896,11.192
15:40:20:467,20.919,0.410,2.322,-2.055,-11.277,-115.896,11.192
15:40:20:494,20.946,0.410,2.322,-2.055,-11.277,-115.896,11.192
15:40:20:522,20.974,0.410,2.322,-2.055,-11.277,-115.896,11.192
15:40:20:549,21.001,0.410,2.322,-2.055,-11.277,-115.896,11.192
15:40:20:576,21.028,0.410,2.322,-2.055,-11.277,-115.896,11.192
15:40:20:603,21.055,0.410,2.322,-2.055,-11.277,-115.896,11.192
15:40:20:63,21.082,-0.917,1.614,0.978,-8.244,-118.755,22.090
15:40:20:657,21.109,-0.917,1.614,0.978,-8.244,-118.755,22.090
15:40:20:684,21.136,-0.917,1.614,0.978,-8.244,-118.755,22.090
15:40:20:711,21.163,-0.917,1.614,0.978,-8.244,-118.755,22.090
15:40:20:738,21.191,-0.917,1.614,0.978,-8.244,-118.755,22.090
15:40:20:765,21.217,-0.253,-0.987,1.962,2.900,-121.002,45.889
15:40:20:792,21.245,-0.788,-1.347,2.124,15.785,-125.609,49.129
15:40:20:82,21.272,-0.788,-1.347,2.124,15.785,-125.609,49.129
15:40:20:847,21.299,-0.487,-0.684,2.781,22.869,-127.088,50.691
15:40:20:873,21.326,1.015,-0.560,1.126,17.512,-114.836,49.283
15:40:20:901,21.353,1.015,-0.560,1.126,17.512,-114.836,49.283
15:40:20:928,21.380,1.015,-0.560,1.126,17.512,-114.836,49.283
15:40:20:955,21.407,1.015,-0.560,1.126,17.512,-114.836,49.283
15:40:20:982,21.434,1.015,-0.560,1.126,17.512,-114.836,49.283
15:40:21:008,21.461,1.015,-0.560,1.126,17.512,-114.836,49.283
15:40:21:036,21.488,1.015,-0.560,1.126,17.512,-114.836,49.283
15:40:21:063,21.515,1.015,-0.560,1.126,17.512,-114.836,49.283
15:40:21:09,21.543,1.015,-0.560,1.126,17.512,-114.836,49.283
15:40:21:117,21.569,0.954,0.930,0.395,3.934,-102.338,21.931
15:40:21:144,21.597,0.954,0.930,0.395,3.934,-102.338,21.931
15:40:21:172,21.624,-0.403,-0.005,-0.316,88.987,-67.225,-29.106
15:40:21:198,21.651,-0.403,-0.005,-0.316,88.987,-67.225,-29.106
15:40:21:225,21.678,-0.403,-0.005,-0.316,88.987,-67.225,-29.106
15:40:21:253,21.705,-0.162,-1.251,-3.067,1.175,-82.682,-11.787
15:40:21:28,21.732,-0.162,-1.251,-3.067,1.175,-82.682,-11.787
15:40:21:307,21.759,-0.162,-1.251,-3.067,1.175,-82.682,-11.787
15:40:21:334,21.786,0.096,0.478,0.195,-2.036,-74.799,15.656
15:40:21:361,21.814,0.096,0.478,0.195,-2.036,-74.799,15.656
15:40:21:388,21.841,0.096,0.478,0.195,-2.036,-74.799,15.656
15:40:21:416,21.868,0.625,1.543,0.832,1.532,-72.219,22.611
15:40:21:443,21.896,0.411,0.762,1.121,3.102,-71.682,24.288
15:40:21:47,21.922,0.411,0.762,1.121,3.102,-71.682,24.288
15:40:21:498,21.950,0.411,0.762,1.121,3.102,-71.682,24.288
15:40:21:525,21.977,0.451,-0.655,1.059,5.485,-67.539,30.311
15:40:21:552,22.004,1.622,-1.071,1.549,16.648,-62.257,54.755
15:40:21:579,22.032,1.252,-0.407,-0.161,10.405,-51.386,50.092
15:40:21:607,22.059,1.252,-0.407,-0.161,10.405,-51.386,50.092
15:40:21:635,22.087,-2.123,-0.962,-1.129,-0.684,-22.241,-10.655
15:40:21:662,22.114,-1.226,-0.507,-0.877,-0.922,-21.452,-7.519
15:40:21:689,22.141,0.375,0.141,0.422,-3.889,-20.548,9.585
15:40:21:716,22.168,0.375,0.141,0.422,-3.889,-20.548,9.585
15:40:21:743,22.195,-0.552,0.422,-0.128,-4.953,-21.523,16.499
15:40:21:77,22.222,-0.552,0.422,-0.128,-4.953,-21.523,16.499
15:40:21:797,22.249,-0.552,0.422,-0.128,-4.953,-21.523,16.499
15:40:21:824,22.277,-0.552,0.422,-0.128,-4.953,-21.523,16.499
15:40:21:852,22.304,-0.552,0.422,-0.128,-4.953,-21.523,16.499
15:40:21:879,22.331,1.347,-0.052,0.495,0.506,-21.373,24.449
15:40:21:906,22.359,1.347,-0.052,0.495,0.506,-21.373,24.449
15:40:21:933,22.385,1.347,-0.052,0.495,0.506,-21.373,24.449
15:40:21:961,22.413,1.347,-0.052,0.495,0.506,-21.373,24.449
15:40:21:987,22.440,1.347,-0.052,0.495,0.506,-21.373,24.449
15:40:22:015,22.467,1.347,-0.052,0.495,0.506,-21.373,24.449
15:40:22:042,22.494,1.347,-0.052,0.495,0.506,-21.373,24.449
15:40:22:069,22.521,0.233,-0.503,0.567,-0.587,-12.545,35.228
15:40:22:096,22.548,1.655,-0.002,0.015,-0.293,-11.283,42.496
15:40:22:123,22.576,1.655,-0.002,0.015,-0.293,-11.283,42.496
15:40:22:151,22.603,1.655,-0.002,0.015,-0.293,-11.283,42.496
15:40:22:177,22.630,1.655,-0.002,0.015,-0.293,-11.283,42.496
15:40:22:204,22.656,1.655,-0.002,0.015,-0.293,-11.283,42.496
15:40:22:232,22.684,1.655,-0.002,0.015,-0.293,-11.283,42.496
00:00:00:,22.711,1.167,-1.175,-0.441,28.917,-15.169,60.024
15:40:22:286,22.738,1.167,-1.175,-0.441,28.917,-15.169,60.024
15:40:22:313,22.765,1.167,-1.175,-0.441,28.917,-15.169,60.024
15:40:22:34,22.793,1.167,-1.175,-0.441,28.917,-15.169,60.024
15:40:22:368,22.820,1.167,-1.175,-0.441,28.917,-15.169,60.024
15:40:22:394,22.847,1.167,-1.175,-0.441,28.917,-15.169,60.024
15:40:22:422,22.874,0.157,-0.560,-1.666,11.776,0.051,52.189
15:40:22:448,22.901,-0.475,0.976,-0.588,1.642,8.445,18.688
15:40:22:475,22.928,-0.475,0.976,-0.588,1.642,8.445,18.688
15:40:22:503,22.955,-0.475,0.976,-0.588,1.642,8.445,18.688
15:40:22:529,22.982,-2.776,0.738,-1.553,-3.591,26.165,-2.619
15:40:22:557,23.009,-0.319,0.649,0.431,-7.598,31.177,19.903
15:40:22:584,23.036,0.239,1.619,0.179,-6.721,31.383,21.973
15:40:22:611,23.064,0.239,1.619,0.179,-6.721,31.383,21.973
15:40:22:639,23.091,0.239,1.619,0.179,-6.721,31.383,21.973
15:40:22:665,23.118,0.239,1.619,0.179,-6.721,31.383,21.973
15:40:22:693,23.145,1.048,0.341,-1.070,-4.158,30.735,24.456
15:40:22:72,23.172,1.048,0.341,-1.070,-4.158,30.735,24.456
15:40:22:747,23.200,1.297,-0.880,-0.928,-2.846,27.267,23.266
15:40:22:774,23.226,1.553,-0.593,-1.868,2.118,24.919,47.632
15:40:22:801,23.254,1.553,-0.593,-1.868,2.118,24.919,47.632
15:40:22:829,23.281,1.553,-0.593,-1.868,2.118,24.919,47.632
15:40:22:855,23.308,0.093,-1.203,-0.873,23.159,25.856,63.462
15:40:22:883,23.335,0.093,-1.203,-0.873,23.159,25.856,63.462
15:40:22:91,23.362,0.093,-1.203,-0.873,23.159,25.856,63.462
15:40:22:937,23.390,0.093,-1.203,-0.873,23.159,25.856,63.462
15:40:22:965,23.417,0.093,-1.203,-0.873,23.159,25.856,63.462
15:40:22:992,23.444,0.093,-1.203,-0.873,23.159,25.856,63.462
15:40:23:019,23.471,0.093,-1.203,-0.873,23.159,25.856,63.462
15:40:23:046,23.498,0.093,-1.203,-0.873,23.159,25.856,63.462
15:40:23:073,23.525,0.093,-1.203,-0.873,23.159,25.856,63.462
15:40:23:1,23.552,0.093,-1.203,-0.873,23.159,25.856,63.462
15:40:23:127,23.580,0.093,-1.203,-0.873,23.159,25.856,63.462
15:40:23:155,23.607,0.093,-1.203,-0.873,23.159,25.856,63.462
15:40:23:182,23.635,0.197,0.235,-0.701,-3.514,36.213,31.835
15:40:23:209,23.661,0.197,0.235,-0.701,-3.514,36.213,31.835
15:40:23:237,23.689,0.197,0.235,-0.701,-3.514,36.213,31.835
15:40:23:264,23.716,0.197,0.235,-0.701,-3.514,36.213,31.835
15:40:23:291,23.743,-2.612,-0.275,2.611,-11.065,47.223,-9.503
15:40:23:318,23.771,-2.612,-0.275,2.611,-11.065,47.223,-9.503
15:40:23:345,23.797,-1.974,-1.277,2.540,-10.841,49.726,-12.604
15:40:23:373,23.825,-1.974,-1.277,2.540,-10.841,49.726,-12.604
15:40:23:4,23.852,-1.974,-1.277,2.540,-10.841,49.726,-12.604
15:40:23:427,23.879,-2.627,-3.705,1.577,-10.693,54.248,3.074
15:40:23:454,23.906,-2.627,-3.705,1.577,-10.693,54.248,3.074
15:40:23:481,23.933,-2.627,-3.705,1.577,-10.693,54.248,3.074
15:40:23:508,23.960,-2.627,-3.705,1.577,-10.693,54.248,3.074
15:40:23:535,23.988,0.688,-0.237,-1.343,-9.874,48.942,22.834
15:40:23:564,24.016,0.688,-0.237,-1.343,-9.874,48.942,22.834
15:40:23:591,24.043,0.688,-0.237,-1.343,-9.874,48.942,22.834
15:40:23:618,24.070,0.688,-0.237,-1.343,-9.874,48.942,22.834
15:40:23:645,24.097,0.140,0.195,-0.208,-7.496,43.397,22.696
15:40:23:672,24.124,0.140,0.195,-0.208,-7.496,43.397,22.696
15:40:23:699,24.151,0.140,0.195,-0.208,-7.496,43.397,22.696
15:40:23:726,24.179,0.936,-0.148,-1.623,-4.585,41.665,39.746
15:40:23:754,24.206,1.286,-0.966,-1.924,-0.651,38.969,44.390
15:40:23:781,24.233,1.286,-0.966,-1.924,-0.651,38.969,44.390
15:40:23:808,24.261,1.286,-0.966,-1.924,-0.651,38.969,44.390
15:40:23:835,24.287,1.286,-0.966,-1.924,-0.651,38.969,44.390
15:40:23:862,24.315,1.286,-0.966,-1.924,-0.651,38.969,44.390
15:40:23:889,24.341,1.286,-0.966,-1.924,-0.651,38.969,44.390
15:40:23:917,24.370,1.286,-0.966,-1.924,-0.651,38.969,44.390
15:40:23:945,24.398,0.180,-1.126,-0.623,19.205,39.148,60.782
15:40:23:972,24.424,-0.181,-0.591,-0.779,5.319,43.483,51.238
15:40:23:999,24.452,-0.181,-0.591,-0.779,5.319,43.483,51.238
15:40:24:026,24.479,-0.858,1.336,1.235,-7.195,51.794,9.098
15:40:24:054,24.506,-0.429,-0.357,1.568,-7.531,66.085,-14.255
15:40:24:081,24.533,-0.429,-0.357,1.568,-7.531,66.085,-14.255
15:40:24:109,24.561,-0.429,-0.357,1.568,-7.531,66.085,-14.255
15:40:24:136,24.588,-0.429,-0.357,1.568,-7.531,66.085,-14.255
15:40:24:163,24.615,-0.429,-0.357,1.568,-7.531,66.085,-14.255
15:40:24:19,24.642,-3.393,-0.532,1.535,-6.518,68.394,-11.701
15:40:24:217,24.669,-3.393,-0.532,1.535,-6.518,68.394,-11.701
15:40:24:244,24.696,-3.393,-0.532,1.535,-6.518,68.394,-11.701
15:40:24:271,24.723,1.336,-4.121,1.131,-9.011,72.991,-0.383
15:40:24:298,24.751,1.336,-4.121,1.131,-9.011,72.991,-0.383
15:40:24:325,24.777,1.336,-4.121,1.131,-9.011,72.991,-0.383
15:40:24:353,24.805,1.336,-4.121,1.131,-9.011,72.991,-0.383
15:40:24:379,24.832,0.142,0.719,0.265,-7.776,71.438,16.865
15:40:24:407,24.859,0.142,0.719,0.265,-7.776,71.438,16.865
15:40:24:433,24.886,0.142,0.719,0.265,-7.776,71.438,16.865
15:40:24:461,24.913,0.142,0.719,0.265,-7.776,71.438,16.865
15:40:24:488,24.941,0.142,0.719,0.265,-7.776,71.438,16.865
15:40:24:516,24.968,0.142,0.719,0.265,-7.776,71.438,16.865
15:40:24:543,24.995,0.142,0.719,0.265,-7.776,71.438,16.865
15:40:24:57,25.022,0.142,0.719,0.265,-7.776,71.438,16.865
15:40:24:598,25.050,0.142,0.719,0.265,-7.776,71.438,16.865
15:40:24:625,25.077,0.142,0.719,0.265,-7.776,71.438,16.865
15:40:24:652,25.104,0.142,0.719,0.265,-7.776,71.438,16.865
15:40:24:679,25.131,0.142,0.719,0.265,-7.776,71.438,16.865
15:40:24:706,25.158,0.142,0.719,0.265,-7.776,71.438,16.865
15:40:24:733,25.185,0.142,0.719,0.265,-7.776,71.438,16.865
15:40:24:761,25.213,0.142,0.719,0.265,-7.776,71.438,16.865
15:40:24:788,25.240,0.142,0.719,0.265,-7.776,71.438,16.865
15:40:24:815,25.267,0.142,0.719,0.265,-7.776,71.438,16.865
15:40:24:842,25.294,0.142,0.719,0.265,-7.776,71.438,16.865
15:40:24:869,25.322,0.142,0.719,0.265,-7.776,71.438,16.865
15:40:24:898,25.350,0.142,0.719,0.265,-7.776,71.438,16.865
15:40:24:926,25.379,0.142,0.719,0.265,-7.776,71.438,16.865
15:40:24:953,25.405,0.142,0.719,0.265,-7.776,71.438,16.865
15:40:24:981,25.433,0.425,-0.231,-0.614,-2.246,66.585,22.493
15:40:25:008,25.460,0.425,-0.231,-0.614,-2.246,66.585,22.493
15:40:25:035,25.487,0.425,-0.231,-0.614,-2.246,66.585,22.493
15:40:25:062,25.514,0.425,-0.231,-0.614,-2.246,66.585,22.493
15:40:25:089,25.541,0.425,-0.231,-0.614,-2.246,66.585,22.493
15:40:25:116,25.569,0.425,-0.231,-0.614,-2.246,66.585,22.493
15:40:25:144,25.596,0.425,-0.231,-0.614,-2.246,66.585,22.493
15:40:25:171,25.624,0.238,-0.305,-1.188,-1.904,71.092,33.104
15:40:25:198,25.651,-0.193,-0.370,-1.804,-0.778,71.071,40.543
15:40:25:227,25.679,-0.193,-0.370,-1.804,-0.778,71.071,40.543
15:40:25:255,25.707,-0.193,-0.370,-1.804,-0.778,71.071,40.543
15:40:25:282,25.734,-0.193,-0.370,-1.804,-0.778,71.071,40.543
15:40:25:309,25.761,-0.193,-0.370,-1.804,-0.778,71.071,40.543
15:40:25:336,25.788,0.019,-0.985,-1.147,16.770,65.974,50.763
15:40:25:364,25.816,-0.526,-1.053,-0.733,12.912,71.518,47.865
15:40:25:391,25.843,-0.526,-1.053,-0.733,12.912,71.518,47.865
15:40:25:418,25.870,-0.455,1.782,0.694,-1.358,83.453,12.912
15:40:25:445,25.897,0.648,-1.316,2.663,-3.627,99.120,-13.964
15:40:25:472,25.924,-1.018,-1.049,-0.050,18.636,123.525,49.516
15:40:25:499,25.951,-1.018,-1.049,-0.050,18.636,123.525,49.516
15:40:25:526,25.978,2.701,-1.056,1.248,-8.615,145.587,-10.941
15:40:25:553,26.006,2.701,-1.056,1.248,-8.615,145.587,-10.941
15:40:25:581,26.033,0.296,0.361,0.097,-10.456,159.332,16.317
15:40:25:608,26.060,0.296,0.361,0.097,-10.456,159.332,16.317
15:40:25:635,26.088,0.296,0.361,0.097,-10.456,159.332,16.317
15:40:25:662,26.114,-0.719,1.045,-0.361,-8.716,158.558,20.971
15:40:25:689,26.141,-0.719,1.045,-0.361,-8.716,158.558,20.971
15:40:25:716,26.169,-0.719,1.045,-0.361,-8.716,158.558,20.971
15:40:25:743,26.195,-0.719,1.045,-0.361,-8.716,158.558,20.971
15:40:25:771,26.223,-0.719,1.045,-0.361,-8.716,158.558,20.971
15:40:25:798,26.250,-0.719,1.045,-0.361,-8.716,158.558,20.971
15:40:25:825,26.277,-0.574,-0.369,-0.846,-3.634,148.344,27.517
15:40:25:852,26.304,-0.939,-0.344,-0.242,-2.999,150.026,36.498
15:40:25:88,26.332,-2.438,-0.805,-0.448,1.407,150.413,48.881
15:40:25:906,26.359,-2.438,-0.805,-0.448,1.407,150.413,48.881
15:40:25:934,26.386,-2.438,-0.805,-0.448,1.407,150.413,48.881
15:40:25:961,26.414,-2.438,-0.805,-0.448,1.407,150.413,48.881
15:40:25:989,26.441,-2.438,-0.805,-0.448,1.407,150.413,48.881
15:40:26:016,26.468,-1.077,-1.124,-0.078,10.862,151.788,49.419
15:40:26:044,26.496,-0.955,-0.920,0.068,9.662,153.070,43.462
15:40:26:07,26.523,-0.955,-0.920,0.068,9.662,153.070,43.462
15:40:26:098,26.550,-0.955,-0.920,0.068,9.662,153.070,43.462
15:40:26:125,26.577,-0.955,-0.920,0.068,9.662,153.070,43.462
15:40:26:151,26.604,1.401,1.116,0.556,-3.008,164.835,5.934
15:40:26:179,26.631,1.401,1.116,0.556,-3.008,164.835,5.934
15:40:26:206,26.658,3.821,-1.351,0.229,0.032,-175.342,-12.275
15:40:26:233,26.685,3.821,-1.351,0.229,0.032,-175.342,-12.275
15:40:26:26,26.712,3.821,-1.351,0.229,0.032,-175.342,-12.275
15:40:26:287,26.739,-0.412,-4.959,0.664,-1.492,-174.122,2.336
15:40:26:314,26.767,-0.412,-4.959,0.664,-1.492,-174.122,2.336
15:40:26:342,26.794,-0.412,-4.959,0.664,-1.492,-174.122,2.336
15:40:26:368,26.821,-0.412,-4.959,0.664,-1.492,-174.122,2.336
15:40:26:396,26.848,-0.412,-4.959,0.664,-1.492,-174.122,2.336
15:40:26:423,26.875,-0.412,-4.959,0.664,-1.492,-174.122,2.336
15:40:26:45,26.902,-0.412,-4.959,0.664,-1.492,-174.122,2.336
15:40:26:477,26.929,0.250,0.824,-0.381,-2.082,-172.069,11.557
15:40:26:504,26.957,0.250,0.824,-0.381,-2.082,-172.069,11.557
15:40:26:532,26.984,0.250,0.824,-0.381,-2.082,-172.069,11.557
15:40:26:559,27.011,-0.833,0.735,0.247,2.540,-168.885,18.916
15:40:26:587,27.039,-0.833,0.735,0.247,2.540,-168.885,18.916
15:40:26:614,27.066,-0.546,-0.375,0.147,7.410,-169.138,23.250
15:40:26:641,27.093,-0.546,-0.375,0.147,7.410,-169.138,23.250
15:40:26:668,27.120,-0.546,-0.375,0.147,7.410,-169.138,23.250
15:40:26:696,27.148,-0.546,-0.375,0.147,7.410,-169.138,23.250
15:40:26:723,27.175,-0.546,-0.375,0.147,7.410,-169.138,23.250
15:40:26:75,27.202,-0.546,-0.375,0.147,7.410,-169.138,23.250
15:40:26:777,27.229,-0.659,-0.011,0.895,8.490,-160.870,35.903
15:40:26:805,27.257,-0.659,-0.011,0.895,8.490,-160.870,35.903
15:40:26:832,27.284,-0.659,-0.011,0.895,8.490,-160.870,35.903
15:40:26:859,27.312,-0.659,-0.011,0.895,8.490,-160.870,35.903
15:40:26:887,27.339,-0.740,-1.093,0.998,14.784,-152.803,55.619
15:40:26:914,27.366,-0.007,-0.066,0.844,-1.778,-140.373,33.208
15:40:26:941,27.394,-0.007,-0.066,0.844,-1.778,-140.373,33.208
15:40:26:968,27.420,-0.007,-0.066,0.844,-1.778,-140.373,33.208
15:40:26:995,27.448,2.378,0.416,-2.507,-9.150,-134.489,-4.388
15:40:27:023,27.475,-2.402,2.404,-2.874,-10.357,-120.110,3.595
15:40:27:05,27.502,-2.402,2.404,-2.874,-10.357,-120.110,3.595
15:40:27:077,27.529,-2.402,2.404,-2.874,-10.357,-120.110,3.595
15:40:27:104,27.556,-2.402,2.404,-2.874,-10.357,-120.110,3.595
15:40:27:131,27.583,-2.402,2.404,-2.874,-10.357,-120.110,3.595
15:40:27:158,27.610,-2.402,2.404,-2.874,-10.357,-120.110,3.595
15:40:27:185,27.637,-0.297,-3.244,-0.509,-10.230,-118.327,10.114
15:40:27:212,27.665,-0.193,1.063,-0.027,-10.684,-116.991,20.799
15:40:27:24,27.693,-0.193,1.063,-0.027,-10.684,-116.991,20.799
15:40:27:267,27.719,-0.193,1.063,-0.027,-10.684,-116.991,20.799
15:40:27:294,27.747,0.034,-0.294,0.097,-8.134,-126.674,23.061
15:40:27:322,27.774,0.034,-0.294,0.097,-8.134,-126.674,23.061
15:40:27:348,27.801,-0.025,-0.432,0.348,-7.638,-128.488,25.947
15:40:27:376,27.828,-0.025,-0.432,0.348,-7.638,-128.488,25.947
15:40:27:402,27.855,-0.025,-0.432,0.348,-7.638,-128.488,25.947
15:40:27:43,27.882,-0.025,-0.432,0.348,-7.638,-128.488,25.947
15:40:27:457,27.909,-0.025,-0.432,0.348,-7.638,-128.488,25.947
15:40:27:484,27.936,-0.997,-0.211,1.678,-2.858,-133.852,45.696
15:40:27:511,27.963,-0.629,-1.134,1.048,-1.925,-131.640,56.644
15:40:27:538,27.990,-0.840,0.236,0.453,-8.594,-132.902,30.014
15:40:27:565,28.018,2.008,0.926,-2.734,-13.421,-128.038,-2.931
15:40:27:593,28.045,-0.048,0.444,-0.409,-14.218,-119.283,13.853
15:40:27:62,28.072,-0.048,0.444,-0.409,-14.218,-119.283,13.853
15:40:27:647,28.099,-0.048,0.444,-0.409,-14.218,-119.283,13.853
15:40:27:674,28.126,-0.419,1.040,0.760,-12.081,-121.262,21.897
15:40:27:701,28.153,-0.419,1.040,0.760,-12.081,-121.262,21.897
15:40:27:728,28.180,-0.419,1.040,0.760,-12.081,-121.262,21.897
15:40:27:755,28.207,-0.419,1.040,0.760,-12.081,-121.262,21.897
15:40:27:782,28.234,-0.419,1.040,0.760,-12.081,-121.262,21.897
15:40:27:81,28.262,-0.618,-0.182,0.624,-7.319,-133.926,29.876
15:40:27:837,28.289,-0.618,-0.182,0.624,-7.319,-133.926,29.876
15:40:27:864,28.316,-0.618,-0.182,0.624,-7.319,-133.926,29.876
15:40:27:891,28.343,-0.618,-0.182,0.624,-7.319,-133.926,29.876
15:40:27:918,28.370,-0.618,-0.182,0.624,-7.319,-133.926,29.876
15:40:27:946,28.398,-0.618,-0.182,0.624,-7.319,-133.926,29.876
15:40:27:974,28.426,-0.618,-0.182,0.624,-7.319,-133.926,29.876
15:40:28:001,28.454,-1.389,-0.490,2.314,1.475,-135.766,55.312
15:40:28:028,28.480,-1.389,-0.490,2.314,1.475,-135.766,55.312
15:40:28:055,28.507,-1.389,-0.490,2.314,1.475,-135.766,55.312
15:40:28:082,28.535,-1.389,-0.490,2.314,1.475,-135.766,55.312
15:40:28:109,28.562,0.036,-1.259,0.279,0.064,-129.901,56.920
15:40:28:137,28.589,0.036,-1.259,0.279,0.064,-129.901,56.920
15:40:28:164,28.617,-0.332,-0.033,0.441,-6.585,-126.959,35.294
15:40:28:192,28.644,-0.332,-0.033,0.441,-6.585,-126.959,35.294
15:40:28:218,28.671,-0.332,-0.033,0.441,-6.585,-126.959,35.294
15:40:28:246,28.698,-0.332,-0.033,0.441,-6.585,-126.959,35.294
15:40:28:273,28.725,-0.332,-0.033,0.441,-6.585,-126.959,35.294
15:40:28:3,28.752,-0.332,-0.033,0.441,-6.585,-126.959,35.294
15:40:28:329,28.781,-0.332,-0.033,0.441,-6.585,-126.959,35.294
15:40:28:356,28.808,-0.332,-0.033,0.441,-6.585,-126.959,35.294
15:40:28:383,28.835,-0.332,-0.033,0.441,-6.585,-126.959,35.294
15:40:28:411,28.863,-0.332,-0.033,0.441,-6.585,-126.959,35.294
15:40:28:438,28.890,-0.332,-0.033,0.441,-6.585,-126.959,35.294
15:40:28:465,28.917,-0.332,-0.033,0.441,-6.585,-126.959,35.294
15:40:28:492,28.945,-0.332,-0.033,0.441,-6.585,-126.959,35.294
15:40:28:52,28.972,-0.332,-0.033,0.441,-6.585,-126.959,35.294
15:40:28:547,28.999,-0.332,-0.033,0.441,-6.585,-126.959,35.294
15:40:28:574,29.026,-0.332,-0.033,0.441,-6.585,-126.959,35.294
15:40:28:602,29.054,-0.332,-0.033,0.441,-6.585,-126.959,35.294
15:40:28:629,29.081,-0.332,-0.033,0.441,-6.585,-126.959,35.294
15:40:28:656,29.108,-0.332,-0.033,0.441,-6.585,-126.959,35.294
15:40:28:683,29.135,-0.332,-0.033,0.441,-6.585,-126.959,35.294
15:40:28:711,29.163,-0.383,0.457,0.166,-8.236,-125.677,23.248
15:40:28:738,29.190,-0.383,0.457,0.166,-8.236,-125.677,23.248
15:40:28:765,29.217,-0.383,0.457,0.166,-8.236,-125.677,23.248
15:40:28:792,29.244,-0.383,0.457,0.166,-8.236,-125.677,23.248
15:40:28:82,29.272,-0.383,0.457,0.166,-8.236,-125.677,23.248
15:40:28:846,29.299,-0.383,0.457,0.166,-8.236,-125.677,23.248
15:40:28:873,29.325,-0.383,0.457,0.166,-8.236,-125.677,23.248
15:40:28:901,29.353,-0.383,0.457,0.166,-8.236,-125.677,23.248
15:40:28:929,29.381,1.517,0.864,-1.949,-10.089,-121.561,3.402
15:40:28:956,29.408,1.133,-0.930,-2.111,-10.034,-115.359,-9.270
15:40:28:983,29.436,-0.279,-0.168,-0.709,-9.625,-113.945,-5.567
15:40:29:01,29.462,-0.279,-0.168,-0.709,-9.625,-113.945,-5.567
15:40:29:038,29.490,-0.450,0.565,-1.030,-12.415,-108.915,13.430
15:40:29:065,29.517,-0.264,1.123,0.239,-11.784,-112.835,20.950
15:40:29:093,29.545,-0.264,1.123,0.239,-11.784,-112.835,20.950
15:40:29:119,29.572,-0.474,1.117,0.754,-11.154,-113.762,21.819
15:40:29:146,29.599,-0.474,1.117,0.754,-11.154,-113.762,21.819
15:40:29:174,29.626,-0.474,1.117,0.754,-11.154,-113.762,21.819
15:40:29:201,29.653,-0.474,1.117,0.754,-11.154,-113.762,21.819
15:40:29:228,29.680,-0.769,-0.122,1.179,-8.808,-113.456,30.649
15:40:29:255,29.707,-0.769,-0.122,1.179,-8.808,-113.456,30.649
15:40:29:282,29.735,-0.769,-0.122,1.179,-8.808,-113.456,30.649
15:40:29:31,29.762,-0.769,-0.122,1.179,-8.808,-113.456,30.649
15:40:29:338,29.790,-0.221,-1.018,-3.147,-1.396,-76.149,-9.807
15:40:29:365,29.817,-0.221,-1.018,-3.147,-1.396,-76.149,-9.807
15:40:29:391,29.844,0.432,-3.234,-2.711,-2.387,-66.730,8.151
15:40:29:418,29.870,0.432,-3.234,-2.711,-2.387,-66.730,8.151
15:40:29:446,29.898,0.448,0.160,0.096,-4.247,-66.038,13.631
15:40:29:473,29.925,0.448,0.160,0.096,-4.247,-66.038,13.631
15:40:29:5,29.952,0.448,0.160,0.096,-4.247,-66.038,13.631
15:40:29:527,29.979,0.448,0.160,0.096,-4.247,-66.038,13.631
15:40:29:554,30.006,0.347,1.347,0.771,-1.255,-66.492,24.776
15:40:29:581,30.034,0.642,1.078,1.058,0.167,-65.739,26.041
15:40:29:609,30.061,0.642,1.078,1.058,0.167,-65.739,26.041
15:40:29:635,30.088,0.285,-0.398,0.778,1.685,-59.834,34.409
15:40:29:663,30.115,0.285,-0.398,0.778,1.685,-59.834,34.409
15:40:29:69,30.142,0.285,-0.398,0.778,1.685,-59.834,34.409
15:40:29:717,30.169,0.285,-0.398,0.778,1.685,-59.834,34.409
15:40:29:744,30.196,0.419,0.011,0.669,-0.073,-55.038,41.532
15:40:29:771,30.223,0.419,0.011,0.669,-0.073,-55.038,41.532
15:40:29:799,30.251,0.419,0.011,0.669,-0.073,-55.038,41.532
15:40:29:826,30.278,0.419,0.011,0.669,-0.073,-55.038,41.532
15:40:29:853,30.306,0.419,0.011,0.669,-0.073,-55.038,41.532
15:40:29:88,30.332,0.419,0.011,0.669,-0.073,-55.038,41.532
15:40:29:908,30.361,0.419,0.011,0.669,-0.073,-55.038,41.532
15:40:29:936,30.388,0.419,0.011,0.669,-0.073,-55.038,41.532
15:40:29:963,30.415,0.419,0.011,0.669,-0.073,-55.038,41.532
15:40:29:99,30.442,1.290,-0.148,0.792,0.660,-54.282,46.220
15:40:30:017,30.470,1.290,-0.148,0.792,0.660,-54.282,46.220
15:40:30:045,30.497,1.671,-0.936,0.659,20.276,-56.285,56.861
15:40:30:072,30.524,1.671,-0.936,0.659,20.276,-56.285,56.861
15:40:30:099,30.551,1.671,-0.936,0.659,20.276,-56.285,56.861
15:40:30:126,30.578,1.671,-0.936,0.659,20.276,-56.285,56.861
15:40:30:154,30.606,1.671,-0.936,0.659,20.276,-56.285,56.861
15:40:30:181,30.633,1.671,-0.936,0.659,20.276,-56.285,56.861
15:40:30:208,30.660,1.671,-0.936,0.659,20.276,-56.285,56.861
15:40:30:235,30.687,1.671,-0.936,0.659,20.276,-56.285,56.861
15:40:30:262,30.714,1.671,-0.936,0.659,20.276,-56.285,56.861
15:40:30:29,30.742,1.671,-0.936,0.659,20.276,-56.285,56.861
15:40:30:317,30.769,1.026,0.326,-0.285,3.773,-44.659,27.733
15:40:30:344,30.796,1.026,0.326,-0.285,3.773,-44.659,27.733
15:40:30:371,30.824,-1.321,1.479,-0.850,-2.393,-38.847,6.114
15:40:30:399,30.851,-1.321,1.479,-0.850,-2.393,-38.847,6.114
15:40:30:426,30.878,-1.321,1.479,-0.850,-2.393,-38.847,6.114
15:40:30:453,30.905,-1.349,-0.845,-1.119,-2.603,-19.518,-9.045
15:40:30:48,30.932,-2.825,1.986,-4.647,-3.296,-17.155,-2.607
15:40:30:507,30.959,-2.825,1.986,-4.647,-3.296,-17.155,-2.607
15:40:30:535,30.987,-2.825,1.986,-4.647,-3.296,-17.155,-2.607
15:40:30:562,31.014,-2.825,1.986,-4.647,-3.296,-17.155,-2.607
15:40:30:59,31.042,-0.289,0.240,0.201,-5.422,-17.351,17.850
15:40:30:616,31.069,-0.116,0.828,0.226,-3.871,-17.183,20.430
15:40:30:644,31.096,-0.116,0.828,0.226,-3.871,-17.183,20.430
15:40:30:671,31.123,-0.116,0.828,0.226,-3.871,-17.183,20.430
15:40:30:698,31.151,-0.116,0.828,0.226,-3.871,-17.183,20.430
15:40:30:726,31.178,1.254,-0.783,-0.503,19.523,-14.953,51.343
15:40:30:753,31.205,1.254,-0.783,-0.503,19.523,-14.953,51.343
15:40:30:78,31.232,1.254,-0.783,-0.503,19.523,-14.953,51.343
15:40:30:807,31.259,1.254,-0.783,-0.503,19.523,-14.953,51.343
15:40:30:834,31.286,1.254,-0.783,-0.503,19.523,-14.953,51.343
15:40:30:861,31.313,1.254,-0.783,-0.503,19.523,-14.953,51.343
15:40:30:888,31.340,1.254,-0.783,-0.503,19.523,-14.953,51.343
15:40:30:915,31.367,1.254,-0.783,-0.503,19.523,-14.953,51.343
15:40:30:943,31.395,-2.888,-1.048,1.262,-5.301,22.970,-10.379
15:40:30:97,31.423,-1.783,-2.457,-0.304,-6.395,29.026,6.772
15:40:30:997,31.449,-0.567,0.538,0.045,-8.629,30.996,16.340
15:40:31:024,31.477,0.289,1.455,0.234,-7.412,30.859,21.898
15:40:31:051,31.503,0.289,1.455,0.234,-7.412,30.859,21.898
15:40:31:078,31.531,0.289,1.455,0.234,-7.412,30.859,21.898
15:40:31:106,31.559,0.289,1.455,0.234,-7.412,30.859,21.898
15:40:31:134,31.586,0.289,1.455,0.234,-7.412,30.859,21.898
15:40:31:161,31.613,0.289,1.455,0.234,-7.412,30.859,21.898
15:40:31:188,31.640,0.935,-0.036,-0.995,-5.428,29.780,23.469
15:40:31:215,31.667,0.935,-0.036,-0.995,-5.428,29.780,23.469
15:40:31:242,31.695,0.935,-0.036,-0.995,-5.428,29.780,23.469
15:40:31:27,31.722,0.611,-0.725,-0.567,-2.247,24.130,27.308
15:40:31:297,31.749,0.611,-0.725,-0.567,-2.247,24.130,27.308
15:40:31:325,31.777,0.611,-0.725,-0.567,-2.247,24.130,27.308
15:40:31:352,31.804,0.611,-0.725,-0.567,-2.247,24.130,27.308
15:40:31:379,31.831,1.831,-0.648,-1.310,7.839,23.759,54.042
15:40:31:406,31.858,-0.006,-0.920,-0.895,7.395,29.658,55.791
15:40:31:433,31.885,-0.006,-0.920,-0.895,7.395,29.658,55.791
15:40:31:461,31.913,-0.006,-0.920,-0.895,7.395,29.658,55.791
15:40:31:488,31.940,-0.086,1.247,0.228,-7.549,37.370,16.285
15:40:31:515,31.967,-0.086,1.247,0.228,-7.549,37.370,16.285
15:40:31:542,31.994,-0.086,1.247,0.228,-7.549,37.370,16.285
15:40:31:569,32.022,-1.324,1.282,2.000,-10.585,40.334,2.965
15:40:31:597,32.049,-1.324,1.282,2.000,-10.585,40.334,2.965
15:40:31:624,32.076,-1.324,1.282,2.000,-10.585,40.334,2.965
15:40:31:651,32.103,-1.324,1.282,2.000,-10.585,40.334,2.965
15:40:31:678,32.130,-1.324,1.282,2.000,-10.585,40.334,2.965
15:40:31:705,32.157,-1.149,0.004,1.260,-11.282,48.979,-10.135
15:40:31:732,32.184,-0.066,0.550,0.486,-13.184,53.537,17.867
15:40:31:759,32.211,-0.066,0.550,0.486,-13.184,53.537,17.867
15:40:31:786,32.238,-0.066,0.550,0.486,-13.184,53.537,17.867
15:40:31:813,32.265,1.358,-0.375,-1.838,5.376,39.551,52.530
15:40:31:84,32.292,1.026,-0.794,-1.367,12.284,39.212,58.005
15:40:31:867,32.319,1.026,-0.794,-1.367,12.284,39.212,58.005
15:40:31:894,32.346,0.132,-0.452,-0.891,-1.480,42.319,48.713
15:40:31:921,32.373,0.132,-0.452,-0.891,-1.480,42.319,48.713
15:40:31:948,32.401,0.837,0.373,-0.111,-8.269,43.497,29.182
15:40:31:976,32.428,0.837,0.373,-0.111,-8.269,43.497,29.182
15:40:32:002,32.455,-4.006,0.880,-0.370,-10.784,60.704,-7.669
15:40:32:03,32.483,-4.006,0.880,-0.370,-10.784,60.704,-7.669
15:40:32:058,32.510,-4.006,0.880,-0.370,-10.784,60.704,-7.669
15:40:32:085,32.538,0.135,0.239,0.500,-11.894,62.658,16.830
15:40:32:112,32.564,0.135,0.239,0.500,-11.894,62.658,16.830
15:40:32:14,32.592,0.135,0.239,0.500,-11.894,62.658,16.830
15:40:32:167,32.619,0.597,-0.241,-0.831,-5.998,59.445,23.209
15:40:32:194,32.646,0.597,-0.241,-0.831,-5.998,59.445,23.209
15:40:32:221,32.673,0.597,-0.241,-0.831,-5.998,59.445,23.209
15:40:32:249,32.701,0.597,-0.241,-0.831,-5.998,59.445,23.209
15:40:32:275,32.728,0.597,-0.241,-0.831,-5.998,59.445,23.209
15:40:32:303,32.755,0.597,-0.241,-0.831,-5.998,59.445,23.209
15:40:32:329,32.782,0.453,-0.789,-1.025,-3.462,61.021,32.214
15:40:32:357,32.809,0.453,-0.789,-1.025,-3.462,61.021,32.214
15:40:32:384,32.836,0.453,-0.789,-1.025,-3.462,61.021,32.214
15:40:32:411,32.863,0.453,-0.789,-1.025,-3.462,61.021,32.214
15:40:32:439,32.891,0.453,-0.789,-1.025,-3.462,61.021,32.214
15:40:32:466,32.918,0.330,-0.528,-2.311,12.392,56.974,49.241
15:40:32:493,32.945,0.330,-0.528,-2.311,12.392,56.974,49.241
15:40:32:521,32.973,0.174,-0.985,-1.328,18.091,57.124,50.957
15:40:32:548,33.000,0.174,-0.985,-1.328,18.091,57.124,50.957
15:40:32:575,33.027,0.174,-0.985,-1.328,18.091,57.124,50.957
15:40:32:602,33.054,0.174,-0.985,-1.328,18.091,57.124,50.957
15:40:32:629,33.081,-0.617,-0.910,-1.063,14.597,63.251,47.486
15:40:32:657,33.109,-0.617,-0.910,-1.063,14.597,63.251,47.486
15:40:32:684,33.136,-0.617,-0.910,-1.063,14.597,63.251,47.486
15:40:32:712,33.164,-0.617,-0.910,-1.063,14.597,63.251,47.486
15:40:32:739,33.191,-0.617,-0.910,-1.063,14.597,63.251,47.486
15:40:32:766,33.219,-1.011,-0.192,-1.018,5.142,70.808,33.789
15:40:32:793,33.246,-1.011,-0.192,-1.018,5.142,70.808,33.789
15:40:32:821,33.273,-0.243,0.559,2.715,-4.466,81.790,-5.690
15:40:32:847,33.300,-0.243,0.559,2.715,-4.466,81.790,-5.690
15:40:32:875,33.327,-0.243,0.559,2.715,-4.466,81.790,-5.690
15:40:32:901,33.354,-0.243,0.559,2.715,-4.466,81.790,-5.690
15:40:32:929,33.381,-0.243,0.559,2.715,-4.466,81.790,-5.690
15:40:32:956,33.408,-0.243,0.559,2.715,-4.466,81.790,-5.690
15:40:32:984,33.436,-0.243,0.559,2.715,-4.466,81.790,-5.690
15:40:33:01,33.463,-0.243,0.559,2.715,-4.466,81.790,-5.690
15:40:33:038,33.490,-0.243,0.559,2.715,-4.466,81.790,-5.690
15:40:33:065,33.517,-0.243,0.559,2.715,-4.466,81.790,-5.690
15:40:33:092,33.544,-0.243,0.559,2.715,-4.466,81.790,-5.690
15:40:33:119,33.571,-0.243,0.559,2.715,-4.466,81.790,-5.690
15:40:33:146,33.598,-0.243,0.559,2.715,-4.466,81.790,-5.690
15:40:33:173,33.625,-0.243,0.559,2.715,-4.466,81.790,-5.690
15:40:33:2,33.652,-0.243,0.559,2.715,-4.466,81.790,-5.690
15:40:33:227,33.679,-0.243,0.559,2.715,-4.466,81.790,-5.690
15:40:33:254,33.706,-0.243,0.559,2.715,-4.466,81.790,-5.690
15:40:33:281,33.733,-0.243,0.559,2.715,-4.466,81.790,-5.690
15:40:33:309,33.761,-0.243,0.559,2.715,-4.466,81.790,-5.690
15:40:33:336,33.788,-0.243,0.559,2.715,-4.466,81.790,-5.690
15:40:33:364,33.816,-0.243,0.559,2.715,-4.466,81.790,-5.690
15:40:33:391,33.844,-0.063,2.737,2.758,-2.252,102.704,-4.155
15:40:33:419,33.871,-0.063,2.737,2.758,-2.252,102.704,-4.155
15:40:33:445,33.898,-0.063,2.737,2.758,-2.252,102.704,-4.155
15:40:33:473,33.925,-0.037,0.043,0.427,-4.308,102.901,14.676
15:40:33:5,33.952,0.275,0.479,0.061,-3.075,103.314,17.477
15:40:33:528,33.980,0.196,0.890,-0.080,-1.733,103.508,18.962
15:40:33:557,34.010,0.196,0.890,-0.080,-1.733,103.508,18.962
15:40:33:584,34.037,0.196,0.890,-0.080,-1.733,103.508,18.962
15:40:33:612,34.064,0.196,0.890,-0.080,-1.733,103.508,18.962
15:40:33:639,34.092,0.196,0.890,-0.080,-1.733,103.508,18.962
15:40:33:667,34.119,0.196,0.890,-0.080,-1.733,103.508,18.962
15:40:33:693,34.146,0.196,0.890,-0.080,-1.733,103.508,18.962
15:40:33:721,34.173,0.196,0.890,-0.080,-1.733,103.508,18.962
15:40:33:748,34.200,0.196,0.890,-0.080,-1.733,103.508,18.962
15:40:33:776,34.228,0.196,0.890,-0.080,-1.733,103.508,18.962
15:40:33:803,34.255,0.196,0.890,-0.080,-1.733,103.508,18.962
15:40:33:83,34.282,0.196,0.890,-0.080,-1.733,103.508,18.962
15:40:33:857,34.309,0.196,0.890,-0.080,-1.733,103.508,18.962
15:40:33:884,34.336,0.196,0.890,-0.080,-1.733,103.508,18.962
15:40:33:911,34.364,0.196,0.890,-0.080,-1.733,103.508,18.962
15:40:33:939,34.391,0.163,-0.378,-1.084,3.639,102.619,23.707
15:40:33:966,34.418,0.163,-0.378,-1.084,3.639,102.619,23.707
15:40:33:993,34.445,-2.102,-0.518,-1.477,6.652,113.408,47.346
15:40:34:02,34.473,-0.913,-0.976,-0.108,14.358,116.980,48.516
15:40:34:048,34.500,-0.913,-0.976,-0.108,14.358,116.980,48.516
15:40:34:075,34.527,-0.949,0.017,-0.080,-3.604,149.026,21.058
15:40:34:102,34.554,-0.949,0.017,-0.080,-3.604,149.026,21.058
15:40:34:129,34.581,-1.076,0.209,-0.439,-2.715,151.906,33.300
15:40:34:156,34.609,-1.076,0.209,-0.439,-2.715,151.906,33.300
15:40:34:183,34.635,-1.076,0.209,-0.439,-2.715,151.906,33.300
15:40:34:21,34.663,-1.076,0.209,-0.439,-2.715,151.906,33.300
15:40:34:238,34.690,2.592,-1.252,0.264,-0.494,-177.263,-11.676
15:40:34:265,34.717,2.592,-1.252,0.264,-0.494,-177.263,-11.676
15:40:34:292,34.744,1.975,-0.396,1.893,0.256,-175.741,-9.112
15:40:34:319,34.771,-1.848,0.009,-0.244,-1.396,-175.401,2.505
15:40:34:346,34.798,-1.848,0.009,-0.244,-1.396,-175.401,2.505
15:40:34:374,34.826,-1.848,0.009,-0.244,-1.396,-175.401,2.505
15:40:34:4,34.853,-1.848,0.009,-0.244,-1.396,-175.401,2.505
15:40:34:428,34.880,-1.848,0.009,-0.244,-1.396,-175.401,2.505
15:40:34:456,34.908,-1.848,0.009,-0.244,-1.396,-175.401,2.505
15:40:34:482,34.935,-1.848,0.009,-0.244,-1.396,-175.401,2.505
15:40:34:51,34.962,-1.848,0.009,-0.244,-1.396,-175.401,2.505
15:40:34:536,34.989,-1.848,0.009,-0.244,-1.396,-175.401,2.505
15:40:34:564,35.016,-0.784,0.701,0.302,1.067,-169.447,16.351
15:40:34:591,35.043,-0.784,0.701,0.302,1.067,-169.447,16.351
15:40:34:618,35.070,-0.784,0.701,0.302,1.067,-169.447,16.351
15:40:34:646,35.098,-0.784,0.701,0.302,1.067,-169.447,16.351
15:40:34:672,35.125,-0.784,0.701,0.302,1.067,-169.447,16.351
15:40:34:7,35.152,-0.784,0.701,0.302,1.067,-169.447,16.351
15:40:34:727,35.179,-0.784,0.701,0.302,1.067,-169.447,16.351
15:40:34:755,35.207,-0.784,0.701,0.302,1.067,-169.447,16.351
15:40:34:783,35.235,-0.599,-0.832,0.078,4.931,-172.754,20.059
15:40:34:809,35.262,-0.599,-0.832,0.078,4.931,-172.754,20.059
15:40:34:837,35.289,-0.599,-0.832,0.078,4.931,-172.754,20.059
15:40:34:864,35.316,-0.599,-0.832,0.078,4.931,-172.754,20.059
15:40:34:891,35.343,-0.599,-0.832,0.078,4.931,-172.754,20.059
15:40:34:919,35.371,-0.599,-0.832,0.078,4.931,-172.754,20.059
15:40:34:945,35.398,-0.599,-0.832,0.078,4.931,-172.754,20.059
15:40:34:973,35.425,-0.599,-0.832,0.078,4.931,-172.754,20.059
15:40:34:999,35.452,-0.599,-0.832,0.078,4.931,-172.754,20.059
15:40:35:027,35.479,-0.599,-0.832,0.078,4.931,-172.754,20.059
15:40:35:054,35.506,-0.997,-0.833,0.529,7.049,-163.734,35.310
15:40:35:081,35.533,-0.997,-0.833,0.529,7.049,-163.734,35.310
15:40:35:108,35.560,-0.997,-0.833,0.529,7.049,-163.734,35.310
15:40:35:135,35.588,-0.997,-0.833,0.529,7.049,-163.734,35.310
15:40:35:162,35.615,-0.997,-0.833,0.529,7.049,-163.734,35.310
15:40:35:19,35.642,-0.300,-0.343,1.227,7.950,-157.820,39.473
15:40:35:216,35.669,-0.300,-0.343,1.227,7.950,-157.820,39.473
15:40:35:244,35.696,-0.300,-0.343,1.227,7.950,-157.820,39.473
15:40:35:272,35.724,-0.300,-0.343,1.227,7.950,-157.820,39.473
15:40:35:299,35.751,-0.300,-0.343,1.227,7.950,-157.820,39.473
15:40:35:326,35.778,-0.300,-0.343,1.227,7.950,-157.820,39.473
15:40:35:353,35.805,0.710,0.915,-0.320,-2.331,-154.562,15.247
15:40:35:38,35.832,0.710,0.915,-0.320,-2.331,-154.562,15.247
15:40:35:407,35.860,0.710,0.915,-0.320,-2.331,-154.562,15.247
15:40:35:434,35.887,2.098,-0.500,-1.842,-9.059,-150.368,-5.703
15:40:35:461,35.913,2.098,-0.500,-1.842,-9.059,-150.368,-5.703
15:40:35:489,35.941,2.098,-0.500,-1.842,-9.059,-150.368,-5.703
15:40:35:516,35.968,2.098,-0.500,-1.842,-9.059,-150.368,-5.703
15:40:35:543,35.995,2.098,-0.500,-1.842,-9.059,-150.368,-5.703
15:40:35:57,36.022,-0.373,0.106,-0.364,-10.842,-132.256,12.657
15:40:35:597,36.049,-0.373,0.106,-0.364,-10.842,-132.256,12.657
15:40:35:625,36.077,-0.397,1.170,0.048,-10.853,-132.411,17.867
15:40:35:652,36.104,-0.844,-0.732,1.088,0.468,-142.188,49.473
15:40:35:679,36.131,-0.192,-0.628,0.647,-1.836,-141.142,43.077
15:40:35:706,36.159,-0.192,-0.628,0.647,-1.836,-141.142,43.077
15:40:35:733,36.185,-0.192,-0.628,0.647,-1.836,-141.142,43.077
15:40:35:761,36.213,-0.278,-0.113,0.639,-4.736,-141.069,34.578
15:40:35:788,36.240,1.627,-0.475,-2.122,-12.884,-134.984,-4.716
15:40:35:815,36.267,1.627,-0.475,-2.122,-12.884,-134.984,-4.716
15:40:35:842,36.294,1.627,-0.475,-2.122,-12.884,-134.984,-4.716
15:40:35:869,36.321,-0.165,-1.323,0.411,-13.081,-132.751,6.244
15:40:35:896,36.348,-0.165,-1.323,0.411,-13.081,-132.751,6.244
15:40:35:923,36.375,-0.165,-1.323,0.411,-13.081,-132.751,6.244
15:40:35:95,36.402,-0.264,0.220,0.651,-10.167,-134.056,18.746
15:40:35:977,36.430,-0.264,0.220,0.651,-10.167,-134.056,18.746
15:40:36:005,36.457,-0.491,0.105,0.326,-7.156,-137.379,28.912
15:40:36:032,36.484,-0.692,-1.206,1.089,0.914,-141.421,49.230
15:40:36:059,36.511,-0.434,0.307,0.373,-7.188,-140.901,24.027
15:40:36:087,36.539,-0.434,0.307,0.373,-7.188,-140.901,24.027
15:40:36:115,36.567,-0.434,0.307,0.373,-7.188,-140.901,24.027
15:40:36:142,36.594,-0.434,0.307,0.373,-7.188,-140.901,24.027
15:40:36:169,36.622,-0.434,0.307,0.373,-7.188,-140.901,24.027
15:40:36:197,36.649,0.120,-0.903,-0.234,-13.043,-125.199,11.136
15:40:36:224,36.676,-0.056,0.084,0.087,-13.865,-124.270,13.570
15:40:36:251,36.704,0.016,0.045,0.045,-13.382,-124.400,16.523
15:40:36:279,36.731,0.016,0.045,0.045,-13.382,-124.400,16.523
15:40:36:306,36.758,-0.310,1.205,-0.253,-10.745,-124.337,19.912
15:40:36:333,36.785,-0.310,1.205,-0.253,-10.745,-124.337,19.912
15:40:36:36,36.812,-0.310,1.205,-0.253,-10.745,-124.337,19.912
15:40:36:387,36.839,-0.310,1.205,-0.253,-10.745,-124.337,19.912
15:40:36:414,36.866,-0.310,1.205,-0.253,-10.745,-124.337,19.912
15:40:36:441,36.893,-0.310,1.205,-0.253,-10.745,-124.337,19.912
15:40:36:468,36.920,-0.400,0.763,0.957,-9.484,-124.766,19.960
15:40:36:495,36.947,-0.400,0.763,0.957,-9.484,-124.766,19.960
15:40:36:522,36.974,-0.400,0.763,0.957,-9.484,-124.766,19.960
15:40:36:549,37.002,-0.532,-0.208,0.173,-7.464,-125.564,26.706
15:40:36:576,37.028,-0.532,-0.208,0.173,-7.464,-125.564,26.706
15:40:36:603,37.056,-0.204,-0.331,1.331,-5.209,-126.437,38.077
15:40:36:63,37.082,0.236,-0.647,1.015,5.420,-127.667,39.705
15:40:36:658,37.110,0.236,-0.647,1.015,5.420,-127.667,39.705
15:40:36:685,37.138,0.172,0.333,0.896,-2.767,-121.123,26.120
15:40:36:713,37.165,0.172,0.333,0.896,-2.767,-121.123,26.120
15:40:36:74,37.192,0.172,0.333,0.896,-2.767,-121.123,26.120
15:40:36:767,37.219,0.172,0.333,0.896,-2.767,-121.123,26.120
15:40:36:794,37.246,0.172,0.333,0.896,-2.767,-121.123,26.120
15:40:36:821,37.273,0.172,0.333,0.896,-2.767,-121.123,26.120
15:40:36:848,37.300,0.172,0.333,0.896,-2.767,-121.123,26.120
15:40:36:875,37.327,0.172,0.333,0.896,-2.767,-121.123,26.120
15:40:36:903,37.355,0.172,0.333,0.896,-2.767,-121.123,26.120
15:40:36:93,37.382,0.172,0.333,0.896,-2.767,-121.123,26.120
15:40:36:958,37.410,0.172,0.333,0.896,-2.767,-121.123,26.120
15:40:36:985,37.437,0.172,0.333,0.896,-2.767,-121.123,26.120
15:40:37:012,37.464,0.172,0.333,0.896,-2.767,-121.123,26.120
15:40:37:039,37.491,0.172,0.333,0.896,-2.767,-121.123,26.120
15:40:37:066,37.518,0.172,0.333,0.896,-2.767,-121.123,26.120
15:40:37:093,37.545,0.172,0.333,0.896,-2.767,-121.123,26.120
15:40:37:12,37.573,0.979,0.643,-2.024,-6.103,-115.440,-2.646
15:40:37:147,37.599,4.438,0.354,-3.288,-5.976,-99.449,-5.286
15:40:37:175,37.627,4.438,0.354,-3.288,-5.976,-99.449,-5.286
15:40:37:203,37.655,4.438,0.354,-3.288,-5.976,-99.449,-5.286
15:40:37:23,37.683,0.321,0.580,-0.274,-8.061,-98.990,8.752
15:40:37:257,37.709,0.321,0.580,-0.274,-8.061,-98.990,8.752
15:40:37:284,37.737,0.321,0.580,-0.274,-8.061,-98.990,8.752
15:40:37:311,37.763,0.321,0.580,-0.274,-8.061,-98.990,8.752
15:40:37:338,37.791,0.321,0.580,-0.274,-8.061,-98.990,8.752
15:40:37:365,37.817,-0.247,0.298,-0.154,-8.558,-98.259,11.100
15:40:37:393,37.845,-0.247,0.298,-0.154,-8.558,-98.259,11.100
15:40:37:419,37.872,-0.247,0.298,-0.154,-8.558,-98.259,11.100
15:40:37:447,37.899,-0.247,0.298,-0.154,-8.558,-98.259,11.100
15:40:37:474,37.927,-0.247,0.298,-0.154,-8.558,-98.259,11.100
15:40:37:501,37.953,0.312,-0.050,-0.485,-7.909,-98.573,14.567
15:40:37:529,37.981,0.312,-0.050,-0.485,-7.909,-98.573,14.567
15:40:37:556,38.008,-0.044,0.620,-0.130,-6.910,-98.988,16.120
15:40:37:583,38.035,-0.199,0.182,0.749,-2.627,-100.399,18.001
15:40:37:61,38.062,-0.550,-0.297,0.765,-1.357,-100.978,17.880
15:40:37:638,38.090,-0.550,-0.297,0.765,-1.357,-100.978,17.880
15:40:37:665,38.118,-0.550,-0.297,0.765,-1.357,-100.978,17.880
15:40:37:693,38.145,0.588,-0.273,1.304,-2.742,-85.023,35.943
15:40:37:72,38.172,0.588,-0.273,1.304,-2.742,-85.023,35.943
15:40:37:747,38.200,0.588,-0.273,1.304,-2.742,-85.023,35.943
15:40:37:774,38.226,0.588,-0.273,1.304,-2.742,-85.023,35.943
15:40:37:801,38.254,0.588,-0.273,1.304,-2.742,-85.023,35.943
15:40:37:828,38.280,0.588,-0.273,1.304,-2.742,-85.023,35.943
15:40:37:855,38.307,0.588,-0.273,1.304,-2.742,-85.023,35.943
15:40:37:882,38.334,0.837,-0.745,1.085,14.868,-86.460,45.933
15:40:37:91,38.362,1.141,-0.924,0.738,14.531,-83.865,42.609
15:40:37:937,38.389,1.403,-0.042,0.223,6.049,-76.834,31.996
15:40:37:963,38.416,1.403,-0.042,0.223,6.049,-76.834,31.996
15:40:37:991,38.443,1.403,-0.042,0.223,6.049,-76.834,31.996
15:40:38:019,38.471,0.336,0.921,-0.942,-0.185,-70.846,15.623
15:40:38:046,38.498,0.336,0.921,-0.942,-0.185,-70.846,15.623
15:40:38:074,38.526,0.336,0.921,-0.942,-0.185,-70.846,15.623
15:40:38:101,38.553,0.336,0.921,-0.942,-0.185,-70.846,15.623
15:40:38:128,38.580,1.839,0.544,-2.064,-6.051,-56.044,0.034
15:40:38:155,38.607,-0.296,-0.545,0.143,-7.596,-53.162,10.957
15:40:38:183,38.635,-0.159,0.959,0.363,-5.426,-53.433,20.046
15:40:38:21,38.662,0.986,1.289,0.803,-3.729,-52.619,21.703
15:40:38:237,38.689,0.986,1.289,0.803,-3.729,-52.619,21.703
15:40:38:264,38.716,0.986,1.289,0.803,-3.729,-52.619,21.703
15:40:38:291,38.743,0.986,1.289,0.803,-3.729,-52.619,21.703
15:40:38:318,38.770,0.986,1.289,0.803,-3.729,-52.619,21.703
15:40:38:345,38.798,0.986,1.289,0.803,-3.729,-52.619,21.703
15:40:38:372,38.825,0.986,1.289,0.803,-3.729,-52.619,21.703
15:40:38:4,38.852,0.986,1.289,0.803,-3.729,-52.619,21.703
15:40:38:427,38.880,0.986,1.289,0.803,-3.729,-52.619,21.703
15:40:38:455,38.907,0.986,1.289,0.803,-3.729,-52.619,21.703
15:40:38:482,38.934,1.344,0.081,0.785,-0.024,-50.570,36.783
15:40:38:509,38.962,0.909,-1.026,0.333,11.261,-52.436,47.407
15:40:38:537,38.989,0.909,-1.026,0.333,11.261,-52.436,47.407
15:40:38:564,39.016,-0.049,1.152,-0.446,-4.546,-38.414,13.201
15:40:38:591,39.043,-0.049,1.152,-0.446,-4.546,-38.414,13.201
15:40:38:618,39.070,-0.049,1.152,-0.446,-4.546,-38.414,13.201
15:40:38:645,39.098,-0.049,1.152,-0.446,-4.546,-38.414,13.201
15:40:38:672,39.124,-2.579,-1.215,-1.538,-7.925,-26.597,-10.811
15:40:38:699,39.152,-2.579,-1.215,-1.538,-7.925,-26.597,-10.811
15:40:38:727,39.179,-2.579,-1.215,-1.538,-7.925,-26.597,-10.811
15:40:38:753,39.206,-2.579,-1.215,-1.538,-7.925,-26.597,-10.811
15:40:38:781,39.233,-2.579,-1.215,-1.538,-7.925,-26.597,-10.811
15:40:38:808,39.260,-2.579,-1.215,-1.538,-7.925,-26.597,-10.811
15:40:38:835,39.288,-2.579,-1.215,-1.538,-7.925,-26.597,-10.811
15:40:38:862,39.314,-2.579,-1.215,-1.538,-7.925,-26.597,-10.811
15:40:38:89,39.342,-2.579,-1.215,-1.538,-7.925,-26.597,-10.811
15:40:38:918,39.370,-2.835,0.492,-2.084,-7.640,-23.945,-7.407
15:40:38:945,39.398,-2.835,0.492,-2.084,-7.640,-23.945,-7.407
15:40:38:973,39.425,-0.270,0.218,-0.271,-8.264,-20.164,16.771
15:40:39:,39.452,-0.270,0.218,-0.271,-8.264,-20.164,16.771
15:40:39:027,39.480,-0.270,0.218,-0.271,-8.264,-20.164,16.771
15:40:39:054,39.507,0.825,0.064,0.134,-3.549,-21.761,21.995
15:40:39:081,39.533,0.609,-0.315,0.471,-0.369,-23.313,27.506
15:40:39:109,39.561,0.609,-0.315,0.471,-0.369,-23.313,27.506
15:40:39:136,39.588,0.609,-0.315,0.471,-0.369,-23.313,27.506
15:40:39:163,39.615,2.570,-0.626,-0.114,7.735,-20.445,48.318
15:40:39:19,39.642,0.731,-0.774,-0.720,9.751,-14.619,43.571
15:40:39:219,39.671,0.731,-0.774,-0.720,9.751,-14.619,43.571
15:40:39:246,39.698,0.731,-0.774,-0.720,9.751,-14.619,43.571
15:40:39:273,39.726,0.731,-0.774,-0.720,9.751,-14.619,43.571
15:40:39:3,39.753,0.731,-0.774,-0.720,9.751,-14.619,43.571
15:40:39:328,39.780,0.731,-0.774,-0.720,9.751,-14.619,43.571
15:40:39:355,39.807,0.731,-0.774,-0.720,9.751,-14.619,43.571
15:40:39:382,39.834,0.731,-0.774,-0.720,9.751,-14.619,43.571
15:40:39:409,39.861,0.731,-0.774,-0.720,9.751,-14.619,43.571
15:40:39:436,39.889,0.731,-0.774,-0.720,9.751,-14.619,43.571
15:40:39:463,39.915,0.731,-0.774,-0.720,9.751,-14.619,43.571
15:40:39:49,39.943,-1.154,1.046,-0.113,-4.556,-1.223,7.624
15:40:39:518,39.970,-1.154,1.046,-0.113,-4.556,-1.223,7.624
15:40:39:545,39.997,-1.154,1.046,-0.113,-4.556,-1.223,7.624
15:40:39:572,40.024,-1.154,1.046,-0.113,-4.556,-1.223,7.624
15:40:39:599,40.051,-1.154,1.046,-0.113,-4.556,-1.223,7.624
15:40:39:626,40.078,-1.154,1.046,-0.113,-4.556,-1.223,7.624
15:40:39:653,40.105,-1.154,1.046,-0.113,-4.556,-1.223,7.624
15:40:39:68,40.133,-2.882,-0.399,0.202,-6.477,12.132,-6.297
15:40:39:707,40.159,-2.882,-0.399,0.202,-6.477,12.132,-6.297
15:40:39:734,40.187,-2.882,-0.399,0.202,-6.477,12.132,-6.297
15:40:39:762,40.214,-2.882,-0.399,0.202,-6.477,12.132,-6.297
15:40:39:789,40.242,-2.882,-0.399,0.202,-6.477,12.132,-6.297
15:40:39:816,40.268,-2.882,-0.399,0.202,-6.477,12.132,-6.297
15:40:39:844,40.296,-2.882,-0.399,0.202,-6.477,12.132,-6.297
15:40:39:871,40.323,-2.882,-0.399,0.202,-6.477,12.132,-6.297
15:40:39:898,40.350,-2.882,-0.399,0.202,-6.477,12.132,-6.297
15:40:39:926,40.378,-2.882,-0.399,0.202,-6.477,12.132,-6.297
15:40:39:953,40.405,0.094,0.754,0.032,-5.267,18.634,19.498
15:40:39:98,40.432,0.499,0.740,-0.187,-4.397,19.299,20.431
15:40:40:007,40.460,0.499,0.740,-0.187,-4.397,19.299,20.431
15:40:40:034,40.486,0.499,0.740,-0.187,-4.397,19.299,20.431
15:40:40:061,40.514,0.534,-0.263,-0.233,-1.458,18.477,21.333
15:40:40:088,40.540,0.782,0.057,-0.730,1.493,22.283,36.179
15:40:40:116,40.568,0.782,0.057,-0.730,1.493,22.283,36.179
15:40:40:143,40.595,0.347,-0.817,-0.879,4.230,25.362,47.290
15:40:40:17,40.622,0.347,-0.817,-0.879,4.230,25.362,47.290
15:40:40:197,40.649,0.347,-0.817,-0.879,4.230,25.362,47.290
15:40:40:224,40.677,0.347,-0.817,-0.879,4.230,25.362,47.290
15:40:40:251,40.703,0.347,-0.817,-0.879,4.230,25.362,47.290
15:40:40:278,40.731,0.347,-0.817,-0.879,4.230,25.362,47.290
15:40:40:305,40.757,0.347,-0.817,-0.879,4.230,25.362,47.290
15:40:40:333,40.785,0.347,-0.817,-0.879,4.230,25.362,47.290
15:40:40:359,40.812,0.347,-0.817,-0.879,4.230,25.362,47.290
15:40:40:387,40.839,0.347,-0.817,-0.879,4.230,25.362,47.290
15:40:40:414,40.866,0.347,-0.817,-0.879,4.230,25.362,47.290
15:40:40:441,40.894,-0.327,0.335,0.273,-15.503,49.856,11.414
15:40:40:469,40.921,-0.327,0.335,0.273,-15.503,49.856,11.414
15:40:40:496,40.948,-0.327,0.335,0.273,-15.503,49.856,11.414
15:40:40:523,40.975,0.314,-0.252,-0.388,-11.935,44.395,24.278
15:40:40:55,41.002,0.314,-0.252,-0.388,-11.935,44.395,24.278
15:40:40:578,41.030,0.314,-0.252,-0.388,-11.935,44.395,24.278
15:40:40:605,41.057,0.314,-0.252,-0.388,-11.935,44.395,24.278
15:40:40:632,41.084,0.688,0.204,-1.103,-10.535,42.200,41.743
15:40:40:659,41.112,0.688,0.204,-1.103,-10.535,42.200,41.743
15:40:40:686,41.138,0.688,0.204,-1.103,-10.535,42.200,41.743
15:40:40:713,41.165,1.079,-0.752,-2.019,-6.678,38.877,53.289
15:40:40:741,41.193,1.079,-0.752,-2.019,-6.678,38.877,53.289
15:40:40:768,41.220,0.571,0.085,-0.442,-8.854,36.790,32.506
15:40:40:795,41.247,0.571,0.085,-0.442,-8.854,36.790,32.506
15:40:40:822,41.274,-1.914,-0.261,2.316,-15.036,45.978,-4.164
15:40:40:849,41.301,-1.914,-0.261,2.316,-15.036,45.978,-4.164
15:40:40:876,41.329,0.292,0.189,-0.521,-12.711,49.697,21.108
15:40:40:904,41.356,0.135,-0.264,-0.442,-11.036,45.534,22.589
15:40:40:93,41.383,0.135,-0.264,-0.442,-11.036,45.534,22.589
15:40:40:958,41.410,0.135,-0.264,-0.442,-11.036,45.534,22.589
15:40:40:985,41.437,0.135,-0.264,-0.442,-11.036,45.534,22.589
15:40:41:012,41.464,0.135,-0.264,-0.442,-11.036,45.534,22.589
15:40:41:04,41.492,0.135,-0.264,-0.442,-11.036,45.534,22.589
15:40:41:066,41.519,0.135,-0.264,-0.442,-11.036,45.534,22.589
15:40:41:095,41.547,0.135,-0.264,-0.442,-11.036,45.534,22.589
15:40:41:121,41.574,0.494,0.149,-0.878,-7.242,40.532,38.808
15:40:41:149,41.601,0.498,-1.377,-0.574,0.393,38.414,54.485
15:40:41:175,41.628,0.848,0.036,-0.465,-7.202,37.453,31.183
15:40:41:203,41.655,-1.257,0.944,1.582,-13.306,44.129,5.535
15:40:41:23,41.682,-1.257,0.944,1.582,-13.306,44.129,5.535
15:40:41:257,41.709,-1.456,-0.806,2.172,-12.883,52.944,-7.490
15:40:41:284,41.736,-1.456,-0.806,2.172,-12.883,52.944,-7.490
15:40:41:311,41.763,-1.456,-0.806,2.172,-12.883,52.944,-7.490
15:40:41:338,41.790,-1.456,-0.806,2.172,-12.883,52.944,-7.490
15:40:41:365,41.817,-1.456,-0.806,2.172,-12.883,52.944,-7.490
15:40:41:392,41.844,-1.456,-0.806,2.172,-12.883,52.944,-7.490
15:40:41:419,41.871,-0.473,-0.026,0.222,-13.333,52.925,14.287
15:40:41:446,41.898,0.014,0.355,0.155,-11.565,52.620,17.830
15:40:41:473,41.925,0.330,0.067,-0.427,-7.888,50.675,20.967
15:40:41:5,41.952,0.511,-0.076,-0.412,-7.252,50.328,21.981
15:40:41:528,41.980,0.511,-0.076,-0.412,-7.252,50.328,21.981
15:40:41:554,42.007,0.878,0.474,-0.488,-4.991,49.966,28.526
15:40:41:581,42.033,0.878,0.474,-0.488,-4.991,49.966,28.526
15:40:41:608,42.061,0.878,0.474,-0.488,-4.991,49.966,28.526
15:40:41:636,42.088,0.878,0.474,-0.488,-4.991,49.966,28.526
15:40:41:663,42.115,0.878,0.474,-0.488,-4.991,49.966,28.526
15:40:41:69,42.143,-0.191,-0.848,-1.463,-4.439,57.952,53.777
15:40:41:718,42.170,-0.043,-0.982,-0.758,-0.838,62.964,46.974
15:40:41:745,42.198,-0.043,-0.982,-0.758,-0.838,62.964,46.974
15:40:41:772,42.225,-0.043,-0.982,-0.758,-0.838,62.964,46.974
15:40:41:8,42.252,-0.043,-0.982,-0.758,-0.838,62.964,46.974
15:40:41:827,42.280,-0.043,-0.982,-0.758,-0.838,62.964,46.974
15:40:41:855,42.307,-0.043,-0.982,-0.758,-0.838,62.964,46.974
15:40:41:882,42.334,-0.615,0.332,-0.635,-0.872,67.000,24.324
15:40:41:909,42.361,-0.855,-0.530,2.333,-5.752,90.168,-6.262
15:40:41:936,42.389,-0.855,-0.530,2.333,-5.752,90.168,-6.262
15:40:41:964,42.416,-0.855,-0.530,2.333,-5.752,90.168,-6.262
15:40:41:991,42.443,0.407,2.431,1.958,-5.272,97.643,-3.256
15:40:42:018,42.470,0.407,2.431,1.958,-5.272,97.643,-3.256
15:40:42:045,42.497,0.407,2.431,1.958,-5.272,97.643,-3.256
15:40:42:072,42.525,0.407,2.431,1.958,-5.272,97.643,-3.256
15:40:42:1,42.552,0.154,0.104,0.255,-6.353,102.147,13.153
15:40:42:127,42.579,0.154,0.104,0.255,-6.353,102.147,13.153
15:40:42:153,42.606,0.154,0.104,0.255,-6.353,102.147,13.153
15:40:42:181,42.633,-0.109,0.294,-0.268,-3.888,103.683,16.808
15:40:42:208,42.661,-0.109,0.294,-0.268,-3.888,103.683,16.808
15:40:42:235,42.687,-0.319,0.108,-0.278,-2.293,103.524,17.336
15:40:42:262,42.715,-0.319,0.108,-0.278,-2.293,103.524,17.336
15:40:42:289,42.741,-0.319,0.108,-0.278,-2.293,103.524,17.336
15:40:42:316,42.769,-0.319,0.108,-0.278,-2.293,103.524,17.336
15:40:42:344,42.796,-0.319,0.108,-0.278,-2.293,103.524,17.336
15:40:42:372,42.824,-0.082,-0.030,-0.436,2.006,100.514,23.081
15:40:42:399,42.851,-0.082,-0.030,-0.436,2.006,100.514,23.081
15:40:42:426,42.878,-0.082,-0.030,-0.436,2.006,100.514,23.081
15:40:42:454,42.906,-0.082,-0.030,-0.436,2.006,100.514,23.081
15:40:42:481,42.933,-0.082,-0.030,-0.436,2.006,100.514,23.081
15:40:42:508,42.961,-0.082,-0.030,-0.436,2.006,100.514,23.081
15:40:42:535,42.987,-0.082,-0.030,-0.436,2.006,100.514,23.081
15:40:42:562,43.015,-0.082,-0.030,-0.436,2.006,100.514,23.081
15:40:42:589,43.042,-0.082,-0.030,-0.436,2.006,100.514,23.081
15:40:42:617,43.069,-0.082,-0.030,-0.436,2.006,100.514,23.081
15:40:42:644,43.097,-0.082,-0.030,-0.436,2.006,100.514,23.081
15:40:42:671,43.123,-0.688,-1.024,-0.481,12.422,100.655,45.778
15:40:42:699,43.151,-0.688,-1.024,-0.481,12.422,100.655,45.778
15:40:42:726,43.178,-0.688,-1.024,-0.481,12.422,100.655,45.778
15:40:42:753,43.206,-0.688,-1.024,-0.481,12.422,100.655,45.778
15:40:42:781,43.233,-0.688,-1.024,-0.481,12.422,100.655,45.778
15:40:42:808,43.260,-0.688,-1.024,-0.481,12.422,100.655,45.778
15:40:42:835,43.287,-0.688,-1.024,-0.481,12.422,100.655,45.778
15:40:42:862,43.314,-0.688,-1.024,-0.481,12.422,100.655,45.778
15:40:42:889,43.342,-0.688,-1.024,-0.481,12.422,100.655,45.778
15:40:42:916,43.369,-0.688,-1.024,-0.481,12.422,100.655,45.778
15:40:42:943,43.395,-0.688,-1.024,-0.481,12.422,100.655,45.778
15:40:42:971,43.423,-0.862,-0.896,-0.269,4.626,111.870,53.365
15:40:42:999,43.451,-0.862,-0.896,-0.269,4.626,111.870,53.365
15:40:43:026,43.478,-0.862,-0.896,-0.269,4.626,111.870,53.365
15:40:43:053,43.506,-0.789,-0.255,0.088,0.083,116.331,44.253
15:40:43:081,43.533,-0.344,-0.253,0.163,-1.559,118.232,29.355
15:40:43:108,43.560,1.584,0.590,2.009,-10.596,131.615,3.817
15:40:43:136,43.588,1.883,-0.072,2.370,-11.192,136.530,-3.135
15:40:43:164,43.616,1.883,-0.072,2.370,-11.192,136.530,-3.135
15:40:43:191,43.643,1.149,-2.764,2.259,-10.066,143.265,5.302
15:40:43:218,43.670,1.149,-2.764,2.259,-10.066,143.265,5.302
15:40:43:245,43.697,1.149,-2.764,2.259,-10.066,143.265,5.302
15:40:43:272,43.724,1.149,-2.764,2.259,-10.066,143.265,5.302
15:40:43:299,43.751,1.149,-2.764,2.259,-10.066,143.265,5.302
15:40:43:327,43.779,1.149,-2.764,2.259,-10.066,143.265,5.302
15:40:43:354,43.806,0.417,0.115,0.050,-11.270,143.980,11.242
15:40:43:381,43.834,0.006,0.995,-0.351,-10.530,143.504,19.307
15:40:43:408,43.860,0.006,0.995,-0.351,-10.530,143.504,19.307
15:40:43:435,43.888,0.006,0.995,-0.351,-10.530,143.504,19.307
15:40:43:463,43.915,-0.787,0.495,-0.384,-8.585,143.551,22.758
15:40:43:49,43.942,-0.787,0.495,-0.384,-8.585,143.551,22.758
15:40:43:517,43.969,-0.787,0.495,-0.384,-8.585,143.551,22.758
15:40:43:544,43.996,-0.350,-0.363,-0.459,-5.765,138.903,23.907
15:40:43:573,44.025,-0.350,-0.363,-0.459,-5.765,138.903,23.907
15:40:43:6,44.053,-0.350,-0.363,-0.459,-5.765,138.903,23.907
15:40:43:627,44.080,-0.350,-0.363,-0.459,-5.765,138.903,23.907
15:40:43:654,44.106,-0.843,-0.882,-0.226,11.351,144.009,55.614
15:40:43:681,44.134,-0.843,-0.882,-0.226,11.351,144.009,55.614
15:40:43:709,44.161,-0.843,-0.882,-0.226,11.351,144.009,55.614
15:40:43:735,44.188,-0.965,-0.053,0.141,-0.906,154.913,35.150
15:40:43:763,44.215,2.380,0.325,1.027,-5.385,165.337,-8.232
15:40:43:79,44.242,2.380,0.325,1.027,-5.385,165.337,-8.232
15:40:43:817,44.270,1.076,2.830,1.047,-3.715,175.347,-8.570
15:40:43:844,44.296,1.076,2.830,1.047,-3.715,175.347,-8.570
15:40:43:871,44.324,1.076,2.830,1.047,-3.715,175.347,-8.570
15:40:43:898,44.351,1.076,2.830,1.047,-3.715,175.347,-8.570
15:40:43:926,44.378,1.076,2.830,1.047,-3.715,175.347,-8.570
15:40:43:952,44.405,1.076,2.830,1.047,-3.715,175.347,-8.570
15:40:43:98,44.432,1.076,2.830,1.047,-3.715,175.347,-8.570
15:40:44:007,44.460,1.076,2.830,1.047,-3.715,175.347,-8.570
15:40:44:035,44.487,0.607,0.261,-0.175,-6.629,176.393,9.744
15:40:44:062,44.514,0.607,0.261,-0.175,-6.629,176.393,9.744
15:40:44:089,44.541,0.607,0.261,-0.175,-6.629,176.393,9.744
15:40:44:116,44.568,0.607,0.261,-0.175,-6.629,176.393,9.744
15:40:44:144,44.596,0.024,0.503,-0.045,-5.801,176.632,13.485
15:40:44:17,44.623,-0.658,-0.001,-0.465,-2.679,173.696,16.885
15:40:44:198,44.650,-0.658,-0.001,-0.465,-2.679,173.696,16.885
15:40:44:225,44.677,-0.658,-0.001,-0.465,-2.679,173.696,16.885
15:40:44:252,44.704,-0.658,-0.001,-0.465,-2.679,173.696,16.885
15:40:44:279,44.732,-0.658,-0.001,-0.465,-2.679,173.696,16.885
15:40:44:307,44.759,-0.658,-0.001,-0.465,-2.679,173.696,16.885
15:40:44:334,44.786,-1.168,-0.013,0.215,-1.828,-176.055,29.658
15:40:44:361,44.813,-1.168,-0.013,0.215,-1.828,-176.055,29.658
15:40:44:388,44.841,-1.168,-0.013,0.215,-1.828,-176.055,29.658
15:40:44:415,44.867,-1.168,-0.013,0.215,-1.828,-176.055,29.658
15:40:44:442,44.895,-0.967,-1.505,0.851,3.105,-169.570,47.779
15:40:44:469,44.921,-0.260,-0.664,1.147,8.314,-164.685,37.131
15:40:44:497,44.949,-0.260,-0.664,1.147,8.314,-164.685,37.131
15:40:44:523,44.976,-0.260,-0.664,1.147,8.314,-164.685,37.131
15:40:44:551,45.003,-0.244,-0.073,1.113,5.956,-163.069,32.201
15:40:44:578,45.031,-0.244,-0.073,1.113,5.956,-163.069,32.201
15:40:44:605,45.057,-0.244,-0.073,1.113,5.956,-163.069,32.201
15:40:44:633,45.085,2.280,0.510,-0.644,-5.394,-148.960,-1.676
15:40:44:66,45.113,2.280,0.510,-0.644,-5.394,-148.960,-1.676
15:40:44:688,45.140,2.464,0.625,-0.329,-5.039,-140.640,-3.901
15:40:44:714,45.167,0.209,0.067,-0.182,-7.404,-139.538,12.048
15:40:44:742,45.194,-0.169,0.694,0.320,-5.531,-137.955,19.208
15:40:44:77,45.222,-0.433,-0.354,0.447,-2.167,-140.361,23.685
15:40:44:798,45.250,-0.433,-0.354,0.447,-2.167,-140.361,23.685
15:40:44:825,45.277,-0.911,-0.047,1.607,4.251,-140.090,46.099
15:40:44:852,45.305,-0.911,-0.047,1.607,4.251,-140.090,46.099
15:40:44:88,45.332,-0.748,-1.154,1.216,3.644,-136.865,57.467
15:40:44:907,45.359,-0.748,-1.154,1.216,3.644,-136.865,57.467
15:40:44:934,45.387,-0.254,-1.134,0.861,3.074,-136.034,59.360
15:40:44:962,45.414,-0.254,-1.134,0.861,3.074,-136.034,59.360
15:40:44:99,45.442,-0.081,-0.977,0.633,1.662,-135.545,58.206
15:40:45:017,45.469,-0.081,-0.977,0.633,1.662,-135.545,58.206
15:40:45:044,45.496,-0.081,-0.977,0.633,1.662,-135.545,58.206
15:40:45:071,45.523,-0.081,-0.977,0.633,1.662,-135.545,58.206
15:40:45:098,45.550,-0.081,-0.977,0.633,1.662,-135.545,58.206
15:40:45:125,45.578,-0.005,-0.786,0.560,-0.241,-135.094,52.382
15:40:45:152,45.604,-0.005,-0.786,0.560,-0.241,-135.094,52.382
15:40:45:179,45.631,-0.005,-0.786,0.560,-0.241,-135.094,52.382
15:40:45:207,45.659,0.106,0.632,-0.391,-9.397,-132.678,16.158
15:40:45:234,45.686,0.106,0.632,-0.391,-9.397,-132.678,16.158
15:40:45:261,45.714,1.737,-0.472,-2.580,-13.999,-123.198,-6.789
15:40:45:289,45.741,0.509,0.483,-0.051,-16.295,-118.449,12.383
15:40:45:316,45.769,-0.303,0.869,-0.430,-16.276,-119.655,20.136
15:40:45:343,45.795,-0.352,-0.614,0.461,-11.305,-132.584,26.615
15:40:45:371,45.823,-0.352,-0.614,0.461,-11.305,-132.584,26.615
15:40:45:398,45.850,-0.788,-0.001,1.157,-11.950,-133.002,39.294
15:40:45:426,45.878,-0.788,-0.001,1.157,-11.950,-133.002,39.294
15:40:45:452,45.905,-0.788,-0.001,1.157,-11.950,-133.002,39.294
15:40:45:48,45.932,-1.518,-0.547,1.937,-3.418,-138.384,50.593
15:40:45:507,45.959,-1.518,-0.547,1.937,-3.418,-138.384,50.593
15:40:45:534,45.986,-0.952,-0.773,1.266,-0.654,-138.651,53.658
15:40:45:561,46.013,-0.952,-0.773,1.266,-0.654,-138.651,53.658
15:40:45:588,46.040,-0.312,-0.352,0.673,-7.442,-136.566,39.963
15:40:45:615,46.068,-0.312,-0.352,0.673,-7.442,-136.566,39.963
15:40:45:642,46.094,-0.312,-0.352,0.673,-7.442,-136.566,39.963
15:40:45:67,46.123,-0.312,-0.352,0.673,-7.442,-136.566,39.963
15:40:45:698,46.150,-0.711,0.370,0.462,-8.905,-136.683,32.485
15:40:45:724,46.177,1.665,-1.029,-2.570,-13.852,-128.436,-10.175
15:40:45:752,46.204,2.426,-1.083,-1.862,-12.893,-127.232,-8.546
15:40:45:779,46.231,2.426,-1.083,-1.862,-12.893,-127.232,-8.546
15:40:45:805,46.258,2.426,-1.083,-1.862,-12.893,-127.232,-8.546
15:40:45:833,46.285,2.426,-1.083,-1.862,-12.893,-127.232,-8.546
15:40:45:86,46.312,2.426,-1.083,-1.862,-12.893,-127.232,-8.546
15:40:45:887,46.339,2.426,-1.083,-1.862,-12.893,-127.232,-8.546
15:40:45:915,46.367,-3.983,2.134,-0.490,-14.180,-125.624,-0.310
15:40:45:942,46.394,0.654,0.585,-0.250,-14.538,-127.982,10.422
15:40:45:969,46.421,0.654,0.585,-0.250,-14.538,-127.982,10.422
15:40:45:996,46.448,0.654,0.585,-0.250,-14.538,-127.982,10.422
15:40:46:023,46.475,0.729,0.604,-0.338,-14.744,-127.377,12.899
15:40:46:05,46.502,0.729,0.604,-0.338,-14.744,-127.377,12.899
15:40:46:078,46.530,-0.406,0.505,0.804,-9.634,-130.985,20.005
15:40:46:104,46.557,-0.406,0.505,0.804,-9.634,-130.985,20.005
15:40:46:132,46.584,-0.406,0.505,0.804,-9.634,-130.985,20.005
15:40:46:159,46.611,-0.406,0.505,0.804,-9.634,-130.985,20.005
15:40:46:187,46.639,-0.406,0.505,0.804,-9.634,-130.985,20.005
15:40:46:214,46.666,-0.406,0.505,0.804,-9.634,-130.985,20.005
15:40:46:242,46.694,-0.408,-0.009,1.063,-8.358,-133.314,19.555
15:40:46:268,46.721,-0.408,-0.009,1.063,-8.358,-133.314,19.555
15:40:46:296,46.748,-0.408,-0.009,1.063,-8.358,-133.314,19.555
15:40:46:322,46.775,-0.408,-0.009,1.063,-8.358,-133.314,19.555
15:40:46:35,46.802,-0.408,-0.009,1.063,-8.358,-133.314,19.555
15:40:46:378,46.830,-0.408,-0.009,1.063,-8.358,-133.314,19.555
15:40:46:404,46.857,-0.408,-0.009,1.063,-8.358,-133.314,19.555
15:40:46:432,46.884,-0.423,-0.135,0.889,-5.690,-131.789,33.577
15:40:46:458,46.911,-1.215,-0.809,2.030,4.478,-138.573,43.516
15:40:46:486,46.938,-0.588,-0.948,1.270,15.187,-138.893,48.958
15:40:46:512,46.965,-0.588,-0.948,1.270,15.187,-138.893,48.958
15:40:46:54,46.992,0.073,-1.068,1.120,11.506,-132.989,47.110
15:40:46:567,47.019,0.532,-0.182,1.063,0.255,-124.253,35.815
15:40:46:596,47.048,0.532,-0.182,1.063,0.255,-124.253,35.815
15:40:46:623,47.075,0.532,-0.182,1.063,0.255,-124.253,35.815
15:40:46:65,47.103,0.604,1.168,-0.120,-3.292,-118.700,16.722
15:40:46:677,47.129,0.604,1.168,-0.120,-3.292,-118.700,16.722
15:40:46:704,47.157,0.946,-1.434,-2.917,-5.289,-104.121,-14.779
15:40:46:732,47.184,0.422,0.512,-1.097,-6.370,-95.918,6.241
15:40:46:759,47.211,0.422,0.512,-1.097,-6.370,-95.918,6.241
15:40:46:787,47.239,0.422,0.512,-1.097,-6.370,-95.918,6.241
15:40:46:814,47.266,0.422,0.512,-1.097,-6.370,-95.918,6.241
15:40:46:841,47.293,-0.014,0.967,0.488,-3.210,-93.104,16.128
15:40:46:868,47.320,-0.014,0.967,0.488,-3.210,-93.104,16.128
15:40:46:895,47.347,-0.014,0.967,0.488,-3.210,-93.104,16.128
15:40:46:922,47.375,-0.014,0.967,0.488,-3.210,-93.104,16.128
15:40:46:95,47.402,-0.014,0.967,0.488,-3.210,-93.104,16.128
15:40:46:977,47.429,-0.014,0.967,0.488,-3.210,-93.104,16.128
15:40:47:004,47.456,-0.287,-0.181,0.404,1.240,-91.723,19.387
15:40:47:031,47.483,-0.287,-0.181,0.404,1.240,-91.723,19.387
15:40:47:058,47.511,0.472,-0.108,0.830,2.762,-81.164,40.169
15:40:47:085,47.537,0.779,-0.898,0.459,11.433,-78.900,45.774
15:40:47:112,47.565,0.779,-0.898,0.459,11.433,-78.900,45.774
15:40:47:139,47.591,1.028,-0.809,0.306,10.371,-77.314,42.015
15:40:47:167,47.619,1.028,-0.809,0.306,10.371,-77.314,42.015
15:40:47:194,47.646,-0.313,1.306,-1.127,-2.239,-66.434,11.231
15:40:47:221,47.673,-0.313,1.306,-1.127,-2.239,-66.434,11.231
15:40:47:248,47.700,-0.934,0.034,-2.428,-6.593,-59.185,-6.233
15:40:47:275,47.727,-0.859,-0.618,-0.384,-8.145,-44.257,5.061
15:40:47:302,47.755,-0.859,-0.618,-0.384,-8.145,-44.257,5.061
15:40:47:33,47.782,-0.859,-0.618,-0.384,-8.145,-44.257,5.061
15:40:47:357,47.809,-0.859,-0.618,-0.384,-8.145,-44.257,5.061
15:40:47:384,47.837,-0.859,-0.618,-0.384,-8.145,-44.257,5.061
15:40:47:412,47.864,-0.859,-0.618,-0.384,-8.145,-44.257,5.061
15:40:47:438,47.891,0.068,0.127,-0.006,-8.387,-44.660,8.618
15:40:47:466,47.918,-0.211,0.270,0.062,-7.847,-45.155,17.187
15:40:47:493,47.945,0.332,0.663,0.252,-6.201,-45.379,20.723
15:40:47:521,47.973,0.670,0.019,0.234,-3.781,-46.535,24.143
15:40:47:547,48.000,0.686,-0.167,0.740,-2.802,-47.621,25.828
15:40:47:575,48.027,0.686,-0.167,0.740,-2.802,-47.621,25.828
15:40:47:603,48.055,1.247,0.027,0.866,1.059,-48.647,36.846
15:40:47:63,48.083,1.486,-0.077,0.647,3.008,-48.772,41.908
15:40:47:657,48.109,1.486,-0.077,0.647,3.008,-48.772,41.908
15:40:47:685,48.137,1.181,-0.278,-0.072,5.414,-46.001,53.790
15:40:47:712,48.164,0.371,-1.268,0.030,2.661,-40.613,54.476
15:40:47:739,48.192,0.371,-1.268,0.030,2.661,-40.613,54.476
15:40:47:768,48.220,0.371,-1.268,0.030,2.661,-40.613,54.476
15:40:47:795,48.247,0.371,-1.268,0.030,2.661,-40.613,54.476
15:40:47:822,48.274,0.371,-1.268,0.030,2.661,-40.613,54.476
15:40:47:849,48.301,0.371,-1.268,0.030,2.661,-40.613,54.476
15:40:47:877,48.329,0.371,-1.268,0.030,2.661,-40.613,54.476
15:40:47:904,48.356,0.354,-0.917,-0.152,1.278,-39.239,49.865
15:40:47:931,48.383,0.354,-0.917,-0.152,1.278,-39.239,49.865
15:40:47:96,48.412,0.354,-0.917,-0.152,1.278,-39.239,49.865
15:40:47:987,48.440,0.354,-0.917,-0.152,1.278,-39.239,49.865
15:40:48:014,48.466,-2.089,-0.550,-1.166,-6.990,-19.228,-8.614
15:40:48:041,48.494,-1.916,-0.437,-0.742,-7.089,-17.046,-8.147
15:40:48:069,48.521,-1.916,-0.437,-0.742,-7.089,-17.046,-8.147
15:40:48:095,48.548,0.780,0.092,-2.186,-7.193,-13.941,-1.123
15:40:48:123,48.575,0.017,0.148,-0.382,-8.569,-11.205,12.056
15:40:48:15,48.602,0.017,0.148,-0.382,-8.569,-11.205,12.056
15:40:48:177,48.630,0.017,0.148,-0.382,-8.569,-11.205,12.056
15:40:48:204,48.656,0.016,0.467,0.172,-6.977,-10.949,20.084
15:40:48:232,48.684,0.419,0.768,0.172,-5.801,-10.595,21.610
15:40:48:259,48.711,0.419,0.768,0.172,-5.801,-10.595,21.610
15:40:48:286,48.738,0.419,0.768,0.172,-5.801,-10.595,21.610
15:40:48:313,48.765,0.419,0.768,0.172,-5.801,-10.595,21.610
15:40:48:341,48.793,0.419,0.768,0.172,-5.801,-10.595,21.610
15:40:48:368,48.820,0.419,0.768,0.172,-5.801,-10.595,21.610
15:40:48:395,48.847,0.419,0.768,0.172,-5.801,-10.595,21.610
15:40:48:422,48.874,0.419,0.768,0.172,-5.801,-10.595,21.610
15:40:48:449,48.902,0.419,0.768,0.172,-5.801,-10.595,21.610
15:40:48:476,48.928,0.419,0.768,0.172,-5.801,-10.595,21.610
15:40:48:504,48.956,0.419,0.768,0.172,-5.801,-10.595,21.610
15:40:48:532,48.984,0.419,0.768,0.172,-5.801,-10.595,21.610
15:40:48:56,49.012,0.419,0.768,0.172,-5.801,-10.595,21.610
15:40:48:587,49.039,0.419,0.768,0.172,-5.801,-10.595,21.610
15:40:48:614,49.066,0.790,0.185,0.050,-4.442,-10.949,23.332
15:40:48:64,49.093,0.552,-0.201,0.725,-2.707,-12.401,25.859
15:40:48:668,49.120,1.228,-0.101,-0.815,-3.739,-2.768,47.215
15:40:48:695,49.147,0.659,-0.856,-0.931,8.132,0.554,45.680
15:40:48:722,49.174,0.544,-0.434,-1.037,4.515,3.250,37.099
15:40:48:749,49.201,0.362,0.450,-1.133,0.284,6.899,26.882
15:40:48:776,49.228,-2.778,-0.140,0.657,-7.237,20.379,-7.288
15:40:48:804,49.256,2.139,2.605,1.491,-7.537,31.209,0.320
15:40:48:831,49.283,-1.041,-2.138,0.305,-8.065,32.280,4.239
15:40:48:859,49.311,-0.591,0.478,0.361,-9.092,32.920,11.124
15:40:48:886,49.339,-0.591,0.478,0.361,-9.092,32.920,11.124
15:40:48:913,49.366,-0.591,0.478,0.361,-9.092,32.920,11.124
15:40:48:941,49.393,0.606,0.754,-0.207,-6.903,33.876,20.296
15:40:48:967,49.420,0.606,0.754,-0.207,-6.903,33.876,20.296
15:40:48:995,49.447,0.606,0.754,-0.207,-6.903,33.876,20.296
15:40:49:022,49.474,0.606,0.754,-0.207,-6.903,33.876,20.296
15:40:49:049,49.502,0.606,0.754,-0.207,-6.903,33.876,20.296
15:40:49:076,49.528,0.606,0.754,-0.207,-6.903,33.876,20.296
15:40:49:103,49.556,0.606,0.754,-0.207,-6.903,33.876,20.296
15:40:49:131,49.583,0.606,0.754,-0.207,-6.903,33.876,20.296
15:40:49:158,49.611,0.566,0.232,-0.450,-6.283,33.646,21.292
15:40:49:186,49.638,0.566,0.232,-0.450,-6.283,33.646,21.292
15:40:49:214,49.666,0.566,0.232,-0.450,-6.283,33.646,21.292
15:40:49:241,49.693,0.566,0.232,-0.450,-6.283,33.646,21.292
15:40:49:268,49.720,0.566,0.232,-0.450,-6.283,33.646,21.292
15:40:49:295,49.748,0.566,0.232,-0.450,-6.283,33.646,21.292
15:40:49:322,49.774,0.566,0.232,-0.450,-6.283,33.646,21.292
15:40:49:349,49.802,0.566,0.232,-0.450,-6.283,33.646,21.292
15:40:49:376,49.828,0.566,0.232,-0.450,-6.283,33.646,21.292
15:40:49:404,49.856,0.566,0.232,-0.450,-6.283,33.646,21.292
15:40:49:43,49.883,0.566,0.232,-0.450,-6.283,33.646,21.292
15:40:49:458,49.910,0.671,-0.163,-0.263,-5.337,35.801,31.609
15:40:49:484,49.937,0.671,-0.163,-0.263,-5.337,35.801,31.609
15:40:49:512,49.964,0.671,-0.163,-0.263,-5.337,35.801,31.609
15:40:49:539,49.991,0.671,-0.163,-0.263,-5.337,35.801,31.609
15:40:49:566,50.018,0.735,-0.032,-0.881,-6.334,38.106,39.106
15:40:49:593,50.045,1.303,-0.905,-2.175,-3.267,35.855,50.712
15:40:49:62,50.072,0.330,-0.454,-1.131,1.875,31.333,44.082
15:40:49:647,50.099,0.330,-0.454,-1.131,1.875,31.333,44.082
15:40:49:675,50.127,0.330,-0.454,-1.131,1.875,31.333,44.082
15:40:49:702,50.154,0.330,-0.454,-1.131,1.875,31.333,44.082
15:40:49:729,50.181,0.330,-0.454,-1.131,1.875,31.333,44.082
15:40:49:756,50.208,0.281,0.004,-1.009,-3.591,33.120,35.078
15:40:49:783,50.235,0.281,0.004,-1.009,-3.591,33.120,35.078
15:40:49:81,50.262,0.097,0.769,-0.542,-6.668,34.787,27.984
15:40:49:837,50.289,0.097,0.769,-0.542,-6.668,34.787,27.984
15:40:49:864,50.317,0.097,0.769,-0.542,-6.668,34.787,27.984
15:40:49:891,50.343,0.097,0.769,-0.542,-6.668,34.787,27.984
15:40:49:919,50.371,0.097,0.769,-0.542,-6.668,34.787,27.984
15:40:49:946,50.398,0.097,0.769,-0.542,-6.668,34.787,27.984
15:40:49:973,50.425,0.097,0.769,-0.542,-6.668,34.787,27.984
15:40:50:,50.453,0.097,0.769,-0.542,-6.668,34.787,27.984
15:40:50:027,50.480,0.097,0.769,-0.542,-6.668,34.787,27.984
15:40:50:055,50.507,0.097,0.769,-0.542,-6.668,34.787,27.984
15:40:50:082,50.534,0.097,0.769,-0.542,-6.668,34.787,27.984
15:40:50:109,50.561,0.097,0.769,-0.542,-6.668,34.787,27.984
15:40:50:136,50.589,0.097,0.769,-0.542,-6.668,34.787,27.984
15:40:50:163,50.615,0.097,0.769,-0.542,-6.668,34.787,27.984
15:40:50:191,50.643,0.097,0.769,-0.542,-6.668,34.787,27.984
15:40:50:218,50.670,-2.029,0.240,1.927,-12.612,40.000,-0.421
15:40:50:245,50.698,-0.814,-1.587,-0.405,-14.838,55.010,3.341
15:40:50:272,50.724,-0.814,-1.587,-0.405,-14.838,55.010,3.341
15:40:50:299,50.752,0.075,0.784,0.016,-15.578,55.640,20.013
15:40:50:326,50.779,0.075,0.784,0.016,-15.578,55.640,20.013
15:40:50:353,50.805,0.075,0.784,0.016,-15.578,55.640,20.013
15:40:50:381,50.833,0.075,0.784,0.016,-15.578,55.640,20.013
15:40:50:408,50.860,0.381,0.012,-0.958,-14.705,52.343,22.300
15:40:50:436,50.888,0.381,0.012,-0.958,-14.705,52.343,22.300
15:40:50:462,50.915,0.381,0.012,-0.958,-14.705,52.343,22.300
15:40:50:489,50.942,0.381,0.012,-0.958,-14.705,52.343,22.300
15:40:50:517,50.969,0.681,-0.039,-0.433,-14.349,48.981,30.393
15:40:50:543,50.996,0.681,-0.039,-0.433,-14.349,48.981,30.393
15:40:50:571,51.023,0.681,-0.039,-0.433,-14.349,48.981,30.393
15:40:50:598,51.050,1.073,-0.867,-2.023,-11.154,45.484,50.676
15:40:50:625,51.077,1.073,-0.867,-2.023,-11.154,45.484,50.676
15:40:50:653,51.106,1.073,-0.867,-2.023,-11.154,45.484,50.676
15:40:50:68,51.132,1.160,-0.876,-1.694,-2.266,42.568,55.074
15:40:50:708,51.160,-0.496,0.534,0.174,-12.503,61.369,16.901
15:40:50:735,51.187,-0.496,0.534,0.174,-12.503,61.369,16.901
15:40:50:763,51.215,-0.496,0.534,0.174,-12.503,61.369,16.901
15:40:50:79,51.242,-0.496,0.534,0.174,-12.503,61.369,16.901
15:40:50:817,51.269,-0.496,0.534,0.174,-12.503,61.369,16.901
15:40:50:844,51.296,-0.496,0.534,0.174,-12.503,61.369,16.901
15:40:50:871,51.323,0.531,0.705,-0.658,-10.504,62.299,24.864
15:40:50:898,51.350,0.521,-0.329,-0.412,-8.197,56.909,28.925
15:40:50:926,51.378,0.521,-0.329,-0.412,-8.197,56.909,28.925
15:40:50:953,51.405,0.521,-0.329,-0.412,-8.197,56.909,28.925
15:40:50:98,51.433,0.521,-0.329,-0.412,-8.197,56.909,28.925
15:40:51:008,51.460,0.365,-0.496,-0.825,-2.120,52.779,42.265
15:40:51:035,51.487,-1.670,-0.034,2.699,-10.696,65.148,-3.756
15:40:51:063,51.515,-1.670,-0.034,2.699,-10.696,65.148,-3.756
15:40:51:09,51.542,0.404,0.146,-0.142,-11.584,75.609,14.947
15:40:51:118,51.570,0.297,0.626,-0.665,-8.599,73.524,22.822
15:40:51:145,51.598,0.297,0.626,-0.665,-8.599,73.524,22.822
15:40:51:173,51.625,0.297,0.626,-0.665,-8.599,73.524,22.822
15:40:51:2,51.652,0.383,0.250,-0.774,-7.651,72.433,23.910
15:40:51:227,51.680,0.383,0.250,-0.774,-7.651,72.433,23.910
15:40:51:255,51.707,0.383,0.250,-0.774,-7.651,72.433,23.910
15:40:51:282,51.734,1.292,-0.143,-0.730,-5.458,69.133,27.338
15:40:51:31,51.762,1.292,-0.143,-0.730,-5.458,69.133,27.338
15:40:51:336,51.789,1.292,-0.143,-0.730,-5.458,69.133,27.338
15:40:51:364,51.816,1.292,-0.143,-0.730,-5.458,69.133,27.338
15:40:51:391,51.843,1.292,-0.143,-0.730,-5.458,69.133,27.338
15:40:51:418,51.870,-0.690,0.329,-2.152,-8.162,77.600,50.062
15:40:51:446,51.898,-0.690,0.329,-2.152,-8.162,77.600,50.062
15:40:51:473,51.925,-0.690,0.329,-2.152,-8.162,77.600,50.062
15:40:51:5,51.952,-0.690,0.329,-2.152,-8.162,77.600,50.062
15:40:51:527,51.980,-0.690,0.329,-2.152,-8.162,77.600,50.062
15:40:51:554,52.006,-0.690,0.329,-2.152,-8.162,77.600,50.062
15:40:51:581,52.034,-0.796,-1.272,-0.681,7.488,82.844,49.185
15:40:51:608,52.060,-0.172,1.070,0.653,-3.359,93.062,16.195
15:40:51:636,52.088,-0.172,1.070,0.653,-3.359,93.062,16.195
15:40:51:663,52.115,-0.172,1.070,0.653,-3.359,93.062,16.195
15:40:51:69,52.142,-0.172,1.070,0.653,-3.359,93.062,16.195
15:40:51:718,52.170,-0.175,0.708,2.654,-5.173,96.986,-1.281
15:40:51:745,52.197,-0.175,0.708,2.654,-5.173,96.986,-1.281
15:40:51:772,52.224,-0.175,0.708,2.654,-5.173,96.986,-1.281
15:40:51:799,52.251,-0.175,0.708,2.654,-5.173,96.986,-1.281
15:40:51:826,52.279,-0.175,0.708,2.654,-5.173,96.986,-1.281
15:40:51:853,52.306,-0.175,0.708,2.654,-5.173,96.986,-1.281
15:40:51:881,52.333,-0.175,0.708,2.654,-5.173,96.986,-1.281
15:40:51:908,52.361,-0.175,0.708,2.654,-5.173,96.986,-1.281
15:40:51:935,52.387,-0.339,-3.475,1.964,-5.896,116.630,5.669
15:40:51:962,52.415,-0.339,-3.475,1.964,-5.896,116.630,5.669
15:40:51:989,52.441,-0.339,-3.475,1.964,-5.896,116.630,5.669
15:40:52:017,52.469,0.128,0.584,-0.157,-6.653,118.114,19.462
15:40:52:044,52.496,0.128,0.584,-0.157,-6.653,118.114,19.462
15:40:52:071,52.523,0.128,0.584,-0.157,-6.653,118.114,19.462
15:40:52:098,52.551,0.128,0.584,-0.157,-6.653,118.114,19.462
15:40:52:125,52.577,0.128,0.584,-0.157,-6.653,118.114,19.462
15:40:52:152,52.605,-0.162,0.808,-0.476,-5.611,118.677,21.504
15:40:52:18,52.632,-0.162,0.808,-0.476,-5.611,118.677,21.504
15:40:52:207,52.659,-0.162,0.808,-0.476,-5.611,118.677,21.504
15:40:52:234,52.686,-0.162,0.808,-0.476,-5.611,118.677,21.504
15:40:52:262,52.714,-0.162,0.808,-0.476,-5.611,118.677,21.504
15:40:52:289,52.741,-0.162,0.808,-0.476,-5.611,118.677,21.504
15:40:52:317,52.769,-0.162,0.808,-0.476,-5.611,118.677,21.504
15:40:52:344,52.796,-0.162,0.808,-0.476,-5.611,118.677,21.504
15:40:52:371,52.823,-0.183,-0.348,-0.923,-2.357,119.032,27.130
15:40:52:398,52.850,-0.183,-0.348,-0.923,-2.357,119.032,27.130
15:40:52:425,52.877,-0.183,-0.348,-0.923,-2.357,119.032,27.130
15:40:52:452,52.905,-1.509,-0.194,-0.697,0.057,125.371,50.015
15:40:52:48,52.932,-1.509,-0.194,-0.697,0.057,125.371,50.015
15:40:52:507,52.959,-1.509,-0.194,-0.697,0.057,125.371,50.015
15:40:52:534,52.987,-0.795,-1.279,-0.260,4.317,127.424,57.949
15:40:52:562,53.014,-0.795,-1.279,-0.260,4.317,127.424,57.949
15:40:52:589,53.041,-0.795,-1.279,-0.260,4.317,127.424,57.949
15:40:52:617,53.069,-0.795,-1.279,-0.260,4.317,127.424,57.949
15:40:52:643,53.096,-0.795,-1.279,-0.260,4.317,127.424,57.949
15:40:52:671,53.123,-0.795,-1.279,-0.260,4.317,127.424,57.949
15:40:52:697,53.150,-0.795,-1.279,-0.260,4.317,127.424,57.949
15:40:52:725,53.177,-0.795,-1.279,-0.260,4.317,127.424,57.949
15:40:52:752,53.204,-0.795,-1.279,-0.260,4.317,127.424,57.949
15:40:52:779,53.232,-0.795,-1.279,-0.260,4.317,127.424,57.949
15:40:52:806,53.258,-0.675,0.144,0.082,-5.396,131.661,30.278
15:40:52:833,53.286,-0.675,0.144,0.082,-5.396,131.661,30.278
15:40:52:86,53.312,-0.675,0.144,0.082,-5.396,131.661,30.278
15:40:52:887,53.339,2.607,-0.074,2.067,-13.076,141.139,-5.163
15:40:52:915,53.367,0.299,0.323,0.470,-14.288,152.869,13.192
15:40:52:942,53.394,-0.437,0.613,-0.290,-12.819,151.460,22.894
15:40:52:969,53.421,-0.867,0.068,-0.434,-11.832,149.119,25.235
15:40:52:996,53.448,-0.788,0.028,-1.269,-10.206,146.509,29.981
15:40:53:023,53.475,-0.788,0.028,-1.269,-10.206,146.509,29.981
15:40:53:05,53.502,1.782,1.320,0.273,-8.056,162.059,4.602
15:40:53:077,53.529,1.782,1.320,0.273,-8.056,162.059,4.602
15:40:53:104,53.557,3.642,-0.161,4.061,-4.404,177.208,-7.372
15:40:53:132,53.584,3.642,-0.161,4.061,-4.404,177.208,-7.372
