Time,Second,AccelerationX,AccelerationY,AccelerationZ,EulerAnglesX,EulerAnglesY,EulerAnglesZ
15:39:59:553,0.000,-0.015,0.002,0.006,-17.391,39.431,1.721
15:39:59:58,0.027,-0.007,0.000,-0.009,-17.394,39.367,1.802
15:39:59:607,0.054,-0.004,-0.006,-0.012,-17.393,39.328,1.849
15:39:59:634,0.081,-0.020,-0.004,0.000,-17.405,39.295,1.935
15:39:59:661,0.108,0.001,-0.001,-0.004,-17.404,39.169,2.052
15:39:59:688,0.135,0.001,-0.001,-0.004,-17.404,39.169,2.052
15:39:59:715,0.163,0.001,-0.001,-0.004,-17.404,39.169,2.052
15:39:59:743,0.190,-0.020,-0.008,-0.005,-17.419,38.896,2.224
15:39:59:77,0.217,0.017,0.006,-0.025,-17.441,38.823,2.265
15:39:59:797,0.244,-0.005,0.006,-0.014,-17.486,38.778,2.328
15:39:59:825,0.272,-0.010,-0.003,-0.007,-17.530,38.763,2.397
15:39:59:852,0.299,-0.015,0.006,-0.008,-17.553,38.788,2.439
15:39:59:879,0.326,-0.003,0.008,0.011,-17.559,38.829,2.489
15:39:59:906,0.353,-0.003,-0.006,-0.009,-17.571,38.869,2.526
15:39:59:933,0.380,-0.001,-0.014,-0.002,-17.575,38.903,2.572
15:39:59:961,0.408,-0.015,0.002,-0.009,-17.579,38.952,2.595
15:39:59:988,0.435,-0.004,-0.004,-0.002,-17.584,39.018,2.635
15:40:00:015,0.462,-0.007,-0.006,-0.006,-17.582,39.083,2.689
15:40:00:042,0.489,-0.009,0.006,-0.002,-17.589,39.120,2.723
15:40:00:07,0.517,-0.010,-0.007,-0.010,-17.590,39.169,2.772
15:40:00:097,0.545,-0.007,-0.012,-0.001,-17.597,39.216,2.805
15:40:00:125,0.572,-0.004,-0.002,0.003,-17.597,39.271,2.849
15:40:00:152,0.599,-0.002,0.001,0.002,-17.608,39.265,2.889
15:40:00:179,0.626,-0.024,0.006,0.000,-17.618,39.225,2.918
15:40:00:206,0.653,-0.010,-0.011,0.001,-17.615,39.150,2.940
15:40:00:233,0.680,-0.017,0.002,0.000,-17.609,39.097,2.950
15:40:00:26,0.707,-0.005,0.003,-0.007,-17.618,38.993,2.953
15:40:00:288,0.735,-0.024,-0.002,-0.003,-17.626,38.885,2.951
15:40:00:316,0.763,-0.007,-0.008,0.003,-17.636,38.801,2.951
15:40:00:343,0.790,-0.011,-0.002,-0.013,-17.666,38.668,2.942
15:40:00:37,0.818,-0.021,-0.002,-0.014,-17.670,38.571,2.940
15:40:00:398,0.845,0.003,-0.003,0.003,-17.614,38.344,2.962
15:40:00:425,0.873,-0.034,0.014,0.003,-17.530,38.027,3.009
15:40:00:452,0.900,-0.044,0.005,0.007,-17.401,37.786,3.050
15:40:00:479,0.926,-0.054,0.045,-0.034,-17.360,37.662,3.021
15:40:00:507,0.955,-0.054,0.045,-0.034,-17.360,37.662,3.021
15:40:00:535,0.982,-0.004,-0.005,-0.007,-17.370,37.676,2.996
15:40:00:562,1.009,-0.069,0.025,0.025,-17.497,37.836,3.009
15:40:00:589,1.036,-0.040,0.006,0.002,-17.554,37.965,2.940
15:40:00:617,1.064,-0.013,0.012,-0.017,-17.600,38.159,2.817
15:40:00:644,1.092,0.004,-0.011,0.010,-17.615,38.320,2.717
15:40:00:671,1.119,0.004,-0.011,0.010,-17.615,38.320,2.717
15:40:00:699,1.147,-0.008,-0.013,-0.007,-17.617,38.443,2.584
15:40:00:727,1.174,0.009,-0.004,-0.009,-17.601,38.453,2.539
15:40:00:754,1.202,-0.008,-0.013,-0.004,-17.562,38.438,2.474
15:40:00:782,1.230,-0.006,-0.016,-0.015,-17.566,38.441,2.451
15:40:00:81,1.257,-0.003,-0.013,-0.006,-17.576,38.441,2.449
15:40:00:836,1.284,-0.016,0.001,-0.003,-17.573,38.428,2.462
15:40:00:864,1.311,-0.026,0.001,0.000,-17.580,38.396,2.475
15:40:00:891,1.338,-0.013,0.001,-0.012,-17.579,38.344,2.483
15:40:00:918,1.365,-0.009,-0.007,-0.006,-17.553,38.343,2.480
15:40:00:945,1.392,-0.009,-0.007,-0.006,-17.553,38.343,2.480
15:40:00:972,1.419,0.026,0.006,-0.018,-17.503,38.305,2.420
15:40:00:999,1.446,-0.004,-0.009,-0.009,-17.483,38.289,2.386
15:40:01:027,1.474,-0.004,-0.009,-0.009,-17.483,38.289,2.386
15:40:01:054,1.501,-0.003,-0.012,-0.001,-17.492,38.349,2.406
15:40:01:081,1.529,-0.009,-0.006,-0.009,-17.498,38.350,2.430
15:40:01:109,1.556,0.010,0.007,-0.013,-17.534,38.374,2.443
15:40:01:137,1.584,0.000,-0.013,0.001,-17.548,38.459,2.474
15:40:01:164,1.611,-0.021,-0.001,-0.005,-17.581,38.539,2.521
15:40:01:191,1.638,-0.011,-0.008,-0.009,-17.654,38.603,2.587
15:40:01:218,1.665,-0.027,-0.002,-0.002,-17.694,38.642,2.612
15:40:01:245,1.693,-0.004,0.000,-0.002,-17.701,38.657,2.614
15:40:01:272,1.719,-0.008,-0.005,-0.015,-17.731,38.660,2.631
15:40:01:3,1.747,-0.009,-0.013,-0.002,-17.753,38.652,2.653
15:40:01:327,1.775,-0.014,-0.007,0.003,-17.762,38.666,2.664
15:40:01:355,1.802,-0.009,0.002,-0.004,-17.771,38.656,2.664
15:40:01:382,1.829,0.004,0.010,-0.019,-17.771,38.662,2.647
15:40:01:41,1.857,-0.002,-0.006,0.006,-17.767,38.674,2.646
15:40:01:437,1.884,-0.007,-0.006,-0.008,-17.767,38.664,2.648
15:40:01:464,1.912,0.000,-0.010,-0.012,-17.770,38.648,2.644
15:40:01:491,1.939,-0.004,-0.012,-0.003,-17.781,38.643,2.647
15:40:01:519,1.966,-0.013,0.007,-0.003,-17.792,38.637,2.651
15:40:01:545,1.993,-0.006,0.000,-0.017,-17.824,38.620,2.661
15:40:01:573,2.020,-0.010,-0.013,-0.004,-17.863,38.647,2.663
15:40:01:6,2.047,-0.008,-0.007,0.000,-17.880,38.667,2.665
15:40:01:628,2.075,-0.008,-0.007,0.000,-17.880,38.667,2.665
15:40:01:655,2.102,-0.008,-0.007,0.000,-17.880,38.667,2.665
15:40:01:682,2.129,0.007,-0.012,-0.013,-17.927,38.644,2.616
15:40:01:71,2.157,-0.012,-0.015,0.004,-18.000,38.711,2.598
15:40:01:737,2.184,-0.012,-0.015,0.004,-18.000,38.711,2.598
15:40:01:764,2.211,-0.007,0.003,-0.016,-18.015,38.678,2.547
15:40:01:791,2.239,0.002,-0.012,-0.013,-18.025,38.682,2.549
15:40:01:819,2.266,-0.005,-0.008,-0.002,-18.036,38.680,2.567
15:40:01:846,2.293,-0.010,0.000,-0.006,-18.037,38.674,2.573
15:40:01:874,2.321,-0.004,-0.009,-0.012,-18.044,38.623,2.595
15:40:01:901,2.348,-0.009,-0.008,-0.004,-18.048,38.602,2.597
15:40:01:928,2.375,-0.006,-0.010,0.000,-18.054,38.589,2.618
15:40:01:955,2.403,-0.042,0.042,-0.033,-18.067,38.533,2.644
15:40:01:982,2.429,-0.015,-0.010,0.012,-18.038,38.497,2.641
15:40:02:009,2.457,-0.004,0.003,-0.009,-18.036,38.454,2.659
15:40:02:037,2.484,0.006,-0.009,-0.014,-18.041,38.423,2.663
15:40:02:064,2.511,-0.022,0.015,-0.003,-18.057,38.410,2.671
15:40:02:091,2.538,-0.003,-0.006,-0.003,-18.067,38.362,2.681
15:40:02:118,2.566,-0.001,-0.009,-0.018,-18.083,38.330,2.692
15:40:02:146,2.593,-0.007,-0.009,-0.009,-18.098,38.303,2.698
15:40:02:172,2.620,-0.015,0.004,0.002,-18.105,38.299,2.702
15:40:02:2,2.648,-0.004,-0.007,-0.006,-18.105,38.280,2.710
15:40:02:227,2.674,-0.011,-0.003,-0.013,-18.117,38.259,2.721
15:40:02:254,2.702,-0.007,-0.014,-0.003,-18.130,38.255,2.749
15:40:02:281,2.728,0.023,0.022,-0.001,-18.145,38.242,2.768
15:40:02:308,2.756,-0.001,-0.018,0.004,-18.127,38.242,2.762
15:40:02:336,2.783,-0.001,-0.018,0.004,-18.127,38.242,2.762
15:40:02:364,2.811,-0.011,0.001,-0.007,-18.186,38.295,2.797
15:40:02:391,2.838,-0.006,-0.008,-0.007,-18.183,38.397,2.777
15:40:02:418,2.865,-0.006,-0.008,-0.007,-18.183,38.397,2.777
15:40:02:445,2.893,-0.005,-0.012,-0.001,-18.191,38.483,2.751
15:40:02:473,2.920,-0.004,0.001,0.001,-18.192,38.526,2.744
15:40:02:499,2.947,-0.004,-0.007,0.000,-18.187,38.553,2.736
15:40:02:527,2.974,-0.002,-0.011,-0.009,-18.186,38.563,2.734
15:40:02:554,3.001,-0.004,-0.007,-0.013,-18.190,38.559,2.765
15:40:02:581,3.029,-0.005,0.000,-0.008,-18.198,38.562,2.815
15:40:02:609,3.056,-0.005,0.000,-0.008,-18.198,38.562,2.815
15:40:02:636,3.083,-0.001,-0.007,-0.006,-18.236,38.524,2.925
15:40:02:663,3.110,-0.013,0.007,-0.015,-18.263,38.520,2.987
15:40:02:69,3.138,-0.029,0.013,0.000,-18.305,38.514,3.066
15:40:02:717,3.164,-0.016,-0.006,0.000,-18.296,38.507,3.111
15:40:02:744,3.192,-0.010,-0.007,-0.003,-18.296,38.482,3.135
15:40:02:771,3.219,-0.005,-0.002,-0.021,-18.301,38.427,3.152
15:40:02:799,3.246,-0.007,-0.008,-0.008,-18.295,38.405,3.168
15:40:02:826,3.273,-0.001,-0.015,-0.005,-18.299,38.387,3.211
15:40:02:853,3.300,-0.003,0.000,-0.019,-18.309,38.389,3.245
15:40:02:88,3.328,-0.013,0.010,-0.008,-18.326,38.373,3.311
15:40:02:908,3.355,-0.013,0.010,-0.008,-18.326,38.373,3.311
15:40:02:935,3.383,-0.009,0.003,-0.018,-18.322,38.376,3.389
15:40:02:963,3.410,-0.006,-0.001,0.003,-18.318,38.381,3.431
15:40:02:99,3.437,-0.019,0.002,-0.001,-18.312,38.397,3.461
15:40:03:017,3.464,0.003,-0.006,0.004,-18.301,38.398,3.479
15:40:03:044,3.491,-0.006,0.008,-0.023,-18.284,38.396,3.494
15:40:03:071,3.519,-0.006,-0.012,-0.014,-18.296,38.398,3.517
15:40:03:099,3.546,-0.001,-0.018,0.001,-18.278,38.376,3.587
15:40:03:126,3.573,-0.001,-0.018,0.001,-18.278,38.376,3.587
15:40:03:153,3.600,-0.003,-0.007,-0.026,-18.278,38.315,3.586
15:40:03:18,3.627,-0.012,0.006,0.004,-18.274,38.288,3.597
15:40:03:208,3.655,-0.012,0.006,0.004,-18.274,38.288,3.597
15:40:03:235,3.683,-0.007,0.006,-0.023,-18.310,38.159,3.628
15:40:03:263,3.710,-0.009,-0.002,-0.019,-18.328,38.120,3.635
15:40:03:29,3.737,-0.009,-0.002,-0.019,-18.328,38.120,3.635
15:40:03:317,3.764,-0.009,-0.002,-0.019,-18.328,38.120,3.635
15:40:03:344,3.791,-0.004,-0.007,-0.016,-18.260,38.138,3.623
15:40:03:371,3.818,-0.004,-0.007,-0.016,-18.260,38.138,3.623
15:40:03:398,3.845,-0.008,-0.003,0.001,-18.174,38.139,3.551
15:40:03:425,3.872,-0.014,0.001,0.010,-18.146,38.141,3.526
15:40:03:452,3.900,-0.013,0.005,-0.010,-18.093,38.129,3.468
15:40:03:48,3.927,-0.011,-0.002,-0.013,-18.048,38.136,3.415
15:40:03:507,3.955,-0.008,-0.002,-0.017,-18.027,38.162,3.386
15:40:03:534,3.982,-0.015,0.002,-0.005,-17.998,38.208,3.344
15:40:03:562,4.009,-0.015,0.002,0.008,-17.974,38.236,3.304
15:40:03:589,4.036,-0.004,-0.015,-0.003,-17.938,38.271,3.240
15:40:03:616,4.063,-0.002,-0.007,-0.002,-17.931,38.296,3.207
15:40:03:643,4.090,-0.006,-0.006,-0.005,-17.934,38.292,3.165
15:40:03:67,4.118,-0.001,-0.008,0.000,-17.936,38.297,3.133
15:40:03:697,4.144,-0.025,0.017,-0.007,-17.941,38.300,3.111
15:40:03:724,4.172,0.005,-0.014,0.013,-17.918,38.342,3.074
15:40:03:751,4.199,-0.001,-0.002,-0.006,-17.921,38.341,3.047
15:40:03:779,4.226,-0.006,0.003,-0.012,-17.923,38.346,3.015
15:40:03:805,4.253,-0.001,-0.004,-0.002,-17.932,38.416,2.935
15:40:03:832,4.280,-0.007,-0.004,-0.013,-17.938,38.444,2.877
15:40:03:86,4.307,-0.010,-0.005,-0.004,-17.944,38.480,2.849
15:40:03:887,4.334,0.003,0.004,-0.006,-17.952,38.535,2.792
15:40:03:914,4.362,0.003,0.004,-0.006,-17.952,38.535,2.792
15:40:03:941,4.388,0.003,0.004,-0.006,-17.952,38.535,2.792
15:40:03:969,4.416,-0.007,-0.003,-0.001,-17.959,38.571,2.728
15:40:03:996,4.443,-0.007,-0.003,-0.001,-17.959,38.571,2.728
15:40:04:023,4.470,-0.010,0.000,0.007,-17.976,38.584,2.675
15:40:04:05,4.498,-0.010,0.000,0.007,-17.976,38.584,2.675
15:40:04:078,4.525,-0.007,-0.004,-0.006,-17.981,38.595,2.672
15:40:04:106,4.553,0.000,-0.007,-0.006,-17.990,38.592,2.629
15:40:04:134,4.581,-0.007,-0.003,-0.010,-17.997,38.594,2.616
15:40:04:161,4.608,-0.007,-0.003,-0.011,-18.007,38.594,2.614
15:40:04:188,4.636,-0.006,-0.007,-0.004,-18.005,38.600,2.608
15:40:04:216,4.663,-0.014,0.003,-0.009,-18.012,38.606,2.611
15:40:04:242,4.690,-0.003,-0.001,-0.001,-18.023,38.600,2.614
15:40:04:27,4.717,-0.010,0.003,-0.011,-18.023,38.600,2.614
15:40:04:297,4.744,-0.008,-0.002,-0.010,-18.032,38.610,2.610
15:40:04:324,4.771,-0.008,-0.005,-0.006,-18.027,38.617,2.605
15:40:04:351,4.798,-0.008,-0.005,-0.006,-18.027,38.617,2.605
15:40:04:378,4.825,-0.009,-0.001,-0.016,-18.033,38.594,2.617
15:40:04:405,4.853,-0.014,0.002,-0.005,-18.033,38.594,2.617
15:40:04:432,4.879,-0.009,-0.008,-0.010,-18.028,38.587,2.636
15:40:04:459,4.907,-0.007,-0.009,-0.001,-18.031,38.593,2.665
15:40:04:486,4.934,-0.013,0.000,-0.011,-18.032,38.583,2.692
15:40:04:514,4.961,-0.011,-0.010,-0.008,-18.030,38.567,2.726
15:40:04:541,4.988,0.000,0.001,-0.003,-18.028,38.562,2.759
15:40:04:568,5.015,-0.003,-0.008,-0.003,-18.030,38.546,2.791
15:40:04:595,5.043,-0.018,-0.004,-0.002,-18.031,38.548,2.828
15:40:04:622,5.069,-0.004,-0.011,-0.004,-18.032,38.534,2.840
15:40:04:65,5.097,-0.001,-0.006,-0.002,-18.019,38.458,2.865
15:40:04:678,5.125,-0.001,-0.006,-0.002,-18.019,38.458,2.865
15:40:04:705,5.152,-0.012,-0.004,0.006,-18.015,38.333,2.901
15:40:04:732,5.179,-0.010,-0.002,-0.012,-18.011,38.296,2.913
15:40:04:759,5.206,-0.020,-0.005,0.001,-18.013,38.242,2.931
15:40:04:786,5.233,-0.020,-0.005,0.001,-18.013,38.242,2.931
15:40:04:814,5.261,-0.008,-0.006,-0.010,-18.026,38.120,2.951
15:40:04:84,5.288,-0.001,-0.004,-0.008,-18.052,38.050,2.971
15:40:04:868,5.315,-0.004,-0.008,-0.003,-18.064,38.000,2.991
15:40:04:895,5.342,-0.009,-0.006,-0.011,-18.088,37.944,3.015
15:40:04:922,5.369,-0.012,-0.003,-0.010,-18.106,37.924,3.050
15:40:04:949,5.396,-0.015,0.002,-0.006,-18.113,37.909,3.081
15:40:04:976,5.424,-0.013,-0.004,-0.004,-18.110,37.890,3.111
15:40:05:003,5.450,-0.009,-0.004,-0.011,-18.128,37.871,3.125
15:40:05:031,5.478,-0.010,-0.003,-0.014,-18.130,37.873,3.150
15:40:05:058,5.505,-0.008,0.000,-0.004,-18.151,37.875,3.171
15:40:05:085,5.532,-0.018,0.009,-0.015,-18.169,37.865,3.204
15:40:05:112,5.559,-0.009,-0.013,-0.002,-18.172,37.861,3.235
15:40:05:139,5.587,-0.017,-0.004,-0.010,-18.178,37.865,3.275
15:40:05:168,5.616,-0.012,0.004,0.002,-18.174,37.862,3.297
15:40:05:195,5.642,-0.006,-0.006,-0.009,-18.164,37.862,3.300
15:40:05:222,5.670,-0.009,-0.007,-0.006,-18.161,37.863,3.326
15:40:05:25,5.697,-0.009,-0.005,-0.009,-18.164,37.865,3.340
15:40:05:276,5.724,-0.006,-0.006,-0.006,-18.168,37.861,3.371
15:40:05:304,5.751,-0.011,0.000,-0.005,-18.164,37.872,3.396
15:40:05:332,5.779,-0.010,-0.006,-0.007,-18.168,37.858,3.454
15:40:05:359,5.806,-0.019,-0.003,-0.003,-18.163,37.840,3.474
15:40:05:386,5.833,-0.019,-0.003,-0.003,-18.163,37.840,3.474
15:40:05:413,5.860,-0.013,-0.002,-0.016,-18.176,37.746,3.511
15:40:05:44,5.887,-0.015,-0.001,-0.007,-18.176,37.698,3.524
15:40:05:468,5.915,-0.010,0.000,0.004,-18.146,37.644,3.503
15:40:05:495,5.942,0.007,-0.007,-0.018,-18.139,37.611,3.484
15:40:05:524,5.971,0.006,0.003,-0.030,-18.146,37.623,3.470
15:40:05:55,5.998,-0.004,0.001,-0.022,-18.153,37.684,3.480
15:40:05:578,6.025,-0.015,0.000,0.004,-18.159,37.836,3.522
15:40:05:604,6.052,-0.016,-0.001,-0.007,-18.166,37.943,3.577
15:40:05:632,6.079,-0.010,-0.002,-0.020,-18.179,38.011,3.605
15:40:05:659,6.106,-0.019,0.000,-0.016,-18.170,38.122,3.658
15:40:05:687,6.134,-0.015,0.001,0.004,-18.159,38.193,3.696
15:40:05:714,6.162,-0.012,-0.008,-0.010,-18.137,38.269,3.742
15:40:05:742,6.189,-0.013,0.000,-0.009,-18.107,38.329,3.787
15:40:05:77,6.217,-0.010,-0.006,-0.007,-18.089,38.357,3.808
15:40:05:797,6.244,-0.021,-0.004,-0.009,-18.102,38.367,3.851
15:40:05:824,6.271,0.000,0.002,-0.008,-18.108,38.368,3.875
15:40:05:851,6.299,-0.013,0.007,-0.016,-18.099,38.371,3.918
15:40:05:878,6.325,-0.010,-0.006,-0.009,-18.110,38.373,3.952
15:40:05:905,6.353,-0.021,0.002,-0.013,-18.128,38.375,3.999
15:40:05:933,6.380,-0.005,-0.007,-0.003,-18.129,38.383,4.018
15:40:05:959,6.407,-0.007,-0.001,-0.018,-18.134,38.380,4.038
15:40:05:987,6.434,-0.009,-0.001,-0.007,-18.143,38.379,4.072
15:40:06:014,6.461,-0.015,0.002,-0.010,-18.160,38.402,4.090
15:40:06:042,6.489,-0.017,-0.006,0.002,-18.112,38.436,4.113
15:40:06:069,6.516,-0.008,0.003,-0.014,-18.115,38.448,4.137
15:40:06:096,6.543,-0.008,0.003,-0.014,-18.115,38.448,4.137
15:40:06:123,6.571,-0.013,-0.004,0.005,-18.106,38.442,4.145
15:40:06:151,6.598,-0.006,-0.007,-0.003,-18.091,38.440,4.149
15:40:06:178,6.625,-0.006,-0.007,-0.003,-18.091,38.440,4.149
15:40:06:205,6.652,-0.006,-0.007,-0.006,-18.091,38.440,4.149
15:40:06:233,6.680,-0.006,-0.007,-0.006,-18.091,38.440,4.149
15:40:06:26,6.707,-0.003,-0.010,0.002,-18.095,38.461,4.155
15:40:06:287,6.734,-0.003,-0.010,0.002,-18.095,38.461,4.155
15:40:06:314,6.762,-0.007,0.000,-0.012,-18.101,38.464,4.158
15:40:06:342,6.789,-0.008,-0.007,0.002,-18.121,38.462,4.174
15:40:06:368,6.816,-0.009,0.000,-0.006,-18.121,38.462,4.174
15:40:06:396,6.843,-0.004,-0.007,-0.001,-18.122,38.456,4.180
15:40:06:423,6.870,-0.011,0.000,-0.010,-18.133,38.450,4.184
15:40:06:45,6.897,-0.008,-0.004,0.000,-18.134,38.455,4.188
15:40:06:477,6.925,0.001,0.001,-0.007,-18.137,38.433,4.201
15:40:06:506,6.953,0.000,-0.006,-0.002,-18.134,38.406,4.200
15:40:06:533,6.980,-0.016,0.000,-0.009,-18.134,38.396,4.202
15:40:06:56,7.008,-0.012,0.002,-0.006,-18.146,38.385,4.211
15:40:06:588,7.035,-0.014,-0.003,-0.001,-18.120,38.389,4.211
15:40:06:615,7.062,-0.008,0.003,-0.004,-18.120,38.379,4.213
15:40:06:641,7.089,-0.008,-0.005,-0.018,-18.103,38.342,4.218
15:40:06:67,7.117,-0.009,-0.004,0.003,-18.077,38.336,4.220
15:40:06:697,7.144,-0.009,-0.004,0.003,-18.077,38.336,4.220
15:40:06:724,7.171,-0.004,-0.007,0.002,-18.019,38.320,4.221
15:40:06:751,7.198,-0.011,-0.003,-0.006,-17.987,38.299,4.221
15:40:06:778,7.226,-0.005,-0.007,-0.007,-17.961,38.294,4.223
15:40:06:806,7.254,-0.006,-0.011,0.000,-17.958,38.289,4.230
15:40:06:834,7.281,-0.005,-0.006,-0.005,-17.959,38.289,4.256
15:40:06:86,7.308,-0.009,-0.006,-0.004,-17.960,38.287,4.277
15:40:06:888,7.335,-0.005,0.006,0.000,-17.960,38.286,4.313
15:40:06:915,7.362,-0.010,-0.010,0.001,-17.962,38.288,4.339
15:40:06:943,7.390,-0.012,0.002,-0.007,-17.959,38.292,4.380
15:40:06:97,7.417,-0.007,-0.002,-0.008,-17.962,38.274,4.434
15:40:06:997,7.444,-0.009,-0.002,-0.004,-17.962,38.273,4.471
15:40:07:024,7.471,-0.014,0.000,-0.006,-17.962,38.266,4.513
15:40:07:052,7.499,-0.011,0.001,-0.001,-17.954,38.271,4.520
15:40:07:079,7.526,-0.002,-0.003,-0.002,-17.934,38.276,4.519
15:40:07:106,7.553,-0.005,-0.010,-0.005,-17.919,38.275,4.522
15:40:07:133,7.580,-0.007,-0.003,-0.008,-17.920,38.273,4.544
15:40:07:16,7.607,-0.002,-0.007,-0.004,-17.903,38.305,4.569
15:40:07:187,7.634,-0.008,0.003,-0.014,-17.907,38.311,4.598
15:40:07:214,7.661,-0.009,-0.004,-0.008,-17.909,38.322,4.658
15:40:07:241,7.688,-0.019,0.000,-0.007,-17.910,38.358,4.705
15:40:07:268,7.715,-0.011,0.002,0.001,-17.911,38.403,4.750
15:40:07:295,7.743,-0.011,0.002,0.001,-17.911,38.403,4.750
15:40:07:322,7.770,-0.010,0.000,-0.001,-17.842,38.495,4.790
15:40:07:35,7.797,-0.013,-0.004,-0.005,-17.789,38.566,4.803
15:40:07:377,7.825,-0.025,-0.011,-0.014,-17.755,38.603,4.801
15:40:07:404,7.851,0.042,0.003,0.005,-17.543,38.404,4.929
15:40:07:431,7.879,-0.048,-0.033,0.000,-17.380,38.420,4.956
15:40:07:459,7.906,-0.008,0.002,0.001,-17.077,38.399,4.764
15:40:07:486,7.933,-0.008,0.002,0.001,-17.077,38.399,4.764
15:40:07:514,7.961,0.079,0.035,0.004,-16.250,38.033,4.865
15:40:07:541,7.988,0.079,0.035,0.004,-16.250,38.033,4.865
15:40:07:568,8.016,-0.043,0.007,0.000,-15.856,37.676,4.862
15:40:07:595,8.042,0.026,-0.031,-0.035,-14.819,37.922,4.299
15:40:07:623,8.070,0.083,-0.005,-0.059,-14.687,37.753,4.212
15:40:07:65,8.098,-0.006,0.000,-0.025,-14.588,37.454,4.323
15:40:07:677,8.124,-0.074,-0.032,0.049,-14.505,37.411,4.467
15:40:07:704,8.152,-0.140,-0.023,0.067,-14.356,37.511,4.594
15:40:07:731,8.178,-0.043,0.018,-0.019,-14.211,37.415,4.500
15:40:07:758,8.206,-0.069,-0.015,0.001,-14.088,37.260,4.387
15:40:07:785,8.232,0.020,-0.009,0.005,-13.887,37.067,4.142
15:40:07:814,8.261,-0.009,-0.002,-0.002,-13.764,36.978,4.001
15:40:07:841,8.288,-0.019,-0.008,-0.014,-13.623,36.908,3.794
15:40:07:868,8.315,-0.019,-0.008,-0.014,-13.623,36.908,3.794
15:40:07:895,8.343,-0.022,-0.002,0.006,-13.332,36.739,3.434
15:40:07:923,8.370,-0.035,-0.037,0.038,-13.174,36.424,3.181
15:40:07:95,8.397,-0.014,-0.015,0.007,-13.082,36.230,2.952
15:40:07:978,8.425,-0.043,-0.047,0.029,-12.945,36.017,2.602
15:40:08:005,8.452,-0.035,0.009,-0.020,-12.812,35.952,2.296
15:40:08:032,8.480,-0.033,0.037,-0.072,-12.617,36.070,1.606
15:40:08:06,8.507,-0.030,0.055,-0.070,-12.279,36.172,0.895
15:40:08:086,8.534,-0.060,0.023,-0.007,-11.951,36.179,0.582
15:40:08:114,8.561,-0.043,-0.006,0.005,-11.439,36.056,0.171
15:40:08:141,8.588,-0.048,0.001,-0.058,-10.583,35.433,-0.588
15:40:08:168,8.616,-0.030,0.014,-0.039,-9.909,35.281,-1.125
15:40:08:195,8.642,-0.030,0.014,-0.039,-9.909,35.281,-1.125
15:40:08:222,8.670,0.001,0.026,0.030,-8.482,35.493,-2.164
15:40:08:249,8.696,0.001,0.026,0.030,-8.482,35.493,-2.164
15:40:08:276,8.724,-0.067,0.138,-0.010,-7.130,35.825,-3.099
15:40:08:304,8.751,-0.074,0.176,0.039,-6.481,36.022,-3.582
15:40:08:331,8.778,-0.092,0.152,0.037,-5.329,36.199,-4.479
15:40:08:359,8.806,-0.259,0.485,-0.015,-2.735,36.396,-6.912
15:40:08:385,8.833,-0.463,0.375,0.011,-0.851,36.464,-8.828
15:40:08:413,8.860,-0.519,0.251,-0.120,0.586,36.233,-10.338
15:40:08:44,8.887,-0.519,0.251,-0.120,0.586,36.233,-10.338
15:40:08:467,8.915,-0.644,-0.240,-0.528,6.298,36.506,-15.920
15:40:08:495,8.942,-0.644,-0.240,-0.528,6.298,36.506,-15.920
15:40:08:522,8.969,-1.365,1.148,-1.062,15.237,38.816,-22.737
15:40:08:549,8.997,-3.096,1.687,-0.387,21.001,39.637,-27.108
15:40:08:576,9.023,-3.096,1.687,-0.387,21.001,39.637,-27.108
15:40:08:604,9.051,-1.563,-1.335,-1.031,23.769,22.070,-53.145
15:40:08:631,9.078,-1.563,-1.335,-1.031,23.769,22.070,-53.145
15:40:08:658,9.106,-0.388,-1.666,-0.329,11.708,17.693,-60.232
15:40:08:686,9.133,-0.136,-1.766,-0.314,8.290,19.242,-57.139
15:40:08:713,9.160,-0.780,-1.631,-0.039,3.514,23.854,-47.723
15:40:08:74,9.187,-0.976,-1.499,0.267,0.207,27.485,-40.121
15:40:08:767,9.214,-0.919,-0.553,-0.081,-7.414,31.491,-28.996
15:40:08:794,9.241,-0.683,0.541,0.627,-16.208,35.499,-17.894
15:40:08:821,9.268,0.287,1.221,1.174,-23.285,36.245,-10.989
15:40:08:848,9.296,3.736,1.818,0.986,-31.290,35.430,-1.467
15:40:08:876,9.323,3.898,-0.065,0.043,-34.118,37.685,2.666
15:40:08:902,9.350,1.108,0.586,-4.775,-33.894,39.662,0.166
15:40:08:93,9.377,-0.191,0.170,5.939,-33.003,32.820,-4.384
15:40:08:957,9.405,-0.191,0.170,5.939,-33.003,32.820,-4.384
15:40:08:984,9.431,-0.191,0.170,5.939,-33.003,32.820,-4.384
15:40:09:011,9.459,-0.024,0.914,-1.394,-25.718,31.732,-15.514
15:40:09:039,9.486,-0.035,0.980,-0.732,-23.781,35.527,-20.705
15:40:09:066,9.513,-0.277,0.493,0.076,-22.423,36.627,-22.715
15:40:09:093,9.540,-0.586,0.515,0.379,-21.193,38.551,-24.598
15:40:09:12,9.567,-0.586,0.515,0.379,-21.193,38.551,-24.598
15:40:09:147,9.594,-0.667,0.297,-0.336,-19.170,41.951,-26.392
15:40:09:174,9.622,-0.529,-0.093,-0.380,-17.555,43.662,-27.562
15:40:09:201,9.648,0.014,-0.279,-0.101,-14.369,47.308,-30.413
15:40:09:228,9.676,-0.366,-0.041,-0.008,-10.376,50.082,-34.254
15:40:09:256,9.703,-1.700,-0.210,0.383,-6.979,51.942,-37.596
15:40:09:283,9.730,-2.479,0.048,0.606,-0.142,54.668,-43.314
15:40:09:31,9.757,-2.982,0.308,1.402,6.338,55.140,-46.990
15:40:09:337,9.784,-2.154,-0.720,0.562,13.992,53.742,-51.791
15:40:09:364,9.811,-0.979,-1.342,0.218,15.807,51.539,-53.908
15:40:09:391,9.839,-0.214,-1.302,-0.002,14.038,52.603,-54.350
15:40:09:419,9.866,-0.557,-0.847,0.184,5.918,55.286,-50.656
15:40:09:446,9.894,-0.652,-0.748,0.472,-0.287,58.251,-46.611
15:40:09:473,9.921,-0.637,-0.326,1.092,-9.147,63.535,-39.184
15:40:09:501,9.948,-0.144,0.109,1.199,-14.914,66.711,-33.868
15:40:09:527,9.975,-0.144,0.109,1.199,-14.914,66.711,-33.868
15:40:09:555,10.002,1.874,0.840,0.361,-29.412,76.526,-16.874
15:40:09:581,10.029,2.702,1.021,-0.966,-33.720,78.809,-11.374
15:40:09:608,10.055,3.022,-0.496,-2.187,-37.960,81.502,-5.266
15:40:09:635,10.083,2.725,-1.031,-2.157,-38.676,84.695,-4.389
15:40:09:663,10.110,1.495,-0.995,-3.541,-37.671,87.933,-6.267
15:40:09:69,10.137,0.568,-2.422,-2.682,-28.727,79.998,-9.190
15:40:09:717,10.164,1.133,0.969,-0.101,-28.952,78.881,-14.361
15:40:09:744,10.191,-0.041,-0.285,0.212,-26.572,80.862,-17.938
15:40:09:771,10.218,0.122,0.038,0.066,-26.842,81.893,-22.233
15:40:09:798,10.245,0.122,0.038,0.066,-26.842,81.893,-22.233
15:40:09:825,10.272,0.205,0.840,0.408,-26.447,83.126,-24.891
15:40:09:852,10.299,-0.377,0.971,0.726,-26.817,84.551,-26.261
15:40:09:879,10.326,-0.790,0.217,0.601,-26.327,86.573,-26.898
15:40:09:907,10.354,-0.889,0.097,0.881,-25.021,90.910,-28.487
15:40:09:934,10.381,0.004,-0.195,-0.192,-22.512,93.968,-30.527
15:40:09:961,10.409,0.012,0.049,0.674,-19.017,98.385,-34.819
15:40:09:989,10.436,-0.511,-0.247,1.358,-15.875,100.226,-38.163
15:40:10:016,10.463,-0.713,-0.005,1.607,-10.117,102.938,-43.762
15:40:10:043,10.491,-0.319,-0.619,2.045,-0.219,105.718,-48.869
15:40:10:071,10.518,-0.278,-0.546,2.106,8.491,106.872,-51.702
15:40:10:099,10.546,-0.278,-0.546,2.106,8.491,106.872,-51.702
15:40:10:129,10.576,-0.303,-1.210,0.556,16.540,104.719,-56.009
15:40:10:156,10.603,-0.417,-1.024,0.260,10.506,105.510,-55.085
15:40:10:183,10.630,-0.439,-0.609,0.487,1.842,108.248,-50.517
15:40:10:211,10.658,-0.054,-0.635,0.842,-3.083,111.224,-45.689
15:40:10:237,10.685,0.650,0.299,0.441,-14.235,123.026,-28.334
15:40:10:265,10.713,0.650,0.299,0.441,-14.235,123.026,-28.334
15:40:10:292,10.739,1.040,1.282,-2.796,-24.980,130.927,-14.745
15:40:10:319,10.766,1.040,1.282,-2.796,-24.980,130.927,-14.745
15:40:10:346,10.794,1.040,1.282,-2.796,-24.980,130.927,-14.745
15:40:10:374,10.821,0.501,0.748,-3.939,-28.891,131.323,-10.782
15:40:10:401,10.848,4.246,1.346,1.291,-26.362,131.854,-13.014
15:40:10:428,10.875,-1.678,-1.742,-0.461,-24.498,129.999,-21.078
15:40:10:455,10.903,-1.678,-1.742,-0.461,-24.498,129.999,-21.078
15:40:10:483,10.930,0.667,0.107,0.063,-20.608,132.014,-26.815
15:40:10:509,10.957,0.282,1.218,0.403,-19.833,132.368,-28.605
15:40:10:537,10.984,0.203,0.896,0.567,-18.859,131.445,-30.490
15:40:10:564,11.011,0.014,0.430,0.960,-17.614,132.230,-31.480
15:40:10:591,11.039,0.115,-0.131,0.702,-16.019,133.738,-31.424
15:40:10:618,11.065,-0.715,0.480,0.131,-13.140,135.131,-32.349
15:40:10:645,11.093,-0.804,0.347,0.222,-11.292,135.684,-34.010
15:40:10:672,11.119,-0.483,-0.347,0.748,-6.698,138.381,-37.511
15:40:10:7,11.147,0.405,-0.684,1.863,-2.135,141.489,-39.950
15:40:10:727,11.174,0.650,-0.910,1.646,16.764,146.605,-48.161
15:40:10:755,11.202,0.650,-0.910,1.646,16.764,146.605,-48.161
15:40:10:782,11.230,1.645,-0.473,1.930,23.729,147.276,-51.142
15:40:10:81,11.258,1.645,-0.473,1.930,23.729,147.276,-51.142
15:40:10:838,11.285,0.178,-1.131,0.945,27.849,143.197,-58.192
15:40:10:865,11.312,0.295,-0.747,0.898,10.145,147.108,-53.546
15:40:10:892,11.339,0.295,-0.747,0.898,10.145,147.108,-53.546
15:40:10:919,11.367,0.730,-0.527,0.933,2.880,150.319,-48.254
15:40:10:946,11.393,0.730,-0.527,0.933,2.880,150.319,-48.254
15:40:10:973,11.420,1.081,0.612,-1.187,-19.954,165.472,-25.844
15:40:11:001,11.448,0.372,1.335,-2.593,-24.525,169.121,-19.778
15:40:11:029,11.476,-2.283,-0.554,-2.939,-32.919,171.280,-7.562
15:40:11:056,11.503,-1.685,-0.850,-2.778,-33.752,170.617,-7.190
15:40:11:083,11.530,-3.104,-0.322,-1.668,-32.594,169.443,-10.203
15:40:11:11,11.557,-3.104,-0.322,-1.668,-32.594,169.443,-10.203
15:40:11:137,11.584,-3.104,-0.322,-1.668,-32.594,169.443,-10.203
15:40:11:164,11.611,-3.104,-0.322,-1.668,-32.594,169.443,-10.203
15:40:11:191,11.638,-0.285,0.126,-0.098,-27.048,165.587,-25.504
15:40:11:219,11.666,-0.173,0.405,0.006,-24.564,165.830,-28.586
15:40:11:246,11.693,-0.173,0.405,0.006,-24.564,165.830,-28.586
15:40:11:273,11.720,-0.173,0.405,0.006,-24.564,165.830,-28.586
15:40:11:3,11.747,0.717,0.060,0.991,-24.750,168.198,-32.431
15:40:11:327,11.774,0.608,-0.267,0.345,-22.429,173.550,-33.659
15:40:11:355,11.802,0.096,-0.009,0.425,-18.441,178.610,-36.653
15:40:11:381,11.829,0.066,-0.140,0.172,-15.328,-179.115,-39.057
15:40:11:409,11.856,0.444,-0.073,0.717,-9.835,-175.576,-42.644
15:40:11:436,11.883,0.444,-0.073,0.717,-9.835,-175.576,-42.644
15:40:11:464,11.911,1.325,-0.942,0.509,6.862,-169.757,-48.619
15:40:11:491,11.938,1.856,-0.710,0.219,19.421,-167.737,-51.738
15:40:11:518,11.965,2.380,-0.261,0.520,27.294,-166.565,-53.254
15:40:11:573,12.020,0.882,-1.400,0.116,30.969,-168.267,-55.402
15:40:11:6,12.047,0.882,-1.400,0.116,30.969,-168.267,-55.402
15:40:11:627,12.074,0.743,-0.543,0.269,12.282,-167.574,-49.830
15:40:11:655,12.102,1.091,-0.421,-0.115,3.087,-164.141,-41.627
15:40:11:682,12.129,1.091,-0.421,-0.115,3.087,-164.141,-41.627
15:40:11:71,12.157,1.091,-0.421,-0.115,3.087,-164.141,-41.627
15:40:11:737,12.184,1.091,-0.421,-0.115,3.087,-164.141,-41.627
15:40:11:765,12.212,0.248,0.416,-1.083,-9.520,-158.849,-25.296
15:40:11:792,12.239,0.248,0.416,-1.083,-9.520,-158.849,-25.296
15:40:11:819,12.266,0.248,0.416,-1.083,-9.520,-158.849,-25.296
15:40:11:846,12.293,-2.237,0.052,-0.630,-21.536,-156.714,-6.505
15:40:11:873,12.320,-2.237,0.052,-0.630,-21.536,-156.714,-6.505
15:40:11:9,12.347,1.322,-0.686,-0.697,-16.712,-156.476,-13.710
15:40:11:927,12.375,-0.073,0.477,0.264,-8.378,-155.290,-22.737
15:40:11:955,12.402,0.445,0.864,-0.333,-7.516,-154.335,-23.877
15:40:11:982,12.429,0.808,1.369,-0.328,-6.493,-154.119,-25.588
15:40:12:008,12.456,0.808,1.369,-0.328,-6.493,-154.119,-25.588
15:40:12:036,12.483,2.032,-0.210,0.117,-5.976,-153.240,-27.346
15:40:12:063,12.510,2.032,-0.210,0.117,-5.976,-153.240,-27.346
15:40:12:09,12.537,2.032,-0.210,0.117,-5.976,-153.240,-27.346
15:40:12:117,12.564,1.262,-0.952,-0.136,3.164,-151.742,-35.985
15:40:12:144,12.591,1.410,-0.435,0.422,7.214,-152.576,-40.072
15:40:12:171,12.618,1.410,-0.435,0.422,7.214,-152.576,-40.072
15:40:12:198,12.646,2.446,-0.783,0.155,21.060,-150.375,-47.767
15:40:12:227,12.674,2.446,-0.783,0.155,21.060,-150.375,-47.767
15:40:12:254,12.701,0.871,-1.303,0.430,38.642,-154.374,-54.867
15:40:12:281,12.728,0.871,-1.303,0.430,38.642,-154.374,-54.867
15:40:12:308,12.755,0.363,-1.231,0.817,29.305,-156.690,-52.932
15:40:12:335,12.783,0.603,-0.719,0.864,20.048,-156.554,-48.822
15:40:12:362,12.810,0.603,-0.719,0.864,20.048,-156.554,-48.822
15:40:12:39,12.837,0.603,-0.719,0.864,20.048,-156.554,-48.822
15:40:12:417,12.865,0.905,0.226,0.181,0.401,-153.183,-32.723
15:40:12:445,12.892,-0.919,0.982,-0.930,-14.909,-145.757,-9.750
15:40:12:471,12.919,-2.644,1.548,-0.605,-20.179,-146.446,-3.230
15:40:12:499,12.946,-3.886,0.213,-0.730,-26.388,-149.823,4.504
15:40:12:526,12.973,-3.836,-1.144,-0.168,-27.351,-150.442,6.449
15:40:12:553,13.000,-3.836,-1.144,-0.168,-27.351,-150.442,6.449
15:40:12:58,13.027,-3.836,-1.144,-0.168,-27.351,-150.442,6.449
15:40:12:606,13.054,-0.018,1.472,3.323,-24.394,-149.943,0.351
15:40:12:634,13.081,0.721,1.125,0.209,-15.199,-154.425,-19.884
15:40:12:661,13.108,0.721,1.125,0.209,-15.199,-154.425,-19.884
15:40:12:688,13.136,0.666,1.426,0.373,-12.950,-153.499,-24.754
15:40:12:716,13.163,0.914,0.449,0.239,-11.408,-151.903,-25.894
15:40:12:743,13.190,0.914,0.449,0.239,-11.408,-151.903,-25.894
15:40:12:77,13.217,1.102,-0.071,-0.114,-9.228,-148.398,-25.509
15:40:12:799,13.246,1.102,-0.071,-0.114,-9.228,-148.398,-25.509
15:40:12:825,13.273,-0.648,0.600,0.695,-3.655,-145.644,-28.317
15:40:12:853,13.300,0.618,-0.320,0.382,0.317,-142.615,-30.261
15:40:12:88,13.327,1.722,-0.669,0.079,17.683,-132.651,-35.323
15:40:12:907,13.355,1.722,-0.669,0.079,17.683,-132.651,-35.323
15:40:12:935,13.382,1.722,-0.669,0.079,17.683,-132.651,-35.323
15:40:12:962,13.409,1.722,-0.669,0.079,17.683,-132.651,-35.323
15:40:12:989,13.436,2.675,-0.562,-0.432,39.887,-133.416,-48.264
15:40:13:016,13.464,0.997,-1.257,0.614,44.697,-143.924,-60.129
15:40:13:043,13.490,0.832,-1.004,0.536,26.586,-142.483,-56.271
15:40:13:071,13.518,0.832,-1.004,0.536,26.586,-142.483,-56.271
15:40:13:098,13.546,1.448,0.021,-0.443,3.754,-133.506,-40.052
15:40:13:127,13.574,1.078,0.498,-1.109,-4.016,-129.368,-33.383
15:40:13:154,13.601,1.078,0.498,-1.109,-4.016,-129.368,-33.383
15:40:13:182,13.629,-2.380,1.693,-1.413,-23.791,-117.636,-16.922
15:40:13:209,13.656,-2.380,1.693,-1.413,-23.791,-117.636,-16.922
15:40:13:236,13.683,-3.596,-0.625,1.174,-31.711,-112.066,-7.192
15:40:13:263,13.710,-3.596,-0.625,1.174,-31.711,-112.066,-7.192
15:40:13:29,13.737,-4.013,0.016,-3.794,-31.725,-112.229,-14.179
15:40:13:317,13.764,-4.013,0.016,-3.794,-31.725,-112.229,-14.179
15:40:13:344,13.791,-0.463,-1.502,0.470,-28.247,-119.339,-16.871
15:40:13:371,13.819,-0.463,-1.502,0.470,-28.247,-119.339,-16.871
15:40:13:398,13.845,-0.463,-1.502,0.470,-28.247,-119.339,-16.871
15:40:13:425,13.873,0.105,1.019,-0.285,-24.945,-117.934,-32.566
15:40:13:453,13.900,0.105,1.019,-0.285,-24.945,-117.934,-32.566
15:40:13:479,13.927,0.617,0.936,-0.220,-24.607,-116.056,-34.026
15:40:13:507,13.954,0.665,0.332,-0.580,-23.509,-112.309,-34.519
15:40:13:534,13.982,0.665,0.332,-0.580,-23.509,-112.309,-34.519
15:40:13:561,14.009,0.937,-0.261,0.128,-14.868,-100.658,-37.796
15:40:13:588,14.036,0.971,-0.419,-0.580,-8.157,-95.131,-41.347
15:40:13:615,14.063,1.664,-0.737,-1.996,-1.440,-90.478,-44.149
15:40:13:643,14.090,0.729,-1.065,-1.660,10.300,-85.261,-47.578
15:40:13:67,14.118,0.711,-0.748,-1.659,23.030,-84.431,-51.655
15:40:13:697,14.144,0.711,-0.748,-1.659,23.030,-84.431,-51.655
15:40:13:724,14.172,0.598,-0.994,-0.837,34.297,-88.430,-60.057
15:40:13:752,14.199,0.482,-1.222,-0.067,33.537,-90.549,-62.534
15:40:13:779,14.226,0.488,-0.745,-0.311,25.686,-89.325,-61.907
15:40:13:806,14.254,0.472,-0.675,-0.647,14.738,-85.420,-56.147
15:40:13:834,14.281,0.275,-0.513,-1.183,8.171,-81.552,-49.577
15:40:13:86,14.308,-0.637,0.313,-1.065,-5.294,-69.599,-32.815
15:40:13:888,14.335,-0.637,0.313,-1.065,-5.294,-69.599,-32.815
15:40:13:914,14.362,-1.843,0.592,-0.028,-13.649,-63.096,-23.898
15:40:13:942,14.389,-1.918,1.790,2.320,-22.526,-59.399,-15.780
15:40:13:97,14.417,-1.326,0.912,3.618,-26.708,-59.308,-10.651
15:40:13:996,14.444,-1.326,0.912,3.618,-26.708,-59.308,-10.651
15:40:14:025,14.472,-4.354,1.141,-1.157,-27.044,-57.139,-11.921
15:40:14:052,14.499,1.012,-3.127,1.906,-21.690,-58.986,-9.755
15:40:14:08,14.527,0.486,1.507,0.128,-22.485,-60.001,-18.977
15:40:14:107,14.554,0.486,1.507,0.128,-22.485,-60.001,-18.977
15:40:14:134,14.581,0.037,0.031,0.159,-17.453,-58.286,-22.304
15:40:14:161,14.609,-0.439,0.948,0.195,-17.455,-57.829,-24.447
15:40:14:189,14.636,-0.439,0.948,0.195,-17.455,-57.829,-24.447
15:40:14:216,14.663,0.190,1.021,-1.168,-17.737,-56.298,-27.026
15:40:14:243,14.690,0.121,0.051,-1.534,-16.541,-53.315,-27.251
15:40:14:27,14.717,0.670,-0.204,0.112,-13.084,-49.814,-28.637
15:40:14:297,14.744,0.670,-0.204,0.112,-13.084,-49.814,-28.637
15:40:14:324,14.771,0.739,-0.202,-0.728,-5.136,-43.333,-34.238
15:40:14:351,14.799,-0.333,-0.587,-2.191,3.042,-36.729,-37.537
15:40:14:379,14.826,-0.333,-0.587,-2.191,3.042,-36.729,-37.537
15:40:14:405,14.853,-0.846,-0.705,-1.348,22.375,-29.875,-42.897
15:40:14:433,14.880,-1.448,-0.481,-1.843,31.463,-30.092,-47.781
15:40:14:46,14.907,-1.068,-0.426,-2.406,34.885,-32.627,-51.914
15:40:14:488,14.935,0.233,-1.300,-0.651,35.000,-37.463,-57.341
15:40:14:515,14.962,0.233,-1.300,-0.651,35.000,-37.463,-57.341
15:40:14:542,14.989,0.157,-1.047,-0.561,21.220,-35.691,-54.981
15:40:14:569,15.016,-0.324,-0.597,-0.980,9.194,-30.926,-46.760
15:40:14:596,15.043,-0.722,-0.183,-1.073,2.430,-27.048,-39.904
15:40:14:623,15.070,-0.985,0.542,-0.867,-7.189,-19.851,-30.928
15:40:14:65,15.097,-1.700,0.922,0.540,-13.074,-14.725,-25.155
15:40:14:677,15.124,-1.700,0.922,0.540,-13.074,-14.725,-25.155
15:40:14:704,15.152,2.392,-0.290,3.340,-32.507,-5.221,-6.925
15:40:14:732,15.179,2.110,-1.275,3.309,-34.180,-6.235,-5.451
15:40:14:758,15.206,1.287,0.189,2.205,-33.550,-5.472,-7.629
15:40:14:786,15.233,1.287,0.189,2.205,-33.550,-5.472,-7.629
15:40:14:813,15.260,1.287,0.189,2.205,-33.550,-5.472,-7.629
15:40:14:841,15.288,1.561,0.411,1.172,-25.726,-12.554,-23.901
15:40:14:868,15.315,1.561,0.411,1.172,-25.726,-12.554,-23.901
15:40:14:895,15.342,1.561,0.411,1.172,-25.726,-12.554,-23.901
15:40:14:922,15.369,0.345,0.075,0.622,-23.630,-11.098,-26.347
15:40:14:949,15.397,0.345,0.075,0.622,-23.630,-11.098,-26.347
15:40:14:977,15.424,-0.743,0.274,-1.157,-20.559,-6.912,-30.580
15:40:15:003,15.451,-0.743,0.274,-1.157,-20.559,-6.912,-30.580
15:40:15:031,15.478,-0.743,0.274,-1.157,-20.559,-6.912,-30.580
15:40:15:058,15.506,-0.349,-0.300,-0.379,-7.352,7.370,-37.110
15:40:15:085,15.532,-0.448,0.148,-0.145,-2.663,9.801,-39.682
15:40:15:112,15.559,-2.239,-0.288,-0.604,4.282,11.994,-44.926
15:40:15:139,15.587,-2.239,-0.288,-0.604,4.282,11.994,-44.926
15:40:15:166,15.613,-2.264,-0.335,-0.998,22.300,10.266,-56.803
15:40:15:193,15.641,-0.984,-1.262,-0.534,39.890,4.547,-66.517
15:40:15:221,15.668,-0.044,-1.500,-0.292,40.809,3.025,-67.812
15:40:15:248,15.695,0.351,-1.343,-0.287,34.567,3.916,-66.045
15:40:15:275,15.722,0.351,-1.343,-0.287,34.567,3.916,-66.045
15:40:15:302,15.749,-1.136,-0.809,-0.148,9.628,12.614,-52.641
15:40:15:329,15.777,-1.136,-0.809,-0.148,9.628,12.614,-52.641
15:40:15:356,15.803,-1.117,-0.042,1.049,-10.565,24.902,-31.951
15:40:15:383,15.831,-0.059,0.657,1.984,-16.683,27.823,-25.220
15:40:15:41,15.857,4.581,0.017,1.190,-30.104,25.581,-8.951
15:40:15:438,15.885,4.376,-0.191,0.491,-32.345,24.529,-4.117
15:40:15:465,15.913,4.376,-0.191,0.491,-32.345,24.529,-4.117
15:40:15:492,15.939,1.225,-2.173,1.933,-24.215,27.757,-9.525
15:40:15:519,15.967,1.225,-2.173,1.933,-24.215,27.757,-9.525
15:40:15:547,15.994,0.153,0.820,-0.181,-15.738,26.281,-17.510
15:40:15:574,16.021,0.153,0.820,-0.181,-15.738,26.281,-17.510
15:40:15:601,16.048,-0.481,1.559,-0.353,-13.249,26.599,-22.791
15:40:15:628,16.075,-0.876,1.204,-0.360,-14.137,25.738,-26.209
15:40:15:654,16.102,-0.738,0.421,0.382,-12.230,27.951,-27.608
15:40:15:682,16.129,-0.607,0.081,0.272,-9.566,30.858,-28.183
15:40:15:709,16.156,-0.087,0.174,-0.641,-6.508,31.533,-31.167
15:40:15:736,16.184,-0.835,-0.702,-0.617,-4.248,30.510,-33.956
15:40:15:763,16.210,-1.676,-0.909,-0.179,1.366,30.930,-38.072
15:40:15:79,16.238,-1.903,-0.613,-0.547,8.396,33.129,-40.838
15:40:15:818,16.265,-2.346,-0.601,-0.629,13.996,35.466,-43.049
15:40:15:845,16.292,-1.848,-0.959,-0.190,25.593,37.186,-46.062
15:40:15:872,16.319,-2.294,-0.382,-0.291,32.071,37.707,-47.959
15:40:15:899,16.346,-0.952,-1.213,0.069,35.545,35.345,-50.633
15:40:15:926,16.373,-0.304,-1.310,-0.268,33.823,33.720,-50.795
15:40:15:953,16.401,-0.505,-0.872,-0.532,22.121,33.031,-47.558
15:40:15:98,16.427,-0.402,-0.351,-0.638,8.319,34.029,-40.492
15:40:16:007,16.454,-0.962,-0.344,0.080,0.911,36.033,-34.077
15:40:16:034,16.482,-0.524,0.381,0.508,-9.126,39.382,-24.301
15:40:16:061,16.509,0.213,0.985,1.126,-15.487,41.748,-18.193
15:40:16:09,16.537,2.045,1.248,1.185,-23.893,43.284,-9.684
15:40:16:117,16.564,3.559,0.265,-0.192,-30.489,41.186,-1.131
15:40:16:144,16.591,3.831,-0.718,-0.533,-32.602,40.530,2.928
15:40:16:171,16.618,2.623,-1.305,0.822,-33.320,42.713,4.058
15:40:16:198,16.645,2.795,-0.479,-2.421,-31.855,42.656,2.708
15:40:16:225,16.672,-0.083,0.940,4.437,-30.257,34.868,-7.690
15:40:16:252,16.700,1.340,0.678,2.023,-18.581,33.064,-10.838
15:40:16:28,16.727,0.470,0.815,-0.476,-18.703,34.746,-16.508
15:40:16:307,16.754,0.083,0.349,0.191,-17.063,34.857,-18.176
15:40:16:334,16.781,-0.568,1.455,0.195,-16.066,34.887,-20.581
15:40:16:361,16.808,-0.707,0.448,-0.060,-14.607,34.723,-21.711
15:40:16:388,16.835,-0.711,0.115,-0.504,-12.832,35.815,-22.652
15:40:16:415,16.862,-0.340,0.114,-0.457,-10.037,38.070,-23.985
15:40:16:442,16.890,-0.092,0.055,-0.359,-7.385,39.876,-25.763
15:40:16:469,16.916,-0.908,0.084,-0.335,-2.342,42.994,-29.578
15:40:16:496,16.944,-1.239,-0.127,-0.383,2.024,44.892,-32.434
15:40:16:524,16.971,-1.785,-0.032,0.174,9.753,47.505,-37.042
15:40:16:551,16.999,-1.894,-0.709,0.233,17.858,47.922,-41.749
15:40:16:578,17.026,-1.871,-0.610,0.462,23.128,47.969,-44.935
15:40:16:606,17.053,-0.847,-1.424,0.040,26.260,45.997,-48.799
15:40:16:633,17.080,-0.606,-1.262,0.010,24.783,45.781,-49.592
15:40:16:66,17.107,-0.649,-1.212,-0.180,16.700,46.261,-48.900
15:40:16:687,17.134,-0.962,-0.630,-0.139,8.579,47.728,-46.305
15:40:16:714,17.161,-0.962,-0.630,-0.139,8.579,47.728,-46.305
15:40:16:742,17.189,-1.166,0.415,0.680,-13.667,56.738,-33.232
15:40:16:769,17.217,-0.446,1.004,1.321,-19.755,60.810,-29.243
15:40:16:797,17.244,1.933,0.993,1.355,-28.166,66.491,-23.327
15:40:16:824,17.272,3.636,0.465,-0.265,-32.611,69.920,-19.790
15:40:16:851,17.298,3.411,-0.084,-0.718,-38.256,71.456,-14.518
15:40:16:878,17.326,3.411,-0.084,-0.718,-38.256,71.456,-14.518
15:40:16:906,17.353,2.546,-1.128,-0.433,-39.798,74.341,-14.700
15:40:16:933,17.380,-1.144,1.035,-1.052,-37.631,75.866,-19.193
15:40:16:96,17.408,1.755,1.868,1.923,-38.074,68.546,-19.808
15:40:16:987,17.434,-0.875,-2.300,-0.853,-31.773,65.532,-21.161
15:40:17:014,17.462,0.260,0.747,0.131,-31.938,64.031,-28.675
15:40:17:041,17.489,-0.021,0.920,0.290,-31.215,64.700,-31.475
15:40:17:068,17.515,-0.021,0.920,0.290,-31.215,64.700,-31.475
15:40:17:095,17.543,-0.470,1.005,0.721,-32.422,65.286,-33.811
15:40:17:123,17.570,-0.709,-0.029,0.693,-31.928,70.207,-37.686
15:40:17:149,17.597,-0.254,0.184,0.501,-28.679,75.886,-40.751
15:40:17:177,17.624,0.079,-0.454,0.341,-23.652,80.593,-44.758
15:40:17:204,17.651,-0.053,-0.069,0.175,-19.627,82.954,-47.374
15:40:17:231,17.678,-0.053,-0.069,0.175,-19.627,82.954,-47.374
15:40:17:258,17.705,-1.084,-0.337,1.220,-13.084,86.566,-51.830
15:40:17:285,17.732,-1.053,-0.600,1.655,7.700,89.906,-59.103
15:40:17:312,17.759,-0.911,-0.724,2.192,25.293,90.050,-62.674
15:40:17:339,17.787,-0.606,-1.042,1.182,32.643,88.740,-65.027
15:40:17:366,17.814,0.022,-1.333,-0.044,33.549,87.290,-66.212
15:40:17:394,17.841,0.067,-0.966,0.263,27.925,89.290,-64.968
15:40:17:421,17.869,-0.097,-0.832,0.423,13.984,93.343,-59.600
15:40:17:448,17.896,-0.097,-0.832,0.423,13.984,93.343,-59.600
15:40:17:476,17.923,0.626,0.352,0.563,-13.475,109.641,-37.229
15:40:17:502,17.950,1.250,0.414,-0.188,-17.798,114.495,-31.573
15:40:17:529,17.977,1.250,0.414,-0.188,-17.798,114.495,-31.573
15:40:17:557,18.004,1.224,0.891,-3.112,-27.551,123.535,-18.407
15:40:17:584,18.031,1.224,0.891,-3.112,-27.551,123.535,-18.407
15:40:17:611,18.058,0.924,-0.973,-2.290,-30.041,130.061,-15.051
15:40:17:639,18.086,0.924,-0.973,-2.290,-30.041,130.061,-15.051
15:40:17:666,18.113,2.585,0.280,2.657,-26.976,126.357,-20.445
15:40:17:693,18.140,-0.807,1.740,-0.217,-19.358,125.043,-21.170
15:40:17:72,18.167,-1.072,0.253,0.374,-18.211,125.615,-24.988
15:40:17:747,18.194,0.334,-0.069,-0.162,-15.882,126.252,-25.118
15:40:17:774,18.221,0.860,1.573,1.474,-14.887,127.441,-31.932
15:40:17:801,18.248,-0.278,1.349,0.651,-14.049,126.449,-33.551
15:40:17:828,18.275,-0.278,1.349,0.651,-14.049,126.449,-33.551
15:40:17:856,18.303,-0.333,0.324,0.034,-8.669,130.510,-34.127
15:40:17:883,18.330,-0.677,-0.025,-0.047,-3.400,133.130,-35.819
15:40:17:91,18.357,-0.677,-0.025,-0.047,-3.400,133.130,-35.819
15:40:17:937,18.384,-0.434,-0.322,1.371,6.429,138.560,-40.940
15:40:17:966,18.413,-0.434,-0.322,1.371,6.429,138.560,-40.940
15:40:17:993,18.440,0.245,-0.821,1.626,21.646,142.074,-47.403
15:40:18:02,18.467,0.627,-0.828,1.733,32.337,142.422,-51.998
15:40:18:048,18.495,0.477,-1.063,1.882,38.250,141.304,-55.137
15:40:18:075,18.523,-0.038,-1.314,0.292,39.951,136.865,-59.673
15:40:18:102,18.549,-0.242,-1.174,0.627,34.093,136.866,-59.911
15:40:18:13,18.577,-0.254,-1.084,0.455,25.735,138.283,-57.374
15:40:18:157,18.604,0.103,-0.546,1.151,10.669,142.437,-50.042
15:40:18:184,18.631,0.738,-0.141,1.147,1.716,145.763,-44.318
15:40:18:211,18.658,1.091,0.343,1.016,-9.699,151.414,-36.356
15:40:18:239,18.686,1.384,1.291,-0.280,-19.201,157.653,-29.491
15:40:18:266,18.713,1.384,1.291,-0.280,-19.201,157.653,-29.491
15:40:18:294,18.741,1.384,1.291,-0.280,-19.201,157.653,-29.491
15:40:18:32,18.768,-1.531,-0.073,-3.312,-32.924,165.812,-14.238
15:40:18:348,18.795,-0.471,-0.973,-3.023,-33.923,169.130,-13.740
15:40:18:374,18.822,-0.471,-0.973,-3.023,-33.923,169.130,-13.740
15:40:18:402,18.849,-0.471,-0.973,-3.023,-33.923,169.130,-13.740
15:40:18:429,18.876,0.945,-1.204,-1.126,-24.917,163.954,-20.936
15:40:18:457,18.904,0.450,0.152,-1.303,-25.270,163.344,-25.303
15:40:18:484,18.931,0.450,0.152,-1.303,-25.270,163.344,-25.303
15:40:18:512,18.959,0.653,0.705,-0.174,-20.357,163.449,-31.178
15:40:18:539,18.986,0.653,0.705,-0.174,-20.357,163.449,-31.178
15:40:18:566,19.013,0.543,1.009,0.401,-21.943,163.963,-34.275
15:40:18:593,19.040,0.621,0.267,1.409,-20.210,170.281,-36.169
15:40:18:62,19.067,-0.019,-0.302,0.304,-16.819,173.655,-37.553
15:40:18:647,19.094,-0.019,-0.302,0.304,-16.819,173.655,-37.553
15:40:18:674,19.121,0.991,-0.130,0.446,-4.070,-177.222,-44.509
15:40:18:701,19.148,1.257,-0.349,0.532,1.115,-175.721,-47.371
15:40:18:728,19.175,1.670,-0.526,0.919,9.263,-175.038,-52.142
15:40:18:755,19.203,1.789,-0.595,0.879,16.254,-174.602,-55.352
15:40:18:782,19.229,1.789,-0.595,0.879,16.254,-174.602,-55.352
15:40:18:809,19.256,1.388,-0.920,0.506,35.515,-175.931,-61.531
15:40:18:837,19.284,0.479,-1.206,0.227,37.859,-176.308,-62.372
15:40:18:864,19.311,0.406,-1.080,0.229,31.372,-173.970,-59.367
15:40:18:891,19.338,0.539,-0.946,0.334,24.032,-171.143,-55.048
15:40:18:918,19.365,0.539,-0.946,0.334,24.032,-171.143,-55.048
15:40:18:945,19.392,1.013,-0.308,0.112,4.511,-162.550,-41.365
15:40:18:972,19.420,1.013,-0.308,0.112,4.511,-162.550,-41.365
15:40:18:999,19.447,-0.243,0.919,-1.517,-13.847,-153.611,-23.618
15:40:19:026,19.473,-0.243,0.919,-1.517,-13.847,-153.611,-23.618
15:40:19:054,19.501,-0.243,0.919,-1.517,-13.847,-153.611,-23.618
15:40:19:081,19.528,-0.243,0.919,-1.517,-13.847,-153.611,-23.618
15:40:19:108,19.555,-0.243,0.919,-1.517,-13.847,-153.611,-23.618
15:40:19:135,19.582,-2.645,-0.878,-0.839,-26.064,-151.949,-5.628
15:40:19:162,19.609,-2.645,-0.878,-0.839,-26.064,-151.949,-5.628
15:40:19:189,19.636,-0.995,1.027,0.034,-15.831,-148.940,-19.248
15:40:19:217,19.664,-0.995,1.027,0.034,-15.831,-148.940,-19.248
15:40:19:244,19.691,-0.363,0.280,0.126,-11.614,-148.236,-19.000
15:40:19:271,19.718,0.637,1.045,-0.648,-9.624,-146.247,-23.287
15:40:19:299,19.746,0.637,1.045,-0.648,-9.624,-146.247,-23.287
15:40:19:327,19.774,1.410,1.526,0.146,-9.160,-146.769,-26.437
15:40:19:353,19.801,1.595,-0.107,0.273,-9.044,-146.278,-26.877
15:40:19:381,19.828,0.714,-0.333,-0.044,-2.739,-145.125,-31.079
15:40:19:407,19.855,0.972,-0.297,0.057,1.740,-146.749,-35.678
15:40:19:435,19.882,0.972,-0.297,0.057,1.740,-146.749,-35.678
15:40:19:462,19.909,0.972,-0.297,0.057,1.740,-146.749,-35.678
15:40:19:489,19.936,1.829,-1.139,-0.003,31.824,-146.132,-49.627
15:40:19:516,19.963,1.829,-1.139,-0.003,31.824,-146.132,-49.627
15:40:19:543,19.990,1.343,-1.411,0.569,37.886,-146.908,-51.337
15:40:19:571,20.018,0.804,-1.593,0.664,36.814,-148.129,-51.243
15:40:19:599,20.046,0.474,-1.384,0.699,29.412,-148.286,-48.118
15:40:19:626,20.073,0.617,-0.732,0.733,17.653,-147.049,-41.911
15:40:19:653,20.100,0.617,-0.732,0.733,17.653,-147.049,-41.911
15:40:19:68,20.127,0.617,-0.732,0.733,17.653,-147.049,-41.911
15:40:19:707,20.154,0.617,-0.732,0.733,17.653,-147.049,-41.911
15:40:19:734,20.182,0.617,-0.732,0.733,17.653,-147.049,-41.911
15:40:19:762,20.209,0.701,-0.410,0.532,10.017,-145.474,-36.176
15:40:19:789,20.237,-1.519,0.947,-1.197,-12.880,-136.368,-11.029
15:40:19:816,20.263,-3.595,1.439,1.193,-18.928,-145.188,-2.181
15:40:19:843,20.291,1.135,-1.224,-1.124,-14.698,-146.927,-7.435
15:40:19:87,20.317,1.135,-1.224,-1.124,-14.698,-146.927,-7.435
15:40:19:897,20.345,1.135,-1.224,-1.124,-14.698,-146.927,-7.435
15:40:19:924,20.372,-0.007,0.365,0.026,-5.915,-149.150,-16.244
15:40:19:952,20.399,0.293,0.441,-0.034,-4.953,-149.369,-18.008
15:40:19:979,20.427,0.813,-0.240,0.930,-4.330,-151.087,-23.902
15:40:20:006,20.453,0.813,-0.240,0.930,-4.330,-151.087,-23.902
15:40:20:033,20.481,0.976,0.171,0.169,-1.828,-148.599,-23.836
15:40:20:06,20.507,0.976,0.171,0.169,-1.828,-148.599,-23.836
15:40:20:087,20.535,0.976,0.171,0.169,-1.828,-148.599,-23.836
15:40:20:114,20.562,2.080,-0.329,-0.029,14.002,-139.298,-33.310
15:40:20:142,20.589,1.809,-0.552,0.138,21.708,-140.653,-39.819
15:40:20:169,20.616,1.809,-0.552,0.138,21.708,-140.653,-39.819
15:40:20:196,20.643,2.047,-0.587,0.150,27.528,-141.384,-44.443
15:40:20:223,20.670,2.047,-0.587,0.150,27.528,-141.384,-44.443
15:40:20:25,20.698,0.301,-1.610,0.224,42.382,-148.118,-57.037
15:40:20:279,20.726,0.301,-1.610,0.224,42.382,-148.118,-57.037
15:40:20:306,20.753,0.301,-1.610,0.224,42.382,-148.118,-57.037
15:40:20:333,20.780,1.192,-0.673,0.342,15.627,-141.471,-42.855
15:40:20:36,20.807,1.465,0.031,0.121,3.825,-137.128,-34.323
15:40:20:387,20.835,1.279,0.469,-0.048,-3.796,-134.563,-29.322
15:40:20:414,20.862,-0.212,1.284,-0.852,-14.946,-131.211,-21.959
15:40:20:442,20.889,-0.212,1.284,-0.852,-14.946,-131.211,-21.959
15:40:20:469,20.916,-0.212,1.284,-0.852,-14.946,-131.211,-21.959
15:40:20:496,20.943,-0.212,1.284,-0.852,-14.946,-131.211,-21.959
15:40:20:523,20.970,-3.386,-0.286,-0.270,-33.617,-124.470,-6.395
15:40:20:55,20.998,-3.386,-0.286,-0.270,-33.617,-124.470,-6.395
15:40:20:578,21.025,-3.386,-0.286,-0.270,-33.617,-124.470,-6.395
15:40:20:605,21.052,-3.386,-0.286,-0.270,-33.617,-124.470,-6.395
15:40:20:632,21.079,-3.386,-0.286,-0.270,-33.617,-124.470,-6.395
15:40:20:659,21.106,-0.178,0.225,-0.258,-20.768,-135.850,-20.581
15:40:20:686,21.133,-0.178,0.225,-0.258,-20.768,-135.850,-20.581
15:40:20:714,21.161,0.170,1.049,-0.001,-19.270,-133.731,-27.539
15:40:20:741,21.188,0.629,0.579,0.017,-18.813,-131.989,-29.496
15:40:20:768,21.215,0.629,0.579,0.017,-18.813,-131.989,-29.496
15:40:20:796,21.244,0.612,-0.008,0.109,-13.156,-122.209,-34.142
15:40:20:823,21.270,1.022,-0.144,-0.326,-8.476,-116.899,-38.305
15:40:20:851,21.298,1.022,-0.144,-0.326,-8.476,-116.899,-38.305
15:40:20:879,21.327,1.022,-0.144,-0.326,-8.476,-116.899,-38.305
15:40:20:907,21.354,1.595,0.220,-0.465,-0.908,-111.286,-42.613
15:40:20:934,21.381,1.325,-1.081,-1.835,27.530,-103.680,-50.209
15:40:20:961,21.408,1.325,-1.081,-1.835,27.530,-103.680,-50.209
15:40:20:988,21.435,1.275,-0.921,-0.422,29.147,-108.076,-56.692
15:40:21:015,21.462,1.275,-0.921,-0.422,29.147,-108.076,-56.692
15:40:21:043,21.490,0.753,-0.654,-0.787,14.585,-102.658,-51.616
15:40:21:07,21.517,0.528,-0.542,-1.344,8.199,-97.944,-46.195
15:40:21:097,21.545,0.055,-0.228,-1.759,-0.648,-90.078,-37.823
15:40:21:125,21.572,-0.308,0.333,-1.520,-9.564,-82.409,-30.699
15:40:21:152,21.599,-1.409,0.634,-1.156,-15.021,-77.705,-26.418
15:40:21:179,21.626,-1.409,0.634,-1.156,-15.021,-77.705,-26.418
15:40:21:206,21.654,-2.714,1.089,2.511,-26.764,-71.476,-14.623
15:40:21:233,21.681,-1.986,0.229,4.225,-30.601,-73.241,-9.094
15:40:21:261,21.708,-1.743,0.456,4.080,-30.387,-73.738,-8.845
15:40:21:288,21.736,-1.743,0.456,4.080,-30.387,-73.738,-8.845
15:40:21:316,21.763,-1.743,0.456,4.080,-30.387,-73.738,-8.845
15:40:21:342,21.790,-0.134,0.958,0.859,-20.742,-71.786,-15.308
15:40:21:37,21.818,-0.333,0.324,-0.072,-14.601,-71.908,-17.058
15:40:21:397,21.844,-0.333,0.324,-0.072,-14.601,-71.908,-17.058
15:40:21:424,21.872,-0.333,0.324,-0.072,-14.601,-71.908,-17.058
15:40:21:452,21.899,0.652,0.937,-0.962,-19.525,-71.634,-28.833
15:40:21:479,21.926,0.713,0.047,-1.417,-16.360,-69.404,-29.461
15:40:21:506,21.953,0.570,-0.056,0.060,-11.944,-65.553,-32.209
15:40:21:533,21.981,0.553,-0.040,0.278,-8.385,-62.321,-34.622
15:40:21:561,22.008,0.881,-0.538,-0.976,-2.024,-57.323,-38.347
15:40:21:588,22.035,0.570,-0.457,-2.105,4.686,-52.515,-40.472
15:40:21:616,22.063,-0.028,-0.870,-2.259,15.917,-47.171,-42.946
15:40:21:643,22.090,-0.367,-0.642,-1.840,24.504,-45.652,-45.317
15:40:21:671,22.118,-0.473,-0.725,-1.723,35.444,-46.227,-50.473
15:40:21:698,22.145,0.107,-1.109,-1.698,41.115,-50.123,-56.898
15:40:21:725,22.172,0.080,-1.389,-0.351,41.171,-52.688,-59.996
15:40:21:752,22.199,0.348,-1.115,-0.407,34.641,-52.677,-60.067
15:40:21:779,22.226,0.348,-1.115,-0.407,34.641,-52.677,-60.067
15:40:21:806,22.254,0.069,-0.752,-1.091,11.822,-46.531,-49.999
15:40:21:834,22.281,-0.316,-0.170,-1.446,-1.205,-40.862,-40.595
15:40:21:861,22.309,-0.316,-0.170,-1.446,-1.205,-40.862,-40.595
15:40:21:889,22.336,-0.316,-0.170,-1.446,-1.205,-40.862,-40.595
15:40:21:916,22.364,-1.580,1.223,-0.742,-19.186,-29.367,-26.690
15:40:21:944,22.391,-0.920,0.989,3.582,-33.821,-21.478,-14.985
15:40:21:97,22.418,-0.920,0.989,3.582,-33.821,-21.478,-14.985
15:40:21:998,22.445,-0.920,0.989,3.582,-33.821,-21.478,-14.985
15:40:22:025,22.472,-0.920,0.989,3.582,-33.821,-21.478,-14.985
15:40:22:052,22.499,-0.920,0.989,3.582,-33.821,-21.478,-14.985
15:40:22:079,22.526,2.653,-0.431,2.776,-38.810,-23.574,-7.948
15:40:22:106,22.553,2.653,-0.431,2.776,-38.810,-23.574,-7.948
15:40:22:133,22.581,-0.838,-1.692,1.256,-29.266,-24.550,-15.283
15:40:22:161,22.608,0.385,0.088,0.173,-23.761,-24.832,-22.911
15:40:22:188,22.636,0.385,0.088,0.173,-23.761,-24.832,-22.911
15:40:22:216,22.663,-0.457,0.582,-0.937,-25.125,-22.259,-32.902
15:40:22:244,22.691,-0.457,0.582,-0.937,-25.125,-22.259,-32.902
15:40:22:27,22.718,-0.583,0.054,-1.131,-23.272,-18.201,-34.616
15:40:22:298,22.745,-0.085,0.193,-0.127,-18.115,-14.120,-37.346
15:40:22:324,22.772,-1.876,-0.160,-1.631,-3.694,-6.250,-47.151
15:40:22:352,22.799,-1.640,-0.106,-1.547,2.045,-5.104,-52.334
15:40:22:379,22.826,-1.619,-0.080,-1.523,10.000,-5.102,-56.034
15:40:22:406,22.854,-2.143,-0.535,-1.039,24.708,-5.058,-60.523
15:40:22:434,22.881,-0.613,-1.300,-0.447,34.917,-6.825,-64.108
15:40:22:461,22.908,-0.613,-1.300,-0.447,34.917,-6.825,-64.108
15:40:22:488,22.936,0.006,-1.234,-0.283,28.035,-5.297,-62.625
15:40:22:515,22.962,0.006,-1.234,-0.283,28.035,-5.297,-62.625
15:40:22:542,22.989,-0.235,-0.977,-0.325,18.694,-2.752,-58.637
15:40:22:569,23.016,-0.235,-0.977,-0.325,18.694,-2.752,-58.637
15:40:22:597,23.044,-1.056,0.298,0.439,-14.197,11.319,-34.384
15:40:22:623,23.071,-0.086,0.811,2.016,-22.532,15.981,-24.836
15:40:22:651,23.098,2.601,2.138,2.424,-27.630,17.521,-18.248
15:40:22:677,23.125,2.601,2.138,2.424,-27.630,17.521,-18.248
15:40:22:705,23.152,3.584,-1.086,1.871,-35.373,12.474,-4.936
15:40:22:731,23.179,2.907,-0.473,1.308,-35.259,13.833,-5.343
15:40:22:759,23.206,1.165,2.193,-2.508,-32.138,18.441,-11.454
15:40:22:786,23.233,-1.604,-0.143,1.050,-28.968,18.167,-14.033
15:40:22:814,23.261,2.101,-0.172,-0.265,-23.627,15.865,-17.257
15:40:22:841,23.288,0.651,0.524,-0.149,-21.865,16.591,-19.564
15:40:22:868,23.316,-0.403,0.244,0.618,-19.092,17.849,-21.063
15:40:22:895,23.342,-0.079,0.546,0.236,-16.370,18.739,-23.805
15:40:22:922,23.370,-1.728,2.491,0.379,-18.259,19.744,-28.328
15:40:22:95,23.397,-0.852,0.671,0.043,-16.559,19.550,-32.095
15:40:22:977,23.424,0.074,0.359,-0.556,-10.897,21.705,-34.047
15:40:23:004,23.451,-0.871,-0.768,-0.638,-7.327,23.491,-36.470
15:40:23:031,23.478,0.193,-0.208,-0.040,-0.509,26.171,-40.652
15:40:23:058,23.505,-2.505,-0.338,-0.483,7.828,30.859,-43.970
15:40:23:085,23.532,-2.422,-0.407,-0.465,14.622,33.055,-46.359
15:40:23:112,23.560,-2.189,-0.922,-0.004,28.405,34.072,-50.013
15:40:23:139,23.587,-2.052,-0.638,-0.171,37.098,33.920,-52.392
15:40:23:167,23.614,-0.823,-1.448,-0.315,44.385,29.575,-57.824
15:40:23:194,23.641,-0.352,-1.581,-0.419,44.516,26.548,-60.537
15:40:23:221,23.668,-0.022,-1.291,-0.624,39.058,25.450,-60.173
15:40:23:248,23.695,-0.643,-0.940,-0.788,22.900,25.896,-55.047
15:40:23:275,23.722,-0.973,-0.435,-0.780,11.445,27.584,-49.509
15:40:23:302,23.750,-1.178,0.176,-0.253,-1.351,31.947,-39.215
15:40:23:329,23.776,-0.922,0.848,0.964,-11.594,37.003,-28.618
15:40:23:356,23.804,0.090,1.316,1.362,-17.972,38.918,-21.961
15:40:23:383,23.830,2.785,1.665,1.533,-26.600,38.142,-13.073
15:40:23:41,23.858,3.916,0.437,0.778,-30.832,35.376,-7.652
15:40:23:438,23.886,4.286,-1.247,0.430,-32.557,32.076,-3.248
15:40:23:466,23.913,2.717,-0.186,0.471,-32.190,31.944,-3.833
15:40:23:493,23.940,1.831,2.024,-3.945,-29.423,33.259,-10.103
15:40:23:52,23.967,-0.824,-0.946,2.883,-23.704,31.097,-16.296
15:40:23:547,23.994,3.215,-1.387,-1.874,-19.849,25.709,-17.701
15:40:23:574,24.021,-0.890,0.215,-0.476,-18.156,27.575,-22.262
15:40:23:601,24.048,0.052,0.561,0.214,-17.483,28.359,-24.275
15:40:23:629,24.076,-0.243,0.832,-0.334,-15.859,29.427,-27.455
15:40:23:656,24.103,-0.742,0.353,-0.518,-15.623,29.355,-32.113
15:40:23:683,24.130,-0.742,0.353,-0.518,-15.623,29.355,-32.113
15:40:23:71,24.157,-0.008,-0.138,-0.558,-8.500,35.020,-33.837
15:40:23:737,24.184,-0.008,-0.138,-0.558,-8.500,35.020,-33.837
15:40:23:764,24.211,-0.648,-0.146,-0.197,1.067,39.923,-40.490
15:40:23:791,24.239,-2.196,-0.421,-0.127,8.282,42.824,-44.565
15:40:23:819,24.266,-1.677,-0.781,0.034,18.744,44.966,-48.537
15:40:23:846,24.293,-1.829,-0.851,0.125,27.584,45.690,-51.067
15:40:23:873,24.321,-2.156,-0.713,0.946,38.901,45.839,-54.164
15:40:23:901,24.348,-0.947,-1.394,-0.002,43.462,43.527,-56.988
15:40:23:928,24.376,-0.502,-1.646,0.042,43.060,41.088,-59.032
15:40:23:956,24.403,-0.560,-1.150,-0.273,34.265,41.376,-57.589
15:40:23:983,24.430,-0.715,-1.026,-0.325,24.306,42.503,-54.122
15:40:24:01,24.457,-1.312,-0.435,0.066,8.663,45.865,-46.013
15:40:24:037,24.484,-1.430,-0.008,0.364,-0.069,48.848,-39.787
15:40:24:064,24.511,-1.430,-0.008,0.364,-0.069,48.848,-39.787
15:40:24:091,24.539,0.968,1.809,1.576,-21.200,57.621,-22.482
15:40:24:118,24.565,2.691,1.468,1.040,-26.168,59.827,-16.900
15:40:24:145,24.593,2.691,1.468,1.040,-26.168,59.827,-16.900
15:40:24:173,24.621,2.691,1.468,1.040,-26.168,59.827,-16.900
15:40:24:201,24.648,2.691,1.468,1.040,-26.168,59.827,-16.900
15:40:24:227,24.675,1.228,2.266,1.073,-32.327,64.010,-9.281
15:40:24:255,24.702,-0.431,-0.571,1.450,-27.007,61.445,-15.075
15:40:24:282,24.729,1.406,0.318,-1.653,-23.766,56.515,-18.522
15:40:24:309,24.757,-0.664,-0.114,0.159,-21.614,57.843,-20.957
15:40:24:336,24.783,0.017,0.272,-0.101,-19.770,58.107,-23.901
15:40:24:363,24.811,0.043,0.007,0.038,-18.837,58.910,-25.452
15:40:24:39,24.837,-0.573,0.480,0.213,-17.805,61.350,-31.043
15:40:24:417,24.865,-0.573,0.480,0.213,-17.805,61.350,-31.043
15:40:24:445,24.893,-0.821,0.150,0.157,-14.695,65.610,-34.149
15:40:24:473,24.920,-0.442,-0.081,0.232,-11.893,67.916,-35.668
15:40:24:499,24.947,-1.144,0.026,0.689,0.943,75.397,-44.927
15:40:24:527,24.974,-1.144,0.026,0.689,0.943,75.397,-44.927
15:40:24:554,25.001,-1.517,-0.923,0.757,20.243,78.412,-54.019
15:40:24:581,25.028,-1.517,-0.923,0.757,20.243,78.412,-54.019
15:40:24:609,25.057,-0.640,-1.273,0.295,32.969,78.636,-58.858
15:40:24:636,25.084,-0.576,-1.485,0.532,32.216,78.877,-58.731
15:40:24:663,25.110,-0.440,-1.187,0.199,26.549,81.594,-56.435
15:40:24:69,25.138,-0.683,-0.847,0.587,15.426,85.648,-50.866
15:40:24:718,25.165,-0.705,-0.515,0.739,7.806,89.320,-46.223
15:40:24:745,25.192,-0.492,-0.116,1.239,-2.012,96.013,-38.293
15:40:24:772,25.219,0.042,0.535,1.378,-7.795,101.004,-33.231
15:40:24:799,25.246,1.517,0.913,0.556,-15.761,108.105,-26.703
15:40:24:826,25.273,1.517,0.913,0.556,-15.761,108.105,-26.703
15:40:24:853,25.301,2.437,0.774,-2.694,-27.097,114.217,-16.357
15:40:24:88,25.328,2.437,0.774,-2.694,-27.097,114.217,-16.357
15:40:24:908,25.355,2.437,0.774,-2.694,-27.097,114.217,-16.357
15:40:24:935,25.382,2.337,1.888,3.632,-27.426,112.431,-14.297
15:40:24:962,25.409,-0.165,-0.056,-0.867,-21.723,111.502,-14.023
15:40:24:99,25.437,0.271,-0.174,-0.269,-21.431,111.598,-19.029
15:40:25:017,25.465,0.666,-0.432,0.498,-17.015,112.914,-22.209
15:40:25:045,25.492,0.666,-0.432,0.498,-17.015,112.914,-22.209
15:40:25:071,25.519,0.367,0.535,0.701,-15.331,113.864,-26.671
15:40:25:099,25.546,-0.290,1.086,0.538,-15.639,114.009,-31.397
15:40:25:125,25.573,-0.290,1.086,0.538,-15.639,114.009,-31.397
15:40:25:153,25.600,0.013,-0.140,0.834,-13.204,116.396,-34.607
15:40:25:18,25.628,0.013,-0.140,0.834,-13.204,116.396,-34.607
15:40:25:208,25.655,0.491,-0.418,0.700,-8.906,118.244,-37.253
15:40:25:234,25.682,0.221,0.070,0.578,0.952,118.721,-45.077
15:40:25:262,25.710,-0.268,-0.242,0.856,5.169,117.749,-48.477
15:40:25:29,25.737,-0.741,0.800,0.500,12.289,118.728,-53.575
15:40:25:316,25.764,-0.129,-0.630,2.960,22.351,122.355,-55.357
15:40:25:344,25.792,-0.129,-0.630,2.960,22.351,122.355,-55.357
15:40:25:371,25.818,-0.228,-1.443,1.061,31.703,122.718,-55.138
15:40:25:398,25.846,-0.287,-1.466,0.252,30.054,123.453,-53.044
15:40:25:425,25.872,-0.423,-1.245,0.693,21.417,125.420,-47.730
15:40:25:452,25.900,-0.463,-0.741,0.741,10.795,128.431,-40.631
15:40:25:48,25.927,-0.475,-0.318,0.932,4.023,130.911,-35.451
15:40:25:507,25.954,-0.177,0.126,0.724,-5.340,134.653,-27.161
15:40:25:535,25.982,0.128,0.959,0.412,-11.583,137.316,-21.340
15:40:25:562,26.009,0.610,1.240,-1.694,-19.594,141.009,-13.225
15:40:25:589,26.036,0.672,0.508,-3.393,-23.972,143.079,-8.916
15:40:25:616,26.063,0.211,-0.601,-3.805,-28.094,144.433,-4.578
15:40:25:643,26.091,-0.687,-0.016,-4.665,-27.523,144.186,-4.721
15:40:25:67,26.117,-0.687,-0.016,-4.665,-27.523,144.186,-4.721
15:40:25:697,26.144,1.891,2.194,-1.216,-24.896,140.536,-9.013
15:40:25:724,26.172,0.547,1.016,-0.518,-17.086,136.434,-12.665
15:40:25:751,26.198,0.350,-0.310,-0.157,-13.992,138.135,-16.031
15:40:25:778,26.226,0.168,0.308,0.032,-11.161,138.280,-19.257
15:40:25:806,26.253,0.168,0.308,0.032,-11.161,138.280,-19.257
15:40:25:832,26.280,-0.157,0.263,0.312,-11.350,138.524,-22.758
15:40:25:86,26.307,-0.157,0.263,0.312,-11.350,138.524,-22.758
15:40:25:887,26.334,-0.610,0.331,0.860,-10.195,138.959,-26.533
15:40:25:914,26.362,-0.083,0.076,0.357,-6.911,141.732,-29.026
15:40:25:941,26.388,0.563,-0.463,1.366,2.161,148.084,-36.021
15:40:25:968,26.416,0.563,-0.463,1.366,2.161,148.084,-36.021
15:40:25:996,26.443,0.563,-0.463,1.366,2.161,148.084,-36.021
15:40:26:023,26.470,1.246,-0.800,1.892,16.295,152.310,-45.257
15:40:26:051,26.498,0.098,-0.907,0.556,18.852,150.853,-47.041
15:40:26:077,26.525,0.098,-0.907,0.556,18.852,150.853,-47.041
15:40:26:105,26.552,0.098,-0.907,0.556,18.852,150.853,-47.041
15:40:26:132,26.579,0.098,-0.907,0.556,18.852,150.853,-47.041
15:40:26:159,26.607,0.098,-0.907,0.556,18.852,150.853,-47.041
15:40:26:187,26.634,1.954,0.037,-0.200,-5.363,174.592,-34.172
15:40:26:214,26.661,1.658,0.347,-0.803,-12.832,-177.129,-28.398
15:40:26:241,26.689,0.972,0.428,-1.611,-17.212,-171.703,-24.169
15:40:26:268,26.716,-0.065,0.458,-2.776,-22.600,-164.390,-17.154
15:40:26:295,26.743,-1.590,0.880,-2.615,-26.116,-163.308,-12.978
15:40:26:323,26.770,-3.167,-0.110,-1.730,-29.727,-166.580,-7.220
15:40:26:35,26.797,-3.167,-0.110,-1.730,-29.727,-166.580,-7.220
15:40:26:377,26.825,-3.167,-0.110,-1.730,-29.727,-166.580,-7.220
15:40:26:405,26.852,-3.167,-0.110,-1.730,-29.727,-166.580,-7.220
15:40:26:431,26.879,-3.136,-0.026,-0.621,-30.428,-169.006,-5.415
15:40:26:459,26.906,-3.136,-0.026,-0.621,-30.428,-169.006,-5.415
15:40:26:485,26.933,-0.223,-0.611,-0.833,-22.587,-167.763,-11.691
15:40:26:513,26.960,-0.451,0.670,0.142,-14.495,-165.173,-18.439
15:40:26:541,26.988,0.965,0.860,-0.399,-15.295,-164.183,-21.274
15:40:26:567,27.015,0.965,0.860,-0.399,-15.295,-164.183,-21.274
15:40:26:595,27.042,0.965,0.860,-0.399,-15.295,-164.183,-21.274
15:40:26:622,27.069,0.368,0.805,0.342,-15.571,-164.483,-25.784
15:40:26:649,27.096,0.601,0.048,0.417,-12.249,-161.879,-28.932
15:40:26:676,27.123,0.601,0.048,0.417,-12.249,-161.879,-28.932
15:40:26:703,27.150,1.016,-0.047,-0.214,-4.054,-155.484,-35.413
15:40:26:731,27.178,1.660,0.076,0.302,2.397,-153.278,-40.912
15:40:26:758,27.206,1.668,-0.275,0.175,7.674,-153.885,-44.850
15:40:26:786,27.233,1.598,-0.481,0.723,17.246,-155.906,-51.003
15:40:26:813,27.260,0.505,-1.420,0.343,24.626,-158.742,-54.868
15:40:26:84,27.287,0.505,-1.420,0.343,24.626,-158.742,-54.868
15:40:26:867,27.315,0.752,-0.927,0.198,12.520,-153.966,-43.938
15:40:26:894,27.341,0.928,-0.529,-0.029,6.927,-150.905,-37.475
15:40:26:921,27.369,0.928,-0.529,-0.029,6.927,-150.905,-37.475
15:40:26:948,27.396,-0.596,0.775,-1.119,-9.825,-142.024,-18.253
15:40:26:976,27.423,-0.596,0.775,-1.119,-9.825,-142.024,-18.253
15:40:27:002,27.450,-0.596,0.775,-1.119,-9.825,-142.024,-18.253
15:40:27:03,27.477,-3.977,0.950,-0.491,-22.653,-143.863,-4.048
15:40:27:057,27.505,-3.977,0.950,-0.491,-22.653,-143.863,-4.048
15:40:27:084,27.531,-1.601,-1.502,0.650,-24.199,-145.523,1.498
15:40:27:111,27.559,0.452,1.936,-1.139,-23.607,-148.473,-4.865
15:40:27:139,27.586,0.452,1.936,-1.139,-23.607,-148.473,-4.865
15:40:27:165,27.613,-1.076,-0.039,0.270,-19.201,-147.298,-9.361
15:40:27:193,27.640,-0.032,0.103,-0.215,-16.255,-147.716,-10.338
15:40:27:22,27.667,-0.366,0.381,-0.260,-14.548,-148.036,-10.907
15:40:27:247,27.695,0.254,0.638,-0.295,-13.290,-147.899,-13.436
15:40:27:274,27.721,0.800,1.767,-0.098,-14.302,-148.692,-18.367
15:40:27:301,27.749,0.252,0.238,0.656,-12.235,-149.692,-18.981
15:40:27:329,27.776,0.425,0.178,-0.393,-6.868,-145.592,-22.576
15:40:27:355,27.803,0.425,0.178,-0.393,-6.868,-145.592,-22.576
15:40:27:383,27.830,1.530,-0.073,-0.064,3.975,-144.627,-32.020
15:40:27:409,27.857,1.530,-0.073,-0.064,3.975,-144.627,-32.020
15:40:27:436,27.884,1.530,-0.073,-0.064,3.975,-144.627,-32.020
15:40:27:464,27.911,1.942,-0.380,0.409,13.727,-149.419,-42.815
15:40:27:491,27.939,1.942,-0.380,0.409,13.727,-149.419,-42.815
15:40:27:519,27.966,1.942,-0.380,0.409,13.727,-149.419,-42.815
15:40:27:545,27.993,0.407,-1.307,0.320,18.992,-156.120,-49.917
15:40:27:573,28.020,0.217,-1.330,0.290,14.029,-155.914,-46.754
15:40:27:599,28.047,0.252,-1.067,0.320,6.818,-154.492,-40.520
15:40:27:627,28.074,0.252,-1.067,0.320,6.818,-154.492,-40.520
15:40:27:654,28.101,0.648,0.441,-0.405,-10.731,-146.395,-20.687
15:40:27:681,28.128,0.648,0.441,-0.405,-10.731,-146.395,-20.687
15:40:27:708,28.155,0.648,0.441,-0.405,-10.731,-146.395,-20.687
15:40:27:735,28.182,-4.202,0.226,-1.013,-30.641,-142.166,-1.121
15:40:27:762,28.210,-4.117,-0.807,-0.224,-32.841,-142.975,2.793
15:40:27:79,28.237,-2.983,-1.252,-0.394,-32.290,-143.003,2.620
15:40:27:816,28.264,-2.983,-1.252,-0.394,-32.290,-143.003,2.620
15:40:27:844,28.291,2.909,1.475,1.735,-31.474,-143.199,-0.588
15:40:27:87,28.318,0.818,-1.806,0.167,-27.100,-145.199,-5.547
15:40:27:898,28.345,-0.222,-0.006,-0.001,-20.220,-144.524,-10.970
15:40:27:925,28.373,-0.222,-0.006,-0.001,-20.220,-144.524,-10.970
15:40:27:953,28.401,-0.325,0.254,-0.194,-18.569,-143.675,-11.677
15:40:27:981,28.428,-0.129,0.414,-0.194,-17.112,-142.484,-13.489
15:40:28:007,28.455,0.572,0.970,0.127,-16.001,-141.320,-18.318
15:40:28:035,28.482,0.572,0.970,0.127,-16.001,-141.320,-18.318
15:40:28:063,28.510,1.031,0.210,0.781,-14.229,-142.194,-22.001
15:40:28:09,28.537,-0.469,-0.236,0.436,-10.314,-139.926,-23.941
15:40:28:117,28.564,-0.469,-0.236,0.436,-10.314,-139.926,-23.941
15:40:28:145,28.592,0.998,0.260,-0.296,3.716,-135.313,-37.343
15:40:28:172,28.619,1.823,-0.559,0.095,6.097,-137.082,-41.935
15:40:28:199,28.646,1.823,-0.559,0.095,6.097,-137.082,-41.935
15:40:28:226,28.674,1.823,-0.559,0.095,6.097,-137.082,-41.935
15:40:28:254,28.701,1.823,-0.559,0.095,6.097,-137.082,-41.935
15:40:28:281,28.728,1.120,-1.359,-0.423,23.849,-139.651,-54.344
15:40:28:308,28.755,1.120,-1.359,-0.423,23.849,-139.651,-54.344
15:40:28:335,28.782,0.642,-0.680,0.647,4.752,-143.926,-45.818
15:40:28:362,28.809,0.833,-0.510,0.603,-1.582,-143.134,-39.624
15:40:28:389,28.836,0.833,-0.510,0.603,-1.582,-143.134,-39.624
15:40:28:416,28.863,0.397,1.118,-0.575,-15.412,-136.308,-23.455
15:40:28:443,28.890,0.397,1.118,-0.575,-15.412,-136.308,-23.455
15:40:28:47,28.917,-3.549,1.109,-0.841,-30.785,-128.415,-10.797
15:40:28:497,28.945,-3.549,1.109,-0.841,-30.785,-128.415,-10.797
15:40:28:525,28.972,-3.437,-1.413,1.015,-40.034,-123.227,-3.627
15:40:28:552,28.999,-2.931,-0.521,0.226,-40.355,-120.192,-6.189
15:40:28:579,29.026,1.127,2.240,-3.401,-39.172,-118.374,-9.369
15:40:28:607,29.054,1.127,2.240,-3.401,-39.172,-118.374,-9.369
15:40:28:634,29.081,1.127,2.240,-3.401,-39.172,-118.374,-9.369
15:40:28:661,29.109,0.383,0.419,-0.409,-29.491,-123.727,-22.259
15:40:28:689,29.136,-0.384,0.275,-0.170,-27.020,-124.195,-21.496
15:40:28:716,29.164,-0.384,0.275,-0.170,-27.020,-124.195,-21.496
15:40:28:744,29.191,-0.384,0.275,-0.170,-27.020,-124.195,-21.496
15:40:28:771,29.218,-0.384,0.275,-0.170,-27.020,-124.195,-21.496
15:40:28:798,29.245,0.296,1.166,-1.293,-26.779,-122.613,-28.002
15:40:28:825,29.273,0.269,0.246,-0.606,-22.651,-115.759,-38.033
15:40:28:852,29.300,0.545,0.336,-0.772,-20.083,-113.645,-41.338
15:40:28:879,29.326,0.545,0.336,-0.772,-20.083,-113.645,-41.338
15:40:28:907,29.354,0.545,0.336,-0.772,-20.083,-113.645,-41.338
15:40:28:934,29.381,0.545,0.336,-0.772,-20.083,-113.645,-41.338
15:40:28:961,29.408,0.545,0.336,-0.772,-20.083,-113.645,-41.338
15:40:28:988,29.436,1.178,-1.219,-1.370,9.772,-108.684,-61.872
15:40:29:015,29.462,1.178,-1.219,-1.370,9.772,-108.684,-61.872
15:40:29:042,29.490,0.308,-1.202,-0.471,11.201,-104.133,-63.961
15:40:29:069,29.516,0.358,-0.600,-1.058,-7.589,-91.036,-51.703
15:40:29:097,29.544,0.252,-0.208,-1.078,-13.122,-86.199,-46.863
15:40:29:124,29.571,-0.065,0.225,-1.009,-19.783,-77.859,-39.931
15:40:29:151,29.598,-0.065,0.225,-1.009,-19.783,-77.859,-39.931
15:40:29:178,29.625,-0.065,0.225,-1.009,-19.783,-77.859,-39.931
15:40:29:206,29.653,-1.974,0.694,0.549,-28.504,-63.609,-30.120
15:40:29:233,29.680,-1.974,0.694,0.549,-28.504,-63.609,-30.120
15:40:29:26,29.707,-0.742,-0.591,3.696,-34.262,-57.392,-25.244
15:40:29:287,29.734,-0.742,-0.591,3.696,-34.262,-57.392,-25.244
15:40:29:314,29.761,-0.742,-0.591,3.696,-34.262,-57.392,-25.244
15:40:29:341,29.788,-0.742,-0.591,3.696,-34.262,-57.392,-25.244
15:40:29:369,29.816,-0.742,-0.591,3.696,-34.262,-57.392,-25.244
15:40:29:396,29.843,-0.047,-0.269,0.031,-21.725,-62.281,-28.287
15:40:29:423,29.870,-0.276,0.273,-0.067,-18.038,-62.429,-31.184
15:40:29:45,29.898,-0.282,0.655,-0.966,-20.587,-61.163,-36.862
15:40:29:478,29.925,0.229,0.866,-1.001,-22.793,-61.187,-41.631
15:40:29:505,29.952,0.229,0.866,-1.001,-22.793,-61.187,-41.631
15:40:29:533,29.980,0.229,0.866,-1.001,-22.793,-61.187,-41.631
15:40:29:56,30.007,0.182,-0.035,-0.188,-9.317,-56.953,-46.538
15:40:29:587,30.034,0.077,-0.558,-1.059,-2.283,-55.102,-50.298
15:40:29:614,30.061,0.590,0.013,-1.305,4.431,-53.530,-53.232
15:40:29:641,30.089,-0.074,-0.855,-1.845,27.301,-50.447,-59.181
15:40:29:669,30.116,-0.074,-0.855,-1.845,27.301,-50.447,-59.181
15:40:29:696,30.143,-0.420,-0.907,-2.347,40.723,-50.508,-62.245
15:40:29:723,30.170,0.356,-1.660,-0.283,43.772,-52.208,-65.820
15:40:29:75,30.197,0.233,-1.254,-0.388,32.227,-48.589,-63.198
15:40:29:777,30.224,0.306,-0.780,-1.096,20.202,-44.916,-59.113
15:40:29:805,30.252,-0.184,-0.501,-1.275,3.206,-37.868,-51.197
15:40:29:832,30.280,-0.184,-0.501,-1.275,3.206,-37.868,-51.197
15:40:29:86,30.307,-0.184,-0.501,-1.275,3.206,-37.868,-51.197
15:40:29:887,30.334,-0.184,-0.501,-1.275,3.206,-37.868,-51.197
15:40:29:915,30.363,-0.184,-0.501,-1.275,3.206,-37.868,-51.197
15:40:29:942,30.389,-0.184,-0.501,-1.275,3.206,-37.868,-51.197
15:40:29:97,30.417,-0.184,-0.501,-1.275,3.206,-37.868,-51.197
15:40:29:997,30.444,-1.070,0.362,-1.069,-8.440,-29.703,-43.147
15:40:30:024,30.471,-1.070,0.362,-1.069,-8.440,-29.703,-43.147
15:40:30:051,30.498,-1.624,0.658,-0.230,-13.848,-23.654,-38.019
15:40:30:078,30.525,1.137,-0.367,2.993,-32.064,-13.781,-22.800
15:40:30:106,30.553,1.195,-2.940,0.504,-22.787,-18.905,-26.063
15:40:30:133,30.580,-0.026,0.149,0.216,-15.365,-20.901,-31.480
15:40:30:16,30.608,-0.806,0.527,0.021,-14.829,-21.128,-33.804
15:40:30:187,30.635,-0.502,0.338,-1.003,-16.528,-20.865,-37.230
15:40:30:215,30.662,-0.692,0.339,-1.359,-21.345,-20.022,-43.729
15:40:30:242,30.690,-0.875,0.003,-1.675,-18.819,-18.665,-44.109
15:40:30:271,30.719,-0.875,0.003,-1.675,-18.819,-18.665,-44.109
15:40:30:298,30.745,-0.321,-0.632,-0.952,1.132,-12.641,-51.906
15:40:30:325,30.773,-0.321,-0.632,-0.952,1.132,-12.641,-51.906
15:40:30:353,30.800,-2.324,-0.650,-2.076,21.014,-7.171,-59.911
15:40:30:379,30.827,-2.324,-0.650,-2.076,21.014,-7.171,-59.911
15:40:30:407,30.854,-1.768,-1.049,-1.124,37.522,-7.485,-63.829
15:40:30:433,30.881,-0.606,-1.390,-0.397,56.867,-12.042,-71.375
15:40:30:461,30.908,-0.008,-1.427,-0.199,56.428,-12.839,-72.503
15:40:30:488,30.935,0.186,-1.021,-0.134,49.642,-11.780,-70.532
15:40:30:515,30.962,-0.463,-1.022,-0.532,31.915,-6.835,-63.341
15:40:30:542,30.989,-1.032,-0.859,-0.305,19.957,-2.784,-56.630
15:40:30:569,31.016,-1.248,-0.355,-0.134,5.822,3.308,-46.955
15:40:30:596,31.043,-1.248,-0.355,-0.134,5.822,3.308,-46.955
15:40:30:623,31.071,-0.179,0.909,1.299,-11.250,12.123,-30.807
15:40:30:65,31.098,1.292,2.265,2.081,-19.039,14.719,-21.318
15:40:30:677,31.124,3.517,1.076,1.962,-22.812,13.890,-16.117
15:40:30:704,31.152,3.269,-0.293,1.740,-25.051,12.724,-11.978
15:40:30:732,31.179,1.879,0.154,1.038,-24.676,14.295,-12.636
15:40:30:759,31.206,2.310,1.888,-1.913,-21.347,16.988,-17.835
15:40:30:787,31.234,0.353,-1.432,0.958,-16.421,15.714,-19.393
15:40:30:814,31.261,1.471,-0.315,-1.915,-14.100,13.114,-22.474
15:40:30:841,31.288,0.879,0.710,-0.321,-11.741,13.201,-25.722
15:40:30:868,31.315,-0.580,0.060,0.448,-10.153,13.995,-27.374
15:40:30:895,31.343,-0.819,0.809,-0.167,-6.783,14.495,-30.189
15:40:30:923,31.370,-0.787,1.147,-1.120,-7.631,14.180,-35.403
15:40:30:95,31.397,-1.085,-0.220,-0.790,-6.111,14.104,-36.514
15:40:30:977,31.424,-0.553,0.192,0.216,-1.229,16.274,-37.143
15:40:31:006,31.453,-0.026,0.470,-0.600,2.253,17.339,-38.330
15:40:31:032,31.480,-0.026,0.470,-0.600,2.253,17.339,-38.330
15:40:31:06,31.507,-1.559,-1.272,-0.507,30.272,27.632,-49.040
15:40:31:086,31.534,-1.660,-1.048,-0.342,37.671,28.886,-50.938
15:40:31:114,31.561,-2.427,-0.504,-0.022,47.117,28.206,-53.867
15:40:31:141,31.588,-1.127,-1.120,-0.119,49.824,24.387,-57.509
15:40:31:169,31.616,-1.127,-1.120,-0.119,49.824,24.387,-57.509
15:40:31:196,31.643,-0.615,-1.394,-0.374,48.197,21.636,-59.647
15:40:31:223,31.670,-0.321,-0.974,-0.636,37.879,21.358,-56.200
15:40:31:25,31.698,-0.980,-0.503,-0.389,17.136,27.641,-41.584
15:40:31:278,31.725,-1.388,-0.097,0.190,10.208,31.287,-34.836
15:40:31:305,31.752,-0.999,0.572,0.505,0.059,35.568,-26.023
15:40:31:332,31.779,0.577,1.020,1.273,-6.435,36.507,-20.707
15:40:31:359,31.807,1.944,1.797,1.277,-15.630,35.419,-13.033
15:40:31:386,31.834,4.212,0.130,0.284,-20.878,30.979,-6.319
15:40:31:414,31.861,3.962,-0.610,0.216,-21.767,29.680,-3.705
15:40:31:442,31.889,3.962,-0.610,0.216,-21.767,29.680,-3.705
15:40:31:469,31.916,3.962,-0.610,0.216,-21.767,29.680,-3.705
15:40:31:496,31.943,-0.631,-1.873,1.469,-9.044,30.636,-12.446
15:40:31:524,31.971,0.399,1.788,1.704,-7.520,28.368,-15.745
15:40:31:55,31.998,0.077,0.423,-0.467,-5.884,28.533,-16.532
15:40:31:578,32.025,-0.047,0.229,0.271,-2.209,28.494,-17.411
15:40:31:605,32.052,-0.415,0.690,0.076,-2.664,28.551,-19.708
15:40:31:632,32.080,-1.704,2.269,0.231,-5.754,28.437,-25.175
15:40:31:66,32.107,-1.462,-0.160,-0.715,-4.575,28.308,-26.017
15:40:31:687,32.135,-0.536,0.445,0.029,-0.969,31.121,-26.777
15:40:31:714,32.161,0.028,-0.012,-0.718,4.220,33.618,-29.630
15:40:31:741,32.189,-1.629,-0.891,-0.140,13.387,38.031,-34.574
15:40:31:768,32.215,-1.629,-0.891,-0.140,13.387,38.031,-34.574
15:40:31:795,32.243,-1.479,-0.975,-0.096,25.415,41.537,-38.250
15:40:31:823,32.271,-1.407,-0.832,-0.063,32.800,41.774,-41.422
15:40:31:85,32.297,-2.214,-0.363,0.243,36.944,41.501,-43.485
15:40:31:877,32.325,-1.769,-0.955,-0.144,39.765,38.526,-46.523
15:40:31:905,32.353,-0.768,-1.153,-0.374,39.318,36.208,-48.155
15:40:31:933,32.380,-0.710,-1.056,-0.433,33.468,35.831,-47.165
15:40:31:96,32.408,-0.897,-0.835,-0.459,27.535,36.580,-43.966
15:40:31:987,32.434,-1.176,-0.537,-0.345,16.399,39.612,-36.645
15:40:32:014,32.462,-1.450,0.156,-0.151,5.857,43.804,-28.390
15:40:32:041,32.489,-1.361,0.675,0.062,-0.801,46.742,-23.532
15:40:32:069,32.516,0.468,1.579,0.478,-10.857,50.718,-17.160
15:40:32:096,32.543,2.002,0.953,1.897,-17.112,53.842,-12.029
15:40:32:123,32.570,2.002,0.953,1.897,-17.112,53.842,-12.029
15:40:32:15,32.598,2.002,0.953,1.897,-17.112,53.842,-12.029
15:40:32:178,32.625,3.123,-0.990,1.326,-29.163,55.392,0.327
15:40:32:205,32.652,3.053,1.433,-2.415,-27.428,52.063,-2.777
15:40:32:233,32.680,3.053,1.433,-2.415,-27.428,52.063,-2.777
15:40:32:259,32.707,1.983,-0.630,-1.664,-15.995,47.175,-11.911
15:40:32:287,32.734,0.239,-0.565,-0.007,-16.614,46.109,-13.886
15:40:32:315,32.762,-0.066,0.093,-0.018,-13.085,46.773,-16.310
15:40:32:342,32.789,0.013,0.165,0.117,-10.832,47.295,-17.538
15:40:32:37,32.817,-0.835,1.438,0.355,-13.022,49.618,-23.525
15:40:32:396,32.844,-0.835,1.438,0.355,-13.022,49.618,-23.525
15:40:32:424,32.871,-1.064,0.293,-0.137,-11.173,53.305,-28.187
15:40:32:45,32.898,-0.345,-0.168,-0.040,-7.307,57.668,-30.667
15:40:32:478,32.926,-0.852,0.169,-0.017,-4.390,60.484,-33.511
15:40:32:505,32.953,-1.590,0.149,0.448,1.688,64.709,-38.397
15:40:32:532,32.980,-2.055,0.081,0.397,7.714,67.504,-41.814
15:40:32:56,33.007,-1.671,-1.070,1.494,19.138,71.901,-44.768
15:40:32:587,33.035,-1.072,-1.112,1.530,30.305,74.876,-46.001
15:40:32:615,33.062,-0.308,-1.449,0.529,33.474,74.432,-47.750
15:40:32:641,33.089,-0.644,-1.406,0.421,31.030,74.205,-48.344
15:40:32:669,33.116,-0.556,-1.078,-0.077,25.945,74.865,-47.824
15:40:32:695,33.143,-0.711,-0.691,0.473,15.777,77.979,-43.123
15:40:32:723,33.170,-0.464,-0.463,1.289,9.150,81.136,-38.043
15:40:32:75,33.197,-0.355,0.160,1.440,-0.050,86.537,-29.591
15:40:32:778,33.226,0.338,0.939,1.107,-8.237,92.808,-21.922
15:40:32:805,33.252,1.396,1.184,0.499,-13.487,96.975,-16.823
15:40:32:833,33.280,2.547,1.408,-1.428,-21.521,99.396,-9.563
15:40:32:86,33.307,2.719,0.310,-2.784,-25.083,98.738,-5.943
15:40:32:887,33.334,2.165,0.049,-2.968,-26.509,98.691,-3.668
15:40:32:914,33.361,2.165,0.049,-2.968,-26.509,98.691,-3.668
15:40:32:942,33.389,2.165,0.049,-2.968,-26.509,98.691,-3.668
15:40:32:969,33.416,-0.714,-1.144,-1.013,-18.248,99.425,-10.517
15:40:32:996,33.443,0.248,-0.611,-0.464,-17.933,99.138,-12.251
15:40:33:023,33.470,-0.260,0.214,-0.334,-15.359,98.928,-14.008
15:40:33:05,33.497,-0.280,0.061,-0.092,-11.961,100.257,-16.397
15:40:33:077,33.524,-0.045,0.643,0.583,-11.836,101.502,-20.055
15:40:33:104,33.552,-0.045,0.643,0.583,-11.836,101.502,-20.055
15:40:33:131,33.579,-0.618,0.339,0.427,-10.300,103.339,-25.825
15:40:33:158,33.605,-0.618,0.339,0.427,-10.300,103.339,-25.825
15:40:33:185,33.633,-0.738,0.291,0.561,-9.336,105.116,-26.913
15:40:33:213,33.660,-0.089,-0.185,0.706,-2.830,110.201,-31.159
15:40:33:24,33.687,-0.089,-0.185,0.706,-2.830,110.201,-31.159
15:40:33:267,33.715,-0.089,-0.185,0.706,-2.830,110.201,-31.159
15:40:33:295,33.742,-1.348,-0.447,2.576,25.308,116.666,-49.960
15:40:33:322,33.769,-0.456,-1.774,0.993,29.003,116.133,-51.230
15:40:33:349,33.796,-0.509,-1.721,0.859,32.650,117.601,-51.134
15:40:33:376,33.823,-0.138,-1.697,0.553,29.585,120.710,-47.714
15:40:33:403,33.850,-0.165,-1.523,0.760,23.786,122.831,-43.536
15:40:33:43,33.877,-0.002,-0.537,1.060,12.189,127.062,-36.903
15:40:33:457,33.905,-0.002,-0.537,1.060,12.189,127.062,-36.903
15:40:33:485,33.932,0.317,0.002,1.179,4.685,129.851,-31.623
15:40:33:511,33.959,0.317,0.002,1.179,4.685,129.851,-31.623
15:40:33:539,33.986,1.598,0.802,-2.263,-18.994,141.203,-8.677
15:40:33:565,34.013,0.570,0.468,-4.059,-24.756,141.609,-1.790
15:40:33:593,34.040,0.570,0.468,-4.059,-24.756,141.609,-1.790
15:40:33:62,34.067,-1.201,1.576,-3.853,-23.776,139.581,-1.076
15:40:33:647,34.094,0.950,-2.217,-0.982,-21.295,139.990,-2.643
15:40:33:674,34.121,-1.431,-0.713,-1.474,-15.072,140.602,-4.352
15:40:33:701,34.148,-1.431,-0.713,-1.474,-15.072,140.602,-4.352
15:40:33:729,34.176,-0.376,0.509,-0.291,-10.869,141.878,-7.415
15:40:33:755,34.203,-0.048,0.043,-0.188,-7.796,142.625,-8.135
15:40:33:783,34.230,0.221,0.518,-0.078,-6.310,143.034,-9.065
15:40:33:81,34.257,0.068,0.593,0.339,-6.091,143.223,-11.886
15:40:33:837,34.284,0.454,2.399,0.703,-8.931,142.301,-17.950
15:40:33:864,34.311,-1.004,0.232,0.275,-8.201,140.565,-19.381
15:40:33:891,34.339,-0.552,-0.092,0.388,-5.706,142.152,-20.019
15:40:33:919,34.366,-0.573,-0.160,0.004,-2.597,144.089,-21.430
15:40:33:946,34.393,-0.589,-0.187,0.877,2.202,147.557,-24.215
15:40:33:973,34.420,0.491,-0.204,1.686,13.769,154.852,-29.272
15:40:34:,34.447,1.003,-0.125,1.736,20.562,155.725,-33.467
15:40:34:027,34.475,1.003,-0.125,1.736,20.562,155.725,-33.467
15:40:34:055,34.503,1.310,-0.164,2.314,24.028,154.258,-37.174
15:40:34:082,34.529,0.077,-0.852,0.677,23.489,147.822,-46.222
15:40:34:109,34.556,0.077,-0.852,0.677,23.489,147.822,-46.222
15:40:34:137,34.584,0.077,-0.852,0.677,23.489,147.822,-46.222
15:40:34:164,34.611,0.077,-0.852,0.677,23.489,147.822,-46.222
15:40:34:191,34.638,0.077,-0.852,0.677,23.489,147.822,-46.222
15:40:34:218,34.665,0.077,-0.852,0.677,23.489,147.822,-46.222
15:40:34:245,34.692,2.079,0.551,-1.531,-19.966,173.175,-16.852
15:40:34:272,34.720,0.113,0.948,-2.377,-27.120,176.391,-8.310
15:40:34:3,34.748,-2.441,0.133,-2.271,-30.510,176.744,-2.654
15:40:34:328,34.775,-1.821,-1.180,-2.656,-34.469,176.941,4.181
15:40:34:355,34.802,-3.945,-0.943,-0.842,-35.621,177.830,5.977
15:40:34:382,34.829,-4.009,1.734,-0.830,-33.764,179.326,3.079
15:40:34:41,34.857,0.465,-2.296,0.242,-30.929,-179.436,-1.622
15:40:34:437,34.884,0.594,1.845,-0.082,-23.185,-179.835,-5.335
15:40:34:464,34.912,0.594,1.845,-0.082,-23.185,-179.835,-5.335
15:40:34:491,34.938,0.594,1.845,-0.082,-23.185,-179.835,-5.335
15:40:34:518,34.966,0.084,-0.009,-0.046,-19.578,-176.780,-11.023
15:40:34:546,34.993,0.302,0.879,-0.136,-19.593,-176.275,-12.712
15:40:34:573,35.020,0.478,1.082,-0.094,-20.411,-175.019,-16.245
15:40:34:6,35.047,0.489,0.709,0.608,-19.242,-174.806,-18.329
15:40:34:628,35.075,0.236,0.205,1.001,-18.813,-174.208,-19.159
15:40:34:655,35.102,0.422,-0.069,-0.170,-13.344,-169.446,-24.002
15:40:34:682,35.129,0.762,0.070,-0.122,-8.458,-166.923,-29.167
15:40:34:709,35.156,0.762,0.070,-0.122,-8.458,-166.923,-29.167
15:40:34:736,35.183,1.177,0.204,0.564,2.709,-164.370,-38.320
15:40:34:763,35.210,1.177,0.204,0.564,2.709,-164.370,-38.320
15:40:34:791,35.238,1.177,0.204,0.564,2.709,-164.370,-38.320
15:40:34:818,35.265,1.177,0.204,0.564,2.709,-164.370,-38.320
15:40:34:845,35.292,0.476,-1.210,0.440,14.160,-165.024,-44.788
15:40:34:872,35.319,0.476,-1.210,0.440,14.160,-165.024,-44.788
15:40:34:899,35.346,0.397,-1.261,0.458,12.059,-164.884,-42.897
15:40:34:926,35.374,0.397,-1.261,0.458,12.059,-164.884,-42.897
15:40:34:954,35.402,0.397,-1.261,0.458,12.059,-164.884,-42.897
15:40:34:982,35.429,0.397,-1.261,0.458,12.059,-164.884,-42.897
15:40:35:008,35.456,0.746,-0.141,0.169,-5.432,-159.537,-22.954
15:40:35:036,35.484,-3.021,-0.239,-0.966,-28.713,-158.799,2.633
15:40:35:063,35.510,-3.021,-0.239,-0.966,-28.713,-158.799,2.633
15:40:35:09,35.538,-3.021,-0.239,-0.966,-28.713,-158.799,2.633
15:40:35:12,35.567,-3.021,-0.239,-0.966,-28.713,-158.799,2.633
15:40:35:146,35.594,-2.936,0.173,1.356,-30.391,-160.753,6.161
15:40:35:174,35.622,-2.968,-2.196,-0.725,-24.048,-161.699,-2.738
15:40:35:202,35.649,-2.968,-2.196,-0.725,-24.048,-161.699,-2.738
15:40:35:23,35.677,-0.208,-0.187,-0.292,-17.276,-160.940,-6.853
15:40:35:257,35.704,-0.208,-0.187,-0.292,-17.276,-160.940,-6.853
15:40:35:285,35.732,-0.109,0.598,-0.181,-16.905,-160.313,-9.340
15:40:35:311,35.759,0.348,0.510,0.139,-15.942,-162.309,-13.451
15:40:35:339,35.786,0.348,0.510,0.139,-15.942,-162.309,-13.451
15:40:35:366,35.813,0.287,-0.061,0.316,-12.952,-161.101,-15.962
15:40:35:393,35.840,0.200,-0.006,-0.221,-9.036,-157.867,-19.527
15:40:35:42,35.868,0.200,-0.006,-0.221,-9.036,-157.867,-19.527
15:40:35:447,35.895,0.691,0.592,0.300,-0.374,-155.437,-27.849
15:40:35:474,35.921,0.691,0.592,0.300,-0.374,-155.437,-27.849
15:40:35:501,35.949,0.913,-1.516,0.564,15.136,-155.336,-38.296
15:40:35:528,35.975,0.913,-1.516,0.564,15.136,-155.336,-38.296
15:40:35:555,36.003,0.913,-1.516,0.564,15.136,-155.336,-38.296
15:40:35:583,36.031,0.672,-0.939,0.546,9.716,-153.307,-34.581
15:40:35:61,36.057,0.729,-0.466,0.574,1.153,-151.721,-28.724
15:40:35:637,36.085,0.782,0.252,0.239,-4.563,-150.184,-23.993
15:40:35:664,36.111,0.371,0.872,-0.417,-13.119,-147.695,-16.619
15:40:35:692,36.139,-1.426,1.077,-1.097,-21.273,-146.345,-9.282
15:40:35:719,36.166,-1.426,1.077,-1.097,-21.273,-146.345,-9.282
15:40:35:746,36.193,-3.066,-0.498,-0.913,-30.428,-148.571,0.539
15:40:35:773,36.221,-3.066,-0.498,-0.913,-30.428,-148.571,0.539
15:40:35:8,36.247,-3.348,0.597,2.059,-30.090,-151.460,0.996
15:40:35:827,36.275,2.754,2.079,-1.411,-28.015,-155.851,-1.999
15:40:35:854,36.302,-1.287,-2.175,-0.163,-22.259,-154.846,-4.230
15:40:35:882,36.329,0.558,0.262,-0.087,-21.258,-155.615,-7.786
15:40:35:909,36.356,0.239,0.383,-0.669,-22.073,-154.879,-9.986
15:40:35:937,36.384,0.598,1.376,-0.394,-19.658,-153.381,-14.548
15:40:35:963,36.411,0.598,1.376,-0.394,-19.658,-153.381,-14.548
15:40:35:991,36.439,0.238,-0.025,0.404,-17.007,-153.792,-17.452
15:40:36:019,36.466,0.238,-0.025,0.404,-17.007,-153.792,-17.452
15:40:36:046,36.493,0.238,-0.025,0.404,-17.007,-153.792,-17.452
15:40:36:073,36.520,0.489,0.445,-0.013,-9.859,-150.402,-24.387
15:40:36:1,36.548,0.574,0.551,0.027,-4.535,-149.208,-29.424
15:40:36:128,36.575,0.574,0.551,0.027,-4.535,-149.208,-29.424
15:40:36:155,36.602,1.294,0.234,0.426,1.885,-148.623,-34.899
15:40:36:182,36.629,1.365,-1.073,0.399,12.397,-148.082,-40.957
15:40:36:209,36.656,0.799,-1.439,0.433,14.392,-148.311,-41.417
15:40:36:236,36.683,0.751,-1.420,0.310,13.000,-147.277,-40.234
15:40:36:264,36.711,0.603,-1.164,0.372,6.778,-146.377,-36.648
15:40:36:291,36.738,0.723,-0.598,0.521,0.771,-145.666,-33.197
15:40:36:317,36.765,0.691,-0.113,0.270,-8.140,-143.619,-26.621
15:40:36:345,36.792,0.373,0.603,-0.336,-13.510,-141.378,-21.956
15:40:36:372,36.819,0.373,0.603,-0.336,-13.510,-141.378,-21.956
15:40:36:399,36.846,-2.466,0.588,-1.493,-25.451,-134.087,-11.074
15:40:36:426,36.873,-3.353,-0.113,-1.014,-31.449,-132.194,-5.812
15:40:36:453,36.900,-3.002,-0.932,-0.356,-34.718,-132.730,-1.543
15:40:36:48,36.927,-3.801,-0.625,1.218,-34.042,-133.695,-1.527
15:40:36:507,36.954,-0.754,2.042,-2.575,-30.531,-135.773,-3.087
15:40:36:534,36.981,0.420,-1.340,-1.551,-24.087,-134.315,-5.299
15:40:36:561,37.008,0.420,-1.340,-1.551,-24.087,-134.315,-5.299
15:40:36:589,37.036,-0.247,-0.067,0.604,-20.353,-134.571,-9.873
15:40:36:616,37.063,-0.295,0.541,-0.292,-19.520,-133.774,-11.351
15:40:36:643,37.090,-0.175,-0.005,0.009,-16.973,-133.552,-12.693
15:40:36:671,37.118,0.244,0.588,-0.010,-17.311,-133.440,-14.816
15:40:36:698,37.145,0.484,1.242,-0.623,-18.461,-134.008,-19.135
15:40:36:725,37.172,0.471,0.128,0.454,-17.309,-135.065,-20.416
15:40:36:752,37.200,0.570,0.293,-0.251,-11.507,-131.260,-24.842
15:40:36:779,37.226,0.479,0.170,-0.168,-7.529,-129.539,-27.608
15:40:36:806,37.253,0.479,0.170,-0.168,-7.529,-129.539,-27.608
15:40:36:834,37.281,0.479,0.170,-0.168,-7.529,-129.539,-27.608
15:40:36:86,37.308,0.479,0.170,-0.168,-7.529,-129.539,-27.608
15:40:36:888,37.335,1.651,-0.540,-0.619,12.535,-124.231,-39.405
15:40:36:915,37.362,0.731,-1.584,-0.056,15.989,-125.356,-41.867
15:40:36:942,37.389,0.420,-1.285,0.199,10.525,-123.724,-43.485
15:40:36:969,37.416,0.719,-1.079,0.099,4.786,-121.736,-41.360
15:40:36:997,37.444,0.719,-1.079,0.099,4.786,-121.736,-41.360
15:40:37:024,37.471,0.719,-1.079,0.099,4.786,-121.736,-41.360
15:40:37:051,37.499,0.882,-0.513,-0.212,-5.184,-117.421,-36.219
15:40:37:078,37.525,-1.217,0.841,-0.983,-28.282,-100.808,-22.069
15:40:37:105,37.553,-2.070,0.713,-0.689,-32.571,-95.887,-19.313
15:40:37:133,37.580,-2.070,0.713,-0.689,-32.571,-95.887,-19.313
15:40:37:16,37.608,-2.654,-0.517,1.114,-38.665,-89.781,-14.629
15:40:37:188,37.636,-2.289,-0.168,2.779,-38.650,-91.149,-14.234
15:40:37:216,37.663,-0.562,1.651,-2.579,-36.302,-94.842,-13.255
15:40:37:243,37.690,-0.562,1.651,-2.579,-36.302,-94.842,-13.255
15:40:37:27,37.717,-0.632,0.492,0.033,-30.197,-97.109,-16.516
15:40:37:297,37.745,-0.207,-0.193,-0.121,-27.762,-96.809,-16.602
15:40:37:325,37.772,-0.415,0.083,-0.286,-24.620,-96.722,-16.966
15:40:37:352,37.800,-0.415,0.083,-0.286,-24.620,-96.722,-16.966
15:40:37:379,37.826,-0.311,0.264,-0.148,-23.191,-96.173,-19.908
15:40:37:406,37.854,-0.231,1.633,-1.550,-26.576,-95.016,-25.048
15:40:37:433,37.880,0.096,1.595,0.068,-28.296,-95.102,-28.064
15:40:37:46,37.908,0.096,1.595,0.068,-28.296,-95.102,-28.064
15:40:37:488,37.935,-0.155,-0.375,-0.254,-24.732,-90.946,-31.670
15:40:37:515,37.962,-0.257,-0.195,-0.488,-20.206,-87.439,-35.567
15:40:37:542,37.989,-0.257,-0.195,-0.488,-20.206,-87.439,-35.567
15:40:37:569,38.017,-0.257,-0.195,-0.488,-20.206,-87.439,-35.567
15:40:37:597,38.044,0.052,0.065,-0.837,-15.425,-84.830,-40.299
15:40:37:623,38.071,0.623,-1.313,-1.458,11.065,-81.551,-54.311
15:40:37:65,38.097,0.340,-1.314,-0.437,13.081,-78.820,-52.348
15:40:37:678,38.126,0.544,-0.845,-0.377,5.633,-75.122,-48.166
15:40:37:705,38.152,0.568,-0.554,-0.584,-0.332,-72.877,-43.971
15:40:37:731,38.179,0.219,-0.033,-0.846,-8.734,-68.530,-37.242
15:40:37:759,38.206,-0.148,0.207,-1.072,-13.673,-64.953,-32.801
15:40:37:786,38.233,-0.148,0.207,-1.072,-13.673,-64.953,-32.801
15:40:37:813,38.260,-1.647,0.784,1.209,-26.424,-54.395,-21.885
15:40:37:84,38.287,-1.647,0.784,1.209,-26.424,-54.395,-21.885
15:40:37:868,38.315,-1.199,-0.036,3.291,-33.488,-50.528,-15.322
15:40:37:895,38.342,-0.308,0.570,3.844,-33.256,-49.728,-15.480
15:40:37:922,38.369,-0.308,0.570,3.844,-33.256,-49.728,-15.480
15:40:37:949,38.396,-0.842,0.873,-2.471,-30.445,-50.841,-20.053
15:40:37:976,38.423,0.728,-0.973,1.411,-25.181,-51.996,-19.594
15:40:38:004,38.451,-0.434,0.114,0.436,-23.005,-52.052,-24.502
15:40:38:031,38.478,-0.434,0.114,0.436,-23.005,-52.052,-24.502
15:40:38:059,38.506,-0.218,0.265,-0.308,-20.731,-51.384,-28.158
15:40:38:085,38.533,-0.218,0.265,-0.308,-20.731,-51.384,-28.158
15:40:38:112,38.560,-0.156,0.261,-0.597,-20.569,-51.963,-33.348
15:40:38:14,38.587,0.315,0.428,-0.644,-19.232,-51.164,-34.830
15:40:38:167,38.614,0.179,0.103,-0.393,-17.955,-49.977,-35.479
15:40:38:194,38.641,-0.159,-0.244,-0.475,-14.209,-47.711,-37.421
15:40:38:221,38.668,-0.220,-0.088,-0.523,-10.943,-46.056,-39.458
15:40:38:248,38.695,-0.168,0.077,-1.086,-5.196,-43.749,-43.473
15:40:38:275,38.722,-0.360,0.206,-1.441,3.031,-43.237,-47.883
15:40:38:302,38.750,-0.075,-0.841,-2.406,21.950,-45.126,-55.800
15:40:38:33,38.777,0.437,-1.348,-0.650,25.656,-47.685,-58.630
00:00:00:,38.804,0.382,-1.451,-0.802,29.188,-48.860,-60.714
15:40:38:383,38.831,0.195,-1.461,-0.108,27.403,-47.658,-59.651
15:40:38:411,38.858,0.282,-1.233,-0.658,17.785,-43.599,-54.517
15:40:38:438,38.885,-0.118,-0.694,-1.038,5.987,-37.762,-47.597
15:40:38:465,38.912,-0.401,-0.284,-1.136,-1.487,-33.416,-42.835
15:40:38:492,38.940,-1.107,0.416,-0.859,-11.491,-27.116,-35.854
15:40:38:519,38.966,-1.107,0.416,-0.859,-11.491,-27.116,-35.854
15:40:38:546,38.994,-1.225,0.917,0.144,-17.634,-23.228,-31.618
15:40:38:574,39.021,0.057,0.826,3.371,-28.389,-14.652,-22.252
15:40:38:601,39.048,0.057,0.826,3.371,-28.389,-14.652,-22.252
15:40:38:628,39.075,1.493,-0.226,2.882,-31.446,-13.065,-18.763
15:40:38:655,39.103,1.493,-0.226,2.882,-31.446,-13.065,-18.763
15:40:38:683,39.130,-1.076,-0.825,1.038,-23.824,-18.812,-21.414
15:40:38:71,39.157,-0.017,1.582,-0.342,-25.291,-20.173,-24.194
15:40:38:737,39.184,0.110,-0.425,-0.091,-22.438,-19.988,-26.154
15:40:38:764,39.211,-0.215,0.106,0.138,-21.130,-19.438,-28.325
15:40:38:791,39.238,-0.215,0.106,0.138,-21.130,-19.438,-28.325
15:40:38:819,39.267,-0.568,0.388,-0.180,-19.574,-18.690,-31.586
15:40:38:847,39.294,-0.346,0.643,-0.191,-19.800,-18.824,-33.591
15:40:38:874,39.321,-0.437,0.155,-0.429,-18.638,-18.956,-35.295
15:40:38:901,39.348,-0.169,0.164,-0.605,-17.694,-17.965,-37.161
15:40:38:928,39.375,-0.215,-0.068,-0.559,-16.233,-16.751,-38.540
15:40:38:955,39.402,-0.416,-0.182,-0.351,-12.175,-14.967,-41.372
15:40:38:982,39.429,-0.748,0.028,-0.454,-8.833,-14.100,-44.012
15:40:39:009,39.457,-0.855,0.280,-0.708,-2.270,-13.273,-49.191
15:40:39:036,39.484,-0.855,0.280,-0.708,-2.270,-13.273,-49.191
15:40:39:063,39.511,0.065,-1.172,-1.241,31.601,-14.314,-65.058
15:40:39:091,39.538,-0.895,-1.854,-1.240,36.275,-13.102,-65.309
15:40:39:118,39.566,-0.895,-1.854,-1.240,36.275,-13.102,-65.309
15:40:39:145,39.593,-0.459,-1.461,-0.446,33.353,-8.329,-61.111
15:40:39:173,39.620,-0.459,-1.461,-0.446,33.353,-8.329,-61.111
15:40:39:199,39.647,-0.459,-1.461,-0.446,33.353,-8.329,-61.111
15:40:39:227,39.674,-0.459,-1.461,-0.446,33.353,-8.329,-61.111
15:40:39:254,39.702,-1.193,0.317,0.646,-5.438,15.268,-36.163
15:40:39:281,39.729,-0.577,0.688,1.396,-10.579,19.177,-30.779
15:40:39:309,39.756,-0.577,0.688,1.396,-10.579,19.177,-30.779
15:40:39:336,39.783,2.624,0.383,2.018,-20.944,24.198,-18.226
15:40:39:363,39.811,3.286,0.791,1.283,-22.006,23.178,-17.067
15:40:39:39,39.837,3.286,0.791,1.283,-22.006,23.178,-17.067
15:40:39:418,39.865,-0.760,-1.008,1.342,-14.776,19.234,-17.236
15:40:39:445,39.892,0.435,1.641,0.377,-16.305,18.404,-23.095
15:40:39:472,39.919,0.435,1.641,0.377,-16.305,18.404,-23.095
15:40:39:499,39.946,-0.463,0.140,0.389,-11.972,19.021,-26.017
15:40:39:526,39.973,0.041,0.265,-0.264,-9.252,19.043,-27.041
15:40:39:553,40.001,-0.700,0.736,-0.047,-10.084,19.800,-29.639
15:40:39:58,40.027,-0.550,0.485,-0.209,-9.266,18.937,-32.756
15:40:39:607,40.054,-0.872,0.175,-0.249,-8.419,18.785,-34.156
15:40:39:635,40.082,-0.852,-0.032,-0.506,-7.680,19.767,-36.094
15:40:39:662,40.109,-0.553,-0.368,-0.067,-4.059,20.607,-38.333
15:40:39:689,40.137,-0.771,-0.335,0.059,-0.647,21.332,-40.611
15:40:39:717,40.164,-1.171,-0.104,0.035,5.783,21.920,-45.424
15:40:39:744,40.192,-1.303,0.234,-0.519,11.693,21.848,-49.424
15:40:39:771,40.218,-1.120,0.289,-1.271,32.478,20.478,-59.612
15:40:39:798,40.246,-1.120,0.289,-1.271,32.478,20.478,-59.612
15:40:39:825,40.272,-0.410,-1.582,-0.456,44.768,19.348,-62.576
15:40:39:852,40.300,-0.410,-1.582,-0.456,44.768,19.348,-62.576
15:40:39:879,40.326,-0.410,-1.582,-0.456,44.768,19.348,-62.576
15:40:39:906,40.354,-1.033,-0.527,-0.317,17.159,29.645,-41.378
15:40:39:934,40.381,-1.086,0.039,-0.055,6.262,33.464,-32.774
15:40:39:961,40.408,-0.774,0.778,0.641,-0.434,35.535,-26.835
15:40:39:988,40.435,1.077,1.499,0.949,-9.397,36.882,-18.476
15:40:40:015,40.462,2.396,1.604,0.710,-14.121,36.237,-13.539
15:40:40:042,40.489,3.486,0.239,0.401,-18.027,34.548,-8.044
15:40:40:069,40.517,3.930,0.279,-0.160,-18.680,34.321,-6.844
15:40:40:096,40.543,0.891,2.026,-0.332,-16.254,32.698,-11.680
15:40:40:123,40.570,1.972,-2.086,0.461,-12.386,31.276,-14.441
15:40:40:151,40.598,0.583,-0.223,-1.649,-8.872,27.531,-15.754
15:40:40:178,40.625,0.811,0.362,-0.249,-7.577,28.271,-18.707
15:40:40:205,40.652,-0.292,0.144,-0.171,-6.640,28.096,-19.860
15:40:40:232,40.679,-0.302,0.174,-0.005,-4.464,28.359,-21.542
15:40:40:259,40.706,-1.151,1.646,0.025,-4.402,28.847,-25.540
15:40:40:286,40.734,-0.589,-0.092,-0.109,-2.393,28.239,-26.371
15:40:40:314,40.761,-0.531,-0.151,-0.452,-0.504,28.900,-27.470
15:40:40:341,40.788,-0.483,-0.133,-0.346,1.513,29.636,-28.514
15:40:40:368,40.815,-0.431,-0.279,-0.079,5.752,31.182,-30.857
15:40:40:396,40.843,-0.652,-0.192,0.086,9.291,32.006,-33.084
15:40:40:423,40.870,-0.902,-0.027,0.092,15.658,32.626,-37.606
15:40:40:451,40.898,-1.313,0.010,-0.261,24.254,32.705,-43.034
15:40:40:479,40.926,-2.077,-0.055,-0.479,31.421,32.278,-47.073
15:40:40:506,40.953,-0.994,-0.583,-0.715,41.550,29.103,-53.378
15:40:40:533,40.980,-0.905,-1.438,-0.403,43.895,26.831,-55.838
15:40:40:56,41.007,-0.164,-1.574,-0.349,38.407,27.437,-52.434
15:40:40:588,41.035,-0.164,-1.574,-0.349,38.407,27.437,-52.434
15:40:40:615,41.063,-0.164,-1.574,-0.349,38.407,27.437,-52.434
15:40:40:642,41.089,-1.124,-0.365,0.013,14.666,36.895,-34.432
15:40:40:669,41.117,-1.280,0.323,0.117,4.751,40.578,-26.196
15:40:40:697,41.144,0.038,1.116,0.492,-4.870,42.344,-18.650
15:40:40:724,41.171,0.926,1.259,0.997,-10.488,42.699,-13.598
15:40:40:75,41.198,0.926,1.259,0.997,-10.488,42.699,-13.598
15:40:40:779,41.226,0.926,1.259,0.997,-10.488,42.699,-13.598
15:40:40:805,41.253,3.455,-0.616,0.173,-18.076,38.207,-3.138
15:40:40:833,41.280,2.121,1.416,-2.734,-16.686,36.269,-7.217
15:40:40:859,41.307,-1.211,-0.605,0.720,-12.487,34.166,-11.562
15:40:40:887,41.334,0.283,-0.619,-0.714,-6.863,31.362,-13.537
15:40:40:913,41.361,-0.271,0.906,0.754,-8.047,32.687,-17.684
15:40:40:941,41.388,-0.172,0.111,0.126,-4.587,32.298,-17.970
15:40:40:968,41.415,0.009,0.030,-0.038,-1.919,31.905,-17.656
15:40:40:995,41.443,-0.615,0.520,-0.011,-1.955,31.913,-19.923
15:40:41:022,41.469,-0.630,0.652,-0.374,-2.526,31.233,-23.168
15:40:41:049,41.497,-0.328,0.048,-0.342,-0.983,30.430,-24.286
15:40:41:077,41.524,-0.428,-0.050,-0.386,0.780,30.747,-25.447
15:40:41:104,41.551,-0.433,-0.249,-0.303,2.306,31.402,-26.324
15:40:41:131,41.579,-0.423,-0.246,-0.334,5.812,32.933,-28.345
15:40:41:158,41.605,-0.730,0.078,-0.233,9.116,34.079,-30.242
15:40:41:185,41.633,-0.796,0.334,-0.277,15.715,36.012,-33.946
15:40:41:212,41.659,-1.939,0.375,-0.396,24.277,38.736,-38.235
15:40:41:239,41.687,-2.406,0.327,-0.556,30.668,39.171,-41.194
15:40:41:267,41.714,-0.928,-1.593,-0.009,38.328,35.873,-45.916
15:40:41:294,41.741,-1.170,-1.603,0.034,39.916,35.028,-47.126
15:40:41:321,41.769,-0.343,-1.596,-0.297,38.691,33.816,-49.187
15:40:41:348,41.796,-0.744,-1.174,-0.033,27.481,37.190,-44.596
15:40:41:376,41.823,-0.744,-1.174,-0.033,27.481,37.190,-44.596
15:40:41:403,41.850,-1.087,-0.040,0.141,9.872,42.669,-33.872
15:40:41:43,41.877,-0.843,0.390,0.112,-0.480,45.281,-26.897
15:40:41:457,41.904,0.042,1.165,0.566,-6.786,46.971,-22.244
15:40:41:484,41.931,1.336,1.556,0.423,-14.795,49.534,-15.358
15:40:41:511,41.958,1.336,1.556,0.423,-14.795,49.534,-15.358
15:40:41:538,41.985,2.718,1.125,-0.277,-20.019,51.963,-9.559
15:40:41:566,42.014,2.718,1.125,-0.277,-20.019,51.963,-9.559
15:40:41:594,42.041,3.699,0.556,0.311,-21.152,54.766,-7.833
15:40:41:621,42.068,-0.583,-0.685,-0.019,-16.878,50.242,-15.214
15:40:41:648,42.095,-0.208,0.558,-0.219,-15.206,47.519,-17.154
15:40:41:675,42.122,-0.300,-0.153,0.157,-13.622,48.223,-18.771
15:40:41:702,42.150,-0.300,-0.153,0.157,-13.622,48.223,-18.771
15:40:41:73,42.177,-0.110,0.000,-0.026,-11.451,48.176,-21.648
15:40:41:757,42.204,-0.218,0.107,-0.085,-10.339,48.336,-22.757
15:40:41:784,42.231,-0.355,0.360,-0.188,-10.144,48.444,-24.321
15:40:41:811,42.259,-0.422,0.249,-0.154,-9.440,48.606,-25.089
15:40:41:838,42.286,-0.460,0.121,-0.093,-7.911,49.425,-26.378
15:40:41:866,42.313,-0.437,0.038,-0.023,-6.630,50.281,-27.388
15:40:41:893,42.340,-0.437,0.038,-0.023,-6.630,50.281,-27.388
15:40:41:921,42.368,-0.322,-0.139,0.126,-2.855,53.622,-31.185
15:40:41:948,42.396,-0.368,0.000,0.094,0.533,56.046,-34.361
15:40:41:975,42.422,-0.738,0.208,0.032,4.633,59.009,-38.248
15:40:42:002,42.449,-1.373,0.829,0.169,8.260,61.930,-41.528
15:40:42:03,42.478,-2.252,0.601,0.744,17.276,67.112,-46.992
15:40:42:058,42.505,-0.887,-0.225,0.154,24.847,68.886,-50.665
15:40:42:085,42.532,-0.404,-1.755,0.978,37.590,75.167,-53.282
15:40:42:112,42.559,-0.412,-1.240,0.893,28.010,82.857,-47.050
15:40:42:139,42.586,-0.412,-1.240,0.893,28.010,82.857,-47.050
15:40:42:166,42.613,-0.412,-1.240,0.893,28.010,82.857,-47.050
15:40:42:193,42.641,-0.038,0.374,0.980,0.186,95.371,-28.714
15:40:42:221,42.668,0.426,0.760,0.691,-5.471,97.741,-23.392
15:40:42:25,42.697,1.369,1.081,-0.670,-12.259,100.698,-15.202
15:40:42:277,42.724,1.690,1.290,-1.719,-15.727,101.708,-10.138
15:40:42:304,42.751,1.900,0.478,-2.546,-18.708,101.333,-5.102
15:40:42:331,42.778,1.594,-0.248,-2.175,-19.037,100.392,-3.708
15:40:42:359,42.806,1.594,-0.248,-2.175,-19.037,100.392,-3.708
15:40:42:386,42.833,0.989,-0.263,3.112,-13.247,99.810,-4.898
15:40:42:413,42.860,-0.245,-1.214,-2.003,-11.596,100.403,-7.768
15:40:42:44,42.888,0.251,-0.532,0.720,-8.302,101.429,-8.120
15:40:42:467,42.914,-0.288,0.380,-0.485,-7.423,101.088,-9.114
15:40:42:494,42.942,0.096,-0.040,-0.011,-5.087,102.404,-10.561
15:40:42:521,42.969,-0.405,0.221,-0.371,-4.950,103.431,-12.334
15:40:42:55,42.997,-0.051,0.295,0.018,-4.977,104.516,-13.864
15:40:42:577,43.024,-0.283,0.946,0.500,-6.035,106.144,-17.746
15:40:42:604,43.051,-0.640,1.200,0.509,-6.121,106.642,-20.642
15:40:42:631,43.078,-0.629,0.257,0.627,-5.125,107.992,-22.274
15:40:42:658,43.106,-0.434,-0.172,0.687,-4.056,109.789,-23.084
15:40:42:686,43.133,0.001,-0.102,0.134,-0.745,112.139,-25.536
15:40:42:713,43.160,-0.133,-0.147,0.953,6.574,114.830,-32.437
15:40:42:74,43.187,-0.133,-0.147,0.953,6.574,114.830,-32.437
15:40:42:767,43.215,-0.295,0.329,0.811,13.703,115.087,-38.272
15:40:42:795,43.242,-0.535,0.246,1.636,19.245,115.291,-42.171
15:40:42:822,43.270,0.109,-1.821,1.843,36.149,118.131,-48.587
15:40:42:849,43.297,-0.004,-1.729,1.038,38.701,119.656,-47.763
15:40:42:877,43.324,-0.294,-1.701,0.757,35.946,121.162,-45.360
15:40:42:904,43.351,-0.244,-1.481,0.603,31.204,122.384,-41.410
15:40:42:931,43.379,-0.244,-1.481,0.603,31.204,122.384,-41.410
15:40:42:958,43.405,-0.269,-0.182,1.175,13.354,127.606,-28.700
15:40:42:985,43.433,-0.079,0.415,1.171,2.818,130.754,-20.162
15:40:43:014,43.461,0.337,1.440,0.320,-7.182,133.464,-11.988
15:40:43:041,43.489,0.337,1.440,0.320,-7.182,133.464,-11.988
15:40:43:069,43.516,0.586,0.447,-2.739,-20.743,138.339,1.096
15:40:43:096,43.543,0.283,-0.107,-3.093,-24.359,138.972,5.059
15:40:43:123,43.570,0.381,-1.270,-3.094,-26.600,138.451,8.212
15:40:43:15,43.597,-2.042,0.782,-4.055,-25.787,137.952,7.837
15:40:43:177,43.625,1.747,1.698,1.245,-21.477,134.021,-0.051
15:40:43:204,43.652,-1.297,-4.188,-3.368,-12.719,132.129,-3.662
15:40:43:232,43.679,-1.297,-4.188,-3.368,-12.719,132.129,-3.662
15:40:43:258,43.706,-0.454,-0.150,-0.412,-9.212,133.433,-6.955
15:40:43:286,43.733,-0.317,0.082,-0.164,-7.036,134.364,-7.425
15:40:43:313,43.760,-0.057,0.545,0.031,-6.110,135.720,-9.262
15:40:43:34,43.788,0.060,1.314,0.145,-5.807,136.840,-14.677
15:40:43:367,43.815,-0.578,-0.287,0.472,-4.065,136.554,-15.553
15:40:43:395,43.843,-0.578,-0.287,0.472,-4.065,136.554,-15.553
15:40:43:422,43.869,-0.325,-0.404,0.161,-0.083,140.502,-17.357
15:40:43:449,43.897,-0.325,-0.404,0.161,-0.083,140.502,-17.357
15:40:43:476,43.923,-0.454,-0.188,0.284,3.683,143.987,-19.421
15:40:43:503,43.951,-0.381,0.061,0.785,12.381,151.492,-23.856
15:40:43:531,43.978,-0.089,0.419,1.680,16.815,155.033,-25.719
15:40:43:558,44.005,-0.089,0.419,1.680,16.815,155.033,-25.719
15:40:43:585,44.032,0.814,-1.345,1.239,29.918,158.316,-30.238
15:40:43:612,44.060,0.814,-1.345,1.239,29.918,158.316,-30.238
15:40:43:64,44.088,-0.437,-1.043,0.847,27.464,149.635,-37.677
15:40:43:667,44.114,-0.179,-1.102,0.605,23.140,149.715,-36.266
15:40:43:694,44.142,0.382,-0.714,0.823,15.360,152.809,-31.097
15:40:43:722,44.169,0.989,-0.191,0.747,9.512,155.887,-26.746
15:40:43:748,44.196,1.304,0.156,0.468,0.032,160.574,-20.576
15:40:43:777,44.224,1.249,0.670,-0.379,-9.902,164.168,-14.984
15:40:43:804,44.251,1.249,0.670,-0.379,-9.902,164.168,-14.984
15:40:43:831,44.278,1.107,0.990,-1.249,-16.410,165.797,-11.031
15:40:43:858,44.305,-2.110,0.335,-2.366,-27.991,165.951,0.080
15:40:43:885,44.332,-1.654,-0.763,-3.224,-30.451,166.338,3.411
15:40:43:912,44.359,-1.654,-0.763,-3.224,-30.451,166.338,3.411
15:40:43:939,44.386,2.093,2.270,-1.720,-28.386,167.370,0.191
15:40:43:966,44.414,-1.378,-0.647,-0.919,-24.438,166.614,-3.716
15:40:43:994,44.441,-0.058,0.621,-0.427,-23.385,167.030,-5.360
15:40:44:02,44.468,-0.699,0.114,-0.086,-20.845,167.486,-6.736
15:40:44:048,44.495,-0.242,-0.029,-0.100,-18.880,168.163,-7.102
15:40:44:074,44.522,-0.277,-0.110,-0.163,-16.254,168.457,-7.822
15:40:44:102,44.549,-0.189,0.174,0.007,-15.478,169.225,-9.764
15:40:44:129,44.576,0.058,0.581,0.164,-16.210,170.121,-15.328
15:40:44:155,44.603,0.058,0.581,0.164,-16.210,170.121,-15.328
15:40:44:184,44.631,0.026,0.233,0.329,-15.167,170.410,-17.422
15:40:44:21,44.658,0.006,0.200,0.501,-13.778,171.915,-20.157
15:40:44:238,44.685,0.006,0.200,0.501,-13.778,171.915,-20.157
15:40:44:265,44.712,0.006,0.200,0.501,-13.778,171.915,-20.157
15:40:44:292,44.739,1.200,0.834,0.915,1.015,-174.920,-36.967
15:40:44:32,44.767,0.911,0.344,0.826,10.359,-172.102,-42.747
15:40:44:347,44.795,-0.132,-0.568,0.494,18.468,-170.046,-47.149
15:40:44:375,44.822,-0.132,-0.568,0.494,18.468,-170.046,-47.149
15:40:44:402,44.849,0.642,-1.627,-0.077,20.584,-165.069,-46.493
15:40:44:43,44.877,0.642,-1.627,-0.077,20.584,-165.069,-46.493
15:40:44:456,44.904,1.110,-0.538,-0.439,1.594,-156.710,-37.003
15:40:44:484,44.931,1.016,-0.232,-0.567,-6.932,-154.151,-30.126
15:40:44:512,44.960,0.437,0.269,-0.600,-14.460,-151.983,-22.444
15:40:44:539,44.986,-0.162,0.527,-0.931,-19.112,-150.481,-16.629
15:40:44:566,45.014,-1.607,0.741,-0.985,-25.583,-149.407,-7.557
15:40:44:593,45.041,-3.249,0.626,-0.784,-29.172,-150.465,-2.166
15:40:44:62,45.067,-3.249,0.626,-0.784,-29.172,-150.465,-2.166
15:40:44:647,45.095,-3.840,-1.084,0.498,-31.487,-152.599,3.315
15:40:44:674,45.122,-3.840,-1.084,0.498,-31.487,-152.599,3.315
15:40:44:702,45.149,1.416,-0.247,-0.210,-26.749,-151.233,-2.521
15:40:44:729,45.176,-0.701,0.548,-0.653,-24.640,-151.536,-5.300
15:40:44:756,45.203,-0.042,0.218,-0.029,-22.361,-150.839,-7.676
15:40:44:783,45.231,-0.042,0.218,-0.029,-22.361,-150.839,-7.676
15:40:44:81,45.257,-0.418,0.095,0.004,-18.301,-150.487,-9.131
15:40:44:838,45.285,-0.146,0.552,-0.462,-17.831,-149.583,-11.441
15:40:44:865,45.312,-0.146,0.552,-0.462,-17.831,-149.583,-11.441
15:40:44:892,45.339,0.207,0.555,-0.380,-17.536,-149.049,-13.555
15:40:44:919,45.366,0.207,0.555,-0.380,-17.536,-149.049,-13.555
15:40:44:946,45.394,0.207,0.555,-0.380,-17.536,-149.049,-13.555
15:40:44:974,45.421,0.323,-0.028,-0.217,-8.886,-145.996,-26.541
15:40:45:001,45.448,0.323,-0.028,-0.217,-8.886,-145.996,-26.541
15:40:45:028,45.475,0.323,-0.028,-0.217,-8.886,-145.996,-26.541
15:40:45:055,45.502,1.203,0.338,0.563,-0.619,-146.138,-34.849
15:40:45:082,45.529,1.618,-0.793,0.032,12.282,-143.360,-41.368
15:40:45:109,45.557,1.328,-1.090,0.382,19.361,-143.509,-43.248
15:40:45:136,45.584,0.744,-1.327,0.422,20.411,-144.595,-43.341
15:40:45:163,45.611,0.744,-1.327,0.422,20.411,-144.595,-43.341
15:40:45:19,45.638,0.646,-1.229,0.535,17.821,-145.126,-41.938
15:40:45:218,45.665,0.646,-1.229,0.535,17.821,-145.126,-41.938
15:40:45:245,45.693,0.646,-1.229,0.535,17.821,-145.126,-41.938
15:40:45:273,45.720,0.484,0.758,-0.402,-12.603,-139.765,-16.452
15:40:45:299,45.747,0.484,0.758,-0.402,-12.603,-139.765,-16.452
15:40:45:327,45.775,0.484,0.758,-0.402,-12.603,-139.765,-16.452
15:40:45:354,45.801,-3.626,-0.061,-0.610,-29.924,-140.892,2.159
15:40:45:381,45.829,-3.597,-1.388,-0.181,-32.302,-144.958,7.344
15:40:45:409,45.856,-3.408,-1.179,0.787,-31.912,-146.249,7.409
15:40:45:436,45.883,-2.160,1.523,-1.112,-28.446,-148.590,2.021
15:40:45:463,45.910,-2.003,-2.806,0.516,-23.732,-148.597,-2.434
15:40:45:491,45.938,-0.766,-0.459,0.950,-19.320,-151.779,-2.980
15:40:45:52,45.967,-0.039,0.454,-0.662,-16.351,-149.078,-7.831
15:40:45:547,45.994,-0.039,0.454,-0.662,-16.351,-149.078,-7.831
15:40:45:574,46.021,-0.102,0.220,-0.032,-13.290,-148.069,-9.439
15:40:45:6,46.048,0.021,0.785,1.031,-12.873,-149.895,-16.172
15:40:45:628,46.075,0.021,0.785,1.031,-12.873,-149.895,-16.172
15:40:45:656,46.103,0.050,-0.101,0.176,-8.822,-150.635,-18.021
15:40:45:682,46.130,0.150,0.115,0.164,-4.785,-149.485,-21.469
15:40:45:71,46.157,1.096,0.264,0.311,-0.088,-148.592,-26.302
15:40:45:736,46.184,1.096,0.264,0.311,-0.088,-148.592,-26.302
15:40:45:764,46.211,2.091,0.149,0.530,10.347,-147.827,-35.151
15:40:45:791,46.238,2.039,-0.230,0.428,14.885,-148.487,-38.123
15:40:45:818,46.265,0.813,-1.255,0.530,19.119,-149.615,-41.715
15:40:45:846,46.293,0.781,-1.532,0.219,19.805,-149.183,-41.895
15:40:45:872,46.320,0.781,-1.532,0.219,19.805,-149.183,-41.895
15:40:45:9,46.347,0.595,-1.083,0.449,6.635,-148.500,-35.950
15:40:45:926,46.374,0.739,-0.571,0.494,-0.309,-148.173,-31.698
15:40:45:954,46.401,0.739,-0.571,0.494,-0.309,-148.173,-31.698
15:40:45:98,46.428,0.446,0.690,-0.219,-15.600,-146.023,-18.806
15:40:46:008,46.455,0.446,0.690,-0.219,-15.600,-146.023,-18.806
15:40:46:035,46.483,-2.521,0.961,-1.092,-32.889,-146.075,-1.205
15:40:46:063,46.510,-3.456,0.153,-0.817,-37.341,-147.943,4.173
15:40:46:09,46.537,-3.456,0.153,-0.817,-37.341,-147.943,4.173
15:40:46:117,46.565,-2.983,-0.849,-0.353,-41.386,-149.514,9.848
15:40:46:144,46.591,-2.983,-0.849,-0.353,-41.386,-149.514,9.848
15:40:46:171,46.618,-0.198,-0.878,-0.846,-33.180,-149.883,0.201
15:40:46:198,46.646,-1.882,-0.827,1.889,-28.358,-151.835,-3.049
15:40:46:225,46.672,0.046,0.361,0.181,-28.112,-150.532,-7.892
15:40:46:252,46.700,-0.435,0.160,-0.326,-26.875,-150.311,-9.372
15:40:46:279,46.727,-0.161,-0.114,-0.228,-24.939,-149.501,-11.376
15:40:46:307,46.754,0.019,1.070,-0.318,-27.215,-148.648,-15.914
15:40:46:334,46.781,-0.014,0.461,0.169,-27.057,-148.565,-17.712
15:40:46:361,46.808,0.257,0.042,0.308,-25.518,-144.979,-20.561
15:40:46:388,46.836,0.257,0.042,0.308,-25.518,-144.979,-20.561
15:40:46:415,46.862,0.228,-0.182,0.015,-22.936,-140.802,-23.664
15:40:46:442,46.890,0.057,0.027,-0.026,-17.299,-133.720,-31.527
15:40:46:47,46.917,0.523,0.388,-0.244,-11.684,-128.625,-36.883
15:40:46:497,46.944,0.523,0.388,-0.244,-11.684,-128.625,-36.883
15:40:46:523,46.971,2.380,-0.228,-0.908,1.429,-123.750,-45.005
15:40:46:551,46.998,2.380,-0.228,-0.908,1.429,-123.750,-45.005
15:40:46:578,47.026,2.380,-0.228,-0.908,1.429,-123.750,-45.005
15:40:46:606,47.054,0.653,-1.180,-0.266,5.346,-121.744,-44.865
15:40:46:633,47.080,0.733,-0.951,-0.166,0.852,-120.169,-42.088
15:40:46:66,47.108,0.835,-0.326,-0.319,-7.509,-116.241,-37.402
15:40:46:687,47.134,0.740,0.032,-0.986,-12.772,-112.816,-33.558
15:40:46:714,47.162,0.740,0.032,-0.986,-12.772,-112.816,-33.558
15:40:46:741,47.188,-1.811,0.564,-0.965,-32.121,-96.053,-20.159
15:40:46:768,47.216,-1.811,0.564,-0.965,-32.121,-96.053,-20.159
15:40:46:795,47.243,-2.553,-0.640,1.708,-40.928,-90.663,-11.942
15:40:46:823,47.270,-2.189,-0.655,1.091,-43.078,-88.817,-10.342
15:40:46:85,47.297,-1.999,-1.101,2.232,-42.546,-88.318,-10.874
15:40:46:878,47.325,-1.999,-1.101,2.232,-42.546,-88.318,-10.874
15:40:46:905,47.353,-1.999,-1.101,2.232,-42.546,-88.318,-10.874
15:40:46:932,47.379,-0.612,-1.405,2.193,-34.602,-92.185,-15.836
15:40:46:959,47.407,-0.540,0.102,0.321,-32.855,-92.755,-18.960
15:40:46:986,47.434,-0.325,-0.152,0.030,-32.044,-92.397,-19.854
15:40:47:014,47.461,-0.241,0.183,-0.038,-30.898,-92.286,-20.956
15:40:47:041,47.488,-0.162,0.384,-0.364,-31.392,-91.451,-23.767
15:40:47:068,47.515,-0.128,0.821,-0.245,-32.221,-90.886,-26.091
15:40:47:095,47.542,0.010,0.241,-0.397,-31.630,-90.247,-28.326
15:40:47:123,47.570,0.010,0.241,-0.397,-31.630,-90.247,-28.326
15:40:47:15,47.597,0.067,-0.067,-0.463,-28.946,-86.420,-34.401
15:40:47:177,47.624,0.067,-0.067,-0.463,-28.946,-86.420,-34.401
15:40:47:204,47.652,-0.070,0.229,-0.849,-26.052,-84.415,-39.131
15:40:47:232,47.679,0.211,0.624,-1.364,-22.096,-82.325,-45.300
15:40:47:259,47.707,0.485,0.389,-1.402,-7.855,-79.877,-57.674
15:40:47:287,47.734,0.733,-0.298,0.164,0.577,-80.675,-61.126
15:40:47:313,47.761,1.009,-2.020,-1.626,9.139,-78.142,-64.321
15:40:47:34,47.787,0.244,-1.929,-0.449,13.489,-74.614,-61.990
15:40:47:368,47.815,0.244,-1.929,-0.449,13.489,-74.614,-61.990
15:40:47:395,47.842,-0.020,-1.340,-0.877,3.742,-64.638,-54.076
15:40:47:422,47.869,-0.171,-0.772,-1.224,-3.239,-61.097,-50.013
15:40:47:449,47.896,-0.418,-0.378,-1.132,-13.706,-56.468,-43.011
15:40:47:477,47.924,-0.917,0.713,-0.838,-19.863,-53.675,-37.987
15:40:47:503,47.951,-1.623,1.127,0.515,-27.517,-49.174,-30.094
15:40:47:531,47.978,-1.274,1.149,3.032,-33.012,-45.549,-22.346
15:40:47:558,48.005,-0.893,0.339,3.602,-35.278,-44.329,-18.049
15:40:47:585,48.032,-0.865,-1.004,3.468,-37.577,-44.522,-14.354
15:40:47:612,48.059,2.120,1.277,1.991,-36.989,-47.029,-13.720
15:40:47:639,48.087,-4.310,0.304,1.353,-35.139,-49.127,-16.626
15:40:47:667,48.114,-4.310,0.304,1.353,-35.139,-49.127,-16.626
15:40:47:694,48.141,-0.368,-0.370,-0.599,-32.342,-49.123,-21.574
15:40:47:721,48.168,0.203,0.261,0.322,-31.132,-49.902,-22.921
15:40:47:748,48.195,-0.528,-0.120,-0.024,-29.849,-49.764,-23.974
15:40:47:775,48.222,-0.197,0.000,0.050,-29.099,-49.506,-25.775
15:40:47:802,48.250,-0.403,0.310,-0.110,-29.130,-49.250,-27.253
15:40:47:831,48.278,-0.243,0.320,-0.209,-27.925,-49.177,-30.739
15:40:47:857,48.305,-0.298,0.000,-0.303,-27.347,-48.830,-31.813
15:40:47:885,48.333,-0.298,0.000,-0.303,-27.347,-48.830,-31.813
15:40:47:913,48.360,-0.078,-0.186,-0.379,-25.848,-47.544,-35.088
15:40:47:939,48.387,-0.048,0.044,-0.327,-23.952,-46.894,-38.299
15:40:47:967,48.414,-0.151,0.016,-0.508,-20.887,-45.629,-42.231
15:40:47:994,48.442,-0.260,0.165,-0.822,-17.977,-44.437,-45.325
15:40:48:022,48.469,-0.385,0.465,-0.970,-11.176,-42.173,-50.870
15:40:48:049,48.496,-0.887,0.770,-2.331,-3.772,-40.057,-55.399
15:40:48:076,48.523,-0.516,0.245,-2.026,13.380,-38.499,-62.141
15:40:48:103,48.551,0.078,-0.916,-0.511,23.994,-39.215,-65.376
15:40:48:13,48.578,0.019,-2.091,-1.884,32.441,-36.195,-66.800
15:40:48:157,48.604,0.002,-2.053,-0.228,31.309,-35.158,-65.400
15:40:48:184,48.632,0.176,-1.807,-0.699,24.005,-31.608,-62.727
15:40:48:212,48.659,-0.336,-1.254,-1.010,10.278,-26.212,-57.327
15:40:48:239,48.686,-0.586,-0.823,-0.872,1.520,-22.473,-52.862
15:40:48:266,48.714,-0.763,-0.131,-0.653,-9.688,-16.608,-45.986
15:40:48:293,48.740,-0.763,-0.131,-0.653,-9.688,-16.608,-45.986
15:40:48:321,48.768,-0.763,-0.131,-0.653,-9.688,-16.608,-45.986
15:40:48:347,48.795,-0.783,0.672,0.475,-18.606,-10.629,-38.707
15:40:48:375,48.822,-0.439,0.987,1.302,-23.381,-6.962,-33.776
15:40:48:401,48.848,-0.439,0.987,1.302,-23.381,-6.962,-33.776
15:40:48:429,48.876,-0.439,0.987,1.302,-23.381,-6.962,-33.776
15:40:48:456,48.903,-0.439,0.987,1.302,-23.381,-6.962,-33.776
15:40:48:483,48.930,-0.439,0.987,1.302,-23.381,-6.962,-33.776
15:40:48:51,48.957,-0.439,0.987,1.302,-23.381,-6.962,-33.776
15:40:48:537,48.984,2.338,-0.653,2.608,-29.968,-0.070,-24.233
15:40:48:564,49.012,-0.411,-0.043,0.118,-21.785,-8.748,-32.441
15:40:48:591,49.039,-0.578,0.703,-0.332,-21.610,-7.510,-40.453
15:40:48:619,49.066,-0.587,0.082,-0.472,-20.739,-7.406,-41.784
15:40:48:646,49.094,-0.587,0.082,-0.472,-20.739,-7.406,-41.784
15:40:48:673,49.121,-0.587,0.082,-0.472,-20.739,-7.406,-41.784
15:40:48:701,49.148,-0.587,0.082,-0.472,-20.739,-7.406,-41.784
15:40:48:728,49.175,-0.541,-0.333,-0.223,-13.136,-3.147,-47.679
15:40:48:755,49.202,-0.541,-0.333,-0.223,-13.136,-3.147,-47.679
15:40:48:782,49.229,-1.491,0.316,-0.850,11.196,-0.420,-61.403
15:40:48:809,49.256,-2.253,0.044,-1.242,22.790,-0.430,-65.340
15:40:48:836,49.284,-0.826,-1.205,-1.211,36.441,-2.199,-70.559
15:40:48:864,49.311,-0.599,-1.692,-0.721,41.403,-2.293,-71.386
15:40:48:891,49.338,-0.248,-1.601,-0.408,42.585,0.017,-70.725
15:40:48:918,49.366,-0.534,-1.526,-0.289,34.593,4.389,-65.540
15:40:48:945,49.392,-0.534,-1.526,-0.289,34.593,4.389,-65.540
15:40:48:972,49.420,-1.095,-0.887,-0.041,14.935,15.641,-52.967
15:40:49:,49.447,-0.885,0.169,0.868,-1.811,26.579,-38.483
15:40:49:027,49.474,0.501,1.084,1.821,-9.802,30.958,-30.104
15:40:49:054,49.502,2.243,1.767,1.578,-14.419,30.996,-25.363
15:40:49:082,49.529,3.068,0.618,1.253,-18.490,28.414,-20.576
15:40:49:109,49.556,3.608,0.389,0.391,-18.883,26.695,-20.401
15:40:49:136,49.583,-5.312,0.135,-1.102,-17.840,23.674,-24.636
15:40:49:163,49.610,2.202,-2.000,0.076,-7.686,23.714,-20.541
15:40:49:19,49.637,2.202,-2.000,0.076,-7.686,23.714,-20.541
15:40:49:218,49.665,0.291,0.269,0.193,-4.727,23.144,-26.696
15:40:49:245,49.692,-0.331,0.084,0.066,-2.514,23.508,-27.906
15:40:49:272,49.719,-1.280,0.702,-0.361,-2.729,24.110,-32.320
15:40:49:299,49.746,-0.486,0.173,-0.436,-4.867,24.771,-37.069
15:40:49:326,49.773,-0.919,-0.142,-0.459,-2.472,23.838,-40.022
15:40:49:353,49.800,-0.654,-0.456,0.214,4.378,25.454,-43.013
15:40:49:38,49.828,-0.677,-0.106,-0.059,10.980,25.999,-46.591
15:40:49:407,49.854,-0.677,-0.106,-0.059,10.980,25.999,-46.591
15:40:49:434,49.882,-1.169,-0.472,-0.610,25.234,24.832,-54.790
15:40:49:461,49.908,-2.485,-0.844,-0.305,31.045,25.307,-56.914
15:40:49:488,49.936,-2.485,-0.844,-0.305,31.045,25.307,-56.914
15:40:49:515,49.963,-0.991,-1.495,-0.265,40.875,24.592,-58.731
15:40:49:542,49.989,-0.932,-1.471,-0.357,38.823,26.094,-56.644
15:40:49:57,50.017,-0.814,-1.271,-0.268,30.801,29.005,-50.694
15:40:49:597,50.044,-1.023,-0.758,-0.485,23.728,31.875,-45.451
15:40:49:624,50.071,-1.141,-0.471,-0.300,13.310,36.927,-36.786
15:40:49:651,50.098,-1.119,0.329,-0.023,3.133,41.774,-28.169
15:40:49:678,50.125,0.240,0.932,0.532,-3.243,44.264,-23.114
15:40:49:706,50.153,1.872,1.181,0.827,-11.884,46.023,-16.292
15:40:49:733,50.180,3.442,1.223,0.560,-16.217,45.355,-12.408
15:40:49:761,50.208,3.749,-0.198,0.454,-19.103,43.066,-9.045
15:40:49:787,50.235,1.235,0.765,0.734,-19.243,41.380,-9.305
15:40:49:815,50.262,1.399,0.820,-4.169,-18.140,36.911,-14.086
15:40:49:841,50.289,-3.099,0.580,2.479,-13.663,33.383,-17.794
15:40:49:869,50.316,1.976,-0.356,-1.786,-10.493,28.772,-20.447
15:40:49:896,50.343,-1.037,0.152,-0.074,-9.302,29.348,-23.312
15:40:49:923,50.370,0.302,0.180,-0.554,-6.812,28.615,-23.368
15:40:49:954,50.401,-0.329,0.352,-0.152,-4.241,28.159,-24.676
15:40:49:981,50.428,-1.957,1.547,0.247,-6.082,28.169,-29.125
15:40:50:008,50.455,-1.957,1.547,0.247,-6.082,28.169,-29.125
15:40:50:035,50.482,-1.957,1.547,0.247,-6.082,28.169,-29.125
15:40:50:061,50.509,-0.259,0.011,-0.146,1.516,30.859,-34.365
15:40:50:089,50.537,-1.377,-0.132,-0.314,14.034,34.973,-40.972
15:40:50:117,50.564,-1.377,-0.132,-0.314,14.034,34.973,-40.972
15:40:50:144,50.591,-1.447,-1.297,-0.022,32.749,34.600,-50.436
15:40:50:172,50.619,-1.489,-1.380,0.159,37.191,33.742,-53.179
15:40:50:199,50.646,-0.804,-1.381,-0.219,39.442,32.099,-56.072
15:40:50:226,50.673,-0.823,-1.361,-0.069,37.646,32.427,-55.563
15:40:50:253,50.700,-0.584,-1.074,-0.073,31.517,35.474,-52.197
15:40:50:28,50.727,-0.904,-0.851,0.095,22.241,40.127,-45.392
15:40:50:307,50.754,-1.063,-0.598,0.217,15.483,43.676,-40.148
15:40:50:334,50.781,-1.274,0.009,0.392,5.539,49.143,-32.191
15:40:50:362,50.809,-1.274,0.009,0.392,5.539,49.143,-32.191
15:40:50:388,50.836,0.323,1.663,1.206,-9.074,56.744,-21.474
15:40:50:416,50.863,2.445,1.336,0.367,-13.310,58.097,-17.481
15:40:50:443,50.890,3.028,0.354,-0.189,-17.523,58.241,-11.430
15:40:50:47,50.917,2.838,-0.491,0.182,-18.594,56.198,-9.134
15:40:50:497,50.944,1.705,-0.138,0.259,-18.213,54.052,-9.552
15:40:50:524,50.971,1.705,-0.138,0.259,-18.213,54.052,-9.552
15:40:50:551,50.999,-0.998,-0.971,1.094,-12.790,49.436,-15.708
15:40:50:578,51.025,0.055,0.225,-1.122,-8.342,47.796,-19.713
15:40:50:605,51.053,-0.174,0.577,-0.172,-7.370,48.864,-22.406
15:40:50:633,51.080,0.091,0.091,0.098,-4.939,48.879,-22.750
15:40:50:66,51.107,-0.341,0.268,-0.221,-1.831,48.803,-23.420
15:40:50:687,51.134,-0.682,0.757,0.117,-2.159,49.112,-25.596
15:40:50:713,51.161,-0.549,0.505,-0.628,-1.680,48.125,-28.991
15:40:50:742,51.189,-0.918,-0.066,-0.483,-0.227,47.908,-29.477
15:40:50:769,51.217,-0.680,-0.114,-0.309,2.602,49.074,-30.473
15:40:50:796,51.244,-0.842,-0.025,-0.160,8.138,51.636,-33.000
15:40:50:824,51.271,-0.851,0.209,-0.219,12.523,53.451,-35.481
15:40:50:851,51.298,-1.784,-0.242,0.269,20.790,55.606,-39.551
15:40:50:878,51.325,-1.436,-0.972,0.426,27.451,55.868,-42.700
15:40:50:905,51.353,-1.713,-1.356,0.490,36.219,55.040,-47.380
15:40:50:933,51.380,-0.965,-1.657,-0.037,38.692,52.115,-51.825
15:40:50:96,51.408,-0.758,-1.373,-0.083,32.864,54.052,-49.800
15:40:50:988,51.436,-0.863,-1.159,-0.012,26.501,56.008,-46.210
15:40:51:016,51.463,-1.249,-0.520,0.236,15.294,60.286,-38.866
15:40:51:043,51.490,-1.321,0.310,0.414,4.590,64.842,-30.933
15:40:51:07,51.517,-0.882,1.111,0.384,-2.092,67.739,-26.222
15:40:51:097,51.544,0.924,1.429,0.322,-10.632,72.190,-20.614
15:40:51:124,51.571,2.088,1.238,0.102,-15.531,75.151,-16.912
15:40:51:151,51.599,2.921,0.410,-1.281,-20.637,77.493,-12.591
15:40:51:179,51.627,2.921,0.410,-1.281,-20.637,77.493,-12.591
15:40:51:206,51.653,0.864,1.479,4.243,-21.006,71.442,-13.845
15:40:51:234,51.681,0.864,1.479,4.243,-21.006,71.442,-13.845
15:40:51:261,51.708,0.314,0.274,-0.045,-14.777,66.180,-20.470
15:40:51:288,51.736,-0.380,0.333,0.215,-12.773,67.047,-22.103
15:40:51:315,51.762,-0.046,-0.298,-0.685,-8.729,66.843,-22.043
15:40:51:342,51.790,-0.199,0.154,-0.084,-7.892,67.388,-23.706
15:40:51:37,51.817,-0.230,0.219,-0.265,-7.998,67.877,-25.257
15:40:51:397,51.844,-0.588,0.526,0.450,-9.277,69.023,-28.663
15:40:51:424,51.871,-0.617,0.611,0.143,-8.851,69.574,-30.431
15:40:51:451,51.898,-0.916,0.070,0.118,-6.801,71.488,-32.393
15:40:51:478,51.925,-0.950,-0.021,0.239,-5.283,73.564,-34.152
15:40:51:505,51.952,-0.648,0.007,0.549,-0.910,76.809,-37.823
15:40:51:533,51.980,-0.648,0.007,0.549,-0.910,76.809,-37.823
15:40:51:561,52.008,-1.283,0.098,1.136,12.292,81.668,-46.595
15:40:51:587,52.035,-1.332,0.227,1.174,25.662,84.645,-52.754
15:40:51:615,52.062,-0.681,-0.376,0.711,34.876,85.842,-56.636
15:40:51:641,52.089,-0.157,-1.667,0.645,43.086,91.557,-57.809
15:40:51:669,52.116,-0.096,-1.859,0.093,40.382,94.301,-56.015
15:40:51:696,52.143,-0.172,-1.318,0.699,30.683,99.459,-50.275
15:40:51:723,52.170,-0.138,-0.949,0.942,22.889,103.135,-45.547
15:40:51:75,52.197,-0.138,-0.949,0.942,22.889,103.135,-45.547
15:40:51:777,52.224,0.229,0.125,0.954,4.983,111.839,-32.592
15:40:51:805,52.252,0.721,0.674,0.576,-3.631,117.227,-23.926
15:40:51:831,52.279,1.025,1.189,-1.150,-11.007,121.431,-15.456
15:40:51:859,52.306,0.960,1.263,-2.248,-14.926,122.451,-11.023
15:40:51:886,52.333,1.196,0.340,-3.041,-18.411,122.165,-6.505
15:40:51:913,52.360,-0.871,-0.546,-3.697,-18.487,121.430,-5.803
15:40:51:94,52.387,-0.871,-0.546,-3.697,-18.487,121.430,-5.803
15:40:51:967,52.415,0.416,-1.008,-0.132,-9.892,119.130,-7.409
15:40:51:994,52.441,-0.668,1.411,-0.418,-11.122,118.479,-10.532
15:40:52:021,52.469,-0.350,0.045,0.061,-7.140,119.463,-11.120
15:40:52:049,52.496,0.320,0.078,0.184,-5.208,119.700,-11.597
