Time,Second,AccelerationX,AccelerationY,AccelerationZ,EulerAnglesX,EulerAnglesY,EulerAnglesZ
16:17:18:142,0.000,-0.004,-0.002,-0.001,19.710,-12.250,12.297
16:17:18:143,0.001,-0.005,0.004,-0.005,19.588,-12.121,12.334
16:17:18:167,0.025,-0.028,-0.003,-0.005,19.518,-12.063,12.378
16:17:18:194,0.052,0.028,-0.018,0.013,19.511,-12.249,12.372
16:17:18:218,0.076,0.065,-0.006,0.027,19.502,-12.554,12.192
16:17:18:245,0.103,0.015,-0.006,0.016,19.485,-12.661,11.925
16:17:18:271,0.129,0.000,0.002,-0.005,19.398,-12.438,11.842
16:17:18:296,0.154,0.001,-0.002,-0.006,19.337,-12.269,11.835
16:17:18:352,0.210,-0.007,-0.021,-0.029,19.198,-11.942,11.868
16:17:18:353,0.211,0.030,-0.012,-0.008,19.030,-11.647,11.911
16:17:18:377,0.235,0.045,-0.007,0.031,18.790,-10.953,12.001
16:17:18:403,0.261,-0.016,-0.001,0.034,18.546,-9.968,12.249
16:17:18:429,0.287,0.010,-0.030,0.010,18.361,-9.478,12.374
16:17:18:455,0.313,0.028,-0.004,0.040,18.036,-8.802,12.483
16:17:18:482,0.340,0.017,-0.001,0.025,17.919,-8.390,12.524
16:17:18:509,0.366,-0.014,0.009,0.025,17.737,-7.798,12.622
16:17:18:534,0.392,0.013,-0.015,0.020,17.673,-7.513,12.668
16:17:18:559,0.417,0.012,-0.018,0.004,17.576,-7.481,12.519
16:17:18:614,0.472,0.107,0.007,0.031,17.492,-7.796,12.081
16:17:18:615,0.473,0.013,0.012,0.080,17.367,-7.639,11.844
16:17:18:638,0.496,0.010,0.009,0.041,17.016,-6.754,11.894
16:17:18:664,0.522,0.026,-0.010,0.028,16.607,-5.322,12.018
16:17:18:691,0.549,0.132,-0.055,0.068,16.265,-4.190,12.057
16:17:18:716,0.574,0.157,-0.124,0.013,15.618,-1.704,12.142
16:17:18:743,0.601,-0.005,0.002,-0.014,14.927,0.579,12.232
16:17:18:769,0.627,-0.144,0.018,-0.021,14.042,4.133,12.283
16:17:18:797,0.655,-0.164,-0.017,0.038,13.584,6.080,12.335
16:17:18:823,0.681,-0.126,-0.079,0.014,13.561,6.168,12.290
16:17:18:848,0.706,-0.071,-0.153,0.018,13.647,4.699,12.015
16:17:18:874,0.732,0.005,-0.136,0.076,13.690,2.956,11.568
16:17:18:93,0.788,-0.029,-0.058,0.141,13.507,0.630,10.698
16:17:18:931,0.789,-0.162,0.045,0.206,13.183,-0.338,10.098
16:17:18:953,0.811,-0.265,0.058,0.270,12.662,-0.862,9.050
16:17:18:979,0.837,-0.327,0.063,0.330,12.094,-0.868,7.778
16:17:19:005,0.863,-0.343,0.057,0.353,11.884,-0.861,6.905
16:17:19:033,0.891,-0.346,0.040,0.360,11.845,-1.308,5.978
16:17:19:059,0.917,-0.340,0.043,0.363,12.557,-1.859,6.192
16:17:19:084,0.942,-0.254,0.049,0.332,13.114,-3.411,6.169
16:17:19:11,0.968,-0.185,0.004,0.297,13.703,-4.427,6.484
16:17:19:138,0.996,-0.172,-0.008,0.251,14.874,-5.491,7.505
16:17:19:164,1.022,-0.134,0.003,0.196,16.281,-5.587,9.059
16:17:19:191,1.049,-0.108,-0.011,0.125,17.311,-5.281,10.250
16:17:19:217,1.075,-0.083,-0.002,0.095,18.909,-4.524,12.164
16:17:19:244,1.102,-0.050,0.021,0.023,20.466,-3.380,14.077
16:17:19:245,1.103,-0.037,0.086,-0.021,21.429,-2.482,15.269
16:17:19:269,1.127,0.023,0.213,-0.098,22.724,-1.142,16.714
16:17:19:295,1.152,0.057,0.246,-0.136,23.457,-0.321,17.410
16:17:19:321,1.179,0.156,0.217,-0.202,24.244,1.318,18.279
16:17:19:346,1.204,0.238,0.196,-0.275,24.378,2.858,18.975
16:17:19:404,1.262,0.391,0.021,-0.345,23.588,6.340,19.978
16:17:19:404,1.262,0.207,-0.034,-0.236,21.687,10.457,20.405
16:17:19:454,1.312,0.243,-0.152,-0.207,20.391,12.465,20.085
16:17:19:455,1.313,0.380,-0.239,-0.244,18.662,14.108,18.690
16:17:19:479,1.336,0.332,-0.008,-0.271,17.388,14.851,17.357
16:17:19:504,1.362,0.249,0.075,-0.176,15.574,14.884,14.806
16:17:19:53,1.388,0.219,0.045,-0.063,14.066,13.570,11.811
16:17:19:556,1.414,0.204,-0.014,0.012,13.119,12.101,9.662
16:17:19:585,1.443,0.104,-0.102,0.103,11.677,10.347,6.392
16:17:19:609,1.467,0.030,-0.151,0.197,10.672,9.289,4.278
16:17:19:665,1.523,0.007,-0.142,0.243,9.170,8.314,1.342
16:17:19:665,1.523,-0.088,-0.074,0.278,8.218,7.761,-0.446
16:17:19:688,1.546,-0.165,-0.079,0.313,7.020,8.100,-2.918
16:17:19:743,1.601,-0.245,-0.110,0.339,6.043,8.730,-4.992
16:17:19:744,1.602,-0.252,-0.109,0.389,5.459,9.487,-6.118
16:17:19:767,1.625,-0.324,-0.141,0.467,4.621,10.763,-7.371
16:17:19:792,1.650,-0.346,-0.168,0.527,4.077,11.489,-7.948
16:17:19:82,1.678,-0.339,-0.228,0.586,3.340,11.856,-8.348
16:17:19:845,1.703,-0.397,-0.089,0.652,3.016,11.693,-8.257
16:17:19:871,1.729,-0.476,0.133,0.657,2.938,10.578,-7.710
16:17:19:898,1.756,-0.513,0.462,0.555,3.607,8.025,-6.854
16:17:19:924,1.782,-0.359,0.600,0.364,4.577,5.810,-6.235
16:17:19:95,1.808,-0.221,0.513,0.261,6.973,3.407,-5.184
16:17:19:976,1.834,-0.064,0.230,0.212,9.184,3.347,-4.085
16:17:20:003,1.861,0.013,0.104,0.216,12.977,5.667,-1.019
16:17:20:088,1.946,0.065,-0.047,0.123,16.877,9.893,4.192
16:17:20:089,1.947,0.063,-0.137,0.060,19.298,13.135,8.790
16:17:20:089,1.947,0.055,-0.158,-0.051,22.533,17.786,16.794
16:17:20:109,1.967,0.107,-0.161,-0.096,24.521,20.199,22.077
16:17:20:134,1.992,0.033,-0.131,-0.115,27.633,22.800,28.862
16:17:20:19,2.048,0.121,-0.083,-0.213,31.368,23.776,33.662
16:17:20:191,2.049,0.268,-0.087,-0.341,33.997,23.540,35.274
16:17:20:213,2.071,0.472,-0.056,-0.594,37.179,23.382,36.538
16:17:20:239,2.097,0.631,-0.108,-0.885,38.618,23.923,37.259
16:17:20:294,2.152,0.640,-0.418,-0.782,39.522,25.716,38.430
16:17:20:295,2.153,0.608,-0.534,-0.798,38.274,28.906,40.067
16:17:20:318,2.176,0.508,-0.281,-0.710,36.018,31.315,40.732
16:17:20:344,2.201,0.541,0.164,-0.863,31.887,33.494,39.749
16:17:20:371,2.229,0.531,0.086,-0.725,29.234,33.478,37.483
16:17:20:399,2.257,0.397,0.159,-0.484,25.183,32.315,33.125
16:17:20:423,2.281,0.358,0.301,-0.248,22.326,31.003,29.967
16:17:20:45,2.308,0.290,0.192,-0.098,18.568,27.896,24.920
16:17:20:505,2.363,0.064,-0.182,0.086,15.252,24.233,19.861
16:17:20:505,2.363,-0.031,-0.325,0.148,13.170,22.096,16.663
16:17:20:527,2.385,0.040,-0.234,0.173,10.207,19.095,12.282
16:17:20:554,2.412,0.009,-0.131,0.230,8.319,17.632,9.572
16:17:20:609,2.467,-0.163,-0.057,0.438,5.520,16.620,5.395
16:17:20:61,2.468,-0.186,-0.096,0.665,2.840,15.898,1.122
16:17:20:634,2.492,-0.156,-0.178,0.705,1.268,15.370,-1.532
16:17:20:661,2.519,-0.158,-0.084,0.801,-0.625,15.437,-5.082
16:17:20:687,2.545,-0.232,-0.027,0.968,-1.403,16.215,-6.991
16:17:20:713,2.571,-0.326,0.196,1.068,-1.742,17.642,-8.758
16:17:20:738,2.596,-0.372,0.623,0.780,-1.224,17.863,-9.134
16:17:20:764,2.622,-0.348,0.709,0.553,0.742,17.178,-8.438
16:17:20:79,2.648,-0.180,0.676,0.315,3.927,16.694,-6.571
16:17:20:816,2.674,0.023,0.488,0.158,6.668,17.892,-4.455
16:17:20:843,2.701,0.148,0.096,0.107,10.916,22.712,0.479
16:17:20:869,2.727,0.131,-0.105,0.114,13.449,27.633,5.415
16:17:20:897,2.755,0.129,0.022,0.058,16.183,35.048,14.818
16:17:20:953,2.811,0.339,-0.063,-0.252,18.021,40.200,24.278
16:17:20:953,2.811,0.171,-0.298,-0.190,19.575,41.936,29.513
16:17:20:975,2.833,0.181,-0.368,-0.233,23.568,42.386,35.706
16:17:21:002,2.860,0.568,-0.531,-0.639,27.100,41.662,38.586
16:17:21:026,2.884,0.711,-0.656,-0.723,31.964,41.448,41.693
16:17:21:053,2.911,0.594,-0.649,-0.760,35.071,44.180,44.758
16:17:21:079,2.937,0.493,-0.509,-0.781,35.938,47.223,46.674
16:17:21:105,2.963,0.320,-0.106,-1.093,35.294,52.957,48.894
16:17:21:132,2.990,0.176,0.506,-1.384,32.793,57.078,49.222
16:17:21:158,3.016,0.095,0.529,-0.777,27.798,62.085,47.381
16:17:21:185,3.043,0.397,0.371,-0.493,22.960,64.435,42.826
16:17:21:21,3.068,0.431,0.267,-0.453,19.245,65.594,39.683
16:17:21:236,3.094,0.094,0.141,-0.120,14.381,67.666,35.611
16:17:21:262,3.120,-0.119,0.019,0.166,13.054,67.948,32.231
16:17:21:289,3.147,-0.157,-0.313,0.162,13.476,66.168,26.492
16:17:21:315,3.173,0.063,-0.550,-0.149,13.728,65.466,23.274
16:17:21:341,3.199,-0.108,-0.276,0.249,12.967,68.790,19.787
16:17:21:369,3.227,-0.052,-0.126,0.147,12.080,72.907,16.191
16:17:21:423,3.281,-0.030,-0.096,0.228,11.144,76.998,13.972
16:17:21:424,3.282,0.010,-0.053,0.412,9.387,84.447,11.474
16:17:21:447,3.305,0.163,0.190,0.509,8.153,89.096,10.035
16:17:21:473,3.331,0.344,0.290,0.614,6.472,94.506,7.825
16:17:21:503,3.361,0.512,0.368,0.688,5.448,96.674,6.042
16:17:21:503,3.361,0.528,0.493,0.700,5.030,96.100,5.103
16:17:21:525,3.383,0.498,0.463,0.715,5.143,92.815,4.390
16:17:21:552,3.410,0.395,0.431,0.473,5.810,89.274,4.514
16:17:21:607,3.465,0.366,0.227,0.102,7.477,84.029,5.479
16:17:21:608,3.466,0.383,0.095,0.115,8.707,82.175,6.862
16:17:21:659,3.517,0.441,-0.110,-0.076,11.022,80.286,9.686
16:17:21:66,3.518,0.259,-0.290,0.009,13.294,80.526,13.435
16:17:21:712,3.570,0.165,-0.331,0.025,15.058,81.352,16.299
16:17:21:712,3.570,0.053,-0.248,-0.079,17.977,82.553,20.398
16:17:21:735,3.593,-0.060,-0.145,-0.087,20.025,83.306,22.852
16:17:21:791,3.649,-0.101,-0.154,-0.116,23.333,84.271,26.077
16:17:21:792,3.650,-0.160,-0.122,-0.299,26.485,85.395,28.630
16:17:21:814,3.672,-0.206,-0.089,-0.437,28.238,86.686,30.135
16:17:21:84,3.698,-0.329,-0.100,-0.594,30.282,89.600,32.336
16:17:21:868,3.726,-0.439,-0.412,-0.836,31.167,92.213,33.941
16:17:21:896,3.754,-0.637,-0.432,-0.987,30.789,97.760,36.670
16:17:21:919,3.777,-0.787,0.387,-0.629,26.829,105.333,38.647
16:17:21:947,3.805,-0.765,0.782,-0.540,23.444,109.409,38.482
16:17:21:972,3.830,-0.272,0.267,-0.516,20.663,111.389,34.978
16:17:22:056,3.914,-0.098,0.162,-0.518,19.320,110.364,31.269
16:17:22:056,3.914,0.092,0.144,-0.426,16.989,107.263,25.184
16:17:22:057,3.915,0.140,0.026,-0.251,15.666,104.670,20.986
16:17:22:079,3.937,0.048,-0.293,0.036,14.072,100.637,14.640
16:17:22:104,3.962,-0.003,-0.403,-0.006,12.453,97.110,8.437
16:17:22:129,3.987,-0.001,-0.232,-0.037,10.933,95.900,4.684
16:17:22:155,4.013,0.172,0.011,0.180,8.521,96.377,-0.619
16:17:22:181,4.039,0.348,0.088,0.376,7.142,97.435,-4.241
16:17:22:208,4.066,0.476,0.068,0.445,5.609,99.184,-9.852
16:17:22:236,4.094,0.593,-0.063,0.526,4.799,101.492,-15.465
16:17:22:263,4.121,0.678,-0.108,0.541,4.738,103.516,-18.982
16:17:22:287,4.145,0.744,-0.164,0.515,5.606,107.297,-23.524
16:17:22:313,4.171,0.926,-0.120,0.644,6.970,110.353,-25.721
16:17:22:339,4.197,1.015,-0.004,0.877,9.539,114.510,-27.421
16:17:22:365,4.223,0.827,0.097,0.983,10.912,115.834,-27.438
16:17:22:391,4.249,0.572,0.264,0.915,11.802,115.341,-25.582
16:17:22:418,4.276,0.298,0.347,0.651,12.096,112.949,-21.405
16:17:22:444,4.302,0.180,0.350,0.501,12.526,110.980,-17.489
16:17:22:47,4.328,0.084,0.188,0.184,13.724,107.984,-10.299
16:17:22:497,4.354,0.139,0.033,-0.055,15.011,106.333,-4.709
16:17:22:549,4.407,-0.025,0.154,-0.151,21.447,106.001,15.643
16:17:22:575,4.433,-0.110,0.005,-0.169,24.178,106.994,22.696
16:17:22:603,4.461,-0.196,-0.132,-0.127,28.828,108.041,31.706
16:17:22:628,4.486,-0.407,-0.078,-0.162,32.105,108.470,36.378
16:17:22:654,4.512,-0.595,-0.147,-0.449,36.966,108.926,41.741
16:17:22:68,4.538,-0.757,-0.314,-0.756,39.749,109.303,44.148
16:17:22:708,4.566,-0.675,-0.541,-0.799,42.323,111.081,46.958
16:17:22:762,4.620,-0.584,-0.584,-0.670,41.983,114.431,49.456
16:17:22:763,4.621,-0.659,-0.389,-0.681,39.951,116.754,50.337
16:17:22:785,4.643,-0.730,0.145,-0.683,36.088,119.168,49.765
16:17:22:811,4.669,-0.781,0.300,-0.691,33.776,119.391,47.626
16:17:22:837,4.695,-0.516,0.237,-0.574,30.197,117.592,41.923
16:17:22:864,4.722,-0.190,0.395,-0.512,25.770,114.338,34.642
16:17:22:892,4.750,-0.021,0.332,-0.429,23.047,111.504,29.308
16:17:22:918,4.776,0.074,-0.037,-0.109,19.657,106.848,21.240
16:17:22:943,4.801,-0.088,-0.370,0.018,17.669,104.035,16.122
16:17:22:969,4.827,0.191,-0.194,0.232,14.802,101.438,9.390
16:17:22:995,4.853,0.197,-0.135,-0.161,12.470,99.772,3.950
16:17:23:021,4.879,0.150,-0.040,0.000,10.948,99.637,0.062
16:17:23:049,4.907,0.318,-0.024,0.439,8.936,100.732,-5.805
16:17:23:074,4.932,0.449,-0.104,0.424,7.809,101.178,-9.528
16:17:23:1,4.958,0.534,-0.071,0.449,6.433,102.474,-14.726
16:17:23:126,4.984,0.657,0.003,0.654,5.887,103.892,-17.807
16:17:23:153,5.011,0.649,-0.164,0.581,5.484,105.758,-21.553
16:17:23:179,5.037,0.843,-0.091,0.591,5.384,107.662,-23.731
16:17:23:205,5.063,0.930,0.168,0.720,5.590,108.696,-24.006
16:17:23:232,5.090,0.709,0.317,0.749,6.211,108.917,-23.028
16:17:23:26,5.118,0.515,0.389,0.762,6.820,108.363,-21.489
16:17:23:285,5.143,0.388,0.406,0.628,8.140,106.610,-17.914
16:17:23:31,5.168,0.237,0.429,0.352,10.092,105.007,-12.876
16:17:23:336,5.194,0.197,0.310,0.157,11.777,104.717,-8.743
16:17:23:363,5.221,0.174,-0.083,-0.056,14.783,105.742,-1.053
16:17:23:418,5.276,0.072,-0.055,-0.092,16.898,107.145,5.233
16:17:23:419,5.277,-0.078,0.055,-0.187,20.017,109.516,15.600
16:17:23:443,5.301,-0.171,-0.161,-0.293,23.537,111.077,25.184
16:17:23:497,5.355,-0.128,-0.344,-0.147,26.392,111.524,30.512
16:17:23:497,5.355,-0.213,-0.244,-0.156,31.204,111.845,36.959
16:17:23:551,5.409,-0.313,-0.229,-0.307,34.509,112.126,40.366
16:17:23:551,5.409,-0.511,-0.327,-0.558,39.409,113.092,44.683
16:17:23:572,5.430,-0.643,-0.376,-0.644,42.147,114.504,47.245
16:17:23:628,5.486,-0.778,-0.339,-0.596,44.549,118.050,50.865
16:17:23:629,5.487,-0.932,0.071,-0.489,43.886,122.093,53.434
16:17:23:679,5.537,-0.612,0.435,-0.398,41.957,123.919,53.791
16:17:23:766,5.624,-0.416,0.492,-0.429,38.502,123.947,51.715
16:17:23:766,5.624,-0.199,0.386,-0.552,36.202,122.312,49.127
16:17:23:767,5.625,-0.024,0.253,-0.378,33.052,119.087,45.156
16:17:23:768,5.626,0.115,-0.169,-0.144,31.226,115.172,40.934
16:17:23:786,5.644,0.218,-0.401,-0.049,30.757,112.444,37.839
16:17:23:787,5.645,0.314,-0.710,-0.028,30.073,110.215,33.996
16:17:23:894,5.752,0.287,-0.651,-0.059,28.936,110.670,32.161
16:17:23:894,5.752,0.270,-0.361,0.048,26.777,113.571,30.059
16:17:23:895,5.753,0.390,-0.199,0.086,25.220,116.826,28.156
16:17:23:917,5.775,0.321,-0.199,-0.022,24.414,118.738,27.039
16:17:23:917,5.775,0.302,-0.116,-0.025,22.825,122.175,26.134
16:17:23:967,5.824,0.219,0.153,-0.040,21.588,124.808,26.003
16:17:23:996,5.854,0.084,0.470,-0.153,19.832,128.007,25.624
16:17:23:997,5.855,0.087,0.772,-0.316,18.856,129.593,25.182
16:17:24:077,5.935,0.098,1.013,-0.375,17.958,131.846,24.668
16:17:24:078,5.936,-0.043,0.516,-0.226,18.491,134.840,24.785
16:17:24:079,5.937,-0.124,0.829,-0.135,18.986,137.212,24.784
16:17:24:099,5.957,-0.175,0.653,-0.089,21.303,139.652,24.607
16:17:24:153,6.011,-0.204,0.188,-0.297,23.593,140.591,24.500
16:17:24:154,6.011,-0.214,-0.029,-0.363,26.838,143.112,25.030
16:17:24:205,6.063,-0.071,-0.493,-0.334,29.227,148.358,27.396
16:17:24:206,6.064,0.103,-0.606,-0.208,30.297,152.977,29.954
16:17:24:259,6.117,0.066,-0.519,-0.011,31.689,159.786,33.906
16:17:24:259,6.117,-0.016,-0.484,0.058,33.032,163.420,35.964
16:17:24:282,6.140,-0.110,-0.515,0.149,35.605,167.288,37.961
16:17:24:31,6.168,-0.148,-0.525,0.147,37.385,169.107,38.609
16:17:24:337,6.194,-0.252,-0.433,0.140,39.344,171.550,38.876
16:17:24:362,6.220,-0.438,-0.152,0.277,39.865,175.103,38.650
16:17:24:387,6.245,-0.759,0.144,0.589,39.385,177.588,38.118
16:17:24:413,6.271,-0.733,0.175,0.705,37.496,-177.798,36.791
16:17:24:439,6.297,-0.596,0.024,0.814,35.663,-174.113,35.870
16:17:24:465,6.323,-0.277,0.034,0.685,30.265,-168.075,33.615
16:17:24:493,6.351,0.093,0.439,0.415,24.667,-164.321,29.455
16:17:24:52,6.378,0.176,0.727,0.199,22.454,-165.444,24.959
16:17:24:546,6.404,0.004,0.492,-0.006,20.865,-173.999,16.451
16:17:24:599,6.457,-0.036,0.230,0.033,19.317,178.115,10.966
16:17:24:625,6.483,-0.026,0.082,-0.008,15.816,167.457,5.298
16:17:24:626,6.484,0.010,-0.343,-0.210,12.015,160.918,2.854
16:17:24:65,6.508,0.088,-0.503,-0.190,9.634,159.061,1.930
16:17:24:705,6.562,0.110,-0.406,-0.270,6.211,158.283,0.628
16:17:24:706,6.563,0.160,-0.235,-0.406,4.289,158.820,-0.372
16:17:24:757,6.615,0.280,-0.080,-0.448,2.058,161.469,-2.256
16:17:24:757,6.615,0.472,-0.013,-0.488,1.005,164.169,-3.815
16:17:24:809,6.667,0.492,-0.160,-0.539,0.224,168.779,-6.418
16:17:24:81,6.668,0.483,-0.104,-0.584,0.367,174.046,-8.961
16:17:24:832,6.690,0.520,-0.002,-0.639,0.892,177.870,-10.414
16:17:24:888,6.746,0.569,-0.011,-0.749,2.146,-176.936,-11.863
16:17:24:889,6.747,0.601,0.151,-0.705,3.175,-174.483,-12.181
16:17:24:971,6.829,0.614,0.352,-0.665,4.888,-172.806,-11.427
16:17:24:971,6.829,0.571,0.759,-0.448,6.948,-172.158,-9.179
16:17:24:971,6.829,0.311,0.789,-0.223,8.769,-173.623,-7.092
16:17:24:993,6.851,0.072,0.662,-0.022,12.401,-174.566,-2.986
16:17:25:016,6.874,-0.071,0.446,0.032,15.184,-173.640,0.745
16:17:25:073,6.930,-0.299,0.137,0.127,19.448,-170.341,8.368
16:17:25:073,6.931,-0.293,-0.052,0.142,22.294,-167.509,14.711
16:17:25:098,6.956,-0.377,-0.373,0.047,26.572,-162.740,24.420
16:17:25:123,6.981,-0.106,-0.344,0.081,29.837,-157.211,33.874
16:17:25:178,7.036,-0.050,-0.337,0.082,32.352,-153.862,39.662
16:17:25:178,7.036,-0.218,-0.291,0.305,36.366,-150.084,46.794
16:17:25:2,7.058,-0.362,-0.436,0.515,39.208,-148.197,50.407
16:17:25:228,7.086,-0.463,-0.547,0.541,43.816,-146.069,54.179
16:17:25:254,7.111,-0.572,-0.542,0.680,47.363,-143.790,56.612
16:17:25:309,7.167,-0.595,-0.521,0.771,48.223,-141.972,57.701
16:17:25:309,7.167,-0.472,-0.425,0.785,47.376,-139.108,58.762
16:17:25:361,7.219,-0.493,-0.296,0.858,45.248,-137.493,58.597
16:17:25:362,7.220,-0.566,0.217,1.019,39.353,-135.565,56.273
16:17:25:385,7.243,-0.389,0.436,0.684,32.234,-134.942,50.785
16:17:25:437,7.295,-0.383,0.448,0.521,28.417,-135.975,45.626
16:17:25:629,7.487,-0.453,0.503,0.314,24.109,-139.946,36.815
16:17:25:63,7.488,-0.282,0.181,0.140,22.044,-143.958,30.778
16:17:25:631,7.489,-0.080,-0.038,0.030,19.483,-150.864,22.066
16:17:25:632,7.490,0.083,-0.337,-0.114,17.045,-157.141,14.349
16:17:25:656,7.514,-0.386,-0.389,-0.299,15.372,-159.742,10.458
16:17:25:656,7.514,0.102,-0.254,-0.087,12.852,-158.919,5.775
16:17:25:657,7.515,0.305,-0.151,-0.198,11.476,-157.143,2.571
16:17:25:658,7.516,0.185,-0.054,-0.298,10.082,-155.702,-2.378
16:17:25:732,7.590,0.163,0.061,-0.400,9.384,-153.179,-5.303
16:17:25:733,7.591,0.214,0.118,-0.459,9.218,-148.400,-9.130
16:17:25:734,7.592,0.241,0.103,-0.442,9.991,-142.116,-12.192
16:17:25:783,7.641,0.110,0.002,-0.598,10.978,-137.298,-13.432
16:17:25:784,7.642,0.218,0.384,-0.938,12.922,-129.328,-13.693
16:17:25:785,7.643,0.348,0.572,-0.874,14.387,-125.517,-13.117
16:17:25:805,7.663,0.457,0.617,-0.457,16.340,-122.889,-11.648
16:17:25:831,7.689,0.298,0.427,-0.302,18.058,-121.311,-8.757
16:17:25:858,7.716,0.009,0.253,-0.170,19.122,-120.131,-5.732
16:17:25:912,7.770,-0.381,0.047,-0.037,20.878,-117.670,0.629
16:17:25:913,7.771,-0.319,-0.196,-0.068,22.222,-114.969,6.148
16:17:25:998,7.856,-0.239,-0.246,-0.026,24.107,-110.148,15.783
16:17:25:998,7.856,-0.177,-0.192,0.099,25.905,-107.003,25.106
16:17:25:998,7.856,-0.136,-0.223,0.165,27.558,-106.169,30.437
16:17:25:999,7.857,-0.157,-0.390,0.260,31.178,-106.090,37.286
16:17:26:041,7.898,-0.203,-0.439,0.384,34.123,-106.513,40.807
16:17:26:067,7.925,-0.210,-0.320,0.734,38.415,-107.040,44.426
16:17:26:094,7.952,-0.178,-0.339,1.036,40.727,-106.649,46.204
16:17:26:122,7.980,-0.067,-0.435,1.030,42.545,-104.183,48.262
16:17:26:123,7.981,0.163,-0.333,1.010,41.425,-99.755,49.779
16:17:26:175,8.033,0.274,-0.193,0.982,38.702,-96.302,49.909
16:17:26:175,8.033,0.306,0.280,0.896,32.126,-91.131,48.424
16:17:26:258,8.116,0.074,0.573,0.755,26.780,-88.329,45.914
16:17:26:258,8.116,-0.103,0.578,0.620,20.280,-86.423,39.712
16:17:26:258,8.116,-0.240,0.390,0.532,16.610,-87.690,32.433
16:17:26:306,8.164,-0.157,0.114,0.433,15.520,-89.873,27.634
16:17:26:306,8.164,-0.001,-0.238,0.144,14.596,-93.032,20.872
16:17:26:331,8.189,0.055,-0.553,-0.080,13.849,-94.440,16.524
16:17:26:355,8.213,-0.011,-0.466,-0.087,12.073,-95.038,10.391
16:17:26:381,8.239,-0.118,-0.125,-0.230,10.872,-94.598,6.501
16:17:26:437,8.295,-0.161,-0.001,-0.303,9.744,-93.791,0.521
16:17:26:438,8.296,-0.188,0.202,-0.340,9.096,-92.756,-5.348
16:17:26:462,8.320,-0.249,0.182,-0.365,8.909,-90.876,-8.763
16:17:26:487,8.345,-0.314,0.067,-0.458,9.364,-85.192,-12.656
16:17:26:542,8.400,-0.451,0.131,-0.626,10.118,-80.014,-14.234
16:17:26:543,8.401,-0.777,0.129,-0.873,10.904,-72.951,-15.288
16:17:26:565,8.423,-0.873,-0.027,-0.746,10.698,-70.672,-15.433
16:17:26:591,8.449,-0.680,-0.060,-0.592,9.461,-71.472,-14.582
16:17:26:618,8.475,-0.468,0.402,-0.674,8.050,-75.448,-11.961
16:17:26:703,8.561,-0.271,0.730,-0.540,7.607,-79.175,-9.159
16:17:26:704,8.562,-0.066,0.600,-0.260,8.412,-84.709,-4.045
16:17:26:704,8.562,-0.032,0.450,0.053,10.729,-87.916,2.095
16:17:26:752,8.610,-0.072,0.341,0.250,12.704,-88.540,6.765
16:17:26:753,8.611,-0.151,0.001,0.431,16.096,-87.103,15.054
16:17:26:776,8.634,-0.186,-0.075,0.343,18.442,-84.819,21.589
16:17:26:802,8.660,-0.068,-0.051,0.391,21.942,-80.965,32.033
16:17:26:829,8.687,0.060,-0.229,0.392,24.582,-78.618,38.783
16:17:26:883,8.741,0.113,-0.350,0.261,29.659,-75.867,47.921
16:17:26:884,8.742,0.256,-0.291,0.331,35.846,-73.930,55.320
16:17:26:907,8.765,0.342,-0.357,0.483,40.645,-73.038,59.179
16:17:26:933,8.791,0.442,-0.575,0.779,47.786,-71.854,63.214
16:17:26:959,8.817,0.496,-0.671,0.878,51.094,-70.765,64.794
16:17:26:985,8.843,0.523,-0.731,0.866,52.888,-68.492,66.095
16:17:27:014,8.872,0.700,-0.554,0.962,49.515,-65.858,65.781
16:17:27:039,8.897,0.798,0.005,1.008,44.003,-64.061,64.483
16:17:27:064,8.922,0.765,0.487,0.977,34.182,-62.447,60.033
16:17:27:09,8.948,0.392,0.251,0.839,29.992,-62.965,55.235
16:17:27:116,8.974,0.239,0.226,0.839,25.788,-65.985,46.709
16:17:27:143,9.001,0.167,0.147,0.586,23.303,-68.521,40.816
16:17:27:169,9.027,0.107,0.067,0.202,20.263,-72.555,31.973
16:17:27:197,9.055,0.069,-0.224,0.000,18.603,-77.755,22.921
16:17:27:222,9.080,-0.005,-0.215,-0.069,17.516,-81.661,17.110
16:17:27:248,9.106,-0.065,-0.145,0.146,15.272,-86.364,9.630
16:17:27:274,9.132,-0.137,-0.066,0.015,13.555,-87.980,5.090
16:17:27:33,9.188,-0.213,-0.038,-0.096,11.130,-88.181,-1.015
16:17:27:33,9.188,-0.358,0.019,-0.322,9.692,-86.826,-4.613
16:17:27:382,9.240,-0.522,0.049,-0.588,8.130,-83.123,-9.412
16:17:27:383,9.241,-0.614,-0.069,-0.703,7.265,-80.025,-13.722
16:17:27:407,9.265,-0.626,-0.207,-0.649,6.810,-78.798,-16.188
16:17:27:461,9.319,-0.767,-0.080,-0.648,6.439,-76.733,-18.540
16:17:27:462,9.320,-0.762,0.400,-0.788,6.559,-74.893,-18.844
16:17:27:513,9.371,-0.674,0.453,-0.757,7.335,-72.936,-17.698
16:17:27:514,9.372,-0.450,0.581,-0.749,8.455,-72.376,-14.991
16:17:27:566,9.424,-0.267,0.553,-0.501,9.397,-72.684,-12.150
16:17:27:566,9.424,-0.123,0.556,-0.252,11.208,-72.697,-6.420
16:17:27:589,9.447,-0.159,0.300,0.002,12.550,-71.765,-1.578
16:17:27:617,9.475,-0.223,0.017,0.087,14.449,-69.044,7.333
16:17:27:642,9.500,-0.147,-0.031,0.153,16.166,-66.110,18.114
16:17:27:698,9.556,0.070,0.140,0.246,17.426,-65.229,25.839
16:17:27:698,9.556,0.162,-0.110,0.431,21.077,-66.372,36.565
16:17:27:72,9.578,0.209,-0.253,0.266,24.828,-67.778,42.624
16:17:27:747,9.605,0.190,-0.244,0.172,32.393,-69.909,50.809
16:17:27:773,9.631,0.287,-0.341,0.505,42.426,-72.547,56.823
16:17:27:799,9.657,0.338,-0.416,0.644,48.580,-73.849,59.480
16:17:27:856,9.714,0.465,-0.526,0.807,55.017,-74.064,62.101
16:17:27:856,9.714,0.574,-0.655,0.833,57.400,-72.867,63.265
16:17:27:878,9.736,0.862,-0.693,0.915,58.242,-69.291,64.686
16:17:27:907,9.765,1.013,-0.525,0.929,54.676,-64.180,65.361
16:17:27:93,9.788,1.058,-0.016,0.943,49.352,-60.902,65.016
16:17:27:959,9.817,0.696,0.386,0.812,38.666,-57.457,61.836
16:17:27:985,9.843,0.455,0.352,0.806,32.904,-56.803,57.973
16:17:28:011,9.869,0.218,0.129,0.804,26.960,-58.160,50.795
16:17:28:037,9.895,0.124,-0.120,0.439,22.891,-61.022,42.987
16:17:28:062,9.920,0.086,-0.216,0.198,20.861,-63.356,37.573
16:17:28:148,10.006,0.153,-0.384,-0.015,18.555,-67.421,29.059
16:17:28:148,10.006,0.026,-0.109,-0.104,17.141,-70.084,23.571
16:17:28:148,10.006,0.023,-0.172,-0.016,15.417,-74.323,15.834
16:17:28:168,10.026,-0.035,-0.024,0.072,13.262,-77.689,7.983
16:17:28:194,10.052,-0.171,0.149,-0.014,11.569,-78.136,3.254
16:17:28:219,10.077,-0.366,0.184,-0.193,9.328,-76.040,-2.995
16:17:28:245,10.103,-0.422,0.218,-0.287,8.377,-73.214,-6.663
16:17:28:272,10.130,-0.483,0.130,-0.322,7.744,-67.688,-10.863
16:17:28:3,10.158,-0.755,0.278,-0.284,7.801,-63.222,-12.553
16:17:28:324,10.182,-0.776,0.377,-0.294,8.601,-56.237,-13.266
16:17:28:35,10.208,-0.601,0.343,-0.411,10.032,-50.659,-12.435
16:17:28:376,10.234,-0.452,0.485,-0.537,10.984,-48.014,-10.986
16:17:28:405,10.263,-0.271,0.411,-0.387,12.114,-45.494,-7.343
16:17:28:43,10.288,-0.192,0.257,-0.025,12.645,-44.042,-3.863
16:17:28:456,10.314,-0.216,0.080,0.260,13.363,-41.339,3.032
16:17:28:482,10.340,-0.189,-0.143,0.403,14.221,-38.063,11.691
16:17:28:512,10.370,-0.177,-0.173,0.335,14.820,-35.903,18.151
16:17:28:512,10.370,0.096,-0.035,0.326,15.981,-33.926,28.033
16:17:28:563,10.421,0.286,-0.233,0.392,17.417,-33.670,34.299
16:17:28:564,10.422,0.267,-0.337,0.371,20.984,-33.885,42.734
16:17:28:588,10.446,0.355,-0.404,0.373,24.035,-33.960,47.602
16:17:28:612,10.470,0.421,-0.521,0.451,28.985,-33.569,53.526
16:17:28:639,10.497,0.585,-0.634,0.560,32.362,-32.072,57.743
16:17:28:668,10.526,0.746,-0.515,0.536,32.469,-30.379,59.503
16:17:28:696,10.554,0.866,-0.338,0.427,29.966,-27.401,60.322
16:17:28:718,10.576,0.934,-0.189,0.387,27.060,-25.471,59.544
16:17:28:744,10.602,1.052,0.148,0.412,20.576,-22.865,56.259
16:17:28:799,10.657,0.817,0.497,0.604,13.112,-21.035,50.826
16:17:28:8,10.658,0.614,0.492,0.711,9.625,-20.857,46.615
16:17:28:823,10.681,0.667,0.134,0.858,6.400,-21.799,40.387
16:17:28:85,10.708,0.257,0.007,0.270,3.948,-21.319,36.319
16:17:28:875,10.733,-0.060,0.075,-0.335,2.890,-20.922,30.419
16:17:28:901,10.759,-0.074,-0.508,0.057,4.007,-23.446,26.764
16:17:28:958,10.816,0.033,-0.687,0.126,5.066,-26.938,21.374
16:17:28:958,10.816,-0.097,-0.449,0.066,4.496,-26.991,16.393
16:17:28:98,10.838,-0.239,-0.207,0.069,3.899,-26.115,12.914
16:17:29:008,10.866,-0.226,-0.014,0.132,3.237,-24.518,7.508
16:17:29:034,10.891,-0.271,0.073,0.133,2.745,-22.395,4.151
16:17:29:059,10.917,-0.467,0.125,0.111,2.120,-17.406,-0.400
16:17:29:085,10.943,-0.696,0.295,0.215,1.647,-12.372,-4.221
16:17:29:112,10.970,-0.750,0.325,0.279,1.340,-9.823,-6.196
16:17:29:139,10.997,-0.833,0.339,0.601,0.716,-7.096,-8.057
16:17:29:166,11.024,-0.614,0.127,0.667,0.367,-5.882,-8.307
16:17:29:191,11.049,-0.583,0.229,0.603,0.230,-4.637,-7.216
16:17:29:217,11.075,-0.548,0.443,0.492,0.555,-4.246,-4.234
16:17:29:244,11.102,-0.332,0.397,0.428,1.059,-5.091,-1.294
16:17:29:269,11.127,-0.086,0.288,0.460,2.437,-6.831,4.522
16:17:29:295,11.153,0.110,0.178,0.502,3.722,-7.556,9.265
16:17:29:324,11.182,0.241,0.003,0.458,6.216,-7.926,17.507
16:17:29:349,11.207,0.306,-0.163,0.335,8.355,-7.793,23.497
16:17:29:374,11.232,0.335,-0.246,0.307,12.300,-7.061,32.487
16:17:29:4,11.258,0.291,-0.385,0.213,16.924,-5.514,40.742
16:17:29:456,11.314,0.238,-0.348,0.158,20.109,-4.015,45.735
16:17:29:456,11.314,0.364,-0.245,0.061,24.737,-1.535,52.116
16:17:29:479,11.337,0.559,-0.236,-0.029,27.999,0.036,55.455
16:17:29:505,11.363,0.811,-0.416,-0.147,33.153,2.447,59.088
16:17:29:534,11.392,0.893,-0.601,-0.224,36.368,5.155,61.130
16:17:29:561,11.419,0.831,-0.663,-0.252,36.388,7.368,61.981
16:17:29:584,11.442,0.992,-0.574,-0.460,32.707,11.062,62.476
16:17:29:611,11.469,1.023,0.001,-0.510,27.082,13.781,61.814
16:17:29:665,11.523,0.939,0.412,-0.495,15.584,17.982,58.836
16:17:29:666,11.524,0.827,0.286,-0.134,10.339,19.749,54.968
16:17:29:689,11.547,0.877,0.215,0.039,7.611,19.830,47.274
16:17:29:83,11.688,0.857,0.316,0.209,6.075,17.771,38.732
16:17:29:831,11.689,0.572,0.328,0.234,5.246,16.070,32.631
16:17:29:831,11.689,0.071,0.038,0.178,4.556,13.436,23.374
16:17:29:832,11.690,-0.010,-0.165,0.165,4.315,11.844,17.391
16:17:29:849,11.707,-0.025,-0.029,0.168,3.544,10.155,8.973
16:17:29:85,11.708,-0.321,0.091,0.354,2.582,9.371,0.787
16:17:29:902,11.760,-0.383,0.055,0.442,1.940,8.625,-4.548
16:17:29:903,11.761,-0.424,-0.067,0.562,0.670,8.391,-11.702
16:17:29:952,11.810,-0.449,-0.282,0.557,0.215,10.102,-15.514
16:17:29:981,11.839,-0.400,-0.319,0.580,0.612,14.797,-19.648
16:17:29:981,11.839,-0.410,-0.323,0.646,2.097,20.798,-21.909
16:17:30:007,11.865,-0.565,-0.204,0.765,3.288,24.322,-22.576
16:17:30:032,11.890,-0.872,0.178,0.815,4.811,27.445,-22.257
16:17:30:057,11.915,-0.846,0.278,0.588,5.579,28.049,-21.209
16:17:30:083,11.941,-0.634,0.323,0.388,6.570,28.413,-18.529
16:17:30:139,11.997,-0.332,0.382,0.454,7.350,29.462,-15.646
16:17:30:139,11.997,-0.094,0.376,0.483,8.365,32.196,-9.607
16:17:30:162,12.020,0.241,0.151,0.452,8.948,35.248,-1.632
16:17:30:217,12.075,0.286,0.009,0.388,9.196,37.287,4.768
16:17:30:217,12.075,0.298,0.035,0.217,9.126,39.358,15.106
16:17:30:241,12.098,0.341,-0.016,-0.025,9.047,39.408,21.761
16:17:30:266,12.124,0.291,-0.203,-0.040,9.718,37.601,30.698
16:17:30:293,12.151,0.414,-0.268,-0.106,11.283,35.471,35.943
16:17:30:321,12.179,0.608,-0.519,-0.204,15.834,31.749,41.920
16:17:30:374,12.232,0.723,-0.769,-0.221,20.743,29.591,46.019
16:17:30:375,12.233,0.751,-0.506,-0.382,22.399,29.948,48.166
16:17:30:398,12.256,0.766,-0.415,-0.544,21.951,32.614,50.205
16:17:30:451,12.309,0.636,0.125,-0.826,15.802,39.828,49.470
16:17:30:477,12.335,0.677,0.678,-0.727,9.759,44.304,45.684
16:17:30:503,12.361,0.696,0.671,-0.400,6.811,46.346,41.855
16:17:30:529,12.387,0.870,0.557,-0.192,3.828,47.240,35.649
16:17:30:555,12.413,0.765,0.453,-0.135,2.479,46.830,31.816
16:17:30:583,12.441,0.333,0.132,-0.105,1.618,45.093,26.391
16:17:30:609,12.467,0.034,-0.255,0.049,1.657,42.430,20.927
16:17:30:634,12.492,0.075,-0.421,0.076,1.612,40.795,17.359
16:17:30:66,12.518,0.111,-0.488,0.119,1.012,40.189,12.224
16:17:30:686,12.544,-0.026,-0.404,0.288,0.590,41.060,8.632
16:17:30:742,12.600,-0.045,-0.389,0.359,0.160,42.784,2.802
16:17:30:743,12.601,-0.041,-0.300,0.540,-0.314,44.593,-3.109
16:17:30:768,12.626,-0.060,-0.280,0.615,-0.571,46.279,-6.709
16:17:30:769,12.627,-0.108,-0.254,0.676,-0.616,49.739,-11.112
16:17:30:823,12.681,-0.147,-0.124,0.716,-0.514,52.319,-13.119
16:17:30:823,12.681,-0.010,0.081,0.877,-0.625,55.698,-14.418
16:17:30:903,12.761,-0.041,0.673,1.076,-0.853,57.248,-14.138
16:17:30:903,12.761,0.030,0.653,0.971,-0.830,58.060,-12.254
16:17:30:904,12.762,0.112,0.603,0.737,0.119,58.160,-9.335
16:17:30:949,12.807,0.231,0.586,0.563,1.419,58.683,-6.686
16:17:30:978,12.836,0.399,0.446,0.331,4.115,61.319,-1.635
16:17:30:979,12.837,0.519,0.338,0.180,6.004,64.299,2.585
16:17:31:002,12.860,0.547,-0.091,-0.021,8.437,69.595,9.935
16:17:31:03,12.888,0.466,-0.326,0.038,9.685,73.041,15.246
16:17:31:056,12.914,0.406,-0.286,0.084,11.393,76.666,23.319
16:17:31:081,12.939,0.383,-0.282,-0.234,14.172,77.777,30.825
16:17:31:108,12.966,0.308,-0.448,-0.303,17.129,77.770,35.299
16:17:31:134,12.992,0.267,-0.548,-0.271,22.742,77.609,40.779
16:17:31:16,13.018,0.216,-0.458,-0.394,26.365,77.833,43.499
16:17:31:186,13.044,0.182,-0.374,-0.470,30.271,79.247,46.303
16:17:31:212,13.070,-0.028,-0.165,-0.733,31.880,82.112,47.743
16:17:31:267,13.125,-0.220,-0.104,-0.942,31.722,84.579,47.700
16:17:31:268,13.126,-0.332,-0.166,-0.834,29.678,89.154,46.404
16:17:31:291,13.149,-0.356,-0.011,-0.627,26.761,92.856,44.823
16:17:31:316,13.174,-0.276,0.156,-0.456,21.189,98.474,41.011
16:17:31:343,13.200,-0.140,0.447,-0.424,16.534,102.498,35.212
16:17:31:369,13.227,-0.061,0.543,-0.347,14.387,103.645,30.280
16:17:31:397,13.255,0.078,0.517,-0.166,12.571,102.395,22.140
16:17:31:423,13.281,0.052,0.191,-0.138,12.018,99.712,16.538
16:17:31:448,13.306,0.043,-0.026,-0.066,11.113,94.852,8.515
16:17:31:474,13.332,0.062,-0.304,0.109,9.549,91.911,1.244
16:17:31:529,13.387,0.163,-0.314,0.249,8.277,91.420,-3.295
16:17:31:53,13.388,0.262,-0.273,0.274,6.545,91.479,-9.601
16:17:31:553,13.411,0.351,-0.049,0.346,5.628,91.802,-13.553
16:17:31:581,13.439,0.408,0.082,0.524,4.824,93.559,-19.296
16:17:31:606,13.464,0.447,0.027,0.751,4.950,95.769,-22.876
16:17:31:631,13.489,0.536,-0.100,0.822,6.181,100.056,-27.827
16:17:31:659,13.517,0.699,-0.111,1.020,8.139,104.551,-31.931
16:17:31:684,13.542,0.843,-0.211,1.111,9.255,107.183,-33.988
16:17:31:711,13.568,0.991,-0.360,1.016,9.390,109.435,-35.820
16:17:31:737,13.595,0.936,-0.335,0.811,8.187,109.694,-35.834
16:17:31:763,13.621,0.739,-0.276,0.583,5.346,108.423,-33.673
16:17:31:789,13.647,0.632,0.207,0.753,3.486,106.110,-29.140
16:17:31:815,13.673,0.534,0.341,0.746,3.341,104.461,-25.331
16:17:31:842,13.700,0.416,0.238,0.501,4.595,102.570,-18.893
16:17:31:868,13.726,0.384,0.266,0.278,6.051,102.125,-14.111
16:17:31:895,13.753,0.362,0.191,0.074,8.656,103.058,-6.019
16:17:31:952,13.810,0.242,0.079,-0.004,10.290,104.464,0.243
16:17:31:952,13.810,0.141,0.126,-0.094,12.529,106.249,10.573
16:17:31:973,13.831,0.014,0.088,-0.222,15.175,106.779,20.658
16:17:31:999,13.857,-0.174,0.002,-0.216,16.961,107.500,27.117
16:17:32:025,13.883,-0.190,-0.146,-0.136,20.286,108.440,36.135
16:17:32:051,13.909,-0.270,-0.271,-0.308,23.678,107.794,40.558
16:17:32:078,13.936,-0.349,-0.402,-0.592,29.326,106.819,44.677
16:17:32:104,13.962,-0.528,-0.337,-0.751,32.555,107.694,46.877
16:17:32:131,13.989,-0.650,-0.315,-0.791,32.883,109.263,47.311
16:17:32:159,14.017,-0.659,-0.181,-0.616,31.118,112.334,46.768
16:17:32:184,14.042,-0.567,-0.129,-0.550,29.018,114.207,45.303
16:17:32:21,14.068,-0.570,0.067,-0.521,25.335,116.110,41.555
16:17:32:264,14.122,-0.564,0.495,-0.439,22.826,116.473,37.730
16:17:32:265,14.123,-0.389,0.551,-0.266,19.996,114.930,30.102
16:17:32:288,14.146,-0.140,0.487,-0.145,17.891,110.571,21.278
16:17:32:314,14.172,-0.011,0.368,-0.118,16.420,106.709,15.128
16:17:32:341,14.199,0.152,0.001,0.025,13.857,101.100,6.631
16:17:32:367,14.225,0.228,-0.247,0.149,11.946,98.174,1.577
16:17:32:393,14.251,0.270,-0.357,0.204,8.855,95.293,-5.187
16:17:32:419,14.277,0.321,-0.265,0.242,5.752,93.502,-11.051
16:17:32:445,14.303,0.389,-0.162,0.283,3.749,92.864,-14.725
16:17:32:473,14.331,0.534,-0.013,0.496,1.256,93.363,-20.113
16:17:32:498,14.356,0.623,-0.113,0.644,0.183,94.564,-23.613
16:17:32:525,14.383,0.664,-0.295,0.698,-0.523,97.016,-28.644
16:17:32:551,14.409,0.765,-0.294,0.778,-0.332,99.668,-32.875
16:17:32:577,14.435,0.752,-0.301,0.778,0.216,101.319,-34.901
16:17:32:629,14.487,0.894,-0.074,0.929,2.636,104.750,-35.880
16:17:32:655,14.513,0.669,0.023,0.869,4.182,105.219,-33.651
16:17:32:681,14.539,0.495,0.283,0.931,5.733,104.450,-29.461
16:17:32:71,14.568,0.365,0.319,0.782,6.918,103.312,-25.872
16:17:32:735,14.593,0.208,0.351,0.550,9.238,101.630,-19.653
16:17:32:76,14.618,0.172,0.341,0.402,11.113,101.090,-14.934
16:17:32:786,14.644,0.174,0.128,0.125,14.205,101.432,-6.842
16:17:32:813,14.671,0.141,-0.021,0.047,16.373,102.449,-0.655
16:17:32:839,14.697,0.031,0.061,0.045,19.425,104.607,9.528
16:17:32:898,14.756,-0.138,0.082,-0.072,22.391,105.945,19.729
16:17:32:898,14.756,-0.233,-0.060,-0.130,24.847,105.852,25.993
16:17:32:899,14.757,-0.283,-0.294,-0.225,29.811,104.340,33.850
16:17:32:945,14.803,-0.355,-0.304,-0.367,33.834,102.774,37.717
16:17:32:974,14.832,-0.439,-0.287,-0.586,39.788,100.804,41.789
16:17:32:974,14.832,-0.561,-0.409,-0.831,44.168,100.486,44.189
16:17:33:025,14.883,-0.557,-0.482,-0.813,45.550,101.808,45.388
16:17:33:026,14.884,-0.671,-0.355,-0.620,44.573,105.938,46.943
16:17:33:108,14.966,-0.569,-0.058,-0.498,41.795,109.162,47.138
16:17:33:108,14.966,-0.527,0.214,-0.454,35.563,113.111,45.441
16:17:33:109,14.967,-0.468,0.431,-0.435,29.133,114.605,40.279
16:17:33:129,14.987,-0.337,0.435,-0.368,25.776,113.979,35.403
16:17:33:154,15.012,-0.220,0.470,-0.323,22.066,110.909,27.004
16:17:33:18,15.038,-0.104,0.402,-0.243,20.038,107.833,21.070
16:17:33:208,15.066,0.157,0.022,0.062,17.185,103.185,12.661
16:17:33:234,15.092,0.250,-0.201,0.178,15.375,100.409,7.409
16:17:33:26,15.118,0.330,-0.331,0.158,12.445,96.868,0.209
16:17:33:286,15.144,0.433,-0.159,0.299,9.562,94.852,-6.132
16:17:33:311,15.169,0.503,-0.116,0.376,8.009,94.218,-10.075
16:17:33:338,15.196,0.584,-0.156,0.454,6.332,94.316,-15.505
16:17:33:364,15.222,0.607,-0.292,0.609,5.892,95.437,-18.700
16:17:33:39,15.248,0.677,-0.340,0.752,6.391,98.492,-22.573
16:17:33:416,15.274,0.685,-0.258,0.805,7.599,101.588,-24.797
16:17:33:501,15.359,0.680,-0.227,0.668,8.366,103.187,-25.173
16:17:33:502,15.360,0.755,0.285,0.820,9.453,105.592,-24.095
16:17:33:503,15.361,0.678,0.464,0.867,10.390,107.112,-22.317
16:17:33:522,15.380,0.540,0.500,0.875,12.189,108.923,-18.583
16:17:33:577,15.435,0.383,0.641,0.605,13.395,109.481,-15.512
16:17:33:603,15.461,0.265,0.715,0.366,15.514,109.863,-9.924
16:17:33:604,15.462,0.141,0.554,-0.014,18.400,112.011,-2.587
16:17:33:685,15.543,0.102,0.261,-0.139,20.478,115.143,3.716
16:17:33:686,15.544,-0.007,-0.032,-0.222,23.325,120.738,14.829
16:17:33:686,15.544,-0.103,-0.228,-0.321,25.049,123.954,22.321
16:17:33:734,15.592,-0.077,-0.274,-0.203,27.687,127.566,32.275
16:17:33:735,15.593,-0.154,-0.304,-0.216,31.802,129.063,40.738
16:17:33:787,15.645,-0.190,-0.513,-0.345,35.992,128.783,44.877
16:17:33:787,15.645,-0.175,-0.727,-0.472,42.331,128.284,48.973
16:17:33:81,15.668,-0.427,-0.535,-0.483,45.404,128.865,50.949
16:17:33:864,15.722,-0.572,-0.473,-0.491,47.940,131.306,52.959
16:17:33:892,15.750,-0.810,-0.449,-0.390,48.242,135.465,53.916
16:17:33:893,15.751,-0.897,-0.371,-0.187,47.236,139.078,54.020
16:17:33:917,15.775,-0.952,-0.181,0.039,43.248,144.930,52.345
16:17:33:943,15.801,-0.884,0.162,0.145,39.254,148.595,49.691
16:17:33:968,15.826,-0.625,0.597,0.104,32.753,152.825,43.211
16:17:34:025,15.883,-0.441,0.668,-0.009,28.737,154.766,37.843
16:17:34:026,15.884,-0.109,0.907,0.049,23.688,156.303,29.292
16:17:34:047,15.905,0.083,0.600,0.102,21.522,153.318,19.684
16:17:34:073,15.931,0.195,0.371,0.094,20.973,148.994,13.095
16:17:34:099,15.957,0.289,-0.165,0.166,20.518,142.463,4.418
16:17:34:125,15.983,0.102,-0.456,0.045,20.120,139.525,-0.219
16:17:34:181,16.039,0.203,-0.389,0.115,19.403,139.927,-5.161
16:17:34:181,16.039,0.361,-0.236,0.187,19.469,144.738,-8.189
16:17:34:262,16.120,0.422,-0.163,0.206,20.149,148.646,-9.712
16:17:34:263,16.121,0.506,-0.225,0.269,21.775,154.879,-11.261
16:17:34:264,16.122,0.563,-0.253,0.277,23.061,159.485,-11.871
16:17:34:313,16.171,0.728,-0.121,0.289,24.986,167.699,-11.773
16:17:34:313,16.171,0.989,0.107,0.257,26.114,173.764,-11.117
16:17:34:336,16.194,1.082,0.209,0.088,27.395,-178.322,-10.377
16:17:34:363,16.221,0.995,0.210,-0.143,28.017,-173.966,-10.610
16:17:34:389,16.247,0.746,0.002,-0.233,28.062,-173.196,-10.988
16:17:34:445,16.303,0.686,0.243,-0.112,27.483,-173.782,-10.884
16:17:34:446,16.304,0.576,0.453,-0.054,26.844,-175.097,-9.987
16:17:34:467,16.325,0.315,0.440,-0.012,25.975,-178.660,-7.580
16:17:34:493,16.351,0.081,0.451,-0.099,25.963,177.829,-3.167
16:17:34:519,16.377,-0.008,0.365,-0.136,26.787,176.545,1.272
16:17:34:546,16.404,-0.121,0.188,-0.064,29.212,176.104,9.781
16:17:34:601,16.459,-0.217,0.114,0.066,31.511,176.559,16.126
16:17:34:602,16.460,-0.282,-0.008,0.073,35.742,177.969,25.708
16:17:34:683,16.540,-0.291,-0.262,0.029,39.056,179.209,31.895
16:17:34:683,16.541,-0.274,-0.441,-0.037,44.593,-178.484,40.478
16:17:34:684,16.542,-0.307,-0.507,-0.002,49.777,-175.398,47.829
16:17:34:704,16.562,-0.354,-0.422,0.137,52.619,-172.939,51.952
16:17:34:729,16.587,-0.531,-0.374,0.367,56.039,-169.105,56.565
16:17:34:845,16.703,-0.620,-0.455,0.444,57.704,-166.848,58.357
16:17:34:845,16.703,-0.617,-0.652,0.513,58.651,-162.815,59.401
16:17:34:845,16.703,-0.580,-0.542,0.682,56.221,-158.690,58.851
16:17:34:846,16.704,-0.528,-0.285,0.719,52.057,-155.681,57.343
16:17:34:861,16.719,-0.453,0.406,0.765,43.299,-151.896,52.475
16:17:34:887,16.745,-0.460,0.524,0.543,38.211,-151.010,47.125
16:17:34:976,16.834,-0.391,0.597,0.461,33.718,-153.168,37.016
16:17:34:976,16.834,-0.291,0.418,0.352,31.314,-159.089,25.557
16:17:34:976,16.834,-0.123,0.171,0.272,29.904,-164.092,17.963
16:17:34:977,16.835,0.107,-0.189,0.185,27.792,-170.863,7.784
16:17:35:018,16.875,0.110,-0.263,0.167,26.263,-174.327,2.015
16:17:35:044,16.902,0.098,-0.138,0.152,23.715,-177.096,-4.895
16:17:35:104,16.962,0.265,0.016,0.031,22.189,-177.207,-8.718
16:17:35:104,16.962,0.377,0.019,-0.055,20.670,-175.471,-14.067
16:17:35:104,16.962,0.546,-0.015,-0.199,20.443,-171.445,-18.734
16:17:35:154,17.012,0.677,-0.083,-0.293,21.187,-167.400,-21.172
16:17:35:154,17.012,0.739,-0.076,-0.397,23.386,-160.162,-23.560
16:17:35:235,17.093,0.615,-0.268,-0.462,25.119,-155.126,-24.291
16:17:35:235,17.093,0.540,-0.266,-0.639,27.585,-147.656,-24.067
16:17:35:235,17.093,0.759,0.051,-0.705,29.367,-141.497,-22.603
16:17:35:283,17.141,0.965,0.262,-0.574,29.965,-139.272,-21.377
16:17:35:284,17.142,0.950,0.269,-0.315,29.939,-138.701,-19.397
16:17:35:306,17.164,0.729,0.305,-0.091,29.557,-139.292,-17.491
16:17:35:448,17.306,0.538,0.323,-0.011,28.940,-139.984,-12.908
16:17:35:448,17.306,0.154,0.193,-0.053,28.670,-139.839,-8.610
16:17:35:449,17.307,0.007,0.120,-0.047,28.626,-138.714,-0.298
16:17:35:45,17.308,0.009,0.063,-0.030,28.960,-136.961,9.960
16:17:35:468,17.326,0.049,0.186,0.133,29.328,-136.824,16.996
16:17:35:469,17.327,-0.126,0.145,0.372,30.929,-138.710,26.859
16:17:35:49,17.348,-0.222,0.029,0.460,33.177,-140.891,32.733
16:17:35:517,17.375,-0.314,-0.253,0.443,38.202,-143.775,40.313
16:17:35:602,17.460,-0.469,-0.521,0.449,44.007,-145.135,46.615
16:17:35:602,17.460,-0.534,-0.628,0.486,47.259,-144.348,50.435
16:17:35:603,17.461,-0.540,-0.629,0.584,49.915,-140.855,55.588
16:17:35:652,17.510,-0.501,-0.467,0.826,50.192,-137.877,57.980
16:17:35:652,17.510,-0.411,-0.322,0.964,48.474,-133.483,59.124
16:17:35:674,17.532,-0.360,0.047,1.068,43.962,-129.702,57.346
16:17:35:759,17.617,-0.436,0.350,0.998,39.768,-127.944,54.608
16:17:35:759,17.617,-0.519,0.552,0.782,34.018,-127.065,48.567
16:17:35:76,17.618,-0.547,0.507,0.728,31.257,-127.381,43.909
16:17:35:809,17.667,-0.075,0.163,0.604,28.672,-127.827,36.803
16:17:35:809,17.667,0.296,-0.267,0.423,27.782,-128.451,31.658
16:17:35:834,17.692,-0.046,-0.361,0.419,26.913,-130.213,23.370
16:17:35:916,17.774,0.491,-0.088,-0.492,26.241,-128.352,17.233
16:17:35:917,17.775,0.292,-0.473,-0.310,26.871,-129.026,13.060
16:17:35:918,17.776,0.034,-0.268,0.009,26.906,-129.497,6.169
16:17:35:967,17.825,0.374,-0.168,-0.218,26.879,-127.001,2.672
16:17:35:967,17.825,0.296,-0.134,-0.212,27.050,-122.290,-1.217
16:17:35:989,17.847,0.269,-0.152,-0.171,27.492,-116.734,-3.771
16:17:36:015,17.873,0.353,-0.048,-0.299,27.750,-111.922,-4.241
16:17:36:044,17.902,0.349,0.249,-0.457,27.650,-104.749,-3.717
16:17:36:07,17.928,0.148,0.318,-0.496,27.280,-100.872,-2.925
16:17:36:125,17.983,0.178,0.566,-0.590,26.576,-96.714,-1.237
16:17:36:125,17.983,0.230,0.607,-0.528,26.245,-95.616,-0.025
16:17:36:176,18.034,0.278,0.663,-0.426,26.094,-96.429,1.772
16:17:36:177,18.035,0.174,0.599,-0.078,26.736,-98.852,4.303
16:17:36:199,18.057,0.031,0.479,0.195,27.718,-100.039,6.866
16:17:36:255,18.113,-0.098,0.404,0.349,29.821,-99.132,12.824
16:17:36:255,18.113,-0.258,0.193,0.319,31.554,-96.876,18.105
16:17:36:278,18.136,-0.247,-0.112,0.218,34.856,-92.703,27.426
16:17:36:304,18.162,-0.079,-0.115,0.290,39.223,-88.933,37.355
16:17:36:33,18.188,-0.035,-0.193,0.408,42.917,-87.088,43.546
16:17:36:387,18.245,-0.059,-0.413,0.358,49.699,-85.029,51.674
16:17:36:387,18.245,-0.040,-0.560,0.326,54.708,-83.782,56.394
16:17:36:409,18.267,-0.048,-0.613,0.349,61.556,-81.576,62.397
16:17:36:436,18.294,0.083,-0.584,0.417,66.418,-78.611,67.304
16:17:36:464,18.322,0.218,-0.535,0.502,68.611,-76.477,69.788
16:17:36:489,18.347,0.388,-0.511,0.664,70.273,-73.499,71.778
16:17:36:517,18.375,0.494,-0.551,0.805,70.149,-71.759,71.933
16:17:36:542,18.400,0.657,-0.598,0.829,67.849,-68.790,70.891
16:17:36:597,18.455,0.636,-0.429,0.756,64.203,-66.887,69.236
16:17:36:598,18.456,0.695,-0.042,0.741,55.231,-64.449,64.988
16:17:36:679,18.537,0.603,0.312,0.776,44.612,-63.483,58.030
16:17:36:679,18.537,0.466,0.391,0.725,38.838,-64.299,52.149
16:17:36:679,18.537,0.307,0.507,0.605,32.903,-68.088,42.375
16:17:36:725,18.583,0.022,0.249,0.382,30.450,-72.333,35.706
16:17:36:754,18.612,-0.047,-0.012,0.121,28.458,-80.128,26.252
16:17:36:806,18.663,0.016,-0.437,0.028,27.077,-88.225,17.451
16:17:36:838,18.696,0.040,-0.318,0.187,25.409,-92.346,12.306
16:17:36:838,18.696,0.017,-0.054,0.188,22.210,-94.571,6.427
16:17:36:838,18.696,-0.039,0.039,0.120,20.207,-93.805,3.242
16:17:36:885,18.743,-0.081,0.137,-0.051,17.755,-89.880,-0.936
16:17:36:885,18.743,-0.264,0.182,-0.407,16.239,-82.909,-4.306
16:17:36:91,18.768,-0.414,0.161,-0.595,15.952,-77.423,-6.217
16:17:36:993,18.851,-0.612,0.125,-0.791,16.259,-69.931,-8.590
16:17:36:994,18.851,-0.729,0.087,-0.679,16.488,-66.549,-9.916
16:17:36:995,18.852,-0.809,0.287,-0.632,16.404,-63.980,-11.061
16:17:37:042,18.900,-0.554,0.254,-0.490,16.221,-64.099,-10.984
16:17:37:043,18.901,-0.293,0.478,-0.580,15.955,-66.628,-9.642
16:17:37:066,18.924,-0.034,0.681,-0.477,16.311,-71.469,-6.765
16:17:37:092,18.950,0.195,0.630,-0.151,17.306,-75.109,-4.117
16:17:37:12,18.978,0.218,0.533,0.065,20.096,-78.401,1.353
16:17:37:145,19.003,0.068,0.238,0.283,22.499,-78.347,6.276
16:17:37:171,19.029,0.053,0.058,0.335,26.579,-75.159,15.836
16:17:37:197,19.055,0.107,0.017,0.251,30.784,-69.590,27.881
16:17:37:224,19.082,0.209,0.033,0.291,33.768,-66.097,36.285
16:17:37:249,19.107,0.343,-0.077,0.346,39.606,-62.669,47.960
16:17:37:275,19.133,0.397,-0.224,0.343,45.237,-61.533,54.899
16:17:37:302,19.160,0.428,-0.496,0.481,56.159,-60.564,63.917
16:17:37:357,19.215,0.430,-0.686,0.610,67.299,-58.928,71.783
16:17:37:358,19.216,0.468,-0.790,0.700,73.467,-57.181,76.369
16:17:37:38,19.238,0.586,-0.865,0.736,78.838,-54.011,80.957
16:17:37:407,19.265,0.531,-0.818,0.650,80.469,-52.203,82.611
16:17:37:433,19.291,0.598,-0.686,0.632,79.498,-50.530,82.616
16:17:37:46,19.317,0.552,-0.518,0.658,73.411,-50.139,79.441
16:17:37:488,19.346,0.533,-0.397,0.684,66.691,-50.439,75.917
16:17:37:489,19.347,0.637,-0.123,0.767,53.302,-51.506,68.324
16:17:37:57,19.428,0.707,0.175,0.734,44.631,-52.667,62.043
16:17:37:571,19.429,0.676,0.367,0.617,35.958,-55.842,51.081
16:17:37:572,19.430,0.514,0.273,0.555,32.540,-59.384,42.875
16:17:37:648,19.506,0.303,0.252,0.410,28.169,-65.233,30.737
16:17:37:649,19.507,0.102,0.086,0.091,24.261,-69.542,19.868
16:17:37:65,19.508,0.087,0.005,0.045,22.157,-71.879,13.340
16:17:37:67,19.528,0.156,0.051,0.099,19.275,-74.146,4.797
16:17:37:696,19.554,0.087,0.195,0.007,17.305,-73.808,0.069
16:17:37:753,19.611,-0.262,0.340,-0.279,14.907,-70.447,-5.703
16:17:37:754,19.612,-0.494,0.129,-0.449,14.045,-67.231,-8.904
16:17:37:775,19.633,-0.587,0.018,-0.486,13.658,-62.057,-12.797
16:17:37:801,19.659,-0.753,0.045,-0.602,13.795,-57.146,-15.549
16:17:37:826,19.684,-0.788,-0.134,-0.587,13.807,-54.894,-16.963
16:17:37:853,19.711,-0.886,-0.153,-0.482,13.404,-53.070,-18.300
16:17:37:879,19.737,-0.885,-0.052,-0.457,12.969,-52.520,-18.278
16:17:37:935,19.793,-0.790,0.079,-0.484,12.460,-53.229,-16.817
16:17:37:936,19.794,-0.579,0.451,-0.622,12.302,-55.049,-13.679
16:17:37:958,19.816,-0.385,0.590,-0.528,12.545,-57.119,-10.698
16:17:37:984,19.842,-0.035,0.690,-0.219,13.878,-60.178,-4.949
16:17:38:01,19.868,0.038,0.485,0.084,15.416,-61.079,-0.192
16:17:38:066,19.924,0.077,0.289,0.218,18.322,-60.199,8.501
16:17:38:066,19.924,0.037,0.124,0.258,21.508,-57.333,19.227
16:17:38:119,19.977,0.210,0.270,0.275,23.703,-55.287,27.109
16:17:38:12,19.978,0.506,0.236,0.350,28.254,-53.687,38.888
16:17:38:143,20.001,0.652,-0.103,0.434,32.998,-53.573,46.147
16:17:38:169,20.027,0.512,-0.425,0.415,42.483,-53.342,56.198
16:17:38:196,20.054,0.502,-0.555,0.535,53.496,-52.795,64.612
16:17:38:221,20.079,0.560,-0.610,0.640,60.401,-51.804,69.367
16:17:38:246,20.104,0.648,-0.746,0.722,68.756,-49.174,75.516
16:17:38:273,20.131,0.686,-0.837,0.697,72.795,-47.059,78.765
16:17:38:329,20.187,0.778,-0.856,0.663,76.508,-44.008,82.131
16:17:38:329,20.187,0.869,-0.688,0.656,76.714,-42.691,83.042
16:17:38:352,20.210,0.909,-0.314,0.625,71.500,-40.951,81.852
16:17:38:378,20.236,0.884,-0.117,0.647,59.070,-41.071,76.887
16:17:38:404,20.262,0.747,-0.149,0.754,50.366,-42.014,71.791
16:17:38:431,20.289,0.720,0.012,0.838,39.544,-44.751,62.779
16:17:38:457,20.315,0.636,0.140,0.744,33.727,-47.031,56.112
16:17:38:484,20.342,0.406,0.149,0.433,27.772,-50.977,45.705
16:17:38:509,20.367,0.138,-0.057,0.126,25.324,-53.788,38.791
16:17:38:535,20.393,0.121,-0.143,0.055,22.930,-58.227,28.861
16:17:38:561,20.419,0.173,-0.062,0.041,20.826,-62.720,19.645
16:17:38:588,20.446,0.067,0.080,-0.006,19.221,-65.287,13.878
16:17:38:616,20.474,-0.177,0.193,-0.078,16.383,-67.666,6.115
16:17:38:642,20.500,-0.368,0.094,-0.176,14.490,-68.110,1.771
16:17:38:669,20.527,-0.464,0.003,-0.176,11.925,-67.415,-3.325
16:17:38:722,20.580,-0.473,0.080,-0.160,9.847,-65.122,-6.422
16:17:38:723,20.581,-0.474,0.096,-0.117,8.765,-62.850,-7.418
16:17:38:746,20.604,-0.734,0.479,-0.236,7.676,-58.826,-7.679
16:17:38:771,20.629,-0.650,0.550,-0.308,7.589,-56.714,-7.257
16:17:38:798,20.656,-0.438,0.472,-0.367,8.527,-54.676,-6.052
16:17:38:826,20.684,-0.192,0.479,-0.264,10.349,-52.750,-3.837
16:17:38:852,20.710,-0.104,0.371,-0.022,11.890,-50.690,-1.458
16:17:38:936,20.794,-0.029,0.310,0.256,14.244,-45.554,3.977
16:17:38:936,20.794,-0.019,0.061,0.439,15.674,-40.698,8.947
16:17:38:937,20.795,-0.136,-0.121,0.370,16.974,-32.029,18.280
16:17:38:955,20.813,-0.078,-0.114,0.271,17.247,-24.380,28.698
16:17:38:982,20.840,0.103,-0.085,0.270,17.329,-21.206,35.419
16:17:39:008,20.866,0.255,-0.184,0.363,18.719,-19.311,44.752
16:17:39:036,20.894,0.264,-0.280,0.376,21.658,-19.366,50.351
16:17:39:061,20.919,0.289,-0.478,0.391,29.951,-20.162,57.684
16:17:39:087,20.945,0.436,-0.555,0.461,36.745,-20.461,61.648
16:17:39:113,20.971,0.553,-0.514,0.497,45.136,-19.887,66.127
16:17:39:139,20.997,0.766,-0.443,0.446,49.018,-18.152,68.807
16:17:39:168,21.026,0.890,-0.418,0.377,48.949,-16.539,69.526
16:17:39:193,21.051,1.017,-0.436,0.174,45.031,-13.738,69.032
16:17:39:218,21.076,0.981,-0.345,0.122,39.188,-11.811,67.427
16:17:39:244,21.102,1.044,-0.025,0.150,26.626,-9.219,62.919
16:17:39:302,21.160,1.122,0.404,0.277,16.535,-7.513,56.419
16:17:39:302,21.160,0.946,0.378,0.306,13.357,-7.381,51.783
16:17:39:323,21.181,0.838,0.347,0.256,12.690,-9.066,44.725
16:17:39:349,21.207,0.569,-0.005,0.172,13.055,-12.233,37.612
16:17:39:404,21.262,0.333,-0.157,0.131,12.728,-13.980,33.209
16:17:39:405,21.263,0.057,-0.419,0.054,11.766,-15.694,27.126
16:17:39:431,21.289,0.095,-0.396,0.075,10.975,-16.467,23.399
16:17:39:454,21.312,0.060,-0.219,0.105,9.673,-16.754,18.067
16:17:39:508,21.366,-0.003,-0.143,0.134,8.782,-16.128,14.536
16:17:39:536,21.394,-0.097,0.005,0.144,7.573,-13.655,9.239
16:17:39:536,21.394,-0.208,0.012,0.136,6.870,-9.128,4.036
16:17:39:559,21.417,-0.262,-0.006,0.127,6.817,-5.013,0.688
16:17:39:585,21.443,-0.414,0.245,0.139,7.347,2.685,-4.026
16:17:39:614,21.472,-0.631,0.391,0.227,8.125,8.532,-6.735
16:17:39:639,21.497,-0.647,0.418,0.444,9.859,17.699,-9.804
16:17:39:695,21.553,-0.616,0.138,0.521,11.718,26.424,-11.428
16:17:39:695,21.553,-0.692,-0.105,0.768,12.331,31.235,-11.567
16:17:39:717,21.575,-0.737,0.073,0.784,11.727,34.486,-9.936
16:17:39:743,21.601,-0.479,0.285,0.435,10.493,32.736,-7.946
16:17:39:769,21.627,-0.255,0.355,0.271,8.532,27.953,-3.662
16:17:39:796,21.654,0.014,0.261,0.295,7.765,24.661,0.227
16:17:39:824,21.682,0.180,0.145,0.333,7.600,20.901,7.545
16:17:39:852,21.710,0.364,-0.042,0.392,8.550,18.537,16.326
16:17:39:852,21.710,0.476,-0.059,0.353,9.758,17.473,22.696
16:17:39:875,21.733,0.551,-0.105,0.186,12.580,16.752,32.598
16:17:39:901,21.759,0.511,-0.175,0.103,14.944,16.806,38.997
16:17:39:956,21.814,0.371,-0.272,0.048,19.128,17.311,47.935
16:17:39:956,21.814,0.400,-0.317,0.055,24.879,17.633,55.515
16:17:40:009,21.867,0.453,-0.341,0.003,29.897,17.637,59.640
16:17:40:009,21.867,0.606,-0.357,-0.103,38.195,17.456,64.240
16:17:40:032,21.890,0.794,-0.331,-0.227,42.544,17.449,66.166
16:17:40:087,21.945,0.893,-0.363,-0.292,45.975,17.220,67.370
16:17:40:088,21.946,0.982,-0.422,-0.464,45.323,18.035,66.751
16:17:40:111,21.969,0.956,-0.405,-0.470,41.823,18.608,65.287
16:17:40:137,21.994,0.858,-0.186,-0.396,32.766,20.381,61.944
16:17:40:164,22.022,0.925,0.125,-0.324,25.485,21.500,58.805
16:17:40:189,22.047,0.882,0.364,-0.143,16.927,22.353,52.959
16:17:40:245,22.103,0.830,0.245,-0.032,14.364,21.814,48.764
16:17:40:246,22.104,0.740,0.033,-0.051,13.463,19.284,42.066
16:17:40:326,22.184,0.427,-0.234,-0.002,12.354,16.570,35.391
16:17:40:327,22.185,0.227,-0.302,0.048,10.976,15.694,31.095
16:17:40:328,22.185,0.082,-0.299,0.098,8.651,15.423,24.538
16:17:40:347,22.205,0.084,-0.193,0.123,7.355,15.525,20.117
16:17:40:373,22.231,0.082,-0.109,0.145,5.799,16.201,13.383
16:17:40:428,22.286,0.003,0.118,0.211,4.394,18.484,6.431
16:17:40:429,22.287,-0.106,0.192,0.298,3.678,21.176,1.767
16:17:40:481,22.339,-0.216,0.100,0.405,3.406,26.696,-4.992
16:17:40:482,22.340,-0.338,0.212,0.470,3.852,31.336,-9.128
16:17:40:504,22.362,-0.405,0.172,0.614,5.563,39.591,-14.333
16:17:40:531,22.389,-0.414,0.057,0.748,7.243,45.522,-16.941
16:17:40:557,22.415,-0.248,0.102,0.961,9.941,54.305,-19.164
16:17:40:584,22.442,-0.072,-0.252,0.812,12.135,61.431,-19.476
16:17:40:609,22.467,-0.128,-0.212,0.804,12.924,64.750,-18.817
16:17:40:664,22.522,-0.298,0.231,0.863,12.723,66.896,-16.457
16:17:40:665,22.523,-0.217,0.317,0.659,11.732,66.090,-14.080
16:17:40:689,22.547,-0.040,0.411,0.410,9.937,63.046,-9.134
16:17:40:715,22.573,0.277,0.388,0.288,9.028,60.881,-2.529
16:17:40:741,22.599,0.442,0.092,0.221,8.918,60.524,2.507
16:17:40:821,22.679,0.453,-0.249,0.194,9.298,61.380,10.965
16:17:40:88,22.738,0.370,-0.225,0.122,9.520,62.468,17.003
16:17:40:881,22.739,0.312,-0.115,0.011,9.457,63.495,26.099
16:17:40:882,22.740,0.386,-0.118,-0.105,9.979,62.613,34.702
16:17:40:883,22.741,0.402,-0.199,-0.161,11.799,61.141,39.927
16:17:40:898,22.756,0.469,-0.338,-0.292,17.308,58.891,46.694
16:17:40:924,22.782,0.487,-0.394,-0.391,21.669,58.305,50.398
16:17:40:95,22.808,0.511,-0.466,-0.558,26.586,59.371,54.714
16:17:40:977,22.835,0.482,-0.374,-0.614,27.783,61.108,56.634
16:17:41:005,22.863,0.359,-0.287,-0.669,26.825,64.532,58.116
16:17:41:061,22.919,0.258,-0.210,-0.779,23.460,67.991,57.527
16:17:41:061,22.919,0.248,-0.084,-0.699,19.833,70.055,55.833
16:17:41:112,22.970,0.418,0.227,-0.537,13.455,72.451,51.537
16:17:41:112,22.970,0.577,0.312,-0.522,10.189,73.228,47.528
16:17:41:134,22.992,0.556,0.350,-0.483,8.056,72.324,40.534
16:17:41:161,23.019,0.401,0.310,-0.461,7.743,69.262,32.912
16:17:41:188,23.046,0.300,0.220,-0.345,7.212,67.076,27.780
16:17:41:242,23.100,0.166,-0.089,-0.087,5.775,65.056,20.532
16:17:41:243,23.101,0.076,-0.347,0.073,4.650,64.676,16.125
16:17:41:266,23.124,0.070,-0.361,0.100,3.090,64.788,10.146
16:17:41:292,23.150,0.094,-0.206,0.169,2.209,64.875,6.359
16:17:41:318,23.176,0.142,-0.086,0.254,0.924,65.264,0.647
16:17:41:344,23.202,0.173,0.039,0.462,-0.404,66.936,-5.026
16:17:41:37,23.228,0.175,0.008,0.566,-1.108,68.957,-8.784
16:17:41:397,23.255,0.190,-0.062,0.711,-1.763,73.079,-14.126
16:17:41:454,23.312,0.245,-0.011,0.793,-2.012,76.087,-17.364
16:17:41:455,23.313,0.333,0.122,0.906,-2.178,80.605,-21.455
16:17:41:476,23.334,0.593,0.148,1.001,-1.942,85.602,-24.240
16:17:41:56,23.418,0.739,0.044,0.973,-1.474,88.970,-25.190
16:17:41:561,23.419,0.628,-0.308,0.525,-0.245,93.514,-25.403
16:17:41:561,23.419,0.550,-0.325,0.628,0.864,96.506,-24.411
16:17:41:581,23.439,0.622,0.140,0.831,2.020,99.428,-21.228
16:17:41:694,23.552,0.576,0.217,0.634,2.486,99.775,-18.040
16:17:41:695,23.553,0.578,0.232,0.422,3.111,99.149,-12.034
16:17:41:696,23.554,0.637,0.250,0.082,4.214,98.305,-4.457
16:17:41:697,23.555,0.593,0.216,-0.097,5.232,97.736,1.458
16:17:41:712,23.570,0.390,0.072,-0.287,7.426,97.194,11.295
16:17:41:738,23.596,0.228,-0.051,-0.310,9.296,97.164,18.036
16:17:41:794,23.652,0.150,-0.161,-0.313,12.400,97.760,27.738
16:17:41:795,23.653,0.099,-0.292,-0.194,15.674,98.832,36.487
16:17:41:817,23.675,0.076,-0.339,-0.191,17.988,99.412,41.375
16:17:41:845,23.703,0.047,-0.346,-0.310,21.550,99.916,47.012
16:17:41:87,23.728,-0.019,-0.322,-0.453,23.860,100.097,49.531
16:17:41:896,23.754,-0.145,-0.243,-0.602,26.512,100.415,51.266
16:17:41:922,23.780,-0.278,-0.174,-0.713,27.048,101.122,50.546
16:17:41:948,23.806,-0.269,-0.181,-0.692,25.999,102.000,49.144
16:17:41:976,23.834,-0.309,-0.056,-0.668,22.189,104.020,45.656
16:17:42:058,23.916,-0.207,0.173,-0.615,18.692,105.710,42.517
16:17:42:059,23.917,-0.118,0.447,-0.571,13.518,108.174,36.705
16:17:42:085,23.943,0.053,0.638,-0.430,11.084,109.046,32.069
16:17:42:086,23.944,0.166,0.490,-0.278,9.366,107.658,24.991
16:17:42:087,23.945,0.168,0.262,-0.270,8.910,103.069,18.099
16:17:42:105,23.963,0.161,0.035,-0.299,8.348,99.740,13.781
16:17:42:134,23.992,0.174,-0.223,-0.028,6.928,96.870,7.789
16:17:42:218,24.075,0.205,-0.288,0.094,5.791,96.364,3.901
16:17:42:218,24.076,0.241,-0.351,0.152,4.254,96.689,-1.701
16:17:42:218,24.076,0.313,-0.245,0.172,3.194,97.812,-7.058
16:17:42:266,24.124,0.370,-0.159,0.255,2.726,99.103,-10.685
16:17:42:267,24.125,0.498,-0.070,0.481,2.598,101.873,-16.169
16:17:42:289,24.147,0.511,-0.188,0.593,2.997,104.007,-19.827
16:17:42:316,24.174,0.603,-0.216,0.658,4.298,107.590,-25.099
16:17:42:342,24.200,0.763,-0.204,0.820,6.243,111.417,-29.685
16:17:42:368,24.226,0.813,-0.262,0.833,7.626,113.358,-32.022
16:17:42:394,24.252,1.020,-0.082,0.872,9.081,115.860,-33.772
16:17:42:421,24.279,0.958,-0.127,0.735,9.490,116.907,-33.513
16:17:42:447,24.305,0.742,-0.013,0.770,9.412,117.684,-31.394
16:17:42:473,24.331,0.653,0.210,0.874,8.928,117.004,-28.783
16:17:42:501,24.359,0.436,0.284,0.702,7.973,114.543,-23.497
16:17:42:526,24.384,0.298,0.331,0.483,7.805,111.416,-16.703
16:17:42:552,24.410,0.290,0.348,0.268,8.282,109.865,-11.410
16:17:42:607,24.465,0.273,0.214,-0.016,9.683,108.571,-2.549
16:17:42:608,24.466,0.204,0.072,-0.153,10.934,108.366,3.999
16:17:42:659,24.517,-0.021,-0.065,-0.221,15.465,108.566,24.849
16:17:42:683,24.541,-0.052,-0.123,-0.174,17.294,108.473,31.392
16:17:42:709,24.567,-0.112,-0.203,-0.198,21.512,107.215,40.049
16:17:42:735,24.593,-0.231,-0.215,-0.415,25.617,105.772,44.566
16:17:42:791,24.649,-0.294,-0.235,-0.556,32.393,104.037,49.590
16:17:42:792,24.649,-0.489,-0.381,-0.767,36.252,103.693,51.892
16:17:42:817,24.675,-0.479,-0.553,-0.733,39.511,104.839,53.923
16:17:42:842,24.700,-0.576,-0.429,-0.690,37.784,107.961,54.421
16:17:42:868,24.726,-0.522,-0.228,-0.560,33.606,110.661,53.554
16:17:42:894,24.752,-0.267,0.137,-0.512,25.428,114.298,50.520
16:17:42:919,24.777,-0.201,0.328,-0.589,20.590,115.780,47.016
16:17:42:945,24.803,-0.112,0.421,-0.561,15.994,115.826,39.712
16:17:42:971,24.829,-0.039,0.409,-0.394,13.824,113.042,31.280
16:17:42:999,24.857,-0.024,0.365,-0.326,12.862,109.670,25.116
16:17:43:024,24.882,0.109,0.121,-0.143,10.863,104.020,16.069
16:17:43:052,24.910,0.335,-0.038,0.079,9.152,101.020,10.429
16:17:43:078,24.936,0.272,-0.131,0.284,6.773,98.455,2.951
16:17:43:103,24.961,0.196,-0.116,-0.036,4.406,97.018,-3.932
16:17:43:13,24.988,0.308,0.005,0.190,2.958,97.804,-8.425
16:17:43:187,25.045,0.586,-0.033,0.518,1.309,100.312,-14.824
16:17:43:187,25.045,0.708,-0.107,0.620,0.620,102.136,-18.760
16:17:43:208,25.066,0.705,-0.271,0.633,0.062,104.449,-23.925
16:17:43:234,25.092,0.788,-0.295,0.730,-0.198,105.797,-26.631
16:17:43:26,25.118,0.825,-0.325,0.696,-0.654,107.429,-29.304
16:17:43:288,25.146,0.946,-0.221,0.709,-1.064,108.588,-30.076
16:17:43:313,25.171,0.972,-0.062,0.730,-1.299,108.771,-29.576
16:17:43:398,25.256,0.862,0.019,0.731,-1.138,107.928,-27.497
16:17:43:399,25.257,0.712,0.225,0.809,-0.613,106.752,-25.224
16:17:43:4,25.258,0.545,0.397,0.668,0.915,104.160,-20.666
16:17:43:418,25.276,0.372,0.533,0.458,3.631,102.067,-15.122
16:17:43:444,25.302,0.295,0.462,0.244,5.989,101.724,-10.996
16:17:43:471,25.329,0.216,0.133,-0.038,9.965,103.103,-3.808
16:17:43:499,25.357,0.153,-0.052,-0.075,12.684,105.445,2.062
16:17:43:553,25.411,0.067,0.003,-0.081,16.148,110.339,12.447
16:17:43:554,25.412,-0.170,0.193,-0.120,17.897,113.479,19.939
16:17:43:635,25.493,-0.301,0.139,-0.226,20.428,116.409,31.004
16:17:43:635,25.493,-0.343,-0.077,-0.255,24.771,116.847,41.128
16:17:43:635,25.493,-0.364,-0.246,-0.404,29.319,116.126,46.844
16:17:43:683,25.541,-0.396,-0.312,-0.561,37.359,114.862,53.471
16:17:43:684,25.542,-0.425,-0.378,-0.575,42.607,114.527,56.838
16:17:43:707,25.565,-0.425,-0.520,-0.523,48.342,115.054,60.435
16:17:43:763,25.621,-0.467,-0.420,-0.492,49.716,116.371,62.089
16:17:43:763,25.621,-0.504,-0.308,-0.504,48.070,117.153,61.776
16:17:43:785,25.643,-0.428,-0.117,-0.626,42.958,117.668,59.367
16:17:43:814,25.672,-0.487,0.230,-0.716,37.910,117.662,56.509
16:17:43:838,25.696,-0.413,0.392,-0.608,29.485,116.806,50.644
16:17:43:864,25.722,-0.144,0.303,-0.636,23.660,113.788,43.931
16:17:43:89,25.748,0.035,0.176,-0.675,20.860,111.077,39.387
16:17:43:947,25.805,0.301,0.140,-0.279,16.405,108.765,33.343
16:17:43:948,25.806,0.454,0.058,0.235,13.804,108.526,29.669
16:17:44:027,25.885,0.583,-0.315,0.245,11.297,108.403,24.778
16:17:44:028,25.886,0.874,-0.183,0.279,10.172,109.013,22.335
16:17:44:029,25.887,0.740,-0.403,0.461,8.762,113.119,20.721
16:17:44:048,25.906,0.680,-0.235,0.632,7.499,117.881,20.019
16:17:44:076,25.934,0.666,-0.208,0.526,7.262,119.468,20.195
16:17:44:131,25.989,0.558,-0.203,0.317,7.091,121.495,21.666
16:17:44:132,25.990,0.460,0.009,0.217,6.960,123.137,23.104
16:17:44:182,26.040,0.376,0.164,0.145,6.931,125.671,25.434
16:17:44:24,26.098,0.198,0.404,0.052,6.922,128.659,27.627
16:17:44:241,26.099,0.196,0.663,-0.062,6.531,131.053,28.837
16:17:44:242,26.100,0.220,0.492,-0.326,6.354,133.880,30.048
16:17:44:243,26.101,0.039,0.487,-0.475,7.107,135.391,31.068
16:17:44:259,26.117,-0.075,0.422,-0.460,8.993,137.412,33.066
16:17:44:315,26.173,-0.067,0.263,-0.305,11.129,140.795,34.568
16:17:44:315,26.173,-0.035,0.252,-0.428,12.215,143.270,35.705
16:17:44:364,26.222,0.097,0.085,-0.543,13.837,146.648,37.948
16:17:44:392,26.250,0.138,-0.259,-0.475,15.962,148.183,39.579
16:17:44:393,26.251,0.111,-0.502,-0.390,20.753,149.586,41.906
16:17:44:416,26.274,0.015,-0.520,-0.344,24.175,150.594,43.426
16:17:44:472,26.330,-0.115,-0.495,-0.219,28.952,152.802,45.382
16:17:44:472,26.330,-0.170,-0.517,-0.125,32.851,155.821,46.795
16:17:44:497,26.355,-0.220,-0.514,-0.024,34.655,158.330,47.482
16:17:44:579,26.437,-0.237,-0.398,0.110,36.066,162.735,48.058
16:17:44:58,26.438,-0.296,-0.227,0.213,36.409,165.675,47.930
16:17:44:58,26.438,-0.358,-0.148,0.264,36.671,169.286,46.283
16:17:44:599,26.457,-0.559,-0.007,0.393,36.210,171.876,42.484
16:17:44:655,26.513,-0.588,0.057,0.489,34.999,173.754,39.179
16:17:44:655,26.513,-0.490,0.292,0.715,31.490,177.588,33.612
16:17:44:765,26.623,-0.054,0.355,0.648,28.684,179.802,29.134
16:17:44:766,26.624,-0.067,0.554,0.318,25.452,178.795,20.531
16:17:44:767,26.625,0.001,0.798,0.116,23.694,175.089,13.835
16:17:44:768,26.626,0.251,0.578,0.027,20.366,167.247,4.731
16:17:44:784,26.642,0.038,0.163,0.078,16.169,158.053,-1.859
16:17:44:84,26.698,-0.057,0.113,0.008,12.954,153.086,-3.964
16:17:44:84,26.698,0.035,-0.235,-0.201,8.424,149.529,-4.615
16:17:44:893,26.751,0.235,-0.422,-0.220,5.847,149.310,-4.859
16:17:44:893,26.751,0.245,-0.464,-0.297,2.475,149.945,-6.137
16:17:44:945,26.803,0.283,-0.443,-0.361,0.110,152.262,-8.217
16:17:44:945,26.803,0.407,-0.298,-0.332,-0.676,155.475,-9.988
16:17:44:967,26.825,0.576,-0.114,-0.345,-1.050,161.035,-13.147
16:17:44:993,26.851,0.756,0.006,-0.404,-0.790,164.707,-15.247
16:17:45:021,26.879,0.718,-0.020,-0.514,0.232,169.775,-17.830
16:17:45:074,26.932,0.775,0.243,-0.606,1.727,174.698,-19.578
16:17:45:129,26.987,0.815,0.347,-0.698,2.906,178.008,-20.133
16:17:45:13,26.988,0.875,0.313,-0.807,4.778,-177.869,-19.984
16:17:45:212,27.070,0.658,0.134,-0.668,6.020,-176.290,-19.112
16:17:45:213,27.071,0.393,-0.049,-0.454,7.995,-174.965,-16.295
16:17:45:213,27.071,0.473,0.348,-0.391,9.413,-174.624,-13.482
16:17:45:214,27.072,0.262,0.495,-0.149,12.091,-175.081,-8.364
16:17:45:289,27.147,0.105,0.408,-0.062,15.502,-175.260,-2.520
16:17:45:289,27.147,-0.067,0.332,-0.059,18.111,-174.748,1.845
16:17:45:29,27.148,-0.290,0.062,-0.129,22.481,-172.533,9.557
16:17:45:339,27.197,-0.357,-0.165,-0.078,25.594,-169.963,15.454
16:17:45:339,27.197,-0.221,-0.301,-0.011,30.212,-164.285,25.296
16:17:45:36,27.218,-0.146,-0.325,0.154,34.436,-158.082,35.403
16:17:45:386,27.244,-0.146,-0.324,0.214,37.194,-154.662,41.479
16:17:45:414,27.271,-0.135,-0.360,0.248,41.783,-151.006,48.945
16:17:45:496,27.354,-0.217,-0.354,0.272,45.186,-149.414,52.694
16:17:45:497,27.355,-0.357,-0.335,0.419,49.808,-147.576,56.459
16:17:45:521,27.379,-0.468,-0.354,0.595,51.918,-146.012,57.920
16:17:45:522,27.380,-0.444,-0.420,0.597,52.938,-143.656,58.982
16:17:45:573,27.431,-0.414,-0.297,0.686,50.970,-140.896,58.580
16:17:45:574,27.432,-0.404,-0.256,0.734,48.027,-139.581,57.040
16:17:45:597,27.454,-0.283,-0.110,0.593,41.745,-138.099,52.973
16:17:45:623,27.481,-0.289,0.262,0.594,36.752,-137.584,48.880
16:17:45:679,27.537,-0.241,0.457,0.512,30.152,-138.267,40.567
16:17:45:68,27.538,-0.116,0.602,0.319,26.196,-142.114,30.619
16:17:45:729,27.587,-0.081,0.497,0.286,24.677,-146.850,23.531
16:17:45:757,27.615,-0.036,0.215,0.165,22.388,-155.840,13.414
16:17:45:758,27.616,0.047,-0.156,-0.080,20.370,-161.500,7.702
16:17:45:781,27.638,0.082,-0.300,-0.172,16.702,-168.116,0.839
16:17:45:863,27.721,0.121,-0.264,-0.228,12.557,-172.349,-4.302
16:17:45:864,27.722,0.177,-0.172,-0.308,9.883,-174.075,-7.091
16:17:45:889,27.747,0.159,-0.078,-0.452,6.320,-175.380,-10.872
16:17:45:89,27.748,0.176,-0.047,-0.541,4.485,-174.947,-13.198
16:17:45:912,27.770,0.270,-0.108,-0.616,3.106,-171.505,-16.423
16:17:45:938,27.796,0.344,-0.050,-0.597,3.260,-168.033,-18.394
16:17:45:964,27.822,0.430,0.134,-0.556,4.846,-161.500,-20.732
16:17:45:99,27.848,0.538,0.216,-0.843,7.518,-154.051,-21.538
16:17:46:017,27.875,0.500,0.239,-0.696,9.565,-149.726,-21.164
16:17:46:157,28.015,0.530,0.233,-0.548,12.833,-144.393,-19.064
16:17:46:158,28.016,0.543,0.420,-0.411,14.839,-141.514,-16.670
16:17:46:159,28.017,0.319,0.318,-0.237,17.669,-138.717,-11.922
16:17:46:16,28.018,0.111,0.353,-0.092,20.500,-136.168,-5.560
16:17:46:177,28.035,-0.072,0.360,-0.036,22.398,-133.848,-0.407
16:17:46:178,28.036,-0.262,0.067,-0.019,25.361,-129.060,8.676
16:17:46:259,28.117,-0.264,-0.088,-0.017,27.295,-125.197,15.388
16:17:46:26,28.118,-0.166,-0.232,0.017,30.045,-119.679,25.428
16:17:46:261,28.119,-0.125,-0.201,0.148,32.009,-116.905,31.553
16:17:46:309,28.167,-0.123,-0.263,0.207,35.894,-114.368,39.491
16:17:46:309,28.167,-0.153,-0.339,0.265,40.990,-113.298,45.703
16:17:46:361,28.219,-0.211,-0.380,0.330,44.530,-112.939,48.819
16:17:46:362,28.220,-0.204,-0.348,0.481,48.944,-111.888,52.353
16:17:46:385,28.242,-0.104,-0.265,0.728,50.851,-110.577,54.129
16:17:46:44,28.298,-0.039,-0.251,0.810,51.837,-107.856,55.832
16:17:46:44,28.298,0.127,-0.222,0.949,50.620,-104.638,56.176
16:17:46:526,28.384,0.217,-0.178,1.033,48.223,-102.572,55.173
16:17:46:526,28.384,0.245,-0.004,0.869,42.325,-99.517,52.011
16:17:46:526,28.384,0.190,0.367,0.791,37.341,-97.603,48.883
16:17:46:527,28.385,0.150,0.479,0.665,30.641,-95.807,42.607
16:17:46:571,28.429,0.107,0.381,0.530,26.721,-97.056,35.283
16:17:46:597,28.455,0.117,0.107,0.526,25.315,-99.648,30.121
16:17:46:598,28.456,0.154,-0.215,0.250,23.314,-104.397,22.698
16:17:46:679,28.537,0.150,-0.290,0.035,21.826,-107.106,18.231
16:17:46:679,28.537,0.117,-0.292,-0.154,19.472,-110.729,11.523
16:17:46:68,28.538,0.074,-0.237,-0.175,17.909,-113.094,7.016
16:17:46:759,28.617,0.020,-0.074,-0.191,15.567,-115.694,0.583
16:17:46:759,28.617,-0.063,0.069,-0.214,13.322,-116.021,-5.203
16:17:46:759,28.617,-0.072,0.075,-0.302,12.145,-114.457,-8.543
16:17:46:805,28.663,-0.089,-0.006,-0.492,11.312,-109.523,-12.773
16:17:46:834,28.692,-0.155,0.032,-0.755,11.314,-105.429,-15.067
16:17:46:835,28.693,-0.245,0.152,-0.801,11.560,-100.078,-17.741
16:17:46:886,28.744,-0.365,0.176,-0.812,11.731,-95.840,-19.278
16:17:46:887,28.745,-0.545,0.251,-1.004,11.998,-93.415,-19.315
16:17:46:938,28.796,-0.417,0.080,-0.813,12.612,-91.972,-18.281
16:17:46:939,28.797,-0.245,0.232,-0.793,13.194,-92.681,-16.764
16:17:46:962,28.820,0.051,0.599,-0.545,14.648,-95.057,-13.285
16:17:46:988,28.846,0.083,0.474,-0.019,17.409,-96.488,-8.264
16:17:47:014,28.872,0.085,0.449,0.123,19.813,-95.458,-3.703
16:17:47:069,28.927,-0.079,0.305,0.209,23.597,-91.167,5.358
16:17:47:096,28.954,-0.096,0.121,0.209,26.101,-87.430,12.810
16:17:47:097,28.955,-0.029,-0.036,0.217,30.224,-82.309,25.076
16:17:47:121,28.979,0.085,-0.218,0.343,33.542,-79.857,32.964
16:17:47:146,29.004,0.118,-0.347,0.278,39.477,-77.199,43.648
16:17:47:201,29.059,0.177,-0.376,0.254,46.699,-75.598,52.750
16:17:47:202,29.060,0.200,-0.370,0.343,51.728,-75.049,57.594
16:17:47:253,29.111,0.241,-0.392,0.534,58.639,-74.568,62.917
16:17:47:254,29.112,0.353,-0.438,0.726,62.200,-74.269,65.163
16:17:47:278,29.135,0.408,-0.466,0.818,65.113,-73.460,66.803
16:17:47:303,29.161,0.525,-0.455,0.832,64.597,-72.111,66.563
16:17:47:359,29.217,0.609,-0.413,0.783,62.324,-71.139,65.334
16:17:47:359,29.217,0.537,-0.381,0.686,56.004,-70.293,61.453
16:17:47:382,29.240,0.484,-0.133,0.706,50.181,-70.053,57.881
16:17:47:41,29.268,0.506,0.325,0.720,40.741,-70.097,51.005
16:17:47:464,29.321,0.431,0.413,0.616,35.867,-71.178,45.554
16:17:47:464,29.322,0.373,0.291,0.416,31.653,-75.251,36.662
16:17:47:487,29.345,0.300,0.022,0.369,29.019,-81.516,27.221
16:17:47:513,29.371,0.208,-0.088,0.237,27.088,-85.364,21.464
16:17:47:539,29.397,0.061,-0.208,-0.068,23.868,-89.520,13.722
16:17:47:625,29.483,0.009,-0.147,-0.094,21.720,-91.597,8.901
16:17:47:625,29.483,-0.028,-0.064,-0.060,18.852,-93.661,2.495
16:17:47:627,29.484,-0.107,0.042,-0.101,16.310,-93.830,-2.923
16:17:47:704,29.562,-0.208,0.116,-0.203,14.906,-92.578,-6.048
16:17:47:704,29.562,-0.262,0.093,-0.372,13.615,-88.741,-10.101
16:17:47:704,29.562,-0.318,0.085,-0.494,13.302,-85.255,-12.483
16:17:47:723,29.581,-0.461,0.235,-0.775,13.414,-79.944,-15.635
16:17:47:751,29.609,-0.578,0.186,-0.825,13.629,-76.336,-18.218
16:17:47:835,29.693,-0.648,0.192,-0.768,13.577,-74.984,-19.309
16:17:47:835,29.693,-0.615,0.042,-0.488,13.522,-73.555,-19.362
16:17:47:836,29.694,-0.471,-0.041,-0.462,13.811,-72.842,-18.299
16:17:47:854,29.712,-0.362,0.307,-0.581,14.482,-72.673,-15.098
16:17:47:881,29.739,-0.114,0.529,-0.545,15.171,-73.716,-12.309
16:17:47:937,29.795,0.032,0.434,-0.410,16.942,-75.910,-7.481
16:17:47:937,29.795,0.064,0.375,-0.139,19.421,-77.180,-1.654
16:17:47:96,29.818,0.057,0.232,0.056,21.392,-77.017,3.024
16:17:48:044,29.902,-0.019,-0.106,0.170,24.673,-74.758,11.681
16:17:48:045,29.903,0.051,-0.129,0.126,26.877,-72.290,18.408
16:17:48:046,29.904,0.129,-0.071,0.172,30.308,-68.802,28.946
16:17:48:065,29.923,0.314,-0.168,0.255,34.583,-66.620,38.704
16:17:48:091,29.949,0.303,-0.265,0.170,38.233,-65.717,44.667
16:17:48:117,29.975,0.369,-0.295,0.234,45.105,-65.518,52.014
16:17:48:143,30.001,0.478,-0.284,0.382,49.999,-65.799,55.586
16:17:48:169,30.027,0.631,-0.382,0.646,56.222,-65.884,59.335
16:17:48:226,30.084,0.612,-0.557,0.742,59.941,-64.825,61.537
16:17:48:226,30.084,0.598,-0.624,0.703,60.659,-63.519,62.435
16:17:48:276,30.134,0.845,-0.474,0.702,58.493,-61.108,62.648
16:17:48:303,30.161,0.675,-0.293,0.596,54.900,-59.684,61.608
16:17:48:304,30.162,0.681,-0.074,0.581,47.676,-58.180,58.621
16:17:48:327,30.185,0.738,0.181,0.649,39.346,-57.917,52.931
16:17:48:353,30.211,0.671,0.257,0.559,34.782,-58.752,48.077
16:17:48:438,30.296,0.558,0.292,0.478,30.424,-61.935,39.754
16:17:48:439,30.297,0.417,0.161,0.438,28.441,-65.111,33.696
16:17:48:44,30.298,0.169,-0.049,0.149,25.419,-69.540,25.240
16:17:48:459,30.317,-0.013,-0.142,-0.053,23.388,-71.674,20.143
16:17:48:484,30.342,-0.003,-0.191,-0.030,20.672,-74.294,13.129
16:17:48:511,30.369,0.002,-0.106,-0.010,18.367,-76.543,6.829
16:17:48:537,30.395,-0.047,-0.058,-0.050,16.905,-77.110,3.038
16:17:48:591,30.448,-0.192,0.046,-0.164,14.888,-75.890,-1.907
16:17:48:62,30.478,-0.387,0.077,-0.376,13.827,-73.632,-4.806
16:17:48:62,30.478,-0.491,0.083,-0.426,12.956,-69.406,-8.811
16:17:48:643,30.501,-0.474,0.200,-0.448,12.749,-65.740,-12.474
16:17:48:669,30.527,-0.460,0.178,-0.437,12.840,-63.352,-14.499
16:17:48:695,30.553,-0.765,0.270,-0.453,13.232,-58.784,-16.367
16:17:48:723,30.581,-0.823,0.055,-0.352,13.653,-55.673,-16.592
16:17:48:724,30.582,-0.665,-0.062,-0.243,14.452,-52.941,-15.759
16:17:48:747,30.605,-0.414,0.377,-0.487,15.127,-52.042,-14.208
16:17:48:803,30.661,-0.223,0.506,-0.445,16.421,-52.061,-10.455
16:17:48:804,30.662,0.033,0.449,-0.233,18.357,-52.736,-4.813
16:17:48:826,30.684,0.099,0.420,-0.085,20.038,-52.314,0.020
16:17:48:852,30.710,0.099,0.241,0.168,22.883,-50.223,8.730
16:17:48:878,30.736,0.035,0.036,0.209,24.952,-48.024,15.393
16:17:48:933,30.791,0.073,-0.117,0.202,28.290,-44.591,25.924
16:17:48:934,30.792,0.200,-0.161,0.220,32.132,-42.271,35.870
16:17:48:959,30.817,0.272,-0.224,0.155,35.419,-41.580,41.797
16:17:49:012,30.870,0.340,-0.412,0.229,41.747,-41.731,49.235
16:17:49:013,30.871,0.431,-0.489,0.321,46.365,-42.243,53.015
16:17:49:036,30.894,0.483,-0.464,0.392,52.214,-42.711,57.242
16:17:49:062,30.920,0.627,-0.317,0.489,55.980,-42.481,59.962
16:17:49:088,30.946,0.754,-0.243,0.570,57.403,-41.992,60.987
16:17:49:114,30.972,0.819,-0.189,0.500,58.414,-40.403,62.063
16:17:49:14,30.998,0.929,-0.031,0.411,57.960,-38.839,62.686
16:17:49:167,31.025,0.837,0.090,0.368,55.108,-36.361,62.837
16:17:49:252,31.110,0.762,0.445,0.334,51.855,-35.199,61.876
16:17:49:252,31.110,0.656,0.345,0.354,46.856,-34.448,59.220
16:17:49:253,31.111,0.498,0.129,0.232,42.030,-33.952,56.531
16:17:49:272,31.130,0.378,0.096,0.168,39.014,-33.535,54.942
16:17:49:298,31.156,0.072,-0.072,0.070,36.239,-33.139,52.555
16:17:49:326,31.184,-0.105,-0.429,0.062,35.636,-32.981,50.979
16:17:49:354,31.212,-0.139,-0.538,0.077,34.922,-31.884,48.984
16:17:49:407,31.265,-0.172,-0.511,-0.003,33.533,-29.144,47.673
16:17:49:408,31.266,-0.182,-0.435,-0.008,32.510,-26.862,46.946
16:17:49:429,31.287,-0.143,-0.332,0.058,31.096,-23.310,45.897
16:17:49:458,31.316,-0.113,-0.240,0.056,29.986,-21.015,45.212
16:17:49:482,31.340,-0.130,-0.191,0.066,27.859,-17.212,44.343
16:17:49:51,31.368,-0.126,-0.094,0.087,26.089,-15.076,43.874
16:17:49:566,31.424,-0.046,0.132,0.074,22.944,-11.591,42.995
16:17:49:567,31.425,0.079,0.409,0.051,19.880,-9.591,41.304
16:17:49:587,31.445,0.065,0.525,0.119,18.141,-8.830,39.714
16:17:49:613,31.471,0.057,0.855,0.231,15.715,-9.242,36.804
16:17:49:639,31.497,-0.046,0.680,0.211,15.135,-10.038,34.792
16:17:49:666,31.524,0.095,0.679,0.159,15.871,-12.963,32.407
16:17:49:692,31.550,0.242,0.556,0.060,18.461,-16.535,31.111
16:17:49:718,31.576,0.282,0.348,0.167,20.847,-18.171,30.812
16:17:49:775,31.633,0.287,0.135,0.330,23.769,-18.892,31.543
16:17:49:775,31.633,0.105,-0.157,0.308,25.009,-17.151,33.074
16:17:49:799,31.657,-0.039,-0.442,0.280,26.445,-13.220,36.520
16:17:49:825,31.683,-0.053,-0.629,0.209,27.985,-9.477,40.296
16:17:49:85,31.708,-0.030,-0.621,0.161,29.454,-7.576,42.568
16:17:49:875,31.733,0.058,-0.534,0.018,32.584,-5.789,45.263
16:17:49:902,31.760,0.110,-0.538,-0.021,35.087,-5.108,46.583
16:17:49:958,31.816,0.222,-0.548,-0.057,38.568,-4.401,47.857
16:17:49:959,31.817,0.319,-0.421,-0.082,40.157,-4.087,48.114
16:17:50:01,31.868,0.569,-0.150,-0.198,41.287,-3.005,47.442
16:17:50:01,31.868,0.811,0.058,-0.347,40.985,-1.468,45.412
16:17:50:033,31.891,0.790,0.025,-0.394,40.099,0.323,43.819
16:17:50:061,31.919,0.828,0.150,-0.574,37.106,4.528,41.685
16:17:50:087,31.944,0.526,0.140,-0.463,33.604,8.078,39.921
16:17:50:143,32.001,0.330,0.125,-0.271,27.468,13.396,36.999
16:17:50:143,32.001,0.319,0.404,-0.015,21.404,17.592,33.187
16:17:50:222,32.080,0.239,0.513,0.048,18.272,18.942,30.071
16:17:50:223,32.081,0.113,0.265,0.080,15.979,17.222,24.925
16:17:50:224,32.082,0.111,0.055,0.005,15.348,14.050,21.229
16:17:50:273,32.131,0.099,-0.049,0.051,14.315,8.497,16.034
16:17:50:273,32.131,0.041,-0.312,0.194,13.329,5.523,13.135
16:17:50:298,32.156,-0.037,-0.414,0.289,11.326,3.649,9.364
16:17:50:378,32.236,-0.051,-0.410,0.316,9.385,3.914,6.006
16:17:50:379,32.237,-0.029,-0.310,0.301,8.467,4.925,3.871
16:17:50:404,32.262,-0.085,-0.073,0.297,7.598,7.181,0.638
16:17:50:404,32.262,-0.164,0.032,0.331,7.265,9.467,-1.431
16:17:50:427,32.285,-0.267,0.037,0.457,7.073,13.889,-4.166
16:17:50:455,32.313,-0.294,0.066,0.570,7.260,19.077,-6.332
16:17:50:481,32.339,-0.363,0.214,0.625,7.424,22.649,-7.325
16:17:50:506,32.364,-0.354,0.214,0.763,7.385,26.981,-8.024
16:17:50:562,32.420,-0.334,0.276,0.812,7.040,28.414,-7.981
16:17:50:563,32.421,-0.185,0.130,0.610,6.505,27.556,-6.898
16:17:50:614,32.471,-0.195,0.374,0.389,6.499,24.830,-4.390
16:17:50:614,32.472,-0.134,0.490,0.220,7.021,22.808,-2.006
16:17:50:638,32.496,0.007,0.385,0.115,8.626,20.098,2.303
16:17:50:777,32.635,0.108,0.382,0.082,10.125,18.781,5.540
16:17:50:778,32.636,0.296,0.165,0.049,12.811,17.996,10.897
16:17:50:779,32.637,0.300,-0.166,0.068,14.684,18.883,15.205
16:17:50:78,32.638,0.279,-0.283,0.048,17.264,21.659,22.709
16:17:50:802,32.660,0.257,-0.352,0.011,19.554,24.543,30.558
16:17:50:802,32.660,0.224,-0.396,-0.054,21.263,25.995,35.395
16:17:50:803,32.660,0.188,-0.441,-0.118,24.563,27.533,41.767
16:17:50:848,32.706,0.308,-0.469,-0.231,27.169,28.200,45.251
16:17:50:874,32.732,0.396,-0.498,-0.321,31.092,29.190,48.954
16:17:50:901,32.759,0.544,-0.387,-0.549,33.938,30.932,50.995
16:17:50:929,32.787,0.623,-0.287,-0.732,34.577,32.678,51.477
16:17:50:93,32.788,0.624,-0.244,-0.821,33.243,36.034,51.284
16:17:50:982,32.840,0.532,-0.018,-0.748,30.610,38.618,50.610
16:17:50:983,32.841,0.543,0.219,-0.700,24.555,42.250,48.192
16:17:51:004,32.862,0.540,0.469,-0.426,20.669,43.845,45.449
16:17:51:03,32.888,0.597,0.417,-0.355,16.974,44.110,40.067
16:17:51:057,32.915,0.562,0.386,-0.364,14.162,42.885,34.303
16:17:51:085,32.943,0.445,0.401,-0.278,12.433,42.183,30.477
16:17:51:11,32.968,0.151,0.183,-0.055,10.732,41.177,24.501
16:17:51:163,33.021,0.106,-0.011,0.018,10.165,40.621,20.535
16:17:51:191,33.049,0.125,-0.268,0.096,9.281,41.018,15.144
16:17:51:191,33.049,0.054,-0.262,0.232,8.436,43.131,10.421
16:17:51:214,33.072,0.004,-0.246,0.267,8.178,44.687,7.389
16:17:51:241,33.099,0.036,-0.268,0.259,8.059,47.367,3.097
16:17:51:268,33.125,0.004,-0.230,0.311,8.024,49.789,0.605
16:17:51:293,33.151,-0.047,-0.247,0.371,8.195,54.509,-2.568
16:17:51:348,33.206,-0.056,-0.261,0.449,8.469,59.124,-5.139
16:17:51:349,33.207,-0.050,-0.135,0.525,8.585,62.178,-6.606
16:17:51:373,33.231,-0.085,0.037,0.565,8.445,64.420,-8.515
16:17:51:398,33.256,-0.006,0.176,0.685,8.015,65.734,-9.480
16:17:51:425,33.283,-0.022,0.688,0.941,7.034,65.873,-10.348
16:17:51:478,33.336,0.191,0.146,0.639,6.526,64.880,-10.500
16:17:51:509,33.367,0.190,0.209,0.532,6.202,63.438,-9.541
16:17:51:509,33.367,0.149,0.395,0.328,6.859,63.085,-6.806
16:17:51:53,33.388,0.245,0.249,0.211,7.676,63.254,-4.179
16:17:51:614,33.472,0.337,0.277,0.162,9.229,64.654,0.974
16:17:51:615,33.472,0.395,0.101,0.121,10.388,66.278,5.151
16:17:51:616,33.473,0.380,-0.142,0.121,12.078,68.959,12.299
16:17:51:635,33.493,0.327,-0.307,0.080,13.686,70.935,19.691
16:17:51:661,33.519,0.312,-0.268,0.003,14.856,71.312,24.295
16:17:51:717,33.575,0.262,-0.220,-0.098,17.580,70.633,30.463
16:17:51:717,33.575,0.252,-0.350,-0.284,20.277,69.738,34.128
16:17:51:74,33.598,0.278,-0.405,-0.343,24.866,68.615,38.490
16:17:51:767,33.625,0.222,-0.320,-0.437,28.321,69.001,41.552
16:17:51:793,33.651,0.130,-0.196,-0.508,29.560,70.197,43.038
16:17:51:819,33.677,0.049,-0.066,-0.663,30.196,72.662,44.251
16:17:51:845,33.703,-0.015,0.066,-0.836,29.946,74.463,44.290
16:17:51:871,33.729,-0.121,0.117,-0.880,28.752,77.455,43.322
16:17:51:955,33.813,-0.147,0.108,-0.813,27.070,79.748,41.920
16:17:51:956,33.814,-0.091,0.158,-0.609,23.339,83.731,39.112
16:17:51:957,33.815,0.015,0.328,-0.541,19.450,87.435,35.387
16:17:51:976,33.834,0.022,0.277,-0.458,17.629,89.058,32.527
16:17:52:002,33.860,0.017,0.092,-0.349,16.129,89.743,27.913
16:17:52:03,33.888,0.012,-0.077,-0.285,15.577,89.437,24.422
16:17:52:056,33.914,0.023,-0.145,-0.137,14.567,89.603,18.932
16:17:52:082,33.940,0.101,-0.273,0.139,13.421,91.025,13.315
16:17:52:107,33.965,0.229,-0.362,0.207,12.820,91.924,9.399
16:17:52:133,33.991,0.273,-0.292,0.209,12.281,92.473,3.562
16:17:52:159,34.017,0.259,-0.172,0.216,12.091,92.395,-0.404
16:17:52:186,34.044,0.225,0.044,0.277,12.004,92.515,-6.419
16:17:52:214,34.072,0.213,0.137,0.399,12.149,93.414,-10.203
16:17:52:239,34.097,0.245,0.047,0.460,13.048,96.508,-15.222
16:17:52:264,34.122,0.311,0.133,0.673,14.721,101.553,-19.036
16:17:52:32,34.178,0.419,0.125,0.755,15.933,105.302,-20.712
16:17:52:32,34.178,0.583,0.044,0.700,17.140,110.336,-21.909
16:17:52:344,34.202,0.661,0.047,0.668,17.264,112.868,-21.922
16:17:52:37,34.228,0.636,-0.231,0.472,16.594,114.749,-21.021
16:17:52:425,34.283,0.564,-0.048,0.620,15.361,114.419,-19.046
16:17:52:426,34.284,0.365,0.280,0.679,14.388,112.873,-17.163
16:17:52:508,34.366,0.222,0.229,0.424,13.212,109.323,-13.638
16:17:52:508,34.366,0.254,0.146,0.194,12.922,107.169,-10.755
16:17:52:508,34.366,0.280,0.119,0.051,13.188,104.905,-5.610
16:17:52:528,34.386,0.308,-0.040,-0.085,14.102,103.785,0.559
16:17:52:58,34.438,0.162,-0.151,-0.013,16.501,104.392,12.860
16:17:52:637,34.495,0.058,-0.101,-0.031,17.665,104.434,18.039
16:17:52:637,34.495,-0.052,-0.130,-0.121,19.925,103.820,25.229
16:17:52:688,34.546,-0.093,-0.186,-0.205,21.946,103.095,29.409
16:17:52:689,34.547,-0.126,-0.230,-0.316,25.606,101.682,34.121
16:17:52:71,34.568,-0.284,-0.155,-0.535,28.851,100.904,36.910
16:17:52:763,34.621,-0.463,-0.090,-0.722,30.525,103.124,38.254
16:17:52:789,34.647,-0.575,0.094,-0.679,29.480,105.383,37.878
16:17:52:845,34.703,-0.522,0.129,-0.514,26.116,109.499,35.901
16:17:52:846,34.704,-0.242,0.147,-0.331,22.167,112.774,32.490
16:17:52:9,34.758,-0.187,0.359,-0.346,19.831,113.848,29.374
16:17:52:9,34.758,-0.133,0.359,-0.236,17.590,113.287,24.008
16:17:52:921,34.779,-0.103,0.227,-0.126,16.798,111.473,20.167
16:17:52:947,34.805,-0.085,0.110,-0.100,15.780,107.875,13.903
16:17:52:973,34.831,0.043,-0.048,-0.005,14.296,105.526,7.999
16:17:53:001,34.859,0.157,-0.124,0.080,13.129,105.173,4.320
16:17:53:027,34.885,0.364,-0.269,0.161,11.604,105.603,-1.124
16:17:53:052,34.910,0.417,-0.319,0.196,10.864,105.983,-4.579
16:17:53:078,34.936,0.420,-0.276,0.216,10.032,106.528,-9.587
16:17:53:105,34.963,0.527,-0.231,0.387,9.408,107.443,-14.442
16:17:53:131,34.989,0.643,-0.270,0.508,9.054,107.913,-17.454
16:17:53:157,35.015,0.675,-0.309,0.526,8.439,107.605,-21.575
16:17:53:185,35.043,0.662,-0.121,0.650,7.976,107.056,-23.829
16:17:53:211,35.068,0.709,-0.074,0.755,7.330,106.395,-25.902
16:17:53:239,35.097,0.802,0.154,0.870,6.859,105.817,-26.162
16:17:53:239,35.097,0.715,0.372,0.748,6.060,103.852,-24.900
16:17:53:291,35.149,0.450,0.334,0.634,6.383,101.434,-22.179
16:17:53:292,35.150,0.321,0.377,0.633,7.429,100.227,-19.631
16:17:53:316,35.174,0.150,0.401,0.523,9.752,98.895,-14.976
16:17:53:342,35.200,0.094,0.400,0.402,11.584,98.441,-11.436
16:17:53:396,35.254,0.034,0.296,0.199,14.526,98.963,-5.406
16:17:53:397,35.255,0.081,0.017,0.032,16.455,100.407,-0.684
16:17:53:449,35.307,0.088,-0.162,0.027,19.038,104.070,7.577
16:17:53:45,35.308,0.021,-0.227,0.049,21.080,108.014,16.556
16:17:53:474,35.332,-0.118,-0.196,0.008,22.270,109.843,22.309
16:17:53:499,35.357,-0.187,-0.191,-0.041,24.485,110.520,29.758
16:17:53:524,35.382,-0.291,-0.185,-0.172,26.863,109.487,33.668
16:17:53:55,35.408,-0.353,-0.218,-0.332,32.053,106.315,37.679
16:17:53:577,35.435,-0.492,-0.283,-0.696,37.464,103.070,39.580
16:17:53:632,35.490,-0.548,-0.316,-0.916,39.922,102.136,40.123
16:17:53:633,35.491,-0.562,-0.374,-0.858,40.968,103.962,41.011
16:17:53:657,35.515,-0.675,-0.119,-0.665,39.801,107.075,41.783
16:17:53:682,35.540,-0.599,0.007,-0.453,35.467,112.380,41.596
16:17:53:708,35.566,-0.376,0.112,-0.293,30.487,115.682,39.072
16:17:53:734,35.592,-0.355,0.275,-0.342,27.517,116.142,35.816
16:17:53:762,35.620,-0.265,0.376,-0.278,23.956,114.706,29.376
16:17:53:788,35.646,-0.185,0.392,-0.165,22.106,112.494,24.513
16:17:53:844,35.702,-0.113,0.340,-0.139,19.813,107.618,16.476
16:17:53:844,35.702,0.028,0.076,-0.102,18.168,104.399,11.277
16:17:53:895,35.753,0.119,-0.046,-0.032,15.303,101.740,4.409
16:17:53:895,35.753,0.198,-0.169,0.041,12.601,102.179,-1.628
16:17:53:918,35.776,0.185,-0.170,0.091,11.269,103.753,-5.299
16:17:53:944,35.802,0.229,-0.099,0.231,10.101,107.493,-10.421
16:17:53:972,35.830,0.339,-0.118,0.375,9.837,110.766,-13.644
16:17:53:997,35.855,0.504,-0.217,0.448,10.183,116.253,-18.102
16:17:54:024,35.882,0.638,-0.303,0.486,11.031,121.094,-22.222
16:17:54:049,35.907,0.706,-0.253,0.515,11.578,123.510,-24.792
16:17:54:076,35.934,0.776,-0.163,0.558,11.999,126.070,-28.156
16:17:54:102,35.960,0.872,-0.196,0.480,11.940,127.352,-29.813
16:17:54:128,35.986,1.202,-0.032,0.539,11.411,128.950,-30.980
16:17:54:155,36.013,0.885,-0.137,0.296,10.398,128.891,-30.402
16:17:54:182,36.040,0.808,0.034,0.495,9.960,128.430,-29.006
16:17:54:265,36.123,0.615,0.364,0.612,9.922,127.136,-25.142
16:17:54:266,36.124,0.417,0.423,0.461,10.223,125.805,-21.610
16:17:54:267,36.125,0.374,0.518,0.342,11.395,124.065,-15.179
16:17:54:286,36.144,0.278,0.441,-0.015,12.614,123.198,-10.324
16:17:54:312,36.170,0.192,0.294,-0.161,15.205,123.019,-1.942
16:17:54:368,36.226,0.147,0.072,-0.225,18.328,125.395,8.223
16:17:54:368,36.226,0.034,0.011,-0.244,20.377,127.671,15.680
16:17:54:421,36.279,-0.097,-0.100,-0.217,23.635,130.413,26.570
16:17:54:421,36.279,-0.154,-0.150,-0.202,26.175,131.567,33.083
16:17:54:501,36.359,-0.176,-0.252,-0.200,30.995,132.608,41.714
16:17:54:502,36.360,-0.293,-0.297,-0.322,37.213,132.843,48.300
16:17:54:503,36.361,-0.436,-0.305,-0.414,41.133,133.194,51.335
16:17:54:522,36.380,-0.556,-0.343,-0.501,45.753,134.586,54.500
16:17:54:548,36.406,-0.576,-0.384,-0.487,47.612,136.212,55.850
16:17:54:574,36.432,-0.596,-0.342,-0.348,48.039,139.546,56.814
16:17:54:63,36.488,-0.592,-0.198,-0.214,46.419,141.935,56.253
16:17:54:631,36.489,-0.541,-0.071,-0.161,41.814,144.886,53.147
16:17:54:654,36.512,-0.529,0.248,-0.157,36.077,146.369,47.073
16:17:54:68,36.537,-0.606,0.431,-0.214,32.260,146.582,41.805
16:17:54:706,36.564,-0.477,0.536,-0.154,26.997,146.863,34.121
16:17:54:761,36.619,-0.350,0.337,-0.057,24.183,147.046,29.593
16:17:54:762,36.620,-0.242,0.087,0.012,21.355,146.598,23.295
16:17:54:872,36.730,0.000,-0.225,0.156,19.958,144.878,17.389
16:17:54:873,36.731,0.046,-0.327,0.169,19.397,142.949,13.556
16:17:54:874,36.732,0.050,-0.397,0.165,18.592,140.467,8.555
16:17:54:875,36.733,0.049,-0.360,0.165,17.982,139.878,5.838
16:17:54:892,36.750,0.043,-0.231,0.136,17.026,141.160,2.522
16:17:54:917,36.775,0.067,-0.099,0.163,16.460,143.603,0.641
16:17:54:943,36.801,0.271,0.100,0.292,15.755,149.362,-2.087
16:17:54:995,36.853,0.565,0.177,0.262,15.360,156.296,-4.962
16:17:55:082,36.940,0.788,0.400,0.279,15.277,160.558,-7.240
16:17:55:083,36.941,0.927,0.400,0.153,15.282,165.565,-11.276
16:17:55:084,36.942,1.179,0.457,-0.105,15.015,168.870,-15.477
16:17:55:085,36.943,1.120,0.220,-0.358,14.513,169.776,-17.770
16:17:55:158,37.016,0.468,-0.287,-0.465,13.450,169.839,-19.814
16:17:55:158,37.016,0.411,-0.314,-0.467,13.119,170.315,-19.695
16:17:55:159,37.017,0.684,0.242,-0.285,12.979,170.521,-17.720
16:17:55:266,37.124,0.352,0.296,-0.238,13.332,169.644,-15.594
16:17:55:266,37.124,0.282,0.258,-0.204,15.104,169.691,-11.102
16:17:55:267,37.125,0.201,0.149,-0.302,17.990,172.759,-4.704
16:17:55:268,37.126,0.147,-0.023,-0.283,20.043,175.737,0.471
16:17:55:313,37.171,0.095,-0.145,-0.213,23.048,-179.856,9.112
16:17:55:313,37.171,-0.054,-0.186,-0.112,25.182,-177.530,14.902
16:17:55:423,37.281,-0.105,-0.248,-0.040,28.736,-174.834,22.912
16:17:55:424,37.282,-0.103,-0.283,-0.006,32.444,-172.579,29.726
16:17:55:425,37.283,-0.126,-0.265,0.024,34.829,-171.075,33.418
16:17:55:426,37.284,-0.230,-0.157,0.195,37.785,-168.608,37.815
16:17:55:441,37.299,-0.453,-0.064,0.442,39.258,-166.571,40.091
16:17:55:467,37.325,-0.555,-0.030,0.537,40.678,-163.941,42.375
16:17:55:497,37.355,-0.603,-0.041,0.572,41.020,-161.545,43.181
16:17:55:497,37.355,-0.638,-0.072,0.683,40.274,-159.080,43.241
16:17:55:52,37.378,-0.508,-0.057,0.650,37.165,-156.022,41.598
16:17:55:547,37.405,-0.326,0.111,0.428,34.002,-154.275,39.805
16:17:55:713,37.571,-0.343,0.313,0.357,29.344,-152.822,35.563
16:17:55:713,37.571,-0.345,0.327,0.297,26.964,-153.361,31.822
16:17:55:714,37.572,-0.203,0.255,0.280,24.833,-156.207,25.582
16:17:55:715,37.573,-0.186,0.007,0.284,23.687,-160.975,18.586
16:17:55:737,37.595,-0.127,-0.103,0.212,22.637,-163.793,14.149
16:17:55:737,37.595,0.096,-0.271,0.022,20.517,-165.682,8.416
16:17:55:737,37.595,0.195,-0.291,-0.099,19.073,-165.895,4.916
16:17:55:843,37.701,0.140,-0.228,-0.130,17.311,-166.260,-0.131
16:17:55:844,37.702,0.138,-0.102,-0.168,16.001,-166.427,-5.079
16:17:55:845,37.703,0.206,-0.005,-0.203,15.354,-165.542,-8.204
16:17:55:846,37.704,0.377,-0.022,-0.307,15.085,-162.045,-12.412
16:17:55:92,37.778,0.443,-0.032,-0.372,15.488,-158.637,-14.902
16:17:55:92,37.778,0.553,0.065,-0.464,16.785,-152.950,-18.125
16:17:55:92,37.778,0.675,0.106,-0.630,17.859,-149.116,-19.829
16:17:55:941,37.799,0.542,-0.058,-0.702,19.295,-144.180,-21.611
16:17:55:967,37.825,0.392,-0.075,-0.762,20.255,-140.493,-22.091
16:17:56:023,37.881,0.403,-0.028,-0.689,20.597,-138.812,-21.506
16:17:56:024,37.882,0.574,0.247,-0.608,20.751,-137.874,-19.603
16:17:56:045,37.903,0.661,0.465,-0.435,20.701,-138.435,-17.757
16:17:56:071,37.929,0.493,0.384,-0.230,20.895,-140.529,-14.224
16:17:56:097,37.955,0.208,0.380,-0.112,21.879,-141.940,-9.212
16:17:56:264,38.122,0.029,0.333,-0.068,23.031,-141.626,-4.793
16:17:56:264,38.122,-0.169,0.099,-0.075,25.366,-138.965,3.547
16:17:56:265,38.123,-0.098,-0.023,-0.043,27.143,-136.031,10.195
16:17:56:266,38.124,-0.076,-0.012,0.037,29.949,-131.633,20.989
16:17:56:343,38.201,-0.136,-0.146,0.293,32.217,-129.809,27.919
16:17:56:343,38.201,-0.105,-0.254,0.256,36.402,-128.097,37.506
16:17:56:344,38.202,-0.098,-0.296,0.286,41.717,-127.626,45.447
16:17:56:345,38.203,-0.165,-0.306,0.340,45.694,-127.672,49.413
16:17:56:363,38.221,-0.240,-0.312,0.519,50.725,-127.185,53.719
16:17:56:363,38.221,-0.258,-0.266,0.652,52.753,-126.325,55.543
16:17:56:415,38.273,-0.253,-0.234,0.819,53.901,-124.569,56.956
16:17:56:415,38.273,-0.212,-0.220,1.003,53.046,-122.785,56.841
16:17:56:467,38.325,-0.164,-0.199,1.030,51.096,-121.755,55.601
16:17:56:468,38.326,-0.110,-0.073,0.817,46.689,-120.717,52.248
16:17:56:657,38.515,-0.151,0.133,0.779,43.094,-120.465,48.975
16:17:56:658,38.516,-0.145,0.206,0.687,37.661,-120.804,43.088
16:17:56:659,38.517,-0.061,0.236,0.534,33.356,-122.613,36.537
16:17:56:66,38.518,-0.028,0.137,0.482,31.237,-125.116,31.374
16:17:56:683,38.541,-0.010,-0.090,0.213,28.253,-129.661,23.253
16:17:56:684,38.542,0.054,-0.197,0.010,26.132,-132.129,18.128
16:17:56:685,38.543,0.123,-0.296,-0.186,23.013,-135.060,10.687
16:17:56:686,38.544,0.159,-0.235,-0.211,21.162,-136.980,5.795
16:17:56:73,38.588,0.162,-0.199,-0.235,18.612,-139.947,-1.456
16:17:56:73,38.588,0.085,-0.017,-0.281,16.007,-141.943,-8.132
16:17:56:812,38.670,0.071,0.080,-0.351,14.436,-141.711,-11.780
16:17:56:812,38.670,0.081,0.037,-0.517,12.998,-138.431,-15.622
16:17:56:813,38.671,0.018,0.076,-0.519,12.797,-134.927,-17.104
16:17:56:862,38.720,0.004,0.204,-0.537,13.461,-128.162,-17.743
16:17:56:862,38.720,0.020,0.353,-0.745,14.942,-120.149,-16.840
16:17:56:914,38.772,0.085,0.582,-0.956,16.064,-115.353,-15.669
16:17:56:915,38.773,0.038,0.202,-0.701,17.820,-110.421,-13.561
16:17:56:997,38.855,0.148,0.352,-0.584,19.064,-108.166,-11.620
16:17:56:997,38.855,0.154,0.439,-0.436,21.121,-105.738,-7.725
16:17:56:997,38.855,0.086,0.464,-0.142,22.632,-104.526,-4.575
16:17:57:075,38.933,0.033,0.473,0.001,25.166,-102.231,1.272
16:17:57:075,38.933,-0.115,0.297,0.166,27.940,-99.114,8.723
16:17:57:075,38.933,-0.172,0.116,0.170,30.007,-96.898,14.665
16:17:57:125,38.983,-0.108,-0.052,0.266,33.865,-94.255,24.479
16:17:57:125,38.983,-0.071,-0.206,0.407,37.278,-93.243,30.980
16:17:57:205,39.063,-0.036,-0.488,0.361,43.403,-91.974,39.935
16:17:57:206,39.064,0.031,-0.467,0.242,49.615,-90.027,48.128
16:17:57:207,39.065,0.054,-0.472,0.266,53.305,-88.465,52.946
16:17:57:226,39.084,0.029,-0.485,0.292,57.817,-86.139,58.744
16:17:57:252,39.110,0.061,-0.471,0.336,59.955,-84.813,61.500
16:17:57:28,39.138,0.191,-0.399,0.512,61.742,-83.317,63.665
16:17:57:304,39.162,0.328,-0.358,0.717,61.877,-82.607,63.769
16:17:57:36,39.218,0.424,-0.332,0.792,60.552,-81.652,62.364
16:17:57:36,39.218,0.548,-0.291,0.879,56.972,-80.736,59.122
16:17:57:384,39.242,0.517,-0.180,0.861,53.005,-79.941,56.041
16:17:57:41,39.268,0.515,0.346,0.796,44.810,-78.392,50.330
16:17:57:436,39.294,0.320,0.608,0.634,39.182,-77.790,45.686
16:17:57:491,39.349,0.178,0.570,0.494,33.265,-79.388,38.073
16:17:57:492,39.350,0.202,0.145,0.440,30.326,-84.643,30.401
16:17:57:515,39.373,0.207,-0.076,0.361,28.814,-89.396,25.306
16:17:57:57,39.428,0.075,-0.363,0.024,26.373,-96.675,17.837
16:17:57:571,39.428,0.004,-0.387,-0.084,24.475,-101.004,12.978
16:17:57:624,39.482,-0.045,-0.279,0.044,21.482,-106.312,6.269
16:17:57:624,39.482,-0.130,-0.162,0.016,18.530,-109.513,0.590
16:17:57:646,39.504,-0.212,-0.010,-0.055,16.729,-110.128,-2.617
16:17:57:76,39.618,-0.238,0.178,-0.238,14.464,-108.032,-6.505
16:17:57:761,39.618,-0.199,0.165,-0.348,13.577,-104.543,-8.513
16:17:57:762,39.619,-0.211,0.111,-0.455,13.358,-97.104,-10.744
16:17:57:763,39.620,-0.231,0.233,-0.748,13.725,-91.332,-11.739
16:17:57:891,39.749,-0.365,0.307,-0.834,14.492,-83.575,-12.652
16:17:57:892,39.750,-0.503,0.542,-0.919,14.885,-79.265,-13.030
16:17:57:893,39.751,-0.463,0.216,-0.686,14.960,-78.632,-12.925
16:17:57:894,39.752,-0.290,0.177,-0.601,15.149,-79.761,-11.841
16:17:57:91,39.768,-0.119,0.409,-0.512,15.513,-81.496,-10.251
16:17:57:939,39.797,0.032,0.387,-0.183,16.858,-84.765,-6.988
16:17:57:94,39.798,0.079,0.358,0.004,19.329,-86.581,-2.504
16:17:57:964,39.822,0.066,0.239,0.098,21.363,-86.076,1.387
16:17:57:964,39.822,0.023,-0.128,0.123,24.610,-82.714,8.980
16:17:57:988,39.846,-0.006,-0.271,0.021,26.716,-79.265,15.235
16:17:58:014,39.872,0.048,-0.181,0.034,29.447,-74.125,25.419
16:17:58:04,39.898,0.199,-0.109,0.151,32.122,-70.489,35.025
16:17:58:066,39.924,0.233,-0.126,0.156,34.476,-69.129,40.828
16:17:58:092,39.950,0.252,-0.275,0.205,40.024,-69.099,47.865
16:17:58:149,40.007,0.279,-0.328,0.307,44.562,-69.766,51.116
16:17:58:149,40.007,0.440,-0.335,0.497,50.526,-70.259,54.490
16:17:58:171,40.029,0.606,-0.317,0.707,53.343,-69.894,56.066
16:17:58:199,40.057,0.701,-0.340,0.820,55.381,-68.045,57.806
16:17:58:224,40.082,0.749,-0.392,0.734,54.723,-64.960,59.079
16:17:58:251,40.109,0.691,-0.415,0.639,52.444,-62.946,59.096
16:17:58:276,40.134,0.549,-0.108,0.554,46.635,-60.887,57.504
16:17:58:333,40.191,0.581,0.320,0.608,41.943,-60.476,54.874
16:17:58:333,40.191,0.489,0.354,0.552,36.537,-62.239,48.718
16:17:58:355,40.213,0.405,0.188,0.527,33.528,-66.711,40.946
16:17:58:381,40.239,0.351,0.038,0.505,31.569,-70.138,35.424
16:17:58:407,40.265,0.120,-0.159,0.195,28.169,-73.928,28.003
16:17:58:462,40.320,0.008,-0.311,-0.036,26.057,-75.537,23.566
16:17:58:463,40.321,0.015,-0.351,-0.010,23.465,-77.721,17.137
16:17:58:517,40.375,0.066,-0.260,0.030,22.045,-78.919,13.129
16:17:58:543,40.401,0.049,-0.171,0.005,20.011,-79.431,7.588
16:17:58:543,40.401,-0.025,0.057,-0.125,18.040,-77.736,2.487
16:17:58:623,40.481,-0.113,0.160,-0.246,16.978,-75.469,-0.792
16:17:58:623,40.481,-0.301,0.099,-0.421,16.030,-71.223,-5.521
16:17:58:624,40.482,-0.443,0.077,-0.518,15.715,-68.438,-8.552
16:17:58:643,40.501,-0.635,0.246,-0.675,15.225,-65.558,-12.719
16:17:58:671,40.529,-0.807,0.234,-0.753,14.088,-65.306,-15.768
16:17:58:725,40.583,-0.850,0.316,-0.673,12.908,-66.475,-16.693
16:17:58:726,40.584,-0.533,0.213,-0.333,11.319,-70.086,-16.174
16:17:58:748,40.606,-0.290,0.303,-0.327,11.055,-72.332,-14.760
16:17:58:803,40.661,-0.170,0.480,-0.384,12.123,-75.164,-11.155
16:17:58:804,40.662,0.018,0.437,-0.277,13.677,-76.548,-8.140
16:17:58:829,40.686,0.088,0.399,-0.198,16.926,-77.415,-3.093
16:17:58:855,40.713,0.122,0.337,-0.016,20.751,-76.075,2.912
16:17:58:938,40.796,0.010,0.135,0.148,23.479,-73.598,7.835
16:17:58:938,40.796,0.001,-0.112,0.172,27.557,-67.442,17.277
16:17:58:939,40.797,0.045,-0.145,0.189,30.107,-62.525,24.775
16:17:58:958,40.816,0.250,-0.096,0.332,33.960,-56.207,36.366
16:17:58:984,40.842,0.341,-0.282,0.297,38.353,-51.373,47.230
16:17:59:011,40.869,0.349,-0.301,0.191,42.300,-49.463,53.839
16:17:59:039,40.897,0.327,-0.418,0.206,51.434,-49.004,61.646
16:17:59:064,40.922,0.372,-0.482,0.359,58.078,-49.418,65.387
16:17:59:118,40.976,0.423,-0.488,0.443,65.563,-49.828,69.228
16:17:59:119,40.977,0.614,-0.473,0.566,68.818,-49.678,70.823
16:17:59:142,41.000,0.687,-0.475,0.599,68.773,-49.362,70.523
16:17:59:168,41.026,0.808,-0.433,0.563,65.640,-48.624,68.157
16:17:59:195,41.052,0.689,-0.350,0.445,61.469,-48.087,65.342
16:17:59:221,41.079,0.717,-0.103,0.478,53.078,-47.381,59.839
16:17:59:306,41.164,0.786,0.229,0.544,46.688,-47.141,55.260
16:17:59:306,41.164,0.706,0.431,0.450,38.340,-47.799,47.309
16:17:59:307,41.165,0.524,0.377,0.351,33.505,-51.118,38.513
16:17:59:326,41.184,0.450,0.225,0.338,31.609,-54.837,32.389
16:17:59:352,41.210,0.226,-0.093,0.151,28.778,-60.290,23.940
16:17:59:378,41.236,0.038,-0.282,0.020,26.808,-63.028,19.053
16:17:59:405,41.263,0.004,-0.342,-0.002,23.865,-66.035,12.539
16:17:59:431,41.289,-0.022,-0.237,-0.029,21.146,-67.317,7.025
16:17:59:457,41.315,-0.065,-0.143,-0.058,19.536,-67.265,3.765
16:17:59:512,41.370,-0.179,0.009,-0.119,17.406,-65.862,-0.662
16:17:59:513,41.371,-0.262,0.065,-0.218,16.194,-63.914,-3.216
16:17:59:538,41.395,-0.492,0.145,-0.339,14.692,-60.170,-6.539
16:17:59:562,41.420,-0.518,0.243,-0.320,13.882,-57.825,-8.433
16:17:59:588,41.446,-0.537,0.245,-0.296,12.948,-54.680,-10.535
16:17:59:617,41.475,-0.774,0.413,-0.298,12.299,-50.429,-11.060
16:17:59:7,41.558,-0.766,0.456,-0.190,11.989,-47.792,-10.423
16:17:59:7,41.558,-0.495,0.040,-0.053,12.061,-45.541,-8.381
16:17:59:701,41.559,-0.351,0.375,-0.192,12.494,-44.709,-6.091
16:17:59:72,41.578,-0.086,0.711,-0.156,13.819,-44.244,-1.333
16:17:59:746,41.604,0.111,0.580,0.056,16.289,-43.565,4.799
16:17:59:774,41.632,0.120,0.491,0.186,18.405,-42.018,9.585
16:17:59:8,41.658,0.162,0.237,0.348,21.970,-37.992,17.851
16:17:59:826,41.684,0.170,-0.100,0.339,24.323,-34.322,24.128
16:17:59:852,41.710,0.161,-0.247,0.322,27.553,-28.222,34.266
16:17:59:909,41.767,0.218,-0.269,0.265,30.912,-23.551,43.959
16:17:59:91,41.768,0.313,-0.308,0.266,33.463,-21.458,49.772
16:17:59:911,41.769,0.324,-0.413,0.181,39.194,-19.738,57.971
16:17:59:959,41.817,0.368,-0.566,0.178,45.021,-19.694,62.481
16:17:59:959,41.817,0.328,-0.604,0.230,54.084,-20.043,67.823
16:17:59:982,41.840,0.398,-0.529,0.247,58.412,-20.338,69.962
16:18:00:008,41.866,0.580,-0.436,0.272,61.674,-20.651,71.163
16:18:00:036,41.894,0.780,-0.473,0.234,61.177,-20.564,69.904
16:18:00:091,41.949,0.805,-0.483,0.177,58.691,-20.129,67.933
16:18:00:092,41.950,0.966,-0.266,0.055,50.902,-19.030,62.928
16:18:00:14,41.998,0.966,-0.014,0.002,43.944,-18.130,58.281
16:18:00:17,42.028,0.875,0.360,0.066,33.688,-17.090,49.944
16:18:00:171,42.029,0.784,0.692,0.197,28.300,-16.825,43.934
16:18:00:192,42.050,0.498,0.597,0.229,24.055,-18.569,35.511
16:18:00:249,42.107,0.529,0.132,0.187,23.014,-23.647,27.869
16:18:00:249,42.107,0.315,-0.044,0.073,22.283,-27.450,23.162
16:18:00:331,42.189,0.075,-0.223,-0.003,20.701,-31.657,17.162
16:18:00:331,42.189,-0.044,-0.361,-0.045,19.452,-33.308,13.677
16:18:00:331,42.189,-0.051,-0.380,-0.027,17.480,-33.820,9.269
16:18:00:352,42.210,-0.114,-0.331,0.013,15.616,-31.843,5.676
16:18:00:377,42.235,-0.158,-0.259,0.038,14.579,-29.519,3.367
16:18:00:461,42.319,-0.231,-0.117,0.035,13.599,-24.773,0.057
16:18:00:462,42.320,-0.277,-0.008,-0.002,13.358,-20.714,-1.906
16:18:00:463,42.321,-0.356,0.164,-0.043,13.488,-13.091,-4.285
16:18:00:481,42.339,-0.462,0.303,0.004,14.019,-3.847,-5.789
16:18:00:507,42.365,-0.519,0.337,0.055,14.453,2.776,-6.333
16:18:00:535,42.393,-0.615,0.425,0.311,14.845,12.657,-6.529
16:18:00:561,42.419,-0.651,0.268,0.583,14.787,18.246,-6.357
16:18:00:586,42.444,-0.430,-0.069,0.603,14.323,22.667,-6.090
16:18:00:644,42.502,-0.384,0.026,0.478,13.782,23.308,-5.448
16:18:00:644,42.502,-0.411,0.421,0.375,12.840,21.477,-3.248
16:18:00:723,42.581,0.011,0.474,0.238,12.636,16.920,0.273
16:18:00:723,42.581,0.238,0.261,0.221,13.172,14.433,3.264
16:18:00:724,42.582,0.322,0.165,0.289,14.782,14.009,9.245
16:18:00:743,42.601,0.306,-0.060,0.331,15.951,15.301,14.124
16:18:00:769,42.627,0.240,-0.219,0.270,17.865,17.423,22.375
16:18:00:883,42.741,0.169,-0.337,0.128,20.498,18.289,30.561
16:18:00:884,42.742,0.202,-0.365,0.056,22.755,18.192,35.597
16:18:00:885,42.743,0.209,-0.328,0.026,27.187,17.340,42.310
16:18:00:886,42.744,0.264,-0.334,0.019,30.848,16.476,45.879
16:18:00:902,42.760,0.411,-0.289,-0.006,36.373,15.363,49.750
16:18:00:927,42.785,0.613,-0.208,-0.164,40.497,14.938,52.067
16:18:00:953,42.811,0.739,-0.222,-0.363,42.087,15.818,53.014
16:18:00:98,42.838,0.711,-0.268,-0.498,42.245,18.513,53.657
16:18:01:093,42.951,0.724,-0.144,-0.626,40.652,20.937,53.512
16:18:01:094,42.952,0.688,-0.029,-0.659,35.562,24.804,51.747
16:18:01:095,42.953,0.512,0.115,-0.331,30.786,27.325,49.743
16:18:01:095,42.953,0.495,0.304,-0.166,22.852,30.440,45.866
16:18:01:111,42.969,0.611,0.469,-0.055,17.305,31.243,40.807
16:18:01:137,42.995,0.549,0.440,-0.029,15.990,29.726,37.235
16:18:01:253,43.111,0.444,0.207,-0.146,16.452,24.634,31.540
16:18:01:253,43.111,0.341,-0.206,-0.121,16.904,20.455,27.640
16:18:01:253,43.111,0.226,-0.383,-0.057,16.376,16.111,22.613
16:18:01:254,43.112,0.113,-0.469,0.114,14.385,14.322,18.370
16:18:01:268,43.126,0.115,-0.419,0.158,12.933,15.037,15.664
16:18:01:294,43.152,-0.019,-0.311,0.104,11.389,17.083,11.731
16:18:01:321,43.179,0.019,-0.218,0.136,10.831,18.201,9.019
16:18:01:376,43.234,-0.022,-0.053,0.143,10.086,20.982,4.812
16:18:01:377,43.235,-0.161,0.043,0.202,9.693,24.370,2.066
16:18:01:429,43.287,-0.227,0.120,0.297,9.542,31.327,-1.881
16:18:01:43,43.288,-0.360,0.353,0.486,9.979,39.322,-5.656
16:18:01:483,43.341,-0.369,0.316,0.604,10.540,44.358,-7.936
16:18:01:483,43.341,-0.250,0.373,0.828,11.168,50.640,-10.634
16:18:01:504,43.362,-0.017,0.047,0.779,11.282,53.587,-11.736
16:18:01:531,43.389,0.050,-0.148,0.609,11.154,55.821,-12.268
16:18:01:558,43.416,-0.131,0.250,0.587,10.811,56.428,-10.799
16:18:01:642,43.500,-0.187,0.500,0.465,10.521,55.474,-8.862
16:18:01:643,43.501,0.018,0.340,0.176,10.488,52.588,-4.936
16:18:01:644,43.502,0.116,0.272,0.115,11.094,51.288,-1.526
16:18:01:751,43.609,0.263,0.080,0.074,12.591,51.900,4.880
16:18:01:751,43.609,0.298,-0.112,0.138,13.627,53.744,9.868
16:18:01:751,43.609,0.336,-0.226,0.068,15.044,57.020,18.044
16:18:01:752,43.610,0.318,-0.345,0.015,16.489,59.254,25.938
16:18:01:797,43.655,0.254,-0.343,-0.008,17.764,59.940,30.721
16:18:01:798,43.656,0.229,-0.308,-0.064,20.598,59.912,36.946
16:18:01:848,43.706,0.253,-0.306,-0.238,23.015,59.650,40.560
16:18:01:849,43.707,0.292,-0.334,-0.373,26.779,59.410,44.651
16:18:01:874,43.732,0.306,-0.295,-0.557,29.550,59.915,47.146
16:18:01:899,43.757,0.296,-0.264,-0.633,30.321,60.814,47.913
16:18:01:925,43.783,0.224,-0.236,-0.728,29.631,63.049,47.755
16:18:01:951,43.809,0.135,-0.141,-0.828,27.774,65.048,46.642
16:18:02:064,43.922,0.076,0.041,-0.716,22.955,68.581,43.276
16:18:02:065,43.923,0.095,0.324,-0.500,17.578,72.058,38.504
16:18:02:066,43.924,0.230,0.492,-0.479,14.463,73.804,34.706
16:18:02:067,43.925,0.333,0.553,-0.313,11.045,74.822,29.071
16:18:02:084,43.942,0.346,0.406,-0.262,9.904,73.734,25.370
16:18:02:109,43.967,0.319,0.251,-0.164,9.062,70.239,19.503
16:18:02:135,43.993,0.125,-0.159,0.083,8.654,68.158,15.625
16:18:02:194,44.052,0.040,-0.373,0.144,8.068,67.000,9.968
16:18:02:195,44.053,-0.012,-0.570,0.140,7.101,68.646,4.960
16:18:02:195,44.053,0.011,-0.482,0.171,6.292,70.840,1.982
16:18:02:242,44.100,0.084,-0.200,0.377,5.308,74.038,-2.372
16:18:02:243,44.101,0.156,-0.096,0.510,4.743,75.614,-5.119
16:18:02:266,44.124,0.267,-0.108,0.518,3.875,77.907,-8.457
16:18:02:292,44.150,0.352,-0.069,0.524,3.050,80.726,-10.688
16:18:02:318,44.176,0.430,0.041,0.571,2.550,82.848,-11.676
16:18:02:404,44.262,0.535,0.251,0.722,1.779,85.733,-12.563
16:18:02:404,44.262,0.630,0.267,0.762,1.164,86.891,-12.738
16:18:02:405,44.263,0.866,0.495,0.881,0.189,86.956,-12.323
16:18:02:453,44.311,0.757,0.143,0.559,-0.108,85.871,-11.588
16:18:02:453,44.311,0.550,-0.156,0.367,0.512,84.267,-9.746
16:18:02:476,44.334,0.436,0.212,0.363,2.287,83.200,-6.419
16:18:02:502,44.360,0.246,0.506,0.148,4.055,82.187,-3.598
16:18:02:528,44.386,0.137,0.467,-0.018,7.496,80.271,1.314
16:18:02:584,44.442,0.104,0.243,-0.242,10.258,79.056,4.776
16:18:02:585,44.443,0.223,-0.031,-0.383,14.840,78.368,10.286
16:18:02:638,44.495,0.227,-0.347,-0.225,19.169,81.289,16.426
16:18:02:638,44.495,0.184,-0.393,-0.090,21.536,85.430,21.361
16:18:02:66,44.518,0.061,-0.299,-0.046,24.240,91.971,29.339
16:18:02:688,44.546,-0.008,-0.335,-0.116,26.058,95.333,34.183
16:18:02:713,44.571,-0.126,-0.428,-0.147,28.893,98.889,40.233
16:18:02:764,44.622,-0.245,-0.179,-0.324,33.911,100.629,45.635
16:18:02:82,44.678,-0.345,-0.053,-0.555,36.551,99.668,45.603
16:18:02:821,44.678,-0.396,-0.099,-0.704,37.372,99.025,44.600
16:18:02:846,44.704,-0.380,-0.128,-0.685,36.617,99.110,42.546
16:18:02:87,44.728,-0.403,-0.053,-0.584,34.568,100.090,40.883
16:18:02:897,44.755,-0.319,0.019,-0.458,29.647,102.367,37.658
16:18:02:923,44.781,-0.231,0.515,-0.402,23.968,104.481,33.244
16:18:03:035,44.893,-0.148,0.630,-0.329,20.895,104.927,29.313
16:18:03:036,44.894,-0.015,0.439,-0.176,18.061,102.913,22.835
16:18:03:037,44.895,0.009,0.154,-0.278,16.842,99.885,18.426
16:18:03:038,44.896,0.072,0.012,-0.277,14.928,94.619,12.212
16:18:03:053,44.911,0.110,-0.356,-0.124,12.701,91.109,6.942
16:18:03:079,44.937,0.125,-0.463,0.018,11.096,90.280,3.595
16:18:03:109,44.966,0.181,-0.410,0.074,8.840,90.671,-1.321
16:18:03:164,45.022,0.232,-0.312,0.125,7.638,91.629,-4.511
16:18:03:164,45.022,0.335,-0.064,0.296,6.390,93.817,-9.396
16:18:03:214,45.072,0.509,0.116,0.522,5.737,96.646,-14.324
16:18:03:214,45.072,0.581,0.018,0.557,5.673,98.605,-17.501
16:18:03:237,45.095,0.635,-0.035,0.586,6.070,101.682,-21.986
16:18:03:264,45.122,0.663,0.015,0.706,6.652,103.980,-24.613
16:18:03:29,45.148,0.772,0.006,0.796,7.765,107.507,-27.416
16:18:03:316,45.174,0.903,0.104,0.793,8.331,109.459,-28.284
16:18:03:372,45.230,0.798,-0.099,0.528,8.571,111.128,-27.968
16:18:03:373,45.231,0.639,-0.222,0.444,8.615,111.323,-26.098
16:18:03:423,45.281,0.592,0.188,0.709,8.740,110.793,-23.855
16:18:03:424,45.282,0.350,0.353,0.652,9.252,108.628,-19.461
16:18:03:449,45.307,0.239,0.311,0.524,10.044,106.741,-16.151
16:18:03:474,45.332,0.156,0.335,0.334,11.947,104.437,-10.682
16:18:03:5,45.358,0.167,0.178,0.026,14.597,103.193,-4.554
16:18:03:555,45.413,0.166,0.070,-0.077,16.715,103.254,0.122
16:18:03:556,45.414,0.116,-0.055,-0.084,20.167,104.931,8.300
16:18:03:578,45.436,-0.070,-0.010,-0.075,22.443,106.591,14.426
16:18:03:605,45.462,-0.228,-0.058,-0.116,25.927,108.378,23.723
16:18:03:631,45.489,-0.294,-0.155,-0.115,28.478,108.667,29.367
16:18:03:657,45.515,-0.277,-0.275,-0.147,33.257,107.566,36.244
16:18:03:683,45.541,-0.308,-0.318,-0.397,38.632,104.865,40.140
16:18:03:71,45.568,-0.345,-0.312,-0.514,41.732,102.990,41.203
16:18:03:795,45.653,-0.449,-0.369,-0.701,44.621,101.261,41.228
16:18:03:795,45.653,-0.537,-0.327,-0.733,44.992,101.370,40.679
16:18:03:796,45.654,-0.650,-0.163,-0.695,42.789,103.620,39.415
16:18:03:815,45.673,-0.562,-0.059,-0.538,39.665,105.924,37.955
16:18:03:841,45.699,-0.424,0.198,-0.429,33.361,109.582,34.830
16:18:03:867,45.725,-0.335,0.487,-0.339,26.802,112.718,30.061
16:18:03:893,45.751,-0.208,0.462,-0.183,23.535,113.604,26.104
16:18:03:92,45.778,-0.170,0.313,-0.026,20.488,112.078,19.142
16:18:04:004,45.862,-0.142,0.239,-0.005,19.039,109.555,13.976
16:18:04:005,45.863,-0.029,0.055,0.034,16.614,105.690,6.620
16:18:04:006,45.864,0.151,-0.132,0.149,13.869,103.409,0.021
16:18:04:025,45.883,0.219,-0.187,0.165,12.069,102.773,-4.190
16:18:04:051,45.909,0.298,-0.191,0.134,9.761,103.273,-10.043
16:18:04:079,45.937,0.361,-0.086,0.306,8.612,104.697,-13.700
16:18:04:104,45.962,0.546,-0.044,0.487,7.449,108.040,-19.030
16:18:04:16,46.018,0.724,-0.148,0.627,6.798,111.170,-24.083
16:18:04:16,46.018,0.764,-0.278,0.603,6.274,112.410,-27.210
16:18:04:182,46.040,0.840,-0.283,0.606,5.124,113.526,-31.099
16:18:04:209,46.067,0.874,-0.261,0.613,4.311,113.914,-32.903
16:18:04:235,46.093,0.975,-0.240,0.529,3.416,115.080,-34.065
16:18:04:261,46.119,0.999,-0.151,0.472,3.137,115.913,-33.339
16:18:04:29,46.148,0.913,-0.129,0.486,3.360,115.784,-31.968
16:18:04:29,46.148,0.766,0.183,0.785,4.312,114.659,-28.602
16:18:04:343,46.201,0.557,0.386,0.755,5.254,113.242,-25.608
16:18:04:344,46.202,0.408,0.483,0.641,7.380,110.872,-20.403
16:18:04:394,46.252,0.264,0.468,0.379,9.316,109.725,-16.505
16:18:04:421,46.279,0.222,0.313,0.093,12.738,109.282,-9.880
16:18:04:422,46.280,0.240,0.048,-0.078,16.604,111.256,-1.550
16:18:04:474,46.332,0.164,0.017,-0.085,19.078,113.763,5.171
16:18:04:474,46.332,-0.031,0.084,-0.060,22.283,117.674,16.346
16:18:04:498,46.356,-0.327,0.021,-0.093,24.286,119.397,23.776
16:18:04:553,46.411,-0.343,-0.076,-0.085,27.832,120.363,34.173
16:18:04:554,46.412,-0.334,-0.170,-0.126,33.885,118.476,42.560
16:18:04:578,46.436,-0.319,-0.241,-0.286,39.317,116.159,46.479
16:18:04:602,46.460,-0.347,-0.219,-0.405,47.127,113.296,50.545
16:18:04:63,46.488,-0.430,-0.204,-0.471,51.075,112.752,52.661
16:18:04:655,46.513,-0.509,-0.286,-0.452,54.570,114.543,55.637
16:18:04:768,46.626,-0.574,-0.286,-0.373,55.160,117.338,57.673
16:18:04:769,46.627,-0.531,-0.203,-0.193,52.810,122.375,59.904
16:18:04:77,46.628,-0.351,0.185,-0.175,46.876,126.311,60.095
16:18:04:771,46.629,-0.340,0.450,-0.215,41.814,127.574,58.763
16:18:04:788,46.646,-0.227,0.461,-0.245,36.384,127.078,55.589
16:18:04:84,46.698,-0.105,0.058,-0.256,35.073,125.066,53.212
16:18:04:926,46.784,0.017,-0.061,-0.305,34.456,120.219,49.330
16:18:04:926,46.784,0.303,-0.308,-0.161,34.117,115.606,45.736
16:18:04:927,46.785,0.379,-0.484,0.026,33.957,113.664,43.800
16:18:04:977,46.835,0.342,-0.445,0.139,33.376,112.862,41.511
16:18:04:977,46.835,0.339,-0.358,0.134,32.855,113.554,40.494
16:18:04:977,46.835,0.379,-0.291,0.037,32.389,115.594,39.714
16:18:05:027,46.885,0.353,-0.196,-0.008,32.170,117.439,39.524
16:18:05:028,46.886,0.317,-0.129,-0.024,31.496,120.892,39.499
16:18:05:163,47.021,0.271,-0.009,-0.092,30.393,124.742,39.513
16:18:05:164,47.022,0.189,0.101,-0.140,29.499,127.472,39.545
16:18:05:165,47.023,0.061,0.319,-0.145,27.889,131.765,39.543
16:18:05:166,47.024,-0.107,0.699,-0.166,26.756,134.521,39.462
16:18:05:183,47.041,-0.287,0.826,-0.111,25.209,138.506,39.195
16:18:05:184,47.042,-0.029,0.447,0.153,24.473,142.470,38.636
16:18:05:235,47.093,-0.051,0.483,0.073,24.509,144.714,38.169
16:18:05:236,47.094,-0.180,0.476,0.033,25.400,147.641,37.477
16:18:05:259,47.117,-0.107,0.112,0.005,26.762,149.401,37.185
16:18:05:315,47.173,-0.073,-0.020,-0.066,29.215,151.891,36.902
16:18:05:315,47.173,0.134,-0.256,-0.124,30.840,155.212,37.319
16:18:05:366,47.224,0.239,-0.348,-0.107,31.652,157.904,38.065
16:18:05:393,47.251,0.226,-0.413,-0.020,32.768,161.831,39.297
16:18:05:394,47.252,0.135,-0.391,0.033,33.665,164.061,39.986
16:18:05:416,47.274,0.060,-0.404,0.066,35.427,166.435,40.543
16:18:05:472,47.330,0.029,-0.418,0.050,36.673,167.467,40.587
16:18:05:472,47.330,-0.051,-0.387,0.064,38.192,168.998,40.497
16:18:05:524,47.382,-0.144,-0.251,0.136,39.173,170.930,40.254
16:18:05:525,47.383,-0.222,-0.173,0.220,39.554,172.338,39.760
16:18:05:548,47.406,-0.441,0.026,0.412,39.570,174.486,38.141
16:18:05:604,47.462,-0.527,0.073,0.524,39.190,176.037,36.634
16:18:05:604,47.462,-0.564,0.155,0.641,37.460,178.920,34.030
16:18:05:655,47.513,-0.508,0.361,0.785,33.547,-177.161,30.761
16:18:05:656,47.514,-0.049,0.300,0.454,30.307,-174.681,28.145
16:18:05:767,47.625,0.040,0.291,0.087,26.236,-173.017,23.107
16:18:05:768,47.626,0.001,0.466,0.117,24.095,-173.589,19.189
16:18:05:769,47.627,0.156,0.360,0.139,21.837,-177.207,12.842
16:18:05:769,47.627,0.131,0.103,0.164,20.586,178.549,8.460
16:18:05:783,47.641,0.053,0.059,0.046,18.292,171.049,2.702
16:18:05:839,47.697,-0.019,-0.258,-0.209,15.944,165.777,-1.257
16:18:05:839,47.697,0.011,-0.410,-0.234,14.594,164.737,-3.445
16:18:05:893,47.750,-0.020,-0.335,-0.208,13.356,166.701,-6.478
16:18:05:893,47.751,0.049,-0.198,-0.104,13.229,170.100,-8.462
16:18:05:944,47.802,0.246,-0.143,-0.046,14.226,178.057,-11.281
16:18:05:944,47.802,0.530,-0.074,-0.101,16.557,-171.843,-13.655
16:18:05:996,47.854,0.717,-0.077,-0.247,18.679,-164.925,-14.878
16:18:05:997,47.855,0.851,-0.010,-0.465,21.995,-155.490,-16.132
16:18:06:023,47.881,0.832,0.111,-0.591,23.842,-150.405,-16.760
16:18:06:073,47.931,0.690,0.080,-0.699,25.623,-145.017,-17.617
16:18:06:103,47.961,0.563,0.189,-0.773,26.062,-142.681,-17.959
16:18:06:103,47.961,0.438,0.127,-0.700,25.961,-141.023,-17.825
16:18:06:213,48.071,0.198,-0.129,-0.401,25.563,-140.161,-16.565
16:18:06:213,48.071,0.420,0.149,-0.313,25.460,-139.755,-14.593
16:18:06:213,48.071,0.658,0.507,-0.207,25.490,-139.344,-10.224
16:18:06:214,48.072,0.544,0.482,-0.079,25.612,-140.210,-6.928
16:18:06:289,48.147,0.310,0.486,0.061,26.335,-142.048,-1.211
16:18:06:289,48.147,-0.028,0.440,0.086,27.813,-143.427,5.971
16:18:06:29,48.148,-0.183,0.300,0.132,29.424,-144.202,11.467
16:18:06:367,48.225,-0.306,-0.020,0.134,33.176,-144.947,20.374
16:18:06:367,48.225,-0.274,-0.235,0.161,36.295,-144.465,26.704
16:18:06:368,48.226,-0.184,-0.291,0.179,40.937,-141.904,36.838
16:18:06:387,48.245,-0.114,-0.427,0.198,46.091,-139.476,46.156
16:18:06:413,48.271,-0.114,-0.465,0.216,49.854,-138.386,51.298
16:18:06:472,48.330,-0.172,-0.433,0.246,55.142,-137.428,57.044
16:18:06:473,48.331,-0.219,-0.333,0.343,58.053,-137.082,59.479
16:18:06:474,48.332,-0.402,-0.225,0.658,60.946,-137.205,60.778
16:18:06:52,48.378,-0.470,-0.246,0.769,61.750,-137.191,60.286
16:18:06:547,48.405,-0.428,-0.369,0.710,61.301,-137.095,58.534
16:18:06:548,48.406,-0.311,-0.278,0.724,58.049,-136.167,55.485
16:18:06:598,48.456,-0.227,-0.212,0.601,54.464,-135.826,52.420
16:18:06:653,48.511,-0.214,0.001,0.491,48.094,-136.080,46.413
16:18:06:654,48.512,-0.221,0.320,0.564,43.631,-136.768,41.461
16:18:06:705,48.563,-0.057,0.515,0.503,37.809,-138.995,33.031
16:18:06:706,48.564,-0.003,0.395,0.370,34.282,-144.429,23.779
16:18:06:732,48.590,-0.113,0.164,0.347,32.591,-149.612,17.528
16:18:06:733,48.591,-0.069,-0.115,0.184,29.985,-156.193,9.828
16:18:06:755,48.613,-0.020,-0.253,0.077,28.202,-158.726,6.129
16:18:06:814,48.672,-0.059,-0.262,0.056,25.532,-159.962,2.147
16:18:06:814,48.672,0.044,-0.233,0.015,23.963,-159.102,0.319
16:18:06:892,48.750,0.080,-0.215,-0.013,22.133,-155.793,-1.630
16:18:06:892,48.750,0.191,-0.118,-0.103,20.742,-150.708,-3.298
16:18:06:893,48.751,0.309,-0.033,-0.271,20.035,-146.508,-4.367
16:18:06:912,48.770,0.389,-0.002,-0.495,19.363,-139.764,-6.281
16:18:06:94,48.798,0.411,0.069,-0.666,19.199,-135.791,-8.032
16:18:06:996,48.854,0.376,0.222,-0.722,19.207,-131.586,-11.365
16:18:06:996,48.854,0.267,0.508,-0.835,19.128,-129.356,-14.834
16:18:07:071,48.929,0.173,0.550,-0.881,18.983,-128.153,-16.485
16:18:07:131,48.989,-0.106,-0.054,-0.501,19.262,-126.253,-17.455
16:18:07:131,48.989,0.144,0.241,-0.481,20.059,-124.203,-16.569
16:18:07:131,48.989,0.240,0.537,-0.398,21.312,-121.457,-12.658
16:18:07:181,49.039,0.168,0.511,-0.120,22.783,-120.944,-7.492
16:18:07:181,49.039,0.163,0.420,-0.088,24.230,-120.742,-3.365
16:18:07:182,49.040,0.055,0.320,-0.014,27.008,-118.941,4.510
16:18:07:291,49.149,-0.053,0.153,-0.011,29.127,-116.797,10.944
16:18:07:291,49.149,-0.145,0.048,0.134,32.751,-114.083,21.036
16:18:07:291,49.149,-0.201,-0.097,0.293,35.808,-113.167,27.240
16:18:07:292,49.150,-0.178,-0.379,0.281,41.192,-112.300,35.440
16:18:07:336,49.194,-0.108,-0.463,0.186,46.857,-111.661,42.328
16:18:07:336,49.194,-0.097,-0.454,0.236,50.274,-111.227,46.121
16:18:07:358,49.216,-0.049,-0.371,0.388,54.422,-110.200,50.871
16:18:07:415,49.273,0.015,-0.298,0.657,56.514,-109.464,53.191
16:18:07:415,49.273,0.030,-0.319,0.802,58.832,-108.334,55.271
16:18:07:468,49.326,0.076,-0.419,0.924,59.942,-106.443,56.517
16:18:07:469,49.327,0.118,-0.415,0.880,59.628,-104.627,57.096
16:18:07:49,49.348,0.287,-0.236,0.855,56.601,-101.666,56.632
16:18:07:545,49.403,0.278,-0.019,0.635,52.699,-100.094,54.998
16:18:07:545,49.403,0.144,0.167,0.511,45.324,-99.397,49.892
16:18:07:6,49.458,-0.158,0.233,0.669,40.441,-100.340,44.855
16:18:07:6,49.458,-0.169,0.410,0.618,34.261,-103.129,36.428
16:18:07:675,49.533,0.002,0.508,0.475,30.403,-107.783,27.781
16:18:07:762,49.620,0.057,0.359,0.382,28.892,-111.943,22.187
16:18:07:763,49.621,0.063,-0.069,0.278,26.973,-117.337,15.101
16:18:07:763,49.621,-0.026,-0.323,0.250,25.618,-118.882,11.556
16:18:07:764,49.622,0.022,-0.354,0.147,23.355,-117.429,7.830
16:18:07:813,49.671,0.074,-0.269,-0.002,22.065,-114.796,5.952
16:18:07:813,49.671,0.125,-0.184,-0.056,20.865,-109.962,3.290
16:18:07:813,49.671,0.196,-0.012,-0.214,20.082,-103.963,0.637
16:18:07:92,49.778,0.125,0.084,-0.579,19.618,-99.050,-0.999
16:18:07:92,49.778,-0.054,0.076,-0.737,19.143,-91.675,-3.717
16:18:07:92,49.778,-0.176,0.208,-0.805,19.035,-87.907,-5.956
16:18:07:921,49.779,-0.236,0.248,-0.801,18.992,-84.933,-9.893
16:18:07:965,49.823,-0.319,0.436,-0.842,18.612,-84.446,-13.740
16:18:07:966,49.824,-0.292,0.368,-0.593,18.146,-84.524,-15.368
16:18:08:018,49.876,-0.276,0.033,-0.254,17.700,-83.433,-15.848
16:18:08:019,49.877,-0.222,0.151,-0.348,18.051,-81.375,-14.399
16:18:08:043,49.901,-0.023,0.454,-0.491,18.798,-78.725,-10.511
16:18:08:096,49.954,0.049,0.262,-0.253,19.821,-77.701,-5.576
16:18:08:097,49.955,0.032,0.232,-0.216,20.755,-76.497,-1.271
16:18:08:12,49.978,-0.110,0.128,-0.127,22.204,-73.659,6.493
16:18:08:175,50.033,-0.213,-0.047,-0.020,23.181,-71.983,12.087
16:18:08:175,50.033,-0.206,-0.094,0.041,24.988,-70.965,20.455
16:18:08:228,50.086,-0.049,-0.118,0.251,27.952,-72.258,28.282
16:18:08:229,50.087,0.057,-0.220,0.355,30.915,-73.933,33.026
16:18:08:252,50.110,0.108,-0.313,0.375,36.149,-76.595,39.331
16:18:08:277,50.135,0.151,-0.303,0.282,39.855,-78.213,42.895
16:18:08:305,50.163,0.180,-0.244,0.382,45.337,-80.271,47.155
16:18:08:33,50.188,0.350,-0.207,0.654,49.779,-81.535,49.860
16:18:08:357,50.215,0.416,-0.239,0.766,51.824,-81.557,50.931
16:18:08:382,50.240,0.488,-0.372,0.766,53.309,-79.794,52.203
16:18:08:439,50.297,0.559,-0.325,0.755,52.899,-77.560,52.845
16:18:08:439,50.297,0.707,-0.188,0.714,49.673,-73.416,52.575
16:18:08:461,50.319,0.481,0.045,0.513,43.459,-69.514,50.434
16:18:08:487,50.345,0.380,0.242,0.480,38.315,-67.380,47.927
16:18:08:513,50.371,0.245,0.421,0.527,31.604,-65.864,42.650
16:18:08:542,50.400,0.249,0.273,0.446,29.087,-66.606,38.712
16:18:08:567,50.425,0.303,0.058,0.446,28.125,-70.796,32.115
16:18:08:624,50.482,0.248,-0.154,0.335,27.851,-76.506,25.145
16:18:08:624,50.482,0.143,-0.306,0.104,27.112,-79.077,21.218
16:18:08:645,50.503,0.053,-0.379,-0.045,25.247,-80.634,16.207
16:18:08:671,50.529,0.027,-0.365,-0.011,23.920,-81.138,13.136
16:18:08:699,50.557,0.025,-0.275,0.036,22.339,-81.024,8.893
16:18:08:724,50.582,0.023,-0.172,-0.027,21.460,-80.183,6.231
16:18:08:75,50.607,-0.031,-0.052,-0.184,20.163,-77.441,2.363
16:18:08:776,50.634,-0.289,0.032,-0.421,19.002,-73.336,-1.368
16:18:08:831,50.689,-0.454,0.154,-0.515,18.460,-70.835,-3.966
16:18:08:832,50.690,-0.526,0.301,-0.567,17.860,-68.818,-8.229
16:18:08:856,50.714,-0.554,0.296,-0.596,17.453,-68.724,-11.016
16:18:08:884,50.742,-0.616,0.439,-0.657,16.514,-69.482,-14.248
16:18:08:884,50.742,-0.514,0.265,-0.355,15.577,-70.599,-15.220
16:18:08:935,50.792,-0.381,0.335,-0.323,15.420,-71.747,-14.573
16:18:08:96,50.818,-0.099,0.581,-0.431,16.143,-73.022,-11.840
16:18:09:018,50.876,0.055,0.333,-0.287,17.249,-73.954,-9.253
16:18:09:019,50.877,0.087,0.274,-0.210,19.683,-74.445,-4.196
16:18:09:02,50.878,0.045,0.147,-0.054,21.649,-73.441,0.349
16:18:09:067,50.925,-0.021,0.002,0.072,24.798,-70.633,8.646
16:18:09:068,50.926,0.016,-0.106,0.126,28.161,-66.777,18.828
16:18:09:091,50.949,0.066,-0.104,0.116,30.604,-64.623,25.878
16:18:09:117,50.975,0.261,-0.185,0.227,34.983,-62.688,35.873
16:18:09:144,51.002,0.305,-0.263,0.229,38.502,-62.102,41.980
16:18:09:173,51.031,0.301,-0.396,0.181,44.844,-62.376,49.656
16:18:09:197,51.055,0.339,-0.399,0.244,51.480,-63.762,54.931
16:18:09:223,51.081,0.375,-0.368,0.309,55.270,-64.977,57.054
16:18:09:248,51.106,0.499,-0.322,0.493,59.404,-66.785,58.284
16:18:09:274,51.132,0.579,-0.421,0.604,60.783,-67.699,57.962
16:18:09:301,51.159,0.546,-0.414,0.607,60.445,-68.083,56.524
16:18:09:327,51.185,0.771,-0.267,0.676,56.893,-67.170,53.971
16:18:09:353,51.211,0.629,-0.217,0.569,53.061,-66.128,51.722
16:18:09:409,51.267,0.525,0.153,0.449,45.754,-64.462,47.624
16:18:09:409,51.267,0.526,0.385,0.424,40.851,-64.108,43.663
