Time,Second,AccelerationX,AccelerationY,AccelerationZ,EulerAnglesX,EulerAnglesY,EulerAnglesZ
16:11:56:265,0.000,0.003,-0.001,-0.012,-3.666,-87.052,-1.894
16:11:56:265,0.000,-0.008,0.000,-0.022,-3.564,-87.091,-1.820
16:11:56:266,0.001,-0.001,-0.003,-0.026,-3.500,-87.123,-1.783
16:11:56:372,0.107,-0.010,-0.004,-0.015,-3.425,-87.169,-1.784
16:11:56:372,0.108,-0.003,-0.002,-0.016,-3.394,-87.189,-1.801
16:11:56:373,0.109,-0.004,-0.001,-0.016,-3.343,-87.220,-1.842
16:11:56:421,0.157,-0.003,0.001,-0.012,-3.293,-87.274,-1.928
16:11:56:422,0.158,0.000,0.001,-0.013,-3.265,-87.299,-1.980
16:11:56:423,0.158,-0.001,-0.001,-0.010,-3.252,-87.322,-2.008
16:11:56:531,0.266,-0.001,-0.004,-0.013,-3.259,-87.362,-2.035
16:11:56:531,0.266,-0.004,0.001,-0.013,-3.254,-87.388,-2.051
16:11:56:532,0.267,0.002,-0.002,-0.009,-3.258,-87.424,-2.065
16:11:56:533,0.268,-0.004,-0.001,-0.013,-3.262,-87.469,-2.058
16:11:56:634,0.370,0.000,-0.002,-0.013,-3.254,-87.485,-2.044
16:11:56:635,0.371,-0.003,-0.002,-0.014,-3.257,-87.505,-2.032
16:11:56:636,0.371,-0.004,-0.002,-0.014,-3.265,-87.525,-2.040
16:11:56:637,0.372,-0.005,-0.002,-0.016,-3.260,-87.566,-2.061
16:11:56:739,0.475,-0.004,-0.001,-0.019,-3.264,-87.599,-2.095
16:11:56:74,0.476,0.002,0.001,-0.014,-3.263,-87.625,-2.130
16:11:56:741,0.477,-0.001,-0.001,-0.012,-3.265,-87.674,-2.179
16:11:56:742,0.477,0.007,0.004,-0.010,-3.265,-87.709,-2.214
16:11:56:846,0.581,-0.001,-0.004,-0.012,-3.271,-87.783,-2.256
16:11:56:846,0.582,0.003,0.000,-0.015,-3.273,-87.849,-2.300
16:11:56:847,0.583,-0.001,-0.001,-0.015,-3.273,-87.894,-2.335
16:11:56:848,0.584,0.002,0.000,-0.010,-3.286,-87.954,-2.381
16:11:56:95,0.686,0.000,-0.002,-0.012,-3.301,-88.005,-2.417
16:11:56:951,0.686,0.008,-0.002,-0.011,-3.307,-88.074,-2.455
16:11:56:951,0.687,0.001,0.001,-0.011,-3.321,-88.129,-2.486
16:11:56:952,0.688,0.005,-0.002,-0.011,-3.331,-88.215,-2.517
16:11:56:968,0.703,-0.001,0.000,-0.010,-3.340,-88.305,-2.543
16:11:57:028,0.764,0.007,0.000,-0.015,-3.341,-88.366,-2.562
16:11:57:029,0.764,-0.002,-0.001,-0.016,-3.348,-88.478,-2.578
16:11:57:03,0.765,-0.002,0.000,-0.010,-3.366,-88.563,-2.597
16:11:57:046,0.782,0.007,0.000,-0.010,-3.431,-88.714,-2.700
16:11:57:133,0.868,0.003,-0.001,-0.005,-3.451,-88.762,-2.735
16:11:57:134,0.869,0.006,0.000,-0.011,-3.461,-88.843,-2.761
16:11:57:134,0.870,0.002,0.001,-0.013,-3.461,-88.899,-2.775
16:11:57:135,0.871,0.001,0.000,-0.022,-3.471,-88.984,-2.786
16:11:57:15,0.886,0.000,-0.002,-0.017,-3.480,-89.066,-2.792
16:11:57:203,0.939,0.002,-0.004,-0.015,-3.492,-89.214,-2.821
16:11:57:236,0.971,-0.005,-0.005,-0.019,-3.525,-89.365,-2.891
16:11:57:237,0.972,0.004,-0.002,-0.013,-3.556,-89.453,-2.962
16:11:57:238,0.973,0.000,-0.005,-0.016,-3.611,-89.583,-3.099
16:11:57:319,1.055,0.000,-0.003,-0.011,-3.655,-89.680,-3.198
16:11:57:319,1.055,-0.001,-0.002,-0.011,-3.718,-89.819,-3.362
16:11:57:32,1.055,0.000,-0.004,-0.010,-3.789,-89.940,-3.520
16:11:57:321,1.056,0.001,-0.002,-0.010,-3.841,-90.019,-3.628
16:11:57:344,1.080,0.000,-0.003,-0.009,-3.924,-90.110,-3.773
16:11:57:345,1.080,0.010,-0.002,-0.020,-3.989,-90.156,-3.878
16:11:57:345,1.081,0.001,0.001,-0.010,-4.087,-90.211,-4.047
16:11:57:346,1.082,0.011,-0.001,-0.007,-4.177,-90.244,-4.207
16:11:57:393,1.129,0.006,-0.001,-0.009,-4.238,-90.257,-4.299
16:11:57:394,1.129,0.009,-0.002,-0.010,-4.317,-90.287,-4.416
16:11:57:395,1.130,0.004,0.000,-0.006,-4.367,-90.314,-4.484
16:11:57:418,1.154,0.013,-0.001,-0.008,-4.436,-90.345,-4.563
16:11:57:419,1.155,0.002,-0.001,-0.012,-4.474,-90.375,-4.604
16:11:57:443,1.178,0.014,0.001,-0.011,-4.519,-90.429,-4.647
16:11:57:443,1.179,0.001,-0.003,-0.016,-4.554,-90.473,-4.673
16:11:57:607,1.342,0.012,-0.002,-0.008,-4.575,-90.511,-4.687
16:11:57:607,1.343,0.000,0.000,-0.013,-4.599,-90.563,-4.689
16:11:57:608,1.343,0.005,-0.001,-0.013,-4.610,-90.604,-4.685
16:11:57:609,1.344,0.001,0.000,-0.014,-4.612,-90.654,-4.683
16:11:57:71,1.446,0.008,-0.003,-0.015,-4.615,-90.717,-4.681
16:11:57:711,1.447,0.002,0.000,-0.013,-4.620,-90.752,-4.673
16:11:57:712,1.447,0.007,-0.003,-0.016,-4.621,-90.804,-4.651
16:11:57:713,1.448,0.001,-0.006,-0.016,-4.628,-90.829,-4.653
16:11:57:816,1.551,0.005,-0.002,-0.019,-4.629,-90.865,-4.647
16:11:57:816,1.551,0.006,-0.001,-0.016,-4.629,-90.875,-4.646
16:11:57:817,1.552,0.008,-0.003,-0.015,-4.631,-90.901,-4.650
16:11:57:819,1.554,0.004,-0.003,-0.015,-4.633,-90.921,-4.670
16:11:57:919,1.654,0.008,-0.001,-0.015,-4.642,-90.926,-4.683
16:11:57:92,1.655,0.002,-0.002,-0.013,-4.663,-90.923,-4.708
16:11:57:92,1.656,0.003,-0.001,-0.014,-4.679,-90.918,-4.709
16:11:58:001,1.736,0.001,-0.003,-0.015,-4.713,-90.917,-4.721
16:11:58:002,1.737,0.002,-0.003,-0.014,-4.745,-90.901,-4.728
16:11:58:003,1.738,0.007,-0.002,-0.015,-4.769,-90.874,-4.728
16:11:58:095,1.831,0.016,0.000,-0.015,-4.836,-90.815,-4.738
16:11:58:208,1.943,0.007,-0.005,-0.018,-4.880,-90.783,-4.738
16:11:58:208,1.943,0.012,-0.001,-0.020,-4.900,-90.768,-4.738
16:11:58:208,1.944,0.004,-0.002,-0.017,-4.930,-90.762,-4.736
16:11:58:228,1.964,0.014,0.001,-0.019,-4.961,-90.760,-4.738
16:11:58:315,2.050,0.007,-0.004,-0.020,-4.976,-90.759,-4.755
16:11:58:316,2.051,0.015,-0.003,-0.017,-5.012,-90.777,-4.806
16:11:58:317,2.052,0.002,-0.002,-0.021,-5.029,-90.790,-4.848
16:11:58:318,2.053,0.013,0.000,-0.018,-5.057,-90.813,-4.927
16:11:58:474,2.210,0.004,-0.001,-0.017,-5.095,-90.834,-5.024
16:11:58:474,2.210,0.009,-0.001,-0.017,-5.115,-90.856,-5.095
16:11:58:475,2.210,0.000,-0.002,-0.016,-5.146,-90.877,-5.204
16:11:58:475,2.211,0.008,-0.001,-0.019,-5.173,-90.895,-5.279
16:11:58:578,2.313,0.002,-0.004,-0.019,-5.211,-90.921,-5.392
16:11:58:578,2.313,0.010,-0.004,-0.013,-5.234,-90.933,-5.473
16:11:58:579,2.314,0.002,-0.003,-0.011,-5.285,-90.938,-5.583
16:11:58:58,2.315,0.012,0.001,-0.015,-5.327,-90.918,-5.681
16:11:58:595,2.331,0.006,-0.001,-0.014,-5.360,-90.900,-5.729
16:11:58:676,2.412,0.011,-0.001,-0.017,-5.407,-90.880,-5.795
16:11:58:677,2.412,0.005,-0.001,-0.018,-5.438,-90.872,-5.833
16:11:58:7,2.435,0.005,-0.001,-0.018,-5.476,-90.869,-5.895
16:11:58:788,2.523,0.003,0.000,-0.015,-5.517,-90.856,-5.937
16:11:58:788,2.524,0.012,-0.001,-0.013,-5.549,-90.828,-5.965
16:11:58:789,2.525,0.007,-0.004,-0.021,-5.602,-90.798,-5.998
16:11:58:79,2.525,0.007,0.001,-0.017,-5.648,-90.802,-6.012
16:11:58:808,2.543,0.001,-0.001,-0.015,-5.699,-90.800,-6.030
16:11:58:809,2.544,0.009,-0.001,-0.019,-5.766,-90.791,-6.049
16:11:58:859,2.595,0.006,0.000,-0.015,-5.806,-90.794,-6.064
16:11:58:89,2.625,0.004,-0.002,-0.015,-5.876,-90.789,-6.097
16:11:58:891,2.626,0.013,0.000,-0.017,-5.929,-90.781,-6.120
16:11:58:891,2.626,0.006,-0.003,-0.021,-5.999,-90.783,-6.148
16:11:58:972,2.708,0.006,-0.001,-0.019,-6.044,-90.800,-6.177
16:11:58:972,2.708,0.008,-0.003,-0.019,-6.125,-90.821,-6.222
16:11:58:973,2.708,0.011,-0.001,-0.016,-6.207,-90.861,-6.287
16:11:58:973,2.708,0.003,-0.002,-0.017,-6.254,-90.914,-6.329
16:11:59:076,2.811,0.010,0.000,-0.014,-6.327,-90.996,-6.384
16:11:59:076,2.811,0.007,-0.003,-0.012,-6.364,-91.035,-6.414
16:11:59:077,2.812,0.010,0.000,-0.004,-6.403,-91.099,-6.427
16:11:59:078,2.813,-0.006,-0.002,-0.009,-6.437,-91.104,-6.402
16:11:59:103,2.839,0.019,-0.001,-0.016,-6.474,-91.058,-6.359
16:11:59:103,2.839,0.015,-0.003,-0.020,-6.537,-90.993,-6.288
16:11:59:104,2.840,0.011,0.001,-0.012,-6.548,-90.994,-6.255
16:11:59:105,2.841,0.003,-0.002,-0.016,-6.559,-91.010,-6.215
16:11:59:18,2.915,0.015,-0.001,-0.016,-6.573,-91.032,-6.169
16:11:59:18,2.916,0.004,-0.001,-0.015,-6.574,-91.063,-6.147
16:11:59:18,2.916,0.005,-0.004,-0.014,-6.582,-91.119,-6.126
16:11:59:252,2.987,0.003,-0.002,-0.017,-6.586,-91.140,-6.114
16:11:59:285,3.021,0.005,-0.002,-0.012,-6.593,-91.177,-6.095
16:11:59:286,3.022,0.004,-0.001,-0.013,-6.596,-91.188,-6.084
16:11:59:386,3.122,0.010,0.000,-0.012,-6.607,-91.190,-6.050
16:11:59:387,3.123,0.001,-0.004,-0.015,-6.614,-91.190,-6.038
16:11:59:41,3.145,0.001,-0.003,-0.011,-6.617,-91.194,-6.032
16:11:59:539,3.275,0.000,-0.002,-0.015,-6.618,-91.191,-5.996
16:11:59:619,3.354,0.008,-0.002,-0.011,-6.622,-91.177,-5.959
16:11:59:654,3.389,0.001,-0.001,-0.011,-6.625,-91.174,-5.933
16:11:59:655,3.390,0.003,-0.003,-0.013,-6.629,-91.160,-5.896
16:11:59:656,3.391,0.007,-0.001,-0.017,-6.629,-91.150,-5.865
16:11:59:656,3.391,0.001,0.001,-0.013,-6.634,-91.151,-5.844
16:11:59:758,3.494,0.008,-0.002,-0.013,-6.634,-91.151,-5.844
16:11:59:759,3.495,0.000,-0.001,-0.010,-6.640,-91.156,-5.826
16:11:59:76,3.495,0.011,0.000,-0.014,-6.642,-91.158,-5.816
16:11:59:761,3.496,0.003,-0.001,-0.015,-6.645,-91.152,-5.810
16:11:59:802,3.537,0.012,0.001,-0.014,-6.652,-91.152,-5.798
16:11:59:865,3.600,0.001,-0.004,-0.016,-6.649,-91.153,-5.788
16:11:59:865,3.601,0.007,0.000,-0.012,-6.656,-91.153,-5.776
16:11:59:866,3.601,0.004,-0.002,-0.015,-6.658,-91.153,-5.765
16:11:59:867,3.602,0.008,-0.002,-0.013,-6.651,-91.155,-5.757
16:11:59:934,3.669,0.000,-0.002,-0.014,-6.647,-91.161,-5.742
16:11:59:969,3.704,0.005,0.000,-0.009,-6.639,-91.160,-5.734
16:11:59:969,3.705,-0.003,-0.001,-0.011,-6.622,-91.177,-5.722
16:11:59:97,3.705,0.006,-0.001,-0.015,-6.587,-91.194,-5.705
16:11:59:971,3.707,0.002,-0.001,-0.012,-6.572,-91.196,-5.688
16:12:00:048,3.783,0.008,-0.001,-0.016,-6.529,-91.203,-5.663
16:12:00:048,3.784,-0.001,-0.001,-0.012,-6.502,-91.221,-5.654
16:12:00:048,3.784,0.005,0.001,-0.013,-6.450,-91.238,-5.631
16:12:00:049,3.784,0.001,-0.001,-0.013,-6.413,-91.246,-5.604
16:12:00:068,3.804,0.005,-0.001,-0.013,-6.343,-91.261,-5.571
16:12:00:068,3.804,0.000,-0.001,-0.018,-6.257,-91.301,-5.514
16:12:00:147,3.882,0.008,-0.003,-0.018,-6.198,-91.330,-5.482
16:12:00:148,3.883,0.002,-0.005,-0.019,-6.104,-91.380,-5.448
16:12:00:258,3.994,0.001,-0.002,-0.016,-6.037,-91.409,-5.440
16:12:00:258,3.994,0.001,-0.002,-0.017,-5.950,-91.458,-5.435
16:12:00:258,3.994,0.002,-0.001,-0.015,-5.864,-91.524,-5.424
16:12:00:259,3.995,0.002,-0.003,-0.018,-5.809,-91.561,-5.422
16:12:00:3,4.036,0.002,-0.004,-0.019,-5.734,-91.605,-5.420
16:12:00:358,4.093,0.005,-0.002,-0.014,-5.683,-91.634,-5.417
16:12:00:359,4.094,0.001,-0.001,-0.014,-5.619,-91.681,-5.417
16:12:00:415,4.150,0.012,0.000,-0.016,-5.587,-91.688,-5.410
16:12:00:416,4.151,0.004,-0.002,-0.015,-5.535,-91.693,-5.429
16:12:00:417,4.152,0.008,-0.002,-0.012,-5.478,-91.722,-5.438
16:12:00:418,4.153,0.002,-0.001,-0.011,-5.442,-91.722,-5.437
16:12:00:626,4.361,0.010,-0.004,-0.015,-5.381,-91.730,-5.438
16:12:00:627,4.362,0.001,-0.002,-0.011,-5.350,-91.741,-5.436
16:12:00:627,4.363,0.006,0.000,-0.015,-5.289,-91.743,-5.421
16:12:00:628,4.364,0.002,-0.001,-0.012,-5.254,-91.750,-5.405
16:12:00:646,4.381,0.017,0.000,-0.014,-5.190,-91.755,-5.360
16:12:00:731,4.466,0.006,-0.001,-0.016,-5.116,-91.758,-5.318
16:12:00:731,4.467,0.005,0.000,-0.012,-5.055,-91.786,-5.277
16:12:00:732,4.468,0.001,-0.001,-0.013,-4.949,-91.829,-5.206
16:12:00:733,4.469,0.006,0.001,-0.020,-4.839,-91.846,-5.122
16:12:00:828,4.563,0.003,-0.001,-0.012,-4.752,-91.871,-5.063
16:12:00:935,4.671,0.007,0.000,-0.009,-4.611,-91.903,-4.961
16:12:00:936,4.672,0.006,0.000,-0.013,-4.511,-91.914,-4.879
16:12:01:561,5.297,0.009,-0.001,-0.017,-4.339,-91.924,-4.741
16:12:01:624,5.360,0.003,-0.001,-0.015,-4.215,-91.955,-4.645
16:12:01:624,5.360,0.005,-0.001,-0.018,-4.012,-91.996,-4.483
16:12:01:625,5.360,0.002,0.000,-0.016,-3.783,-92.057,-4.297
16:12:01:626,5.361,0.007,0.001,-0.013,-3.617,-92.108,-4.156
16:12:01:727,5.462,0.002,0.001,-0.010,-3.356,-92.186,-3.912
16:12:01:727,5.463,0.002,0.005,-0.017,-3.177,-92.246,-3.724
16:12:01:728,5.464,0.002,0.001,-0.021,-2.888,-92.335,-3.416
16:12:01:729,5.465,0.003,0.002,-0.013,-2.582,-92.470,-3.098
16:12:01:824,5.560,0.006,0.001,-0.016,-2.353,-92.575,-2.877
16:12:01:908,5.644,-0.006,0.009,-0.031,-2.007,-92.755,-2.545
16:12:01:909,5.645,0.003,0.002,-0.028,-1.779,-92.911,-2.325
16:12:01:91,5.645,0.001,0.004,-0.026,-1.421,-93.154,-2.023
16:12:01:956,5.691,0.007,0.003,-0.015,-1.180,-93.323,-1.854
16:12:01:989,5.725,0.001,0.006,-0.012,-0.812,-93.603,-1.614
16:12:01:99,5.726,-0.010,0.012,-0.010,-0.438,-93.923,-1.356
16:12:01:991,5.726,-0.006,0.009,-0.005,-0.188,-94.136,-1.146
16:12:02:018,5.753,-0.010,0.013,0.023,0.439,-94.653,-0.415
16:12:02:018,5.753,-0.011,0.057,0.022,0.790,-94.966,0.185
16:12:02:018,5.753,-0.035,0.062,0.019,1.104,-95.254,0.941
16:12:02:019,5.754,-0.022,0.048,0.022,1.313,-95.405,1.517
16:12:02:043,5.778,-0.013,0.076,0.113,-5.196,-83.348,2.764
16:12:02:043,5.779,-0.078,0.115,0.081,-5.334,-83.561,-1.682
16:12:02:044,5.780,-0.135,0.159,0.056,-5.514,-83.890,-4.722
16:12:02:045,5.781,-0.185,0.185,-0.060,-5.973,-84.359,-9.244
16:12:02:095,5.830,-0.321,0.118,-0.377,-6.371,-84.602,-13.458
16:12:02:096,5.831,-0.272,0.188,-0.346,-6.385,-84.498,-16.015
16:12:02:096,5.832,-0.157,0.037,-0.523,-5.946,-83.488,-19.388
16:12:02:097,5.833,-0.121,-0.065,-0.677,-5.564,-82.628,-21.205
16:12:02:121,5.856,-0.107,-0.152,-0.827,-5.229,-81.971,-22.987
16:12:02:121,5.857,0.097,0.300,0.438,-5.005,-81.814,-22.041
16:12:02:122,5.858,-0.010,0.057,-0.026,-4.972,-81.317,-21.297
16:12:02:123,5.858,0.074,0.264,-0.624,-5.177,-80.778,-19.965
16:12:02:149,5.884,-0.157,0.071,-0.125,-5.176,-80.705,-19.095
16:12:02:149,5.884,-0.059,-0.006,0.029,-5.614,-80.934,-17.610
16:12:02:15,5.885,0.064,-0.002,-0.057,-6.091,-80.531,-16.226
16:12:02:15,5.885,-0.021,-0.030,-0.089,-6.370,-80.680,-15.361
16:12:02:165,5.901,-0.011,-0.019,-0.075,-6.908,-80.646,-14.253
16:12:02:196,5.931,0.006,0.004,-0.031,-7.340,-80.962,-13.615
16:12:02:197,5.932,0.010,0.011,-0.086,-7.984,-80.698,-12.790
16:12:02:197,5.933,0.039,0.020,-0.073,-8.539,-80.568,-12.194
16:12:02:217,5.952,0.066,0.021,-0.011,-8.807,-80.722,-11.791
16:12:02:243,5.978,0.062,0.003,0.034,-9.013,-81.655,-10.938
16:12:02:269,6.004,0.006,0.008,-0.031,-9.076,-82.033,-10.196
16:12:02:296,6.032,-0.004,0.003,-0.039,-9.149,-82.659,-8.992
16:12:02:322,6.058,0.006,-0.026,-0.017,-9.237,-83.054,-7.678
16:12:02:348,6.084,-0.007,-0.028,-0.027,-9.293,-83.297,-6.801
16:12:02:464,6.199,0.001,0.002,-0.063,-9.311,-83.374,-5.618
16:12:02:464,6.199,0.011,-0.001,-0.037,-9.271,-83.491,-4.921
16:12:02:464,6.199,0.010,0.004,-0.043,-9.211,-83.476,-4.020
16:12:02:465,6.200,0.032,0.016,-0.002,-9.216,-83.699,-3.410
16:12:02:478,6.214,0.040,0.018,0.046,-9.175,-83.890,-2.425
16:12:02:534,6.269,0.039,0.039,0.040,-8.992,-84.090,-1.063
16:12:02:535,6.270,0.022,0.044,0.009,-8.864,-84.155,-0.005
16:12:02:558,6.293,-0.012,0.041,-0.001,-8.699,-84.523,1.715
16:12:02:671,6.407,-0.007,0.050,0.038,-8.548,-84.791,2.979
16:12:02:672,6.407,-0.037,0.118,0.060,-8.253,-85.488,5.036
16:12:02:673,6.408,-0.113,0.163,0.088,-8.065,-85.657,6.471
16:12:02:673,6.409,-0.039,0.199,0.136,-7.846,-85.944,8.769
16:12:02:776,6.511,0.073,0.273,0.232,-7.449,-86.089,11.442
16:12:02:777,6.512,0.018,0.335,0.385,-7.107,-86.331,13.494
16:12:02:778,6.513,0.103,0.333,0.493,-6.498,-87.014,16.860
16:12:02:877,6.612,0.162,0.022,0.514,-5.671,-89.791,23.627
16:12:02:877,6.613,0.083,0.274,0.319,-5.292,-91.421,28.406
16:12:02:963,6.698,0.247,0.286,0.377,-4.627,-92.710,31.588
16:12:02:963,6.698,0.158,-0.188,0.440,-3.128,-94.305,35.849
16:12:02:963,6.698,0.058,-0.269,0.738,-1.889,-95.711,38.081
16:12:02:963,6.699,0.212,-0.614,-0.127,-0.316,-97.281,40.413
16:12:02:979,6.714,-0.044,-0.754,0.513,1.217,-99.046,40.538
16:12:03:114,6.850,0.043,-0.409,0.240,-1.776,-96.290,35.203
16:12:03:114,6.850,0.086,-0.286,0.302,-3.822,-93.819,30.862
16:12:03:171,6.906,0.122,-0.173,0.298,-5.132,-91.733,25.415
16:12:03:171,6.907,0.115,-0.045,0.197,-5.648,-90.456,21.374
16:12:03:172,6.908,0.093,0.025,0.152,-6.041,-88.881,14.840
16:12:03:173,6.909,0.076,0.109,0.117,-6.280,-87.968,10.190
16:12:03:329,7.064,0.027,0.245,0.022,-6.758,-86.415,2.710
16:12:03:329,7.064,-0.018,0.491,-0.144,-7.079,-85.406,-2.550
16:12:03:33,7.065,-0.100,0.565,-0.472,-7.346,-84.397,-10.624
16:12:03:331,7.066,-0.102,0.469,-1.049,-7.336,-84.115,-18.363
16:12:03:408,7.144,-0.061,0.286,-1.214,-7.439,-84.143,-23.003
16:12:03:409,7.144,-0.262,-0.276,-1.555,-8.299,-84.617,-28.456
16:12:03:41,7.145,-0.384,-0.633,-1.847,-9.020,-84.906,-30.210
16:12:03:43,7.165,-0.668,-0.390,-1.045,-7.491,-81.905,-26.851
16:12:03:43,7.166,0.571,0.390,-0.798,-7.629,-80.872,-23.259
16:12:03:508,7.243,-0.031,-0.079,-0.360,-7.648,-79.371,-19.300
16:12:03:509,7.244,0.007,-0.015,-0.085,-7.799,-79.725,-17.707
16:12:03:51,7.245,-0.028,-0.028,-0.083,-8.006,-79.920,-16.890
16:12:03:529,7.264,-0.069,-0.013,-0.106,-8.346,-79.682,-16.028
16:12:03:613,7.349,0.104,0.041,0.020,-8.957,-79.397,-15.417
16:12:03:614,7.350,0.185,0.032,0.094,-9.319,-79.759,-14.767
16:12:03:615,7.350,0.002,0.006,-0.020,-9.450,-80.866,-13.296
16:12:03:634,7.369,-0.063,0.021,-0.062,-9.448,-81.622,-12.167
16:12:03:66,7.395,0.014,-0.002,-0.055,-9.570,-82.490,-10.350
16:12:03:716,7.451,0.012,0.004,-0.024,-9.570,-83.457,-8.439
16:12:03:716,7.451,0.018,-0.024,-0.017,-9.493,-83.837,-7.147
16:12:03:819,7.554,0.052,-0.021,-0.056,-9.346,-83.947,-5.376
16:12:03:873,7.609,-0.005,-0.019,-0.033,-9.283,-83.945,-4.312
16:12:03:874,7.610,-0.027,0.027,-0.053,-9.228,-83.810,-2.740
16:12:03:933,7.669,0.010,0.031,-0.030,-9.229,-83.764,-1.750
16:12:03:933,7.669,-0.003,0.041,-0.014,-9.177,-84.540,-0.119
16:12:03:933,7.669,-0.059,0.075,-0.005,-9.060,-84.784,1.735
16:12:03:934,7.670,-0.039,0.100,0.038,-8.968,-85.508,3.051
16:12:04:032,7.767,-0.063,0.139,0.084,-8.734,-85.754,5.193
16:12:04:033,7.768,-0.066,0.215,0.130,-8.537,-86.583,6.806
16:12:04:091,7.827,-0.048,0.243,0.122,-8.162,-86.607,9.570
16:12:04:092,7.827,0.078,0.325,0.303,-7.612,-87.510,12.790
16:12:04:092,7.828,-0.001,0.359,0.363,-7.069,-88.293,15.177
16:12:04:093,7.829,0.094,0.450,0.929,-5.736,-90.671,19.114
16:12:04:43,8.166,0.103,0.011,0.836,-4.838,-92.143,22.172
16:12:04:431,8.167,0.095,0.364,0.324,-4.223,-93.327,27.663
16:12:04:432,8.168,0.237,0.358,0.530,-3.628,-94.011,33.451
16:12:04:433,8.168,0.194,-0.165,0.687,-2.984,-94.506,36.868
16:12:04:51,8.246,0.103,-0.498,0.637,-2.117,-95.073,40.917
16:12:04:511,8.246,0.324,-0.513,0.358,-1.304,-95.186,42.889
16:12:04:512,8.247,0.110,-0.997,0.481,0.140,-95.132,43.693
16:12:04:512,8.248,0.073,-0.756,0.381,0.339,-94.097,42.980
16:12:04:638,8.374,0.196,-0.721,0.390,-0.329,-91.803,40.869
16:12:04:639,8.375,0.288,-0.384,0.221,-1.647,-88.562,37.277
16:12:04:64,8.375,0.300,-0.323,0.213,-2.344,-86.106,34.192
16:12:04:738,8.473,0.260,-0.284,0.271,-2.734,-82.531,28.569
16:12:04:797,8.532,0.324,-0.183,0.238,-2.628,-80.536,24.322
16:12:04:797,8.532,0.329,0.058,0.031,-2.281,-77.905,17.360
16:12:04:825,8.560,0.340,0.304,-0.034,-1.892,-74.152,4.453
16:12:04:826,8.561,0.214,0.523,-0.405,-2.200,-71.459,-3.973
16:12:04:827,8.562,-0.142,0.739,-0.810,-2.578,-69.627,-9.713
16:12:04:828,8.563,-0.544,0.525,-1.316,-2.874,-67.037,-17.963
16:12:04:904,8.640,-0.067,0.213,-1.470,-2.616,-64.703,-24.446
16:12:04:905,8.640,-0.293,-0.317,-1.583,-1.972,-62.318,-27.524
16:12:04:906,8.641,-0.900,-0.610,-1.568,-1.248,-58.680,-29.600
16:12:04:906,8.642,-0.368,0.117,-0.046,-0.999,-56.599,-28.612
16:12:05:009,8.744,-0.616,-0.524,-0.190,-0.661,-53.893,-25.839
16:12:05:009,8.745,0.101,0.042,-0.590,-1.074,-51.637,-22.716
16:12:05:01,8.746,0.413,0.137,-1.208,-2.138,-50.871,-21.348
16:12:05:033,8.768,-0.494,-0.080,-0.418,-2.200,-47.965,-18.722
16:12:05:034,8.769,0.044,0.000,-0.066,-2.597,-48.507,-17.659
16:12:05:034,8.769,-0.031,0.013,-0.046,-2.843,-48.705,-17.034
16:12:05:131,8.867,-0.096,-0.001,-0.070,-3.186,-48.362,-16.324
16:12:05:289,9.024,0.077,0.004,-0.083,-3.851,-48.088,-15.765
16:12:05:455,9.190,0.158,0.019,-0.045,-4.144,-48.557,-15.214
16:12:05:455,9.191,0.022,0.011,0.018,-4.249,-49.644,-13.885
16:12:05:456,9.192,-0.012,-0.004,-0.005,-4.234,-50.225,-12.807
16:12:05:481,9.216,0.085,-0.015,-0.031,-4.198,-51.100,-9.553
16:12:05:482,9.217,0.084,-0.035,-0.017,-4.178,-51.193,-8.458
16:12:05:508,9.243,-0.049,0.019,-0.038,-4.233,-49.804,-4.153
16:12:05:508,9.243,-0.002,0.018,-0.001,-4.224,-50.515,-3.174
16:12:05:509,9.244,-0.001,0.026,-0.013,-4.170,-50.189,-1.601
16:12:05:509,9.245,0.027,0.029,-0.008,-4.007,-50.991,0.203
16:12:05:581,9.316,0.021,0.091,-0.002,-3.806,-50.852,1.564
16:12:05:581,9.316,-0.001,0.142,0.041,-3.473,-51.571,3.756
16:12:05:709,9.444,0.047,0.162,0.064,-3.227,-51.492,5.277
16:12:05:901,9.637,0.183,0.246,0.024,-2.747,-52.307,7.686
16:12:05:901,9.637,0.246,0.315,0.110,-1.968,-52.497,10.313
16:12:05:902,9.638,0.221,0.318,0.337,-1.239,-53.620,12.271
16:12:05:903,9.638,0.577,0.346,0.513,0.050,-54.296,15.675
16:12:06:049,9.785,0.549,0.110,0.499,0.873,-55.293,18.307
16:12:06:086,9.821,0.347,0.086,0.242,1.957,-55.728,22.996
16:12:06:086,9.821,0.438,0.330,0.119,3.292,-56.252,28.449
16:12:06:086,9.822,0.561,0.197,0.208,4.308,-56.098,32.102
16:12:06:087,9.823,0.445,-0.381,0.200,5.333,-55.409,36.689
16:12:06:137,9.872,0.383,-0.477,0.255,5.691,-54.967,38.976
16:12:06:138,9.873,0.362,-0.537,0.003,6.157,-53.499,41.402
16:12:06:139,9.874,0.440,-0.784,0.187,5.553,-51.811,41.670
16:12:06:139,9.874,0.458,-0.682,0.127,3.605,-48.349,40.364
16:12:06:242,9.978,0.482,-0.549,0.001,1.489,-44.646,37.887
16:12:06:243,9.979,0.473,-0.369,-0.040,0.375,-42.105,35.538
16:12:06:244,9.979,0.378,-0.230,-0.046,-0.401,-38.745,31.027
16:12:06:245,9.980,0.412,-0.200,-0.084,-0.379,-37.100,27.446
16:12:06:347,10.082,0.375,-0.089,-0.095,-0.103,-35.443,21.293
16:12:06:348,10.083,0.316,-0.002,-0.061,-0.180,-34.068,14.527
16:12:06:349,10.084,0.306,0.056,-0.010,-0.523,-33.074,9.705
16:12:06:349,10.085,0.162,0.368,-0.035,-1.395,-31.224,1.945
16:12:06:453,10.188,0.026,0.527,-0.092,-2.060,-29.768,-3.548
16:12:06:453,10.188,-1.028,0.250,-0.863,-2.029,-22.753,-24.406
16:12:06:454,10.189,-1.947,-0.576,-0.931,-1.252,-19.527,-28.942
16:12:06:454,10.189,-1.801,-0.503,-0.631,-1.203,-18.077,-29.666
16:12:06:683,10.418,1.126,1.164,0.776,-0.856,-15.782,-26.787
16:12:06:683,10.419,-0.328,-0.106,-0.048,-2.434,-11.020,-18.240
16:12:06:838,10.573,-0.025,0.012,-0.099,-2.617,-11.043,-16.898
16:12:06:867,10.603,-0.036,-0.019,-0.015,-2.921,-11.383,-16.281
16:12:06:868,10.604,-0.066,0.003,0.028,-3.322,-11.512,-15.542
16:12:07:055,10.791,0.079,0.014,-0.130,-4.010,-11.226,-14.869
16:12:07:056,10.792,0.142,0.023,-0.190,-4.400,-11.556,-14.174
16:12:07:057,10.792,-0.004,0.006,-0.024,-4.561,-12.597,-12.697
16:12:07:108,10.843,-0.008,0.020,0.014,-4.595,-13.298,-11.620
16:12:07:109,10.844,0.008,-0.008,-0.061,-4.669,-12.640,-9.966
16:12:07:109,10.845,0.022,-0.013,-0.081,-4.657,-13.000,-8.830
16:12:07:211,10.947,0.010,-0.062,-0.046,-4.472,-10.760,-5.367
16:12:07:212,10.947,-0.060,0.016,-0.009,-4.500,-10.514,-4.270
16:12:07:213,10.948,0.013,0.028,-0.021,-4.610,-8.962,-2.702
16:12:07:284,11.019,0.000,0.033,-0.057,-4.666,-8.730,-1.584
16:12:07:426,11.161,0.059,0.089,-0.023,-4.557,-7.323,2.244
16:12:07:426,11.161,0.035,0.118,0.011,-4.382,-6.293,3.805
16:12:07:426,11.162,0.077,0.179,0.116,-4.145,-6.471,6.191
16:12:07:441,11.177,0.146,0.198,0.085,-3.951,-5.809,7.848
16:12:07:502,11.237,0.278,0.298,-0.123,-3.491,-5.880,10.702
16:12:07:502,11.238,0.837,0.161,0.027,-1.021,-7.182,20.469
16:12:07:503,11.239,0.532,0.093,-0.121,-0.517,-7.712,23.743
16:12:07:504,11.240,0.400,-0.773,-0.025,3.858,-6.566,44.007
16:12:07:522,11.257,0.476,-0.732,-0.077,3.289,-5.240,43.002
16:12:07:523,11.258,0.260,-0.314,-0.158,-0.803,1.791,32.757
16:12:07:607,11.342,0.151,0.150,-0.070,0.197,3.412,9.791
16:12:07:607,11.343,0.061,0.398,0.070,-0.511,3.199,2.087
16:12:07:608,11.344,-0.193,0.617,0.111,-1.746,3.965,-5.885
16:12:07:609,11.344,-0.844,0.670,-0.071,-2.577,4.939,-11.202
16:12:07:634,11.370,-1.761,0.483,0.319,-3.111,7.796,-18.239
16:12:07:635,11.370,-1.677,-0.320,-0.220,-2.928,9.276,-21.932
16:12:07:635,11.370,-2.350,-0.578,0.419,-2.058,12.764,-24.676
16:12:07:636,11.371,1.788,1.164,0.370,-1.739,14.851,-23.094
16:12:07:712,11.447,-1.190,-0.071,-0.077,-2.197,15.276,-21.628
16:12:07:713,11.448,-0.056,0.063,0.289,-2.806,16.387,-18.647
16:12:07:714,11.449,-0.094,-0.080,0.265,-2.890,17.013,-16.728
16:12:07:715,11.450,-0.070,0.001,-0.136,-4.367,17.021,-9.476
16:12:07:738,11.474,-0.137,0.009,-0.026,-4.669,17.234,-8.460
16:12:07:739,11.474,-0.018,0.016,-0.030,-5.108,17.022,-7.114
16:12:07:74,11.475,-0.052,0.008,-0.027,-5.326,16.860,-6.186
16:12:07:74,11.476,-0.036,-0.013,-0.029,-5.615,16.637,-4.792
16:12:07:756,11.492,-0.045,-0.005,-0.031,-5.831,16.364,-3.445
16:12:07:845,11.580,-0.083,-0.013,-0.041,-5.917,16.225,-2.657
16:12:07:845,11.580,-0.031,0.018,-0.043,-5.989,15.886,-1.705
16:12:07:845,11.580,-0.053,0.004,-0.023,-6.021,15.626,-1.159
16:12:07:846,11.581,-0.026,0.000,-0.037,-6.064,15.221,-0.488
16:12:07:95,11.686,0.043,0.008,-0.120,-6.100,15.561,-0.061
16:12:07:95,11.686,0.063,0.033,-0.104,-5.960,15.216,0.819
16:12:07:95,11.686,0.052,0.060,-0.042,-5.640,15.395,2.185
16:12:07:951,11.687,0.092,0.075,-0.042,-5.432,15.116,3.278
16:12:08:159,11.894,0.140,0.115,-0.001,-5.105,15.292,5.179
16:12:08:159,11.895,0.163,0.159,0.018,-4.865,15.198,6.649
16:12:08:16,11.896,0.128,0.298,-0.169,-4.463,15.629,9.123
16:12:08:161,11.896,0.242,0.310,-0.122,-3.863,16.097,11.949
16:12:08:176,11.912,0.438,0.253,-0.155,-3.340,15.768,14.126
16:12:08:29,12.025,0.588,0.294,-0.242,-2.550,15.331,17.841
16:12:08:29,12.026,0.906,0.257,-0.528,-1.959,14.573,20.572
16:12:08:291,12.027,0.511,0.094,-0.433,-0.834,13.109,25.280
16:12:08:395,12.130,0.517,0.200,-0.464,0.831,11.208,34.852
16:12:08:396,12.131,0.773,-0.439,-0.339,2.897,10.132,39.662
16:12:08:396,12.131,0.261,-0.830,-0.176,3.958,9.683,42.203
16:12:08:5,12.235,0.491,-0.867,-0.106,6.259,9.925,44.068
16:12:08:5,12.236,0.394,-0.881,-0.234,5.537,12.148,42.327
16:12:08:501,12.237,0.232,-0.603,-0.348,3.337,15.733,39.520
16:12:08:502,12.238,0.148,-0.377,-0.362,1.818,18.287,37.011
16:12:08:572,12.308,0.160,-0.280,-0.372,0.436,21.932,32.137
16:12:08:573,12.308,0.105,-0.169,-0.398,0.077,24.038,28.257
16:12:08:606,12.341,0.053,-0.003,-0.410,0.070,26.568,21.745
16:12:08:606,12.341,0.071,0.046,-0.364,0.102,28.679,14.703
16:12:08:606,12.342,0.068,0.132,-0.353,-0.085,30.084,9.765
16:12:08:607,12.343,-0.135,0.485,-0.254,-0.728,32.541,1.858
16:12:08:628,12.363,-0.616,0.724,0.018,-1.196,34.422,-3.703
16:12:08:629,12.364,-0.926,0.688,0.129,-1.708,37.439,-12.196
16:12:08:63,12.365,-1.122,0.330,1.481,-2.085,39.636,-17.474
16:12:08:684,12.419,-1.149,0.119,0.357,-2.226,42.508,-23.948
16:12:08:684,12.419,-1.756,-0.622,1.623,-1.447,46.941,-27.481
16:12:08:685,12.420,-0.791,-0.465,1.521,-1.333,49.071,-27.349
16:12:08:686,12.422,0.493,0.048,0.465,-0.965,51.927,-24.132
16:12:08:71,12.446,-0.022,0.455,0.579,-1.448,53.521,-22.203
16:12:08:711,12.447,-0.172,0.745,-0.177,-2.604,54.271,-19.538
16:12:08:712,12.447,-0.005,-0.116,0.103,-2.720,55.684,-18.420
16:12:08:713,12.448,-0.183,-0.053,0.244,-2.731,56.728,-16.967
16:12:08:73,12.465,-0.014,-0.016,-0.100,-3.205,56.153,-15.936
16:12:08:73,12.466,0.068,0.046,0.040,-3.466,56.001,-15.323
16:12:08:811,12.546,-0.052,0.001,-0.053,-3.931,56.332,-14.147
16:12:08:812,12.547,-0.114,0.006,-0.114,-4.216,56.119,-13.101
16:12:08:813,12.548,-0.006,0.008,0.019,-4.199,55.048,-11.453
16:12:08:831,12.567,0.044,0.012,-0.049,-4.207,54.063,-9.729
16:12:08:917,12.652,-0.016,-0.013,-0.054,-4.226,53.605,-8.518
16:12:08:917,12.653,-0.056,-0.022,-0.076,-4.122,52.937,-6.718
16:12:08:918,12.654,-0.005,-0.015,-0.077,-3.965,52.682,-5.525
16:12:08:937,12.672,-0.035,-0.064,-0.186,-3.811,52.897,-3.759
16:12:09:019,12.755,-0.009,-0.039,-0.064,-3.753,53.748,-1.972
16:12:09:02,12.756,0.009,0.049,0.075,-3.801,54.415,-0.827
16:12:09:045,12.781,0.004,0.046,0.036,-3.915,56.410,0.954
16:12:09:046,12.782,-0.022,0.075,-0.023,-3.915,56.791,2.154
16:12:09:095,12.830,0.027,0.094,-0.025,-3.762,57.987,4.064
16:12:09:261,12.996,0.045,0.143,-0.090,-3.459,58.000,6.174
16:12:09:262,12.997,0.085,0.218,-0.075,-3.191,58.834,7.706
16:12:09:263,12.998,0.097,0.234,-0.229,-2.661,58.531,10.211
16:12:09:264,12.999,-0.005,0.430,-0.509,-2.158,59.262,12.089
16:12:09:281,13.016,0.248,0.487,-0.578,-0.929,58.488,15.277
16:12:09:333,13.068,0.532,0.310,-0.838,0.134,58.552,17.801
16:12:09:366,13.102,0.459,0.018,-0.843,1.399,57.857,22.432
16:12:09:367,13.102,-0.070,0.216,-0.441,2.349,57.982,28.240
16:12:09:368,13.103,-0.075,0.365,-0.512,3.047,58.278,32.414
16:12:09:488,13.224,0.072,-0.422,-0.681,4.541,59.263,40.611
16:12:09:573,13.308,-0.418,-0.659,-0.068,5.236,60.906,43.915
16:12:09:573,13.309,-0.128,-0.941,-0.448,5.168,61.543,45.062
16:12:09:574,13.309,-0.022,-0.779,-0.498,4.075,64.362,44.468
16:12:09:647,13.382,-0.151,-0.755,-0.472,1.461,67.986,42.518
16:12:09:68,13.416,-0.163,-0.557,-0.400,-0.411,70.546,40.452
16:12:09:681,13.417,-0.139,-0.483,-0.434,-2.463,74.610,36.010
16:12:09:682,13.418,-0.229,-0.325,-0.385,-3.216,77.187,32.223
16:12:09:683,13.418,-0.229,-0.203,-0.377,-3.571,80.313,25.519
16:12:09:755,13.490,-0.163,0.054,-0.266,-3.410,82.471,17.885
16:12:09:756,13.491,-0.115,0.113,-0.230,-3.290,83.484,12.377
16:12:09:786,13.521,-0.109,0.394,-0.229,-3.289,84.719,3.433
16:12:09:786,13.521,-0.099,0.928,0.321,-3.699,85.313,-2.970
16:12:09:787,13.522,-0.139,0.910,1.181,-4.310,85.290,-12.508
16:12:09:788,13.523,-0.213,0.522,1.775,-4.817,85.017,-20.631
16:12:09:864,13.600,-0.350,-0.066,1.682,-5.060,85.403,-24.896
16:12:09:865,13.601,-0.036,-0.393,1.983,-5.549,86.163,-28.089
16:12:09:866,13.601,0.147,-0.265,0.786,-5.292,87.582,-27.019
16:12:09:887,13.622,-1.033,0.464,0.839,-4.807,91.338,-21.902
16:12:09:888,13.623,-0.246,0.368,0.190,-5.274,92.650,-19.050
16:12:09:889,13.624,0.048,-0.106,0.378,-5.194,93.202,-16.807
16:12:09:966,13.702,0.031,-0.006,0.141,-5.328,92.821,-15.793
16:12:09:967,13.702,-0.016,-0.035,-0.074,-5.783,92.358,-14.715
16:12:09:968,13.703,0.028,0.025,-0.117,-6.040,92.395,-13.976
16:12:09:986,13.722,-0.129,0.001,-0.044,-6.542,92.528,-12.502
16:12:10:013,13.748,-0.081,0.025,-0.003,-6.725,91.766,-10.603
16:12:10:337,14.072,0.022,0.015,-0.028,-6.792,91.166,-9.283
16:12:10:338,14.073,-0.021,0.006,-0.034,-6.893,90.416,-7.304
16:12:10:339,14.074,-0.042,0.004,-0.011,-6.937,89.887,-5.983
16:12:10:339,14.074,-0.049,0.008,-0.032,-6.871,89.098,-4.013
16:12:10:358,14.093,-0.065,-0.030,-0.014,-6.823,88.594,-2.241
16:12:10:358,14.094,-0.048,-0.026,0.006,-6.803,88.407,-1.193
16:12:10:512,14.247,0.012,0.019,-0.021,-6.756,88.188,0.296
16:12:10:572,14.308,0.010,0.050,-0.030,-6.749,88.097,1.275
16:12:10:572,14.308,-0.007,0.050,-0.048,-6.716,87.954,2.752
16:12:10:573,14.309,-0.032,0.050,-0.105,-6.630,87.794,3.837
16:12:10:618,14.354,-0.059,0.073,-0.122,-6.307,87.653,5.582
16:12:10:648,14.383,-0.024,0.117,-0.156,-5.838,87.620,7.705
16:12:10:648,14.384,0.060,0.147,-0.146,-5.538,87.607,9.258
16:12:10:67,14.405,0.086,0.106,-0.187,-5.165,87.655,11.932
16:12:10:731,14.466,-0.091,0.236,-0.296,-4.885,87.713,13.915
16:12:10:732,14.467,-0.139,0.326,-0.507,-4.209,87.443,17.211
16:12:10:733,14.468,-0.043,0.278,-0.800,-3.103,86.390,20.980
16:12:10:734,14.469,0.018,0.162,-1.083,-2.270,85.438,23.970
16:12:10:777,14.513,-0.192,0.421,-0.493,-1.521,84.586,29.514
16:12:10:778,14.514,-0.257,0.537,-0.498,-1.148,83.994,33.704
16:12:10:862,14.597,-0.195,0.064,-0.804,0.429,82.817,39.742
16:12:10:862,14.598,-0.092,-0.613,-0.719,1.518,82.033,42.902
16:12:10:863,14.599,-0.075,-0.883,0.264,3.389,80.903,46.157
16:12:10:864,14.600,-0.051,-1.050,-0.292,4.897,80.447,47.200
16:12:10:888,14.624,0.052,-0.779,-0.346,4.784,81.103,46.399
16:12:10:889,14.625,-0.063,-0.896,-0.295,3.406,82.509,44.032
16:12:10:89,14.625,-0.139,-0.574,-0.248,2.208,83.679,41.629
16:12:10:941,14.677,-0.140,-0.260,-0.255,0.324,87.102,30.922
16:12:10:942,14.678,-0.165,-0.063,-0.240,0.265,87.792,26.485
16:12:10:943,14.679,-0.177,0.041,-0.237,0.164,88.456,19.341
16:12:10:944,14.679,-0.142,0.103,-0.242,-0.322,89.123,14.430
16:12:10:966,14.701,-0.140,0.282,-0.171,-1.607,90.599,6.647
16:12:10:967,14.702,-0.090,0.546,-0.003,-2.864,92.008,1.131
16:12:10:968,14.703,-0.044,0.818,0.545,-4.946,94.337,-7.549
16:12:10:968,14.703,0.331,0.547,1.129,-6.185,95.235,-15.939
16:12:10:984,14.719,-0.183,0.183,1.080,-6.671,94.849,-20.730
16:12:11:04,14.775,-0.014,-0.292,1.682,-7.367,94.735,-26.459
16:12:11:041,14.776,0.362,-0.541,1.594,-8.048,94.358,-28.581
16:12:11:116,14.852,0.940,0.008,0.861,-8.530,94.391,-27.804
16:12:11:202,14.937,0.351,0.348,-0.575,-7.344,96.950,-25.013
16:12:11:203,14.938,-0.646,0.953,0.903,-7.069,99.421,-23.095
16:12:11:203,14.939,0.566,0.252,0.147,-7.061,101.689,-19.454
16:12:11:227,14.962,0.084,-0.102,0.293,-7.017,102.184,-17.622
16:12:11:228,14.963,-0.041,-0.033,0.054,-7.375,101.860,-16.187
16:12:11:228,14.963,0.003,-0.026,-0.052,-7.611,101.812,-15.227
16:12:11:276,15.011,-0.108,0.028,-0.091,-7.867,101.837,-14.507
16:12:11:277,15.012,-0.090,-0.005,0.009,-8.357,101.739,-13.044
16:12:11:299,15.034,-0.066,0.010,0.088,-8.581,101.398,-11.908
16:12:11:853,15.588,0.012,0.000,-0.011,-8.687,100.342,-10.562
16:12:11:938,15.674,-0.004,0.000,-0.067,-8.797,99.629,-9.725
16:12:11:939,15.675,-0.005,-0.008,-0.005,-8.938,98.738,-8.235
16:12:11:94,15.675,-0.033,-0.015,-0.002,-8.978,98.019,-6.563
16:12:11:941,15.676,-0.031,-0.005,-0.013,-8.964,97.669,-5.492
16:12:12:018,15.754,-0.040,-0.005,0.006,-8.936,97.300,-4.002
16:12:12:019,15.755,-0.031,-0.002,-0.027,-8.931,97.118,-3.084
16:12:12:02,15.755,-0.031,-0.005,-0.050,-8.959,96.890,-1.787
16:12:12:021,15.756,-0.077,-0.008,-0.067,-9.138,96.959,-0.595
16:12:12:07,15.805,-0.026,0.017,-0.012,-9.182,97.016,0.460
16:12:12:07,15.806,-0.005,0.044,-0.008,-9.246,96.852,2.172
16:12:12:071,15.807,-0.009,0.037,-0.061,-9.239,96.683,3.446
16:12:12:072,15.808,-0.020,0.083,-0.052,-9.250,96.496,5.472
16:12:12:197,15.932,-0.026,0.104,-0.090,-9.249,96.331,6.914
16:12:12:197,15.933,0.052,0.151,-0.126,-9.135,96.034,9.167
16:12:12:279,16.014,-0.008,0.188,-0.187,-8.973,95.744,11.528
16:12:12:28,16.015,-0.040,0.325,-0.248,-8.832,95.556,13.173
16:12:12:281,16.016,-0.053,0.287,-0.396,-8.393,94.920,16.036
16:12:12:282,16.017,-0.092,0.252,-0.580,-7.878,94.209,18.288
16:12:12:36,16.096,-0.140,0.224,-0.857,-6.954,92.603,22.097
16:12:12:361,16.096,-0.255,0.065,-0.996,-6.181,91.050,26.560
16:12:12:361,16.096,-0.086,0.519,-0.171,-6.194,90.611,30.167
16:12:12:361,16.097,-0.403,-0.652,-0.407,-0.159,82.036,45.961
16:12:12:384,16.120,-0.015,-1.026,-0.420,1.697,80.950,45.672
16:12:12:385,16.121,0.011,-0.915,-0.389,2.255,80.600,43.902
16:12:12:406,16.141,-0.022,-0.312,-0.309,-2.449,83.515,35.066
16:12:12:457,16.193,-0.002,-0.233,-0.324,-3.888,84.746,29.049
16:12:12:458,16.194,-0.012,-0.013,-0.328,-4.952,85.869,22.333
16:12:12:489,16.225,0.026,0.065,-0.201,-5.566,86.838,17.580
16:12:12:49,16.225,0.083,0.225,-0.114,-6.350,88.175,10.002
16:12:12:491,16.226,0.142,0.443,0.120,-6.766,89.181,4.618
16:12:12:492,16.227,0.175,0.493,0.370,-7.104,90.825,-3.685
16:12:12:569,16.304,0.148,0.522,0.811,-7.168,91.624,-11.820
16:12:12:569,16.304,0.163,0.412,1.249,-7.109,91.973,-16.760
16:12:12:57,16.305,0.094,0.015,1.381,-6.947,92.602,-22.773
16:12:12:571,16.306,0.136,-0.242,1.400,-6.862,93.260,-25.463
16:12:12:595,16.330,0.099,-0.464,1.506,-6.493,94.866,-27.007
16:12:12:595,16.330,-0.116,0.995,-1.198,-5.825,96.979,-25.594
16:12:12:596,16.331,0.375,0.072,0.079,-5.351,97.685,-24.605
16:12:12:597,16.332,-0.128,0.494,0.741,-5.483,99.456,-21.587
16:12:12:673,16.409,-0.512,0.202,0.867,-5.836,99.970,-20.011
16:12:12:674,16.409,0.190,-0.133,0.137,-5.934,100.199,-17.877
16:12:12:675,16.410,-0.031,-0.010,0.068,-6.085,100.121,-16.816
16:12:12:676,16.411,-0.018,-0.015,0.028,-6.515,99.815,-15.752
16:12:12:7,16.435,0.017,-0.004,0.068,-6.905,99.978,-15.009
16:12:12:7,16.436,-0.066,0.012,-0.064,-7.251,100.140,-14.602
16:12:12:701,16.437,-0.228,0.028,-0.083,-7.781,99.946,-13.596
16:12:12:702,16.438,-0.067,-0.003,0.034,-7.823,99.386,-12.642
16:12:12:719,16.454,0.027,0.022,-0.007,-7.774,98.105,-11.198
16:12:12:774,16.510,-0.022,0.005,-0.040,-7.852,96.602,-10.085
16:12:12:775,16.511,-0.072,-0.026,0.032,-7.877,95.841,-8.236
16:12:12:776,16.512,-0.046,-0.038,-0.074,-7.752,94.472,-6.322
16:12:12:795,16.531,-0.010,-0.020,0.004,-7.684,94.301,-5.038
16:12:12:882,16.617,0.009,0.004,0.049,-7.649,93.910,-3.144
16:12:12:882,16.617,-0.009,0.022,0.020,-7.701,94.002,-2.000
16:12:12:882,16.617,0.004,0.028,-0.003,-7.791,93.660,-0.429
16:12:12:9,16.636,-0.002,0.022,-0.037,-7.942,93.722,1.067
16:12:12:927,16.662,-0.010,0.016,-0.045,-8.011,93.444,2.133
16:12:13:011,16.746,-0.026,0.074,-0.038,-8.096,93.476,3.945
16:12:13:012,16.747,0.009,0.135,-0.115,-8.102,93.000,5.257
16:12:13:013,16.748,0.055,0.161,-0.150,-8.070,92.899,7.387
16:12:13:031,16.767,0.054,0.166,-0.163,-8.034,92.562,9.786
16:12:13:145,16.881,-0.101,0.227,-0.202,-7.937,92.626,11.624
16:12:13:146,16.882,-0.144,0.290,-0.404,-7.560,92.147,14.856
16:12:13:147,16.882,-0.086,0.285,-0.502,-7.221,91.594,17.343
16:12:13:148,16.883,-0.022,0.292,-0.926,-6.602,90.120,21.521
16:12:13:163,16.898,-0.216,0.153,-0.836,-6.115,88.884,24.720
16:12:13:218,16.954,-0.185,0.441,-0.390,-5.671,87.318,30.220
16:12:13:219,16.954,-0.194,0.363,-0.557,-5.204,86.036,36.175
16:12:13:242,16.977,-0.176,-0.125,-0.763,-4.290,85.139,39.708
16:12:13:268,17.003,-0.072,-0.747,-0.404,-2.941,83.998,43.977
16:12:13:352,17.088,-0.342,-0.506,-0.353,-1.389,83.608,45.531
16:12:13:353,17.089,-0.126,-0.958,-0.333,0.577,82.618,46.338
16:12:13:354,17.090,0.058,-0.753,-0.519,0.863,84.028,44.628
16:12:13:373,17.108,-0.100,-0.818,-0.422,-0.182,85.682,42.839
16:12:13:457,17.193,-0.211,-0.516,-0.339,-2.481,89.346,39.054
16:12:13:458,17.194,-0.182,-0.433,-0.296,-3.619,92.028,35.747
16:12:13:459,17.195,-0.250,-0.297,-0.301,-4.426,95.763,29.727
16:12:13:48,17.215,-0.266,-0.098,-0.254,-4.454,98.907,22.781
16:12:13:531,17.267,-0.309,0.032,-0.220,-4.258,100.718,17.787
16:12:13:671,17.406,-0.304,0.277,-0.062,-3.989,103.111,9.766
16:12:13:671,17.407,-0.244,0.495,0.223,-3.954,104.655,4.069
16:12:13:672,17.408,-0.081,0.640,0.461,-3.895,106.382,-4.835
16:12:13:692,17.427,0.029,0.548,1.154,-3.628,106.307,-18.823
16:12:13:693,17.428,0.127,-0.145,1.637,-3.582,106.348,-25.150
16:12:13:746,17.481,0.410,-0.356,1.589,-3.990,106.349,-27.827
16:12:13:747,17.482,0.717,-0.340,1.451,-4.659,106.879,-28.602
16:12:13:747,17.482,0.503,0.691,-1.086,-4.178,108.564,-26.603
16:12:13:796,17.532,0.219,0.272,0.585,-4.170,111.468,-23.465
16:12:13:796,17.532,-0.606,0.250,0.834,-4.861,112.826,-20.130
16:12:13:848,17.584,0.308,-0.259,0.148,-4.778,113.591,-18.249
16:12:13:849,17.584,0.148,-0.003,0.270,-4.684,114.461,-15.615
16:12:13:901,17.636,-0.056,-0.043,0.040,-4.625,113.830,-14.380
16:12:13:901,17.637,0.017,-0.009,0.001,-4.789,113.017,-12.892
16:12:14:011,17.747,0.038,0.027,0.019,-5.025,113.127,-12.042
16:12:14:012,17.747,0.003,-0.013,0.182,-5.539,113.953,-11.332
16:12:14:013,17.748,-0.077,0.007,-0.009,-5.942,113.646,-11.194
16:12:14:013,17.749,-0.096,0.034,-0.095,-6.156,113.049,-10.998
16:12:14:117,17.852,-0.152,-0.015,-0.157,-6.221,112.352,-9.814
16:12:14:118,17.853,0.013,0.009,0.078,-6.106,112.374,-8.471
16:12:14:119,17.854,0.012,0.017,0.040,-6.029,112.432,-6.563
16:12:14:119,17.854,-0.017,-0.005,-0.024,-5.923,112.387,-4.737
16:12:14:134,17.869,-0.061,-0.010,-0.037,-5.851,112.551,-3.468
16:12:14:222,17.957,0.021,0.008,0.071,-5.704,112.972,-1.591
16:12:14:222,17.958,0.039,0.003,0.086,-5.652,113.207,-0.534
16:12:14:223,17.958,-0.033,0.003,-0.001,-5.603,113.348,0.730
16:12:14:224,17.959,-0.051,0.033,-0.038,-5.510,113.444,1.529
16:12:14:425,18.160,-0.040,0.051,-0.036,-5.260,113.637,2.891
16:12:14:565,18.300,-0.080,0.111,-0.074,-4.905,113.681,4.474
16:12:14:565,18.300,-0.128,0.124,-0.080,-4.553,113.622,5.666
16:12:14:566,18.301,-0.018,0.202,-0.159,-3.927,113.454,7.741
16:12:14:567,18.302,-0.033,0.191,-0.218,-3.493,113.371,9.381
16:12:14:616,18.351,-0.155,0.272,-0.248,-2.813,113.408,12.232
16:12:14:616,18.352,-0.314,0.305,-0.379,-1.863,113.257,15.476
16:12:14:617,18.353,-0.376,0.349,-0.665,-1.050,112.872,17.911
16:12:14:618,18.353,-0.612,0.206,-0.804,0.463,111.892,21.963
16:12:14:826,18.561,-0.370,0.262,-0.182,1.367,111.324,25.177
16:12:14:826,18.562,-0.456,0.381,-0.222,2.725,110.882,30.838
16:12:14:827,18.562,-0.516,-0.038,-0.607,4.887,110.777,36.434
16:12:14:828,18.563,-0.472,-0.432,-0.553,6.050,111.274,39.521
16:12:14:85,18.585,-0.362,-0.828,-0.297,6.985,113.838,44.598
16:12:14:85,18.586,-0.387,-0.796,-0.328,5.560,117.815,44.462
16:12:14:877,18.612,-0.471,-0.786,-0.221,3.684,120.763,43.718
16:12:14:877,18.612,-0.535,-0.533,-0.027,0.873,125.550,41.338
16:12:14:878,18.613,-0.535,-0.373,-0.014,-0.639,130.316,37.437
16:12:14:932,18.667,-0.556,-0.318,0.046,-0.813,133.153,34.082
16:12:14:932,18.667,-0.482,-0.136,0.152,-0.203,136.727,28.225
16:12:14:932,18.667,-0.510,-0.055,0.105,0.367,138.475,23.831
16:12:14:933,18.668,-0.451,0.042,0.106,0.708,140.609,16.648
16:12:14:957,18.693,-0.350,0.196,0.165,0.349,142.847,8.787
16:12:14:958,18.693,-0.170,0.481,0.292,-0.197,144.566,3.106
16:12:14:958,18.694,0.340,0.745,0.608,-1.486,147.035,-5.967
16:12:14:959,18.695,0.798,0.726,0.687,-2.309,148.405,-12.027
16:12:14:977,18.713,1.520,0.356,0.734,-3.291,150.259,-20.242
16:12:14:978,18.713,1.347,-0.252,1.165,-3.447,151.197,-24.355
16:12:15:,18.735,1.723,-0.692,1.091,-2.691,154.938,-28.014
16:12:15:028,18.764,1.433,-0.274,0.088,-2.832,157.472,-27.895
16:12:15:053,18.789,-1.003,0.995,-1.324,-2.389,159.337,-25.945
16:12:15:079,18.814,0.941,0.331,-0.168,-2.117,162.394,-23.710
16:12:15:164,18.900,-0.114,0.124,0.935,-2.344,163.652,-21.748
16:12:15:164,18.900,0.341,0.454,1.273,-3.834,164.491,-19.517
16:12:15:165,18.901,0.315,-0.063,-0.090,-3.964,166.045,-17.532
16:12:15:185,18.920,0.039,0.037,0.038,-3.942,166.181,-16.536
16:12:15:211,18.947,-0.051,0.003,-0.028,-4.341,165.374,-15.585
16:12:15:267,19.003,0.010,0.013,-0.030,-4.571,165.125,-14.991
16:12:15:268,19.003,-0.027,0.002,0.118,-5.106,165.421,-13.888
16:12:15:289,19.024,-0.105,0.005,0.151,-5.528,164.939,-12.545
16:12:15:375,19.110,-0.021,0.010,-0.053,-5.514,164.105,-11.565
16:12:15:376,19.111,-0.012,0.016,-0.041,-5.506,162.847,-9.839
16:12:15:376,19.111,-0.031,-0.004,0.035,-5.531,162.315,-8.548
16:12:15:395,19.130,-0.087,0.001,0.038,-5.425,161.660,-6.569
16:12:15:478,19.214,-0.092,-0.019,0.019,-5.263,161.421,-5.196
16:12:15:479,19.215,-0.107,-0.069,0.052,-5.050,161.599,-3.150
16:12:15:48,19.216,0.010,0.011,0.040,-5.108,162.354,-1.345
16:12:15:499,19.235,0.055,0.047,-0.021,-5.166,162.900,-0.232
16:12:15:527,19.262,0.016,0.026,-0.027,-5.305,164.483,1.390
16:12:15:581,19.316,-0.042,0.042,-0.014,-5.387,164.953,2.431
16:12:15:582,19.317,-0.029,0.072,-0.044,-5.383,166.172,4.101
16:12:15:605,19.340,-0.114,0.137,-0.024,-5.251,166.316,6.081
16:12:15:745,19.480,-0.168,0.193,-0.051,-5.051,167.048,7.544
16:12:15:746,19.481,-0.195,0.263,-0.093,-4.627,167.117,10.029
16:12:15:746,19.482,-0.261,0.242,-0.120,-4.283,167.907,11.988
16:12:15:747,19.483,-0.500,0.342,0.019,-3.675,168.050,15.495
16:12:15:894,19.629,-1.026,0.375,0.043,-3.199,168.662,18.113
16:12:16:086,19.821,-0.987,0.295,0.092,-2.204,168.073,22.424
16:12:16:087,19.822,-0.361,0.347,0.085,-1.188,167.345,27.429
16:12:16:087,19.823,-0.555,0.314,0.211,-0.172,166.551,31.234
16:12:16:108,19.844,-0.400,-0.814,0.057,3.056,166.248,39.837
16:12:16:108,19.844,0.066,-0.504,0.212,4.124,167.195,43.251
16:12:16:165,19.901,-0.491,-0.811,-0.034,4.305,168.233,44.889
16:12:16:165,19.901,-0.454,-0.908,0.062,3.518,170.550,44.654
16:12:16:166,19.902,-0.411,-0.686,0.196,0.757,173.360,43.145
16:12:16:167,19.902,-0.320,-0.480,0.200,-1.150,176.146,41.217
16:12:16:192,19.927,-0.335,-0.369,0.199,-3.072,179.437,37.115
16:12:16:192,19.927,-0.262,-0.244,0.220,-3.675,-178.513,33.673
16:12:16:193,19.928,-0.281,-0.121,0.224,-3.756,-176.042,27.649
16:12:16:194,19.929,-0.262,0.008,0.219,-3.336,-174.293,20.892
16:12:16:244,19.979,-0.263,0.060,0.203,-3.258,-173.322,16.118
16:12:16:244,19.980,-0.188,0.238,0.191,-3.557,-171.762,8.536
16:12:16:245,19.981,-0.101,0.386,0.177,-4.076,-170.539,3.173
16:12:16:246,19.982,0.443,0.646,0.045,-5.021,-168.776,-5.213
16:12:16:263,19.998,0.905,0.565,-0.212,-5.530,-168.024,-13.557
16:12:16:264,19.999,1.002,0.511,-0.143,-5.890,-168.491,-18.759
16:12:16:287,20.022,1.297,0.107,0.020,-6.737,-169.689,-25.274
16:12:16:345,20.080,1.920,-0.719,-0.349,-7.333,-170.093,-28.641
16:12:16:345,20.081,1.344,0.059,-0.465,-8.138,-170.226,-30.221
16:12:16:346,20.082,-0.576,0.191,-0.078,-7.883,-169.213,-28.091
16:12:16:395,20.130,0.559,-0.135,-0.344,-7.313,-167.609,-26.927
16:12:16:395,20.131,0.575,0.231,-0.344,-7.108,-165.324,-24.213
16:12:16:447,20.182,0.619,0.273,0.675,-7.406,-164.644,-22.314
16:12:16:448,20.183,0.204,-0.189,-0.299,-7.161,-163.068,-19.824
16:12:16:47,20.206,0.222,-0.002,-0.109,-7.057,-162.578,-18.480
16:12:16:525,20.260,0.078,0.003,-0.039,-7.362,-162.677,-17.003
16:12:16:55,20.286,-0.007,-0.010,-0.029,-7.656,-162.661,-15.753
16:12:16:578,20.313,-0.016,0.004,0.029,-7.964,-162.547,-14.887
16:12:16:579,20.314,0.042,0.013,0.071,-8.417,-162.664,-13.330
16:12:16:601,20.337,0.030,-0.002,-0.011,-8.457,-163.160,-12.278
16:12:16:657,20.393,-0.061,-0.006,-0.017,-8.372,-164.258,-10.806
16:12:16:658,20.393,-0.058,-0.017,-0.002,-8.358,-165.063,-9.229
16:12:16:681,20.416,0.022,-0.006,0.022,-8.365,-165.320,-8.032
16:12:16:706,20.442,0.018,-0.001,0.012,-8.338,-165.797,-6.396
16:12:16:763,20.498,-0.005,-0.005,0.030,-8.333,-166.171,-3.868
16:12:16:787,20.522,-0.030,-0.003,0.045,-8.283,-166.048,-2.891
16:12:16:812,20.547,-0.070,0.006,0.054,-8.153,-165.840,-1.362
16:12:16:838,20.573,-0.037,0.042,0.060,-8.043,-165.498,0.272
16:12:16:893,20.628,-0.048,0.054,0.040,-7.918,-165.451,1.531
16:12:16:894,20.630,-0.058,0.056,0.011,-7.647,-165.233,3.702
16:12:16:918,20.653,-0.074,0.095,-0.020,-7.437,-165.324,5.263
16:12:17:03,20.766,-0.136,0.190,-0.069,-7.093,-165.505,7.681
16:12:17:031,20.766,-0.217,0.175,-0.046,-6.800,-165.517,10.360
16:12:17:031,20.767,-0.270,0.258,0.103,-6.571,-165.581,12.413
16:12:17:032,20.768,-0.421,0.365,0.176,-6.095,-165.834,16.096
16:12:17:048,20.784,-0.768,0.454,0.224,-5.680,-166.422,18.964
16:12:17:101,20.836,-1.222,0.226,0.408,-4.803,-168.149,23.603
16:12:17:129,20.864,-0.715,0.202,0.327,-3.992,-169.837,29.136
16:12:17:13,20.865,-0.413,0.452,0.300,-3.257,-170.925,33.088
16:12:17:234,20.970,-0.659,-0.097,0.338,-1.041,-172.075,38.709
16:12:17:267,21.002,-0.758,-0.586,0.290,0.524,-172.395,41.761
16:12:17:268,21.003,0.627,-0.642,0.117,2.348,-172.565,44.711
16:12:17:269,21.004,-0.285,-0.720,0.370,2.930,-172.195,45.755
16:12:17:269,21.004,-0.384,-0.930,0.037,2.705,-170.566,44.978
16:12:17:424,21.160,-0.324,-0.792,0.257,0.529,-167.402,42.699
16:12:17:425,21.161,-0.208,-0.592,0.301,-1.268,-164.792,40.421
16:12:17:426,21.161,-0.189,-0.360,0.301,-3.019,-160.625,35.854
16:12:17:427,21.162,-0.146,-0.277,0.300,-3.457,-157.985,32.147
16:12:17:476,21.211,-0.082,-0.145,0.344,-3.283,-154.603,25.867
16:12:17:477,21.212,0.038,0.070,0.327,-2.464,-152.130,18.955
16:12:17:478,21.213,0.020,0.103,0.330,-2.007,-150.943,14.096
16:12:17:478,21.214,0.026,0.184,0.278,-1.744,-149.378,6.420
16:12:17:525,21.260,0.236,0.467,0.165,-1.906,-148.080,1.065
16:12:17:525,21.260,0.529,0.616,-0.043,-2.467,-145.784,-7.320
16:12:17:546,21.282,0.699,0.651,-0.253,-2.873,-144.322,-12.980
16:12:17:632,21.368,0.932,0.474,-0.593,-3.452,-141.931,-20.926
16:12:17:632,21.368,1.306,0.007,-0.325,-3.565,-139.525,-26.929
16:12:17:633,21.368,1.641,-0.576,-1.040,-3.338,-137.420,-29.412
16:12:17:678,21.413,1.026,0.296,-0.907,-3.748,-135.457,-29.808
16:12:17:736,21.471,-0.666,0.440,-0.007,-3.440,-133.823,-27.682
16:12:17:737,21.472,0.166,-0.379,-0.928,-3.485,-131.461,-24.950
16:12:17:738,21.473,0.982,0.095,0.519,-4.515,-130.550,-21.732
16:12:17:757,21.492,-0.293,0.855,-0.081,-5.612,-128.906,-20.095
16:12:17:783,21.518,-0.052,-0.043,-0.224,-5.255,-127.571,-18.156
16:12:17:838,21.574,0.009,0.026,0.063,-5.295,-127.728,-17.143
16:12:17:839,21.574,-0.049,-0.012,0.079,-5.654,-128.519,-16.023
16:12:17:863,21.598,-0.100,0.012,0.030,-5.737,-128.704,-14.572
16:12:17:97,21.705,0.084,-0.010,0.005,-5.989,-128.262,-13.361
16:12:17:971,21.706,0.067,0.001,0.004,-6.100,-128.558,-11.693
16:12:17:998,21.733,-0.018,0.027,-0.095,-6.140,-129.128,-10.700
16:12:17:998,21.734,-0.048,-0.012,0.063,-6.145,-129.701,-8.940
16:12:18:213,21.948,0.028,-0.005,0.051,-6.065,-129.734,-7.031
16:12:18:213,21.948,-0.020,-0.017,0.020,-5.924,-129.777,-5.745
16:12:18:214,21.949,0.010,0.000,-0.014,-5.825,-129.417,-3.884
16:12:18:215,21.950,0.029,0.004,-0.018,-5.817,-129.010,-2.751
16:12:18:397,22.132,-0.009,0.014,0.001,-5.792,-128.290,-1.089
16:12:18:397,22.132,-0.029,0.049,-0.041,-5.776,-127.977,0.048
16:12:18:398,22.133,-0.040,0.054,-0.007,-5.714,-127.366,1.764
16:12:18:399,22.134,-0.040,0.097,0.080,-5.520,-127.120,3.634
16:12:18:442,22.177,-0.077,0.145,0.076,-5.304,-126.956,5.020
16:12:18:502,22.238,-0.147,0.177,0.078,-4.898,-126.950,7.400
16:12:18:503,22.238,-0.184,0.187,0.129,-4.590,-126.885,9.240
16:12:18:503,22.239,-0.130,0.253,0.273,-4.082,-126.804,12.379
16:12:18:504,22.240,-0.177,0.317,0.470,-3.233,-127.088,16.036
16:12:18:842,22.577,-0.466,0.353,0.655,-2.416,-127.799,18.811
16:12:18:843,22.578,-0.545,0.144,1.040,-0.970,-128.840,23.653
16:12:18:843,22.579,-0.349,0.194,0.981,-0.132,-129.216,27.479
16:12:18:844,22.580,-0.115,0.542,0.707,1.249,-129.549,33.920
16:12:18:866,22.601,-0.267,-0.147,0.696,2.747,-128.941,39.877
16:12:18:866,22.602,-0.305,-0.596,0.765,3.252,-128.331,42.898
16:12:18:867,22.603,0.132,-0.698,0.591,3.934,-126.251,45.764
16:12:18:944,22.679,-0.057,-1.000,0.432,3.623,-124.454,46.324
16:12:18:945,22.680,-0.032,-0.841,0.303,1.951,-120.247,45.318
16:12:18:945,22.680,0.184,-0.688,0.358,0.565,-117.554,43.930
16:12:19:184,22.919,0.236,-0.436,0.375,-0.924,-113.503,40.502
16:12:19:184,22.919,0.247,-0.359,0.447,-1.182,-109.736,35.765
16:12:19:185,22.920,0.286,-0.279,0.376,-0.808,-107.553,32.076
16:12:19:186,22.921,0.441,-0.008,0.292,0.106,-105.047,25.875
16:12:19:578,23.313,0.463,0.051,0.290,0.608,-103.787,21.384
16:12:19:579,23.314,0.411,0.104,0.273,0.537,-101.663,14.346
16:12:19:579,23.314,0.413,0.193,0.190,-0.549,-98.752,6.898
16:12:19:579,23.314,0.437,0.383,-0.061,-1.674,-96.419,1.551
16:12:19:605,23.341,0.438,0.714,-0.527,-3.723,-93.554,-7.040
16:12:19:605,23.341,-0.019,0.520,-1.396,-5.032,-92.302,-12.879
16:12:19:606,23.341,-0.299,0.236,-1.712,-7.048,-92.697,-20.670
16:12:19:607,23.342,0.255,-0.174,-1.380,-7.805,-92.896,-24.716
16:12:19:65,23.386,-0.028,-0.607,-2.177,-8.005,-90.961,-28.628
16:12:19:651,23.387,-0.803,-0.464,-1.773,-8.347,-89.676,-28.463
16:12:19:753,23.488,-1.116,1.021,1.494,-7.837,-88.329,-26.661
16:12:19:885,23.620,0.728,0.816,-0.346,-8.376,-86.655,-23.870
16:12:19:946,23.681,-0.218,0.525,-0.027,-8.854,-85.538,-22.050
16:12:19:946,23.681,-0.333,-0.123,-0.288,-8.495,-84.026,-19.465
16:12:19:946,23.681,0.010,-0.006,-0.006,-8.720,-84.254,-18.026
16:12:19:947,23.682,0.066,-0.006,0.071,-9.116,-84.533,-17.490
16:12:20:049,23.785,0.012,0.028,0.024,-9.489,-84.630,-16.343
16:12:20:05,23.786,0.009,-0.026,-0.027,-9.834,-84.448,-15.341
16:12:20:051,23.787,-0.062,0.008,0.062,-10.364,-86.518,-11.301
16:12:20:337,24.072,0.044,-0.005,-0.004,-10.448,-87.170,-8.202
16:12:20:337,24.072,-0.035,-0.003,-0.002,-10.439,-87.628,-6.406
16:12:20:337,24.073,0.011,0.263,0.224,-10.449,-94.700,12.927
16:12:20:42,24.155,-0.085,0.307,0.480,-10.023,-95.449,15.122
16:12:20:42,24.155,-0.176,0.296,0.592,-9.304,-97.792,18.890
16:12:20:42,24.156,-0.077,0.279,1.036,-8.512,-99.719,23.385
16:12:20:42,24.156,-0.036,0.160,0.644,-8.250,-101.101,26.919
16:12:20:461,24.197,0.052,0.559,0.384,-8.385,-102.282,32.785
16:12:20:542,24.277,0.067,0.129,0.730,-8.263,-103.131,36.703
16:12:20:543,24.278,0.012,-0.452,0.560,-7.585,-104.490,41.516
16:12:20:655,24.391,0.315,-0.775,-0.328,-6.497,-106.401,45.031
16:12:20:656,24.391,0.101,-0.671,0.463,-4.865,-107.592,46.088
16:12:20:656,24.391,-0.096,-0.855,0.317,-2.566,-107.789,43.576
16:12:20:656,24.392,0.010,-0.328,0.264,-4.351,-104.092,31.479
16:12:20:75,24.486,0.003,-0.156,0.246,-4.662,-102.741,24.896
16:12:20:812,24.547,-0.018,0.018,0.188,-4.717,-102.021,20.147
16:12:20:812,24.548,-0.036,0.111,0.109,-4.936,-100.915,12.669
16:12:20:813,24.549,-0.021,0.332,0.088,-5.459,-99.538,4.672
16:12:20:832,24.567,-0.124,0.629,-0.570,-6.684,-96.104,-9.192
16:12:20:833,24.568,-0.071,0.658,-0.814,-7.025,-95.732,-14.444
16:12:20:916,24.651,0.203,0.013,-1.560,-7.021,-95.357,-21.169
16:12:20:917,24.652,-0.030,-0.025,-0.107,-7.419,-92.708,-18.629
16:12:20:918,24.653,0.011,-0.023,0.017,-7.722,-93.099,-17.924
16:12:20:919,24.654,-0.012,0.001,-0.069,-8.130,-93.304,-16.954
16:12:21:047,24.782,0.025,0.012,0.032,-8.418,-93.259,-16.391
16:12:21:048,24.783,0.129,0.033,0.093,-9.004,-93.498,-15.395
16:12:21:049,24.784,0.053,0.014,-0.017,-9.255,-94.032,-14.464
16:12:21:049,24.784,-0.038,0.021,-0.033,-9.392,-95.128,-12.875
16:12:21:091,24.826,0.016,0.008,0.009,-9.547,-96.182,-11.206
16:12:21:328,25.063,0.029,0.001,0.000,-9.592,-96.793,-10.049
16:12:21:469,25.204,0.019,0.009,-0.013,-9.517,-97.677,-8.272
16:12:21:469,25.204,-0.001,-0.018,-0.026,-8.994,-99.020,-3.880
16:12:21:469,25.204,0.024,-0.011,0.025,-8.857,-99.215,-2.871
16:12:21:47,25.205,-0.007,-0.013,0.029,-8.660,-99.229,-1.287
16:12:21:519,25.254,-0.015,0.000,-0.013,-8.600,-99.179,-0.162
16:12:21:519,25.255,-0.121,0.160,0.065,-8.250,-98.668,5.681
16:12:21:519,25.255,-0.185,0.179,0.104,-8.199,-98.343,8.381
16:12:21:678,25.413,-0.096,0.188,0.169,-8.248,-98.080,10.236
16:12:21:678,25.414,0.101,0.342,0.286,-8.118,-97.832,13.352
16:12:21:678,25.414,0.050,0.359,0.453,-7.806,-98.105,15.745
16:12:21:679,25.415,-0.204,0.299,0.977,-6.979,-99.623,19.865
16:12:21:747,25.482,0.022,0.290,0.956,-6.200,-100.865,24.957
16:12:21:888,25.623,0.050,0.486,0.515,-6.099,-101.268,28.869
16:12:21:889,25.624,0.160,0.400,0.587,-6.036,-101.804,35.184
16:12:21:889,25.624,0.026,-0.421,0.734,-5.577,-102.141,39.026
16:12:21:889,25.625,-0.008,-0.663,0.636,-4.756,-102.574,43.443
16:12:21:913,25.649,0.194,-0.727,0.483,-3.294,-102.588,46.136
16:12:21:914,25.649,-0.054,-0.866,0.373,-2.518,-101.815,46.225
16:12:21:914,25.649,-0.013,-0.893,0.279,-2.684,-99.458,44.825
16:12:21:966,25.701,0.198,-0.634,0.312,-3.116,-97.488,43.019
16:12:21:967,25.702,0.228,-0.422,0.339,-3.832,-94.338,38.717
16:12:21:968,25.703,0.047,0.475,-1.463,-6.554,-80.951,-16.928
16:12:21:968,25.704,-0.222,-0.070,-1.195,-8.359,-81.594,-23.400
16:12:21:995,25.730,-0.285,-0.349,-1.549,-9.107,-81.773,-26.459
16:12:21:995,25.730,-0.497,-0.262,-1.749,-9.363,-80.284,-28.754
16:12:21:995,25.730,-0.883,0.578,0.841,-9.074,-79.077,-28.359
16:12:21:995,25.730,-0.786,-0.343,-1.125,-8.016,-76.508,-26.681
16:12:22:036,25.772,0.529,0.647,-0.732,-8.249,-75.233,-23.373
16:12:22:377,26.112,-0.070,0.330,-0.012,-8.467,-74.201,-21.834
16:12:22:597,26.332,-0.038,-0.012,-0.024,-8.043,-72.973,-18.276
16:12:22:597,26.332,-0.017,-0.044,-0.021,-8.351,-73.440,-17.164
16:12:22:597,26.333,-0.051,-0.003,-0.035,-8.722,-73.128,-16.241
16:12:22:598,26.334,0.032,0.010,-0.019,-9.146,-72.600,-15.711
16:12:22:624,26.359,0.042,-0.016,-0.022,-9.708,-74.996,-10.525
16:12:22:625,26.360,0.029,-0.014,-0.071,-9.642,-75.334,-9.294
16:12:22:625,26.360,0.014,0.007,-0.020,-9.450,-75.966,-7.508
16:12:22:626,26.361,0.039,-0.030,-0.015,-9.340,-76.188,-6.395
16:12:22:886,26.621,-0.028,0.001,-0.032,-9.208,-76.002,-4.919
16:12:22:887,26.622,-0.014,0.027,-0.034,-9.201,-75.649,-4.078
16:12:22:888,26.623,0.022,0.004,-0.019,-9.229,-75.044,-2.829
16:12:22:889,26.624,0.024,0.022,0.019,-9.219,-75.371,-1.519
16:12:22:937,26.672,0.061,0.021,0.029,-9.201,-75.238,-0.562
16:12:22:937,26.672,0.057,0.039,-0.006,-9.044,-75.957,1.151
16:12:22:938,26.673,0.036,0.044,-0.021,-8.853,-75.983,2.463
16:12:22:939,26.674,-0.005,0.102,0.026,-8.492,-77.049,4.544
16:12:23:068,26.803,-0.063,0.201,0.106,-8.237,-77.317,5.969
16:12:23:069,26.804,-0.056,0.187,0.138,-7.796,-78.500,8.112
16:12:23:07,26.805,0.067,0.286,0.198,-7.403,-79.340,10.436
16:12:23:071,26.806,0.045,0.307,0.336,-7.126,-79.473,12.188
16:12:23:165,26.901,0.102,0.306,0.480,-6.552,-80.548,15.338
16:12:23:297,27.032,-0.066,-0.814,0.394,3.365,-94.634,42.829
16:12:23:384,27.119,0.127,-0.242,0.287,-2.923,-90.805,28.873
16:12:23:385,27.120,0.088,0.037,0.153,-3.858,-90.070,22.305
16:12:23:386,27.121,0.082,0.126,0.155,-4.323,-90.219,15.198
16:12:23:386,27.121,0.041,0.248,0.212,-4.757,-90.645,10.252
16:12:23:402,27.137,-0.043,0.427,0.145,-5.905,-91.033,2.528
16:12:23:428,27.164,-0.191,0.584,-0.068,-7.015,-90.723,-2.798
16:12:23:488,27.224,-0.463,0.806,-0.679,-9.179,-90.176,-10.915
16:12:23:489,27.224,-0.129,0.422,-0.905,-10.444,-90.902,-18.246
16:12:23:49,27.225,0.017,-0.530,-1.149,-11.054,-86.080,-30.019
16:12:23:612,27.347,-0.616,0.020,-0.330,-8.705,-80.762,-25.589
16:12:23:795,27.531,0.291,0.147,-0.664,-9.012,-79.432,-22.671
16:12:23:827,27.562,-0.137,-0.074,-0.280,-9.055,-79.231,-21.093
16:12:23:828,27.563,0.113,-0.037,-0.120,-9.396,-79.785,-19.359
16:12:23:829,27.564,0.020,-0.005,-0.008,-9.668,-80.224,-18.700
16:12:23:936,27.672,0.013,0.015,-0.030,-9.924,-80.675,-17.668
16:12:23:937,27.672,0.036,-0.014,-0.004,-10.136,-81.262,-16.438
16:12:23:938,27.673,0.075,-0.005,-0.092,-10.250,-81.685,-15.530
16:12:23:939,27.674,-0.022,-0.001,-0.046,-10.260,-82.541,-14.302
16:12:24:221,27.957,0.011,-0.001,-0.019,-10.278,-83.053,-13.557
16:12:24:222,27.957,0.023,0.006,-0.008,-9.907,-85.245,-8.560
16:12:24:223,27.958,-0.011,0.013,-0.038,-9.398,-86.028,-3.308
16:12:24:25,27.986,-0.038,0.041,-0.013,-9.236,-86.365,-1.566
16:12:24:251,27.986,0.003,0.057,0.002,-9.108,-85.487,-0.332
16:12:24:252,27.987,-0.015,0.094,0.046,-8.895,-85.963,1.639
16:12:24:253,27.988,-0.064,0.124,0.080,-8.693,-85.091,3.049
16:12:24:54,28.275,-0.080,0.172,0.129,-8.312,-85.405,5.346
16:12:24:541,28.276,0.023,0.223,0.138,-7.834,-84.283,7.942
16:12:24:541,28.277,0.058,0.236,0.194,-7.494,-84.392,9.874
16:12:24:542,28.278,0.048,0.283,0.406,-6.897,-84.068,13.094
16:12:24:846,28.581,-0.033,0.314,0.617,-6.377,-84.847,15.489
16:12:25:029,28.764,0.285,0.320,1.001,-5.440,-85.324,19.774
16:12:25:664,29.399,0.264,0.162,0.590,-3.773,-85.755,34.755
16:12:25:665,29.400,0.130,-0.740,0.321,-1.588,-79.948,43.663
16:12:25:666,29.401,0.359,-0.706,0.242,-1.429,-76.219,42.237
16:12:26:184,29.919,0.343,-0.568,0.206,-1.499,-73.257,40.639
16:12:26:298,30.033,0.368,-0.453,0.234,-1.450,-67.761,37.043
16:12:26:299,30.034,0.520,-0.412,0.205,-0.821,-64.193,34.135
16:12:26:299,30.035,0.633,-0.040,-0.092,0.213,-59.014,29.054
16:12:26:3,30.036,0.707,0.112,-0.226,1.295,-53.982,23.230
16:12:26:482,30.217,0.726,0.161,-0.323,1.831,-50.673,19.095
16:12:26:482,30.218,-0.899,-0.266,-1.011,-3.932,-34.133,-23.888
16:12:26:482,30.218,-1.474,-0.543,-0.599,-3.949,-31.944,-25.212
16:12:26:483,30.219,-1.600,-0.032,0.285,-3.373,-27.712,-24.040
16:12:26:508,30.243,-1.274,-0.386,-1.015,-3.099,-23.027,-21.314
16:12:26:508,30.244,-0.914,0.687,-0.870,-3.800,-21.703,-19.634
16:12:26:509,30.245,-0.209,-0.186,0.087,-3.781,-20.102,-17.906
16:12:26:51,30.245,-0.076,-0.101,-0.142,-3.984,-19.168,-16.961
16:12:26:638,30.374,0.099,0.021,0.040,-5.638,-20.882,-10.800
16:12:26:639,30.375,0.093,-0.015,-0.016,-5.619,-21.053,-9.281
16:12:26:64,30.376,0.063,-0.043,-0.032,-5.564,-21.030,-8.086
16:12:26:743,30.479,0.420,0.248,0.083,-2.161,-19.915,14.162
16:12:26:744,30.479,0.221,-0.698,0.042,5.704,-24.957,39.129
16:12:26:745,30.480,-0.360,0.100,0.377,-3.800,2.824,-20.667
16:12:26:746,30.481,-0.708,0.118,-0.883,-4.420,3.881,-18.365
16:12:26:822,30.557,-0.017,-0.001,0.013,-4.850,4.972,-13.869
16:12:26:823,30.558,0.398,0.326,-0.128,-4.220,10.961,15.160
16:12:26:824,30.559,0.651,0.397,-0.304,-3.646,10.504,18.825
16:12:26:824,30.560,0.821,0.261,-0.388,-3.233,9.887,21.380
16:12:26:927,30.663,0.599,-0.024,-0.284,-2.501,7.890,25.817
16:12:26:928,30.663,0.434,0.225,-0.371,-1.763,6.333,29.216
16:12:26:929,30.664,0.325,-0.880,-0.103,3.891,2.035,40.978
16:12:26:956,30.691,0.350,-0.894,0.075,5.754,1.187,42.260
16:12:26:956,30.692,0.447,-0.804,-0.125,4.015,2.376,40.651
16:12:26:956,30.692,0.306,-0.500,-0.090,2.204,3.706,38.696
16:12:26:957,30.693,0.320,-0.391,-0.108,0.059,5.875,34.656
16:12:26:98,30.715,0.266,-0.185,-0.103,-0.826,6.988,31.384
16:12:26:98,30.716,0.218,-0.096,-0.102,-1.221,7.810,25.753
16:12:26:981,30.717,0.227,-0.024,-0.109,-0.935,7.470,19.583
16:12:27:033,30.768,0.261,0.125,0.011,-1.647,6.845,8.609
16:12:27:034,30.769,0.141,0.328,0.106,-2.994,7.875,1.559
16:12:27:034,30.770,-0.040,0.589,0.101,-3.999,9.147,-3.373
16:12:27:035,30.771,-0.540,0.640,0.102,-4.991,11.222,-10.812
16:12:27:084,30.820,-1.060,0.424,0.147,-5.196,12.828,-15.426
16:12:27:085,30.821,-1.367,0.127,0.311,-5.287,15.443,-21.245
16:12:27:086,30.821,-1.560,-0.264,0.409,-5.131,17.163,-24.036
16:12:27:087,30.822,-1.736,-0.449,0.602,-4.766,20.024,-25.689
16:12:27:139,30.874,1.588,1.019,0.251,-4.517,22.451,-23.290
16:12:27:14,30.875,-0.973,0.375,-0.185,-4.822,23.359,-21.561
16:12:27:14,30.875,0.177,0.321,-0.053,-5.177,23.844,-18.941
16:12:27:141,30.876,-0.188,-0.093,0.088,-5.469,24.056,-17.192
16:12:27:19,30.925,-0.080,0.011,-0.023,-5.749,23.692,-16.334
16:12:27:19,30.925,0.053,-0.018,-0.046,-6.332,23.008,-15.307
16:12:27:191,30.926,0.014,0.019,-0.012,-6.591,22.914,-14.535
16:12:27:192,30.927,-0.125,0.018,-0.055,-7.048,23.194,-13.303
16:12:27:294,31.030,0.002,0.023,-0.112,-7.221,22.773,-12.466
16:12:27:296,31.031,0.050,0.031,-0.056,-7.269,21.715,-11.068
16:12:27:296,31.032,-0.028,0.017,0.009,-7.183,20.846,-9.499
16:12:27:297,31.032,0.008,0.000,-0.027,-7.125,20.217,-8.461
16:12:27:452,31.187,-0.004,0.005,-0.031,-6.968,19.394,-6.981
16:12:27:453,31.188,-0.002,-0.029,-0.058,-6.838,18.972,-6.026
16:12:27:454,31.189,0.046,-0.034,-0.167,-6.617,19.091,-4.620
16:12:27:455,31.190,-0.002,-0.038,-0.024,-6.416,19.086,-3.647
16:12:27:505,31.241,0.020,-0.005,0.060,-6.136,20.127,-2.043
16:12:27:506,31.241,0.056,0.045,0.072,-6.037,21.094,-0.408
16:12:27:507,31.242,0.009,0.041,0.044,-6.037,21.375,0.724
16:12:27:507,31.243,0.019,0.049,-0.013,-6.014,22.356,2.453
16:12:27:554,31.289,0.065,0.100,-0.057,-5.858,22.537,3.700
16:12:27:554,31.290,0.102,0.152,-0.034,-5.429,23.223,5.747
16:12:27:575,31.311,0.137,0.181,-0.003,-4.949,23.237,8.024
16:12:27:605,31.340,0.184,0.186,-0.088,-4.617,23.692,9.705
16:12:27:605,31.340,0.206,0.215,-0.190,-3.924,23.439,12.541
16:12:27:681,31.416,0.365,0.290,-0.274,-3.249,23.315,14.681
16:12:27:711,31.447,0.727,0.281,-0.273,-1.975,22.127,18.312
16:12:27:712,31.448,0.770,0.156,-0.578,-0.651,21.384,22.668
16:12:27:713,31.448,0.359,0.231,-0.296,-0.165,21.307,26.161
16:12:27:732,31.467,0.222,0.394,-0.391,0.437,21.524,31.861
16:12:27:759,31.495,0.455,-0.021,-0.495,1.158,21.763,35.519
16:12:27:868,31.603,0.200,-0.378,-0.374,2.018,22.703,39.982
16:12:27:868,31.604,-0.239,-0.830,-0.242,3.108,23.633,42.956
16:12:28:031,31.766,0.337,-0.820,-0.428,3.651,25.055,43.979
16:12:28:032,31.767,0.295,-0.693,-0.296,3.198,28.514,43.656
16:12:28:033,31.768,0.162,-0.646,-0.407,2.371,31.372,42.883
16:12:28:108,31.843,0.012,-0.268,-0.554,0.091,39.525,38.385
16:12:28:109,31.844,-0.065,-0.278,-0.493,-0.246,44.511,34.164
16:12:28:11,31.845,-0.186,-0.105,-0.543,-0.027,48.977,29.074
16:12:28:681,32.417,-0.333,0.079,-0.503,0.185,55.807,19.337
16:12:28:682,32.418,-0.377,0.107,-0.426,0.055,58.338,15.038
16:12:28:791,32.526,-0.372,0.193,-0.361,-0.428,61.896,8.132
16:12:28:792,32.527,-0.487,0.455,0.035,-1.238,65.047,0.731
16:12:28:793,32.528,-0.522,0.544,0.216,-1.914,66.790,-4.409
16:12:28:869,32.604,-0.810,0.253,0.916,-3.329,69.251,-17.010
16:12:28:869,32.604,-0.944,0.040,1.294,-3.452,71.079,-22.327
16:12:28:869,32.604,-0.474,-0.345,1.408,-3.300,73.143,-24.725
16:12:28:924,32.659,-0.222,-0.377,1.535,-3.477,75.940,-26.029
16:12:28:924,32.660,0.476,0.586,-0.592,-3.151,79.412,-23.824
16:12:28:925,32.660,0.348,-0.302,0.856,-3.217,80.818,-22.641
16:12:28:926,32.661,-0.476,0.278,0.209,-3.925,81.984,-20.063
16:12:29:081,32.816,-0.122,0.655,0.047,-4.756,82.747,-18.932
16:12:29:082,32.817,0.036,-0.113,0.267,-4.842,83.570,-17.494
16:12:29:082,32.818,0.004,-0.010,-0.076,-5.184,83.446,-16.374
16:12:29:083,32.819,0.003,-0.010,-0.178,-5.519,83.453,-15.737
16:12:29:315,33.051,0.003,0.009,-0.038,-5.867,84.214,-14.707
16:12:29:316,33.052,-0.240,0.029,0.015,-6.245,84.722,-13.816
16:12:29:317,33.053,-0.018,-0.004,0.009,-6.298,84.353,-12.315
16:12:29:318,33.053,0.079,0.014,-0.055,-6.235,83.521,-10.769
16:12:29:341,33.076,0.009,-0.002,-0.070,-6.245,83.124,-9.636
16:12:29:341,33.076,0.041,0.029,0.059,-6.134,84.978,-2.128
16:12:29:341,33.076,0.007,0.035,0.005,-6.252,85.844,-0.755
16:12:29:448,33.184,-0.008,0.081,-0.024,-6.102,86.660,2.753
16:12:29:449,33.184,-0.001,0.101,-0.081,-5.757,86.632,4.507
16:12:29:449,33.185,0.019,0.166,-0.101,-5.282,86.444,6.454
16:12:29:45,33.186,0.026,0.183,-0.121,-4.894,86.275,7.854
16:12:29:553,33.288,0.002,0.213,-0.177,-4.256,85.985,10.138
16:12:29:553,33.289,-0.076,0.260,-0.233,-3.723,85.681,11.776
16:12:29:554,33.289,0.009,0.194,-0.392,-2.647,84.908,14.441
16:12:29:599,33.334,-0.081,0.181,-0.802,-0.599,83.781,19.943
16:12:29:599,33.334,-0.240,0.126,-0.626,0.379,83.463,24.267
16:12:29:632,33.367,-0.291,0.334,-0.488,1.024,83.066,27.681
16:12:29:633,33.368,-0.382,0.245,-0.531,2.459,82.689,33.159
16:12:29:633,33.369,-0.240,-0.049,-0.538,3.355,82.597,36.498
16:12:29:634,33.370,0.012,-0.657,-0.335,4.555,82.141,40.254
16:12:29:658,33.393,-0.191,-0.690,-0.480,5.890,82.059,42.591
16:12:29:658,33.394,-0.183,-0.134,-0.190,-2.748,94.535,29.572
16:12:29:659,33.394,-0.202,-0.067,-0.206,-2.683,95.756,23.455
16:12:29:66,33.396,-0.163,0.003,-0.256,-2.686,96.232,16.706
16:12:29:736,33.471,-0.118,0.097,-0.231,-3.056,96.502,11.921
16:12:29:737,33.472,-0.029,0.340,-0.054,-4.311,97.185,4.246
16:12:29:738,33.473,0.019,0.626,0.129,-5.534,97.668,-1.185
16:12:29:738,33.473,0.211,0.690,0.726,-7.132,98.519,-9.408
16:12:29:788,33.523,0.260,0.517,1.086,-7.887,98.743,-14.636
16:12:29:789,33.524,0.302,0.236,1.054,-8.968,98.667,-21.373
16:12:29:79,33.525,0.427,-0.257,1.551,-9.648,99.259,-26.221
16:12:29:791,33.526,0.605,-0.398,1.596,-10.097,99.730,-27.883
16:12:29:867,33.603,0.225,0.238,-0.061,-9.725,101.585,-27.027
16:12:29:868,33.603,0.566,-0.359,0.681,-9.236,103.251,-25.222
16:12:29:869,33.604,-0.660,0.511,0.778,-9.001,105.690,-22.265
16:12:29:889,33.625,0.311,-0.103,0.352,-8.808,107.806,-17.494
16:12:29:89,33.625,-0.043,-0.024,0.020,-9.086,107.094,-15.434
16:12:29:946,33.682,0.041,-0.010,0.000,-9.340,106.547,-14.354
16:12:29:947,33.683,0.031,0.005,-0.016,-9.657,106.243,-12.698
16:12:29:948,33.683,-0.051,0.006,0.057,-10.048,106.312,-11.207
16:12:29:949,33.684,-0.113,0.010,0.009,-10.183,105.930,-10.162
16:12:29:972,33.708,0.005,0.007,-0.045,-10.275,105.208,-8.590
16:12:29:973,33.708,0.001,0.019,-0.009,-10.380,104.919,-7.528
16:12:29:973,33.708,-0.009,0.015,-0.020,-10.538,103.860,-5.791
16:12:29:974,33.709,0.014,0.002,-0.009,-10.585,103.821,-4.515
16:12:30:048,33.783,0.004,0.020,0.010,-10.705,102.999,-2.678
16:12:30:048,33.783,-0.009,0.014,0.016,-10.789,102.934,-0.929
16:12:30:049,33.784,0.023,0.015,0.024,-10.806,102.042,0.176
16:12:30:068,33.803,-0.012,0.017,0.018,-10.896,102.044,1.594
16:12:30:154,33.889,-0.026,0.017,-0.002,-10.975,101.358,2.727
16:12:30:154,33.889,-0.001,0.026,-0.024,-10.974,101.351,3.455
16:12:30:154,33.889,-0.021,0.046,-0.051,-10.934,100.548,4.564
16:12:30:174,33.909,-0.028,0.057,-0.072,-10.905,100.434,5.359
16:12:30:257,33.993,-0.011,0.096,-0.095,-10.768,99.672,7.000
16:12:30:258,33.993,0.054,0.159,-0.166,-10.644,99.383,8.299
16:12:30:259,33.994,0.055,0.169,-0.209,-10.439,98.458,10.575
16:12:30:278,34.013,0.015,0.197,-0.263,-10.387,97.653,13.273
16:12:30:363,34.098,-0.111,0.318,-0.372,-10.418,97.473,15.333
16:12:30:363,34.098,-0.138,0.307,-0.469,-10.316,96.547,18.819
16:12:30:384,34.119,-0.198,0.126,-0.936,-9.290,92.812,25.929
16:12:30:436,34.171,-0.144,0.486,-0.392,-8.623,90.401,31.396
16:12:30:628,34.363,-0.176,0.503,-0.419,-8.256,88.976,35.204
16:12:30:628,34.363,-0.083,-0.256,-0.789,-6.796,86.769,40.518
16:12:30:629,34.364,-0.125,-0.574,-0.431,-5.422,85.110,43.503
16:12:30:7,34.435,-0.395,-0.583,-0.361,-2.553,82.767,45.869
16:12:30:733,34.469,0.211,-0.842,-0.362,0.394,80.043,45.719
16:12:30:734,34.470,0.179,-0.995,-0.360,1.286,79.892,44.363
16:12:30:735,34.470,0.055,-0.685,-0.316,0.175,80.746,41.666
16:12:30:865,34.600,0.060,-0.388,-0.296,-3.124,83.860,34.025
16:12:30:865,34.601,0.005,-0.203,-0.257,-4.064,85.085,30.040
16:12:30:866,34.602,0.019,-0.051,-0.284,-4.882,86.384,23.340
16:12:30:867,34.602,0.006,0.226,-0.239,-5.226,86.626,16.133
16:12:30:944,34.679,0.046,0.386,-0.170,-5.682,86.698,11.167
16:12:30:944,34.679,0.129,0.505,0.098,-6.441,87.603,3.361
16:12:30:945,34.681,0.084,0.553,0.218,-6.726,88.406,-1.979
16:12:30:946,34.681,-0.070,0.574,0.511,-6.630,89.283,-9.940
16:12:30:97,34.705,-0.241,0.614,0.820,-6.233,89.530,-17.481
16:12:30:971,34.706,-0.070,0.055,1.264,-6.262,89.302,-21.924
16:12:30:971,34.706,0.127,-0.111,1.167,-7.082,88.714,-27.020
16:12:30:973,34.708,0.091,-0.315,1.226,-7.666,88.726,-29.166
16:12:31:022,34.757,0.130,-0.509,1.453,-7.481,90.603,-29.727
16:12:31:022,34.758,0.487,0.935,-1.233,-6.762,93.037,-28.162
16:12:31:023,34.758,0.286,-0.168,0.770,-5.773,96.911,-26.260
16:12:31:024,34.759,0.255,-0.021,0.271,-5.734,99.848,-23.411
16:12:31:068,34.804,-0.351,0.275,0.295,-6.549,100.148,-21.504
16:12:31:069,34.804,0.441,-0.164,0.294,-6.487,101.052,-19.041
16:12:31:25,34.985,-0.048,0.000,0.162,-6.357,101.193,-17.383
16:12:31:285,35.020,-0.034,-0.022,-0.009,-6.816,100.362,-15.480
16:12:31:286,35.021,0.017,-0.013,-0.016,-7.349,100.089,-13.760
16:12:31:287,35.022,-0.055,0.002,0.085,-7.662,100.402,-12.624
16:12:31:287,35.022,0.056,-0.011,0.070,-8.084,100.251,-11.116
16:12:31:306,35.042,0.050,0.017,0.008,-8.288,99.815,-10.188
16:12:31:307,35.043,-0.007,0.015,0.024,-8.662,99.269,-8.837
16:12:31:39,35.126,0.005,0.016,0.007,-9.022,98.730,-7.343
16:12:31:391,35.127,-0.004,0.002,0.013,-9.155,98.318,-6.314
16:12:31:392,35.128,-0.010,-0.012,0.026,-9.237,97.993,-4.752
16:12:31:393,35.128,-0.010,-0.002,0.002,-9.264,97.940,-3.751
16:12:31:439,35.174,0.008,0.014,-0.022,-9.275,97.890,-2.365
16:12:31:439,35.174,0.009,0.039,-0.005,-9.328,97.992,-1.464
16:12:31:44,35.175,-0.009,0.060,-0.013,-9.450,98.654,-0.074
16:12:31:489,35.224,0.000,0.046,-0.031,-9.508,98.699,1.358
16:12:31:489,35.224,0.033,0.031,-0.031,-9.484,98.765,2.365
16:12:31:569,35.305,0.006,0.059,-0.019,-9.433,98.566,4.094
16:12:31:57,35.306,-0.054,0.096,-0.063,-9.397,98.853,5.319
16:12:31:571,35.307,0.025,0.109,-0.087,-9.306,98.408,7.258
16:12:31:591,35.326,0.029,0.108,-0.122,-9.148,98.224,9.327
16:12:31:67,35.405,-0.003,0.134,-0.156,-9.079,97.862,10.807
16:12:31:994,35.729,-0.075,0.188,-0.240,-8.911,97.691,13.318
16:12:31:994,35.730,-0.094,0.179,-0.386,-8.582,97.253,15.244
16:12:31:995,35.730,-0.079,0.267,-0.440,-8.097,96.577,18.448
16:12:31:996,35.731,-0.193,0.242,-0.723,-7.652,95.574,20.873
16:12:32:098,35.834,-0.176,0.124,-0.550,-6.633,93.078,24.969
16:12:32:099,35.835,-0.004,0.338,-0.237,-6.214,90.993,30.030
16:12:32:1,35.836,-0.198,0.214,-0.491,-5.694,89.669,33.439
16:12:32:117,35.852,-0.027,-0.661,0.030,-2.758,85.958,40.684
16:12:32:204,35.940,-0.084,-0.668,-0.481,-0.321,84.024,42.578
16:12:32:205,35.940,0.157,-0.697,-0.458,1.934,83.205,42.290
16:12:32:206,35.941,0.022,-0.822,-0.403,2.252,83.576,41.371
16:12:32:207,35.943,-0.039,-0.469,-0.322,1.535,84.978,39.131
16:12:32:335,36.071,-0.048,-0.439,-0.279,0.468,86.405,36.930
16:12:32:336,36.071,-0.105,-0.245,-0.231,-0.971,88.624,32.913
16:12:32:337,36.072,-0.173,-0.115,-0.230,-1.869,90.485,27.960
16:12:32:337,36.073,-0.179,-0.066,-0.165,-2.283,91.513,24.376
16:12:32:358,36.093,-0.126,-0.079,-0.174,-3.006,92.965,18.593
16:12:32:358,36.094,-0.089,-0.055,-0.176,-3.690,94.034,14.420
16:12:32:359,36.095,-0.061,0.056,-0.147,-4.924,95.957,7.627
16:12:32:408,36.144,-0.001,0.303,-0.102,-5.872,97.508,2.728
16:12:32:409,36.144,0.101,0.532,0.183,-7.066,99.901,-5.137
16:12:32:519,36.255,0.214,0.585,0.646,-7.277,101.405,-13.092
16:12:32:52,36.255,0.072,0.616,0.986,-6.950,102.507,-18.077
16:12:32:521,36.256,0.023,0.078,1.264,-6.801,103.072,-24.749
16:12:32:521,36.257,0.312,-0.318,1.521,-7.530,102.361,-28.174
16:12:32:593,36.328,0.268,-0.601,1.576,-9.000,101.117,-30.303
16:12:32:593,36.328,0.415,-0.287,0.285,-8.861,101.586,-28.275
16:12:32:616,36.351,0.482,0.791,-1.504,-8.432,102.720,-26.515
16:12:32:694,36.430,0.427,0.289,0.582,-7.614,106.108,-24.251
16:12:32:776,36.511,-0.470,0.375,0.985,-7.835,107.014,-22.169
16:12:32:777,36.512,0.546,-0.190,0.415,-7.880,108.338,-19.617
16:12:32:809,36.544,0.023,-0.026,0.186,-7.890,108.409,-18.414
16:12:32:809,36.545,-0.020,-0.005,0.033,-8.359,108.005,-17.395
16:12:32:81,36.546,-0.039,0.016,-0.129,-8.801,108.217,-16.421
16:12:32:88,36.615,-0.118,0.017,0.101,-9.559,107.633,-13.641
16:12:32:881,36.616,0.067,0.003,0.040,-9.587,107.096,-12.547
16:12:32:961,36.696,0.026,0.001,-0.074,-9.760,105.418,-11.064
16:12:32:961,36.696,-0.016,-0.011,0.003,-9.931,104.685,-9.272
16:12:32:991,36.727,0.008,-0.005,0.033,-9.982,103.477,-7.994
16:12:32:992,36.728,-0.001,-0.007,-0.036,-9.993,102.695,-6.047
16:12:32:993,36.729,-0.017,-0.010,0.014,-10.019,101.946,-4.790
16:12:32:994,36.729,-0.045,0.000,0.016,-10.127,101.979,-3.142
16:12:33:009,36.745,0.034,0.014,-0.001,-10.168,101.531,-2.122
16:12:33:099,36.834,0.025,0.027,-0.011,-10.273,101.792,-0.577
16:12:33:099,36.834,-0.004,0.032,0.009,-10.457,101.527,0.981
16:12:33:099,36.835,-0.013,0.033,-0.001,-10.559,101.588,2.014
16:12:33:1,36.836,-0.012,0.048,-0.023,-10.578,101.249,3.610
16:12:33:117,36.852,0.003,0.093,-0.045,-10.536,101.158,4.710
16:12:33:118,36.853,0.034,0.086,-0.069,-10.448,100.375,6.454
16:12:33:172,36.908,0.049,0.062,-0.114,-10.378,99.908,8.376
16:12:33:173,36.909,0.000,0.103,-0.143,-10.350,99.393,9.819
16:12:33:174,36.910,-0.087,0.241,-0.207,-10.234,99.059,12.299
16:12:33:245,36.981,-0.020,0.316,-0.342,-10.111,98.138,14.236
16:12:33:28,37.015,-0.027,0.295,-0.479,-9.771,97.220,17.638
16:12:33:281,37.016,-0.097,0.359,-0.788,-9.157,95.281,21.476
16:12:33:282,37.017,-0.169,0.095,-0.914,-8.381,93.409,24.431
16:12:33:283,37.018,-0.079,0.271,-0.347,-7.762,91.144,29.619
16:12:33:331,37.066,-0.010,0.471,-0.251,-7.459,89.806,33.363
16:12:33:331,37.066,-0.234,0.025,-0.710,-6.188,87.861,38.545
16:12:33:331,37.067,-0.033,-0.442,-0.791,-5.133,86.854,41.342
16:12:33:412,37.147,-0.143,-0.701,-0.150,-4.121,85.874,44.917
16:12:33:413,37.148,-0.173,-0.711,-0.469,-2.287,85.073,46.110
16:12:33:413,37.148,0.035,-0.826,-0.611,-1.271,85.848,45.192
16:12:33:414,37.149,-0.084,-0.809,-0.460,-1.735,88.182,42.966
16:12:33:438,37.173,-0.256,-0.535,-0.350,-2.553,90.308,40.897
16:12:33:438,37.173,-0.257,-0.396,-0.363,-3.527,93.932,36.605
16:12:33:438,37.174,-0.276,-0.299,-0.260,-3.785,97.371,31.241
16:12:33:439,37.174,-0.303,-0.188,-0.211,-3.669,99.267,27.162
16:12:33:54,37.275,-0.306,-0.033,-0.185,-3.215,101.538,20.351
16:12:33:54,37.275,-0.284,0.004,-0.125,-3.022,102.865,15.465
16:12:33:541,37.276,-0.239,0.141,-0.107,-3.089,104.770,7.574
16:12:33:613,37.348,-0.158,0.517,0.070,-3.423,106.192,1.892
16:12:33:883,37.619,-0.041,0.721,0.319,-4.011,108.760,-7.326
16:12:33:884,37.620,0.226,0.689,1.029,-4.422,112.169,-16.700
16:12:33:885,37.620,0.561,0.468,1.422,-4.152,114.523,-22.039
16:12:33:982,37.717,0.772,-0.490,2.073,-2.135,121.476,-30.039
16:12:34:036,37.771,0.900,-0.619,1.077,-1.964,124.174,-29.471
16:12:34:037,37.772,-0.018,0.313,-0.965,-1.956,125.809,-26.921
16:12:34:059,37.795,0.622,0.350,0.292,-2.222,127.308,-25.096
16:12:34:095,37.830,-0.421,0.132,0.933,-3.171,127.503,-22.694
16:12:34:095,37.830,-0.046,0.216,-0.029,-3.787,128.320,-21.443
16:12:34:095,37.831,0.231,-0.170,0.177,-3.581,129.740,-19.954
16:12:34:096,37.831,0.040,0.037,0.037,-3.907,129.874,-18.785
16:12:34:147,37.882,-0.052,-0.009,-0.055,-4.149,129.903,-18.253
16:12:34:147,37.883,0.064,0.026,0.028,-4.395,131.015,-17.677
16:12:34:148,37.884,-0.065,-0.002,0.015,-4.681,131.715,-17.135
16:12:34:149,37.884,-0.169,-0.024,0.092,-5.039,131.947,-15.920
16:12:34:2,37.936,-0.013,-0.001,-0.003,-5.126,131.733,-14.991
16:12:34:201,37.936,0.074,0.016,-0.038,-5.247,131.438,-13.567
16:12:34:201,37.937,0.036,-0.005,0.013,-5.490,131.203,-12.081
16:12:34:202,37.938,-0.071,-0.009,0.009,-5.611,130.987,-11.043
16:12:34:216,37.951,-0.095,-0.025,0.003,-5.630,130.722,-9.504
16:12:34:248,37.984,0.060,-0.013,0.008,-5.526,130.636,-8.451
16:12:34:249,37.985,0.019,-0.008,0.015,-5.471,131.530,-6.790
16:12:34:25,37.985,-0.022,0.006,0.002,-5.537,131.845,-5.120
16:12:34:307,38.042,0.003,0.015,0.000,-5.565,132.919,-3.999
16:12:34:307,38.042,0.005,0.024,-0.014,-5.600,133.422,-2.219
16:12:34:307,38.042,-0.010,0.052,-0.021,-5.563,134.298,-0.885
16:12:34:307,38.042,0.005,0.078,0.009,-5.403,134.495,1.267
16:12:34:324,38.060,0.034,0.067,-0.031,-5.209,135.148,2.742
16:12:34:325,38.060,-0.006,0.108,-0.082,-4.857,135.060,5.000
16:12:34:405,38.141,-0.082,0.198,-0.075,-4.434,135.376,7.318
16:12:34:406,38.141,-0.147,0.297,-0.034,-4.023,135.327,8.931
16:12:34:407,38.142,-0.236,0.319,-0.173,-3.191,135.371,11.624
16:12:34:637,38.373,-0.342,0.340,-0.429,-2.445,134.731,13.657
16:12:34:856,38.591,-0.559,0.335,-0.601,-1.216,134.331,17.180
16:12:34:857,38.592,-0.782,0.065,-0.483,-0.190,133.937,21.423
16:12:34:858,38.593,-0.494,0.117,-0.169,0.299,133.912,24.727
16:12:34:859,38.594,-0.478,0.327,0.001,1.333,133.529,30.223
16:12:34:934,38.669,-0.595,0.047,-0.211,2.238,133.774,33.800
16:12:34:934,38.670,-0.494,-0.375,-0.103,3.142,134.395,38.054
16:12:34:955,38.691,-0.377,-0.749,-0.126,3.601,139.383,41.147
16:12:34:981,38.716,-0.471,-0.509,0.084,0.664,145.750,37.335
16:12:34:981,38.716,-0.417,-0.334,0.117,-0.170,148.488,34.842
16:12:35:039,38.774,-0.390,-0.196,0.215,-0.705,152.206,30.295
16:12:35:04,38.775,-0.346,-0.067,0.262,-0.410,154.909,24.809
16:12:35:041,38.776,-0.329,0.033,0.272,-0.126,156.181,20.779
16:12:35:064,38.800,-0.221,0.088,0.182,-0.596,159.585,10.205
16:12:35:065,38.801,-0.100,0.244,0.239,-1.800,162.415,3.463
16:12:35:115,38.850,0.936,0.520,0.272,-5.409,168.418,-16.335
16:12:35:115,38.851,1.675,0.330,-0.121,-5.929,169.400,-20.809
16:12:35:116,38.852,1.495,-0.150,0.487,-6.089,170.960,-25.709
16:12:35:144,38.879,1.807,-0.452,0.072,-6.175,172.259,-27.779
16:12:35:145,38.880,1.838,-0.258,-0.160,-5.871,174.345,-27.493
16:12:35:145,38.881,1.146,-0.387,-0.414,-5.554,176.523,-24.805
16:12:35:146,38.882,0.326,0.553,0.263,-5.775,176.872,-22.735
16:12:35:164,38.899,-0.046,0.205,0.367,-5.940,177.547,-20.592
16:12:35:164,38.899,0.333,-0.082,-0.043,-5.811,178.345,-19.278
16:12:35:216,38.951,-0.004,-0.030,-0.024,-5.820,178.361,-17.850
16:12:35:217,38.952,-0.043,-0.025,0.026,-6.127,178.137,-16.868
16:12:35:293,39.028,0.058,0.002,-0.070,-6.272,178.484,-16.180
16:12:35:324,39.059,-0.035,0.024,0.112,-6.864,179.329,-15.065
16:12:35:324,39.060,-0.003,0.019,0.194,-7.218,179.486,-14.192
16:12:35:695,39.430,-0.022,-0.001,-0.031,-7.069,178.114,-11.640
16:12:35:695,39.431,-0.065,-0.019,0.016,-7.017,177.328,-9.845
16:12:35:696,39.432,-0.029,-0.029,0.095,-6.816,177.079,-7.966
16:12:35:697,39.432,-0.038,-0.041,-0.004,-6.663,176.976,-6.746
16:12:35:932,39.668,0.010,0.001,-0.007,-6.600,177.355,-5.035
16:12:35:932,39.668,0.041,0.021,0.006,-6.605,177.855,-3.951
16:12:35:932,39.668,-0.004,-0.002,-0.004,-6.587,178.952,-2.429
16:12:35:933,39.669,-0.008,0.010,0.003,-6.546,179.697,-0.982
16:12:36:004,39.740,0.014,0.033,0.032,-6.512,-179.935,0.005
16:12:36:006,39.741,-0.015,0.050,0.047,-6.389,-179.476,1.608
16:12:36:038,39.773,-0.020,0.064,0.003,-6.247,-179.580,2.758
16:12:36:038,39.774,-0.067,0.124,-0.013,-5.925,-179.810,4.646
16:12:36:038,39.774,-0.139,0.191,-0.014,-5.651,179.955,6.033
16:12:36:039,39.774,-0.157,0.227,-0.034,-5.188,179.788,8.273
16:12:36:115,39.850,-0.231,0.285,-0.009,-4.702,179.586,10.833
16:12:36:116,39.851,-0.327,0.350,0.068,-4.278,179.529,12.818
16:12:36:116,39.851,-0.510,0.301,0.040,-3.494,178.982,16.189
16:12:36:219,39.955,-0.797,0.123,0.267,-2.064,177.414,22.999
16:12:36:221,39.956,-0.332,0.365,0.208,-1.101,175.855,28.021
16:12:36:221,39.957,-0.452,0.347,0.336,-0.004,174.682,31.624
16:12:36:222,39.957,-0.544,-0.064,0.178,1.974,173.708,36.587
16:12:36:29,40.026,-0.393,-0.806,0.136,3.255,173.011,39.158
16:12:36:342,40.077,-0.399,-0.605,0.348,4.836,171.904,41.704
16:12:36:457,40.192,-0.458,-0.837,-0.030,5.657,171.820,42.251
16:12:36:457,40.192,-0.452,-0.892,0.061,4.968,172.815,41.709
16:12:36:457,40.193,-0.405,-0.602,0.197,2.429,175.002,39.737
16:12:36:458,40.194,-0.299,-0.414,0.189,0.598,177.145,37.596
16:12:36:535,40.271,-0.336,-0.318,0.223,-1.313,179.948,33.296
16:12:36:536,40.272,-0.290,-0.185,0.225,-2.034,-178.384,29.761
16:12:36:537,40.272,-0.264,-0.126,0.223,-2.383,-176.628,23.630
16:12:36:538,40.273,-0.270,-0.019,0.200,-2.598,-175.424,16.782
16:12:36:587,40.323,-0.306,0.092,0.157,-3.012,-174.579,11.852
16:12:36:588,40.323,-0.150,0.313,0.111,-4.047,-172.877,3.832
16:12:36:589,40.324,-0.033,0.660,0.086,-4.992,-171.541,-1.938
16:12:36:589,40.325,0.867,0.715,-0.131,-6.236,-169.375,-10.960
16:12:36:635,40.371,1.330,0.527,-0.489,-6.807,-167.556,-19.486
16:12:36:636,40.372,1.227,0.280,-0.072,-7.136,-167.157,-24.259
16:12:36:668,40.403,2.016,-0.643,-0.364,-7.290,-165.516,-29.525
16:12:36:668,40.404,1.840,-0.817,-0.365,-7.554,-164.699,-31.033
16:12:36:669,40.405,0.302,-0.237,-0.354,-7.535,-163.215,-29.533
16:12:36:67,40.406,0.566,-0.322,-0.647,-6.740,-161.343,-27.471
16:12:36:688,40.423,0.510,0.178,-0.886,-5.496,-157.097,-24.998
16:12:36:688,40.423,0.939,0.217,0.999,-6.166,-156.024,-21.646
16:12:37:13,40.866,0.224,-0.211,-0.274,-6.360,-154.311,-18.898
16:12:37:191,40.927,0.434,-0.143,-0.248,-6.260,-153.798,-17.238
16:12:37:192,40.928,0.078,-0.011,-0.032,-6.493,-154.306,-15.339
16:12:37:193,40.928,-0.003,-0.010,-0.013,-6.693,-154.671,-14.298
16:12:37:194,40.929,0.011,-0.009,-0.008,-7.075,-154.525,-12.804
16:12:37:215,40.950,0.123,0.001,0.116,-7.418,-154.278,-11.849
16:12:37:216,40.951,0.035,0.001,0.057,-7.461,-154.782,-10.527
16:12:37:216,40.952,-0.067,0.040,-0.050,-7.430,-155.887,-9.196
16:12:37:401,41.136,-0.011,-0.020,0.024,-7.522,-156.361,-7.994
16:12:37:402,41.137,0.052,0.010,0.020,-7.575,-156.790,-6.129
16:12:37:403,41.138,-0.036,-0.002,-0.008,-7.500,-157.151,-4.907
16:12:37:427,41.162,0.044,0.017,-0.002,-7.294,-157.065,-1.274
16:12:37:428,41.163,0.016,0.013,0.001,-7.245,-156.936,-0.204
16:12:37:451,41.186,-0.061,0.089,0.034,-6.780,-157.012,4.113
16:12:37:452,41.187,-0.153,0.166,0.021,-6.392,-157.358,6.120
16:12:37:453,41.188,-0.200,0.211,-0.002,-6.042,-157.541,7.708
16:12:37:506,41.242,-0.248,0.294,0.077,-5.420,-157.617,10.663
16:12:37:507,41.243,-0.371,0.438,0.268,-4.954,-157.765,13.061
16:12:37:508,41.243,-0.617,0.507,0.223,-4.012,-158.771,17.278
16:12:37:509,41.244,-0.162,-1.006,0.227,3.419,-162.473,44.207
16:12:37:532,41.268,-0.243,-0.870,0.112,3.302,-160.699,43.592
16:12:37:533,41.268,-0.217,-0.919,0.193,2.698,-159.268,42.473
16:12:37:534,41.269,-0.021,-0.563,0.252,1.659,-156.852,39.328
16:12:37:534,41.270,-0.091,-0.384,0.320,1.495,-155.304,36.310
16:12:37:559,41.294,-0.108,-0.284,0.357,2.124,-153.567,30.612
16:12:37:56,41.295,-0.036,0.088,0.379,2.751,-152.725,26.330
16:12:37:56,41.295,0.007,0.190,0.401,3.628,-151.808,19.594
16:12:37:561,41.296,0.101,0.299,0.363,3.546,-149.876,13.240
16:12:37:611,41.346,0.206,0.263,0.341,2.875,-147.613,9.188
16:12:37:612,41.347,0.297,0.277,0.311,1.252,-143.171,3.224
16:12:37:612,41.347,0.441,0.356,0.189,0.053,-139.749,-0.733
16:12:37:613,41.348,0.544,0.500,-0.010,-1.328,-135.230,-6.824
16:12:37:636,41.372,0.790,0.296,-0.388,-2.319,-132.157,-13.243
16:12:37:637,41.373,0.910,0.283,-0.555,-2.967,-130.411,-17.178
16:12:37:638,41.373,0.790,0.075,-0.379,-3.644,-128.470,-22.208
16:12:37:639,41.374,0.926,-0.236,-0.809,-3.708,-126.663,-24.640
16:12:37:711,41.446,0.729,-0.353,-1.310,-3.780,-123.656,-26.322
16:12:37:711,41.446,-0.249,0.301,-0.760,-3.809,-121.604,-25.690
16:12:37:736,41.471,-1.400,0.742,0.332,-3.329,-117.919,-22.773
16:12:37:737,41.472,1.671,0.563,-1.175,-4.537,-114.850,-20.088
16:12:37:759,41.495,-0.201,-0.286,-0.742,-4.602,-113.417,-18.157
16:12:37:787,41.522,0.072,-0.107,-0.402,-4.786,-112.088,-15.954
16:12:37:813,41.548,0.050,-0.043,0.045,-4.945,-112.231,-14.787
16:12:37:838,41.573,-0.024,-0.024,-0.026,-5.271,-113.021,-13.387
16:12:37:864,41.599,-0.033,0.030,0.057,-5.669,-113.079,-11.803
16:12:37:92,41.656,0.155,0.000,-0.048,-5.998,-112.612,-10.821
16:12:37:92,41.656,0.004,-0.003,-0.013,-6.261,-112.710,-9.608
16:12:37:943,41.678,-0.017,0.029,0.003,-6.425,-112.921,-8.834
16:12:37:97,41.705,0.057,0.008,0.005,-6.683,-112.874,-7.465
16:12:38:025,41.760,-0.015,-0.007,-0.007,-6.852,-112.868,-6.039
16:12:38:025,41.761,-0.037,-0.009,0.018,-6.923,-112.960,-5.037
16:12:38:048,41.783,0.092,-0.009,0.016,-7.003,-112.541,-3.457
16:12:38:133,41.868,0.052,-0.006,-0.024,-7.037,-112.091,-2.503
16:12:38:133,41.869,0.025,0.000,-0.019,-7.073,-111.404,-1.261
16:12:38:134,41.869,0.050,0.022,0.005,-7.095,-111.173,-0.520
16:12:38:153,41.889,0.037,0.035,-0.022,-7.142,-110.474,0.495
16:12:38:266,42.002,-0.004,0.033,0.008,-7.090,-110.383,1.434
16:12:38:267,42.003,-0.032,0.046,0.038,-7.018,-110.230,2.108
16:12:38:268,42.004,-0.039,0.075,0.045,-6.867,-110.303,3.320
16:12:38:269,42.005,-0.028,0.083,0.072,-6.760,-110.277,4.256
16:12:38:286,42.021,-0.011,0.102,0.101,-6.558,-110.366,5.840
16:12:38:398,42.133,-0.048,0.111,0.092,-6.248,-110.224,7.658
16:12:38:399,42.134,-0.095,0.122,0.096,-6.012,-110.275,9.038
16:12:38:399,42.135,-0.052,0.179,0.157,-5.623,-110.196,11.441
16:12:38:4,42.136,-0.011,0.206,0.247,-5.278,-110.277,13.225
16:12:38:416,42.152,-0.070,0.175,0.364,-4.568,-110.502,16.131
16:12:38:495,42.230,-0.073,0.211,0.476,-3.999,-110.926,18.248
16:12:38:632,42.368,-0.044,0.192,0.765,-2.772,-111.696,21.668
16:12:38:633,42.368,0.040,0.126,0.534,-1.380,-112.935,25.847
16:12:38:634,42.369,-0.051,0.324,0.451,-0.690,-113.662,29.209
16:12:38:687,42.422,-0.024,0.178,0.576,0.947,-114.693,34.463
16:12:38:687,42.423,-0.173,-0.161,0.791,2.453,-115.139,37.725
16:12:38:688,42.424,-0.101,-0.735,0.299,3.909,-115.517,41.930
16:12:38:689,42.424,-0.011,-0.532,0.716,5.307,-115.281,44.245
16:12:38:733,42.468,-0.131,-0.758,0.462,5.414,-114.037,44.495
16:12:38:843,42.578,0.010,-0.755,0.530,4.247,-111.184,43.301
16:12:38:843,42.578,0.149,-0.550,0.483,2.330,-108.542,42.127
16:12:38:844,42.579,0.168,-0.314,0.417,-0.227,-104.208,39.390
16:12:38:897,42.633,0.204,-0.323,0.330,-1.644,-99.738,35.473
16:12:38:898,42.633,0.298,-0.218,0.397,-2.187,-97.095,32.258
16:12:39:003,42.738,0.318,0.034,0.187,-3.073,-88.703,15.864
16:12:39:003,42.739,0.250,0.175,0.142,-3.347,-87.185,10.843
16:12:39:004,42.740,0.232,0.473,0.004,-3.922,-85.158,2.546
16:12:39:023,42.759,-0.223,0.694,-1.223,-5.841,-84.124,-12.566
16:12:39:024,42.760,0.277,0.187,-1.623,-6.421,-85.197,-20.029
16:12:39:048,42.783,-0.111,-0.398,-1.933,-6.402,-84.880,-23.801
16:12:39:049,42.784,-0.074,-0.351,-1.657,-7.011,-85.089,-27.405
16:12:39:103,42.838,-0.794,0.305,0.416,-7.498,-85.219,-27.445
16:12:39:103,42.838,-0.636,-0.113,0.205,-6.887,-84.218,-25.946
16:12:39:124,42.860,0.652,0.720,-0.614,-7.214,-82.857,-23.462
16:12:39:209,42.944,0.769,0.143,-0.870,-7.712,-82.186,-21.945
16:12:39:209,42.945,-0.063,-0.108,-0.319,-7.740,-81.385,-19.865
16:12:39:23,42.965,0.044,-0.013,0.079,-8.095,-81.883,-17.874
16:12:39:255,42.991,0.037,0.006,-0.001,-8.342,-82.198,-16.667
16:12:39:283,43.018,0.075,0.004,-0.076,-8.557,-82.264,-15.749
16:12:39:362,43.097,0.067,0.006,-0.074,-8.781,-82.859,-14.486
16:12:39:391,43.126,-0.023,0.004,0.038,-8.800,-84.014,-13.422
16:12:39:391,43.127,0.012,0.005,0.049,-8.834,-84.777,-12.455
16:12:39:474,43.210,0.090,-0.005,0.009,-8.795,-85.712,-10.820
16:12:39:475,43.211,0.076,-0.005,0.015,-8.667,-86.266,-9.702
16:12:39:476,43.211,0.043,-0.011,0.094,-8.462,-87.019,-8.016
16:12:39:477,43.212,-0.234,-0.018,0.014,-8.310,-86.987,-6.055
16:12:39:545,43.281,-0.008,-0.010,-0.031,-8.244,-86.756,-4.694
16:12:39:659,43.395,0.016,0.038,0.041,-8.362,-87.618,-2.682
16:12:39:66,43.396,0.010,0.038,-0.046,-8.438,-87.282,-1.230
16:12:39:661,43.396,-0.017,0.045,-0.047,-8.501,-87.927,1.078
16:12:39:687,43.422,-0.031,0.113,0.089,-8.348,-89.024,5.090
16:12:39:687,43.422,-0.169,0.177,0.111,-8.180,-89.096,7.660
16:12:39:687,43.422,-0.008,0.245,0.217,-8.047,-89.944,9.423
16:12:39:688,43.423,0.119,0.323,0.189,-7.616,-89.744,12.343
16:12:39:755,43.490,0.081,0.344,0.466,-7.152,-90.842,14.555
16:12:39:861,43.596,0.080,0.333,0.799,-6.193,-92.058,18.163
16:12:39:913,43.648,0.036,0.177,0.887,-5.257,-94.412,22.409
16:12:40:132,43.867,0.053,0.078,0.542,-4.729,-95.554,25.712
16:12:40:133,43.868,0.111,0.376,0.284,-4.026,-97.371,31.244
16:12:40:133,43.868,0.186,0.282,0.466,-3.299,-98.293,34.883
16:12:40:134,43.869,0.071,-0.383,0.597,-1.770,-99.887,39.279
16:12:40:236,43.972,0.008,-0.796,-0.189,-0.921,-100.688,41.668
16:12:40:237,43.972,0.162,-0.629,0.468,0.959,-101.629,43.434
16:12:40:238,43.973,-0.128,-0.666,0.337,1.905,-100.766,42.611
16:12:40:341,44.076,0.140,-0.624,0.318,0.776,-96.918,38.322
16:12:40:342,44.077,0.199,-0.347,0.342,-0.054,-94.597,35.629
16:12:40:342,44.078,0.234,-0.239,0.271,-0.907,-91.062,30.773
16:12:40:343,44.079,0.307,-0.067,0.185,-1.277,-88.082,25.036
16:12:40:446,44.181,0.295,0.025,0.159,-1.303,-86.483,20.884
16:12:40:447,44.182,0.303,0.123,0.109,-1.624,-84.280,14.471
16:12:40:448,44.183,0.279,0.153,0.069,-2.080,-82.796,10.055
16:12:40:448,44.183,0.226,0.270,-0.112,-3.141,-80.493,3.063
16:12:40:684,44.419,0.128,0.451,-0.283,-4.435,-78.569,-4.372
16:12:40:684,44.420,0.050,0.513,-0.458,-5.390,-78.139,-9.462
16:12:40:685,44.420,-0.429,0.391,-1.086,-6.966,-79.141,-16.833
16:12:40:687,44.423,-0.139,0.253,-1.161,-7.734,-80.492,-21.025
16:12:41:051,44.787,-0.154,-0.113,-1.193,-8.920,-82.296,-26.236
16:12:41:052,44.787,-0.343,-0.453,-1.396,-10.028,-83.663,-28.508
16:12:41:052,44.787,-0.379,0.001,-1.171,-11.233,-84.876,-29.176
16:12:41:053,44.788,-0.574,0.989,1.027,-9.671,-82.458,-26.989
16:12:41:099,44.835,-0.521,-0.397,-0.809,-8.581,-80.310,-25.630
16:12:41:1,44.835,-0.274,0.294,-0.607,-8.490,-78.413,-22.610
16:12:41:1,44.836,0.092,0.140,-0.178,-8.869,-77.643,-21.169
16:12:41:181,44.916,-0.096,-0.110,-0.175,-8.935,-76.320,-19.093
16:12:41:182,44.917,-0.009,0.009,-0.187,-9.256,-76.231,-17.632
16:12:41:182,44.918,0.007,-0.014,-0.038,-9.612,-76.409,-16.882
16:12:41:183,44.919,0.050,0.020,-0.035,-10.166,-76.458,-15.780
16:12:41:201,44.936,0.106,0.021,-0.046,-10.578,-76.585,-14.994
16:12:41:288,45.023,0.071,0.000,-0.056,-10.886,-77.335,-13.817
16:12:41:288,45.023,0.002,0.000,0.009,-10.919,-78.167,-13.047
16:12:41:288,45.024,0.010,-0.001,0.055,-11.033,-79.590,-11.651
16:12:41:288,45.024,0.006,-0.009,-0.067,-11.135,-80.639,-10.034
16:12:41:438,45.174,0.043,-0.001,-0.029,-11.156,-81.344,-8.989
16:12:41:439,45.175,0.008,0.002,0.017,-11.156,-82.458,-7.352
16:12:41:522,45.257,0.010,-0.005,-0.027,-11.139,-82.915,-6.201
16:12:41:523,45.258,0.044,-0.008,0.028,-11.071,-83.431,-4.500
16:12:41:524,45.259,0.053,-0.001,0.027,-10.997,-83.679,-2.774
16:12:41:525,45.260,-0.027,0.040,-0.044,-11.032,-83.846,-1.636
16:12:41:603,45.338,0.042,0.287,0.272,-10.812,-86.229,13.435
16:12:41:603,45.338,-0.018,0.272,0.503,-10.182,-87.644,16.826
16:12:41:603,45.338,0.061,0.323,0.708,-9.629,-88.983,19.334
16:12:41:603,45.339,0.049,0.056,0.689,-8.823,-91.513,23.584
16:12:41:628,45.363,0.047,0.404,0.218,-8.601,-93.067,26.967
16:12:41:628,45.364,0.136,0.423,0.318,-8.489,-94.842,32.335
16:12:41:629,45.364,0.133,0.012,0.524,-8.096,-96.211,35.666
16:12:41:63,45.365,-0.021,-0.447,0.528,-6.770,-98.307,39.722
16:12:41:671,45.406,0.032,-0.709,-0.067,-5.350,-100.404,43.035
16:12:41:732,45.468,0.123,-0.616,0.554,-3.406,-101.726,43.659
16:12:41:733,45.469,-0.193,-0.765,0.506,-1.358,-102.228,42.338
16:12:41:734,45.469,-0.081,-0.769,0.450,-1.294,-101.381,39.932
16:12:41:734,45.470,0.001,-0.607,0.414,-1.957,-100.230,37.689
16:12:41:839,45.574,0.044,-0.281,0.320,-3.125,-98.040,33.351
16:12:41:839,45.574,0.054,-0.139,0.293,-3.773,-96.454,29.915
16:12:41:839,45.574,0.106,-0.036,0.254,-4.161,-94.339,24.061
16:12:41:839,45.575,0.162,0.020,0.206,-4.134,-92.827,17.665
16:12:41:859,45.595,0.149,0.045,0.208,-4.189,-92.045,13.155
16:12:41:86,45.595,0.086,0.171,0.040,-4.627,-90.838,5.967
16:12:41:917,45.652,0.039,0.376,0.020,-5.124,-90.035,0.871
16:12:41:917,45.653,0.046,0.509,-0.141,-6.002,-88.846,-7.130
16:12:41:918,45.654,-0.197,0.573,-0.955,-6.851,-88.139,-15.127
16:12:41:919,45.654,-0.026,0.477,-1.223,-7.150,-88.346,-19.938
16:12:41:942,45.678,0.231,0.075,-1.298,-7.612,-88.736,-26.046
16:12:41:943,45.678,0.074,-0.461,-1.588,-8.662,-89.680,-30.291
16:12:41:944,45.679,-0.140,-0.566,-1.464,-9.624,-90.446,-31.233
16:12:41:945,45.680,-0.582,-0.134,-0.847,-9.459,-89.933,-29.555
16:12:42:049,45.784,-0.284,0.050,0.341,-8.873,-88.847,-27.912
16:12:42:049,45.785,-0.323,0.227,-0.644,-7.796,-85.659,-26.145
16:12:42:049,45.785,0.569,0.186,-0.661,-7.784,-84.811,-24.264
16:12:42:05,45.786,-0.265,-0.011,-0.362,-7.934,-83.859,-21.947
16:12:42:074,45.809,0.031,-0.067,-0.204,-7.894,-84.142,-20.173
16:12:42:075,45.810,-0.006,-0.019,-0.044,-8.079,-84.477,-19.365
16:12:42:076,45.811,-0.051,-0.003,-0.068,-8.379,-84.415,-18.321
16:12:42:076,45.811,-0.010,-0.001,-0.068,-8.609,-84.126,-17.721
16:12:42:093,45.829,0.148,0.022,-0.008,-9.049,-83.993,-16.704
16:12:42:154,45.890,0.024,-0.006,-0.057,-9.175,-84.273,-15.887
16:12:42:154,45.890,-0.030,0.001,-0.031,-9.185,-85.051,-14.643
16:12:42:154,45.890,-0.001,-0.002,-0.010,-9.301,-85.806,-13.284
16:12:42:155,45.891,0.074,-0.011,-0.019,-9.329,-86.216,-12.235
16:12:42:175,45.910,0.067,-0.018,0.017,-9.243,-86.824,-10.687
16:12:42:176,45.911,0.042,-0.030,0.061,-9.188,-87.175,-9.639
16:12:42:177,45.912,0.018,-0.002,-0.022,-9.193,-87.195,-8.038
16:12:42:304,46.040,-0.010,0.002,-0.033,-9.162,-86.959,-6.337
16:12:42:305,46.041,-0.013,0.009,-0.027,-9.193,-88.953,-5.240
16:12:42:386,46.122,0.017,0.012,-0.051,-9.317,-88.663,-3.661
16:12:42:387,46.123,0.020,0.028,-0.065,-9.393,-90.279,-2.597
16:12:42:388,46.124,0.026,0.023,0.019,-9.382,-90.312,-0.862
16:12:42:495,46.231,0.038,0.050,-0.006,-9.330,-91.958,0.403
16:12:42:496,46.231,0.060,0.078,0.008,-9.203,-92.086,2.445
16:12:42:497,46.232,-0.019,0.091,0.023,-8.976,-94.035,4.587
16:12:42:498,46.233,-0.064,0.163,0.067,-8.792,-94.355,6.040
16:12:42:512,46.247,-0.044,0.197,0.106,-8.418,-96.331,8.235
16:12:42:914,46.649,-0.021,0.274,0.217,-7.948,-96.780,10.596
16:12:42:915,46.650,-0.060,0.334,0.307,-7.669,-98.487,12.422
16:12:42:916,46.651,-0.108,0.327,0.458,-7.175,-99.262,15.709
16:12:42:916,46.651,-0.033,0.204,0.754,-6.772,-101.510,18.161
16:12:42:992,46.728,0.039,0.029,0.566,-6.324,-103.482,22.435
16:12:42:993,46.728,0.059,0.290,0.238,-6.170,-105.597,25.683
16:12:42:994,46.729,0.145,0.359,0.294,-5.512,-107.678,30.794
16:12:42:994,46.730,0.019,-0.130,0.523,-4.200,-110.069,35.553
16:12:43:019,46.754,-0.144,-0.285,0.778,-2.971,-111.401,38.093
16:12:43:019,46.755,0.226,-0.577,-0.180,-1.106,-112.421,40.677
16:12:43:02,46.756,0.171,-0.520,0.453,-0.033,-113.556,41.559
16:12:43:062,46.797,-0.072,-0.771,0.458,0.690,-113.084,39.527
16:12:43:116,46.851,0.041,-0.479,0.401,-0.953,-110.892,36.593
16:12:43:178,46.913,0.041,-0.333,0.343,-2.564,-108.274,32.330
16:12:43:178,46.913,0.051,-0.246,0.361,-3.274,-106.750,28.836
16:12:43:179,46.914,0.057,-0.113,0.353,-3.863,-104.926,22.749
16:12:43:18,46.915,0.057,-0.016,0.245,-4.041,-103.905,18.270
16:12:43:228,46.964,0.016,0.073,0.291,-4.320,-102.546,11.020
16:12:43:229,46.965,0.012,0.377,0.138,-4.760,-101.136,3.068
16:12:43:23,46.966,0.038,0.561,0.022,-5.129,-100.000,-2.589
16:12:43:231,46.966,0.126,0.739,-0.647,-5.542,-97.997,-11.486
16:12:43:247,46.982,0.222,0.613,-1.050,-5.560,-96.415,-17.258
16:12:43:275,47.010,0.278,0.111,-1.628,-5.219,-94.200,-24.414
16:12:43:334,47.069,0.213,-0.451,-1.899,-4.434,-91.178,-28.823
16:12:43:335,47.070,0.088,-0.571,-1.961,-4.029,-89.187,-29.908
16:12:43:335,47.071,-0.441,0.994,0.910,-3.404,-86.223,-27.758
16:12:43:387,47.122,0.742,0.053,-1.172,-4.305,-83.797,-23.543
16:12:43:388,47.123,-0.261,-0.204,-0.188,-4.367,-83.341,-22.431
16:12:43:389,47.124,0.071,-0.017,-0.199,-4.459,-83.728,-21.247
16:12:43:39,47.125,0.054,-0.058,0.112,-4.779,-84.653,-20.232
16:12:43:433,47.169,0.016,-0.012,-0.017,-4.945,-84.868,-19.616
16:12:43:434,47.169,0.027,0.002,-0.007,-5.158,-84.616,-18.879
16:12:43:465,47.201,0.205,0.016,0.034,-5.327,-84.457,-18.194
16:12:43:466,47.201,0.038,0.012,-0.053,-5.252,-84.861,-16.941
16:12:43:466,47.202,-0.009,0.008,-0.036,-5.091,-85.499,-15.565
16:12:43:467,47.203,0.027,0.012,0.006,-4.994,-85.832,-14.650
16:12:43:488,47.223,0.099,-0.048,0.023,-4.792,-86.016,-13.222
16:12:43:488,47.224,0.050,-0.046,-0.005,-4.669,-85.966,-12.240
16:12:43:489,47.224,0.001,-0.019,-0.031,-4.514,-85.581,-10.720
16:12:43:566,47.301,0.074,-0.030,0.032,-4.472,-85.065,-9.719
16:12:43:567,47.302,0.049,-0.011,-0.028,-4.457,-83.749,-8.227
16:12:43:568,47.303,-0.057,0.029,-0.091,-4.390,-80.678,-6.738
16:12:43:587,47.322,0.050,0.030,-0.008,-4.339,-79.973,-5.644
16:12:43:642,47.377,0.053,0.023,-0.030,-4.151,-77.563,-3.845
16:12:43:643,47.378,0.050,0.050,-0.040,-3.943,-77.113,-2.552
16:12:43:665,47.401,0.025,0.060,-0.027,-3.525,-75.304,-0.506
16:12:43:693,47.428,-0.056,0.103,-0.004,-3.029,-75.147,1.617
16:12:43:748,47.484,-0.065,0.123,0.044,-2.659,-73.957,3.051
16:12:43:749,47.484,0.005,0.183,0.084,-2.101,-73.921,5.288
16:12:43:77,47.506,0.088,0.224,0.111,-1.686,-72.883,6.939
16:12:43:798,47.534,0.171,0.362,0.254,-0.900,-72.982,9.786
16:12:43:825,47.560,0.229,0.410,0.492,-0.273,-72.385,11.932
16:12:43:85,47.585,0.318,0.304,0.613,0.796,-73.021,15.465
16:12:43:905,47.641,0.307,0.054,0.480,1.681,-73.292,19.500
16:12:43:906,47.641,0.369,0.192,0.069,2.395,-73.935,22.493
16:12:44:192,47.927,0.507,0.277,0.201,4.022,-74.709,27.203
16:12:44:222,47.957,0.331,-0.105,0.238,5.295,-74.703,30.304
16:12:44:222,47.958,0.337,-0.520,0.054,6.903,-74.571,34.070
16:12:44:348,48.084,0.179,-0.585,-0.065,8.280,-74.858,36.282
16:12:44:515,48.250,0.267,-0.791,0.341,8.863,-74.361,36.819
16:12:44:515,48.251,0.313,-0.777,0.326,8.714,-72.228,36.206
16:12:44:516,48.252,0.413,-0.640,0.255,7.968,-70.018,35.285
16:12:44:517,48.252,0.443,-0.428,0.149,6.664,-65.989,33.029
16:12:44:541,48.276,0.504,-0.263,0.011,5.765,-61.825,29.835
16:12:44:542,48.277,0.547,-0.221,-0.002,5.520,-59.358,27.171
16:12:44:543,48.278,0.515,-0.043,-0.121,5.318,-56.184,22.472
16:12:44:543,48.279,0.563,0.052,-0.068,4.988,-54.268,19.027
16:12:44:568,48.303,0.421,0.070,-0.136,3.831,-50.697,13.741
16:12:44:569,48.304,0.401,0.091,-0.146,2.669,-47.916,10.049
16:12:44:57,48.305,0.306,0.307,-0.272,0.739,-43.448,4.002
16:12:44:571,48.306,0.048,0.439,-0.401,-0.795,-39.403,-2.532
16:12:44:622,48.357,-0.082,0.492,-0.360,-1.557,-37.505,-7.165
16:12:44:622,48.357,-0.373,0.718,-0.436,-2.516,-35.671,-14.307
16:12:44:622,48.357,-1.047,0.182,-0.932,-3.064,-34.307,-18.631
16:12:44:622,48.357,-1.226,-0.088,-0.571,-3.958,-32.257,-23.845
16:12:44:647,48.383,-1.216,-0.430,-0.742,-4.229,-29.555,-27.359
16:12:44:647,48.383,-1.534,-0.266,-0.817,-3.956,-26.915,-28.153
16:12:44:647,48.383,-0.296,-0.030,-0.003,-3.484,-23.216,-26.150
16:12:44:648,48.384,0.865,0.820,1.130,-3.304,-21.127,-24.391
16:12:44:69,48.425,-0.234,0.376,-0.644,-3.570,-18.235,-21.825
16:12:44:725,48.460,-0.474,-0.114,0.109,-3.912,-16.112,-19.980
16:12:44:726,48.461,-0.086,-0.082,0.005,-3.862,-15.137,-18.795
16:12:44:727,48.462,0.017,0.001,-0.046,-4.044,-14.758,-17.216
16:12:44:727,48.463,0.004,0.004,-0.029,-4.406,-14.648,-16.417
16:12:44:751,48.486,-0.075,0.009,-0.008,-4.809,-13.995,-15.434
16:12:44:751,48.487,0.091,0.031,-0.123,-5.249,-13.427,-14.832
16:12:44:752,48.487,0.122,0.017,-0.176,-5.845,-13.352,-13.662
16:12:44:856,48.592,-0.019,0.010,0.044,-6.028,-14.409,-10.903
16:12:44:857,48.592,0.024,-0.013,-0.045,-6.189,-14.940,-9.101
16:12:44:857,48.592,0.012,-0.010,-0.054,-6.230,-14.750,-7.897
16:12:44:858,48.593,0.019,-0.014,-0.035,-6.189,-15.236,-6.088
16:12:44:873,48.609,-0.026,-0.014,-0.040,-6.081,-15.372,-4.307
16:12:44:958,48.693,-0.053,-0.001,-0.043,-6.032,-15.392,-3.233
16:12:44:958,48.693,-0.015,0.003,-0.039,-6.026,-14.907,-1.864
16:12:44:959,48.694,-0.009,0.014,-0.009,-6.046,-14.923,-1.032
16:12:45:067,48.802,0.016,0.010,-0.043,-6.173,-14.533,0.185
16:12:45:067,48.803,0.035,0.035,-0.060,-6.197,-14.584,1.512
16:12:45:068,48.804,0.039,0.064,-0.023,-6.156,-14.937,2.502
16:12:45:069,48.804,0.052,0.075,0.031,-6.073,-15.526,4.145
16:12:45:111,48.846,0.112,0.099,0.050,-6.005,-15.981,5.340
16:12:45:219,48.954,0.144,0.118,-0.052,-5.767,-16.280,7.414
16:12:45:219,48.955,0.203,0.237,-0.119,-5.484,-16.514,8.957
16:12:45:479,49.214,0.233,0.239,0.048,-4.905,-17.082,11.534
16:12:45:593,49.328,0.372,0.267,0.208,-4.183,-18.130,14.511
16:12:45:593,49.329,0.497,0.264,0.230,-3.685,-18.418,16.730
16:12:45:593,49.329,0.708,0.215,0.187,-2.967,-19.257,20.551
16:12:45:594,49.330,0.835,0.139,0.022,-2.502,-19.714,23.500
16:12:45:722,49.458,0.303,0.382,-0.053,-2.243,-20.084,28.639
16:12:45:723,49.459,0.544,0.314,-0.166,-1.883,-20.177,34.149
16:12:45:724,49.459,0.588,0.006,-0.082,-1.617,-20.186,37.583
16:12:45:725,49.460,0.330,-0.480,-0.037,-0.990,-20.135,41.455
16:12:45:803,49.538,0.412,-0.695,-0.223,-0.293,-20.073,43.379
16:12:45:803,49.538,0.448,-0.961,-0.049,0.686,-19.035,44.621
16:12:45:803,49.538,0.395,-0.749,0.020,0.359,-17.475,44.280
16:12:45:804,49.539,0.450,-0.712,-0.107,-0.642,-14.389,42.641
16:12:45:854,49.589,0.402,-0.461,-0.156,-1.582,-11.427,39.481
16:12:45:854,49.590,0.364,-0.374,-0.187,-1.961,-9.486,36.686
16:12:45:855,49.591,0.372,-0.208,-0.196,-2.102,-7.063,31.558
16:12:45:856,49.591,0.332,-0.070,-0.235,-1.920,-5.855,27.587
16:12:45:907,49.642,0.315,-0.013,-0.216,-1.621,-4.699,21.015
16:12:45:907,49.643,0.321,0.071,-0.181,-1.768,-3.850,13.926
16:12:45:908,49.643,0.230,0.195,-0.143,-2.175,-3.248,8.919
16:12:45:909,49.644,0.123,0.500,-0.119,-3.219,-2.197,1.000
16:12:45:932,49.667,-0.255,0.709,-0.046,-3.996,-1.616,-4.565
16:12:45:933,49.668,-0.879,0.612,-0.066,-5.026,-1.136,-12.985
16:12:45:934,49.669,-1.500,0.475,0.121,-5.465,-0.574,-18.094
16:12:45:935,49.670,-1.309,-0.019,-0.194,-5.723,0.415,-24.411
16:12:45:987,49.722,-1.865,-0.585,0.106,-5.630,2.503,-28.290
16:12:45:988,49.723,-1.624,-0.559,0.203,-5.530,3.918,-28.694
16:12:45:988,49.723,1.510,0.899,0.323,-4.781,6.582,-26.162
16:12:45:988,49.723,-0.789,0.228,0.482,-4.542,7.891,-25.158
16:12:46:01,49.746,-0.556,0.416,-0.463,-4.804,9.601,-22.267
16:12:46:012,49.747,-0.156,0.008,0.251,-5.427,10.395,-20.079
16:12:46:029,49.764,0.016,-0.010,-0.067,-5.860,10.485,-16.802
16:12:46:054,49.789,-0.022,0.017,0.029,-6.148,10.992,-15.877
16:12:46:08,49.816,0.012,0.021,-0.197,-6.678,11.436,-14.786
16:12:46:136,49.872,-0.030,0.011,-0.168,-6.920,11.378,-13.884
16:12:46:137,49.873,-0.025,0.006,0.034,-6.941,10.695,-12.508
16:12:46:16,49.895,0.014,-0.011,0.018,-6.989,10.107,-11.525
16:12:46:295,50.030,0.026,-0.016,-0.056,-7.100,10.150,-9.901
16:12:46:295,50.031,0.024,-0.017,-0.117,-7.096,9.787,-8.786
16:12:46:406,50.142,0.046,-0.015,-0.029,-6.975,9.675,-7.132
16:12:46:407,50.142,0.027,0.004,-0.053,-6.865,9.256,-5.395
16:12:46:408,50.143,-0.005,-0.002,-0.058,-6.823,9.665,-4.201
16:12:46:449,50.185,-0.011,0.030,-0.007,-6.772,10.244,-0.595
16:12:46:772,50.508,-0.020,0.031,-0.017,-6.729,10.305,0.672
16:12:46:773,50.509,0.004,0.048,-0.048,-6.625,10.709,2.588
16:12:46:774,50.509,0.017,0.054,-0.025,-6.530,10.450,3.911
16:12:46:775,50.510,0.072,0.100,-0.012,-6.368,10.471,5.942
16:12:46:791,50.526,0.139,0.131,0.004,-6.206,10.175,7.363
16:12:46:825,50.560,0.168,0.164,-0.030,-5.781,10.356,9.693
16:12:46:826,50.561,0.224,0.264,-0.131,-5.293,10.776,12.385
16:12:46:827,50.562,0.390,0.347,-0.161,-4.929,10.461,14.458
16:12:46:827,50.563,0.683,0.340,-0.102,-4.205,9.687,18.137
16:12:46:845,50.580,0.962,0.224,-0.203,-3.681,8.958,21.030
16:12:46:846,50.581,0.792,0.291,-0.326,-3.053,8.155,26.161
16:12:46:878,50.613,0.314,0.487,-0.345,-2.597,7.459,32.106
16:12:46:879,50.614,0.471,0.330,-0.425,-2.156,7.214,36.298
16:12:46:88,50.615,0.410,-0.528,-0.236,-1.791,7.566,41.750
16:12:46:88,50.616,0.196,-0.765,-0.134,-1.552,8.037,44.235
16:12:46:901,50.636,0.189,-0.736,-0.305,-0.866,8.927,46.798
16:12:46:902,50.637,0.321,-0.760,-0.055,-0.735,10.087,47.052
16:12:46:903,50.638,0.252,-0.869,-0.194,-1.129,12.434,45.572
16:12:46:93,50.665,0.247,-0.624,-0.306,-1.411,14.910,42.400
16:12:46:93,50.666,0.239,-0.447,-0.303,-1.482,16.419,39.431
16:12:46:931,50.667,0.243,-0.332,-0.276,-1.152,18.298,34.027
16:12:46:932,50.667,0.188,-0.120,-0.276,-0.799,19.128,29.979
16:12:47:035,50.770,0.211,-0.019,-0.301,-0.228,19.764,23.255
16:12:47:036,50.771,0.183,0.067,-0.272,-0.222,20.280,16.103
16:12:47:036,50.771,0.221,0.179,-0.254,-0.638,20.841,11.175
16:12:47:037,50.772,0.056,0.459,-0.179,-1.667,22.251,3.523
16:12:47:079,50.814,-0.126,0.672,-0.034,-2.386,23.594,-1.761
16:12:47:139,50.875,-0.501,0.661,0.049,-3.052,25.905,-9.956
16:12:47:139,50.875,-1.317,0.317,0.467,-3.340,27.328,-15.026
16:12:47:14,50.875,-1.391,0.240,0.721,-3.300,30.042,-21.717
16:12:47:184,50.920,-1.272,-0.229,0.490,-3.283,32.014,-26.174
16:12:47:21,50.946,-1.553,-0.415,0.802,-3.159,33.674,-27.821
16:12:47:325,51.060,-0.815,-0.301,0.800,-2.893,36.214,-26.081
16:12:47:325,51.060,0.348,-0.137,0.395,-2.876,37.635,-24.256
16:12:47:326,51.061,0.024,0.315,0.394,-3.586,39.531,-21.428
16:12:47:327,51.062,-0.163,1.072,-0.140,-4.881,40.434,-19.969
16:12:47:346,51.081,-0.003,-0.114,0.392,-4.631,41.540,-18.042
16:12:47:347,51.082,-0.224,-0.077,0.174,-4.711,41.241,-16.863
16:12:47:348,51.083,0.028,-0.021,-0.151,-4.986,40.806,-16.418
16:12:47:426,51.162,0.079,0.019,-0.029,-5.142,40.806,-15.432
16:12:47:426,51.162,-0.085,0.013,-0.106,-5.533,41.651,-14.025
16:12:47:427,51.162,-0.142,0.018,-0.166,-5.681,41.705,-12.949
16:12:47:445,51.181,0.022,-0.019,0.006,-5.547,41.007,-11.409
16:12:47:531,51.266,0.043,0.024,0.024,-5.571,40.554,-10.348
16:12:47:531,51.266,0.027,0.000,-0.061,-5.655,40.753,-8.451
16:12:47:532,51.267,-0.045,-0.001,-0.045,-5.642,41.240,-7.135
16:12:47:735,51.471,0.036,-0.030,-0.030,-5.499,41.921,-5.133
16:12:47:894,51.629,0.004,0.000,-0.044,-5.466,42.920,-3.118
16:12:47:946,51.681,-0.054,0.025,-0.016,-5.449,43.615,-1.789
16:12:48:139,51.874,-0.010,0.038,0.009,-5.384,44.353,0.094
16:12:48:139,51.874,0.004,0.014,0.012,-5.351,44.764,1.251
16:12:48:139,51.875,-0.006,0.031,-0.005,-5.305,46.388,2.883
16:12:48:139,51.875,0.034,0.038,0.001,-5.193,46.671,4.440
16:12:48:216,51.951,0.007,0.034,-0.009,-5.077,47.998,5.451
16:12:48:217,51.952,-0.043,0.068,-0.144,-4.891,48.001,6.936
16:12:48:218,51.953,0.059,0.123,-0.098,-4.686,48.854,7.969
16:12:48:219,51.954,0.109,0.133,-0.072,-4.292,48.540,9.717
16:12:48:244,51.980,0.029,0.197,-0.239,-3.973,49.188,11.103
16:12:48:245,51.980,0.039,0.269,-0.314,-3.297,48.863,13.436
16:12:48:246,51.981,0.229,0.260,-0.287,-2.370,48.905,16.137
16:12:48:261,51.997,0.349,0.169,-0.640,-0.578,48.108,21.581
16:12:48:428,52.163,0.207,0.060,-0.544,0.096,47.532,24.161
16:12:48:429,52.164,0.008,0.195,-0.420,1.382,46.610,28.489
16:12:48:429,52.165,0.033,0.279,-0.409,2.537,46.115,31.480
16:12:48:43,52.166,0.090,-0.066,-0.457,4.438,46.142,35.828
16:12:48:452,52.188,0.022,-0.793,-0.259,6.009,45.944,39.152
16:12:48:453,52.188,0.084,-0.543,-0.556,6.931,45.802,40.289
16:12:48:454,52.189,0.338,-0.873,-0.453,6.949,47.676,40.652
16:12:48:455,52.190,0.072,-0.763,-0.572,5.414,49.816,40.215
16:12:48:505,52.240,-0.034,-0.538,-0.484,2.129,53.959,38.473
16:12:48:506,52.241,-0.039,-0.367,-0.366,-0.407,57.975,35.439
16:12:48:506,52.242,0.001,-0.330,-0.411,-1.294,60.170,32.728
16:12:48:532,52.267,-0.123,-0.051,-0.404,-1.909,64.144,24.190
16:12:48:532,52.267,-0.126,0.016,-0.396,-2.174,65.877,18.250
16:12:48:533,52.268,-0.064,0.127,-0.298,-2.828,67.676,11.845
16:12:48:534,52.269,-0.046,0.230,-0.237,-3.419,68.957,7.319
16:12:48:71,52.446,-0.095,0.417,-0.058,-4.430,71.013,0.279
16:12:48:711,52.446,-0.103,0.561,0.122,-5.034,72.233,-4.593
16:12:48:865,52.600,-0.186,0.473,0.656,-5.829,73.827,-12.080
16:12:49:083,52.819,-0.279,0.255,1.426,-6.263,75.682,-18.817
16:12:49:084,52.819,-0.426,0.124,1.219,-6.417,76.556,-22.442
16:12:49:085,52.820,-0.370,-0.438,1.816,-5.819,79.513,-26.003
16:12:49:086,52.821,-0.104,-0.538,2.005,-5.475,81.551,-26.440
16:12:49:187,52.923,1.162,1.419,-1.660,-4.981,83.950,-23.951
16:12:49:188,52.924,-1.015,0.718,0.269,-5.601,85.101,-21.199
16:12:49:189,52.924,-0.567,0.319,0.095,-5.748,85.827,-19.708
16:12:49:189,52.925,0.060,-0.112,0.232,-5.444,86.766,-17.459
16:12:49:215,52.951,0.022,0.004,0.019,-5.437,86.635,-16.300
16:12:49:216,52.951,-0.008,-0.048,-0.031,-5.701,86.365,-14.991
16:12:49:217,52.952,0.049,0.000,0.058,-5.892,86.632,-14.161
16:12:49:218,52.953,0.009,-0.005,-0.003,-6.435,87.472,-13.119
16:12:49:371,53.107,-0.193,0.031,-0.119,-7.080,87.709,-11.931
16:12:49:372,53.107,-0.068,0.000,-0.025,-7.154,87.319,-10.865
16:12:49:373,53.108,0.064,0.044,0.046,-7.141,86.514,-9.235
16:12:49:373,53.109,0.006,-0.004,-0.078,-7.217,85.980,-8.030
16:12:49:502,53.238,-0.052,-0.015,-0.036,-7.223,85.506,-6.086
16:12:49:503,53.238,-0.016,-0.015,-0.020,-7.111,85.219,-4.166
16:12:49:503,53.239,-0.017,-0.013,-0.043,-7.039,85.173,-2.940
16:12:49:504,53.240,-0.033,-0.014,-0.012,-6.982,85.450,-1.210
16:12:49:686,53.421,0.004,-0.002,0.015,-6.967,85.702,-0.159
16:12:49:687,53.422,0.020,-0.002,0.016,-7.015,86.234,1.246
16:12:49:687,53.423,-0.016,0.073,-0.068,-6.734,86.776,5.692
16:12:49:688,53.424,0.009,0.134,-0.139,-6.324,86.333,7.431
16:12:49:712,53.448,0.067,0.166,-0.175,-5.957,86.035,8.760
16:12:49:713,53.449,-0.050,0.249,-0.222,-5.301,85.635,11.126
16:12:49:714,53.449,-0.046,0.288,-0.313,-4.454,85.140,13.928
16:12:49:715,53.450,0.037,0.276,-0.422,-3.739,84.574,16.048
16:12:49:792,53.527,0.086,0.226,-0.737,-2.533,83.527,19.617
16:12:49:792,53.527,-0.081,0.175,-0.963,-1.807,82.925,22.355
16:12:49:793,53.528,-0.206,0.096,-0.623,-0.875,82.328,27.076
16:12:49:794,53.529,-0.332,0.270,-0.550,0.355,81.630,32.496
16:12:49:844,53.579,-0.299,0.278,-0.616,1.543,81.445,36.104
16:12:49:845,53.580,-0.175,-0.459,-0.449,2.869,81.764,40.486
16:12:49:846,53.581,0.134,-0.577,-0.017,3.527,81.836,42.677
16:12:49:847,53.582,-0.097,-0.794,-0.431,4.008,82.904,44.673
16:12:49:897,53.633,0.020,-0.877,-0.377,3.281,84.655,44.593
16:12:49:898,53.633,-0.181,-0.778,-0.422,0.581,87.742,43.491
16:12:49:898,53.634,-0.192,-0.536,-0.337,-2.413,91.317,40.761
16:12:49:899,53.635,-0.200,-0.416,-0.297,-3.845,93.632,38.215
16:12:49:923,53.658,-0.223,-0.196,-0.231,-4.911,96.544,33.389
16:12:49:924,53.659,-0.265,-0.097,-0.173,-4.936,97.879,29.614
16:12:49:925,53.660,-0.064,0.310,0.010,-4.852,98.213,4.685
16:12:49:925,53.660,-0.029,0.350,0.070,-5.639,98.510,-0.175
16:12:49:948,53.684,0.058,0.497,0.342,-7.009,99.094,-7.527
16:12:49:949,53.685,0.240,0.492,0.947,-8.064,99.030,-12.448
16:12:49:95,53.686,0.808,0.267,1.425,-9.543,98.768,-19.321
16:12:49:951,53.687,0.215,-0.102,1.372,-10.185,98.520,-24.365
16:12:50:018,53.754,0.481,-0.441,1.790,-10.133,99.494,-26.361
16:12:50:054,53.790,0.634,-0.658,1.443,-9.160,101.592,-26.161
16:12:50:055,53.791,0.558,-0.431,0.848,-8.865,103.304,-24.712
16:12:50:056,53.791,-0.527,0.485,0.569,-9.153,104.669,-21.681
16:12:50:057,53.792,0.298,-0.053,0.265,-9.257,105.965,-19.358
16:12:50:077,53.813,0.160,-0.136,0.251,-9.095,106.262,-17.799
16:12:50:078,53.814,0.088,-0.022,0.029,-9.226,105.807,-15.983
16:12:50:079,53.814,0.030,-0.013,0.013,-9.488,105.559,-15.054
16:12:50:158,53.893,0.027,-0.001,0.007,-9.931,105.853,-13.880
16:12:50:158,53.893,-0.123,0.020,-0.024,-10.531,106.245,-12.764
16:12:50:159,53.894,-0.177,0.013,-0.014,-10.752,106.032,-11.786
16:12:50:264,53.999,0.017,-0.005,0.009,-10.701,105.142,-10.104
16:12:50:264,54.000,0.015,0.005,-0.065,-10.716,104.532,-8.948
16:12:50:265,54.001,-0.056,-0.012,-0.045,-10.817,104.068,-7.219
16:12:50:266,54.001,0.012,-0.009,0.054,-10.833,103.930,-6.067
16:12:50:369,54.104,0.000,0.005,-0.006,-10.878,103.701,-4.482
16:12:50:369,54.105,-0.007,0.000,-0.011,-10.867,102.617,-2.862
16:12:50:37,54.106,-0.020,0.002,0.001,-10.836,102.615,-1.817
16:12:50:371,54.106,0.020,0.021,0.003,-10.828,101.844,-0.329
16:12:50:475,54.210,-0.014,0.019,-0.012,-10.855,101.839,0.614
16:12:50:477,54.212,0.001,0.045,-0.038,-10.896,100.837,3.449
16:12:50:478,54.213,0.002,0.053,-0.049,-10.882,99.884,4.492
16:12:50:653,54.388,0.007,0.089,-0.096,-10.823,99.424,6.222
16:12:50:653,54.389,0.033,0.098,-0.124,-10.715,98.538,7.525
16:12:50:76,54.496,0.026,0.144,-0.180,-10.486,98.172,9.769
16:12:50:761,54.497,0.003,0.202,-0.214,-10.337,97.580,11.444
16:12:50:762,54.497,-0.088,0.299,-0.252,-10.003,97.372,14.272
16:12:50:862,54.597,-0.043,0.307,-0.420,-9.544,96.405,17.602
16:12:50:893,54.629,-0.044,0.266,-0.620,-9.113,95.546,20.104
16:12:50:894,54.630,-0.116,0.236,-0.936,-8.325,93.322,24.379
16:12:50:895,54.630,-0.238,0.220,-0.703,-7.686,91.955,27.666
16:12:50:896,54.631,-0.117,0.505,-0.391,-7.325,90.169,33.220
16:12:50:939,54.674,-0.214,0.049,-0.678,-6.062,88.331,38.815
16:12:50:997,54.732,-0.181,-0.345,-0.757,-4.738,86.998,41.889
16:12:50:998,54.733,0.063,-0.795,0.157,-2.853,85.337,45.449
16:12:50:999,54.734,-0.005,-1.022,-0.354,-1.153,83.632,46.629
16:12:51:02,54.756,0.117,-0.755,-0.504,0.854,82.344,46.091
16:12:51:021,54.756,0.062,-0.993,-0.464,0.852,82.057,44.793
16:12:51:13,54.865,-0.010,-0.776,-0.428,-1.007,82.996,41.975
16:12:51:131,54.866,-0.036,-0.503,-0.302,-3.745,84.720,37.633
16:12:51:132,54.867,-0.043,-0.413,-0.334,-5.150,85.775,33.771
16:12:51:132,54.867,-0.044,-0.260,-0.418,-6.324,86.787,26.726
16:12:51:157,54.892,-0.016,0.051,-0.368,-6.605,87.029,21.445
16:12:51:157,54.892,0.094,0.212,-0.328,-6.703,86.943,13.057
16:12:51:158,54.893,0.152,0.453,-0.235,-6.753,86.557,7.157
16:12:51:158,54.894,0.192,0.836,0.061,-7.189,85.933,-2.243
16:12:51:261,54.996,0.115,0.925,0.751,-7.961,85.001,-11.627
16:12:51:262,54.997,-0.133,0.699,1.431,-8.354,84.933,-17.320
16:12:51:262,54.998,-0.068,0.097,1.672,-8.806,85.938,-24.160
16:12:51:263,54.999,0.036,-0.549,1.648,-9.461,87.239,-28.425
16:12:51:369,55.104,0.140,-0.376,1.703,-9.137,89.255,-29.010
16:12:51:369,55.104,0.268,1.035,-1.161,-7.656,93.493,-26.369
16:12:51:369,55.104,0.476,-0.321,1.018,-6.856,95.352,-25.130
16:12:51:37,55.105,0.252,0.252,0.601,-6.764,96.920,-21.823
16:12:51:42,55.155,-0.193,0.225,0.124,-7.196,96.870,-20.157
16:12:51:42,55.155,0.188,-0.126,0.172,-7.315,97.515,-17.916
16:12:51:42,55.156,0.039,0.008,0.155,-7.513,97.448,-16.132
16:12:51:421,55.156,-0.025,-0.024,0.061,-7.840,97.144,-15.324
16:12:51:523,55.259,0.066,-0.002,0.088,-8.200,97.054,-14.548
16:12:51:524,55.260,-0.017,-0.006,-0.036,-8.552,97.246,-14.320
16:12:51:525,55.261,-0.166,0.053,-0.170,-9.159,97.185,-13.831
16:12:51:526,55.261,-0.017,-0.001,0.014,-9.365,96.494,-12.523
16:12:51:543,55.279,0.066,0.001,0.032,-9.270,95.885,-11.449
16:12:51:544,55.280,-0.007,-0.001,-0.061,-9.293,94.982,-9.815
16:12:51:656,55.391,-0.073,-0.006,-0.009,-9.306,94.524,-8.657
16:12:51:656,55.392,-0.024,-0.005,-0.025,-9.137,93.928,-6.801
16:12:51:657,55.393,-0.010,-0.017,-0.023,-8.998,93.564,-5.529
16:12:51:658,55.393,-0.029,-0.026,-0.012,-8.835,93.318,-3.639
16:12:51:753,55.489,-0.011,-0.012,-0.018,-8.803,93.314,-1.872
16:12:51:786,55.522,0.036,0.010,-0.020,-8.841,93.354,-0.778
16:12:51:787,55.522,0.023,0.042,-0.019,-8.941,93.552,0.947
16:12:51:788,55.523,-0.055,0.058,-0.014,-9.001,93.593,2.165
16:12:51:789,55.524,-0.025,0.051,-0.020,-9.074,93.538,4.103
16:12:51:833,55.569,0.011,0.089,-0.047,-9.033,93.286,6.139
16:12:51:834,55.569,0.040,0.135,-0.109,-8.933,92.913,7.549
16:12:51:858,55.594,0.086,0.137,-0.151,-8.789,92.343,9.780
16:12:51:859,55.595,-0.025,0.248,-0.207,-8.701,92.079,11.388
16:12:51:882,55.617,-0.066,0.309,-0.304,-8.456,91.862,14.113
16:12:51:937,55.672,-0.053,0.302,-0.466,-8.168,91.532,16.209
16:12:51:993,55.728,-0.077,0.268,-0.656,-7.625,90.704,19.778
16:12:51:994,55.729,-0.107,0.152,-0.882,-7.091,89.369,23.981
16:12:51:995,55.730,-0.130,0.217,-0.543,-6.840,88.483,27.232
16:12:52:013,55.748,-0.070,0.475,-0.331,-6.695,86.967,32.702
16:12:52:207,55.942,-0.267,0.223,-0.605,-6.112,85.792,36.446
16:12:52:207,55.942,-0.122,-0.377,-0.536,-4.592,84.301,41.124
16:12:52:208,55.943,-0.108,-0.711,0.046,-2.870,82.828,44.695
16:12:52:208,55.943,-0.181,-0.734,-0.596,-1.148,81.956,46.026
16:12:52:312,56.047,0.135,-0.748,-0.450,0.442,81.826,45.897
16:12:52:312,56.048,0.007,-0.832,-0.404,0.585,82.731,44.991
16:12:52:313,56.049,-0.086,-0.603,-0.394,-0.545,84.745,42.744
16:12:52:414,56.149,-0.147,-0.398,-0.316,-3.137,89.637,35.985
16:12:52:415,56.150,-0.200,-0.188,-0.333,-3.837,92.276,30.317
16:12:52:415,56.151,-0.189,-0.070,-0.280,-3.919,93.775,26.036
16:12:52:435,56.170,-0.190,-0.026,-0.282,-3.867,95.673,19.120
16:12:52:513,56.249,-0.194,0.162,-0.210,-3.883,96.817,14.151
16:12:52:6,56.336,-0.209,0.310,-0.145,-4.158,98.638,6.068
16:12:52:601,56.336,-0.188,0.634,0.216,-4.740,100.403,-2.709
16:12:52:602,56.337,-0.048,0.731,0.798,-5.206,101.425,-8.810
16:12:52:602,56.338,0.071,0.552,1.063,-6.166,101.655,-17.662
16:12:52:627,56.362,0.654,0.320,1.507,-7.037,101.165,-22.852
16:12:52:627,56.362,0.494,-0.447,2.110,-7.406,101.921,-28.305
16:12:52:628,56.363,0.796,-0.590,1.797,-7.372,103.733,-29.933
16:12:52:629,56.364,0.308,1.659,-1.394,-6.663,105.835,-28.228
16:12:52:705,56.440,0.357,0.203,0.303,-6.301,107.292,-25.504
16:12:52:707,56.442,-0.656,0.321,0.422,-6.903,107.311,-23.305
16:12:52:707,56.442,-0.421,0.155,0.252,-7.843,107.282,-20.983
16:12:52:708,56.443,0.169,-0.111,0.165,-7.734,107.738,-19.600
16:12:52:725,56.461,0.073,-0.017,0.142,-7.704,107.749,-17.895
16:12:52:726,56.461,0.058,0.006,0.060,-8.037,107.547,-16.759
16:12:52:778,56.513,0.046,0.000,-0.012,-8.297,107.654,-16.176
16:12:52:779,56.514,-0.162,0.028,-0.085,-8.919,107.742,-15.241
16:12:52:8,56.536,-0.026,0.003,0.061,-9.214,107.444,-14.273
16:12:52:827,56.562,0.079,0.005,0.015,-9.154,106.492,-12.491
16:12:52:88,56.616,0.007,0.001,-0.049,-9.169,105.652,-10.735
16:12:52:908,56.643,-0.049,-0.003,0.014,-9.156,105.345,-9.447
16:12:52:964,56.699,0.009,-0.013,0.021,-9.049,104.706,-7.394
16:12:52:965,56.700,-0.023,-0.052,-0.028,-8.953,104.296,-6.040
16:12:52:965,56.700,-0.016,0.004,0.028,-8.883,104.026,-4.134
16:12:52:984,56.720,0.023,-0.002,0.053,-8.900,103.905,-2.544
16:12:53:069,56.805,0.012,-0.008,-0.001,-8.934,103.827,-1.643
16:12:53:07,56.806,0.000,0.005,0.005,-8.980,103.819,-0.375
16:12:53:071,56.807,-0.008,0.028,0.011,-9.015,103.425,0.496
16:12:53:176,56.912,-0.029,0.037,-0.032,-9.044,103.255,1.920
16:12:53:177,56.913,-0.004,0.091,-0.068,-8.981,102.647,3.011
16:12:53:178,56.914,0.034,0.105,-0.084,-8.842,102.189,4.891
16:12:53:179,56.914,0.039,0.127,-0.155,-8.664,101.655,6.981
16:12:53:362,57.097,0.005,0.180,-0.151,-8.492,101.545,8.531
16:12:53:362,57.098,-0.099,0.255,-0.144,-8.062,100.880,11.125
16:12:53:363,57.099,-0.098,0.266,-0.257,-7.631,100.446,13.063
16:12:53:364,57.099,-0.010,0.249,-0.496,-6.784,99.074,16.238
16:12:53:413,57.148,-0.084,0.246,-0.788,-5.796,97.629,19.839
16:12:53:413,57.148,-0.227,0.148,-0.788,-5.110,96.884,22.630
16:12:53:414,57.149,-0.169,0.419,-0.304,-4.367,96.020,27.628
16:12:53:459,57.195,-0.293,0.389,-0.424,-4.164,95.590,31.446
16:12:53:746,57.482,-0.306,0.088,-0.645,-3.533,95.292,37.073
16:12:53:782,57.518,-0.258,-0.395,-0.538,-3.111,95.326,40.358
16:12:53:783,57.518,-0.072,-0.843,-0.093,-2.693,95.590,44.282
16:12:53:783,57.519,-0.282,-0.942,-0.412,-1.503,96.665,46.099
16:12:53:784,57.520,-0.115,-0.648,-0.437,-1.217,98.436,45.846
16:12:53:855,57.590,-0.261,-0.769,-0.345,-1.521,101.943,44.522
16:12:53:855,57.590,-0.340,-0.633,-0.313,-1.777,104.629,42.833
16:12:53:913,57.648,-0.485,-0.443,-0.256,-1.953,109.054,39.082
16:12:53:914,57.649,-0.559,-0.345,-0.182,-1.600,113.526,34.203
16:12:53:914,57.649,-0.581,-0.150,-0.095,-1.203,116.358,30.423
16:12:53:915,57.650,-0.626,0.008,-0.022,-0.522,120.221,24.085
16:12:53:967,57.702,-0.583,0.063,0.052,-0.216,122.685,19.541
16:12:53:967,57.702,-0.626,0.125,0.088,-0.182,126.461,12.340
16:12:53:967,57.702,-0.476,0.425,0.338,-0.368,128.923,7.207
16:12:53:967,57.702,-0.279,0.631,0.510,-1.096,132.247,-1.002
16:12:54:018,57.753,0.188,0.687,0.843,-2.052,134.113,-9.765
16:12:54:018,57.754,0.508,0.590,1.240,-2.973,134.942,-15.386
16:12:54:019,57.755,1.036,0.145,1.207,-4.130,135.894,-22.351
16:12:54:02,57.756,1.143,-0.306,1.463,-4.249,137.162,-25.431
16:12:54:07,57.805,1.652,-0.469,1.225,-3.599,141.208,-27.731
16:12:54:071,57.806,-0.428,1.195,-1.600,-2.800,145.308,-25.807
16:12:54:118,57.853,-0.348,0.357,0.084,-3.944,149.743,-20.696
16:12:54:118,57.853,0.397,-0.131,0.145,-3.949,151.649,-19.242
16:12:54:149,57.884,-0.058,0.008,0.010,-4.151,151.885,-17.758
16:12:54:15,57.885,-0.030,0.030,-0.011,-4.514,151.664,-16.881
16:12:54:15,57.886,0.091,-0.009,-0.018,-4.765,152.046,-15.748
