Time,Second,AccelerationX,AccelerationY,AccelerationZ,EulerAnglesX,EulerAnglesY,EulerAnglesZ
16:11:56:268,0.000,-0.019,0.005,0.016,12.732,40.489,19.095
16:11:56:294,0.026,-0.027,0.003,0.017,12.738,40.439,19.179
16:11:56:379,0.111,-0.023,0.001,0.016,12.761,40.323,19.239
16:11:56:38,0.112,-0.020,-0.004,0.013,12.835,40.140,19.323
16:11:56:381,0.113,-0.018,-0.008,0.014,12.893,39.913,19.349
16:11:56:4,0.131,-0.023,-0.004,-0.001,12.949,39.578,19.350
16:11:56:426,0.158,-0.016,-0.003,0.015,12.975,39.323,19.337
16:11:56:452,0.184,-0.022,-0.007,0.012,13.030,38.905,19.275
16:11:56:478,0.210,-0.023,-0.012,0.026,13.084,38.458,19.230
16:11:56:531,0.263,-0.029,-0.010,0.023,13.114,38.157,19.218
16:11:56:561,0.293,-0.029,-0.002,0.014,13.157,37.615,19.201
16:11:56:561,0.293,-0.031,-0.004,0.007,13.171,37.225,19.188
16:11:56:584,0.315,-0.030,-0.002,0.007,13.169,36.541,19.157
16:11:56:668,0.400,-0.020,-0.016,0.009,13.170,35.830,19.119
16:11:56:668,0.400,-0.017,-0.017,0.009,13.181,35.208,19.081
16:11:56:669,0.401,-0.014,-0.019,0.008,13.180,34.395,19.010
16:11:56:718,0.449,-0.014,-0.025,0.002,13.183,33.629,18.948
16:11:56:718,0.450,-0.007,-0.036,0.007,13.183,32.832,18.859
16:11:56:741,0.473,-0.012,-0.041,-0.012,13.170,32.031,18.810
16:11:56:767,0.499,-0.004,-0.021,-0.022,13.117,31.528,18.791
16:11:56:795,0.526,-0.001,-0.015,-0.033,13.023,30.704,18.762
16:11:56:82,0.551,0.010,0.017,-0.021,12.944,30.215,18.721
16:11:56:846,0.578,0.005,0.029,0.002,12.824,29.419,18.612
16:11:56:873,0.604,-0.011,0.009,0.033,12.755,28.617,18.493
16:11:56:898,0.630,-0.024,-0.004,0.028,12.723,28.219,18.413
16:11:56:954,0.686,-0.043,-0.003,0.035,12.684,27.453,18.241
16:11:56:955,0.687,-0.053,-0.012,0.018,12.653,26.883,18.166
16:11:56:977,0.709,-0.044,-0.013,0.011,12.596,25.790,18.123
16:11:57:004,0.735,-0.044,-0.014,-0.009,12.564,25.122,18.067
16:11:57:031,0.763,-0.030,-0.014,-0.014,12.500,24.114,17.996
16:11:57:057,0.788,-0.027,-0.019,-0.028,12.441,23.098,17.899
16:11:57:082,0.814,-0.015,-0.026,-0.025,12.392,22.413,17.839
16:11:57:109,0.841,0.001,-0.024,-0.031,12.318,21.391,17.761
16:11:57:164,0.896,-0.005,-0.020,-0.030,12.250,20.749,17.718
16:11:57:164,0.896,0.010,-0.021,-0.021,12.159,19.855,17.674
16:11:57:188,0.920,0.026,-0.011,-0.019,12.084,19.028,17.661
16:11:57:213,0.945,0.029,-0.015,-0.017,12.034,18.516,17.644
16:11:57:269,1.001,0.034,-0.012,0.000,11.952,17.838,17.584
16:11:57:269,1.001,0.027,0.000,0.017,11.889,17.458,17.551
16:11:57:294,1.026,0.022,-0.001,0.018,11.817,16.979,17.541
16:11:57:347,1.079,0.014,0.001,0.018,11.785,16.692,17.564
16:11:57:371,1.102,-0.008,-0.006,0.009,11.719,15.955,17.711
16:11:57:397,1.129,-0.011,-0.017,0.007,11.693,15.676,17.750
16:11:57:452,1.184,-0.010,-0.017,0.003,11.666,15.198,17.794
16:11:57:453,1.185,-0.004,-0.008,-0.008,11.645,14.864,17.818
16:11:57:504,1.235,0.001,-0.010,-0.008,11.627,14.387,17.859
16:11:57:531,1.263,0.004,-0.010,-0.021,11.587,13.989,17.953
16:11:57:532,1.264,0.007,-0.009,-0.019,11.565,13.763,18.050
16:11:57:555,1.287,0.017,-0.006,-0.026,11.529,13.412,18.212
16:11:57:581,1.313,0.027,-0.006,-0.022,11.495,13.175,18.303
16:11:57:607,1.339,0.015,-0.011,-0.017,11.418,12.829,18.376
16:11:57:633,1.365,0.007,-0.011,0.007,11.342,12.491,18.399
16:11:57:689,1.421,0.003,-0.019,0.005,11.300,12.287,18.411
16:11:57:691,1.422,0.009,-0.024,-0.001,11.242,12.054,18.424
16:11:57:712,1.444,0.014,-0.035,-0.014,11.192,11.960,18.465
16:11:57:739,1.471,0.015,-0.042,-0.026,11.078,11.925,18.581
16:11:57:823,1.555,0.018,-0.036,-0.034,10.966,12.007,18.714
16:11:57:823,1.555,0.004,-0.029,-0.027,10.736,12.175,18.921
16:11:57:825,1.557,0.011,-0.009,-0.025,10.449,12.337,19.126
16:11:57:902,1.634,0.013,0.008,-0.016,10.247,12.420,19.245
16:11:57:902,1.634,0.021,0.035,-0.013,9.945,12.463,19.421
16:11:57:903,1.635,0.016,0.049,0.018,9.762,12.453,19.539
16:11:57:922,1.654,0.013,0.031,0.030,9.551,12.336,19.671
16:11:57:948,1.680,-0.003,0.008,0.038,9.381,12.170,19.762
16:11:58:004,1.735,-0.011,0.018,0.040,9.302,12.075,19.813
16:11:58:005,1.736,-0.016,0.007,0.033,9.342,11.828,19.852
16:11:58:116,1.848,0.004,-0.012,0.008,9.429,11.529,19.793
16:11:58:116,1.848,0.010,-0.018,-0.002,9.595,10.990,19.593
16:11:58:117,1.849,0.000,-0.023,-0.028,9.734,10.591,19.402
16:11:58:118,1.850,-0.011,-0.013,-0.040,9.801,10.379,19.281
16:11:58:164,1.896,-0.008,-0.006,-0.038,9.835,9.955,19.030
16:11:58:165,1.897,-0.012,-0.006,-0.043,9.806,9.614,18.806
16:11:58:166,1.898,-0.020,-0.014,-0.024,9.721,9.118,18.413
16:11:58:291,2.023,-0.037,-0.013,-0.018,9.650,8.690,18.036
16:11:58:325,2.057,-0.043,-0.017,-0.007,9.587,8.448,17.846
16:11:58:326,2.058,-0.052,-0.025,0.001,9.495,8.152,17.709
16:11:58:327,2.059,-0.047,-0.023,0.010,9.437,7.979,17.699
16:11:58:328,2.059,-0.051,-0.009,0.007,9.393,7.759,17.789
16:11:58:342,2.074,-0.030,-0.008,0.011,9.382,7.573,17.845
16:11:58:371,2.103,-0.014,-0.010,0.001,9.395,7.197,17.867
16:11:58:372,2.104,0.000,-0.016,0.004,9.406,6.839,17.861
16:11:58:424,2.156,-0.001,-0.011,-0.004,9.406,6.596,17.856
16:11:58:424,2.156,0.010,-0.011,0.001,9.407,6.178,17.821
16:11:58:476,2.208,0.012,-0.011,-0.005,9.406,5.889,17.769
16:11:58:477,2.209,0.011,-0.005,0.005,9.386,5.509,17.704
16:11:58:5,2.232,0.008,-0.007,0.002,9.366,5.186,17.649
16:11:58:525,2.257,0.001,-0.005,0.006,9.355,5.014,17.620
16:11:58:61,2.342,-0.005,-0.004,0.001,9.331,4.778,17.580
16:11:58:611,2.343,-0.007,-0.014,0.006,9.316,4.622,17.559
16:11:58:612,2.344,-0.009,-0.016,-0.002,9.314,4.402,17.531
16:11:58:66,2.392,-0.010,-0.014,-0.001,9.307,4.257,17.530
16:11:58:66,2.392,-0.008,-0.025,-0.002,9.307,4.035,17.524
16:11:58:684,2.416,-0.002,-0.015,-0.003,9.308,3.790,17.530
16:11:58:71,2.441,0.003,-0.007,-0.014,9.295,3.656,17.532
16:11:58:795,2.527,0.002,0.001,-0.013,9.270,3.468,17.527
16:11:58:796,2.528,0.008,-0.002,0.000,9.260,3.360,17.522
16:11:58:796,2.528,0.006,-0.001,0.001,9.252,3.183,17.509
16:11:58:843,2.575,0.008,-0.007,0.005,9.255,3.009,17.513
16:11:58:844,2.576,0.000,-0.001,0.006,9.266,2.910,17.527
16:11:58:896,2.628,0.007,0.002,0.005,9.299,2.804,17.575
16:11:58:897,2.629,0.007,-0.009,-0.003,9.326,2.760,17.632
16:11:58:978,2.710,0.014,-0.009,0.004,9.382,2.720,17.756
16:11:58:978,2.710,0.013,-0.009,-0.003,9.456,2.662,17.902
16:11:58:979,2.711,0.012,-0.010,0.001,9.505,2.593,17.976
16:11:59:086,2.818,0.013,-0.019,-0.010,9.573,2.421,18.007
16:11:59:087,2.819,0.011,-0.020,-0.001,9.619,2.275,17.985
16:11:59:087,2.819,-0.003,-0.006,-0.006,9.671,1.991,17.916
16:11:59:131,2.862,-0.013,0.015,-0.002,9.777,1.355,17.698
16:11:59:159,2.891,-0.006,-0.001,0.005,9.886,0.934,17.564
16:11:59:159,2.891,0.003,-0.023,0.000,9.981,0.672,17.507
16:11:59:209,2.940,-0.009,-0.006,-0.007,10.067,0.502,17.574
16:11:59:236,2.968,-0.004,-0.016,-0.023,10.100,0.511,17.728
16:11:59:264,2.995,0.005,-0.021,-0.020,10.166,0.546,18.041
16:11:59:265,2.996,0.019,-0.019,-0.030,10.196,0.627,18.396
16:11:59:287,3.019,0.027,-0.016,-0.026,10.192,0.677,18.607
16:11:59:313,3.045,0.034,-0.024,-0.026,10.155,0.730,18.806
16:11:59:34,3.072,0.037,-0.025,-0.019,10.105,0.770,18.881
16:11:59:454,3.186,0.037,-0.022,-0.015,10.011,0.838,18.908
16:11:59:454,3.186,0.040,-0.027,-0.001,9.970,0.885,18.899
16:11:59:455,3.187,0.048,-0.028,-0.002,9.913,0.974,18.833
16:11:59:455,3.187,0.043,-0.015,0.006,9.836,1.169,18.735
16:11:59:471,3.203,0.023,-0.005,0.003,9.765,1.375,18.705
16:11:59:497,3.229,0.007,-0.004,0.013,9.651,1.697,18.703
16:11:59:523,3.255,-0.005,-0.009,0.025,9.582,1.894,18.671
16:11:59:579,3.311,-0.017,-0.015,0.024,9.521,2.198,18.641
16:11:59:58,3.311,-0.022,-0.010,0.016,9.499,2.422,18.608
16:11:59:602,3.334,-0.016,-0.014,0.010,9.512,2.516,18.565
16:11:59:629,3.361,-0.018,-0.012,0.002,9.507,2.649,18.489
16:11:59:685,3.417,-0.021,-0.012,-0.013,9.498,2.769,18.451
16:11:59:685,3.417,-0.021,-0.003,-0.008,9.454,2.969,18.449
16:11:59:707,3.439,-0.022,-0.003,-0.012,9.410,3.126,18.470
16:11:59:733,3.465,-0.023,-0.009,-0.002,9.367,3.224,18.491
16:11:59:76,3.492,-0.028,-0.012,-0.005,9.305,3.393,18.574
16:11:59:871,3.603,-0.018,-0.011,0.002,9.274,3.504,18.647
16:11:59:872,3.604,-0.002,-0.009,-0.001,9.239,3.574,18.740
16:11:59:873,3.605,0.005,-0.009,0.008,9.213,3.614,18.789
16:11:59:952,3.683,0.007,-0.001,0.006,9.175,3.684,18.848
16:11:59:953,3.684,0.004,-0.002,0.014,9.149,3.798,18.913
16:11:59:954,3.685,0.010,-0.003,0.007,9.131,3.875,18.968
16:11:59:954,3.686,0.008,-0.004,0.007,9.103,3.995,19.052
16:12:00:137,3.869,0.004,-0.005,-0.004,9.074,4.073,19.100
16:12:00:138,3.869,-0.003,-0.009,0.002,9.038,4.202,19.164
16:12:00:139,3.871,-0.007,-0.011,-0.009,9.005,4.272,19.185
16:12:00:139,3.871,-0.008,-0.011,-0.010,8.999,4.282,19.188
16:12:00:243,3.975,0.005,-0.008,-0.017,8.976,4.243,19.146
16:12:00:243,3.975,-0.002,-0.007,-0.006,8.955,4.173,19.087
16:12:00:244,3.976,-0.005,-0.003,-0.016,8.923,4.101,18.999
16:12:00:244,3.976,-0.010,-0.007,-0.006,8.900,4.058,18.947
16:12:00:268,4.000,-0.008,-0.004,-0.015,8.867,4.022,18.882
16:12:00:269,4.000,-0.019,-0.004,-0.006,8.830,4.030,18.853
16:12:00:269,4.000,-0.008,-0.009,-0.007,8.826,4.028,18.856
16:12:00:269,4.001,0.001,-0.013,-0.009,8.821,4.029,18.858
16:12:00:317,4.049,0.010,-0.015,-0.004,8.817,4.023,18.877
16:12:00:317,4.049,0.010,-0.014,-0.003,8.800,4.070,18.915
16:12:00:318,4.050,0.012,-0.015,0.001,8.770,4.156,18.964
16:12:00:423,4.155,0.006,-0.014,0.007,8.738,4.390,19.082
16:12:00:423,4.155,0.002,-0.011,0.008,8.737,4.526,19.138
16:12:00:423,4.155,0.002,-0.007,0.018,8.742,4.780,19.266
16:12:00:443,4.175,0.005,-0.013,0.011,8.763,4.974,19.370
16:12:00:47,4.201,-0.004,-0.007,0.009,8.776,5.278,19.522
16:12:00:494,4.226,0.001,0.003,-0.001,8.771,5.605,19.682
16:12:00:521,4.253,0.002,-0.009,0.015,8.776,5.796,19.781
16:12:00:604,4.335,0.000,-0.011,0.014,8.799,6.058,19.906
16:12:00:604,4.335,0.003,-0.009,0.022,8.813,6.232,19.996
16:12:00:629,4.361,0.000,-0.009,0.019,8.837,6.522,20.136
16:12:00:629,4.361,0.000,-0.008,0.028,8.862,6.811,20.288
16:12:00:652,4.384,0.006,-0.011,0.017,8.882,7.000,20.405
16:12:00:678,4.410,0.010,-0.014,0.020,8.882,7.298,20.590
16:12:00:705,4.437,0.011,-0.021,0.020,8.871,7.464,20.707
16:12:00:731,4.462,-0.006,-0.020,0.019,8.825,7.683,20.847
16:12:00:786,4.518,-0.025,-0.015,0.020,8.797,7.839,20.933
16:12:00:787,4.519,0.000,-0.014,0.027,8.799,7.812,20.926
16:12:00:839,4.571,-0.002,-0.010,0.016,8.813,7.741,20.870
16:12:00:839,4.571,0.003,-0.002,0.016,8.808,7.677,20.826
16:12:00:862,4.594,-0.009,0.007,0.004,8.781,7.650,20.769
16:12:00:889,4.621,0.003,0.007,0.006,8.748,7.619,20.721
16:12:00:914,4.646,-0.003,0.004,0.003,8.706,7.597,20.701
16:12:00:941,4.673,0.011,-0.001,0.003,8.676,7.543,20.709
16:12:00:967,4.699,0.019,-0.008,-0.003,8.666,7.496,20.714
16:12:00:994,4.726,0.026,-0.018,-0.003,8.611,7.507,20.718
16:12:01:02,4.751,0.022,-0.028,-0.015,8.550,7.539,20.716
16:12:01:075,4.807,0.026,-0.028,-0.025,8.435,7.571,20.674
16:12:01:076,4.808,0.029,-0.030,-0.028,8.288,7.603,20.608
16:12:01:099,4.831,0.028,-0.030,-0.029,8.174,7.640,20.538
16:12:01:154,4.886,0.028,-0.015,-0.028,7.999,7.741,20.398
16:12:01:155,4.887,0.026,-0.005,-0.039,7.879,7.841,20.289
16:12:01:207,4.938,0.027,-0.001,-0.032,7.675,8.028,20.118
16:12:01:208,4.939,0.027,-0.010,-0.038,7.522,8.194,19.995
16:12:01:231,4.963,0.025,-0.012,-0.027,7.257,8.570,19.826
16:12:01:256,4.988,0.011,-0.030,-0.029,7.003,9.043,19.665
16:12:01:282,5.014,0.008,-0.039,-0.018,6.833,9.373,19.546
16:12:01:338,5.069,-0.002,-0.037,-0.026,6.594,9.882,19.298
16:12:01:338,5.070,-0.005,-0.027,-0.017,6.445,10.224,19.083
16:12:01:39,5.122,-0.018,-0.007,-0.026,6.223,10.717,18.660
16:12:01:391,5.123,-0.029,0.009,-0.020,5.997,11.202,18.136
16:12:01:415,5.147,-0.038,0.009,-0.023,5.847,11.525,17.745
16:12:01:469,5.200,-0.060,0.007,-0.014,5.586,12.015,17.161
16:12:01:47,5.201,-0.085,0.004,-0.005,5.376,12.310,16.805
16:12:01:493,5.225,-0.085,-0.006,0.008,5.052,12.657,16.363
16:12:01:518,5.250,-0.097,-0.012,0.007,4.748,12.789,15.962
16:12:01:574,5.306,-0.098,-0.005,0.020,4.569,12.796,15.695
16:12:01:575,5.307,-0.110,0.001,0.023,4.352,12.698,15.287
16:12:01:599,5.331,-0.113,0.009,0.034,4.258,12.563,15.021
16:12:01:624,5.356,-0.111,0.009,0.035,4.175,12.295,14.617
16:12:01:65,5.381,-0.119,0.025,0.025,4.148,12.134,14.367
16:12:01:676,5.408,-0.122,0.033,0.027,4.101,11.983,14.115
16:12:01:761,5.493,-0.116,0.048,0.030,4.131,11.446,14.053
16:12:01:761,5.493,-0.109,0.056,0.026,4.189,11.423,14.133
16:12:01:762,5.494,-0.089,0.071,0.026,4.350,11.129,14.411
16:12:01:781,5.513,-0.071,0.064,0.013,4.490,11.231,14.674
16:12:01:865,5.597,-0.054,0.067,0.005,4.758,11.465,15.101
16:12:01:866,5.598,-0.042,0.090,0.001,5.072,11.983,15.566
16:12:01:867,5.599,-0.027,0.098,-0.010,5.319,12.274,15.860
16:12:01:886,5.618,-0.012,0.068,-0.021,5.720,13.048,16.385
16:12:02:053,5.785,-0.013,0.028,-0.034,5.969,13.513,16.790
16:12:02:054,5.786,-0.019,0.011,-0.033,6.329,14.532,17.490
16:12:02:054,5.786,-0.031,-0.011,-0.036,6.611,15.458,18.264
16:12:02:055,5.787,-0.009,-0.030,-0.035,6.805,15.928,18.763
16:12:02:132,5.864,0.013,0.023,-0.078,7.075,16.215,19.388
16:12:02:132,5.864,0.035,0.093,-0.074,7.206,16.328,19.668
16:12:02:133,5.865,0.055,-0.029,-0.064,7.336,15.960,19.816
16:12:02:176,5.908,0.009,-0.198,-0.006,7.208,15.643,20.317
16:12:02:207,5.938,0.068,-0.064,-0.015,7.229,14.964,21.280
16:12:02:207,5.939,0.166,0.032,-0.044,7.485,14.386,22.071
16:12:02:208,5.940,0.338,0.077,0.059,8.565,13.239,23.128
16:12:02:256,5.988,0.482,0.011,0.045,9.482,12.974,23.706
16:12:02:257,5.989,0.412,-0.015,0.052,9.899,14.631,25.270
16:12:02:367,6.099,0.340,-0.067,0.079,9.626,17.955,27.184
16:12:02:368,6.100,0.262,-0.079,0.055,9.206,20.292,28.469
16:12:02:385,6.117,0.152,-0.156,0.042,8.100,26.404,31.810
16:12:02:438,6.170,0.110,-0.149,0.036,7.633,27.771,32.349
16:12:02:499,6.231,0.098,-0.154,0.009,6.825,30.025,32.936
16:12:02:499,6.231,0.095,-0.165,-0.021,5.999,31.958,33.166
16:12:02:5,6.232,0.083,-0.166,-0.031,5.521,33.157,33.071
16:12:02:501,6.233,0.108,-0.139,-0.049,4.997,34.304,32.464
16:12:02:575,6.307,0.107,-0.171,-0.031,4.725,34.917,31.746
16:12:02:576,6.308,0.073,-0.132,0.011,4.035,35.887,30.350
16:12:02:576,6.308,0.079,-0.106,0.045,2.949,37.266,28.722
16:12:02:651,6.382,0.004,0.043,0.149,1.926,38.109,27.656
16:12:02:651,6.383,0.124,0.218,0.206,0.370,40.205,25.859
16:12:02:735,6.467,0.124,0.258,0.177,-0.604,41.838,24.668
16:12:02:736,6.468,0.119,0.310,0.195,-1.882,45.157,22.782
16:12:02:736,6.468,0.023,0.307,0.207,-3.078,48.057,20.788
16:12:02:84,6.572,-0.212,0.189,0.313,-3.596,47.403,18.095
16:12:02:84,6.572,-0.082,0.036,0.103,-2.605,44.156,17.368
16:12:02:841,6.573,-0.163,-0.160,0.127,-0.952,38.059,16.594
16:12:02:842,6.574,-0.065,-0.190,0.095,0.173,33.415,16.350
16:12:02:973,6.705,-0.012,-0.094,0.047,1.820,26.190,16.418
16:12:02:973,6.705,-0.028,0.009,0.013,3.470,19.619,16.732
16:12:02:973,6.705,-0.014,0.072,-0.039,4.625,15.741,16.887
16:12:02:974,6.706,0.022,0.091,-0.077,6.355,10.537,17.004
16:12:02:991,6.723,0.060,0.075,-0.097,7.529,7.872,17.034
16:12:02:992,6.724,0.074,0.059,-0.098,9.240,5.047,17.212
16:12:03:015,6.746,0.095,0.012,-0.113,10.742,3.937,17.878
16:12:03:041,6.773,0.089,0.004,-0.121,11.575,4.108,18.723
16:12:03:094,6.826,0.088,-0.021,-0.164,12.563,5.481,20.618
16:12:03:15,6.881,0.080,-0.029,-0.177,13.066,6.807,22.207
16:12:03:151,6.882,0.106,-0.050,-0.210,13.705,8.885,24.860
16:12:03:175,6.907,0.142,-0.058,-0.219,14.118,10.184,26.702
16:12:03:176,6.908,0.187,-0.067,-0.236,14.119,11.700,28.808
16:12:03:201,6.932,0.218,-0.103,-0.235,14.369,13.120,30.928
16:12:03:225,6.957,0.235,-0.122,-0.238,14.651,14.135,32.414
16:12:03:281,7.013,0.256,-0.112,-0.215,14.844,15.664,34.329
16:12:03:281,7.013,0.266,-0.126,-0.180,14.882,16.592,35.356
16:12:03:334,7.065,0.280,-0.113,-0.185,14.932,17.666,36.420
16:12:03:334,7.065,0.308,-0.074,-0.178,15.057,18.310,36.787
16:12:03:356,7.088,0.354,-0.034,-0.187,15.195,18.526,36.587
16:12:03:411,7.143,0.372,0.006,-0.215,15.250,18.786,35.557
16:12:03:412,7.144,0.384,0.120,-0.251,15.009,19.127,34.379
16:12:03:465,7.197,0.353,0.159,-0.245,14.119,20.037,31.836
16:12:03:465,7.197,0.192,-0.070,-0.143,13.246,20.926,29.723
16:12:03:517,7.249,0.088,-0.196,-0.067,11.625,22.762,26.488
16:12:03:517,7.249,0.039,-0.218,-0.005,9.923,24.564,23.787
16:12:03:54,7.272,0.032,-0.169,-0.002,8.937,25.334,22.335
16:12:03:595,7.327,-0.001,-0.027,-0.037,7.848,25.789,20.389
16:12:03:596,7.328,0.015,0.030,-0.044,7.359,25.753,18.956
16:12:03:618,7.350,0.017,-0.027,-0.032,6.759,25.949,16.499
16:12:03:645,7.376,0.006,0.001,0.054,5.974,27.285,13.839
16:12:03:701,7.432,-0.109,-0.065,0.122,5.318,28.809,12.137
16:12:03:701,7.433,-0.194,-0.072,0.217,4.248,31.136,9.780
16:12:03:753,7.485,-0.219,-0.073,0.246,3.588,32.334,8.423
16:12:03:754,7.486,-0.193,-0.049,0.283,2.712,32.790,6.759
16:12:03:807,7.539,-0.120,-0.038,0.283,1.990,31.982,5.650
16:12:03:807,7.539,-0.105,-0.030,0.294,1.547,31.056,5.250
16:12:03:888,7.620,-0.067,0.021,0.293,0.939,30.116,5.166
16:12:03:888,7.620,-0.048,0.020,0.298,0.561,29.720,5.431
16:12:03:888,7.620,-0.052,0.009,0.315,0.027,29.858,6.236
16:12:03:936,7.668,-0.027,-0.001,0.312,0.542,30.130,7.640
16:12:03:937,7.669,0.001,0.063,0.325,0.932,30.360,9.567
16:12:03:989,7.721,0.083,0.100,0.313,0.739,29.693,10.943
16:12:03:989,7.721,0.147,0.107,0.252,0.900,28.560,11.706
16:12:04:012,7.744,0.254,0.127,0.174,1.533,26.308,12.642
16:12:04:038,7.770,0.254,0.174,0.115,2.006,25.280,13.155
16:12:04:065,7.797,0.195,0.246,0.080,2.602,24.823,13.779
16:12:04:179,7.911,0.085,0.128,0.077,3.194,24.753,14.090
16:12:04:18,7.912,0.017,0.019,0.122,3.693,24.630,14.225
16:12:04:18,7.912,-0.109,-0.076,-0.029,4.757,22.911,14.367
16:12:04:18,7.912,-0.143,-0.067,-0.224,5.842,19.808,14.317
16:12:04:196,7.928,0.263,0.135,-0.246,8.163,12.423,13.862
16:12:04:252,7.984,-0.104,-0.038,-0.263,10.672,6.152,13.554
16:12:04:252,7.984,0.383,0.121,-0.156,12.183,2.185,13.554
16:12:04:304,8.036,0.048,0.054,-0.253,14.165,0.655,14.220
16:12:04:305,8.037,0.397,0.006,-0.135,15.310,-0.113,14.775
16:12:04:465,8.197,0.107,-0.037,-0.101,16.550,2.767,17.175
16:12:04:465,8.197,0.079,-0.018,-0.214,16.759,6.435,19.631
16:12:04:568,8.300,0.040,-0.042,-0.269,16.432,12.777,23.979
16:12:04:569,8.301,0.066,-0.054,-0.300,15.759,18.511,28.477
16:12:04:599,8.331,0.105,-0.060,-0.311,15.275,21.656,31.301
16:12:04:6,8.332,0.131,-0.086,-0.306,14.745,25.199,35.010
16:12:04:601,8.332,0.172,-0.134,-0.288,14.575,26.838,37.025
16:12:04:602,8.333,0.204,-0.191,-0.269,14.451,28.429,39.290
16:12:04:624,8.356,0.224,-0.203,-0.249,14.225,29.567,40.716
16:12:04:625,8.357,0.245,-0.204,-0.244,14.052,30.026,41.235
16:12:04:626,8.358,0.258,-0.189,-0.233,13.824,30.285,41.401
16:12:04:627,8.359,0.270,-0.166,-0.224,13.760,30.190,41.121
16:12:04:756,8.488,0.311,-0.123,-0.227,13.759,29.714,40.099
16:12:04:757,8.489,0.323,-0.083,-0.206,13.552,29.151,38.298
16:12:04:758,8.490,0.320,-0.045,-0.195,13.163,28.855,36.654
16:12:04:759,8.491,0.297,0.042,-0.156,12.169,28.647,33.562
16:12:04:776,8.508,0.297,0.215,-0.097,11.360,28.600,31.078
16:12:04:777,8.509,0.343,0.337,0.075,10.294,28.461,26.800
16:12:04:801,8.532,0.411,0.015,0.070,9.705,28.515,23.722
16:12:04:914,8.646,-0.480,0.183,0.436,8.456,31.920,20.729
16:12:04:915,8.647,0.273,-0.038,0.213,8.538,34.002,19.459
16:12:04:916,8.648,0.321,-0.037,0.241,8.923,36.223,19.832
16:12:04:933,8.665,0.116,0.004,-0.229,9.983,44.053,22.956
16:12:04:935,8.667,0.029,-0.079,-0.301,10.063,50.082,25.602
16:12:04:957,8.689,-0.100,-0.188,-0.287,9.459,56.371,27.951
16:12:04:984,8.716,-0.126,-0.259,-0.198,8.717,60.485,29.159
16:12:05:039,8.770,-0.121,-0.325,-0.103,7.508,65.932,30.180
16:12:05:04,8.771,-0.101,-0.322,-0.096,6.832,68.904,30.346
16:12:05:121,8.853,-0.071,-0.295,-0.115,6.043,72.400,29.892
16:12:05:122,8.854,-0.047,-0.225,-0.125,5.520,74.293,29.176
16:12:05:123,8.855,-0.059,-0.188,-0.114,4.570,76.707,27.545
16:12:05:141,8.873,-0.045,-0.137,-0.065,3.423,78.645,25.275
16:12:05:167,8.899,0.021,-0.022,0.019,2.549,79.741,23.527
16:12:05:248,8.979,0.109,-0.054,0.037,1.289,81.817,20.513
16:12:05:279,9.011,0.233,0.143,0.225,0.474,83.586,18.465
16:12:05:279,9.011,0.405,0.223,0.214,-1.051,86.669,15.628
16:12:05:28,9.012,0.397,0.287,0.453,-2.734,90.870,13.010
16:12:05:299,9.030,0.191,0.203,0.892,-3.540,92.931,11.312
16:12:05:325,9.057,0.242,0.365,-0.360,-4.335,89.163,8.745
16:12:05:352,9.084,0.239,0.468,0.346,-4.436,85.599,7.970
16:12:05:406,9.138,0.222,0.334,0.247,-4.100,81.947,7.497
16:12:05:407,9.139,0.458,0.099,0.081,-3.791,77.245,7.646
16:12:05:459,9.191,0.427,-0.121,0.031,-3.617,75.649,7.757
16:12:05:459,9.191,0.343,-0.281,0.210,-3.469,75.505,7.881
16:12:05:483,9.214,0.187,-0.215,0.276,-3.185,74.994,8.095
16:12:05:508,9.240,0.053,-0.096,0.270,-2.086,71.286,8.576
16:12:05:535,9.267,0.019,0.099,-0.031,-0.945,66.018,8.967
16:12:05:561,9.293,0.091,0.239,-0.054,1.310,55.999,9.141
16:12:05:587,9.319,-0.341,0.386,0.370,3.822,49.192,9.118
16:12:05:642,9.374,0.113,0.019,-0.104,5.664,47.883,9.607
16:12:05:643,9.375,0.003,0.026,0.003,7.784,46.465,10.795
16:12:05:693,9.425,0.084,-0.031,-0.154,9.126,48.948,12.449
16:12:05:721,9.453,-0.002,-0.036,-0.141,10.339,54.048,15.976
16:12:05:722,9.454,-0.120,-0.019,-0.147,10.670,60.950,20.476
16:12:05:745,9.476,-0.158,-0.015,-0.128,10.388,65.640,23.600
16:12:05:771,9.503,-0.145,-0.045,-0.155,9.661,71.694,27.955
16:12:05:797,9.529,-0.104,-0.079,-0.184,9.331,74.619,30.405
16:12:05:824,9.555,-0.021,-0.128,-0.222,9.193,77.842,33.475
16:12:05:877,9.609,0.042,-0.128,-0.255,9.321,79.408,35.112
16:12:05:906,9.638,0.061,-0.182,-0.263,9.929,81.127,36.943
16:12:05:906,9.638,0.095,-0.163,-0.247,10.736,82.266,37.993
16:12:05:929,9.661,0.136,-0.104,-0.277,11.442,82.598,38.264
16:12:06:014,9.746,0.152,-0.049,-0.324,12.821,82.362,38.012
16:12:06:014,9.746,0.142,0.019,-0.405,13.889,81.823,37.416
16:12:06:014,9.746,0.117,-0.001,-0.406,15.336,80.757,35.837
16:12:06:064,9.796,0.069,0.023,-0.389,15.953,79.888,33.489
16:12:06:065,9.797,0.080,0.083,-0.361,15.911,79.538,31.524
16:12:06:086,9.818,0.042,0.156,-0.339,15.461,79.337,28.051
16:12:06:112,9.844,0.019,0.117,-0.246,14.980,79.527,25.468
16:12:06:165,9.897,0.011,-0.131,-0.104,14.081,80.445,21.579
16:12:06:194,9.926,0.007,-0.214,-0.007,13.069,82.246,18.293
16:12:06:194,9.926,-0.012,-0.195,0.001,12.466,83.770,16.610
16:12:06:275,10.007,-0.113,-0.067,-0.030,11.669,86.693,14.865
16:12:06:276,10.008,-0.185,0.020,0.001,11.124,88.827,14.128
16:12:06:277,10.009,-0.183,0.021,0.035,10.149,93.003,13.327
16:12:06:296,10.028,-0.119,-0.004,0.130,9.375,95.722,12.817
16:12:06:322,10.054,-0.054,-0.071,0.194,8.126,99.822,11.821
16:12:06:377,10.109,0.009,-0.145,0.245,6.852,103.015,10.436
16:12:06:378,10.110,0.056,-0.179,0.259,5.994,105.072,9.321
16:12:06:432,10.164,0.094,-0.132,0.257,4.707,106.574,7.528
16:12:06:433,10.165,0.156,-0.072,0.249,3.820,107.310,6.335
16:12:06:454,10.185,0.219,-0.020,0.211,2.488,107.750,4.687
16:12:06:479,10.211,0.316,0.075,0.153,1.217,108.611,3.358
16:12:06:506,10.238,0.370,0.033,0.068,0.481,109.247,2.721
16:12:06:532,10.264,0.432,-0.043,-0.039,-0.517,111.857,2.111
16:12:06:56,10.292,0.567,-0.011,-0.082,-1.159,114.651,1.828
16:12:06:614,10.346,0.781,0.146,0.128,-1.955,120.101,1.458
16:12:06:615,10.347,0.835,0.151,0.170,-2.238,122.734,1.375
16:12:06:666,10.398,0.751,0.170,0.136,-2.242,123.650,1.653
16:12:06:667,10.399,0.530,0.230,0.033,-1.650,121.110,2.276
16:12:06:691,10.423,0.412,0.270,-0.037,-0.991,118.804,2.693
16:12:06:716,10.448,0.326,0.151,-0.053,0.185,116.434,3.129
16:12:06:743,10.475,0.269,-0.162,0.053,0.960,116.016,3.426
16:12:06:798,10.530,0.267,-0.243,0.085,2.014,116.688,4.260
16:12:06:798,10.530,0.261,-0.191,0.147,3.056,117.605,5.754
16:12:06:85,10.582,0.227,-0.036,0.164,3.892,117.895,7.020
16:12:06:851,10.583,0.065,0.106,0.137,5.527,117.574,9.029
16:12:06:873,10.605,-0.087,0.192,0.099,6.770,117.704,10.379
16:12:06:901,10.633,-0.180,0.184,0.069,8.510,118.542,12.572
16:12:06:984,10.716,-0.245,0.119,0.010,9.859,120.822,15.421
16:12:06:985,10.717,-0.261,0.053,-0.002,10.446,122.728,17.804
16:12:06:986,10.718,-0.232,-0.024,0.013,10.738,126.588,21.958
16:12:07:034,10.766,-0.220,-0.071,0.007,10.607,128.484,24.903
16:12:07:035,10.766,-0.229,-0.084,-0.016,10.191,130.463,29.177
16:12:07:057,10.789,-0.277,-0.127,-0.050,9.975,131.045,31.751
16:12:07:11,10.842,-0.288,-0.183,-0.061,9.988,130.895,34.985
16:12:07:171,10.903,-0.292,-0.230,-0.108,10.357,129.830,37.358
16:12:07:172,10.903,-0.276,-0.249,-0.129,10.695,128.803,38.390
16:12:07:173,10.904,-0.247,-0.243,-0.152,11.235,126.895,39.033
16:12:07:174,10.905,-0.235,-0.212,-0.158,11.558,125.420,38.833
16:12:07:219,10.950,-0.202,-0.152,-0.186,11.959,122.822,37.583
16:12:07:219,10.951,-0.145,-0.044,-0.233,12.407,119.576,35.360
16:12:07:242,10.974,-0.083,0.051,-0.268,12.847,116.914,33.456
16:12:07:296,11.028,0.055,0.118,-0.317,14.179,112.006,30.047
16:12:07:297,11.029,-0.010,0.100,-0.371,15.430,108.310,27.455
16:12:07:349,11.081,-0.142,0.129,-0.376,16.624,103.544,23.285
16:12:07:35,11.082,-0.071,0.255,-0.411,16.358,101.740,20.405
16:12:07:401,11.133,0.127,0.036,-0.268,14.680,101.877,16.216
16:12:07:402,11.134,0.236,-0.212,-0.041,12.480,104.849,12.902
16:12:07:425,11.157,0.245,-0.236,0.094,11.087,107.874,11.353
16:12:07:451,11.183,0.192,-0.114,0.089,9.500,112.070,9.945
16:12:07:478,11.209,0.064,0.037,0.096,8.855,114.282,9.620
16:12:07:503,11.235,0.025,0.073,0.069,8.357,116.819,9.730
16:12:07:53,11.262,0.027,0.036,0.070,7.986,119.378,10.100
16:12:07:585,11.317,0.070,0.000,0.058,7.660,121.302,10.326
16:12:07:586,11.318,0.152,-0.073,0.141,6.973,124.766,10.496
16:12:07:638,11.370,0.134,-0.110,0.081,6.321,127.076,10.527
16:12:07:639,11.371,0.181,-0.104,0.128,5.299,130.388,10.325
16:12:07:69,11.422,0.201,-0.086,0.098,4.304,133.636,9.903
16:12:07:691,11.423,0.229,-0.061,0.080,3.687,134.604,9.568
16:12:07:714,11.445,0.248,-0.083,-0.094,2.915,136.171,9.101
16:12:07:769,11.501,0.249,-0.108,-0.176,2.398,137.209,8.839
16:12:07:77,11.502,0.301,-0.111,-0.131,1.467,140.804,8.404
16:12:07:821,11.553,0.463,-0.032,-0.112,0.882,142.893,7.964
16:12:07:822,11.554,0.469,0.005,-0.172,0.210,145.069,7.111
16:12:07:845,11.576,0.534,0.061,-0.070,-0.182,144.946,6.352
16:12:07:871,11.603,0.466,0.108,-0.018,-0.268,144.078,5.963
16:12:07:955,11.687,0.353,0.154,-0.028,-0.171,140.910,5.562
16:12:07:956,11.688,0.222,0.188,-0.076,-0.063,138.959,5.433
16:12:07:957,11.689,0.242,0.189,-0.063,-0.027,137.294,5.360
16:12:08:006,11.738,0.334,0.148,0.011,-0.140,137.305,5.397
16:12:08:006,11.738,0.374,0.050,0.040,-0.227,137.635,5.492
16:12:08:029,11.760,0.372,-0.101,0.125,-0.228,137.811,6.022
16:12:08:084,11.816,0.368,-0.085,0.156,-0.021,136.972,6.739
16:12:08:085,11.816,0.332,0.046,0.254,0.873,134.011,8.194
16:12:08:136,11.868,-0.048,0.021,0.018,1.893,129.834,9.154
16:12:08:138,11.870,0.128,0.187,0.160,3.804,124.787,10.674
16:12:08:189,11.921,-0.102,0.228,-0.114,5.984,121.148,12.617
16:12:08:189,11.921,-0.145,0.202,-0.098,7.449,120.269,14.233
16:12:08:212,11.944,-0.188,0.114,-0.142,9.363,121.070,17.408
16:12:08:239,11.971,-0.205,0.041,-0.119,10.356,122.741,19.995
16:12:08:265,11.997,-0.205,-0.018,-0.093,11.230,126.296,24.385
16:12:08:32,12.052,-0.228,-0.072,-0.062,11.516,130.070,28.924
16:12:08:321,12.053,-0.242,-0.109,-0.067,11.565,132.289,31.780
16:12:08:432,12.164,-0.266,-0.187,-0.062,11.694,134.941,35.526
16:12:08:432,12.164,-0.270,-0.250,-0.089,11.867,136.273,37.566
16:12:08:433,12.165,-0.260,-0.287,-0.098,12.196,137.747,39.845
16:12:08:434,12.166,-0.213,-0.302,-0.128,12.470,138.807,41.159
16:12:08:448,12.180,-0.203,-0.322,-0.145,12.657,139.248,41.502
16:12:08:474,12.206,-0.201,-0.304,-0.156,12.955,139.481,41.240
16:12:08:502,12.234,-0.225,-0.228,-0.170,13.138,139.366,40.511
16:12:08:636,12.368,-0.254,-0.142,-0.189,13.292,138.952,38.516
16:12:08:637,12.369,-0.277,-0.032,-0.204,13.235,138.573,36.496
16:12:08:667,12.399,-0.275,0.036,-0.196,12.791,138.076,32.448
16:12:08:668,12.400,-0.293,0.229,-0.169,11.853,138.028,27.404
16:12:08:669,12.401,-0.314,0.417,-0.112,10.983,138.454,23.646
16:12:08:669,12.401,-0.173,0.417,-0.011,9.453,140.026,17.759
16:12:08:819,12.551,0.102,0.054,0.059,8.437,141.846,14.052
16:12:08:82,12.552,0.259,-0.099,0.032,7.188,145.133,9.580
16:12:08:852,12.584,0.223,-0.064,0.019,6.413,148.164,6.816
16:12:08:852,12.584,0.227,0.116,0.104,6.162,149.399,5.894
16:12:08:853,12.585,0.126,0.201,0.123,6.080,151.242,5.357
16:12:08:854,12.586,0.135,0.129,0.106,6.121,152.525,5.309
16:12:08:931,12.662,0.182,-0.060,0.074,6.248,155.435,5.413
16:12:08:931,12.663,0.192,-0.165,0.057,6.241,157.964,5.603
16:12:08:931,12.663,0.188,-0.275,0.058,6.042,162.131,5.941
16:12:08:932,12.664,0.280,-0.311,0.063,5.672,166.398,6.025
16:12:08:976,12.708,0.323,-0.270,0.046,5.350,168.897,5.858
16:12:08:977,12.709,0.323,-0.210,-0.005,4.805,172.001,5.249
16:12:09:,12.731,0.325,-0.138,-0.032,4.359,173.560,4.654
16:12:09:115,12.847,0.293,-0.063,-0.112,3.541,175.552,3.670
16:12:09:115,12.847,0.183,0.016,-0.243,2.542,177.252,2.796
16:12:09:116,12.848,0.131,0.017,-0.315,1.834,179.013,2.362
16:12:09:116,12.848,0.120,0.074,-0.393,0.756,-177.528,1.757
16:12:09:16,12.892,0.284,0.143,-0.431,0.113,-174.625,1.441
16:12:09:161,12.893,0.382,0.190,-0.471,-0.539,-172.031,1.297
16:12:09:184,12.916,0.335,0.232,-0.389,-0.836,-171.496,1.537
16:12:09:21,12.942,0.380,0.387,-0.362,-0.899,-171.961,1.749
16:12:09:236,12.968,0.316,0.448,-0.346,-0.829,-173.518,1.920
16:12:09:29,13.022,0.254,-0.274,-0.245,-0.196,-175.656,1.808
16:12:09:347,13.079,0.267,-0.333,-0.284,0.192,-177.193,2.318
16:12:09:348,13.080,0.464,-0.291,-0.235,0.530,-178.973,2.996
16:12:09:348,13.080,0.145,-0.001,-0.153,1.259,175.847,3.766
16:12:09:395,13.126,-0.097,0.319,-0.199,2.096,171.958,4.166
16:12:09:422,13.154,0.012,0.296,-0.079,3.797,165.108,4.603
16:12:09:423,13.155,-0.112,0.220,0.055,5.692,163.450,4.942
16:12:09:446,13.178,-0.150,0.190,0.072,8.056,162.512,6.112
16:12:09:472,13.204,-0.073,0.045,0.106,10.352,165.604,8.712
16:12:09:528,13.259,-0.061,0.009,0.136,11.545,168.994,11.366
16:12:09:529,13.260,0.001,0.021,0.202,12.534,175.307,16.444
16:12:09:609,13.341,-0.014,0.020,0.217,12.723,179.482,20.123
16:12:09:61,13.342,-0.051,-0.032,0.247,12.683,-175.309,25.452
16:12:09:611,13.343,-0.111,-0.106,0.209,12.871,-171.947,29.975
16:12:09:63,13.362,-0.158,-0.160,0.205,13.278,-170.598,32.438
16:12:09:656,13.388,-0.222,-0.192,0.186,14.184,-169.403,35.201
16:12:09:712,13.444,-0.242,-0.221,0.162,14.786,-168.849,36.501
16:12:09:713,13.445,-0.246,-0.229,0.143,15.543,-168.297,37.654
16:12:09:764,13.496,-0.266,-0.183,0.133,15.934,-168.146,37.889
16:12:09:765,13.497,-0.292,-0.110,0.121,16.410,-168.353,37.401
16:12:09:789,13.521,-0.272,-0.100,0.125,16.733,-169.159,35.813
16:12:09:813,13.545,-0.274,-0.042,0.128,16.794,-170.016,34.140
16:12:09:841,13.573,-0.277,0.095,0.129,16.652,-171.722,30.645
16:12:09:946,13.678,-0.075,-0.104,0.022,14.524,-175.806,17.521
16:12:09:974,13.706,-0.003,-0.153,-0.021,13.565,-175.845,14.483
16:12:09:975,13.706,0.045,-0.133,-0.069,12.200,-175.542,10.706
16:12:09:997,13.729,0.099,0.034,0.044,11.432,-174.796,8.693
16:12:10:023,13.755,0.140,0.134,0.109,10.493,-173.118,6.186
16:12:10:079,13.811,0.193,0.124,0.045,9.769,-170.182,4.071
16:12:10:08,13.812,0.228,0.004,-0.026,9.357,-167.676,2.861
16:12:10:131,13.863,0.316,-0.097,-0.113,8.721,-163.375,1.358
16:12:10:132,13.864,0.390,-0.137,-0.152,8.272,-160.636,0.524
16:12:10:155,13.887,0.427,-0.097,-0.198,7.588,-157.543,-0.781
16:12:10:181,13.913,0.404,-0.095,-0.219,7.106,-156.406,-1.698
16:12:10:207,13.939,0.389,-0.091,-0.259,6.268,-155.697,-3.061
16:12:10:35,14.082,0.336,-0.084,-0.297,5.332,-156.000,-4.181
16:12:10:351,14.082,0.316,-0.078,-0.340,4.673,-156.026,-4.719
16:12:10:352,14.083,0.336,-0.060,-0.401,3.645,-156.054,-5.249
16:12:10:352,14.084,0.320,-0.059,-0.463,2.969,-156.221,-5.434
16:12:10:368,14.100,0.272,-0.050,-0.525,2.044,-157.066,-5.405
16:12:10:368,14.100,0.201,-0.005,-0.587,1.405,-158.462,-4.983
16:12:10:418,14.150,0.087,0.021,-0.445,1.354,-161.074,-3.471
16:12:10:444,14.176,0.122,0.133,-0.333,1.674,-161.025,-2.661
16:12:10:499,14.231,0.147,0.207,-0.322,2.406,-159.890,-1.399
16:12:10:5,14.232,0.248,0.253,-0.323,3.270,-157.614,-0.187
16:12:10:552,14.284,0.317,0.165,-0.327,3.872,-156.119,0.558
16:12:10:552,14.284,0.326,0.006,-0.267,4.796,-154.694,1.745
16:12:10:575,14.307,0.327,-0.009,-0.235,5.428,-154.678,2.730
16:12:10:601,14.333,0.191,0.017,-0.092,6.567,-156.431,4.371
16:12:10:629,14.361,0.174,0.162,-0.083,7.498,-159.026,5.525
16:12:10:682,14.414,0.150,0.254,0.084,9.406,-162.651,7.499
16:12:10:683,14.415,0.039,0.202,0.231,11.608,-165.611,9.893
16:12:10:733,14.464,0.034,0.169,0.257,13.055,-165.797,11.920
16:12:10:762,14.494,-0.027,0.100,0.281,15.024,-164.787,15.772
16:12:10:762,14.494,-0.063,0.029,0.331,16.169,-163.539,18.872
16:12:10:785,14.516,-0.084,-0.016,0.352,17.632,-161.370,23.981
16:12:10:87,14.602,-0.118,-0.081,0.376,18.885,-159.349,29.169
16:12:10:872,14.604,-0.143,-0.137,0.386,19.635,-158.216,32.463
16:12:10:872,14.604,-0.162,-0.219,0.387,20.667,-156.884,36.890
16:12:10:89,14.622,-0.176,-0.282,0.389,21.270,-156.264,39.354
16:12:10:916,14.648,-0.164,-0.331,0.365,21.951,-155.688,42.172
16:12:10:942,14.674,-0.156,-0.390,0.318,22.192,-155.773,43.418
16:12:10:969,14.701,-0.153,-0.416,0.292,22.200,-155.849,44.336
16:12:10:995,14.727,-0.149,-0.421,0.285,21.735,-156.377,44.190
16:12:11:049,14.781,-0.152,-0.393,0.282,21.167,-156.821,43.517
16:12:11:106,14.837,-0.172,-0.301,0.293,19.986,-157.768,41.600
16:12:11:106,14.838,-0.191,-0.213,0.287,19.061,-158.543,39.672
16:12:11:107,14.839,-0.184,-0.022,0.297,17.602,-159.981,35.769
16:12:11:126,14.858,-0.121,0.212,0.296,16.379,-161.893,30.640
16:12:11:153,14.885,-0.162,0.499,0.397,15.738,-163.855,26.474
16:12:11:178,14.910,-0.117,0.487,0.269,14.459,-167.805,19.260
16:12:11:232,14.964,0.062,0.171,-0.081,13.109,-170.263,14.481
16:12:11:314,15.046,-0.322,0.081,-0.301,10.404,-172.945,8.733
16:12:11:314,15.046,0.879,0.572,-2.815,8.877,-169.262,6.185
16:12:11:342,15.073,1.695,0.570,-1.431,7.919,-157.697,8.087
16:12:11:343,15.074,0.435,0.012,-0.476,6.285,-147.426,12.221
16:12:11:344,15.075,-0.198,0.013,-0.160,6.341,-146.425,14.360
16:12:11:391,15.123,-0.029,0.021,-0.077,8.061,-148.063,16.748
16:12:11:392,15.124,0.202,-0.210,0.196,9.371,-148.604,18.033
16:12:11:477,15.209,0.190,-0.259,0.276,11.099,-149.403,19.394
16:12:11:478,15.210,0.163,-0.275,0.241,12.106,-149.603,19.946
16:12:11:478,15.210,0.153,-0.265,0.229,12.420,-149.661,19.885
16:12:11:479,15.211,0.135,-0.206,0.185,12.641,-149.848,19.379
16:12:11:52,15.252,0.094,-0.198,0.202,12.750,-150.274,18.784
16:12:11:549,15.281,0.111,-0.211,0.210,12.676,-150.939,17.592
16:12:11:549,15.281,0.116,-0.217,0.189,12.047,-151.015,16.336
16:12:11:602,15.333,0.127,-0.156,0.135,10.274,-150.542,15.683
16:12:11:602,15.334,0.162,-0.077,0.073,8.554,-149.862,14.473
16:12:11:654,15.386,0.126,-0.034,0.021,7.226,-149.672,13.541
16:12:11:655,15.387,0.230,0.185,-0.255,5.263,-149.190,11.886
16:12:11:677,15.409,-0.091,0.237,-0.439,3.780,-148.761,9.912
16:12:11:704,15.436,-0.637,0.090,-0.732,2.513,-146.008,9.015
16:12:11:73,15.462,0.386,0.194,-0.547,-0.138,-136.198,8.207
16:12:11:785,15.517,1.018,0.145,-0.966,-0.930,-133.022,6.900
16:12:11:786,15.518,0.089,0.410,-0.159,-0.836,-138.865,5.586
16:12:11:896,15.628,0.500,0.276,-0.310,-0.347,-143.748,5.171
16:12:11:897,15.629,0.290,0.085,-0.048,0.479,-152.729,4.769
16:12:11:898,15.630,0.100,0.002,-0.177,1.166,-161.302,4.471
16:12:11:898,15.630,0.140,-0.114,-0.186,1.648,-166.321,4.306
16:12:11:915,15.646,0.131,-0.143,-0.095,2.484,-173.452,4.162
16:12:11:969,15.701,0.275,0.086,-0.018,3.158,-177.535,4.231
16:12:11:97,15.701,0.127,0.042,0.017,4.407,177.523,4.652
16:12:12:021,15.753,0.205,0.128,0.060,5.838,173.862,5.165
16:12:12:022,15.754,0.159,0.113,0.106,6.930,172.373,5.627
16:12:12:074,15.806,0.089,0.067,0.139,8.766,171.481,6.550
16:12:12:074,15.806,0.059,0.007,0.124,10.087,171.691,7.552
16:12:12:097,15.829,0.017,-0.029,0.153,11.986,173.128,9.767
16:12:12:123,15.855,0.025,-0.048,0.190,13.095,174.722,11.703
16:12:12:15,15.882,0.015,-0.078,0.252,14.449,177.626,15.087
16:12:12:177,15.909,-0.013,-0.097,0.282,15.497,-179.423,18.689
16:12:12:202,15.934,-0.034,-0.118,0.302,16.085,-177.682,21.004
16:12:12:229,15.960,-0.058,-0.132,0.303,16.874,-175.564,24.080
16:12:12:255,15.987,-0.102,-0.090,0.281,16.708,-174.556,25.558
16:12:12:281,16.013,-0.129,-0.056,0.278,16.727,-173.551,27.189
16:12:12:307,16.039,-0.137,-0.032,0.237,17.348,-173.123,28.206
16:12:12:334,16.066,-0.155,-0.050,0.221,17.865,-173.244,28.416
16:12:12:36,16.092,-0.177,-0.047,0.193,18.742,-174.053,28.273
16:12:12:386,16.118,-0.208,-0.064,0.153,19.369,-174.886,27.966
16:12:12:442,16.174,-0.224,-0.099,0.103,20.207,-176.297,27.283
16:12:12:442,16.174,-0.244,-0.089,0.132,20.585,-177.239,26.423
16:12:12:465,16.197,-0.259,-0.011,0.157,20.343,-177.470,25.705
16:12:12:491,16.223,-0.236,0.123,0.196,19.152,-176.868,24.150
16:12:12:518,16.250,-0.174,0.133,0.166,17.890,-176.052,22.661
16:12:12:544,16.275,-0.024,-0.121,0.043,15.752,-174.367,19.770
16:12:12:57,16.302,0.069,-0.203,-0.014,14.299,-173.297,17.694
16:12:12:626,16.358,0.107,-0.224,-0.048,12.367,-171.872,14.731
16:12:12:627,16.359,0.079,-0.068,-0.011,10.824,-171.386,12.093
16:12:12:708,16.440,0.057,0.093,0.053,9.939,-171.306,10.462
16:12:12:708,16.440,0.068,0.219,0.029,8.609,-170.522,8.087
16:12:12:709,16.441,0.051,0.126,-0.132,7.744,-169.348,6.504
16:12:12:728,16.459,0.157,-0.057,-0.292,6.774,-166.187,4.282
16:12:12:754,16.486,0.218,-0.156,-0.353,5.584,-162.735,2.494
16:12:12:868,16.600,0.136,-0.063,-0.266,4.746,-160.341,1.369
16:12:12:868,16.600,0.466,-0.114,-0.323,3.854,-157.061,0.064
16:12:12:869,16.601,0.415,-0.124,-0.302,3.437,-156.376,-0.787
16:12:12:87,16.602,0.402,-0.135,-0.267,2.950,-157.893,-1.783
16:12:12:887,16.618,0.177,-0.106,-0.266,2.639,-159.867,-2.238
16:12:12:911,16.643,0.136,-0.097,-0.267,2.195,-162.534,-2.461
16:12:12:937,16.669,0.124,-0.086,-0.285,1.939,-163.449,-2.158
16:12:12:964,16.696,0.148,-0.076,-0.298,1.857,-163.082,-1.751
16:12:12:99,16.722,0.191,-0.014,-0.325,1.841,-161.689,-0.964
16:12:13:045,16.777,0.180,0.058,-0.336,1.896,-160.644,-0.417
16:12:13:046,16.778,0.209,0.106,-0.325,2.076,-159.247,0.331
16:12:13:069,16.800,0.200,0.102,-0.313,2.325,-158.139,0.861
16:12:13:095,16.827,0.185,0.104,-0.300,2.498,-157.579,1.137
16:12:13:121,16.853,0.181,0.143,-0.254,3.279,-156.694,2.440
16:12:13:176,16.908,0.230,0.144,-0.240,3.368,-156.148,2.845
16:12:13:177,16.909,0.257,0.118,-0.248,3.457,-155.671,3.498
16:12:13:229,16.961,0.304,-0.007,-0.208,3.630,-156.230,4.134
16:12:13:23,16.962,0.337,-0.047,-0.159,3.877,-157.502,4.608
16:12:13:252,16.984,0.419,0.034,-0.098,4.585,-160.939,5.488
16:12:13:308,17.040,-0.078,0.095,0.130,5.380,-164.996,5.970
16:12:13:309,17.041,0.054,0.184,0.088,6.987,-170.730,6.776
16:12:13:362,17.094,-0.084,0.185,0.146,8.172,-173.064,7.730
16:12:13:362,17.094,0.001,0.121,0.148,9.900,-173.533,9.771
16:12:13:413,17.145,-0.018,0.055,0.133,11.197,-171.358,12.736
16:12:13:413,17.145,0.015,0.016,0.153,11.794,-169.163,15.184
16:12:13:5,17.232,0.024,-0.058,0.180,12.409,-165.746,19.268
16:12:13:5,17.232,-0.022,-0.099,0.211,12.768,-163.930,22.099
16:12:13:501,17.232,-0.066,-0.130,0.216,13.374,-162.036,26.279
16:12:13:502,17.233,-0.126,-0.160,0.246,14.125,-161.043,30.114
16:12:13:543,17.275,-0.153,-0.183,0.242,14.652,-160.778,32.237
16:12:13:596,17.328,-0.177,-0.219,0.213,15.373,-160.736,34.629
16:12:13:597,17.329,-0.171,-0.219,0.176,15.814,-160.886,35.586
16:12:13:621,17.353,-0.189,-0.276,0.153,16.506,-161.357,36.190
16:12:13:647,17.379,-0.186,-0.247,0.148,16.877,-161.730,36.105
16:12:13:673,17.405,-0.187,-0.214,0.144,16.884,-162.452,34.777
16:12:13:699,17.431,-0.228,-0.106,0.139,16.851,-163.149,33.067
16:12:13:728,17.460,-0.217,-0.003,0.164,16.566,-163.652,31.421
16:12:13:728,17.460,-0.195,0.059,0.146,15.791,-164.557,28.099
16:12:13:777,17.509,-0.189,0.227,0.104,15.071,-165.255,25.339
16:12:13:832,17.564,-0.133,0.322,0.068,13.805,-166.353,20.490
16:12:13:833,17.565,0.020,0.408,-0.021,12.471,-167.646,14.951
16:12:13:86,17.592,0.113,0.227,-0.116,11.671,-168.704,11.121
16:12:13:86,17.592,0.201,-0.100,-0.194,10.605,-170.296,6.065
16:12:13:912,17.644,0.115,-0.208,-0.114,9.995,-171.219,3.572
16:12:13:912,17.644,0.067,-0.127,-0.033,9.401,-171.769,1.505
16:12:13:935,17.666,0.110,0.100,0.060,9.404,-170.801,1.177
16:12:13:961,17.693,0.062,0.073,0.056,9.697,-169.085,1.619
16:12:14:018,17.750,0.065,0.040,0.039,10.320,-164.082,3.089
16:12:14:019,17.751,0.201,0.003,0.009,10.689,-159.158,4.566
16:12:14:04,17.772,0.268,-0.069,-0.005,10.945,-151.190,7.033
16:12:14:066,17.798,0.279,-0.165,-0.051,10.950,-146.041,8.549
16:12:14:094,17.826,0.222,-0.257,-0.092,10.574,-139.193,10.453
16:12:14:148,17.880,0.187,-0.299,-0.090,9.889,-134.000,11.725
16:12:14:148,17.880,0.176,-0.286,-0.098,9.416,-131.429,12.152
16:12:14:2,17.932,0.088,-0.189,-0.130,8.797,-128.424,12.229
16:12:14:201,17.933,-0.022,-0.110,-0.139,8.335,-126.533,12.039
16:12:14:224,17.956,-0.032,-0.084,-0.176,7.452,-122.741,11.622
16:12:14:279,18.011,0.049,-0.020,-0.281,6.469,-117.788,11.019
16:12:14:28,18.012,0.064,0.012,-0.355,5.899,-114.621,10.388
16:12:14:303,18.035,0.019,0.113,-0.318,5.222,-111.993,8.916
16:12:14:329,18.061,0.054,0.223,-0.388,4.883,-111.590,7.676
16:12:14:385,18.117,0.027,0.203,-0.423,4.570,-112.801,5.834
16:12:14:385,18.117,-0.097,0.211,-0.246,4.330,-115.203,4.144
16:12:14:437,18.168,-0.064,0.258,-0.304,4.129,-116.005,3.435
16:12:14:437,18.169,0.034,0.341,-0.426,3.939,-115.560,2.874
16:12:14:46,18.192,0.070,0.303,-0.470,3.951,-115.149,2.720
16:12:14:486,18.218,0.087,0.068,-0.428,4.394,-115.159,2.816
16:12:14:595,18.327,0.028,-0.114,-0.361,4.916,-116.112,3.136
16:12:14:595,18.327,0.085,-0.253,-0.125,6.156,-118.953,3.929
16:12:14:681,18.413,-0.231,-0.095,0.085,7.485,-124.559,4.962
16:12:14:681,18.413,0.227,0.138,-0.291,8.798,-126.222,6.284
16:12:14:682,18.414,-0.024,0.251,0.105,10.681,-127.923,8.205
16:12:14:683,18.415,0.115,0.197,0.082,11.869,-127.594,9.848
16:12:14:758,18.490,0.097,0.138,0.152,13.393,-125.319,12.873
16:12:14:758,18.490,0.142,-0.001,0.117,14.530,-121.522,16.636
16:12:14:759,18.490,0.104,-0.002,0.118,15.147,-119.006,19.429
16:12:14:76,18.491,0.060,-0.056,0.223,16.249,-115.722,23.819
16:12:14:775,18.507,0.112,-0.165,0.266,17.004,-113.545,26.829
16:12:14:801,18.533,0.140,-0.228,0.271,17.782,-110.060,31.261
16:12:14:827,18.559,0.085,-0.242,0.259,18.111,-106.715,35.213
16:12:14:855,18.587,0.082,-0.240,0.260,18.206,-104.862,37.418
16:12:14:881,18.612,0.087,-0.246,0.255,18.348,-102.388,39.808
16:12:14:935,18.667,0.096,-0.256,0.246,18.458,-101.335,40.657
16:12:14:936,18.667,0.077,-0.244,0.240,18.539,-100.340,40.818
16:12:14:988,18.720,0.068,-0.191,0.278,18.594,-100.251,40.257
16:12:14:988,18.720,0.076,-0.131,0.283,18.735,-100.819,38.553
16:12:15:011,18.743,0.102,-0.025,0.298,18.999,-102.913,35.722
16:12:15:037,18.769,0.093,0.028,0.303,19.223,-104.785,33.180
16:12:15:064,18.795,0.102,0.069,0.275,19.488,-108.885,28.527
16:12:15:09,18.822,0.101,0.116,0.274,19.493,-111.953,25.028
16:12:15:116,18.848,0.110,0.181,0.250,19.071,-116.401,19.505
16:12:15:171,18.903,0.109,0.210,0.205,18.474,-118.785,15.835
16:12:15:172,18.904,0.112,0.236,0.160,17.125,-120.794,10.734
16:12:15:196,18.928,0.067,0.038,-0.048,15.493,-119.905,6.542
16:12:15:222,18.954,0.027,-0.072,-0.164,14.483,-118.104,4.423
16:12:15:247,18.979,0.045,-0.017,-0.301,13.292,-114.105,2.424
16:12:15:274,19.006,0.120,0.025,-0.230,12.840,-111.249,1.855
16:12:15:3,19.032,0.108,0.006,-0.198,12.402,-106.725,1.942
16:12:15:355,19.087,0.123,-0.073,-0.328,12.246,-102.180,2.969
16:12:15:356,19.088,0.073,-0.052,-0.111,12.061,-98.951,3.941
16:12:15:379,19.110,0.091,-0.169,-0.274,11.798,-94.091,5.489
16:12:15:405,19.137,0.070,-0.168,-0.208,11.399,-89.036,6.651
16:12:15:431,19.163,0.033,-0.226,-0.291,11.078,-85.956,7.222
16:12:15:458,19.190,-0.023,-0.181,-0.238,10.497,-81.233,7.739
16:12:15:485,19.217,-0.066,-0.172,-0.193,10.066,-78.824,7.884
16:12:15:539,19.271,-0.090,-0.129,-0.187,9.282,-74.783,8.103
16:12:15:541,19.273,-0.116,-0.067,-0.178,8.712,-72.613,8.247
16:12:15:591,19.323,-0.122,-0.017,-0.154,7.982,-70.286,8.337
16:12:15:592,19.324,-0.154,0.005,-0.085,7.466,-69.019,8.134
16:12:15:615,19.347,-0.182,0.074,-0.064,7.211,-68.481,7.882
16:12:15:642,19.374,-0.205,0.121,-0.040,6.918,-67.218,7.484
16:12:15:667,19.399,-0.173,0.202,-0.156,6.736,-66.449,7.319
16:12:15:724,19.456,-0.189,0.251,-0.218,6.466,-64.912,7.257
16:12:15:724,19.456,-0.176,0.340,-0.169,6.291,-64.846,7.199
16:12:15:775,19.507,-0.174,0.396,-0.166,6.276,-64.781,7.146
16:12:15:776,19.508,-0.145,0.380,-0.195,6.522,-65.507,7.033
16:12:15:799,19.531,-0.115,0.191,-0.181,6.907,-65.952,7.025
16:12:15:826,19.558,-0.054,-0.090,-0.143,7.686,-67.159,7.564
16:12:15:851,19.583,0.014,-0.155,-0.018,8.338,-68.601,8.027
16:12:15:99,19.722,-0.053,-0.216,-0.096,9.695,-71.722,9.543
16:12:15:991,19.723,0.033,0.043,-0.096,11.378,-73.656,11.418
16:12:15:992,19.724,0.094,0.044,0.212,12.369,-75.276,12.319
16:12:16:009,19.741,0.144,0.204,-0.089,13.736,-76.068,13.770
16:12:16:04,19.772,0.199,0.114,-0.036,14.615,-76.207,14.730
16:12:16:041,19.773,0.229,0.025,-0.051,15.922,-75.551,16.384
16:12:16:042,19.774,0.232,-0.087,0.012,17.370,-75.068,18.309
16:12:16:093,19.825,0.238,-0.108,0.015,18.334,-74.301,19.891
16:12:16:094,19.826,0.262,-0.143,0.050,19.661,-73.391,22.539
16:12:16:095,19.827,0.304,-0.156,0.064,20.428,-72.194,24.392
16:12:16:114,19.846,0.291,-0.166,0.071,20.165,-71.306,26.337
16:12:16:14,19.872,0.287,-0.200,0.068,20.267,-70.393,28.184
16:12:16:166,19.898,0.269,-0.217,0.071,20.621,-69.825,29.343
16:12:16:193,19.924,0.256,-0.239,0.069,20.967,-69.239,30.479
16:12:16:247,19.979,0.244,-0.241,0.082,21.074,-69.043,30.830
16:12:16:333,20.064,0.242,-0.194,0.084,20.522,-68.802,30.365
16:12:16:333,20.065,0.252,-0.080,0.118,20.422,-69.035,29.883
16:12:16:334,20.066,0.263,-0.021,0.127,20.150,-69.187,28.528
16:12:16:334,20.066,0.249,0.081,0.123,19.743,-69.796,26.341
16:12:16:379,20.111,0.230,0.101,0.104,19.407,-70.605,24.441
16:12:16:38,20.112,0.184,0.177,0.078,18.795,-71.670,21.043
16:12:16:403,20.135,0.173,0.267,0.051,18.331,-72.514,18.518
16:12:16:429,20.161,0.161,0.298,0.029,17.525,-73.210,14.625
16:12:16:513,20.245,0.065,0.215,-0.040,16.491,-73.258,11.016
16:12:16:514,20.246,-0.129,0.001,-0.107,15.753,-72.679,9.006
16:12:16:515,20.246,-0.248,-0.156,-0.117,14.752,-71.881,6.878
16:12:16:533,20.265,-0.212,-0.192,-0.107,14.242,-71.011,6.204
16:12:16:56,20.292,-0.181,0.114,-0.452,13.935,-69.539,6.629
16:12:16:586,20.318,0.019,0.092,0.055,14.347,-68.696,7.688
16:12:16:612,20.344,0.029,0.019,0.048,14.790,-66.950,8.843
16:12:16:639,20.370,0.051,-0.067,0.001,15.175,-62.581,11.259
16:12:16:696,20.428,0.027,-0.153,-0.110,15.108,-59.078,13.125
16:12:16:696,20.428,0.038,-0.183,-0.116,14.587,-53.656,15.777
16:12:16:747,20.479,0.009,-0.230,-0.145,14.012,-50.375,17.206
16:12:16:747,20.479,-0.034,-0.221,-0.126,13.179,-46.413,18.650
16:12:16:77,20.502,-0.060,-0.219,-0.071,12.434,-43.823,19.191
16:12:16:797,20.529,-0.057,-0.202,-0.049,11.911,-42.320,19.203
16:12:16:823,20.554,-0.081,-0.145,0.005,10.940,-40.345,18.838
16:12:16:848,20.580,-0.166,-0.074,-0.043,10.135,-38.697,18.465
16:12:16:931,20.663,-0.155,-0.020,-0.038,9.146,-36.537,17.621
16:12:16:932,20.664,-0.225,0.027,-0.081,8.562,-35.099,16.396
16:12:16:958,20.690,-0.189,0.029,-0.012,8.490,-35.279,15.389
16:12:16:958,20.690,-0.175,0.060,-0.060,8.623,-36.886,13.760
16:12:16:98,20.712,-0.141,0.120,-0.075,8.634,-38.330,12.728
16:12:17:006,20.738,-0.124,0.230,-0.055,8.505,-41.000,11.187
16:12:17:032,20.764,-0.160,0.251,-0.060,8.390,-42.688,10.273
16:12:17:059,20.791,-0.105,0.310,-0.020,8.255,-44.983,8.997
16:12:17:144,20.876,-0.206,0.356,-0.052,8.107,-46.247,8.003
16:12:17:144,20.876,-0.243,0.277,-0.052,8.063,-46.717,7.493
16:12:17:144,20.876,-0.253,-0.045,-0.123,8.183,-47.259,7.176
16:12:17:164,20.896,-0.288,-0.172,-0.295,8.434,-47.829,7.449
16:12:17:19,20.922,-0.067,-0.051,-0.040,9.124,-49.606,8.364
16:12:17:216,20.948,0.101,0.021,0.152,10.196,-52.078,10.013
16:12:17:302,21.034,-0.142,0.009,-0.284,11.242,-52.870,11.287
16:12:17:302,21.034,0.136,0.165,-0.035,12.650,-53.850,13.158
16:12:17:302,21.034,0.096,0.114,-0.086,13.593,-54.081,14.510
16:12:17:401,21.132,0.149,0.079,-0.082,14.888,-53.690,16.794
16:12:17:435,21.167,0.201,-0.010,-0.061,16.199,-53.010,19.304
16:12:17:435,21.167,0.234,-0.048,-0.048,17.119,-52.614,21.160
16:12:17:436,21.168,0.297,-0.141,0.001,18.545,-51.884,24.271
16:12:17:437,21.169,0.353,-0.209,0.014,19.424,-51.146,26.506
16:12:17:481,21.213,0.363,-0.237,0.009,20.065,-48.889,30.002
16:12:17:482,21.214,0.368,-0.245,-0.012,20.035,-47.001,32.186
16:12:17:558,21.290,0.355,-0.248,-0.045,19.286,-44.002,34.946
16:12:17:591,21.322,0.327,-0.246,-0.060,17.990,-41.396,36.731
16:12:17:591,21.322,0.280,-0.258,-0.068,17.010,-40.157,37.274
16:12:17:591,21.323,0.211,-0.222,-0.045,15.676,-39.414,37.053
16:12:17:611,21.343,0.191,-0.107,0.004,15.045,-39.840,36.191
16:12:17:665,21.397,0.172,-0.026,0.029,14.652,-42.005,33.771
16:12:17:666,21.398,0.119,0.129,0.049,14.971,-46.076,29.996
16:12:17:689,21.420,0.073,0.158,0.034,15.471,-49.799,26.857
16:12:17:773,21.505,0.077,0.247,0.034,16.198,-56.467,21.563
16:12:17:774,21.506,0.085,0.338,0.037,16.484,-61.186,17.905
16:12:17:85,21.581,0.017,0.366,0.101,16.299,-71.409,9.945
16:12:17:85,21.582,-0.200,-0.021,0.474,15.709,-74.271,7.500
16:12:17:9,21.632,-0.459,-0.126,0.375,16.224,-73.019,8.047
16:12:17:96,21.692,-0.300,0.024,0.250,17.049,-70.204,9.681
16:12:17:961,21.693,0.008,0.079,0.256,18.965,-64.967,13.179
16:12:17:961,21.693,0.227,-0.026,0.210,20.396,-61.354,15.741
16:12:17:962,21.694,0.311,-0.115,0.189,22.005,-54.312,20.109
16:12:17:978,21.709,0.345,-0.190,-0.022,22.094,-44.708,25.127
16:12:18:033,21.764,0.291,-0.246,-0.162,21.190,-37.598,28.429
16:12:18:034,21.765,0.202,-0.263,-0.252,19.126,-27.640,32.496
16:12:18:086,21.818,0.135,-0.277,-0.223,17.922,-22.217,34.441
16:12:18:086,21.818,0.149,-0.323,-0.150,16.872,-15.951,36.367
16:12:18:109,21.841,0.176,-0.353,-0.100,16.279,-11.171,37.289
16:12:18:164,21.896,0.181,-0.337,-0.095,15.747,-8.410,37.372
16:12:18:165,21.897,0.169,-0.295,-0.085,14.394,-4.585,36.643
16:12:18:187,21.919,0.127,-0.224,-0.085,13.135,-2.230,35.530
16:12:18:214,21.946,0.090,-0.153,-0.089,11.010,0.865,32.792
16:12:18:24,21.972,0.164,-0.041,-0.049,9.706,2.486,30.194
16:12:18:269,22.001,0.008,0.195,-0.045,7.953,5.247,25.411
16:12:18:27,22.002,-0.281,0.568,0.154,6.127,7.711,19.986
16:12:18:322,22.054,-0.400,0.275,0.002,6.079,7.476,15.973
16:12:18:322,22.054,-0.268,0.515,0.044,6.117,3.999,9.742
16:12:18:346,22.077,-0.459,0.435,0.158,5.844,2.810,6.389
16:12:18:371,22.103,-0.208,0.370,0.096,5.205,0.311,2.812
16:12:18:456,22.188,-0.257,0.049,0.143,4.718,-0.616,1.254
16:12:18:456,22.188,-0.420,-0.021,0.156,4.694,0.227,1.262
16:12:18:477,22.209,-0.454,-0.048,0.136,5.293,4.168,3.461
16:12:18:503,22.235,-0.397,-0.020,0.108,5.898,6.354,5.575
16:12:18:529,22.260,-0.296,0.044,0.081,6.376,7.158,7.183
16:12:18:555,22.287,-0.217,0.094,0.046,7.253,7.323,9.858
16:12:18:581,22.313,-0.097,0.117,-0.014,8.426,6.456,12.876
16:12:18:608,22.339,0.001,0.155,-0.097,9.420,5.612,15.038
16:12:18:634,22.366,0.131,0.117,-0.152,11.190,4.494,18.547
16:12:18:689,22.421,0.187,0.052,-0.195,12.464,4.122,21.110
16:12:18:69,22.422,0.232,0.005,-0.209,14.296,4.321,25.267
16:12:18:743,22.475,0.279,-0.062,-0.226,15.940,5.146,29.606
16:12:18:743,22.475,0.303,-0.090,-0.223,16.913,5.940,32.423
16:12:18:825,22.556,0.322,-0.148,-0.194,18.219,7.234,36.234
16:12:18:825,22.556,0.287,-0.236,-0.170,18.988,8.152,38.369
16:12:18:825,22.556,0.229,-0.283,-0.149,19.813,9.580,40.855
16:12:18:873,22.605,0.220,-0.289,-0.114,20.288,10.729,42.383
16:12:18:874,22.606,0.244,-0.262,-0.103,20.627,11.111,42.845
16:12:18:896,22.628,0.303,-0.174,-0.110,21.357,11.002,42.695
16:12:18:922,22.654,0.344,-0.120,-0.120,22.002,10.451,42.016
16:12:18:949,22.680,0.376,-0.093,-0.135,23.039,9.088,40.156
16:12:18:976,22.708,0.451,0.037,-0.232,23.466,8.023,38.408
16:12:19:001,22.733,0.446,0.118,-0.243,23.333,6.582,35.089
16:12:19:027,22.759,0.363,0.204,-0.200,22.358,5.540,31.058
16:12:19:054,22.786,0.208,0.096,-0.084,21.533,5.032,28.148
16:12:19:08,22.812,0.065,0.007,0.001,20.446,4.188,23.926
16:12:19:107,22.839,0.049,-0.093,-0.004,20.018,3.411,21.484
16:12:19:133,22.864,0.153,-0.097,-0.092,19.835,2.121,18.820
16:12:19:158,22.890,0.197,-0.076,-0.186,19.850,1.096,17.575
16:12:19:185,22.917,0.178,-0.072,-0.213,19.773,1.885,17.513
16:12:19:211,22.943,0.121,-0.111,-0.241,19.262,4.321,18.300
16:12:19:24,22.972,0.101,-0.126,-0.244,18.512,7.354,19.114
16:12:19:265,22.997,-0.063,-0.140,-0.183,16.834,12.951,20.353
16:12:19:29,23.022,-0.064,-0.132,-0.095,15.550,16.759,20.826
16:12:19:316,23.048,-0.135,-0.109,-0.095,13.624,22.126,20.704
16:12:19:342,23.074,-0.146,-0.135,-0.081,11.844,26.195,19.608
16:12:19:369,23.101,-0.188,-0.070,-0.032,10.809,28.520,18.479
16:12:19:397,23.128,-0.182,0.002,-0.011,9.612,29.895,16.105
16:12:19:422,23.154,-0.201,0.030,0.043,8.967,30.218,14.354
16:12:19:447,23.179,-0.165,0.045,0.106,8.107,29.044,11.698
16:12:19:473,23.205,-0.143,0.061,0.175,7.278,27.676,9.276
16:12:19:5,23.232,-0.147,0.089,0.234,6.709,25.961,7.851
16:12:19:526,23.258,-0.153,0.162,0.343,5.894,24.194,6.057
16:12:19:553,23.285,-0.119,0.166,0.368,5.399,22.546,5.099
16:12:19:579,23.310,-0.164,0.133,0.388,4.742,21.025,4.063
16:12:19:605,23.337,-0.170,0.092,0.382,4.294,19.050,3.530
16:12:19:631,23.363,-0.159,0.121,0.333,4.156,18.185,3.469
16:12:19:658,23.390,-0.198,0.235,0.296,4.235,16.953,3.748
16:12:19:684,23.416,-0.231,0.243,0.288,4.477,16.491,4.085
16:12:19:71,23.442,-0.233,0.075,0.259,5.120,15.581,4.807
16:12:19:736,23.468,-0.242,-0.062,0.185,5.728,14.895,5.514
16:12:19:763,23.494,-0.224,-0.048,0.140,6.945,13.313,7.025
16:12:19:788,23.520,-0.170,0.093,0.030,8.600,11.169,8.991
16:12:19:815,23.547,-0.098,0.165,-0.038,9.997,9.548,10.428
16:12:19:841,23.573,0.022,0.203,-0.188,12.321,8.007,12.788
16:12:19:87,23.602,0.044,0.192,-0.275,13.860,7.880,14.588
16:12:19:895,23.626,0.079,0.160,-0.299,15.967,8.926,17.783
16:12:19:92,23.652,0.122,0.091,-0.342,17.798,10.896,21.725
16:12:19:946,23.678,0.133,0.037,-0.354,18.868,12.554,24.724
16:12:19:972,23.704,0.165,-0.035,-0.381,20.308,14.992,29.577
16:12:19:999,23.731,0.208,-0.080,-0.394,21.242,16.421,32.947
16:12:20:026,23.758,0.264,-0.150,-0.427,22.693,18.132,38.007
16:12:20:052,23.784,0.312,-0.213,-0.440,24.304,19.239,42.786
16:12:20:078,23.809,0.330,-0.257,-0.441,25.467,19.760,45.655
16:12:20:104,23.836,0.371,-0.335,-0.380,27.276,20.042,49.348
16:12:20:13,23.862,0.379,-0.381,-0.338,28.440,20.353,51.377
16:12:20:157,23.889,0.376,-0.430,-0.323,29.845,20.508,53.667
16:12:20:212,23.944,0.307,-0.423,-0.310,30.172,21.002,54.607
16:12:20:212,23.944,0.291,-0.370,-0.268,29.653,21.548,54.839
16:12:20:264,23.996,0.329,-0.280,-0.258,28.448,21.483,53.444
16:12:20:265,23.997,0.344,-0.234,-0.249,27.546,20.774,51.567
16:12:20:317,24.049,0.345,-0.134,-0.275,26.115,19.088,47.318
16:12:20:318,24.050,0.345,-0.018,-0.283,25.045,17.263,43.574
16:12:20:401,24.133,0.346,0.261,-0.285,23.465,13.311,36.683
16:12:20:402,24.134,0.235,0.459,-0.221,22.219,7.576,28.583
16:12:20:402,24.134,0.074,0.258,-0.105,21.632,2.711,22.865
16:12:20:403,24.135,0.037,-0.031,-0.060,20.571,-5.367,14.924
16:12:20:446,24.178,0.055,-0.127,-0.039,19.502,-10.092,10.833
16:12:20:474,24.206,0.160,-0.039,-0.013,17.679,-15.221,6.798
16:12:20:524,24.256,0.209,0.182,0.082,14.730,-14.701,5.127
16:12:20:582,24.314,-0.114,0.174,-0.028,12.794,-6.574,6.509
16:12:20:583,24.315,-0.352,0.031,-0.001,11.455,0.211,7.855
16:12:20:583,24.315,-0.364,-0.004,0.093,9.631,8.668,9.372
16:12:20:604,24.336,-0.314,-0.099,0.134,8.607,12.788,10.052
16:12:20:629,24.361,-0.334,-0.094,0.141,7.437,16.375,10.571
16:12:20:655,24.387,-0.203,-0.109,0.096,6.820,16.537,10.542
16:12:20:681,24.413,-0.112,-0.086,0.132,6.614,15.539,10.324
16:12:20:707,24.439,0.073,-0.125,0.182,6.414,13.988,9.929
16:12:20:763,24.495,0.165,-0.129,0.207,6.210,13.906,9.784
16:12:20:763,24.495,-0.158,-0.084,0.160,5.711,15.975,9.877
16:12:20:786,24.518,-0.133,-0.060,0.178,5.426,17.465,10.136
16:12:20:814,24.546,-0.089,-0.069,0.180,5.403,17.503,10.300
16:12:20:839,24.571,0.015,-0.045,0.186,5.459,16.699,10.495
16:12:20:865,24.597,-0.056,0.071,0.208,5.467,16.152,10.562
16:12:20:891,24.623,-0.075,0.100,0.198,5.474,15.440,10.492
16:12:20:918,24.650,-0.072,0.146,0.126,5.494,15.025,10.280
16:12:20:944,24.676,-0.066,0.194,0.092,5.561,14.697,9.854
16:12:20:97,24.702,-0.105,0.254,0.079,5.679,15.030,9.556
16:12:20:996,24.728,-0.148,0.314,0.121,5.791,15.437,9.448
16:12:21:022,24.754,-0.255,0.179,0.140,6.142,15.784,9.353
16:12:21:05,24.781,-0.260,0.079,0.097,6.580,15.404,9.409
16:12:21:104,24.836,-0.221,0.021,0.010,7.584,13.804,9.972
16:12:21:105,24.837,-0.253,0.075,-0.049,9.000,11.336,11.345
16:12:21:158,24.890,0.061,0.237,-0.136,10.154,9.530,12.634
16:12:21:158,24.890,0.052,0.197,-0.154,11.998,7.590,15.145
16:12:21:18,24.912,0.094,0.179,-0.213,13.234,7.134,17.052
16:12:21:236,24.967,0.131,0.137,-0.235,14.987,7.512,20.413
16:12:21:236,24.968,0.188,0.084,-0.261,16.667,8.620,24.389
16:12:21:288,25.019,0.242,0.023,-0.283,17.787,9.471,27.314
16:12:21:289,25.020,0.303,-0.079,-0.302,19.460,11.178,32.047
16:12:21:311,25.043,0.344,-0.147,-0.310,20.434,12.595,35.391
16:12:21:367,25.099,0.340,-0.207,-0.284,21.585,14.882,40.327
16:12:21:367,25.099,0.350,-0.281,-0.252,22.294,16.239,43.368
16:12:21:39,25.122,0.330,-0.304,-0.216,23.226,18.225,47.258
16:12:21:475,25.206,0.271,-0.361,-0.157,24.159,19.589,49.988
16:12:21:475,25.207,0.266,-0.377,-0.135,24.680,20.440,51.068
16:12:21:476,25.208,0.262,-0.399,-0.137,25.117,21.267,51.586
16:12:21:495,25.227,0.290,-0.370,-0.145,25.074,21.751,51.211
16:12:21:55,25.282,0.325,-0.276,-0.161,24.470,22.231,49.617
16:12:21:551,25.283,0.356,-0.147,-0.179,23.518,22.256,46.817
16:12:21:741,25.473,0.342,-0.087,-0.212,22.888,21.946,44.306
16:12:21:741,25.473,0.361,0.075,-0.324,21.937,20.572,39.674
16:12:21:742,25.474,0.354,0.291,-0.404,21.209,19.600,36.085
16:12:21:743,25.475,0.311,0.409,-0.403,20.016,17.721,30.197
16:12:21:785,25.517,0.154,0.235,-0.233,19.175,16.381,26.144
16:12:21:868,25.600,0.014,0.123,-0.120,17.880,14.328,20.513
16:12:21:868,25.600,-0.092,-0.061,-0.004,16.748,12.456,16.075
16:12:21:925,25.657,-0.084,-0.108,0.004,16.147,10.880,13.972
16:12:21:925,25.657,-0.050,-0.061,-0.058,15.543,9.226,12.076
16:12:21:926,25.658,0.005,0.004,-0.120,15.261,8.071,11.553
16:12:21:927,25.659,0.024,0.100,-0.224,14.789,8.884,11.738
16:12:21:977,25.709,0.019,0.057,-0.200,13.996,11.650,12.669
16:12:21:977,25.709,-0.010,0.006,-0.153,13.180,14.751,13.480
16:12:21:978,25.710,-0.129,-0.091,-0.027,11.594,20.173,14.574
16:12:21:979,25.711,-0.202,-0.174,0.042,10.421,23.699,14.926
16:12:21:997,25.729,-0.201,-0.193,0.068,8.718,27.968,14.761
16:12:21:997,25.729,-0.254,-0.162,0.084,7.331,30.731,13.742
16:12:22:073,25.805,-0.199,-0.079,0.063,6.645,31.260,12.693
16:12:22:214,25.946,-0.177,-0.027,0.079,5.860,31.346,10.957
16:12:22:214,25.946,-0.123,-0.023,0.061,5.371,30.769,9.897
16:12:22:214,25.946,-0.082,0.008,0.117,4.539,30.529,8.746
16:12:22:215,25.947,-0.005,0.058,0.163,3.622,30.144,8.212
16:12:22:24,25.972,0.014,0.059,0.190,2.983,30.578,8.158
16:12:22:24,25.972,0.013,0.083,0.286,2.042,31.409,8.344
16:12:22:24,25.972,0.056,0.127,0.348,1.506,32.372,8.502
16:12:22:241,25.973,0.103,0.123,0.345,0.850,33.611,8.680
16:12:22:257,25.988,-0.019,0.187,0.419,0.392,35.422,8.642
16:12:22:341,26.073,-0.021,0.200,0.376,0.314,35.976,8.499
16:12:22:342,26.074,-0.010,0.227,0.340,0.605,35.803,8.143
16:12:22:342,26.074,-0.004,0.275,0.289,0.975,35.309,7.821
16:12:22:392,26.124,-0.054,0.072,0.256,1.687,34.402,7.335
16:12:22:392,26.124,-0.121,-0.104,0.231,2.188,34.116,7.204
16:12:22:414,26.146,-0.151,-0.184,0.218,3.017,33.380,7.608
16:12:22:604,26.336,-0.162,-0.100,0.124,4.063,31.958,8.842
16:12:22:605,26.337,-0.223,-0.029,0.028,4.936,30.410,10.019
16:12:22:606,26.338,-0.131,0.134,-0.176,6.454,27.742,11.929
16:12:22:711,26.443,-0.089,0.197,-0.269,7.570,26.037,13.308
16:12:22:712,26.444,-0.057,0.199,-0.322,9.376,23.922,15.484
16:12:22:713,26.445,0.021,0.049,-0.293,11.473,22.124,17.727
16:12:22:714,26.446,0.040,-0.050,-0.263,12.924,21.279,19.305
16:12:22:764,26.496,0.024,-0.103,-0.294,14.999,20.831,21.859
16:12:22:765,26.497,0.034,-0.115,-0.348,16.249,20.995,23.639
16:12:22:766,26.498,0.026,-0.123,-0.379,17.966,21.719,26.311
16:12:22:766,26.498,0.053,-0.124,-0.427,19.040,22.348,28.014
16:12:22:79,26.522,0.075,-0.140,-0.437,20.536,23.421,30.351
16:12:22:79,26.522,0.106,-0.141,-0.421,19.156,24.252,30.907
16:12:22:791,26.523,0.099,-0.119,-0.408,18.006,24.970,31.085
16:12:22:792,26.524,0.089,-0.129,-0.365,15.967,26.140,31.115
16:12:22:809,26.541,0.078,-0.166,-0.342,15.813,27.627,31.893
16:12:22:834,26.566,0.075,-0.178,-0.328,15.267,28.737,32.769
16:12:22:86,26.592,0.083,-0.146,-0.338,14.469,29.889,33.216
16:12:22:886,26.618,0.100,-0.109,-0.333,13.824,29.988,33.150
16:12:22:942,26.673,0.066,-0.071,-0.303,12.762,30.384,32.306
16:12:22:942,26.674,0.063,-0.029,-0.275,12.081,29.919,31.203
16:12:22:965,26.697,-0.029,0.118,-0.234,11.350,28.735,28.756
16:12:22:991,26.723,0.014,0.202,-0.241,11.215,25.694,25.323
16:12:23:078,26.809,0.083,0.052,0.050,9.927,18.024,18.350
16:12:23:078,26.809,0.138,-0.028,0.211,8.652,15.457,16.037
16:12:23:127,26.859,0.966,-0.003,1.194,6.604,12.862,13.951
16:12:23:128,26.859,-0.096,0.255,1.626,5.663,15.334,14.152
16:12:23:203,26.935,-0.418,0.243,0.685,4.321,21.313,16.755
16:12:23:234,26.966,0.294,-0.052,0.238,4.999,23.280,19.454
16:12:23:234,26.966,0.358,-0.051,0.154,5.956,23.132,21.106
16:12:23:235,26.967,-0.016,-0.116,-0.067,7.194,24.301,23.764
16:12:23:312,27.044,-0.044,-0.144,-0.223,8.229,24.449,25.094
16:12:23:313,27.045,0.017,-0.219,-0.305,9.558,24.778,26.536
16:12:23:314,27.046,0.028,-0.176,-0.205,10.331,25.525,27.360
16:12:23:362,27.094,0.064,-0.182,-0.172,10.748,25.959,27.651
16:12:23:362,27.094,0.084,-0.199,-0.166,11.123,26.532,27.799
16:12:23:414,27.146,0.020,-0.203,-0.154,11.160,26.898,27.680
16:12:23:415,27.147,0.023,-0.211,-0.151,10.915,27.237,27.209
16:12:23:439,27.171,-0.001,-0.172,-0.119,10.524,27.328,26.722
16:12:23:493,27.225,-0.030,-0.108,-0.102,9.519,26.817,25.581
16:12:23:493,27.225,0.005,-0.030,-0.086,8.752,25.180,24.150
16:12:23:547,27.279,0.000,0.006,-0.041,8.122,23.541,22.951
16:12:23:548,27.280,0.148,-0.045,-0.017,6.767,20.568,20.984
16:12:23:627,27.359,-0.099,0.233,0.655,5.671,20.202,20.069
16:12:23:628,27.360,0.501,0.087,1.241,4.371,22.742,19.598
16:12:23:629,27.361,-0.024,0.242,0.801,2.151,29.230,20.223
16:12:23:676,27.408,-0.321,0.239,0.502,1.173,31.609,20.029
16:12:23:677,27.409,0.039,0.242,0.179,0.710,29.954,19.428
16:12:23:7,27.432,-0.070,0.250,0.110,1.761,26.476,19.245
16:12:23:784,27.516,-0.065,0.017,-0.081,3.923,20.130,18.970
16:12:23:785,27.517,0.098,-0.052,-0.099,5.395,15.634,18.860
16:12:23:786,27.518,0.155,-0.013,-0.135,7.510,10.037,19.241
16:12:23:863,27.595,0.230,0.045,-0.182,9.478,6.867,20.418
16:12:23:864,27.596,0.257,-0.046,-0.186,10.669,5.992,21.489
16:12:23:865,27.597,0.256,-0.079,-0.182,12.030,7.270,23.381
16:12:23:942,27.674,0.212,-0.108,-0.160,12.604,9.126,24.797
16:12:23:943,27.675,0.156,-0.103,-0.171,12.906,13.541,27.071
16:12:23:944,27.676,0.114,-0.089,-0.210,12.559,18.903,29.461
16:12:23:991,27.723,0.059,-0.047,-0.227,11.971,22.697,31.031
16:12:23:992,27.724,-0.017,-0.031,-0.218,10.909,27.862,33.205
16:12:24:069,27.801,-0.044,-0.024,-0.213,10.168,30.883,34.478
16:12:24:182,27.914,-0.095,0.003,-0.126,9.129,34.205,36.122
16:12:24:183,27.915,0.007,-0.005,-0.002,8.614,36.106,37.020
16:12:24:205,27.936,-0.049,0.043,0.171,5.509,40.132,40.591
16:12:24:205,27.937,-0.074,0.077,0.220,4.203,40.885,42.318
16:12:24:206,27.938,-0.088,0.143,0.251,3.515,41.204,43.676
16:12:24:283,28.015,-0.055,0.218,0.334,3.005,41.331,45.990
16:12:24:284,28.016,0.095,0.289,0.403,3.528,40.717,48.587
16:12:24:284,28.016,0.180,0.320,0.393,4.742,39.987,50.499
16:12:24:333,28.065,0.227,0.248,0.258,8.372,38.626,53.763
16:12:24:334,28.065,0.201,0.314,0.014,11.773,38.111,56.165
16:12:24:357,28.089,0.220,0.278,-0.046,18.194,37.876,59.831
16:12:24:383,28.115,0.257,0.286,-0.027,24.949,38.838,63.019
16:12:24:408,28.140,0.310,-0.002,0.023,29.613,39.903,64.759
16:12:24:466,28.198,0.346,-0.335,-0.069,36.730,42.115,67.251
16:12:24:466,28.198,0.182,-0.330,-0.036,40.722,44.396,69.327
16:12:24:519,28.251,0.195,-0.330,-0.143,48.009,48.185,72.961
16:12:24:52,28.251,0.196,-0.186,-0.258,57.298,52.421,76.396
16:12:24:54,28.272,0.190,-0.202,-0.301,63.400,55.335,78.221
16:12:24:568,28.300,0.160,-0.379,-0.282,69.820,59.898,80.043
16:12:24:621,28.353,0.112,-0.412,-0.227,71.809,62.959,80.661
16:12:24:622,28.354,0.073,-0.338,-0.196,72.335,67.603,80.986
16:12:24:647,28.379,0.047,-0.229,-0.129,71.449,71.877,80.855
16:12:24:7,28.432,0.055,-0.235,-0.097,70.543,74.491,80.473
16:12:24:701,28.433,0.047,-0.200,-0.048,68.779,77.868,79.432
16:12:24:723,28.455,0.056,-0.167,-0.018,67.451,79.941,78.469
16:12:24:75,28.482,0.050,-0.160,0.000,65.275,82.523,76.640
16:12:24:776,28.508,0.029,-0.166,0.013,63.606,83.968,75.178
16:12:24:802,28.534,-0.002,-0.111,0.015,60.625,85.856,72.706
16:12:24:829,28.561,-0.006,-0.034,0.084,57.379,87.507,70.036
16:12:24:856,28.588,-0.012,0.044,0.156,55.189,88.421,68.139
16:12:24:885,28.617,-0.004,0.088,0.186,52.292,89.411,65.170
16:12:24:908,28.639,0.003,0.172,0.274,50.878,89.677,63.094
16:12:24:934,28.666,0.013,0.179,0.340,49.809,89.121,59.733
16:12:24:96,28.692,0.049,0.245,0.387,49.806,86.909,55.869
16:12:24:988,28.720,0.145,0.211,0.355,50.146,84.473,53.005
16:12:25:013,28.745,0.204,0.125,0.281,50.224,79.636,48.505
16:12:25:071,28.803,0.181,0.179,0.258,49.684,76.587,45.914
16:12:25:071,28.803,0.188,0.177,0.186,48.420,72.826,42.990
16:12:25:072,28.804,-0.033,0.169,0.261,47.107,70.630,41.856
16:12:25:12,28.852,0.003,0.058,0.206,46.751,69.392,41.669
16:12:25:121,28.853,0.009,0.012,0.109,47.114,67.004,41.373
16:12:25:145,28.877,-0.053,0.054,0.103,47.736,65.652,41.677
16:12:25:2,28.932,-0.116,0.137,0.049,49.237,63.772,42.258
16:12:25:2,28.932,-0.090,0.182,-0.010,50.519,62.433,42.496
16:12:25:252,28.984,-0.053,0.136,-0.063,52.749,60.641,42.702
16:12:25:252,28.984,-0.003,0.024,-0.110,54.875,59.765,43.291
16:12:25:304,29.036,0.026,-0.099,-0.121,56.068,60.091,44.178
16:12:25:305,29.037,0.014,-0.163,-0.073,57.481,61.882,46.274
16:12:25:328,29.060,-0.018,-0.165,-0.052,58.190,63.613,47.924
16:12:25:354,29.086,-0.048,-0.133,-0.016,59.070,66.257,50.241
16:12:25:38,29.112,-0.052,-0.093,0.004,59.947,68.371,51.898
16:12:25:406,29.138,-0.027,-0.084,-0.003,60.578,69.315,52.500
16:12:25:432,29.164,0.004,-0.102,-0.031,61.531,70.328,52.829
16:12:25:46,29.192,0.031,-0.087,-0.041,62.085,70.905,52.750
16:12:25:485,29.217,0.047,-0.092,-0.061,62.696,71.721,52.322
16:12:25:512,29.244,0.030,-0.103,-0.067,62.912,72.801,51.727
16:12:25:538,29.270,0.017,-0.121,-0.087,62.759,73.570,51.156
16:12:25:565,29.297,-0.022,-0.086,-0.090,62.026,74.684,49.894
16:12:25:59,29.322,-0.030,-0.082,-0.126,61.238,75.342,48.790
16:12:25:616,29.348,-0.037,-0.126,-0.171,59.392,76.282,46.649
16:12:25:671,29.403,-0.047,-0.210,-0.194,57.590,77.000,44.996
16:12:25:672,29.404,-0.066,-0.242,-0.208,53.885,78.606,42.451
16:12:25:695,29.427,-0.114,-0.239,-0.268,48.681,81.088,39.800
16:12:25:721,29.453,-0.192,-0.138,-0.315,44.358,83.434,37.997
16:12:25:777,29.509,-0.267,0.063,-0.319,36.950,87.933,35.008
16:12:25:777,29.509,-0.297,0.198,-0.172,31.924,91.478,32.674
16:12:25:802,29.534,-0.266,0.146,0.013,25.717,96.688,28.602
16:12:25:856,29.588,-0.249,0.082,0.021,21.827,100.291,23.839
16:12:25:857,29.589,-0.267,0.144,0.027,20.117,102.040,20.679
16:12:25:88,29.612,-0.253,0.228,0.018,18.336,103.954,16.261
16:12:25:906,29.637,-0.220,0.233,0.039,17.295,105.260,13.697
16:12:25:961,29.693,-0.139,0.150,0.163,15.721,108.075,10.662
16:12:25:962,29.694,-0.031,0.063,0.254,14.725,110.251,9.113
16:12:26:042,29.774,0.011,0.009,0.287,13.352,113.252,7.244
16:12:26:043,29.775,0.078,-0.081,0.328,12.084,115.511,5.652
16:12:26:044,29.776,0.153,-0.115,0.279,11.311,116.456,4.609
16:12:26:063,29.795,0.191,-0.088,0.237,10.240,118.018,3.045
16:12:26:09,29.822,0.221,-0.066,0.239,9.568,118.941,2.030
16:12:26:144,29.876,0.280,-0.015,0.246,8.590,121.336,0.561
16:12:26:145,29.877,0.351,0.025,0.251,7.667,124.095,-0.763
16:12:26:168,29.900,0.419,0.018,0.236,7.084,126.238,-1.531
16:12:26:194,29.925,0.503,-0.032,0.218,6.199,128.872,-2.470
16:12:26:221,29.953,0.563,-0.068,0.198,5.561,130.425,-2.927
16:12:26:275,30.007,0.618,-0.080,0.161,4.491,131.292,-3.408
16:12:26:276,30.008,0.675,-0.009,0.138,3.724,131.473,-3.593
16:12:26:299,30.031,0.653,0.045,0.147,2.572,129.794,-3.706
16:12:26:325,30.057,0.614,0.124,0.171,1.550,127.467,-3.606
16:12:26:351,30.083,0.612,0.337,0.216,1.048,125.238,-3.436
16:12:26:406,30.138,0.550,0.379,0.221,0.750,121.461,-2.990
16:12:26:407,30.139,0.321,0.046,0.177,0.925,118.719,-2.462
16:12:26:46,30.192,0.224,-0.043,0.152,1.751,115.677,-0.965
16:12:26:46,30.192,0.158,-0.078,0.091,3.212,113.444,1.511
16:12:26:483,30.215,0.113,-0.029,0.078,4.474,113.345,3.690
16:12:26:598,30.330,-0.024,0.152,0.122,6.540,112.928,7.408
16:12:26:598,30.330,-0.170,0.262,0.082,8.023,113.161,10.014
16:12:26:598,30.330,-0.256,0.265,0.032,10.330,114.305,14.060
16:12:26:598,30.330,-0.355,0.211,0.003,12.437,116.647,18.330
16:12:26:672,30.404,-0.341,0.088,0.001,13.660,118.611,21.270
16:12:26:673,30.405,-0.338,-0.064,-0.026,15.149,121.588,25.859
16:12:26:674,30.406,-0.338,-0.121,-0.038,15.879,123.476,28.976
16:12:26:693,30.424,-0.354,-0.200,-0.032,16.681,125.763,33.494
16:12:26:719,30.451,-0.357,-0.233,-0.033,17.205,126.749,36.207
16:12:26:747,30.479,-0.399,-0.269,-0.035,18.190,127.339,39.508
16:12:26:771,30.503,-0.378,-0.318,-0.061,19.429,127.076,41.684
16:12:26:826,30.558,-0.356,-0.353,-0.083,20.250,126.604,42.458
16:12:26:827,30.559,-0.342,-0.358,-0.101,21.169,125.719,42.663
16:12:26:851,30.583,-0.350,-0.301,-0.129,21.454,125.116,42.220
16:12:26:905,30.637,-0.349,-0.238,-0.143,21.389,124.275,40.832
16:12:26:906,30.638,-0.356,-0.153,-0.140,20.893,123.487,38.587
16:12:26:929,30.661,-0.360,-0.061,-0.171,20.462,122.919,36.633
16:12:26:956,30.688,-0.346,0.000,-0.164,19.734,122.038,33.093
16:12:27:012,30.744,-0.323,0.022,-0.146,19.132,121.514,30.429
16:12:27:012,30.744,-0.320,0.144,-0.113,17.906,121.161,26.206
16:12:27:063,30.795,-0.340,0.359,-0.041,16.279,121.539,21.787
16:12:27:064,30.796,-0.299,0.454,0.041,15.030,122.212,18.697
16:12:27:088,30.820,-0.007,0.167,0.130,13.151,123.779,13.895
16:12:27:114,30.846,0.255,-0.041,0.130,12.015,124.994,10.855
16:12:27:139,30.870,0.288,-0.058,0.148,10.599,126.363,7.002
16:12:27:165,30.897,0.325,0.056,0.210,9.900,126.740,5.098
16:12:27:196,30.927,0.286,0.161,0.209,9.126,126.527,2.857
16:12:27:196,30.928,0.224,0.143,0.122,8.620,126.424,1.435
16:12:27:248,30.980,0.238,0.084,0.073,8.442,127.019,0.949
16:12:27:248,30.980,0.310,-0.056,0.027,8.327,129.282,0.833
16:12:27:27,31.002,0.360,-0.167,0.051,8.328,131.995,1.058
16:12:27:296,31.028,0.383,-0.187,0.058,8.376,136.064,1.594
16:12:27:323,31.054,0.468,-0.198,0.081,8.457,140.180,2.158
16:12:27:349,31.081,0.488,-0.187,0.063,8.532,142.103,2.475
16:12:27:375,31.107,0.469,-0.167,0.054,8.680,144.266,2.933
16:12:27:401,31.133,0.414,-0.102,0.023,8.803,144.555,3.287
16:12:27:456,31.188,0.331,0.014,0.009,9.060,144.618,3.974
16:12:27:457,31.189,0.243,0.052,-0.021,9.276,144.152,4.576
16:12:27:48,31.212,0.202,0.045,-0.018,9.615,143.905,5.794
16:12:27:507,31.239,0.151,0.052,-0.024,9.886,143.937,7.413
16:12:27:562,31.294,0.100,0.082,0.010,9.956,143.946,8.681
16:12:27:562,31.294,-0.031,0.105,-0.116,9.923,144.102,10.588
16:12:27:641,31.373,0.014,0.064,0.011,9.798,144.357,11.804
16:12:27:641,31.373,0.084,0.064,0.040,9.419,144.600,13.534
16:12:27:752,31.484,0.086,0.110,0.030,8.884,144.279,14.794
16:12:27:753,31.485,0.121,0.204,0.037,8.526,143.658,15.326
16:12:27:753,31.485,0.218,0.115,0.102,8.474,141.428,15.310
16:12:27:801,31.533,0.029,0.033,0.037,10.240,132.824,14.069
16:12:27:801,31.533,-0.087,0.091,0.005,12.070,127.452,13.840
16:12:27:802,31.534,-0.166,0.128,0.008,13.387,124.502,14.118
16:12:27:881,31.613,-0.255,0.137,-0.038,15.419,121.697,15.289
16:12:27:881,31.613,-0.280,0.137,-0.070,16.694,121.279,16.660
16:12:27:881,31.613,-0.298,0.112,-0.085,18.376,123.020,19.731
16:12:27:901,31.633,-0.312,0.028,-0.092,19.552,126.286,23.915
16:12:27:926,31.658,-0.290,-0.011,-0.073,20.030,129.055,27.147
16:12:28:067,31.799,-0.302,-0.056,-0.113,20.554,133.228,32.277
16:12:28:068,31.800,-0.326,-0.124,-0.140,20.942,135.742,35.658
16:12:28:069,31.801,-0.311,-0.214,-0.146,21.652,139.107,40.384
16:12:28:069,31.801,-0.232,-0.247,-0.161,22.196,141.009,43.094
16:12:28:087,31.819,-0.208,-0.250,-0.195,23.319,143.086,46.122
16:12:28:087,31.819,-0.211,-0.293,-0.213,24.926,144.298,47.684
16:12:28:11,31.842,-0.227,-0.313,-0.208,26.045,144.832,47.897
16:12:28:167,31.898,-0.264,-0.352,-0.207,27.212,145.457,47.003
16:12:28:167,31.898,-0.277,-0.342,-0.222,27.380,145.956,45.724
16:12:28:218,31.950,-0.333,-0.259,-0.177,26.565,147.182,43.014
16:12:28:219,31.950,-0.360,-0.167,-0.114,24.720,149.111,39.487
16:12:28:242,31.974,-0.411,-0.054,-0.046,23.169,150.803,36.732
16:12:28:268,32.000,-0.421,0.163,0.049,20.671,153.968,32.085
16:12:28:294,32.026,-0.356,0.279,0.121,19.153,156.442,28.741
16:12:28:35,32.081,-0.285,0.375,0.200,17.403,160.585,23.626
16:12:28:35,32.082,-0.205,0.482,0.303,16.587,163.572,20.380
16:12:28:402,32.134,-0.105,0.541,0.364,15.878,168.248,16.063
16:12:28:403,32.135,0.083,0.333,0.349,15.609,172.932,12.596
16:12:28:454,32.186,0.185,-0.010,0.232,15.682,175.965,10.821
16:12:28:455,32.187,0.221,-0.184,0.187,15.880,179.843,9.094
16:12:28:478,32.210,0.251,-0.213,0.223,16.000,-177.856,8.557
16:12:28:504,32.236,0.211,-0.087,0.333,16.160,-175.268,8.320
16:12:28:53,32.262,0.184,-0.038,0.370,16.341,-172.932,8.393
16:12:28:557,32.289,0.170,-0.093,0.358,16.443,-171.201,8.505
16:12:28:611,32.343,0.202,-0.189,0.274,16.425,-167.592,8.707
16:12:28:613,32.345,0.251,-0.277,0.189,16.204,-164.534,8.824
16:12:28:635,32.367,0.305,-0.295,0.143,15.557,-159.291,8.907
16:12:28:69,32.422,0.367,-0.255,0.058,14.554,-154.155,8.628
16:12:28:691,32.423,0.348,-0.190,-0.037,13.776,-151.284,8.131
16:12:28:714,32.446,0.312,-0.099,-0.138,12.585,-148.411,6.931
16:12:28:798,32.530,0.282,0.037,-0.210,11.812,-147.169,5.959
16:12:28:799,32.531,0.211,0.094,-0.270,10.725,-146.604,4.446
16:12:28:8,32.532,0.144,0.122,-0.345,9.970,-146.697,3.500
16:12:28:819,32.551,0.080,0.091,-0.430,8.813,-147.355,2.406
16:12:28:874,32.606,0.029,0.060,-0.478,7.655,-148.274,1.805
16:12:28:875,32.607,0.026,0.060,-0.514,6.902,-149.080,1.658
16:12:28:956,32.688,0.009,0.106,-0.547,5.836,-150.664,1.581
16:12:28:957,32.689,0.006,0.153,-0.577,5.201,-151.912,1.484
16:12:28:957,32.689,0.031,0.167,-0.543,4.459,-153.977,1.143
16:12:29:005,32.737,0.088,0.168,-0.479,4.083,-156.096,0.636
16:12:29:006,32.738,0.106,0.207,-0.449,4.017,-157.418,0.322
16:12:29:03,32.762,0.163,0.240,-0.452,4.199,-159.700,0.074
16:12:29:055,32.787,0.214,0.103,-0.405,4.471,-161.041,0.073
16:12:29:081,32.813,0.235,-0.034,-0.316,5.342,-163.597,0.779
16:12:29:108,32.839,0.168,-0.031,-0.148,6.772,-166.663,2.220
16:12:29:134,32.866,0.130,0.013,-0.064,8.084,-168.600,3.580
16:12:29:189,32.921,0.057,0.087,0.128,10.426,-170.666,6.134
16:12:29:19,32.922,0.026,0.186,0.247,12.038,-171.040,8.156
16:12:29:213,32.945,-0.023,0.220,0.336,14.503,-170.097,11.650
16:12:29:268,33.000,-0.070,0.123,0.364,16.925,-167.593,15.699
16:12:29:528,33.260,-0.068,0.036,0.385,18.316,-165.055,18.740
16:12:29:563,33.295,-0.054,-0.044,0.390,19.792,-160.404,23.698
16:12:29:563,33.295,-0.068,-0.142,0.403,20.347,-157.200,27.132
16:12:29:564,33.296,-0.049,-0.193,0.408,20.629,-152.947,32.118
16:12:29:565,33.297,-0.054,-0.248,0.411,20.643,-150.785,35.129
16:12:29:589,33.321,-0.052,-0.277,0.411,20.762,-148.928,38.888
16:12:29:59,33.322,-0.068,-0.321,0.388,21.237,-148.434,41.541
16:12:29:591,33.323,-0.094,-0.340,0.377,21.689,-148.755,42.674
16:12:29:633,33.365,-0.163,-0.304,0.388,22.615,-151.119,43.268
16:12:29:747,33.479,-0.201,-0.265,0.376,22.687,-153.076,42.208
16:12:29:747,33.479,-0.201,-0.231,0.354,22.219,-155.319,40.253
16:12:29:748,33.480,-0.205,-0.186,0.323,21.623,-156.940,38.518
16:12:29:749,33.481,-0.199,-0.092,0.302,20.399,-159.615,35.289
16:12:29:773,33.505,-0.189,-0.008,0.283,19.454,-161.600,32.732
16:12:29:774,33.506,-0.159,0.154,0.255,18.034,-164.986,28.268
16:12:29:775,33.507,-0.159,0.336,0.217,17.138,-167.614,24.924
16:12:29:776,33.508,-0.114,0.467,0.189,15.559,-172.019,19.564
16:12:29:799,33.530,-0.011,0.468,-0.030,13.704,-176.573,14.238
16:12:29:8,33.531,-0.190,0.199,-0.386,12.420,-179.604,11.109
16:12:29:8,33.532,-0.608,0.006,-1.064,10.794,178.989,8.653
16:12:29:801,33.533,0.268,0.194,-1.154,11.288,-176.092,9.683
16:12:29:845,33.577,0.240,0.065,-0.479,10.984,-170.212,12.613
16:12:29:846,33.578,-0.405,0.094,-0.195,12.371,-168.373,15.399
16:12:29:869,33.601,-0.189,0.107,-0.024,13.862,-166.350,17.572
16:12:29:925,33.657,-0.141,-0.009,0.328,15.706,-161.910,21.214
16:12:29:925,33.657,-0.133,-0.086,0.435,16.426,-158.479,23.713
16:12:29:978,33.709,-0.018,-0.245,0.410,16.533,-152.704,27.263
16:12:29:978,33.710,0.091,-0.308,0.254,15.787,-146.912,30.238
16:12:30:029,33.761,0.088,-0.319,0.214,15.213,-143.712,31.780
16:12:30:03,33.762,0.045,-0.317,0.161,14.640,-140.241,33.187
16:12:30:053,33.784,0.032,-0.326,0.168,14.425,-138.654,33.430
16:12:30:108,33.840,0.031,-0.338,0.178,13.966,-137.107,32.773
16:12:30:109,33.840,0.040,-0.296,0.153,13.387,-136.219,31.709
16:12:30:131,33.863,0.045,-0.183,0.134,12.123,-135.510,29.235
16:12:30:158,33.890,0.061,-0.002,0.082,10.770,-135.561,25.767
16:12:30:184,33.916,0.045,0.069,0.051,10.015,-136.370,23.003
16:12:30:21,33.942,0.067,0.194,-0.072,9.185,-138.771,18.467
16:12:30:236,33.968,0.063,0.348,-0.187,8.676,-141.333,15.451
16:12:30:293,34.025,0.065,0.253,-0.176,7.956,-145.988,11.239
16:12:30:293,34.025,-0.133,0.283,-0.257,6.824,-150.328,7.716
16:12:30:344,34.076,0.256,0.312,-0.383,5.919,-151.388,5.970
16:12:30:346,34.078,0.168,0.301,-0.370,4.774,-153.824,3.916
16:12:30:369,34.101,0.241,0.212,-0.423,4.285,-155.490,3.024
16:12:30:394,34.126,0.132,0.040,-0.378,3.851,-158.858,2.337
16:12:30:42,34.152,0.127,-0.061,-0.346,3.748,-160.660,2.343
16:12:30:446,34.178,0.212,-0.062,-0.249,4.017,-163.204,2.962
16:12:30:502,34.234,0.155,0.053,-0.191,4.850,-165.953,3.956
16:12:30:502,34.234,0.150,0.072,-0.138,5.703,-167.375,4.725
16:12:30:552,34.284,-0.019,0.034,0.012,8.322,-170.221,6.743
16:12:30:578,34.310,-0.416,0.027,-0.024,10.251,-172.201,7.829
16:12:30:633,34.365,0.213,-0.022,0.007,12.302,-172.079,9.700
16:12:30:633,34.365,0.008,0.060,0.123,13.564,-171.403,11.273
16:12:30:744,34.476,0.070,0.053,0.230,15.436,-169.579,14.088
16:12:30:744,34.476,0.029,0.049,0.271,16.672,-168.172,16.200
16:12:30:745,34.477,0.002,0.001,0.335,18.492,-166.036,19.549
16:12:30:746,34.478,-0.029,-0.057,0.368,19.652,-164.795,21.789
16:12:30:792,34.524,-0.042,-0.094,0.387,21.253,-162.871,25.025
16:12:30:792,34.524,-0.066,-0.146,0.391,22.572,-161.096,27.969
16:12:30:814,34.546,-0.075,-0.178,0.402,23.239,-159.954,29.726
16:12:30:842,34.573,-0.083,-0.204,0.412,23.852,-158.466,31.979
16:12:30:895,34.627,-0.080,-0.222,0.415,24.013,-157.645,33.154
16:12:30:896,34.628,-0.081,-0.207,0.413,23.904,-157.001,34.199
16:12:30:949,34.681,-0.117,-0.162,0.387,21.753,-157.385,33.348
16:12:30:949,34.681,-0.125,-0.135,0.373,21.364,-157.784,32.959
16:12:30:972,34.703,-0.140,-0.071,0.334,20.591,-158.883,31.777
16:12:30:998,34.730,-0.155,0.113,0.290,20.004,-160.035,30.609
16:12:31:024,34.756,-0.158,0.175,0.202,19.315,-162.630,28.208
16:12:31:079,34.811,-0.145,0.257,-0.081,19.572,-166.882,25.063
16:12:31:08,34.812,-0.226,0.087,-0.067,20.316,-170.451,22.726
16:12:31:131,34.863,-0.153,0.008,-0.033,21.241,-175.340,19.365
16:12:31:132,34.864,-0.232,-0.126,-0.152,21.419,-177.959,17.247
16:12:31:156,34.888,-0.301,-0.167,-0.213,20.924,179.846,14.724
16:12:31:181,34.913,-0.293,-0.133,-0.157,19.847,-179.379,13.294
16:12:31:208,34.940,-0.278,-0.164,-0.053,18.917,-177.399,12.875
16:12:31:234,34.965,0.173,0.320,-0.120,17.059,-171.481,13.411
16:12:31:26,34.992,-0.008,0.044,-0.146,16.447,-166.796,14.264
16:12:31:315,35.047,-0.045,-0.005,-0.089,15.377,-160.893,15.113
16:12:31:316,35.048,0.050,-0.143,-0.009,14.013,-154.653,15.806
16:12:31:339,35.071,0.131,-0.121,0.003,13.038,-150.961,16.021
16:12:31:365,35.097,0.201,-0.114,0.040,11.805,-146.951,15.834
16:12:31:393,35.125,0.240,-0.097,0.051,11.182,-145.438,15.366
16:12:31:505,35.236,0.218,-0.086,0.047,10.523,-144.810,14.149
16:12:31:506,35.237,0.176,-0.098,-0.001,9.991,-145.622,12.511
16:12:31:506,35.238,0.140,-0.132,-0.028,9.574,-146.580,11.349
16:12:31:507,35.239,0.144,-0.125,-0.110,8.728,-148.240,9.692
16:12:31:524,35.256,0.148,-0.076,-0.162,8.050,-149.138,8.699
16:12:31:578,35.310,0.143,0.008,-0.213,7.028,-150.432,7.334
16:12:31:579,35.311,0.137,0.131,-0.223,6.389,-151.159,6.486
16:12:31:601,35.333,0.146,0.179,-0.266,5.445,-151.942,5.337
16:12:31:628,35.359,0.124,0.227,-0.371,4.517,-152.369,4.469
16:12:31:684,35.415,0.107,0.212,-0.398,3.999,-152.766,4.187
16:12:31:684,35.416,0.050,0.193,-0.400,3.420,-153.337,4.322
16:12:31:707,35.439,0.000,0.295,-0.377,3.187,-153.677,4.715
16:12:31:733,35.465,-0.036,0.271,-0.339,3.176,-154.133,5.447
16:12:31:759,35.491,0.076,0.048,-0.253,3.678,-155.176,6.116
16:12:31:818,35.550,0.160,-0.071,-0.198,4.330,-156.619,6.501
16:12:31:818,35.550,0.026,-0.219,-0.005,5.843,-161.336,6.923
16:12:31:819,35.550,-0.150,-0.181,0.022,7.095,-165.503,6.999
16:12:31:867,35.599,0.031,-0.149,0.159,9.065,-171.187,7.200
16:12:31:867,35.599,-0.641,-0.032,0.075,10.290,-173.940,7.480
16:12:31:946,35.677,0.174,0.162,0.212,12.042,-173.215,9.053
16:12:31:946,35.678,-0.012,0.214,0.229,13.129,-169.828,11.825
16:12:31:971,35.703,0.136,0.145,0.221,13.578,-166.339,14.153
16:12:31:972,35.704,0.088,0.031,0.180,13.896,-161.073,17.986
16:12:31:995,35.727,0.061,-0.035,0.182,13.998,-158.135,20.580
16:12:32:05,35.782,0.044,-0.090,0.192,14.151,-154.875,24.242
16:12:32:051,35.783,0.032,-0.156,0.245,14.492,-153.093,27.346
16:12:32:103,35.835,0.021,-0.180,0.267,14.869,-152.665,28.968
16:12:32:104,35.836,-0.004,-0.209,0.291,15.635,-152.883,30.629
16:12:32:126,35.858,-0.040,-0.219,0.292,16.201,-153.435,31.219
16:12:32:152,35.884,-0.060,-0.211,0.309,16.944,-154.556,31.414
16:12:32:179,35.911,-0.083,-0.191,0.298,17.419,-155.787,30.916
16:12:32:234,35.966,-0.091,-0.179,0.297,17.529,-156.553,30.300
16:12:32:235,35.967,-0.080,-0.162,0.272,16.755,-157.585,28.733
16:12:32:258,35.989,-0.061,-0.120,0.252,15.329,-158.220,27.151
16:12:32:285,36.017,-0.045,-0.043,0.257,14.499,-158.773,25.634
16:12:32:31,36.042,-0.019,0.084,0.247,13.801,-159.168,24.444
16:12:32:336,36.068,0.011,0.113,0.206,12.685,-160.104,22.228
16:12:32:363,36.095,0.031,0.144,0.127,11.633,-161.909,19.403
16:12:32:418,36.150,0.062,0.191,0.079,10.906,-163.608,17.269
16:12:32:419,36.151,0.106,0.296,-0.005,9.752,-166.850,13.860
16:12:32:47,36.202,0.152,0.434,-0.126,8.937,-169.407,11.572
16:12:32:471,36.203,-0.084,0.075,-0.426,7.770,-173.405,8.494
16:12:32:523,36.255,0.439,-0.201,-1.674,7.524,-172.146,7.558
16:12:32:524,36.256,-0.323,0.343,-0.655,7.755,-169.506,8.603
16:12:32:546,36.278,0.277,-0.089,-0.471,8.251,-167.032,10.242
16:12:32:575,36.307,-0.081,-0.080,-0.416,9.308,-166.011,11.816
16:12:32:6,36.332,-0.095,-0.024,0.035,10.912,-164.386,14.708
16:12:32:654,36.386,-0.063,-0.063,0.254,11.940,-162.412,16.819
16:12:32:655,36.387,-0.038,-0.125,0.299,13.197,-159.365,19.698
16:12:32:677,36.409,0.069,-0.212,0.234,13.955,-155.596,22.357
16:12:32:704,36.435,0.094,-0.235,0.202,14.158,-153.032,23.928
16:12:32:759,36.491,0.093,-0.254,0.153,14.303,-149.868,25.737
16:12:32:76,36.492,0.028,-0.260,0.148,14.442,-148.382,26.587
16:12:32:782,36.514,0.042,-0.210,0.127,14.487,-147.069,27.060
16:12:32:838,36.570,0.034,-0.188,0.126,14.337,-146.742,26.688
16:12:32:839,36.570,0.033,-0.155,0.125,14.121,-147.263,26.054
16:12:32:92,36.652,0.114,-0.061,0.095,13.822,-148.983,24.574
16:12:32:92,36.652,0.113,-0.087,0.098,13.852,-151.372,23.266
16:12:32:921,36.653,0.121,0.061,-0.061,14.199,-155.901,21.116
16:12:32:971,36.703,0.051,0.094,-0.320,14.736,-159.927,19.321
16:12:32:971,36.703,-0.311,0.036,-0.762,14.846,-161.037,18.661
16:12:33:022,36.753,0.074,0.351,-0.840,14.328,-159.954,18.828
16:12:33:022,36.754,0.383,0.363,-0.444,13.980,-159.425,19.379
16:12:33:074,36.806,0.120,0.165,-0.258,14.699,-161.467,20.381
16:12:33:075,36.807,-0.028,0.183,-0.185,16.203,-164.279,20.901
16:12:33:127,36.859,-0.062,0.278,-0.075,19.128,-168.440,21.766
16:12:33:127,36.859,-0.030,0.213,-0.019,21.786,-170.976,22.590
16:12:33:15,36.882,-0.083,0.069,-0.066,23.069,-171.612,23.123
16:12:33:207,36.939,-0.078,-0.065,-0.094,24.800,-170.988,24.467
16:12:33:207,36.939,0.030,-0.072,-0.039,26.088,-169.825,25.874
16:12:33:288,37.019,-0.020,-0.043,-0.026,28.317,-168.270,28.104
16:12:33:288,37.020,-0.121,0.023,0.037,30.714,-167.230,30.013
16:12:33:289,37.021,-0.171,0.017,0.081,32.293,-166.710,31.047
16:12:33:308,37.040,-0.119,-0.049,0.175,34.431,-165.894,32.338
16:12:33:334,37.066,-0.123,-0.091,0.183,35.694,-165.320,33.042
16:12:33:39,37.122,-0.107,-0.171,0.183,37.314,-164.467,33.846
16:12:33:391,37.123,-0.102,-0.202,0.174,38.198,-163.935,34.183
16:12:33:413,37.144,-0.035,-0.247,0.207,39.343,-163.485,34.216
16:12:33:439,37.171,-0.066,-0.244,0.181,40.308,-163.923,33.350
16:12:33:465,37.197,-0.043,-0.232,0.211,40.809,-164.643,32.305
16:12:33:492,37.224,-0.046,-0.173,0.245,40.801,-166.580,29.710
16:12:33:519,37.251,-0.009,-0.080,0.250,41.050,-168.213,27.823
16:12:33:573,37.305,-0.033,-0.029,0.239,41.151,-171.033,24.728
16:12:33:574,37.306,0.002,-0.033,0.262,40.790,-173.233,22.110
16:12:33:626,37.358,0.033,-0.032,0.248,40.325,-174.380,20.629
16:12:33:626,37.358,0.041,-0.006,0.196,39.491,-175.825,18.697
16:12:33:649,37.381,0.024,0.025,0.171,38.884,-176.623,17.591
16:12:33:675,37.407,0.022,0.105,0.145,37.868,-177.621,16.177
16:12:33:701,37.433,0.051,0.104,0.137,36.701,-178.206,14.906
16:12:33:728,37.460,0.117,0.156,0.115,35.808,-178.673,14.106
16:12:33:754,37.486,0.056,0.133,0.083,34.107,-179.212,12.891
16:12:33:81,37.542,0.128,0.173,0.017,32.874,-179.351,12.283
16:12:33:811,37.542,-0.016,0.149,-0.055,30.882,-179.480,11.149
16:12:33:832,37.564,-0.060,0.029,-0.098,28.555,-178.307,10.553
16:12:33:859,37.590,-0.075,-0.117,-0.131,26.791,-175.698,10.798
16:12:33:914,37.646,-0.130,-0.243,-0.143,24.078,-170.552,11.911
16:12:33:915,37.647,-0.177,-0.223,-0.090,22.306,-166.431,12.919
16:12:33:937,37.669,-0.225,-0.101,0.025,19.952,-159.762,14.367
16:12:33:964,37.696,-0.266,0.231,-0.002,17.941,-151.870,15.590
16:12:33:99,37.722,0.050,0.124,-0.139,16.905,-144.189,17.105
16:12:34:045,37.777,0.032,-0.033,-0.088,15.555,-134.317,18.803
16:12:34:046,37.778,-0.032,-0.112,-0.063,14.634,-128.935,19.529
16:12:34:069,37.801,0.041,-0.138,-0.133,12.900,-121.458,20.422
16:12:34:095,37.827,0.057,-0.199,-0.069,11.973,-117.513,20.665
16:12:34:125,37.857,0.116,-0.170,-0.066,11.203,-113.379,20.557
16:12:34:125,37.857,0.087,-0.202,-0.005,11.184,-111.099,19.843
16:12:34:177,37.908,0.075,-0.134,0.032,11.220,-110.311,19.094
16:12:34:178,37.909,0.068,-0.132,0.038,11.082,-108.745,17.792
16:12:34:229,37.961,0.096,-0.095,0.004,10.731,-107.410,16.887
16:12:34:23,37.962,0.081,-0.062,-0.062,9.828,-104.712,15.482
16:12:34:252,37.984,-0.016,0.022,-0.125,8.748,-102.239,13.935
16:12:34:279,38.011,-0.056,0.050,-0.168,8.065,-100.714,12.800
16:12:34:419,38.151,-0.069,0.048,-0.214,6.965,-99.564,10.958
16:12:34:42,38.152,-0.115,0.136,-0.284,6.272,-99.468,9.577
16:12:34:421,38.152,-0.193,0.170,-0.271,5.273,-99.771,7.530
16:12:34:44,38.172,-0.169,0.328,-0.321,3.958,-101.618,4.464
16:12:34:441,38.173,-0.200,0.319,-0.320,3.409,-103.185,3.035
16:12:34:463,38.195,-0.226,0.252,-0.332,3.132,-104.256,2.329
16:12:34:547,38.279,-0.244,-0.045,-0.310,2.854,-105.274,1.872
16:12:34:548,38.280,-0.225,-0.165,-0.324,2.823,-105.558,2.100
16:12:34:548,38.280,-0.212,-0.126,-0.319,3.142,-105.697,3.215
16:12:34:597,38.329,-0.121,0.011,-0.270,3.997,-106.403,5.001
16:12:34:598,38.330,-0.010,0.159,-0.181,4.901,-107.045,6.320
16:12:34:622,38.354,-0.058,0.132,0.063,6.688,-108.315,8.263
16:12:34:674,38.406,0.032,0.138,0.017,8.037,-108.451,9.624
16:12:34:731,38.463,0.010,0.134,0.061,9.946,-107.583,11.916
16:12:34:731,38.463,0.069,0.064,0.047,11.453,-104.764,14.855
16:12:34:781,38.513,0.147,-0.012,0.086,13.333,-99.333,20.762
16:12:34:782,38.514,0.157,-0.023,0.120,14.014,-97.589,23.232
16:12:34:891,38.623,0.189,-0.059,0.175,15.170,-95.647,26.730
16:12:34:892,38.624,0.166,-0.089,0.201,16.100,-94.806,28.823
16:12:34:893,38.625,0.162,-0.152,0.259,17.635,-93.669,31.580
16:12:34:894,38.626,0.149,-0.196,0.290,18.994,-92.575,33.887
16:12:34:91,38.642,0.141,-0.216,0.279,19.705,-91.728,35.147
16:12:34:966,38.698,0.105,-0.232,0.266,20.439,-90.351,36.563
16:12:34:966,38.698,0.091,-0.193,0.264,20.756,-89.535,37.146
16:12:35:017,38.749,0.083,-0.166,0.272,21.118,-88.400,37.313
16:12:35:017,38.749,0.080,-0.093,0.297,21.451,-87.998,36.502
16:12:35:069,38.801,0.083,-0.063,0.313,21.632,-87.865,35.398
16:12:35:07,38.802,0.134,-0.007,0.330,21.596,-87.844,32.987
16:12:35:093,38.824,0.151,0.029,0.321,21.262,-87.625,30.948
16:12:35:148,38.880,0.188,0.139,0.277,20.308,-87.037,27.324
16:12:35:149,38.881,0.207,0.227,0.228,19.461,-86.321,24.572
16:12:35:201,38.933,0.180,0.170,0.097,18.016,-84.840,20.115
16:12:35:202,38.934,0.071,-0.033,-0.078,16.544,-82.778,15.651
16:12:35:255,38.987,0.020,-0.099,-0.149,15.703,-81.442,12.915
16:12:35:255,38.987,0.029,-0.100,-0.196,14.730,-79.727,9.364
16:12:35:277,39.009,0.145,0.069,-0.223,14.258,-79.079,7.384
16:12:35:332,39.064,0.179,0.135,-0.217,13.658,-78.027,5.021
16:12:35:332,39.064,0.135,0.036,-0.204,13.105,-76.193,3.470
16:12:35:355,39.087,0.063,-0.058,-0.240,12.731,-73.796,2.934
16:12:35:381,39.113,-0.015,-0.112,-0.280,12.071,-70.196,2.646
16:12:35:437,39.169,-0.048,-0.160,-0.326,11.551,-67.500,2.602
16:12:35:438,39.170,-0.092,-0.191,-0.339,10.707,-64.151,2.506
16:12:35:46,39.192,-0.145,-0.206,-0.319,9.798,-61.247,2.189
16:12:35:515,39.247,-0.194,-0.156,-0.285,9.157,-60.153,1.882
16:12:35:516,39.248,-0.236,-0.097,-0.227,8.197,-58.912,1.380
16:12:35:597,39.329,-0.275,-0.073,-0.202,7.579,-58.421,1.104
16:12:35:598,39.330,-0.350,-0.017,-0.145,6.707,-57.633,0.848
16:12:35:599,39.330,-0.376,-0.014,-0.090,6.180,-57.303,0.782
16:12:35:647,39.379,-0.399,-0.030,-0.077,5.419,-56.478,0.867
16:12:35:648,39.380,-0.476,-0.007,-0.057,4.606,-55.352,1.093
16:12:35:671,39.402,-0.492,0.046,-0.046,4.068,-55.349,1.272
16:12:35:696,39.428,-0.495,0.112,-0.049,3.377,-55.855,1.503
16:12:35:863,39.595,-0.439,0.160,-0.045,3.035,-56.831,1.614
16:12:35:864,39.596,-0.401,0.227,-0.023,2.769,-58.618,1.704
16:12:35:865,39.597,-0.372,0.251,-0.016,2.844,-60.270,1.773
16:12:35:865,39.597,-0.362,0.235,-0.032,3.079,-60.657,1.884
16:12:35:887,39.619,-0.336,0.118,-0.110,3.624,-61.299,2.239
16:12:35:887,39.619,-0.331,-0.006,-0.155,4.096,-61.241,2.675
16:12:35:887,39.619,-0.253,-0.039,-0.172,5.042,-62.175,3.762
16:12:35:907,39.639,-0.141,0.027,-0.134,5.916,-62.966,4.789
16:12:35:932,39.664,-0.021,0.078,-0.095,7.629,-64.634,6.769
16:12:35:988,39.720,0.085,0.144,-0.064,9.660,-65.233,9.226
16:12:35:989,39.721,0.182,0.163,-0.028,11.070,-65.310,11.103
16:12:36:011,39.743,0.251,0.117,-0.031,13.049,-63.768,14.358
16:12:36:038,39.770,0.244,0.040,-0.042,14.210,-62.428,16.769
16:12:36:065,39.797,0.259,0.021,-0.032,15.697,-59.961,20.606
16:12:36:091,39.823,0.302,-0.041,-0.006,16.923,-57.632,24.558
16:12:36:117,39.848,0.322,-0.074,0.000,17.622,-56.258,27.135
16:12:36:173,39.905,0.352,-0.147,0.008,18.677,-54.802,30.739
16:12:36:173,39.905,0.387,-0.185,0.036,19.454,-54.286,32.866
16:12:36:195,39.927,0.394,-0.227,0.069,20.709,-54.043,35.570
16:12:36:221,39.953,0.402,-0.250,0.088,21.891,-54.142,37.663
16:12:36:249,39.981,0.393,-0.252,0.121,22.528,-54.296,38.697
16:12:36:307,40.038,0.372,-0.265,0.137,23.183,-54.589,39.709
16:12:36:307,40.039,0.349,-0.256,0.148,23.401,-54.806,40.030
16:12:36:308,40.039,0.338,-0.218,0.177,23.519,-55.289,39.939
16:12:36:354,40.086,0.324,-0.171,0.205,23.481,-55.684,39.470
16:12:36:382,40.114,0.330,-0.123,0.219,23.180,-56.433,38.099
16:12:36:382,40.114,0.318,-0.104,0.223,22.451,-57.163,35.938
16:12:36:436,40.168,0.325,-0.043,0.215,21.580,-57.499,34.086
16:12:36:436,40.168,0.284,0.079,0.190,19.715,-57.673,30.656
16:12:36:488,40.220,0.233,0.213,0.152,18.250,-57.641,27.858
16:12:36:488,40.220,0.169,0.306,0.101,16.005,-57.546,22.779
16:12:36:569,40.301,-0.035,0.139,0.000,13.987,-57.445,17.116
16:12:36:569,40.301,-0.151,0.093,-0.045,12.803,-57.479,13.469
16:12:36:57,40.302,-0.241,0.076,-0.085,11.391,-57.957,8.711
16:12:36:59,40.322,-0.223,0.087,-0.079,10.729,-58.479,6.259
16:12:36:615,40.347,-0.104,0.075,-0.103,10.072,-58.971,3.749
16:12:36:641,40.373,-0.081,0.008,-0.098,9.785,-58.560,2.804
16:12:36:749,40.480,-0.108,-0.026,-0.102,9.606,-56.227,2.367
16:12:36:781,40.513,-0.128,-0.065,-0.109,9.638,-52.017,2.795
16:12:36:782,40.514,-0.149,-0.108,-0.150,9.701,-48.375,3.358
16:12:36:783,40.515,-0.223,-0.126,-0.169,9.790,-42.286,4.343
16:12:36:784,40.516,-0.230,-0.150,-0.143,9.868,-38.147,4.982
16:12:36:8,40.532,-0.285,-0.154,-0.134,9.877,-31.890,5.860
16:12:36:825,40.557,-0.389,-0.129,-0.153,9.775,-26.053,6.678
16:12:36:853,40.585,-0.415,-0.081,-0.119,9.642,-22.932,7.249
16:12:36:907,40.639,-0.467,-0.019,-0.021,9.411,-19.638,8.265
16:12:36:908,40.640,-0.425,-0.010,-0.020,9.264,-18.356,9.089
16:12:36:959,40.691,-0.405,-0.009,0.010,9.008,-17.560,10.555
16:12:36:96,40.692,-0.381,0.058,0.016,9.160,-17.566,13.349
16:12:36:983,40.715,-0.350,0.129,-0.004,8.890,-18.173,14.334
16:12:37:01,40.742,-0.269,0.223,-0.041,8.439,-19.925,15.589
16:12:37:093,40.825,-0.201,0.327,-0.056,8.117,-21.547,16.287
16:12:37:094,40.826,-0.143,0.465,-0.077,7.623,-25.063,17.208
16:12:37:095,40.827,-0.137,0.468,-0.051,7.451,-27.845,17.757
16:12:37:114,40.846,-0.178,0.169,-0.175,7.782,-33.323,18.724
16:12:37:14,40.872,0.055,-0.034,-0.132,9.316,-40.097,20.094
16:12:37:167,40.899,0.195,-0.120,0.033,10.765,-44.800,21.163
16:12:37:194,40.926,0.205,-0.104,0.107,13.187,-50.475,22.986
16:12:37:219,40.951,0.314,0.035,0.103,14.592,-52.937,24.490
16:12:37:275,41.007,0.344,0.038,0.099,16.413,-54.886,26.960
16:12:37:275,41.007,0.404,0.017,0.089,18.186,-55.477,29.340
16:12:37:357,41.089,0.422,-0.066,0.146,19.475,-55.430,30.838
16:12:37:357,41.089,0.405,-0.164,0.167,21.149,-54.323,33.211
16:12:37:357,41.089,0.408,-0.190,0.179,21.900,-52.883,34.942
16:12:37:464,41.196,0.416,-0.228,0.151,22.307,-49.908,37.735
16:12:37:464,41.196,0.403,-0.224,0.117,22.078,-47.673,39.556
16:12:37:465,41.197,0.402,-0.223,0.095,21.189,-44.548,41.885
16:12:37:466,41.198,0.374,-0.218,0.092,20.034,-42.163,43.411
16:12:37:511,41.243,0.346,-0.217,0.094,19.327,-41.117,43.879
16:12:37:511,41.243,0.300,-0.218,0.127,18.575,-40.434,43.672
16:12:37:561,41.293,0.294,-0.229,0.144,18.260,-40.453,42.980
16:12:37:589,41.321,0.308,-0.209,0.158,17.868,-40.889,41.216
16:12:37:59,41.322,0.307,-0.164,0.151,17.314,-41.495,38.756
16:12:37:615,41.347,0.307,-0.146,0.147,16.790,-41.835,36.778
16:12:37:64,41.372,0.303,-0.104,0.125,15.673,-41.978,33.389
16:12:37:694,41.426,0.260,0.011,0.088,14.688,-41.721,30.853
16:12:37:695,41.427,0.205,0.102,0.056,13.047,-40.847,26.574
16:12:37:747,41.478,0.142,0.289,0.013,11.537,-39.707,21.647
16:12:37:748,41.479,0.099,0.528,-0.041,10.703,-38.919,18.052
16:12:37:771,41.503,-0.012,0.740,-0.141,9.715,-37.741,12.469
16:12:37:797,41.529,-0.151,0.595,-0.109,9.202,-36.805,9.025
16:12:37:822,41.554,-0.299,-0.080,-0.027,8.861,-34.649,5.250
16:12:37:849,41.581,-0.238,-0.203,0.035,8.684,-33.366,4.048
16:12:37:875,41.607,-0.168,-0.288,-0.045,8.814,-31.784,4.064
16:12:37:901,41.633,-0.024,-0.033,-0.223,9.320,-30.416,5.829
16:12:37:928,41.659,0.028,0.081,-0.309,9.680,-28.961,7.626
16:12:37:954,41.686,0.107,0.044,-0.235,10.229,-25.778,10.661
16:12:37:981,41.713,0.138,-0.128,-0.158,10.575,-23.127,12.688
16:12:38:006,41.738,0.104,-0.175,-0.136,10.814,-18.316,15.627
16:12:38:062,41.793,-0.052,-0.209,-0.136,10.430,-12.678,18.364
16:12:38:063,41.794,0.062,-0.283,-0.076,9.937,-9.211,19.899
16:12:38:087,41.819,0.147,-0.279,0.104,9.161,-5.076,21.238
16:12:38:112,41.843,0.195,-0.269,0.227,8.226,-2.203,21.772
16:12:38:138,41.870,0.188,-0.024,0.421,5.838,3.516,22.410
16:12:38:164,41.896,-0.031,-0.012,0.191,2.204,11.044,22.852
16:12:38:19,41.922,-0.056,0.017,0.063,0.141,15.751,22.461
16:12:38:216,41.948,-0.183,0.029,0.136,-1.614,21.254,21.108
16:12:38:243,41.975,-0.129,0.012,0.067,-1.697,23.030,20.173
16:12:38:27,42.002,-0.187,-0.067,0.045,-0.901,23.195,19.062
16:12:38:296,42.028,-0.009,-0.049,0.019,0.413,20.897,17.750
16:12:38:322,42.053,-0.041,0.046,0.091,1.071,19.027,16.684
16:12:38:348,42.080,-0.001,0.035,0.084,1.568,16.443,14.874
16:12:38:374,42.106,-0.062,0.068,0.111,1.480,14.882,13.658
16:12:38:401,42.133,-0.043,0.056,0.132,1.056,13.742,12.066
16:12:38:427,42.158,-0.144,0.151,0.153,0.336,13.870,10.938
16:12:38:483,42.215,-0.181,0.220,0.180,-0.040,14.039,10.365
16:12:38:483,42.215,-0.199,0.365,0.206,-0.231,13.354,9.710
16:12:38:505,42.237,-0.157,0.321,0.240,-0.074,12.292,9.451
16:12:38:532,42.264,0.183,-0.031,0.281,0.280,11.083,9.291
16:12:38:558,42.289,-0.028,-0.142,0.323,0.646,11.115,9.340
16:12:38:586,42.318,0.028,-0.136,0.093,1.602,9.498,9.495
16:12:38:612,42.344,0.125,-0.057,0.041,3.344,3.100,9.236
16:12:38:666,42.398,-0.060,0.021,-0.154,4.942,-2.950,8.876
16:12:38:666,42.398,0.287,0.156,-0.057,7.379,-13.180,7.919
16:12:38:692,42.424,-0.470,0.510,-0.234,9.051,-16.892,7.717
16:12:38:693,42.425,0.231,0.039,0.018,11.090,-16.521,8.791
16:12:38:715,42.447,0.041,-0.050,-0.075,12.590,-12.684,10.983
16:12:38:742,42.474,0.116,-0.056,-0.065,13.181,-8.921,13.134
16:12:38:768,42.500,-0.015,-0.090,-0.176,13.526,-1.987,17.204
16:12:38:794,42.525,-0.024,-0.090,-0.224,13.464,2.502,20.143
16:12:38:849,42.581,-0.018,-0.106,-0.252,13.208,8.181,24.402
16:12:38:85,42.582,0.025,-0.120,-0.225,13.074,11.084,26.895
16:12:38:902,42.634,0.059,-0.129,-0.210,13.106,14.149,29.928
16:12:38:903,42.635,0.119,-0.136,-0.199,13.371,16.008,31.973
16:12:38:925,42.657,0.149,-0.150,-0.207,13.560,16.803,32.813
16:12:38:951,42.683,0.178,-0.139,-0.219,13.619,17.643,33.406
16:12:38:978,42.709,0.164,-0.130,-0.208,13.515,17.972,33.416
16:12:39:033,42.765,0.164,-0.086,-0.204,12.440,17.870,32.089
16:12:39:034,42.765,0.178,0.029,-0.199,12.188,17.357,31.075
16:12:39:087,42.819,0.174,0.051,-0.172,12.109,16.628,30.051
16:12:39:087,42.819,0.162,0.066,-0.124,12.103,15.000,28.071
16:12:39:109,42.841,0.159,0.266,-0.081,12.128,13.074,26.511
16:12:39:135,42.867,0.099,0.335,0.061,12.686,10.149,23.808
16:12:39:19,42.922,0.107,0.303,0.169,13.667,5.048,20.821
16:12:39:191,42.923,0.025,0.046,0.359,14.406,1.063,18.925
16:12:39:214,42.946,0.115,-0.102,0.311,15.748,-5.714,16.821
16:12:39:24,42.972,0.181,-0.117,0.198,16.839,-9.721,16.199
16:12:39:268,43.000,0.375,-0.021,0.405,18.592,-12.825,16.359
16:12:39:293,43.024,0.357,0.027,0.175,19.450,-11.540,17.413
16:12:39:32,43.052,0.222,-0.125,0.005,20.013,-6.031,20.176
16:12:39:345,43.077,0.204,-0.210,-0.115,19.373,1.401,23.181
16:12:39:371,43.103,0.074,-0.298,-0.209,18.048,7.474,25.255
16:12:39:399,43.131,-0.087,-0.295,-0.235,15.136,16.682,27.858
16:12:39:424,43.156,-0.099,-0.280,-0.235,13.141,21.938,29.002
16:12:39:45,43.182,-0.113,-0.263,-0.212,10.628,27.979,29.754
16:12:39:477,43.209,-0.090,-0.229,-0.150,8.837,31.938,29.381
16:12:39:502,43.234,-0.029,-0.210,-0.126,8.027,33.428,28.597
16:12:39:529,43.261,0.036,-0.151,-0.115,6.986,34.513,26.831
16:12:39:555,43.287,0.043,-0.109,-0.105,6.254,34.731,25.341
16:12:39:581,43.313,0.010,-0.052,-0.085,5.012,34.496,22.784
16:12:39:608,43.340,-0.005,0.077,0.013,4.125,33.960,20.906
16:12:39:635,43.367,0.025,0.195,0.062,2.792,32.596,17.927
16:12:39:69,43.422,0.063,0.302,0.176,1.557,30.200,14.884
16:12:39:69,43.422,0.245,0.373,0.300,0.741,28.500,12.934
16:12:39:712,43.444,-0.154,0.444,0.448,-0.779,28.442,10.365
16:12:39:739,43.471,0.009,0.535,0.496,-1.484,28.178,8.895
16:12:39:765,43.497,-0.039,0.471,0.547,-1.888,25.695,7.315
16:12:39:791,43.523,0.107,-0.056,0.463,-1.709,22.268,6.406
16:12:39:817,43.549,0.083,-0.221,0.475,-1.603,20.931,6.163
16:12:39:873,43.605,-0.030,-0.351,0.388,-1.265,20.491,6.295
16:12:39:874,43.605,-0.112,-0.227,0.333,-0.795,20.097,6.666
16:12:39:897,43.629,-0.163,-0.104,0.300,0.473,19.009,7.426
16:12:39:923,43.655,-0.018,0.144,0.185,2.341,16.790,8.024
16:12:39:949,43.681,-0.023,0.171,0.055,3.780,15.632,8.358
16:12:39:975,43.707,-0.066,0.190,0.048,5.998,15.292,9.126
16:12:40:002,43.733,-0.025,0.180,0.014,7.520,15.839,10.014
16:12:40:028,43.760,0.013,0.108,-0.088,9.672,17.401,12.242
16:12:40:054,43.786,0.011,0.077,-0.129,10.955,19.477,14.422
16:12:40:08,43.812,0.006,0.067,-0.196,12.550,23.103,18.556
16:12:40:107,43.839,0.033,0.028,-0.279,13.717,27.051,23.361
16:12:40:133,43.864,0.005,-0.026,-0.322,14.252,29.639,26.651
16:12:40:159,43.891,0.038,-0.085,-0.346,14.877,32.936,31.326
16:12:40:186,43.918,0.078,-0.137,-0.378,15.253,34.669,34.124
16:12:40:241,43.973,0.118,-0.168,-0.360,15.805,36.362,37.666
16:12:40:241,43.973,0.164,-0.232,-0.365,16.325,37.748,40.484
16:12:40:264,43.996,0.175,-0.279,-0.343,16.440,38.037,41.882
16:12:40:29,44.022,0.161,-0.287,-0.292,16.126,39.163,43.353
16:12:40:317,44.048,0.163,-0.263,-0.245,15.805,39.083,43.845
16:12:40:372,44.104,0.202,-0.184,-0.222,15.535,39.016,43.731
16:12:40:373,44.104,0.239,-0.118,-0.211,15.646,37.846,43.015
16:12:40:425,44.157,0.230,-0.093,-0.226,16.210,35.936,40.927
16:12:40:426,44.158,0.235,0.008,-0.217,16.597,33.062,37.601
16:12:40:477,44.209,0.302,0.191,-0.216,16.712,30.604,34.738
16:12:40:478,44.210,0.315,0.208,-0.194,16.654,26.367,29.817
16:12:40:501,44.233,0.224,0.077,-0.122,15.995,22.337,24.765
16:12:40:528,44.260,0.144,-0.115,-0.007,15.085,20.206,21.695
16:12:40:553,44.285,0.075,-0.204,0.115,13.333,17.914,17.886
16:12:40:579,44.311,0.053,-0.167,0.118,12.143,16.836,15.867
16:12:40:633,44.365,0.011,0.200,0.022,9.505,16.516,12.170
16:12:40:658,44.390,-0.056,0.104,0.062,8.044,17.986,10.321
16:12:40:684,44.416,-0.163,0.018,0.129,6.566,20.586,8.602
16:12:40:71,44.442,-0.206,-0.035,0.209,5.644,22.365,7.586
16:12:40:736,44.468,-0.246,-0.060,0.253,4.404,23.992,6.317
16:12:40:763,44.495,-0.271,-0.074,0.249,3.682,24.417,5.645
16:12:40:789,44.521,-0.262,-0.054,0.206,2.731,23.285,4.927
16:12:40:845,44.577,-0.184,-0.010,0.220,1.914,21.014,4.638
16:12:40:845,44.577,-0.145,-0.009,0.208,1.444,19.747,4.720
16:12:40:868,44.600,-0.108,-0.035,0.214,0.817,17.754,5.312
16:12:40:896,44.627,-0.083,-0.029,0.213,0.432,17.215,5.997
16:12:40:953,44.684,-0.085,-0.027,0.230,-0.097,16.744,7.390
16:12:40:954,44.685,0.209,-0.096,0.212,-0.035,16.549,8.724
16:12:40:954,44.686,0.450,-0.028,0.272,-0.245,15.450,9.874
16:12:40:999,44.731,0.349,0.046,0.192,-0.170,15.317,10.400
16:12:41:028,44.760,0.194,0.163,0.147,0.243,14.699,10.365
16:12:41:029,44.761,0.169,0.113,0.122,1.128,13.766,10.145
16:12:41:051,44.783,0.236,0.117,0.115,1.531,13.520,10.113
16:12:41:185,44.917,0.098,0.161,0.116,1.588,16.177,10.324
16:12:41:218,44.950,-0.069,0.285,0.143,1.175,20.632,10.694
16:12:41:219,44.951,-0.174,0.259,0.176,0.903,23.761,10.818
16:12:41:22,44.952,-0.289,-0.052,0.202,0.927,26.809,10.808
16:12:41:22,44.952,-0.236,-0.175,0.170,1.238,27.360,10.850
16:12:41:298,45.030,-0.196,-0.147,0.151,2.064,25.624,11.207
16:12:41:298,45.030,-0.113,-0.040,0.037,3.293,22.555,11.965
16:12:41:298,45.030,-0.068,-0.005,-0.048,4.271,20.130,12.607
16:12:41:299,45.031,-0.035,0.030,-0.090,5.858,17.007,13.681
16:12:41:344,45.076,0.009,0.089,-0.139,6.954,15.293,14.497
16:12:41:344,45.076,0.052,0.124,-0.194,8.622,13.610,15.949
16:12:41:366,45.098,0.061,0.067,-0.230,9.700,12.973,17.106
16:12:41:393,45.124,0.068,0.028,-0.231,11.139,13.249,19.133
16:12:41:419,45.151,0.062,-0.033,-0.238,12.241,14.292,21.548
16:12:41:474,45.206,0.065,-0.062,-0.241,12.797,15.172,23.330
16:12:41:475,45.207,0.080,-0.080,-0.266,13.434,16.324,26.121
16:12:41:585,45.317,0.091,-0.102,-0.265,13.795,16.878,27.926
16:12:41:586,45.318,0.110,-0.150,-0.265,14.358,17.089,30.334
16:12:41:587,45.319,0.140,-0.179,-0.252,15.001,16.605,32.253
16:12:41:588,45.319,0.162,-0.202,-0.255,15.407,16.226,33.227
16:12:41:687,45.419,0.182,-0.206,-0.243,15.848,15.337,34.239
16:12:41:687,45.419,0.187,-0.193,-0.225,14.912,14.570,33.543
16:12:41:714,45.446,0.189,-0.172,-0.206,13.379,13.370,32.147
16:12:41:714,45.446,0.220,-0.084,-0.214,13.139,12.931,31.923
16:12:41:715,45.447,0.230,-0.016,-0.195,12.479,12.356,31.134
16:12:41:839,45.571,0.231,0.057,-0.164,11.579,11.736,29.725
16:12:41:875,45.607,0.207,0.079,-0.121,10.892,11.248,28.437
16:12:41:875,45.607,0.159,0.162,-0.058,9.835,10.122,26.027
16:12:41:876,45.608,0.131,0.201,-0.013,9.201,9.037,24.129
16:12:41:877,45.609,0.105,0.297,0.036,8.422,6.757,20.931
16:12:41:895,45.627,0.033,0.165,0.153,7.740,3.916,17.536
16:12:41:896,45.627,0.062,-0.019,0.250,7.258,1.925,15.388
16:12:41:918,45.650,-0.375,-0.132,0.361,6.303,0.990,13.359
16:12:41:944,45.676,-0.167,-0.119,0.887,5.968,0.751,12.919
16:12:41:97,45.702,-0.080,0.026,0.655,6.286,3.267,13.926
16:12:42:055,45.787,0.115,0.082,0.318,6.609,6.818,15.704
16:12:42:055,45.787,0.110,0.035,0.134,6.953,9.532,17.029
16:12:42:056,45.788,-0.005,-0.009,0.014,7.119,13.877,19.202
16:12:42:134,45.866,-0.041,-0.111,-0.108,7.080,16.737,20.615
16:12:42:134,45.866,-0.048,-0.163,-0.133,7.067,20.202,22.523
16:12:42:135,45.867,0.013,-0.229,-0.186,7.271,21.660,23.548
16:12:42:183,45.915,0.016,-0.208,-0.154,7.521,23.251,24.734
16:12:42:184,45.916,0.044,-0.230,-0.138,7.648,24.431,25.419
16:12:42:207,45.938,0.056,-0.208,-0.132,7.546,25.131,25.543
16:12:42:233,45.965,0.014,-0.178,-0.132,7.056,26.186,25.187
16:12:42:259,45.991,0.024,-0.167,-0.123,6.560,26.795,24.621
16:12:42:315,46.047,0.004,-0.114,-0.051,5.360,27.630,23.316
16:12:42:315,46.047,0.001,-0.085,0.036,4.311,28.441,21.900
16:12:42:367,46.099,0.091,-0.068,0.068,3.616,28.847,20.809
16:12:42:367,46.099,0.153,0.068,0.180,2.557,30.202,18.820
16:12:42:419,46.151,0.104,0.122,0.257,1.780,31.271,17.364
16:12:42:42,46.152,0.113,0.188,0.359,0.302,33.445,15.224
16:12:42:472,46.203,-0.682,0.210,0.614,-0.670,35.530,13.849
16:12:42:473,46.204,0.272,0.140,0.084,-1.456,34.368,11.286
16:12:42:603,46.335,-0.357,0.374,0.382,-1.694,33.040,9.208
16:12:42:662,46.394,-0.174,0.356,0.233,-1.681,31.325,7.988
16:12:42:663,46.395,-0.238,0.208,0.233,-1.543,27.691,6.603
16:12:42:663,46.395,-0.117,-0.038,0.228,-1.423,25.017,6.047
16:12:42:742,46.474,-0.156,-0.163,0.255,-0.984,19.191,6.665
16:12:42:742,46.474,-0.003,-0.101,0.164,-0.527,17.024,7.378
16:12:42:743,46.475,0.018,0.030,0.076,0.565,13.646,8.404
16:12:42:744,46.476,0.098,0.118,0.038,1.470,11.654,9.039
16:12:42:819,46.551,0.021,0.119,0.014,2.817,10.784,10.230
16:12:42:819,46.551,0.016,0.095,0.001,3.905,11.971,11.917
16:12:42:82,46.552,-0.025,0.046,-0.010,4.432,14.220,13.325
16:12:42:821,46.553,-0.055,-0.011,-0.040,5.075,17.004,15.783
16:12:42:995,46.727,-0.054,-0.047,-0.068,5.490,18.768,17.541
16:12:43:076,46.808,-0.033,-0.057,-0.085,6.202,20.420,20.107
16:12:43:109,46.841,-0.004,-0.075,-0.123,6.782,21.399,21.660
16:12:43:109,46.841,0.025,-0.093,-0.131,7.600,21.704,23.451
16:12:43:11,46.842,0.063,-0.125,-0.155,8.504,21.668,24.696
16:12:43:111,46.843,0.081,-0.130,-0.164,9.216,21.701,25.368
16:12:43:213,46.945,0.086,-0.123,-0.201,10.065,21.946,26.062
16:12:43:214,46.946,0.080,-0.102,-0.189,9.772,22.183,25.735
16:12:43:215,46.947,0.070,-0.079,-0.187,9.520,23.040,25.320
16:12:43:216,46.948,0.080,-0.008,-0.191,9.688,23.486,25.223
16:12:43:29,47.022,0.083,0.033,-0.201,9.796,24.668,24.751
16:12:43:29,47.022,0.077,0.033,-0.177,9.714,25.888,23.911
16:12:43:29,47.022,0.059,0.075,-0.172,9.523,26.490,23.203
16:12:43:312,47.044,0.046,0.142,-0.164,8.769,27.648,21.762
16:12:43:313,47.045,0.041,0.367,-0.199,8.278,28.368,20.806
16:12:43:423,47.155,0.009,0.233,-0.108,7.344,29.691,19.023
16:12:43:424,47.156,-0.054,-0.140,0.082,6.323,30.612,17.061
16:12:43:425,47.157,-0.065,-0.246,0.179,5.560,31.338,16.028
16:12:43:426,47.158,-0.080,-0.251,0.207,4.494,30.750,15.106
16:12:43:528,47.260,-0.030,-0.048,0.409,3.987,29.960,15.018
16:12:43:529,47.261,0.866,0.198,1.020,4.605,28.703,15.280
16:12:43:53,47.262,0.267,0.212,0.559,4.690,31.187,16.691
16:12:43:531,47.263,0.280,-0.038,0.101,4.687,33.357,17.408
16:12:43:625,47.357,0.108,-0.100,0.134,5.577,38.152,18.679
16:12:43:659,47.391,0.001,-0.219,0.060,5.945,40.816,19.818
16:12:43:66,47.392,-0.078,-0.223,0.048,6.218,44.603,21.232
16:12:43:661,47.393,-0.116,-0.244,-0.030,6.992,45.766,22.018
16:12:43:662,47.394,-0.093,-0.230,-0.034,7.920,45.716,22.097
16:12:43:712,47.444,-0.044,-0.178,-0.016,9.537,44.228,21.635
16:12:43:713,47.445,-0.010,-0.157,-0.040,10.565,43.022,21.016
16:12:43:714,47.446,-0.013,-0.114,-0.042,11.671,41.140,19.883
16:12:43:715,47.447,-0.108,-0.078,0.002,12.015,40.200,19.152
16:12:43:763,47.495,-0.092,-0.076,0.087,12.170,38.677,18.063
16:12:43:764,47.495,0.101,-0.055,0.214,12.143,36.747,17.023
16:12:43:764,47.496,0.353,0.014,0.357,12.071,36.110,16.610
16:12:43:788,47.520,0.164,0.184,0.911,11.630,39.214,17.143
16:12:43:788,47.520,0.260,0.202,0.731,10.650,42.031,17.855
16:12:43:789,47.521,-0.140,0.267,0.545,9.198,45.213,19.016
16:12:43:809,47.541,-0.058,0.314,0.343,8.785,45.719,20.051
16:12:43:834,47.566,0.058,0.272,0.164,9.110,43.970,20.530
16:12:43:89,47.621,0.189,0.109,-0.002,10.183,39.746,20.613
16:12:43:89,47.622,0.170,-0.101,0.027,10.948,37.070,20.471
16:12:44:027,47.759,0.146,-0.215,0.066,11.349,34.887,20.575
16:12:44:028,47.760,0.136,-0.195,0.020,11.301,34.197,20.896
16:12:44:029,47.761,0.076,-0.116,-0.019,11.022,34.245,21.670
16:12:44:03,47.762,0.031,0.036,-0.102,11.003,34.474,22.239
16:12:44:045,47.777,0.028,0.104,-0.139,11.250,34.399,22.362
16:12:44:179,47.911,0.076,0.123,-0.206,11.984,34.477,22.188
16:12:44:18,47.912,0.128,0.059,-0.209,12.528,34.860,22.000
16:12:44:204,47.936,0.133,-0.027,-0.205,13.034,36.823,22.095
16:12:44:282,48.014,0.117,-0.107,-0.155,12.991,40.330,22.889
16:12:44:346,48.078,0.077,-0.118,-0.142,12.638,43.187,23.750
16:12:44:346,48.078,0.003,-0.076,-0.133,11.799,47.580,25.186
16:12:44:346,48.078,-0.032,-0.065,-0.125,11.268,50.158,25.962
16:12:44:347,48.079,-0.039,-0.070,-0.120,10.856,53.076,26.542
16:12:44:394,48.126,-0.023,-0.104,-0.137,10.986,54.879,26.316
16:12:44:395,48.127,-0.014,-0.117,-0.154,11.198,55.766,25.749
16:12:44:417,48.149,-0.071,-0.035,-0.116,11.087,60.395,21.222
16:12:44:444,48.175,-0.100,0.021,-0.084,10.842,61.855,19.709
16:12:44:445,48.176,-0.109,0.054,-0.044,10.470,64.237,17.266
16:12:44:446,48.177,-0.137,0.103,-0.003,10.186,66.577,14.692
16:12:44:494,48.226,-0.150,0.150,0.009,10.048,68.134,12.966
16:12:44:494,48.226,-0.172,0.160,0.050,9.897,70.585,10.468
16:12:44:516,48.248,-0.167,0.143,0.097,9.845,72.299,8.907
16:12:44:543,48.275,-0.200,0.189,0.159,9.827,74.923,6.777
16:12:44:571,48.302,-0.263,0.330,0.188,9.821,76.658,5.455
16:12:44:596,48.328,-0.266,0.358,0.228,9.786,79.241,3.568
16:12:44:622,48.354,-0.123,-0.092,0.251,9.804,81.958,1.869
16:12:44:648,48.380,-0.055,-0.306,0.288,9.757,83.884,1.143
16:12:44:674,48.406,-0.052,-0.278,0.287,9.573,86.484,0.776
16:12:44:7,48.432,-0.102,-0.127,0.267,9.404,87.875,0.954
16:12:44:726,48.458,-0.142,-0.017,0.198,9.261,89.671,1.621
16:12:44:753,48.485,-0.165,-0.014,0.085,9.301,92.078,2.622
16:12:44:779,48.511,-0.143,-0.064,0.070,9.345,94.691,3.443
16:12:44:864,48.596,-0.062,-0.150,0.142,9.209,99.983,4.792
16:12:44:864,48.596,0.022,-0.191,0.145,8.876,103.956,5.625
16:12:44:865,48.597,0.146,-0.196,0.076,8.016,110.224,6.577
16:12:44:884,48.616,0.257,-0.121,-0.001,7.272,114.772,6.953
16:12:44:912,48.644,0.385,-0.046,0.299,6.096,122.333,7.239
16:12:44:966,48.697,0.411,-0.028,0.236,5.494,127.372,6.844
16:12:44:966,48.698,0.377,0.008,0.188,5.447,128.184,6.246
16:12:44:989,48.721,0.318,0.012,0.151,5.680,127.428,5.182
16:12:45:015,48.747,0.286,-0.017,0.142,6.066,124.542,3.993
16:12:45:041,48.773,0.280,-0.028,0.140,6.327,121.942,3.122
16:12:45:097,48.829,0.266,-0.044,0.105,6.525,117.923,1.757
16:12:45:097,48.829,0.284,-0.036,0.119,6.454,115.701,0.862
16:12:45:15,48.881,0.297,-0.045,0.147,6.087,113.411,-0.424
16:12:45:151,48.882,0.293,-0.079,0.230,5.946,112.214,-1.147
16:12:45:204,48.935,0.290,-0.069,0.261,5.622,111.614,-1.931
16:12:45:204,48.935,0.269,0.011,0.336,5.234,110.684,-3.042
16:12:45:225,48.957,0.284,0.127,0.390,5.062,109.910,-3.758
16:12:45:281,49.013,0.298,0.209,0.459,4.938,108.464,-4.841
16:12:45:281,49.013,0.311,0.164,0.490,4.965,107.327,-5.531
16:12:45:305,49.037,0.280,0.081,0.548,5.187,105.198,-6.156
16:12:45:331,49.063,0.182,0.007,0.493,5.673,102.259,-5.793
16:12:45:356,49.088,0.081,0.021,0.426,6.228,99.820,-4.831
16:12:45:383,49.115,-0.015,0.125,0.305,7.547,96.032,-2.382
16:12:45:409,49.141,-0.096,0.260,0.188,8.841,93.911,-0.224
16:12:45:435,49.167,-0.157,0.296,0.102,11.258,92.159,3.594
16:12:45:462,49.194,-0.259,0.322,0.010,13.874,92.621,8.141
16:12:45:547,49.278,-0.308,0.297,-0.043,15.489,94.097,11.664
16:12:45:547,49.278,-0.349,0.209,-0.113,17.489,97.496,17.666
16:12:45:548,49.279,-0.339,0.111,-0.140,18.492,100.111,22.033
16:12:45:569,49.301,-0.357,-0.011,-0.187,19.563,103.829,28.757
16:12:45:57,49.302,-0.355,-0.091,-0.224,20.387,106.682,35.242
16:12:45:621,49.353,-0.337,-0.128,-0.269,21.124,107.869,39.188
16:12:45:646,49.378,-0.279,-0.217,-0.339,23.009,108.681,44.350
16:12:45:675,49.407,-0.253,-0.341,-0.335,24.811,108.878,47.263
16:12:45:675,49.407,-0.216,-0.379,-0.314,27.831,108.965,50.805
16:12:45:698,49.430,-0.142,-0.427,-0.316,29.863,108.870,52.531
16:12:45:753,49.485,-0.091,-0.457,-0.304,32.618,108.414,54.111
16:12:45:754,49.486,-0.059,-0.454,-0.299,34.798,107.632,54.460
16:12:45:777,49.509,-0.076,-0.448,-0.320,35.835,106.891,53.925
16:12:45:833,49.565,-0.176,-0.366,-0.392,36.214,105.576,51.904
16:12:45:833,49.565,-0.207,-0.273,-0.412,35.264,104.689,49.534
16:12:45:856,49.588,-0.206,-0.166,-0.425,32.713,103.362,44.650
16:12:45:881,49.613,-0.277,-0.015,-0.427,29.487,102.345,38.436
16:12:45:908,49.640,-0.314,0.094,-0.391,27.223,102.064,33.796
16:12:45:988,49.719,-0.422,0.345,-0.322,23.751,102.585,26.287
16:12:46:018,49.750,-0.469,0.529,-0.193,21.430,103.873,21.127
16:12:46:019,49.751,-0.292,0.436,0.075,18.358,107.585,13.758
16:12:46:02,49.752,-0.016,0.321,0.344,16.872,110.876,9.438
16:12:46:039,49.771,0.111,0.234,0.429,15.601,115.432,4.218
16:12:46:065,49.797,0.061,0.166,0.431,15.057,119.027,0.665
16:12:46:091,49.823,0.038,0.134,0.455,14.851,120.185,-0.901
16:12:46:119,49.850,0.054,0.045,0.431,14.640,122.133,-2.205
16:12:46:202,49.934,0.053,-0.055,0.409,14.535,123.311,-2.551
16:12:46:203,49.935,0.091,-0.126,0.406,14.421,126.605,-2.629
16:12:46:204,49.936,0.153,-0.242,0.404,14.284,130.407,-2.508
16:12:46:252,49.984,0.198,-0.299,0.415,14.138,133.516,-2.462
16:12:46:253,49.984,0.251,-0.285,0.431,13.783,137.313,-2.575
16:12:46:276,50.008,0.259,-0.229,0.408,13.422,139.675,-2.780
16:12:46:302,50.034,0.282,-0.168,0.367,12.633,142.028,-3.092
16:12:46:328,50.060,0.320,-0.086,0.319,11.905,143.306,-3.186
16:12:46:354,50.086,0.325,-0.030,0.287,10.511,144.511,-3.014
16:12:46:38,50.112,0.368,-0.002,0.227,8.812,145.220,-2.413
16:12:46:407,50.139,0.427,0.011,0.131,7.557,145.003,-1.798
16:12:46:434,50.165,0.453,0.010,0.074,5.596,144.044,-0.626
16:12:46:488,50.220,0.493,0.055,-0.012,4.304,142.354,0.293
16:12:46:489,50.221,0.509,0.097,-0.044,2.563,138.688,1.886
16:12:46:542,50.274,0.285,-0.006,-0.716,1.371,134.006,3.543
16:12:46:542,50.274,0.246,0.098,-0.750,0.747,132.331,4.285
16:12:46:564,50.296,0.387,0.188,-0.130,0.518,132.343,4.928
16:12:46:621,50.353,0.413,0.176,0.068,0.983,132.593,5.146
16:12:46:621,50.353,0.341,0.143,-0.010,2.108,130.256,5.313
16:12:46:701,50.433,0.232,0.044,0.058,3.706,126.306,5.109
16:12:46:702,50.434,0.196,0.040,0.078,4.931,123.497,4.917
16:12:46:702,50.434,0.122,0.113,0.087,7.052,119.757,4.636
16:12:46:724,50.455,0.051,0.217,0.114,8.674,117.651,4.559
16:12:46:748,50.480,-0.080,0.301,0.126,11.377,115.965,5.016
16:12:46:774,50.506,-0.232,0.288,0.179,13.255,116.498,5.988
16:12:46:888,50.620,-0.311,0.260,0.184,15.928,119.295,8.726
16:12:46:888,50.620,-0.336,0.181,0.143,18.291,123.994,13.174
16:12:46:889,50.621,-0.326,0.093,0.139,19.497,127.794,17.015
16:12:46:89,50.622,-0.326,-0.006,0.128,20.591,133.800,23.664
16:12:46:905,50.637,-0.369,-0.077,0.123,20.897,137.453,28.290
16:12:47:046,50.777,-0.396,-0.121,0.104,21.170,141.557,34.842
16:12:47:047,50.778,-0.428,-0.210,0.066,21.924,143.735,40.458
16:12:47:047,50.779,-0.441,-0.268,0.033,22.863,144.332,43.558
16:12:47:048,50.780,-0.418,-0.370,-0.006,24.630,144.513,47.221
16:12:47:066,50.798,-0.361,-0.419,-0.056,25.823,144.388,48.985
16:12:47:066,50.798,-0.295,-0.497,-0.077,27.432,144.021,50.644
16:12:47:089,50.821,-0.258,-0.485,-0.069,28.281,143.580,51.151
16:12:47:115,50.847,-0.253,-0.433,-0.084,28.400,143.131,50.793
16:12:47:141,50.873,-0.290,-0.318,-0.141,28.077,142.018,49.048
16:12:47:168,50.899,-0.339,-0.226,-0.150,27.601,140.947,47.039
16:12:47:194,50.926,-0.384,-0.100,-0.169,26.395,138.925,42.674
16:12:47:22,50.952,-0.390,0.066,-0.197,25.256,137.306,38.898
16:12:47:246,50.978,-0.374,0.223,-0.180,23.229,134.651,32.217
16:12:47:273,51.005,-0.330,0.413,-0.107,21.153,131.979,24.810
16:12:47:299,51.031,-0.344,0.541,-0.035,19.803,130.322,19.751
16:12:47:325,51.057,-0.141,0.423,0.046,17.662,128.733,12.605
16:12:47:352,51.083,0.113,0.114,0.066,16.261,128.676,8.593
16:12:47:407,51.139,0.187,-0.014,0.042,14.388,129.784,4.289
16:12:47:408,51.140,0.222,-0.016,0.093,13.013,131.547,2.009
16:12:47:431,51.163,0.227,0.035,0.150,12.405,132.721,1.330
16:12:47:457,51.189,0.159,0.019,0.211,11.945,134.620,1.106
16:12:47:483,51.214,0.151,0.002,0.213,11.868,136.177,1.290
16:12:47:509,51.241,0.104,-0.042,0.162,12.034,139.468,1.939
16:12:47:538,51.270,0.116,-0.114,0.147,12.219,142.433,2.642
16:12:47:591,51.323,0.156,-0.160,0.172,12.449,147.899,4.138
16:12:47:591,51.323,0.199,-0.174,0.165,12.406,153.964,5.918
16:12:47:643,51.375,0.222,-0.185,0.167,12.177,157.889,7.080
16:12:47:645,51.377,0.252,-0.137,0.068,11.606,162.959,8.610
16:12:47:67,51.401,0.086,-0.146,-0.043,11.090,165.515,9.452
16:12:47:67,51.402,-0.077,-0.118,-0.206,10.119,168.935,10.350
16:12:47:693,51.425,0.041,-0.031,-0.125,8.744,173.692,10.812
16:12:47:72,51.452,0.049,-0.072,-0.129,7.890,176.991,10.672
16:12:47:776,51.508,0.241,-0.022,-0.154,6.928,-179.597,9.792
16:12:47:777,51.509,0.256,0.082,-0.184,6.338,-178.611,9.051
16:12:47:857,51.588,0.238,0.108,-0.174,5.421,-178.189,8.073
16:12:47:857,51.589,0.279,0.125,-0.144,4.585,-178.107,7.206
16:12:47:876,51.608,0.258,0.252,-0.143,3.518,-178.203,5.850
16:12:47:904,51.636,0.282,0.257,-0.081,3.315,-178.260,5.490
16:12:47:957,51.689,0.342,0.218,-0.097,3.262,-178.266,5.263
16:12:47:985,51.716,0.271,0.168,-0.139,3.388,-178.406,5.381
16:12:47:985,51.717,0.325,0.087,-0.108,3.861,-178.647,6.211
16:12:48:037,51.769,0.168,-0.021,-0.054,4.627,179.252,7.482
16:12:48:038,51.769,0.362,-0.051,0.086,5.843,175.511,8.248
16:12:48:06,51.792,-0.340,-0.062,0.001,8.019,166.481,8.473
16:12:48:087,51.819,-0.555,0.055,-0.126,9.587,160.936,8.285
16:12:48:113,51.845,0.113,0.183,0.126,11.703,157.170,9.037
16:12:48:14,51.872,0.025,0.212,0.212,13.520,155.469,10.665
16:12:48:195,51.927,-0.121,0.180,0.196,14.563,155.750,12.000
16:12:48:196,51.928,-0.126,0.020,0.216,16.000,157.906,14.900
16:12:48:218,51.949,-0.152,-0.039,0.191,16.916,159.534,17.292
16:12:48:244,51.976,-0.165,-0.081,0.211,18.209,161.851,21.326
16:12:48:27,52.002,-0.210,-0.077,0.202,19.013,163.241,24.102
16:12:48:296,52.028,-0.244,-0.101,0.197,20.238,165.047,28.051
16:12:48:323,52.055,-0.292,-0.189,0.185,21.484,166.540,31.546
16:12:48:407,52.139,-0.299,-0.213,0.196,22.199,167.592,33.590
16:12:48:408,52.140,-0.288,-0.220,0.154,23.023,169.070,36.037
16:12:48:409,52.140,-0.279,-0.214,0.120,23.456,169.855,37.167
16:12:48:428,52.160,-0.282,-0.209,0.095,24.032,170.819,38.079
16:12:48:454,52.186,-0.306,-0.182,0.074,24.606,170.922,38.121
16:12:48:482,52.213,-0.313,-0.156,0.057,24.993,170.682,37.684
16:12:48:507,52.239,-0.351,-0.093,0.056,25.495,169.846,36.348
16:12:48:562,52.294,-0.375,-0.036,0.070,25.671,169.150,35.015
16:12:48:563,52.295,-0.379,0.033,0.087,25.630,168.086,32.335
16:12:48:615,52.347,-0.406,0.091,0.096,25.407,167.478,30.154
16:12:48:616,52.347,-0.434,0.173,0.167,24.734,167.166,26.538
16:12:48:638,52.370,-0.416,0.264,0.257,23.485,168.273,22.777
16:12:48:664,52.396,-0.263,0.106,0.226,22.362,170.046,20.350
